timestamp,acc_x,acc_y,acc_z,gyro_x,gyro_y,gyro_z
0,36,-258,-49,-73,-20,-7
5,31,-260,-57,-80,-26,-7
10,33,-258,-56,-86,-32,-7
15,35,-262,-60,-94,-39,-7
20,33,-260,-59,-103,-47,-5
25,36,-258,-57,-112,-54,-5
30,33,-261,-60,-121,-62,-3
35,36,-257,-58,-130,-67,0
40,34,-259,-55,-138,-70,3
45,34,-260,-57,-138,-72,5
50,32,-260,-62,-136,-71,7
55,37,-260,-53,-134,-68,5
60,39,-260,-59,-130,-67,7
65,38,-257,-58,-123,-66,8
70,41,-260,-57,-118,-67,10
75,38,-260,-59,-115,-70,11
80,38,-257,-62,-113,-73,12
85,40,-258,-62,-115,-75,12
90,39,-257,-62,-117,-76,13
95,43,-258,-58,-124,-78,15
100,43,-258,-64,-127,-79,14
105,41,-256,-58,-131,-83,14
110,43,-257,-57,-135,-84,13
115,43,-259,-61,-139,-85,12
120,40,-257,-63,-143,-84,12
125,41,-260,-60,-147,-82,12
130,40,-262,-60,-149,-79,12
135,41,-258,-62,-150,-74,10
140,40,-258,-63,-151,-68,11
145,42,-259,-59,-151,-63,9
150,42,-257,-62,-150,-59,8
155,42,-257,-61,-152,-54,7
160,41,-260,-60,-154,-49,4
165,40,-256,-60,-156,-45,6
170,40,-259,-60,-159,-43,5
175,38,-262,-60,-164,-43,6
180,44,-265,-59,-169,-45,6
185,39,-264,-58,-171,-47,7
190,37,-261,-61,-173,-50,7
195,35,-261,-61,-172,-54,7
200,39,-261,-59,-172,-57,9
205,36,-259,-58,-174,-60,8
210,36,-264,-59,-173,-61,10
215,39,-264,-63,-176,-62,9
220,40,-265,-59,-176,-60,7
225,37,-261,-61,-173,-59,8
230,39,-263,-62,-174,-56,8
235,38,-264,-61,-169,-55,7
240,41,-264,-61,-165,-52,7
245,35,-265,-63,-159,-51,8
250,40,-267,-58,-151,-48,8
255,39,-263,-59,-143,-47,6
260,41,-264,-58,-136,-42,7
265,41,-267,-59,-129,-40,8
270,39,-263,-61,-122,-38,6
275,41,-261,-62,-116,-37,7
280,41,-263,-62,-110,-35,8
285,41,-257,-61,-109,-33,9
290,39,-257,-58,-109,-33,11
295,39,-257,-57,-110,-33,15
300,40,-256,-54,-115,-34,15
305,39,-256,-62,-123,-32,15
310,38,-258,-61,-129,-30,14
315,38,-257,-58,-137,-30,13
320,39,-258,-59,-139,-29,12
325,38,-259,-63,-141,-30,11
330,39,-258,-56,-140,-29,12
335,38,-259,-58,-135,-30,13
340,33,-259,-61,-136,-33,14
345,37,-260,-55,-137,-36,15
350,35,-255,-58,-140,-40,16
355,34,-257,-62,-144,-44,18
360,38,-262,-64,-152,-50,19
365,36,-262,-59,-161,-53,20
370,37,-263,-61,-168,-57,22
375,36,-263,-63,-173,-58,22
380,37,-266,-64,-173,-58,22
385,29,-261,-65,-171,-59,22
390,37,-268,-64,-164,-58,22
395,36,-265,-61,-156,-56,22
400,34,-262,-64,-149,-52,20
405,34,-264,-65,-141,-51,20
410,33,-262,-63,-131,-48,19
415,37,-261,-66,-126,-46,18
420,37,-263,-66,-124,-44,14
425,36,-260,-63,-122,-43,12
430,35,-259,-66,-125,-45,12
435,38,-257,-63,-127,-46,12
440,41,-259,-61,-130,-46,12
445,41,-259,-63,-132,-46,11
450,38,-256,-67,-133,-47,12
455,35,-258,-63,-133,-48,11
460,38,-259,-60,-133,-49,14
465,34,-258,-61,-134,-49,15
470,37,-259,-63,-132,-49,16
475,36,-259,-62,-133,-50,18
480,37,-257,-60,-132,-50,18
485,33,-257,-63,-132,-51,17
490,38,-257,-62,-132,-52,17
495,36,-260,-67,-133,-53,16
500,35,-257,-64,-134,-54,12
505,36,-259,-62,-137,-56,10
510,34,-258,-66,-137,-60,7
515,33,-259,-64,-138,-62,4
520,33,-259,-63,-141,-64,3
525,35,-260,-62,-146,-65,3
530,36,-264,-61,-149,-65,2
535,35,-261,-62,-149,-64,1
540,34,-262,-64,-150,-64,1
545,33,-264,-65,-147,-63,2
550,37,-264,-61,-144,-61,1
555,35,-264,-64,-141,-59,2
560,30,-262,-65,-134,-58,1
565,35,-261,-64,-128,-57,0
570,34,-264,-64,-121,-56,1
575,32,-266,-63,-116,-57,1
580,35,-265,-63,-112,-59,3
585,33,-266,-65,-108,-60,4
590,33,-265,-63,-105,-63,4
595,33,-263,-63,-100,-65,4
600,34,-263,-65,-95,-67,2
605,36,-263,-59,-90,-72,2
610,34,-263,-65,-87,-73,0
615,36,-264,-64,-82,-76,0
620,36,-265,-61,-79,-77,-1
625,33,-259,-62,-76,-77,-1
630,32,-258,-59,-73,-75,-2
635,35,-262,-65,-71,-74,-1
640,36,-257,-64,-69,-72,-1
645,36,-259,-63,-70,-70,0
650,36,-256,-67,-70,-70,1
655,33,-260,-66,-71,-67,3
660,38,-257,-64,-72,-67,5
665,33,-257,-68,-74,-66,6
670,45,-256,-67,-79,-65,7
675,41,-259,-65,-83,-62,6
680,40,-258,-64,-86,-60,7
685,39,-256,-66,-90,-57,5
690,40,-260,-66,-92,-54,2
695,40,-261,-66,-92,-52,-3
700,36,-261,-64,-93,-49,-6
705,37,-260,-64,-90,-46,-10
710,37,-262,-62,-86,-42,-14
715,36,-263,-65,-80,-40,-18
720,36,-268,-68,-73,-39,-20
725,31,-269,-62,-67,-39,-22
730,32,-263,-63,-63,-37,-24
735,36,-262,-62,-58,-35,-27
740,29,-264,-62,-53,-36,-28
745,30,-261,-64,-51,-36,-27
750,33,-262,-70,-49,-34,-30
755,32,-265,-68,-45,-36,-31
760,30,-263,-68,-40,-36,-31
765,31,-259,-66,-39,-37,-30
770,31,-260,-70,-35,-36,-32
775,30,-262,-66,-33,-39,-33
780,32,-265,-65,-30,-41,-34
785,34,-261,-65,-26,-46,-35
790,31,-261,-64,-23,-49,-35
795,37,-261,-65,-20,-53,-36
800,32,-259,-66,-19,-55,-36
805,35,-257,-66,-18,-57,-36
810,33,-258,-69,-17,-58,-35
815,34,-257,-70,-19,-58,-35
820,34,-258,-65,-18,-56,-35
825,35,-259,-71,-19,-55,-34
830,33,-257,-67,-23,-54,-34
835,41,-258,-71,-25,-53,-35
840,36,-259,-69,-28,-53,-36
845,35,-259,-70,-29,-54,-36
850,39,-260,-71,-27,-54,-36
855,38,-259,-70,-27,-55,-38
860,37,-259,-69,-31,-54,-40
865,37,-259,-70,-35,-55,-40
870,41,-261,-67,-41,-56,-41
875,36,-257,-65,-45,-56,-40
880,38,-262,-69,-53,-56,-41
885,39,-262,-65,-60,-56,-41
890,39,-264,-73,-65,-54,-39
895,38,-262,-65,-72,-53,-37
900,38,-265,-66,-74,-50,-34
905,39,-266,-65,-75,-44,-31
910,41,-265,-66,-73,-41,-28
915,39,-263,-64,-70,-35,-26
920,41,-264,-63,-64,-28,-24
925,42,-268,-62,-56,-24,-22
930,41,-259,-63,-47,-20,-18
935,40,-265,-63,-35,-18,-13
940,40,-264,-67,-27,-13,-10
945,38,-265,-69,-22,-11,-6
950,41,-260,-66,-17,-8,-4
955,41,-258,-67,-16,-8,-2
960,43,-263,-67,-11,-7,2
965,39,-261,-70,-10,-4,2
970,41,-258,-68,-8,0,4
975,42,-258,-66,-10,8,3
980,45,-260,-66,-10,13,1
985,46,-260,-69,-11,19,-1
990,39,-259,-68,-9,25,-2
995,43,-258,-63,-9,32,-4
1000,43,-261,-68,-10,40,-5
1005,42,-260,-68,-8,44,-8
1010,44,-262,-69,-8,51,-11
1015,43,-259,-66,-7,55,-14
1020,42,-259,-69,-3,60,-16
1025,40,-261,-65,-2,64,-19
1030,43,-259,-64,1,66,-20
1035,43,-258,-65,5,66,-20
1040,46,-260,-68,6,66,-20
1045,40,-254,-70,5,69,-20
1050,37,-257,-66,1,70,-19
1055,42,-257,-71,-5,71,-18
1060,37,-256,-63,-11,69,-16
1065,37,-256,-67,-17,70,-15
1070,36,-256,-66,-26,71,-12
1075,37,-256,-65,-34,71,-12
1080,37,-259,-64,-40,68,-10
1085,37,-256,-64,-47,68,-8
1090,36,-256,-68,-55,66,-7
1095,36,-259,-66,-59,66,-4
1100,38,-260,-66,-62,63,-4
1105,35,-253,-71,-65,61,-3
1110,37,-256,-65,-68,60,-3
1115,36,-259,-67,-68,60,-5
1120,38,-257,-69,-66,59,-6
1125,38,-257,-69,-62,58,-8
1130,39,-258,-71,-62,58,-9
1135,35,-261,-70,-58,56,-11
1140,39,-259,-70,-55,53,-10
1145,40,-258,-67,-54,50,-13
1150,39,-262,-70,-53,46,-12
1155,40,-259,-72,-51,43,-13
1160,42,-268,-65,-50,40,-15
1165,41,-261,-69,-46,39,-14
1170,41,-261,-72,-43,38,-16
1175,41,-262,-67,-39,38,-19
1180,43,-262,-71,-37,41,-19
1185,41,-261,-72,-33,44,-20
1190,43,-262,-68,-28,47,-20
1195,42,-266,-71,-24,50,-21
1200,43,-262,-70,-20,52,-21
1205,39,-258,-67,-17,53,-20
1210,42,-261,-71,-16,54,-20
1215,36,-266,-67,-17,54,-19
1220,40,-263,-66,-17,54,-17
1225,43,-260,-67,-19,51,-14
1230,39,-260,-67,-19,49,-13
1235,40,-260,-66,-21,46,-10
1240,38,-259,-64,-20,44,-9
1245,39,-258,-63,-19,42,-7
1250,41,-260,-65,-17,39,-5
1255,39,-261,-64,-13,35,-4
1260,42,-266,-65,-11,31,-1
1265,41,-262,-65,-9,27,1
1270,39,-262,-66,-6,25,2
1275,41,-260,-65,-2,25,2
1280,41,-261,-64,-1,25,3
1285,40,-261,-65,1,27,3
1290,39,-261,-64,0,31,3
1295,39,-261,-63,0,37,3
1300,41,-262,-62,0,44,1
1305,41,-261,-68,4,49,0
1310,42,-264,-64,5,57,3
1315,40,-262,-64,11,64,0
1320,41,-258,-65,13,70,-2
1325,42,-262,-64,21,75,-4
1330,38,-260,-69,26,79,-5
1335,40,-257,-63,28,82,-6
1340,39,-257,-64,28,85,-6
1345,35,-258,-66,30,84,-4
1350,40,-258,-65,26,83,-4
1355,37,-258,-66,25,83,-4
1360,39,-258,-62,23,82,-3
1365,39,-259,-65,21,82,-2
1370,35,-258,-68,14,79,-1
1375,31,-256,-61,14,78,0
1380,33,-257,-63,11,74,0
1385,34,-258,-64,8,72,2
1390,33,-256,-61,3,72,1
1395,35,-258,-67,0,71,1
1400,32,-256,-63,-4,69,1
1405,36,-258,-66,-11,68,1
1410,35,-257,-64,-18,67,0
1415,29,-257,-63,-24,68,0
1420,36,-259,-63,-32,68,1
1425,33,-262,-62,-37,69,1
1430,28,-266,-63,-42,69,3
1435,33,-258,-63,-41,70,2
1440,34,-260,-66,-39,72,2
1445,37,-261,-64,-35,72,2
1450,36,-262,-65,-28,70,1
1455,36,-261,-64,-23,67,-1
1460,34,-260,-64,-16,63,-2
1465,35,-259,-65,-12,60,-3
1470,35,-257,-65,-8,55,-4
1475,36,-259,-63,-6,52,-3
1480,36,-261,-64,-7,49,-4
1485,35,-260,-65,-6,47,-3
1490,35,-261,-66,-7,45,-3
1495,35,-260,-66,-10,42,-4
1500,35,-260,-65,-14,42,-5
1505,33,-260,-65,-17,37,-5
1510,34,-260,-66,-22,35,-6
1515,35,-260,-65,-23,32,-5
1520,35,-264,-67,-23,29,-7
1525,34,-259,-63,-23,28,-9
1530,35,-256,-64,-22,25,-9
1535,31,-261,-62,-22,20,-10
1540,33,-258,-63,-20,17,-11
1545,35,-260,-65,-20,14,-10
1550,35,-259,-61,-19,9,-9
1555,31,-256,-63,-19,6,-8
1560,32,-259,-64,-19,4,-8
1565,33,-259,-61,-19,1,-5
1570,33,-256,-61,-21,-1,-5
1575,33,-258,-65,-24,-1,-5
1580,32,-256,-63,-28,-2,-4
1585,37,-258,-63,-31,-3,-3
1590,36,-256,-60,-38,-5,-4
1595,35,-258,-61,-43,-6,-3
1600,36,-258,-67,-52,-7,-2
1605,38,-256,-65,-62,-7,-1
1610,36,-258,-66,-68,-8,-1
1615,37,-261,-65,-71,-6,1
1620,40,-261,-65,-75,-5,1
1625,36,-259,-65,-78,-3,0
1630,38,-261,-62,-79,-1,0
1635,42,-264,-66,-77,-1,-2
1640,38,-264,-65,-73,1,-3
1645,37,-264,-65,-69,-1,-3
1650,35,-261,-71,-65,0,-6
1655,37,-264,-66,-60,-1,-10
1660,36,-264,-68,-55,0,-12
1665,37,-260,-71,-53,-1,-12
1670,37,-264,-64,-47,2,-15
1675,36,-264,-64,-43,4,-17
1680,36,-261,-65,-37,5,-18
1685,31,-261,-70,-33,6,-18
1690,36,-259,-68,-29,6,-18
1695,37,-264,-63,-24,7,-17
1700,34,-265,-68,-22,6,-18
1705,38,-265,-59,-19,4,-16
1710,34,-260,-61,-17,1,-14
1715,37,-258,-63,-13,-1,-14
1720,34,-259,-63,-15,-4,-12
1725,36,-258,-64,-17,-4,-10
1730,33,-255,-63,-19,-4,-8
1735,39,-257,-64,-22,-4,-5
1740,34,-259,-62,-28,-2,-3
1745,38,-259,-67,-35,-4,-1
1750,37,-258,-64,-39,-4,0
1755,39,-258,-62,-44,-4,3
1760,37,-257,-62,-48,-4,4
1765,37,-261,-64,-52,-7,3
1770,37,-257,-63,-54,-9,3
1775,35,-259,-68,-56,-10,2
1780,39,-263,-66,-56,-9,0
1785,37,-260,-63,-60,-10,-1
1790,38,-262,-63,-61,-10,-2
1795,40,-262,-65,-62,-10,-4
1800,43,-262,-66,-63,-7,-5
1805,41,-262,-67,-60,-4,-5
1810,41,-262,-57,-57,-1,-7
1815,41,-266,-62,-52,2,-9
1820,39,-260,-61,-49,6,-9
1825,39,-261,-63,-45,11,-8
1830,39,-260,-67,-40,13,-8
1835,38,-262,-62,-36,15,-8
1840,38,-262,-67,-32,17,-7
1845,39,-259,-66,-27,20,-6
1850,35,-259,-65,-26,21,-8
1855,33,-257,-65,-26,24,-9
1860,35,-261,-65,-28,23,-9
1865,36,-259,-61,-28,22,-8
1870,38,-257,-63,-30,21,-8
1875,39,-259,-67,-34,19,-10
1880,36,-260,-60,-36,18,-10
1885,37,-259,-63,-37,15,-10
1890,38,-259,-64,-35,14,-7
1895,35,-257,-67,-34,11,-6
1900,36,-259,-65,-33,9,-7
1905,36,-257,-63,-32,9,-8
1910,36,-259,-70,-32,10,-7
1915,38,-260,-70,-35,10,-9
1920,42,-267,-61,-40,12,-8
1925,40,-261,-67,-46,12,-7
1930,37,-260,-65,-53,14,-5
1935,38,-263,-68,-57,19,-5
1940,38,-259,-68,-62,21,-5
1945,41,-264,-66,-65,23,-6
1950,40,-265,-61,-63,27,-5
1955,41,-263,-64,-58,29,-5
1960,37,-264,-61,-48,33,-4
1965,38,-264,-62,-37,35,-4
1970,39,-263,-63,-25,38,-6
1975,41,-263,-62,-10,42,-6
1980,37,-264,-61,1,44,-9
1985,37,-259,-63,7,45,-10
1990,40,-259,-63,11,45,-10
1995,38,-260,-65,10,43,-10
2000,34,-254,-63,6,43,-12
2005,36,-256,-65,0,41,-10
2010,37,-255,-65,-6,40,-10
2015,37,-257,-62,-13,39,-7
2020,36,-253,-63,-21,38,-7
2025,38,-260,-66,-28,40,-7
2030,35,-258,-62,-33,40,-5
2035,36,-260,-59,-34,41,-5
2040,37,-261,-64,-36,40,-4
2045,35,-259,-64,-37,41,-3
2050,35,-258,-63,-37,39,-3
2055,34,-261,-64,-36,37,-3
2060,36,-261,-64,-36,34,-3
2065,34,-263,-64,-34,31,-3
2070,33,-259,-64,-32,28,-2
2075,38,-264,-65,-31,26,-2
2080,35,-260,-64,-29,25,-1
2085,31,-261,-63,-25,23,-2
2090,38,-262,-63,-23,24,-3
2095,38,-263,-65,-22,21,-4
2100,37,-258,-63,-21,20,-4
2105,36,-262,-65,-23,17,-5
2110,37,-260,-63,-26,15,-4
2115,33,-261,-66,-28,13,-5
2120,37,-258,-64,-29,14,-4
2125,38,-259,-65,-29,14,-5
2130,36,-257,-65,-30,13,-5
2135,33,-259,-62,-28,12,-7
2140,36,-262,-64,-28,14,-5
2145,37,-263,-63,-27,17,-5
2150,36,-260,-65,-25,18,-6
2155,36,-261,-65,-25,20,-7
2160,38,-259,-65,-26,22,-6
2165,34,-259,-63,-24,24,-6
2170,36,-260,-64,-26,27,-7
2175,38,-259,-65,-28,29,-9
2180,35,-261,-67,-33,30,-7
2185,38,-261,-64,-37,34,-8
2190,38,-261,-75,-41,35,-9
2195,39,-260,-66,-45,38,-10
2200,39,-257,-68,-47,39,-11
2205,39,-259,-64,-49,37,-11
2210,42,-264,-68,-49,37,-10
2215,41,-261,-65,-45,37,-10
2220,41,-264,-69,-41,34,-10
2225,43,-261,-66,-33,34,-9
2230,42,-263,-68,-27,31,-7
2235,41,-262,-65,-21,30,-6
2240,39,-258,-68,-16,29,-5
2245,43,-256,-74,-15,27,-2
2250,43,-257,-69,-17,29,-2
2255,44,-258,-69,-20,29,0
2260,42,-257,-68,-22,32,-1
2265,44,-257,-68,-28,32,2
2270,40,-257,-66,-36,32,1
2275,41,-258,-70,-40,32,0
2280,38,-255,-76,-46,33,0
2285,35,-255,-70,-53,33,1
2290,44,-259,-65,-61,33,-1
2295,40,-256,-70,-66,32,-3
2300,39,-262,-71,-72,29,-5
2305,38,-257,-72,-75,29,-5
2310,39,-257,-73,-80,29,-7
2315,36,-258,-72,-84,30,-8
2320,37,-257,-70,-87,27,-8
2325,39,-258,-72,-89,26,-10
2330,39,-256,-71,-90,27,-11
2335,38,-257,-73,-91,25,-11
2340,38,-256,-72,-90,21,-10
2345,40,-258,-74,-89,18,-9
2350,37,-258,-68,-88,12,-9
2355,41,-255,-70,-86,7,-11
2360,35,-257,-75,-87,3,-10
2365,38,-256,-72,-87,1,-12
2370,36,-253,-72,-91,-3,-13
2375,39,-255,-70,-96,-3,-14
2380,39,-252,-71,-100,-5,-15
2385,40,-253,-72,-107,-10,-18
2390,37,-252,-72,-115,-13,-23
2395,37,-252,-70,-126,-18,-26
2400,38,-252,-71,-138,-24,-29
2405,40,-251,-69,-152,-26,-34
2410,36,-251,-66,-164,-27,-36
2415,37,-251,-71,-175,-25,-38
2420,35,-250,-71,-185,-25,-41
2425,37,-249,-73,-194,-22,-44
2430,38,-250,-77,-204,-16,-48
2435,37,-249,-74,-216,-12,-50
2440,34,-245,-77,-230,-9,-55
2445,39,-249,-75,-246,-7,-58
2450,37,-249,-77,-263,-6,-61
2455,35,-250,-82,-286,-7,-65
2460,36,-249,-81,-308,-8,-65
2465,41,-255,-80,-330,-7,-66
2470,34,-253,-79,-344,-6,-66
2475,38,-255,-79,-355,-5,-66
2480,35,-255,-80,-360,-5,-67
2485,38,-256,-79,-359,-6,-67
2490,36,-253,-83,-357,-9,-68
2495,38,-255,-83,-354,-11,-70
2500,37,-253,-84,-350,-14,-70
2505,38,-250,-81,-348,-18,-69
2510,42,-255,-79,-348,-24,-70
2515,37,-252,-80,-348,-30,-71
2520,35,-248,-75,-350,-38,-73
2525,37,-252,-79,-358,-46,-75
2530,33,-251,-78,-365,-55,-77
2535,37,-253,-83,-373,-62,-79
2540,32,-252,-81,-379,-68,-79
2545,30,-250,-79,-386,-70,-79
2550,34,-253,-79,-392,-71,-76
2555,32,-250,-78,-395,-74,-74
2560,32,-251,-78,-400,-75,-70
2565,34,-252,-75,-400,-80,-66
2570,33,-247,-75,-395,-85,-62
2575,37,-248,-70,-393,-92,-60
2580,32,-250,-79,-393,-98,-58
2585,36,-246,-75,-395,-104,-58
2590,32,-243,-81,-401,-113,-57
2595,33,-244,-83,-412,-119,-53
2600,34,-241,-83,-429,-129,-50
2605,34,-239,-87,-451,-137,-48
2610,30,-241,-90,-476,-147,-44
2615,33,-239,-91,-508,-159,-42
2620,35,-239,-93,-541,-170,-39
2625,37,-240,-92,-569,-179,-37
2630,37,-236,-92,-594,-188,-37
2635,36,-241,-89,-613,-195,-39
2640,39,-242,-93,-626,-199,-38
2645,41,-242,-93,-636,-199,-40
2650,39,-244,-96,-645,-194,-41
2655,41,-245,-98,-651,-187,-43
2660,40,-248,-96,-657,-178,-44
2665,39,-246,-94,-663,-169,-45
2670,34,-242,-99,-668,-161,-46
2675,36,-243,-92,-673,-154,-48
2680,41,-246,-102,-676,-150,-46
2685,37,-245,-99,-679,-150,-46
2690,35,-245,-95,-679,-154,-45
2695,32,-247,-95,-673,-163,-45
2700,35,-249,-96,-664,-176,-45
2705,37,-253,-95,-650,-188,-48
2710,36,-252,-93,-638,-199,-52
2715,32,-247,-90,-620,-212,-54
2720,31,-251,-93,-601,-224,-54
2725,32,-250,-90,-582,-235,-57
2730,33,-253,-90,-564,-245,-61
2735,25,-250,-99,-553,-253,-63
2740,26,-247,-99,-549,-264,-64
2745,25,-243,-103,-553,-272,-61
2750,24,-240,-115,-561,-279,-56
2755,23,-238,-117,-572,-283,-57
2760,26,-238,-121,-588,-286,-58
2765,28,-239,-120,-610,-289,-60
2770,28,-236,-119,-636,-294,-60
2775,31,-240,-115,-664,-297,-59
2780,32,-242,-120,-692,-299,-57
2785,31,-241,-115,-713,-300,-56
2790,30,-246,-115,-723,-300,-55
2795,37,-247,-113,-725,-299,-54
2800,39,-252,-116,-715,-300,-57
2805,41,-252,-116,-700,-300,-58
2810,42,-253,-116,-682,-300,-60
2815,38,-254,-115,-663,-300,-59
2820,40,-252,-114,-645,-300,-57
2825,42,-254,-111,-625,-302,-55
2830,42,-250,-113,-602,-303,-53
2835,43,-251,-106,-576,-302,-52
2840,46,-252,-111,-544,-300,-53
2845,44,-251,-105,-507,-296,-56
2850,44,-252,-113,-471,-289,-60
2855,45,-251,-111,-438,-283,-64
2860,42,-244,-113,-408,-276,-69
2865,45,-241,-115,-383,-269,-73
2870,44,-241,-114,-362,-262,-77
2875,39,-236,-121,-346,-257,-80
2880,42,-238,-123,-334,-256,-85
2885,36,-232,-123,-329,-254,-85
2890,41,-231,-129,-328,-253,-86
2895,37,-227,-133,-333,-251,-86
2900,38,-227,-131,-347,-251,-86
2905,41,-224,-132,-367,-252,-85
2910,42,-224,-137,-391,-254,-80
2915,38,-223,-132,-417,-255,-78
2920,42,-227,-137,-442,-255,-78
2925,41,-227,-134,-464,-254,-77
2930,42,-228,-130,-477,-251,-80
2935,41,-227,-127,-487,-248,-82
2940,46,-233,-132,-492,-245,-83
2945,40,-231,-130,-492,-242,-82
2950,43,-232,-129,-489,-238,-82
2955,41,-234,-127,-482,-231,-80
2960,44,-233,-128,-478,-222,-80
2965,45,-233,-129,-475,-214,-81
2970,43,-234,-129,-475,-204,-80
2975,41,-233,-128,-477,-196,-78
2980,40,-233,-132,-481,-187,-78
2985,39,-233,-135,-487,-181,-77
2990,39,-235,-136,-488,-176,-76
2995,38,-236,-142,-487,-174,-72
3000,40,-239,-139,-483,-172,-72
3005,38,-236,-144,-473,-174,-73
3010,37,-235,-142,-459,-180,-73
3015,39,-235,-143,-440,-187,-77
3020,41,-238,-147,-418,-197,-84
3025,40,-234,-150,-396,-205,-90
3030,46,-236,-150,-370,-213,-99
3035,44,-231,-152,-347,-217,-106
3040,43,-222,-152,-327,-219,-114
3045,43,-220,-154,-311,-218,-122
3050,40,-218,-153,-303,-217,-126
3055,41,-215,-151,-301,-216,-130
3060,41,-211,-154,-306,-214,-132
3065,40,-205,-161,-317,-211,-133
3070,38,-206,-163,-332,-206,-131
3075,39,-202,-157,-356,-197,-130
3080,39,-202,-164,-382,-187,-126
3085,38,-202,-166,-416,-179,-121
3090,37,-201,-165,-449,-172,-118
3095,40,-202,-159,-480,-168,-117
3100,39,-204,-156,-507,-165,-120
3105,37,-204,-162,-527,-162,-123
3110,38,-209,-160,-536,-159,-126
3115,44,-204,-159,-541,-152,-128
3120,41,-212,-163,-538,-145,-133
3125,38,-211,-161,-535,-138,-134
3130,39,-215,-163,-526,-133,-133
3135,41,-214,-165,-523,-127,-132
3140,40,-214,-167,-523,-122,-131
3145,44,-214,-164,-525,-120,-129
3150,41,-216,-165,-526,-117,-129
3155,43,-216,-160,-523,-116,-130
3160,46,-220,-161,-516,-113,-131
3165,44,-220,-159,-506,-109,-134
3170,45,-219,-154,-489,-105,-135
3175,41,-220,-162,-464,-103,-139
3180,42,-219,-160,-440,-101,-138
3185,41,-220,-164,-415,-100,-137
3190,42,-217,-160,-392,-99,-134
3195,39,-216,-159,-369,-97,-131
3200,40,-214,-164,-351,-91,-129
3205,44,-215,-164,-336,-85,-125
3210,40,-214,-161,-324,-75,-122
3215,48,-211,-160,-317,-64,-119
3220,48,-209,-158,-311,-53,-118
3225,51,-208,-161,-307,-42,-119
3230,51,-205,-160,-306,-35,-118
3235,48,-204,-162,-312,-31,-120
3240,48,-203,-163,-324,-29,-121
3245,53,-202,-166,-341,-30,-121
3250,50,-202,-169,-362,-31,-122
3255,52,-202,-171,-384,-34,-124
3260,55,-204,-171,-408,-38,-124
3265,54,-204,-172,-432,-43,-123
3270,54,-206,-169,-451,-51,-120
3275,50,-204,-168,-466,-63,-119
3280,50,-208,-175,-471,-73,-121
3285,49,-212,-171,-472,-75,-124
3290,51,-212,-171,-463,-71,-127
3295,49,-211,-171,-452,-61,-132
3300,45,-213,-172,-437,-45,-135
3305,43,-212,-175,-421,-28,-136
3310,41,-212,-168,-404,-11,-135
3315,37,-215,-171,-382,5,-134
3320,36,-214,-174,-362,22,-130
3325,34,-213,-177,-342,35,-125
3330,33,-215,-175,-323,48,-121
3335,31,-211,-168,-306,64,-114
3340,30,-213,-170,-288,78,-106
3345,34,-216,-171,-265,93,-99
3350,36,-216,-166,-240,106,-92
3355,33,-217,-170,-214,120,-86
3360,36,-215,-166,-186,130,-81
3365,38,-212,-165,-160,138,-76
3370,40,-211,-163,-134,142,-66
3375,43,-212,-162,-110,141,-54
3380,45,-210,-161,-87,133,-41
3385,48,-207,-162,-66,121,-30
3390,49,-208,-160,-51,108,-19
3395,50,-204,-167,-41,92,-9
3400,50,-204,-168,-36,77,-3
3405,52,-200,-169,-38,61,4
3410,53,-200,-173,-47,44,11
3415,50,-202,-175,-58,24,18
3420,51,-202,-180,-76,4,26
3425,48,-199,-179,-95,-16,33
3430,50,-206,-183,-118,-34,40
3435,48,-211,-188,-143,-48,44
3440,47,-213,-190,-165,-61,46
3445,46,-211,-187,-180,-69,45
3450,44,-223,-197,-192,-72,44
3455,46,-225,-195,-201,-67,44
3460,46,-229,-194,-203,-54,42
3465,44,-236,-193,-203,-34,39
3470,45,-241,-199,-196,-8,35
3475,48,-249,-197,-182,25,28
3480,48,-253,-199,-157,61,21
3485,51,-255,-201,-126,98,13
3490,50,-266,-204,-87,135,4
3495,56,-268,-205,-39,173,-5
3500,57,-271,-203,16,210,-17
3505,57,-269,-200,73,245,-27
3510,56,-265,-203,128,272,-38
3515,60,-265,-206,183,293,-49
3520,61,-262,-204,231,304,-59
3525,53,-262,-205,273,309,-70
3530,55,-258,-200,305,307,-76
3535,53,-256,-196,327,297,-78
3540,52,-257,-194,346,276,-80
3545,48,-249,-195,358,252,-75
3550,44,-248,-194,365,220,-68
3555,45,-250,-191,368,181,-57
3560,41,-245,-195,369,139,-46
3565,42,-246,-195,368,100,-31
3570,39,-243,-192,368,69,-17
3575,36,-242,-189,374,39,-3
3580,36,-242,-192,377,13,12
3585,37,-240,-192,380,-6,26
3590,38,-242,-193,384,-21,37
3595,40,-245,-190,388,-31,46
3600,38,-241,-191,393,-35,55
3605,41,-237,-192,398,-32,63
3610,41,-241,-194,399,-26,67
3615,42,-243,-192,402,-16,72
3620,40,-242,-191,403,-2,75
3625,41,-242,-193,405,8,75
3630,46,-247,-191,412,18,74
3635,47,-249,-191,424,27,74
3640,44,-249,-189,438,29,71
3645,42,-247,-190,452,27,71
3650,46,-253,-188,466,24,71
3655,43,-247,-189,479,17,70
3660,46,-258,-185,492,9,69
3665,49,-255,-184,504,-2,69
3670,46,-258,-187,517,-15,68
3675,45,-258,-183,531,-27,65
3680,48,-257,-181,544,-40,64
3685,44,-257,-180,555,-50,66
3690,47,-262,-179,562,-58,65
3695,45,-259,-176,564,-66,66
3700,46,-260,-176,563,-74,69
3705,48,-262,-177,557,-81,73
3710,45,-262,-177,548,-88,79
3715,49,-264,-175,540,-94,85
3720,43,-265,-182,536,-99,90
3725,43,-270,-176,536,-103,95
3730,43,-270,-179,542,-105,99
3735,40,-270,-178,552,-106,104
3740,44,-271,-173,568,-104,108
3745,43,-271,-171,589,-103,109
3750,42,-272,-167,616,-102,110
3755,43,-269,-164,647,-102,108
3760,44,-265,-160,680,-103,106
3765,42,-266,-153,714,-105,104
3770,36,-258,-148,748,-111,102
3775,38,-262,-151,780,-116,101
3780,40,-256,-147,811,-120,102
3785,35,-255,-143,841,-125,104
3790,36,-256,-135,867,-131,106
3795,37,-253,-134,892,-138,107
3800,41,-252,-134,914,-143,107
3805,43,-251,-129,935,-143,106
3810,38,-254,-129,952,-140,102
3815,36,-251,-128,962,-135,98
3820,36,-247,-128,961,-133,97
3825,44,-249,-132,953,-132,97
3830,37,-248,-128,936,-130,102
3835,33,-253,-130,919,-127,105
3840,33,-252,-129,901,-125,110
3845,34,-250,-129,880,-124,112
3850,34,-253,-132,854,-125,118
3855,37,-256,-135,832,-127,123
3860,32,-256,-133,808,-130,128
3865,36,-263,-131,788,-135,131
3870,30,-264,-129,769,-139,132
3875,34,-267,-131,752,-142,132
3880,37,-269,-135,736,-144,129
3885,35,-275,-126,725,-145,124
3890,34,-275,-125,718,-144,119
3895,34,-278,-122,716,-144,114
3900,29,-277,-124,718,-142,110
3905,28,-277,-124,728,-140,107
3910,30,-275,-118,744,-139,104
3915,25,-275,-116,766,-136,101
3920,29,-275,-116,790,-137,98
3925,28,-275,-115,819,-136,96
3930,29,-271,-111,851,-136,94
3935,26,-273,-110,883,-138,90
3940,26,-270,-114,910,-140,88
3945,24,-266,-109,934,-143,86
3950,23,-264,-106,953,-145,84
3955,21,-260,-102,969,-144,85
3960,23,-259,-101,977,-143,86
3965,24,-259,-99,981,-140,88
3970,26,-259,-93,984,-136,92
3975,23,-258,-90,989,-133,96
3980,24,-256,-84,991,-127,101
3985,23,-254,-86,989,-122,103
3990,28,-256,-76,988,-117,106
3995,33,-257,-69,984,-112,110
4000,31,-256,-66,980,-106,113
4005,35,-255,-64,972,-100,114
4010,35,-256,-64,958,-94,113
4015,35,-257,-65,941,-90,114
4020,39,-255,-67,920,-84,112
4025,39,-260,-62,895,-79,108
4030,39,-261,-62,871,-73,102
4035,38,-264,-69,844,-65,98
4040,42,-257,-57,818,-57,91
4045,39,-264,-59,791,-51,85
4050,39,-264,-61,764,-44,81
4055,36,-267,-60,737,-38,74
4060,35,-269,-61,712,-31,68
4065,36,-269,-61,688,-24,62
4070,32,-270,-57,672,-15,55
4075,30,-274,-62,659,-5,46
4080,29,-272,-58,656,4,35
4085,26,-275,-57,662,14,24
4090,28,-278,-56,676,22,14
4095,26,-273,-49,695,26,6
4100,24,-277,-49,718,33,-1
4105,21,-274,-47,743,37,-6
4110,24,-274,-45,766,41,-8
4115,21,-270,-44,791,41,-9
4120,24,-269,-40,814,40,-8
4125,24,-261,-39,833,38,-7
4130,26,-260,-34,847,36,-6
4135,26,-255,-36,855,39,-5
4140,26,-251,-28,856,39,-5
4145,29,-249,-27,850,44,-4
4150,27,-244,-24,836,50,-3
4155,29,-243,-24,815,56,-1
4160,31,-240,-23,784,60,0
4165,32,-234,-25,748,62,0
4170,32,-235,-21,705,62,2
4175,33,-235,-21,657,59,7
4180,34,-237,-21,606,55,14
4185,37,-238,-21,558,48,20
4190,34,-241,-20,512,38,25
4195,34,-248,-25,470,24,29
4200,35,-245,-26,435,9,31
4205,34,-249,-20,401,-5,31
4210,36,-250,-15,379,-16,27
4215,35,-252,-12,364,-26,24
4220,34,-257,-18,354,-30,20
4225,32,-257,-13,353,-28,13
4230,30,-260,-15,355,-20,8
4235,30,-261,-11,361,-13,1
4240,29,-263,-11,370,-2,-4
4245,28,-262,-9,379,3,-6
4250,29,-264,-4,389,3,-5
4255,25,-263,-10,397,-2,-6
4260,25,-263,-4,405,-9,-8
4265,21,-263,-11,414,-16,-7
4270,23,-265,-3,423,-23,-8
4275,20,-260,-7,426,-30,-8
4280,23,-260,-4,429,-33,-7
4285,22,-260,-5,427,-34,-5
4290,21,-258,-6,421,-33,-3
4295,24,-255,-5,414,-32,1
4300,24,-255,-3,405,-30,4
4305,28,-250,2,395,-28,8
4310,31,-253,-3,386,-30,10
4315,29,-247,0,371,-34,13
4320,30,-247,-3,356,-36,16
4325,32,-247,1,337,-38,18
4330,33,-248,0,318,-39,19
4335,32,-248,4,298,-41,17
4340,33,-244,1,281,-41,17
4345,33,-247,0,260,-40,13
4350,28,-247,-1,242,-39,10
4355,31,-249,5,227,-42,6
4360,32,-249,4,214,-42,4
4365,26,-246,-4,202,-45,-1
4370,25,-254,0,194,-47,-2
4375,22,-252,3,189,-49,-3
4380,23,-255,0,188,-51,-3
4385,20,-255,0,189,-54,-4
4390,21,-259,3,196,-54,-4
4395,23,-258,1,205,-55,-3
4400,20,-257,0,220,-51,-3
4405,21,-257,0,233,-47,-3
4410,25,-258,1,249,-41,-3
4415,23,-256,0,265,-33,-6
4420,26,-259,5,276,-24,-10
4425,26,-253,7,284,-13,-13
4430,31,-255,4,287,-2,-17
4435,30,-251,6,285,8,-22
4440,32,-251,6,274,19,-28
4445,33,-250,7,258,26,-33
4450,36,-249,7,233,32,-40
4455,36,-245,5,211,37,-43
4460,39,-252,3,181,44,-46
4465,36,-248,6,149,49,-45
4470,34,-251,5,117,53,-44
4475,37,-255,3,88,57,-40
4480,33,-254,3,59,58,-38
4485,32,-258,2,39,56,-35
4490,33,-257,1,21,52,-33
4495,30,-259,0,13,48,-28
4500,31,-261,1,10,46,-29
4505,29,-261,0,11,45,-28
4510,27,-266,0,14,46,-29
4515,26,-264,0,20,46,-31
4520,27,-267,-2,25,52,-31
4525,27,-262,-2,29,56,-32
4530,27,-266,0,34,64,-30
4535,28,-263,-6,36,73,-29
4540,26,-263,-3,39,79,-28
4545,27,-262,-3,41,86,-26
4550,27,-259,3,44,94,-24
4555,26,-257,1,46,100,-23
4560,31,-256,2,48,107,-23
4565,31,-255,4,52,113,-21
4570,29,-253,3,52,117,-23
4575,35,-250,-3,51,123,-24
4580,34,-251,-1,45,127,-26
4585,34,-245,1,41,129,-27
4590,32,-248,0,31,128,-28
4595,28,-247,-1,18,126,-29
4600,33,-247,2,3,122,-29
4605,29,-246,3,-15,117,-29
4610,28,-249,3,-29,112,-28
4615,29,-248,2,-43,106,-28
4620,28,-250,2,-52,100,-27
4625,24,-254,4,-60,95,-26
4630,28,-258,4,-63,88,-26
4635,23,-257,5,-63,83,-27
4640,22,-259,3,-64,82,-27
4645,23,-257,4,-61,81,-27
4650,22,-260,5,-60,80,-30
4655,22,-261,7,-55,78,-32
4660,19,-261,2,-52,74,-33
4665,16,-263,2,-52,69,-33
4670,17,-263,3,-50,65,-36
4675,15,-260,2,-51,61,-37
4680,16,-259,1,-49,60,-38
4685,16,-257,-2,-48,60,-37
4690,19,-253,3,-46,59,-37
4695,19,-255,2,-47,55,-35
4700,20,-258,0,-47,51,-35
4705,19,-255,3,-49,45,-33
4710,21,-253,4,-51,39,-32
4715,22,-253,2,-57,32,-32
4720,21,-255,2,-62,22,-31
4725,25,-254,-2,-69,10,-31
4730,23,-256,2,-75,-3,-32
4735,22,-255,-5,-84,-16,-31
4740,20,-254,-1,-90,-29,-32
4745,20,-255,8,-97,-42,-31
4750,23,-257,-1,-104,-49,-28
4755,23,-258,-3,-112,-53,-25
4760,24,-256,0,-117,-54,-22
4765,26,-261,-1,-121,-56,-17
4770,23,-260,-1,-123,-57,-15
4775,28,-262,-1,-126,-58,-12
4780,26,-260,1,-127,-58,-9
4785,29,-262,3,-124,-57,-8
4790,30,-266,0,-121,-57,-7
4795,29,-263,1,-114,-52,-8
4800,33,-267,0,-107,-48,-12
4805,32,-263,-2,-99,-43,-13
4810,31,-262,1,-92,-39,-17
4815,34,-264,1,-87,-35,-21
4820,35,-262,0,-83,-29,-25
4825,31,-260,-2,-79,-24,-26
4830,31,-260,-7,-77,-20,-29
4835,34,-258,-2,-79,-19,-32
4840,30,-259,-4,-81,-16,-35
4845,32,-258,0,-85,-12,-36
4850,33,-256,-2,-89,-6,-38
4855,35,-256,-4,-94,-3,-38
4860,35,-255,-5,-99,1,-38
4865,38,-259,-1,-101,5,-38
4870,37,-257,-5,-106,6,-37
4875,37,-259,-6,-108,4,-35
4880,36,-257,-4,-109,6,-33
4885,34,-255,-11,-108,9,-30
4890,38,-257,-9,-107,13,-29
4895,37,-258,-4,-108,16,-29
4900,35,-260,-12,-107,18,-29
4905,39,-259,1,-105,22,-30
4910,34,-258,-5,-102,25,-30
4915,31,-257,-4,-99,29,-29
4920,33,-258,-3,-95,31,-27
4925,31,-257,-6,-95,33,-27
4930,29,-258,-3,-97,33,-26
4935,28,-257,-2,-99,34,-23
4940,30,-255,-5,-105,31,-22
4945,29,-254,-8,-111,27,-20
4950,32,-256,-1,-116,20,-19
4955,30,-256,-6,-120,12,-19
4960,36,-254,-7,-124,4,-19
4965,32,-255,-5,-127,-1,-17
4970,34,-259,-6,-125,-6,-19
4975,33,-259,-5,-118,-8,-22
4980,36,-259,-8,-114,-6,-25
4985,37,-261,-5,-106,-3,-30
4990,33,-261,-7,-98,0,-33
4995,34,-258,-7,-92,4,-36
5000,37,-259,-4,-90,10,-40
5005,35,-258,-6,-87,17,-45
5010,39,-260,-6,-84,26,-50
5015,41,-258,-7,-82,37,-56
5020,38,-257,-8,-82,49,-63
5025,41,-256,-7,-81,61,-73
5030,41,-256,-7,-85,71,-82
5035,41,-256,-5,-89,79,-91
5040,43,-260,-5,-95,85,-99
5045,45,-257,-11,-103,88,-108
5050,45,-257,-10,-114,86,-117
5055,47,-259,-7,-126,82,-123
5060,42,-256,-2,-137,75,-128
5065,36,-256,-11,-149,66,-129
5070,37,-254,-7,-161,61,-131
5075,39,-257,-9,-170,61,-131
5080,38,-255,-8,-180,65,-131
5085,35,-257,-6,-187,73,-126
5090,34,-258,-11,-198,82,-120
5095,34,-257,-11,-208,91,-114
5100,34,-258,-11,-211,100,-107
5105,31,-259,-11,-213,107,-101
5110,32,-261,-11,-212,115,-94
5115,30,-267,-14,-205,123,-90
5120,30,-262,-15,-193,130,-84
5125,35,-264,-8,-179,135,-81
5130,32,-263,-10,-164,138,-80
5135,30,-260,-15,-148,134,-79
5140,30,-263,-9,-134,125,-76
5145,32,-262,-14,-123,111,-72
5150,31,-260,-17,-116,95,-69
5155,31,-257,-19,-115,76,-67
5160,31,-256,-19,-123,63,-66
5165,32,-257,-18,-135,54,-64
5170,27,-255,-22,-150,49,-63
5175,32,-254,-16,-169,46,-61
5180,34,-261,-17,-192,48,-60
5185,28,-256,-16,-216,51,-58
5190,24,-256,-21,-242,58,-57
5195,25,-257,-18,-265,63,-56
5200,23,-259,-15,-286,69,-51
5205,25,-260,-18,-300,75,-50
5210,25,-264,-15,-311,82,-49
5215,29,-263,-15,-313,86,-46
5220,25,-262,-13,-311,88,-41
5225,25,-262,-16,-298,88,-38
5230,28,-261,-15,-279,85,-36
5235,27,-260,-14,-254,77,-35
5240,28,-264,-16,-226,68,-33
5245,29,-263,-17,-194,59,-31
5250,33,-262,-19,-169,51,-30
5255,32,-261,-16,-147,43,-25
5260,33,-258,-19,-128,36,-21
5265,34,-257,-21,-117,27,-15
5270,37,-258,-22,-111,21,-12
5275,35,-256,-23,-109,17,-9
5280,36,-257,-14,-114,13,-6
5285,44,-259,-17,-125,10,-4
5290,40,-257,-18,-141,7,-1
5295,37,-256,-18,-153,7,-1
5300,39,-256,-17,-171,7,-2
5305,38,-259,-19,-181,11,-3
5310,42,-263,-17,-188,18,-4
5315,40,-263,-15,-191,24,-4
5320,38,-265,-16,-194,30,-5
5325,40,-268,-17,-192,34,-4
5330,40,-268,-17,-186,34,-4
5335,33,-270,-16,-173,30,-6
5340,42,-266,-21,-155,28,-10
5345,34,-274,-20,-136,26,-13
5350,35,-271,-19,-123,27,-16
5355,37,-273,-16,-113,28,-20
5360,34,-268,-21,-107,30,-22
5365,38,-267,-18,-103,32,-23
5370,38,-265,-18,-103,31,-26
5375,35,-260,-19,-105,31,-26
5380,34,-261,-23,-107,30,-28
5385,35,-258,-21,-110,29,-30
5390,35,-254,-23,-110,28,-34
5395,39,-252,-29,-111,30,-37
5400,34,-253,-25,-114,32,-38
5405,36,-255,-21,-119,35,-38
5410,38,-255,-29,-125,38,-38
5415,38,-256,-25,-132,36,-39
5420,35,-254,-26,-141,36,-45
5425,35,-254,-25,-150,35,-50
5430,33,-254,-25,-160,39,-53
5435,34,-253,-28,-173,42,-55
5440,31,-256,-23,-190,48,-56
5445,30,-256,-25,-207,48,-55
5450,30,-257,-24,-219,44,-52
5455,32,-258,-29,-226,36,-48
5460,30,-261,-29,-228,25,-43
5465,32,-263,-29,-224,17,-37
5470,34,-267,-27,-216,9,-29
5475,36,-270,-27,-202,3,-22
5480,39,-275,-25,-185,-3,-18
5485,38,-269,-26,-165,-7,-12
5490,36,-273,-29,-140,-10,-10
5495,37,-274,-29,-117,-16,-10
5500,41,-276,-26,-94,-20,-7
5505,39,-272,-27,-74,-25,-9
5510,38,-270,-28,-59,-28,-10
5515,40,-269,-25,-48,-30,-11
5520,37,-266,-26,-42,-28,-13
5525,40,-263,-28,-40,-23,-13
5530,36,-266,-27,-40,-17,-15
5535,40,-265,-31,-43,-11,-18
5540,36,-262,-31,-47,-5,-21
5545,37,-260,-30,-49,-1,-25
5550,35,-262,-30,-52,2,-28
5555,29,-262,-34,-60,3,-32
5560,32,-261,-26,-62,5,-35
5565,34,-264,-27,-66,2,-37
5570,33,-260,-29,-66,-2,-39
5575,34,-263,-26,-65,-6,-37
5580,30,-259,-29,-62,-9,-38
5585,31,-264,-28,-58,-13,-38
5590,32,-262,-31,-53,-16,-37
5595,35,-264,-31,-48,-17,-37
5600,36,-262,-33,-42,-16,-36
5605,34,-259,-28,-37,-15,-37
5610,38,-265,-29,-34,-13,-37
5615,38,-260,-28,-33,-11,-36
5620,41,-263,-30,-35,-9,-35
5625,41,-263,-28,-37,-7,-35
5630,39,-259,-26,-41,-4,-35
5635,43,-260,-29,-46,-4,-35
5640,42,-258,-26,-52,-4,-35
5645,47,-261,-27,-57,-3,-34
5650,43,-259,-26,-63,-1,-34
5655,46,-263,-28,-66,-1,-34
5660,41,-257,-31,-67,1,-35
5665,41,-262,-28,-68,3,-33
5670,39,-258,-26,-66,6,-31
5675,40,-258,-28,-64,7,-32
5680,42,-259,-30,-62,11,-31
5685,40,-258,-26,-59,14,-30
5690,40,-259,-27,-58,17,-29
5695,39,-258,-31,-57,21,-27
5700,41,-257,-24,-58,23,-29
5705,38,-257,-27,-59,25,-27
5710,40,-261,-28,-61,31,-28
5715,38,-262,-25,-62,35,-28
5720,35,-260,-27,-64,36,-29
5725,36,-261,-27,-65,36,-29
5730,37,-261,-27,-62,38,-29
5735,37,-264,-27,-59,37,-32
5740,37,-261,-21,-58,35,-32
5745,36,-259,-24,-54,32,-30
5750,38,-263,-22,-52,29,-29
5755,35,-260,-24,-47,25,-29
5760,37,-263,-22,-43,20,-29
5765,36,-260,-23,-39,15,-27
5770,28,-258,-20,-37,9,-24
5775,34,-258,-20,-35,5,-21
5780,37,-257,-23,-30,-1,-18
5785,40,-261,-24,-26,-4,-15
5790,37,-262,-21,-28,-7,-13
5795,38,-260,-26,-28,-8,-10
5800,39,-261,-26,-32,-8,-8
5805,41,-258,-28,-36,-6,-6
5810,40,-260,-26,-42,-6,-4
5815,42,-260,-30,-50,-7,-4
5820,41,-259,-27,-58,-9,-3
5825,35,-257,-29,-65,-7,-3
5830,41,-259,-29,-72,-9,-2
5835,43,-262,-28,-78,-11,-1
5840,43,-259,-28,-81,-12,-2
5845,43,-262,-29,-85,-12,-2
5850,40,-262,-28,-88,-14,-4
5855,40,-259,-28,-90,-15,-6
5860,45,-263,-30,-92,-17,-7
5865,41,-259,-31,-89,-18,-10
5870,40,-262,-29,-85,-18,-11
5875,41,-262,-29,-80,-17,-12
5880,44,-265,-33,-77,-15,-13
5885,40,-259,-33,-71,-12,-13
5890,40,-263,-31,-66,-7,-14
5895,40,-262,-32,-63,-3,-14
5900,40,-261,-31,-61,0,-12
5905,42,-262,-28,-59,3,-10
5910,40,-262,-35,-59,6,-8
5915,43,-262,-34,-55,9,-7
5920,39,-261,-29,-53,10,-3
5925,39,-258,-33,-48,12,0
5930,41,-258,-34,-45,11,1
5935,42,-261,-32,-46,12,5
5940,41,-260,-31,-48,14,6
5945,45,-259,-30,-49,19,7
5950,42,-258,-32,-54,23,6
5955,45,-261,-29,-59,30,3
5960,43,-260,-26,-64,36,-1
5965,42,-264,-28,-69,43,-6
5970,45,-265,-30,-73,49,-13
5975,43,-263,-19,-72,57,-20
5980,41,-266,-26,-68,64,-27
5985,43,-263,-30,-63,68,-33
5990,42,-265,-22,-57,71,-39
5995,42,-266,-25,-47,70,-45
6000,43,-266,-20,-35,71,-50
6005,42,-267,-20,-21,71,-56
6010,41,-263,-20,-6,70,-60
6015,41,-262,-25,9,67,-65
6020,41,-262,-23,25,59,-69
6025,37,-260,-29,37,54,-71
6030,39,-260,-28,48,48,-70
6035,37,-260,-23,53,41,-70
6040,36,-253,-34,56,35,-68
6045,37,-259,-26,58,30,-66
6050,39,-255,-24,57,28,-62
6055,39,-257,-28,53,24,-58
6060,42,-255,-28,43,24,-54
6065,39,-255,-30,32,23,-49
6070,40,-255,-27,19,23,-45
6075,43,-256,-27,2,23,-40
6080,43,-259,-25,-15,20,-35
6085,44,-259,-22,-31,15,-30
6090,40,-257,-27,-46,9,-26
6095,42,-263,-27,-57,4,-23
6100,42,-260,-23,-66,0,-20
6105,39,-261,-24,-68,-1,-19
6110,43,-262,-19,-68,0,-19
6115,40,-261,-21,-63,5,-18
6120,41,-265,-19,-53,11,-19
6125,39,-262,-23,-45,19,-20
6130,39,-261,-20,-33,27,-21
6135,40,-262,-22,-23,34,-19
6140,39,-264,-20,-15,38,-21
6145,40,-260,-26,-9,44,-21
6150,41,-259,-24,-3,47,-20
6155,38,-260,-26,-3,49,-20
6160,37,-258,-23,-4,50,-19
6165,36,-259,-30,-5,47,-16
6170,39,-259,-27,-10,45,-15
6175,41,-259,-27,-15,41,-14
6180,37,-259,-25,-21,38,-11
6185,40,-258,-25,-28,33,-10
6190,37,-260,-23,-32,29,-10
6195,40,-262,-23,-35,30,-8
6200,40,-261,-32,-37,27,-7
6205,40,-263,-23,-39,25,-7
6210,38,-260,-25,-39,23,-6
6215,39,-261,-25,-38,19,-6
6220,37,-260,-24,-39,18,-7
6225,38,-262,-27,-39,16,-9
6230,40,-261,-25,-35,11,-8
6235,39,-261,-24,-31,7,-11
6240,39,-266,-25,-29,2,-14
6245,38,-263,-27,-25,-3,-17
6250,37,-262,-27,-23,-7,-19
6255,39,-258,-29,-21,-14,-21
6260,35,-261,-23,-22,-18,-22
6265,38,-259,-25,-21,-25,-24
6270,35,-258,-23,-22,-31,-24
6275,39,-260,-25,-23,-35,-22
6280,39,-262,-30,-25,-40,-22
6285,39,-261,-27,-27,-45,-19
6290,35,-257,-29,-27,-49,-17
6295,38,-259,-26,-28,-51,-14
6300,37,-256,-28,-30,-52,-10
6305,37,-257,-28,-30,-54,-5
6310,35,-262,-28,-29,-54,-1
6315,39,-258,-28,-31,-55,4
6320,41,-258,-27,-33,-58,7
6325,40,-261,-26,-37,-60,10
6330,39,-258,-28,-41,-61,14
6335,39,-259,-27,-48,-59,18
6340,43,-262,-26,-56,-58,19
6345,42,-260,-26,-66,-56,23
6350,40,-262,-26,-75,-52,24
6355,41,-261,-27,-81,-49,28
6360,46,-265,-19,-85,-45,30
6365,40,-266,-27,-86,-42,33
6370,45,-268,-21,-87,-40,38
6375,43,-267,-18,-82,-42,40
6380,42,-269,-23,-79,-42,41
6385,41,-264,-19,-72,-45,40
6390,42,-266,-22,-60,-47,39
6395,39,-263,-21,-50,-47,41
6400,42,-269,-23,-38,-43,40
6405,44,-264,-20,-27,-38,40
6410,42,-261,-15,-13,-35,43
6415,41,-263,-21,-3,-34,46
6420,40,-260,-27,10,-34,46
6425,45,-258,-22,17,-37,46
6430,43,-256,-26,24,-39,44
6435,42,-252,-24,23,-36,39
6440,44,-254,-24,21,-30,36
6445,42,-255,-22,14,-23,32
6450,41,-250,-20,0,-16,30
6455,42,-253,-22,-10,-8,27
6460,40,-253,-24,-24,1,24
6465,36,-252,-17,-36,8,23
6470,38,-254,-19,-47,14,24
6475,37,-256,-13,-59,18,23
6480,38,-258,-16,-67,20,23
6485,37,-256,-12,-73,23,24
6490,39,-259,-12,-73,22,24
6495,36,-258,-12,-73,23,23
6500,37,-259,-11,-71,21,23
6505,37,-262,-16,-67,19,23
6510,32,-258,-14,-63,18,21
6515,31,-257,-20,-58,17,20
6520,36,-258,-21,-54,17,14
6525,36,-259,-24,-52,19,11
6530,35,-256,-24,-52,22,6
6535,37,-253,-26,-56,23,-1
6540,36,-255,-27,-61,28,-6
6545,38,-254,-23,-67,31,-10
6550,41,-256,-28,-73,35,-15
6555,41,-256,-27,-76,38,-19
6560,37,-257,-28,-80,39,-23
6565,42,-257,-30,-82,39,-25
6570,46,-258,-26,-82,37,-27
6575,44,-262,-32,-83,36,-26
6580,46,-259,-34,-83,34,-24
6585,46,-259,-27,-84,33,-21
6590,46,-263,-30,-84,32,-19
6595,46,-262,-26,-83,31,-17
6600,49,-264,-24,-80,30,-15
6605,48,-265,-23,-75,28,-13
6610,46,-265,-25,-68,28,-15
6615,48,-267,-22,-62,29,-17
6620,46,-264,-27,-60,29,-20
6625,46,-263,-23,-62,29,-21
6630,45,-259,-24,-67,32,-25
6635,46,-259,-21,-77,38,-28
6640,44,-259,-24,-87,44,-32
6645,40,-257,-25,-99,50,-33
6650,42,-258,-24,-112,59,-36
6655,41,-259,-26,-123,66,-38
6660,41,-257,-23,-133,75,-40
6665,43,-260,-23,-140,82,-41
6670,43,-256,-23,-146,88,-41
6675,39,-257,-20,-148,92,-42
6680,40,-257,-21,-152,94,-42
6685,43,-262,-25,-152,94,-43
6690,41,-259,-18,-153,93,-42
6695,42,-256,-23,-155,89,-40
6700,39,-257,-24,-162,84,-39
6705,40,-255,-27,-166,78,-35
6710,42,-258,-30,-174,72,-36
6715,45,-257,-29,-180,65,-36
6720,45,-258,-33,-190,61,-36
6725,43,-258,-34,-199,57,-37
6730,47,-258,-34,-208,54,-38
6735,47,-260,-35,-219,55,-41
6740,43,-257,-30,-228,57,-44
6745,45,-258,-40,-237,59,-46
6750,44,-259,-39,-245,61,-48
6755,42,-257,-36,-251,68,-52
6760,41,-263,-40,-256,74,-53
6765,42,-262,-37,-259,79,-54
6770,44,-266,-36,-265,83,-53
6775,44,-267,-37,-265,87,-51
6780,43,-268,-33,-264,89,-46
6785,43,-268,-33,-261,93,-41
6790,38,-270,-35,-252,94,-37
6795,42,-273,-30,-236,96,-35
6800,40,-271,-32,-216,97,-30
6805,41,-273,-35,-191,96,-25
6810,41,-272,-33,-164,93,-23
6815,36,-268,-34,-134,86,-20
6820,40,-268,-35,-105,80,-17
6825,37,-266,-37,-76,71,-15
6830,38,-263,-40,-51,60,-14
6835,38,-261,-40,-30,47,-13
6840,37,-257,-40,-17,34,-14
6845,39,-258,-38,-7,20,-17
6850,29,-255,-46,-4,10,-22
6855,41,-255,-45,-3,1,-27
6860,37,-256,-43,-9,-6,-34
6865,38,-257,-42,-19,-11,-42
6870,40,-256,-48,-31,-12,-48
6875,39,-255,-45,-46,-14,-51
6880,38,-258,-48,-60,-15,-53
6885,37,-256,-46,-74,-19,-53
6890,39,-256,-43,-88,-23,-50
6895,40,-256,-46,-97,-27,-46
6900,43,-262,-43,-101,-33,-41
6905,40,-262,-40,-103,-36,-37
6910,38,-262,-42,-100,-40,-30
6915,39,-267,-41,-94,-41,-25
6920,38,-267,-46,-84,-41,-20
6925,38,-266,-38,-73,-40,-15
6930,41,-268,-38,-66,-36,-8
6935,40,-271,-37,-57,-35,-4
6940,37,-271,-41,-48,-36,1
6945,41,-268,-39,-42,-39,7
6950,38,-269,-39,-34,-43,12
6955,37,-271,-37,-29,-49,19
6960,37,-267,-33,-24,-56,22
6965,37,-267,-31,-20,-64,27
6970,41,-270,-36,-17,-70,28
6975,38,-267,-33,-13,-75,31
6980,41,-267,-30,-11,-79,34
6985,46,-262,-30,-7,-80,36
6990,46,-261,-27,-5,-81,37
6995,46,-260,-30,-4,-80,37
7000,42,-258,-24,0,-79,37
7005,47,-259,-28,5,-77,37
7010,49,-259,-30,8,-73,37
7015,50,-266,-27,11,-70,37
7020,49,-256,-27,13,-68,36
7025,50,-258,-25,11,-64,36
7030,49,-257,-26,10,-61,35
7035,48,-258,-26,9,-58,32
7040,52,-256,-30,7,-56,32
7045,48,-258,-31,7,-53,29
7050,48,-257,-31,4,-53,27
7055,45,-260,-32,2,-49,27
7060,45,-258,-32,0,-44,24
7065,46,-261,-32,-4,-38,24
7070,47,-260,-33,-7,-34,24
7075,45,-262,-31,-13,-29,24
7080,45,-262,-31,-17,-25,25
7085,45,-263,-37,-21,-18,25
7090,44,-262,-36,-26,-11,27
7095,43,-263,-33,-30,-4,27
7100,43,-263,-39,-34,3,29
7105,43,-264,-37,-37,9,31
7110,41,-266,-39,-37,12,33
7115,37,-262,-34,-32,15,32
7120,41,-264,-31,-25,19,31
7125,41,-264,-32,-18,21,30
7130,37,-263,-34,-7,26,30
7135,40,-263,-32,2,27,30
7140,39,-262,-33,11,29,30
7145,38,-263,-31,21,28,31
7150,39,-260,-33,30,28,32
7155,38,-261,-32,33,26,33
7160,39,-261,-27,35,22,34
7165,38,-262,-33,35,17,37
7170,38,-260,-38,34,12,40
7175,41,-257,-32,32,8,40
7180,39,-258,-33,26,4,40
7185,37,-260,-33,22,2,42
7190,36,-257,-33,18,3,43
7195,37,-260,-33,14,5,44
7200,36,-258,-33,13,7,42
7205,37,-260,-36,10,10,43
7210,38,-259,-33,4,12,42
7215,35,-259,-30,1,16,40
7220,39,-265,-31,-3,21,39
7225,33,-262,-28,-7,24,36
7230,36,-260,-33,-13,28,36
7235,36,-257,-27,-16,31,36
7240,34,-259,-27,-20,33,34
7245,34,-259,-26,-24,33,35
7250,37,-259,-27,-27,33,33
7255,37,-260,-27,-28,32,33
7260,35,-258,-27,-29,34,32
7265,36,-258,-24,-28,32,31
7270,37,-261,-28,-29,34,31
7275,36,-261,-25,-30,33,30
7280,34,-261,-27,-31,33,31
7285,35,-259,-34,-31,29,29
7290,33,-259,-29,-35,25,28
7295,35,-258,-29,-38,22,27
7300,34,-259,-28,-41,17,24
7305,34,-260,-30,-42,13,23
7310,35,-259,-30,-45,7,20
7315,35,-258,-31,-47,3,17
7320,37,-263,-27,-49,0,13
7325,38,-260,-29,-48,-2,10
7330,36,-261,-34,-47,-3,10
7335,37,-264,-25,-45,-3,8
7340,35,-271,-26,-42,-1,8
7345,39,-263,-31,-38,2,7
7350,40,-263,-32,-33,2,7
7355,37,-263,-32,-31,4,6
7360,35,-263,-33,-27,4,8
7365,38,-263,-31,-27,6,8
7370,37,-260,-30,-30,8,7
7375,36,-263,-35,-32,7,7
7380,36,-262,-38,-33,11,7
7385,35,-261,-37,-37,11,6
7390,38,-262,-33,-39,12,5
7395,37,-257,-33,-42,15,2
7400,35,-259,-32,-43,17,-4
7405,33,-258,-36,-42,22,-9
7410,36,-260,-35,-38,24,-14
7415,34,-259,-33,-37,25,-18
7420,34,-260,-34,-33,25,-23
7425,35,-258,-37,-29,26,-28
7430,36,-260,-30,-26,27,-29
7435,31,-260,-35,-22,28,-33
7440,34,-262,-31,-14,27,-35
7445,35,-255,-32,-9,27,-38
7450,35,-261,-31,-7,25,-40
7455,35,-263,-36,-9,25,-41
7460,37,-261,-36,-11,24,-41
7465,36,-261,-35,-16,27,-42
7470,38,-261,-33,-21,31,-42
7475,39,-263,-31,-26,36,-44
7480,42,-264,-32,-31,41,-47
7485,40,-263,-32,-37,46,-48
7490,41,-261,-27,-41,51,-50
7495,47,-268,-30,-45,55,-50
7500,47,-262,-26,-54,61,-54
7505,44,-263,-25,-57,68,-63
7510,46,-263,-24,-55,76,-71
7515,44,-261,-22,-52,85,-77
7520,44,-258,-23,-47,95,-82
7525,44,-257,-22,-43,106,-85
7530,43,-256,-23,-42,114,-87
7535,44,-255,-21,-44,120,-86
7540,43,-249,-25,-48,120,-83
7545,45,-253,-26,-58,119,-80
7550,42,-249,-28,-70,116,-74
7555,42,-250,-30,-86,113,-69
7560,43,-251,-27,-108,109,-65
7565,42,-249,-26,-129,103,-62
7570,41,-252,-26,-150,98,-58
7575,39,-251,-31,-171,94,-55
7580,44,-254,-27,-186,91,-51
7585,43,-253,-28,-201,89,-48
7590,45,-254,-27,-206,87,-45
7595,45,-257,-27,-209,86,-41
7600,42,-254,-25,-206,86,-39
7605,46,-257,-25,-197,86,-36
7610,46,-252,-24,-189,86,-33
7615,46,-255,-24,-178,87,-31
7620,48,-255,-25,-167,87,-28
7625,46,-255,-24,-156,91,-26
7630,48,-256,-19,-151,96,-24
7635,47,-255,-18,-150,102,-20
7640,45,-254,-21,-155,108,-15
7645,42,-252,-19,-162,116,-11
7650,48,-254,-19,-178,123,-6
7655,45,-252,-17,-197,127,0
7660,47,-253,-19,-221,128,6
7665,42,-253,-20,-248,125,12
7670,41,-252,-18,-278,120,19
7675,40,-254,-20,-309,112,25
7680,37,-254,-18,-339,103,33
7685,36,-256,-20,-368,90,43
7690,37,-256,-17,-394,76,52
7695,35,-255,-19,-416,61,58
7700,36,-256,-20,-432,48,66
7705,35,-253,-20,-442,40,72
7710,33,-251,-18,-447,33,76
7715,42,-253,-30,-449,31,80
7720,36,-254,-27,-447,29,81
7725,33,-254,-27,-446,32,80
7730,33,-252,-28,-444,37,81
7735,35,-252,-27,-442,47,81
7740,33,-249,-24,-444,55,79
7745,37,-251,-28,-447,62,78
7750,39,-251,-29,-453,66,77
7755,40,-249,-25,-460,67,76
7760,41,-248,-30,-469,67,74
7765,37,-251,-27,-480,66,73
7770,35,-250,-27,-493,64,74
7775,34,-252,-28,-503,59,74
7780,37,-255,-29,-513,51,76
7785,42,-256,-28,-515,42,79
7790,37,-256,-24,-518,37,84
7795,38,-256,-29,-514,32,88
7800,35,-254,-27,-503,29,92
7805,41,-257,-28,-490,24,94
7810,40,-255,-27,-473,24,94
7815,38,-252,-28,-458,27,92
7820,40,-255,-30,-440,34,90
7825,39,-253,-25,-427,49,92
7830,42,-253,-29,-417,68,92
7835,39,-255,-26,-410,88,91
7840,42,-252,-25,-406,111,87
7845,43,-255,-22,-405,132,83
7850,40,-254,-22,-400,161,79
7855,44,-254,-17,-394,191,72
7860,46,-256,-17,-381,220,58
7865,47,-254,-24,-367,248,46
7870,44,-255,-22,-355,273,30
7875,42,-250,-25,-354,290,16
7880,38,-246,-34,-360,300,2
7885,33,-248,-27,-381,302,-12
7890,41,-246,-36,-415,297,-21
7895,38,-243,-41,-456,282,-28
7900,41,-247,-40,-504,261,-30
7905,39,-244,-44,-549,232,-32
7910,37,-248,-50,-592,199,-32
7915,40,-255,-51,-630,165,-31
7920,39,-254,-51,-663,131,-31
7925,36,-254,-52,-687,94,-27
7930,33,-259,-56,-702,54,-28
7935,34,-262,-60,-709,16,-22
7940,33,-267,-62,-705,-19,-21
7945,34,-266,-60,-699,-50,-13
7950,35,-270,-65,-691,-79,-5
7955,36,-267,-67,-686,-104,4
7960,37,-258,-74,-692,-125,12
7965,40,-258,-78,-711,-143,21
7970,41,-256,-80,-746,-153,29
7975,42,-251,-82,-795,-157,35
7980,48,-250,-85,-859,-153,38
7985,51,-245,-84,-927,-146,39
7990,54,-241,-72,-1001,-137,39
7995,55,-245,-86,-1075,-125,38
8000,51,-242,-87,-1147,-111,39
8005,54,-243,-90,-1217,-95,41
8010,53,-241,-92,-1286,-81,46
8015,53,-242,-97,-1354,-73,51
8020,53,-245,-98,-1416,-65,58
8025,51,-245,-100,-1478,-59,65
8030,51,-249,-108,-1536,-57,74
8035,51,-252,-112,-1593,-56,84
8040,45,-255,-114,-1647,-57,92
8045,41,-262,-116,-1701,-59,100
8050,38,-261,-119,-1746,-61,105
8055,38,-267,-113,-1777,-61,106
8060,34,-276,-116,-1793,-58,103
8065,32,-285,-117,-1797,-54,100
8070,28,-292,-124,-1795,-49,97
8075,26,-302,-121,-1791,-45,92
8080,19,-310,-122,-1781,-37,87
8085,16,-317,-132,-1765,-28,82
8090,12,-321,-139,-1748,-22,78
8095,5,-325,-139,-1730,-14,78
8100,3,-328,-148,-1709,-7,79
8105,4,-331,-151,-1681,-3,81
8110,1,-332,-153,-1640,2,82
8115,0,-332,-156,-1588,7,86
8120,1,-333,-159,-1528,10,89
8125,4,-332,-166,-1462,11,93
8130,6,-333,-165,-1390,14,95
8135,7,-330,-170,-1316,17,96
8140,7,-327,-174,-1238,16,95
8145,12,-327,-172,-1162,11,91
8150,9,-320,-172,-1089,0,81
8155,11,-313,-180,-1018,-14,69
8160,17,-308,-181,-950,-23,52
8165,25,-302,-184,-885,-26,32
8170,24,-295,-185,-826,-21,11
8175,30,-291,-182,-774,-9,-11
8180,24,-284,-183,-733,7,-29
8185,29,-280,-188,-702,21,-41
8190,26,-278,-186,-678,30,-48
8195,27,-274,-188,-660,32,-48
8200,32,-272,-189,-649,27,-45
8205,23,-266,-190,-640,15,-38
8210,23,-268,-193,-631,-6,-28
8215,21,-264,-192,-620,-33,-20
8220,16,-262,-197,-605,-65,-13
8225,15,-262,-196,-587,-101,-10
8230,15,-260,-202,-571,-135,-11
8235,12,-259,-203,-557,-163,-10
8240,14,-258,-200,-547,-183,-12
8245,14,-256,-202,-540,-194,-17
8250,14,-256,-198,-535,-197,-18
8255,9,-252,-196,-533,-190,-17
8260,13,-256,-192,-529,-179,-18
8265,10,-251,-192,-523,-162,-16
8270,10,-252,-186,-516,-141,-17
8275,5,-251,-183,-505,-119,-15
8280,14,-253,-178,-490,-97,-13
8285,13,-249,-176,-475,-79,-11
8290,16,-243,-173,-456,-66,-14
8295,14,-243,-173,-434,-59,-19
8300,16,-241,-168,-415,-57,-21
8305,15,-243,-167,-398,-59,-25
8310,19,-241,-162,-386,-63,-21
8315,19,-233,-169,-376,-73,-16
8320,22,-230,-168,-367,-84,-10
8325,25,-230,-169,-355,-99,-7
8330,24,-227,-171,-340,-115,-3
8335,26,-228,-172,-325,-136,1
8340,29,-230,-173,-305,-155,8
8345,26,-229,-177,-288,-175,16
8350,28,-225,-179,-267,-194,24
8355,28,-228,-179,-249,-213,27
8360,31,-227,-182,-228,-232,30
8365,30,-225,-180,-212,-243,32
8370,32,-226,-185,-200,-250,35
8375,30,-225,-184,-190,-250,36
8380,28,-227,-183,-183,-249,36
8385,29,-227,-186,-177,-245,38
8390,26,-227,-186,-178,-241,43
8395,27,-228,-181,-178,-238,46
8400,25,-228,-185,-178,-237,41
8405,18,-227,-182,-173,-236,37
8410,24,-232,-183,-166,-233,33
8415,20,-231,-186,-158,-231,26
8420,20,-235,-184,-148,-227,19
8425,19,-234,-187,-133,-222,13
8430,19,-233,-189,-113,-216,6
8435,17,-233,-185,-88,-213,-5
8440,16,-235,-190,-56,-211,-13
8445,17,-237,-186,-19,-211,-24
8450,19,-235,-185,21,-206,-30
8455,15,-236,-185,64,-202,-36
8460,19,-231,-182,107,-196,-43
8465,17,-231,-184,147,-191,-52
8470,16,-230,-189,186,-186,-60
8475,18,-234,-184,219,-182,-65
8480,14,-229,-182,242,-180,-67
8485,15,-228,-180,260,-181,-68
8490,16,-229,-189,272,-184,-70
8495,14,-229,-183,280,-190,-70
8500,18,-227,-188,289,-197,-74
8505,18,-227,-190,295,-205,-75
8510,14,-224,-185,302,-211,-78
8515,15,-225,-187,306,-216,-79
8520,16,-224,-188,310,-218,-80
8525,14,-231,-187,310,-219,-78
8530,18,-225,-186,310,-216,-78
8535,16,-222,-187,310,-215,-79
8540,20,-223,-183,315,-212,-80
8545,23,-222,-182,324,-207,-81
8550,25,-221,-183,337,-205,-83
8555,25,-221,-178,348,-199,-87
8560,27,-218,-176,358,-195,-87
8565,33,-218,-178,365,-191,-86
8570,31,-218,-176,373,-187,-84
8575,32,-218,-178,379,-187,-86
8580,33,-217,-180,385,-183,-84
8585,35,-215,-169,389,-181,-83
8590,34,-216,-174,388,-177,-80
8595,32,-218,-168,387,-169,-78
8600,34,-221,-168,387,-162,-74
8605,35,-221,-166,385,-153,-72
8610,31,-220,-168,384,-143,-71
8615,30,-222,-164,387,-134,-68
8620,27,-223,-163,391,-125,-65
8625,23,-219,-161,399,-120,-64
8630,20,-222,-162,407,-116,-60
8635,15,-222,-165,412,-114,-57
8640,19,-222,-164,415,-115,-54
8645,17,-226,-164,418,-116,-52
8650,14,-225,-163,420,-113,-54
8655,16,-225,-165,424,-107,-55
8660,15,-224,-164,429,-96,-58
8665,10,-224,-160,437,-82,-60
8670,11,-226,-163,441,-66,-60
8675,12,-222,-162,445,-50,-59
8680,8,-224,-166,454,-36,-56
8685,8,-223,-163,462,-26,-55
8690,9,-224,-165,474,-22,-52
8695,10,-223,-169,490,-24,-50
8700,8,-221,-167,510,-28,-48
8705,11,-220,-167,533,-32,-50
8710,16,-223,-167,556,-34,-53
8715,17,-219,-161,583,-36,-57
8720,16,-216,-160,607,-36,-59
8725,18,-219,-160,627,-37,-63
8730,19,-219,-156,643,-38,-67
8735,19,-219,-154,652,-39,-68
8740,18,-218,-152,660,-39,-68
8745,18,-219,-145,662,-39,-68
8750,20,-221,-144,667,-40,-69
8755,22,-219,-143,672,-41,-69
8760,24,-218,-141,678,-42,-68
8765,20,-218,-140,687,-40,-70
8770,23,-218,-138,694,-36,-70
8775,21,-217,-138,699,-29,-72
8780,23,-215,-136,698,-21,-73
8785,21,-216,-135,687,-12,-75
8790,21,-212,-134,669,-6,-76
8795,22,-211,-134,645,-2,-76
8800,16,-215,-132,614,1,-75
8805,26,-213,-132,579,1,-73
8810,24,-212,-133,546,2,-69
8815,22,-213,-130,518,2,-67
8820,24,-211,-129,497,3,-66
8825,23,-216,-131,485,3,-65
8830,20,-214,-129,483,0,-65
8835,17,-212,-130,485,-1,-65
8840,22,-210,-129,490,-4,-69
8845,17,-210,-131,492,-6,-69
8850,19,-210,-128,491,-6,-69
8855,17,-214,-128,486,-5,-67
8860,15,-207,-130,476,0,-64
8865,15,-209,-131,460,9,-62
8870,17,-214,-129,442,17,-58
8875,17,-216,-131,420,26,-54
8880,15,-217,-129,396,32,-46
8885,16,-223,-128,376,35,-37
8890,14,-219,-127,357,35,-32
8895,19,-223,-129,343,30,-27
8900,17,-234,-129,336,23,-21
8905,17,-237,-126,331,13,-17
8910,20,-240,-121,334,4,-14
8915,19,-239,-127,339,-8,-13
8920,21,-243,-121,350,-18,-12
8925,16,-241,-123,367,-26,-13
8930,19,-248,-126,391,-34,-16
8935,21,-244,-127,418,-37,-18
8940,19,-244,-123,447,-40,-23
8945,17,-243,-126,475,-45,-26
8950,22,-245,-125,492,-49,-31
8955,23,-243,-119,503,-53,-34
8960,30,-246,-123,503,-57,-35
8965,20,-240,-122,497,-59,-38
8970,21,-243,-115,484,-55,-41
8975,21,-245,-118,469,-50,-45
8980,20,-241,-118,452,-46,-49
8985,19,-242,-116,436,-43,-56
8990,16,-246,-113,426,-39,-59
8995,16,-249,-110,420,-37,-66
9000,15,-247,-111,418,-35,-72
9005,17,-245,-111,418,-32,-76
9010,14,-244,-111,420,-30,-78
9015,20,-239,-113,424,-30,-78
9020,20,-247,-106,430,-33,-77
9025,20,-242,-108,435,-36,-76
9030,22,-242,-108,442,-41,-77
9035,23,-240,-111,445,-47,-78
9040,25,-241,-109,442,-52,-79
9045,26,-239,-109,438,-56,-79
9050,30,-236,-106,430,-58,-80
9055,29,-237,-108,420,-57,-81
9060,29,-232,-110,409,-55,-82
9065,29,-234,-108,397,-52,-82
9070,33,-236,-106,383,-50,-80
9075,28,-229,-106,367,-45,-79
9080,27,-230,-102,353,-42,-78
9085,25,-229,-101,338,-39,-77
9090,28,-231,-102,324,-38,-75
9095,27,-232,-99,312,-35,-72
9100,25,-233,-97,301,-35,-70
9105,26,-229,-93,290,-34,-64
9110,22,-232,-97,280,-30,-59
9115,24,-233,-90,275,-27,-58
9120,21,-237,-94,269,-24,-56
9125,20,-239,-93,270,-23,-53
9130,22,-239,-94,271,-24,-51
9135,20,-238,-97,272,-24,-49
9140,21,-239,-94,270,-26,-46
9145,22,-241,-95,263,-28,-44
9150,22,-241,-94,253,-30,-41
9155,23,-240,-95,244,-31,-38
9160,24,-240,-87,233,-28,-34
9165,25,-247,-89,224,-26,-32
9170,26,-246,-86,219,-22,-28
9175,23,-248,-92,215,-21,-23
9180,22,-248,-88,214,-19,-19
9185,23,-249,-90,213,-20,-16
9190,25,-248,-91,212,-22,-14
9195,25,-248,-89,211,-24,-12
9200,24,-250,-93,207,-28,-10
9205,21,-247,-91,201,-31,-8
9210,26,-249,-88,197,-31,-9
9215,25,-253,-87,189,-30,-10
9220,28,-249,-88,184,-25,-7
9225,25,-249,-87,183,-20,-9
9230,26,-246,-84,178,-16,-11
9235,25,-242,-88,173,-12,-12
9240,25,-247,-83,171,-10,-15
9245,25,-244,-84,168,-9,-18
9250,25,-244,-82,165,-8,-23
9255,23,-242,-87,159,-7,-27
9260,26,-244,-87,149,-4,-30
9265,26,-241,-86,137,-2,-32
9270,28,-244,-84,123,2,-33
9275,23,-242,-84,110,11,-36
9280,24,-248,-83,96,16,-33
9285,23,-249,-78,85,22,-33
9290,20,-248,-84,76,28,-30
9295,20,-246,-78,67,36,-26
9300,23,-251,-83,61,42,-21
9305,25,-252,-82,59,47,-19
9310,22,-251,-83,53,49,-15
9315,24,-250,-79,51,53,-13
9320,21,-250,-80,48,59,-11
9325,26,-251,-82,48,61,-9
9330,23,-255,-79,46,62,-8
9335,23,-250,-84,45,64,-10
9340,22,-253,-85,44,65,-12
9345,32,-252,-81,40,63,-12
9350,22,-252,-81,37,62,-13
9355,21,-252,-83,33,60,-14
9360,21,-253,-76,29,57,-17
9365,20,-251,-79,27,57,-19
9370,20,-250,-76,24,55,-22
9375,18,-253,-81,24,56,-26
9380,17,-252,-80,21,57,-26
9385,14,-249,-78,15,56,-26
9390,14,-251,-79,10,55,-27
9395,10,-250,-75,7,56,-28
9400,12,-254,-78,0,57,-28
9405,11,-253,-79,-5,57,-27
9410,13,-253,-80,-12,55,-26
9415,12,-253,-78,-20,52,-25
9420,14,-252,-78,-32,48,-24
9425,14,-253,-76,-43,42,-24
9430,13,-252,-77,-53,38,-23
9435,10,-253,-79,-61,32,-21
9440,14,-256,-81,-70,23,-20
9445,16,-256,-84,-78,18,-18
9450,16,-257,-81,-85,11,-15
9455,19,-258,-78,-92,3,-12
9460,19,-259,-76,-96,-4,-10
9465,24,-259,-77,-93,-10,-5
9470,25,-260,-76,-88,-13,-3
9475,24,-259,-75,-76,-17,-1
9480,26,-259,-75,-63,-18,2
9485,31,-260,-79,-49,-17,3
9490,31,-262,-80,-36,-15,4
9495,30,-264,-82,-24,-12,6
9500,32,-258,-80,-12,-10,7
9505,33,-259,-85,0,-7,7
9510,33,-261,-82,10,-5,10
9515,36,-258,-81,20,-4,12
9520,33,-257,-81,26,-1,12
9525,35,-257,-84,32,0,13
9530,39,-255,-77,35,6,13
9535,39,-257,-76,36,15,12
9540,38,-257,-78,36,23,10
9545,38,-257,-70,33,33,7
9550,38,-260,-71,30,44,2
9555,36,-257,-73,30,55,-1
9560,33,-264,-73,30,65,-3
9565,33,-260,-71,30,73,-6
9570,30,-259,-68,32,79,-7
9575,30,-262,-73,33,85,-6
9580,25,-260,-70,30,87,-7
9585,23,-260,-71,30,89,-7
9590,22,-261,-70,25,88,-7
9595,20,-259,-74,22,87,-7
9600,21,-260,-71,20,84,-5
9605,18,-257,-77,19,83,-7
9610,16,-257,-73,16,82,-9
9615,15,-259,-77,12,81,-10
9620,18,-261,-76,9,80,-9
9625,19,-262,-73,4,79,-6
9630,20,-260,-75,-1,79,-4
9635,20,-258,-72,-5,80,-2
9640,19,-261,-72,-5,80,1
9645,20,-259,-75,-5,79,5
9650,20,-258,-74,-3,78,7
9655,25,-260,-72,2,77,9
9660,25,-258,-75,4,76,10
9665,26,-258,-76,12,76,10
9670,32,-257,-84,16,74,12
9675,28,-261,-74,21,70,14
9680,27,-258,-74,27,64,17
9685,30,-257,-73,30,59,19
9690,28,-258,-76,33,52,22
9695,30,-263,-77,37,47,23
9700,31,-257,-77,44,42,23
9705,32,-260,-76,48,39,25
9710,29,-261,-79,54,38,26
9715,32,-258,-78,53,38,24
9720,27,-261,-79,53,38,24
9725,31,-258,-77,48,38,23
9730,28,-262,-78,46,37,24
9735,30,-262,-76,41,39,25
9740,26,-258,-78,35,42,22
9745,27,-258,-81,32,45,21
9750,27,-261,-79,27,45,19
9755,28,-263,-78,21,46,19
9760,26,-262,-78,13,47,17
9765,22,-260,-79,9,47,15
9770,23,-263,-76,4,49,15
9775,23,-265,-68,3,50,12
9780,20,-265,-71,5,52,12
9785,21,-262,-74,8,57,12
9790,20,-263,-70,17,62,11
9795,18,-264,-68,24,67,12
9800,18,-262,-69,33,71,13
9805,18,-259,-74,42,73,16
9810,20,-260,-72,45,74,17
9815,20,-261,-76,47,73,18
9820,23,-260,-73,42,70,15
9825,26,-257,-74,36,67,12
9830,26,-259,-73,27,62,9
9835,27,-262,-72,18,58,5
9840,26,-258,-71,14,55,1
9845,24,-258,-73,11,51,-3
9850,25,-261,-70,12,48,-8
9855,23,-258,-70,13,45,-9
9860,24,-259,-69,17,41,-8
9865,23,-259,-69,22,41,-9
9870,23,-260,-67,29,40,-11
9875,23,-257,-70,36,41,-13
9880,24,-260,-66,43,44,-13
9885,31,-261,-66,47,46,-14
9890,23,-259,-69,51,48,-15
9895,23,-258,-68,51,48,-16
9900,25,-258,-71,48,49,-17
9905,24,-259,-63,45,50,-18
9910,25,-258,-67,42,50,-20
9915,23,-258,-65,37,50,-19
9920,24,-260,-71,33,49,-20
9925,26,-262,-64,29,49,-21
9930,28,-260,-65,29,51,-22
9935,26,-260,-69,29,49,-21
9940,30,-260,-65,30,48,-22
9945,27,-259,-67,34,49,-20
9950,26,-258,-67,34,48,-22
9955,32,-258,-68,33,48,-25
9960,30,-256,-68,30,51,-28
9965,29,-256,-68,26,54,-30
9970,28,-260,-67,19,58,-34
9975,28,-260,-64,12,60,-35
9980,30,-259,-66,8,64,-37
9985,28,-258,-62,6,66,-40
9990,28,-259,-65,5,70,-40
9995,26,-254,-69,4,73,-40
10000,27,-257,-63,1,74,-40
10005,27,-259,-64,-1,74,-40
10010,28,-258,-66,-4,75,-40
10015,29,-257,-65,-7,76,-41
10020,29,-257,-67,-11,76,-38
10025,28,-257,-65,-14,76,-40
10030,28,-262,-72,-17,75,-39
10035,25,-258,-68,-18,76,-40
10040,27,-260,-70,-20,75,-40
10045,25,-259,-68,-21,76,-40
10050,28,-261,-67,-20,80,-40
10055,27,-257,-69,-16,85,-38
10060,29,-259,-65,-13,91,-37
10065,29,-261,-69,-10,96,-36
10070,27,-258,-66,-11,101,-33
10075,30,-260,-65,-13,108,-32
10080,28,-261,-70,-16,111,-30
10085,30,-260,-65,-17,114,-29
10090,31,-261,-66,-17,115,-29
10095,28,-261,-62,-14,114,-30
10100,26,-263,-65,-12,110,-30
10105,30,-268,-63,-8,106,-30
10110,29,-265,-64,-2,101,-30
10115,28,-261,-67,1,94,-28
10120,27,-261,-65,7,87,-26
10125,26,-261,-67,11,80,-23
10130,28,-260,-64,15,74,-23
10135,24,-258,-66,17,66,-20
10140,26,-260,-66,16,61,-18
10145,24,-256,-68,12,58,-14
10150,23,-257,-68,7,54,-10
10155,25,-259,-66,-3,54,-7
10160,28,-257,-62,-11,52,-4
10165,25,-256,-63,-21,52,-3
10170,28,-259,-63,-31,54,-1
10175,27,-260,-60,-39,57,-2
10180,27,-259,-61,-45,60,-1
10185,26,-260,-61,-48,66,-1
10190,29,-259,-59,-50,71,-3
10195,29,-260,-61,-48,74,-4
10200,28,-261,-59,-47,77,-4
10205,28,-260,-57,-46,78,-3
10210,29,-262,-60,-46,79,-4
10215,25,-261,-60,-47,80,-3
10220,26,-262,-62,-50,80,-3
10225,26,-260,-64,-51,79,-3
10230,25,-260,-61,-54,79,-4
10235,26,-261,-61,-59,80,-3
10240,27,-261,-62,-61,80,-3
10245,27,-261,-63,-64,80,0
10250,28,-261,-64,-63,77,-2
10255,26,-260,-64,-61,74,-3
10260,27,-262,-65,-55,70,-4
10265,27,-261,-63,-48,67,-5
10270,26,-261,-67,-42,64,-5
10275,29,-263,-69,-37,60,-4
10280,25,-262,-64,-34,56,-4
10285,23,-261,-65,-31,55,-2
10290,28,-264,-63,-29,53,-1
10295,28,-266,-63,-27,54,0
10300,27,-268,-63,-25,52,-1
10305,24,-263,-61,-19,53,-1
10310,25,-264,-65,-16,51,0
10315,24,-261,-59,-9,52,1
10320,26,-261,-63,-7,54,-1
10325,25,-263,-63,-3,55,0
10330,26,-262,-65,-2,55,-2
10335,23,-260,-64,-2,56,-2
10340,27,-262,-66,-4,56,-1
10345,24,-258,-63,-7,55,-3
10350,26,-259,-66,-12,53,-3
10355,24,-257,-61,-18,50,-2
10360,25,-260,-63,-23,47,-1
10365,26,-262,-67,-28,46,-1
10370,27,-261,-62,-30,44,0
10375,27,-259,-65,-34,42,0
10380,29,-259,-64,-33,40,1
10385,27,-258,-62,-31,39,2
10390,26,-262,-63,-30,38,2
10395,28,-260,-62,-29,37,4
10400,28,-260,-66,-30,36,6
10405,28,-258,-68,-34,36,7
10410,27,-261,-62,-34,36,6
10415,27,-257,-63,-36,36,4
10420,27,-259,-62,-38,36,6
10425,26,-260,-63,-41,40,4
10430,26,-259,-65,-42,42,3
10435,26,-261,-66,-43,44,1
10440,24,-261,-64,-41,47,-1
10445,25,-264,-61,-39,49,-3
10450,22,-260,-63,-39,51,-5
10455,29,-263,-64,-36,52,-6
10460,25,-260,-62,-37,53,-7
10465,25,-258,-66,-37,53,-8
10470,29,-259,-65,-36,55,-7
10475,30,-258,-62,-38,53,-6
10480,26,-259,-63,-39,50,-7
10485,30,-260,-72,-39,47,-6
10490,24,-256,-62,-43,46,-5
10495,25,-258,-63,-46,45,-4
10500,30,-259,-61,-49,46,-3
10505,27,-260,-61,-51,46,-2
10510,26,-258,-62,-52,48,-2
10515,31,-262,-58,-54,50,0
10520,30,-261,-63,-54,55,0
10525,31,-261,-61,-54,59,1
10530,31,-262,-64,-53,63,2
10535,31,-263,-63,-51,62,0
10540,22,-264,-68,-49,63,1
10545,28,-260,-64,-50,64,1
10550,27,-262,-62,-50,63,1
10555,26,-259,-63,-52,64,0
10560,27,-261,-64,-53,65,0
10565,28,-261,-65,-52,65,0
10570,25,-264,-63,-50,67,1
10575,25,-264,-62,-45,67,0
10580,24,-261,-66,-40,71,-1
10585,24,-265,-66,-35,73,-1
10590,16,-261,-62,-30,77,-2
10595,27,-265,-60,-27,79,-4
10600,24,-262,-62,-25,79,-4
10605,27,-260,-62,-22,79,-4
10610,26,-263,-63,-19,79,-5
10615,22,-262,-62,-18,79,-5
10620,25,-262,-64,-19,82,-4
10625,26,-263,-64,-22,82,-3
10630,26,-259,-63,-22,82,-5
10635,25,-262,-62,-24,81,-4
10640,26,-264,-64,-27,78,-3
10645,26,-263,-66,-24,78,-3
10650,25,-260,-63,-24,75,-2
10655,24,-262,-64,-22,73,-2
10660,23,-262,-64,-21,73,-2
10665,21,-260,-61,-17,71,-2
10670,23,-260,-64,-12,69,-4
10675,22,-261,-62,-9,65,-5
10680,22,-257,-63,-5,63,-5
10685,22,-259,-62,-1,61,-5
10690,22,-259,-60,0,62,-4
10695,24,-258,-59,-1,61,-5
10700,29,-262,-58,0,60,-3
10705,23,-260,-61,0,61,-4
10710,24,-259,-62,-1,60,-2
10715,29,-264,-62,-4,60,1
10720,29,-261,-61,-9,62,1
10725,26,-262,-65,-12,61,3
10730,26,-262,-64,-17,61,4
10735,25,-261,-62,-23,61,3
10740,27,-263,-62,-25,63,2
10745,26,-263,-60,-26,66,2
10750,30,-264,-57,-25,70,2
10755,26,-266,-59,-25,79,0
10760,27,-263,-57,-21,84,-1
10765,24,-264,-59,-15,90,-2
10770,28,-265,-54,-8,96,-4
10775,26,-260,-55,-1,99,-7
10780,26,-262,-56,6,101,-9
10785,24,-260,-61,11,101,-12
10790,25,-258,-60,10,100,-11
10795,25,-258,-61,10,97,-11
10800,25,-258,-60,8,93,-12
10805,27,-259,-62,1,89,-12
10810,23,-256,-66,-6,84,-11
10815,25,-260,-64,-13,77,-9
10820,25,-259,-59,-20,73,-8
10825,21,-260,-63,-24,69,-8
10830,23,-261,-63,-28,65,-6
10835,24,-261,-62,-30,62,-6
10840,25,-264,-62,-28,61,-5
10845,24,-265,-61,-23,62,-5
10850,25,-263,-64,-17,62,-4
10855,23,-262,-61,-10,64,-4
10860,23,-263,-60,-3,65,-2
10865,24,-261,-66,2,64,-2
10870,22,-263,-61,7,65,-1
10875,23,-261,-66,11,66,1
10880,25,-262,-64,13,67,0
10885,25,-260,-59,11,66,-1
10890,28,-262,-62,13,65,-1
10895,28,-259,-55,13,65,-1
10900,30,-260,-61,16,65,-4
10905,27,-260,-61,18,66,-6
10910,29,-260,-55,22,69,-9
10915,24,-262,-60,21,70,-10
10920,27,-258,-55,23,71,-13
10925,28,-260,-56,21,74,-14
10930,32,-264,-59,18,73,-16
10935,26,-257,-60,14,74,-16
10940,30,-258,-59,10,71,-17
10945,30,-260,-60,5,71,-17
10950,27,-257,-60,-2,68,-18
10955,26,-257,-59,-8,67,-18
10960,29,-258,-60,-15,65,-17
10965,28,-261,-57,-23,63,-17
10970,20,-262,-62,-33,63,-17
10975,26,-257,-60,-38,62,-14
10980,26,-259,-61,-42,62,-13
10985,24,-259,-62,-44,62,-12
10990,26,-261,-57,-44,63,-10
10995,25,-263,-59,-44,66,-9
11000,27,-263,-59,-42,69,-8
11005,25,-266,-58,-37,72,-10
11010,25,-263,-58,-31,75,-10
11015,23,-263,-60,-27,78,-10
11020,31,-265,-58,-23,79,-11
11025,27,-265,-60,-21,81,-12
11030,22,-261,-60,-17,81,-12
11035,28,-262,-62,-16,83,-12
11040,28,-262,-59,-13,82,-15
11045,27,-260,-60,-12,79,-15
11050,27,-262,-62,-13,77,-15
11055,26,-262,-62,-14,73,-17
11060,27,-259,-58,-15,69,-15
11065,27,-259,-62,-19,66,-18
11070,26,-257,-58,-21,63,-18
11075,25,-256,-61,-25,62,-18
11080,21,-259,-61,-26,60,-17
11085,29,-259,-58,-32,57,-15
11090,27,-256,-56,-36,55,-15
11095,25,-257,-60,-41,52,-15
11100,23,-256,-62,-42,50,-13
11105,26,-255,-57,-44,46,-13
11110,26,-256,-59,-48,44,-12
11115,27,-257,-62,-54,43,-11
11120,26,-259,-58,-63,43,-11
11125,26,-258,-62,-67,43,-9
11130,25,-261,-55,-73,44,-8
11135,22,-257,-49,-79,44,-7
11140,24,-258,-56,-82,46,-6
11145,26,-263,-60,-82,47,-6
11150,24,-261,-59,-82,49,-8
11155,28,-265,-53,-80,49,-8
11160,27,-263,-57,-77,48,-8
11165,26,-264,-59,-70,49,-5
11170,26,-264,-61,-65,49,-6
11175,26,-262,-58,-59,47,-7
11180,23,-263,-62,-57,45,-7
11185,28,-265,-58,-55,40,-7
11190,25,-261,-60,-54,38,-8
11195,27,-261,-61,-54,36,-8
11200,26,-260,-59,-50,34,-10
11205,27,-263,-58,-48,33,-11
11210,26,-260,-59,-47,35,-13
11215,27,-260,-63,-47,38,-14
11220,23,-257,-63,-50,41,-14
11225,26,-260,-58,-52,42,-13
11230,24,-259,-62,-54,42,-14
11235,27,-258,-58,-59,44,-12
11240,22,-257,-57,-63,44,-10
11245,24,-259,-62,-65,41,-13
11250,23,-262,-62,-65,35,-14
11255,26,-263,-62,-64,31,-15
11260,27,-261,-56,-61,27,-14
11265,30,-266,-57,-57,23,-15
11270,27,-261,-60,-53,20,-13
11275,27,-262,-58,-50,17,-12
11280,28,-259,-58,-47,15,-11
11285,27,-259,-63,-42,13,-10
11290,24,-259,-60,-40,12,-10
11295,22,-261,-55,-44,9,-8
11300,27,-261,-60,-46,8,-7
11305,26,-258,-60,-51,9,-7
11310,29,-259,-63,-57,9,-6
11315,26,-262,-61,-59,9,-4
11320,27,-263,-60,-61,12,-5
11325,26,-264,-57,-60,12,-6
11330,28,-263,-57,-60,17,-6
11335,29,-265,-58,-52,21,-7
11340,26,-264,-59,-45,26,-9
11345,25,-264,-62,-39,31,-12
11350,24,-266,-56,-33,35,-12
11355,26,-262,-54,-26,37,-14
11360,26,-260,-58,-20,40,-15
11365,25,-263,-58,-16,40,-17
11370,29,-260,-61,-14,39,-17
11375,27,-259,-59,-13,37,-19
11380,29,-260,-59,-15,35,-21
11385,25,-257,-59,-17,31,-19
11390,27,-263,-58,-21,28,-20
11395,24,-262,-63,-25,24,-19
11400,30,-257,-55,-30,19,-18
11405,28,-259,-62,-34,16,-18
11410,27,-262,-61,-37,13,-16
11415,29,-261,-61,-39,10,-14
11420,27,-259,-63,-42,11,-11
11425,25,-259,-59,-41,8,-10
11430,27,-263,-59,-38,8,-7
11435,26,-259,-58,-32,9,-6
11440,27,-263,-58,-25,7,-7
11445,25,-262,-60,-22,9,-5
11450,25,-261,-61,-18,7,-5
11455,27,-271,-58,-14,7,-6
11460,23,-262,-58,-11,6,-8
11465,26,-262,-58,-10,6,-10
11470,27,-262,-61,-9,4,-14
11475,27,-258,-59,-10,1,-15
11480,26,-260,-58,-11,0,-16
11485,25,-258,-58,-13,0,-16
11490,24,-257,-58,-16,1,-17
11495,28,-261,-56,-18,-1,-17
11500,25,-259,-59,-19,0,-17
11505,30,-259,-58,-22,0,-16
11510,28,-263,-61,-25,2,-16
11515,26,-261,-57,-28,3,-15
11520,27,-259,-58,-30,4,-14
11525,29,-259,-59,-32,5,-13
11530,29,-259,-59,-36,6,-12
11535,29,-260,-61,-43,6,-10
11540,29,-260,-60,-47,7,-8
11545,27,-264,-56,-50,6,-7
11550,24,-259,-58,-53,5,-7
11555,29,-262,-59,-55,3,-7
11560,26,-262,-59,-54,2,-6
11565,26,-260,-67,-52,3,-7
11570,27,-263,-60,-49,3,-10
11575,28,-262,-60,-46,4,-9
11580,28,-263,-57,-41,5,-10
11585,26,-261,-59,-35,8,-13
11590,28,-261,-54,-31,12,-15
11595,29,-261,-54,-29,18,-17
11600,26,-260,-59,-26,22,-18
11605,31,-262,-57,-24,26,-19
11610,25,-258,-58,-25,29,-17
11615,27,-260,-57,-26,30,-17
11620,25,-257,-57,-29,31,-16
11625,30,-263,-60,-32,32,-13
11630,30,-260,-59,-32,32,-11
11635,29,-261,-56,-35,31,-11
11640,28,-261,-54,-37,28,-10
11645,29,-258,-59,-36,25,-9
11650,29,-262,-62,-38,25,-9
11655,27,-259,-57,-35,23,-7
11660,26,-258,-58,-32,21,-7
11665,27,-257,-56,-31,18,-8
11670,29,-257,-51,-30,20,-9
11675,29,-260,-54,-31,23,-8
11680,26,-259,-58,-34,23,-10
11685,29,-262,-59,-34,24,-9
11690,30,-260,-57,-37,25,-11
11695,28,-261,-58,-39,25,-14
11700,24,-257,-61,-41,28,-14
11705,25,-258,-61,-40,32,-13
11710,28,-261,-65,-41,35,-14
11715,28,-261,-58,-42,36,-14
11720,25,-262,-60,-44,38,-14
11725,23,-256,-58,-46,39,-14
11730,27,-263,-56,-48,39,-14
11735,28,-259,-56,-52,38,-16
11740,24,-262,-57,-54,36,-13
11745,30,-264,-58,-56,35,-12
11750,28,-263,-53,-53,35,-10
11755,28,-262,-55,-52,33,-10
11760,25,-264,-57,-49,33,-9
11765,23,-261,-58,-48,30,-9
11770,28,-262,-58,-46,27,-6
11775,27,-262,-57,-46,25,-3
11780,27,-262,-55,-47,23,-3
11785,26,-262,-55,-46,22,-3
11790,26,-260,-59,-46,22,-4
11795,27,-261,-60,-44,23,-3
11800,26,-259,-59,-43,27,-3
11805,26,-260,-58,-39,32,-6
11810,28,-258,-59,-37,34,-6
11815,29,-260,-58,-35,39,-4
11820,29,-259,-60,-35,42,-5
11825,27,-258,-58,-37,43,-6
11830,29,-257,-59,-38,42,-5
11835,27,-261,-63,-41,37,-4
11840,27,-258,-60,-44,30,-4
11845,30,-262,-57,-45,22,-2
11850,27,-260,-59,-46,15,-3
11855,26,-262,-60,-49,8,-3
11860,28,-259,-56,-51,3,-2
11865,32,-263,-54,-50,2,0
11870,27,-259,-59,-50,2,-1
11875,28,-261,-58,-50,5,-1
11880,28,-260,-59,-48,9,-3
11885,30,-262,-60,-44,13,-3
11890,36,-264,-62,-42,17,-3
11895,29,-264,-56,-37,21,-2
11900,29,-265,-62,-35,23,-4
11905,32,-261,-59,-30,26,-4
11910,31,-265,-62,-29,28,-3
11915,30,-263,-60,-28,31,-4
11920,31,-267,-60,-30,35,-5
11925,30,-264,-59,-33,39,-5
11930,27,-261,-55,-34,44,-8
11935,31,-262,-55,-33,48,-8
11940,28,-263,-52,-30,50,-9
11945,25,-266,-53,-23,52,-11
11950,23,-262,-56,-16,54,-12
11955,30,-265,-55,-7,57,-14
11960,29,-259,-57,2,56,-17
11965,26,-258,-57,6,58,-18
11970,26,-259,-55,10,55,-18
11975,28,-258,-57,7,52,-18
11980,26,-256,-57,3,47,-19
11985,27,-258,-60,-8,44,-18
11990,30,-256,-58,-17,39,-18
