timestamp,acc_x,acc_y,acc_z,gyro_x,gyro_y,gyro_z
0,-8,-239,-94,-59,42,-5
5,-5,-242,-102,-60,45,-8
10,-5,-239,-96,-59,48,-5
15,-6,-239,-95,-61,50,-6
20,-5,-239,-99,-62,52,-3
25,-3,-239,-96,-62,52,-6
30,-4,-240,-94,-64,53,-3
35,-2,-243,-100,-66,52,-7
40,-6,-238,-98,-67,52,-6
45,-7,-239,-95,-68,51,-8
50,0,-237,-97,-71,49,-6
55,-4,-239,-100,-73,50,-9
60,-4,-240,-96,-71,51,-6
65,-5,-237,-99,-70,52,-7
70,-4,-239,-95,-67,54,-4
75,-3,-243,-99,-64,54,-6
80,-4,-243,-97,-58,54,-4
85,-5,-238,-98,-55,54,-5
90,-3,-241,-98,-51,52,-6
95,-6,-241,-101,-46,53,-8
100,-2,-242,-99,-45,54,-8
105,-6,-242,-105,-43,56,-9
110,-4,-241,-102,-42,58,-9
115,-4,-242,-99,-38,58,-9
120,-4,-237,-106,-33,60,-8
125,-4,-238,-99,-30,61,-8
130,-4,-237,-102,-27,63,-6
135,-2,-240,-101,-27,63,-6
140,-6,-239,-97,-31,62,-5
145,-6,-238,-99,-35,61,-7
150,-3,-241,-99,-37,56,-5
155,-3,-240,-99,-39,57,-5
160,-2,-238,-101,-38,55,-3
165,-8,-237,-98,-36,55,-2
170,-2,-242,-97,-34,55,0
175,-3,-242,-96,-32,54,-1
180,-5,-240,-96,-30,53,-1
185,-6,-241,-98,-27,52,1
190,-2,-242,-102,-24,54,1
195,-2,-242,-100,-18,55,-1
200,-6,-241,-100,-11,56,0
205,-9,-242,-103,-9,58,-2
210,-6,-240,-104,-6,60,-2
215,-3,-242,-102,-6,59,-3
220,-3,-239,-101,-4,60,-2
225,-4,-239,-102,-3,60,-2
230,-5,-239,-99,-2,59,-3
235,-7,-238,-102,-6,58,-4
240,-4,-239,-98,-10,57,-2
245,-4,-239,-101,-12,56,-3
250,-4,-240,-102,-16,56,-2
255,-3,-242,-100,-21,57,-2
260,-4,-242,-99,-24,58,-2
265,-8,-239,-98,-26,57,-2
270,-5,-240,-100,-28,58,-2
275,-3,-239,-102,-29,59,-2
280,-3,-242,-102,-32,60,-2
285,-4,-241,-100,-33,59,-3
290,-5,-239,-102,-30,59,-2
295,-4,-242,-102,-28,60,-4
300,-4,-238,-105,-22,59,-7
305,-5,-241,-98,-16,60,-6
310,-3,-240,-99,-11,58,-6
315,-4,-242,-100,-7,57,-4
320,-2,-243,-100,-2,56,-6
325,-2,-241,-100,0,55,-4
330,-6,-240,-93,0,54,-3
335,-2,-236,-99,-1,55,-1
340,-5,-239,-101,-3,56,0
345,-7,-239,-98,-4,57,2
350,-5,-239,-98,-6,56,0
355,-5,-239,-99,-7,55,2
360,-6,-239,-98,-9,54,1
365,-6,-241,-98,-11,53,3
370,-5,-241,-93,-10,52,0
375,-7,-242,-98,-12,52,2
380,-7,-240,-100,-12,54,0
385,-5,-242,-100,-12,56,1
390,-2,-242,-100,-13,58,-1
395,-3,-243,-98,-11,58,1
400,-3,-241,-98,-12,60,-2
405,-1,-244,-98,-10,61,-1
410,-3,-242,-101,-9,62,-3
415,-3,-241,-100,-8,64,-2
420,-5,-242,-101,-7,62,-4
425,-2,-239,-99,-8,60,-3
430,-6,-239,-99,-10,58,-4
435,-3,-240,-99,-10,55,-2
440,-5,-241,-96,-12,53,-3
445,-5,-242,-97,-11,49,0
450,-4,-240,-102,-9,48,-4
455,-3,-239,-100,-7,46,-1
460,-4,-242,-96,-3,46,-3
465,-5,-237,-101,1,48,-1
470,-7,-239,-98,3,50,-2
475,-3,-241,-96,3,50,-1
480,-4,-241,-96,4,50,-4
485,-7,-240,-99,3,51,-2
490,-3,-243,-99,4,51,-5
495,-5,-242,-96,2,52,-4
500,-6,-240,-99,1,52,-7
505,-6,-237,-99,1,54,-5
510,-4,-241,-99,1,57,-7
515,-2,-244,-104,2,59,-6
520,-2,-240,-96,1,59,-8
525,-3,-239,-95,1,57,-5
530,-7,-239,-96,-1,59,-8
535,-5,-239,-95,-2,57,-4
540,-5,-237,-96,-3,54,-8
545,-6,-239,-98,-4,51,-6
550,-5,-237,-100,-6,49,-8
555,-3,-236,-97,-7,48,-5
560,-6,-236,-96,-11,48,-9
565,-6,-239,-99,-14,47,-6
570,-3,-241,-98,-16,49,-8
575,-2,-244,-99,-16,51,-4
580,-3,-240,-100,-16,52,-7
585,-3,-242,-97,-14,55,-4
590,-5,-243,-95,-9,57,-5
595,-5,-237,-99,-4,60,-4
600,-3,-240,-98,3,62,-5
605,-5,-241,-96,9,65,-3
610,-4,-241,-96,17,65,-6
615,-4,-245,-97,21,64,-2
620,-4,-241,-98,24,64,-5
625,-2,-241,-99,25,64,-4
630,-5,-241,-98,27,64,-7
635,-3,-240,-99,28,62,-6
640,-5,-239,-97,29,63,-9
645,-5,-241,-103,27,62,-7
650,-7,-240,-96,25,60,-8
655,-3,-238,-101,20,59,-5
660,-4,-241,-98,16,56,-7
665,-8,-239,-100,11,54,-4
670,-6,-240,-97,5,52,-3
675,-4,-241,-99,2,49,0
680,-4,-241,-96,3,50,-1
685,-6,-242,-98,6,51,2
690,-5,-243,-102,7,52,-2
695,-4,-241,-97,11,53,-2
700,-4,-237,-99,14,56,-5
705,-4,-240,-97,16,59,-4
710,-3,-243,-98,15,62,-5
715,-3,-241,-99,12,66,-3
720,-5,-243,-98,10,66,-4
725,-6,-242,-98,6,67,-3
730,-3,-239,-95,3,64,-6
735,-2,-241,-95,2,62,-5
740,-3,-243,-96,0,60,-7
745,-3,-242,-97,-1,57,-6
750,-1,-246,-97,-1,56,-9
755,-5,-243,-97,1,56,-5
760,-6,-242,-97,2,55,-8
765,0,-244,-97,5,55,-5
770,-4,-243,-96,8,52,-6
775,-5,-240,-95,11,54,-3
780,-5,-240,-97,17,53,-2
785,-7,-242,-94,25,51,0
790,-5,-243,-94,31,51,-3
795,-8,-239,-95,36,50,-2
800,-4,-241,-95,37,50,-6
805,-4,-240,-96,36,51,-5
810,-5,-241,-94,34,52,-5
815,-6,-240,-96,30,53,-6
820,-5,-240,-93,26,54,-6
825,-5,-239,-94,23,56,-5
830,-4,-240,-94,20,56,-3
835,-5,-241,-92,18,58,-1
840,-4,-240,-96,15,58,-2
845,-5,-240,-96,13,58,-1
850,-2,-240,-95,10,59,-1
855,-4,-237,-94,7,60,-2
860,-4,-241,-94,5,59,-4
865,-1,-241,-92,4,59,-3
870,-6,-240,-95,1,57,-5
875,-5,-240,-97,-1,56,-6
880,-5,-239,-95,-4,56,-6
885,-2,-241,-94,-5,57,-6
890,-2,-243,-96,-7,58,-8
895,-2,-243,-95,-9,59,-8
900,-2,-240,-96,-12,58,-9
905,-5,-239,-96,-13,59,-9
910,-3,-242,-97,-13,60,-7
915,-4,-239,-95,-12,60,-6
920,-5,-242,-96,-7,58,-5
925,-5,-241,-99,-4,56,-4
930,-4,-238,-98,-2,55,-3
935,-2,-241,-95,-2,54,-4
940,-3,-241,-91,-1,53,-4
945,-4,-239,-90,-1,54,-2
950,-4,-238,-92,-1,56,-3
955,-2,-240,-95,-5,59,-4
960,-3,-242,-91,-9,60,-4
965,-7,-240,-92,-15,61,-4
970,-6,-242,-93,-16,64,-3
975,-6,-240,-95,-18,64,-5
980,-4,-243,-98,-20,64,-5
985,-7,-241,-98,-21,63,-6
990,-4,-242,-97,-22,62,-6
995,-5,-239,-94,-21,58,-7
1000,-6,-244,-94,-18,58,-4
1005,-5,-243,-99,-13,56,-6
1010,-7,-244,-99,-8,55,-5
1015,-7,-243,-99,-3,54,-5
1020,-4,-245,-95,4,55,-3
1025,-5,-239,-96,10,57,-3
1030,-3,-241,-95,16,59,-2
1035,-7,-243,-95,19,61,-4
1040,-4,-245,-94,23,63,-2
1045,-6,-240,-95,21,64,-5
1050,-3,-241,-91,17,65,-5
1055,-5,-237,-94,11,66,-8
1060,-5,-241,-97,5,65,-5
1065,-5,-241,-98,-2,65,-7
1070,-2,-239,-94,-9,65,-6
1075,-5,-238,-97,-15,63,-7
1080,-5,-240,-97,-15,63,-4
1085,-3,-242,-99,-16,58,-5
1090,-4,-238,-95,-14,57,-2
1095,-5,-242,-90,-8,56,-3
1100,-6,-238,-93,-4,54,0
1105,-7,-241,-97,4,53,-3
1110,-5,-242,-92,9,54,-1
1115,-1,-245,-93,13,55,-3
1120,-3,-245,-91,12,53,-1
1125,-6,-242,-92,11,51,-4
1130,-3,-244,-97,9,56,-2
1135,-1,-245,-96,10,56,-5
1140,-2,-244,-94,13,56,-4
1145,-4,-242,-96,16,58,-5
1150,-3,-241,-93,18,59,-1
1155,-2,-240,-92,20,60,-1
1160,-2,-242,-95,21,61,2
1165,-3,-240,-92,18,61,0
1170,-5,-241,-94,19,62,1
1175,-4,-240,-94,15,61,0
1180,-4,-240,-92,11,61,2
1185,-1,-243,-95,6,60,-1
1190,-4,-240,-94,1,59,2
1195,-4,-243,-94,-7,59,1
1200,-4,-243,-97,-16,56,5
1205,-6,-243,-94,-22,57,5
1210,-4,-244,-94,-20,55,8
1215,-5,-246,-91,-17,54,4
1220,-3,-245,-94,-11,53,7
1225,-6,-244,-92,-3,55,4
1230,-5,-243,-92,5,56,5
1235,-7,-242,-92,12,57,0
1240,-6,-241,-95,17,58,2
1245,-5,-240,-93,17,61,-2
1250,-7,-241,-92,16,61,-1
1255,-4,-241,-92,14,63,-3
1260,-3,-240,-91,11,63,-2
1265,-4,-242,-91,8,64,-5
1270,-3,-241,-93,8,62,-2
1275,-4,-241,-92,6,62,-4
1280,-4,-239,-93,3,61,-1
1285,-3,-243,-93,2,59,-3
1290,-4,-241,-93,1,60,1
1295,-5,-240,-92,-2,60,-1
1300,-3,-244,-94,-4,60,3
1305,-2,-244,-96,-5,61,-1
1310,-1,-241,-96,-4,61,3
1315,-6,-239,-98,-4,62,-1
1320,-4,-243,-97,-5,60,2
1325,-5,-239,-97,-5,61,0
1330,-4,-238,-93,-6,61,2
1335,-6,-241,-97,-7,61,0
1340,-4,-241,-96,-7,62,1
1345,-4,-241,-89,-8,64,-3
1350,-4,-243,-94,-7,61,0
1355,-2,-241,-93,-6,62,-3
1360,-5,-241,-95,-8,61,-2
1365,-3,-244,-96,-9,63,-4
1370,-3,-243,-97,-10,63,-1
1375,-4,-243,-92,-9,61,-2
1380,-4,-245,-99,-7,59,0
1385,-3,-241,-94,-4,58,-1
1390,-5,-243,-94,2,55,2
1395,-5,-243,-97,7,53,0
1400,-5,-243,-95,9,53,1
1405,-8,-242,-97,9,53,-2
1410,-7,-239,-93,9,54,0
1415,-5,-241,-90,5,52,-3
1420,-5,-241,-90,2,53,-2
1425,-7,-244,-94,-1,52,-2
1430,-5,-241,-92,-5,54,-1
1435,-2,-242,-91,-9,55,-3
1440,-6,-242,-94,-13,57,-2
1445,-3,-244,-95,-14,56,-5
1450,-3,-243,-101,-15,57,-3
1455,-3,-241,-94,-13,55,-4
1460,-3,-243,-93,-13,54,-2
1465,-4,-244,-95,-12,54,-4
1470,-5,-240,-97,-9,51,-2
1475,-3,-245,-96,-8,50,-3
1480,-1,-241,-91,-5,49,-1
1485,-3,-242,-92,-2,47,-3
1490,-5,-243,-93,1,46,-3
1495,-2,-244,-93,2,47,-5
1500,-4,-241,-93,1,46,-4
1505,-3,-243,-93,-1,44,-7
1510,-6,-241,-91,-4,45,-7
1515,-3,-244,-95,-7,47,-7
1520,-4,-243,-91,-10,47,-7
1525,-5,-241,-98,-12,47,-8
1530,-4,-240,-95,-13,46,-6
1535,-2,-239,-94,-14,46,-6
1540,-2,-242,-94,-12,46,-5
1545,-2,-239,-93,-9,46,-4
1550,-2,-240,-92,-8,47,-4
1555,-5,-241,-92,-6,48,-4
1560,-3,-239,-93,-3,48,-4
1565,-4,-238,-96,-1,50,-3
1570,-3,-239,-94,1,52,-4
1575,-3,-240,-96,-2,57,-5
1580,-2,-240,-95,-5,59,-5
1585,-3,-238,-96,-11,60,-5
1590,-2,-243,-94,-16,60,-5
1595,-3,-242,-92,-22,61,-6
1600,-3,-244,-92,-25,59,-7
1605,-4,-245,-92,-25,59,-6
1610,-5,-243,-91,-25,58,-5
1615,-4,-245,-92,-22,57,-4
1620,-5,-240,-92,-20,56,-5
1625,-5,-241,-91,-18,55,-3
1630,-5,-243,-95,-14,54,-3
1635,-6,-240,-91,-11,52,-1
1640,-4,-241,-93,-9,54,-2
1645,-4,-242,-95,-7,55,-1
1650,-4,-244,-95,-6,55,-2
1655,-4,-242,-94,-7,54,0
1660,-3,-242,-97,-6,54,-2
1665,-6,-243,-92,-4,54,-1
1670,-3,-241,-93,-2,55,-3
1675,-2,-243,-94,-2,56,-1
1680,-3,-240,-95,-3,56,-4
1685,-4,-241,-97,-4,57,-4
1690,-3,-243,-95,-4,56,-4
1695,-8,-240,-94,-5,56,-2
1700,-4,-241,-94,-7,54,-3
1705,-4,-241,-92,-7,56,-1
1710,-3,-244,-92,-7,56,-4
1715,-5,-241,-96,-7,55,-4
1720,-5,-239,-93,-7,53,-6
1725,-5,-238,-94,-7,52,-3
1730,-4,-243,-95,-9,50,-5
1735,-5,-239,-93,-12,49,-4
1740,-6,-240,-92,-15,51,-4
1745,-6,-242,-92,-18,51,-2
1750,-5,-244,-93,-21,52,-4
1755,-4,-241,-93,-25,54,-1
1760,-4,-243,-96,-27,55,-1
1765,-3,-242,-98,-30,54,0
1770,-3,-241,-95,-31,55,-2
1775,-5,-244,-93,-31,56,0
1780,-4,-244,-93,-27,56,-1
1785,-2,-245,-95,-21,55,1
1790,-3,-243,-97,-16,53,-1
1795,-6,-238,-93,-10,51,0
1800,-4,-242,-95,-3,49,-4
1805,-5,-239,-98,2,46,-3
1810,-7,-237,-96,4,45,-5
1815,-7,-239,-97,2,45,-4
1820,-5,-240,-97,-2,46,-7
1825,-5,-240,-96,-10,48,-6
1830,-4,-240,-99,-17,50,-8
1835,-3,-240,-98,-25,53,-5
1840,-2,-238,-98,-33,55,-7
1845,-6,-242,-100,-36,57,-4
1850,-4,-242,-99,-37,58,-6
1855,-4,-240,-100,-38,61,-4
1860,-2,-242,-100,-37,59,-7
1865,-5,-243,-102,-36,58,-5
1870,-4,-239,-95,-34,56,-8
1875,-5,-240,-99,-31,54,-5
1880,-2,-243,-96,-27,52,-8
1885,-3,-244,-96,-20,50,-6
1890,-3,-242,-93,-16,51,-7
1895,-3,-242,-97,-10,51,-4
1900,-3,-244,-96,-8,52,-5
1905,-4,-243,-100,-6,49,-1
1910,-4,-239,-100,-6,51,-3
1915,-7,-240,-100,-6,52,0
1920,-5,-242,-99,-6,53,0
1925,-6,-238,-97,-8,52,2
1930,-4,-239,-98,-5,51,-1
1935,-7,-238,-99,-3,50,2
1940,-7,-237,-99,-3,51,-1
1945,-3,-242,-99,-6,52,2
1950,-5,-237,-95,-12,53,-2
1955,-6,-236,-97,-20,54,1
1960,-2,-237,-97,-31,53,-4
1965,-7,-238,-98,-40,54,-6
1970,-7,-233,-94,-46,55,-10
1975,-3,-239,-102,-48,56,-8
1980,-3,-236,-102,-53,56,-12
1985,-7,-235,-102,-58,58,-8
1990,-5,-238,-104,-65,57,-8
1995,-3,-239,-100,-73,60,-5
2000,-5,-235,-104,-78,60,-6
2005,-4,-240,-99,-81,61,-1
2010,-5,-238,-105,-84,65,-1
2015,-3,-236,-103,-84,68,4
2020,-4,-239,-103,-84,71,4
2025,-1,-242,-100,-83,72,4
2030,-3,-239,-100,-82,74,3
2035,-2,-239,-103,-81,74,4
2040,-3,-239,-105,-80,76,2
2045,-6,-240,-104,-81,74,3
2050,-7,-239,-105,-82,75,1
2055,-6,-237,-103,-80,72,2
2060,-6,-237,-104,-81,71,-1
2065,-6,-236,-105,-78,69,1
2070,-8,-236,-108,-78,69,-1
2075,-7,-237,-102,-79,68,0
2080,-8,-235,-103,-80,68,-2
2085,-8,-235,-105,-81,65,2
2090,-10,-235,-104,-83,60,-1
2095,-11,-233,-107,-82,54,2
2100,-9,-234,-107,-84,48,0
2105,-9,-235,-108,-87,42,3
2110,-12,-236,-106,-89,33,4
2115,-10,-233,-106,-91,26,5
2120,-12,-229,-107,-97,16,7
2125,-12,-230,-107,-106,8,8
2130,-10,-232,-109,-118,3,7
2135,-12,-232,-114,-131,1,9
2140,-9,-231,-118,-144,3,7
2145,-7,-232,-115,-154,8,9
2150,-8,-233,-108,-162,11,6
2155,-5,-232,-114,-165,18,6
2160,-5,-232,-111,-164,24,4
2165,-5,-234,-113,-163,26,5
2170,-7,-233,-116,-162,27,5
2175,-4,-232,-115,-167,27,7
2180,-4,-233,-114,-172,25,9
2185,-4,-230,-120,-179,23,11
2190,-6,-229,-115,-186,21,11
2195,-6,-227,-120,-194,24,14
2200,-4,-229,-118,-202,24,16
2205,-4,-230,-116,-210,29,17
2210,-2,-227,-119,-217,35,18
2215,-4,-230,-116,-221,42,20
2220,-6,-228,-118,-226,44,22
2225,-1,-229,-115,-228,46,22
2230,-2,-228,-118,-232,49,23
2235,-1,-226,-117,-231,53,25
2240,-1,-227,-119,-232,58,26
2245,-3,-222,-117,-235,60,26
2250,-1,-225,-122,-241,61,24
2255,-3,-222,-125,-253,65,23
2260,-4,-225,-121,-269,66,22
2265,-5,-225,-122,-289,70,18
2270,-3,-224,-125,-301,71,15
2275,-6,-223,-123,-312,72,13
2280,-5,-224,-124,-319,69,11
2285,-6,-226,-123,-322,65,9
2290,-9,-223,-123,-321,58,10
2295,-10,-226,-121,-317,54,11
2300,-9,-224,-119,-307,49,12
2305,-8,-221,-123,-300,47,11
2310,-7,-222,-117,-295,43,10
2315,-9,-221,-120,-293,41,10
2320,-10,-221,-118,-294,39,11
2325,-11,-219,-119,-296,35,9
2330,-9,-219,-118,-300,30,9
2335,-10,-216,-117,-311,28,8
2340,-9,-212,-120,-322,26,7
2345,-5,-214,-122,-333,25,3
2350,-6,-210,-121,-347,24,1
2355,-2,-212,-122,-372,25,-2
2360,-9,-208,-121,-398,27,-6
2365,-5,-211,-124,-428,30,-9
2370,-4,-209,-123,-453,35,-10
2375,-3,-208,-125,-474,41,-13
2380,-1,-209,-126,-491,50,-13
2385,0,-207,-128,-507,59,-14
2390,3,-208,-131,-520,69,-10
2395,6,-208,-125,-527,79,-8
2400,8,-208,-125,-535,92,-3
2405,8,-207,-123,-541,102,2
2410,11,-210,-123,-551,111,10
2415,11,-209,-121,-564,117,18
2420,13,-210,-125,-576,123,26
2425,17,-208,-124,-590,132,28
2430,17,-208,-124,-603,144,33
2435,17,-208,-125,-614,158,36
2440,14,-204,-125,-623,171,40
2445,19,-209,-130,-631,187,42
2450,15,-206,-124,-646,199,43
2455,16,-205,-125,-655,210,39
2460,17,-207,-128,-661,218,38
2465,10,-209,-126,-667,222,29
2470,5,-209,-124,-674,218,26
2475,3,-213,-129,-683,201,22
2480,-1,-209,-147,-691,183,17
2485,-9,-214,-134,-700,162,8
2490,-12,-216,-131,-705,137,3
2495,-14,-214,-136,-705,117,-4
2500,-20,-214,-145,-703,99,-4
2505,-21,-211,-144,-701,79,-8
2510,-21,-209,-141,-695,63,-10
2515,-26,-207,-140,-683,50,-16
2520,-25,-203,-141,-669,41,-18
2525,-25,-200,-139,-653,33,-22
2530,-26,-196,-135,-629,21,-24
2535,-25,-194,-134,-604,4,-31
2540,-21,-187,-133,-576,-13,-35
2545,-21,-180,-135,-559,-30,-43
2550,-15,-177,-134,-551,-47,-43
2555,-16,-171,-139,-557,-66,-46
2560,-12,-173,-134,-575,-86,-43
2565,-11,-173,-136,-604,-105,-42
2570,-12,-176,-138,-641,-128,-33
2575,-7,-180,-132,-682,-150,-29
2580,-4,-182,-134,-723,-173,-26
2585,-5,-183,-142,-775,-206,-29
2590,-1,-185,-146,-808,-228,-37
2595,-1,-188,-143,-835,-244,-51
2600,1,-188,-147,-856,-255,-64
2605,-3,-185,-152,-867,-263,-86
2610,-4,-185,-149,-868,-269,-109
2615,-8,-186,-157,-859,-274,-138
2620,-5,-181,-153,-848,-273,-161
2625,-7,-177,-149,-832,-263,-192
2630,-7,-175,-146,-798,-235,-215
2635,-2,-175,-142,-768,-199,-242
2640,1,-175,-146,-745,-158,-260
2645,8,-170,-143,-740,-115,-275
2650,11,-170,-144,-750,-67,-274
2655,19,-170,-142,-779,-22,-266
2660,29,-173,-143,-816,22,-242
2665,34,-174,-143,-860,58,-213
2670,34,-175,-147,-910,82,-174
2675,35,-178,-151,-963,88,-128
2680,33,-183,-149,-998,75,-87
2685,31,-185,-157,-1012,51,-52
2690,22,-183,-159,-1008,16,-17
2695,16,-186,-164,-992,-13,8
2700,11,-185,-167,-970,-34,30
2705,4,-182,-173,-943,-44,37
2710,2,-181,-174,-918,-45,39
2715,-5,-180,-173,-900,-45,28
2720,-12,-175,-172,-888,-41,7
2725,-12,-176,-169,-874,-38,-22
2730,-12,-176,-163,-860,-35,-46
2735,-22,-179,-160,-845,-27,-75
2740,-22,-183,-156,-830,-18,-97
2745,-25,-185,-151,-819,-13,-122
2750,-27,-184,-161,-807,-7,-139
2755,-24,-187,-162,-802,3,-151
2760,-20,-188,-166,-802,25,-151
2765,-13,-188,-171,-802,60,-144
2770,-12,-188,-172,-796,85,-128
2775,-12,-189,-184,-784,99,-111
2780,-10,-186,-184,-767,105,-82
2785,-4,-186,-183,-740,110,-52
2790,-1,-182,-185,-711,116,-18
2795,0,-181,-180,-683,116,11
2800,-2,-178,-179,-654,110,40
2805,-2,-176,-178,-632,97,61
2810,-2,-175,-175,-612,79,82
2815,-2,-172,-176,-594,62,93
2820,0,-173,-179,-583,59,100
2825,2,-171,-181,-580,67,96
2830,4,-174,-184,-587,89,89
2835,11,-174,-187,-608,119,73
2840,9,-174,-189,-636,151,58
2845,11,-177,-187,-659,178,35
2850,9,-178,-186,-676,194,18
2855,8,-176,-186,-679,197,-1
2860,2,-180,-181,-654,186,-8
2865,6,-184,-183,-620,174,-12
2870,0,-179,-184,-580,167,-16
2875,1,-177,-183,-541,159,-18
2880,-2,-178,-184,-502,154,-13
2885,-5,-176,-185,-470,152,-8
2890,-8,-179,-184,-443,150,-3
2895,-10,-173,-182,-418,153,3
2900,-10,-177,-183,-396,155,14
2905,-12,-174,-192,-382,160,18
2910,-11,-175,-193,-371,161,22
2915,-14,-177,-192,-364,155,20
2920,-16,-173,-191,-362,135,21
2925,-17,-171,-190,-356,110,21
2930,-14,-173,-193,-338,87,23
2935,-11,-171,-195,-311,72,19
2940,-13,-170,-199,-285,69,13
2945,-12,-170,-199,-266,76,8
2950,-10,-169,-200,-246,88,5
2955,-10,-163,-203,-231,97,-1
2960,-9,-165,-200,-223,104,-4
2965,-7,-163,-203,-216,107,-8
2970,-4,-163,-207,-220,106,-13
2975,1,-160,-209,-232,102,-19
2980,0,-157,-210,-245,98,-28
2985,2,-161,-211,-254,95,-36
2990,1,-161,-215,-259,94,-46
2995,4,-165,-209,-250,98,-54
3000,5,-162,-211,-236,105,-61
3005,4,-165,-214,-223,116,-65
3010,6,-162,-211,-213,126,-67
3015,7,-166,-212,-198,129,-73
3020,2,-164,-208,-191,124,-80
3025,4,-162,-208,-185,120,-85
3030,7,-160,-208,-172,118,-95
3035,10,-166,-205,-149,117,-102
3040,7,-161,-211,-104,117,-118
3045,10,-154,-213,-53,118,-124
3050,20,-162,-219,-23,123,-127
3055,23,-199,-191,-7,119,-159
3060,5,-218,-173,48,106,-223
3065,3,-224,-180,206,112,-229
3070,-4,-211,-195,315,115,-190
3075,-9,-194,-204,333,129,-145
3080,-9,-179,-219,291,146,-104
3085,-11,-171,-214,215,149,-66
3090,-9,-170,-212,129,139,-51
3095,-9,-169,-213,69,127,-41
3100,-10,-169,-214,27,117,-36
3105,-5,-172,-212,-3,113,-36
3110,-4,-173,-216,-24,120,-41
3115,-4,-168,-213,-41,131,-42
3120,-5,-167,-213,-45,143,-41
3125,-4,-168,-212,-32,146,-38
3130,-1,-164,-218,-7,142,-37
3135,-1,-162,-213,20,132,-31
3140,2,-161,-220,29,120,-28
3145,3,-161,-216,28,115,-23
3150,0,-162,-215,23,111,-22
3155,1,-162,-216,20,110,-22
3160,0,-160,-219,13,111,-29
3165,2,-163,-221,2,113,-36
3170,-4,-161,-220,-7,116,-46
3175,1,-160,-220,-18,118,-51
3180,-2,-162,-217,-33,121,-52
3185,1,-167,-217,-38,124,-50
3190,0,-167,-214,-34,129,-50
3195,2,-164,-213,-25,139,-49
3200,1,-165,-213,-17,150,-46
3205,2,-161,-213,-5,158,-38
3210,4,-164,-210,8,167,-31
3215,6,-161,-213,16,175,-18
3220,7,-163,-213,12,186,-7
3225,10,-162,-211,-9,198,7
3230,5,-158,-219,-35,200,18
3235,10,-159,-220,-67,197,35
3240,11,-160,-227,-98,195,44
3245,7,-158,-228,-130,196,54
3250,11,-159,-229,-150,199,55
3255,13,-163,-232,-159,208,50
3260,12,-163,-235,-159,217,37
3265,5,-170,-236,-155,222,27
3270,5,-174,-240,-143,224,16
3275,1,-170,-239,-124,229,14
3280,3,-173,-243,-96,237,8
3285,-3,-169,-242,-57,244,10
3290,-2,-170,-245,-16,253,15
3295,-2,-170,-249,29,259,23
3300,-3,-162,-247,69,267,24
3305,-5,-162,-250,97,269,38
3310,-7,-163,-248,116,264,47
3315,0,-165,-245,128,261,59
3320,-1,-170,-244,134,259,68
3325,3,-171,-240,138,259,82
3330,6,-173,-239,148,257,91
3335,4,-178,-231,158,259,90
3340,2,-177,-234,178,250,88
3345,1,-173,-232,196,240,89
3350,0,-173,-221,216,228,86
3355,3,-172,-231,240,210,89
3360,4,-175,-226,255,213,85
3365,3,-178,-224,265,217,95
3370,-1,-177,-221,274,221,93
3375,-5,-183,-220,288,211,97
3380,-1,-189,-225,306,192,94
3385,0,-190,-231,328,167,96
3390,0,-186,-234,342,146,93
3395,2,-192,-238,353,129,92
3400,-1,-194,-238,373,112,86
3405,5,-196,-246,412,102,92
3410,7,-206,-242,452,112,86
3415,6,-213,-242,503,124,86
3420,6,-214,-244,568,131,84
3425,9,-219,-242,640,134,88
3430,11,-219,-246,710,137,91
3435,11,-217,-240,774,143,98
3440,16,-228,-240,828,142,105
3445,12,-230,-239,868,142,119
3450,12,-236,-242,899,134,120
3455,17,-237,-248,919,127,120
3460,17,-239,-250,930,128,109
3465,19,-242,-251,950,125,104
3470,22,-240,-248,983,120,110
3475,17,-232,-240,1026,125,103
3480,15,-225,-234,1074,121,90
3485,12,-219,-232,1125,111,103
3490,16,-213,-220,1164,108,100
3495,13,-202,-217,1186,101,97
3500,13,-197,-209,1190,104,86
3505,14,-196,-205,1173,106,76
3510,9,-192,-198,1141,110,66
3515,11,-195,-190,1097,111,58
3520,11,-197,-190,1050,112,49
3525,9,-194,-183,1007,111,47
3530,9,-196,-182,973,107,41
3535,11,-198,-180,948,104,39
3540,13,-201,-180,929,99,32
3545,10,-203,-183,912,96,34
3550,10,-206,-183,901,97,30
3555,10,-207,-181,897,99,32
3560,7,-209,-180,891,100,35
3565,11,-208,-172,892,101,43
3570,13,-211,-168,903,103,51
3575,11,-209,-168,917,104,63
3580,14,-209,-163,928,104,72
3585,12,-206,-158,935,108,87
3590,15,-203,-159,938,110,96
3595,14,-198,-156,933,115,105
3600,10,-196,-154,923,120,107
3605,8,-195,-153,910,122,112
3610,9,-194,-148,900,129,110
3615,7,-194,-141,894,136,112
3620,8,-197,-142,895,140,111
3625,4,-196,-145,900,145,112
3630,4,-196,-140,904,145,108
3635,2,-197,-140,905,149,107
3640,0,-199,-140,908,148,103
3645,-3,-200,-146,913,141,98
3650,-1,-204,-143,922,134,92
3655,2,-210,-143,933,130,88
3660,-1,-212,-143,950,131,86
3665,-2,-215,-145,971,136,85
3670,3,-221,-143,998,144,84
3675,0,-224,-144,1023,153,81
3680,3,-228,-141,1057,165,79
3685,3,-231,-138,1086,174,78
3690,5,-235,-138,1113,179,76
3695,6,-240,-137,1137,188,76
3700,9,-239,-133,1155,193,78
3705,5,-237,-131,1171,198,81
3710,7,-237,-132,1175,197,84
3715,4,-243,-130,1175,193,85
3720,5,-238,-127,1160,189,90
3725,9,-238,-124,1130,180,96
3730,12,-239,-121,1097,173,103
3735,14,-241,-121,1051,172,113
3740,13,-247,-120,1002,174,123
3745,16,-248,-116,955,167,133
3750,19,-254,-112,914,155,143
3755,16,-257,-106,881,143,153
3760,18,-259,-103,858,126,161
3765,18,-261,-97,846,112,169
3770,20,-257,-102,835,100,175
3775,22,-259,-102,830,100,178
3780,23,-259,-101,826,99,176
3785,22,-254,-101,830,93,171
3790,18,-250,-99,838,81,163
3795,24,-249,-94,852,62,153
3800,20,-247,-97,869,41,140
3805,16,-237,-91,886,15,124
3810,17,-235,-91,896,-12,113
3815,16,-230,-84,901,-46,97
3820,11,-224,-79,897,-72,84
3825,13,-228,-74,892,-95,72
3830,9,-221,-73,873,-119,65
3835,4,-217,-68,843,-143,59
3840,3,-219,-65,807,-165,57
3845,-5,-216,-70,769,-187,52
3850,-5,-219,-75,725,-205,57
3855,-9,-217,-70,683,-213,59
3860,-7,-222,-78,640,-212,66
3865,-10,-225,-75,591,-209,70
3870,-12,-231,-75,556,-202,77
3875,-11,-234,-76,532,-195,79
3880,-12,-244,-74,516,-189,79
3885,-10,-252,-76,510,-180,75
3890,-10,-254,-73,513,-174,73
3895,-10,-259,-78,519,-163,66
3900,-12,-260,-77,523,-153,63
3905,-8,-260,-79,526,-141,56
3910,-9,-258,-87,533,-136,54
3915,-10,-255,-89,538,-129,53
3920,-6,-256,-86,539,-123,58
3925,-8,-254,-89,544,-119,61
3930,-6,-250,-85,556,-116,68
3935,-6,-248,-81,568,-113,68
3940,-7,-243,-81,577,-110,72
3945,-6,-243,-77,584,-103,69
3950,-8,-237,-74,587,-90,71
3955,-6,-232,-76,578,-78,71
3960,-9,-233,-71,562,-66,70
3965,-9,-226,-70,538,-61,65
3970,-6,-227,-70,507,-58,63
3975,-8,-225,-70,472,-59,57
3980,-6,-224,-69,436,-60,56
3985,-7,-225,-72,400,-57,54
3990,-10,-224,-71,365,-51,55
3995,-6,-225,-71,335,-49,52
4000,-1,-232,-77,304,-46,53
4005,1,-233,-68,281,-40,50
4010,-6,-232,-70,264,-36,53
4015,-4,-237,-68,252,-31,49
4020,-5,-237,-63,245,-24,52
4025,-4,-242,-63,237,-17,45
4030,-6,-241,-67,232,-11,43
4035,-3,-245,-63,223,-6,38
4040,-3,-248,-64,214,-2,34
4045,-5,-246,-68,205,-2,28
4050,-4,-248,-64,199,-4,24
4055,-5,-250,-61,193,-4,19
4060,-5,-249,-62,188,-2,18
4065,-5,-250,-61,184,2,15
4070,-3,-253,-60,180,7,17
4075,0,-249,-60,178,11,15
4080,-3,-249,-59,177,17,17
4085,0,-248,-60,178,20,15
4090,1,-248,-62,183,24,17
4095,-2,-245,-62,189,24,15
4100,-1,-246,-59,195,24,17
4105,1,-243,-63,197,23,17
4110,0,-241,-61,201,23,19
4115,1,-243,-58,200,24,17
4120,2,-242,-58,194,29,23
4125,-1,-242,-56,184,37,22
4130,-1,-240,-56,174,44,26
4135,0,-242,-59,157,51,26
4140,0,-244,-57,144,56,28
4145,-2,-244,-57,130,60,25
4150,-2,-244,-57,118,63,27
4155,-4,-243,-57,103,63,25
4160,-3,-242,-55,89,64,25
4165,-5,-242,-55,78,62,21
4170,-9,-243,-51,68,58,18
4175,-8,-247,-55,62,52,11
4180,-8,-245,-55,57,42,10
4185,-11,-244,-50,54,33,3
4190,-11,-243,-52,51,29,3
4195,-9,-247,-54,49,24,-1
4200,-9,-247,-56,46,21,0
4205,-8,-245,-55,42,22,-6
4210,-8,-246,-56,41,24,-7
4215,-7,-244,-58,44,29,-12
4220,-4,-245,-58,45,33,-15
4225,-3,-246,-60,47,41,-22
4230,-1,-245,-59,47,50,-22
4235,0,-245,-59,44,58,-23
4240,1,-244,-61,38,67,-21
4245,2,-245,-61,30,73,-23
4250,6,-248,-61,25,80,-20
4255,2,-250,-62,19,84,-21
4260,5,-252,-59,16,89,-17
4265,4,-251,-62,15,94,-16
4270,3,-250,-59,16,101,-7
4275,3,-251,-63,14,108,-4
4280,2,-250,-59,15,111,5
4285,1,-253,-61,15,111,13
4290,-1,-251,-62,13,107,20
4295,-2,-256,-58,14,100,21
4300,-2,-257,-61,19,90,23
4305,-6,-257,-62,24,79,22
4310,-2,-258,-69,35,69,23
4315,-6,-259,-62,49,61,24
4320,-6,-258,-70,62,61,28
4325,-5,-258,-70,76,62,33
4330,-7,-256,-69,93,63,41
4335,-8,-259,-70,113,66,43
4340,-7,-259,-71,138,70,44
4345,-7,-259,-71,164,73,38
4350,-8,-258,-66,189,78,32
4355,-7,-258,-69,211,84,24
4360,-7,-256,-63,232,93,22
4365,-7,-257,-59,243,97,18
4370,-2,-257,-60,248,99,15
4375,-3,-257,-60,246,101,9
4380,-4,-256,-60,245,102,6
4385,-3,-252,-59,240,100,0
4390,1,-255,-56,239,98,-4
4395,-3,-250,-57,235,98,-5
4400,-2,-249,-55,229,97,-5
4405,-2,-248,-55,218,98,-5
4410,2,-247,-56,206,97,-3
4415,-1,-246,-53,190,96,-1
4420,0,-245,-55,169,95,3
4425,-3,-242,-51,147,94,3
4430,-3,-246,-53,123,95,5
4435,-3,-243,-54,99,95,7
4440,-5,-244,-53,72,95,8
4445,-2,-245,-54,48,94,7
4450,-5,-247,-55,24,93,6
4455,-9,-248,-57,6,92,3
4460,-5,-249,-56,-5,92,1
4465,-9,-245,-55,-11,95,-1
4470,-6,-249,-56,-12,99,0
4475,-6,-249,-57,-12,103,-2
4480,-9,-250,-58,-12,106,-5
4485,-8,-252,-59,-11,111,-8
4490,-9,-251,-58,-10,110,-12
4495,-7,-251,-56,-6,109,-16
4500,-9,-255,-61,-4,109,-17
4505,-7,-254,-55,-1,108,-18
4510,-5,-251,-57,3,107,-19
4515,-4,-251,-58,8,105,-16
4520,-6,-253,-59,14,103,-18
4525,-5,-251,-58,20,100,-16
4530,-3,-251,-54,24,95,-17
4535,-3,-251,-56,28,91,-18
4540,-3,-250,-58,32,84,-16
4545,-2,-253,-56,33,80,-14
4550,-4,-253,-58,32,77,-15
4555,-4,-250,-55,30,76,-12
4560,-3,-255,-55,24,76,-14
4565,-2,-249,-55,20,74,-11
4570,-3,-251,-55,10,72,-13
4575,-1,-253,-53,2,70,-11
4580,-3,-253,-53,-4,68,-12
4585,-3,-252,-57,-11,64,-12
4590,-3,-250,-54,-19,65,-12
4595,-4,-251,-53,-24,66,-12
4600,-8,-250,-55,-28,64,-12
4605,-3,-250,-56,-33,64,-11
4610,-4,-252,-58,-38,64,-11
4615,-2,-249,-54,-45,65,-10
4620,-3,-248,-54,-54,66,-14
4625,-5,-248,-53,-65,67,-14
4630,-3,-248,-56,-77,70,-17
4635,-5,-247,-56,-87,71,-17
4640,-2,-251,-56,-95,72,-19
4645,-4,-250,-53,-100,73,-19
4650,-4,-250,-57,-102,74,-21
4655,-4,-252,-58,-104,77,-20
4660,-4,-252,-52,-103,78,-22
4665,-3,-254,-56,-99,78,-19
4670,-2,-254,-56,-97,78,-23
4675,-3,-254,-56,-97,80,-22
4680,1,-255,-54,-97,79,-24
4685,-1,-254,-55,-98,81,-25
4690,-3,-253,-56,-99,83,-27
4695,-4,-254,-55,-103,83,-27
4700,-3,-254,-56,-105,80,-31
4705,-3,-252,-56,-107,79,-32
4710,-6,-249,-61,-108,78,-36
4715,-6,-251,-58,-108,79,-36
4720,-5,-251,-58,-110,80,-40
4725,-7,-249,-59,-110,80,-40
4730,-9,-250,-55,-111,79,-44
4735,-10,-247,-57,-110,80,-44
4740,-3,-249,-59,-113,79,-46
4745,-6,-247,-57,-114,83,-43
4750,-4,-246,-57,-122,87,-43
4755,-6,-245,-56,-128,90,-44
4760,-5,-244,-56,-137,93,-49
4765,-4,-246,-57,-147,97,-49
4770,-4,-247,-59,-162,101,-54
4775,-5,-247,-55,-172,105,-53
4780,-1,-249,-57,-183,108,-57
4785,-2,-249,-56,-194,113,-58
4790,0,-251,-60,-200,121,-61
4795,0,-249,-59,-205,125,-60
4800,0,-252,-57,-206,129,-65
4805,-3,-253,-58,-204,132,-65
4810,2,-253,-60,-200,131,-68
4815,0,-253,-61,-196,131,-65
4820,1,-254,-59,-189,131,-65
4825,2,-253,-62,-183,130,-60
4830,1,-253,-61,-176,130,-60
4835,3,-256,-60,-169,131,-55
4840,0,-255,-60,-165,132,-56
4845,4,-254,-65,-159,133,-52
4850,0,-251,-61,-158,136,-50
4855,2,-254,-57,-154,137,-44
4860,0,-252,-60,-144,139,-43
4865,3,-252,-59,-139,138,-39
4870,1,-250,-62,-136,141,-42
4875,1,-252,-62,-136,144,-41
4880,2,-248,-66,-137,144,-44
4885,1,-248,-65,-143,141,-43
4890,1,-249,-64,-149,139,-47
4895,-1,-246,-63,-159,138,-47
4900,2,-245,-60,-169,136,-50
4905,1,-250,-59,-179,138,-48
4910,1,-248,-63,-187,137,-50
4915,0,-252,-62,-189,139,-47
4920,-3,-251,-64,-188,139,-47
4925,1,-253,-61,-182,142,-43
4930,1,-253,-62,-177,143,-40
4935,3,-254,-63,-171,145,-36
4940,4,-253,-63,-167,147,-35
4945,3,-247,-66,-166,145,-31
4950,0,-248,-65,-167,139,-33
4955,3,-248,-69,-172,134,-28
4960,4,-247,-67,-176,128,-27
4965,5,-248,-68,-179,123,-20
4970,4,-248,-65,-181,121,-18
4975,4,-250,-68,-181,115,-14
4980,9,-249,-69,-180,109,-14
4985,7,-249,-71,-176,102,-11
4990,4,-249,-70,-171,95,-11
4995,3,-248,-69,-164,85,-8
5000,4,-251,-69,-155,81,-9
5005,3,-252,-69,-145,77,-6
5010,1,-250,-74,-138,75,-8
5015,-1,-252,-71,-128,71,-7
5020,-3,-254,-74,-117,69,-12
5025,1,-254,-72,-103,69,-12
5030,2,-252,-74,-94,67,-14
5035,-1,-252,-70,-84,69,-14
5040,-2,-253,-70,-78,70,-16
5045,-1,-250,-75,-75,73,-15
5050,0,-251,-68,-73,75,-17
5055,2,-251,-70,-73,77,-15
5060,1,-249,-73,-75,82,-17
5065,-1,-250,-76,-78,85,-16
5070,0,-247,-74,-80,86,-18
5075,1,-248,-69,-82,88,-19
5080,3,-247,-73,-86,90,-20
5085,1,-244,-76,-86,95,-16
5090,2,-245,-69,-87,99,-20
5095,1,-248,-71,-88,102,-17
5100,3,-247,-71,-89,102,-18
5105,1,-246,-73,-90,103,-18
5110,1,-248,-71,-92,104,-18
5115,0,-244,-71,-96,103,-16
5120,0,-245,-75,-101,102,-17
5125,2,-246,-71,-104,100,-14
5130,1,-249,-73,-110,95,-14
5135,1,-247,-71,-117,93,-11
5140,-1,-248,-67,-124,87,-14
5145,1,-246,-75,-130,82,-12
5150,-2,-246,-75,-138,80,-14
5155,2,-249,-73,-144,77,-14
5160,3,-248,-76,-148,77,-14
5165,2,-246,-76,-153,78,-14
5170,3,-245,-74,-159,78,-17
5175,4,-248,-72,-167,77,-15
5180,2,-244,-70,-169,76,-17
5185,5,-248,-74,-176,78,-18
5190,6,-250,-78,-184,78,-22
5195,6,-250,-71,-190,78,-25
5200,2,-249,-79,-193,78,-27
5205,2,-246,-77,-192,80,-28
5210,3,-250,-78,-193,84,-29
5215,3,-249,-76,-187,86,-25
5220,4,-248,-78,-181,89,-25
5225,2,-247,-78,-173,93,-22
5230,-1,-249,-80,-165,92,-22
5235,2,-250,-81,-159,91,-22
5240,2,-248,-83,-153,89,-22
5245,4,-249,-78,-147,86,-23
5250,5,-247,-76,-144,83,-23
5255,1,-243,-80,-144,79,-25
5260,3,-245,-77,-144,73,-26
5265,2,-246,-77,-143,65,-23
5270,6,-249,-76,-142,60,-22
5275,4,-247,-81,-141,57,-19
5280,4,-243,-77,-138,53,-16
5285,4,-247,-78,-139,50,-16
5290,4,-247,-81,-136,48,-15
5295,4,-247,-83,-138,45,-15
5300,8,-246,-79,-139,42,-13
5305,4,-248,-81,-140,38,-11
5310,4,-249,-78,-142,32,-10
5315,3,-249,-83,-141,28,-9
5320,7,-248,-88,-137,24,-6
5325,7,-249,-88,-128,21,-6
5330,5,-247,-84,-120,18,-3
5335,2,-245,-84,-110,20,-2
5340,4,-245,-84,-103,18,3
5345,2,-243,-87,-97,17,4
5350,3,-248,-85,-93,17,5
5355,3,-245,-80,-91,15,5
5360,1,-243,-85,-88,16,7
5365,1,-247,-82,-83,14,7
5370,4,-246,-84,-80,16,7
5375,3,-247,-82,-75,18,4
5380,3,-248,-82,-72,23,3
5385,3,-246,-79,-71,25,-1
5390,3,-246,-80,-69,29,-2
5395,5,-249,-80,-68,29,-6
5400,6,-248,-84,-63,34,-6
5405,4,-246,-82,-58,34,-10
5410,4,-246,-89,-50,34,-8
5415,6,-247,-85,-43,34,-9
5420,5,-245,-85,-36,34,-5
5425,6,-247,-86,-31,32,-6
5430,7,-245,-82,-27,31,-2
5435,8,-245,-82,-24,31,-4
5440,5,-246,-84,-21,32,-3
5445,4,-247,-83,-19,33,-3
5450,5,-245,-83,-17,35,-1
5455,4,-246,-80,-19,36,-2
5460,4,-246,-82,-21,40,0
5465,5,-246,-81,-24,41,-3
5470,4,-248,-85,-29,43,-1
5475,3,-247,-82,-32,46,-4
5480,6,-250,-82,-32,48,-2
5485,2,-247,-83,-32,49,-5
5490,2,-246,-88,-24,51,-4
5495,2,-247,-87,-18,52,-5
5500,2,-248,-89,-9,52,-2
5505,3,-247,-87,-1,52,-1
5510,4,-246,-84,8,50,2
5515,4,-249,-84,18,50,2
5520,4,-249,-89,25,49,6
5525,2,-249,-88,33,51,5
5530,3,-248,-83,38,51,9
5535,3,-245,-79,42,51,6
5540,4,-247,-87,40,53,7
5545,3,-244,-84,36,54,4
5550,6,-246,-83,33,56,6
5555,2,-245,-83,28,57,3
5560,5,-246,-83,28,58,4
5565,3,-243,-84,29,59,1
5570,3,-241,-82,29,60,3
5575,3,-244,-81,28,60,0
5580,5,-243,-83,28,62,1
5585,4,-245,-85,24,59,-1
5590,4,-245,-79,19,58,2
5595,4,-245,-84,16,57,2
5600,4,-243,-82,17,55,7
5605,3,-245,-83,17,52,8
5610,3,-243,-86,20,52,12
5615,3,-244,-83,25,51,10
5620,3,-248,-79,30,50,12
5625,2,-243,-87,34,50,8
5630,1,-245,-82,37,51,12
5635,4,-246,-84,39,50,11
5640,-1,-242,-80,42,51,12
5645,0,-244,-81,44,50,8
5650,-1,-246,-83,43,52,10
5655,1,-247,-83,44,53,6
5660,2,-246,-82,42,52,8
5665,2,-245,-81,38,51,3
5670,3,-246,-83,33,51,4
5675,2,-245,-79,29,50,1
5680,-2,-244,-84,27,49,4
5685,2,-245,-80,23,47,1
5690,0,-247,-79,23,47,4
5695,1,-246,-82,21,48,2
5700,5,-247,-81,19,49,5
5705,2,-244,-78,16,49,3
5710,3,-248,-80,12,50,5
5715,1,-246,-80,12,52,3
5720,1,-245,-81,12,53,5
5725,1,-248,-78,12,57,2
5730,3,-250,-76,14,57,5
5735,6,-249,-76,15,58,0
5740,1,-249,-75,18,59,2
5745,3,-246,-82,19,62,-1
5750,1,-245,-81,22,63,0
5755,3,-247,-82,24,64,-1
5760,2,-247,-85,24,64,-1
5765,5,-246,-81,23,61,-4
5770,5,-248,-80,27,60,-1
5775,3,-249,-77,29,58,-3
5780,4,-249,-77,32,54,0
5785,5,-247,-84,34,52,-3
5790,3,-247,-77,39,48,2
5795,5,-249,-76,46,46,1
5800,2,-248,-79,52,45,3
5805,0,-248,-78,59,44,0
5810,5,-248,-78,63,44,2
5815,3,-246,-78,63,45,0
5820,1,-246,-77,59,47,1
5825,2,-247,-80,56,47,0
5830,2,-246,-79,52,48,1
5835,3,-245,-78,46,51,0
5840,3,-246,-75,41,52,2
5845,2,-248,-78,37,51,-1
5850,2,-247,-77,32,51,0
5855,3,-247,-77,30,51,-1
5860,2,-245,-79,29,49,1
5865,2,-247,-83,26,50,-2
5870,3,-247,-82,21,49,1
5875,3,-245,-80,17,49,0
5880,4,-247,-75,12,50,3
5885,1,-247,-77,10,50,1
5890,3,-247,-77,9,48,1
5895,4,-246,-81,8,49,1
5900,2,-246,-80,10,49,2
5905,2,-246,-81,11,49,1
5910,3,-246,-79,14,50,1
5915,2,-248,-80,14,50,0
5920,4,-246,-80,13,52,1
5925,4,-247,-79,14,52,0
5930,6,-248,-77,14,53,1
5935,5,-247,-76,15,52,1
5940,2,-248,-76,19,53,3
5945,3,-249,-79,25,50,2
5950,3,-248,-77,32,50,4
5955,3,-252,-79,38,49,3
5960,5,-248,-76,44,47,4
5965,4,-246,-76,46,47,2
5970,4,-247,-79,47,48,2
5975,3,-245,-80,46,48,4
5980,3,-244,-75,44,47,4
5985,2,-245,-77,41,47,4
5990,2,-246,-75,37,49,6
5995,4,-247,-77,36,50,6
6000,0,-247,-73,35,51,7
6005,2,-248,-79,35,55,7
6010,2,-251,-78,35,57,7
6015,3,-247,-74,37,58,5
6020,4,-248,-77,37,58,5
6025,6,-250,-77,37,59,6
6030,6,-249,-76,37,58,4
6035,3,-246,-79,39,57,5
6040,3,-248,-74,39,58,5
6045,7,-250,-74,41,57,4
6050,7,-248,-78,43,58,4
6055,3,-249,-75,48,57,5
6060,5,-248,-76,51,56,5
6065,4,-247,-75,53,55,6
6070,2,-248,-74,55,56,4
6075,3,-249,-78,54,54,6
6080,1,-246,-77,53,54,6
6085,2,-244,-73,49,55,6
6090,4,-247,-76,45,55,6
6095,-2,-247,-75,42,57,6
6100,-1,-247,-75,36,59,7
6105,1,-248,-74,31,60,8
6110,4,-250,-73,30,60,6
6115,0,-246,-75,30,62,6
6120,-1,-245,-80,30,60,6
6125,1,-245,-73,32,61,7
6130,3,-249,-75,37,62,7
6135,3,-248,-77,42,61,10
6140,1,-249,-76,47,59,10
6145,3,-248,-72,51,59,11
6150,4,-250,-73,52,58,10
6155,4,-250,-74,58,56,13
6160,3,-249,-78,61,53,11
6165,2,-249,-74,63,50,13
6170,3,-254,-78,66,47,11
6175,3,-255,-77,67,47,12
6180,3,-254,-74,72,43,10
6185,3,-256,-75,80,38,9
6190,2,-257,-78,92,36,5
6195,4,-257,-75,109,33,4
6200,4,-256,-78,129,32,-1
6205,2,-253,-81,149,31,-1
6210,2,-250,-79,168,31,-4
6215,3,-254,-76,182,32,-2
6220,4,-253,-82,193,34,-2
6225,2,-250,-78,197,36,1
6230,1,-252,-74,197,41,-2
6235,4,-250,-72,197,44,0
6240,1,-249,-69,196,49,-3
6245,1,-248,-63,197,55,1
6250,-1,-247,-71,197,58,-1
6255,-2,-247,-65,196,61,2
6260,2,-247,-66,196,63,0
6265,-1,-246,-64,199,62,1
6270,-1,-247,-64,199,63,-1
6275,0,-244,-72,194,64,0
6280,2,-245,-65,187,66,-2
6285,3,-244,-66,177,64,-1
6290,2,-246,-61,167,65,-4
6295,4,-242,-62,158,61,-1
6300,2,-243,-63,150,59,-3
6305,3,-244,-62,139,56,-3
6310,0,-247,-64,126,56,-4
6315,0,-246,-64,115,57,-2
6320,3,-248,-67,104,55,-5
6325,2,-246,-63,95,54,-2
6330,0,-247,-63,92,52,-4
6335,2,-249,-60,90,50,-3
6340,4,-251,-64,89,48,-5
6345,3,-250,-64,87,47,-2
6350,3,-249,-70,85,48,-5
6355,3,-249,-63,78,47,-1
6360,5,-249,-66,75,48,-2
6365,-1,-248,-64,75,48,2
6370,1,-249,-66,75,49,0
6375,1,-251,-63,75,51,4
6380,-1,-248,-65,76,50,1
6385,3,-250,-64,73,49,3
6390,1,-251,-61,70,48,0
6395,2,-249,-63,65,44,3
6400,4,-250,-66,62,41,0
6405,1,-250,-64,60,37,2
6410,2,-249,-65,61,36,-1
6415,1,-248,-61,62,37,1
6420,1,-249,-66,64,37,-1
6425,3,-250,-62,64,36,0
6430,-1,-251,-64,63,35,-1
6435,1,-249,-66,59,37,2
6440,3,-250,-65,55,37,-2
6445,1,-251,-65,48,40,0
6450,1,-252,-62,46,41,-1
6455,-1,-251,-66,47,44,1
6460,2,-249,-64,51,45,-1
6465,1,-249,-63,54,47,0
6470,-1,-251,-66,58,47,-2
6475,1,-252,-61,59,48,-1
6480,3,-251,-63,59,47,-5
6485,1,-253,-64,57,46,-5
6490,0,-250,-62,53,46,-7
6495,3,-250,-62,52,45,-4
6500,2,-247,-62,51,44,-5
6505,1,-250,-63,54,44,-4
6510,0,-250,-59,59,43,-5
6515,3,-253,-63,64,44,-4
6520,2,-251,-61,68,44,-6
6525,2,-251,-63,72,45,-7
6530,0,-251,-58,74,47,-9
6535,0,-249,-59,74,50,-7
6540,1,-249,-59,72,54,-11
6545,3,-248,-59,66,58,-8
6550,2,-250,-57,65,60,-10
6555,2,-250,-60,60,60,-8
6560,2,-253,-55,57,61,-11
6565,1,-251,-61,56,62,-10
6570,2,-249,-59,52,61,-11
6575,2,-252,-56,53,64,-8
6580,5,-250,-57,53,64,-9
6585,4,-252,-58,52,64,-6
6590,3,-250,-61,50,66,-8
6595,2,-251,-58,48,65,-4
6600,4,-250,-56,46,64,-5
6605,2,-252,-58,47,64,-3
6610,2,-253,-56,47,64,-4
6615,4,-252,-57,49,62,-3
6620,2,-251,-57,54,63,-5
6625,2,-255,-57,57,64,-4
6630,4,-251,-58,57,66,-7
6635,4,-248,-56,53,66,-5
6640,5,-250,-55,51,67,-7
6645,1,-250,-59,49,69,-7
6650,2,-249,-58,46,68,-8
6655,1,-251,-54,41,66,-6
6660,1,-248,-58,38,68,-7
6665,3,-246,-58,33,67,-5
6670,7,-250,-69,28,66,-6
6675,2,-251,-57,23,66,-4
6680,5,-251,-57,19,66,-5
6685,3,-247,-57,14,67,-4
6690,4,-250,-59,10,67,-4
6695,3,-251,-57,5,67,-4
6700,4,-252,-59,3,67,-3
6705,4,-250,-57,1,68,-3
6710,4,-250,-59,3,68,-4
6715,3,-250,-57,4,67,-4
6720,6,-251,-58,4,66,-6
6725,0,-249,-58,3,65,-6
6730,3,-250,-57,4,66,-7
6735,1,-251,-58,1,65,-6
6740,2,-250,-56,1,65,-6
6745,2,-253,-59,-1,65,-5
6750,-1,-248,-57,-3,67,-5
6755,3,-254,-60,-4,65,-3
6760,2,-250,-62,-6,63,-2
6765,4,-253,-58,-5,61,1
6770,4,-252,-59,-7,62,1
6775,3,-251,-58,-7,62,2
6780,3,-253,-60,-6,63,0
6785,6,-253,-58,-5,61,0
6790,0,-252,-58,-4,60,1
6795,2,-252,-56,-2,60,-1
6800,5,-251,-57,1,58,-2
6805,3,-251,-59,4,58,-1
6810,2,-250,-56,9,58,2
6815,2,-251,-60,11,58,2
6820,2,-251,-58,14,58,2
6825,1,-253,-55,15,60,2
6830,0,-250,-57,15,64,3
6835,3,-251,-59,12,65,3
6840,1,-253,-56,11,67,3
6845,0,-251,-57,8,69,3
6850,3,-249,-57,3,69,3
6855,3,-249,-57,-2,67,3
6860,1,-249,-59,-4,65,4
6865,4,-252,-57,-5,64,3
6870,2,-251,-58,-2,61,3
6875,3,-251,-56,1,62,0
6880,1,-251,-56,3,60,1
6885,2,-247,-57,4,58,-1
6890,-1,-252,-60,5,55,1
6895,1,-252,-56,5,54,0
6900,1,-251,-55,4,54,1
6905,1,-254,-55,3,53,0
6910,0,-251,-56,3,55,0
6915,2,-253,-56,-2,55,-1
6920,3,-250,-53,-6,55,1
6925,2,-252,-57,-12,55,-1
6930,1,-249,-58,-17,55,-2
6935,2,-249,-60,-20,54,-4
6940,-1,-251,-57,-24,54,-1
6945,1,-253,-58,-27,52,-2
6950,4,-250,-62,-28,51,-1
6955,1,-252,-60,-25,50,-3
6960,4,-253,-57,-22,50,-1
6965,5,-253,-56,-17,50,-2
6970,2,-255,-59,-10,51,0
6975,1,-251,-57,-6,50,-3
6980,1,-253,-56,-2,50,0
6985,0,-253,-61,1,51,-1
6990,2,-253,-60,0,51,0
6995,1,-250,-60,0,53,-1
7000,1,-249,-58,0,54,0
7005,3,-251,-57,-1,55,-1
7010,1,-250,-57,-3,54,2
7015,-1,-249,-59,-5,54,0
7020,3,-250,-56,-9,55,3
7025,0,-250,-60,-12,52,1
7030,2,-251,-52,-16,52,2
7035,2,-251,-58,-24,48,0
7040,4,-252,-57,-28,47,2
7045,8,-251,-57,-32,46,0
7050,5,-253,-57,-35,44,0
7055,2,-250,-58,-37,43,-1
7060,5,-252,-60,-36,41,2
7065,5,-255,-59,-38,42,0
7070,3,-250,-59,-37,43,3
7075,2,-251,-56,-37,45,2
7080,4,-254,-59,-37,48,3
7085,2,-255,-55,-36,49,1
7090,2,-256,-58,-35,50,3
7095,2,-255,-56,-34,51,2
7100,2,-256,-60,-30,51,3
7105,2,-256,-59,-26,54,1
7110,1,-253,-59,-22,56,4
7115,0,-252,-60,-16,57,0
7120,1,-254,-59,-13,58,2
7125,3,-252,-60,-10,58,1
7130,1,-252,-59,-11,59,3
7135,3,-252,-60,-11,58,0
7140,2,-249,-57,-11,57,1
7145,3,-248,-58,-13,55,-2
7150,2,-250,-57,-16,53,-1
7155,1,-250,-58,-20,54,-3
7160,2,-249,-56,-21,53,0
7165,4,-250,-55,-22,53,-1
7170,5,-253,-56,-25,54,1
7175,3,-252,-57,-28,56,0
7180,1,-251,-57,-31,56,2
7185,3,-255,-57,-34,56,-1
7190,4,-252,-57,-35,55,4
7195,0,-249,-58,-37,56,2
7200,1,-252,-61,-38,56,4
7205,5,-253,-59,-40,56,1
7210,1,-254,-56,-39,56,2
7215,2,-253,-58,-39,57,0
7220,2,-251,-60,-39,55,3
7225,2,-249,-57,-41,56,3
7230,1,-251,-60,-42,55,5
7235,2,-249,-56,-45,54,3
7240,1,-249,-58,-47,53,8
7245,1,-251,-58,-51,50,6
7250,1,-249,-57,-53,49,9
7255,3,-252,-57,-55,47,6
7260,1,-251,-59,-59,45,6
7265,1,-251,-55,-61,43,1
7270,1,-252,-57,-60,44,3
7275,1,-250,-57,-62,44,-1
7280,-1,-252,-58,-61,46,2
7285,3,-252,-57,-61,50,-1
7290,-1,-251,-61,-60,49,0
7295,3,-251,-56,-60,51,-4
7300,1,-252,-56,-58,54,-4
7305,2,-252,-57,-56,56,-8
7310,2,-252,-61,-54,57,-6
7315,0,-249,-60,-52,58,-8
7320,0,-250,-57,-52,60,-7
7325,2,-246,-56,-53,60,-8
7330,2,-248,-61,-54,60,-6
7335,1,-248,-59,-54,60,-7
7340,3,-253,-54,-57,59,-3
7345,2,-251,-57,-60,59,-4
7350,2,-251,-60,-63,56,-1
7355,1,-251,-60,-68,57,-3
7360,2,-251,-59,-71,57,0
7365,1,-249,-56,-75,56,-2
7370,2,-249,-59,-81,56,0
7375,0,-249,-59,-85,53,-4
7380,3,-249,-58,-90,50,-3
7385,1,-251,-59,-96,46,-5
7390,3,-248,-63,-98,43,-6
7395,1,-251,-58,-97,41,-8
7400,2,-250,-61,-92,43,-7
7405,2,-253,-64,-87,46,-9
7410,0,-251,-60,-83,48,-6
7415,-1,-251,-64,-79,52,-8
7420,0,-251,-62,-78,56,-6
7425,1,-251,-64,-78,59,-9
7430,2,-250,-61,-79,62,-7
7435,1,-251,-59,-79,64,-9
7440,1,-250,-60,-82,62,-6
7445,2,-248,-61,-84,60,-8
7450,0,-248,-62,-89,59,-5
7455,3,-250,-58,-94,57,-6
7460,2,-247,-61,-100,55,-4
7465,2,-251,-63,-107,52,-6
7470,2,-244,-59,-114,49,-6
7475,2,-250,-59,-123,46,-6
7480,2,-247,-61,-128,44,-4
7485,3,-249,-60,-137,43,-3
7490,1,-252,-60,-142,44,-1
7495,1,-251,-60,-145,46,-3
7500,1,-251,-62,-146,50,-1
7505,-1,-249,-63,-143,56,-1
7510,1,-250,-67,-138,60,-1
7515,-1,-249,-65,-133,64,-2
7520,3,-252,-63,-130,67,-2
7525,1,-252,-68,-129,68,-4
7530,2,-252,-69,-130,67,-5
7535,1,-250,-68,-134,67,-7
7540,1,-252,-66,-136,67,-7
7545,3,-252,-69,-137,64,-8
7550,1,-251,-63,-138,64,-7
7555,3,-252,-63,-135,63,-4
7560,-1,-250,-62,-132,63,-2
7565,2,-248,-66,-129,62,-1
7570,3,-249,-67,-127,58,-2
7575,2,-250,-69,-128,56,-1
7580,-1,-245,-68,-129,51,1
7585,2,-248,-68,-131,46,1
7590,2,-246,-67,-134,42,4
7595,1,-247,-65,-137,38,8
7600,1,-249,-64,-138,34,11
7605,4,-250,-68,-136,32,14
7610,3,-250,-67,-133,30,16
7615,2,-249,-68,-130,32,17
7620,0,-249,-69,-129,34,17
7625,-1,-250,-69,-128,37,19
7630,-2,-249,-69,-129,37,19
7635,0,-246,-71,-129,39,18
7640,-1,-250,-73,-134,40,16
7645,0,-249,-67,-140,41,15
7650,3,-251,-71,-142,43,14
7655,-1,-251,-71,-144,42,11
7660,-1,-250,-73,-145,40,8
7665,1,-249,-73,-146,38,8
7670,-1,-248,-71,-140,40,5
7675,0,-252,-74,-135,41,5
7680,1,-248,-69,-131,42,5
7685,1,-251,-71,-130,42,6
7690,3,-249,-76,-132,42,3
7695,-2,-247,-68,-134,41,2
7700,0,-251,-71,-136,42,1
7705,2,-248,-70,-140,42,3
7710,5,-250,-71,-143,42,-1
7715,1,-251,-74,-147,42,5
7720,2,-251,-77,-146,42,5
7725,1,-252,-77,-140,39,9
7730,2,-253,-76,-124,41,7
7735,4,-254,-81,-103,40,9
7740,2,-253,-79,-80,41,7
7745,1,-251,-85,-58,42,8
7750,1,-249,-85,-38,42,6
7755,1,-252,-79,-23,42,7
7760,1,-252,-80,-13,43,6
7765,3,-249,-75,-4,46,8
7770,2,-249,-78,-2,51,8
7775,1,-251,-80,-2,52,6
7780,1,-250,-73,-2,51,3
7785,2,-247,-75,-2,54,5
7790,2,-250,-77,3,54,3
7795,3,-249,-70,8,54,6
7800,-1,-249,-72,14,54,3
7805,1,-247,-74,20,53,4
7810,2,-248,-73,26,50,5
7815,5,-250,-73,26,51,8
7820,4,-251,-74,24,53,9
7825,3,-247,-71,22,54,12
7830,2,-248,-71,19,57,9
7835,4,-248,-74,15,58,10
7840,2,-249,-73,12,58,8
7845,2,-251,-76,9,61,7
7850,4,-249,-74,7,66,3
7855,3,-249,-72,6,70,4
7860,3,-246,-73,2,70,1
7865,1,-250,-74,2,70,3
7870,1,-248,-72,1,69,-2
7875,1,-247,-75,0,66,-2
7880,0,-248,-71,-3,60,-3
7885,0,-248,-72,-5,56,-1
7890,-3,-248,-72,-6,54,0
7895,-1,-250,-73,-4,50,6
7900,-3,-250,-75,2,50,7
7905,-2,-253,-74,7,49,11
7910,-3,-251,-78,16,52,9
7915,-2,-252,-77,26,53,12
7920,-1,-252,-72,40,54,8
7925,-1,-253,-72,57,59,9
7930,-2,-250,-74,70,62,5
7935,0,-249,-68,79,66,4
7940,0,-249,-72,85,71,-2
7945,2,-247,-71,87,75,-2
7950,1,-249,-69,85,77,-5
7955,1,-247,-66,82,82,-4
7960,-3,-244,-70,78,83,-9
7965,-1,-247,-66,72,82,-6
7970,-2,-246,-64,65,79,-7
7975,-2,-248,-64,61,78,-5
7980,2,-247,-67,58,75,-6
7985,1,-246,-63,53,70,0
7990,2,-246,-64,50,66,-2
7995,-2,-249,-60,47,60,2
8000,1,-243,-63,43,56,1
8005,0,-245,-67,36,51,4
8010,0,-246,-65,31,46,0
8015,1,-244,-69,22,42,2
8020,-1,-243,-67,17,41,0
8025,2,-247,-64,12,41,1
8030,-2,-247,-67,7,40,-1
8035,1,-248,-68,3,42,3
8040,1,-249,-66,1,44,0
8045,1,-247,-66,-1,45,1
8050,5,-251,-64,-1,47,-2
8055,3,-250,-70,0,49,1
8060,3,-251,-67,2,50,-1
8065,1,-248,-63,2,51,1
8070,3,-251,-65,3,54,-1
8075,4,-250,-64,2,55,0
8080,2,-247,-67,-1,56,-2
8085,1,-246,-66,-7,55,0
8090,0,-248,-63,-10,53,-3
8095,3,-246,-65,-18,51,0
8100,1,-246,-69,-24,51,-1
8105,0,-243,-67,-29,52,2
8110,-1,-246,-65,-37,52,0
8115,1,-245,-67,-43,53,1
8120,3,-248,-67,-51,53,0
8125,1,-247,-63,-61,53,0
8130,1,-242,-63,-72,51,-3
8135,-4,-248,-70,-83,52,2
8140,-3,-249,-66,-93,53,-2
8145,-4,-247,-69,-101,54,0
8150,1,-246,-66,-108,56,-1
8155,-2,-246,-67,-114,59,3
8160,1,-246,-66,-120,63,3
8165,-3,-245,-64,-132,68,9
8170,-1,-247,-69,-146,74,6
8175,0,-244,-67,-157,78,10
8180,-2,-243,-71,-169,80,8
8185,-1,-243,-71,-180,83,8
8190,0,-245,-65,-190,80,6
8195,0,-246,-67,-199,79,6
8200,-1,-246,-71,-207,77,5
8205,-4,-244,-70,-212,75,4
8210,-4,-243,-63,-216,69,1
8215,0,-245,-67,-223,63,4
8220,1,-246,-69,-230,62,2
8225,-2,-247,-66,-237,60,4
8230,-3,-244,-70,-244,62,5
8235,-1,-244,-68,-251,64,8
8240,0,-242,-65,-256,65,10
8245,2,-244,-69,-262,64,12
8250,1,-242,-65,-269,64,11
8255,1,-245,-63,-280,65,15
8260,1,-245,-64,-292,67,15
8265,1,-240,-63,-306,69,19
8270,2,-240,-67,-324,71,21
8275,3,-242,-71,-339,72,23
8280,3,-241,-68,-353,69,22
8285,2,-240,-73,-367,67,21
8290,0,-239,-76,-380,66,18
8295,-1,-237,-75,-389,66,15
8300,3,-237,-80,-398,65,12
8305,3,-241,-78,-404,68,11
8310,3,-238,-73,-408,69,7
8315,1,-239,-77,-410,72,9
8320,2,-240,-79,-409,73,8
8325,1,-239,-79,-412,73,6
8330,4,-239,-81,-413,70,5
8335,4,-240,-82,-415,70,4
8340,2,-238,-82,-417,71,4
8345,-1,-237,-81,-419,73,6
8350,1,-241,-79,-423,74,7
8355,2,-237,-81,-427,75,9
8360,0,-237,-85,-433,74,10
8365,-1,-237,-83,-446,74,9
8370,0,-237,-88,-457,74,7
8375,2,-233,-84,-470,74,5
8380,0,-233,-85,-483,75,3
8385,-4,-230,-84,-501,75,1
8390,1,-233,-79,-516,76,-1
8395,1,-233,-80,-538,76,-1
8400,1,-234,-83,-556,77,-2
8405,-2,-230,-82,-574,80,-3
8410,0,-234,-82,-591,85,-4
8415,0,-233,-80,-608,88,-5
8420,-2,-236,-79,-623,90,-6
8425,0,-235,-82,-636,90,-9
8430,-3,-233,-83,-650,90,-9
8435,2,-234,-82,-666,90,-12
8440,2,-238,-83,-684,89,-15
8445,0,-237,-85,-701,87,-17
8450,1,-234,-91,-713,82,-17
8455,2,-236,-96,-725,79,-18
8460,1,-235,-92,-735,78,-17
8465,4,-235,-97,-747,76,-20
8470,0,-236,-101,-761,78,-21
8475,2,-234,-97,-777,79,-22
8480,2,-235,-98,-793,80,-22
8485,4,-236,-103,-813,82,-24
8490,5,-236,-99,-830,87,-27
8495,5,-243,-96,-845,95,-32
8500,3,-237,-98,-852,103,-35
8505,3,-241,-96,-856,108,-39
8510,7,-239,-99,-857,108,-40
8515,2,-240,-99,-859,110,-43
8520,9,-239,-96,-861,108,-38
8525,4,-235,-101,-869,103,-34
8530,5,-232,-98,-892,92,-27
8535,5,-229,-112,-914,77,-24
8540,4,-229,-111,-945,72,-22
8545,4,-230,-114,-978,76,-20
8550,3,-233,-120,-1009,81,-14
8555,2,-229,-119,-1038,91,-15
8560,3,-231,-119,-1062,106,-13
8565,-1,-231,-117,-1076,117,-13
8570,0,-232,-118,-1087,130,-8
8575,0,-235,-116,-1094,139,-7
8580,-1,-235,-121,-1091,144,-5
8585,2,-235,-125,-1094,147,-5
8590,4,-233,-128,-1104,157,-5
8595,6,-228,-136,-1120,173,-10
8600,8,-224,-133,-1140,197,-15
8605,8,-218,-137,-1158,216,-21
8610,8,-221,-141,-1183,238,-39
8615,8,-219,-133,-1205,244,-49
8620,9,-224,-141,-1233,249,-57
8625,6,-220,-140,-1258,260,-84
8630,14,-216,-149,-1281,268,-100
8635,14,-215,-155,-1304,279,-116
8640,15,-211,-157,-1322,289,-123
8645,10,-208,-160,-1341,299,-133
8650,3,-212,-157,-1361,302,-133
8655,8,-211,-159,-1373,307,-134
8660,5,-210,-167,-1384,313,-132
8665,4,-209,-169,-1392,319,-130
8670,-1,-209,-166,-1403,330,-122
8675,-5,-210,-173,-1404,326,-121
8680,-7,-207,-177,-1409,314,-126
8685,-13,-205,-175,-1421,287,-136
8690,-15,-207,-170,-1434,255,-135
8695,-18,-207,-164,-1445,224,-135
8700,-18,-207,-165,-1446,196,-129
8705,-20,-207,-168,-1439,168,-120
8710,-18,-206,-167,-1431,151,-110
8715,-12,-198,-179,-1437,132,-115
8720,-13,-192,-186,-1441,120,-123
8725,-9,-185,-187,-1445,115,-141
8730,-4,-180,-205,-1450,119,-153
8735,0,-182,-211,-1462,132,-168
8740,1,-187,-206,-1471,140,-177
8745,6,-190,-204,-1444,149,-187
8750,5,-196,-197,-1394,164,-186
8755,1,-198,-203,-1319,168,-184
8760,2,-200,-204,-1256,165,-172
8765,10,-205,-202,-1204,155,-163
8770,14,-205,-197,-1156,151,-148
8775,14,-200,-207,-1106,157,-135
8780,19,-198,-209,-1071,167,-122
8785,21,-196,-210,-1046,175,-121
8790,23,-196,-211,-1010,188,-115
8795,27,-190,-211,-979,206,-113
8800,28,-186,-216,-943,216,-110
8805,27,-178,-218,-922,218,-113
8810,34,-178,-223,-909,208,-112
8815,27,-176,-223,-903,195,-118
8820,29,-181,-218,-903,178,-114
8825,25,-182,-216,-900,166,-111
8830,21,-181,-220,-887,156,-107
8835,19,-180,-216,-878,146,-105
8840,17,-180,-219,-870,133,-100
8845,15,-177,-229,-863,118,-101
8850,9,-170,-232,-865,107,-95
8855,10,-172,-236,-877,98,-94
8860,9,-171,-244,-887,88,-91
8865,12,-171,-244,-894,81,-98
8870,14,-173,-246,-908,82,-106
8875,16,-174,-252,-918,88,-118
8880,15,-177,-251,-920,95,-123
8885,18,-180,-254,-913,104,-131
8890,20,-180,-253,-888,110,-129
8895,22,-180,-253,-860,107,-128
8900,24,-180,-248,-830,97,-118
8905,22,-180,-242,-797,80,-112
8910,26,-182,-243,-764,57,-98
8915,26,-181,-237,-735,31,-86
8920,27,-179,-246,-710,12,-75
8925,26,-182,-243,-686,-1,-66
8930,26,-180,-248,-654,-6,-58
8935,25,-180,-247,-604,-6,-56
8940,23,-178,-249,-555,-1,-50
8945,24,-176,-252,-503,6,-47
8950,25,-171,-253,-449,10,-39
8955,25,-162,-257,-400,13,-36
8960,24,-155,-256,-353,15,-28
8965,21,-149,-259,-320,16,-24
8970,18,-149,-262,-295,18,-20
8975,16,-147,-256,-277,16,-17
8980,15,-146,-256,-260,7,-11
8985,15,-148,-253,-250,-5,-13
8990,15,-146,-253,-241,-17,-9
8995,13,-144,-256,-233,-27,-11
9000,17,-142,-255,-225,-31,-9
9005,15,-143,-256,-220,-33,-10
9010,16,-140,-257,-219,-34,-8
9015,19,-138,-259,-223,-38,-12
9020,17,-137,-262,-234,-42,-12
9025,18,-135,-264,-250,-45,-19
9030,19,-136,-264,-262,-48,-15
9035,18,-137,-267,-273,-49,-14
9040,19,-138,-262,-278,-52,-8
9045,18,-138,-261,-277,-52,-5
9050,18,-141,-260,-272,-54,1
9055,15,-141,-258,-259,-60,7
9060,16,-146,-256,-246,-71,6
9065,14,-144,-257,-237,-83,4
9070,12,-143,-257,-223,-96,2
9075,12,-144,-254,-209,-106,-4
9080,12,-141,-258,-190,-112,-8
9085,11,-139,-260,-166,-110,-14
9090,9,-137,-261,-141,-104,-14
9095,11,-136,-255,-114,-92,-15
9100,14,-134,-260,-85,-79,-13
9105,12,-134,-256,-58,-67,-17
9110,11,-132,-256,-37,-53,-21
9115,15,-132,-256,-21,-45,-21
9120,14,-130,-253,-13,-40,-21
9125,17,-129,-254,-8,-40,-26
9130,16,-130,-255,-9,-38,-27
9135,14,-130,-250,-13,-35,-29
9140,17,-129,-251,-14,-32,-28
9145,14,-130,-249,-6,-29,-29
9150,16,-135,-248,13,-27,-32
9155,12,-134,-243,40,-26,-33
9160,12,-132,-240,78,-32,-30
9165,8,-133,-239,108,-41,-32
9170,13,-136,-241,137,-58,-29
9175,4,-135,-238,163,-73,-32
9180,9,-139,-238,182,-81,-38
9185,4,-137,-232,200,-90,-36
9190,6,-143,-238,210,-96,-33
9195,6,-137,-234,216,-89,-31
9200,3,-137,-231,222,-82,-25
9205,4,-135,-233,227,-70,-24
9210,4,-136,-233,224,-59,-20
9215,6,-136,-225,216,-51,-16
9220,6,-137,-229,204,-48,-16
9225,5,-137,-228,190,-49,-15
9230,6,-137,-227,172,-55,-17
9235,3,-138,-231,159,-64,-18
9240,4,-139,-228,148,-71,-20
9245,1,-139,-226,142,-82,-23
9250,1,-143,-221,138,-86,-21
9255,1,-144,-225,139,-84,-21
9260,2,-146,-220,141,-76,-23
9265,2,-145,-224,146,-71,-26
9270,3,-148,-223,151,-68,-30
9275,5,-150,-223,152,-70,-32
9280,3,-152,-222,157,-75,-33
9285,7,-152,-223,160,-81,-33
9290,1,-151,-227,168,-86,-31
9295,3,-157,-227,184,-91,-29
9300,4,-158,-229,202,-91,-24
9305,-1,-160,-231,226,-91,-15
9310,1,-163,-232,253,-89,-8
9315,0,-162,-231,285,-83,-2
9320,1,-164,-231,321,-72,-4
9325,-2,-162,-232,356,-57,-2
9330,-3,-160,-226,389,-45,1
9335,0,-161,-227,420,-39,6
9340,0,-158,-225,451,-36,1
9345,0,-154,-228,473,-35,-4
9350,1,-150,-229,484,-36,-10
9355,0,-147,-226,486,-39,-15
9360,0,-144,-226,481,-40,-25
9365,-1,-139,-223,471,-40,-31
9370,-2,-141,-216,462,-34,-39
9375,-1,-139,-216,457,-33,-44
9380,-4,-138,-215,451,-30,-55
9385,0,-140,-211,444,-27,-60
9390,-3,-140,-216,437,-28,-64
9395,0,-142,-214,430,-25,-69
9400,-1,-141,-213,427,-22,-76
9405,1,-142,-217,428,-15,-78
9410,2,-144,-214,428,-6,-82
9415,2,-151,-216,432,5,-80
9420,1,-148,-213,436,8,-77
9425,0,-155,-212,447,7,-65
9430,0,-153,-213,461,1,-56
9435,2,-156,-214,481,-5,-50
9440,3,-156,-211,499,-15,-53
9445,2,-155,-213,520,-25,-49
9450,2,-153,-217,539,-36,-43
9455,2,-155,-208,558,-42,-38
9460,1,-153,-208,577,-44,-42
9465,4,-152,-209,597,-40,-46
9470,3,-155,-210,615,-30,-47
9475,4,-154,-204,625,-18,-45
9480,5,-155,-201,637,-8,-55
9485,8,-154,-199,650,3,-55
9490,7,-157,-195,664,15,-57
9495,9,-155,-189,691,26,-54
9500,7,-156,-186,724,31,-70
9505,3,-156,-187,761,29,-76
9510,5,-152,-188,794,21,-72
9515,7,-155,-185,829,11,-47
9520,5,-151,-180,851,2,-35
9525,3,-147,-187,873,-7,-29
9530,1,-149,-185,884,-16,-40
9535,4,-150,-187,880,-26,-40
9540,2,-150,-185,860,-34,-40
9545,0,-153,-186,847,-40,-37
9550,-1,-154,-186,830,-45,-46
9555,-2,-155,-183,815,-54,-53
9560,-1,-159,-178,803,-58,-59
9565,-3,-159,-180,804,-55,-57
9570,-5,-157,-181,808,-53,-59
9575,-4,-158,-185,806,-50,-54
9580,1,-157,-183,803,-46,-57
9585,-3,-158,-181,801,-43,-54
9590,2,-159,-180,818,-42,-55
9595,2,-158,-186,843,-45,-49
9600,4,-160,-179,858,-43,-40
9605,3,-160,-178,858,-45,-45
9610,5,-162,-171,865,-48,-47
9615,11,-157,-171,887,-44,-39
9620,11,-150,-178,937,-37,-38
9625,6,-139,-178,984,-25,-32
9630,9,-145,-158,1011,-24,-38
9635,5,-143,-151,1054,-35,-42
9640,3,-141,-165,1102,-55,-45
9645,7,-143,-173,1110,-71,-10
9650,9,-144,-172,1064,-80,-6
9655,6,-142,-172,988,-92,-23
9660,6,-142,-174,914,-100,-39
9665,9,-147,-173,856,-100,-41
9670,9,-151,-168,821,-94,-45
9675,13,-152,-168,810,-88,-38
9680,17,-160,-163,826,-73,-2
9685,20,-168,-163,849,-46,21
9690,16,-165,-157,860,-29,-6
9695,16,-166,-162,886,-24,-24
9700,17,-165,-166,914,-16,-32
9705,19,-165,-166,935,-7,-26
9710,20,-164,-165,942,4,-22
9715,17,-165,-161,943,11,-15
9720,19,-163,-162,941,11,-15
9725,16,-164,-165,938,6,-9
9730,18,-163,-163,936,1,-7
9735,19,-164,-167,927,-5,2
9740,18,-161,-167,915,-2,4
9745,15,-162,-166,902,2,13
9750,13,-163,-162,888,4,14
9755,9,-165,-163,876,4,19
9760,9,-163,-158,865,6,22
9765,5,-168,-161,859,9,28
9770,6,-168,-161,862,10,39
9775,2,-171,-164,861,19,53
9780,-2,-168,-164,840,19,39
9785,-3,-171,-166,816,16,40
9790,-7,-168,-164,794,15,44
9795,-5,-172,-163,766,14,50
9800,-5,-175,-167,735,10,52
9805,-4,-176,-166,706,9,58
9810,-2,-179,-164,684,6,60
9815,-1,-184,-161,665,10,64
9820,3,-189,-156,651,16,65
9825,1,-190,-152,642,23,69
9830,5,-193,-156,641,24,66
9835,6,-194,-156,642,24,68
9840,6,-196,-152,644,22,65
9845,9,-197,-153,645,19,69
9850,6,-198,-149,644,17,71
9855,5,-197,-143,638,10,75
9860,8,-201,-149,633,-1,76
9865,7,-202,-145,626,-10,79
9870,4,-201,-146,618,-20,79
9875,4,-202,-143,618,-24,79
9880,2,-201,-141,621,-21,75
9885,1,-204,-142,622,-15,73
9890,1,-202,-141,618,-3,66
9895,2,-204,-141,609,14,64
9900,1,-205,-144,593,31,60
9905,5,-209,-139,571,47,56
9910,5,-209,-136,542,59,49
9915,6,-213,-136,508,69,50
9920,3,-216,-131,484,73,46
9925,2,-219,-132,474,71,40
9930,0,-223,-128,476,64,38
9935,-2,-223,-128,488,57,40
9940,-3,-227,-124,503,50,39
9945,-5,-224,-124,523,42,36
9950,-7,-227,-120,544,40,34
9955,-7,-228,-120,564,38,30
9960,-7,-226,-122,582,41,28
9965,-5,-222,-117,589,44,29
9970,-9,-224,-119,584,44,25
9975,-9,-220,-119,571,42,26
9980,-6,-221,-115,551,37,29
9985,-7,-219,-120,526,31,34
9990,-1,-220,-120,499,27,42
9995,3,-224,-118,470,30,49
10000,1,-222,-115,445,36,56
10005,3,-222,-118,413,43,63
10010,3,-223,-117,388,51,66
10015,6,-225,-120,362,58,68
10020,4,-228,-117,339,64,73
10025,6,-230,-116,318,70,75
10030,6,-232,-118,305,76,80
10035,4,-236,-116,301,78,83
10040,7,-238,-114,307,83,86
10045,3,-239,-110,325,84,91
10050,2,-236,-111,356,86,94
10055,1,-236,-114,387,87,96
10060,2,-231,-111,419,90,96
10065,2,-226,-110,447,96,95
10070,4,-222,-106,467,106,93
10075,0,-223,-107,478,122,87
10080,2,-220,-107,475,137,83
10085,2,-223,-109,458,153,77
10090,1,-220,-105,431,169,74
10095,3,-223,-111,387,179,73
10100,0,-226,-109,342,183,70
10105,-3,-226,-111,299,183,69
10110,-4,-225,-110,263,182,71
10115,-3,-224,-113,237,175,70
10120,-4,-228,-113,219,169,71
10125,-3,-227,-111,207,165,71
10130,-2,-228,-106,199,163,72
10135,-2,-229,-108,193,162,71
10140,-3,-226,-107,189,163,69
10145,-4,-225,-112,180,165,65
10150,-5,-223,-105,168,170,62
10155,-6,-228,-104,155,177,55
10160,-7,-228,-105,140,184,52
10165,-9,-232,-102,125,193,45
10170,-10,-230,-104,105,202,41
10175,-11,-231,-99,85,203,33
10180,-15,-233,-97,66,196,28
10185,-12,-232,-98,52,184,22
10190,-14,-234,-97,48,170,22
10195,-12,-234,-101,49,159,20
10200,-11,-236,-103,48,152,23
10205,-9,-238,-103,49,149,20
10210,-9,-238,-98,46,148,22
10215,-7,-239,-102,45,147,19
10220,-5,-241,-101,43,146,21
10225,-4,-241,-102,41,147,16
10230,-3,-245,-101,38,149,19
10235,-6,-244,-106,36,153,18
10240,-3,-244,-103,37,157,22
10245,-1,-246,-105,37,158,23
10250,-2,-245,-105,41,158,31
10255,1,-247,-102,50,153,32
10260,-1,-244,-107,63,148,39
10265,0,-244,-104,82,141,40
10270,-3,-244,-99,104,132,45
10275,-5,-243,-99,123,129,44
10280,-4,-240,-104,134,129,46
10285,-4,-242,-102,139,135,40
10290,-5,-241,-108,135,142,40
10295,-8,-236,-100,129,152,36
10300,-9,-236,-99,117,161,36
10305,-7,-238,-100,101,169,34
10310,-8,-239,-96,83,174,35
10315,-7,-238,-98,68,182,34
10320,-4,-241,-96,64,186,38
10325,-3,-242,-97,67,192,36
10330,-5,-238,-100,76,195,39
10335,-3,-237,-97,87,199,35
10340,-1,-243,-95,96,205,35
10345,2,-242,-95,102,211,30
10350,-5,-245,-96,102,216,29
10355,-6,-243,-101,97,218,18
10360,-7,-243,-97,84,218,14
10365,-3,-244,-98,71,217,7
10370,-6,-245,-95,58,217,4
10375,-5,-244,-97,50,214,-2
10380,-8,-246,-96,49,208,0
10385,-9,-246,-92,54,199,-4
10390,-9,-248,-96,64,189,0
10395,-12,-247,-96,80,177,-1
10400,-12,-245,-97,98,165,4
10405,-10,-247,-94,123,152,2
10410,-12,-247,-93,145,145,6
10415,-12,-243,-92,170,140,4
10420,-12,-243,-90,193,137,7
10425,-12,-240,-94,210,132,5
10430,-14,-237,-90,219,129,7
10435,-12,-236,-88,220,130,4
10440,-11,-236,-88,212,132,6
10445,-9,-235,-88,198,133,1
10450,-10,-233,-86,172,133,4
10455,-11,-235,-85,149,132,-1
10460,-10,-235,-82,125,128,-1
10465,-9,-238,-81,103,123,-4
10470,-8,-238,-80,83,117,-5
10475,-10,-237,-86,68,113,-9
10480,-5,-240,-87,56,112,-10
10485,-7,-242,-90,46,111,-15
10490,-6,-243,-92,37,110,-20
10495,-5,-244,-91,26,112,-27
10500,-6,-243,-87,15,114,-30
10505,-6,-245,-91,6,117,-36
10510,-4,-247,-93,2,124,-34
10515,-5,-243,-92,4,128,-35
10520,-4,-248,-95,8,133,-31
10525,-4,-248,-91,11,134,-30
10530,-6,-247,-91,14,133,-24
10535,-8,-249,-90,20,127,-21
10540,-5,-246,-86,30,121,-12
10545,-6,-247,-91,40,115,-9
10550,-4,-251,-95,50,112,-7
10555,-4,-248,-93,58,109,-7
10560,-5,-245,-93,60,104,-5
10565,-6,-244,-95,63,100,-6
10570,-7,-241,-94,66,95,-6
10575,-6,-245,-93,70,90,-7
10580,-9,-243,-97,80,80,-5
10585,-11,-244,-93,89,73,-6
10590,-7,-245,-93,99,67,-4
10595,-8,-243,-87,106,60,-1
10600,-11,-240,-88,110,54,2
10605,-12,-238,-86,109,49,4
10610,-10,-240,-86,105,43,8
10615,-9,-239,-85,96,38,9
10620,-9,-239,-85,90,35,8
10625,-8,-242,-85,83,31,5
10630,-4,-242,-91,76,32,4
10635,-7,-243,-89,70,35,1
10640,-2,-241,-92,62,41,-3
10645,-2,-238,-95,55,44,-8
10650,-3,-237,-91,50,45,-10
10655,0,-239,-92,47,43,-12
10660,1,-238,-91,47,40,-13
10665,-1,-237,-95,46,35,-12
10670,0,-237,-89,43,27,-8
10675,0,-236,-95,39,21,-5
10680,1,-236,-91,34,17,0
10685,5,-236,-89,30,15,1
10690,4,-239,-88,24,13,2
10695,4,-239,-85,19,12,2
10700,3,-239,-90,11,15,0
10705,3,-238,-89,0,20,-2
10710,3,-241,-90,-14,28,-6
10715,4,-238,-92,-32,34,-11
10720,3,-242,-95,-39,38,-11
10725,1,-242,-91,-39,40,-14
10730,4,-244,-89,-36,41,-13
10735,2,-243,-92,-30,42,-12
10740,-2,-244,-93,-25,44,-11
10745,-2,-242,-89,-19,40,-9
10750,-3,-246,-91,-15,37,-8
10755,-3,-245,-94,-15,35,-8
10760,-4,-246,-94,-35,34,-9
10765,-4,-246,-89,-48,35,-13
10770,-3,-247,-85,-52,36,-15
10775,-2,-244,-88,-40,37,-19
10780,-2,-245,-88,-21,40,-24
10785,-1,-248,-86,-4,44,-28
10790,-1,-246,-86,10,48,-31
10795,-2,-244,-89,17,51,-30
10800,-3,-241,-90,16,56,-30
10805,-1,-246,-93,5,61,-28
10810,0,-243,-91,-3,63,-27
10815,0,-241,-90,-14,64,-26
10820,-1,-244,-88,-22,64,-27
10825,0,-245,-87,-25,64,-26
10830,-1,-242,-89,-25,63,-27
10835,-1,-242,-86,-24,62,-26
10840,-4,-242,-89,-20,64,-29
10845,-1,-246,-87,-13,66,-30
10850,2,-247,-85,-12,73,-30
10855,-2,-245,-90,-10,78,-30
10860,4,-250,-73,-11,84,-30
10865,1,-244,-83,-14,87,-28
10870,-2,-247,-89,-16,90,-29
10875,0,-246,-87,-18,92,-26
10880,2,-247,-89,-16,91,-27
10885,1,-249,-89,-11,89,-23
10890,1,-247,-85,-1,86,-22
10895,0,-247,-87,12,87,-20
10900,-1,-249,-90,28,90,-21
10905,-1,-243,-87,41,91,-20
10910,0,-243,-85,55,93,-21
10915,-1,-246,-87,64,96,-20
10920,-3,-242,-86,68,101,-22
10925,-2,-245,-88,68,103,-19
10930,-3,-245,-84,60,108,-21
10935,-3,-243,-85,50,114,-19
10940,-3,-243,-90,42,118,-19
10945,-1,-246,-87,36,117,-16
10950,-3,-243,-88,32,117,-15
10955,-3,-242,-86,31,114,-9
10960,-3,-241,-88,31,111,-10
10965,-5,-242,-92,35,106,-4
10970,-9,-238,-89,37,101,-3
10975,-8,-240,-89,40,96,0
10980,-3,-239,-89,45,92,0
10985,-5,-241,-83,47,90,2
10990,-5,-240,-90,46,85,0
10995,-5,-238,-86,39,82,1
11000,-3,-239,-88,29,79,-2
11005,-6,-239,-87,14,78,-1
11010,-5,-241,-87,-3,75,-5
11015,-4,-240,-86,-23,74,-2
11020,-7,-242,-89,-38,68,-2
11025,-5,-244,-86,-51,64,0
11030,-4,-243,-92,-58,61,-1
11035,-2,-243,-90,-57,57,1
11040,-6,-243,-89,-53,54,0
11045,-6,-242,-91,-44,53,1
11050,-5,-241,-90,-39,49,-2
11055,-4,-240,-87,-32,48,2
11060,-6,-242,-84,-25,49,-2
11065,-6,-239,-88,-22,48,-1
11070,-3,-243,-87,-21,46,-4
11075,-2,-240,-87,-26,45,-3
11080,-3,-243,-86,-35,44,-8
11085,-2,-239,-86,-44,42,-7
11090,-2,-240,-87,-53,43,-10
11095,-1,-239,-83,-61,40,-6
11100,0,-237,-87,-67,36,-7
11105,-2,-240,-85,-72,32,-4
11110,-1,-240,-87,-79,27,-4
11115,0,-240,-88,-82,19,0
11120,-3,-241,-88,-87,16,-4
11125,-5,-240,-85,-93,14,0
11130,-3,-243,-84,-104,13,-5
11135,-2,-241,-84,-112,14,-5
11140,-2,-246,-87,-121,18,-8
11145,0,-247,-87,-127,21,-9
11150,0,-243,-87,-128,23,-12
11155,-3,-245,-81,-123,24,-11
11160,-1,-246,-85,-117,24,-13
11165,0,-249,-89,-109,25,-11
11170,2,-247,-90,-100,27,-15
11175,1,-247,-86,-95,30,-12
11180,1,-248,-91,-91,32,-12
11185,3,-250,-87,-90,37,-8
11190,4,-248,-89,-91,41,-8
11195,4,-248,-91,-93,43,-4
11200,5,-249,-92,-93,45,-5
11205,4,-248,-91,-92,44,0
11210,4,-248,-89,-85,43,-1
11215,3,-247,-89,-76,40,1
11220,2,-247,-86,-63,41,0
11225,2,-248,-84,-50,41,1
11230,2,-247,-85,-40,41,-1
11235,1,-245,-86,-31,43,1
11240,4,-251,-87,-30,45,-2
11245,3,-246,-83,-34,48,2
11250,0,-245,-84,-40,52,-1
11255,1,-244,-85,-48,57,2
11260,-3,-247,-88,-56,60,-2
11265,0,-244,-84,-58,61,-1
11270,0,-248,-89,-58,59,-3
11275,2,-247,-87,-54,59,-3
11280,-3,-243,-87,-46,59,-6
11285,-2,-241,-88,-40,58,-4
11290,-3,-243,-84,-36,60,-7
11295,-2,-246,-87,-33,61,-6
11300,0,-245,-88,-33,62,-9
11305,-1,-244,-83,-34,63,-10
11310,0,-246,-85,-37,61,-15
11315,-1,-247,-82,-39,63,-16
11320,-1,-245,-84,-40,65,-19
11325,0,-243,-85,-42,66,-20
11330,0,-246,-84,-43,66,-24
11335,2,-249,-83,-43,62,-22
11340,1,-249,-81,-42,59,-23
11345,-2,-244,-86,-36,55,-19
11350,-4,-246,-85,-29,53,-18
11355,-5,-244,-84,-22,51,-16
11360,-3,-245,-85,-13,49,-18
11365,-2,-247,-86,-7,48,-16
11370,-1,-247,-84,-4,47,-16
11375,0,-246,-86,-3,50,-15
11380,1,-244,-86,-3,54,-18
11385,-1,-244,-85,-4,55,-17
11390,1,-247,-82,-7,56,-22
11395,1,-245,-82,-10,56,-22
11400,0,-245,-87,-15,55,-26
11405,-2,-243,-85,-22,54,-26
11410,-3,-246,-86,-28,51,-28
11415,-2,-245,-90,-34,48,-25
11420,-3,-245,-91,-37,47,-26
11425,-2,-249,-87,-36,44,-23
11430,-2,-246,-87,-32,43,-22
11435,-3,-246,-86,-24,41,-19
11440,-2,-246,-88,-12,38,-17
11445,-4,-247,-91,-1,37,-16
11450,-2,-245,-87,9,37,-16
11455,-2,-243,-88,16,35,-15
11460,-4,-244,-86,19,34,-13
11465,1,-242,-88,18,31,-10
11470,-2,-245,-89,14,29,-11
11475,-2,-242,-85,7,30,-10
11480,2,-243,-82,1,34,-12
11485,3,-248,-82,-4,38,-11
11490,2,-244,-86,-4,44,-14
11495,2,-247,-88,-3,53,-14
11500,2,-244,-86,2,56,-14
11505,-2,-241,-89,6,59,-15
11510,0,-241,-87,10,61,-15
11515,0,-241,-89,10,61,-13
11520,1,-240,-86,5,60,-14
11525,-1,-241,-88,0,59,-13
11530,-1,-243,-87,-9,58,-15
11535,-3,-243,-88,-17,60,-16
11540,1,-246,-86,-26,60,-15
11545,0,-248,-83,-31,61,-16
11550,0,-249,-87,-33,60,-15
11555,-1,-249,-88,-33,58,-13
11560,-4,-245,-89,-29,56,-13
11565,-1,-246,-95,-23,52,-10
11570,-4,-245,-86,-15,48,-9
11575,-5,-245,-89,-10,48,-6
11580,-1,-246,-90,-5,46,-2
11585,-2,-244,-81,-3,44,-1
11590,-3,-242,-86,-3,44,2
11595,0,-244,-85,-2,43,6
11600,-5,-244,-90,-1,46,6
11605,-2,-242,-84,4,52,6
11610,-2,-241,-85,6,56,6
11615,-2,-241,-89,4,60,5
11620,-2,-239,-89,-1,61,3
11625,-2,-236,-90,-11,62,-1
11630,0,-238,-91,-22,61,-2
11635,-2,-234,-90,-33,57,-6
11640,1,-238,-91,-43,56,-8
11645,0,-239,-88,-57,51,-10
11650,-1,-241,-88,-60,47,-10
11655,-3,-240,-88,-64,45,-11
11660,-1,-242,-89,-67,41,-11
11665,-2,-240,-87,-71,39,-12
11670,-3,-243,-88,-74,39,-11
11675,-4,-242,-87,-81,39,-12
11680,-3,-242,-87,-86,40,-11
11685,-1,-241,-93,-92,42,-11
11690,0,-246,-91,-94,45,-10
11695,0,-243,-88,-94,49,-10
11700,2,-245,-89,-90,56,-9
11705,2,-245,-88,-87,57,-10
11710,1,-245,-90,-84,58,-8
11715,-1,-246,-88,-80,58,-11
11720,0,-243,-88,-76,57,-7
11725,-2,-246,-85,-71,52,-5
11730,-1,-244,-90,-64,49,-1
11735,-1,-245,-88,-58,47,-1
11740,0,-246,-92,-56,45,0
11745,-3,-242,-94,-55,43,-1
11750,-3,-242,-92,-57,42,-1
11755,-2,-244,-93,-60,42,-2
11760,-1,-245,-91,-62,40,1
11765,-3,-244,-91,-64,38,0
11770,-1,-245,-97,-66,37,4
11775,-2,-239,-95,-63,37,5
11780,1,-245,-94,-59,41,9
11785,-1,-243,-93,-53,45,8
11790,-2,-239,-96,-48,48,10
11795,3,-243,-89,-42,50,8
11800,-1,-240,-92,-36,53,8
11805,-1,-242,-90,-32,54,4
11810,2,-240,-91,-32,55,3
11815,0,-241,-91,-36,56,0
11820,-2,-240,-93,-44,57,0
11825,0,-240,-92,-53,56,-1
11830,0,-238,-90,-63,56,3
11835,-1,-240,-92,-71,55,2
11840,1,-245,-91,-76,54,5
11845,-1,-243,-93,-75,52,5
11850,-2,-241,-94,-72,49,9
11855,0,-242,-90,-65,44,8
11860,-2,-244,-93,-56,42,11
11865,-1,-242,-91,-48,38,9
11870,-1,-240,-95,-42,38,9
11875,-2,-240,-92,-39,35,5
11880,-1,-243,-92,-39,36,4
11885,1,-243,-91,-41,39,0
11890,0,-244,-89,-43,40,2
11895,0,-243,-94,-43,42,-2
11900,-2,-243,-92,-45,42,0
11905,-1,-241,-92,-49,42,-3
11910,-3,-240,-89,-52,38,-1
11915,0,-242,-94,-55,36,-3
11920,-1,-241,-92,-59,35,-1
11925,-1,-239,-93,-60,37,-3
11930,-3,-241,-95,-63,38,-1
11935,1,-244,-95,-64,38,-3
11940,0,-239,-95,-64,39,0
11945,0,-242,-95,-64,39,-2
11950,-2,-241,-94,-66,37,2
11955,1,-242,-96,-67,36,1
11960,-1,-240,-94,-66,36,4
11965,-1,-242,-95,-67,36,2
11970,0,-246,-92,-67,33,7
11975,1,-243,-98,-64,31,5
11980,1,-245,-99,-61,28,8
11985,2,-243,-97,-57,28,6
11990,1,-242,-95,-50,29,9
11995,-3,-242,-92,-45,26,7
