timestamp,acc_x,acc_y,acc_z,gyro_x,gyro_y,gyro_z
0,4,-254,-55,-9,54,-5
5,9,-254,-58,-12,54,-6
10,5,-257,-57,-14,54,-8
15,4,-255,-61,-17,54,-7
20,5,-255,-55,-21,54,-8
25,5,-254,-52,-23,54,-7
30,6,-256,-57,-27,55,-7
35,4,-253,-59,-29,58,-8
40,5,-255,-60,-30,59,-6
45,6,-253,-57,-32,60,-7
50,3,-254,-60,-36,60,-7
55,6,-253,-61,-39,62,-7
60,6,-255,-64,-46,64,-6
65,4,-252,-63,-53,65,-6
70,8,-255,-61,-59,66,-8
75,6,-253,-61,-69,67,-7
80,8,-255,-64,-79,69,-6
85,6,-251,-62,-89,71,-8
90,5,-253,-58,-101,72,-8
95,5,-252,-59,-109,73,-8
100,4,-251,-59,-115,70,-9
105,6,-252,-55,-114,65,-11
110,5,-254,-54,-109,62,-12
115,5,-254,-60,-104,56,-13
120,5,-255,-58,-102,53,-13
125,4,-249,-64,-102,51,-14
130,4,-250,-66,-103,49,-14
135,4,-255,-67,-106,45,-14
140,5,-250,-70,-110,40,-14
145,6,-250,-70,-116,35,-14
150,3,-246,-69,-120,31,-13
155,4,-248,-66,-125,29,-14
160,5,-250,-66,-130,26,-15
165,3,-247,-66,-134,26,-16
170,4,-249,-64,-137,29,-16
175,7,-249,-65,-138,33,-16
180,4,-244,-64,-138,39,-16
185,8,-249,-64,-138,44,-18
190,6,-249,-65,-138,48,-18
195,5,-246,-69,-139,49,-23
200,6,-246,-67,-141,48,-25
205,6,-247,-64,-143,46,-26
210,4,-247,-64,-145,43,-30
215,5,-247,-64,-146,40,-33
220,6,-247,-62,-144,36,-35
225,8,-251,-61,-143,35,-38
230,7,-249,-60,-141,34,-41
235,9,-252,-57,-140,36,-44
240,8,-254,-61,-139,37,-46
245,6,-253,-60,-138,38,-48
250,9,-256,-56,-137,37,-51
255,7,-256,-62,-135,33,-52
260,8,-256,-57,-133,30,-53
265,10,-259,-58,-131,28,-52
270,9,-259,-59,-129,27,-52
275,5,-259,-59,-127,26,-49
280,10,-258,-64,-127,25,-48
285,8,-261,-63,-129,28,-46
290,7,-262,-63,-131,28,-42
295,5,-263,-63,-134,29,-40
300,9,-264,-65,-137,30,-37
305,9,-265,-64,-138,30,-35
310,7,-266,-65,-136,30,-31
315,5,-263,-64,-132,29,-28
320,4,-261,-63,-126,30,-26
325,6,-264,-66,-119,32,-22
330,8,-261,-60,-112,34,-19
335,6,-263,-67,-103,34,-18
340,9,-262,-62,-98,37,-16
345,5,-258,-60,-90,40,-15
350,8,-262,-60,-84,43,-12
355,4,-257,-64,-76,47,-11
360,6,-255,-64,-71,51,-10
365,8,-254,-63,-67,55,-10
370,10,-256,-63,-64,60,-8
375,10,-255,-65,-63,65,-9
380,12,-253,-65,-64,67,-9
385,10,-254,-62,-65,70,-8
390,6,-252,-64,-67,69,-6
395,8,-252,-62,-68,66,-6
400,8,-250,-63,-69,64,-5
405,6,-253,-62,-70,60,-5
410,8,-251,-64,-70,59,-4
415,5,-252,-62,-70,54,-4
420,6,-250,-63,-69,52,-5
425,6,-248,-61,-67,52,-4
430,7,-252,-61,-65,54,-6
435,6,-254,-61,-64,56,-7
440,4,-253,-62,-67,57,-6
445,4,-252,-60,-72,60,-6
450,7,-255,-63,-77,63,-8
455,4,-256,-62,-82,65,-7
460,4,-255,-64,-87,65,-7
465,4,-256,-66,-91,65,-6
470,4,-255,-62,-92,65,-7
475,6,-256,-66,-95,65,-7
480,4,-256,-67,-95,66,-5
485,5,-255,-65,-94,68,-5
490,6,-256,-66,-89,70,-4
495,5,-257,-65,-85,73,-1
500,4,-253,-66,-80,73,1
505,7,-256,-66,-78,75,1
510,7,-253,-67,-74,75,1
515,6,-252,-65,-74,76,2
520,6,-253,-64,-75,78,4
525,5,-251,-64,-75,79,4
530,6,-253,-65,-75,81,3
535,6,-252,-65,-76,80,4
540,5,-250,-64,-77,82,4
545,6,-253,-65,-76,84,5
550,7,-252,-66,-74,84,4
555,4,-252,-68,-69,83,3
560,4,-253,-64,-64,83,2
565,4,-254,-69,-63,86,2
570,8,-252,-69,-62,83,3
575,5,-253,-70,-61,83,2
580,6,-253,-71,-61,82,3
585,8,-252,-67,-59,85,4
590,4,-252,-69,-55,85,3
595,5,-252,-69,-52,84,3
600,5,-253,-69,-46,85,1
605,5,-252,-70,-41,86,1
610,5,-251,-68,-36,83,3
615,4,-251,-68,-32,81,3
620,4,-251,-67,-29,79,3
625,7,-253,-67,-28,77,2
630,5,-254,-71,-28,74,1
635,4,-251,-65,-27,72,1
640,5,-254,-67,-27,68,3
645,5,-252,-67,-28,66,1
650,4,-252,-67,-29,64,0
655,5,-254,-68,-29,63,-1
660,5,-253,-64,-29,61,0
665,4,-251,-66,-28,61,-1
670,5,-255,-67,-26,60,-2
675,4,-256,-70,-22,62,-3
680,4,-254,-67,-20,63,-2
685,8,-253,-67,-19,65,-1
690,4,-254,-69,-17,65,-3
695,5,-256,-67,-16,66,-2
700,4,-251,-66,-15,66,-2
705,4,-252,-67,-14,68,-2
710,5,-252,-64,-15,68,-1
715,4,-252,-66,-17,67,-1
720,4,-250,-69,-21,69,-1
725,5,-248,-68,-24,68,-1
730,4,-248,-69,-29,66,-1
735,6,-249,-68,-36,65,-1
740,5,-254,-65,-41,61,-2
745,6,-251,-67,-47,59,-1
750,4,-252,-68,-51,57,-1
755,4,-255,-68,-51,56,-2
760,4,-253,-67,-52,56,-3
765,4,-250,-69,-50,57,-5
770,5,-255,-69,-49,58,-5
775,5,-252,-69,-46,60,-5
780,5,-252,-70,-43,61,-7
785,1,-252,-71,-40,62,-6
790,4,-251,-67,-36,64,-7
795,5,-249,-67,-34,64,-6
800,5,-248,-68,-32,63,-5
805,4,-250,-69,-29,62,-6
810,4,-253,-65,-28,60,-6
815,4,-250,-69,-29,56,-6
820,5,-248,-67,-29,54,-6
825,4,-254,-68,-31,50,-7
830,4,-251,-69,-32,50,-4
835,5,-255,-71,-33,49,-5
840,4,-251,-71,-35,48,-3
845,5,-254,-72,-36,51,-3
850,5,-251,-71,-37,54,-3
855,6,-252,-70,-38,56,-3
860,5,-250,-68,-40,60,-3
865,6,-251,-71,-40,63,-2
870,5,-250,-64,-40,66,-2
875,8,-255,-66,-37,67,-2
880,5,-254,-66,-34,68,-4
885,5,-250,-67,-29,69,-3
890,7,-248,-68,-26,68,-4
895,5,-253,-66,-21,67,-5
900,6,-250,-69,-17,67,-4
905,5,-252,-67,-15,67,-2
910,5,-250,-71,-16,68,-2
915,5,-253,-70,-15,70,-1
920,5,-251,-71,-14,69,0
925,4,-252,-71,-16,69,2
930,4,-251,-74,-17,68,0
935,5,-251,-70,-18,70,1
940,7,-253,-67,-22,69,2
945,4,-252,-71,-23,70,0
950,4,-247,-65,-25,71,1
955,5,-255,-70,-25,70,2
960,5,-252,-70,-26,71,1
965,5,-253,-69,-24,71,0
970,5,-255,-70,-23,72,0
975,6,-252,-68,-23,74,0
980,5,-252,-70,-22,75,-1
985,4,-250,-65,-22,77,0
990,5,-250,-67,-21,76,-1
995,6,-255,-66,-22,75,-1
1000,6,-250,-69,-22,72,-1
1005,4,-251,-67,-22,71,1
1010,5,-253,-67,-22,68,0
1015,4,-251,-70,-21,67,-1
1020,6,-252,-67,-22,67,0
1025,6,-255,-66,-20,68,1
1030,7,-254,-67,-19,70,1
1035,5,-250,-68,-18,72,1
1040,6,-253,-69,-18,72,1
1045,5,-251,-72,-17,71,2
1050,5,-254,-67,-16,72,2
1055,8,-250,-68,-14,74,2
1060,5,-252,-73,-10,77,1
1065,5,-251,-70,-8,80,1
1070,6,-251,-70,-5,80,2
1075,4,-250,-69,-2,81,3
1080,5,-253,-68,1,81,1
1085,5,-249,-71,2,80,3
1090,4,-249,-73,2,80,2
1095,5,-251,-74,-2,80,4
1100,5,-249,-69,-5,78,3
1105,4,-250,-70,-10,77,4
1110,11,-249,-67,-13,76,4
1115,4,-250,-70,-17,74,4
1120,4,-252,-70,-19,73,3
1125,5,-250,-69,-18,72,3
1130,5,-251,-69,-19,72,3
1135,5,-251,-71,-19,73,2
1140,6,-252,-68,-18,74,1
1145,5,-254,-69,-17,74,0
1150,4,-257,-72,-16,75,-1
1155,4,-253,-72,-16,76,-2
1160,6,-248,-73,-13,77,0
1165,4,-252,-71,-14,76,-2
1170,6,-254,-70,-13,76,-2
1175,4,-251,-72,-12,75,-2
1180,4,-250,-70,-12,75,-4
1185,4,-253,-69,-11,73,-2
1190,6,-255,-66,-9,74,-3
1195,6,-253,-72,-7,74,-2
1200,6,-253,-75,-7,74,-2
1205,7,-252,-69,-6,74,0
1210,6,-248,-69,-7,75,-2
1215,5,-249,-72,-7,74,0
1220,6,-250,-75,-8,76,0
1225,6,-253,-68,-8,76,0
1230,5,-251,-67,-6,76,-2
1235,4,-251,-71,-4,76,0
1240,4,-252,-70,-4,76,1
1245,5,-250,-75,-3,77,1
1250,5,-252,-72,-5,76,-1
1255,5,-252,-71,-5,74,0
1260,6,-250,-71,-7,74,1
1265,5,-248,-67,-8,72,0
1270,6,-253,-68,-9,72,1
1275,5,-252,-75,-10,71,-1
1280,6,-250,-68,-10,71,0
1285,6,-253,-71,-10,71,1
1290,5,-249,-74,-9,70,0
1295,7,-254,-70,-11,70,-1
1300,5,-251,-65,-12,68,-1
1305,8,-254,-68,-14,69,0
1310,5,-252,-68,-14,70,-1
1315,4,-251,-67,-15,70,-2
1320,5,-253,-72,-12,72,-2
1325,7,-251,-72,-11,73,-2
1330,8,-256,-67,-11,74,-3
1335,7,-248,-68,-11,75,-3
1340,6,-249,-69,-11,73,-2
1345,6,-252,-71,-11,72,-2
1350,5,-250,-72,-10,71,-3
1355,5,-252,-69,-8,70,-2
1360,4,-250,-69,-6,70,-2
1365,6,-249,-69,-4,70,0
1370,5,-249,-70,-4,71,-1
1375,6,-251,-71,-3,72,0
1380,3,-247,-72,-4,72,0
1385,7,-245,-70,-5,71,1
1390,4,-250,-72,-7,73,1
1395,4,-249,-69,-8,73,0
1400,7,-251,-67,-11,74,0
1405,6,-253,-70,-13,75,0
1410,4,-250,-71,-15,75,-1
1415,3,-250,-69,-16,77,-1
1420,5,-253,-68,-16,79,-1
1425,6,-255,-70,-15,80,-2
1430,4,-251,-69,-13,81,-1
1435,3,-253,-75,-12,81,-1
1440,4,-253,-67,-9,81,-2
1445,5,-250,-70,-7,79,-2
1450,5,-253,-73,-6,75,-3
1455,4,-251,-68,-4,73,-1
1460,5,-254,-68,-2,71,-1
1465,5,-252,-70,-2,70,-1
1470,4,-249,-69,-2,68,-2
1475,4,-254,-71,-1,67,-2
1480,5,-253,-70,0,69,-2
1485,2,-247,-69,0,69,-1
1490,4,-249,-69,0,71,-1
1495,4,-250,-71,-1,73,-1
1500,5,-252,-72,-3,73,-2
1505,4,-251,-69,-4,74,0
1510,4,-247,-70,-5,75,0
1515,4,-253,-72,-5,75,-1
1520,5,-246,-70,-6,74,0
1525,4,-251,-67,-9,74,-1
1530,4,-249,-68,-9,73,-1
1535,4,-249,-72,-9,73,-3
1540,6,-251,-71,-10,74,-2
1545,7,-253,-65,-12,75,-3
1550,5,-250,-73,-12,74,-4
1555,5,-251,-67,-11,73,-4
1560,5,-250,-72,-12,75,-3
1565,4,-254,-69,-11,74,-4
1570,4,-251,-68,-8,74,-4
1575,4,-251,-68,-7,75,-3
1580,4,-252,-71,-6,75,-5
1585,4,-251,-70,-5,74,-5
1590,5,-250,-68,-4,71,-4
1595,6,-252,-67,-3,70,-5
1600,4,-253,-66,-4,69,-4
1605,4,-251,-70,-4,68,-3
1610,4,-252,-71,-6,68,-5
1615,6,-254,-68,-7,67,-4
1620,4,-251,-68,-7,67,-4
1625,5,-251,-69,-8,66,-3
1630,4,-253,-70,-7,66,-4
1635,4,-249,-68,-7,66,-2
1640,5,-254,-71,-9,65,-3
1645,4,-252,-71,-8,65,-4
1650,5,-250,-70,-7,65,-3
1655,5,-249,-56,-6,64,-4
1660,5,-250,-69,-6,64,-4
1665,5,-250,-71,-6,62,-6
1670,7,-251,-67,-6,61,-5
1675,5,-245,-73,-6,61,-5
1680,6,-249,-71,-7,61,-5
1685,5,-251,-70,-10,61,-6
1690,8,-248,-70,-13,62,-7
1695,5,-249,-71,-16,64,-8
1700,4,-250,-68,-20,65,-8
1705,5,-249,-68,-22,66,-7
1710,6,-250,-71,-24,67,-8
1715,5,-253,-71,-24,67,-8
1720,4,-250,-71,-24,68,-10
1725,5,-253,-68,-23,68,-8
1730,6,-252,-71,-21,70,-9
1735,6,-253,-67,-20,70,-10
1740,5,-252,-69,-18,70,-8
1745,6,-252,-73,-14,70,-7
1750,5,-253,-70,-13,69,-6
1755,5,-251,-71,-11,67,-5
1760,5,-252,-70,-9,66,-4
1765,7,-251,-74,-7,67,-4
1770,5,-249,-70,-6,66,-5
1775,6,-254,-66,-3,64,-4
1780,5,-251,-68,-1,62,-4
1785,6,-251,-66,0,60,-6
1790,5,-248,-70,-3,56,-9
1795,5,-250,-74,-7,52,-9
1800,4,-250,-74,-14,53,-11
1805,7,-250,-70,-21,51,-13
1810,4,-249,-72,-30,52,-13
1815,7,-249,-71,-34,52,-12
1820,6,-250,-71,-40,52,-15
1825,5,-248,-74,-42,53,-15
1830,4,-245,-71,-42,53,-17
1835,6,-250,-70,-42,56,-16
1840,6,-247,-70,-42,57,-17
1845,6,-248,-76,-43,60,-18
1850,4,-245,-71,-45,60,-19
1855,6,-244,-68,-49,62,-18
1860,6,-247,-73,-52,61,-19
1865,6,-240,-72,-57,61,-19
1870,5,-248,-68,-62,59,-22
1875,5,-246,-72,-66,56,-22
1880,4,-241,-76,-72,53,-22
1885,4,-243,-77,-77,48,-22
1890,4,-242,-76,-84,46,-21
1895,4,-240,-78,-87,42,-21
1900,6,-241,-79,-90,39,-23
1905,4,-237,-78,-93,38,-23
1910,4,-242,-78,-92,40,-23
1915,6,-242,-77,-93,42,-23
1920,6,-241,-76,-93,45,-26
1925,7,-240,-79,-97,47,-26
1930,8,-241,-80,-99,48,-29
1935,7,-239,-75,-102,49,-31
1940,7,-240,-78,-106,51,-35
1945,8,-241,-78,-112,49,-37
1950,7,-241,-76,-118,45,-40
1955,7,-245,-75,-123,39,-45
1960,9,-246,-75,-127,35,-47
1965,8,-244,-73,-130,32,-51
1970,10,-250,-76,-132,30,-54
1975,9,-245,-76,-130,29,-57
1980,6,-248,-69,-128,29,-59
1985,10,-249,-73,-126,26,-60
1990,6,-251,-77,-125,24,-63
1995,7,-250,-77,-125,23,-64
2000,8,-250,-79,-125,25,-66
2005,9,-253,-80,-125,23,-66
2010,9,-250,-77,-124,23,-69
2015,5,-249,-77,-122,24,-68
2020,9,-249,-75,-121,26,-69
2025,9,-250,-76,-120,30,-68
2030,10,-248,-79,-121,33,-67
2035,10,-249,-78,-122,39,-66
2040,7,-247,-76,-120,41,-64
2045,7,-244,-74,-120,43,-65
2050,9,-246,-75,-116,42,-64
2055,11,-242,-75,-113,41,-64
2060,6,-242,-74,-110,38,-62
2065,6,-242,-74,-111,35,-61
2070,9,-237,-74,-115,29,-60
2075,9,-240,-76,-121,25,-59
2080,11,-242,-80,-129,21,-57
2085,12,-240,-80,-136,20,-56
2090,10,-239,-75,-146,21,-55
2095,7,-241,-80,-155,23,-55
2100,8,-237,-76,-165,26,-53
2105,7,-241,-80,-174,30,-55
2110,6,-238,-80,-180,32,-57
2115,8,-241,-79,-186,32,-57
2120,5,-239,-84,-193,30,-58
2125,7,-241,-79,-199,28,-60
2130,5,-238,-81,-203,25,-63
2135,4,-237,-83,-207,21,-65
2140,6,-240,-82,-214,16,-68
2145,7,-236,-82,-218,11,-71
2150,7,-238,-85,-224,7,-74
2155,8,-237,-83,-229,5,-77
2160,5,-231,-82,-235,3,-79
2165,7,-235,-81,-240,3,-83
2170,6,-235,-85,-244,5,-86
2175,11,-235,-82,-246,8,-90
2180,8,-234,-82,-247,9,-91
2185,9,-231,-83,-249,12,-93
2190,7,-232,-85,-249,13,-95
2195,9,-232,-86,-250,14,-97
2200,8,-232,-87,-253,14,-101
2205,8,-231,-87,-261,14,-102
2210,12,-231,-88,-271,12,-104
2215,10,-230,-89,-283,9,-105
2220,11,-228,-90,-293,7,-106
2225,11,-226,-91,-305,6,-107
2230,9,-225,-88,-313,6,-105
2235,7,-226,-88,-318,5,-106
2240,6,-222,-89,-322,7,-106
2245,9,-225,-92,-325,6,-105
2250,8,-224,-88,-327,3,-104
2255,9,-224,-90,-328,0,-102
2260,5,-219,-91,-330,-4,-101
2265,11,-223,-92,-330,-7,-99
2270,6,-219,-87,-331,-10,-97
2275,10,-221,-91,-331,-12,-97
2280,7,-218,-91,-328,-14,-95
2285,9,-221,-90,-326,-14,-94
2290,9,-218,-90,-325,-16,-94
2295,9,-218,-92,-327,-16,-96
2300,13,-222,-91,-332,-15,-95
2305,7,-218,-93,-340,-17,-99
2310,7,-219,-103,-349,-17,-101
2315,11,-223,-92,-359,-17,-103
2320,9,-223,-93,-368,-17,-108
2325,10,-223,-94,-379,-19,-114
2330,8,-220,-95,-387,-21,-120
2335,9,-223,-95,-394,-22,-124
2340,8,-223,-99,-399,-27,-131
2345,10,-224,-98,-403,-29,-136
2350,10,-226,-99,-407,-27,-140
2355,8,-225,-97,-407,-22,-142
2360,8,-222,-101,-406,-18,-143
2365,10,-220,-97,-399,-16,-145
2370,10,-223,-97,-392,-15,-143
2375,13,-221,-98,-387,-15,-142
2380,8,-222,-99,-384,-17,-141
2385,9,-223,-95,-385,-16,-138
2390,11,-221,-95,-387,-17,-135
2395,9,-223,-98,-389,-16,-128
2400,13,-222,-98,-394,-13,-123
2405,10,-223,-100,-398,-11,-118
2410,14,-220,-100,-402,-8,-114
2415,13,-222,-99,-408,-7,-109
2420,13,-224,-104,-413,-5,-103
2425,15,-224,-104,-418,-8,-100
2430,15,-224,-104,-424,-10,-97
2435,17,-228,-104,-430,-14,-94
2440,15,-226,-107,-436,-18,-90
2445,16,-229,-104,-444,-22,-90
2450,16,-227,-108,-450,-26,-88
2455,14,-226,-110,-457,-31,-89
2460,16,-228,-109,-466,-32,-90
2465,16,-232,-106,-475,-31,-92
2470,14,-229,-113,-482,-28,-94
2475,14,-228,-110,-486,-23,-97
2480,11,-229,-112,-488,-15,-100
2485,13,-230,-113,-485,-8,-104
2490,17,-230,-112,-479,-3,-110
2495,18,-227,-111,-470,3,-116
2500,15,-228,-112,-462,6,-120
2505,18,-229,-109,-453,9,-123
2510,14,-226,-112,-446,10,-122
2515,14,-225,-113,-439,9,-122
2520,16,-226,-115,-431,9,-121
2525,15,-220,-112,-424,9,-117
2530,13,-221,-115,-419,8,-113
2535,14,-222,-114,-418,7,-109
2540,14,-219,-116,-417,7,-104
2545,12,-221,-121,-417,6,-98
2550,12,-220,-119,-421,5,-93
2555,13,-219,-121,-424,3,-87
2560,14,-218,-121,-429,5,-83
2565,18,-222,-124,-434,10,-81
2570,17,-222,-124,-439,14,-80
2575,17,-220,-125,-444,16,-81
2580,16,-220,-122,-448,17,-84
2585,15,-219,-119,-448,16,-88
2590,16,-220,-121,-446,15,-92
2595,15,-217,-119,-441,8,-96
2600,17,-214,-118,-432,2,-100
2605,12,-210,-115,-418,-5,-101
2610,17,-209,-114,-402,-11,-106
2615,14,-208,-115,-383,-14,-108
2620,7,-201,-113,-362,-16,-108
2625,9,-201,-118,-341,-17,-109
2630,8,-200,-117,-322,-17,-110
2635,8,-197,-121,-305,-17,-108
2640,8,-200,-118,-295,-18,-106
2645,10,-196,-120,-290,-17,-103
2650,12,-198,-124,-293,-14,-99
2655,15,-201,-126,-301,-12,-95
2660,14,-197,-130,-317,-10,-92
2665,19,-201,-129,-334,-6,-89
2670,18,-204,-128,-354,-1,-86
2675,18,-206,-131,-372,5,-86
2680,22,-211,-131,-388,11,-87
2685,22,-212,-135,-400,15,-89
2690,25,-217,-130,-405,17,-92
2695,24,-220,-129,-407,13,-96
2700,24,-218,-129,-402,6,-102
2705,24,-222,-127,-387,-3,-105
2710,25,-225,-124,-365,-12,-114
2715,23,-229,-124,-339,-18,-119
2720,19,-226,-125,-310,-22,-120
2725,20,-223,-122,-273,-26,-121
2730,18,-223,-122,-230,-28,-119
2735,15,-222,-123,-185,-28,-115
2740,16,-220,-121,-149,-24,-110
2745,15,-222,-131,-105,-17,-102
2750,14,-214,-128,-66,-9,-94
2755,14,-214,-127,-34,4,-89
2760,12,-213,-129,-9,14,-81
2765,14,-212,-130,8,24,-74
2770,12,-213,-135,21,31,-67
2775,14,-214,-130,29,35,-58
2780,15,-213,-129,34,39,-50
2785,16,-211,-131,37,39,-44
2790,18,-211,-136,39,42,-40
2795,18,-212,-130,40,47,-37
2800,21,-208,-131,40,52,-36
2805,22,-211,-129,37,56,-37
2810,23,-210,-126,34,61,-38
2815,23,-214,-128,35,64,-42
2820,23,-214,-125,44,67,-44
2825,25,-218,-125,56,71,-51
2830,24,-216,-128,74,75,-57
2835,25,-216,-127,95,80,-61
2840,25,-217,-123,121,85,-67
2845,24,-217,-126,149,96,-72
2850,24,-217,-127,177,106,-76
2855,21,-219,-130,202,117,-79
2860,21,-217,-131,219,129,-83
2865,22,-218,-128,233,139,-88
2870,17,-216,-130,239,143,-88
2875,20,-220,-131,239,146,-87
2880,19,-219,-129,233,147,-87
2885,17,-220,-134,228,147,-86
2890,16,-219,-130,221,143,-81
2895,16,-225,-133,214,136,-75
2900,17,-227,-131,211,130,-66
2905,16,-230,-133,209,126,-55
2910,18,-233,-128,210,125,-45
2915,18,-236,-127,219,124,-40
2920,17,-240,-127,234,130,-33
2925,17,-241,-127,258,142,-25
2930,20,-242,-126,287,155,-19
2935,23,-246,-127,317,172,-15
2940,25,-241,-127,344,190,-15
2945,19,-238,-124,369,208,-15
2950,24,-240,-127,388,222,-16
2955,21,-235,-127,402,229,-19
2960,19,-227,-126,415,227,-24
2965,24,-229,-124,423,221,-29
2970,21,-225,-124,430,210,-34
2975,26,-225,-126,437,193,-38
2980,22,-221,-126,438,178,-42
2985,23,-218,-123,435,164,-46
2990,20,-214,-123,430,154,-48
2995,20,-217,-121,422,150,-49
3000,21,-214,-124,411,146,-53
3005,21,-215,-121,400,146,-56
3010,20,-217,-121,390,147,-59
3015,20,-214,-124,380,150,-63
3020,19,-213,-123,374,151,-67
3025,21,-218,-122,371,149,-70
3030,21,-217,-121,371,145,-74
3035,22,-223,-120,371,137,-76
3040,22,-222,-122,373,127,-78
3045,24,-226,-121,366,117,-82
3050,25,-224,-119,355,107,-85
3055,27,-227,-125,347,104,-85
3060,25,-226,-120,342,106,-81
3065,24,-230,-124,335,114,-82
3070,31,-242,-126,329,129,-83
3075,27,-237,-121,326,144,-85
3080,27,-238,-119,324,155,-86
3085,23,-240,-120,322,164,-84
3090,27,-242,-119,322,169,-81
3095,32,-244,-118,320,174,-77
3100,34,-243,-124,317,182,-73
3105,30,-242,-120,313,194,-72
3110,33,-243,-118,307,209,-64
3115,32,-239,-116,296,223,-57
3120,29,-238,-115,283,231,-52
3125,26,-238,-116,270,234,-42
3130,26,-235,-112,261,233,-27
3135,25,-239,-111,251,229,-16
3140,20,-235,-113,242,226,-4
3145,19,-236,-113,235,220,7
3150,17,-233,-117,226,211,18
3155,19,-234,-114,216,201,27
3160,18,-235,-116,207,194,33
3165,21,-235,-112,197,187,36
3170,25,-237,-115,190,184,41
3175,23,-239,-115,184,188,39
3180,31,-241,-115,181,200,33
3185,27,-243,-116,182,221,30
3190,32,-246,-118,184,245,25
3195,31,-248,-120,187,269,18
3200,33,-251,-118,192,294,14
3205,33,-250,-115,197,313,14
3210,34,-253,-115,204,326,13
3215,38,-254,-118,213,332,18
3220,36,-254,-111,219,331,25
3225,36,-259,-112,225,327,34
3230,38,-254,-111,229,320,43
3235,39,-257,-116,228,308,49
3240,37,-259,-115,229,294,55
3245,37,-259,-111,232,284,67
3250,36,-263,-111,234,267,76
3255,35,-259,-113,240,251,85
3260,34,-262,-114,249,238,95
3265,34,-261,-117,256,229,99
3270,31,-264,-112,263,228,107
3275,33,-263,-112,271,237,116
3280,34,-264,-110,288,253,117
3285,28,-262,-113,313,267,115
3290,26,-262,-114,336,272,115
3295,27,-264,-110,360,270,116
3300,29,-262,-110,382,271,119
3305,33,-261,-107,406,275,119
3310,31,-261,-106,430,282,116
3315,33,-261,-106,454,290,115
3320,28,-261,-105,476,293,118
3325,32,-265,-104,491,284,112
3330,34,-262,-101,503,271,110
3335,29,-260,-92,514,259,113
3340,32,-264,-105,523,253,115
3345,36,-267,-96,528,249,110
3350,34,-266,-91,538,250,110
3355,34,-266,-97,550,251,112
3360,37,-264,-95,565,247,111
3365,38,-266,-88,582,241,113
3370,33,-264,-89,593,229,111
3375,33,-267,-89,599,219,109
3380,33,-272,-87,602,211,109
3385,34,-271,-87,607,203,108
3390,31,-276,-86,624,199,108
3395,25,-282,-88,642,193,107
3400,33,-277,-90,658,186,108
3405,27,-274,-91,670,174,107
3410,31,-275,-87,686,160,113
3415,30,-273,-92,706,151,115
3420,34,-275,-87,725,140,119
3425,33,-272,-88,745,128,121
3430,34,-270,-87,763,119,126
3435,35,-268,-86,776,113,123
3440,32,-264,-85,779,107,121
3445,34,-263,-86,771,101,123
3450,34,-260,-85,759,97,121
3455,35,-260,-84,738,97,121
3460,32,-257,-79,716,100,120
3465,32,-262,-75,694,102,115
3470,33,-259,-74,681,101,109
3475,34,-259,-71,678,103,106
3480,33,-263,-73,679,104,102
3485,34,-260,-69,683,110,99
3490,35,-258,-67,690,115,99
3495,33,-260,-67,694,119,100
3500,36,-264,-59,697,120,98
3505,30,-261,-57,704,116,95
3510,32,-265,-53,710,110,93
3515,30,-259,-52,718,101,92
3520,32,-262,-49,728,92,94
3525,28,-259,-48,737,84,98
3530,24,-258,-48,744,78,103
3535,27,-259,-47,748,73,107
3540,24,-258,-44,751,70,106
3545,27,-256,-45,757,72,110
3550,25,-259,-41,760,73,116
3555,26,-258,-41,765,76,122
3560,24,-257,-45,769,81,128
3565,23,-258,-40,773,87,130
3570,22,-262,-38,777,90,135
3575,21,-261,-36,781,89,138
3580,19,-263,-31,788,79,142
3585,21,-261,-30,794,71,145
3590,19,-263,-34,800,55,149
3595,16,-260,-35,804,40,152
3600,13,-260,-35,804,24,157
3605,17,-260,-35,801,12,161
3610,15,-263,-28,796,7,167
3615,12,-260,-34,790,5,172
3620,14,-259,-35,782,10,176
3625,18,-262,-36,772,19,179
3630,14,-256,-34,761,30,179
3635,13,-259,-30,746,42,182
3640,13,-257,-31,729,51,186
3645,15,-255,-25,713,58,189
3650,18,-258,-18,702,62,190
3655,18,-261,-17,694,64,192
3660,14,-258,-11,691,65,192
3665,14,-262,-9,691,63,195
3670,15,-261,-8,695,56,196
3675,10,-261,-8,698,50,197
3680,15,-262,-9,700,46,198
3685,13,-263,-6,693,39,194
3690,12,-264,-6,684,38,193
3695,11,-261,-3,671,35,190
3700,11,-262,-1,656,35,186
3705,11,-264,1,641,34,180
3710,12,-264,0,625,34,175
3715,11,-265,1,605,34,167
3720,14,-265,-2,582,32,158
3725,11,-259,-1,552,33,150
3730,12,-261,-2,518,32,144
3735,10,-262,-2,480,31,136
3740,12,-261,-2,439,28,127
3745,8,-258,-1,411,27,121
3750,10,-259,0,375,26,115
3755,10,-260,3,345,23,107
3760,6,-260,1,319,18,103
3765,8,-262,4,297,13,97
3770,6,-258,3,280,6,93
3775,5,-261,9,267,-2,89
3780,6,-261,6,257,-9,84
3785,4,-264,7,253,-14,81
3790,4,-260,5,251,-15,79
3795,5,-259,5,253,-12,74
3800,5,-261,4,253,-6,74
3805,4,-260,3,254,4,73
3810,4,-259,1,252,12,71
3815,7,-258,3,248,20,70
3820,7,-259,7,242,25,64
3825,7,-257,1,234,28,65
3830,5,-257,2,226,30,61
3835,8,-257,1,218,30,58
3840,6,-259,5,212,28,54
3845,5,-257,8,205,26,49
3850,7,-260,5,197,24,45
3855,8,-257,7,189,22,40
3860,9,-261,3,179,18,36
3865,11,-261,7,170,17,32
3870,11,-262,11,162,18,29
3875,9,-261,4,153,20,26
3880,12,-262,6,143,23,24
3885,10,-264,4,133,26,24
3890,9,-263,6,123,30,25
3895,8,-260,3,110,33,24
3900,8,-259,2,99,35,26
3905,9,-264,2,85,36,27
3910,7,-266,2,72,36,30
3915,10,-264,-2,61,37,30
3920,6,-264,-1,45,41,29
3925,7,-262,-4,26,43,31
3930,5,-263,0,11,45,31
3935,9,-266,0,-5,49,32
3940,7,-263,-1,-18,53,31
3945,7,-264,-2,-25,54,30
3950,6,-264,-1,-29,56,27
3955,6,-268,1,-28,59,23
3960,8,-268,0,-21,61,20
3965,11,-271,1,-9,64,15
3970,9,-268,8,6,67,11
3975,9,-273,4,25,71,8
3980,10,-273,10,48,76,5
3985,9,-273,8,74,78,1
3990,11,-277,8,105,83,-1
3995,16,-275,12,136,88,-5
4000,14,-275,10,166,94,-6
4005,10,-274,7,192,102,-6
4010,13,-268,6,207,105,-7
4015,13,-265,7,212,110,-7
4020,14,-264,6,209,112,-8
4025,7,-263,2,195,111,-8
4030,12,-261,8,176,107,-9
4035,5,-258,5,156,102,-9
4040,9,-260,5,135,95,-10
4045,13,-260,2,113,90,-11
4050,9,-260,9,94,88,-14
4055,13,-260,10,80,86,-13
4060,10,-261,9,69,85,-14
4065,11,-260,11,56,86,-15
4070,7,-260,10,47,87,-14
4075,10,-262,13,42,87,-14
4080,10,-264,12,41,86,-13
4085,9,-261,12,44,85,-12
4090,10,-265,14,49,83,-11
4095,11,-263,16,59,80,-9
4100,8,-265,10,68,77,-7
4105,6,-262,16,76,74,-7
4110,9,-261,16,84,72,-6
4115,8,-258,14,91,73,-7
4120,11,-262,14,96,76,-6
4125,8,-261,15,100,78,-6
4130,11,-263,15,102,83,-8
4135,10,-261,11,100,87,-8
4140,13,-262,4,95,88,-7
4145,9,-259,11,89,91,-8
4150,10,-260,10,79,91,-6
4155,7,-259,9,68,92,-7
4160,8,-259,12,57,95,-7
4165,13,-263,6,49,95,-8
4170,12,-264,9,44,93,-12
4175,11,-267,9,41,92,-11
4180,12,-266,13,38,90,-13
4185,9,-263,7,38,89,-14
4190,6,-263,11,39,86,-15
4195,8,-266,7,39,83,-15
4200,10,-262,7,39,80,-16
4205,6,-262,9,41,77,-16
4210,13,-265,9,40,75,-14
4215,9,-262,5,38,77,-13
4220,7,-262,8,35,78,-14
4225,10,-264,11,33,81,-15
4230,8,-265,10,33,83,-17
4235,8,-265,7,31,84,-15
4240,9,-265,10,32,85,-16
4245,8,-265,11,34,84,-17
4250,17,-263,21,36,82,-18
4255,5,-265,11,37,81,-17
4260,9,-266,12,39,79,-17
4265,10,-264,13,40,76,-17
4270,9,-265,9,40,74,-19
4275,11,-265,12,39,72,-18
4280,9,-263,12,37,70,-19
4285,9,-261,9,34,69,-21
4290,6,-259,9,30,68,-21
4295,6,-262,11,27,69,-21
4300,9,-264,11,25,70,-23
4305,9,-266,12,27,72,-23
4310,9,-264,12,29,75,-24
4315,7,-265,12,34,78,-24
4320,7,-263,17,40,77,-23
4325,7,-261,16,45,76,-21
4330,8,-263,19,51,76,-20
4335,10,-264,21,57,72,-19
4340,8,-265,18,63,71,-17
4345,10,-267,17,67,67,-16
4350,10,-266,15,72,67,-15
4355,11,-261,25,74,65,-15
4360,10,-262,14,75,65,-14
4365,10,-263,15,74,66,-14
4370,9,-263,16,72,65,-13
4375,9,-262,12,68,66,-15
4380,10,-262,10,62,66,-15
4385,7,-258,13,55,67,-14
4390,10,-259,15,49,69,-14
4395,12,-264,13,40,70,-14
4400,13,-265,11,35,71,-15
4405,12,-265,13,28,69,-12
4410,11,-261,13,23,67,-12
4415,11,-262,12,18,68,-13
4420,12,-260,13,12,70,-11
4425,11,-263,18,7,71,-9
4430,9,-263,16,6,72,-7
4435,12,-265,14,7,71,-7
4440,12,-261,17,9,71,-6
4445,11,-266,16,12,69,-5
4450,10,-265,21,17,67,-5
4455,11,-263,16,22,65,-4
4460,13,-267,17,25,62,-5
4465,10,-263,15,27,61,-4
4470,10,-265,19,30,61,-7
4475,9,-260,18,28,59,-6
4480,10,-261,18,27,58,-6
4485,7,-265,14,25,57,-6
4490,9,-264,19,22,57,-5
4495,8,-261,17,20,59,-4
4500,10,-265,18,15,61,-4
4505,9,-266,13,10,60,-2
4510,7,-261,14,8,61,-1
4515,9,-261,16,6,59,-2
4520,12,-266,19,4,60,0
4525,10,-263,20,6,61,-1
4530,8,-264,17,7,60,-1
4535,12,-263,17,6,61,-2
4540,13,-266,20,5,63,-2
4545,10,-262,18,4,64,-3
4550,13,-263,18,3,66,-3
4555,9,-262,19,2,70,-5
4560,11,-262,18,-1,72,-6
4565,10,-261,15,-1,73,-6
4570,14,-267,5,-3,74,-6
4575,8,-262,14,-4,74,-6
4580,9,-263,16,-9,75,-5
4585,10,-260,18,-11,75,-5
4590,7,-262,17,-12,77,-4
4595,8,-262,15,-13,77,-3
4600,11,-260,17,-13,77,-1
4605,7,-262,13,-14,79,-1
4610,11,-262,13,-16,82,-1
4615,7,-263,17,-15,83,-1
4620,10,-266,15,-15,83,0
4625,10,-265,17,-16,82,0
4630,8,-265,16,-16,80,0
4635,11,-265,13,-16,78,1
4640,12,-265,12,-18,73,1
4645,7,-264,14,-19,71,2
4650,9,-264,16,-23,67,2
4655,11,-265,19,-21,65,5
4660,12,-264,19,-21,63,4
4665,10,-266,20,-19,62,4
4670,12,-266,16,-19,61,4
4675,10,-269,18,-16,62,3
4680,10,-264,17,-15,62,2
4685,9,-265,20,-15,64,1
4690,8,-263,17,-14,64,0
4695,7,-264,16,-15,66,-1
4700,10,-264,15,-18,67,-1
4705,7,-262,13,-20,68,-1
4710,6,-262,13,-25,70,-3
4715,8,-263,14,-29,73,-3
4720,9,-262,12,-34,76,-4
4725,7,-261,13,-38,78,-5
4730,11,-266,15,-41,81,-6
4735,6,-265,16,-44,82,-6
4740,8,-263,19,-44,81,-7
4745,7,-262,17,-41,79,-9
4750,8,-262,13,-38,78,-9
4755,10,-265,16,-34,77,-10
4760,9,-263,19,-32,75,-11
4765,10,-265,18,-27,76,-11
4770,11,-263,14,-25,75,-12
4775,9,-261,19,-27,75,-11
4780,10,-261,16,-27,74,-12
4785,8,-263,12,-31,75,-12
4790,12,-260,13,-36,74,-13
4795,10,-262,16,-41,73,-13
4800,12,-265,15,-46,71,-12
4805,12,-262,16,-49,71,-13
4810,9,-261,15,-51,71,-12
4815,10,-263,13,-50,72,-12
4820,10,-264,15,-49,71,-11
4825,7,-263,15,-48,70,-12
4830,8,-265,20,-45,67,-12
4835,8,-265,16,-43,66,-12
4840,7,-265,19,-40,66,-12
4845,8,-266,19,-37,66,-13
4850,9,-266,16,-35,68,-13
4855,10,-266,18,-33,68,-14
4860,8,-264,17,-32,68,-14
4865,8,-263,15,-34,69,-16
4870,6,-264,16,-37,66,-16
4875,9,-263,16,-42,66,-16
4880,7,-262,14,-46,65,-18
4885,6,-260,14,-53,64,-20
4890,9,-263,16,-56,64,-19
4895,7,-262,16,-59,63,-22
4900,10,-263,12,-63,63,-22
4905,6,-263,19,-65,62,-24
4910,10,-265,18,-65,61,-25
4915,10,-263,10,-67,59,-25
4920,10,-263,16,-66,59,-25
4925,9,-262,11,-65,58,-25
4930,10,-263,12,-63,60,-25
4935,9,-266,12,-62,63,-27
4940,12,-264,9,-59,65,-27
4945,13,-268,10,-57,68,-28
4950,12,-268,9,-56,68,-28
4955,12,-266,5,-53,69,-28
4960,11,-265,13,-52,70,-28
4965,11,-264,14,-53,69,-29
4970,12,-261,13,-52,67,-28
4975,9,-263,11,-52,65,-28
4980,13,-264,14,-53,63,-28
4985,13,-261,18,-53,62,-29
4990,9,-264,15,-55,61,-29
4995,13,-264,17,-55,60,-30
5000,9,-264,14,-55,61,-28
5005,10,-266,17,-55,61,-29
5010,11,-265,17,-56,62,-30
5015,10,-263,13,-57,63,-30
5020,13,-264,11,-57,65,-31
5025,10,-263,12,-59,66,-29
5030,10,-262,10,-61,67,-30
5035,13,-264,7,-60,68,-30
5040,11,-263,12,-60,69,-30
5045,12,-265,11,-59,71,-31
5050,12,-264,8,-60,69,-30
5055,12,-263,7,-61,69,-32
5060,14,-265,10,-64,66,-31
5065,12,-261,10,-68,65,-30
5070,14,-267,9,-72,62,-30
5075,15,-264,12,-76,60,-30
5080,13,-261,9,-80,60,-29
5085,13,-260,10,-81,58,-29
5090,16,-265,12,-79,57,-26
5095,13,-264,14,-75,56,-26
5100,14,-264,10,-70,57,-26
5105,14,-263,13,-66,58,-25
5110,11,-264,11,-61,59,-24
5115,12,-264,11,-53,62,-24
5120,12,-265,9,-49,64,-24
5125,12,-264,12,-48,66,-23
5130,10,-263,10,-48,67,-22
5135,15,-265,9,-48,69,-22
5140,13,-267,7,-50,69,-23
5145,12,-263,7,-53,70,-22
5150,13,-265,8,-55,70,-21
5155,13,-265,11,-57,70,-22
5160,13,-265,9,-59,69,-21
5165,10,-265,9,-59,68,-21
5170,12,-264,5,-59,68,-23
5175,12,-265,10,-61,66,-22
5180,15,-265,7,-62,64,-24
5185,14,-263,10,-61,64,-24
5190,14,-266,9,-60,63,-24
5195,16,-266,9,-58,64,-24
5200,13,-265,10,-56,65,-22
5205,21,-264,9,-55,65,-24
5210,13,-266,7,-55,68,-24
5215,11,-262,7,-54,69,-22
5220,13,-266,11,-52,70,-22
5225,10,-264,10,-50,70,-22
5230,13,-263,5,-49,70,-21
5235,11,-263,6,-48,70,-19
5240,12,-266,11,-47,70,-17
5245,15,-264,6,-49,71,-17
5250,14,-265,6,-49,72,-16
5255,14,-266,5,-49,72,-17
5260,14,-266,9,-47,72,-18
5265,15,-263,6,-46,71,-16
5270,14,-268,9,-46,70,-17
5275,12,-266,7,-45,69,-16
5280,15,-262,9,-43,70,-16
5285,14,-261,4,-41,70,-14
5290,14,-264,5,-40,71,-14
5295,11,-262,6,-40,73,-14
5300,11,-261,11,-39,74,-12
5305,12,-264,6,-38,76,-12
5310,11,-264,10,-37,79,-11
5315,14,-266,12,-35,80,-11
5320,12,-262,10,-33,81,-11
5325,11,-262,8,-31,79,-10
5330,13,-261,9,-27,76,-9
5335,15,-263,11,-23,75,-10
5340,13,-265,11,-21,72,-11
5345,15,-265,8,-19,70,-10
5350,13,-260,11,-20,69,-10
5355,15,-262,5,-22,69,-12
5360,15,-264,6,-25,69,-13
5365,11,-263,4,-29,69,-12
5370,15,-262,5,-32,70,-13
5375,11,-265,5,-35,71,-12
5380,13,-266,9,-38,71,-12
5385,14,-265,7,-38,71,-11
5390,15,-264,6,-35,72,-11
5395,15,-265,7,-33,73,-11
5400,17,-267,5,-30,75,-11
5405,16,-264,11,-26,75,-10
5410,13,-267,10,-23,77,-11
5415,15,-264,11,-19,77,-10
5420,14,-264,9,-19,76,-10
5425,12,-263,6,-18,75,-8
5430,11,-260,7,-20,73,-7
5435,15,-263,7,-21,71,-5
5440,13,-264,9,-23,72,-5
5445,13,-260,11,-25,69,-5
5450,12,-260,10,-23,72,-5
5455,13,-266,6,-24,72,-6
5460,13,-264,10,-23,72,-6
5465,13,-264,5,-22,72,-3
5470,13,-264,12,-20,70,-4
5475,11,-263,5,-18,70,-5
5480,14,-264,10,-18,71,-6
5485,14,-264,8,-18,70,-6
5490,13,-263,6,-17,71,-4
5495,13,-262,7,-19,70,-4
5500,12,-261,9,-19,71,-3
5505,13,-263,7,-20,70,-2
5510,14,-260,8,-21,69,-3
5515,14,-265,13,-21,69,-1
5520,10,-261,8,-21,69,-1
5525,14,-265,9,-22,68,-3
5530,15,-266,8,-23,67,-5
5535,14,-262,10,-24,68,-4
5540,12,-265,10,-25,67,-5
5545,12,-261,9,-26,67,-5
5550,13,-263,6,-27,67,-6
5555,14,-266,8,-28,66,-7
5560,12,-264,7,-30,67,-6
5565,11,-263,5,-30,69,-6
5570,12,-264,5,-31,71,-5
5575,14,-267,6,-31,72,-5
5580,11,-265,5,-29,74,-3
5585,11,-265,7,-26,76,-2
5590,13,-265,8,-23,77,-1
5595,11,-266,6,-20,77,0
5600,14,-265,4,-17,78,0
5605,11,-261,6,-14,78,-1
5610,14,-263,6,-12,76,-1
5615,13,-264,9,-11,73,0
5620,12,-263,7,-12,71,-1
5625,14,-262,5,-13,71,-2
5630,16,-266,5,-14,71,-1
5635,18,-264,7,-17,71,-1
5640,14,-263,9,-20,73,-2
5645,16,-262,8,-21,73,-3
5650,15,-265,12,-24,72,-4
5655,14,-264,5,-26,73,-3
5660,14,-263,9,-25,73,-4
5665,13,-263,8,-25,74,-5
5670,13,-264,10,-26,75,-4
5675,13,-261,12,-25,73,-4
5680,11,-262,8,-25,72,-4
5685,14,-265,6,-24,71,-2
5690,14,-265,7,-24,70,-1
5695,12,-263,8,-23,70,-2
5700,15,-267,10,-23,71,-1
5705,11,-264,6,-21,73,-2
5710,16,-268,9,-20,73,0
5715,13,-266,9,-18,73,-2
5720,13,-266,9,-14,73,-2
5725,13,-265,10,-13,72,0
5730,14,-270,7,-10,73,3
5735,13,-265,8,-8,73,1
5740,11,-266,7,-5,73,2
5745,13,-262,5,-4,72,2
5750,13,-266,5,-2,67,2
5755,11,-265,7,-4,64,3
5760,13,-262,9,-5,61,5
5765,12,-265,7,-7,58,4
5770,14,-263,9,-8,58,4
5775,14,-265,8,-8,60,4
5780,11,-262,8,-7,63,4
5785,14,-264,7,-4,64,3
5790,15,-264,7,-2,68,3
5795,12,-262,7,0,70,3
5800,14,-263,7,1,72,3
5805,12,-264,8,2,74,2
5810,12,-260,9,2,74,1
5815,12,-263,7,1,76,2
5820,11,-263,9,2,76,2
5825,14,-265,9,0,76,3
5830,11,-264,8,-3,76,2
5835,15,-263,4,-6,74,2
5840,11,-263,9,-7,73,3
5845,12,-262,8,-11,71,2
5850,14,-264,11,-12,71,2
5855,12,-264,7,-14,71,1
5860,15,-264,8,-14,72,0
5865,14,-265,8,-12,73,0
5870,14,-263,9,-10,74,0
5875,15,-267,10,-7,72,-1
5880,14,-264,5,-3,72,0
5885,15,-266,7,-1,67,0
5890,15,-267,8,1,65,1
5895,13,-263,5,-1,62,2
5900,13,-265,7,-5,58,2
5905,13,-266,6,-9,54,3
5910,13,-264,5,-12,50,5
5915,13,-261,2,-16,47,5
5920,11,-262,7,-19,47,7
5925,13,-264,6,-21,49,8
5930,9,-264,9,-20,50,6
5935,11,-265,9,-19,55,6
5940,14,-264,6,-14,59,5
5945,9,-265,9,-11,63,5
5950,11,-264,10,-7,69,4
5955,11,-262,8,-2,73,3
5960,14,-265,6,1,74,3
5965,13,-262,11,4,78,1
5970,14,-266,11,6,78,0
5975,13,-265,7,6,78,0
5980,12,-261,4,3,79,0
5985,15,-262,8,0,75,-1
5990,14,-265,6,-4,72,0
5995,11,-262,5,-8,70,-3
6000,13,-266,5,-13,67,-3
6005,12,-261,7,-17,65,-2
6010,14,-262,9,-22,64,0
6015,11,-263,7,-27,62,-1
6020,10,-262,9,-29,63,-2
6025,12,-263,10,-29,62,-1
6030,11,-263,9,-29,63,2
6035,12,-265,7,-26,64,1
6040,14,-269,8,-19,64,1
6045,11,-266,7,-14,63,2
6050,11,-263,10,-6,64,3
6055,10,-264,9,2,63,2
6060,12,-267,12,9,64,1
6065,12,-265,10,13,63,1
6070,11,-265,11,15,63,2
6075,11,-261,8,15,62,1
6080,12,-263,8,13,61,0
6085,12,-265,7,10,61,0
6090,13,-261,2,5,61,-1
6095,14,-263,7,2,63,0
6100,13,-265,4,-2,65,-1
6105,11,-261,5,-5,68,-2
6110,14,-262,9,-8,71,-2
6115,14,-261,8,-10,73,-3
6120,10,-260,4,-12,74,-4
6125,11,-263,6,-11,74,-3
6130,11,-262,10,-11,75,-4
6135,12,-263,8,-10,74,-3
6140,12,-263,8,-9,74,-4
6145,12,-263,5,-8,75,-5
6150,14,-266,6,-8,75,-6
6155,10,-263,10,-7,75,-6
6160,13,-265,11,-6,76,-6
6165,12,-263,11,-7,77,-6
6170,12,-265,8,-6,76,-6
6175,13,-264,7,-5,76,-8
6180,12,-261,14,-5,77,-7
6185,10,-264,7,-5,77,-7
6190,12,-263,12,-6,77,-7
6195,12,-263,5,-8,75,-7
6200,11,-265,12,-9,72,-5
6205,11,-263,6,-10,71,-5
6210,13,-266,8,-12,68,-6
6215,13,-266,11,-12,66,-4
6220,11,-264,8,-11,66,-5
6225,15,-264,11,-9,67,-4
6230,12,-265,9,-7,67,-4
6235,12,-265,9,-3,67,-4
6240,13,-266,9,0,65,-5
6245,11,-265,8,1,64,-5
6250,11,-266,9,2,63,-5
6255,13,-264,7,2,63,-5
6260,13,-265,9,0,63,-5
6265,11,-264,7,0,63,-6
6270,11,-264,7,-2,63,-4
6275,15,-262,4,-4,65,-3
6280,10,-264,8,-6,66,-4
6285,13,-262,8,-6,67,-3
6290,10,-264,9,-5,70,-3
6295,10,-264,9,-3,70,-5
6300,14,-263,8,0,70,-4
6305,9,-265,12,1,72,-4
6310,9,-262,5,1,72,-5
6315,15,-264,10,1,73,-5
6320,12,-263,8,1,72,-5
6325,10,-262,9,2,71,-5
6330,10,-264,8,1,71,-7
6335,13,-262,7,1,71,-6
6340,12,-262,8,1,71,-9
6345,13,-265,10,0,72,-8
6350,15,-266,8,-1,71,-8
6355,14,-261,8,-2,71,-9
6360,10,-264,4,-4,69,-8
6365,12,-265,6,-4,66,-7
6370,10,-264,10,-3,65,-8
6375,11,-264,8,-3,63,-7
6380,13,-264,6,1,65,-6
6385,13,-265,8,4,66,-6
6390,12,-262,5,5,68,-4
6395,12,-262,10,6,69,-3
6400,13,-265,11,6,70,-6
6405,11,-263,10,6,72,-6
6410,14,-264,10,6,73,-7
6415,12,-262,6,4,74,-6
6420,13,-264,6,5,74,-6
6425,13,-263,10,3,75,-7
6430,13,-263,7,1,74,-8
6435,10,-264,9,1,73,-10
6440,12,-265,9,2,73,-8
6445,10,-262,9,2,70,-9
6450,14,-264,11,3,69,-10
6455,15,-262,8,5,68,-8
6460,12,-263,8,6,69,-8
6465,9,-265,10,8,70,-6
6470,13,-263,8,7,70,-7
6475,11,-264,14,5,70,-7
6480,16,-267,11,6,70,-6
6485,14,-263,11,6,69,-6
6490,12,-265,13,5,70,-6
6495,15,-265,12,6,71,-4
6500,14,-266,7,5,70,-6
6505,13,-265,11,4,68,-5
6510,13,-263,12,2,66,-6
6515,12,-264,14,1,64,-6
6520,13,-263,10,0,63,-6
6525,13,-264,12,1,62,-5
6530,12,-263,10,2,63,-6
6535,14,-264,12,3,64,-7
6540,11,-264,9,5,67,-5
6545,13,-263,10,5,71,-5
6550,11,-263,10,7,73,-7
6555,14,-265,10,6,74,-6
6560,13,-262,10,4,76,-7
6565,13,-263,11,5,76,-7
6570,14,-265,9,2,74,-7
6575,10,-262,10,0,73,-6
6580,12,-264,11,-3,71,-5
6585,12,-262,9,-4,70,-4
6590,13,-262,11,-5,66,-4
6595,13,-266,8,-6,64,-2
6600,15,-266,10,-6,64,-2
6605,13,-263,13,-4,64,-3
6610,13,-264,11,-4,63,-3
6615,12,-263,13,-2,65,-3
6620,12,-262,13,0,69,-3
6625,13,-265,14,1,69,-4
6630,12,-264,10,3,72,-5
6635,13,-265,9,4,72,-6
6640,11,-263,14,2,73,-6
6645,12,-261,8,2,72,-5
6650,14,-265,8,0,71,-5
6655,11,-266,10,-1,68,-7
6660,13,-262,11,-2,67,-6
6665,14,-267,14,-3,69,-7
6670,13,-262,9,-4,69,-6
6675,13,-267,13,-6,70,-8
6680,16,-265,8,-9,70,-8
6685,12,-263,8,-10,73,-7
6690,14,-260,13,-13,74,-8
6695,10,-262,11,-14,75,-6
6700,10,-262,6,-14,75,-6
6705,12,-262,11,-11,73,-5
6710,10,-260,14,-8,73,-5
6715,12,-262,8,-4,71,-4
6720,13,-261,10,-4,68,-4
6725,15,-263,9,-4,66,-4
6730,15,-263,7,-6,65,-3
6735,12,-264,7,-13,66,-4
6740,15,-263,4,-20,71,-2
6745,12,-264,7,-25,73,-3
6750,13,-262,9,-30,74,-4
6755,12,-263,10,-31,75,-4
6760,14,-264,10,-31,75,-4
6765,15,-264,13,-28,77,-6
6770,12,-265,9,-25,77,-4
6775,14,-262,12,-20,78,-6
6780,9,-264,14,-14,77,-5
6785,11,-263,14,-12,75,-4
6790,12,-265,12,-11,73,-4
6795,10,-265,11,-11,72,-3
6800,11,-261,8,-15,70,-3
6805,9,-265,11,-21,69,-2
6810,12,-264,12,-27,67,-2
6815,13,-262,14,-34,66,-2
6820,14,-261,10,-40,66,-2
6825,10,-264,11,-41,64,-4
6830,9,-262,9,-40,63,-5
6835,9,-261,10,-35,61,-4
6840,11,-265,11,-29,62,-3
6845,12,-267,9,-23,66,-2
6850,13,-265,13,-15,74,-2
6855,15,-268,7,-10,80,-3
6860,14,-267,9,-5,89,-3
6865,12,-264,8,-1,95,-3
6870,14,-267,7,4,99,-1
6875,17,-266,5,10,99,-1
6880,16,-267,6,14,96,0
6885,12,-267,8,21,91,1
6890,15,-266,2,25,84,1
6895,13,-266,5,25,77,2
6900,13,-264,6,23,73,3
6905,14,-264,6,20,68,3
6910,14,-264,11,17,68,3
6915,14,-262,7,12,70,1
6920,12,-262,7,4,72,0
6925,12,-262,12,-4,73,-3
6930,11,-261,11,-13,72,-6
6935,12,-263,11,-23,71,-8
6940,13,-259,11,-31,69,-11
6945,9,-260,17,-38,66,-15
6950,14,-261,16,-42,63,-17
6955,10,-257,16,-47,61,-21
6960,9,-260,14,-52,58,-23
6965,13,-263,16,-57,58,-26
6970,13,-259,17,-63,59,-29
6975,11,-259,21,-65,61,-31
6980,11,-256,20,-68,66,-34
6985,11,-258,17,-73,70,-37
6990,11,-259,19,-75,72,-39
6995,9,-258,19,-81,75,-41
7000,9,-259,20,-85,77,-44
7005,11,-257,22,-90,76,-44
7010,11,-259,20,-96,75,-45
7015,11,-260,20,-100,72,-45
7020,10,-260,15,-103,69,-45
7025,12,-262,17,-106,64,-42
7030,12,-258,17,-111,60,-41
7035,13,-260,16,-119,56,-40
7040,15,-260,13,-129,52,-40
7045,13,-261,17,-139,50,-40
7050,14,-262,19,-150,48,-40
7055,14,-258,16,-164,48,-40
7060,16,-260,7,-179,45,-41
7065,12,-261,9,-194,44,-42
7070,12,-259,9,-211,39,-45
7075,15,-259,10,-225,36,-46
7080,15,-261,8,-239,34,-49
7085,13,-258,13,-251,32,-50
7090,13,-259,16,-262,32,-51
7095,15,-261,13,-271,33,-53
7100,13,-259,13,-279,34,-57
7105,13,-262,13,-283,38,-59
7110,13,-262,10,-286,41,-62
7115,15,-258,12,-290,43,-63
7120,16,-259,11,-289,46,-67
7125,16,-260,10,-290,46,-69
7130,14,-259,7,-293,46,-69
7135,13,-257,7,-302,46,-71
7140,17,-259,2,-312,45,-74
7145,19,-257,1,-324,45,-76
7150,17,-259,0,-337,47,-77
7155,17,-259,4,-350,53,-81
7160,20,-263,0,-360,58,-83
7165,19,-263,1,-369,63,-85
7170,20,-263,0,-377,68,-85
7175,17,-261,1,-386,72,-90
7180,20,-263,0,-396,74,-93
7185,18,-260,-1,-408,78,-94
7190,20,-263,-3,-422,80,-97
7195,19,-259,-2,-436,81,-101
7200,19,-265,-5,-453,81,-106
7205,19,-264,-3,-469,78,-110
7210,19,-264,-2,-483,77,-114
7215,17,-263,-1,-491,73,-118
7220,17,-262,0,-501,70,-123
7225,14,-265,0,-509,63,-129
7230,11,-264,0,-518,56,-132
7235,13,-263,-2,-527,51,-138
7240,14,-260,-3,-537,50,-142
7245,11,-261,-9,-550,50,-145
7250,12,-261,-11,-568,51,-148
7255,9,-257,-9,-589,54,-154
7260,15,-261,-14,-612,56,-157
7265,13,-259,-17,-633,58,-163
7270,12,-257,-17,-654,60,-167
7275,13,-261,-13,-673,59,-173
7280,13,-259,-16,-689,58,-178
7285,15,-264,-14,-701,54,-182
7290,11,-260,-13,-709,46,-183
7295,8,-263,-10,-712,37,-186
7300,13,-261,-12,-715,25,-185
7305,13,-263,-11,-717,15,-185
7310,17,-262,-10,-721,7,-184
7315,14,-263,-10,-727,1,-187
7320,14,-265,-14,-733,-4,-192
7325,16,-266,-13,-740,-8,-198
7330,15,-264,-15,-746,-13,-207
7335,16,-266,-23,-757,-17,-214
7340,18,-269,-27,-773,-18,-219
7345,16,-267,-29,-795,-13,-226
7350,19,-271,-34,-819,-8,-232
7355,17,-269,-38,-845,0,-237
7360,17,-273,-42,-871,5,-241
7365,19,-271,-43,-897,11,-246
7370,17,-276,-47,-918,9,-249
7375,19,-276,-45,-937,4,-246
7380,21,-279,-49,-952,-1,-242
7385,18,-278,-53,-966,-3,-236
7390,20,-280,-52,-984,-6,-226
7395,20,-275,-54,-1004,-8,-217
7400,21,-275,-56,-1035,-9,-208
7405,22,-274,-55,-1073,-16,-201
7410,21,-273,-55,-1114,-29,-193
7415,27,-275,-57,-1154,-41,-183
7420,28,-277,-59,-1192,-55,-173
7425,30,-274,-59,-1224,-65,-163
7430,31,-276,-63,-1250,-69,-152
7435,35,-278,-60,-1267,-66,-143
7440,39,-278,-65,-1273,-58,-135
7445,40,-283,-64,-1272,-45,-128
7450,40,-285,-62,-1263,-33,-121
7455,40,-284,-64,-1246,-19,-113
7460,44,-286,-65,-1222,-2,-108
7465,44,-287,-63,-1194,10,-104
7470,42,-286,-64,-1164,21,-95
7475,43,-286,-65,-1136,29,-86
7480,41,-284,-71,-1105,34,-78
7485,42,-286,-67,-1075,39,-70
7490,46,-284,-72,-1043,40,-65
7495,45,-282,-75,-1008,40,-60
7500,48,-283,-71,-964,40,-58
7505,42,-284,-75,-914,42,-58
7510,40,-280,-77,-862,47,-54
7515,40,-279,-79,-808,51,-50
7520,41,-282,-83,-753,55,-49
7525,38,-278,-84,-698,57,-46
7530,37,-272,-89,-655,56,-45
7535,35,-268,-96,-624,50,-41
7540,33,-266,-98,-604,45,-37
7545,33,-261,-102,-590,36,-33
7550,31,-260,-105,-582,25,-31
7555,32,-254,-100,-575,12,-27
7560,32,-257,-104,-568,1,-26
7565,32,-256,-106,-557,-5,-27
7570,31,-255,-104,-544,-5,-30
7575,36,-256,-108,-526,0,-29
7580,34,-255,-106,-506,7,-29
7585,36,-255,-101,-483,19,-30
7590,32,-255,-102,-459,36,-33
7595,36,-252,-102,-434,51,-34
7600,34,-253,-101,-412,61,-36
7605,35,-251,-100,-394,67,-35
7610,37,-252,-98,-381,65,-33
7615,37,-251,-98,-376,55,-32
7620,39,-251,-98,-372,43,-32
7625,34,-250,-100,-367,31,-29
7630,38,-252,-102,-361,23,-24
7635,39,-247,-106,-358,19,-22
7640,37,-252,-107,-360,18,-20
7645,41,-246,-106,-364,22,-19
7650,39,-247,-111,-372,30,-18
7655,40,-248,-111,-381,39,-17
7660,41,-245,-106,-389,51,-16
7665,40,-244,-113,-396,58,-14
7670,38,-246,-114,-400,61,-12
7675,36,-243,-114,-405,59,-11
7680,38,-248,-115,-410,54,-8
7685,34,-244,-116,-415,44,-5
7690,35,-248,-115,-422,34,-1
7695,35,-246,-118,-432,23,3
7700,31,-246,-113,-440,15,6
7705,30,-248,-117,-451,7,10
7710,31,-248,-119,-459,3,17
7715,31,-244,-115,-469,1,24
7720,29,-242,-117,-481,1,27
7725,27,-242,-123,-490,5,30
7730,30,-243,-123,-499,9,34
7735,27,-244,-124,-508,13,36
7740,28,-246,-123,-510,15,38
7745,30,-246,-125,-510,15,37
7750,27,-248,-125,-503,13,37
7755,27,-249,-119,-491,10,42
7760,27,-251,-120,-474,6,46
7765,30,-251,-120,-453,4,51
7770,33,-247,-124,-434,6,52
7775,33,-249,-124,-417,12,49
7780,34,-248,-121,-402,24,50
7785,34,-248,-124,-393,39,52
7790,35,-248,-124,-386,54,52
7795,34,-247,-127,-384,69,49
7800,35,-245,-127,-384,81,45
7805,37,-247,-125,-388,90,45
7810,35,-244,-125,-394,90,42
7815,35,-241,-129,-405,89,44
7820,35,-242,-125,-418,85,47
7825,36,-239,-130,-432,78,50
7830,36,-243,-125,-446,70,53
7835,35,-241,-128,-460,66,56
7840,34,-240,-130,-471,60,60
7845,36,-242,-132,-481,54,61
7850,35,-241,-130,-493,48,61
7855,34,-239,-127,-499,49,59
7860,31,-239,-126,-503,52,61
7865,32,-244,-125,-502,54,68
7870,32,-243,-126,-498,58,77
7875,30,-242,-125,-491,60,74
7880,31,-243,-118,-476,66,79
7885,29,-242,-125,-458,72,83
7890,27,-241,-127,-438,79,85
7895,26,-238,-131,-410,90,90
7900,29,-240,-129,-385,95,100
7905,31,-238,-129,-362,95,103
7910,29,-236,-128,-342,94,102
7915,28,-236,-129,-319,89,104
7920,32,-238,-128,-298,83,109
7925,26,-237,-131,-279,78,107
7930,31,-240,-132,-264,73,107
7935,29,-240,-130,-247,69,113
7940,29,-238,-132,-230,69,115
7945,27,-236,-130,-216,68,112
7950,29,-239,-132,-199,72,116
7955,25,-238,-135,-185,77,115
7960,28,-237,-138,-164,83,114
7965,29,-241,-131,-143,87,112
7970,26,-241,-136,-121,92,111
7975,28,-239,-132,-100,97,111
7980,22,-239,-133,-78,99,109
7985,24,-241,-130,-54,100,109
7990,28,-245,-131,-28,100,104
7995,22,-240,-129,1,100,97
8000,18,-242,-128,33,99,98
8005,21,-243,-126,68,96,99
8010,18,-242,-124,102,91,102
8015,18,-243,-127,138,82,102
8020,17,-242,-124,174,75,105
8025,17,-242,-126,213,67,110
8030,14,-240,-123,252,59,112
8035,16,-243,-125,293,56,114
8040,15,-235,-126,337,54,118
8045,13,-234,-121,385,56,124
8050,14,-235,-124,433,59,132
8055,17,-232,-126,477,59,136
8060,12,-227,-123,517,55,132
8065,15,-227,-124,554,49,133
8070,13,-221,-123,583,44,136
8075,15,-216,-127,605,38,137
8080,15,-219,-126,617,35,139
8085,16,-214,-121,623,32,140
8090,16,-209,-122,622,30,141
8095,17,-217,-122,615,33,141
8100,19,-208,-122,605,37,140
8105,17,-206,-118,594,43,140
8110,19,-207,-121,582,47,137
8115,18,-206,-119,572,47,134
8120,16,-204,-116,562,45,132
8125,17,-205,-114,554,38,130
8130,19,-208,-114,547,29,127
8135,18,-207,-113,542,22,124
8140,18,-207,-112,536,13,120
8145,18,-206,-112,532,6,119
8150,17,-206,-114,527,1,116
8155,15,-206,-109,523,-5,114
8160,15,-204,-112,520,-6,114
8165,16,-207,-110,515,-5,112
8170,13,-203,-113,510,-4,112
8175,18,-206,-111,503,-2,109
8180,14,-205,-112,501,2,107
8185,17,-203,-108,498,6,109
8190,14,-202,-111,496,7,113
8195,14,-205,-110,494,9,111
8200,18,-204,-110,491,6,113
8205,20,-206,-113,487,4,111
8210,18,-205,-109,483,6,107
8215,19,-204,-107,482,4,105
8220,21,-201,-105,482,0,103
8225,18,-201,-104,482,-3,101
8230,20,-201,-102,484,-6,99
8235,20,-201,-106,485,-8,96
8240,18,-199,-103,483,-8,92
8245,18,-201,-102,478,-4,90
8250,19,-200,-101,473,1,87
8255,17,-200,-99,466,7,82
8260,14,-196,-95,459,12,80
8265,14,-196,-96,453,13,79
8270,17,-195,-98,450,11,82
8275,18,-196,-98,446,8,84
8280,15,-198,-94,447,4,83
8285,14,-194,-97,444,0,85
8290,16,-196,-93,442,-2,88
8295,14,-196,-92,438,-5,88
8300,13,-192,-92,434,-8,87
8305,13,-193,-91,426,-13,88
8310,13,-193,-90,418,-15,89
8315,9,-198,-89,410,-16,91
8320,14,-196,-93,397,-13,92
8325,12,-197,-93,384,-7,93
8330,11,-196,-95,373,1,91
8335,12,-198,-93,359,10,91
8340,11,-201,-97,346,17,90
8345,12,-203,-95,329,21,88
8350,18,-207,-92,316,23,84
8355,15,-208,-92,304,21,82
8360,11,-204,-91,295,20,77
8365,16,-214,-91,291,17,78
8370,15,-211,-90,288,16,76
8375,16,-215,-91,287,18,74
8380,16,-216,-91,285,26,73
8385,19,-216,-88,288,30,71
8390,18,-215,-87,290,34,71
8395,19,-214,-89,294,36,70
8400,17,-215,-89,296,39,69
8405,16,-213,-88,298,41,70
8410,18,-216,-88,296,42,70
8415,16,-208,-83,293,41,69
8420,17,-215,-82,292,41,76
8425,18,-216,-91,277,38,69
8430,16,-212,-90,264,34,68
8435,17,-215,-85,251,34,68
8440,19,-217,-85,240,35,67
8445,20,-215,-81,231,44,67
8450,17,-216,-82,226,52,67
8455,17,-216,-80,223,62,67
8460,16,-220,-84,217,69,68
8465,15,-220,-82,204,72,60
8470,14,-221,-84,198,73,58
8475,11,-222,-86,194,70,59
8480,14,-223,-86,189,67,59
8485,10,-217,-83,184,67,60
8490,15,-227,-87,177,69,68
8495,9,-227,-88,158,70,61
8500,9,-228,-86,147,70,60
8505,10,-233,-89,145,68,61
8510,8,-234,-86,147,64,62
8515,11,-234,-90,150,60,67
8520,8,-236,-87,143,54,64
8525,8,-236,-85,137,48,59
8530,7,-240,-90,140,47,60
8535,8,-235,-89,148,45,61
8540,5,-239,-90,159,47,61
8545,7,-237,-86,167,51,62
8550,7,-232,-87,171,54,65
8555,8,-239,-92,176,57,73
8560,4,-236,-87,167,60,67
8565,6,-237,-86,160,61,67
8570,5,-233,-86,156,63,67
8575,5,-232,-86,155,62,68
8580,5,-233,-88,151,62,67
8585,7,-233,-88,145,64,66
8590,5,-232,-88,138,65,64
8595,6,-237,-86,128,69,62
8600,9,-235,-86,121,72,58
8605,7,-236,-86,111,75,55
8610,7,-238,-87,103,76,50
8615,7,-237,-83,98,77,46
8620,6,-238,-81,93,74,41
8625,9,-240,-85,89,72,32
8630,8,-242,-85,86,68,29
8635,4,-241,-78,85,65,24
8640,6,-236,-86,85,60,22
8645,4,-239,-79,86,58,20
8650,4,-248,-83,87,58,20
8655,4,-243,-76,89,60,17
8660,2,-243,-82,87,63,16
8665,4,-247,-82,85,65,17
8670,4,-248,-82,82,67,15
8675,4,-244,-82,81,68,17
8680,4,-246,-85,78,67,16
8685,3,-246,-79,78,64,19
8690,4,-242,-79,78,60,19
8695,4,-243,-80,80,57,22
8700,3,-241,-82,79,51,23
8705,3,-241,-77,80,45,25
8710,4,-239,-79,79,41,27
8715,3,-237,-75,74,38,28
8720,2,-240,-78,69,35,28
8725,4,-237,-73,62,35,26
8730,4,-240,-77,54,36,25
8735,3,-244,-74,43,32,22
8740,5,-240,-75,33,30,18
8745,4,-243,-75,23,27,14
8750,4,-248,-79,12,21,11
8755,4,-251,-74,-2,16,6
8760,1,-249,-76,-16,15,4
8765,2,-251,-81,-28,17,3
8770,4,-252,-78,-37,21,1
8775,1,-253,-82,-40,27,2
8780,4,-255,-79,-36,34,3
8785,3,-251,-82,-27,40,5
8790,2,-251,-83,-13,45,7
8795,3,-246,-82,0,48,7
8800,4,-246,-85,9,46,8
8805,4,-246,-83,16,46,9
8810,4,-245,-81,18,45,8
8815,4,-240,-79,17,43,8
8820,4,-242,-77,15,40,8
8825,4,-242,-81,12,37,7
8830,5,-242,-78,5,35,6
8835,4,-241,-78,2,33,4
8840,3,-242,-77,-3,31,5
8845,4,-243,-80,-5,29,4
8850,4,-245,-74,-10,28,2
8855,4,-246,-79,-15,30,-1
8860,6,-246,-76,-19,32,-2
8865,4,-251,-75,-26,35,-5
8870,4,-250,-73,-35,36,-6
8875,5,-249,-74,-44,38,-9
8880,4,-253,-71,-49,37,-11
8885,4,-254,-70,-51,37,-12
8890,4,-254,-70,-52,36,-13
8895,5,-254,-69,-52,38,-14
8900,4,-255,-75,-52,41,-17
8905,1,-254,-73,-53,48,-16
8910,6,-255,-73,-51,53,-15
8915,2,-251,-78,-49,57,-14
8920,5,-250,-78,-46,62,-13
8925,4,-250,-81,-41,60,-13
8930,3,-250,-80,-37,57,-11
8935,4,-251,-76,-30,53,-10
8940,2,-244,-74,-24,47,-9
8945,4,-247,-77,-19,42,-8
8950,3,-245,-73,-20,39,-11
8955,2,-246,-76,-18,35,-10
8960,4,-245,-81,-18,32,-10
8965,6,-246,-74,-16,29,-11
8970,6,-246,-84,-16,29,-12
8975,3,-244,-75,-14,29,-11
8980,2,-246,-75,-16,29,-11
8985,3,-247,-78,-18,31,-12
8990,2,-246,-77,-23,34,-13
8995,1,-247,-75,-27,37,-15
9000,4,-250,-72,-31,40,-17
9005,3,-250,-71,-34,41,-18
9010,1,-253,-72,-35,41,-19
9015,4,-254,-72,-33,40,-20
9020,4,-253,-70,-32,40,-21
9025,2,-252,-72,-30,42,-22
9030,4,-255,-73,-27,45,-23
9035,1,-255,-72,-24,48,-22
9040,3,-254,-73,-20,51,-22
9045,1,-255,-74,-13,52,-21
9050,4,-253,-74,-5,52,-21
9055,-1,-254,-71,2,49,-23
9060,2,-253,-69,8,48,-23
9065,2,-252,-70,12,43,-21
9070,2,-251,-71,14,40,-21
9075,2,-250,-74,14,36,-21
9080,-1,-250,-71,13,35,-21
9085,4,-251,-73,10,34,-20
9090,4,-251,-68,7,36,-19
9095,3,-253,-69,6,38,-18
9100,4,-253,-71,6,39,-17
9105,1,-252,-71,6,40,-16
9110,-1,-251,-70,7,41,-15
9115,2,-252,-67,8,41,-15
9120,0,-251,-74,9,41,-14
9125,1,-250,-69,6,39,-14
9130,4,-250,-69,4,38,-14
9135,2,-250,-70,0,36,-14
9140,3,-247,-72,-4,33,-13
9145,0,-245,-71,-11,30,-14
9150,3,-250,-75,-16,25,-16
9155,2,-253,-69,-18,24,-16
9160,0,-248,-70,-20,22,-17
9165,2,-248,-70,-19,24,-18
9170,4,-250,-71,-18,25,-18
9175,2,-247,-67,-17,27,-19
9180,1,-246,-75,-17,29,-20
9185,-2,-249,-68,-16,29,-19
9190,3,-248,-68,-18,32,-18
9195,4,-250,-72,-20,33,-18
9200,0,-251,-71,-22,35,-16
9205,4,-252,-75,-23,39,-16
9210,3,-251,-77,-23,45,-15
9215,3,-252,-70,-24,48,-15
9220,5,-252,-73,-25,51,-14
9225,4,-252,-66,-26,49,-14
9230,2,-251,-68,-28,46,-12
9235,4,-253,-71,-30,44,-10
9240,4,-252,-71,-31,43,-8
9245,4,-251,-70,-33,42,-9
9250,3,-247,-68,-34,41,-6
9255,6,-248,-70,-34,40,-5
9260,5,-250,-69,-35,40,-3
9265,5,-250,-68,-36,40,-1
9270,4,-249,-69,-39,43,-1
9275,6,-249,-69,-39,47,0
9280,6,-249,-68,-42,50,1
9285,6,-252,-71,-46,54,1
9290,7,-253,-70,-49,57,3
9295,5,-252,-69,-52,62,1
9300,4,-251,-69,-56,63,0
9305,7,-254,-70,-59,64,2
9310,6,-250,-67,-63,64,0
9315,4,-252,-75,-66,63,0
9320,1,-253,-72,-70,61,-1
9325,4,-253,-76,-72,60,-2
9330,4,-252,-73,-74,61,-2
9335,3,-255,-69,-76,61,1
9340,5,-250,-75,-77,65,0
9345,6,-256,-74,-75,67,0
9350,5,-254,-75,-68,72,2
9355,5,-255,-75,-58,75,1
9360,4,-252,-74,-44,78,1
9365,4,-252,-77,-36,80,1
9370,5,-253,-76,-21,81,0
9375,6,-249,-77,-10,83,-1
9380,4,-248,-76,-3,81,0
9385,5,-247,-74,3,82,1
9390,3,-250,-74,5,82,2
9395,8,-248,-72,6,83,2
9400,4,-249,-74,5,84,0
9405,5,-247,-71,2,85,1
9410,4,-247,-71,-1,85,2
9415,5,-250,-72,-3,85,0
9420,5,-251,-69,-2,84,0
9425,8,-250,-68,0,80,1
9430,5,-251,-70,1,78,0
9435,7,-250,-69,3,76,-1
9440,5,-252,-68,5,74,-3
9445,5,-252,-70,8,74,-2
9450,4,-251,-69,10,75,-2
9455,4,-252,-70,11,77,-1
9460,6,-248,-67,10,79,-1
9465,6,-252,-73,9,82,0
9470,4,-253,-66,6,84,0
9475,4,-250,-69,6,83,-1
9480,5,-255,-70,6,83,0
9485,5,-252,-66,6,83,0
9490,4,-253,-70,7,83,1
9495,5,-250,-71,5,83,1
9500,6,-254,-70,5,84,3
9505,4,-253,-69,6,82,2
9510,6,-252,-75,9,81,2
9515,6,-253,-68,9,80,3
9520,4,-250,-68,10,82,4
9525,4,-251,-70,9,84,6
9530,6,-251,-71,10,84,6
9535,6,-252,-69,9,87,6
9540,8,-252,-72,9,90,6
9545,6,-253,-71,8,92,7
9550,9,-252,-70,4,94,7
9555,5,-249,-70,2,95,6
9560,4,-252,-68,-1,96,5
9565,6,-251,-70,-5,97,5
9570,7,-253,-68,-6,96,6
9575,7,-253,-70,-6,94,5
9580,6,-255,-70,-2,93,4
9585,5,-252,-72,1,91,2
9590,4,-247,-69,4,88,2
9595,5,-253,-69,7,86,2
9600,6,-249,-68,8,85,2
9605,5,-253,-70,7,84,1
9610,4,-251,-71,6,82,0
9615,4,-253,-72,3,82,0
9620,5,-248,-72,2,85,0
9625,3,-252,-70,2,88,-1
9630,4,-254,-71,4,89,-1
9635,4,-255,-73,6,92,-1
9640,4,-253,-73,9,91,-1
9645,4,-252,-70,13,91,-1
9650,4,-250,-69,13,90,0
9655,6,-254,-71,13,90,-1
9660,5,-252,-71,13,91,1
9665,4,-251,-70,11,92,1
9670,5,-254,-76,11,93,1
9675,4,-254,-72,13,95,1
9680,4,-251,-67,17,96,3
9685,6,-254,-72,21,93,2
9690,4,-249,-71,25,92,3
9695,5,-250,-71,27,92,5
9700,4,-251,-70,27,93,6
9705,5,-252,-68,26,94,4
9710,6,-247,-71,23,98,6
9715,3,-247,-70,21,101,5
9720,4,-249,-66,20,101,5
9725,7,-253,-71,18,103,4
9730,5,-250,-68,18,104,5
9735,6,-251,-67,18,103,4
9740,6,-251,-68,19,105,2
9745,5,-252,-70,21,106,2
9750,4,-251,-71,22,107,3
9755,4,-252,-70,23,110,3
9760,4,-249,-74,22,113,4
9765,2,-252,-69,22,113,4
9770,4,-252,-67,20,114,4
9775,4,-250,-68,19,113,4
9780,4,-250,-66,19,112,4
9785,4,-252,-70,18,112,4
9790,4,-251,-70,16,109,4
9795,4,-252,-69,15,109,4
9800,3,-254,-70,11,109,5
9805,5,-252,-68,8,108,7
9810,4,-253,-72,7,106,8
9815,4,-250,-68,6,105,7
9820,2,-253,-69,8,104,7
9825,4,-253,-68,10,103,6
9830,3,-252,-70,11,102,6
9835,4,-252,-70,13,100,8
9840,3,-253,-74,14,100,7
9845,5,-254,-69,16,101,6
9850,5,-252,-70,18,100,5
9855,4,-252,-70,19,100,4
9860,4,-251,-71,19,99,4
9865,4,-248,-66,19,98,5
9870,2,-250,-68,18,96,5
9875,4,-252,-70,16,93,6
9880,4,-249,-67,14,91,5
9885,4,-250,-71,12,93,4
9890,6,-253,-69,10,93,5
9895,5,-251,-67,7,95,5
9900,4,-251,-69,5,95,5
9905,5,-250,-68,2,95,5
9910,4,-251,-71,2,94,5
9915,3,-249,-70,0,96,5
9920,5,-252,-71,-2,97,7
9925,4,-248,-67,-2,98,5
9930,4,-252,-70,-1,101,6
9935,3,-252,-72,0,102,6
9940,4,-252,-69,-1,103,5
9945,2,-249,-70,-2,104,4
9950,6,-248,-70,-3,102,4
9955,4,-251,-72,-5,100,4
9960,4,-254,-74,-7,95,4
9965,3,-250,-71,-7,94,4
9970,2,-251,-70,-8,92,3
9975,4,-251,-70,-9,93,2
9980,3,-251,-73,-10,94,2
9985,4,-251,-71,-11,97,1
9990,4,-251,-71,-12,97,1
9995,4,-250,-72,-9,96,1
10000,4,-250,-72,-6,92,0
10005,4,-251,-70,-1,89,1
10010,4,-251,-70,2,86,1
10015,4,-251,-71,3,83,0
10020,7,-250,-75,3,84,1
10025,3,-250,-74,0,85,-1
10030,4,-251,-72,-4,86,-1
10035,4,-249,-70,-7,88,-3
10040,4,-249,-70,-8,86,-2
10045,5,-253,-68,-6,84,-1
10050,2,-252,-66,-6,81,-3
10055,4,-252,-68,-2,80,-5
10060,3,-253,-66,0,81,-4
10065,4,-255,-69,-1,82,-4
10070,4,-253,-71,0,83,-4
10075,4,-253,-70,0,84,-5
10080,4,-255,-67,0,85,-5
10085,4,-249,-66,0,87,-4
10090,1,-250,-66,-1,89,-4
10095,4,-252,-67,0,87,-4
10100,4,-251,-67,0,86,-3
10105,4,-251,-68,2,88,-3
10110,4,-253,-68,1,88,-3
10115,1,-252,-67,1,91,-3
10120,5,-252,-67,0,94,-2
10125,3,-251,-67,-1,96,-3
10130,3,-253,-69,-1,96,-2
10135,4,-256,-67,0,97,-3
10140,1,-252,-68,0,96,-2
10145,2,-253,-70,-2,96,-2
10150,4,-251,-69,-4,94,-3
10155,1,-250,-69,-6,91,-4
10160,4,-251,-66,-7,88,-3
10165,4,-250,-76,-9,85,-3
10170,-21,-254,-77,-12,83,-3
10175,4,-252,-87,-16,82,-4
10180,6,-246,-59,-20,84,-4
10185,-6,-259,-72,-21,82,-3
10190,10,-249,-67,-22,81,-4
10195,4,-255,-72,-22,83,-3
10200,6,-251,-80,-21,80,-3
10205,5,-253,-66,-19,79,-2
10210,4,-250,-69,-16,78,-2
10215,5,-260,-57,-14,77,-3
10220,4,-252,-69,-12,75,-3
10225,4,-251,-65,-11,76,-4
10230,4,-250,-70,-12,77,-5
10235,4,-253,-71,-13,76,-6
10240,5,-254,-68,-15,75,-5
10245,6,-255,-66,-17,75,-7
10250,2,-249,-69,-18,74,-7
10255,3,-252,-68,-19,73,-9
10260,4,-252,-67,-17,73,-8
10265,7,-250,-74,-18,72,-8
10270,4,-248,-67,-17,74,-9
10275,6,-253,-66,-18,77,-10
10280,1,-251,-69,-18,77,-9
10285,-2,-253,-58,-18,78,-9
10290,-3,-254,-69,-17,78,-8
10295,5,-251,-69,-16,77,-7
10300,4,-253,-67,-15,75,-7
10305,4,-252,-73,-12,76,-6
10310,4,-250,-68,-10,75,-5
10315,8,-243,-79,-10,77,-6
10320,8,-254,-74,-10,77,-4
10325,5,-251,-68,-11,76,-3
10330,1,-258,-56,-10,76,-2
10335,11,-252,-57,-11,74,-2
10340,12,-252,-90,-11,73,-1
10345,0,-247,-58,-12,72,0
10350,18,-251,-76,-12,71,-1
10355,7,-253,-87,-11,72,-1
10360,4,-256,-71,-11,72,0
10365,12,-241,-69,-12,74,-1
10370,5,-250,-68,-11,75,-1
10375,6,-251,-66,-12,76,-3
10380,4,-249,-69,-13,77,-4
10385,4,-252,-69,-14,79,-5
10390,6,-244,-79,-15,81,-6
10395,3,-250,-67,-16,83,-6
10400,2,-249,-70,-18,85,-7
10405,4,-257,-71,-19,86,-7
10410,4,-251,-70,-20,86,-6
10415,7,-249,-62,-20,86,-8
10420,2,-243,-68,-20,86,-8
10425,1,-248,-70,-20,83,-7
10430,6,-257,-67,-18,80,-8
10435,6,-254,-82,-18,79,-8
10440,-5,-251,-69,-16,80,-6
10445,2,-250,-69,-15,82,-6
10450,4,-254,-71,-16,83,-5
10455,4,-252,-71,-17,85,-4
10460,4,-253,-68,-16,88,-4
10465,4,-253,-70,-16,87,-3
10470,14,-247,-69,-13,87,-4
10475,4,-245,-71,-12,85,-4
10480,4,-248,-73,-12,87,-6
10485,2,-256,-65,-9,87,-4
10490,8,-241,-82,-10,87,-5
10495,10,-255,-54,-9,87,-6
10500,0,-260,-73,-9,89,-5
10505,7,-250,-57,-9,91,-5
10510,9,-254,-75,-9,91,-5
10515,11,-244,-77,-8,91,-5
10520,10,-239,-62,-7,91,-5
10525,4,-249,-69,-5,92,-5
10530,4,-253,-71,-5,93,-6
10535,1,-251,-71,-5,95,-6
10540,4,-252,-70,-5,93,-7
10545,5,-253,-69,-5,95,-6
10550,7,-247,-63,-5,93,-4
10555,2,-253,-66,-6,93,-3
10560,9,-240,-71,-5,94,-3
10565,1,-251,-76,-4,93,-3
10570,15,-255,-64,-4,92,-4
10575,7,-254,-61,-6,91,-2
10580,-4,-256,-70,-8,92,-3
10585,9,-256,-74,-9,91,-2
10590,9,-242,-68,-10,92,-2
10595,4,-244,-67,-13,92,-2
10600,4,-253,-69,-15,95,-3
10605,4,-253,-71,-13,94,-1
10610,4,-251,-72,-13,93,-3
10615,4,-247,-75,-10,94,-4
10620,-1,-261,-72,-7,92,-4
10625,4,-247,-59,-5,91,-3
10630,2,-253,-70,-3,90,-3
10635,4,-255,-71,-1,90,-4
10640,-4,-255,-83,-1,89,-5
10645,4,-251,-70,-2,89,-4
10650,5,-250,-68,-2,88,-5
10655,5,-251,-69,-4,88,-8
10660,4,-251,-67,-3,87,-6
10665,7,-254,-71,-5,89,-7
10670,6,-254,-67,-6,90,-6
10675,4,-251,-68,-5,90,-6
10680,5,-248,-71,-5,92,-6
10685,8,-252,-70,-6,92,-6
10690,6,-250,-75,-7,93,-6
10695,3,-254,-68,-9,94,-6
10700,5,-252,-69,-9,94,-6
10705,5,-252,-75,-8,93,-6
10710,5,-252,-68,-7,93,-4
10715,6,-254,-70,-7,92,-6
10720,4,-253,-68,-6,91,-5
10725,6,-252,-72,-4,92,-3
10730,6,-253,-73,-1,94,-1
10735,4,-252,-75,0,97,-2
10740,4,-253,-68,1,101,-2
10745,6,-255,-71,5,101,-2
10750,6,-251,-71,8,102,-1
10755,5,-251,-67,9,102,-2
10760,4,-253,-76,8,102,-1
10765,6,-254,-68,6,105,-2
10770,6,-253,-68,6,105,-2
10775,5,-252,-64,6,107,-2
10780,5,-252,-71,6,107,-2
10785,5,-253,-72,7,107,-3
10790,5,-254,-67,8,106,-4
10795,9,-251,-70,9,107,-3
10800,5,-252,-70,10,105,-1
10805,5,-250,-68,11,106,-3
10810,5,-251,-69,15,104,-2
10815,4,-249,-73,16,106,-2
10820,5,-252,-69,17,107,-2
10825,4,-250,-73,16,107,-1
10830,4,-251,-70,15,108,0
10835,4,-252,-77,14,107,-1
10840,4,-251,-76,14,107,0
10845,4,-250,-69,17,109,1
10850,5,-254,-73,17,110,1
10855,6,-253,-67,18,110,2
10860,5,-252,-72,19,111,3
10865,5,-248,-70,19,109,3
10870,10,-249,-75,21,110,3
10875,8,-251,-69,22,110,3
10880,5,-251,-68,22,109,4
10885,5,-255,-66,26,108,4
10890,4,-252,-67,29,109,4
10895,4,-253,-68,31,112,5
10900,5,-251,-70,31,113,5
10905,6,-252,-68,30,115,5
10910,4,-253,-70,27,114,6
10915,5,-253,-69,25,117,7
10920,4,-253,-64,23,119,7
10925,4,-250,-71,22,121,6
10930,8,-251,-69,20,123,6
10935,7,-254,-70,21,124,8
10940,7,-253,-66,23,124,7
10945,5,-253,-70,25,124,7
10950,6,-253,-67,27,122,5
10955,4,-255,-69,27,120,5
10960,5,-250,-66,27,119,4
10965,5,-250,-67,26,116,5
10970,4,-252,-69,25,115,4
10975,6,-250,-68,22,111,6
10980,5,-253,-68,19,110,4
10985,4,-250,-70,16,108,5
10990,4,-252,-70,13,107,6
10995,7,-253,-75,11,107,6
11000,5,-254,-70,9,109,6
11005,5,-252,-67,10,110,5
11010,5,-253,-70,11,111,5
11015,5,-253,-69,14,110,7
11020,3,-252,-70,16,109,6
11025,4,-253,-67,17,109,6
11030,6,-254,-71,18,105,4
11035,4,-253,-71,21,105,5
11040,7,-251,-69,20,103,5
11045,5,-252,-68,20,103,3
11050,5,-252,-64,18,100,3
11055,6,-252,-65,19,98,4
11060,6,-250,-69,21,98,3
11065,6,-253,-70,23,99,3
11070,5,-251,-69,26,99,3
11075,8,-254,-66,27,101,3
11080,6,-252,-65,26,102,2
11085,7,-251,-67,26,103,3
11090,5,-249,-63,24,104,2
11095,5,-250,-67,21,105,1
11100,6,-251,-65,19,104,0
11105,5,-249,-66,19,104,1
11110,4,-251,-67,18,102,1
11115,5,-250,-65,18,101,1
11120,8,-252,-65,18,102,2
11125,8,-253,-64,16,102,1
11130,5,-251,-66,13,101,1
11135,6,-249,-67,12,100,2
11140,5,-253,-65,8,99,3
11145,6,-253,-68,4,98,3
11150,4,-247,-67,-1,97,3
11155,7,-254,-67,-7,96,4
11160,5,-252,-69,-11,93,5
11165,6,-252,-70,-13,91,5
11170,5,-251,-71,-15,87,5
11175,7,-253,-66,-13,84,3
11180,6,-254,-66,-10,84,4
11185,7,-251,-67,-7,85,3
11190,6,-254,-66,-3,87,3
11195,5,-248,-70,0,88,4
11200,7,-255,-67,1,89,3
11205,4,-253,-71,0,88,3
11210,4,-251,-66,-1,88,3
11215,7,-254,-66,0,88,2
11220,6,-252,-65,-1,89,3
11225,6,-252,-65,-1,89,1
11230,7,-253,-70,0,90,1
11235,6,-253,-67,0,91,0
11240,5,-250,-64,0,91,0
11245,5,-252,-67,-1,91,0
11250,4,-253,-64,-1,90,0
11255,11,-253,-72,-3,90,0
11260,8,-251,-65,-6,90,0
11265,7,-252,-65,-10,90,-1
11270,7,-253,-64,-13,89,2
11275,6,-249,-66,-19,90,1
11280,6,-252,-66,-23,90,1
11285,8,-254,-66,-25,91,1
11290,6,-253,-64,-27,91,0
11295,6,-255,-66,-27,92,0
11300,6,-254,-65,-27,90,1
11305,9,-255,-66,-25,92,0
11310,5,-254,-65,-24,93,0
11315,8,-254,-65,-20,94,0
11320,7,-254,-66,-17,94,1
11325,6,-254,-65,-14,96,1
11330,6,-253,-65,-11,99,3
11335,6,-251,-67,-10,99,3
11340,5,-252,-68,-10,96,4
11345,6,-252,-68,-10,94,5
11350,8,-254,-65,-11,93,5
11355,5,-253,-64,-11,93,7
11360,9,-255,-66,-10,95,7
11365,9,-252,-64,-9,95,8
11370,8,-253,-65,-8,95,7
11375,7,-252,-65,-8,94,9
11380,6,-251,-65,-8,93,9
11385,10,-253,-67,-9,92,10
11390,6,-251,-66,-9,92,9
11395,7,-252,-66,-8,93,8
11400,6,-251,-65,-6,93,8
11405,5,-252,-67,-8,94,8
11410,5,-252,-64,-6,94,9
11415,5,-249,-66,-6,95,9
11420,6,-252,-64,-8,96,8
11425,5,-253,-67,-10,97,7
11430,5,-253,-65,-14,97,7
11435,6,-252,-69,-16,96,7
11440,4,-253,-65,-20,94,5
11445,5,-252,-63,-23,94,5
11450,6,-255,-65,-23,91,5
11455,5,-255,-64,-21,92,6
11460,7,-253,-64,-19,90,4
11465,6,-254,-65,-17,91,3
11470,4,-255,-67,-13,90,2
11475,11,-254,-56,-8,89,0
11480,5,-254,-66,-2,87,1
11485,5,-254,-65,1,86,2
11490,5,-253,-65,5,82,1
11495,7,-255,-66,6,80,2
11500,5,-254,-65,6,79,3
11505,5,-254,-65,5,79,2
11510,4,-254,-65,6,79,3
11515,6,-255,-64,7,76,3
11520,4,-252,-64,8,76,3
11525,6,-254,-64,10,76,3
11530,7,-255,-66,9,75,2
11535,6,-254,-64,9,76,3
11540,5,-254,-63,9,75,3
11545,7,-253,-64,10,73,2
11550,5,-253,-64,9,73,1
11555,4,-251,-65,7,73,2
11560,7,-253,-63,7,74,1
11565,6,-252,-62,4,75,1
11570,7,-251,-62,2,75,-1
11575,7,-255,-63,1,75,-1
11580,8,-254,-60,2,74,0
11585,9,-261,-54,-1,72,2
11590,4,-254,-63,-2,71,0
11595,6,-257,-62,-3,69,0
11600,4,-255,-62,-2,69,1
11605,4,-254,-64,-1,69,-1
11610,4,-254,-64,-2,71,1
11615,7,-255,-64,-2,73,0
11620,6,-256,-65,-1,74,0
11625,4,-253,-66,1,75,0
11630,6,-253,-62,1,78,1
11635,6,-252,-65,2,78,0
11640,5,-253,-63,2,77,1
11645,7,-256,-63,0,77,1
11650,4,-256,-68,-1,78,0
11655,6,-255,-66,-2,77,0
11660,5,-252,-65,-3,74,0
11665,5,-253,-66,-3,70,0
11670,4,-252,-65,0,66,1
11675,4,-252,-65,0,65,1
11680,5,-253,-63,0,63,2
11685,2,-253,-68,2,62,1
11690,0,-251,-66,3,61,2
11695,8,-255,-67,5,63,2
11700,8,-255,-70,6,65,3
11705,5,-250,-65,5,70,3
11710,7,-253,-65,4,73,5
11715,5,-253,-65,3,76,5
11720,5,-253,-68,1,74,4
11725,4,-254,-65,0,73,5
11730,6,-252,-61,-4,71,3
11735,6,-256,-64,-7,71,4
11740,8,-254,-65,-9,69,3
11745,6,-255,-61,-9,72,2
11750,6,-256,-67,-10,74,3
11755,5,-252,-62,-10,75,3
11760,4,-255,-63,-10,76,2
11765,5,-252,-64,-10,75,2
11770,6,-253,-64,-9,76,3
11775,5,-254,-64,-6,75,2
11780,4,-253,-61,-5,77,1
11785,4,-253,-63,-2,77,1
11790,4,-254,-62,1,79,1
11795,4,-254,-67,3,76,1
11800,4,-256,-70,5,75,2
11805,5,-254,-59,6,74,2
11810,4,-254,-63,7,73,3
11815,5,-254,-63,7,71,2
11820,6,-254,-65,4,71,1
11825,4,-253,-63,2,69,3
11830,5,-251,-65,-1,66,3
11835,7,-252,-66,-5,66,3
11840,4,-252,-62,-7,67,2
11845,6,-253,-62,-9,67,2
11850,7,-255,-66,-11,68,0
11855,5,-253,-66,-12,68,0
11860,4,-251,-66,-11,68,-1
11865,5,-253,-67,-11,67,1
11870,5,-255,-65,-9,67,1
11875,6,-254,-64,-8,67,0
11880,7,-255,-64,-6,67,1
11885,5,-254,-64,-5,68,0
11890,4,-255,-62,-3,70,2
11895,4,-253,-64,-3,67,1
11900,5,-252,-63,-3,68,1
11905,5,-253,-63,-3,69,2
11910,4,-250,-57,-2,69,2
11915,6,-253,-64,0,69,0
11920,7,-255,-64,3,68,0
11925,8,-254,-63,6,68,0
11930,6,-254,-62,7,68,0
11935,5,-253,-63,7,70,-1
11940,4,-253,-62,6,71,-1
11945,5,-252,-62,6,70,-1
11950,4,-251,-63,3,68,-1
11955,4,-255,-62,3,66,-1
11960,6,-255,-62,2,64,-3
11965,3,-254,-63,0,61,-2
11970,5,-255,-64,-2,61,-4
11975,4,-253,-66,0,60,-3
11980,4,-253,-60,-1,58,-4
11985,7,-256,-62,-1,56,-3
11990,6,-254,-65,-2,56,-2
11995,5,-253,-64,-1,56,-2
