timestamp,acc_x,acc_y,acc_z,gyro_x,gyro_y,gyro_z
0,10,-255,17,-50,12,-1
5,13,-255,17,-49,13,-2
10,10,-253,15,-49,15,-2
15,9,-253,16,-50,15,-3
20,12,-253,17,-51,15,-4
25,11,-253,19,-52,18,-3
30,12,-257,20,-53,20,-3
35,15,-256,20,-55,20,-4
40,8,-254,19,-56,21,-3
45,11,-254,17,-55,19,-3
50,12,-256,17,-57,21,-4
55,10,-254,19,-54,19,-5
60,12,-255,19,-52,18,-5
65,11,-255,16,-50,16,-3
70,11,-258,17,-46,17,-4
75,12,-256,23,-43,16,-3
80,11,-256,16,-42,16,-3
85,10,-255,20,-42,15,-3
90,9,-257,20,-39,15,-2
95,10,-255,15,-38,17,-1
100,10,-255,16,-37,16,-2
105,9,-254,18,-37,18,-2
110,10,-255,19,-37,16,-2
115,12,-255,18,-37,15,0
120,8,-252,12,-38,14,0
125,11,-254,18,-41,15,0
130,6,-252,15,-43,15,-1
135,14,-253,17,-43,14,-1
140,12,-254,18,-44,14,-2
145,10,-256,18,-44,15,-2
150,10,-256,18,-44,15,-2
155,9,-256,18,-46,15,-2
160,9,-253,14,-46,15,-2
165,11,-251,15,-44,16,-2
170,12,-254,17,-45,15,-3
175,11,-254,19,-45,15,-2
180,13,-255,22,-45,14,-1
185,8,-253,18,-45,15,0
190,10,-256,21,-45,15,-1
195,9,-254,16,-45,15,-1
200,11,-255,19,-43,14,-1
205,11,-256,15,-43,14,0
210,13,-255,17,-43,14,0
215,13,-256,13,-44,13,0
220,10,-255,20,-43,13,0
225,11,-255,20,-42,13,-2
230,11,-255,17,-41,15,-1
235,9,-254,15,-41,13,-2
240,13,-254,18,-42,13,-2
245,10,-255,16,-44,13,-1
250,10,-253,17,-43,13,-2
255,13,-256,16,-42,14,-2
260,8,-255,24,-43,14,-1
265,6,-255,19,-44,13,-2
270,12,-256,18,-44,13,-1
275,11,-255,19,-45,12,-2
280,10,-254,19,-46,11,-1
285,8,-255,17,-48,10,0
290,12,-256,14,-49,10,0
295,10,-255,12,-49,10,0
300,12,-254,16,-51,11,1
305,8,-255,14,-52,11,1
310,11,-255,13,-52,12,1
315,11,-254,19,-54,12,1
320,9,-255,18,-54,13,2
325,12,-257,14,-54,12,0
330,8,-255,19,-52,10,1
335,10,-254,21,-51,10,0
340,12,-256,16,-50,12,0
345,13,-265,32,-48,12,-1
350,12,-254,21,-46,12,-3
355,13,-259,16,-47,12,-4
360,12,-253,18,-45,12,-3
365,10,-255,18,-43,14,-4
370,13,-254,19,-44,14,-3
375,12,-254,19,-46,15,-4
380,9,-256,18,-46,16,-4
385,11,-254,21,-46,17,-3
390,10,-254,17,-47,15,-2
395,10,-254,19,-48,15,-2
400,8,-264,27,-49,15,-2
405,10,-254,15,-49,15,-2
410,13,-255,17,-49,14,-1
415,10,-255,19,-51,13,0
420,10,-257,19,-51,13,0
425,12,-255,16,-53,12,0
430,10,-256,20,-54,12,0
435,10,-255,23,-52,11,0
440,9,-255,17,-53,11,0
445,9,-255,15,-52,10,1
450,13,-256,17,-51,11,0
455,12,-255,17,-52,10,0
460,12,-256,16,-51,9,-3
465,9,-253,18,-52,12,-1
470,10,-254,15,-50,12,-2
475,12,-255,18,-48,13,-2
480,11,-255,16,-50,15,-2
485,13,-256,19,-51,16,-2
490,13,-254,17,-52,16,-2
495,10,-255,20,-52,15,-3
500,11,-257,24,-49,15,-3
505,10,-254,18,-50,15,-2
510,11,-256,19,-47,16,-2
515,12,-256,20,-48,16,-1
520,10,-255,21,-48,15,-1
525,10,-255,19,-46,15,-2
530,12,-256,17,-46,13,-1
535,10,-255,19,-46,13,-3
540,12,-256,19,-47,14,-3
545,11,-255,20,-49,13,-2
550,10,-253,16,-50,12,-2
555,12,-255,18,-50,12,-1
560,7,-255,14,-53,12,-2
565,9,-252,19,-55,13,-1
570,12,-255,17,-56,13,-1
575,12,-257,19,-57,14,-2
580,11,-252,13,-57,15,-2
585,10,-257,15,-55,15,-3
590,11,-256,15,-55,16,-1
595,8,-255,18,-54,18,-3
600,8,-256,18,-54,18,-3
605,11,-257,21,-55,17,-2
610,12,-256,19,-55,18,-2
615,9,-255,16,-55,18,-2
620,9,-255,18,-53,19,-2
625,10,-256,17,-54,21,-3
630,14,-255,16,-54,20,-5
635,9,-255,20,-54,22,-4
640,12,-257,15,-54,22,-5
645,12,-256,15,-52,21,-5
650,6,-255,16,-53,20,-3
655,9,-252,19,-53,20,-4
660,8,-254,14,-51,19,-4
665,12,-255,15,-51,18,-4
670,10,-256,20,-51,17,-4
675,10,-255,18,-52,17,-4
680,12,-257,14,-48,17,-2
685,8,-253,17,-46,18,-4
690,10,-255,15,-47,18,-4
695,12,-256,19,-49,18,-2
700,11,-256,16,-49,16,-2
705,11,-256,18,-51,13,-3
710,9,-254,20,-52,14,-2
715,11,-255,18,-56,15,-4
720,11,-254,19,-55,15,-3
725,12,-254,16,-57,16,-5
730,9,-256,20,-57,17,-4
735,15,-255,14,-59,18,-4
740,10,-255,12,-61,20,-5
745,8,-256,16,-62,21,-5
750,13,-256,15,-64,22,-4
755,12,-257,17,-65,24,-5
760,12,-255,17,-64,25,-6
765,11,-256,14,-61,24,-5
770,13,-256,15,-57,23,-6
775,10,-255,17,-55,22,-7
780,11,-256,20,-51,21,-6
785,14,-256,16,-49,20,-7
790,10,-255,14,-44,20,-6
795,10,-256,15,-43,21,-6
800,7,-256,19,-43,22,-5
805,11,-256,17,-41,22,-6
810,11,-256,16,-43,22,-6
815,11,-254,17,-42,23,-5
820,12,-256,20,-45,23,-4
825,8,-254,12,-46,24,-5
830,12,-255,20,-47,24,-5
835,9,-255,16,-48,23,-6
840,12,-255,17,-49,23,-5
845,9,-254,18,-49,23,-5
850,13,-254,16,-49,23,-4
855,10,-254,19,-50,23,-5
860,12,-256,16,-53,22,-5
865,11,-257,16,-53,23,-5
870,9,-256,18,-54,23,-4
875,11,-256,19,-56,23,-4
880,8,-253,16,-56,22,-5
885,10,-257,14,-58,22,-4
890,19,-251,-2,-58,20,-3
895,12,-255,11,-56,20,-4
900,12,-256,16,-55,20,-3
905,11,-255,18,-55,19,-3
910,9,-254,15,-52,19,-3
915,12,-258,18,-51,19,-4
920,10,-256,13,-48,20,-3
925,10,-253,18,-46,20,-2
930,12,-255,12,-45,19,-4
935,10,-256,17,-44,20,-4
940,7,-255,18,-41,20,-5
945,10,-257,12,-41,19,-4
950,9,-256,17,-41,19,-4
955,9,-255,18,-43,18,-3
960,8,-256,17,-45,17,-4
965,10,-256,15,-49,16,-3
970,7,-255,17,-51,17,-3
975,12,-256,20,-51,16,-3
980,10,-253,16,-52,16,-5
985,9,-255,16,-52,13,-2
990,11,-256,14,-52,12,-3
995,11,-255,17,-52,12,-3
1000,11,-255,15,-54,12,-4
1005,11,-255,15,-54,12,-3
1010,10,-253,13,-55,13,-4
1015,11,-256,16,-59,13,-3
1020,11,-256,17,-60,15,-4
1025,9,-255,11,-61,15,-4
1030,9,-255,20,-63,17,-4
1035,10,-256,15,-64,16,-6
1040,12,-254,17,-64,17,-5
1045,7,-257,15,-64,18,-6
1050,8,-256,18,-64,18,-6
1055,14,-256,18,-63,19,-7
1060,10,-255,14,-62,19,-8
1065,10,-258,17,-60,21,-10
1070,10,-256,15,-57,20,-10
1075,11,-257,16,-55,21,-9
1080,12,-256,16,-54,23,-9
1085,11,-256,17,-52,21,-9
1090,10,-255,13,-51,21,-10
1095,12,-255,14,-49,20,-7
1100,12,-257,12,-50,18,-8
1105,12,-257,13,-50,18,-6
1110,8,-255,14,-50,19,-5
1115,9,-255,13,-48,19,-5
1120,13,-254,15,-48,19,-5
1125,11,-256,14,-47,19,-4
1130,9,-256,18,-48,18,-5
1135,11,-256,11,-47,17,-6
1140,9,-253,14,-46,17,-6
1145,9,-256,16,-47,18,-5
1150,12,-258,15,-47,18,-6
1155,11,-254,15,-46,17,-6
1160,11,-253,14,-47,18,-6
1165,8,-253,15,-48,20,-8
1170,9,-252,17,-49,20,-7
1175,11,-257,15,-49,22,-7
1180,10,-253,19,-50,21,-7
1185,11,-255,14,-52,21,-8
1190,10,-255,19,-53,23,-7
1195,11,-256,14,-52,23,-7
1200,10,-256,15,-51,25,-7
1205,11,-255,15,-50,23,-6
1210,10,-256,20,-50,23,-6
1215,11,-256,14,-48,23,-5
1220,7,-253,18,-49,22,-6
1225,11,-257,15,-49,22,-7
1230,7,-256,14,-49,21,-6
1235,12,-255,16,-50,18,-7
1240,13,-254,16,-48,19,-7
1245,7,-256,14,-50,18,-7
1250,12,-256,10,-47,19,-6
1255,13,-256,16,-46,19,-6
1260,11,-253,19,-44,19,-8
1265,9,-255,14,-47,20,-6
1270,11,-255,17,-49,19,-6
1275,10,-254,14,-50,20,-6
1280,11,-255,19,-50,21,-7
1285,8,-255,14,-53,21,-6
1290,7,-254,16,-56,21,-5
1295,9,-256,17,-56,20,-4
1300,6,-255,14,-57,19,-6
1305,12,-256,14,-58,18,-6
1310,10,-257,15,-54,17,-5
1315,9,-255,16,-54,18,-5
1320,11,-258,20,-53,17,-3
1325,12,-257,19,-52,18,-5
1330,10,-257,16,-49,19,-5
1335,11,-257,19,-48,19,-5
1340,10,-256,20,-47,20,-7
1345,10,-257,15,-46,21,-7
1350,11,-259,15,-46,23,-6
1355,10,-256,15,-47,23,-7
1360,8,-254,17,-48,23,-7
1365,8,-254,20,-50,22,-7
1370,8,-254,16,-51,21,-8
1375,12,-256,14,-53,19,-6
1380,9,-256,17,-54,18,-6
1385,10,-255,19,-54,18,-6
1390,11,-256,14,-56,16,-6
1395,9,-256,17,-54,16,-6
1400,7,-255,15,-53,17,-6
1405,10,-257,19,-54,16,-4
1410,7,-256,15,-54,15,-4
1415,10,-257,12,-55,14,-3
1420,9,-254,17,-58,15,-4
1425,9,-255,19,-58,14,-4
1430,11,-257,18,-59,15,-4
1435,11,-255,13,-60,14,-6
1440,9,-253,16,-61,15,-5
1445,11,-250,10,-64,16,-6
1450,11,-257,17,-66,17,-7
1455,10,-255,16,-68,18,-7
1460,13,-257,17,-69,19,-7
1465,9,-255,15,-71,21,-7
1470,12,-255,12,-73,20,-7
1475,9,-256,15,-73,19,-7
1480,8,-257,17,-71,19,-8
1485,10,-256,16,-67,19,-8
1490,17,-262,30,-64,20,-8
1495,10,-256,14,-58,20,-8
1500,9,-255,15,-53,20,-9
1505,11,-257,15,-50,19,-8
1510,13,-258,14,-48,20,-8
1515,11,-255,14,-46,20,-7
1520,11,-258,15,-47,21,-7
1525,8,-253,15,-48,22,-8
1530,10,-255,17,-49,23,-7
1535,10,-254,12,-49,23,-5
1540,9,-255,14,-48,23,-6
1545,10,-256,18,-49,22,-4
1550,6,-255,17,-49,21,-6
1555,9,-256,16,-48,19,-5
1560,11,-255,17,-48,19,-5
1565,13,-253,14,-50,17,-5
1570,11,-255,13,-53,17,-4
1575,9,-255,14,-53,16,-4
1580,11,-256,20,-54,16,-5
1585,10,-254,13,-56,15,-5
1590,10,-255,12,-57,16,-5
1595,9,-254,13,-56,17,-6
1600,13,-258,17,-54,17,-6
1605,10,-255,12,-54,17,-6
1610,10,-255,16,-52,18,-7
1615,9,-255,16,-49,19,-6
1620,8,-256,16,-47,19,-5
1625,10,-257,17,-46,20,-5
1630,11,-255,14,-47,19,-6
1635,11,-256,15,-48,19,-5
1640,10,-255,14,-49,21,-7
1645,12,-256,17,-50,21,-6
1650,11,-255,17,-51,22,-8
1655,7,-251,12,-52,23,-8
1660,9,-254,14,-50,22,-7
1665,9,-255,16,-52,20,-7
1670,7,-254,12,-53,21,-6
1675,8,-255,14,-53,20,-5
1680,7,-256,20,-51,19,-4
1685,11,-257,13,-49,20,-5
1690,9,-255,15,-51,17,-6
1695,10,-255,17,-51,15,-5
1700,9,-255,16,-50,13,-5
1705,10,-256,18,-51,12,-6
1710,11,-255,14,-53,11,-4
1715,9,-255,11,-54,12,-5
1720,10,-258,14,-55,13,-5
1725,11,-255,18,-55,14,-6
1730,8,-256,14,-56,17,-6
1735,11,-253,17,-57,18,-6
1740,11,-257,16,-58,18,-6
1745,8,-255,17,-56,17,-6
1750,9,-256,15,-58,17,-4
1755,11,-255,14,-57,16,-6
1760,10,-255,17,-54,15,-6
1765,10,-255,15,-52,14,-7
1770,11,-256,16,-51,15,-6
1775,9,-253,17,-48,16,-5
1780,11,-255,13,-47,15,-6
1785,10,-254,11,-49,16,-5
1790,12,-254,13,-50,16,-6
1795,11,-256,13,-52,17,-6
1800,10,-256,14,-53,18,-7
1805,13,-255,13,-52,17,-5
1810,12,-256,17,-53,16,-6
1815,10,-252,13,-55,15,-6
1820,11,-252,15,-55,13,-6
1825,8,-255,15,-53,12,-6
1830,11,-255,19,-56,10,-4
1835,9,-254,14,-54,11,-4
1840,8,-254,14,-55,12,-3
1845,11,-256,13,-55,11,-3
1850,13,-257,14,-56,12,-3
1855,10,-256,17,-54,12,-4
1860,7,-256,13,-54,13,-5
1865,10,-255,12,-51,15,-6
1870,10,-255,10,-50,15,-6
1875,11,-256,14,-50,16,-7
1880,11,-256,18,-49,17,-6
1885,11,-257,15,-46,18,-9
1890,8,-256,17,-46,18,-10
1895,11,-255,14,-44,19,-9
1900,11,-255,16,-46,20,-10
1905,8,-255,14,-46,19,-10
1910,9,-255,12,-45,19,-9
1915,9,-256,13,-45,19,-9
1920,13,-255,17,-46,18,-8
1925,9,-253,14,-46,19,-8
1930,13,-256,15,-46,19,-7
1935,13,-256,17,-46,19,-8
1940,9,-255,15,-45,17,-6
1945,13,-255,12,-45,18,-7
1950,11,-255,12,-46,17,-7
1955,11,-257,16,-46,17,-7
1960,12,-255,15,-49,17,-7
1965,9,-253,12,-50,17,-6
1970,8,-255,12,-50,18,-7
1975,11,-255,17,-50,18,-6
1980,11,-256,13,-51,17,-6
1985,11,-255,11,-52,18,-6
1990,10,-255,11,-50,19,-7
1995,11,-256,11,-51,19,-7
2000,12,-256,15,-51,20,-7
2005,9,-256,16,-51,20,-6
2010,8,-253,16,-52,20,-6
2015,12,-256,15,-50,20,-7
2020,8,-256,15,-50,20,-6
2025,12,-255,11,-50,21,-6
2030,11,-256,14,-49,21,-6
2035,12,-248,1,-49,21,-7
2040,13,-255,13,-46,23,-6
2045,10,-256,8,-46,23,-7
2050,10,-256,15,-44,24,-7
2055,9,-254,12,-44,23,-9
2060,9,-258,16,-46,23,-10
2065,10,-254,14,-47,22,-9
2070,11,-255,16,-47,22,-9
2075,8,-256,13,-48,21,-9
2080,9,-255,12,-48,21,-7
2085,16,-254,11,-48,23,-7
2090,13,-256,17,-49,23,-7
2095,9,-256,15,-48,23,-7
2100,7,-255,11,-47,22,-7
2105,10,-257,14,-48,21,-6
2110,13,-252,16,-45,20,-7
2115,8,-256,11,-44,18,-6
2120,11,-256,10,-45,18,-5
2125,7,-254,11,-46,17,-4
2130,7,-253,14,-46,16,-4
2135,10,-254,14,-49,15,-3
2140,7,-256,12,-52,13,-2
2145,9,-254,14,-52,11,-4
2150,11,-256,14,-55,12,-5
2155,11,-253,11,-57,13,-5
2160,10,-256,15,-59,13,-6
2165,11,-255,12,-63,15,-5
2170,10,-255,14,-66,17,-5
2175,11,-257,15,-68,20,-6
2180,11,-254,15,-70,21,-5
2185,13,-255,12,-67,22,-5
2190,11,-258,12,-67,21,-5
2195,9,-255,15,-63,22,-7
2200,10,-255,13,-60,20,-6
2205,9,-255,14,-56,19,-6
2210,11,-258,15,-52,19,-8
2215,12,-256,17,-44,18,-6
2220,14,-258,13,-40,19,-6
2225,13,-255,10,-39,19,-5
2230,9,-253,13,-36,19,-5
2235,11,-257,13,-36,17,-4
2240,12,-254,15,-35,17,-5
2245,9,-255,10,-36,16,-5
2250,10,-257,14,-36,16,-4
2255,12,-255,12,-38,15,-5
2260,10,-255,13,-38,14,-5
2265,13,-257,16,-41,13,-5
2270,10,-255,10,-42,13,-6
2275,9,-256,10,-43,13,-6
2280,12,-253,13,-45,14,-4
2285,12,-255,15,-45,15,-6
2290,11,-256,11,-47,16,-6
2295,9,-255,13,-48,15,-5
2300,10,-256,12,-47,16,-7
2305,12,-255,16,-48,16,-6
2310,8,-255,16,-47,18,-6
2315,11,-256,15,-44,18,-6
2320,13,-257,13,-43,17,-4
2325,10,-256,13,-41,17,-5
2330,12,-256,11,-40,18,-4
2335,12,-256,13,-40,16,-4
2340,13,-256,12,-40,15,-4
2345,9,-255,14,-40,16,-4
2350,9,-254,13,-40,16,-5
2355,8,-256,16,-41,16,-6
2360,8,-255,9,-43,16,-5
2365,10,-255,13,-44,17,-5
2370,12,-257,14,-43,17,-3
2375,11,-256,11,-44,15,-3
2380,12,-255,9,-44,16,-3
2385,8,-255,14,-42,17,-5
2390,8,-253,10,-42,15,-5
2395,13,-256,14,-43,15,-3
2400,11,-255,17,-43,14,-5
2405,8,-255,14,-44,13,-5
2410,12,-256,16,-44,12,-4
2415,11,-255,11,-45,11,-5
2420,10,-255,15,-45,10,-5
2425,12,-257,14,-43,11,-3
2430,10,-255,13,-41,10,-3
2435,9,-254,14,-42,12,-2
2440,13,-255,15,-38,12,-2
2445,14,-256,12,-40,13,-1
2450,12,-254,15,-42,14,-3
2455,11,-256,12,-45,12,0
2460,10,-255,12,-46,14,-1
2465,8,-254,13,-50,16,-3
2470,12,-255,13,-50,16,-2
2475,10,-255,15,-51,16,-2
2480,12,-258,15,-52,16,-2
2485,12,-255,16,-52,18,-5
2490,9,-254,15,-49,18,-5
2495,12,-258,13,-49,19,-7
2500,13,-257,15,-49,19,-7
2505,11,-256,14,-50,21,-8
2510,14,-256,19,-51,20,-7
2515,11,-256,15,-52,19,-9
2520,10,-255,12,-53,21,-8
2525,10,-258,12,-54,20,-9
2530,10,-254,16,-52,20,-8
2535,9,-256,16,-54,20,-7
2540,9,-256,12,-54,19,-6
2545,10,-257,13,-55,17,-6
2550,9,-256,15,-57,15,-6
2555,7,-256,10,-60,16,-5
2560,12,-257,13,-60,15,-4
2565,8,-257,16,-64,14,-4
2570,11,-258,9,-67,14,-3
2575,12,-258,11,-67,15,-3
2580,7,-258,11,-66,15,-3
2585,9,-257,9,-64,17,-3
2590,10,-257,11,-62,19,-5
2595,8,-259,12,-61,19,-4
2600,9,-257,8,-58,20,-6
2605,9,-258,5,-56,22,-6
2610,13,-257,10,-57,23,-6
2615,10,-254,9,-56,25,-6
2620,11,-255,7,-59,26,-6
2625,10,-255,7,-60,28,-7
2630,8,-259,14,-63,32,-8
2635,12,-258,10,-71,38,-10
2640,15,-257,6,-78,41,-13
2645,14,-253,6,-85,45,-16
2650,15,-255,9,-96,49,-16
2655,12,-259,1,-105,51,-19
2660,11,-257,4,-115,53,-21
2665,14,-258,1,-124,55,-22
2670,13,-259,0,-132,56,-23
2675,12,-258,0,-137,56,-24
2680,11,-262,2,-142,54,-23
2685,15,-257,1,-145,56,-24
2690,10,-263,0,-146,55,-23
2695,8,-259,4,-145,57,-22
2700,9,-260,-1,-143,55,-22
2705,6,-259,1,-135,58,-22
2710,5,-259,6,-130,59,-19
2715,6,-258,3,-123,61,-20
2720,6,-262,-1,-111,65,-20
2725,5,-259,0,-104,67,-19
2730,6,-257,0,-98,69,-19
2735,7,-259,1,-92,70,-19
2740,6,-255,-1,-89,70,-18
2745,4,-257,1,-88,69,-17
2750,6,-256,0,-89,70,-16
2755,6,-257,1,-92,69,-17
2760,7,-256,-2,-95,70,-16
2765,8,-256,-3,-101,67,-15
2770,6,-254,0,-106,66,-15
2775,7,-258,1,-112,65,-14
2780,8,-257,3,-118,63,-12
2785,7,-256,1,-123,62,-11
2790,6,-255,1,-127,62,-11
2795,10,-254,-2,-130,60,-12
2800,9,-256,2,-136,58,-11
2805,10,-254,1,-139,57,-11
2810,6,-253,0,-143,55,-9
2815,8,-255,0,-147,53,-9
2820,8,-254,-2,-154,54,-6
2825,8,-253,-6,-159,53,-6
2830,6,-256,-8,-169,52,-6
2835,6,-254,-4,-177,53,-4
2840,8,-255,-7,-185,57,-1
2845,7,-256,-9,-194,60,1
2850,4,-256,-5,-202,63,3
2855,9,-254,-4,-209,65,7
2860,9,-256,-12,-213,68,9
2865,9,-255,-10,-213,71,12
2870,10,-254,-11,-212,73,14
2875,10,-255,-9,-209,74,18
2880,9,-255,-11,-207,75,21
2885,8,-250,-14,-206,77,24
2890,11,-252,-2,-207,76,29
2895,11,-251,-12,-208,77,32
2900,9,-250,-8,-214,77,34
2905,8,-247,-8,-220,77,37
2910,7,-245,-3,-226,77,41
2915,7,-243,-2,-235,76,44
2920,8,-245,-8,-243,75,48
2925,6,-246,-4,-251,74,52
2930,6,-245,-8,-261,72,55
2935,4,-247,-5,-273,69,60
2940,6,-248,-7,-286,67,64
2945,7,-245,-8,-300,64,68
2950,1,-245,-9,-316,61,74
2955,1,-246,-8,-333,60,77
2960,2,-242,-11,-347,59,86
2965,0,-244,-14,-362,60,91
2970,1,-245,-14,-375,60,95
2975,0,-241,-17,-386,61,101
2980,1,-243,-18,-397,61,108
2985,2,-243,-15,-408,62,114
2990,0,-243,-20,-421,62,119
2995,2,-239,-27,-436,60,124
3000,5,-242,-23,-454,58,130
3005,2,-239,-26,-473,57,136
3010,2,-239,-26,-497,57,143
3015,3,-235,-31,-520,55,149
3020,2,-234,-29,-543,54,152
3025,2,-234,-31,-566,52,157
3030,2,-234,-32,-589,53,162
3035,3,-230,-32,-611,50,166
3040,4,-230,-34,-635,49,170
3045,3,-231,-37,-657,50,173
3050,5,-230,-39,-677,48,179
3055,3,-229,-44,-697,51,183
3060,2,-228,-45,-717,52,187
3065,2,-228,-44,-738,54,191
3070,0,-227,-50,-760,56,197
3075,0,-226,-50,-781,57,202
3080,0,-228,-49,-801,57,206
3085,-1,-224,-52,-820,53,210
3090,0,-225,-57,-842,49,213
3095,-9,-222,-58,-863,43,217
3100,-5,-224,-53,-888,36,220
3105,-5,-223,-56,-908,28,223
3110,-5,-222,-53,-927,19,222
3115,-4,-222,-54,-944,12,222
3120,-7,-219,-51,-954,7,218
3125,-8,-218,-47,-961,7,211
3130,-1,-219,-42,-962,13,202
3135,0,-217,-45,-965,27,189
3140,1,-218,-44,-967,47,174
3145,6,-221,-42,-975,70,156
3150,9,-220,-43,-990,100,137
3155,8,-224,-49,-1016,134,115
3160,8,-225,-50,-1055,170,91
3165,10,-236,-49,-1104,203,69
3170,8,-239,-56,-1166,232,49
3175,6,-245,-45,-1229,251,31
3180,9,-253,-61,-1287,260,13
3185,8,-258,-63,-1333,260,-4
3190,11,-263,-62,-1363,254,-19
3195,14,-267,-61,-1372,239,-30
3200,14,-271,-65,-1355,223,-42
3205,14,-273,-62,-1314,208,-55
3210,15,-271,-61,-1249,201,-67
3215,18,-269,-60,-1161,202,-78
3220,21,-266,-55,-1056,211,-94
3225,24,-262,-53,-941,229,-107
3230,25,-257,-57,-827,255,-122
3235,28,-249,-60,-720,287,-135
3240,25,-246,-62,-630,320,-147
3245,24,-239,-65,-565,353,-156
3250,25,-238,-70,-527,381,-164
3255,21,-231,-73,-519,401,-164
3260,21,-234,-79,-537,412,-161
3265,16,-230,-78,-581,413,-156
3270,15,-231,-82,-640,409,-146
3275,9,-234,-84,-711,400,-133
3280,5,-242,-79,-781,385,-121
3285,4,-244,-78,-844,365,-105
3290,0,-249,-75,-894,346,-89
3295,-3,-252,-73,-927,325,-77
3300,-8,-255,-65,-939,302,-66
3305,-15,-256,-65,-926,275,-53
3310,-16,-260,-59,-886,249,-43
3315,-17,-261,-59,-832,222,-37
3320,-22,-263,-53,-763,196,-34
3325,-25,-260,-60,-683,168,-32
3330,-25,-257,-64,-602,141,-28
3335,-26,-257,-66,-522,118,-26
3340,-25,-254,-71,-453,102,-23
3345,-24,-249,-74,-397,92,-22
3350,-27,-246,-80,-358,90,-21
3355,-18,-244,-83,-340,93,-19
3360,-19,-240,-91,-338,101,-19
3365,-14,-240,-95,-352,116,-20
3370,-12,-237,-94,-379,133,-17
3375,-7,-241,-98,-419,150,-16
3380,-5,-241,-97,-466,165,-15
3385,-6,-240,-94,-521,177,-8
3390,0,-247,-97,-573,185,3
3395,-2,-246,-100,-616,184,16
3400,0,-250,-90,-647,177,33
3405,0,-252,-84,-665,165,53
3410,0,-254,-89,-666,145,74
3415,1,-259,-84,-650,121,94
3420,1,-257,-76,-617,94,113
3425,2,-258,-83,-572,68,127
3430,3,-258,-82,-518,41,140
3435,0,-259,-77,-455,13,145
3440,0,-257,-76,-387,-14,146
3445,-1,-256,-83,-316,-42,140
3450,-3,-256,-83,-243,-70,133
3455,-9,-256,-86,-182,-98,124
3460,-9,-254,-88,-129,-119,113
3465,-10,-255,-91,-91,-140,101
3470,-12,-252,-98,-72,-154,89
3475,-12,-252,-101,-76,-164,79
3480,-13,-252,-103,-103,-167,70
3485,-11,-256,-104,-146,-164,59
3490,-12,-255,-105,-201,-154,52
3495,-8,-259,-108,-263,-137,43
3500,-3,-261,-102,-323,-118,33
3505,-5,-264,-102,-376,-95,21
3510,-1,-268,-100,-411,-73,11
3515,0,-269,-100,-427,-52,1
3520,2,-273,-99,-425,-30,-6
3525,4,-274,-99,-407,-7,-18
3530,9,-277,-97,-380,12,-28
3535,11,-281,-102,-347,27,-38
3540,11,-279,-102,-306,33,-48
3545,12,-278,-99,-264,30,-57
3550,12,-275,-103,-214,16,-67
3555,12,-278,-101,-165,-7,-75
3560,11,-276,-102,-119,-36,-85
3565,12,-272,-100,-77,-69,-91
3570,7,-272,-106,-42,-105,-96
3575,7,-273,-101,-11,-143,-99
3580,2,-272,-106,14,-176,-99
3585,0,-274,-105,38,-205,-96
3590,-4,-278,-108,60,-229,-90
3595,-8,-279,-111,80,-246,-83
3600,-12,-285,-115,102,-257,-75
3605,-16,-289,-113,130,-253,-63
3610,-17,-290,-114,162,-237,-51
3615,-20,-291,-117,197,-212,-38
3620,-14,-296,-116,229,-182,-25
3625,-18,-295,-122,259,-146,-15
3630,-19,-296,-121,286,-113,-7
3635,-16,-299,-122,316,-80,0
3640,-16,-297,-114,345,-46,8
3645,-11,-296,-120,377,-16,15
3650,-8,-295,-117,406,12,18
3655,-6,-292,-115,432,35,22
3660,0,-289,-117,452,55,25
3665,1,-290,-117,471,71,29
3670,7,-288,-118,488,83,34
3675,8,-284,-116,499,91,35
3680,11,-280,-118,503,93,37
3685,14,-280,-115,508,89,33
3690,16,-278,-114,507,82,30
3695,17,-274,-109,504,71,23
3700,16,-269,-112,497,58,17
3705,17,-269,-107,490,47,7
3710,16,-265,-107,482,37,-2
3715,14,-266,-108,471,29,-13
3720,13,-260,-101,458,24,-27
3725,11,-263,-104,447,22,-41
3730,7,-264,-102,438,24,-57
3735,6,-265,-97,434,27,-73
3740,4,-262,-95,435,31,-90
3745,1,-266,-90,438,35,-106
3750,-1,-269,-90,448,39,-122
3755,0,-268,-92,462,43,-133
3760,-4,-271,-95,483,45,-140
3765,-8,-273,-92,503,45,-144
3770,-1,-273,-83,533,44,-143
3775,-8,-272,-93,565,43,-140
3780,-10,-278,-92,600,41,-130
3785,-7,-274,-91,632,38,-118
3790,-8,-273,-94,662,35,-106
3795,0,-270,-92,690,34,-91
3800,-6,-269,-91,714,32,-76
3805,-1,-267,-87,736,33,-62
3810,0,-268,-91,755,35,-50
3815,3,-266,-90,776,42,-39
3820,5,-264,-88,794,51,-30
3825,5,-268,-83,815,64,-20
3830,7,-269,-81,836,80,-11
3835,11,-270,-76,862,94,-5
3840,15,-276,-71,893,110,0
3845,15,-280,-68,928,120,-1
3850,19,-281,-60,968,130,-2
3855,22,-286,-56,1013,135,-8
3860,14,-283,-54,1064,140,-17
3865,18,-285,-49,1118,147,-25
3870,22,-292,-41,1174,155,-36
3875,26,-298,-34,1240,165,-48
3880,19,-298,-29,1319,176,-58
3885,16,-305,-21,1402,189,-70
3890,21,-313,-7,1496,204,-81
3895,20,-319,0,1601,222,-92
3900,21,-329,3,1721,235,-100
3905,16,-340,16,1855,249,-109
3910,15,-348,21,2004,260,-120
3915,19,-357,17,2160,271,-128
3920,17,-363,3,2304,281,-135
3925,10,-361,-11,2410,294,-141
3930,6,-356,-25,2460,306,-142
3935,0,-342,-41,2449,312,-145
3940,-3,-325,-58,2377,308,-147
3945,-13,-310,-68,2238,294,-161
3950,-16,-289,-81,2035,273,-169
3955,-20,-272,-85,1777,249,-182
3960,-22,-261,-81,1488,226,-189
3965,-25,-257,-77,1190,202,-189
3970,-21,-261,-58,917,174,-173
3975,-20,-266,-41,689,151,-153
3980,-11,-272,-27,516,131,-120
3985,-11,-274,-10,397,117,-87
3990,-7,-280,1,328,106,-54
3995,-1,-281,11,301,99,-25
4000,0,-274,28,313,95,-2
4005,1,-275,30,346,87,15
4010,1,-272,38,371,74,26
4015,1,-271,41,387,55,26
4020,3,-266,47,403,30,24
4025,1,-262,52,430,1,20
4030,0,-254,52,469,-27,16
4035,0,-250,49,511,-53,10
4040,0,-245,47,553,-73,5
4045,0,-237,45,591,-89,-1
4050,0,-234,43,627,-96,-8
4055,0,-228,37,655,-98,-19
4060,0,-224,34,674,-96,-30
4065,-3,-223,37,678,-92,-42
4070,-2,-218,34,671,-85,-54
4075,-3,-214,30,653,-73,-65
4080,-5,-218,34,626,-59,-68
4085,-3,-219,37,597,-40,-68
4090,-1,-221,38,568,-20,-62
4095,0,-218,43,550,-3,-56
4100,0,-227,47,541,12,-45
4105,0,-228,52,554,20,-36
4110,0,-234,54,579,19,-23
4115,3,-233,52,619,10,-5
4120,0,-235,58,669,-4,12
4125,0,-234,55,721,-24,29
4130,0,-235,51,765,-46,47
4135,2,-238,47,797,-70,63
4140,2,-237,46,817,-89,77
4145,4,-242,47,815,-107,88
4150,1,-240,45,805,-122,95
4155,1,-241,48,779,-132,101
4160,3,-248,46,745,-141,106
4165,4,-250,43,698,-148,107
4170,3,-252,46,644,-151,103
4175,6,-255,40,581,-157,99
4180,5,-256,45,518,-159,93
4185,7,-258,44,445,-162,83
4190,4,-262,42,375,-164,72
4195,5,-264,36,307,-169,59
4200,5,-271,41,246,-174,43
4205,5,-272,44,196,-180,27
4210,7,-274,49,160,-190,8
4215,6,-275,48,140,-201,-10
4220,10,-274,51,141,-212,-26
4225,14,-274,50,155,-220,-40
4230,14,-266,54,183,-225,-52
4235,14,-259,54,218,-223,-63
4240,17,-256,52,255,-219,-69
4245,20,-249,54,291,-211,-72
4250,18,-244,50,320,-199,-74
4255,19,-235,54,343,-184,-71
4260,20,-229,54,358,-170,-68
4265,16,-224,56,361,-157,-61
4270,19,-220,56,355,-144,-55
4275,18,-217,58,342,-135,-47
4280,18,-213,60,326,-127,-41
4285,16,-209,62,308,-123,-35
4290,18,-211,64,287,-116,-30
4295,20,-211,66,265,-110,-29
4300,18,-214,71,244,-102,-29
4305,14,-213,68,222,-95,-29
4310,17,-216,68,198,-89,-27
4315,16,-218,71,173,-82,-30
4320,14,-221,72,147,-74,-30
4325,16,-222,72,122,-65,-32
4330,15,-225,67,100,-57,-33
4335,17,-223,68,85,-52,-35
4340,16,-230,63,75,-46,-35
4345,19,-230,71,73,-43,-36
4350,15,-231,67,74,-40,-35
4355,17,-233,64,82,-38,-34
4360,17,-225,57,95,-38,-33
4365,18,-231,66,106,-35,-32
4370,15,-231,60,116,-34,-31
4375,15,-233,63,120,-31,-31
4380,15,-230,60,121,-26,-29
4385,18,-231,58,114,-21,-28
4390,15,-233,53,106,-13,-26
4395,14,-233,54,94,-3,-30
4400,14,-234,57,82,8,-31
4405,15,-235,52,68,18,-34
4410,14,-237,53,54,27,-41
4415,13,-232,50,42,33,-46
4420,13,-240,56,28,37,-52
4425,14,-238,56,15,39,-57
4430,11,-239,53,2,36,-63
4435,9,-240,59,-5,32,-66
4440,9,-237,58,-8,24,-72
4445,9,-241,57,-9,16,-74
4450,12,-244,59,-3,7,-74
4455,6,-242,58,2,-2,-74
4460,11,-239,63,11,-10,-71
4465,10,-238,62,23,-16,-68
4470,12,-240,64,33,-23,-64
4475,13,-238,65,43,-27,-59
4480,11,-233,65,49,-28,-53
4485,16,-235,64,51,-27,-48
4490,14,-231,62,52,-25,-40
4495,11,-230,61,50,-22,-34
4500,13,-231,61,46,-18,-28
4505,14,-227,64,40,-13,-23
4510,13,-228,61,30,-7,-19
4515,13,-227,63,25,-3,-18
4520,10,-226,62,18,1,-15
4525,13,-227,61,14,4,-15
4530,14,-228,60,8,5,-15
4535,13,-229,62,2,4,-14
4540,14,-230,63,-2,3,-14
4545,14,-231,64,-6,3,-12
4550,13,-232,62,-7,1,-13
4555,14,-234,64,-6,1,-12
4560,17,-235,64,-5,0,-10
4565,15,-235,65,-3,0,-12
4570,14,-237,64,0,0,-11
4575,17,-241,64,0,3,-10
4580,15,-239,64,3,4,-7
4585,14,-237,63,3,5,-5
4590,16,-241,66,3,7,-2
4595,14,-241,69,2,7,-1
4600,15,-242,67,0,7,0
4605,14,-240,67,-4,6,0
4610,16,-239,65,-10,5,1
4615,14,-239,64,-14,3,1
4620,17,-238,61,-21,1,2
4625,12,-237,62,-27,-1,3
4630,11,-238,57,-36,1,4
4635,13,-236,59,-45,3,5
4640,12,-238,59,-53,7,8
4645,11,-237,60,-62,11,7
4650,14,-236,55,-68,15,8
4655,10,-239,52,-71,20,8
4660,11,-235,59,-72,25,9
4665,13,-240,59,-71,32,10
4670,11,-237,58,-69,35,9
4675,11,-235,60,-66,37,11
4680,11,-236,63,-65,38,11
4685,13,-238,59,-63,37,11
4690,12,-237,63,-63,36,11
4695,15,-237,63,-63,35,13
4700,14,-238,61,-67,33,13
4705,15,-239,64,-69,31,15
4710,15,-242,63,-67,29,16
4715,12,-239,62,-65,29,17
4720,16,-239,60,-62,28,18
4725,12,-239,62,-60,28,21
4730,10,-239,59,-57,28,22
4735,11,-239,60,-52,27,24
4740,15,-242,58,-46,27,23
4745,13,-239,61,-41,26,24
4750,14,-242,63,-34,24,25
4755,14,-240,56,-30,25,24
4760,13,-239,61,-29,24,23
4765,16,-240,61,-29,22,23
4770,15,-240,63,-33,21,24
4775,14,-240,58,-37,20,24
4780,14,-241,61,-45,20,24
4785,15,-240,60,-56,18,23
4790,13,-239,60,-67,19,21
4795,15,-240,61,-78,20,21
4800,11,-244,58,-87,23,19
4805,12,-241,62,-98,28,19
4810,14,-243,63,-102,31,17
4815,13,-246,58,-103,34,16
4820,9,-244,60,-98,39,16
4825,16,-248,61,-91,42,13
4830,12,-244,56,-81,43,11
4835,16,-248,57,-70,44,10
4840,12,-246,57,-56,43,8
4845,13,-244,54,-43,44,7
4850,12,-246,59,-32,43,6
4855,12,-243,60,-19,45,5
4860,13,-248,57,-10,44,5
4865,13,-245,62,0,44,6
4870,12,-243,61,8,43,7
4875,10,-240,60,12,42,8
4880,11,-240,61,14,40,8
4885,12,-241,60,14,37,8
4890,9,-236,59,10,33,8
4895,13,-245,62,4,28,7
4900,9,-238,59,-5,26,6
4905,16,-244,54,-16,22,9
4910,6,-239,59,-26,22,9
4915,5,-238,56,-36,23,8
4920,10,-239,61,-45,25,9
4925,9,-243,60,-52,29,7
4930,9,-242,59,-57,34,9
4935,6,-239,63,-56,37,8
4940,8,-244,59,-55,41,7
4945,8,-242,54,-54,45,5
4950,9,-243,60,-52,47,2
4955,8,-242,55,-53,48,0
4960,15,-241,55,-52,47,-2
4965,9,-242,58,-50,49,-4
4970,8,-243,51,-49,46,-5
4975,9,-240,60,-50,45,-5
4980,12,-245,55,-48,43,-5
4985,9,-246,59,-45,44,-6
4990,11,-240,57,-45,43,-6
4995,11,-241,59,-42,41,-7
5000,8,-242,58,-36,40,-6
5005,9,-240,59,-33,38,-7
5010,9,-241,62,-31,37,-6
5015,11,-241,61,-29,36,-7
5020,12,-243,61,-26,36,-8
5025,8,-242,62,-24,35,-9
5030,13,-245,61,-21,33,-9
5035,11,-242,61,-17,32,-10
5040,9,-236,64,-9,30,-10
5045,11,-240,62,-7,28,-10
5050,13,-241,63,-6,26,-11
5055,12,-240,66,-3,24,-12
5060,10,-241,63,-4,20,-12
5065,13,-239,63,-6,19,-11
5070,12,-239,63,-11,19,-12
5075,11,-242,62,-17,18,-11
5080,10,-240,60,-21,17,-9
5085,11,-239,62,-25,16,-9
5090,11,-241,58,-29,15,-9
5095,9,-242,59,-30,13,-9
5100,11,-241,61,-31,10,-8
5105,12,-240,59,-35,8,-11
5110,10,-241,59,-34,6,-10
5115,13,-240,61,-32,3,-10
5120,11,-239,60,-33,1,-10
5125,7,-241,57,-32,-2,-9
5130,12,-240,58,-30,-5,-9
5135,10,-240,62,-27,-5,-11
5140,9,-243,61,-28,-8,-9
5145,11,-236,58,-29,-8,-8
5150,12,-239,62,-28,-10,-8
5155,13,-241,59,-29,-11,-6
5160,11,-239,63,-30,-10,-5
5165,11,-241,62,-32,-8,-4
5170,12,-239,62,-34,-6,-3
5175,10,-240,62,-34,-4,-1
5180,13,-240,59,-37,-3,-3
5185,9,-237,61,-38,0,-4
5190,12,-239,63,-40,1,-3
5195,11,-241,60,-43,3,-4
5200,8,-239,60,-45,3,-4
5205,13,-242,63,-49,4,-4
5210,12,-242,60,-51,5,-4
5215,11,-238,61,-54,5,-4
5220,7,-241,59,-57,6,-6
5225,10,-239,59,-60,6,-6
5230,15,-241,61,-61,6,-6
5235,9,-240,60,-58,4,-6
5240,10,-239,59,-57,2,-6
5245,11,-242,58,-54,2,-7
5250,12,-241,56,-53,1,-7
5255,11,-239,62,-52,-2,-7
5260,8,-240,60,-51,-2,-9
5265,10,-241,63,-48,-3,-9
5270,11,-239,56,-46,-2,-9
5275,10,-242,59,-49,-1,-9
5280,10,-239,61,-48,0,-11
5285,11,-238,62,-47,2,-9
5290,12,-238,60,-49,3,-8
5295,14,-238,61,-51,4,-9
5300,12,-240,62,-52,6,-10
5305,8,-239,61,-53,8,-10
5310,11,-241,60,-58,9,-11
5315,11,-241,62,-59,8,-11
5320,10,-241,60,-61,8,-11
5325,10,-240,62,-63,10,-11
5330,10,-240,62,-64,10,-10
5335,9,-240,61,-62,11,-10
5340,13,-240,62,-63,10,-10
5345,10,-242,59,-63,10,-10
5350,10,-239,63,-60,9,-9
5355,12,-235,62,-59,11,-8
5360,14,-244,59,-59,10,-9
5365,11,-239,58,-59,10,-9
5370,12,-241,60,-57,9,-7
5375,11,-238,61,-57,9,-8
5380,10,-241,63,-56,11,-7
5385,11,-239,57,-54,12,-7
5390,10,-237,61,-53,13,-6
5395,10,-241,59,-49,14,-6
5400,12,-243,59,-46,14,-6
5405,14,-243,60,-39,14,-6
5410,10,-244,59,-34,14,-5
5415,11,-242,62,-31,15,-5
5420,11,-238,57,-28,15,-5
5425,14,-244,59,-22,16,-6
5430,11,-244,53,-20,17,-4
5435,12,-245,59,-18,17,-4
5440,13,-240,61,-14,17,-5
5445,12,-239,57,-12,17,-6
5450,19,-239,63,-8,16,-7
5455,10,-238,57,-4,16,-7
5460,14,-244,56,0,15,-8
5465,15,-242,58,6,16,-9
5470,11,-243,60,10,18,-10
5475,10,-239,60,16,17,-10
5480,12,-240,60,18,17,-12
5485,12,-242,59,24,18,-11
5490,13,-240,62,26,20,-13
5495,10,-239,63,29,19,-13
5500,10,-239,65,29,21,-11
5505,7,-237,52,29,23,-12
5510,11,-237,60,27,24,-11
5515,10,-240,62,25,24,-9
5520,14,-241,61,23,27,-9
5525,11,-241,63,23,28,-9
5530,14,-240,63,21,29,-7
5535,13,-241,60,19,30,-5
5540,11,-239,64,18,29,-5
5545,12,-241,65,21,31,-6
5550,10,-241,62,21,33,-5
5555,10,-241,63,24,33,-5
5560,13,-237,63,26,35,-5
5565,13,-237,65,26,34,-5
5570,12,-238,63,28,33,-3
5575,9,-237,65,27,33,-5
5580,10,-240,63,26,31,-5
5585,13,-239,64,21,28,-6
5590,13,-238,64,14,27,-6
5595,13,-238,65,6,23,-6
5600,13,-235,62,-1,25,-6
5605,12,-239,63,-7,23,-4
5610,12,-240,63,-9,22,-3
5615,14,-241,63,-12,21,-3
5620,15,-240,62,-10,21,-1
5625,14,-240,65,-8,20,-2
5630,12,-242,61,-8,22,-1
5635,12,-240,65,-3,21,-1
5640,13,-239,62,2,22,-1
5645,13,-239,63,8,22,0
5650,13,-241,62,14,24,-1
5655,9,-237,61,14,22,0
5660,13,-239,57,15,22,0
5665,12,-240,63,12,23,-2
5670,9,-236,63,9,24,-2
5675,10,-238,63,3,21,-1
5680,10,-236,64,-2,22,-1
5685,11,-239,64,-8,22,0
5690,10,-238,64,-13,23,0
5695,12,-238,69,-17,22,0
5700,10,-238,67,-19,22,-1
5705,9,-236,66,-18,22,-1
5710,10,-238,65,-18,21,1
5715,12,-235,69,-16,20,1
5720,11,-236,67,-12,20,2
5725,11,-239,65,-11,19,1
5730,13,-238,66,-8,17,2
5735,13,-240,64,-5,16,2
5740,11,-239,64,-3,13,3
5745,11,-237,68,-1,13,2
5750,11,-240,66,-2,12,3
5755,11,-237,65,-4,14,1
5760,9,-240,64,-5,15,1
5765,12,-239,64,-10,18,2
5770,9,-236,63,-13,19,2
5775,11,-238,64,-17,21,1
5780,12,-236,63,-21,23,-1
5785,11,-240,64,-27,23,-1
5790,8,-234,66,-28,24,2
5795,11,-237,64,-28,24,-1
5800,10,-236,67,-27,23,0
5805,11,-239,65,-27,23,0
5810,12,-238,64,-24,23,1
5815,11,-236,64,-21,19,2
5820,13,-238,65,-19,20,1
5825,7,-240,65,-18,17,1
5830,12,-237,65,-15,18,0
5835,13,-240,66,-16,17,1
5840,7,-238,63,-14,17,0
5845,9,-239,65,-14,17,-1
5850,11,-240,67,-12,18,0
5855,12,-238,67,-11,18,0
5860,11,-239,66,-13,20,-2
5865,12,-238,67,-14,22,-1
5870,8,-233,67,-16,22,-1
5875,10,-234,66,-20,23,-2
5880,13,-237,67,-21,24,-4
5885,9,-236,64,-23,25,-4
5890,9,-238,65,-25,25,-3
5895,11,-238,65,-25,25,-4
5900,11,-235,66,-25,25,-4
5905,12,-237,68,-24,25,-3
5910,11,-240,68,-22,26,-3
5915,9,-235,66,-18,27,-2
5920,12,-237,67,-13,27,-3
5925,16,-257,91,-10,28,0
5930,4,-236,73,-3,28,0
5935,11,-237,70,2,28,1
5940,12,-236,64,6,25,0
5945,12,-237,68,7,26,0
5950,8,-234,66,6,25,0
5955,12,-234,64,3,26,0
5960,10,-234,65,-4,27,-3
5965,6,-231,66,-9,27,-3
5970,12,-235,66,-17,28,-5
5975,11,-239,66,-21,29,-5
5980,10,-236,65,-25,31,-4
5985,9,-236,67,-30,32,-4
5990,9,-235,66,-33,34,-3
5995,12,-235,67,-34,33,-4
6000,7,-235,68,-35,32,-2
6005,10,-237,72,-34,31,-3
6010,7,-235,66,-34,31,-4
6015,9,-239,71,-33,29,-5
6020,9,-236,69,-31,26,-6
6025,12,-239,69,-28,26,-7
6030,10,-236,67,-27,25,-9
6035,9,-235,67,-28,24,-11
6040,11,-236,66,-29,21,-12
6045,12,-235,65,-30,21,-12
6050,12,-243,82,-30,20,-10
6055,13,-238,69,-33,21,-11
6060,11,-237,67,-34,19,-10
6065,11,-234,66,-33,21,-10
6070,12,-235,66,-34,20,-9
6075,10,-236,66,-34,21,-9
6080,7,-233,64,-35,22,-8
6085,11,-237,65,-35,21,-7
6090,10,-238,65,-34,20,-7
6095,11,-237,64,-36,20,-7
6100,10,-234,65,-38,21,-7
6105,10,-225,54,-37,22,-7
6110,9,-235,62,-40,22,-7
6115,11,-236,65,-40,20,-6
6120,7,-238,66,-40,18,-7
6125,10,-237,66,-40,19,-6
6130,11,-236,74,-38,18,-4
6135,10,-236,65,-38,17,-3
6140,11,-238,67,-36,17,-3
6145,10,-238,66,-35,18,-4
6150,10,-240,65,-33,17,-5
6155,10,-236,64,-29,17,-4
6160,12,-238,66,-27,18,-6
6165,10,-237,66,-28,18,-9
6170,10,-235,65,-30,18,-8
6175,9,-233,65,-33,17,-9
6180,10,-237,66,-34,16,-10
6185,7,-235,66,-39,17,-8
6190,9,-235,68,-39,16,-9
6195,10,-235,67,-41,16,-8
6200,9,-236,70,-42,16,-10
6205,11,-236,69,-43,15,-10
6210,11,-237,67,-43,18,-10
6215,13,-237,68,-40,18,-10
6220,11,-235,66,-39,20,-10
6225,11,-232,67,-37,20,-11
6230,12,-237,65,-37,21,-11
6235,9,-237,68,-36,22,-12
6240,10,-236,69,-35,21,-12
6245,11,-235,65,-35,23,-12
6250,12,-237,69,-36,23,-11
6255,9,-234,65,-37,24,-12
6260,11,-237,66,-40,22,-11
6265,13,-236,67,-40,23,-12
6270,11,-237,67,-44,21,-14
6275,10,-233,65,-47,20,-14
6280,10,-235,66,-52,19,-13
6285,14,-236,66,-53,16,-13
6290,12,-239,66,-56,15,-14
6295,10,-240,69,-55,14,-13
6300,14,-239,65,-52,13,-11
6305,12,-236,64,-49,11,-11
6310,10,-239,67,-47,10,-9
6315,10,-237,66,-44,11,-9
6320,10,-236,70,-43,10,-9
6325,9,-236,67,-41,10,-9
6330,10,-236,68,-41,11,-8
6335,7,-236,70,-43,11,-8
6340,8,-233,66,-45,12,-8
6345,10,-234,67,-48,13,-9
6350,11,-235,63,-50,13,-10
6355,11,-238,60,-51,15,-10
6360,11,-235,65,-50,18,-11
6365,9,-235,67,-52,18,-10
6370,13,-237,65,-50,20,-10
6375,10,-237,68,-51,21,-10
6380,14,-238,68,-51,21,-10
6385,12,-236,65,-48,22,-10
6390,9,-236,68,-47,22,-10
6395,8,-234,66,-44,20,-11
6400,9,-239,66,-40,21,-12
6405,11,-237,65,-39,18,-12
6410,11,-235,71,-37,14,-12
6415,12,-236,65,-35,11,-12
6420,13,-235,66,-35,9,-12
6425,12,-234,65,-36,7,-14
6430,13,-238,64,-36,6,-12
6435,9,-236,66,-40,5,-10
6440,11,-235,65,-41,5,-10
6445,11,-237,65,-42,7,-10
6450,11,-235,66,-44,7,-8
6455,11,-235,64,-45,8,-9
6460,14,-234,63,-46,8,-9
6465,12,-237,65,-48,11,-10
6470,9,-234,62,-50,13,-10
6475,11,-235,66,-49,12,-10
6480,7,-236,66,-47,14,-10
6485,12,-238,64,-46,16,-11
6490,13,-236,66,-44,14,-12
6495,12,-235,66,-44,16,-11
6500,10,-236,67,-44,15,-13
6505,10,-236,67,-43,15,-12
6510,9,-237,66,-41,14,-12
6515,13,-238,67,-40,14,-12
6520,9,-236,64,-37,14,-11
6525,10,-238,68,-37,14,-10
6530,11,-238,68,-35,16,-11
6535,9,-237,64,-35,16,-12
6540,12,-235,66,-31,16,-11
6545,9,-236,66,-30,17,-11
6550,9,-234,68,-31,17,-10
6555,13,-239,66,-27,17,-10
6560,9,-236,70,-27,16,-10
6565,9,-237,67,-28,16,-9
6570,15,-237,62,-26,14,-10
6575,12,-236,67,-28,13,-12
6580,14,-237,71,-28,13,-14
6585,12,-234,64,-29,12,-13
6590,11,-236,66,-31,11,-12
6595,18,-243,72,-33,11,-12
6600,11,-236,65,-35,11,-11
6605,9,-241,68,-36,10,-12
6610,12,-238,70,-35,11,-10
6615,12,-237,66,-32,12,-10
6620,10,-235,71,-29,13,-10
6625,14,-237,68,-26,12,-9
6630,14,-236,68,-23,13,-8
6635,11,-238,64,-21,13,-8
6640,14,-236,66,-19,11,-7
6645,11,-233,66,-18,12,-8
6650,20,-226,59,-21,10,-9
6655,14,-239,67,-23,9,-11
6660,11,-233,65,-25,10,-11
6665,12,-238,68,-26,10,-11
6670,16,-238,66,-27,13,-9
6675,11,-238,69,-25,13,-9
6680,13,-235,66,-25,12,-9
6685,13,-236,66,-25,12,-9
6690,11,-236,69,-25,11,-10
6695,12,-235,71,-25,13,-10
6700,10,-236,70,-27,13,-10
6705,8,-235,68,-28,13,-11
6710,10,-236,66,-27,13,-11
6715,12,-238,69,-28,13,-12
6720,10,-238,68,-27,14,-11
6725,13,-235,68,-27,14,-11
6730,11,-237,68,-25,14,-12
6735,9,-234,70,-25,14,-11
6740,13,-236,68,-24,14,-10
6745,10,-235,66,-22,13,-10
6750,10,-235,70,-22,13,-11
6755,12,-235,67,-22,14,-10
6760,13,-234,68,-20,14,-9
6765,11,-234,67,-21,13,-9
6770,10,-233,71,-22,13,-10
6775,11,-235,65,-21,13,-9
6780,14,-237,71,-20,14,-10
6785,11,-237,74,-23,13,-10
6790,9,-233,69,-24,14,-10
6795,11,-235,64,-26,15,-11
6800,12,-237,67,-25,15,-10
6805,13,-235,67,-26,15,-11
6810,10,-234,68,-27,14,-11
6815,8,-235,70,-25,14,-10
6820,14,-235,70,-27,14,-8
6825,9,-237,67,-25,14,-10
6830,14,-239,68,-24,15,-10
6835,10,-234,66,-22,14,-10
6840,12,-235,72,-22,15,-10
6845,10,-235,68,-19,15,-11
6850,11,-234,69,-18,14,-11
6855,14,-233,68,-17,16,-10
6860,9,-234,67,-17,16,-10
6865,14,-234,70,-17,16,-9
6870,11,-238,69,-18,14,-10
6875,11,-237,67,-22,14,-12
6880,11,-233,67,-22,14,-10
6885,14,-236,66,-21,13,-11
6890,12,-235,69,-23,11,-11
6895,14,-236,68,-22,13,-11
6900,13,-237,72,-24,12,-9
6905,11,-238,68,-24,11,-10
6910,12,-231,68,-26,11,-10
6915,15,-236,67,-27,10,-9
6920,14,-238,69,-27,10,-9
6925,14,-235,71,-25,9,-9
6930,11,-232,67,-25,9,-9
6935,11,-235,66,-25,11,-9
6940,13,-237,72,-21,12,-8
6945,11,-237,68,-23,12,-9
6950,14,-236,68,-23,12,-8
6955,12,-235,69,-22,11,-8
6960,11,-239,67,-22,11,-9
6965,13,-234,70,-22,10,-10
6970,13,-234,74,-22,9,-10
6975,16,-232,71,-24,8,-12
6980,13,-234,68,-25,7,-12
6985,15,-238,73,-28,6,-12
6990,11,-236,70,-30,7,-11
6995,12,-236,69,-30,8,-11
7000,12,-235,71,-27,9,-11
7005,14,-235,71,-26,11,-10
7010,12,-237,73,-23,13,-9
7015,15,-239,73,-20,13,-9
7020,13,-235,69,-17,13,-9
7025,10,-234,71,-16,12,-7
7030,13,-236,66,-17,11,-8
7035,11,-238,68,-17,11,-7
7040,15,-236,67,-20,10,-9
7045,11,-234,74,-23,9,-9
7050,15,-235,70,-26,9,-9
7055,13,-233,73,-30,9,-11
7060,12,-232,71,-29,12,-12
7065,13,-234,69,-29,15,-13
7070,13,-234,70,-29,17,-11
7075,11,-236,69,-28,19,-13
7080,14,-235,71,-25,18,-11
7085,14,-240,73,-22,21,-12
7090,13,-235,73,-18,21,-12
7095,14,-235,71,-15,20,-13
7100,10,-237,74,-12,19,-13
7105,12,-236,69,-8,20,-13
7110,13,-235,69,-6,18,-12
7115,13,-235,71,-5,16,-12
7120,14,-235,71,-3,13,-13
7125,14,-232,69,-3,12,-11
7130,13,-235,70,-3,11,-12
7135,12,-235,68,-6,10,-12
7140,17,-221,58,-7,9,-11
7145,13,-235,69,-11,9,-10
7150,11,-231,70,-14,10,-12
7155,14,-237,74,-14,10,-13
7160,12,-234,70,-15,11,-12
7165,13,-235,71,-17,10,-12
7170,13,-237,69,-17,11,-12
7175,12,-232,68,-15,11,-12
7180,13,-232,73,-15,11,-11
7185,12,-232,72,-15,11,-12
7190,11,-232,69,-15,12,-13
7195,11,-239,77,-15,13,-11
7200,10,-232,70,-16,12,-12
7205,11,-233,70,-16,12,-13
7210,11,-233,69,-15,13,-12
7215,8,-232,71,-16,13,-12
7220,13,-234,70,-16,12,-13
7225,12,-235,72,-17,14,-13
7230,9,-233,71,-17,16,-13
7235,14,-234,73,-16,18,-13
7240,14,-234,70,-16,19,-13
7245,14,-235,73,-16,19,-12
7250,14,-237,70,-14,18,-12
7255,13,-233,75,-12,18,-12
7260,13,-233,73,-12,17,-12
7265,13,-234,73,-9,17,-12
7270,12,-232,71,-9,16,-12
7275,15,-233,69,-12,15,-12
7280,16,-235,73,-14,13,-14
7285,12,-234,72,-16,12,-14
7290,13,-233,72,-18,12,-14
7295,15,-231,71,-22,12,-15
7300,13,-234,70,-26,12,-15
7305,13,-234,71,-26,13,-14
7310,13,-231,76,-29,13,-13
7315,11,-235,73,-28,13,-13
7320,17,-236,72,-29,14,-12
7325,15,-234,73,-29,12,-11
7330,12,-234,71,-27,12,-10
7335,14,-235,69,-28,12,-10
7340,15,-233,74,-29,12,-11
7345,14,-235,71,-29,10,-11
7350,12,-233,72,-29,10,-12
7355,14,-235,74,-29,11,-11
7360,13,-233,72,-30,10,-11
7365,12,-233,73,-31,11,-12
7370,14,-234,73,-30,11,-13
7375,10,-233,74,-32,11,-13
7380,12,-234,72,-32,13,-13
7385,12,-235,69,-31,13,-12
7390,12,-235,74,-32,13,-13
7395,11,-232,73,-32,12,-13
7400,14,-236,74,-32,13,-14
7405,13,-235,73,-33,13,-13
7410,15,-237,74,-33,11,-13
7415,15,-235,76,-32,11,-12
7420,13,-233,72,-29,11,-13
7425,15,-233,75,-27,10,-11
7430,13,-233,75,-24,10,-13
7435,13,-236,73,-23,11,-13
7440,12,-231,73,-25,12,-12
7445,15,-232,72,-24,12,-11
7450,13,-233,78,-25,11,-11
7455,12,-231,75,-27,11,-12
7460,13,-234,72,-28,12,-11
7465,13,-232,72,-29,12,-10
7470,13,-234,74,-31,12,-10
7475,13,-232,75,-31,12,-10
7480,14,-232,74,-34,12,-12
7485,13,-231,73,-34,12,-10
7490,11,-228,71,-37,14,-10
7495,14,-230,74,-39,14,-9
7500,13,-232,71,-41,13,-10
7505,12,-232,73,-45,11,-10
7510,13,-232,75,-46,11,-10
7515,13,-233,74,-50,10,-9
7520,13,-232,75,-54,10,-10
7525,15,-234,71,-55,12,-10
7530,13,-234,69,-58,12,-10
7535,13,-234,74,-60,16,-10
7540,13,-230,71,-59,17,-11
7545,12,-231,70,-59,20,-11
7550,13,-234,74,-55,21,-10
7555,14,-235,74,-50,21,-10
7560,16,-234,72,-46,23,-9
7565,16,-235,74,-44,24,-9
7570,14,-233,70,-38,23,-8
7575,14,-233,69,-36,22,-7
7580,18,-233,75,-36,21,-6
7585,14,-232,70,-37,21,-5
7590,12,-232,70,-36,17,-6
7595,14,-232,72,-37,17,-5
7600,16,-233,73,-40,16,-5
7605,15,-233,74,-40,14,-5
7610,14,-233,70,-41,13,-5
7615,12,-235,69,-40,11,-5
7620,15,-231,76,-43,10,-6
7625,15,-233,72,-42,9,-6
7630,15,-233,75,-43,10,-6
7635,13,-234,75,-45,10,-6
7640,15,-233,71,-49,10,-5
7645,12,-234,74,-50,9,-4
7650,15,-235,72,-53,10,-5
7655,16,-233,73,-54,12,-5
7660,13,-235,71,-55,14,-6
7665,15,-235,74,-57,15,-7
7670,14,-233,73,-55,17,-7
7675,15,-233,73,-54,17,-8
7680,13,-231,72,-54,19,-8
7685,14,-233,71,-55,19,-7
7690,14,-230,73,-53,18,-7
7695,12,-231,74,-52,18,-4
7700,9,-231,76,-52,18,-5
7705,14,-234,72,-52,16,-3
7710,14,-234,76,-52,16,-2
7715,13,-231,74,-49,15,0
7720,15,-235,70,-45,14,2
7725,14,-233,71,-40,13,2
7730,16,-234,72,-36,11,4
7735,15,-234,71,-34,9,4
7740,24,-224,65,-33,8,4
7745,17,-235,69,-33,8,4
7750,15,-234,69,-32,7,5
7755,16,-231,70,-35,9,4
7760,13,-232,69,-37,8,2
7765,12,-231,73,-39,9,2
7770,14,-232,70,-43,13,3
7775,15,-233,70,-46,16,2
7780,16,-231,70,-48,18,0
7785,15,-231,73,-52,19,0
7790,14,-230,70,-54,22,-2
7795,14,-230,75,-57,23,-3
7800,13,-233,73,-59,22,-2
7805,17,-235,73,-58,23,-2
7810,12,-235,72,-59,21,-3
7815,9,-230,74,-59,21,-2
7820,14,-231,72,-56,20,-2
7825,14,-232,73,-54,19,-4
7830,15,-233,73,-53,18,-3
7835,11,-233,75,-50,17,-3
7840,11,-232,73,-47,16,-1
7845,11,-235,71,-45,16,-1
7850,13,-233,75,-45,16,0
7855,12,-232,71,-43,15,-1
7860,13,-234,74,-46,15,0
7865,12,-233,76,-47,16,1
7870,13,-231,75,-48,16,1
7875,13,-233,68,-50,18,0
7880,11,-233,75,-50,19,-1
7885,14,-233,72,-51,20,1
7890,16,-234,74,-51,19,1
7895,14,-232,74,-53,20,0
7900,16,-234,71,-54,19,-1
7905,16,-233,73,-54,19,-1
7910,15,-233,74,-55,19,-1
7915,14,-233,73,-56,19,-1
7920,14,-234,72,-58,18,-1
7925,13,-231,73,-60,20,-1
7930,13,-231,70,-62,20,-2
7935,15,-233,70,-64,20,-1
7940,12,-229,77,-63,21,-2
7945,15,-234,71,-66,21,0
7950,14,-235,69,-66,21,0
7955,13,-232,77,-67,21,-1
7960,15,-232,75,-68,20,-1
7965,12,-233,73,-68,19,0
7970,12,-231,73,-69,19,-1
7975,13,-232,69,-71,18,1
7980,16,-237,71,-73,18,1
7985,12,-232,75,-75,18,-1
7990,12,-232,71,-75,19,2
7995,13,-232,72,-79,19,3
8000,13,-231,70,-79,18,1
8005,14,-234,73,-80,17,2
8010,12,-235,70,-80,16,2
8015,12,-234,69,-80,15,3
8020,13,-234,77,-79,15,4
8025,15,-236,75,-79,12,3
8030,14,-235,71,-79,12,5
8035,15,-236,70,-78,13,4
8040,15,-236,71,-76,12,5
8045,15,-233,69,-73,12,5
8050,13,-232,72,-70,12,6
8055,11,-232,68,-67,11,5
8060,14,-233,73,-67,10,5
8065,13,-233,70,-67,10,4
8070,12,-232,76,-70,11,3
8075,17,-237,70,-74,10,2
8080,16,-231,73,-79,12,3
8085,12,-231,70,-83,13,2
8090,12,-231,72,-89,13,1
8095,10,-232,73,-92,13,4
8100,14,-229,72,-97,14,2
8105,13,-232,71,-100,16,2
8110,12,-232,74,-101,16,3
8115,12,-235,70,-104,18,3
8120,13,-233,69,-102,19,2
8125,13,-233,73,-100,20,3
8130,16,-235,71,-98,20,2
8135,11,-234,74,-97,19,1
8140,13,-236,68,-93,19,0
8145,14,-234,76,-91,17,0
8150,13,-233,70,-89,15,0
8155,12,-234,74,-89,14,0
8160,16,-239,66,-89,13,0
8165,15,-232,71,-90,15,1
8170,12,-235,70,-90,15,2
8175,17,-233,73,-93,18,3
8180,13,-232,73,-95,21,5
8185,12,-231,67,-100,25,6
8190,13,-232,67,-105,29,9
8195,13,-234,69,-106,31,9
8200,13,-233,66,-107,32,8
8205,11,-235,67,-106,33,8
8210,15,-230,69,-106,30,8
8215,13,-234,70,-106,28,8
8220,14,-233,68,-106,25,7
8225,13,-234,70,-105,22,6
8230,14,-233,70,-107,19,7
8235,12,-234,72,-109,18,6
8240,13,-233,75,-110,16,7
8245,15,-232,73,-112,16,6
8250,11,-231,69,-115,17,6
8255,11,-235,71,-115,18,6
8260,13,-235,68,-119,19,6
8265,12,-233,67,-120,21,6
8270,13,-234,66,-122,22,7
8275,11,-232,68,-126,23,8
8280,17,-238,83,-130,24,9
8285,12,-231,70,-131,25,8
8290,13,-237,70,-135,27,7
8295,13,-234,67,-139,28,10
8300,13,-233,72,-141,28,9
8305,9,-237,66,-140,28,10
8310,14,-236,69,-140,27,10
8315,12,-234,73,-141,26,9
8320,14,-233,68,-143,25,9
8325,11,-236,65,-146,25,8
8330,11,-236,66,-147,23,7
8335,10,-236,77,-150,23,7
8340,12,-236,67,-150,24,7
8345,12,-234,66,-152,24,6
8350,9,-233,69,-153,25,6
8355,7,-234,67,-156,26,7
8360,11,-236,69,-156,27,6
8365,12,-234,64,-156,28,6
8370,11,-236,64,-159,30,7
8375,12,-233,68,-161,31,7
8380,14,-238,70,-163,33,7
8385,11,-237,67,-165,34,8
8390,10,-235,68,-168,36,7
8395,11,-234,65,-169,39,8
8400,12,-238,67,-170,41,7
8405,11,-238,66,-170,41,7
8410,11,-232,68,-171,41,7
8415,13,-234,64,-171,41,6
8420,14,-236,67,-170,40,6
8425,12,-240,67,-171,38,4
8430,9,-237,69,-171,36,3
8435,11,-237,66,-174,35,2
8440,13,-237,65,-176,35,2
8445,14,-240,63,-178,36,3
8450,12,-239,63,-181,36,4
8455,12,-239,66,-182,37,4
8460,9,-237,63,-184,37,7
8465,12,-236,65,-185,37,6
8470,10,-236,64,-188,35,6
8475,11,-237,64,-192,36,9
8480,12,-237,63,-196,35,10
8485,12,-236,62,-204,32,11
8490,11,-235,60,-208,29,10
8495,11,-235,60,-215,27,11
8500,12,-232,60,-222,25,10
8505,12,-235,61,-230,27,10
8510,11,-234,65,-237,27,11
8515,13,-233,63,-240,29,9
8520,15,-234,59,-245,31,8
8525,13,-235,64,-247,33,8
8530,13,-235,61,-250,36,4
8535,13,-231,64,-250,37,2
8540,19,-234,60,-254,40,1
8545,10,-234,63,-255,45,2
8550,17,-233,63,-262,47,2
8555,13,-231,64,-269,52,1
8560,13,-229,64,-278,55,3
8565,13,-229,64,-289,56,5
8570,11,-234,63,-300,59,5
8575,12,-231,62,-312,59,8
8580,13,-233,62,-323,61,8
8585,11,-229,61,-336,60,9
8590,13,-232,61,-349,58,10
8595,11,-231,57,-362,55,9
8600,7,-230,57,-375,52,8
8605,7,-228,62,-387,49,10
8610,7,-232,60,-398,46,9
8615,9,-231,61,-409,44,11
8620,6,-230,58,-421,43,9
8625,9,-230,60,-433,41,9
8630,8,-232,63,-444,44,7
8635,11,-228,62,-455,44,8
8640,10,-226,59,-466,47,9
8645,10,-229,60,-476,51,8
8650,11,-229,60,-483,54,8
8655,10,-227,63,-487,59,7
8660,12,-227,62,-490,63,7
8665,10,-230,61,-493,66,5
8670,12,-227,63,-493,69,3
8675,14,-229,57,-493,70,1
8680,11,-226,56,-497,70,0
8685,14,-228,59,-505,71,-4
8690,13,-226,61,-516,72,-8
8695,10,-227,61,-525,75,-11
8700,13,-228,59,-537,81,-17
8705,15,-227,60,-549,85,-22
8710,14,-227,62,-563,91,-28
8715,12,-228,59,-576,97,-30
8720,16,-231,58,-588,104,-36
8725,19,-236,62,-589,111,-40
8730,16,-239,62,-573,120,-44
8735,15,-247,60,-533,128,-49
8740,16,-255,63,-468,130,-52
8745,12,-256,64,-386,128,-58
8750,12,-256,57,-306,124,-61
8755,10,-247,59,-246,120,-61
8760,8,-244,56,-217,116,-58
8765,10,-239,54,-224,112,-52
8770,10,-231,57,-263,110,-41
8775,10,-228,51,-322,112,-32
8780,11,-228,51,-393,116,-24
8785,15,-224,50,-471,122,-15
8790,10,-227,52,-542,132,-11
8795,12,-231,52,-607,141,-9
8800,12,-232,49,-671,150,-6
8805,10,-236,55,-737,155,-1
8810,10,-239,62,-801,152,-2
8815,11,-245,59,-859,142,-10
8820,7,-248,61,-915,127,-18
8825,4,-245,48,-969,106,-27
8830,6,-257,57,-1022,83,-35
8835,10,-261,57,-1072,62,-46
8840,6,-264,58,-1121,47,-61
8845,8,-267,55,-1173,39,-74
8850,8,-271,50,-1222,41,-87
8855,5,-267,49,-1273,46,-98
8860,3,-271,45,-1324,53,-107
8865,4,-272,47,-1375,59,-115
8870,5,-278,41,-1432,71,-116
8875,6,-280,36,-1484,87,-114
8880,7,-283,37,-1529,114,-105
8885,11,-292,37,-1558,148,-93
8890,6,-298,29,-1579,182,-79
8895,8,-302,30,-1591,210,-61
8900,8,-310,30,-1601,229,-41
8905,3,-315,25,-1607,232,-18
8910,1,-318,19,-1609,220,7
8915,1,-326,14,-1610,190,35
8920,0,-331,13,-1604,147,67
8925,-5,-330,8,-1590,95,103
8930,-4,-334,5,-1566,38,142
8935,0,-342,1,-1530,-23,182
8940,0,-344,-4,-1486,-82,217
8945,3,-348,-15,-1435,-134,248
8950,7,-354,-19,-1374,-173,273
8955,11,-353,-29,-1307,-193,290
8960,14,-357,-35,-1230,-197,297
8965,18,-354,-44,-1147,-182,289
8970,13,-347,-50,-1059,-151,274
8975,18,-344,-55,-971,-115,252
8980,16,-336,-58,-881,-75,221
8985,18,-329,-63,-795,-37,186
8990,15,-325,-69,-715,-2,147
8995,16,-317,-71,-645,35,110
9000,18,-311,-75,-586,71,71
9005,13,-305,-70,-542,106,32
9010,11,-300,-73,-510,138,0
9015,10,-297,-70,-488,164,-23
9020,3,-294,-69,-475,179,-40
9025,0,-290,-68,-474,182,-47
9030,-3,-289,-63,-478,176,-45
9035,-5,-287,-61,-485,164,-34
9040,-8,-286,-53,-490,144,-17
9045,-7,-290,-56,-490,123,4
9050,-9,-294,-49,-483,98,24
9055,-10,-292,-46,-469,74,48
9060,-10,-297,-49,-452,50,69
9065,-8,-300,-47,-434,27,87
9070,-4,-305,-48,-408,5,103
9075,-9,-301,-47,-381,-14,116
9080,-7,-304,-46,-356,-31,128
9085,-3,-307,-39,-329,-47,136
9090,0,-306,-45,-298,-61,142
9095,-3,-304,-38,-260,-68,145
9100,0,-305,-39,-221,-73,144
9105,0,-301,-44,-181,-71,140
9110,0,-299,-47,-143,-68,134
9115,0,-298,-51,-107,-66,124
9120,2,-298,-52,-80,-64,111
9125,-1,-293,-62,-63,-62,98
9130,1,-292,-64,-58,-64,85
9135,0,-290,-70,-65,-66,69
9140,1,-291,-71,-82,-70,52
9145,3,-289,-77,-110,-77,30
9150,4,-289,-83,-141,-81,12
9155,2,-292,-82,-172,-83,-6
9160,2,-290,-82,-200,-82,-23
9165,3,-290,-75,-223,-81,-39
9170,2,-292,-78,-236,-76,-51
9175,1,-291,-77,-235,-71,-61
9180,0,-290,-73,-219,-64,-67
9185,2,-291,-66,-188,-54,-72
9190,6,-293,-66,-150,-44,-77
9195,3,-290,-63,-99,-37,-80
9200,3,-287,-63,-45,-34,-83
9205,6,-287,-62,11,-32,-82
9210,6,-283,-64,62,-32,-81
9215,7,-278,-65,106,-35,-79
9220,4,-276,-59,145,-43,-78
9225,7,-275,-59,174,-50,-78
9230,6,-272,-56,195,-60,-76
9235,7,-266,-56,210,-70,-75
9240,5,-269,-58,219,-80,-72
9245,9,-262,-60,217,-91,-69
9250,8,-266,-62,210,-100,-67
9255,7,-264,-58,196,-106,-67
9260,10,-263,-58,180,-109,-62
9265,10,-260,-63,167,-111,-60
9270,10,-262,-62,156,-110,-58
9275,9,-262,-62,150,-108,-57
9280,12,-266,-59,152,-103,-58
9285,10,-264,-60,161,-98,-59
9290,11,-262,-60,176,-91,-60
9295,7,-260,-59,199,-88,-62
9300,5,-258,-57,227,-85,-64
9305,12,-259,-55,258,-85,-67
9310,9,-258,-54,292,-86,-69
9315,7,-255,-52,321,-90,-74
9320,8,-256,-57,347,-93,-76
9325,7,-253,-48,374,-97,-80
9330,6,-248,-50,395,-102,-82
9335,6,-247,-45,414,-105,-85
9340,7,-247,-51,424,-108,-87
9345,8,-245,-52,429,-110,-90
9350,9,-243,-50,425,-113,-94
9355,7,-238,-49,420,-116,-98
9360,7,-240,-50,415,-119,-99
9365,10,-237,-51,411,-122,-100
9370,9,-236,-52,408,-125,-103
9375,12,-234,-48,409,-128,-105
9380,10,-232,-48,413,-131,-105
9385,12,-234,-49,421,-134,-107
9390,11,-228,-43,431,-135,-108
9395,12,-226,-49,444,-136,-111
9400,14,-224,-42,462,-139,-112
9405,11,-220,-37,481,-143,-114
9410,11,-216,-43,493,-149,-114
9415,20,-204,-44,495,-162,-108
9420,10,-211,-40,487,-177,-95
9425,9,-212,-48,469,-197,-85
9430,4,-211,-43,442,-221,-76
9435,3,-209,-39,404,-241,-66
9440,5,-212,-43,361,-255,-59
9445,7,-213,-38,322,-266,-53
9450,5,-211,-41,290,-273,-48
9455,3,-211,-37,269,-277,-41
9460,2,-217,-41,253,-283,-34
9465,5,-215,-42,244,-289,-29
9470,2,-209,-29,247,-294,-25
9475,2,-216,-40,259,-297,-21
9480,5,-217,-36,275,-303,-19
9485,4,-217,-43,292,-305,-20
9490,6,-210,-39,318,-306,-21
9495,6,-215,-36,348,-302,-23
9500,8,-213,-38,382,-295,-25
9505,8,-211,-36,415,-286,-29
9510,12,-206,-39,446,-276,-33
9515,12,-203,-37,474,-265,-35
9520,14,-205,-36,491,-256,-37
9525,17,-202,-44,494,-244,-39
9530,15,-201,-46,478,-232,-39
9535,21,-198,-45,445,-216,-40
9540,23,-201,-45,401,-197,-41
9545,25,-201,-46,350,-177,-40
9550,29,-207,-44,303,-152,-39
9555,28,-207,-41,261,-125,-40
9560,29,-214,-43,223,-100,-39
9565,33,-213,-39,193,-79,-42
9570,32,-216,-33,178,-59,-43
9575,30,-221,-35,171,-41,-40
9580,33,-225,-34,168,-31,-36
9585,26,-227,-35,172,-25,-34
9590,29,-229,-33,179,-23,-31
9595,26,-230,-31,191,-24,-29
9600,24,-234,-36,204,-26,-24
9605,22,-233,-32,215,-28,-22
9610,22,-238,-32,225,-27,-19
9615,20,-242,-29,227,-25,-15
9620,17,-241,-31,224,-19,-11
9625,16,-240,-25,231,-12,-13
9630,17,-247,-24,238,-5,-13
9635,14,-253,-27,240,2,-13
9640,12,-252,-27,232,12,-13
9645,10,-256,-28,219,21,-11
9650,7,-259,-29,203,27,-11
9655,10,-265,-29,185,32,-8
9660,8,-267,-26,173,37,-9
9665,5,-267,-28,170,41,-10
9670,0,-273,-29,178,43,-11
9675,3,-275,-18,195,44,-10
9680,1,-276,-16,224,41,-8
9685,1,-277,-15,262,34,-6
9690,1,-276,-10,305,28,-5
9695,0,-274,-7,350,19,-2
9700,0,-274,-7,395,8,1
9705,1,-271,-3,434,-2,5
9710,2,-267,-4,463,-14,9
9715,2,-260,0,481,-26,13
9720,4,-259,0,489,-41,16
9725,2,-252,0,486,-55,21
9730,8,-249,0,477,-67,26
9735,8,-246,4,465,-81,30
9740,10,-242,0,448,-92,38
9745,11,-241,1,426,-101,46
9750,8,-238,2,401,-111,53
9755,10,-236,1,373,-120,60
9760,14,-235,1,342,-129,67
9765,15,-236,1,306,-136,72
9770,16,-237,1,274,-142,76
9775,16,-240,-4,242,-143,82
9780,18,-239,-2,214,-141,84
9785,20,-246,-3,188,-135,87
9790,18,-244,-11,168,-126,91
9795,17,-244,-10,151,-115,93
9800,16,-246,-12,137,-104,96
9805,17,-245,-7,124,-92,97
9810,15,-251,-6,117,-81,101
9815,13,-251,-10,110,-71,104
9820,13,-251,-9,103,-62,107
9825,11,-253,-12,92,-56,110
9830,10,-251,-11,78,-51,115
9835,7,-254,-12,59,-48,119
9840,10,-258,-8,38,-44,123
9845,12,-258,-11,16,-41,126
9850,8,-262,-12,-2,-37,128
9855,9,-266,-10,-14,-32,131
9860,7,-267,-6,-14,-27,131
9865,9,-272,-9,-2,-23,133
9870,4,-269,-7,19,-21,132
9875,3,-270,-6,43,-22,130
9880,3,-266,-10,68,-26,130
9885,4,-267,-5,93,-32,129
9890,3,-262,-6,115,-39,126
9895,4,-260,-1,131,-41,123
9900,3,-256,-10,140,-41,117
9905,5,-256,-3,142,-38,110
9910,5,-251,0,138,-29,103
9915,1,-247,-1,129,-19,95
9920,4,-243,0,110,-7,88
9925,5,-244,0,88,7,84
9930,4,-246,2,61,22,79
9935,4,-246,7,32,33,73
9940,6,-249,9,1,41,69
9945,6,-253,2,-28,50,67
9950,6,-256,6,-50,57,65
9955,-15,-264,6,-62,63,62
9960,4,-259,10,-65,68,61
9965,3,-261,7,-61,75,59
9970,3,-265,9,-48,78,56
9975,1,-265,11,-34,83,54
9980,3,-270,10,-17,88,53
9985,4,-269,11,2,92,53
9990,3,-267,11,22,96,53
9995,2,-264,12,37,102,52
10000,1,-261,14,52,106,52
10005,0,-258,14,62,107,51
10010,-1,-259,19,70,107,49
10015,0,-250,16,76,106,46
10020,-2,-247,15,74,103,46
10025,0,-243,16,67,98,42
10030,0,-241,17,56,96,39
10035,0,-238,16,39,96,34
10040,-2,-233,21,18,97,29
10045,-1,-232,18,-5,102,21
10050,-2,-232,13,-33,105,12
10055,0,-233,17,-64,106,2
10060,0,-233,15,-97,106,-6
10065,-1,-236,16,-129,106,-13
10070,-3,-237,13,-158,106,-21
10075,-2,-238,14,-181,109,-28
10080,-4,-241,10,-198,114,-34
10085,-4,-249,11,-210,119,-40
10090,-6,-251,13,-213,123,-47
10095,-6,-252,11,-211,130,-54
10100,-8,-255,7,-205,136,-60
10105,-8,-255,10,-194,140,-66
10110,-4,-256,8,-181,144,-70
10115,-7,-258,3,-165,146,-73
10120,0,-259,4,-151,147,-79
10125,-6,-257,5,-140,149,-84
10130,-8,-257,5,-129,152,-91
10135,-7,-258,5,-120,155,-97
10140,-10,-258,5,-114,155,-101
10145,-9,-255,5,-109,149,-104
10150,-7,-256,5,-108,142,-108
10155,-7,-256,6,-105,133,-113
10160,-8,-255,10,-99,126,-118
10165,-10,-253,11,-91,118,-121
10170,-11,-255,10,-79,110,-125
10175,-10,-253,10,-68,100,-127
10180,-10,-252,13,-59,89,-128
10185,-6,-253,14,-49,78,-130
10190,-4,-252,15,-43,72,-132
10195,-4,-252,22,-37,73,-134
10200,-6,-255,21,-35,76,-134
10205,-4,-254,23,-40,85,-131
10210,-1,-259,19,-51,90,-127
10215,3,-261,15,-69,95,-120
10220,0,-263,17,-94,99,-112
10225,2,-267,13,-121,102,-103
10230,2,-270,10,-140,104,-94
10235,4,-272,12,-149,105,-84
10240,6,-271,9,-147,104,-71
10245,6,-271,9,-136,97,-59
10250,3,-270,5,-115,85,-50
10255,3,-269,4,-87,69,-42
10260,4,-262,2,-56,52,-36
10265,6,-262,3,-28,38,-31
10270,1,-258,4,-6,27,-29
10275,2,-247,6,9,16,-28
10280,0,-247,1,15,5,-28
10285,2,-244,3,9,-6,-30
10290,0,-236,3,-6,-16,-35
10295,1,-236,4,-30,-22,-40
10300,0,-235,2,-61,-26,-43
10305,0,-237,1,-98,-26,-48
10310,-1,-243,3,-138,-24,-51
10315,0,-243,4,-175,-22,-53
10320,-1,-249,0,-207,-17,-54
10325,0,-254,2,-231,-13,-51
10330,1,-258,2,-247,-8,-48
10335,1,-261,4,-250,-4,-45
10340,1,-267,6,-245,1,-38
10345,3,-274,4,-228,5,-31
10350,3,-274,5,-204,11,-24
10355,3,-278,1,-171,16,-17
10360,6,-279,7,-138,19,-12
10365,7,-280,7,-103,22,-8
10370,8,-278,7,-68,23,-4
10375,11,-275,9,-33,24,-3
10380,15,-277,9,-1,23,-1
10385,12,-273,8,28,23,-1
10390,12,-266,7,52,23,-2
10395,13,-265,10,68,22,-4
10400,13,-262,13,78,20,-4
10405,17,-257,9,85,18,-5
10410,17,-255,15,87,16,-7
10415,17,-253,11,83,14,-7
10420,17,-251,13,75,13,-9
10425,11,-252,13,64,11,-9
10430,18,-250,13,48,12,-8
10435,12,-248,11,32,15,-7
10440,15,-246,11,12,16,-5
10445,15,-248,13,-7,19,-4
10450,16,-251,11,-28,23,-5
10455,10,-250,15,-48,26,-5
10460,10,-249,11,-65,29,-5
10465,12,-253,10,-77,32,-4
10470,8,-256,16,-84,37,-5
10475,12,-257,11,-87,41,-6
10480,7,-257,8,-85,45,-8
10485,9,-260,10,-79,49,-10
10490,8,-260,14,-68,54,-12
10495,7,-261,10,-58,58,-15
10500,5,-262,11,-48,61,-19
10505,5,-262,12,-38,64,-23
10510,7,-266,9,-28,67,-27
10515,5,-260,7,-18,66,-30
10520,6,-260,4,-7,69,-31
10525,5,-261,6,1,71,-34
10530,4,-256,6,7,73,-34
10535,7,-259,7,17,74,-35
10540,8,-260,6,24,76,-36
10545,8,-259,4,28,78,-37
10550,-1,-252,7,31,76,-38
10555,7,-257,4,34,74,-37
10560,10,-258,3,33,73,-37
10565,8,-260,3,31,70,-37
10570,5,-257,8,30,68,-35
10575,6,-257,4,27,63,-32
10580,8,-256,5,21,57,-33
10585,9,-259,3,18,53,-30
10590,7,-257,3,16,47,-28
10595,5,-257,6,15,42,-24
10600,9,-259,5,14,39,-24
10605,7,-256,17,16,34,-21
10610,8,-258,3,21,32,-20
10615,7,-258,5,21,29,-18
10620,7,-256,5,22,29,-16
10625,8,-256,4,20,28,-14
10630,10,-257,8,15,29,-12
10635,7,-256,6,11,28,-10
10640,6,-257,10,7,27,-8
10645,12,-257,4,5,28,-7
10650,7,-258,8,2,28,-5
10655,13,-255,6,2,28,-5
10660,10,-256,8,3,26,-4
10665,9,-256,10,5,27,-4
10670,9,-254,8,6,26,-4
10675,12,-255,10,6,26,-4
10680,11,-255,10,9,27,-4
10685,11,-256,11,7,28,-4
10690,11,-256,9,6,28,-6
10695,11,-254,11,4,29,-7
10700,9,-252,11,4,30,-7
10705,13,-254,9,2,31,-8
10710,13,-255,11,-2,29,-9
10715,9,-253,8,-5,29,-11
10720,11,-255,8,-8,32,-10
10725,10,-258,8,-12,32,-10
10730,13,-256,12,-14,35,-13
10735,9,-256,6,-15,37,-14
10740,9,-256,9,-16,39,-15
10745,7,-255,10,-15,42,-18
10750,9,-256,10,-13,44,-20
10755,8,-256,11,-12,44,-21
10760,9,-258,12,-9,48,-23
10765,11,-255,9,-8,48,-24
10770,10,-257,9,-6,51,-27
10775,6,-250,9,-4,51,-28
10780,10,-257,8,-4,52,-31
10785,5,-255,9,-4,52,-33
10790,11,-254,13,-4,51,-36
10795,8,-256,14,-6,51,-37
10800,8,-253,11,-8,50,-38
10805,6,-255,14,-9,47,-41
10810,6,-256,10,-13,46,-42
10815,7,-255,10,-12,43,-42
10820,5,-257,13,-11,40,-44
10825,6,-255,7,-14,38,-45
10830,3,-254,8,-17,34,-44
10835,5,-254,9,-19,30,-44
10840,5,-253,11,-23,29,-42
10845,6,-254,11,-26,26,-40
10850,7,-255,11,-32,25,-38
10855,4,-254,13,-39,23,-37
10860,7,-250,11,-47,18,-33
10865,7,-254,8,-56,14,-30
10870,6,-256,11,-62,11,-28
10875,8,-256,12,-69,7,-25
10880,6,-257,8,-73,4,-22
10885,6,-256,14,-75,0,-20
10890,6,-255,7,-74,-4,-18
10895,5,-257,10,-73,-11,-16
10900,6,-257,10,-74,-11,-13
10905,9,-255,7,-72,-15,-12
10910,8,-255,10,-71,-17,-10
10915,7,-257,12,-71,-19,-10
10920,12,-256,4,-73,-19,-7
10925,9,-256,12,-72,-19,-7
10930,12,-257,8,-74,-19,-4
10935,10,-259,7,-74,-18,-4
10940,10,-258,8,-74,-17,-4
10945,13,-259,11,-69,-18,-4
10950,12,-260,10,-65,-16,-2
10955,10,-259,10,-57,-16,-4
10960,12,-259,11,-51,-14,-5
10965,11,-258,9,-43,-13,-5
10970,11,-257,11,-41,-13,-4
10975,10,-256,15,-36,-12,-6
10980,10,-255,14,-33,-9,-5
10985,13,-256,16,-31,-6,-5
10990,14,-256,13,-33,-3,-5
10995,13,-257,13,-35,-1,-6
11000,11,-256,11,-37,0,-6
11005,9,-255,15,-38,2,-5
11010,15,-257,14,-37,4,-6
11015,12,-256,16,-37,3,-6
11020,12,-257,16,-36,4,-4
11025,10,-255,14,-35,5,-4
11030,10,-254,18,-33,4,-3
11035,9,-256,12,-30,4,-3
11040,10,-256,16,-31,5,-5
11045,9,-258,15,-30,6,-4
11050,12,-256,13,-31,5,-7
11055,6,-254,12,-31,5,-7
11060,9,-255,13,-31,5,-8
11065,9,-256,13,-29,3,-8
11070,11,-255,14,-31,3,-8
11075,7,-255,15,-29,2,-10
11080,8,-256,15,-28,1,-11
11085,7,-256,14,-27,0,-10
11090,9,-261,13,-27,0,-10
11095,2,-261,11,-25,-3,-11
11100,5,-256,15,-25,-5,-12
11105,6,-255,15,-23,-6,-11
11110,6,-257,11,-23,-7,-8
11115,7,-255,16,-22,-8,-8
11120,6,-256,7,-24,-11,-7
11125,7,-254,9,-23,-13,-5
11130,8,-256,11,-24,-16,-4
11135,7,-253,12,-25,-18,-4
11140,9,-255,11,-26,-20,-2
11145,8,-253,9,-28,-22,1
11150,11,-263,20,-30,-24,3
11155,9,-255,15,-32,-27,3
11160,11,-255,17,-33,-29,3
11165,12,-255,14,-34,-31,4
11170,10,-255,13,-35,-32,6
11175,11,-257,12,-38,-33,5
11180,13,-255,12,-39,-33,4
11185,11,-257,15,-38,-32,4
11190,12,-256,16,-35,-32,3
11195,10,-255,16,-35,-30,4
11200,12,-256,15,-31,-28,3
11205,14,-254,10,-31,-27,3
11210,15,-256,16,-32,-25,0
11215,12,-253,11,-31,-21,0
11220,14,-255,11,-33,-19,1
11225,13,-256,13,-34,-17,2
11230,14,-255,13,-35,-16,0
11235,12,-255,12,-36,-13,-1
11240,16,-257,14,-40,-12,-2
11245,11,-255,12,-44,-10,-2
11250,12,-254,14,-44,-8,-2
11255,11,-256,13,-43,-7,-4
11260,12,-256,12,-43,-5,-6
11265,11,-258,16,-43,-4,-5
11270,13,-258,13,-42,-2,-6
11275,10,-256,7,-37,-1,-6
11280,9,-255,10,-35,-2,-7
11285,11,-256,9,-36,-1,-7
11290,12,-255,16,-35,0,-5
11295,10,-255,12,-34,0,-6
11300,9,-256,13,-36,-1,-6
11305,10,-255,9,-35,0,-7
11310,14,-254,11,-35,0,-7
11315,13,-252,12,-35,1,-5
11320,10,-254,10,-38,1,-5
11325,6,-254,9,-40,0,-6
11330,10,-258,12,-44,0,-6
11335,11,-257,11,-48,-1,-6
11340,9,-258,16,-51,-1,-5
11345,11,-258,14,-52,0,-6
11350,9,-255,13,-51,1,-7
11355,11,-258,16,-48,1,-6
11360,8,-256,10,-46,2,-7
11365,8,-257,11,-44,2,-7
11370,11,-257,13,-40,2,-7
11375,11,-258,15,-35,1,-8
11380,10,-254,12,-32,2,-7
11385,10,-256,15,-29,3,-8
11390,11,-255,14,-25,3,-7
11395,10,-255,13,-24,2,-6
11400,12,-257,13,-22,0,-6
11405,11,-257,16,-18,0,-5
11410,10,-256,13,-16,-1,-4
11415,11,-256,16,-11,-2,-1
11420,11,-254,13,-12,-3,-1
11425,11,-255,15,-12,-2,-1
11430,11,-253,13,-10,-4,2
11435,11,-256,14,-12,-6,2
11440,13,-259,15,-15,-5,2
11445,11,-255,15,-17,-5,2
11450,11,-253,11,-20,-6,2
11455,9,-257,18,-22,-4,1
11460,11,-255,13,-25,-4,-1
11465,10,-254,14,-27,-3,-2
11470,11,-256,12,-26,-3,-4
11475,9,-255,12,-25,-2,-4
11480,12,-255,18,-22,-1,-4
11485,10,-256,14,-21,-1,-7
11490,9,-256,17,-18,-2,-7
11495,9,-256,15,-15,-2,-7
11500,10,-253,19,-12,-3,-9
11505,10,-255,15,-12,-3,-9
11510,11,-256,16,-10,-3,-9
11515,10,-254,15,-9,-5,-9
11520,7,-256,13,-10,-5,-9
11525,12,-254,14,-11,-8,-10
11530,9,-254,14,-13,-7,-10
11535,9,-252,15,-15,-8,-10
11540,8,-256,13,-18,-8,-10
11545,10,-252,14,-23,-9,-9
11550,9,-254,14,-25,-9,-9
11555,9,-256,19,-31,-13,-9
11560,8,-253,18,-37,-14,-8
11565,6,-253,21,-43,-16,-7
11570,7,-256,14,-46,-20,-6
11575,5,-255,18,-49,-22,-5
11580,10,-253,13,-51,-25,-3
11585,7,-255,17,-53,-27,-3
11590,5,-253,14,-52,-29,-2
11595,8,-256,13,-54,-30,0
11600,8,-256,15,-55,-32,0
11605,12,-255,11,-57,-32,1
11610,10,-256,14,-57,-34,2
11615,7,-255,13,-58,-34,2
11620,9,-255,6,-59,-35,4
11625,9,-255,11,-60,-34,5
11630,10,-257,12,-62,-34,4
11635,7,-255,16,-63,-32,6
11640,7,-255,14,-62,-32,7
11645,9,-256,15,-64,-33,6
11650,10,-257,13,-64,-32,6
11655,9,-257,14,-64,-32,7
11660,12,-255,13,-62,-32,6
11665,13,-255,16,-61,-31,5
11670,10,-256,16,-58,-29,4
11675,13,-257,14,-57,-25,3
11680,11,-254,16,-54,-24,3
11685,8,-254,17,-52,-21,2
11690,9,-255,17,-53,-18,2
11695,6,-272,22,-53,-16,2
11700,16,-255,13,-52,-17,2
11705,12,-256,15,-55,-17,3
11710,14,-257,12,-56,-16,3
11715,12,-257,13,-59,-16,2
11720,11,-256,12,-59,-17,3
11725,11,-257,11,-60,-18,3
11730,8,-256,16,-57,-18,3
11735,12,-257,17,-57,-19,5
11740,11,-256,15,-54,-19,5
11745,13,-258,15,-53,-19,4
11750,9,-261,23,-53,-20,4
11755,11,-256,18,-51,-20,4
11760,12,-258,13,-50,-19,2
11765,8,-255,11,-49,-19,1
11770,8,-257,15,-47,-17,1
11775,10,-255,11,-45,-17,0
11780,13,-255,15,-45,-16,-1
11785,10,-255,14,-44,-15,-1
11790,10,-255,18,-47,-13,0
11795,9,-253,13,-45,-10,-2
11800,10,-256,16,-48,-9,-3
11805,13,-256,15,-48,-6,-2
11810,14,-253,14,-48,-6,-3
11815,12,-255,15,-48,-6,-4
11820,14,-256,17,-50,-4,-4
11825,7,-256,19,-49,-3,-3
11830,12,-256,15,-49,-3,-2
11835,9,-254,13,-50,-5,-2
11840,12,-257,17,-50,-6,-2
11845,13,-255,19,-50,-6,-2
11850,11,-253,16,-50,-6,-2
11855,12,-255,13,-53,-8,-1
11860,13,-258,14,-54,-8,-1
11865,10,-256,15,-56,-9,0
11870,11,-256,16,-57,-8,-2
11875,10,-255,17,-58,-7,-1
11880,11,-258,15,-56,-7,-2
11885,11,-256,15,-56,-6,-2
11890,10,-256,12,-56,-4,-3
11895,11,-255,16,-52,-4,-4
11900,9,-257,13,-51,-2,-6
11905,12,-258,14,-50,0,-6
11910,13,-257,16,-46,2,-8
11915,11,-253,15,-43,2,-8
11920,12,-253,17,-41,5,-9
11925,9,-255,11,-41,6,-9
11930,13,-256,15,-41,10,-9
11935,11,-256,10,-43,11,-8
11940,12,-256,15,-47,12,-8
11945,11,-257,15,-48,14,-9
11950,11,-255,9,-51,13,-8
11955,9,-254,18,-53,13,-9
11960,13,-257,13,-55,15,-8
11965,12,-256,12,-56,14,-8
11970,8,-255,14,-54,14,-9
11975,10,-255,14,-53,14,-9
11980,12,-256,13,-49,14,-9
11985,11,-253,17,-45,14,-8
11990,7,-256,13,-45,14,-9
11995,10,-258,17,-41,13,-8
