timestamp,acc_x,acc_y,acc_z,gyro_x,gyro_y,gyro_z
0,21,-236,-93,35,119,12
5,20,-239,-94,31,121,11
10,22,-242,-86,28,124,14
15,22,-240,-88,27,126,13
20,21,-239,-90,29,131,16
25,19,-240,-92,33,136,14
30,23,-241,-90,37,141,16
35,21,-244,-87,43,145,13
40,22,-243,-88,49,150,14
45,22,-241,-87,55,155,9
50,19,-243,-85,61,159,10
55,18,-241,-88,67,164,7
60,19,-242,-90,70,166,8
65,20,-244,-84,72,168,6
70,19,-241,-87,74,168,9
75,19,-241,-90,70,169,8
80,19,-242,-85,66,168,10
85,21,-241,-85,61,167,10
90,20,-240,-86,55,167,12
95,21,-239,-86,49,165,12
100,20,-240,-88,42,165,14
105,21,-241,-88,33,165,8
110,19,-233,-90,24,164,10
115,18,-250,-89,12,164,6
120,24,-235,-82,1,163,6
125,20,-235,-89,-8,163,3
130,17,-245,-93,-16,162,5
135,16,-242,-92,-19,158,4
140,24,-241,-82,-19,156,6
145,11,-248,-80,-18,152,4
150,18,-237,-83,-11,147,5
155,15,-237,-94,-3,141,2
160,14,-246,-91,5,139,4
165,19,-241,-85,13,135,1
170,19,-240,-83,18,129,2
175,16,-240,-85,23,125,1
180,18,-247,-90,23,122,2
185,26,-232,-85,23,120,1
190,22,-242,-71,17,116,4
195,9,-253,-96,14,113,2
200,20,-242,-85,9,111,6
205,19,-241,-87,8,109,4
210,19,-240,-88,6,108,8
215,21,-240,-89,6,109,8
220,23,-240,-89,6,107,13
225,19,-239,-87,7,108,10
230,19,-243,-88,7,108,14
235,23,-245,-85,8,110,11
240,26,-244,-86,8,110,12
245,23,-239,-87,9,111,10
250,24,-239,-87,10,114,12
255,22,-239,-87,10,116,9
260,24,-239,-87,7,119,10
265,24,-237,-87,4,120,7
270,23,-240,-86,-2,119,8
275,22,-241,-87,-7,119,6
280,25,-241,-83,-12,117,8
285,24,-240,-85,-16,117,4
290,22,-242,-88,-20,117,6
295,23,-241,-86,-25,113,3
300,22,-244,-85,-28,111,7
305,24,-241,-86,-33,109,5
310,23,-245,-83,-35,108,9
315,21,-244,-86,-36,104,8
320,21,-241,-87,-36,102,12
325,22,-245,-89,-36,99,11
330,21,-243,-89,-33,96,16
335,20,-244,-88,-28,92,17
340,17,-240,-90,-26,91,18
345,20,-242,-89,-21,88,18
350,18,-243,-89,-18,85,23
355,22,-241,-88,-17,84,21
360,18,-240,-90,-15,80,24
365,21,-239,-90,-17,77,23
370,20,-242,-89,-20,74,25
375,19,-237,-88,-24,74,24
380,17,-239,-90,-29,73,26
385,23,-238,-87,-34,73,23
390,20,-237,-86,-39,74,25
395,22,-235,-88,-45,73,23
400,23,-239,-91,-49,72,24
405,21,-237,-84,-55,71,21
410,23,-238,-86,-58,71,23
415,26,-238,-88,-65,71,19
420,24,-238,-85,-69,73,21
425,19,-241,-87,-71,73,18
430,19,-240,-87,-73,74,19
435,21,-242,-87,-72,75,16
440,18,-238,-85,-73,77,17
445,22,-239,-85,-71,77,15
450,21,-240,-86,-68,79,14
455,20,-240,-88,-65,81,13
460,18,-241,-85,-64,82,17
465,21,-244,-89,-59,86,18
470,18,-241,-87,-57,89,21
475,19,-246,-87,-54,90,24
480,21,-243,-88,-58,90,29
485,22,-245,-92,-65,90,28
490,22,-243,-86,-74,90,31
495,23,-245,-92,-83,92,35
500,22,-244,-89,-90,92,40
505,23,-246,-88,-94,92,45
510,18,-244,-95,-95,92,51
515,21,-244,-92,-92,93,58
520,23,-246,-88,-84,94,65
525,22,-246,-93,-75,95,68
530,19,-247,-91,-65,93,73
535,21,-244,-89,-53,96,74
540,18,-243,-94,-42,97,78
545,20,-244,-93,-36,98,79
550,22,-241,-93,-30,98,81
555,22,-242,-99,-33,96,83
560,20,-240,-96,-40,94,85
565,21,-240,-94,-51,92,86
570,18,-241,-92,-63,89,89
575,17,-238,-97,-81,83,88
580,14,-238,-94,-92,78,93
585,15,-236,-94,-100,73,95
590,17,-237,-97,-102,68,101
595,12,-236,-92,-102,63,101
600,10,-236,-90,-101,60,106
605,10,-235,-96,-99,55,107
610,10,-236,-95,-98,51,109
615,9,-235,-97,-97,46,105
620,9,-235,-97,-98,41,104
625,9,-234,-92,-102,39,102
630,9,-233,-90,-107,35,101
635,11,-236,-96,-113,30,97
640,8,-234,-94,-117,21,93
645,3,-238,-91,-119,11,88
650,5,-236,-91,-121,-1,82
655,5,-236,-89,-119,-17,76
660,1,-237,-91,-112,-33,70
665,1,-234,-91,-101,-46,64
670,-1,-234,-89,-89,-56,56
675,0,-233,-94,-75,-65,47
680,-2,-232,-92,-61,-71,39
685,-5,-227,-94,-47,-79,27
690,-3,-230,-89,-31,-84,15
695,-3,-232,-86,-18,-94,3
700,0,-231,-85,-7,-103,-8
705,-4,-231,-86,3,-116,-21
710,-7,-232,-82,10,-131,-30
715,-12,-233,-89,12,-150,-37
720,-9,-233,-87,7,-169,-45
725,-11,-237,-86,-4,-184,-53
730,-8,-238,-90,-19,-196,-61
735,-11,-243,-85,-31,-206,-70
740,-10,-246,-86,-40,-215,-83
745,-5,-250,-87,-42,-221,-94
750,-5,-250,-87,-36,-228,-103
755,-10,-253,-87,-21,-240,-109
760,-8,-255,-87,-1,-257,-113
765,-5,-258,-87,19,-279,-114
770,-3,-256,-90,41,-303,-111
775,0,-253,-92,61,-325,-107
780,6,-254,-99,79,-344,-103
785,4,-253,-96,96,-362,-95
790,5,-255,-99,109,-376,-91
795,6,-253,-99,123,-390,-87
800,10,-252,-98,141,-402,-87
805,11,-250,-96,161,-408,-89
810,12,-249,-97,179,-414,-94
815,16,-247,-92,199,-415,-97
820,16,-250,-89,220,-416,-101
825,17,-246,-90,241,-412,-106
830,17,-242,-89,258,-405,-113
835,17,-242,-84,270,-396,-121
840,16,-240,-84,275,-386,-128
845,17,-243,-81,269,-378,-133
850,17,-242,-82,258,-373,-138
855,14,-239,-82,242,-368,-141
860,11,-239,-78,214,-365,-144
865,9,-237,-87,184,-364,-142
870,10,-242,-83,150,-365,-141
875,9,-240,-84,112,-366,-139
880,7,-243,-88,76,-369,-136
885,9,-241,-91,42,-369,-130
890,6,-243,-93,13,-369,-126
895,8,-248,-95,-8,-369,-120
900,11,-247,-93,-20,-366,-118
905,12,-249,-98,-24,-363,-115
910,10,-248,-100,-18,-355,-113
915,11,-253,-100,2,-343,-114
920,14,-250,-102,25,-333,-118
925,14,-250,-98,53,-322,-120
930,15,-246,-98,82,-311,-126
935,15,-247,-100,111,-300,-129
940,19,-245,-94,138,-291,-135
945,18,-243,-94,161,-283,-141
950,19,-241,-92,180,-278,-151
955,21,-239,-91,191,-273,-156
960,19,-237,-92,196,-271,-161
965,16,-241,-88,191,-272,-161
970,13,-235,-91,180,-278,-161
975,14,-236,-91,165,-286,-156
980,9,-233,-88,146,-293,-154
985,7,-232,-90,122,-301,-148
990,4,-228,-90,95,-309,-144
995,2,-230,-93,64,-312,-136
1000,3,-230,-92,29,-317,-132
1005,0,-228,-94,-10,-319,-122
1010,4,-230,-97,-56,-315,-115
1015,3,-231,-103,-101,-307,-109
1020,7,-237,-98,-145,-294,-105
1025,6,-238,-97,-182,-277,-97
1030,7,-244,-98,-205,-261,-94
1035,8,-245,-96,-205,-248,-89
1040,9,-247,-95,-192,-235,-88
1045,11,-248,-93,-167,-220,-84
1050,13,-250,-94,-133,-207,-86
1055,13,-248,-92,-98,-194,-84
1060,19,-248,-90,-61,-180,-88
1065,20,-247,-90,-24,-166,-87
1070,25,-245,-85,8,-152,-89
1075,25,-242,-87,33,-137,-88
1080,27,-240,-83,52,-122,-88
1085,28,-237,-81,64,-102,-84
1090,30,-237,-79,64,-85,-82
1095,34,-233,-79,60,-68,-77
1100,34,-232,-79,52,-50,-74
1105,32,-231,-81,43,-34,-65
1110,34,-230,-77,34,-16,-60
1115,37,-232,-74,28,1,-49
1120,33,-226,-78,17,18,-43
1125,33,-230,-78,6,35,-29
1130,36,-227,-78,-8,56,-21
1135,32,-221,-81,-26,78,-10
1140,32,-223,-84,-48,111,-3
1145,32,-221,-86,-74,139,5
1150,30,-220,-84,-96,168,9
1155,32,-224,-88,-112,200,15
1160,34,-224,-86,-125,231,18
1165,34,-225,-93,-131,263,26
1170,33,-224,-89,-132,291,28
1175,35,-227,-89,-126,314,33
1180,30,-230,-82,-117,328,35
1185,28,-234,-88,-106,334,44
1190,27,-237,-87,-97,334,52
1195,20,-238,-90,-95,330,70
1200,21,-239,-89,-98,319,83
1205,22,-242,-91,-106,308,99
1210,25,-242,-94,-116,300,109
1215,21,-241,-96,-129,295,123
1220,23,-247,-96,-140,296,130
1225,21,-245,-95,-150,301,139
1230,20,-249,-93,-162,312,142
1235,22,-254,-99,-178,327,146
1240,21,-254,-101,-191,345,143
1245,18,-256,-101,-206,362,141
1250,19,-259,-101,-222,377,128
1255,13,-259,-108,-232,396,121
1260,9,-259,-103,-234,409,108
1265,11,-259,-106,-223,416,94
1270,8,-259,-108,-198,419,74
1275,8,-259,-103,-163,419,58
1280,7,-257,-100,-115,413,41
1285,6,-254,-98,-58,403,30
1290,4,-251,-95,6,392,16
1295,4,-245,-91,66,376,12
1300,-2,-240,-87,119,357,8
1305,-1,-235,-85,155,334,12
1310,1,-236,-86,178,305,15
1315,-5,-231,-81,187,278,24
1320,-5,-228,-82,174,250,29
1325,-5,-228,-79,149,224,38
1330,-4,-226,-80,109,201,42
1335,-3,-225,-81,62,183,50
1340,-6,-227,-81,8,170,50
1345,-3,-231,-80,-45,163,53
1350,-2,-231,-81,-94,161,48
1355,-2,-236,-79,-136,160,45
1360,-1,-237,-78,-171,163,34
1365,1,-239,-82,-197,167,26
1370,3,-241,-82,-212,169,13
1375,6,-245,-85,-212,170,3
1380,5,-244,-89,-205,171,-10
1385,9,-247,-86,-186,170,-15
1390,9,-249,-85,-160,165,-23
1395,9,-251,-88,-130,159,-26
1400,16,-250,-88,-97,152,-30
1405,16,-252,-88,-66,145,-30
1410,19,-249,-85,-36,138,-31
1415,18,-250,-85,-8,131,-25
1420,18,-252,-89,13,124,-25
1425,19,-249,-86,29,120,-20
1430,21,-251,-87,36,119,-19
1435,22,-251,-89,34,119,-14
1440,20,-251,-87,28,119,-13
1445,20,-246,-91,17,121,-9
1450,18,-246,-92,3,122,-8
1455,18,-246,-89,-9,124,-5
1460,16,-243,-92,-18,127,-8
1465,15,-246,-91,-24,130,-8
1470,12,-243,-94,-25,132,-13
1475,11,-247,-92,-21,131,-15
1480,9,-242,-89,-17,131,-23
1485,9,-240,-94,-15,129,-24
1490,5,-237,-89,-18,127,-32
1495,8,-239,-94,-22,124,-35
1500,6,-239,-96,-30,119,-42
1505,10,-236,-98,-38,116,-46
1510,8,-238,-94,-45,112,-53
1515,7,-239,-94,-51,109,-55
1520,5,-236,-98,-55,107,-63
1525,6,-238,-97,-58,105,-64
1530,5,-236,-98,-60,103,-71
1535,5,-234,-100,-64,102,-71
1540,5,-234,-98,-68,100,-77
1545,6,-234,-102,-72,97,-77
1550,7,-232,-100,-73,96,-80
1555,5,-235,-99,-71,93,-78
1560,1,-234,-100,-68,89,-80
1565,1,-234,-99,-64,85,-78
1570,1,-231,-97,-61,79,-80
1575,5,-234,-98,-55,71,-77
1580,3,-235,-89,-49,60,-81
1585,6,-241,-85,-41,49,-79
1590,4,-238,-90,-32,32,-81
1595,5,-239,-87,-19,19,-78
1600,5,-241,-86,-13,5,-76
1605,4,-240,-88,-6,-8,-69
1610,5,-241,-89,1,-21,-68
1615,5,-238,-91,2,-33,-63
1620,5,-237,-89,4,-44,-59
1625,7,-239,-89,0,-54,-51
1630,6,-238,-85,-3,-61,-46
1635,9,-239,-90,-11,-67,-37
1640,11,-238,-92,-18,-71,-32
1645,12,-238,-87,-25,-76,-23
1650,12,-242,-90,-32,-83,-20
1655,12,-240,-87,-34,-87,-14
1660,14,-242,-86,-37,-92,-12
1665,16,-244,-86,-41,-95,-7
1670,15,-241,-85,-48,-99,-4
1675,15,-242,-87,-56,-99,2
1680,15,-244,-86,-64,-98,4
1685,17,-241,-90,-71,-98,8
1690,18,-243,-88,-78,-96,9
1695,17,-239,-94,-86,-91,11
1700,19,-241,-89,-90,-88,10
1705,17,-240,-95,-92,-85,10
1710,16,-240,-94,-90,-81,9
1715,18,-242,-94,-86,-75,11
1720,16,-239,-91,-79,-70,9
1725,19,-241,-91,-73,-63,12
1730,17,-241,-93,-68,-58,11
1735,20,-241,-94,-65,-49,14
1740,21,-242,-96,-68,-41,13
1745,22,-240,-98,-69,-30,13
1750,23,-245,-94,-69,-21,11
1755,20,-243,-93,-68,-10,12
1760,21,-241,-100,-66,1,8
1765,18,-241,-93,-66,9,8
1770,22,-241,-99,-64,17,4
1775,23,-244,-101,-62,25,2
1780,17,-240,-97,-57,33,-2
1785,19,-240,-97,-51,38,-4
1790,17,-243,-98,-41,44,-8
1795,15,-246,-93,-31,46,-9
1800,15,-244,-95,-23,49,-12
1805,15,-243,-95,-13,51,-13
1810,14,-244,-91,-3,53,-15
1815,16,-243,-92,4,58,-14
1820,16,-243,-91,10,60,-18
1825,13,-243,-90,17,63,-16
1830,13,-240,-88,21,66,-17
1835,13,-244,-88,26,65,-15
1840,14,-243,-86,28,66,-15
1845,13,-244,-84,29,65,-11
1850,13,-244,-84,32,65,-12
1855,15,-243,-89,29,63,-12
1860,15,-242,-86,26,67,-11
1865,11,-243,-90,20,68,-11
1870,14,-238,-89,14,72,-11
1875,11,-241,-85,9,72,-10
1880,13,-242,-90,5,72,-11
1885,10,-240,-90,7,73,-11
1890,10,-241,-91,8,72,-12
1895,11,-240,-88,10,71,-10
1900,12,-241,-91,11,72,-10
1905,12,-242,-86,15,70,-8
1910,12,-235,-88,16,68,-6
1915,11,-242,-89,18,68,-4
1920,13,-241,-89,19,66,-2
1925,12,-240,-89,20,67,0
1930,14,-241,-88,18,64,1
1935,16,-242,-90,18,64,3
1940,14,-239,-88,16,62,3
1945,12,-241,-91,14,62,6
1950,15,-240,-94,12,62,7
1955,14,-240,-93,9,65,8
1960,17,-239,-89,8,65,10
1965,12,-240,-92,7,67,10
1970,16,-241,-90,6,69,12
1975,14,-244,-93,7,72,12
1980,14,-241,-90,10,72,12
1985,14,-241,-92,12,76,12
1990,17,-240,-96,13,77,10
1995,15,-238,-94,13,77,11
2000,15,-240,-93,16,78,10
2005,12,-242,-92,16,77,11
2010,14,-243,-94,18,77,11
2015,13,-241,-90,22,78,11
2020,16,-241,-92,27,81,11
2025,13,-241,-90,29,82,11
2030,18,-243,-88,34,85,12
2035,17,-243,-91,34,90,11
2040,17,-240,-88,39,93,12
2045,18,-241,-91,41,96,13
2050,17,-239,-90,45,100,15
2055,19,-239,-87,49,105,15
2060,16,-239,-87,52,109,17
2065,18,-240,-89,57,116,19
2070,17,-241,-90,61,122,19
2075,16,-241,-87,68,126,21
2080,18,-243,-84,74,130,23
2085,17,-239,-85,80,134,22
2090,16,-241,-89,86,138,21
2095,19,-242,-86,90,144,21
2100,16,-242,-86,94,149,21
2105,18,-242,-88,97,153,23
2110,16,-240,-89,96,153,24
2115,15,-242,-85,94,156,23
2120,17,-242,-85,89,157,24
2125,17,-245,-85,81,158,24
2130,19,-242,-88,72,156,24
2135,15,-242,-89,65,157,23
2140,16,-245,-83,58,158,25
2145,14,-248,-84,56,158,23
2150,12,-244,-86,56,158,24
2155,13,-244,-90,58,161,24
2160,13,-244,-87,61,160,24
2165,15,-246,-86,65,161,23
2170,17,-241,-84,71,162,25
2175,14,-241,-85,75,163,21
2180,14,-242,-88,77,162,22
2185,14,-243,-85,79,163,22
2190,12,-244,-85,80,163,24
2195,15,-242,-88,78,163,24
2200,11,-241,-84,76,160,27
2205,14,-244,-88,73,156,28
2210,14,-243,-86,71,152,29
2215,10,-241,-87,71,150,29
2220,12,-241,-85,72,148,28
2225,14,-244,-87,72,144,27
2230,13,-244,-90,76,144,28
2235,14,-245,-87,80,140,26
2240,15,-244,-85,88,139,27
2245,15,-243,-87,95,138,25
2250,13,-240,-85,102,138,25
2255,12,-243,-86,111,137,21
2260,11,-240,-88,118,136,22
2265,12,-243,-87,126,134,22
2270,14,-242,-87,130,132,22
2275,10,-240,-86,133,130,20
2280,17,-244,-81,130,129,23
2285,16,-245,-84,127,128,21
2290,13,-244,-81,125,126,24
2295,14,-244,-90,123,126,23
2300,13,-244,-86,120,124,25
2305,14,-240,-84,119,123,23
2310,13,-242,-84,114,122,26
2315,12,-242,-87,111,120,25
2320,11,-243,-90,105,118,26
2325,12,-240,-90,100,118,25
2330,9,-239,-88,96,115,25
2335,9,-242,-90,94,112,24
2340,11,-242,-87,92,110,25
2345,10,-243,-86,91,110,22
2350,10,-241,-86,90,108,22
2355,12,-240,-83,91,106,19
2360,7,-239,-87,93,104,21
2365,14,-244,-88,96,102,19
2370,13,-243,-85,96,101,19
2375,13,-244,-83,97,96,17
2380,10,-241,-85,98,95,18
2385,10,-241,-85,97,94,18
2390,14,-241,-85,94,93,19
2395,12,-240,-82,92,93,16
2400,14,-243,-84,87,92,17
2405,12,-239,-84,80,90,16
2410,15,-241,-85,72,91,17
2415,14,-243,-86,65,90,14
2420,14,-241,-83,61,90,16
2425,14,-242,-84,56,91,14
2430,17,-240,-86,51,92,16
2435,12,-241,-85,47,93,12
2440,15,-244,-85,43,96,11
2445,15,-240,-89,39,98,8
2450,14,-242,-83,37,100,7
2455,13,-239,-83,35,102,4
2460,14,-243,-82,31,105,3
2465,15,-243,-83,27,108,3
2470,13,-244,-79,26,109,4
2475,14,-242,-84,22,109,1
2480,13,-242,-82,18,108,3
2485,13,-241,-83,12,107,-1
2490,11,-243,-82,7,104,2
2495,12,-241,-84,1,103,1
2500,14,-243,-82,-6,100,2
2505,13,-240,-84,-12,99,1
2510,12,-240,-84,-18,97,4
2515,12,-242,-83,-21,96,2
2520,14,-239,-84,-25,96,3
2525,10,-240,-82,-30,96,-1
2530,13,-238,-86,-37,95,1
2535,13,-241,-86,-44,97,-2
2540,9,-242,-82,-51,97,-2
2545,13,-241,-83,-64,96,-4
2550,14,-238,-81,-74,93,-3
2555,13,-240,-86,-85,90,-6
2560,14,-243,-84,-94,89,-3
2565,11,-241,-82,-101,87,-6
2570,13,-241,-89,-107,86,-4
2575,15,-238,-87,-112,87,-7
2580,16,-239,-82,-116,86,-5
2585,16,-239,-87,-118,88,-7
2590,17,-237,-89,-119,90,-5
2595,18,-237,-86,-126,91,-9
2600,14,-239,-92,-136,93,-7
2605,17,-234,-90,-151,95,-10
2610,16,-234,-87,-167,96,-11
2615,20,-234,-94,-185,98,-15
2620,18,-234,-92,-204,98,-12
2625,20,-236,-90,-223,98,-15
2630,18,-235,-96,-237,100,-11
2635,18,-237,-97,-250,102,-14
2640,21,-240,-92,-258,103,-9
2645,19,-235,-93,-263,104,-12
2650,19,-237,-94,-265,107,-9
2655,22,-240,-96,-266,111,-12
2660,18,-239,-97,-263,116,-9
2665,18,-239,-97,-257,122,-11
2670,19,-240,-97,-249,128,-8
2675,18,-239,-95,-241,131,-9
2680,21,-234,-95,-233,137,-7
2685,18,-236,-97,-226,141,-9
2690,21,-239,-99,-220,143,-8
2695,23,-235,-99,-217,146,-8
2700,21,-235,-101,-215,147,-6
2705,20,-234,-98,-216,150,-4
2710,21,-236,-102,-219,152,0
2715,17,-230,-104,-227,155,1
2720,17,-233,-99,-234,155,6
2725,14,-230,-107,-242,156,5
2730,18,-230,-103,-251,158,10
2735,14,-228,-104,-261,159,10
2740,16,-229,-103,-275,162,15
2745,11,-228,-97,-288,161,17
2750,11,-230,-99,-305,163,22
2755,10,-227,-98,-322,163,16
2760,12,-228,-104,-339,162,17
2765,10,-228,-104,-356,159,16
2770,11,-230,-102,-374,155,17
2775,10,-230,-102,-387,152,14
2780,12,-228,-105,-394,149,16
2785,12,-229,-105,-394,147,15
2790,12,-230,-106,-393,147,17
2795,11,-230,-109,-390,144,15
2800,13,-228,-106,-388,144,17
2805,11,-225,-108,-389,141,13
2810,13,-227,-111,-392,139,15
2815,11,-222,-111,-396,134,14
2820,11,-223,-107,-401,131,17
2825,13,-222,-108,-408,127,16
2830,12,-223,-109,-416,128,18
2835,8,-220,-107,-427,125,17
2840,7,-222,-110,-439,125,21
2845,7,-221,-111,-452,123,21
2850,6,-224,-113,-472,117,27
2855,10,-222,-109,-491,111,27
2860,10,-225,-107,-509,104,31
2865,9,-220,-111,-527,98,27
2870,9,-222,-109,-545,92,29
2875,12,-221,-115,-560,88,25
2880,7,-221,-114,-577,81,27
2885,10,-219,-111,-591,73,25
2890,9,-223,-112,-605,66,27
2895,10,-219,-114,-618,57,22
2900,8,-217,-114,-632,51,23
2905,5,-218,-115,-644,47,19
2910,9,-217,-120,-655,44,20
2915,8,-214,-120,-670,40,16
2920,9,-213,-125,-684,34,16
2925,6,-214,-123,-693,29,12
2930,7,-208,-120,-704,24,12
2935,8,-209,-125,-711,21,8
2940,9,-210,-122,-720,20,10
2945,10,-209,-123,-726,19,6
2950,11,-207,-126,-735,19,8
2955,12,-208,-127,-745,17,4
2960,8,-207,-127,-762,15,4
2965,12,-207,-128,-782,14,0
2970,14,-207,-127,-803,13,2
2975,9,-208,-127,-824,13,2
2980,10,-210,-127,-842,13,7
2985,10,-211,-130,-861,13,6
2990,15,-209,-130,-875,17,12
2995,15,-210,-130,-888,20,12
3000,17,-213,-130,-894,27,16
3005,12,-213,-132,-895,36,13
3010,14,-215,-129,-890,44,16
3015,12,-213,-138,-882,52,17
3020,13,-214,-137,-872,60,19
3025,17,-218,-137,-863,67,16
3030,18,-217,-134,-851,80,16
3035,19,-221,-136,-838,91,14
3040,18,-219,-139,-826,101,16
3045,15,-219,-133,-809,108,18
3050,17,-220,-139,-793,111,25
3055,17,-220,-144,-780,111,26
3060,15,-216,-146,-769,111,32
3065,15,-216,-148,-756,111,34
3070,18,-214,-148,-742,113,39
3075,16,-209,-150,-726,114,43
3080,13,-209,-152,-709,120,50
3085,16,-210,-153,-686,127,51
3090,16,-203,-155,-659,133,53
3095,18,-203,-157,-628,139,53
3100,16,-196,-159,-596,146,56
3105,13,-197,-156,-558,156,55
3110,14,-192,-154,-529,162,56
3115,18,-189,-154,-506,166,54
3120,18,-186,-152,-492,171,55
3125,19,-185,-156,-484,173,53
3130,17,-186,-147,-483,172,55
3135,17,-183,-149,-491,171,56
3140,18,-181,-151,-506,171,61
3145,15,-178,-148,-528,166,63
3150,17,-182,-143,-554,164,67
3155,18,-176,-145,-586,162,68
3160,19,-178,-147,-622,158,72
3165,20,-175,-148,-673,155,73
3170,20,-179,-151,-721,155,77
3175,24,-175,-157,-769,152,75
3180,21,-174,-155,-816,148,75
3185,20,-174,-162,-859,145,70
3190,19,-176,-164,-897,138,69
3195,17,-176,-164,-930,129,66
3200,18,-179,-165,-957,121,64
3205,18,-181,-168,-979,114,61
3210,15,-185,-177,-994,112,57
3215,13,-181,-177,-1002,114,46
3220,11,-183,-179,-1002,116,39
3225,11,-181,-182,-996,118,26
3230,7,-178,-184,-983,122,18
3235,4,-177,-186,-964,128,7
3240,8,-179,-186,-943,134,1
3245,6,-178,-183,-917,143,-6
3250,8,-177,-184,-890,152,-10
3255,8,-177,-186,-860,164,-15
3260,10,-175,-187,-833,177,-20
3265,10,-174,-185,-810,189,-28
3270,11,-177,-180,-791,197,-31
3275,13,-176,-183,-773,199,-37
3280,10,-171,-183,-769,198,-36
3285,14,-171,-181,-768,195,-38
3290,18,-168,-180,-775,187,-35
3295,17,-168,-181,-787,175,-35
3300,19,-166,-184,-806,164,-34
3305,22,-165,-184,-833,153,-33
3310,18,-163,-186,-865,141,-33
3315,17,-161,-184,-899,122,-32
3320,17,-163,-188,-934,103,-31
3325,21,-164,-190,-967,87,-26
3330,18,-167,-187,-998,75,-19
3335,16,-163,-192,-1018,72,-14
3340,16,-162,-187,-1032,76,-9
3345,17,-166,-191,-1034,83,-9
3350,18,-168,-191,-1031,94,-14
3355,15,-169,-192,-1021,105,-19
3360,15,-172,-193,-1001,118,-26
3365,14,-173,-191,-977,133,-32
3370,14,-168,-194,-952,148,-37
3375,14,-169,-197,-922,158,-46
3380,13,-164,-197,-895,170,-52
3385,15,-162,-203,-864,180,-61
3390,15,-160,-202,-841,185,-66
3395,16,-156,-201,-822,186,-73
3400,18,-151,-203,-809,184,-78
3405,14,-149,-204,-799,177,-85
3410,16,-146,-200,-790,169,-86
3415,15,-146,-201,-782,153,-86
3420,18,-144,-198,-775,136,-84
3425,10,-141,-198,-776,118,-79
3430,12,-142,-199,-784,98,-71
3435,12,-144,-200,-799,79,-64
3440,10,-142,-200,-828,59,-55
3445,7,-139,-202,-859,48,-48
3450,11,-142,-205,-895,39,-42
3455,9,-139,-211,-932,36,-41
3460,12,-140,-207,-972,38,-40
3465,9,-140,-212,-1007,44,-43
3470,12,-142,-212,-1041,55,-45
3475,14,-143,-214,-1068,71,-53
3480,16,-142,-211,-1088,88,-60
3485,15,-141,-217,-1100,108,-70
3490,17,-142,-220,-1107,130,-82
3495,14,-143,-224,-1114,153,-91
3500,16,-143,-225,-1109,165,-99
3505,18,-143,-224,-1096,170,-111
3510,19,-146,-228,-1075,175,-120
3515,25,-147,-226,-1047,179,-121
3520,21,-145,-228,-1013,184,-125
3525,27,-149,-225,-980,191,-120
3530,29,-144,-225,-940,198,-114
3535,31,-147,-230,-899,198,-110
3540,39,-145,-229,-856,200,-112
3545,38,-143,-229,-815,203,-112
3550,32,-143,-229,-764,205,-109
3555,33,-140,-227,-726,205,-98
3560,32,-136,-230,-694,202,-88
3565,32,-133,-230,-669,198,-83
3570,29,-133,-232,-657,194,-73
3575,29,-130,-240,-649,195,-59
3580,24,-126,-236,-647,193,-52
3585,23,-124,-237,-647,191,-43
3590,19,-123,-238,-649,190,-42
3595,20,-119,-239,-653,192,-37
3600,17,-116,-235,-654,186,-35
3605,16,-112,-232,-662,173,-35
3610,13,-111,-232,-667,157,-35
3615,13,-112,-230,-665,138,-37
3620,12,-114,-226,-660,117,-39
3625,13,-111,-228,-659,99,-44
3630,8,-108,-229,-663,83,-48
3635,8,-109,-227,-671,71,-42
3640,8,-110,-223,-672,61,-39
3645,6,-108,-232,-675,54,-36
3650,7,-112,-232,-682,52,-35
3655,10,-111,-230,-690,54,-35
3660,14,-113,-234,-708,57,-39
3665,20,-116,-237,-725,61,-47
3670,21,-115,-237,-744,68,-57
3675,22,-115,-242,-756,77,-66
3680,22,-115,-242,-769,81,-81
3685,21,-111,-244,-778,89,-94
3690,26,-111,-245,-783,94,-107
3695,25,-111,-243,-785,103,-116
3700,20,-107,-244,-779,117,-126
3705,25,-107,-248,-759,131,-126
3710,24,-106,-247,-727,138,-126
3715,24,-103,-247,-679,148,-130
3720,23,-100,-247,-635,156,-132
3725,26,-105,-245,-588,159,-136
3730,23,-101,-244,-544,161,-139
3735,25,-96,-245,-502,154,-136
3740,27,-97,-239,-466,148,-140
3745,26,-93,-245,-437,138,-137
3750,23,-92,-244,-414,128,-134
3755,30,-87,-245,-398,116,-122
3760,27,-88,-243,-393,106,-113
3765,28,-86,-248,-395,93,-115
3770,29,-84,-246,-405,80,-113
3775,32,-81,-248,-419,64,-107
3780,32,-83,-248,-444,54,-105
3785,34,-80,-251,-469,43,-100
3790,34,-80,-253,-497,39,-99
3795,32,-77,-252,-523,39,-97
3800,34,-75,-258,-541,41,-91
3805,34,-75,-252,-554,46,-81
3810,35,-70,-253,-559,53,-65
3815,39,-73,-257,-551,60,-61
3820,33,-72,-251,-533,65,-57
3825,34,-70,-254,-499,68,-49
3830,32,-72,-251,-475,72,-47
3835,30,-70,-250,-443,75,-42
3840,30,-73,-248,-403,80,-36
3845,26,-73,-248,-367,89,-22
3850,28,-69,-250,-342,98,-8
3855,27,-72,-248,-323,107,-12
3860,25,-68,-244,-309,112,-21
3865,28,-67,-244,-293,117,-22
3870,27,-67,-246,-282,117,-25
3875,32,-67,-241,-273,117,-23
3880,31,-69,-244,-269,122,-27
3885,36,-69,-236,-270,123,-30
3890,31,-65,-242,-270,126,-26
3895,33,-65,-238,-269,125,-32
3900,28,-66,-240,-268,120,-40
3905,27,-67,-242,-266,111,-44
3910,27,-65,-243,-274,102,-48
3915,27,-68,-244,-282,95,-51
3920,22,-67,-253,-292,93,-53
3925,23,-66,-244,-312,95,-35
3930,17,-64,-246,-329,97,-49
3935,23,-59,-250,-345,94,-69
3940,21,-60,-248,-363,97,-78
3945,21,-65,-246,-364,96,-71
3950,18,-60,-249,-351,88,-72
3955,24,-65,-246,-340,82,-71
3960,13,-56,-245,-334,73,-73
3965,14,-56,-249,-317,58,-83
3970,18,-62,-246,-302,44,-91
3975,18,-57,-247,-297,35,-95
3980,18,-55,-249,-298,29,-99
3985,21,-55,-247,-298,22,-100
3990,17,-54,-253,-296,12,-98
3995,14,-52,-250,-292,11,-116
4000,15,-48,-250,-283,16,-125
4005,15,-49,-253,-264,14,-122
4010,13,-50,-247,-236,9,-122
4015,22,-44,-246,-202,2,-107
4020,26,-47,-251,-163,3,-113
4025,25,-46,-253,-130,2,-104
4030,26,-44,-252,-104,3,-97
4035,27,-38,-245,-83,-4,-95
4040,35,-42,-248,-70,-3,-89
4045,36,-38,-245,-55,5,-68
4050,37,-44,-246,-48,11,-59
4055,43,-42,-247,-50,24,-26
4060,39,-40,-252,-53,42,-17
4065,42,-37,-249,-62,60,-8
4070,40,-39,-247,-85,81,-4
4075,39,-36,-246,-116,102,7
4080,41,-37,-246,-149,121,22
4085,42,-42,-246,-188,147,41
4090,43,-43,-245,-226,169,52
4095,40,-42,-244,-267,190,57
4100,34,-39,-244,-306,206,51
4105,44,-38,-240,-352,212,66
4110,32,-46,-246,-391,212,87
4115,33,-42,-251,-427,218,84
4120,30,-53,-251,-451,225,74
4125,27,-45,-255,-458,220,53
4130,25,-45,-253,-452,226,47
4135,22,-46,-256,-439,228,50
4140,25,-48,-257,-425,231,26
4145,19,-49,-257,-414,231,4
4150,27,-46,-261,-425,229,-26
4155,25,-50,-265,-421,242,-24
4160,20,-46,-269,-397,243,-20
4165,28,-43,-272,-392,240,-29
4170,27,-44,-270,-362,239,-20
4175,31,-46,-276,-315,230,-2
4180,26,-44,-280,-261,214,9
4185,29,-44,-282,-202,203,13
4190,31,-49,-290,-136,192,15
4195,28,-49,-286,-63,178,27
4200,33,-50,-289,7,158,33
4205,36,-50,-286,74,142,48
4210,36,-51,-288,135,123,62
4215,30,-47,-286,200,106,77
4220,34,-48,-290,242,89,89
4225,34,-49,-283,268,74,99
4230,32,-44,-285,301,62,105
4235,35,-47,-280,328,51,121
4240,34,-46,-278,348,39,125
4245,33,-45,-277,366,23,127
4250,34,-43,-276,374,13,129
4255,36,-43,-271,370,4,139
4260,35,-44,-273,359,-6,141
4265,39,-44,-268,343,-17,144
4270,38,-47,-267,321,-20,148
4275,33,-49,-268,300,-26,154
4280,33,-55,-266,283,-39,151
4285,32,-60,-266,266,-46,155
4290,32,-58,-269,253,-53,149
4295,31,-63,-263,241,-61,149
4300,29,-67,-263,230,-70,161
4305,25,-68,-261,230,-76,155
4310,28,-72,-268,240,-82,148
4315,28,-76,-270,256,-91,151
4320,27,-79,-269,282,-103,155
4325,33,-82,-276,325,-119,159
4330,32,-82,-269,367,-132,161
4335,35,-84,-272,426,-135,169
4340,36,-86,-275,490,-132,175
4345,35,-91,-279,558,-136,184
4350,37,-87,-276,627,-141,184
4355,37,-87,-277,694,-147,188
4360,39,-86,-273,761,-149,189
4365,38,-84,-282,823,-151,193
4370,40,-81,-274,877,-151,193
4375,36,-84,-278,927,-157,192
4380,37,-81,-270,979,-169,180
4385,32,-75,-272,1010,-174,184
4390,32,-74,-267,1027,-176,183
4395,30,-73,-265,1035,-183,182
4400,32,-71,-266,1037,-186,171
4405,33,-69,-264,1035,-183,172
4410,34,-68,-265,1028,-173,171
4415,33,-66,-263,1015,-171,166
4420,35,-66,-263,1002,-167,155
4425,34,-67,-267,989,-158,152
4430,33,-67,-265,978,-147,142
4435,31,-66,-263,968,-137,141
4440,25,-69,-265,957,-129,133
4445,30,-68,-259,949,-132,121
4450,33,-70,-258,946,-121,116
4455,25,-72,-255,948,-112,114
4460,28,-77,-259,952,-112,99
4465,29,-81,-254,963,-102,95
4470,26,-86,-255,981,-84,101
4475,22,-90,-251,994,-77,101
4480,24,-96,-247,1010,-74,97
4485,16,-98,-247,1030,-72,94
4490,25,-105,-249,1056,-86,79
4495,21,-110,-245,1087,-79,94
4500,21,-110,-246,1123,-73,101
4505,21,-114,-241,1161,-72,109
4510,21,-117,-242,1199,-75,110
4515,13,-120,-241,1234,-80,120
4520,18,-125,-241,1269,-91,117
4525,15,-125,-243,1310,-98,125
4530,14,-125,-235,1351,-107,127
4535,15,-128,-240,1390,-115,127
4540,17,-130,-237,1432,-110,140
4545,12,-131,-237,1473,-107,153
4550,14,-134,-235,1507,-107,154
4555,11,-132,-234,1537,-107,159
4560,8,-135,-235,1565,-109,160
4565,7,-133,-229,1594,-111,168
4570,6,-134,-222,1609,-115,159
4575,8,-135,-228,1609,-113,153
4580,8,-136,-220,1604,-112,144
4585,4,-136,-220,1593,-109,141
4590,6,-137,-215,1572,-109,134
4595,5,-139,-214,1545,-104,138
4600,2,-142,-212,1503,-100,142
4605,-9,-150,-205,1465,-107,136
4610,0,-147,-200,1430,-117,129
4615,-3,-145,-206,1389,-116,136
4620,-5,-150,-203,1344,-116,134
4625,-4,-148,-202,1297,-122,127
4630,-7,-153,-198,1253,-121,121
4635,-3,-155,-200,1213,-125,119
4640,-5,-157,-197,1180,-126,116
4645,-6,-159,-200,1153,-125,116
4650,-5,-161,-198,1130,-122,112
4655,-6,-162,-199,1110,-116,117
4660,-8,-165,-191,1101,-112,117
4665,-9,-169,-197,1097,-112,118
4670,-7,-171,-196,1095,-109,108
4675,-10,-172,-197,1093,-99,107
4680,-7,-175,-193,1091,-92,103
4685,-7,-179,-191,1091,-89,97
4690,-8,-182,-192,1095,-80,85
4695,-3,-180,-192,1090,-76,70
4700,-4,-182,-193,1079,-67,56
4705,-5,-182,-196,1065,-55,41
4710,-6,-184,-192,1041,-43,24
4715,-10,-186,-189,1020,-29,9
4720,-11,-183,-188,999,-15,-4
4725,-14,-180,-193,981,-3,-12
4730,-9,-178,-189,969,4,-17
4735,-13,-172,-193,966,7,-5
4740,-13,-170,-190,977,1,10
4745,-15,-168,-187,989,-7,32
4750,-13,-170,-185,989,-26,44
4755,-10,-173,-185,975,-44,48
4760,-14,-176,-185,946,-55,40
4765,-16,-180,-181,905,-62,29
4770,-15,-186,-181,858,-72,11
4775,-16,-182,-180,828,-70,-4
4780,-13,-181,-179,804,-65,-20
4785,-15,-184,-177,789,-59,-28
4790,-12,-181,-176,778,-55,-42
4795,-7,-182,-173,768,-53,-49
4800,-8,-179,-170,755,-52,-60
4805,-3,-183,-173,741,-47,-64
4810,-2,-186,-170,725,-38,-71
4815,-2,-188,-173,711,-21,-74
4820,-2,-191,-171,692,-8,-82
4825,3,-192,-167,677,0,-86
4830,1,-197,-166,660,2,-89
4835,3,-195,-165,648,5,-92
4840,3,-198,-165,636,11,-94
4845,3,-202,-160,628,14,-87
4850,4,-201,-156,624,17,-88
4855,9,-206,-159,625,19,-85
4860,9,-207,-158,627,22,-86
4865,14,-209,-155,634,24,-85
4870,14,-209,-152,641,23,-88
4875,18,-211,-153,652,17,-88
4880,17,-208,-151,664,12,-93
4885,20,-212,-154,671,12,-93
4890,22,-211,-149,677,19,-94
4895,19,-211,-150,680,27,-97
4900,22,-210,-145,679,34,-100
4905,26,-215,-144,675,43,-99
4910,19,-211,-147,671,54,-104
4915,24,-215,-143,667,63,-102
4920,25,-213,-144,665,74,-106
4925,26,-213,-138,668,85,-107
4930,24,-215,-136,669,99,-110
4935,22,-214,-136,668,109,-108
4940,18,-213,-138,666,117,-108
4945,20,-213,-136,658,119,-104
4950,17,-217,-135,648,121,-98
4955,20,-213,-134,635,120,-92
4960,16,-214,-138,620,119,-83
4965,13,-215,-135,605,119,-73
4970,15,-218,-136,589,120,-64
4975,11,-216,-135,577,119,-55
4980,14,-217,-133,562,118,-48
4985,11,-213,-134,544,115,-41
4990,9,-210,-138,530,112,-41
4995,11,-208,-133,512,115,-38
5000,8,-212,-134,495,117,-40
5005,7,-211,-136,476,117,-37
5010,6,-211,-135,453,119,-35
5015,8,-211,-129,427,118,-32
5020,8,-212,-132,394,121,-31
5025,9,-218,-130,365,121,-24
5030,4,-218,-126,348,116,-20
5035,8,-216,-128,333,111,-17
5040,10,-218,-123,321,111,-15
5045,14,-223,-129,314,108,-11
5050,16,-217,-127,313,105,-9
5055,16,-222,-120,309,102,-7
5060,17,-221,-124,311,101,-7
5065,20,-218,-123,313,101,-7
5070,21,-222,-123,316,102,-8
5075,20,-221,-118,323,103,-9
5080,24,-222,-119,328,103,-13
5085,19,-220,-117,331,104,-17
5090,23,-223,-120,334,104,-23
5095,22,-225,-116,334,103,-26
5100,23,-224,-117,333,100,-31
5105,20,-225,-117,333,99,-34
5110,20,-223,-118,333,98,-39
5115,17,-222,-116,330,99,-37
5120,20,-220,-117,328,101,-38
5125,20,-221,-118,323,104,-39
5130,19,-221,-119,321,109,-39
5135,17,-218,-116,315,115,-41
5140,18,-220,-115,304,119,-43
5145,20,-223,-112,291,121,-46
5150,15,-222,-112,273,119,-49
5155,12,-220,-112,258,117,-49
5160,10,-225,-114,242,113,-48
5165,9,-224,-111,226,107,-46
5170,8,-222,-114,213,104,-41
5175,8,-224,-110,202,100,-36
5180,5,-223,-114,188,87,-30
5185,2,-225,-114,170,77,-24
5190,1,-231,-115,156,63,-17
5195,-3,-223,-116,144,49,-11
5200,-1,-224,-114,130,33,-9
5205,-1,-225,-116,115,23,-7
5210,0,-225,-117,106,16,-6
5215,0,-225,-122,107,10,-9
5220,0,-226,-123,105,9,-15
5225,-1,-226,-118,106,10,-22
5230,2,-230,-120,107,12,-31
5235,0,-227,-121,111,11,-44
5240,0,-229,-117,118,10,-56
5245,-3,-227,-119,127,7,-67
5250,-1,-231,-118,138,2,-75
5255,0,-229,-120,148,4,-81
5260,-1,-228,-118,161,9,-83
5265,6,-230,-117,167,14,-84
5270,1,-229,-115,171,15,-88
5275,0,-225,-119,168,15,-90
5280,0,-227,-115,156,10,-90
5285,0,-225,-114,143,0,-90
5290,3,-225,-116,123,-13,-87
5295,0,-228,-117,101,-24,-85
5300,0,-226,-114,81,-29,-80
5305,2,-226,-113,63,-34,-77
5310,-1,-232,-111,46,-31,-80
5315,1,-234,-110,35,-24,-82
5320,2,-235,-111,34,-11,-86
5325,1,-238,-106,38,0,-89
5330,1,-239,-107,46,13,-93
5335,1,-242,-106,58,23,-99
5340,5,-244,-103,71,38,-100
5345,2,-241,-102,84,53,-106
5350,5,-242,-95,95,62,-105
5355,6,-242,-99,106,67,-101
5360,2,-239,-99,115,62,-91
5365,5,-235,-99,119,51,-80
5370,7,-231,-97,118,40,-67
5375,5,-233,-101,115,29,-53
5380,7,-232,-105,108,17,-36
5385,7,-228,-100,96,7,-18
5390,7,-228,-103,83,-1,-1
5395,11,-226,-105,69,-7,10
5400,12,-228,-106,54,-8,20
5405,14,-229,-107,41,-7,27
5410,14,-220,-110,24,-2,33
5415,14,-223,-112,8,2,35
5420,13,-220,-115,-12,10,35
5425,15,-223,-114,-32,18,34
5430,16,-221,-116,-56,26,31
5435,15,-223,-113,-78,36,27
5440,16,-226,-114,-100,48,23
5445,16,-226,-118,-120,60,16
5450,17,-225,-120,-136,70,13
5455,15,-227,-123,-149,74,5
5460,19,-228,-123,-159,77,-1
5465,16,-223,-122,-165,84,-11
5470,19,-227,-124,-175,91,-14
5475,14,-227,-127,-183,92,-16
5480,16,-225,-123,-185,88,-16
5485,19,-228,-124,-187,85,-19
5490,19,-222,-130,-189,81,-18
5495,3,-227,-112,-200,79,-31
5500,15,-230,-122,-213,72,-33
5505,16,-224,-123,-222,65,-36
5510,10,-225,-123,-232,58,-39
5515,14,-229,-121,-238,52,-41
5520,12,-230,-125,-237,44,-41
5525,12,-231,-122,-235,42,-47
5530,10,-234,-121,-231,37,-51
5535,11,-233,-122,-213,33,-50
5540,10,-230,-120,-193,31,-49
5545,12,-229,-115,-174,32,-52
5550,11,-232,-118,-151,35,-47
5555,10,-229,-116,-122,38,-44
5560,12,-231,-117,-94,43,-38
5565,11,-228,-117,-72,44,-38
5570,10,-225,-116,-53,46,-32
5575,15,-227,-115,-38,46,-29
5580,18,-226,-115,-29,47,-21
5585,15,-220,-115,-25,48,-18
5590,11,-218,-113,-25,46,-13
5595,11,-216,-117,-36,46,-13
5600,16,-216,-115,-52,47,-9
5605,19,-219,-119,-75,48,-9
5610,15,-215,-114,-101,52,-7
5615,15,-217,-113,-130,54,-6
5620,17,-220,-116,-156,58,-4
5625,16,-221,-115,-187,64,-6
5630,14,-222,-116,-218,74,-7
5635,14,-222,-117,-249,79,-11
5640,16,-222,-118,-275,82,-9
5645,15,-225,-117,-300,81,-9
5650,9,-224,-117,-319,81,-7
5655,13,-228,-124,-339,79,-8
5660,8,-224,-123,-353,77,-5
5665,8,-223,-125,-367,77,-6
5670,8,-229,-129,-378,73,-2
5675,9,-229,-127,-376,66,2
5680,9,-229,-131,-368,62,8
5685,5,-232,-134,-357,60,6
5690,7,-230,-137,-337,54,13
5695,6,-231,-136,-308,49,14
5700,8,-231,-138,-262,44,18
5705,11,-228,-139,-216,43,19
5710,9,-230,-141,-173,42,23
5715,12,-231,-141,-128,40,25
5720,12,-228,-135,-89,42,30
5725,10,-223,-139,-57,42,34
5730,13,-227,-135,-33,40,41
5735,15,-224,-133,-17,39,44
5740,13,-225,-132,-11,40,49
5745,15,-223,-129,-9,43,50
5750,17,-224,-123,-15,43,55
5755,16,-224,-124,-21,45,51
5760,14,-223,-122,-31,53,53
5765,13,-222,-119,-43,56,50
5770,11,-222,-120,-54,58,49
5775,15,-222,-119,-66,58,47
5780,11,-223,-118,-79,61,45
5785,11,-224,-118,-92,64,43
5790,13,-222,-119,-101,68,43
5795,11,-225,-114,-114,72,39
5800,9,-221,-120,-125,74,35
5805,10,-221,-118,-134,74,28
5810,9,-218,-120,-144,74,29
5815,9,-223,-123,-153,79,23
5820,9,-220,-120,-165,84,21
5825,15,-222,-128,-174,82,18
5830,8,-221,-128,-181,83,18
5835,9,-222,-129,-186,85,12
5840,12,-220,-128,-197,90,8
5845,12,-226,-128,-204,91,5
5850,8,-225,-129,-200,90,6
5855,7,-222,-131,-194,89,2
5860,8,-223,-133,-192,96,1
5865,7,-222,-134,-179,96,-1
5870,11,-226,-137,-171,99,0
5875,11,-226,-137,-163,99,-4
5880,8,-221,-139,-158,102,-2
5885,13,-222,-139,-152,100,-6
5890,9,-223,-138,-148,103,-3
5895,10,-219,-138,-147,102,-5
5900,10,-222,-140,-147,100,-3
5905,14,-222,-140,-148,98,-6
5910,14,-219,-136,-155,93,-5
5915,12,-216,-138,-160,91,-9
5920,11,-217,-135,-168,87,-8
5925,13,-222,-132,-176,85,-9
5930,16,-218,-135,-183,78,-4
5935,15,-217,-133,-190,71,-7
5940,13,-217,-132,-203,66,-7
5945,13,-212,-130,-219,59,-12
5950,14,-211,-134,-238,56,-11
5955,14,-214,-135,-257,52,-16
5960,16,-218,-133,-272,49,-17
5965,15,-214,-137,-281,48,-21
5970,13,-216,-135,-294,45,-22
5975,15,-211,-137,-310,44,-31
5980,15,-214,-134,-328,43,-29
5985,12,-215,-137,-337,45,-34
5990,12,-216,-136,-347,42,-31
5995,12,-217,-140,-353,37,-36
6000,11,-213,-137,-360,33,-32
6005,13,-219,-142,-362,34,-32
6010,14,-217,-142,-359,36,-28
6015,11,-217,-145,-352,34,-25
6020,9,-214,-142,-342,32,-20
6025,9,-215,-142,-330,30,-20
6030,9,-214,-146,-319,23,-16
6035,10,-217,-145,-309,22,-17
6040,9,-217,-147,-297,19,-8
6045,7,-216,-144,-282,14,-6
6050,7,-216,-149,-266,14,2
6055,4,-213,-151,-249,15,4
6060,8,-216,-148,-233,19,8
6065,8,-210,-145,-220,25,3
6070,7,-214,-145,-213,31,8
6075,7,-218,-146,-202,31,7
6080,9,-220,-145,-185,32,8
6085,7,-217,-146,-167,38,4
6090,7,-213,-143,-148,44,7
6095,11,-217,-141,-133,49,4
6100,11,-214,-143,-125,53,6
6105,12,-213,-141,-120,57,5
6110,13,-213,-146,-118,63,6
6115,7,-213,-143,-123,69,6
6120,13,-212,-141,-124,70,11
6125,9,-215,-143,-129,71,10
6130,11,-214,-146,-132,72,15
6135,7,-212,-146,-135,71,16
6140,10,-214,-145,-138,70,23
6145,6,-210,-139,-144,70,27
6150,10,-214,-145,-148,67,33
6155,10,-215,-146,-154,64,33
6160,7,-209,-148,-161,63,39
6165,7,-207,-149,-173,63,36
6170,5,-210,-148,-183,58,39
6175,4,-207,-154,-189,54,36
6180,4,-206,-153,-196,52,36
6185,5,-205,-156,-199,52,30
6190,5,-206,-161,-204,52,28
6195,5,-207,-154,-210,55,22
6200,4,-203,-158,-218,57,22
6205,5,-205,-156,-227,59,17
6210,7,-204,-154,-234,62,15
6215,3,-202,-159,-238,65,9
6220,5,-205,-156,-242,70,9
6225,7,-204,-153,-247,71,5
6230,10,-206,-155,-249,74,5
6235,10,-204,-155,-252,79,0
6240,9,-203,-153,-254,81,0
6245,8,-205,-155,-254,83,-2
6250,10,-205,-151,-255,88,-2
6255,12,-203,-155,-255,90,-4
6260,10,-206,-153,-253,90,-2
6265,10,-205,-152,-251,91,-5
6270,9,-206,-156,-250,92,-4
6275,11,-207,-158,-248,93,-7
6280,12,-207,-155,-247,91,-3
6285,14,-206,-153,-245,91,-3
6290,13,-202,-152,-241,90,0
6295,13,-207,-151,-239,91,-1
6300,7,-207,-156,-235,90,3
6305,10,-204,-159,-229,90,2
6310,13,-203,-160,-224,89,5
6315,14,-204,-157,-223,91,3
6320,7,-207,-157,-221,92,8
6325,6,-207,-161,-216,94,5
6330,9,-208,-157,-211,96,5
6335,9,-206,-158,-205,98,3
6340,11,-208,-162,-201,100,3
6345,9,-204,-162,-195,101,-2
6350,8,-205,-156,-191,102,-4
6355,11,-206,-156,-189,100,-6
6360,12,-205,-160,-188,97,-7
6365,11,-202,-161,-185,92,-12
6370,12,-203,-161,-183,90,-13
6375,13,-205,-160,-182,91,-20
6380,12,-202,-157,-180,90,-21
6385,14,-204,-158,-174,89,-23
6390,11,-202,-160,-168,86,-23
6395,12,-201,-164,-162,84,-28
6400,13,-204,-160,-159,84,-30
6405,13,-203,-162,-160,83,-35
6410,13,-204,-165,-161,82,-35
6415,11,-201,-158,-161,82,-39
6420,13,-202,-164,-160,80,-39
6425,14,-202,-163,-159,77,-43
6430,12,-200,-166,-156,76,-42
6435,15,-202,-167,-152,74,-45
6440,12,-200,-164,-149,73,-42
6445,12,-199,-164,-146,71,-46
6450,10,-199,-167,-143,69,-44
6455,10,-199,-168,-141,68,-45
6460,11,-198,-168,-139,66,-43
6465,11,-201,-167,-139,64,-45
6470,11,-199,-167,-139,63,-40
6475,10,-199,-161,-140,60,-42
6480,11,-202,-164,-144,57,-38
6485,9,-196,-166,-144,55,-39
6490,8,-201,-163,-143,53,-35
6495,7,-197,-168,-144,52,-35
6500,9,-199,-167,-143,53,-36
6505,9,-198,-166,-141,54,-36
6510,9,-201,-167,-138,52,-34
6515,9,-199,-165,-135,53,-33
6520,9,-196,-167,-133,57,-32
6525,9,-198,-167,-132,61,-34
6530,11,-197,-166,-134,62,-32
6535,10,-197,-167,-134,62,-32
6540,13,-201,-165,-135,63,-30
6545,13,-198,-165,-135,64,-33
6550,11,-196,-166,-135,66,-31
6555,10,-198,-171,-135,67,-33
6560,12,-197,-167,-133,69,-32
6565,13,-198,-166,-132,68,-34
6570,12,-198,-168,-130,70,-33
6575,13,-197,-164,-128,69,-33
6580,11,-197,-167,-129,68,-31
6585,13,-198,-166,-129,66,-32
6590,12,-196,-168,-128,66,-31
6595,11,-198,-165,-126,65,-33
6600,12,-197,-165,-126,66,-32
6605,14,-200,-166,-126,67,-34
6610,13,-197,-164,-128,65,-34
6615,13,-197,-167,-128,67,-34
6620,13,-199,-167,-130,68,-35
6625,11,-197,-168,-128,70,-37
6630,11,-197,-169,-125,71,-38
6635,11,-198,-169,-123,73,-37
6640,13,-198,-168,-119,72,-35
6645,15,-198,-173,-114,72,-37
6650,12,-198,-172,-107,72,-35
6655,16,-197,-169,-98,71,-35
6660,13,-197,-171,-91,69,-33
6665,14,-196,-170,-82,67,-35
6670,14,-196,-174,-76,67,-33
6675,14,-195,-171,-68,67,-32
6680,11,-195,-173,-62,65,-30
6685,12,-196,-172,-55,64,-30
6690,13,-196,-169,-52,64,-29
6695,14,-195,-172,-48,64,-30
6700,11,-197,-173,-43,66,-27
6705,11,-194,-170,-39,69,-27
6710,13,-196,-169,-36,69,-26
6715,13,-195,-166,-35,71,-27
6720,14,-192,-167,-32,73,-29
6725,15,-195,-171,-30,72,-30
6730,16,-195,-168,-30,74,-29
6735,12,-192,-168,-29,74,-29
6740,11,-193,-167,-30,75,-28
6745,15,-195,-169,-31,75,-28
6750,16,-196,-172,-34,74,-27
6755,15,-196,-167,-36,76,-27
6760,13,-196,-170,-40,73,-26
6765,17,-197,-169,-43,72,-25
6770,15,-197,-168,-45,71,-24
6775,15,-199,-170,-45,73,-25
6780,18,-195,-171,-46,74,-24
6785,16,-196,-170,-46,75,-23
6790,15,-194,-169,-45,74,-24
6795,18,-197,-169,-45,75,-22
6800,14,-194,-169,-44,74,-20
6805,16,-195,-163,-45,74,-19
6810,15,-194,-172,-46,72,-17
6815,16,-196,-167,-49,69,-13
6820,18,-196,-169,-53,63,-10
6825,15,-195,-173,-59,56,-10
6830,14,-197,-170,-65,51,-9
6835,17,-198,-168,-67,47,-7
6840,13,-197,-170,-69,42,-6
6845,12,-198,-170,-72,37,-4
6850,12,-195,-169,-73,32,-5
6855,12,-197,-170,-71,25,-4
6860,11,-195,-169,-69,20,-4
6865,9,-194,-169,-67,14,-5
6870,9,-193,-171,-69,7,-3
6875,8,-195,-173,-71,1,-4
6880,11,-198,-174,-73,-5,-2
6885,10,-200,-171,-75,-10,-2
6890,8,-202,-173,-82,-15,-6
6895,10,-204,-173,-89,-21,-12
6900,14,-201,-177,-96,-22,-19
6905,12,-204,-174,-97,-19,-26
6910,12,-200,-179,-95,-11,-34
6915,10,-198,-178,-81,-3,-35
6920,12,-197,-177,-52,5,-30
6925,12,-194,-178,-21,12,-24
6930,16,-195,-175,14,17,-11
6935,16,-193,-176,44,21,-3
6940,13,-192,-179,67,30,4
6945,14,-192,-172,81,41,6
6950,13,-187,-172,91,51,1
6955,16,-190,-173,99,66,0
6960,14,-187,-172,105,80,-5
6965,16,-186,-169,103,93,-6
6970,15,-189,-165,97,101,-9
6975,18,-188,-167,87,109,-9
6980,17,-189,-169,73,114,-11
6985,17,-192,-166,57,118,-10
6990,17,-194,-171,45,119,-12
6995,21,-195,-169,40,120,-9
7000,18,-193,-171,43,121,-8
7005,18,-195,-170,51,121,-6
7010,18,-195,-176,66,122,-4
7015,16,-193,-177,82,123,2
7020,16,-190,-178,99,123,5
7025,17,-192,-174,115,121,9
7030,14,-189,-177,127,114,11
7035,13,-188,-178,136,106,12
7040,11,-188,-178,139,101,11
7045,9,-186,-178,139,94,10
7050,9,-185,-178,134,91,9
7055,10,-187,-176,123,83,9
7060,9,-184,-175,112,75,5
7065,7,-189,-179,98,70,5
7070,9,-187,-176,81,65,3
7075,7,-188,-173,63,58,3
7080,9,-187,-174,46,54,0
7085,11,-188,-164,30,52,2
7090,14,-191,-167,13,53,1
7095,13,-190,-168,-2,53,5
7100,15,-193,-162,-15,55,8
7105,15,-195,-165,-24,56,13
7110,16,-194,-164,-31,58,16
7115,16,-197,-160,-36,57,21
7120,16,-200,-160,-35,56,22
7125,17,-201,-163,-32,57,28
7130,19,-204,-167,-28,55,29
7135,18,-205,-164,-21,54,34
7140,18,-202,-162,-11,54,36
7145,18,-208,-162,2,52,39
7150,19,-207,-162,17,50,41
7155,19,-207,-167,32,49,43
7160,17,-204,-165,47,47,42
7165,18,-207,-168,63,46,42
7170,17,-206,-164,77,45,39
7175,14,-203,-166,92,43,35
7180,15,-204,-163,103,42,31
7185,12,-202,-167,111,40,31
7190,12,-203,-163,114,37,29
7195,8,-203,-160,112,38,31
7200,6,-202,-159,105,37,34
7205,9,-204,-159,93,40,40
7210,10,-204,-160,85,41,43
7215,9,-204,-153,76,46,47
7220,9,-205,-151,72,49,49
7225,12,-209,-155,73,50,49
7230,12,-206,-157,79,53,41
7235,12,-204,-157,85,64,42
7240,9,-207,-154,87,72,37
7245,12,-203,-152,92,77,32
7250,10,-205,-155,98,83,20
7255,10,-205,-152,102,86,12
7260,9,-204,-156,102,86,-1
7265,11,-205,-157,100,85,-9
7270,13,-203,-159,97,83,-21
7275,12,-201,-160,93,83,-27
7280,13,-202,-166,92,83,-37
7285,9,-200,-168,89,85,-41
7290,13,-197,-167,84,86,-48
7295,19,-199,-160,80,88,-51
7300,13,-194,-170,77,89,-59
7305,10,-193,-168,75,91,-56
7310,11,-194,-172,73,91,-54
7315,12,-189,-172,76,87,-46
7320,15,-189,-167,76,81,-38
7325,15,-184,-168,71,74,-24
7330,16,-184,-169,64,67,-15
7335,14,-186,-166,53,60,-3
7340,14,-187,-165,38,53,2
7345,13,-189,-166,17,46,10
7350,14,-189,-165,-4,39,9
7355,13,-192,-163,-23,35,12
7360,8,-192,-168,-38,28,7
7365,12,-195,-164,-49,27,4
7370,9,-194,-170,-50,27,-1
7375,12,-196,-170,-44,28,-3
7380,7,-197,-167,-32,33,-12
7385,7,-197,-167,-21,35,-14
7390,10,-197,-171,-7,43,-22
7395,7,-198,-167,6,49,-23
7400,10,-200,-168,19,55,-30
7405,10,-202,-167,30,62,-30
7410,11,-201,-170,38,66,-34
7415,13,-204,-166,41,68,-32
7420,11,-201,-166,41,70,-32
7425,11,-199,-164,41,74,-27
7430,13,-199,-162,37,71,-25
7435,13,-198,-161,32,69,-19
7440,11,-198,-162,24,66,-18
7445,13,-200,-158,13,61,-12
7450,11,-197,-161,4,55,-13
7455,11,-199,-164,-8,50,-7
7460,15,-198,-157,-20,46,-8
7465,15,-201,-160,-32,43,-3
7470,17,-201,-160,-42,38,-5
7475,16,-201,-156,-51,37,-2
7480,18,-203,-159,-55,37,-6
7485,16,-202,-160,-56,39,-5
7490,16,-202,-159,-51,41,-9
7495,15,-203,-161,-46,41,-8
7500,15,-202,-158,-42,44,-11
7505,17,-205,-158,-33,47,-11
7510,17,-207,-159,-26,49,-14
7515,14,-208,-157,-17,52,-13
7520,17,-209,-162,-7,54,-15
7525,14,-209,-156,6,56,-11
7530,17,-209,-158,22,59,-13
7535,14,-208,-161,35,62,-13
7540,12,-207,-159,45,65,-14
7545,15,-207,-158,54,67,-12
7550,13,-203,-158,59,70,-16
7555,16,-206,-160,62,71,-12
7560,13,-204,-160,62,73,-15
7565,14,-204,-155,60,74,-12
7570,10,-201,-158,55,73,-14
7575,11,-201,-154,47,74,-10
7580,11,-202,-162,39,73,-12
7585,14,-201,-155,26,74,-7
7590,13,-202,-159,15,74,-8
7595,13,-201,-157,5,77,-3
7600,14,-203,-154,-4,76,-3
7605,16,-200,-158,-11,76,0
7610,14,-201,-161,-18,78,-1
7615,16,-201,-159,-25,76,1
7620,15,-199,-156,-28,75,-2
7625,17,-197,-159,-32,73,0
7630,14,-198,-160,-36,72,-4
7635,19,-197,-163,-36,71,-1
7640,14,-197,-162,-38,71,-5
7645,15,-198,-162,-38,71,-4
7650,11,-197,-165,-39,71,-8
7655,13,-198,-164,-38,71,-7
7660,16,-199,-164,-38,71,-13
7665,14,-199,-165,-37,70,-12
7670,11,-198,-165,-37,70,-15
7675,15,-198,-165,-35,71,-14
7680,14,-200,-168,-33,71,-17
7685,14,-199,-168,-32,72,-14
7690,11,-199,-163,-29,71,-16
7695,15,-200,-164,-28,71,-13
7700,15,-198,-165,-29,71,-14
7705,13,-199,-162,-30,71,-11
7710,13,-201,-162,-31,69,-13
7715,12,-198,-161,-34,67,-10
7720,14,-199,-160,-38,67,-11
7725,14,-202,-160,-39,64,-7
7730,12,-200,-164,-41,63,-10
7735,15,-204,-161,-40,60,-7
7740,12,-202,-162,-40,59,-8
7745,11,-201,-163,-38,56,-3
7750,11,-204,-161,-33,55,-4
7755,9,-200,-159,-30,53,-1
7760,12,-205,-163,-26,53,-2
7765,13,-199,-163,-23,52,1
7770,11,-202,-159,-20,51,-1
7775,10,-204,-161,-20,51,4
7780,12,-203,-160,-22,49,0
7785,11,-202,-160,-24,50,2
7790,14,-202,-160,-27,51,-1
7795,10,-200,-160,-30,54,0
7800,12,-205,-158,-33,57,-3
7805,14,-203,-162,-36,61,-1
7810,14,-202,-159,-41,65,-6
7815,14,-201,-162,-42,68,-4
7820,14,-202,-163,-42,71,-8
7825,15,-201,-162,-38,75,-6
7830,16,-205,-162,-35,79,-10
7835,14,-205,-166,-30,81,-6
7840,13,-204,-165,-23,82,-7
7845,15,-203,-167,-17,83,-2
7850,13,-203,-167,-13,80,-1
7855,13,-204,-164,-8,77,3
7860,14,-204,-172,-1,71,6
7865,17,-203,-167,12,65,11
7870,14,-202,-163,21,59,12
7875,15,-204,-161,29,53,18
7880,13,-204,-161,39,46,21
7885,13,-204,-162,45,43,26
7890,14,-204,-156,50,43,27
7895,11,-202,-160,54,42,28
7900,13,-205,-157,55,45,25
7905,12,-202,-160,54,48,26
7910,11,-202,-157,51,53,22
7915,12,-205,-163,49,59,21
7920,11,-204,-163,48,60,18
7925,9,-205,-157,48,60,20
7930,14,-205,-160,45,61,19
7935,15,-205,-163,42,59,23
7940,16,-201,-161,40,57,24
7945,15,-205,-161,38,54,28
7950,15,-207,-160,38,47,23
7955,16,-207,-162,39,41,15
7960,14,-209,-163,39,41,1
7965,11,-204,-165,34,47,-16
7970,9,-203,-165,32,64,-34
7975,12,-198,-159,32,78,-34
7980,20,-197,-159,41,88,-36
7985,23,-199,-161,45,89,-36
7990,20,-196,-157,30,91,-41
7995,13,-197,-157,0,102,-32
8000,15,-197,-159,-21,113,-32
8005,17,-194,-166,-24,123,-33
8010,23,-196,-163,-13,127,-37
8015,19,-189,-167,0,135,-32
8020,20,-195,-167,3,135,-33
8025,22,-194,-166,-7,140,-36
8030,19,-195,-165,-31,155,-40
8035,12,-195,-163,-39,159,-33
8040,13,-197,-160,-36,154,-31
8045,15,-196,-159,-23,146,-24
8050,14,-194,-158,6,137,-16
8055,15,-195,-160,43,130,2
8060,12,-195,-162,79,123,15
8065,12,-194,-158,106,116,25
8070,11,-198,-163,120,112,27
8075,8,-195,-162,126,112,27
8080,10,-196,-166,124,113,26
8085,6,-197,-164,112,113,29
8090,5,-196,-167,102,106,25
8095,5,-195,-165,91,102,27
8100,7,-195,-164,79,94,25
8105,7,-195,-165,68,85,23
8110,3,-196,-167,54,74,20
8115,2,-198,-165,44,62,16
8120,5,-197,-166,34,50,6
8125,3,-199,-165,22,40,0
8130,4,-202,-163,12,30,-7
8135,3,-200,-162,1,20,-13
8140,6,-204,-164,-8,11,-21
8145,4,-200,-160,-14,6,-24
8150,5,-201,-160,-19,1,-28
8155,4,-198,-161,-24,0,-28
8160,10,-202,-158,-25,0,-30
8165,13,-203,-156,-26,2,-29
8170,14,-205,-160,-27,6,-33
8175,13,-203,-155,-25,13,-35
8180,14,-207,-151,-24,20,-41
8185,19,-205,-153,-23,31,-45
8190,24,-208,-149,-24,42,-56
8195,24,-204,-151,-22,57,-64
8200,23,-203,-151,-22,66,-74
8205,24,-200,-152,-27,75,-80
8210,28,-201,-148,-32,80,-88
8215,26,-202,-147,-40,86,-94
8220,26,-201,-153,-55,91,-100
8225,28,-202,-152,-69,94,-104
8230,27,-199,-155,-84,95,-109
8235,25,-199,-152,-99,95,-110
8240,25,-199,-154,-114,93,-109
8245,26,-198,-150,-125,89,-106
8250,20,-197,-155,-138,85,-105
8255,20,-197,-154,-147,79,-100
8260,21,-197,-155,-157,76,-95
8265,18,-197,-155,-167,73,-87
8270,19,-198,-155,-176,69,-81
8275,19,-198,-156,-186,63,-74
8280,20,-199,-154,-195,61,-67
8285,18,-194,-158,-201,59,-59
8290,20,-195,-155,-206,58,-52
8295,19,-196,-155,-211,56,-43
8300,22,-199,-158,-217,55,-35
8305,20,-197,-160,-227,59,-28
8310,22,-197,-160,-235,60,-23
8315,16,-199,-161,-243,60,-17
8320,18,-198,-158,-251,60,-13
8325,15,-197,-162,-256,61,-8
8330,15,-202,-160,-258,61,-5
8335,14,-201,-160,-259,62,-4
8340,13,-201,-158,-262,63,-5
8345,13,-204,-156,-265,64,-4
8350,12,-200,-159,-269,65,-8
8355,12,-205,-161,-279,64,-11
8360,13,-207,-154,-293,68,-15
8365,15,-205,-154,-305,70,-14
8370,13,-207,-157,-320,74,-18
8375,13,-204,-155,-332,75,-20
8380,12,-209,-158,-343,77,-20
8385,15,-205,-155,-348,77,-19
8390,15,-208,-162,-352,76,-17
8395,18,-204,-160,-355,74,-13
8400,16,-204,-162,-357,74,-11
8405,15,-206,-161,-355,72,-7
8410,15,-202,-162,-349,65,-6
8415,16,-203,-162,-342,59,-2
8420,15,-201,-159,-332,54,-2
8425,15,-198,-166,-322,48,-3
8430,13,-196,-165,-316,42,-4
8435,16,-197,-166,-315,39,-7
8440,11,-196,-160,-319,35,-6
8445,13,-194,-167,-326,29,-10
8450,13,-192,-163,-341,23,-15
8455,14,-191,-166,-358,19,-18
8460,12,-186,-174,-377,12,-20
8465,19,-187,-171,-397,8,-24
8470,16,-188,-171,-426,7,-29
8475,15,-188,-170,-445,5,-31
8480,20,-186,-172,-462,6,-37
8485,20,-187,-173,-480,5,-42
8490,17,-188,-175,-493,3,-47
8495,19,-189,-174,-500,4,-52
8500,17,-185,-175,-505,4,-56
8505,19,-187,-177,-510,6,-58
8510,18,-187,-176,-513,7,-60
8515,17,-183,-175,-515,7,-60
8520,15,-184,-175,-518,5,-61
8525,17,-180,-176,-520,5,-59
8530,17,-186,-180,-521,4,-59
8535,20,-184,-178,-523,7,-56
8540,18,-184,-177,-523,9,-56
8545,19,-186,-181,-530,12,-56
8550,19,-186,-180,-533,16,-54
8555,15,-183,-182,-538,18,-54
8560,20,-182,-184,-549,20,-53
8565,23,-178,-186,-563,23,-56
8570,23,-182,-183,-581,32,-54
8575,22,-180,-182,-599,35,-57
8580,27,-181,-187,-618,37,-59
8585,24,-181,-184,-641,41,-63
8590,23,-175,-184,-660,45,-68
8595,25,-176,-183,-682,45,-70
8600,26,-173,-184,-704,44,-71
8605,25,-175,-184,-724,45,-75
8610,28,-172,-190,-747,47,-75
8615,24,-171,-188,-765,49,-77
8620,27,-167,-189,-784,56,-75
8625,24,-166,-190,-803,60,-79
8630,25,-165,-195,-825,65,-79
8635,21,-162,-194,-853,69,-81
8640,26,-161,-193,-876,75,-84
8645,21,-161,-197,-901,78,-86
8650,20,-160,-195,-929,82,-89
8655,18,-159,-193,-955,89,-93
8660,15,-155,-197,-981,94,-98
8665,16,-157,-204,-1008,98,-106
8670,16,-156,-204,-1036,101,-109
8675,15,-152,-201,-1064,103,-112
8680,17,-152,-198,-1091,105,-111
8685,11,-150,-201,-1116,102,-112
8690,14,-153,-203,-1149,99,-114
8695,13,-151,-201,-1173,96,-115
8700,13,-151,-206,-1196,94,-114
8705,17,-151,-203,-1219,87,-115
8710,13,-154,-204,-1246,83,-112
8715,12,-151,-201,-1274,80,-117
8720,11,-147,-208,-1302,78,-117
8725,13,-149,-206,-1335,76,-120
8730,15,-148,-206,-1366,75,-118
8735,10,-145,-202,-1395,74,-119
8740,12,-143,-212,-1420,66,-116
8745,11,-140,-211,-1442,57,-113
8750,11,-138,-214,-1458,49,-109
8755,13,-137,-218,-1467,41,-99
8760,13,-139,-220,-1472,34,-92
8765,18,-137,-221,-1475,29,-86
8770,14,-131,-226,-1478,27,-86
8775,17,-131,-229,-1473,26,-82
8780,18,-132,-235,-1472,28,-76
8785,14,-125,-231,-1476,29,-79
8790,15,-123,-233,-1480,34,-82
8795,19,-122,-237,-1486,41,-77
8800,18,-122,-233,-1494,51,-74
8805,20,-121,-232,-1506,56,-76
8810,21,-121,-235,-1522,64,-76
8815,14,-128,-197,-1556,73,-106
8820,21,-107,-239,-1615,87,-142
8825,20,-111,-241,-1622,90,-87
8830,16,-113,-243,-1623,88,-71
8835,18,-112,-240,-1623,85,-66
8840,20,-113,-243,-1630,90,-56
8845,15,-111,-243,-1639,88,-51
8850,21,-112,-244,-1651,78,-51
8855,20,-110,-248,-1654,71,-51
8860,20,-111,-250,-1651,67,-48
8865,16,-72,-234,-1672,71,-100
8870,23,-94,-249,-1675,71,-80
8875,21,-101,-244,-1646,70,-41
8880,20,-96,-247,-1621,60,-34
8885,19,-95,-246,-1599,51,-33
8890,21,-87,-244,-1578,51,-29
8895,20,-84,-243,-1555,53,-26
8900,22,-82,-244,-1533,55,-20
8905,24,-79,-246,-1513,60,-21
8910,26,-80,-244,-1495,71,-20
8915,27,-78,-248,-1473,82,-21
8920,26,-76,-250,-1452,93,-22
8925,29,-73,-254,-1428,107,-26
8930,32,-70,-260,-1406,120,-24
8935,32,-64,-264,-1383,133,-25
8940,34,-50,-264,-1376,148,-40
8945,36,-49,-272,-1357,164,-25
8950,36,-52,-268,-1332,179,-14
8955,36,-47,-273,-1309,195,-11
8960,39,-45,-273,-1288,210,0
8965,39,-46,-275,-1263,222,7
8970,41,-47,-278,-1228,233,17
8975,35,-46,-273,-1190,242,28
8980,32,-47,-280,-1148,248,38
8985,29,-51,-277,-1094,256,42
8990,27,-49,-277,-1033,266,51
8995,23,-51,-276,-964,273,54
9000,19,-47,-279,-886,275,56
9005,15,-51,-282,-805,279,58
9010,11,-50,-286,-725,283,62
9015,12,-46,-289,-654,289,63
9020,7,-46,-294,-589,294,67
9025,9,-45,-294,-518,295,57
9030,13,-42,-301,-463,297,55
9035,17,-42,-301,-414,301,49
9040,17,-37,-305,-373,304,51
9045,18,-40,-308,-335,300,48
9050,21,-41,-304,-297,293,49
9055,26,-46,-305,-259,279,46
9060,30,-41,-304,-211,256,47
9065,33,-42,-307,-158,238,45
9070,32,-41,-308,-99,213,50
9075,35,-43,-308,-37,173,44
9080,47,-35,-311,35,149,49
9085,38,-43,-311,98,113,50
9090,34,-38,-312,166,87,58
9095,32,-39,-310,234,67,66
9100,37,-40,-308,304,48,84
9105,33,-35,-307,372,36,99
9110,29,-36,-300,441,30,122
9115,32,-34,-296,505,25,139
9120,30,-32,-293,566,19,160
9125,30,-27,-292,621,26,184
9130,31,-28,-288,674,31,209
9135,29,-25,-279,730,33,226
9140,32,-27,-281,769,29,242
9145,31,-22,-280,804,33,245
9150,31,-21,-274,832,39,252
9155,30,-21,-273,855,47,258
9160,34,-30,-271,872,47,263
9165,30,-27,-271,893,56,262
9170,32,-27,-271,904,61,260
9175,31,-31,-270,908,63,255
9180,33,-37,-272,909,68,253
9185,33,-35,-270,909,73,244
9190,32,-38,-271,904,76,234
9195,32,-42,-267,894,77,223
9200,31,-46,-268,881,80,213
9205,33,-50,-269,863,80,200
9210,33,-51,-269,841,82,190
9215,34,-57,-270,819,81,181
9220,32,-59,-269,798,84,177
9225,33,-60,-271,783,83,169
9230,36,-66,-271,770,82,166
9235,34,-66,-276,759,79,159
9240,32,-68,-273,753,76,159
9245,34,-72,-272,757,77,152
9250,35,-76,-272,766,78,153
9255,32,-79,-272,778,80,151
9260,36,-82,-271,792,83,155
9265,31,-83,-275,812,85,148
9270,33,-83,-272,833,90,151
9275,31,-86,-270,857,92,153
9280,29,-88,-267,887,90,161
9285,30,-92,-263,925,84,164
9290,30,-95,-267,969,77,169
9295,31,-101,-268,1023,71,167
9300,29,-102,-265,1070,70,170
9305,29,-101,-263,1123,70,169
9310,29,-100,-260,1180,71,170
9315,30,-103,-256,1238,72,170
9320,28,-103,-258,1292,71,173
9325,25,-104,-256,1343,72,169
9330,31,-105,-250,1387,71,170
9335,26,-104,-256,1426,72,164
9340,28,-106,-247,1458,77,159
9345,27,-105,-250,1491,77,153
9350,29,-106,-249,1527,83,154
9355,27,-104,-243,1549,87,148
9360,26,-105,-244,1567,88,145
9365,26,-105,-238,1583,87,139
9370,29,-106,-234,1596,82,139
9375,30,-108,-234,1606,78,137
9380,29,-109,-232,1610,79,141
9385,30,-112,-230,1604,80,134
9390,29,-109,-227,1594,83,133
9395,35,-113,-221,1578,82,129
9400,35,-113,-217,1561,80,131
9405,33,-117,-217,1540,78,128
9410,35,-119,-220,1520,78,131
9415,35,-121,-217,1495,79,121
9420,37,-122,-211,1468,80,119
9425,35,-126,-218,1441,82,112
9430,38,-128,-213,1413,82,110
9435,36,-129,-212,1382,84,103
9440,31,-130,-215,1353,86,92
9445,31,-133,-211,1324,86,83
9450,34,-135,-212,1297,83,87
9455,33,-138,-213,1268,78,85
9460,33,-140,-204,1236,72,84
9465,31,-143,-206,1211,67,78
9470,31,-146,-206,1189,64,77
9475,27,-149,-206,1170,61,63
9480,26,-152,-206,1151,56,60
9485,27,-156,-210,1134,51,62
9490,25,-155,-204,1122,50,71
9495,25,-157,-205,1110,46,70
9500,22,-160,-199,1100,37,73
9505,23,-164,-202,1097,27,71
9510,17,-164,-203,1102,14,69
9515,23,-168,-200,1110,6,65
9520,17,-169,-197,1121,-2,64
9525,18,-169,-198,1142,-8,59
9530,15,-171,-195,1169,-13,51
9535,19,-173,-193,1197,-13,43
9540,15,-171,-193,1219,-15,46
9545,14,-169,-188,1241,-14,43
9550,9,-170,-197,1259,-12,43
9555,15,-169,-188,1277,-14,35
9560,11,-171,-189,1293,-18,28
9565,12,-171,-183,1307,-28,13
9570,15,-169,-186,1315,-33,10
9575,12,-168,-178,1316,-40,-5
9580,16,-167,-181,1314,-47,-13
9585,13,-167,-180,1302,-53,-12
9590,19,-165,-177,1282,-59,-10
9595,17,-167,-176,1259,-62,-13
9600,18,-167,-175,1237,-64,-9
9605,13,-167,-177,1217,-65,-9
9610,16,-167,-173,1196,-72,0
9615,15,-167,-165,1176,-78,4
9620,17,-166,-169,1164,-89,20
9625,14,-169,-172,1148,-93,22
9630,13,-168,-165,1136,-97,18
9635,17,-171,-163,1125,-99,9
9640,21,-171,-161,1117,-101,14
9645,18,-173,-160,1111,-100,14
9650,20,-174,-160,1111,-97,19
9655,19,-174,-160,1112,-95,20
9660,15,-174,-161,1108,-92,27
9665,19,-173,-154,1098,-91,29
9670,21,-172,-152,1087,-90,32
9675,17,-174,-152,1073,-91,29
9680,21,-175,-153,1058,-91,32
9685,19,-174,-152,1040,-90,24
9690,19,-180,-149,1020,-85,23
9695,23,-182,-149,1006,-82,20
9700,20,-181,-147,991,-78,19
9705,25,-180,-148,979,-72,20
9710,21,-185,-153,965,-70,34
9715,20,-184,-151,943,-61,27
9720,19,-181,-151,923,-50,25
9725,17,-183,-149,909,-42,21
9730,17,-181,-155,900,-33,22
9735,18,-181,-150,899,-29,20
9740,16,-181,-154,901,-24,22
9745,16,-182,-147,906,-18,17
9750,20,-180,-146,916,-10,18
9755,19,-181,-148,927,-4,12
9760,17,-178,-146,936,5,11
9765,20,-179,-142,945,12,7
9770,18,-179,-143,951,15,8
9775,17,-179,-139,954,15,6
9780,14,-179,-134,952,15,12
9785,14,-179,-131,950,11,15
9790,15,-181,-130,938,4,18
9795,13,-181,-132,920,0,19
9800,16,-182,-128,896,-5,25
9805,13,-188,-131,863,-11,25
9810,16,-187,-129,822,-15,27
9815,12,-187,-131,776,-22,24
9820,11,-189,-128,730,-27,24
9825,17,-189,-131,684,-32,24
9830,14,-191,-134,640,-38,26
9835,15,-194,-131,604,-42,26
9840,14,-197,-130,573,-41,25
9845,18,-199,-127,543,-37,19
9850,17,-198,-131,528,-32,15
9855,19,-206,-131,516,-28,7
9860,19,-208,-129,509,-25,5
9865,18,-210,-133,503,-23,2
9870,17,-206,-128,502,-20,1
9875,14,-211,-132,509,-21,-1
9880,19,-214,-128,526,-23,0
9885,14,-216,-131,546,-24,-5
9890,20,-214,-126,566,-24,-10
9895,20,-214,-129,586,-22,-16
9900,18,-216,-127,609,-19,-20
9905,18,-215,-126,626,-14,-27
9910,18,-217,-124,640,-11,-33
9915,17,-218,-119,649,-7,-41
9920,16,-218,-120,654,-6,-47
9925,16,-216,-119,655,-6,-54
9930,21,-217,-116,657,-9,-57
9935,11,-217,-111,652,-15,-69
9940,13,-217,-110,642,-15,-73
9945,18,-214,-110,630,-16,-76
9950,16,-215,-113,614,-21,-82
9955,1,-201,-104,591,-27,-83
9960,14,-218,-106,578,-33,-68
9965,13,-219,-104,549,-33,-78
9970,12,-217,-106,524,-33,-86
9975,13,-219,-100,506,-33,-88
9980,11,-219,-103,495,-34,-88
9985,17,-220,-100,490,-37,-88
9990,13,-216,-101,488,-37,-93
9995,14,-220,-105,483,-38,-97
10000,15,-218,-101,474,-39,-92
10005,17,-222,-103,469,-36,-85
10010,19,-221,-98,474,-34,-76
10015,21,-218,-99,482,-36,-77
10020,16,-218,-97,486,-35,-78
10025,31,-215,-95,490,-37,-73
10030,19,-218,-101,496,-42,-89
10035,27,-220,-100,483,-46,-81
10040,24,-221,-102,465,-52,-75
10045,22,-216,-100,437,-55,-70
10050,27,-218,-97,412,-58,-64
10055,26,-218,-98,390,-61,-55
10060,28,-217,-93,369,-63,-45
10065,26,-220,-95,348,-67,-42
10070,25,-220,-97,324,-70,-42
10075,25,-224,-94,297,-73,-31
10080,27,-227,-92,271,-77,-11
10085,22,-229,-92,237,-78,-2
10090,19,-229,-93,209,-80,1
10095,21,-231,-93,185,-82,1
10100,21,-232,-89,161,-86,2
10105,21,-232,-89,141,-87,2
10110,21,-238,-93,122,-85,2
10115,23,-236,-95,104,-81,0
10120,22,-237,-90,98,-77,3
10125,26,-235,-91,99,-72,4
10130,28,-239,-91,106,-65,5
10135,29,-241,-94,115,-56,5
10140,28,-234,-96,120,-48,6
10145,28,-237,-98,125,-38,7
10150,33,-238,-95,127,-25,6
10155,33,-235,-95,127,-14,8
10160,35,-233,-100,125,0,8
10165,34,-236,-92,120,15,10
10170,33,-236,-97,112,29,14
10175,33,-235,-100,107,44,18
10180,34,-237,-94,102,57,21
10185,31,-235,-94,98,70,23
10190,32,-235,-96,91,81,28
10195,31,-237,-94,85,92,31
10200,32,-239,-91,79,101,34
10205,28,-239,-96,74,111,40
10210,28,-238,-87,70,120,40
10215,28,-240,-93,67,128,40
10220,26,-238,-88,64,137,38
10225,28,-243,-88,63,148,36
10230,24,-241,-87,64,157,34
10235,23,-242,-85,65,164,34
10240,20,-241,-85,62,170,31
10245,20,-242,-83,59,174,30
10250,19,-242,-86,54,178,30
10255,17,-241,-82,49,180,30
10260,14,-239,-87,47,181,33
10265,14,-243,-85,59,179,57
10270,16,-243,-82,56,182,50
10275,13,-242,-79,53,185,43
10280,11,-242,-81,57,183,43
10285,14,-241,-83,62,179,46
10290,13,-242,-79,65,178,47
10295,15,-242,-81,66,175,49
10300,15,-242,-83,68,174,50
10305,17,-242,-79,66,172,53
10310,14,-242,-80,62,172,56
10315,18,-241,-80,58,172,60
10320,18,-242,-80,54,173,63
10325,18,-241,-85,49,175,68
10330,19,-241,-84,46,178,70
10335,20,-243,-85,46,184,74
10340,24,-236,-81,45,190,77
10345,22,-244,-85,52,199,64
10350,20,-242,-86,50,203,72
10355,20,-244,-86,50,207,82
10360,24,-246,-84,49,211,87
10365,23,-242,-86,48,216,93
10370,21,-241,-84,46,220,95
10375,21,-238,-90,41,221,98
10380,23,-240,-85,32,224,101
10385,21,-236,-90,23,227,105
10390,18,-235,-86,10,229,109
10395,21,-237,-89,0,234,112
10400,16,-239,-87,-8,240,107
10405,21,-241,-86,-12,247,102
10410,20,-241,-84,-22,251,107
10415,17,-239,-86,-33,255,113
10420,16,-238,-86,-42,260,113
10425,17,-240,-89,-54,263,114
10430,13,-240,-84,-65,262,109
10435,14,-243,-86,-77,261,108
10440,12,-237,-85,-91,259,104
10445,11,-238,-86,-101,256,101
10450,13,-236,-81,-105,254,96
10455,12,-241,-87,-108,252,91
10460,9,-239,-82,-111,252,86
10465,10,-239,-84,-110,250,82
10470,12,-240,-82,-108,250,75
10475,9,-234,-84,-105,249,68
10480,6,-235,-85,-102,247,59
10485,6,-237,-82,-97,243,53
10490,8,-233,-86,-89,240,52
10495,7,-242,-88,-74,232,60
10500,4,-237,-85,-77,231,41
10505,7,-239,-88,-77,227,25
10510,6,-239,-84,-76,224,11
10515,5,-239,-84,-76,221,1
10520,5,-239,-89,-78,220,-10
10525,8,-241,-91,-82,218,-18
10530,6,-241,-88,-85,217,-28
10535,6,-240,-87,-91,215,-33
10540,7,-244,-88,-94,210,-41
10545,4,-245,-87,-97,204,-45
10550,2,-246,-83,-97,196,-50
10555,7,-247,-86,-97,190,-51
10560,6,-250,-79,-95,185,-54
10565,7,-250,-84,-93,179,-51
10570,5,-252,-83,-89,173,-56
10575,6,-251,-81,-86,170,-55
10580,5,-255,-83,-81,162,-55
10585,9,-255,-81,-70,158,-52
10590,10,-252,-82,-55,153,-52
10595,9,-253,-76,-35,149,-49
10600,16,-253,-83,-12,151,-47
10605,15,-250,-84,12,150,-48
10610,16,-249,-83,30,152,-53
10615,16,-247,-79,46,152,-50
10620,16,-244,-76,58,150,-51
10625,17,-241,-77,65,147,-51
10630,15,-241,-76,69,144,-52
10635,15,-241,-73,71,142,-49
10640,12,-237,-73,67,140,-51
10645,13,-237,-76,60,140,-49
10650,13,-236,-75,52,136,-50
10655,14,-235,-78,39,133,-45
10660,11,-234,-74,19,130,-46
10665,12,-236,-76,-1,129,-44
10670,14,-233,-77,-25,128,-46
10675,14,-236,-76,-51,125,-45
10680,15,-236,-84,-83,123,-47
10685,10,-238,-84,-119,122,-45
10690,12,-240,-86,-154,118,-44
10695,11,-245,-88,-189,112,-38
10700,10,-247,-87,-220,106,-37
10705,9,-249,-87,-239,98,-32
10710,9,-253,-90,-246,92,-31
10715,10,-257,-87,-241,86,-27
10720,9,-257,-91,-227,84,-28
10725,13,-256,-87,-206,83,-26
10730,12,-259,-89,-177,82,-28
10735,13,-258,-86,-143,84,-25
10740,12,-258,-90,-109,84,-25
10745,17,-257,-89,-74,85,-23
10750,14,-252,-82,-43,83,-24
10755,14,-253,-87,-14,82,-20
10760,15,-251,-86,9,78,-20
10765,14,-246,-86,35,75,-16
10770,16,-246,-85,50,72,-15
10775,17,-245,-84,64,68,-10
10780,17,-241,-84,76,64,-9
10785,17,-239,-82,85,59,-4
10790,17,-241,-78,89,54,-4
10795,18,-239,-80,93,47,0
10800,17,-235,-81,91,40,0
10805,17,-234,-79,89,34,6
10810,17,-233,-79,82,29,6
10815,15,-233,-81,69,24,10
10820,16,-233,-81,51,23,9
10825,17,-234,-85,30,21,11
10830,16,-232,-79,8,22,8
10835,11,-232,-85,-12,26,8
10840,20,-239,-80,-29,33,12
10845,20,-238,-82,-45,38,6
10850,21,-240,-80,-64,45,-8
10855,17,-244,-81,-78,47,-13
10860,18,-245,-83,-92,47,-21
10865,17,-245,-81,-102,45,-25
10870,10,-257,-91,-106,41,-31
10875,19,-253,-79,-108,37,-32
10880,16,-249,-79,-106,36,-37
10885,17,-252,-82,-97,33,-37
10890,19,-252,-80,-87,32,-41
10895,19,-252,-85,-76,29,-38
10900,19,-249,-84,-64,27,-39
10905,24,-251,-82,-54,27,-37
10910,19,-247,-86,-45,25,-38
10915,22,-245,-87,-37,23,-36
10920,24,-248,-85,-27,22,-36
10925,24,-243,-88,-19,20,-30
10930,21,-244,-88,-8,19,-29
10935,22,-240,-92,0,21,-24
10940,25,-237,-87,6,23,-25
10945,25,-239,-92,11,24,-21
10950,26,-234,-90,14,30,-22
10955,26,-236,-89,16,34,-20
10960,26,-234,-90,14,36,-22
10965,24,-233,-86,11,41,-18
10970,25,-234,-87,8,46,-17
10975,27,-233,-84,0,51,-11
10980,24,-236,-87,-6,58,-14
10985,25,-232,-79,-18,59,-12
10990,25,-230,-80,-32,57,-14
10995,27,-235,-82,-48,53,-10
11000,24,-234,-85,-66,49,-10
11005,24,-233,-84,-84,46,-6
11010,24,-238,-82,-100,46,-4
11015,21,-234,-82,-114,46,1
11020,24,-243,-83,-124,48,1
11025,20,-242,-83,-132,49,5
11030,22,-245,-82,-139,51,1
11035,20,-246,-82,-145,58,4
11040,17,-249,-85,-146,62,0
11045,22,-252,-84,-144,65,1
11050,23,-249,-85,-137,69,-4
11055,22,-249,-85,-125,70,-2
11060,26,-250,-88,-108,71,-6
11065,25,-245,-87,-91,71,-6
11070,20,-246,-90,-72,71,-9
11075,22,-245,-91,-53,70,-5
11080,26,-246,-93,-39,68,-5
11085,24,-243,-86,-28,67,1
11090,24,-243,-91,-18,72,2
11095,21,-243,-86,-15,80,5
11100,24,-239,-91,-12,85,2
11105,20,-241,-88,-13,92,3
11110,21,-237,-86,-18,94,-2
11115,22,-238,-87,-25,95,0
11120,22,-237,-90,-35,93,-3
11125,22,-237,-86,-48,91,-1
11130,23,-236,-88,-61,86,-3
11135,21,-234,-92,-71,82,-1
11140,21,-236,-87,-78,79,-4
11145,22,-236,-87,-86,76,-2
11150,21,-234,-86,-91,73,-7
11155,22,-237,-93,-92,71,-5
11160,26,-239,-88,-91,72,-8
11165,24,-239,-87,-90,71,-7
11170,24,-239,-90,-88,70,-10
11175,25,-241,-83,-88,70,-10
11180,22,-240,-91,-87,70,-12
11185,24,-240,-89,-86,69,-11
11190,24,-241,-84,-87,69,-14
11195,19,-238,-88,-88,69,-12
11200,20,-241,-89,-89,69,-15
11205,22,-240,-87,-90,67,-12
11210,22,-240,-87,-90,64,-14
11215,21,-239,-91,-90,61,-11
11220,18,-240,-85,-89,59,-14
11225,22,-242,-89,-88,58,-11
11230,20,-242,-89,-85,56,-12
11235,21,-246,-87,-82,57,-11
11240,21,-243,-87,-75,57,-13
11245,22,-245,-89,-67,59,-11
11250,18,-243,-95,-58,60,-13
11255,21,-243,-90,-46,62,-12
11260,22,-246,-88,-34,62,-13
11265,19,-246,-91,-22,63,-13
11270,19,-243,-91,-11,61,-16
11275,18,-242,-90,1,61,-13
11280,21,-245,-89,10,59,-16
11285,21,-241,-93,18,58,-13
11290,16,-242,-88,25,57,-17
11295,18,-242,-88,30,56,-16
11300,20,-243,-89,33,53,-19
11305,22,-240,-87,35,50,-17
11310,22,-239,-87,33,48,-21
11315,21,-239,-87,31,46,-18
11320,20,-235,-87,26,44,-20
11325,22,-242,-89,21,43,-17
11330,22,-239,-84,18,40,-18
11335,22,-239,-88,14,37,-15
11340,18,-240,-88,12,35,-15
11345,22,-240,-87,11,35,-13
11350,22,-241,-87,9,35,-14
11355,24,-242,-92,6,35,-13
11360,25,-243,-89,3,38,-15
11365,25,-242,-90,-2,39,-13
11370,24,-243,-93,-5,39,-14
11375,25,-244,-91,-7,39,-11
11380,23,-244,-87,-5,40,-15
11385,23,-242,-87,-3,41,-11
11390,22,-242,-91,2,44,-13
11395,21,-244,-93,9,44,-11
11400,23,-244,-88,16,47,-12
11405,19,-242,-91,24,51,-12
11410,22,-244,-91,32,53,-14
11415,20,-244,-89,41,56,-13
11420,21,-242,-89,51,57,-17
11425,21,-239,-90,56,58,-16
11430,23,-237,-91,57,58,-18
11435,21,-240,-87,56,59,-17
11440,20,-239,-90,54,60,-19
11445,19,-237,-90,51,57,-15
11450,23,-239,-90,45,56,-16
11455,22,-240,-87,42,56,-14
11460,20,-239,-87,41,55,-13
11465,22,-240,-86,40,55,-11
11470,19,-239,-89,42,53,-14
11475,26,-242,-91,45,52,-12
11480,22,-239,-88,48,52,-14
11485,22,-241,-84,47,55,-12
11490,21,-239,-89,43,58,-13
11495,20,-239,-87,38,58,-12
11500,21,-239,-88,32,58,-13
11505,20,-238,-85,27,59,-10
11510,19,-242,-87,21,58,-10
11515,18,-241,-84,16,58,-8
11520,22,-245,-82,11,58,-10
11525,20,-242,-84,7,59,-8
11530,21,-243,-82,4,57,-11
11535,18,-243,-85,2,57,-9
11540,22,-246,-83,3,58,-9
11545,22,-245,-88,2,57,-7
11550,22,-243,-85,2,59,-8
11555,22,-242,-87,3,60,-6
11560,18,-240,-87,5,60,-7
11565,22,-244,-87,6,62,-5
11570,20,-241,-85,7,64,-5
11575,20,-241,-85,8,66,-4
11580,17,-243,-87,11,69,-5
11585,18,-239,-84,14,71,-5
11590,20,-244,-85,15,72,-7
11595,22,-242,-85,17,73,-7
11600,20,-243,-84,17,75,-9
11605,20,-241,-91,17,76,-10
11610,22,-243,-87,16,76,-12
11615,19,-242,-88,13,78,-11
11620,19,-242,-88,10,77,-11
11625,23,-242,-86,7,77,-10
11630,22,-242,-82,4,77,-9
11635,20,-243,-89,3,77,-5
11640,19,-241,-84,5,78,-6
11645,20,-239,-87,6,77,-4
11650,22,-241,-82,8,79,-6
11655,22,-243,-89,7,79,-2
11660,21,-242,-82,7,81,-2
11665,22,-242,-82,6,83,0
11670,19,-243,-83,5,82,1
11675,19,-240,-81,4,80,3
11680,22,-242,-84,4,80,3
11685,20,-243,-89,4,80,4
11690,20,-241,-85,4,80,4
11695,20,-242,-90,6,81,8
11700,19,-239,-84,4,80,7
11705,18,-240,-81,4,81,9
11710,20,-238,-88,3,82,9
11715,20,-241,-82,2,82,11
11720,20,-241,-86,-1,84,10
11725,19,-241,-83,-3,84,11
11730,19,-243,-85,-5,86,11
11735,20,-242,-84,-8,86,11
11740,18,-243,-86,-9,87,10
11745,19,-243,-82,-9,85,11
11750,18,-241,-84,-8,84,9
11755,18,-241,-84,-6,83,10
11760,19,-243,-86,-5,84,8
11765,18,-245,-84,-2,83,10
11770,19,-243,-88,0,83,8
11775,18,-244,-90,0,81,8
11780,20,-239,-85,2,78,6
11785,19,-241,-87,3,78,6
11790,17,-241,-87,3,75,6
11795,18,-242,-83,5,74,5
11800,21,-243,-87,7,72,4
11805,20,-242,-87,7,72,4
11810,18,-240,-87,6,71,2
11815,20,-241,-87,7,69,2
11820,19,-242,-84,5,68,1
11825,18,-242,-85,6,68,0
11830,19,-242,-83,5,67,-1
11835,19,-240,-88,3,65,-1
11840,17,-237,-86,2,64,-2
11845,18,-239,-86,2,64,-2
11850,19,-239,-85,1,61,-3
11855,22,-240,-82,-2,63,-1
11860,20,-242,-84,-7,63,-1
11865,17,-242,-83,-10,62,0
11870,19,-243,-87,-16,62,0
11875,19,-242,-82,-20,64,1
11880,19,-240,-80,-23,63,1
11885,20,-241,-85,-25,63,-1
11890,22,-242,-84,-28,62,-1
11895,19,-242,-83,-33,61,-1
11900,17,-241,-83,-37,61,-2
11905,20,-244,-86,-39,61,-4
11910,19,-243,-86,-39,60,-5
11915,19,-242,-88,-39,60,-5
11920,19,-245,-84,-36,59,-5
11925,19,-242,-85,-30,60,-6
11930,20,-246,-87,-25,61,-6
11935,18,-245,-86,-19,61,-6
11940,19,-245,-90,-14,59,-5
11945,18,-244,-86,-11,59,-6
11950,22,-245,-89,-8,60,-6
11955,20,-245,-86,-6,59,-7
11960,19,-242,-83,-3,59,-6
11965,18,-241,-90,0,58,-6
11970,19,-240,-86,6,58,-6
11975,17,-242,-87,9,58,-6
11980,22,-245,-85,13,57,-6
11985,17,-242,-84,17,58,-7
11990,19,-240,-85,18,58,-8
11995,19,-239,-84,18,60,-10
