timestamp,acc_x,acc_y,acc_z,gyro_x,gyro_y,gyro_z
0,-11,-244,-114,-56,12,-8
5,-12,-239,-115,-57,11,-8
10,-9,-244,-117,-58,13,-6
15,-9,-245,-115,-57,13,-7
20,-8,-243,-116,-57,12,-7
25,-9,-243,-113,-58,14,-5
30,-8,-246,-119,-59,16,-6
35,-6,-243,-116,-61,16,-6
40,-8,-245,-115,-62,17,-7
45,-11,-246,-114,-63,17,-6
50,-8,-246,-118,-62,20,-7
55,-8,-243,-118,-64,19,-6
60,-9,-245,-118,-65,21,-7
65,-9,-245,-124,-64,21,-7
70,-8,-247,-114,-63,23,-6
75,-8,-248,-120,-65,23,-7
80,-10,-244,-118,-65,24,-5
85,-11,-245,-118,-66,25,-6
90,-12,-245,-117,-66,25,-6
95,-10,-247,-114,-67,25,-8
100,-9,-248,-119,-64,27,-6
105,-13,-253,-113,-61,27,-7
110,-10,-249,-118,-56,26,-6
115,-11,-245,-115,-52,26,-7
120,-9,-246,-117,-47,26,-6
125,-10,-247,-117,-42,25,-4
130,-9,-247,-113,-37,24,-4
135,-12,-244,-115,-34,24,-3
140,-11,-244,-114,-32,22,-2
145,-8,-241,-116,-29,21,-3
150,-11,-240,-115,-26,22,-2
155,-9,-243,-113,-26,20,-3
160,-10,-244,-116,-26,19,-3
165,-9,-242,-114,-28,20,-3
170,-8,-244,-118,-33,20,-3
175,-9,-239,-116,-39,20,-4
180,-8,-243,-116,-44,21,-3
185,-9,-245,-119,-48,22,-2
190,-12,-247,-116,-51,20,-4
195,-12,-245,-117,-54,22,-5
200,-9,-244,-116,-54,21,-4
205,-10,-246,-116,-49,24,-5
210,-9,-249,-117,-42,24,-5
215,0,-248,-115,-36,28,-6
220,-11,-247,-114,-29,28,-5
225,-10,-244,-116,-20,29,-7
230,-6,-245,-119,-14,28,-6
235,-11,-245,-113,-10,28,-6
240,-11,-243,-117,-9,27,-6
245,-9,-242,-117,-7,27,-5
250,-11,-243,-113,-10,26,-4
255,-9,-242,-115,-13,24,-4
260,-9,-241,-116,-18,25,-4
265,-9,-240,-117,-24,25,-4
270,-8,-242,-119,-30,24,-4
275,-7,-241,-118,-33,25,-3
280,-9,-240,-113,-39,26,-3
285,-12,-243,-116,-42,25,-2
290,-6,-246,-115,-46,27,-1
295,-9,-244,-118,-47,28,-1
300,-9,-244,-117,-48,30,-2
305,-8,-247,-115,-47,28,-1
310,-8,-243,-116,-47,29,0
315,-10,-246,-117,-46,27,1
320,-13,-245,-118,-42,27,0
325,-10,-247,-114,-38,27,0
330,-10,-245,-117,-35,27,0
335,-10,-248,-115,-26,25,0
340,-11,-244,-115,-23,24,-1
345,-11,-244,-118,-19,23,-1
350,-11,-243,-116,-17,22,-2
355,-11,-244,-119,-16,23,0
360,-10,-243,-113,-13,23,0
365,-10,-242,-117,-13,25,-2
370,-8,-244,-120,-14,27,0
375,-11,-243,-115,-16,26,1
380,-11,-243,-114,-17,26,1
385,-11,-241,-119,-22,24,1
390,-11,-240,-116,-27,24,0
395,-9,-243,-114,-30,25,1
400,-7,-245,-116,-37,24,-1
405,-7,-244,-117,-42,24,-1
410,-10,-242,-118,-47,22,-2
415,-9,-245,-118,-47,23,-4
420,-11,-243,-115,-50,22,-5
425,-12,-245,-116,-48,21,-5
430,-11,-245,-115,-47,21,-5
435,-11,-246,-116,-45,20,-4
440,-10,-246,-115,-43,20,-5
445,-10,-244,-115,-41,20,-5
450,-6,-247,-116,-40,19,-4
455,-10,-245,-115,-38,19,-4
460,-6,-247,-116,-38,20,-5
465,-9,-245,-118,-40,21,-4
470,-9,-244,-118,-40,21,-5
475,-11,-243,-120,-41,23,-5
480,-8,-243,-115,-43,24,-4
485,-9,-244,-118,-43,24,-4
490,-10,-244,-118,-44,26,-4
495,-9,-240,-116,-44,28,-4
500,-8,-245,-118,-45,28,-4
505,-7,-242,-113,-46,29,-5
510,-8,-244,-116,-46,30,-4
515,-10,-244,-118,-47,30,-6
520,-8,-247,-113,-47,30,-5
525,-8,-242,-114,-46,30,-5
530,-10,-246,-116,-46,31,-6
535,-9,-242,-115,-47,31,-5
540,-9,-246,-115,-48,31,-5
545,-8,-244,-116,-50,29,-4
550,-10,-245,-116,-50,28,-5
555,-10,-242,-118,-52,27,-3
560,-8,-244,-114,-54,26,-4
565,-9,-244,-112,-55,26,-3
570,-10,-245,-116,-56,23,-4
575,-12,-242,-117,-58,21,-5
580,-10,-245,-117,-58,19,-4
585,-9,-247,-112,-58,19,-4
590,-9,-246,-116,-60,19,-4
595,-11,-247,-113,-61,17,-5
600,-12,-245,-115,-61,18,-5
605,-10,-245,-113,-62,18,-4
610,-7,-248,-116,-63,18,-5
615,-11,-245,-114,-63,18,-6
620,-11,-245,-114,-63,17,-7
625,-9,-245,-114,-60,17,-7
630,-9,-247,-114,-57,16,-7
635,-7,-248,-114,-54,16,-8
640,-10,-245,-117,-50,16,-9
645,-11,-242,-117,-48,14,-8
650,-9,-250,-122,-47,14,-8
655,-13,-245,-113,-47,13,-9
660,-10,-244,-116,-48,13,-8
665,-9,-243,-115,-48,13,-8
670,-7,-241,-114,-49,14,-9
675,-8,-246,-117,-50,14,-9
680,-8,-243,-114,-50,15,-10
685,-8,-245,-113,-52,15,-11
690,-8,-245,-115,-53,16,-11
695,-8,-244,-114,-54,17,-11
700,-10,-242,-112,-54,17,-12
705,-6,-247,-116,-56,18,-12
710,-8,-243,-116,-56,19,-12
715,-9,-247,-113,-57,19,-12
720,-6,-244,-113,-60,20,-13
725,-9,-246,-115,-59,23,-13
730,-7,-246,-114,-59,23,-12
735,-9,-244,-114,-58,23,-13
740,-9,-246,-117,-56,23,-11
745,-6,-247,-114,-55,24,-10
750,-8,-247,-112,-52,23,-10
755,-7,-246,-114,-50,24,-9
760,-10,-247,-118,-45,22,-9
765,-8,-248,-119,-43,19,-8
770,-7,-246,-116,-45,20,-7
775,-6,-247,-113,-41,18,-6
780,-8,-248,-114,-41,17,-6
785,-8,-244,-117,-39,16,-6
790,-9,-245,-118,-39,16,-7
795,-9,-243,-116,-36,17,-7
800,-9,-245,-115,-37,19,-7
805,-12,-245,-115,-40,19,-8
810,-7,-244,-112,-41,20,-8
815,-10,-245,-114,-43,22,-10
820,-11,-245,-117,-47,20,-9
825,-9,-242,-114,-48,22,-9
830,-12,-242,-116,-52,23,-9
835,-8,-246,-115,-54,22,-9
840,-10,-246,-115,-55,23,-9
845,-10,-245,-114,-54,23,-8
850,-8,-246,-113,-54,24,-7
855,-9,-245,-115,-53,23,-6
860,-8,-247,-117,-50,24,-5
865,-9,-243,-113,-50,23,-5
870,-9,-244,-117,-48,23,-5
875,-12,-242,-114,-47,22,-3
880,-9,-244,-117,-45,22,-5
885,-11,-245,-118,-47,21,-3
890,-12,-245,-114,-47,22,-6
895,-9,-245,-117,-49,23,-3
900,-9,-243,-114,-48,22,-3
905,-11,-244,-115,-48,23,-4
910,-9,-245,-116,-46,24,-4
915,-10,-243,-117,-44,25,-4
920,-9,-245,-113,-42,26,-2
925,-10,-246,-116,-41,25,-2
930,-10,-247,-115,-41,26,-2
935,-9,-245,-114,-40,24,-2
940,-11,-245,-114,-40,26,-2
945,-12,-244,-113,-40,24,-2
950,-11,-244,-115,-40,23,-3
955,-7,-247,-119,-43,22,-2
960,-9,-242,-115,-45,21,-1
965,-10,-243,-118,-46,21,-1
970,-8,-246,-115,-46,21,0
975,-9,-246,-116,-48,22,-1
980,-6,-245,-117,-49,22,-1
985,-10,-242,-117,-48,23,-2
990,-11,-243,-110,-47,22,-2
995,-10,-244,-115,-48,21,-2
1000,-8,-246,-116,-48,22,-3
1005,-10,-242,-113,-48,22,-3
1010,-12,-242,-115,-49,22,-4
1015,-9,-242,-111,-49,23,-4
1020,-12,-242,-116,-53,22,-4
1025,-9,-243,-113,-55,22,-4
1030,-11,-243,-112,-59,22,-3
1035,-7,-244,-114,-63,21,-3
1040,-8,-244,-115,-62,21,-2
1045,-11,-245,-117,-63,20,-3
1050,-10,-247,-113,-62,20,-4
1055,-9,-245,-113,-61,20,-5
1060,-9,-246,-114,-59,20,-5
1065,-10,-245,-115,-55,21,-7
1070,-12,-246,-119,-53,20,-5
1075,-11,-246,-115,-51,20,-6
1080,-9,-247,-115,-51,20,-7
1085,-8,-247,-116,-51,20,-7
1090,-7,-242,-117,-52,20,-8
1095,-12,-244,-115,-52,21,-6
1100,-8,-246,-115,-52,20,-6
1105,-10,-243,-115,-50,20,-5
1110,-7,-244,-119,-48,19,-5
1115,-10,-243,-117,-46,20,-5
1120,-9,-245,-117,-41,21,-6
1125,-8,-243,-113,-39,21,-5
1130,-9,-242,-116,-38,22,-4
1135,-9,-246,-112,-37,22,-4
1140,-7,-240,-116,-37,22,-5
1145,-11,-242,-117,-39,21,-6
1150,-6,-245,-116,-40,21,-5
1155,-11,-246,-114,-43,20,-6
1160,-11,-242,-113,-45,19,-7
1165,-11,-242,-116,-47,19,-7
1170,-11,-245,-116,-49,20,-8
1175,-8,-248,-114,-51,20,-8
1180,-8,-243,-117,-53,22,-9
1185,-8,-247,-119,-53,22,-8
1190,-12,-244,-117,-52,21,-9
1195,-9,-245,-113,-50,21,-8
1200,-9,-244,-115,-47,22,-9
1205,-6,-246,-119,-43,22,-9
1210,-10,-244,-116,-40,23,-8
1215,-9,-246,-112,-35,23,-8
1220,-9,-244,-116,-32,22,-8
1225,-8,-244,-114,-29,23,-8
1230,-9,-244,-116,-27,21,-8
1235,-7,-243,-119,-27,21,-7
1240,-10,-242,-114,-29,21,-6
1245,-8,-243,-121,-33,22,-5
1250,-8,-244,-115,-35,21,-5
1255,-9,-239,-114,-37,21,-4
1260,-8,-243,-114,-39,21,-3
1265,-11,-243,-118,-43,23,-3
1270,-9,-243,-115,-44,23,-4
1275,-10,-245,-115,-44,24,-4
1280,-10,-243,-118,-43,22,-4
1285,-9,-245,-114,-43,22,-4
1290,-10,-243,-115,-45,23,-5
1295,-11,-243,-116,-45,23,-5
1300,-10,-243,-119,-47,23,-6
1305,-8,-241,-117,-49,23,-5
1310,-10,-246,-115,-50,24,-6
1315,-8,-245,-118,-52,24,-4
1320,-7,-245,-117,-51,25,-4
1325,-11,-243,-115,-50,25,-5
1330,-9,-245,-117,-48,26,-4
1335,-11,-247,-117,-46,24,-3
1340,-10,-244,-114,-45,23,-3
1345,-6,-245,-115,-42,22,-2
1350,-10,-246,-115,-44,22,-3
1355,-8,-247,-118,-44,21,-3
1360,-14,-246,-114,-45,21,-3
1365,-10,-241,-113,-48,18,-3
1370,-9,-244,-116,-52,17,-4
1375,-10,-246,-114,-53,17,-4
1380,-7,-247,-113,-54,16,-5
1385,-10,-244,-117,-55,15,-6
1390,-11,-243,-118,-55,18,-5
1395,-10,-243,-117,-52,18,-5
1400,-5,-244,-116,-51,18,-5
1405,-8,-243,-114,-48,17,-6
1410,-9,-245,-114,-45,17,-6
1415,-12,-248,-116,-46,18,-6
1420,-8,-242,-119,-44,18,-5
1425,-7,-245,-114,-45,19,-6
1430,-7,-246,-115,-46,22,-6
1435,-8,-244,-117,-45,21,-7
1440,-8,-243,-115,-44,20,-7
1445,-9,-243,-118,-44,20,-6
1450,-10,-245,-113,-44,18,-6
1455,-9,-243,-113,-44,18,-7
1460,-6,-244,-115,-46,17,-7
1465,-8,-244,-119,-48,18,-7
1470,-11,-243,-113,-49,17,-7
1475,-11,-245,-117,-48,17,-7
1480,-9,-245,-119,-48,18,-9
1485,-10,-246,-115,-46,18,-8
1490,-11,-246,-120,-44,18,-9
1495,-11,-245,-114,-42,18,-11
1500,-9,-245,-120,-38,18,-10
1505,-8,-246,-118,-36,18,-10
1510,-10,-244,-114,-36,17,-12
1515,-9,-243,-116,-33,16,-10
1520,-11,-246,-117,-33,14,-13
1525,-14,-244,-116,-30,14,-13
1530,-9,-246,-119,-32,14,-14
1535,-10,-243,-117,-30,13,-14
1540,-9,-244,-116,-29,14,-12
1545,-8,-247,-117,-28,16,-11
1550,-11,-246,-116,-27,17,-13
1555,-9,-245,-113,-27,18,-14
1560,-8,-245,-115,-26,18,-12
1565,-9,-248,-117,-26,19,-11
1570,-6,-246,-115,-23,20,-13
1575,-8,-245,-114,-22,22,-14
1580,-9,-248,-119,-21,20,-14
1585,-10,-244,-113,-16,21,-14
1590,-8,-244,-118,-15,21,-12
1595,-11,-244,-113,-14,19,-14
1600,-9,-245,-116,-14,20,-14
1605,-5,-247,-116,-14,21,-15
1610,-10,-246,-116,-18,21,-15
1615,-11,-242,-117,-19,21,-14
1620,-8,-243,-116,-20,22,-12
1625,-8,-247,-110,-22,24,-13
1630,-9,-243,-113,-25,23,-13
1635,-7,-245,-119,-27,22,-12
1640,-9,-244,-114,-29,24,-11
1645,-9,-241,-112,-30,23,-11
1650,-9,-242,-114,-30,24,-10
1655,-4,-243,-110,-32,23,-9
1660,-7,-244,-115,-34,23,-8
1665,-7,-243,-113,-36,23,-7
1670,-7,-243,-116,-39,23,-6
1675,-7,-242,-114,-42,23,-5
1680,-7,-245,-112,-48,23,-4
1685,-7,-242,-114,-50,23,-4
1690,-8,-245,-117,-54,22,-4
1695,-6,-243,-114,-58,22,-4
1700,-9,-247,-116,-61,24,-2
1705,-9,-245,-114,-62,24,-2
1710,-9,-244,-113,-62,26,-2
1715,-7,-246,-115,-62,26,-1
1720,-9,-246,-114,-60,25,0
1725,-7,-247,-112,-59,24,0
1730,-8,-246,-116,-58,24,0
1735,-9,-248,-114,-55,24,0
1740,-8,-245,-115,-57,23,-1
1745,-8,-248,-113,-58,26,0
1750,-9,-244,-112,-57,27,-2
1755,-11,-246,-113,-57,28,-3
1760,-8,-247,-112,-55,29,-2
1765,-10,-245,-116,-55,29,-1
1770,-11,-244,-117,-54,31,-2
1775,-10,-248,-115,-51,32,-1
1780,-9,-248,-115,-49,32,0
1785,-11,-246,-110,-48,30,-2
1790,-10,-245,-115,-47,29,-1
1795,-8,-245,-115,-44,29,-1
1800,-8,-247,-113,-42,28,-2
1805,-13,-243,-114,-44,29,-2
1810,-10,-245,-112,-46,26,-3
1815,-10,-242,-115,-47,28,-5
1820,-7,-245,-115,-50,27,-5
1825,-8,-247,-115,-54,26,-4
1830,-7,-247,-116,-55,26,-5
1835,-7,-245,-117,-56,26,-6
1840,-11,-245,-111,-57,27,-6
1845,-9,-245,-112,-56,25,-5
1850,-10,-241,-117,-55,24,-6
1855,-9,-243,-115,-55,22,-5
1860,-9,-248,-115,-53,21,-4
1865,-8,-246,-115,-51,21,-5
1870,-8,-245,-116,-48,21,-5
1875,-8,-247,-117,-46,19,-5
1880,-10,-244,-113,-45,19,-5
1885,-9,-245,-115,-43,16,-5
1890,-8,-248,-115,-43,17,-4
1895,-9,-243,-114,-42,14,-4
1900,-8,-243,-113,-42,12,-5
1905,-8,-245,-116,-42,11,-4
1910,-9,-244,-115,-43,12,-5
1915,-10,-243,-114,-46,9,-4
1920,-10,-243,-116,-47,12,-4
1925,-8,-247,-118,-48,13,-4
1930,-7,-246,-116,-49,13,-5
1935,-7,-245,-113,-50,13,-7
1940,-6,-246,-116,-50,16,-6
1945,-8,-244,-115,-50,16,-7
1950,-10,-243,-113,-49,17,-7
1955,-7,-246,-116,-48,18,-8
1960,-6,-244,-113,-45,18,-9
1965,-6,-244,-116,-45,19,-10
1970,-8,-243,-116,-42,20,-9
1975,-9,-241,-114,-41,21,-9
1980,-8,-246,-117,-41,22,-9
1985,-10,-240,-116,-41,23,-9
1990,-11,-243,-114,-41,23,-7
1995,-10,-243,-113,-44,22,-7
2000,-6,-243,-112,-46,21,-7
2005,-12,-239,-113,-49,22,-7
2010,-9,-243,-116,-51,21,-7
2015,-10,-245,-111,-52,20,-6
2020,-10,-245,-113,-53,20,-5
2025,-9,-246,-112,-55,20,-7
2030,-8,-244,-114,-56,20,-7
2035,-11,-248,-113,-54,18,-7
2040,-8,-246,-117,-52,18,-6
2045,-8,-245,-114,-52,18,-6
2050,-8,-245,-116,-52,17,-5
2055,-10,-243,-115,-51,16,-5
2060,-10,-243,-116,-49,16,-5
2065,-6,-245,-104,-49,15,-6
2070,-10,-247,-116,-48,15,-5
2075,-8,-245,-117,-45,15,-6
2080,-8,-248,-116,-45,14,-6
2085,-12,-242,-115,-43,15,-4
2090,-9,-244,-116,-43,14,-6
2095,-10,-241,-116,-43,13,-6
2100,-8,-243,-118,-43,14,-6
2105,-9,-242,-116,-45,13,-6
2110,-9,-244,-116,-49,14,-7
2115,-10,-242,-115,-52,12,-8
2120,-8,-244,-113,-58,12,-8
2125,-8,-248,-116,-61,13,-9
2130,-9,-246,-114,-64,12,-10
2135,-7,-247,-112,-64,12,-9
2140,-9,-247,-114,-64,11,-8
2145,-7,-246,-114,-62,11,-7
2150,-10,-248,-115,-61,9,-8
2155,-7,-247,-115,-58,8,-9
2160,-7,-249,-116,-56,7,-7
2165,-10,-246,-117,-55,7,-7
2170,-8,-245,-116,-53,6,-6
2175,-10,-249,-116,-52,7,-7
2180,-9,-245,-114,-51,7,-7
2185,-10,-245,-113,-50,8,-7
2190,-7,-247,-116,-48,11,-6
2195,-7,-246,-115,-46,12,-6
2200,-8,-245,-117,-44,13,-8
2205,-6,-243,-113,-42,13,-8
2210,-9,-242,-117,-40,15,-9
2215,-8,-244,-120,-42,16,-10
2220,-7,-247,-117,-45,17,-11
2225,-8,-243,-121,-45,16,-10
2230,-10,-248,-121,-50,17,-10
2235,-4,-245,-116,-56,17,-10
2240,-7,-246,-120,-61,18,-9
2245,-9,-245,-124,-66,19,-8
2250,-10,-246,-123,-69,21,-8
2255,-9,-246,-120,-73,22,-8
2260,-9,-246,-121,-73,22,-8
2265,-8,-244,-122,-70,23,-8
2270,-10,-245,-122,-66,25,-8
2275,-6,-245,-125,-61,28,-10
2280,-9,-242,-123,-53,31,-9
2285,-7,-240,-126,-49,33,-8
2290,-10,-244,-122,-44,36,-8
2295,-8,-242,-122,-42,41,-7
2300,-10,-243,-124,-41,42,-5
2305,-7,-242,-126,-42,44,-2
2310,-10,-239,-126,-45,45,-1
2315,-8,-238,-128,-46,42,0
2320,-8,-242,-128,-48,42,-1
2325,-12,-241,-124,-46,42,0
2330,-10,-240,-122,-45,42,1
2335,-8,-240,-123,-44,45,1
2340,-10,-237,-124,-40,46,1
2345,-10,-240,-124,-34,48,1
2350,-9,-236,-125,-31,51,2
2355,-11,-236,-126,-28,51,1
2360,-10,-236,-127,-28,52,-1
2365,-11,-236,-126,-30,54,0
2370,-8,-234,-126,-35,54,0
2375,-10,-233,-124,-38,55,-1
2380,-8,-236,-127,-44,56,0
2385,-10,-231,-127,-51,57,0
2390,-12,-232,-128,-57,57,2
2395,-3,-232,-130,-64,56,2
2400,-9,-234,-129,-70,56,1
2405,-10,-234,-129,-77,56,3
2410,-10,-233,-126,-80,54,4
2415,-7,-236,-130,-87,54,4
2420,-9,-233,-128,-89,54,5
2425,-9,-232,-127,-90,55,6
2430,-9,-234,-130,-93,54,5
2435,-10,-234,-127,-92,56,4
2440,-9,-236,-128,-93,57,2
2445,-7,-237,-131,-94,62,1
2450,-9,-237,-133,-93,64,-2
2455,-10,-234,-131,-95,69,-3
2460,-8,-236,-135,-97,72,-4
2465,-7,-237,-133,-101,74,-5
2470,-10,-237,-132,-103,74,-3
2475,-7,-238,-131,-106,75,-4
2480,-10,-236,-134,-108,73,-3
2485,-9,-240,-131,-107,71,-3
2490,-8,-237,-135,-107,71,-4
2495,-9,-236,-138,-105,70,-4
2500,-7,-238,-128,-100,69,-3
2505,-3,-240,-131,-96,70,-4
2510,-8,-235,-136,-92,70,-4
2515,-9,-234,-132,-92,69,-4
2520,-9,-231,-126,-91,69,-5
2525,-8,-231,-130,-93,71,-4
2530,-9,-229,-134,-94,71,-1
2535,-8,-232,-129,-100,73,-2
2540,-3,-233,-131,-104,74,-1
2545,-9,-229,-132,-111,76,0
2550,-6,-228,-134,-118,77,2
2555,-8,-226,-134,-128,79,3
2560,-5,-225,-131,-139,81,5
2565,-6,-226,-130,-149,82,7
2570,-8,-225,-135,-160,83,6
2575,-5,-227,-135,-171,85,7
2580,-5,-222,-138,-180,86,8
2585,-4,-225,-132,-189,88,9
2590,-5,-224,-135,-200,91,9
2595,-4,-223,-132,-212,94,9
2600,-4,-221,-132,-222,97,7
2605,-8,-223,-133,-232,100,7
2610,-6,-221,-135,-246,104,6
2615,-6,-220,-137,-261,110,5
2620,-7,-220,-137,-276,115,3
2625,-2,-223,-137,-289,119,4
2630,-7,-220,-141,-303,122,5
2635,-6,-221,-138,-317,126,5
2640,-5,-217,-143,-331,130,5
2645,-5,-217,-145,-342,136,2
2650,-6,-219,-146,-355,140,1
2655,-5,-221,-146,-370,145,1
2660,-5,-221,-147,-384,150,-1
2665,-7,-218,-144,-396,155,-1
2670,-6,-218,-146,-409,160,0
2675,-6,-222,-143,-420,159,2
2680,-8,-217,-145,-428,159,5
2685,-7,-220,-146,-435,157,9
2690,-6,-219,-143,-439,156,17
2695,-6,-221,-142,-441,151,22
2700,0,-224,-145,-442,146,28
2705,-4,-221,-146,-438,143,34
2710,-7,-215,-143,-435,139,38
2715,-6,-217,-144,-435,137,42
2720,-4,-217,-145,-440,134,44
2725,-3,-216,-149,-448,131,46
2730,-6,-217,-145,-459,130,44
2735,-3,-214,-144,-467,131,42
2740,-3,-218,-148,-471,130,42
2745,-6,-213,-146,-483,134,37
2750,-8,-212,-149,-497,136,28
2755,-7,-211,-146,-511,138,19
2760,-5,-209,-147,-525,140,10
2765,-7,-211,-145,-534,141,1
2770,-9,-207,-146,-542,141,-8
2775,-11,-204,-145,-545,137,-17
2780,-9,-206,-143,-549,135,-24
2785,-11,-206,-150,-551,132,-33
2790,-16,-202,-144,-558,128,-38
2795,-16,-200,-146,-567,125,-45
2800,-15,-199,-146,-578,118,-47
2805,-18,-198,-146,-589,111,-45
2810,-17,-198,-145,-603,107,-44
2815,-16,-194,-144,-619,104,-42
2820,-16,-197,-143,-636,100,-39
2825,-20,-195,-142,-652,93,-33
2830,-17,-189,-135,-669,88,-28
2835,-16,-194,-142,-688,82,-20
2840,-15,-194,-144,-709,78,-9
2845,-16,-197,-141,-734,74,0
2850,-14,-196,-144,-762,69,9
2855,-15,-198,-144,-789,63,20
2860,-15,-198,-143,-811,56,31
2865,-13,-202,-145,-832,50,41
2870,-11,-204,-146,-850,40,46
2875,-9,-204,-145,-866,32,55
2880,-11,-208,-152,-876,21,60
2885,-8,-208,-143,-878,8,65
2890,-10,-213,-146,-873,-2,69
2895,-10,-218,-151,-869,-9,73
2900,-11,-215,-146,-863,-14,77
2905,-7,-218,-149,-856,-17,81
2910,-14,-222,-147,-851,-25,86
2915,-13,-220,-152,-844,-33,90
2920,-12,-220,-150,-834,-41,91
2925,-13,-225,-150,-823,-49,91
2930,-15,-223,-154,-812,-56,88
2935,-14,-226,-153,-805,-62,87
2940,-15,-225,-149,-798,-67,83
2945,-16,-224,-155,-789,-71,78
2950,-19,-223,-162,-786,-72,73
2955,-16,-225,-161,-782,-69,68
2960,-16,-224,-160,-770,-65,67
2965,-16,-222,-167,-759,-60,65
2970,-17,-221,-171,-752,-53,64
2975,-16,-218,-169,-752,-46,64
2980,-16,-216,-168,-756,-43,66
2985,-13,-212,-166,-759,-43,70
2990,-13,-211,-166,-758,-44,75
2995,-11,-207,-168,-757,-44,82
3000,-10,-204,-169,-755,-43,87
3005,-5,-202,-172,-751,-42,93
3010,-7,-197,-166,-754,-38,95
3015,-6,-199,-171,-756,-33,94
3020,-10,-195,-171,-762,-29,92
3025,-5,-193,-173,-769,-27,89
3030,-6,-188,-175,-781,-23,87
3035,-11,-190,-171,-789,-20,85
3040,-11,-189,-173,-795,-14,83
3045,-7,-191,-171,-795,-5,82
3050,-11,-189,-174,-793,-1,84
3055,-8,-191,-174,-796,2,84
3060,-7,-191,-174,-800,6,90
3065,-3,-192,-172,-806,11,97
3070,-5,-194,-174,-811,15,105
3075,-7,-192,-173,-818,12,113
3080,-7,-193,-175,-822,6,125
3085,-6,-196,-170,-826,-3,137
3090,-7,-193,-174,-823,-14,147
3095,-5,-194,-173,-815,-20,160
3100,-7,-195,-174,-806,-23,169
3105,-5,-195,-172,-796,-23,169
3110,-12,-192,-176,-787,-16,169
3115,-8,-190,-176,-782,-9,169
3120,-8,-193,-175,-781,4,163
3125,-8,-194,-175,-779,21,156
3130,-8,-191,-175,-775,37,149
3135,-10,-191,-176,-765,52,144
3140,-8,-187,-175,-754,62,140
3145,-10,-191,-178,-745,67,138
3150,-9,-185,-177,-739,69,134
3155,-10,-186,-180,-735,69,129
3160,-12,-185,-184,-730,71,120
3165,-12,-188,-183,-731,71,110
3170,-16,-184,-184,-733,74,99
3175,-13,-186,-185,-733,79,94
3180,-16,-184,-189,-730,84,93
3185,-17,-183,-189,-725,84,99
3190,-16,-177,-189,-720,79,105
3195,-24,-178,-191,-714,69,117
3200,-19,-178,-195,-707,58,134
3205,-18,-177,-196,-701,45,150
3210,-19,-175,-194,-692,29,162
3215,-16,-177,-201,-685,14,173
3220,-18,-176,-200,-684,3,181
3225,-16,-179,-205,-687,-9,187
3230,-17,-178,-212,-686,-19,187
3235,-15,-180,-207,-688,-25,185
3240,-17,-180,-212,-689,-28,175
3245,-18,-182,-211,-689,-28,162
3250,-19,-178,-214,-689,-25,151
3255,-17,-177,-221,-692,-26,143
3260,-15,-176,-216,-698,-21,132
3265,-13,-165,-219,-696,-15,124
3270,-14,-171,-217,-691,-5,113
3275,-16,-173,-215,-687,8,104
3280,-11,-172,-217,-684,13,96
3285,-16,-171,-217,-678,18,87
3290,-15,-174,-217,-671,18,86
3295,-15,-170,-223,-670,17,84
3300,-16,-166,-215,-669,22,85
3305,-12,-169,-218,-656,23,93
3310,-13,-168,-217,-639,19,99
3315,-11,-167,-219,-627,12,106
3320,-16,-163,-221,-612,8,105
3325,-15,-158,-223,-600,9,103
3330,-18,-159,-223,-593,12,98
3335,-15,-159,-223,-589,21,91
3340,-15,-158,-225,-583,29,90
3345,-15,-156,-224,-576,41,90
3350,-16,-154,-222,-562,53,87
3355,-15,-155,-223,-548,65,87
3360,-15,-152,-224,-532,70,86
3365,-12,-154,-223,-516,74,85
3370,-11,-150,-217,-503,74,89
3375,-10,-142,-209,-489,73,91
3380,-5,-148,-223,-480,70,96
3385,-11,-143,-224,-481,67,101
3390,-5,-146,-226,-488,61,102
3395,-5,-144,-233,-497,62,97
3400,-10,-146,-231,-506,66,91
3405,-9,-150,-244,-514,72,84
3410,-8,-150,-242,-518,79,78
3415,-12,-151,-242,-521,95,63
3420,-12,-152,-247,-515,119,50
3425,-11,-155,-248,-501,140,36
3430,-14,-154,-248,-485,160,17
3435,-13,-156,-246,-461,180,-1
3440,-11,-157,-247,-430,190,-9
3445,-11,-154,-247,-400,198,-17
3450,-14,-153,-244,-364,204,-25
3455,-13,-156,-244,-332,196,-33
3460,-13,-154,-241,-304,182,-38
3465,-12,-155,-242,-280,162,-41
3470,-12,-147,-241,-262,141,-39
3475,-11,-145,-241,-246,123,-38
3480,-14,-143,-244,-227,110,-35
3485,-10,-145,-249,-210,97,-29
3490,-15,-140,-248,-191,85,-26
3495,-14,-141,-244,-177,76,-25
3500,-15,-137,-246,-171,67,-21
3505,-13,-137,-253,-170,66,-18
3510,-12,-137,-248,-180,72,-18
3515,-14,-134,-248,-198,77,-18
3520,-13,-134,-249,-218,84,-20
3525,-12,-138,-249,-238,87,-19
3530,-11,-137,-248,-253,85,-16
3535,-11,-139,-246,-261,78,-12
3540,-11,-139,-252,-260,72,-9
3545,-14,-139,-253,-251,64,-4
3550,-12,-143,-252,-234,62,-4
3555,-15,-140,-257,-211,57,-3
3560,-12,-141,-255,-186,56,-5
3565,-15,-145,-256,-159,58,-11
3570,-16,-145,-254,-130,59,-19
3575,-16,-145,-258,-104,64,-25
3580,-15,-146,-259,-88,69,-34
3585,-16,-148,-255,-77,71,-38
3590,-14,-148,-254,-69,76,-40
3595,-15,-148,-258,-59,82,-39
3600,-20,-144,-253,-42,88,-36
3605,-18,-146,-253,-20,85,-34
3610,-17,-150,-254,10,78,-31
3615,-16,-151,-251,42,68,-26
3620,-15,-144,-247,80,56,-22
3625,-16,-146,-253,118,43,-16
3630,-14,-144,-250,156,33,-16
3635,-15,-145,-250,191,28,-17
3640,-16,-145,-248,220,26,-19
3645,-15,-144,-250,242,27,-23
3650,-16,-143,-245,259,31,-31
3655,-16,-141,-245,265,33,-40
3660,-15,-142,-243,265,35,-47
3665,-16,-137,-242,259,36,-53
3670,-18,-142,-241,254,37,-56
3675,-18,-142,-244,251,34,-54
3680,-20,-146,-242,247,29,-55
3685,-19,-144,-244,247,25,-51
3690,-19,-145,-244,250,19,-46
3695,-18,-150,-245,257,12,-43
3700,-19,-147,-249,271,4,-39
3705,-21,-148,-246,287,-1,-36
3710,-19,-152,-245,302,-3,-31
3715,-18,-154,-243,316,-4,-30
3720,-20,-154,-246,327,-5,-31
3725,-18,-154,-243,332,-3,-32
3730,-20,-154,-248,335,-2,-32
3735,-23,-156,-250,346,6,-29
3740,-18,-158,-248,356,11,-24
3745,-21,-159,-251,365,11,-24
3750,-19,-161,-250,374,12,-21
3755,-19,-165,-250,383,16,-19
3760,-18,-164,-250,395,20,-17
3765,-19,-165,-250,411,25,-16
3770,-16,-165,-253,424,26,-14
3775,-16,-168,-257,439,28,-14
3780,-18,-166,-256,451,29,-15
3785,-17,-165,-254,464,32,-17
3790,-17,-166,-254,472,34,-21
3795,-21,-167,-253,481,34,-25
3800,-20,-170,-257,492,34,-27
3805,-20,-171,-254,500,34,-28
3810,-20,-174,-264,510,32,-28
3815,-21,-169,-256,519,27,-29
3820,-24,-170,-251,526,24,-26
3825,-17,-173,-253,540,21,-21
3830,-17,-170,-252,554,17,-17
3835,-21,-176,-251,569,11,-15
3840,-20,-173,-250,583,6,-12
3845,-19,-173,-248,595,0,-13
3850,-22,-175,-247,609,-11,-14
3855,-21,-173,-247,624,-19,-14
3860,-17,-176,-244,637,-28,-13
3865,-19,-177,-242,651,-38,-13
3870,-20,-178,-241,666,-45,-18
3875,-22,-182,-239,685,-51,-23
3880,-19,-185,-239,701,-57,-26
3885,-16,-188,-234,717,-57,-30
3890,-16,-187,-233,731,-57,-33
3895,-16,-185,-231,740,-56,-34
3900,-16,-186,-231,748,-57,-35
3905,-16,-189,-230,755,-57,-35
3910,-15,-190,-229,762,-58,-38
3915,-12,-190,-226,772,-57,-40
3920,-13,-193,-225,782,-60,-45
3925,-13,-190,-226,792,-66,-50
3930,-11,-190,-224,796,-69,-57
3935,-13,-186,-222,797,-70,-62
3940,-13,-187,-225,794,-71,-68
3945,-14,-184,-217,789,-71,-71
3950,-14,-188,-215,782,-73,-73
3955,-14,-188,-215,777,-74,-73
3960,-15,-188,-209,769,-74,-71
3965,-15,-185,-209,763,-73,-69
3970,-15,-187,-207,753,-71,-67
3975,-15,-189,-207,748,-69,-66
3980,-14,-190,-206,745,-65,-68
3985,-15,-192,-206,740,-64,-68
3990,-16,-193,-200,735,-65,-71
3995,-13,-192,-198,730,-68,-75
4000,-15,-191,-198,724,-70,-77
4005,-11,-193,-194,722,-71,-80
4010,-12,-195,-194,721,-69,-83
4015,-15,-195,-192,721,-69,-87
4020,-14,-195,-189,725,-66,-88
4025,-14,-200,-187,732,-62,-94
4030,-14,-201,-185,735,-55,-96
4035,-14,-202,-185,742,-49,-96
4040,-13,-201,-184,748,-42,-99
4045,-14,-202,-187,753,-35,-99
4050,-12,-205,-184,758,-30,-99
4055,-11,-205,-183,766,-27,-101
4060,-10,-202,-185,776,-22,-103
4065,-14,-204,-184,782,-19,-105
4070,-11,-201,-185,787,-14,-107
4075,-10,-200,-181,788,-10,-109
4080,-13,-204,-184,788,-7,-112
4085,-12,-202,-180,785,-8,-116
4090,-15,-203,-181,782,-7,-120
4095,-14,-202,-178,779,-4,-124
4100,-14,-202,-178,776,-1,-126
4105,-14,-203,-177,772,2,-126
4110,-15,-206,-176,769,2,-127
4115,-15,-209,-176,764,3,-128
4120,-13,-212,-176,757,6,-130
4125,-18,-206,-176,751,6,-131
4130,-18,-208,-172,745,3,-129
4135,-16,-210,-171,743,2,-128
4140,-15,-210,-171,740,1,-124
4145,-16,-212,-172,740,-1,-123
4150,-16,-213,-170,735,-4,-120
4155,-14,-210,-168,732,-5,-118
4160,-14,-213,-172,730,-5,-113
4165,-16,-215,-169,729,-7,-113
4170,-16,-212,-172,726,-7,-111
4175,-14,-213,-165,720,-8,-107
4180,-15,-214,-167,712,-6,-106
4185,-16,-211,-168,704,-4,-104
4190,-15,-213,-163,700,-3,-103
4195,-13,-216,-162,693,2,-103
4200,-12,-215,-165,689,8,-106
4205,-14,-218,-163,684,15,-108
4210,-11,-217,-157,675,21,-111
4215,-11,-218,-156,666,26,-113
4220,-10,-216,-154,660,34,-116
4225,-9,-222,-154,647,40,-118
4230,-9,-221,-154,632,44,-118
4235,-9,-222,-152,619,50,-119
4240,-6,-220,-150,604,55,-120
4245,-9,-219,-143,592,62,-123
4250,-6,-221,-151,583,69,-123
4255,-7,-223,-152,570,75,-123
4260,-8,-220,-146,558,82,-120
4265,-7,-224,-146,545,87,-119
4270,-5,-227,-148,531,93,-118
4275,-2,-228,-147,520,98,-117
4280,-5,-227,-144,509,100,-116
4285,0,-234,-144,502,97,-118
4290,-4,-231,-141,501,92,-115
4295,-1,-235,-144,505,85,-116
4300,-4,-235,-139,506,76,-114
4305,-5,-237,-137,510,65,-112
4310,-1,-236,-139,517,55,-110
4315,-3,-236,-138,526,46,-108
4320,-3,-239,-135,530,38,-110
4325,-3,-235,-135,534,31,-113
4330,-2,-236,-136,533,29,-117
4335,-5,-235,-131,532,29,-123
4340,-2,-236,-129,530,31,-128
4345,-4,-233,-129,530,35,-132
4350,0,-230,-136,526,38,-137
4355,-2,-232,-136,519,44,-137
4360,-6,-232,-130,508,52,-138
4365,-2,-233,-129,494,59,-140
4370,-1,-234,-131,478,66,-139
4375,1,-236,-131,460,74,-137
4380,0,-232,-129,441,78,-137
4385,2,-234,-131,422,81,-139
4390,-4,-230,-129,402,86,-141
4395,-2,-238,-127,385,87,-145
4400,-4,-238,-124,372,87,-149
4405,-2,-236,-120,366,83,-153
4410,-6,-239,-125,359,84,-155
4415,-10,-235,-126,354,81,-157
4420,-9,-233,-127,348,78,-157
4425,-8,-233,-123,341,73,-153
4430,-6,-235,-123,336,72,-149
4435,-7,-237,-125,333,71,-144
4440,-5,-237,-122,331,72,-140
4445,-1,-238,-122,330,72,-136
4450,-3,-237,-126,327,71,-134
4455,0,-239,-126,327,72,-132
4460,-1,-238,-125,321,71,-128
4465,0,-238,-125,316,72,-123
4470,3,-241,-126,310,73,-119
4475,8,-243,-129,300,78,-112
4480,6,-240,-128,289,88,-106
4485,7,-241,-129,282,98,-93
4490,7,-240,-126,281,105,-78
4495,8,-239,-124,279,109,-68
4500,8,-242,-131,273,111,-61
4505,10,-238,-127,267,115,-58
4510,10,-238,-125,264,122,-60
4515,7,-235,-123,262,125,-64
4520,12,-240,-123,261,125,-68
4525,15,-241,-117,260,124,-73
4530,10,-239,-121,256,124,-81
4535,12,-244,-119,254,122,-87
4540,9,-244,-119,252,119,-94
4545,9,-246,-118,254,117,-102
4550,12,-245,-116,254,115,-109
4555,9,-246,-113,258,114,-115
4560,9,-248,-110,263,116,-116
4565,11,-248,-115,270,115,-114
4570,10,-243,-111,277,115,-113
4575,14,-244,-111,282,116,-108
4580,13,-246,-112,287,117,-103
4585,14,-249,-111,294,117,-97
4590,15,-244,-109,298,116,-94
4595,13,-245,-106,301,114,-90
4600,13,-248,-108,302,112,-86
4605,12,-248,-109,299,107,-81
4610,11,-245,-108,296,101,-77
4615,9,-246,-109,293,94,-72
4620,9,-249,-105,291,88,-68
4625,8,-248,-107,288,80,-66
4630,6,-250,-101,285,72,-66
4635,8,-249,-104,283,63,-66
4640,6,-245,-107,281,58,-65
4645,2,-247,-102,277,54,-63
4650,4,-248,-103,272,51,-60
4655,5,-246,-96,265,50,-58
4660,7,-245,-99,256,48,-58
4665,7,-248,-97,247,47,-56
4670,6,-251,-94,239,46,-54
4675,6,-248,-96,235,45,-54
4680,15,-252,-95,232,45,-52
4685,10,-248,-93,228,46,-51
4690,11,-248,-94,227,46,-51
4695,8,-249,-94,224,46,-48
4700,12,-251,-95,223,49,-46
4705,9,-251,-94,219,50,-45
4710,12,-251,-93,211,51,-43
4715,6,-249,-91,203,51,-41
4720,8,-249,-92,193,50,-39
4725,9,-254,-93,183,51,-35
4730,7,-249,-90,174,51,-30
4735,5,-250,-95,159,50,-25
4740,8,-251,-92,145,47,-18
4745,7,-250,-95,131,46,-11
4750,6,-251,-92,114,45,-6
4755,11,-253,-96,103,42,-2
4760,8,-252,-90,91,40,4
4765,5,-252,-93,79,39,5
4770,7,-254,-94,70,37,8
4775,5,-255,-90,62,34,10
4780,7,-254,-91,57,35,9
4785,5,-250,-94,54,36,9
4790,12,-246,-96,50,36,9
4795,6,-249,-95,47,36,6
4800,8,-255,-94,45,37,3
4805,9,-252,-93,40,37,2
4810,8,-250,-99,35,37,-1
4815,7,-250,-93,31,38,-3
4820,10,-255,-94,27,36,-3
4825,7,-255,-91,24,35,-2
4830,8,-255,-95,22,35,-1
4835,9,-251,-95,22,34,0
4840,8,-249,-93,25,33,1
4845,9,-256,-91,28,33,6
4850,8,-255,-92,31,34,12
4855,9,-256,-95,33,34,17
4860,7,-251,-94,35,33,19
4865,9,-253,-94,35,35,23
4870,7,-251,-93,36,33,24
4875,10,-250,-94,35,34,25
4880,10,-251,-93,31,33,25
4885,8,-248,-96,29,33,24
4890,10,-249,-93,26,32,22
4895,11,-249,-96,19,32,20
4900,11,-248,-99,15,33,17
4905,8,-246,-96,8,28,15
4910,7,-246,-95,0,25,13
4915,7,-249,-96,-7,24,16
4920,8,-247,-97,-18,22,17
4925,7,-249,-95,-25,20,18
4930,7,-250,-95,-32,20,20
4935,9,-253,-93,-37,22,26
4940,9,-250,-89,-41,24,30
4945,10,-255,-92,-46,27,38
4950,9,-257,-93,-51,31,52
4955,10,-257,-97,-59,40,69
4960,9,-260,-88,-68,47,88
4965,12,-259,-94,-78,51,107
4970,13,-257,-92,-88,55,120
4975,15,-259,-97,-92,57,129
4980,15,-256,-98,-94,57,132
4985,15,-252,-99,-98,57,127
4990,13,-247,-105,-100,54,113
4995,9,-242,-102,-103,50,97
5000,5,-236,-103,-110,43,79
5005,7,-231,-100,-122,33,58
5010,2,-229,-99,-142,18,41
5015,3,-228,-101,-178,1,29
5020,2,-230,-97,-220,-17,22
5025,5,-233,-94,-270,-33,19
5030,6,-246,-93,-318,-45,21
5035,8,-253,-85,-362,-53,21
5040,12,-261,-82,-390,-61,15
5045,15,-263,-88,-404,-64,6
5050,12,-262,-86,-400,-58,-5
5055,15,-262,-92,-384,-39,-16
5060,16,-260,-98,-360,-14,-28
5065,20,-256,-99,-333,15,-44
5070,19,-260,-96,-326,32,-67
5075,10,-269,-83,-346,13,-109
5080,2,-273,-87,-382,-28,-171
5085,1,-262,-105,-412,-18,-223
5090,5,-251,-104,-402,53,-232
5095,9,-243,-100,-349,108,-207
5100,12,-244,-99,-272,122,-171
5105,10,-245,-91,-200,117,-132
5110,5,-250,-94,-145,97,-102
5115,2,-256,-103,-110,75,-84
5120,-2,-255,-87,-94,61,-67
5125,-9,-252,-90,-85,48,-48
5130,-6,-251,-90,-82,39,-26
5135,-7,-248,-93,-80,32,-2
5140,-6,-244,-93,-77,27,24
5145,-5,-242,-93,-72,24,43
5150,-2,-239,-96,-68,21,55
5155,-3,-235,-98,-67,19,61
5160,-4,-234,-102,-74,17,61
5165,3,-237,-104,-87,13,55
5170,7,-236,-105,-106,9,49
5175,7,-232,-104,-128,3,41
5180,8,-233,-106,-153,-5,34
5185,8,-235,-109,-175,-15,27
5190,12,-234,-104,-192,-26,19
5195,13,-233,-105,-208,-37,12
5200,12,-236,-105,-221,-45,9
5205,10,-237,-108,-235,-50,8
5210,13,-237,-110,-247,-54,9
5215,13,-238,-111,-263,-56,12
5220,13,-234,-112,-280,-58,15
5225,12,-240,-114,-300,-61,21
5230,12,-230,-112,-321,-64,25
5235,7,-238,-113,-341,-66,31
5240,7,-239,-113,-362,-68,37
5245,4,-238,-112,-378,-70,40
5250,1,-240,-116,-396,-71,43
5255,2,-240,-113,-408,-72,45
5260,5,-242,-114,-414,-70,49
5265,6,-245,-114,-413,-70,52
5270,6,-248,-113,-411,-71,54
5275,14,-252,-106,-405,-67,58
5280,6,-249,-116,-395,-64,62
5285,6,-249,-116,-385,-58,68
5290,7,-250,-116,-373,-53,72
5295,5,-250,-117,-356,-47,75
5300,6,-252,-115,-339,-39,77
5305,9,-250,-119,-321,-29,78
5310,7,-253,-116,-307,-19,77
5315,6,-251,-115,-296,-14,74
5320,6,-253,-117,-287,-9,72
5325,5,-254,-119,-278,-5,66
5330,5,-255,-124,-268,-2,62
5335,4,-254,-118,-258,3,59
5340,7,-253,-118,-248,6,56
5345,7,-254,-117,-237,7,55
5350,5,-254,-119,-222,10,52
5355,8,-254,-121,-205,12,51
5360,5,-255,-121,-192,16,48
5365,6,-251,-122,-177,21,48
5370,4,-249,-120,-164,25,44
5375,4,-250,-118,-152,30,43
5380,5,-247,-118,-140,34,43
5385,4,-248,-120,-127,38,45
5390,5,-246,-124,-114,42,45
5395,2,-245,-118,-105,45,46
5400,3,-241,-123,-98,45,46
5405,1,-241,-120,-96,47,48
5410,3,-242,-117,-96,48,49
5415,5,-241,-120,-98,48,49
5420,7,-242,-123,-103,49,49
5425,3,-240,-119,-110,50,50
5430,6,-239,-123,-117,52,48
5435,5,-241,-122,-125,54,48
5440,4,-237,-126,-128,55,45
5445,4,-243,-125,-131,54,43
5450,14,-235,-115,-131,54,40
5455,-5,-243,-126,-133,51,37
5460,2,-228,-118,-130,49,34
5465,6,-233,-127,-130,48,30
5470,6,-235,-133,-130,45,27
5475,7,-231,-123,-130,42,25
5480,-2,-224,-131,-129,39,23
5485,9,-234,-108,-128,36,24
5490,-5,-238,-114,-126,35,25
5495,-4,-230,-125,-125,34,28
5500,-1,-237,-125,-123,33,32
5505,0,-237,-123,-122,33,35
5510,0,-239,-126,-120,33,39
5515,2,-241,-122,-117,33,43
5520,5,-243,-122,-114,31,43
5525,4,-241,-118,-110,27,47
5530,-1,-248,-125,-107,26,48
5535,1,-241,-121,-105,21,49
5540,-9,-252,-120,-102,18,49
5545,-4,-242,-134,-96,13,47
5550,6,-245,-113,-92,9,44
5555,4,-250,-117,-86,6,41
5560,7,-237,-126,-83,3,36
5565,-4,-239,-121,-80,0,31
5570,-7,-241,-130,-77,-3,26
5575,-1,-242,-126,-74,-7,22
5580,-4,-240,-120,-70,-10,17
5585,-4,-242,-127,-68,-16,14
5590,-6,-239,-127,-67,-20,10
5595,23,-242,-117,-69,-23,7
5600,-10,-247,-118,-67,-27,5
5605,-9,-260,-128,-69,-33,4
5610,-8,-252,-128,-68,-36,3
5615,4,-241,-120,-68,-37,0
5620,-4,-246,-125,-69,-39,1
5625,1,-234,-117,-70,-39,-1
5630,-5,-233,-121,-69,-39,-2
5635,5,-231,-111,-69,-37,-4
5640,9,-243,-118,-67,-32,-6
5645,-8,-252,-129,-64,-28,-9
5650,4,-246,-120,-59,-22,-10
5655,0,-243,-123,-57,-17,-9
5660,1,-246,-116,-56,-10,-9
5665,6,-245,-125,-52,-3,-7
5670,5,-244,-124,-52,2,-4
5675,16,-228,-139,-51,8,-2
5680,-1,-256,-110,-51,12,-1
5685,-2,-234,-139,-48,17,0
5690,8,-235,-143,-49,22,0
5695,11,-251,-118,-48,25,0
5700,8,-231,-123,-50,27,-2
5705,6,-248,-123,-50,29,-3
5710,14,-251,-108,-51,31,-4
5715,7,-239,-114,-53,33,-4
5720,10,-249,-132,-53,34,-4
5725,11,-242,-117,-52,39,-3
5730,5,-243,-122,-53,43,-1
5735,6,-242,-119,-53,44,0
5740,1,-243,-121,-52,43,1
5745,4,-242,-118,-52,40,2
5750,8,-236,-121,-51,38,1
5755,3,-245,-123,-52,37,2
5760,4,-249,-128,-50,35,2
5765,5,-234,-126,-52,32,4
5770,4,-233,-126,-55,30,5
5775,-2,-231,-121,-55,26,7
5780,2,-245,-131,-59,22,7
5785,-8,-237,-121,-64,21,8
5790,-6,-240,-125,-68,19,8
5795,4,-245,-122,-73,16,8
5800,-4,-237,-127,-79,14,7
5805,-5,-243,-123,-81,12,6
5810,-9,-243,-118,-86,10,3
5815,-6,-242,-126,-90,7,0
5820,-6,-242,-127,-93,6,-1
5825,-6,-223,-125,-98,6,-5
5830,-10,-228,-120,-101,6,-7
5835,-5,-229,-123,-103,7,-9
5840,-5,-231,-126,-104,8,-12
5845,-2,-244,-121,-103,10,-15
5850,0,-238,-127,-106,10,-16
5855,-3,-238,-121,-106,10,-17
5860,5,-238,-120,-107,10,-18
5865,9,-244,-122,-107,11,-19
5870,-3,-247,-123,-108,12,-20
5875,4,-235,-134,-109,13,-21
5880,1,-241,-120,-110,13,-20
5885,0,-240,-125,-113,12,-23
5890,1,-243,-124,-112,10,-25
5895,0,-242,-125,-114,8,-26
5900,4,-247,-119,-113,5,-28
5905,2,-255,-131,-112,5,-30
5910,9,-243,-125,-112,4,-32
5915,-3,-241,-125,-111,4,-34
5920,0,-247,-117,-107,4,-36
5925,-5,-252,-129,-105,2,-37
5930,3,-243,-127,-101,0,-37
5935,2,-242,-124,-97,1,-36
5940,4,-240,-130,-95,0,-36
5945,-2,-239,-124,-92,1,-36
5950,-3,-243,-131,-88,1,-35
5955,0,-241,-127,-85,0,-34
5960,-1,-240,-126,-82,0,-34
5965,1,-241,-128,-81,0,-31
5970,0,-239,-128,-79,-1,-31
5975,-7,-232,-140,-77,-1,-31
5980,-4,-242,-127,-75,-2,-29
5985,0,-239,-131,-74,0,-29
5990,1,-241,-129,-73,0,-28
5995,4,-240,-128,-71,0,-31
6000,0,-239,-126,-68,0,-30
6005,-1,-239,-125,-66,2,-31
6010,-1,-241,-125,-64,3,-31
6015,0,-242,-128,-64,5,-32
6020,-5,-239,-126,-64,5,-32
6025,-1,-243,-122,-63,7,-33
6030,-3,-240,-123,-62,7,-32
6035,1,-239,-126,-64,9,-33
6040,1,-240,-124,-61,9,-32
6045,2,-241,-131,-62,9,-33
6050,-1,-242,-125,-62,8,-33
6055,-2,-239,-122,-59,9,-32
6060,0,-240,-125,-60,8,-32
6065,0,-240,-128,-61,8,-32
6070,-1,-242,-126,-61,7,-32
6075,2,-241,-125,-60,6,-29
6080,2,-240,-128,-62,5,-30
6085,4,-238,-126,-64,6,-30
6090,2,-239,-123,-64,4,-29
6095,-6,-248,-120,-64,4,-28
6100,1,-240,-128,-67,3,-29
6105,0,-240,-124,-65,5,-29
6110,2,-239,-126,-64,6,-28
6115,6,-244,-125,-64,6,-27
6120,0,-239,-125,-61,6,-26
6125,3,-239,-127,-61,8,-24
6130,3,-241,-128,-61,10,-24
6135,3,-240,-126,-61,12,-23
6140,0,-242,-124,-61,13,-23
6145,5,-242,-126,-60,15,-20
6150,4,-243,-125,-58,17,-18
6155,6,-241,-126,-57,17,-19
6160,6,-242,-125,-56,20,-20
6165,4,-240,-123,-56,20,-19
6170,4,-241,-124,-58,19,-19
6175,4,-241,-126,-60,19,-19
6180,2,-241,-124,-62,21,-18
6185,3,-240,-125,-65,21,-20
6190,4,-239,-126,-69,21,-19
6195,4,-239,-126,-72,22,-18
6200,10,-238,-121,-75,22,-19
6205,3,-240,-122,-78,21,-20
6210,3,-239,-124,-82,23,-19
6215,3,-240,-127,-88,21,-20
6220,2,-234,-123,-92,23,-20
6225,0,-237,-124,-96,24,-18
6230,4,-236,-123,-102,25,-17
6235,5,-238,-123,-108,26,-16
6240,3,-237,-123,-114,28,-14
6245,5,-239,-127,-121,29,-13
6250,4,-237,-124,-126,31,-12
6255,6,-242,-119,-129,32,-11
6260,5,-243,-123,-131,32,-9
6265,4,-241,-126,-128,32,-6
6270,7,-242,-125,-124,32,-4
6275,2,-241,-128,-118,29,-2
6280,4,-244,-127,-110,28,-1
6285,4,-243,-131,-104,27,0
6290,5,-241,-129,-95,26,1
6295,5,-241,-126,-91,25,3
6300,4,-240,-126,-87,23,1
6305,5,-241,-127,-87,22,-2
6310,1,-240,-129,-86,22,-2
6315,2,-237,-130,-88,22,-3
6320,3,-241,-126,-88,21,-4
6325,0,-239,-129,-88,23,-6
6330,2,-241,-130,-90,23,-6
6335,2,-243,-129,-91,23,-7
6340,3,-240,-126,-90,24,-6
6345,3,-236,-125,-91,24,-6
6350,0,-241,-128,-89,25,-4
6355,2,-242,-124,-90,25,-3
6360,2,-239,-126,-91,23,-3
6365,4,-241,-125,-92,23,-1
6370,2,-241,-126,-95,20,-1
6375,2,-239,-128,-100,18,1
6380,2,-236,-131,-104,14,2
6385,2,-240,-126,-107,13,3
6390,0,-241,-129,-112,11,2
6395,2,-239,-130,-113,10,1
6400,1,-242,-131,-114,7,2
6405,2,-241,-133,-115,7,0
6410,0,-240,-129,-115,7,0
6415,2,-242,-130,-112,4,1
6420,4,-242,-133,-111,2,1
6425,1,-235,-129,-109,1,1
6430,0,-238,-130,-109,2,1
6435,-1,-237,-132,-106,1,3
6440,1,-237,-132,-102,0,3
6445,1,-236,-130,-101,-2,3
6450,3,-239,-131,-99,0,4
6455,4,-239,-131,-98,-1,5
6460,3,-239,-128,-97,-1,6
6465,2,-237,-130,-96,0,5
6470,0,-240,-131,-96,1,5
6475,5,-236,-131,-95,2,6
6480,2,-237,-126,-94,2,6
6485,1,-238,-127,-93,1,4
6490,3,-239,-132,-95,0,2
6495,2,-238,-131,-95,0,1
6500,5,-239,-127,-96,-1,1
6505,2,-238,-133,-99,0,1
6510,1,-239,-131,-101,-1,0
6515,1,-239,-132,-101,0,0
6520,2,-237,-130,-101,0,-1
6525,4,-239,-131,-100,0,-2
6530,1,-242,-135,-98,1,-2
6535,1,-232,-135,-92,2,-3
6540,2,-239,-136,-86,3,-3
6545,3,-235,-136,-78,5,-3
6550,1,-236,-134,-75,5,-4
6555,3,-238,-135,-70,7,-4
6560,3,-235,-134,-65,7,-2
6565,0,-238,-135,-63,8,-3
6570,1,-233,-138,-61,8,-3
6575,3,-235,-132,-59,9,-2
6580,0,-235,-137,-54,9,-3
6585,4,-238,-133,-52,11,-4
6590,0,-235,-134,-47,13,-4
6595,4,-236,-135,-46,14,-7
6600,3,-235,-136,-43,16,-5
6605,1,-235,-132,-42,17,-5
6610,0,-236,-133,-41,18,-5
6615,1,-234,-137,-40,18,-5
6620,0,-235,-132,-39,20,-3
6625,2,-238,-132,-38,20,-4
6630,0,-238,-128,-37,21,-4
6635,-1,-236,-132,-34,22,-3
6640,4,-236,-134,-34,22,-2
6645,1,-235,-131,-35,23,-4
6650,1,-235,-129,-35,24,-5
6655,0,-236,-136,-36,22,-5
6660,0,-236,-137,-34,23,-7
6665,0,-234,-132,-37,23,-6
6670,2,-236,-133,-39,21,-7
6675,0,-232,-134,-41,22,-7
6680,3,-236,-133,-43,22,-5
6685,0,-236,-131,-43,21,-6
6690,0,-238,-133,-41,20,-6
6695,4,-239,-135,-40,19,-4
6700,-3,-239,-135,-40,19,-5
6705,0,-238,-130,-40,18,-4
6710,2,-238,-130,-38,20,-3
6715,2,-239,-131,-37,18,-3
6720,3,-241,-129,-36,19,-3
6725,2,-239,-130,-35,18,-3
6730,-2,-238,-129,-33,19,-2
6735,-1,-239,-130,-33,20,-2
6740,2,-240,-130,-33,19,-4
6745,1,-239,-127,-36,22,-2
6750,5,-239,-135,-34,23,-1
6755,2,-239,-126,-35,23,-1
6760,1,-237,-130,-35,23,-1
6765,4,-240,-132,-35,24,0
6770,2,-236,-126,-33,25,0
6775,2,-240,-129,-34,25,0
6780,4,-238,-132,-34,25,0
6785,3,-238,-130,-33,25,-1
6790,3,-239,-130,-34,23,-2
6795,4,-238,-127,-35,24,-2
6800,1,-239,-128,-36,25,-3
6805,4,-241,-129,-36,25,-3
6810,2,-237,-130,-36,24,-3
6815,0,-237,-131,-36,24,-4
6820,-1,-239,-130,-35,23,-3
6825,3,-239,-131,-35,22,-4
6830,0,-239,-132,-33,20,-2
6835,4,-239,-127,-34,21,-3
6840,3,-240,-131,-32,19,-3
6845,3,-241,-129,-30,20,-3
6850,4,-239,-130,-28,18,-3
6855,2,-238,-128,-28,18,-4
6860,-2,-238,-134,-29,18,-3
6865,-1,-240,-133,-30,18,-3
6870,0,-240,-126,-29,19,-2
6875,1,-238,-128,-30,19,-2
6880,1,-239,-130,-32,19,-4
6885,0,-239,-131,-33,18,-2
6890,-1,-237,-126,-34,19,-2
6895,-1,-237,-127,-37,19,-1
6900,1,-238,-132,-39,20,-1
6905,1,-236,-130,-41,21,-1
6910,3,-238,-132,-40,23,-2
6915,2,-237,-128,-41,21,-2
6920,0,-240,-133,-41,24,-3
6925,4,-242,-130,-40,25,-5
6930,4,-237,-135,-39,25,-4
6935,-1,-236,-129,-36,26,-4
6940,1,-240,-131,-33,26,-3
6945,3,-236,-134,-32,27,-5
6950,2,-238,-135,-28,27,-4
6955,1,-237,-132,-29,27,-4
6960,1,-239,-131,-28,27,-3
6965,2,-237,-131,-28,26,-2
6970,4,-243,-128,-26,24,-2
6975,3,-235,-133,-28,24,0
6980,1,-238,-130,-28,22,1
6985,-1,-238,-134,-28,20,1
6990,0,-237,-127,-30,19,-1
6995,0,-241,-130,-32,19,-2
7000,1,-237,-133,-33,18,-3
7005,3,-236,-130,-35,19,-5
7010,0,-238,-135,-34,18,-5
7015,1,-238,-130,-35,18,-7
7020,3,-240,-132,-36,18,-6
7025,-2,-237,-133,-35,18,-7
7030,-1,-238,-129,-35,19,-9
7035,3,-240,-129,-33,18,-8
7040,2,-241,-130,-33,18,-9
7045,1,-236,-133,-30,19,-8
7050,2,-237,-129,-30,20,-9
7055,-1,-237,-128,-26,18,-11
7060,1,-241,-124,-26,17,-10
7065,3,-236,-129,-24,18,-11
7070,0,-239,-127,-26,18,-11
7075,4,-243,-123,-24,17,-11
7080,0,-241,-130,-26,16,-11
7085,3,-238,-131,-29,16,-11
7090,1,-237,-127,-29,14,-12
7095,1,-238,-126,-30,14,-12
7100,4,-238,-128,-31,13,-14
7105,0,-239,-127,-30,14,-14
7110,-1,-238,-128,-28,13,-12
7115,2,-237,-127,-28,14,-12
7120,-2,-236,-128,-28,14,-13
7125,5,-236,-125,-26,15,-13
7130,0,-235,-131,-26,14,-12
7135,0,-235,-132,-28,12,-13
7140,1,-238,-132,-28,14,-13
7145,3,-237,-134,-28,15,-12
7150,2,-239,-129,-29,15,-13
7155,1,-238,-130,-30,16,-13
7160,-1,-237,-129,-30,16,-13
7165,1,-239,-131,-28,16,-14
7170,0,-235,-133,-27,18,-13
7175,2,-239,-131,-24,17,-15
7180,2,-239,-129,-23,17,-16
7185,4,-240,-126,-22,17,-16
7190,2,-237,-130,-20,17,-16
7195,-2,-236,-128,-19,16,-17
7200,0,-237,-130,-19,18,-19
7205,1,-239,-128,-20,19,-20
7210,2,-238,-126,-22,18,-20
7215,3,-241,-128,-23,19,-22
7220,-1,-238,-129,-24,20,-22
7225,2,-238,-126,-26,22,-22
7230,4,-239,-131,-28,23,-22
7235,1,-238,-129,-28,24,-22
7240,0,-240,-129,-29,24,-22
7245,1,-239,-129,-30,25,-20
7250,3,-237,-128,-30,24,-20
7255,3,-238,-129,-29,24,-20
7260,3,-243,-129,-30,24,-20
7265,2,-237,-130,-30,22,-18
7270,3,-240,-127,-31,23,-18
7275,1,-237,-131,-33,22,-20
7280,1,-237,-129,-35,19,-20
7285,3,-238,-126,-37,19,-19
7290,3,-239,-129,-36,17,-19
7295,3,-245,-134,-38,19,-19
7300,-1,-237,-130,-38,18,-20
7305,2,-239,-127,-39,17,-19
7310,4,-243,-128,-37,16,-18
7315,4,-240,-125,-38,17,-19
7320,4,-239,-126,-37,16,-17
7325,4,-240,-128,-37,18,-17
7330,3,-238,-125,-34,18,-16
7335,4,-242,-127,-34,18,-15
7340,2,-238,-128,-34,18,-13
7345,5,-239,-128,-32,18,-15
7350,4,-239,-127,-34,19,-13
7355,1,-238,-130,-33,18,-14
7360,4,-240,-126,-34,18,-11
7365,3,-238,-129,-36,18,-12
7370,3,-239,-128,-34,18,-12
7375,2,-239,-129,-32,18,-11
7380,4,-241,-126,-33,18,-10
7385,2,-241,-129,-33,17,-11
7390,3,-238,-126,-33,16,-11
7395,2,-242,-129,-33,18,-13
7400,4,-242,-127,-34,18,-15
7405,2,-239,-130,-33,17,-15
7410,3,-238,-127,-34,18,-15
7415,4,-241,-127,-33,19,-14
7420,0,-238,-125,-32,19,-14
7425,6,-240,-131,-33,17,-14
7430,3,-239,-129,-33,17,-14
7435,2,-238,-127,-33,17,-14
7440,2,-240,-127,-31,17,-13
7445,1,-238,-128,-34,17,-13
7450,4,-239,-126,-35,17,-11
7455,3,-241,-128,-35,18,-14
7460,2,-236,-126,-36,18,-13
7465,5,-238,-125,-36,19,-12
7470,0,-239,-127,-36,21,-12
7475,1,-240,-128,-38,22,-12
7480,3,-241,-125,-39,22,-12
7485,2,-238,-126,-39,21,-13
7490,2,-239,-127,-39,23,-11
7495,5,-239,-127,-39,24,-10
7500,3,-241,-127,-39,23,-10
7505,5,-241,-127,-39,24,-11
7510,4,-237,-128,-40,24,-10
7515,1,-233,-127,-41,23,-9
7520,7,-239,-129,-41,24,-10
7525,1,-239,-130,-42,24,-10
7530,5,-242,-127,-42,23,-9
7535,2,-242,-130,-43,23,-9
7540,3,-241,-127,-42,23,-9
7545,2,-240,-126,-42,23,-8
7550,1,-239,-129,-41,24,-10
7555,3,-243,-128,-41,23,-8
7560,5,-242,-127,-41,22,-8
7565,4,-238,-125,-39,23,-9
7570,4,-240,-127,-39,23,-8
7575,3,-238,-125,-38,23,-7
7580,3,-242,-129,-38,23,-7
7585,4,-239,-128,-38,21,-7
7590,2,-242,-129,-38,20,-7
7595,3,-239,-129,-40,20,-9
7600,5,-239,-127,-41,19,-9
7605,3,-241,-130,-42,19,-8
7610,2,-238,-127,-44,19,-9
7615,-1,-236,-131,-42,17,-10
7620,3,-241,-125,-43,18,-10
7625,3,-241,-127,-45,18,-12
7630,1,-238,-128,-45,18,-12
7635,1,-239,-127,-45,19,-14
7640,5,-242,-127,-43,20,-12
7645,2,-238,-122,-42,19,-11
7650,3,-240,-128,-40,20,-12
7655,1,-239,-126,-40,20,-12
7660,4,-238,-126,-38,21,-12
7665,1,-237,-127,-36,21,-9
7670,4,-239,-126,-35,22,-9
7675,4,-239,-126,-33,21,-10
7680,0,-236,-125,-34,22,-9
7685,2,-239,-123,-32,22,-9
7690,3,-238,-127,-33,20,-8
7695,2,-240,-127,-32,19,-11
7700,2,-239,-130,-34,20,-10
7705,0,-239,-128,-36,20,-10
7710,3,-239,-128,-36,20,-12
7715,2,-241,-126,-35,19,-11
7720,1,-235,-127,-36,19,-11
7725,1,-236,-131,-36,21,-11
7730,2,-239,-123,-38,21,-10
7735,0,-237,-124,-38,19,-9
7740,1,-240,-131,-37,20,-10
7745,4,-238,-127,-38,20,-8
7750,3,-238,-128,-40,20,-8
7755,4,-239,-128,-40,20,-9
7760,2,-241,-130,-39,17,-6
7765,-1,-238,-127,-37,18,-7
7770,1,-237,-129,-37,18,-7
7775,2,-237,-131,-36,17,-6
7780,3,-240,-127,-33,18,-5
7785,4,-240,-130,-31,20,-5
7790,1,-237,-127,-31,20,-2
7795,6,-241,-126,-31,23,0
7800,5,-239,-124,-32,26,1
7805,3,-238,-123,-32,25,2
7810,5,-242,-130,-33,24,3
7815,4,-240,-129,-34,23,4
7820,7,-240,-127,-33,23,6
7825,4,-242,-126,-35,23,5
7830,3,-240,-126,-36,22,5
7835,5,-239,-125,-37,23,5
7840,4,-239,-127,-35,24,7
7845,5,-241,-123,-34,26,9
7850,9,-242,-128,-33,27,11
7855,5,-243,-126,-34,26,13
7860,6,-242,-132,-35,26,10
7865,4,-242,-130,-40,24,7
7870,3,-240,-128,-47,20,3
7875,5,-245,-130,-57,17,-2
7880,4,-244,-129,-66,13,-8
7885,2,-240,-128,-77,7,-13
7890,-2,-238,-128,-83,2,-18
7895,0,-238,-126,-89,-1,-20
7900,-2,-238,-126,-92,-2,-16
7905,-1,-235,-127,-91,-4,-11
7910,1,-239,-125,-90,-3,-2
7915,-1,-239,-126,-91,-5,6
7920,-1,-238,-124,-92,-6,15
7925,0,-237,-127,-97,-7,23
7930,2,-240,-128,-104,-9,30
7935,1,-238,-129,-116,-14,35
7940,2,-238,-129,-130,-19,39
7945,2,-239,-129,-148,-29,42
7950,-4,-244,-129,-163,-37,44
7955,4,-235,-130,-180,-44,42
7960,1,-235,-132,-199,-48,43
7965,-3,-235,-127,-223,-50,47
7970,0,-239,-128,-258,-44,55
7975,4,-240,-129,-297,-30,65
7980,9,-240,-124,-330,-15,73
7985,8,-242,-127,-346,-4,76
7990,8,-241,-125,-351,-1,67
7995,5,-235,-125,-341,3,48
8000,6,-236,-126,-325,9,25
8005,2,-236,-130,-314,13,2
8010,2,-233,-125,-305,14,-16
8015,3,-234,-134,-302,15,-24
8020,4,-231,-132,-302,16,-26
8025,5,-234,-133,-303,19,-24
8030,6,-231,-134,-306,23,-20
8035,2,-229,-132,-315,24,-18
8040,-1,-231,-133,-327,23,-19
8045,-1,-234,-132,-343,20,-20
8050,-3,-233,-134,-359,16,-18
8055,-5,-233,-124,-371,9,-16
8060,-1,-234,-130,-381,2,-10
8065,-1,-232,-133,-383,-4,-6
8070,-2,-237,-134,-383,-8,-4
8075,-2,-233,-132,-384,-12,-1
8080,-2,-235,-129,-384,-14,-1
8085,-4,-231,-135,-391,-16,-4
8090,-2,-232,-134,-398,-18,-6
8095,1,-231,-129,-404,-17,-4
8100,1,-233,-134,-411,-15,-3
8105,1,-229,-130,-414,-14,0
8110,2,-228,-138,-411,-12,4
8115,4,-230,-140,-407,-9,8
8120,3,-227,-136,-403,-10,11
8125,1,-227,-139,-403,-8,14
8130,0,-225,-140,-406,-7,16
8135,3,-225,-139,-414,-7,20
8140,3,-223,-143,-422,-5,22
8145,5,-225,-143,-433,-5,24
8150,3,-223,-141,-445,-5,28
8155,5,-222,-143,-462,-4,29
8160,3,-221,-146,-482,-3,33
8165,1,-220,-143,-505,-4,35
8170,-1,-218,-147,-528,-8,38
8175,0,-218,-149,-552,-10,42
8180,-1,-217,-146,-580,-14,46
8185,0,-216,-148,-606,-18,47
8190,-4,-220,-147,-629,-23,48
8195,0,-223,-147,-649,-27,49
8200,-2,-216,-147,-667,-29,50
8205,-1,-219,-149,-684,-32,56
8210,0,-219,-153,-704,-34,61
8215,-1,-218,-149,-728,-39,64
8220,0,-219,-155,-753,-44,69
8225,0,-215,-152,-778,-50,76
8230,-3,-213,-156,-808,-53,83
8235,0,-214,-156,-837,-58,88
8240,0,-214,-156,-872,-60,102
8245,-3,-209,-162,-903,-65,87
8250,-4,-211,-164,-928,-68,79
8255,-1,-210,-164,-943,-64,82
8260,3,-209,-162,-960,-62,84
8265,4,-211,-167,-973,-58,87
8270,4,-211,-165,-989,-56,90
8275,0,-208,-163,-1002,-55,93
8280,3,-204,-165,-1017,-54,86
8285,3,-211,-165,-1026,-54,88
8290,1,-212,-168,-1025,-51,89
8295,-2,-215,-166,-1020,-51,86
8300,0,-219,-162,-1015,-51,85
8305,-1,-218,-166,-1010,-49,82
8310,-6,-218,-164,-1008,-53,83
8315,-4,-219,-165,-1011,-56,90
8320,-3,-221,-164,-1013,-61,96
8325,-2,-215,-164,-1025,-65,116
8330,0,-220,-171,-1033,-71,115
8335,-11,-219,-174,-1041,-75,109
8340,-9,-219,-174,-1025,-74,126
8345,-10,-218,-175,-1008,-73,138
8350,-10,-219,-176,-997,-76,150
8355,-12,-218,-178,-990,-82,157
8360,-10,-218,-183,-988,-89,166
8365,-14,-215,-185,-984,-94,173
8370,-10,-214,-184,-974,-95,181
8375,-11,-213,-187,-964,-95,186
8380,-9,-211,-185,-950,-92,191
8385,-10,-203,-185,-938,-86,190
8390,-9,-210,-190,-925,-79,185
8395,-8,-204,-187,-915,-70,172
8400,-11,-201,-193,-910,-60,159
8405,-12,-198,-195,-903,-50,146
8410,-14,-196,-196,-894,-41,135
8415,-14,-191,-198,-883,-36,129
8420,-9,-191,-203,-874,-33,123
8425,-11,-184,-206,-876,-34,118
8430,-14,-182,-208,-889,-39,116
8435,-15,-175,-213,-917,-46,113
8440,-14,-171,-218,-961,-54,110
8445,-16,-171,-219,-1017,-61,106
8450,-15,-174,-217,-1079,-71,99
8455,-20,-170,-217,-1142,-80,91
8460,-20,-177,-226,-1203,-88,86
8465,-16,-183,-228,-1249,-96,79
8470,-16,-186,-226,-1280,-104,70
8475,-10,-195,-231,-1294,-108,61
8480,-10,-197,-230,-1294,-114,53
8485,-5,-202,-235,-1282,-110,46
8490,-4,-214,-233,-1258,-104,39
8495,1,-223,-235,-1220,-92,31
8500,-1,-227,-238,-1176,-70,22
8505,-1,-232,-240,-1124,-45,12
8510,-2,-233,-250,-1065,-26,8
8515,-1,-235,-248,-999,-10,6
8520,-6,-236,-252,-924,3,5
8525,-11,-238,-255,-844,14,10
8530,-16,-236,-255,-762,26,14
8535,-19,-242,-264,-684,29,24
8540,-22,-239,-258,-610,31,32
8545,-21,-233,-257,-541,26,39
8550,-28,-228,-257,-482,22,47
8555,-26,-223,-260,-426,15,52
8560,-26,-218,-251,-382,13,57
8565,-25,-212,-253,-350,14,67
8570,-25,-206,-249,-329,18,76
8575,-24,-198,-247,-318,25,84
8580,-23,-193,-242,-323,30,89
8585,-22,-189,-243,-337,40,91
8590,-17,-189,-241,-357,44,96
8595,-18,-186,-242,-374,51,96
8600,-21,-181,-241,-382,55,94
8605,-22,-177,-240,-384,58,91
8610,-17,-176,-247,-372,64,88
8615,-17,-173,-244,-346,71,81
8620,-20,-168,-247,-307,78,74
8625,-16,-163,-249,-261,83,68
8630,-19,-162,-247,-215,86,61
8635,-20,-157,-246,-171,86,55
8640,-22,-158,-245,-127,83,51
8645,-20,-155,-243,-91,79,47
8650,-18,-156,-240,-64,75,42
8655,-18,-157,-240,-41,73,36
8660,-18,-161,-241,-17,70,30
8665,-16,-159,-239,6,65,25
8670,-17,-158,-238,26,64,25
8675,-17,-160,-237,47,59,28
8680,-18,-160,-238,65,58,30
8685,-16,-160,-235,82,56,32
8690,-16,-158,-240,92,57,30
8695,-18,-161,-241,102,64,28
8700,-16,-162,-240,106,74,25
8705,-22,-161,-237,107,85,25
8710,-21,-169,-235,110,95,28
8715,-17,-165,-237,115,102,24
8720,-16,-165,-240,123,110,17
8725,-16,-165,-233,129,112,10
8730,-19,-165,-238,142,117,3
8735,-16,-167,-237,159,118,-1
8740,-16,-169,-233,178,119,-3
8745,-16,-163,-233,204,114,-1
8750,-14,-164,-240,229,109,-6
8755,-15,-162,-235,248,107,-15
8760,-12,-160,-234,264,104,-22
8765,-12,-158,-235,276,99,-31
8770,-13,-157,-234,286,91,-40
8775,-14,-161,-232,295,88,-48
8780,-14,-157,-240,298,86,-56
8785,-14,-157,-236,300,87,-68
8790,-13,-160,-234,305,87,-80
8795,-15,-159,-236,310,87,-89
8800,-14,-163,-235,315,88,-95
8805,-16,-161,-235,321,86,-97
8810,-16,-160,-232,328,84,-97
8815,-11,-164,-235,336,79,-93
8820,-15,-163,-231,341,76,-91
8825,-16,-164,-231,347,75,-89
8830,-16,-167,-227,355,72,-89
8835,-14,-166,-226,360,70,-87
8840,-16,-166,-227,362,64,-87
8845,-15,-172,-228,363,59,-87
8850,-13,-169,-230,370,58,-88
8855,-11,-175,-228,383,63,-86
8860,-8,-177,-227,397,65,-83
8865,-14,-178,-224,412,66,-83
8870,-11,-177,-222,429,65,-80
8875,-11,-176,-221,448,64,-76
8880,-13,-179,-222,467,63,-76
8885,-11,-181,-221,490,62,-74
8890,-11,-179,-221,508,58,-74
8895,-11,-179,-220,520,53,-75
8900,-9,-179,-220,522,50,-80
8905,-13,-176,-225,519,47,-81
8910,-14,-177,-223,516,46,-85
8915,-14,-176,-218,510,45,-85
8920,-13,-180,-218,506,45,-87
8925,-12,-178,-215,504,46,-91
8930,-12,-179,-218,503,43,-100
8935,-15,-178,-215,499,39,-114
8940,-13,-180,-214,495,38,-123
8945,-12,-184,-216,494,34,-131
8950,-13,-184,-218,493,29,-139
8955,-14,-184,-215,491,22,-148
8960,-15,-185,-217,488,15,-154
8965,-13,-187,-214,486,10,-159
8970,-14,-186,-214,481,8,-162
8975,-13,-189,-211,480,9,-163
8980,-11,-191,-211,477,12,-165
8985,-12,-190,-210,475,13,-168
8990,-14,-190,-212,474,13,-169
8995,-15,-187,-210,474,13,-168
9000,-13,-189,-208,475,14,-165
9005,-13,-190,-204,474,12,-164
9010,-8,-190,-202,474,10,-160
9015,-9,-189,-200,473,5,-154
9020,-10,-189,-202,471,-2,-150
9025,-11,-191,-202,470,-8,-142
9030,-10,-187,-200,463,-14,-142
9035,-12,-186,-204,458,-17,-137
9040,-10,-190,-199,452,-18,-132
9045,-9,-190,-198,447,-18,-127
9050,-7,-190,-195,447,-23,-124
9055,-8,-192,-195,451,-26,-123
9060,-7,-190,-193,456,-28,-122
9065,-5,-193,-193,461,-28,-121
9070,-9,-191,-190,469,-28,-124
9075,-6,-191,-191,476,-27,-121
9080,-7,-190,-186,488,-27,-119
9085,-7,-189,-189,498,-30,-118
9090,-7,-191,-186,504,-31,-115
9095,-10,-189,-182,505,-29,-111
9100,-10,-189,-184,505,-28,-106
9105,-9,-189,-188,508,-30,-100
9110,-9,-185,-180,507,-28,-96
9115,-8,-189,-180,504,-27,-93
9120,-8,-192,-179,503,-26,-90
9125,-10,-191,-177,502,-22,-87
9130,-8,-189,-177,501,-19,-83
9135,-7,-192,-176,502,-19,-80
9140,-8,-193,-171,504,-23,-75
9145,-8,-191,-172,506,-29,-71
9150,-12,-196,-170,508,-36,-69
9155,-13,-193,-168,512,-41,-68
9160,-11,-195,-170,517,-46,-65
9165,-13,-193,-167,524,-47,-64
9170,-13,-195,-167,530,-46,-62
9175,-15,-194,-167,541,-45,-63
9180,-13,-189,-164,548,-44,-59
9185,-9,-192,-165,552,-42,-56
9190,-12,-193,-166,558,-39,-57
9195,-10,-196,-163,561,-33,-57
9200,-15,-196,-168,562,-33,-58
9205,-10,-192,-161,564,-35,-55
9210,-9,-196,-161,563,-40,-56
9215,-10,-193,-164,564,-43,-55
9220,-7,-194,-162,565,-41,-51
9225,-5,-195,-162,567,-38,-45
9230,-6,-196,-162,566,-31,-41
9235,-6,-193,-158,568,-26,-39
9240,-5,-192,-158,581,-30,-33
9245,-4,-195,-152,596,-35,-22
9250,-7,-192,-154,605,-44,-11
9255,-4,-193,-149,614,-51,-4
9260,-6,-194,-156,621,-56,-2
9265,-6,-193,-151,626,-54,-2
9270,-6,-196,-151,627,-46,0
9275,-8,-193,-151,626,-41,2
9280,-5,-195,-151,628,-35,6
9285,0,-194,-149,632,-30,6
9290,-5,-194,-150,635,-26,3
9295,-8,-191,-148,639,-25,1
9300,-8,-192,-150,640,-27,2
9305,-5,-192,-153,636,-32,5
9310,-8,-192,-148,624,-38,11
9315,-10,-190,-150,614,-45,17
9320,-8,-191,-146,604,-50,19
9325,-9,-189,-149,597,-57,23
9330,-8,-189,-149,591,-63,25
9335,-10,-186,-149,584,-63,27
9340,-8,-186,-149,581,-61,27
9345,-5,-187,-150,580,-52,26
9350,-10,-187,-148,571,-39,21
9355,-10,-187,-151,567,-26,14
9360,-10,-188,-149,565,-12,11
9365,-9,-188,-149,565,2,5
9370,-10,-188,-153,557,15,-1
9375,-10,-184,-152,542,25,-3
9380,-8,-189,-153,523,30,-4
9385,-7,-187,-152,507,34,-6
9390,-9,-189,-148,490,36,-9
9395,-4,-189,-153,472,35,-9
9400,-6,-193,-150,455,34,-5
9405,-4,-190,-155,435,31,0
9410,-3,-188,-153,419,31,8
9415,3,-192,-154,403,30,13
9420,2,-194,-155,383,33,12
9425,6,-198,-153,368,39,6
9430,6,-200,-155,359,46,2
9435,2,-198,-158,356,56,-2
9440,5,-202,-158,352,64,-2
9445,6,-205,-158,344,73,-5
9450,5,-199,-152,341,77,-11
9455,2,-202,-156,344,80,-8
9460,6,-205,-159,348,84,-5
9465,8,-206,-157,351,85,-2
9470,4,-206,-158,357,85,3
9475,13,-209,-151,366,87,6
9480,12,-207,-157,378,89,7
9485,10,-201,-162,383,94,7
9490,12,-200,-161,376,96,10
9495,17,-199,-158,355,96,9
9500,18,-195,-153,320,92,1
9505,17,-193,-152,278,85,-6
9510,13,-194,-149,233,81,-12
9515,15,-196,-145,194,72,-16
9520,14,-200,-146,164,62,-20
9525,14,-204,-139,145,56,-19
9530,19,-209,-145,132,51,-22
9535,18,-209,-146,126,50,-28
9540,22,-215,-143,120,48,-33
9545,17,-217,-144,113,53,-42
9550,15,-224,-144,97,58,-55
9555,16,-227,-143,74,61,-64
9560,16,-227,-142,50,61,-75
9565,15,-233,-137,24,64,-89
9570,14,-240,-137,-2,70,-104
9575,17,-243,-136,-20,77,-118
9580,15,-250,-134,-34,85,-132
9585,15,-252,-131,-37,95,-142
9590,22,-255,-126,-30,104,-151
9595,20,-257,-119,-15,112,-156
9600,19,-260,-118,11,117,-159
9605,21,-263,-114,46,120,-162
9610,23,-265,-113,87,119,-160
9615,27,-266,-114,126,114,-158
9620,27,-267,-113,163,107,-154
9625,28,-268,-113,198,104,-149
9630,29,-267,-113,226,105,-142
9635,29,-266,-115,249,107,-127
9640,31,-263,-113,264,110,-114
9645,32,-259,-119,274,112,-101
9650,35,-257,-121,277,121,-94
9655,32,-257,-121,279,135,-92
9660,33,-251,-123,276,150,-86
9665,33,-246,-117,269,162,-80
9670,37,-243,-118,276,164,-68
9675,36,-240,-118,285,166,-56
9680,38,-236,-115,292,162,-43
9685,33,-231,-118,295,154,-32
9690,29,-236,-125,290,141,-22
9695,30,-227,-116,283,125,-11
9700,23,-227,-118,269,103,6
9705,21,-225,-119,250,83,19
9710,21,-229,-120,227,67,31
9715,17,-227,-124,204,50,39
9720,16,-229,-121,183,39,48
9725,14,-228,-124,160,40,53
9730,14,-232,-121,137,49,54
9735,12,-232,-123,114,63,57
9740,12,-235,-121,94,83,57
9745,9,-238,-123,79,98,56
9750,7,-238,-126,68,112,58
9755,9,-243,-123,68,123,59
9760,7,-247,-125,75,134,61
9765,8,-245,-126,88,143,63
9770,7,-245,-125,107,148,66
9775,6,-246,-123,129,152,70
9780,5,-243,-118,150,153,73
9785,6,-244,-121,170,152,73
9790,1,-238,-123,185,149,70
9795,-5,-237,-126,203,141,65
9800,-3,-238,-121,225,130,72
9805,-8,-234,-123,241,118,78
9810,-7,-232,-125,252,103,87
9815,-7,-231,-123,258,88,90
9820,-10,-225,-126,260,75,94
9825,-10,-230,-125,259,65,99
9830,-13,-228,-124,256,55,103
9835,-12,-230,-125,248,47,105
9840,-11,-227,-130,239,43,106
9845,-11,-228,-125,227,37,107
9850,-11,-229,-126,216,34,100
9855,-11,-231,-130,207,29,95
9860,-9,-233,-127,198,25,87
9865,-8,-235,-126,185,23,79
9870,-7,-238,-123,173,22,74
9875,-3,-241,-126,166,24,66
9880,-3,-244,-119,163,26,58
9885,-2,-248,-121,161,27,50
9890,0,-247,-124,162,29,42
9895,-2,-247,-118,163,32,37
9900,-5,-250,-113,167,31,31
9905,-2,-250,-116,171,31,25
9910,0,-252,-113,177,30,20
9915,-1,-251,-114,185,30,16
9920,-3,-251,-116,195,31,14
9925,-5,-252,-112,204,29,14
9930,-5,-249,-114,212,26,14
9935,-7,-252,-112,218,21,14
9940,-13,-251,-108,223,15,14
9945,-11,-249,-113,227,10,13
9950,-11,-248,-111,230,3,14
9955,-13,-248,-111,231,-5,15
9960,-13,-245,-112,230,-12,15
9965,-9,-249,-109,225,-18,14
9970,-11,-243,-112,215,-23,11
9975,-14,-244,-112,202,-26,7
9980,-11,-242,-115,186,-31,3
9985,-11,-240,-114,169,-33,0
9990,-10,-239,-112,150,-35,-3
9995,-5,-242,-112,132,-35,-8
10000,-6,-234,-113,112,-33,-10
10005,-4,-238,-112,94,-29,-13
10010,-4,-236,-113,74,-30,-14
10015,-8,-235,-109,54,-28,-15
10020,-3,-234,-107,35,-27,-15
10025,-4,-233,-111,16,-26,-11
10030,0,-235,-106,0,-27,-8
10035,-2,-232,-105,-20,-29,-4
10040,-3,-232,-105,-39,-30,0
10045,-2,-232,-105,-58,-30,2
10050,-2,-233,-106,-78,-32,6
10055,-1,-230,-111,-100,-31,8
10060,-3,-235,-112,-127,-29,9
10065,-3,-231,-108,-150,-26,10
10070,-4,-235,-108,-176,-21,11
10075,-2,-235,-112,-201,-15,10
10080,-5,-241,-108,-224,-11,9
10085,-6,-242,-112,-245,-5,10
10090,-7,-244,-113,-258,-2,9
10095,-9,-249,-111,-264,2,8
10100,-7,-248,-111,-269,3,7
10105,-10,-250,-112,-264,2,8
10110,-12,-251,-113,-259,0,7
10115,-10,-252,-108,-251,-2,9
10120,-10,-251,-111,-241,-6,11
10125,-3,-252,-108,-228,-13,10
10130,-8,-256,-112,-215,-18,10
10135,-6,-255,-113,-200,-24,11
10140,-8,-254,-108,-185,-29,11
10145,-6,-254,-109,-170,-34,12
10150,-7,-253,-109,-157,-38,12
10155,-5,-254,-109,-144,-43,14
10160,-7,-248,-112,-133,-47,17
10165,-7,-252,-107,-122,-49,18
10170,-7,-245,-109,-113,-50,18
10175,-6,-248,-112,-110,-49,20
10180,-10,-247,-109,-104,-49,21
10185,-8,-244,-109,-102,-53,23
10190,-6,-245,-112,-99,-53,24
10195,-8,-243,-109,-97,-54,25
10200,-10,-244,-113,-97,-56,26
10205,-7,-241,-113,-99,-60,25
10210,-9,-242,-113,-99,-60,24
10215,-10,-242,-109,-102,-62,22
10220,-7,-243,-108,-106,-63,21
10225,-9,-242,-108,-113,-64,18
10230,-9,-245,-103,-121,-68,16
10235,-10,-241,-112,-131,-70,16
10240,-9,-243,-109,-139,-74,14
10245,-8,-244,-111,-146,-77,13
10250,-10,-247,-109,-154,-83,11
10255,-8,-245,-108,-158,-86,8
10260,-9,-247,-109,-159,-87,5
10265,-11,-249,-112,-163,-89,5
10270,-10,-250,-109,-165,-89,3
10275,-10,-251,-111,-165,-91,3
10280,-10,-249,-113,-164,-92,5
10285,-8,-252,-109,-163,-93,4
10290,-9,-252,-113,-163,-93,5
10295,-8,-254,-111,-159,-93,6
10300,-10,-253,-115,-152,-92,7
10305,-11,-252,-109,-144,-93,8
10310,-8,-253,-110,-138,-90,7
10315,-10,-250,-109,-132,-87,5
10320,-7,-251,-111,-125,-86,6
10325,-10,-247,-113,-123,-82,4
10330,-10,-247,-111,-123,-78,5
10335,-7,-251,-113,-122,-75,5
10340,-3,-249,-109,-123,-73,4
10345,-8,-248,-113,-125,-71,5
10350,-5,-246,-112,-130,-70,6
10355,-3,-247,-113,-130,-69,7
10360,-5,-249,-112,-130,-68,7
10365,-3,-249,-117,-126,-64,7
10370,-6,-248,-115,-116,-60,7
10375,-4,-246,-119,-105,-55,6
10380,-4,-249,-116,-94,-45,5
10385,-4,-246,-116,-85,-37,3
10390,-3,-245,-115,-73,-24,4
10395,-7,-247,-115,-64,-14,4
10400,-6,-246,-112,-55,-5,3
10405,-6,-246,-113,-50,2,4
10410,-7,-245,-112,-46,8,3
10415,-3,-249,-111,-42,13,3
10420,-7,-249,-111,-40,17,2
10425,-9,-246,-111,-36,21,3
10430,-7,-250,-113,-34,22,1
10435,-9,-249,-115,-27,24,2
10440,-12,-250,-112,-21,26,1
10445,-9,-247,-112,-16,26,0
10450,-11,-246,-117,-12,26,3
10455,-13,-247,-112,-7,26,3
10460,-11,-247,-112,-3,26,3
10465,-12,-247,-113,-1,26,5
10470,-10,-248,-113,0,27,5
10475,-7,-247,-112,2,27,6
10480,-13,-245,-113,4,27,7
10485,-13,-247,-116,6,27,7
10490,-9,-249,-113,6,27,6
10495,-13,-245,-117,8,28,6
10500,-11,-245,-111,7,26,6
10505,-10,-247,-114,6,25,5
10510,-11,-248,-113,6,26,6
10515,-10,-246,-114,5,26,6
10520,-11,-247,-112,7,27,6
10525,-11,-248,-110,9,26,7
10530,-11,-248,-112,13,25,8
10535,-8,-246,-111,15,24,7
10540,-15,-243,-111,16,23,6
10545,-12,-243,-114,20,21,5
10550,-12,-244,-112,21,21,2
10555,-13,-241,-116,21,20,0
10560,-13,-245,-111,22,21,-2
10565,-12,-243,-113,19,21,-1
10570,-9,-239,-115,14,22,-3
10575,-10,-241,-110,8,23,-4
10580,-10,-239,-114,2,21,-4
10585,-12,-240,-111,-2,18,-2
10590,-13,-239,-111,-6,15,-1
10595,-12,-239,-113,-13,12,0
10600,-12,-237,-111,-21,10,1
10605,-8,-237,-113,-25,7,1
10610,-13,-239,-112,-31,5,0
10615,-12,-237,-113,-37,3,-2
10620,-11,-241,-113,-44,1,-2
10625,-12,-239,-111,-54,0,-5
10630,-10,-244,-115,-62,-1,-7
10635,-11,-243,-112,-68,0,-10
10640,-6,-245,-112,-71,-1,-11
10645,-9,-244,-111,-73,1,-12
10650,-9,-246,-114,-74,2,-12
10655,-9,-247,-111,-73,4,-13
10660,-10,-246,-113,-72,3,-11
10665,-9,-248,-116,-66,1,-10
10670,-10,-240,-111,-58,-1,-9
10675,-10,-249,-117,-52,-3,-8
10680,-9,-253,-113,-45,-9,-7
10685,-10,-250,-114,-38,-12,-6
10690,-9,-250,-115,-29,-15,-7
10695,-10,-251,-115,-25,-18,-6
10700,-9,-246,-114,-20,-21,-8
10705,-9,-249,-114,-17,-26,-9
10710,-10,-246,-113,-14,-27,-10
10715,-12,-245,-116,-15,-28,-10
10720,-11,-247,-108,-16,-30,-12
10725,-9,-246,-113,-13,-31,-16
10730,-8,-248,-114,-11,-29,-19
10735,-9,-245,-112,-11,-28,-23
10740,-10,-242,-112,-7,-28,-25
10745,-10,-241,-114,-2,-28,-28
10750,-12,-241,-110,3,-29,-27
10755,-8,-241,-113,3,-30,-28
10760,-9,-239,-113,2,-29,-31
10765,-10,-241,-113,-5,-29,-30
10770,-10,-240,-113,-15,-29,-31
10775,-5,-231,-108,-24,-31,-30
10780,-9,-238,-113,-36,-32,-28
10785,-9,-242,-116,-46,-35,-28
10790,-7,-243,-115,-55,-38,-28
10795,-6,-243,-113,-61,-40,-26
10800,-6,-244,-114,-65,-42,-26
10805,-9,-242,-113,-68,-42,-25
10810,-7,-247,-112,-68,-44,-22
10815,-6,-247,-112,-66,-44,-22
10820,-8,-246,-112,-63,-47,-20
10825,-3,-250,-108,-59,-47,-20
10830,-4,-250,-110,-54,-46,-20
10835,-9,-246,-114,-50,-49,-19
10840,-9,-249,-110,-45,-53,-20
10845,-13,-248,-111,-40,-55,-22
10850,-9,-250,-110,-36,-59,-25
10855,-9,-248,-111,-34,-65,-27
10860,-5,-246,-111,-31,-70,-31
10865,-5,-246,-115,-28,-73,-33
10870,-7,-249,-114,-33,-76,-38
10875,-11,-245,-113,-34,-75,-39
10880,-9,-244,-112,-34,-74,-42
10885,-10,-246,-113,-35,-74,-43
10890,-9,-244,-117,-36,-72,-44
10895,-12,-244,-112,-36,-73,-46
10900,-10,-243,-113,-35,-73,-44
10905,-12,-243,-115,-38,-76,-44
10910,-11,-246,-115,-41,-78,-45
10915,-12,-244,-114,-43,-80,-46
10920,-9,-247,-111,-46,-82,-45
10925,-11,-245,-112,-49,-82,-44
10930,-9,-246,-111,-51,-83,-43
10935,-7,-247,-117,-52,-82,-44
10940,-7,-246,-112,-51,-81,-42
10945,-7,-249,-114,-50,-79,-42
10950,-7,-248,-113,-47,-79,-40
10955,-5,-247,-112,-42,-79,-38
10960,-7,-250,-112,-35,-78,-37
10965,-10,-246,-112,-32,-76,-38
10970,-3,-247,-115,-27,-75,-37
10975,-5,-248,-117,-23,-74,-36
10980,-7,-245,-114,-20,-73,-35
10985,-5,-246,-113,-20,-72,-34
10990,-6,-243,-115,-20,-69,-34
10995,-4,-244,-113,-23,-69,-33
11000,-6,-246,-116,-25,-66,-32
11005,-4,-245,-113,-27,-62,-29
11010,-5,-246,-114,-29,-59,-28
11015,-8,-241,-114,-31,-56,-28
11020,-6,-244,-115,-33,-54,-29
11025,-6,-243,-113,-35,-52,-27
11030,-8,-245,-113,-35,-50,-28
11035,-6,-245,-112,-37,-48,-28
11040,-5,-243,-113,-36,-49,-27
11045,-5,-244,-111,-38,-48,-29
11050,-4,-243,-112,-37,-47,-31
11055,-6,-245,-113,-40,-47,-31
11060,-8,-243,-110,-44,-48,-30
11065,-6,-247,-109,-49,-49,-30
11070,-7,-246,-111,-55,-50,-29
11075,-12,-245,-110,-60,-53,-28
11080,-9,-246,-111,-65,-54,-27
11085,-7,-246,-111,-68,-56,-27
11090,-11,-246,-112,-72,-56,-26
11095,-11,-246,-110,-73,-59,-26
11100,-8,-250,-110,-73,-58,-25
11105,-7,-250,-109,-72,-57,-25
11110,-11,-247,-111,-68,-58,-25
11115,-9,-247,-111,-63,-59,-23
11120,-10,-247,-108,-62,-59,-23
11125,-11,-251,-112,-58,-61,-24
11130,-11,-245,-111,-57,-62,-23
11135,-9,-247,-107,-58,-63,-25
11140,-9,-247,-111,-56,-65,-26
11145,-9,-246,-111,-57,-66,-27
11150,-8,-246,-112,-59,-69,-29
11155,-9,-246,-112,-62,-70,-28
11160,-7,-244,-107,-65,-71,-29
11165,-6,-247,-110,-69,-71,-29
11170,-8,-246,-113,-74,-72,-30
11175,-8,-245,-111,-78,-70,-30
11180,-6,-245,-109,-81,-68,-28
11185,-9,-245,-113,-85,-67,-29
11190,-7,-243,-111,-88,-66,-30
11195,-4,-249,-111,-91,-62,-29
11200,-5,-249,-111,-90,-58,-29
11205,-7,-247,-112,-92,-55,-28
11210,-6,-246,-108,-92,-50,-28
11215,-4,-250,-112,-94,-47,-26
11220,-6,-249,-112,-94,-44,-25
11225,-2,-252,-111,-92,-44,-25
11230,-5,-251,-109,-91,-43,-25
11235,-6,-250,-112,-90,-42,-24
11240,-4,-251,-110,-88,-41,-24
11245,-1,-249,-110,-84,-39,-23
11250,-5,-251,-112,-79,-38,-22
11255,-7,-248,-111,-74,-37,-21
11260,-6,-249,-114,-67,-35,-20
11265,-5,-251,-107,-61,-34,-20
11270,-5,-250,-107,-55,-32,-19
11275,-5,-251,-112,-50,-29,-19
11280,-5,-249,-109,-46,-26,-19
11285,-6,-247,-112,-42,-24,-17
11290,-9,-249,-111,-40,-20,-16
11295,-5,-247,-110,-39,-18,-15
11300,-9,-246,-111,-38,-18,-15
11305,-7,-250,-112,-38,-17,-14
11310,-5,-250,-110,-37,-16,-14
11315,-5,-248,-110,-37,-15,-14
11320,-7,-247,-112,-36,-14,-11
11325,-6,-246,-111,-35,-13,-12
11330,-7,-248,-109,-35,-11,-13
11335,-5,-247,-111,-33,-9,-12
11340,-9,-249,-107,-29,-9,-13
11345,-7,-249,-109,-26,-6,-13
11350,-6,-250,-109,-24,-6,-13
11355,-6,-248,-112,-20,-5,-13
11360,-7,-249,-110,-17,-3,-14
11365,-7,-249,-111,-13,-3,-15
11370,-10,-247,-111,-9,-3,-13
11375,-8,-247,-110,-4,-2,-12
11380,-4,-249,-111,0,-1,-11
11385,-6,-247,-108,2,3,-11
11390,-4,-247,-107,5,3,-11
11395,-5,-246,-109,6,3,-8
11400,-6,-248,-109,6,3,-7
11405,-4,-248,-108,6,3,-6
11410,-7,-247,-108,5,4,-5
11415,-2,-247,-112,3,5,-3
11420,-4,-248,-108,2,6,-4
11425,-8,-249,-110,0,5,-4
11430,-5,-245,-111,-4,5,-2
11435,-3,-247,-108,-7,7,-3
11440,-4,-245,-109,-8,9,-3
11445,-6,-247,-107,-8,10,-4
11450,-5,-250,-108,-7,11,-5
11455,-7,-247,-106,-5,10,-4
11460,-8,-249,-108,-2,12,-4
11465,-5,-249,-107,-1,11,-6
11470,-8,-246,-109,2,11,-7
11475,-6,-245,-111,5,14,-5
11480,-6,-250,-110,9,15,-3
11485,-6,-248,-109,9,16,-3
11490,-6,-245,-110,8,16,-3
11495,-5,-247,-110,8,17,-3
11500,-7,-248,-113,6,18,-3
11505,-4,-246,-109,5,20,-3
11510,-5,-247,-108,2,20,-4
11515,-12,-248,-112,2,21,-3
11520,-9,-245,-106,1,22,-4
11525,-6,-247,-110,1,23,-5
11530,-8,-246,-109,0,25,-6
11535,-6,-247,-111,-3,25,-7
11540,-9,-243,-112,-6,26,-5
11545,-9,-245,-109,-8,24,-5
11550,-4,-248,-111,-10,23,-5
11555,-5,-246,-111,-12,23,-5
11560,-3,-243,-112,-14,21,-4
11565,-4,-246,-109,-16,23,-5
11570,-6,-248,-114,-17,23,-5
11575,-5,-248,-108,-19,21,-4
11580,-8,-248,-109,-19,22,-3
11585,-3,-251,-109,-17,21,-2
11590,-7,-249,-108,-16,20,-1
11595,-7,-249,-109,-13,18,-2
11600,-4,-247,-108,-12,17,-2
11605,-3,-252,-108,-11,18,1
11610,-6,-251,-112,-7,18,-1
11615,-4,-248,-105,-5,19,-1
11620,-7,-247,-112,-5,19,-2
11625,-6,-247,-105,-3,19,-1
11630,-6,-246,-106,-1,20,-2
11635,-7,-249,-110,-1,20,-1
11640,-9,-248,-108,1,20,0
11645,-7,-247,-110,0,19,1
11650,-8,-251,-107,-2,21,0
11655,-4,-248,-107,-6,20,-1
11660,-11,-245,-107,-9,21,-2
11665,-7,-245,-106,-13,22,-2
11670,-8,-248,-107,-19,22,-2
11675,-6,-247,-107,-23,23,-2
11680,-6,-245,-107,-27,22,-2
11685,-6,-246,-112,-32,23,-4
11690,-6,-246,-109,-36,24,-3
11695,-8,-248,-109,-41,23,-2
11700,-10,-246,-110,-46,22,-3
11705,-6,-246,-109,-48,23,-1
11710,-7,-247,-107,-50,22,0
11715,-8,-247,-110,-52,22,-1
11720,-6,-247,-108,-52,23,1
11725,-5,-250,-109,-51,22,0
11730,-7,-246,-111,-50,21,1
11735,-7,-248,-113,-51,21,3
11740,-5,-249,-111,-50,22,3
11745,-5,-248,-111,-49,21,2
11750,-7,-248,-111,-50,22,4
11755,-7,-249,-106,-47,23,3
11760,-6,-249,-110,-48,23,5
11765,-6,-248,-108,-49,24,4
11770,-5,-247,-110,-50,25,3
11775,-9,-245,-109,-51,25,5
11780,-8,-247,-111,-52,27,4
11785,-7,-246,-110,-51,27,3
11790,-10,-243,-109,-52,28,2
11795,-9,-245,-108,-53,26,2
11800,-10,-245,-108,-55,25,2
11805,-10,-246,-109,-56,24,4
11810,-9,-247,-106,-59,23,3
11815,-8,-246,-108,-62,19,3
11820,-9,-248,-107,-65,19,3
11825,-6,-245,-109,-66,19,5
11830,-9,-247,-109,-72,16,5
11835,-8,-248,-107,-74,14,4
11840,-8,-248,-108,-80,12,3
11845,-6,-247,-106,-84,12,2
11850,-9,-247,-108,-88,10,2
11855,-5,-248,-108,-91,12,0
11860,-6,-248,-104,-95,11,2
11865,-7,-246,-112,-97,11,2
11870,-8,-244,-105,-98,12,2
11875,-7,-249,-106,-99,12,0
11880,-11,-246,-107,-97,12,0
11885,-9,-251,-110,-98,13,1
11890,-7,-249,-104,-99,13,0
11895,-9,-250,-106,-98,13,-1
11900,-9,-246,-106,-98,13,-1
11905,-11,-247,-111,-97,15,-3
11910,-7,-248,-105,-98,17,-4
11915,-7,-249,-108,-98,19,-5
11920,-6,-246,-114,-98,21,-6
11925,-5,-250,-107,-98,24,-9
11930,-6,-247,-111,-97,26,-10
11935,-6,-251,-110,-96,26,-11
11940,-9,-250,-108,-96,28,-12
11945,-6,-250,-109,-94,28,-14
11950,-8,-248,-107,-92,28,-13
11955,-6,-248,-112,-91,28,-13
11960,-6,-250,-109,-89,27,-13
11965,-4,-251,-110,-88,27,-12
11970,-9,-247,-109,-87,25,-11
11975,-7,-243,-111,-86,24,-10
11980,-9,-246,-107,-85,24,-11
11985,-8,-251,-106,-84,23,-9
11990,-10,-249,-107,-82,23,-11
11995,-9,-249,-109,-78,20,-10
