timestamp,acc_x,acc_y,acc_z,gyro_x,gyro_y,gyro_z
0,-4,-258,36,66,9,37
5,-4,-258,38,63,9,38
10,-6,-257,40,58,11,37
15,-6,-259,38,51,11,36
20,-6,-258,38,47,12,37
25,-5,-258,33,44,13,38
30,-7,-261,39,42,13,38
35,-6,-260,40,41,14,39
40,-2,-261,39,41,14,39
45,-4,-260,38,41,14,39
50,-3,-261,36,41,14,41
55,-7,-259,39,42,16,41
60,-3,-260,39,42,17,41
65,-7,-260,40,42,17,39
70,-2,-261,40,43,17,38
75,-2,-261,41,43,20,38
80,-1,-261,39,44,23,36
85,-5,-263,40,45,27,35
90,-4,-260,43,46,28,35
95,-4,-261,44,48,32,32
100,-5,-260,42,47,33,32
105,-1,-260,42,48,35,30
110,-2,-259,39,48,39,28
115,0,-260,46,48,40,26
120,-4,-259,46,47,42,24
125,-2,-257,42,45,45,23
130,-1,-262,47,43,49,22
135,-5,-257,46,41,52,19
140,-2,-262,44,38,55,17
145,-2,-261,47,32,58,14
150,-5,-261,46,27,63,12
155,0,-258,43,23,66,11
160,-6,-260,47,17,69,7
165,-5,-262,43,14,72,5
170,-5,-261,44,10,77,4
175,-7,-262,44,7,79,3
180,-2,-263,42,4,82,2
185,-6,-262,43,3,83,0
190,-5,-262,42,2,83,0
195,-7,-261,43,1,86,0
200,-3,-260,44,1,86,-1
205,-7,-262,46,0,86,-1
210,-5,-260,41,1,87,-1
215,-1,-261,41,2,89,-1
220,-6,-262,46,2,88,-2
225,-6,-260,45,1,90,-3
230,-6,-261,47,0,90,-2
235,-12,-257,52,-1,91,-2
240,-8,-259,48,0,93,-2
245,-7,-258,50,-1,95,-2
250,-6,-261,46,0,95,-4
255,-6,-260,49,2,96,-2
260,-8,-261,49,3,96,-4
265,-8,-260,50,4,98,-4
270,-7,-256,49,6,96,-4
275,-7,-260,51,7,97,-4
280,-6,-260,47,9,97,-5
285,-7,-259,47,9,96,-4
290,-7,-263,51,10,98,-5
295,-7,-259,52,12,96,-3
300,-11,-262,51,12,96,-4
305,-8,-260,50,14,95,-3
310,-8,-260,51,15,95,-4
315,-7,-260,51,15,94,-4
320,-8,-264,50,14,93,-5
325,-14,-259,52,14,95,-3
330,-6,-262,48,15,95,-5
335,-7,-263,51,13,97,-4
340,-6,-262,50,11,98,-4
345,-6,-267,50,10,98,-4
350,-8,-260,50,6,101,-4
355,-6,-262,48,3,100,-5
360,-4,-263,48,1,100,-6
365,-6,-261,49,-1,102,-5
370,-5,-261,48,-2,102,-5
375,-10,-260,49,-3,102,-6
380,-4,-263,52,-2,102,-5
385,-5,-262,51,-1,103,-7
390,-6,-262,48,1,103,-5
395,-5,-262,46,1,103,-6
400,-9,-259,49,2,103,-5
405,-6,-260,54,1,104,-6
410,-7,-259,48,2,105,-5
415,-3,-261,50,-1,106,-4
420,-6,-258,49,-1,107,-5
425,-8,-257,51,-3,106,-5
430,-6,-257,55,-1,106,-5
435,-4,-257,53,0,107,-5
440,-6,-260,51,-1,107,-5
445,-7,-257,54,0,107,-6
450,-8,-257,54,0,107,-6
455,-5,-260,50,0,107,-5
460,-8,-262,49,-1,107,-6
465,-6,-259,55,-2,109,-9
470,-9,-260,51,-4,109,-8
475,-7,-261,51,-6,110,-7
480,-8,-262,54,-7,111,-10
485,-5,-264,51,-8,111,-10
490,-9,-262,52,-6,112,-11
495,-10,-260,51,-6,113,-12
500,-9,-263,55,-4,114,-13
505,-7,-264,51,-3,114,-12
510,-8,-260,51,0,114,-12
515,-6,-260,50,1,113,-12
520,-6,-265,53,3,114,-13
525,-6,-262,51,6,115,-13
530,-6,-260,50,9,115,-12
535,-6,-264,51,9,115,-11
540,-9,-260,50,11,116,-12
545,-7,-262,51,13,117,-12
550,-9,-262,55,14,117,-10
555,-8,-262,53,19,118,-10
560,-7,-261,50,20,119,-10
565,-7,-261,52,22,119,-11
570,-8,-261,55,23,121,-10
575,-6,-261,51,23,119,-8
580,-7,-258,55,25,120,-9
585,-8,-258,50,24,119,-10
590,-7,-260,53,23,119,-9
595,-4,-260,53,24,119,-9
600,-6,-259,57,24,120,-10
605,-8,-258,54,24,122,-10
610,-7,-260,57,25,122,-12
615,-7,-259,54,24,123,-12
620,-8,-258,56,25,124,-12
625,-4,-260,53,25,124,-15
630,-7,-264,56,26,125,-14
635,-10,-257,55,25,124,-16
640,-7,-262,58,24,125,-17
645,-5,-263,52,23,126,-18
650,-7,-260,56,22,125,-18
655,-8,-260,50,21,125,-20
660,-8,-259,50,20,124,-22
665,-7,-259,59,19,124,-21
670,-9,-261,57,20,124,-22
675,-5,-262,56,19,123,-23
680,-9,-262,57,20,124,-25
685,-10,-262,58,22,123,-25
690,-9,-262,59,22,123,-26
695,-9,-263,61,24,122,-26
700,-8,-261,55,25,123,-28
705,-10,-262,62,27,124,-28
710,-6,-260,60,30,124,-29
715,-6,-261,60,33,124,-28
720,-7,-261,58,37,124,-28
725,-7,-262,60,41,124,-27
730,-5,-262,63,44,126,-27
735,-8,-263,61,48,125,-27
740,-8,-261,63,54,124,-26
745,-8,-265,61,57,126,-27
750,-8,-259,63,59,125,-26
755,-8,-263,61,60,124,-25
760,-7,-263,60,62,124,-24
765,-9,-265,62,64,124,-25
770,-6,-259,65,65,124,-24
775,-6,-263,63,66,124,-22
780,-10,-263,64,67,123,-21
785,-9,-262,63,68,124,-21
790,-9,-261,61,68,124,-18
795,-10,-261,60,69,124,-18
800,-8,-263,64,68,123,-17
805,-10,-260,59,67,123,-15
810,-11,-259,59,66,122,-14
815,-11,-259,62,63,122,-14
820,-9,-258,59,60,122,-12
825,-11,-256,61,56,119,-11
830,-9,-260,60,54,116,-9
835,-12,-256,58,51,114,-7
840,-12,-258,62,48,112,-8
845,-10,-257,61,46,110,-5
850,-8,-256,61,45,109,-2
855,-10,-258,60,45,107,-2
860,-8,-257,64,44,105,-2
865,-10,-256,61,43,103,1
870,-10,-258,60,44,99,1
875,-12,-257,57,45,96,3
880,-10,-258,59,46,94,3
885,-13,-258,62,45,92,5
890,-12,-256,59,47,90,6
895,-9,-261,59,47,90,6
900,-12,-257,58,47,88,7
905,-10,-262,59,47,86,9
910,-12,-262,59,48,86,8
915,-13,-258,62,48,85,9
920,-11,-261,62,47,84,9
925,-6,-261,64,47,84,10
930,-9,-258,60,46,83,11
935,-7,-260,62,46,82,10
940,-10,-259,60,47,85,11
945,-10,-260,63,46,84,10
950,-11,-259,62,47,85,10
955,-9,-260,60,49,84,9
960,-10,-260,62,51,85,9
965,-9,-260,62,50,86,9
970,-10,-259,59,52,86,9
975,-9,-259,61,52,88,9
980,-7,-260,61,53,89,9
985,-2,-257,58,53,88,9
990,-10,-263,63,54,89,9
995,-10,-259,60,56,91,10
1000,-7,-259,61,57,90,10
1005,-8,-256,57,56,89,10
1010,-10,-255,61,55,89,10
1015,-10,-260,61,54,90,10
1020,-8,-258,61,54,91,11
1025,-10,-256,62,55,91,10
1030,-10,-259,62,53,90,10
1035,-7,-258,60,54,90,10
1040,-11,-258,58,52,89,10
1045,-9,-259,62,52,88,10
1050,-12,-258,62,54,88,10
1055,-10,-258,66,53,88,10
1060,-10,-259,63,52,88,11
1065,-11,-256,62,52,88,9
1070,-7,-257,61,52,88,9
1075,-12,-257,64,51,86,9
1080,-10,-256,62,50,85,8
1085,-9,-257,64,49,83,9
1090,-7,-261,63,49,85,7
1095,-9,-256,62,48,85,8
1100,-9,-257,62,48,85,9
1105,-8,-260,63,47,85,8
1110,-11,-256,62,48,84,7
1115,-10,-260,65,48,83,8
1120,-11,-256,61,48,82,7
1125,-10,-260,63,49,81,9
1130,-9,-258,63,49,81,8
1135,-9,-260,64,50,80,8
1140,-9,-262,66,48,81,8
1145,-9,-261,63,50,81,8
1150,-8,-258,65,50,79,9
1155,-10,-257,62,49,78,9
1160,-9,-259,63,51,78,10
1165,-13,-257,62,52,78,11
1170,-6,-260,64,51,76,12
1175,-10,-260,64,50,77,11
1180,-10,-259,66,52,75,12
1185,-10,-259,64,51,75,13
1190,-9,-256,58,50,74,13
1195,-11,-256,66,50,73,12
1200,-12,-255,65,50,71,12
1205,-8,-258,64,48,71,13
1210,-9,-259,65,45,71,13
1215,-8,-261,65,45,72,13
1220,-9,-261,64,45,72,13
1225,-10,-257,64,45,73,13
1230,-11,-256,63,44,71,11
1235,-10,-258,65,45,72,11
1240,-7,-258,65,45,72,13
1245,-9,-257,67,44,71,12
1250,-12,-256,66,45,69,11
1255,-10,-256,62,43,69,13
1260,-12,-258,65,44,70,11
1265,-11,-259,65,43,69,12
1270,-11,-256,66,43,68,13
1275,-10,-260,65,42,69,13
1280,-10,-259,65,42,68,14
1285,-11,-259,66,43,69,14
1290,-8,-258,66,42,70,15
1295,-8,-258,66,42,70,15
1300,-9,-259,63,43,69,14
1305,-11,-262,56,43,71,14
1310,-8,-257,66,42,71,15
1315,-11,-256,65,44,72,16
1320,-12,-257,65,43,72,15
1325,-10,-258,64,43,72,15
1330,-9,-257,63,42,72,15
1335,-8,-258,65,42,73,15
1340,-8,-259,66,42,74,15
1345,-11,-255,66,41,74,16
1350,-11,-255,66,40,75,16
1355,-13,-256,65,39,74,17
1360,-11,-258,64,38,74,16
1365,-11,-258,68,39,74,15
1370,-7,-258,66,38,75,15
1375,-7,-257,66,37,76,16
1380,-8,-256,65,36,76,16
1385,-9,-258,66,35,77,14
1390,-13,-257,68,35,78,15
1395,-11,-257,66,34,78,13
1400,-10,-254,67,32,79,13
1405,-8,-259,69,30,79,12
1410,-13,-255,69,30,81,12
1415,-8,-257,64,27,80,11
1420,-10,-256,64,25,81,8
1425,-10,-257,65,24,83,10
1430,-11,-258,71,23,83,9
1435,-12,-260,66,21,84,8
1440,-9,-257,67,20,85,8
1445,-11,-259,68,20,86,8
1450,-9,-258,68,20,86,8
1455,-9,-257,67,20,86,7
1460,-10,-259,66,21,87,8
1465,-10,-261,69,24,86,7
1470,-8,-259,66,24,87,8
1475,-8,-259,67,27,87,7
1480,-11,-262,67,29,88,7
1485,-11,-261,66,32,89,7
1490,-10,-260,69,35,87,6
1495,-12,-260,69,37,88,6
1500,-11,-257,67,39,86,7
1505,-9,-260,65,42,89,6
1510,-8,-258,69,43,91,6
1515,-10,-254,67,46,90,6
1520,-7,-258,67,45,90,5
1525,-11,-254,67,45,90,6
1530,-11,-258,68,46,90,6
1535,-10,-256,71,46,92,5
1540,-8,-257,71,47,93,6
1545,-11,-259,70,47,92,6
1550,-8,-256,68,49,93,6
1555,-5,-257,66,49,95,6
1560,-11,-256,71,50,94,8
1565,-8,-258,72,48,98,10
1570,-11,-256,69,48,99,9
1575,-11,-257,69,46,99,8
1580,-11,-256,70,45,100,7
1585,-6,-257,71,43,100,8
1590,-12,-255,66,41,101,8
1595,-11,-257,70,39,100,6
1600,-9,-256,72,39,104,7
1605,-12,-259,73,38,106,8
1610,-12,-257,68,37,104,8
1615,-10,-256,74,37,105,7
1620,-9,-260,73,37,106,6
1625,-13,-260,72,36,105,9
1630,-14,-257,71,36,105,9
1635,-11,-256,69,36,106,9
1640,-13,-256,72,36,107,8
1645,-16,-256,72,37,106,8
1650,-13,-257,69,35,104,10
1655,-13,-257,72,37,103,9
1660,-10,-257,67,38,102,11
1665,-12,-257,70,39,100,9
1670,-13,-256,74,40,100,8
1675,-13,-258,70,39,100,8
1680,-13,-256,71,39,99,9
1685,-12,-255,75,39,97,8
1690,-12,-258,74,38,97,8
1695,-12,-255,71,38,97,7
1700,-13,-257,71,36,98,6
1705,-15,-257,69,34,96,6
1710,-11,-256,69,32,98,5
1715,-13,-257,72,32,97,4
1720,-13,-256,70,31,98,3
1725,-17,-256,73,33,96,3
1730,-13,-256,70,33,95,3
1735,-11,-257,73,33,94,3
1740,-12,-256,73,33,93,3
1745,-13,-254,71,32,93,3
1750,-16,-256,73,32,94,2
1755,-12,-257,68,33,94,3
1760,-12,-256,70,32,94,3
1765,-13,-256,68,32,92,3
1770,-11,-256,71,31,93,2
1775,-12,-256,70,31,94,1
1780,-11,-254,71,31,93,1
1785,-11,-257,70,32,93,0
1790,-14,-257,72,31,92,1
1795,-13,-256,71,30,93,1
1800,-13,-256,69,28,95,0
1805,-10,-255,71,27,95,-1
1810,-11,-255,72,25,95,0
1815,-11,-256,70,23,96,-1
1820,-9,-255,71,20,97,-3
1825,-12,-255,65,16,98,-4
1830,-10,-254,69,13,100,-4
1835,-14,-256,68,12,100,-4
1840,-5,-261,65,9,101,-5
1845,-11,-257,70,9,102,-6
1850,-12,-256,68,7,104,-7
1855,-10,-256,69,6,105,-8
1860,-9,-254,72,5,107,-7
1865,-13,-257,68,6,108,-9
1870,-11,-256,69,6,108,-9
1875,-12,-256,71,6,108,-10
1880,-13,-254,74,6,108,-9
1885,-9,-257,70,7,106,-9
1890,-12,-256,69,7,106,-10
1895,-15,-252,67,7,105,-10
1900,-14,-257,74,7,104,-10
1905,-11,-256,70,6,104,-10
1910,-13,-255,69,4,103,-9
1915,-15,-254,71,3,103,-10
1920,-14,-256,69,-1,103,-9
1925,-13,-256,73,-4,103,-10
1930,-12,-257,67,-7,102,-9
1935,-13,-257,68,-10,101,-9
1940,-12,-257,65,-14,100,-8
1945,-9,-251,65,-17,99,-8
1950,-11,-257,70,-20,101,-7
1955,-9,-258,68,-23,101,-7
1960,-14,-257,68,-25,101,-7
1965,-14,-256,69,-28,102,-6
1970,-12,-258,65,-29,103,-7
1975,-15,-256,68,-31,104,-7
1980,-11,-257,68,-33,106,-7
1985,-10,-257,70,-35,106,-6
1990,-9,-257,67,-35,106,-7
1995,-11,-255,69,-35,106,-8
2000,-12,-255,65,-35,107,-10
2005,-10,-257,66,-34,108,-11
2010,-11,-255,66,-35,108,-10
2015,-11,-257,68,-34,108,-10
2020,-10,-255,66,-35,108,-10
2025,-11,-256,67,-36,107,-9
2030,-11,-254,67,-38,108,-12
2035,-11,-255,68,-38,107,-12
2040,-13,-257,64,-39,107,-12
2045,-11,-256,66,-38,109,-11
2050,-12,-256,63,-42,109,-11
2055,-9,-255,67,-42,107,-11
2060,-9,-257,63,-44,107,-10
2065,-12,-255,63,-44,106,-9
2070,-11,-255,64,-46,106,-9
2075,-13,-256,62,-47,105,-10
2080,-10,-256,66,-50,103,-8
2085,-10,-256,64,-52,104,-7
2090,-12,-256,66,-53,104,-6
2095,-12,-253,60,-55,104,-5
2100,-8,-256,62,-57,104,-7
2105,-10,-256,63,-60,105,-7
2110,-7,-255,59,-62,105,-6
2115,-10,-255,58,-66,107,-8
2120,-10,-255,62,-70,108,-8
2125,-10,-254,61,-72,109,-8
2130,-12,-256,63,-73,110,-9
2135,-9,-256,64,-74,111,-9
2140,-8,-253,59,-77,113,-11
2145,-9,-254,61,-79,115,-10
2150,-10,-254,58,-81,116,-11
2155,-9,-251,61,-86,117,-12
2160,-10,-254,61,-89,118,-13
2165,-15,-248,50,-94,117,-14
2170,-10,-252,59,-97,118,-16
2175,-10,-250,59,-101,118,-15
2180,-10,-254,58,-106,119,-14
2185,-7,-254,57,-111,118,-15
2190,-9,-252,58,-116,118,-13
2195,-11,-252,57,-121,119,-13
2200,-8,-253,54,-126,119,-16
2205,-10,-251,60,-131,119,-16
2210,-12,-251,54,-138,118,-15
2215,-10,-250,53,-147,118,-17
2220,-10,-250,55,-156,118,-17
2225,-9,-253,54,-164,119,-18
2230,-11,-252,55,-171,118,-19
2235,-11,-251,55,-179,118,-19
2240,-11,-248,51,-187,119,-19
2245,-10,-249,55,-192,120,-19
2250,-8,-254,53,-198,120,-21
2255,-12,-249,49,-207,120,-21
2260,-10,-252,50,-214,121,-23
2265,-10,-250,49,-221,122,-23
2270,-9,-247,53,-230,122,-24
2275,-9,-246,50,-238,122,-24
2280,-9,-249,50,-248,124,-26
2285,-10,-247,50,-259,125,-28
2290,-10,-247,48,-269,126,-32
2295,-11,-243,46,-282,128,-33
2300,-8,-243,47,-293,128,-35
2305,-9,-241,45,-308,130,-39
2310,-8,-240,41,-324,129,-42
2315,-3,-242,41,-343,129,-45
2320,-10,-237,37,-363,131,-46
2325,-8,-237,40,-384,131,-49
2330,-7,-236,37,-406,131,-51
2335,-5,-236,41,-429,130,-53
2340,-3,-236,38,-453,129,-54
2345,-9,-232,34,-476,128,-58
2350,-7,-228,37,-498,126,-60
2355,-5,-226,28,-522,125,-61
2360,-6,-227,35,-549,123,-63
2365,-10,-226,29,-579,121,-64
2370,-8,-225,26,-609,119,-65
2375,-10,-227,29,-639,116,-67
2380,-10,-227,29,-668,114,-66
2385,-10,-225,31,-700,110,-66
2390,-11,-224,26,-729,107,-66
2395,-14,-224,23,-757,101,-66
2400,-12,-222,22,-785,97,-66
2405,-13,-225,17,-811,91,-66
2410,-15,-227,19,-836,85,-66
2415,-14,-226,17,-857,82,-68
2420,-16,-227,14,-876,76,-70
2425,-14,-227,14,-892,72,-72
2430,-18,-225,15,-910,71,-72
2435,-14,-228,12,-928,66,-71
2440,-16,-229,11,-943,63,-71
2445,-17,-229,11,-955,61,-72
2450,-13,-234,9,-966,60,-74
2455,-14,-233,11,-972,61,-76
2460,-11,-234,4,-978,60,-79
2465,-11,-236,8,-987,62,-79
2470,-10,-241,9,-993,63,-80
2475,-12,-242,7,-1001,63,-82
2480,-12,-241,9,-1006,59,-87
2485,-11,-244,10,-1007,54,-90
2490,-13,-249,10,-1007,46,-93
2495,-12,-247,6,-1005,36,-97
2500,-12,-249,9,-1000,26,-100
2505,-9,-251,5,-994,16,-101
2510,-12,-250,10,-990,8,-107
2515,-9,-253,6,-984,-1,-111
2520,-11,-251,8,-979,-8,-115
2525,-13,-246,6,-970,-15,-121
2530,-10,-252,5,-961,-24,-126
2535,-8,-251,8,-946,-31,-129
2540,-13,-250,4,-930,-40,-135
2545,-9,-250,3,-915,-46,-139
2550,-5,-252,2,-905,-52,-137
2555,-5,-250,3,-896,-55,-138
2560,-5,-252,5,-889,-58,-136
2565,-3,-250,2,-881,-62,-137
2570,-5,-249,1,-877,-64,-136
2575,-3,-246,-2,-874,-67,-134
2580,-4,-248,1,-875,-67,-129
2585,1,-248,-5,-876,-64,-124
2590,-1,-247,-5,-878,-63,-121
2595,2,-245,-6,-880,-62,-117
2600,0,-243,-4,-883,-59,-111
2605,1,-245,-11,-886,-54,-105
2610,1,-241,-11,-891,-47,-97
2615,4,-244,-12,-894,-37,-90
2620,4,-244,-14,-898,-29,-94
2625,2,-243,-14,-903,-22,-101
2630,-2,-245,-10,-906,-13,-103
2635,0,-249,-14,-911,-3,-105
2640,5,-249,-14,-916,9,-107
2645,3,-251,-17,-919,22,-109
2650,3,-254,-22,-920,42,-112
2655,2,-251,-26,-920,58,-118
2660,2,-254,-22,-919,72,-125
2665,3,-251,-25,-916,83,-131
2670,4,-252,-29,-912,90,-138
2675,4,-255,-27,-909,95,-144
2680,4,-254,-30,-906,101,-149
2685,4,-254,-33,-903,103,-155
2690,2,-255,-33,-904,104,-160
2695,5,-255,-31,-903,103,-164
2700,0,-257,-32,-901,102,-164
2705,4,-259,-30,-892,100,-165
2710,5,-263,-39,-881,100,-163
2715,4,-257,-36,-868,96,-165
2720,2,-257,-33,-850,89,-167
2725,4,-256,-33,-837,84,-165
2730,6,-259,-41,-828,77,-160
2735,4,-259,-39,-820,75,-152
2740,4,-258,-39,-811,69,-147
2745,5,-259,-43,-805,64,-144
2750,6,-263,-45,-797,59,-138
2755,8,-263,-45,-788,54,-132
2760,5,-267,-47,-784,51,-127
2765,2,-268,-47,-778,45,-125
2770,5,-268,-47,-770,41,-125
2775,2,-269,-47,-758,39,-124
2780,4,-272,-50,-740,42,-111
2785,6,-278,-51,-715,42,-100
2790,6,-280,-49,-684,40,-97
2795,6,-283,-52,-652,37,-92
2800,6,-284,-49,-619,30,-91
2805,4,-285,-46,-589,27,-89
2810,7,-287,-52,-560,20,-87
2815,4,-285,-57,-529,14,-90
2820,10,-283,-53,-498,7,-93
2825,7,-284,-54,-464,-3,-97
2830,8,-283,-60,-428,-13,-102
2835,11,-281,-61,-391,-19,-109
2840,6,-279,-61,-354,-23,-117
2845,8,-281,-60,-319,-25,-120
2850,8,-278,-58,-281,-26,-123
2855,8,-278,-61,-245,-24,-127
2860,6,-276,-62,-210,-24,-130
2865,4,-280,-62,-178,-20,-132
2870,4,-277,-64,-149,-16,-126
2875,5,-282,-63,-118,-12,-116
2880,3,-276,-58,-78,-9,-109
2885,2,-277,-61,-39,-7,-105
2890,4,-280,-62,-4,-5,-99
2895,2,-277,-61,25,-4,-91
2900,4,-280,-64,52,-4,-84
2905,4,-280,-62,77,-2,-79
2910,7,-280,-63,100,0,-72
2915,7,-283,-60,127,3,-69
2920,8,-276,-62,156,5,-65
2925,10,-283,-59,189,6,-62
2930,12,-281,-60,228,6,-57
2935,14,-282,-61,268,3,-59
2940,17,-286,-61,308,0,-58
2945,19,-287,-60,345,0,-58
2950,15,-284,-61,383,-1,-57
2955,15,-287,-57,426,0,-53
2960,13,-283,-63,468,3,-51
2965,16,-283,-62,510,7,-49
2970,17,-285,-59,547,10,-40
2975,16,-283,-59,581,14,-36
2980,14,-286,-59,613,17,-32
2985,9,-282,-53,644,20,-31
2990,12,-287,-58,675,21,-31
2995,15,-287,-56,707,23,-30
3000,10,-289,-54,737,26,-30
3005,9,-289,-50,763,23,-28
3010,11,-290,-48,795,22,-28
3015,11,-296,-52,837,19,-28
3020,10,-299,-52,879,17,-32
3025,9,-295,-52,919,14,-37
3030,5,-298,-48,957,12,-42
3035,7,-305,-43,1008,9,-44
3040,7,-304,-41,1064,10,-41
3045,4,-305,-37,1120,11,-42
3050,-2,-307,-31,1188,13,-42
3055,0,-314,-31,1266,3,-40
3060,-8,-313,-19,1340,-5,-41
3065,-10,-309,-16,1421,-28,-24
3070,0,-315,-28,1517,-61,10
3075,4,-316,-29,1584,-77,31
3080,-6,-314,-34,1628,-77,41
3085,1,-317,-46,1638,-70,51
3090,1,-321,-50,1602,-42,54
3095,-6,-321,-40,1548,-11,50
3100,-11,-319,-24,1516,17,54
3105,-11,-322,-27,1503,37,71
3110,-5,-328,-23,1500,57,94
3115,0,-330,-28,1495,80,102
3120,-4,-328,-34,1476,104,101
3125,-9,-328,-31,1437,123,104
3130,-6,-323,-34,1394,127,111
3135,-12,-322,-37,1348,130,112
3140,-13,-323,-26,1306,131,116
3145,-9,-317,-16,1274,133,126
3150,-7,-312,-10,1250,142,133
3155,-6,-305,21,1239,146,142
3160,-6,-281,2,1236,157,148
3165,-11,-301,5,1244,171,155
3170,-2,-283,29,1259,186,166
3175,-9,-285,28,1275,203,177
3180,-6,-277,37,1296,219,191
3185,-5,-267,32,1314,239,204
3190,-8,-272,46,1327,256,215
3195,-12,-270,45,1337,272,223
3200,-13,-264,51,1338,287,230
3205,-13,-263,59,1333,300,235
3210,-8,-247,59,1320,313,237
3215,-14,-249,59,1300,321,239
3220,-22,-250,64,1272,326,238
3225,-24,-245,74,1235,330,232
3230,-30,-252,56,1197,330,227
3235,-17,-250,70,1153,326,220
3240,-13,-249,79,1104,318,212
3245,-20,-239,57,1049,308,204
3250,-13,-248,67,989,297,194
3255,-9,-231,77,930,284,185
3260,-13,-244,65,866,269,175
3265,-12,-243,67,805,257,166
3270,-11,-241,65,747,242,156
3275,-10,-242,66,692,226,147
3280,-11,-243,64,648,209,139
3285,-3,-238,59,607,191,133
3290,-17,-249,57,573,173,129
3295,-9,-256,60,547,155,124
3300,-10,-256,54,529,138,119
3305,-14,-256,52,517,123,115
3310,-14,-257,49,507,107,113
3315,-8,-261,52,502,92,112
3320,-8,-256,48,502,79,114
3325,-7,-259,54,509,69,113
3330,-4,-262,50,517,62,112
3335,-2,-267,61,527,54,109
3340,-15,-260,48,536,48,110
3345,-13,-263,43,546,48,112
3350,-13,-265,48,559,48,108
3355,-12,-268,45,569,52,102
3360,-20,-261,49,579,56,99
3365,-13,-266,44,591,56,95
3370,-17,-266,63,605,55,92
3375,-14,-262,43,618,56,86
3380,-13,-265,40,629,59,80
3385,-16,-252,46,635,63,75
3390,-20,-250,71,639,66,71
3395,-20,-254,61,646,69,66
3400,-15,-251,61,650,70,64
3405,-11,-253,67,655,71,60
3410,-28,-254,74,657,73,60
3415,-16,-256,69,656,75,60
3420,-17,-255,76,652,76,61
3425,-21,-254,76,647,78,64
3430,-17,-255,80,641,75,67
3435,-8,-248,58,632,71,69
3440,-25,-263,79,624,70,72
3445,-19,-250,87,611,66,73
3450,-19,-247,93,597,62,74
3455,-17,-247,87,581,59,76
3460,-19,-249,84,564,53,74
3465,-25,-258,93,545,46,76
3470,-10,-239,79,526,39,76
3475,-15,-245,94,507,31,74
3480,-15,-241,98,488,26,72
3485,-13,-247,87,469,20,70
3490,-17,-239,88,452,12,68
3495,-18,-245,96,439,6,66
3500,-14,-243,99,427,1,63
3505,-15,-244,101,416,-4,60
3510,-15,-243,100,404,-7,57
3515,-13,-243,104,396,-11,54
3520,-23,-244,107,387,-15,51
3525,-9,-245,103,376,-19,48
3530,-5,-240,118,371,-21,46
3535,-3,-231,104,365,-26,44
3540,-15,-243,108,358,-25,41
3545,-14,-230,110,357,-29,42
3550,-21,-239,98,357,-29,41
3555,-18,-244,103,357,-31,40
3560,-17,-244,104,357,-32,39
3565,-14,-239,100,356,-31,40
3570,-14,-239,106,355,-31,39
3575,-12,-243,106,358,-32,40
3580,-14,-243,104,357,-33,41
3585,-14,-242,104,356,-35,41
3590,-17,-246,105,355,-39,40
3595,-12,-259,104,352,-40,39
3600,-21,-242,100,347,-41,38
3605,-24,-242,106,342,-42,36
3610,-18,-232,103,338,-48,37
3615,-15,-244,105,333,-50,36
3620,-14,-245,107,328,-52,34
3625,-15,-243,109,320,-52,31
3630,-13,-248,109,310,-53,27
3635,-14,-246,113,302,-56,24
3640,-11,-245,110,296,-58,19
3645,-10,-247,108,293,-62,17
3650,-7,-247,110,291,-66,16
3655,-7,-248,112,291,-68,14
3660,-9,-245,121,289,-69,13
3665,-8,-244,119,288,-66,12
3670,-6,-242,110,286,-61,13
3675,-6,-243,115,282,-61,13
3680,-5,-241,112,275,-58,12
3685,-2,-235,104,265,-55,12
3690,-2,-237,108,251,-55,10
3695,0,-238,112,231,-53,7
3700,-4,-236,111,210,-51,5
3705,1,-238,113,187,-53,0
3710,-4,-235,116,163,-55,-3
3715,-3,-236,110,142,-58,-6
3720,-3,-236,107,124,-60,-7
3725,-2,-238,115,110,-60,-8
3730,-4,-239,112,98,-57,-7
3735,-1,-240,111,86,-53,-10
3740,-5,-238,108,77,-49,-11
3745,2,-242,110,68,-47,-11
3750,0,-241,111,62,-43,-12
3755,-2,-244,108,59,-42,-12
3760,-2,-243,113,58,-40,-13
3765,1,-244,113,61,-40,-18
3770,0,-244,113,65,-39,-22
3775,0,-244,114,72,-39,-23
3780,-1,-242,113,78,-38,-26
3785,2,-234,108,81,-36,-28
3790,-2,-243,114,83,-32,-30
3795,-3,-242,115,82,-28,-32
3800,-4,-239,112,77,-22,-35
3805,-4,-242,115,71,-14,-37
3810,-4,-240,114,66,-8,-39
3815,-1,-242,114,60,-1,-39
3820,-5,-242,112,55,4,-42
3825,-4,-242,113,48,11,-44
3830,-5,-245,115,42,17,-45
3835,-5,-242,115,36,21,-46
3840,-2,-244,118,33,25,-48
3845,-5,-243,117,29,26,-49
3850,-4,-243,115,27,25,-47
3855,-5,-246,113,25,25,-46
3860,-5,-243,113,26,25,-44
3865,-4,-244,116,26,27,-45
3870,-4,-244,113,27,27,-45
3875,-7,-242,107,27,29,-44
3880,-8,-242,116,26,30,-42
3885,-7,-240,114,24,32,-39
3890,-8,-239,117,20,34,-36
3895,-5,-241,113,17,38,-36
3900,-5,-239,117,16,39,-35
3905,-8,-241,116,18,40,-36
3910,-10,-240,121,26,41,-39
3915,-9,-241,124,35,43,-42
3920,-7,-242,124,46,43,-45
3925,-11,-242,122,57,42,-47
3930,-6,-244,122,65,42,-49
3935,-6,-245,121,70,44,-50
3940,-6,-242,126,74,46,-51
3945,-4,-245,119,77,48,-51
3950,-6,-243,121,73,53,-50
3955,-2,-243,116,65,56,-50
3960,-5,-242,115,55,58,-50
3965,-4,-244,115,44,59,-50
3970,-2,-242,116,33,59,-49
3975,0,-245,119,24,60,-49
3980,-2,-243,113,13,60,-49
3985,-2,-243,116,5,57,-49
3990,-2,-241,114,0,58,-49
3995,-4,-242,116,-4,55,-50
4000,-4,-244,117,-6,52,-51
4005,-3,-237,116,-2,47,-50
4010,-5,-240,113,2,44,-51
4015,-6,-240,117,6,39,-52
4020,-3,-238,116,11,34,-49
4025,-9,-231,114,16,30,-50
4030,-6,-234,114,18,27,-51
4035,-8,-235,113,17,25,-52
4040,-8,-232,113,17,22,-52
4045,-8,-231,118,14,19,-53
4050,-6,-231,117,11,18,-52
4055,-8,-232,114,5,16,-51
4060,-8,-234,115,-5,15,-52
4065,-9,-233,113,-17,16,-53
4070,-9,-235,116,-31,16,-53
4075,-9,-235,112,-42,16,-53
4080,-9,-232,114,-55,16,-52
4085,-7,-239,114,-65,17,-53
4090,-7,-242,116,-71,17,-51
4095,-8,-242,114,-79,18,-50
4100,-9,-242,115,-84,21,-49
4105,-6,-245,111,-88,22,-48
4110,-6,-243,115,-90,22,-47
4115,-5,-246,116,-91,22,-46
4120,-9,-245,116,-92,23,-45
4125,-9,-243,114,-92,22,-44
4130,-7,-246,113,-90,21,-42
4135,-5,-245,116,-88,19,-42
4140,-5,-245,117,-85,18,-41
4145,-4,-245,117,-81,17,-42
4150,-6,-244,117,-76,16,-42
4155,-5,-245,121,-71,14,-42
4160,-4,-246,116,-67,13,-43
4165,-9,-245,118,-64,11,-43
4170,-4,-245,114,-63,9,-45
4175,-5,-242,116,-60,9,-45
4180,-3,-245,116,-59,9,-47
4185,-2,-243,112,-60,9,-46
4190,1,-242,114,-58,8,-46
4195,-3,-243,112,-60,8,-46
4200,-4,-240,115,-61,10,-48
4205,-2,-241,112,-62,12,-48
4210,-2,-245,110,-63,9,-48
4215,-2,-246,115,-64,9,-48
4220,0,-243,115,-64,10,-47
4225,1,-242,112,-65,11,-47
4230,-1,-241,114,-65,11,-47
4235,3,-240,117,-65,13,-45
4240,-1,-242,114,-64,12,-42
4245,0,-241,117,-60,11,-43
4250,2,-241,117,-60,11,-40
4255,-2,-243,116,-61,13,-38
4260,2,-242,113,-60,12,-36
4265,4,-242,110,-60,13,-34
4270,3,-240,113,-60,12,-34
4275,2,-243,113,-60,12,-32
4280,3,-243,114,-60,10,-31
4285,-2,-240,114,-62,10,-31
4290,4,-242,116,-65,9,-29
4295,4,-243,112,-67,10,-29
4300,2,-243,117,-70,10,-29
4305,4,-244,115,-73,12,-28
4310,1,-246,115,-78,15,-26
4315,-1,-241,114,-80,17,-26
4320,2,-244,116,-84,20,-26
4325,4,-243,115,-87,22,-25
4330,4,-245,117,-90,25,-24
4335,1,-242,113,-93,28,-24
4340,3,-245,111,-93,29,-24
4345,3,-246,111,-94,32,-24
4350,2,-244,108,-96,33,-24
4355,2,-243,114,-96,34,-24
4360,4,-248,111,-95,36,-25
4365,3,-244,111,-96,37,-27
4370,4,-244,111,-95,38,-26
4375,4,-243,113,-94,39,-26
4380,4,-246,113,-93,39,-25
4385,3,-248,115,-93,38,-25
4390,4,-243,108,-94,39,-26
4395,4,-245,111,-94,41,-26
4400,4,-246,112,-93,41,-27
4405,4,-245,110,-93,42,-27
4410,5,-242,107,-93,42,-26
4415,1,-245,112,-95,42,-27
4420,6,-244,110,-94,42,-26
4425,4,-244,106,-94,44,-27
4430,4,-245,108,-94,44,-27
4435,4,-246,109,-94,45,-26
4440,7,-246,104,-96,47,-26
4445,4,-244,110,-95,49,-26
4450,4,-246,111,-96,50,-26
4455,5,-246,108,-97,52,-25
4460,3,-246,109,-99,53,-25
4465,3,-248,108,-99,55,-25
4470,4,-247,108,-99,56,-24
4475,4,-247,107,-97,57,-23
4480,4,-248,107,-97,59,-24
4485,4,-251,113,-93,59,-22
4490,4,-249,110,-91,61,-20
4495,4,-245,106,-89,63,-21
4500,2,-244,107,-89,64,-21
4505,2,-247,109,-86,66,-19
4510,3,-244,107,-85,65,-17
4515,4,-249,108,-82,66,-19
4520,4,-250,106,-82,67,-20
4525,3,-248,104,-80,68,-19
4530,4,-249,108,-81,68,-20
4535,4,-250,106,-81,67,-19
4540,4,-251,104,-78,67,-17
4545,3,-246,104,-77,68,-19
4550,4,-249,105,-73,67,-16
4555,3,-248,102,-68,68,-17
4560,4,-249,105,-64,65,-15
4565,4,-252,104,-63,66,-14
4570,4,-249,105,-58,66,-13
4575,2,-248,105,-55,65,-11
4580,5,-247,102,-52,66,-11
4585,4,-248,101,-49,66,-12
4590,5,-248,101,-45,65,-10
4595,4,-248,106,-43,64,-9
4600,2,-247,101,-43,66,-9
4605,4,-250,101,-42,66,-8
4610,4,-249,101,-42,66,-7
4615,3,-248,104,-41,68,-7
4620,2,-247,105,-40,69,-8
4625,4,-247,103,-38,70,-6
4630,2,-247,106,-37,70,-7
4635,4,-250,103,-35,72,-6
4640,4,-251,103,-32,72,-7
4645,3,-248,106,-29,71,-8
4650,3,-249,106,-27,72,-7
4655,5,-246,104,-25,73,-7
4660,0,-249,103,-24,73,-7
4665,1,-249,100,-22,73,-6
4670,3,-246,102,-21,72,-7
4675,2,-247,105,-20,72,-7
4680,4,-248,101,-19,72,-6
4685,3,-247,102,-18,71,-6
4690,4,-247,106,-19,71,-4
4695,4,-252,106,-17,71,-5
4700,4,-247,103,-17,71,-3
4705,4,-247,102,-15,69,-3
4710,2,-249,104,-14,69,-2
4715,3,-248,103,-12,70,-3
4720,4,-248,101,-11,69,-1
4725,4,-249,105,-11,70,-1
4730,3,-248,100,-11,70,0
4735,2,-249,105,-9,70,1
4740,3,-247,104,-8,70,0
4745,1,-248,105,-7,69,0
4750,3,-247,104,-6,69,1
4755,3,-247,105,-3,69,2
4760,3,-248,99,-1,70,1
4765,2,-251,106,1,70,2
4770,7,-248,103,5,70,3
4775,2,-247,104,5,69,1
4780,4,-246,106,8,71,2
4785,4,-245,104,8,70,1
4790,0,-245,104,9,72,1
4795,4,-248,102,10,73,1
4800,4,-245,109,9,74,2
4805,2,-248,109,8,74,2
4810,3,-245,106,7,73,2
4815,2,-245,106,4,74,1
4820,4,-245,104,4,74,0
4825,2,-248,106,3,74,1
4830,4,-248,105,4,74,1
4835,4,-247,103,2,74,2
4840,1,-246,105,3,76,1
4845,4,-251,104,5,75,2
4850,4,-246,102,7,74,2
4855,3,-246,107,9,74,0
4860,3,-246,104,11,75,3
4865,4,-245,105,14,76,2
4870,2,-248,103,14,76,3
4875,5,-250,105,14,76,4
4880,4,-249,103,14,76,5
4885,4,-248,102,15,78,4
4890,4,-251,102,16,77,5
4895,2,-246,103,16,75,5
4900,4,-244,105,17,75,7
4905,4,-249,103,18,76,6
4910,3,-246,107,19,77,6
4915,4,-248,102,21,77,7
4920,4,-247,104,23,78,8
4925,4,-247,105,26,78,8
4930,3,-250,106,27,78,8
4935,2,-245,106,27,77,8
4940,2,-247,107,30,78,9
4945,4,-249,108,33,78,9
4950,4,-249,111,33,78,10
4955,3,-249,104,35,79,10
4960,1,-247,107,36,78,8
4965,2,-244,104,37,79,10
4970,1,-245,104,37,80,10
4975,2,-246,109,37,80,10
4980,4,-245,113,37,80,12
4985,1,-249,105,37,79,10
4990,3,-246,109,39,79,12
4995,2,-248,108,39,80,12
5000,3,-246,108,41,81,12
5005,1,-247,106,43,81,12
5010,3,-247,104,44,81,12
5015,2,-245,105,44,82,12
5020,2,-247,111,43,82,12
5025,4,-244,105,44,83,11
5030,-1,-245,108,44,81,12
5035,3,-247,108,45,82,13
5040,1,-248,106,45,83,12
5045,2,-245,107,46,83,11
5050,2,-245,107,47,82,12
5055,3,-249,111,47,82,12
5060,4,-246,108,48,83,11
5065,1,-245,107,49,84,11
5070,1,-246,109,50,84,11
5075,1,-246,108,50,84,10
5080,1,-244,109,49,84,10
5085,4,-249,107,49,85,10
5090,7,-247,115,48,85,10
5095,2,-245,110,46,86,11
5100,2,-246,109,45,87,10
5105,2,-245,110,43,86,10
5110,2,-246,112,43,86,10
5115,1,-246,108,41,87,11
5120,4,-247,111,41,86,10
5125,1,-244,110,41,86,11
5130,3,-247,111,41,86,9
5135,-2,-243,109,41,86,9
5140,2,-243,109,41,84,10
5145,3,-247,109,42,85,11
5150,-2,-242,113,40,86,10
5155,-1,-244,112,41,84,10
5160,1,-247,112,39,85,9
5165,0,-245,111,39,86,10
5170,1,-245,110,37,85,9
5175,-2,-243,110,36,85,11
5180,3,-248,111,37,87,10
5185,3,-244,113,36,85,9
5190,1,-242,109,34,84,9
5195,1,-247,116,35,84,9
5200,3,-245,113,36,85,9
5205,0,-243,110,35,85,8
5210,-3,-245,111,36,84,7
5215,-1,-245,113,39,83,7
5220,0,-245,109,40,84,7
5225,-3,-246,115,43,84,9
5230,1,-247,111,46,85,10
5235,1,-243,109,46,87,11
5240,1,-249,110,47,86,9
5245,3,-243,110,46,88,10
5250,0,-246,116,45,88,8
5255,-1,-241,114,44,88,10
5260,-1,-246,115,42,87,9
5265,-2,-243,112,41,86,8
5270,1,-247,111,40,86,8
5275,3,-243,110,38,84,7
5280,2,-246,114,37,83,8
5285,2,-245,111,38,82,7
5290,-1,-246,111,37,81,7
5295,1,-244,113,38,82,8
5300,-1,-242,112,39,80,8
5305,2,-245,109,39,80,8
5310,2,-246,113,41,80,7
5315,1,-244,112,43,79,9
5320,-1,-245,113,45,78,10
5325,-1,-241,115,45,78,9
5330,0,-242,116,46,78,9
5335,-2,-240,114,46,77,9
5340,2,-243,113,45,78,10
5345,0,-241,112,44,77,8
5350,2,-242,115,43,78,8
5355,-3,-241,113,42,79,7
5360,2,-244,114,42,80,6
5365,-2,-243,115,43,80,7
5370,-1,-240,116,43,81,8
5375,0,-242,120,42,81,6
5380,-1,-244,119,42,83,6
5385,-3,-243,115,42,84,4
5390,0,-241,115,42,84,5
5395,-2,-246,115,42,85,5
5400,0,-243,114,42,86,3
5405,-3,-243,114,43,84,4
5410,1,-243,116,43,84,4
5415,-1,-243,113,42,85,4
5420,3,-242,110,42,86,5
5425,1,-241,112,41,85,6
5430,-2,-244,116,40,84,6
5435,-2,-244,114,38,83,4
5440,-1,-242,113,37,83,5
5445,4,-243,113,36,82,4
5450,2,-242,117,35,81,5
5455,1,-243,110,35,80,5
5460,1,-242,113,34,79,5
5465,1,-242,114,34,79,5
5470,-1,-246,118,33,79,4
5475,-2,-241,115,33,78,5
5480,3,-245,115,34,76,5
5485,0,-245,117,34,77,6
5490,1,-244,116,36,77,6
5495,-1,-242,115,37,76,6
5500,-3,-240,113,38,76,6
5505,-2,-243,117,37,77,6
5510,0,-239,114,38,77,5
5515,-3,-242,117,38,78,5
5520,-9,-241,114,39,78,6
5525,-2,-240,114,38,78,5
5530,1,-242,116,38,79,5
5535,-1,-242,115,38,78,4
5540,-5,-242,117,37,78,4
5545,0,-241,121,35,79,4
5550,4,-244,117,35,77,3
5555,-4,-242,118,36,76,4
5560,1,-242,117,35,77,3
5565,-1,-240,118,38,77,4
5570,0,-241,119,38,77,4
5575,-4,-241,118,38,78,4
5580,-3,-244,117,40,77,6
5585,-2,-244,115,42,77,5
5590,0,-242,117,42,76,5
5595,1,-242,117,43,76,6
5600,-3,-239,117,41,75,4
5605,1,-240,115,41,75,3
5610,1,-243,119,39,74,4
5615,1,-242,115,38,73,4
5620,-3,-243,116,38,73,4
5625,-1,-240,117,37,72,4
5630,0,-241,119,36,72,4
5635,-7,-241,124,36,72,4
5640,3,-242,117,35,72,4
5645,-3,-239,117,36,73,3
5650,-3,-240,118,35,73,3
5655,-1,-242,121,36,73,3
5660,2,-243,118,36,73,3
5665,1,-244,117,36,73,2
5670,-1,-240,118,36,73,3
5675,-2,-246,117,37,73,2
5680,2,-242,117,36,71,3
5685,1,-242,121,38,72,2
5690,1,-242,117,38,72,2
5695,-4,-242,120,39,72,2
5700,-2,-240,118,38,72,3
5705,-2,-240,117,40,74,2
5710,1,-238,120,39,73,3
5715,-1,-243,120,37,72,4
5720,-3,-239,119,38,72,4
5725,-2,-239,118,37,73,3
5730,-2,-241,120,38,73,2
5735,-1,-243,120,36,72,2
5740,1,-242,117,38,72,3
5745,0,-245,118,38,72,2
5750,1,-242,119,38,72,2
5755,0,-244,121,38,72,2
5760,3,-243,120,41,73,2
5765,0,-242,118,41,73,2
5770,-2,-239,120,41,75,3
5775,-3,-239,118,42,74,3
5780,-2,-239,120,42,74,4
5785,-2,-241,120,41,74,3
5790,-3,-242,123,42,75,3
5795,-3,-237,121,42,74,2
5800,-2,-241,119,42,74,2
5805,1,-242,120,42,74,2
5810,0,-241,120,41,74,3
5815,2,-240,119,41,75,3
5820,-1,-239,120,42,76,4
5825,1,-240,120,41,77,2
5830,-3,-239,122,40,77,1
5835,-2,-241,121,42,76,3
5840,-3,-236,124,41,77,2
5845,-3,-241,122,39,77,2
5850,-3,-238,119,40,77,2
5855,-3,-239,120,39,76,2
5860,-2,-236,122,39,75,3
5865,-4,-239,122,39,76,3
5870,2,-241,125,39,76,2
5875,2,-241,117,38,76,2
5880,0,-240,125,40,74,3
5885,-3,-239,123,40,73,2
5890,-2,-240,124,39,74,3
5895,-2,-237,121,39,74,4
5900,-1,-241,119,39,74,4
5905,0,-239,120,39,75,4
5910,-2,-241,123,39,76,4
5915,-3,-236,123,40,78,4
5920,-3,-238,123,39,76,5
5925,1,-239,120,38,75,4
5930,-1,-241,121,37,76,3
5935,1,-239,121,37,77,3
5940,-2,-240,123,38,76,2
5945,3,-242,122,38,75,1
5950,-2,-237,122,40,76,3
5955,1,-239,123,41,76,3
5960,-4,-240,122,42,79,3
5965,0,-242,121,42,79,3
5970,-5,-237,118,42,79,3
5975,2,-242,122,41,80,3
5980,-2,-238,123,39,81,3
5985,1,-239,124,36,81,3
5990,1,-241,123,35,81,2
5995,-4,-240,122,34,80,1
6000,-2,-241,123,33,80,1
6005,-3,-240,123,31,78,2
6010,-1,-237,125,31,77,2
6015,-1,-237,121,31,74,0
6020,1,-240,120,30,74,1
6025,-1,-236,124,30,74,4
6030,-3,-237,125,29,72,2
6035,-3,-238,124,27,71,2
6040,2,-238,126,27,70,0
6045,0,-236,121,27,71,2
6050,-3,-238,124,26,70,2
6055,-3,-235,122,26,69,1
6060,-2,-238,126,25,69,0
6065,0,-238,122,24,69,1
6070,-5,-236,121,22,68,2
6075,-5,-238,128,21,69,1
6080,0,-235,124,21,71,0
6085,-4,-238,125,20,71,1
6090,-6,-236,123,20,73,0
6095,-3,-238,125,19,73,0
6100,-2,-238,128,20,74,-1
6105,-1,-238,124,21,75,-2
6110,-3,-237,124,22,76,-3
6115,-4,-234,127,24,77,-2
6120,-3,-235,126,25,77,-4
6125,-4,-238,128,26,77,-4
6130,-3,-234,125,27,80,-2
6135,-1,-238,126,28,79,-1
6140,-4,-240,122,27,80,0
6145,-3,-237,124,28,81,0
6150,-4,-239,125,27,80,0
6155,-1,-238,122,27,80,1
6160,0,-237,124,27,79,2
6165,-1,-238,122,25,78,2
6170,-3,-237,121,25,76,1
6175,-1,-235,119,24,75,1
6180,-3,-233,120,23,75,1
6185,-4,-239,124,21,75,0
6190,-5,-237,124,19,74,0
6195,-1,-239,119,19,75,1
6200,-2,-239,125,18,74,1
6205,-2,-235,119,17,73,0
6210,-1,-239,126,17,74,0
6215,-2,-239,124,16,73,0
6220,0,-237,123,16,74,-1
6225,-3,-238,126,15,74,0
6230,-4,-239,124,17,74,-1
6235,0,-238,123,16,73,0
6240,-3,-236,123,15,74,1
6245,-3,-238,125,16,74,0
6250,-5,-237,125,15,75,0
6255,-2,-239,126,15,75,0
6260,-4,-238,123,16,75,0
6265,-3,-239,123,17,75,0
6270,-4,-237,127,16,74,-1
6275,-3,-238,128,15,75,0
6280,-5,-235,128,16,75,0
6285,-2,-236,129,14,74,-1
6290,-7,-239,121,15,75,0
6295,-1,-236,127,15,75,0
6300,0,-236,127,16,75,0
6305,-4,-238,125,16,74,0
6310,-3,-237,128,17,74,0
6315,-5,-234,126,17,73,0
6320,-3,-238,125,17,72,0
6325,-2,-237,127,16,72,1
6330,-2,-236,124,14,72,2
6335,-3,-236,124,15,72,0
6340,0,-236,125,14,72,1
6345,-2,-233,123,12,71,0
6350,-2,-237,124,11,70,0
6355,-4,-237,125,11,72,1
6360,-4,-236,125,11,71,2
6365,-5,-235,122,10,71,2
6370,-4,-235,124,10,72,-1
6375,-4,-238,128,9,74,-1
6380,-6,-235,124,8,74,-2
6385,-4,-238,129,8,74,-1
6390,0,-234,125,6,76,-2
6395,-4,-236,128,6,76,-2
6400,3,-237,130,5,76,-2
6405,2,-237,129,5,74,-2
6410,-3,-234,127,5,74,-1
6415,-2,-239,124,5,74,-2
6420,-4,-240,127,6,74,-2
6425,-4,-235,128,5,74,-3
6430,1,-235,127,5,75,-3
6435,0,-237,123,6,75,-3
6440,-4,-234,125,6,75,-3
6445,-4,-236,125,5,74,-3
6450,-3,-236,126,4,74,-4
6455,-3,-235,126,3,74,-3
6460,-4,-238,126,2,73,-1
6465,1,-238,123,2,74,-3
6470,-2,-237,126,2,73,-2
6475,-2,-237,125,2,73,-2
6480,0,-239,126,2,73,-3
6485,-4,-236,124,1,73,-2
6490,-1,-233,125,2,73,-2
6495,-1,-237,126,1,74,-2
6500,-5,-237,124,2,74,-1
6505,-3,-236,128,1,76,-1
6510,-5,-239,130,3,75,-1
6515,-3,-236,126,1,74,0
6520,-2,-237,128,0,74,1
6525,-2,-239,128,2,74,0
6530,-2,-237,128,3,74,-1
6535,0,-239,129,2,74,-1
6540,-3,-235,127,3,74,0
6545,-2,-238,129,4,74,-1
6550,0,-235,125,3,73,-1
6555,-4,-238,128,4,76,-1
6560,0,-237,125,3,74,-2
6565,0,-238,125,3,74,-1
6570,-2,-237,125,3,74,-2
6575,-5,-235,125,1,74,0
6580,1,-238,126,2,75,-1
6585,-3,-239,125,1,74,-3
6590,-5,-235,126,2,75,-2
6595,-3,-235,127,3,74,-2
6600,-4,-235,127,4,74,-1
6605,-4,-239,128,4,75,-1
6610,-5,-235,128,3,75,-1
6615,-3,-240,126,3,74,0
6620,-2,-236,128,4,75,-2
6625,-6,-235,131,3,74,-1
6630,-4,-236,126,4,76,-2
6635,-1,-234,126,4,76,-1
6640,-5,-237,127,3,76,-1
6645,-3,-234,131,3,76,-1
6650,-7,-234,128,3,76,-1
6655,-5,-235,128,3,76,-2
6660,-3,-236,128,2,76,-1
6665,-5,-235,128,1,76,-2
6670,-3,-236,127,0,76,-2
6675,-5,-236,130,0,75,-3
6680,-2,-240,128,0,75,-2
6685,-2,-238,129,1,75,-1
6690,-4,-238,127,3,76,-1
6695,-5,-236,127,4,77,-2
6700,-4,-237,127,5,77,-3
6705,-4,-237,128,7,76,-2
6710,-4,-236,125,7,77,-1
6715,-4,-237,127,8,75,-1
6720,-4,-235,127,8,75,-1
6725,-1,-238,129,8,76,-2
6730,-4,-234,127,6,75,-2
6735,-4,-236,126,6,72,-2
6740,-3,-237,128,4,73,-2
6745,1,-238,127,4,73,-2
6750,-4,-237,124,3,71,-3
6755,-5,-236,128,4,71,-3
6760,-2,-235,129,6,71,-2
6765,-3,-236,125,7,70,-3
6770,-3,-234,127,6,71,-4
6775,-4,-236,127,7,70,-1
6780,-5,-235,127,7,69,-3
6785,-5,-237,127,8,71,-2
6790,-5,-234,128,8,71,-2
6795,-4,-234,127,7,70,0
6800,-7,-236,130,6,70,-1
6805,-1,-235,128,6,69,0
6810,-1,-233,127,4,70,0
6815,-4,-233,128,2,71,-1
6820,-5,-235,129,0,70,-2
6825,-1,-236,127,-1,71,-3
6830,-3,-238,139,0,69,-2
6835,-4,-234,127,0,71,-2
6840,-5,-238,127,2,73,-3
6845,-4,-233,130,2,73,-3
6850,-3,-237,129,4,75,-5
6855,0,-237,126,5,75,-5
6860,-6,-234,128,7,78,-5
6865,-3,-231,126,7,77,-5
6870,-4,-233,130,7,79,-4
6875,-2,-236,129,8,79,-6
6880,-5,-236,129,8,80,-3
6885,-1,-235,128,8,79,-2
6890,-3,-236,129,9,78,-3
6895,-5,-234,130,9,79,-3
6900,-3,-235,127,9,78,-3
6905,-5,-234,128,8,77,-2
6910,-3,-236,129,5,76,-1
6915,-6,-235,128,6,75,0
6920,-3,-236,127,5,74,0
6925,-3,-235,127,3,73,1
6930,-3,-235,127,2,72,2
6935,-3,-238,128,1,71,0
6940,-4,-238,127,0,70,0
6945,-3,-234,125,-3,70,0
6950,-2,-235,126,-4,70,0
6955,0,-235,127,-6,70,0
6960,1,-236,127,-8,69,-1
6965,-1,-235,125,-8,69,-1
6970,-4,-233,124,-10,69,0
6975,-3,-234,126,-12,68,1
6980,-4,-235,128,-16,67,0
6985,-7,-235,123,-21,68,0
6990,0,-236,127,-23,66,2
6995,-4,-236,128,-28,68,1
7000,-3,-237,127,-33,68,1
7005,-4,-235,128,-36,68,1
7010,-4,-236,123,-44,69,1
7015,-4,-234,128,-49,70,2
7020,-5,-234,130,-54,69,0
7025,-3,-234,127,-61,69,0
7030,-4,-238,126,-67,70,1
7035,-3,-234,131,-73,69,-1
7040,-4,-236,128,-77,70,0
7045,-2,-236,128,-80,69,2
7050,-8,-236,130,-85,69,0
7055,-4,-233,125,-89,69,-1
7060,-3,-232,130,-95,69,-2
7065,-5,-233,127,-99,69,-4
7070,-4,-231,129,-103,69,-4
7075,-6,-231,130,-107,69,-5
7080,-4,-231,129,-112,69,-5
7085,-6,-234,129,-117,71,-7
7090,-1,-233,128,-121,72,-9
7095,-7,-229,131,-126,74,-10
7100,3,-234,126,-130,75,-12
7105,-3,-233,126,-134,78,-12
7110,-5,-234,129,-138,80,-13
7115,-4,-235,126,-141,79,-13
7120,-5,-234,128,-143,79,-12
7125,-3,-235,130,-144,78,-12
7130,-1,-234,128,-143,78,-13
7135,-4,-235,129,-144,77,-14
7140,-4,-230,127,-143,77,-15
7145,-3,-235,124,-143,78,-13
7150,-3,-234,127,-143,78,-13
7155,-3,-234,128,-143,78,-13
7160,-5,-237,129,-146,78,-13
7165,-2,-236,126,-146,76,-14
7170,-3,-233,127,-148,74,-14
7175,-3,-235,124,-151,73,-14
7180,-2,-234,125,-154,73,-15
7185,-5,-233,127,-156,72,-15
7190,-5,-234,124,-158,70,-15
7195,-3,-234,124,-161,68,-17
7200,-4,-235,127,-166,68,-17
7205,-2,-234,127,-169,67,-17
7210,-4,-235,125,-174,66,-18
7215,-4,-233,124,-178,65,-21
7220,-2,-234,123,-184,64,-21
7225,-4,-232,123,-190,63,-22
7230,1,-236,122,-196,64,-22
7235,-5,-236,126,-201,64,-24
7240,-5,-234,123,-207,63,-25
7245,-6,-236,119,-212,64,-25
7250,-5,-237,118,-219,64,-26
7255,-3,-234,124,-226,64,-26
7260,0,-234,119,-233,65,-27
7265,-2,-238,118,-239,64,-29
7270,-3,-236,117,-247,63,-30
7275,-2,-239,118,-255,63,-30
7280,-2,-237,119,-262,63,-32
7285,-2,-238,115,-269,62,-32
7290,-6,-237,116,-275,61,-32
7295,-5,-237,118,-281,62,-33
7300,-9,-239,114,-285,61,-33
7305,-4,-238,115,-289,60,-35
7310,-3,-238,113,-293,57,-35
7315,-6,-238,114,-298,55,-36
7320,-3,-238,111,-300,52,-37
7325,-6,-238,112,-304,51,-38
7330,-2,-238,113,-307,50,-39
7335,-4,-239,112,-311,47,-41
7340,-5,-240,111,-315,44,-40
7345,-4,-237,111,-322,42,-40
7350,-5,-236,109,-327,40,-41
7355,-5,-239,113,-331,38,-41
7360,-7,-239,111,-334,35,-41
7365,-1,-239,110,-337,33,-43
7370,-3,-240,112,-343,30,-42
7375,-3,-241,108,-348,28,-43
7380,-6,-236,110,-356,25,-43
7385,-4,-236,109,-363,22,-44
7390,-6,-237,109,-370,19,-45
7395,-4,-236,113,-378,18,-44
7400,-8,-236,115,-385,14,-43
7405,-6,-236,111,-393,14,-41
7410,-8,-238,111,-399,14,-40
7415,-6,-240,110,-406,12,-40
7420,-2,-240,107,-413,12,-41
7425,-1,-239,110,-420,12,-42
7430,-2,-235,110,-430,14,-45
7435,-3,-239,112,-441,13,-47
7440,-3,-238,110,-452,16,-49
7445,-4,-239,114,-466,15,-50
7450,-2,-237,112,-481,16,-53
7455,-4,-238,111,-497,16,-55
7460,-5,-239,108,-514,18,-57
7465,-1,-238,106,-532,19,-61
7470,1,-240,111,-549,20,-63
7475,0,-240,111,-566,21,-66
7480,-3,-239,113,-583,23,-70
7485,-4,-239,109,-596,21,-74
7490,2,-241,111,-608,21,-75
7495,-6,-241,107,-618,22,-78
7500,0,-241,108,-627,21,-81
7505,-3,-244,108,-634,22,-81
7510,-4,-240,107,-640,23,-82
7515,3,-242,108,-646,23,-81
7520,0,-239,107,-652,26,-84
7525,0,-240,104,-657,26,-85
7530,-1,-237,111,-665,26,-85
7535,1,-241,104,-673,25,-84
7540,3,-240,102,-681,27,-88
7545,4,-243,101,-693,28,-92
7550,1,-243,100,-705,30,-94
7555,0,-241,98,-717,30,-96
7560,2,-244,97,-728,31,-98
7565,2,-243,93,-737,34,-100
7570,4,-247,93,-744,36,-103
7575,2,-244,94,-750,37,-106
7580,2,-245,90,-757,38,-109
7585,4,-246,89,-764,39,-111
7590,4,-248,84,-771,41,-114
7595,6,-250,84,-781,44,-117
7600,3,-248,88,-793,45,-119
7605,4,-248,83,-805,45,-123
7610,3,-248,84,-816,46,-127
7615,4,-252,83,-826,47,-129
7620,4,-252,82,-832,49,-131
7625,4,-252,81,-835,50,-130
7630,5,-253,76,-835,51,-131
7635,7,-258,75,-837,52,-132
7640,4,-253,75,-838,51,-133
7645,7,-255,74,-838,49,-135
7650,8,-253,69,-838,46,-136
7655,6,-256,71,-842,43,-135
7660,5,-256,68,-846,41,-136
7665,9,-259,68,-852,42,-134
7670,10,-258,66,-861,42,-134
7675,12,-259,64,-873,43,-133
7680,9,-257,63,-888,44,-132
7685,10,-259,64,-899,47,-132
7690,13,-261,64,-914,49,-132
7695,12,-261,63,-929,53,-132
7700,15,-258,65,-945,55,-129
7705,12,-261,66,-961,58,-126
7710,9,-260,63,-979,64,-122
7715,10,-258,64,-997,69,-118
7720,10,-261,62,-1013,74,-114
7725,9,-265,63,-1026,75,-108
7730,10,-263,63,-1036,74,-103
7735,11,-266,62,-1042,74,-98
7740,9,-264,64,-1050,76,-90
7745,10,-268,61,-1054,77,-84
7750,14,-273,57,-1057,80,-79
7755,14,-277,58,-1060,80,-73
7760,13,-276,57,-1063,81,-69
7765,14,-280,52,-1061,81,-67
7770,13,-281,49,-1059,80,-65
7775,11,-281,47,-1060,79,-64
7780,13,-285,44,-1065,81,-60
7785,14,-290,43,-1072,87,-54
7790,16,-292,38,-1083,94,-49
7795,17,-298,30,-1100,103,-45
7800,16,-296,23,-1118,118,-39
7805,19,-299,20,-1138,131,-36
7810,16,-299,9,-1156,143,-32
7815,16,-303,7,-1176,152,-30
7820,16,-308,2,-1196,163,-29
7825,13,-313,-2,-1216,173,-25
7830,15,-316,-10,-1238,181,-24
7835,17,-319,-10,-1261,185,-24
7840,17,-319,-18,-1278,189,-25
7845,15,-323,-21,-1286,191,-26
7850,14,-325,-26,-1280,190,-27
7855,13,-326,-29,-1263,186,-29
7860,14,-328,-35,-1237,184,-27
7865,11,-327,-36,-1202,184,-21
7870,13,-331,-40,-1155,183,-12
7875,17,-330,-37,-1103,184,-1
7880,15,-332,-44,-1049,186,11
7885,16,-330,-47,-996,187,21
7890,12,-334,-46,-940,188,32
7895,13,-333,-49,-879,188,44
7900,12,-337,-53,-819,186,55
7905,9,-335,-51,-761,183,65
7910,10,-337,-51,-703,184,73
7915,11,-346,-50,-650,186,80
7920,10,-339,-49,-600,192,87
7925,6,-338,-46,-556,199,89
7930,6,-339,-43,-514,208,92
7935,6,-337,-43,-477,218,94
7940,5,-334,-43,-442,226,96
7945,5,-330,-34,-413,230,97
7950,6,-325,-41,-390,235,99
7955,4,-320,-37,-373,234,99
7960,4,-317,-36,-367,229,96
7965,5,-310,-31,-366,223,92
7970,3,-302,-35,-368,214,92
7975,4,-298,-33,-374,208,91
7980,3,-293,-35,-382,204,89
7985,3,-285,-31,-393,199,84
7990,4,-277,-31,-407,194,78
7995,4,-276,-28,-422,188,71
8000,-1,-272,-26,-435,186,61
8005,2,-270,-27,-446,181,50
8010,3,-269,-28,-454,174,35
8015,5,-268,-25,-460,167,23
8020,8,-265,-12,-463,161,11
8025,3,-259,-20,-462,152,0
8030,4,-259,-19,-459,144,-12
8035,5,-258,-26,-457,137,-20
8040,4,-256,-16,-453,128,-29
8045,3,-253,-18,-447,121,-33
8050,4,-253,-23,-442,113,-40
8055,4,-254,-27,-435,105,-45
8060,3,-253,-21,-431,99,-52
8065,4,-255,-29,-425,91,-60
8070,4,-255,-29,-420,82,-68
8075,2,-256,-28,-416,77,-72
8080,2,-254,-30,-413,67,-74
8085,5,-256,-34,-412,60,-75
8090,4,-259,-37,-406,50,-80
8095,2,-262,-37,-400,39,-84
8100,2,-262,-39,-386,26,-90
8105,5,-267,-40,-369,15,-91
8110,4,-268,-45,-346,5,-90
8115,4,-272,-42,-322,0,-89
8120,5,-274,-43,-289,-7,-96
8125,3,-277,-42,-250,-15,-100
8130,-4,-279,-55,-208,-21,-98
8135,4,-282,-46,-155,-32,-99
8140,4,-281,-42,-105,-38,-97
8145,0,-286,-42,-60,-42,-96
8150,2,-284,-46,-5,-49,-97
8155,3,-283,-41,50,-55,-95
8160,5,-286,-44,103,-59,-92
8165,0,-283,-43,150,-63,-89
8170,2,-287,-42,193,-62,-89
8175,4,-285,-42,231,-62,-84
8180,4,-285,-37,265,-65,-75
8185,4,-285,-37,294,-68,-68
8190,6,-282,-36,323,-71,-60
8195,5,-283,-37,347,-72,-52
8200,3,-277,-35,374,-72,-47
8205,4,-283,-33,403,-71,-37
8210,4,-280,-35,433,-70,-24
8215,6,-275,-31,460,-71,-10
8220,5,-276,-28,491,-72,0
8225,5,-272,-31,523,-73,13
8230,6,-270,-27,551,-73,24
8235,4,-277,-29,576,-72,36
8240,5,-264,-31,595,-71,43
8245,5,-262,-30,607,-70,54
8250,6,-259,-30,621,-70,63
8255,8,-257,-32,632,-67,69
8260,8,-254,-32,642,-61,75
8265,11,-254,-28,645,-53,79
8270,11,-248,-30,649,-42,84
8275,6,-244,-27,651,-32,90
8280,8,-243,-30,646,-23,94
8285,11,-239,-26,637,-14,97
8290,8,-236,-29,625,-9,97
8295,5,-235,-29,615,-4,99
8300,9,-237,-30,604,1,103
8305,8,-234,-30,592,10,103
8310,8,-237,-29,580,24,107
8315,5,-233,-23,571,38,110
8320,5,-235,-22,570,49,111
8325,5,-236,-20,574,58,113
8330,6,-237,-19,588,62,113
8335,4,-232,-15,602,64,110
8340,4,-235,-19,618,64,113
8345,4,-234,-17,632,62,113
8350,5,-230,-16,641,60,114
8355,4,-228,-17,647,60,114
8360,5,-229,-15,648,59,116
8365,6,-230,-17,646,59,114
8370,4,-230,-14,642,58,113
8375,5,-228,-16,638,57,114
8380,6,-230,-19,633,58,113
8385,5,-227,-13,629,55,111
8390,6,-230,-12,626,52,111
8395,4,-232,-10,622,51,112
8400,7,-229,-11,616,53,113
8405,6,-229,-11,617,57,113
8410,9,-230,-13,616,60,114
8415,5,-231,-15,614,64,114
8420,3,-230,-11,609,63,115
8425,4,-233,-12,606,60,116
8430,4,-231,-11,605,55,121
8435,3,-232,-14,606,49,126
8440,6,-234,-14,608,46,131
8445,4,-232,-15,611,45,134
8450,4,-230,-11,612,42,138
8455,4,-233,-9,613,40,143
8460,4,-229,-13,612,38,146
8465,4,-229,-14,609,39,148
8470,5,-231,-11,606,40,153
8475,4,-231,-11,599,44,155
8480,5,-230,-11,595,51,158
8485,5,-235,-9,590,54,157
8490,6,-232,-9,585,61,158
8495,3,-236,-2,577,67,158
8500,7,-237,-7,567,74,159
8505,9,-237,-8,561,75,156
8510,5,-233,-10,561,80,151
8515,5,-238,-6,558,81,147
8520,11,-239,-5,554,84,143
8525,8,-241,-4,548,88,140
8530,7,-241,-2,540,92,136
8535,8,-239,-1,531,94,132
8540,11,-244,-1,521,95,126
8545,8,-244,-3,513,95,124
8550,9,-245,0,504,98,120
8555,14,-248,3,493,102,115
8560,10,-249,0,483,106,110
8565,11,-249,1,474,113,106
8570,9,-248,0,473,120,99
8575,8,-249,1,475,126,92
8580,8,-251,4,470,131,83
8585,8,-250,1,464,131,75
8590,7,-250,0,455,135,65
8595,6,-251,1,444,139,56
8600,5,-252,1,430,143,49
8605,3,-252,2,417,148,43
8610,4,-254,5,402,154,39
8615,0,-252,9,389,158,33
8620,0,-254,8,378,163,27
8625,0,-255,13,370,167,23
8630,1,-255,12,363,169,17
8635,-1,-254,9,360,169,12
8640,-2,-257,14,356,169,9
8645,-2,-256,10,352,170,7
8650,-2,-256,16,346,170,5
8655,2,-257,16,341,170,4
8660,1,-258,13,340,168,3
8665,3,-258,23,340,170,1
8670,4,-263,18,342,172,1
8675,0,-260,21,342,172,2
8680,3,-259,21,342,176,2
8685,2,-261,20,343,178,2
8690,4,-258,23,346,180,3
8695,2,-258,18,347,184,0
8700,1,-257,27,346,187,-1
8705,3,-256,23,345,189,-3
8710,4,-259,24,343,192,-4
8715,0,-262,27,340,194,-5
8720,3,-259,27,337,198,-7
8725,2,-258,28,336,197,-9
8730,2,-260,30,334,197,-12
8735,4,-259,29,334,197,-15
8740,1,-258,33,334,198,-17
8745,-3,-258,30,333,196,-20
8750,-1,-257,37,333,194,-21
8755,1,-261,31,331,191,-23
8760,1,-257,35,328,188,-26
8765,2,-259,32,326,185,-27
8770,-1,-255,38,324,182,-26
8775,0,-258,37,322,180,-27
8780,-1,-254,38,320,178,-27
8785,-2,-257,39,315,172,-26
8790,0,-256,39,312,171,-25
8795,-5,-257,41,309,168,-25
8800,-5,-256,37,309,168,-22
8805,-4,-256,41,307,166,-19
8810,-1,-255,41,300,163,-18
8815,-5,-257,43,292,161,-14
8820,-7,-256,44,282,160,-13
8825,-4,-256,41,273,159,-11
8830,2,-259,54,265,158,-10
8835,-5,-256,46,257,154,-9
8840,-4,-256,47,254,153,-8
8845,-5,-257,49,253,151,-7
8850,-5,-256,49,251,148,-7
8855,-7,-254,50,248,145,-6
8860,-5,-255,46,243,143,-5
8865,-3,-255,50,239,141,-5
8870,1,-256,48,231,140,-5
8875,-3,-256,51,225,140,-4
8880,-3,-256,46,217,139,-4
8885,-9,-256,48,208,139,-5
8890,-3,-255,51,200,137,-6
8895,-1,-257,50,193,137,-7
8900,-4,-257,54,188,137,-8
8905,-5,-257,47,183,137,-10
8910,-3,-257,48,176,138,-10
8915,1,-260,49,170,135,-12
8920,1,-259,48,164,134,-14
8925,-6,-258,50,163,134,-14
8930,-8,-257,46,162,134,-15
8935,-2,-259,54,161,133,-16
8940,-2,-258,52,158,130,-18
8945,-5,-256,52,153,127,-18
8950,-6,-258,58,147,125,-18
8955,-5,-259,56,140,123,-16
8960,-5,-259,56,133,119,-15
8965,-6,-259,53,124,117,-12
8970,-6,-260,58,117,115,-11
8975,-5,-257,58,111,112,-10
8980,-10,-258,55,105,109,-7
8985,-3,-262,52,103,106,-4
8990,-4,-257,52,103,103,0
8995,-4,-257,47,103,100,3
9000,-7,-257,48,103,97,8
9005,-7,-260,52,104,95,15
9010,-8,-259,53,103,93,20
9015,-6,-260,56,103,93,25
9020,-5,-260,53,101,95,28
9025,-3,-261,55,100,102,28
9030,-7,-262,55,102,112,27
9035,-4,-262,54,107,124,24
9040,-4,-259,57,112,132,24
9045,-4,-259,55,118,139,22
9050,-2,-261,54,123,143,20
9055,-5,-262,58,128,146,20
9060,-7,-261,55,131,144,20
9065,-7,-259,56,134,140,20
9070,-3,-263,57,134,139,20
9075,-7,-262,56,136,135,19
9080,-6,-265,54,138,133,19
9085,-3,-264,60,137,132,20
9090,-6,-262,56,138,129,21
9095,-6,-263,58,142,125,19
9100,-6,-259,61,149,120,19
9105,-4,-261,61,156,113,21
9110,-5,-259,58,164,108,22
9115,-5,-258,63,171,104,23
9120,-6,-259,62,173,104,25
9125,-6,-258,60,175,104,25
9130,-7,-258,61,173,104,26
9135,-7,-257,65,168,107,28
9140,-6,-258,59,165,108,28
9145,-6,-256,60,161,111,26
9150,-5,-258,60,160,111,29
9155,-5,-257,64,159,111,30
9160,-8,-254,65,160,113,31
9165,-8,-255,65,160,116,31
9170,-9,-256,65,157,117,32
9175,-11,-252,63,154,118,32
9180,-7,-251,65,147,118,32
9185,-8,-251,65,138,116,32
9190,-7,-250,62,123,113,33
9195,-6,-248,65,110,109,34
9200,-9,-249,64,96,101,34
9205,-8,-249,59,83,96,33
9210,-6,-250,63,69,89,32
9215,-7,-246,63,55,83,31
9220,-6,-249,61,40,81,28
9225,-6,-246,65,25,78,25
9230,-4,-249,65,10,78,21
9235,-7,-250,64,-1,76,18
9240,-3,-253,63,-14,74,14
9245,-7,-252,64,-25,73,9
9250,-4,-252,68,-34,73,5
9255,-4,-256,67,-42,73,-2
9260,-2,-259,66,-48,74,-6
9265,-5,-258,64,-52,74,-12
9270,-7,-258,64,-54,75,-17
9275,-5,-264,64,-54,75,-22
9280,-6,-263,67,-50,79,-25
9285,-9,-262,65,-44,82,-27
9290,-5,-264,65,-37,88,-33
9295,-10,-265,65,-27,92,-35
9300,-7,-264,66,-18,96,-36
9305,-8,-266,66,-8,99,-37
9310,-4,-270,66,1,102,-39
9315,-4,-264,69,8,104,-40
9320,-10,-265,66,15,106,-39
9325,-10,-263,65,19,106,-41
9330,-9,-259,67,24,108,-41
9335,-8,-260,68,26,106,-40
9340,-12,-258,63,29,104,-41
9345,-10,-258,67,30,100,-39
9350,-10,-258,65,30,98,-38
9355,-9,-261,66,31,97,-39
9360,-7,-258,66,32,94,-38
9365,-9,-259,66,33,93,-35
9370,-7,-257,66,34,90,-34
9375,-12,-256,67,36,87,-34
9380,-9,-256,67,38,87,-33
9385,-8,-256,67,39,84,-34
9390,-9,-254,69,39,84,-34
9395,-6,-259,70,38,82,-34
9400,-7,-257,72,40,81,-34
9405,-7,-257,68,39,81,-34
9410,-8,-256,68,40,79,-37
9415,-8,-257,72,45,78,-36
9420,-6,-261,72,45,76,-35
9425,-6,-258,70,48,78,-36
9430,-8,-258,74,49,78,-36
9435,-6,-259,73,50,79,-36
9440,-6,-257,70,51,79,-37
9445,-5,-260,71,52,77,-38
9450,-6,-257,70,52,77,-38
9455,-2,-258,76,54,76,-37
9460,-5,-258,70,55,75,-37
9465,-4,-258,70,58,75,-36
9470,-7,-257,69,59,76,-35
9475,-3,-257,68,61,76,-35
9480,-2,-258,70,61,77,-33
9485,-2,-259,74,62,79,-33
9490,-6,-255,68,63,82,-34
9495,-2,-257,73,63,82,-34
9500,-1,-255,74,61,87,-32
9505,0,-256,74,60,90,-33
9510,-3,-254,71,60,94,-33
9515,-3,-256,72,59,95,-35
9520,-1,-256,74,59,98,-35
9525,-3,-256,72,58,99,-36
9530,-9,-260,71,56,101,-36
9535,-6,-256,73,54,104,-37
9540,-4,-255,72,50,103,-37
9545,-4,-256,73,48,104,-38
9550,-8,-256,76,47,104,-36
9555,-5,-256,75,43,105,-37
9560,-6,-257,76,41,104,-37
9565,-5,-253,72,40,104,-36
9570,-5,-256,76,37,104,-35
9575,-3,-259,74,36,103,-36
9580,-8,-255,71,34,103,-35
9585,-5,-255,76,33,104,-35
9590,-8,-256,74,32,105,-34
9595,-8,-257,77,33,104,-34
9600,-8,-256,75,33,103,-34
9605,-10,-255,73,33,103,-33
9610,-9,-256,70,35,102,-31
9615,-8,-256,75,33,100,-31
9620,-9,-255,74,33,98,-31
9625,-7,-257,73,34,96,-30
9630,-7,-255,75,35,94,-29
9635,-9,-257,72,36,91,-29
9640,-9,-257,77,36,90,-28
9645,-8,-257,72,36,88,-27
9650,-8,-256,75,35,86,-25
9655,-7,-255,78,34,85,-25
9660,-5,-255,73,33,82,-25
9665,-7,-254,75,34,80,-23
9670,-7,-255,75,35,78,-20
9675,-6,-253,78,36,77,-20
9680,-6,-254,81,36,76,-18
9685,-4,-257,82,36,73,-18
9690,-6,-255,77,37,72,-19
9695,-4,-255,76,37,71,-18
9700,-2,-256,77,36,69,-18
9705,-6,-257,76,35,66,-17
9710,-7,-256,79,33,65,-15
9715,-5,-255,77,32,65,-13
9720,-5,-256,73,29,63,-11
9725,-5,-253,76,28,62,-11
9730,-5,-254,72,28,62,-10
9735,-6,-257,75,29,61,-10
9740,-2,-256,75,28,59,-10
9745,-5,-259,72,29,58,-7
9750,-3,-256,75,30,56,-5
9755,-7,-254,78,31,56,-5
9760,-3,-259,76,32,55,-2
9765,-4,-255,77,32,54,-2
9770,0,-256,74,31,54,1
9775,-2,-256,79,29,53,0
9780,-4,-253,77,26,53,1
9785,-5,-255,77,22,54,0
9790,-1,-256,78,19,53,0
9795,-4,-255,77,15,55,-1
9800,-2,-255,73,13,56,-1
9805,-3,-256,79,11,56,-1
9810,-4,-257,78,11,57,1
9815,-5,-256,78,11,57,0
9820,-6,-256,78,11,57,1
9825,-1,-257,77,10,57,2
9830,-3,-254,79,9,58,5
9835,-7,-253,81,7,58,4
9840,-2,-255,78,6,58,5
9845,-3,-255,78,5,59,4
9850,-6,-255,77,5,58,6
9855,-4,-247,71,4,58,5
9860,-5,-255,76,3,58,6
9865,-6,-255,79,3,59,6
9870,-6,-256,76,2,60,6
9875,-4,-257,77,2,60,8
9880,-1,-256,75,2,62,8
9885,0,-257,77,3,63,9
9890,-3,-256,80,2,66,7
9895,-3,-255,80,2,67,8
9900,-1,-257,77,2,67,9
9905,-2,-255,76,2,66,8
9910,-1,-255,78,1,69,9
9915,-3,-257,76,1,71,9
9920,-1,-256,78,0,74,9
9925,-3,-256,79,-3,75,9
9930,-2,-255,74,-6,79,10
9935,-1,-254,79,-9,79,10
9940,-1,-256,78,-12,81,8
9945,-2,-254,79,-15,82,8
9950,1,-254,78,-18,83,8
9955,-5,-255,74,-20,84,9
9960,-6,-254,79,-23,83,9
9965,-1,-257,72,-26,82,9
9970,-3,-256,79,-31,84,9
9975,-7,-252,81,-33,84,9
9980,-3,-255,79,-36,84,8
9985,-2,-255,74,-38,86,9
9990,-4,-253,76,-40,87,9
9995,-2,-256,76,-42,88,9
10000,-3,-252,79,-45,88,8
10005,0,-254,77,-48,89,7
10010,-3,-256,78,-50,88,7
10015,-1,-255,76,-50,88,7
10020,-1,-255,77,-51,89,7
10025,-2,-256,72,-52,90,7
10030,-5,-254,78,-53,91,6
10035,-2,-255,74,-54,93,7
10040,-2,-256,74,-56,91,5
10045,-3,-256,72,-58,93,5
10050,-5,-256,73,-60,94,4
10055,-4,-254,74,-60,95,3
10060,-4,-257,77,-59,96,2
10065,-4,-256,73,-58,98,1
10070,-6,-255,72,-55,99,0
10075,-3,-259,76,-56,99,0
10080,-4,-257,76,-54,100,-1
10085,-1,-256,73,-51,101,-2
10090,-5,-257,74,-51,103,-2
10095,-3,-256,79,-48,102,-2
10100,-4,-257,73,-46,102,-3
10105,-6,-255,74,-44,100,-2
10110,-2,-258,72,-42,100,-3
10115,-2,-256,74,-40,97,-2
10120,-5,-259,74,-37,95,-2
10125,-6,-257,75,-35,95,-2
10130,-4,-256,75,-33,93,-1
10135,-2,-258,74,-31,90,0
10140,-4,-260,76,-28,89,1
10145,-5,-256,72,-24,86,1
10150,-6,-256,73,-21,84,2
10155,-5,-261,74,-18,81,3
10160,-6,-257,78,-14,79,3
10165,-6,-259,77,-14,78,5
10170,-3,-258,78,-13,74,6
10175,-6,-257,78,-12,71,7
10180,-6,-256,74,-11,68,8
10185,-4,-255,76,-10,64,8
10190,-5,-259,77,-12,60,9
10195,-4,-256,78,-14,57,10
10200,-5,-256,78,-16,56,10
10205,-5,-255,76,-20,53,11
10210,-3,-257,79,-23,52,12
10215,-4,-256,76,-28,51,13
10220,-8,-255,78,-32,51,12
10225,-4,-258,80,-34,53,15
10230,-6,-256,74,-37,55,14
10235,-6,-256,79,-39,57,14
10240,-8,-255,78,-39,61,16
10245,-8,-256,76,-38,63,14
10250,-4,-258,72,-38,68,15
10255,-6,-256,76,-37,72,15
10260,-4,-255,77,-34,75,14
10265,-4,-255,76,-32,79,16
10270,-5,-256,74,-28,82,16
10275,-6,-255,76,-27,85,16
10280,-6,-255,73,-24,87,16
10285,-8,-250,83,-23,90,15
10290,-8,-254,75,-23,91,14
10295,-5,-256,74,-24,92,13
10300,-5,-255,72,-24,92,12
10305,-6,-255,73,-26,91,12
10310,-1,-256,74,-27,89,13
10315,-3,-257,76,-28,87,13
10320,-4,-257,77,-30,85,13
10325,-7,-257,78,-32,84,13
10330,-6,-257,76,-33,83,14
10335,-4,-256,78,-35,79,12
10340,-4,-256,76,-37,78,12
10345,-6,-255,76,-37,75,13
10350,-7,-254,75,-39,74,13
10355,-5,-255,75,-38,72,14
10360,-2,-255,78,-38,70,15
10365,-5,-257,76,-38,70,15
10370,-6,-255,77,-37,69,14
10375,-5,-256,76,-37,71,13
10380,-4,-257,74,-35,72,14
10385,-4,-256,80,-35,72,14
10390,-6,-256,78,-35,74,14
10395,-6,-257,69,-35,75,14
10400,-7,-257,74,-35,76,12
10405,-5,-256,76,-36,78,12
10410,-4,-254,74,-36,78,10
10415,-4,-255,69,-36,80,8
10420,-5,-254,76,-35,81,9
10425,-9,-253,75,-35,82,8
10430,-6,-255,71,-35,82,8
10435,-6,-254,78,-33,82,9
10440,-6,-254,76,-32,83,8
10445,-7,-258,74,-32,82,8
10450,-7,-255,73,-34,81,8
10455,-6,-256,75,-34,81,8
10460,-7,-255,73,-34,82,7
10465,-6,-256,72,-33,81,7
10470,-8,-253,72,-35,81,7
10475,-8,-255,80,-35,82,7
10480,-1,-254,75,-35,82,7
10485,-9,-255,77,-34,80,6
10490,-5,-256,77,-33,79,8
10495,-8,-255,76,-32,78,8
10500,-5,-257,76,-30,78,8
10505,-3,-253,79,-29,77,8
10510,-7,-256,74,-29,77,9
10515,-5,-256,77,-29,77,8
10520,-6,-258,77,-32,75,7
10525,-3,-255,75,-34,75,7
10530,-9,-254,77,-36,77,6
10535,-4,-259,80,-39,78,5
10540,-6,-257,73,-41,78,4
10545,-5,-256,76,-44,79,3
10550,-7,-256,75,-44,79,2
10555,-6,-258,73,-45,80,1
10560,-6,-259,75,-45,80,2
10565,-7,-259,74,-44,83,0
10570,-6,-257,78,-44,85,0
10575,-7,-261,81,-41,86,0
10580,-6,-260,81,-40,86,1
10585,-7,-258,73,-38,87,1
10590,-7,-260,76,-37,85,2
10595,-8,-259,74,-34,83,4
10600,-5,-257,71,-33,81,5
10605,-4,-257,77,-30,81,7
10610,-5,-257,77,-29,79,7
10615,-6,-257,72,-30,77,7
10620,-5,-256,73,-29,75,9
10625,-7,-255,73,-28,75,9
10630,-6,-257,74,-29,74,9
10635,-7,-256,70,-27,76,8
10640,-6,-256,74,-27,76,10
10645,-5,-255,71,-26,76,9
10650,-5,-256,75,-26,77,8
10655,-6,-256,74,-24,79,8
10660,-4,-256,74,-24,79,7
10665,-4,-255,75,-25,79,7
10670,-8,-254,71,-24,81,5
10675,-6,-256,74,-24,83,5
10680,-5,-257,73,-23,85,4
10685,-8,-257,73,-23,85,4
10690,-6,-256,76,-24,85,3
10695,-6,-254,74,-23,86,3
10700,-6,-256,78,-20,88,2
10705,-6,-257,76,-21,89,2
10710,-7,-255,72,-21,89,3
10715,-10,-256,73,-22,88,2
10720,-8,-257,77,-23,89,0
10725,-8,-257,74,-24,88,0
10730,-10,-255,74,-24,89,1
10735,-7,-257,74,-24,90,1
10740,-7,-257,73,-25,90,0
10745,-6,-255,71,-26,90,1
10750,-8,-256,74,-27,90,1
10755,-4,-257,75,-26,90,0
10760,-5,-259,72,-26,90,0
10765,-7,-256,71,-26,89,2
10770,-6,-258,70,-26,90,2
10775,-7,-256,74,-27,91,2
10780,-3,-260,71,-28,92,2
10785,-7,-254,75,-29,91,2
10790,-8,-258,72,-30,93,0
10795,-8,-255,77,-33,94,0
10800,-8,-256,70,-33,95,1
10805,-7,-257,73,-33,94,0
10810,-6,-256,72,-35,95,-1
10815,-7,-254,71,-36,96,-3
10820,-9,-255,75,-35,98,-1
10825,-14,-259,70,-37,98,-2
10830,-7,-257,76,-38,98,-1
10835,-9,-257,73,-39,100,-1
10840,-7,-257,72,-40,100,-3
10845,-6,-257,72,-41,102,-3
10850,-10,-255,70,-41,103,-3
10855,-10,-256,71,-41,101,-4
10860,-6,-257,70,-41,101,-3
10865,-10,-255,68,-42,101,-4
10870,-10,-256,69,-42,101,-4
10875,-7,-256,72,-42,100,-4
10880,-11,-256,71,-44,100,-4
10885,-10,-256,75,-44,99,-5
10890,-8,-260,72,-44,97,-4
10895,-9,-256,71,-43,97,-5
10900,-8,-257,72,-42,99,-4
10905,-7,-257,69,-41,99,-6
10910,-7,-255,71,-39,98,-6
10915,-6,-258,72,-40,97,-6
10920,-9,-256,70,-39,96,-7
10925,-8,-256,70,-38,95,-6
10930,-10,-259,73,-38,97,-6
10935,-14,-265,75,-38,96,-5
10940,-10,-258,72,-38,95,-6
10945,-6,-258,68,-38,95,-6
10950,-8,-257,67,-38,93,-7
10955,-7,-257,70,-38,92,-6
10960,-6,-256,69,-37,91,-6
10965,-8,-259,68,-36,91,-7
10970,-12,-255,72,-37,91,-7
10975,-11,-256,66,-36,91,-6
10980,-12,-257,70,-35,91,-6
10985,-7,-257,68,-34,91,-7
10990,-12,-256,67,-34,91,-5
10995,-6,-260,72,-36,92,-4
11000,-9,-256,68,-36,91,-4
11005,-7,-257,69,-39,89,-5
11010,-9,-256,69,-39,90,-6
11015,-10,-258,71,-40,91,-6
11020,-8,-255,69,-40,90,-6
11025,-9,-257,70,-42,90,-5
11030,-8,-258,74,-43,90,-7
11035,-9,-259,68,-43,89,-6
11040,-10,-258,69,-44,87,-6
11045,-7,-259,69,-43,88,-7
11050,-10,-255,71,-43,87,-7
11055,-8,-255,68,-43,87,-6
11060,-6,-258,69,-45,86,-8
11065,-9,-256,71,-45,84,-9
11070,-7,-258,76,-45,84,-9
11075,-8,-257,73,-48,84,-8
11080,-9,-255,70,-50,83,-9
11085,-10,-254,67,-53,84,-7
11090,-8,-260,69,-55,83,-7
11095,-6,-257,69,-57,84,-9
11100,-6,-254,72,-59,86,-7
11105,-7,-256,68,-59,86,-7
11110,-7,-259,69,-60,85,-7
11115,-7,-258,68,-61,87,-9
11120,-9,-258,68,-60,87,-9
11125,-8,-259,67,-60,89,-9
11130,-10,-257,71,-61,89,-9
11135,-7,-260,70,-61,91,-10
11140,-7,-256,68,-61,92,-12
11145,-7,-258,71,-61,92,-13
11150,-5,-257,71,-60,94,-13
11155,-10,-257,71,-59,95,-14
11160,-8,-259,69,-59,95,-16
11165,-11,-256,68,-58,96,-17
11170,-9,-259,67,-59,98,-18
11175,-11,-258,66,-58,98,-18
11180,-8,-256,66,-58,99,-19
11185,-13,-257,67,-58,99,-19
11190,-9,-259,70,-59,98,-20
11195,-9,-257,67,-58,99,-19
11200,-8,-259,68,-56,99,-19
11205,-6,-258,66,-56,96,-19
11210,-10,-257,68,-52,95,-18
11215,-10,-259,69,-51,94,-18
11220,-11,-256,68,-50,92,-18
11225,-6,-258,65,-49,91,-17
11230,-6,-262,68,-47,88,-16
11235,-7,-262,66,-46,87,-16
11240,-8,-258,66,-43,86,-15
11245,-4,-259,67,-40,84,-15
11250,-7,-258,65,-40,84,-15
11255,-6,-261,68,-36,85,-15
11260,-6,-260,69,-35,85,-15
11265,-12,-259,67,-34,87,-15
11270,-7,-260,66,-32,87,-15
11275,-10,-256,68,-31,88,-15
11280,-7,-261,66,-30,90,-16
11285,-10,-260,66,-27,90,-16
11290,-10,-259,65,-26,92,-17
11295,-7,-260,66,-26,93,-19
11300,-8,-259,66,-24,92,-20
11305,-5,-262,67,-22,92,-20
11310,-9,-257,69,-20,94,-20
11315,-9,-259,68,-20,94,-19
11320,-8,-258,65,-19,95,-20
11325,-8,-256,65,-19,94,-20
11330,-8,-256,68,-19,96,-19
11335,-9,-256,68,-18,93,-19
11340,-7,-258,65,-20,94,-17
11345,-8,-257,67,-19,92,-17
11350,-6,-258,68,-18,91,-16
11355,-13,-252,65,-18,90,-16
11360,-7,-257,68,-17,89,-16
11365,-8,-256,64,-18,90,-16
11370,-7,-258,65,-18,90,-16
11375,-10,-257,65,-17,90,-15
11380,-5,-258,65,-18,90,-15
11385,-9,-255,65,-18,90,-16
11390,-8,-256,64,-18,90,-18
11395,-8,-257,69,-18,91,-19
11400,-9,-259,67,-20,90,-17
11405,-11,-256,67,-20,91,-19
11410,-8,-256,67,-20,91,-18
11415,-7,-258,68,-21,89,-18
11420,-6,-257,68,-22,90,-19
11425,-6,-258,65,-22,92,-19
11430,-7,-257,64,-23,91,-20
11435,-9,-260,64,-24,92,-20
11440,-8,-258,65,-23,93,-19
11445,-8,-256,65,-23,93,-20
11450,-8,-258,65,-22,93,-20
11455,-6,-259,64,-21,93,-19
11460,-9,-258,65,-20,93,-21
11465,-8,-257,67,-19,94,-20
11470,-5,-257,75,-18,92,-20
11475,-7,-262,69,-17,92,-19
11480,-6,-257,68,-15,92,-17
11485,-8,-259,67,-14,92,-18
11490,-7,-258,64,-14,91,-18
11495,-6,-257,68,-13,89,-17
11500,-5,-259,70,-12,88,-17
11505,-9,-260,67,-13,89,-16
11510,-8,-257,63,-10,88,-18
11515,-8,-259,64,-9,86,-18
11520,-9,-257,65,-7,88,-17
11525,-6,-258,64,-8,88,-17
11530,-9,-256,65,-7,88,-17
11535,-10,-255,66,-9,86,-17
11540,-8,-256,65,-10,86,-16
11545,-8,-258,67,-11,87,-17
11550,-8,-255,68,-11,87,-18
11555,-7,-257,64,-12,88,-17
11560,-8,-258,64,-13,89,-16
11565,-7,-256,66,-14,88,-17
11570,-7,-256,66,-14,88,-17
11575,-5,-252,68,-13,89,-18
11580,-8,-258,64,-15,89,-18
11585,-6,-259,66,-15,89,-17
11590,-5,-261,65,-15,89,-17
11595,-5,-260,64,-16,88,-15
11600,-4,-263,66,-16,88,-16
11605,-10,-258,65,-17,88,-18
11610,-8,-256,65,-16,87,-18
11615,-7,-258,68,-16,89,-16
11620,-11,-257,66,-17,87,-17
11625,-7,-256,64,-15,87,-16
11630,-7,-261,65,-15,85,-15
11635,-7,-259,66,-15,85,-15
11640,-7,-259,67,-14,85,-15
11645,-7,-258,65,-14,85,-15
11650,-5,-258,65,-14,83,-15
11655,-8,-257,67,-12,83,-13
11660,-8,-261,64,-12,83,-13
11665,-8,-258,67,-12,81,-13
11670,-10,-260,68,-11,82,-12
11675,-8,-256,64,-11,82,-13
11680,-8,-252,62,-11,82,-13
11685,-8,-260,66,-11,82,-12
11690,-8,-258,63,-10,82,-12
11695,-9,-257,66,-11,83,-12
11700,-9,-258,63,-11,84,-12
11705,-9,-256,64,-9,84,-13
11710,-9,-258,67,-9,84,-13
11715,-8,-259,64,-9,84,-13
11720,-7,-258,64,-8,83,-11
11725,-12,-257,63,-8,82,-13
11730,-6,-258,67,-7,84,-12
11735,-9,-257,66,-6,82,-12
11740,-9,-258,66,-6,82,-11
11745,-7,-258,65,-5,81,-11
11750,-8,-260,67,-5,79,-12
11755,-9,-259,67,-4,79,-13
11760,-11,-256,64,-4,79,-11
11765,-9,-257,65,-4,78,-9
11770,-9,-257,66,-3,79,-8
11775,-6,-260,66,-3,78,-10
11780,-7,-259,64,-3,77,-9
11785,-7,-260,64,-4,76,-8
11790,-11,-258,65,-4,77,-9
11795,-8,-257,63,-6,75,-7
11800,-6,-259,66,-6,75,-9
11805,-10,-258,65,-6,74,-8
11810,-8,-258,65,-7,73,-6
11815,-9,-257,67,-6,73,-5
11820,-7,-260,64,-7,71,-4
11825,-7,-259,64,-6,70,-4
11830,-10,-256,64,-7,69,-4
11835,-9,-258,66,-7,68,-3
11840,-7,-257,66,-7,69,-4
11845,-7,-259,65,-9,69,-4
11850,-9,-256,65,-7,70,-1
11855,-10,-258,65,-7,67,-3
11860,-5,-258,69,-7,68,-2
11865,-8,-258,64,-6,67,-3
11870,-6,-259,66,-7,68,-3
11875,-5,-257,67,-9,68,-1
11880,-8,-256,67,-10,69,-3
11885,-7,-256,66,-10,68,-3
11890,-7,-256,68,-10,69,-3
11895,-6,-259,65,-10,70,-3
11900,-7,-259,62,-9,70,-4
11905,-9,-254,67,-9,70,-3
11910,-7,-259,65,-8,71,-3
11915,-8,-257,65,-7,70,-4
11920,-6,-258,63,-7,70,-4
11925,-5,-260,67,-6,68,-4
11930,-8,-258,68,-6,68,-5
11935,-10,-256,67,-5,68,-4
11940,-4,-258,66,-4,67,-5
11945,-9,-259,67,-4,68,-5
11950,-8,-258,65,-5,69,-5
11955,-6,-257,67,-5,66,-5
11960,-7,-260,66,-5,67,-4
11965,-6,-257,63,-5,65,-3
11970,-6,-257,62,-6,65,-1
11975,-9,-255,64,-6,64,-3
11980,-4,-260,67,-6,63,-3
11985,-6,-257,66,-8,62,-2
11990,-9,-257,65,-7,62,-1
11995,-7,-257,67,-5,60,-1
