timestamp,acc_x,acc_y,acc_z,gyro_x,gyro_y,gyro_z
0,-5,-240,-120,-79,49,2
5,-8,-239,-118,-83,48,2
10,-5,-242,-119,-87,48,1
15,-3,-242,-121,-91,46,2
20,-5,-243,-119,-92,44,4
25,-5,-240,-120,-92,42,4
30,-7,-241,-119,-93,39,5
35,-7,-245,-117,-92,38,5
40,-2,-243,-122,-93,35,5
45,-4,-244,-117,-93,34,3
50,-6,-245,-117,-93,33,4
55,-5,-245,-114,-92,32,2
60,-3,-246,-116,-93,30,0
65,-7,-240,-114,-95,29,-2
70,-7,-244,-118,-98,29,-4
75,-4,-243,-117,-104,31,-4
80,-4,-244,-114,-110,31,-4
85,-9,-242,-116,-115,30,-6
90,-7,-242,-117,-120,29,-6
95,-5,-243,-118,-126,28,-5
100,-4,-243,-120,-126,28,-5
105,-3,-245,-121,-127,28,-5
110,-5,-245,-123,-128,26,-7
115,-7,-244,-121,-128,25,-6
120,-2,-245,-121,-126,23,-6
125,-4,-244,-121,-122,18,-6
130,-2,-248,-121,-119,16,-8
135,-2,-245,-117,-112,15,-10
140,-4,-246,-121,-106,15,-13
145,-2,-247,-120,-98,17,-16
150,-6,-245,-117,-91,18,-19
155,0,-247,-120,-86,19,-20
160,-4,-244,-120,-84,21,-22
165,-3,-244,-121,-81,24,-23
170,-5,-245,-119,-79,23,-24
175,-4,-244,-120,-81,23,-23
180,-5,-243,-121,-81,23,-23
185,-7,-243,-121,-81,22,-25
190,-4,-243,-121,-81,21,-24
195,-4,-242,-119,-81,21,-25
200,-7,-241,-122,-82,21,-23
205,-6,-244,-118,-83,22,-22
210,-4,-242,-118,-83,20,-22
215,-3,-244,-120,-81,19,-20
220,-7,-238,-119,-81,18,-19
225,-5,-244,-118,-80,17,-20
230,-6,-241,-120,-81,17,-19
235,-3,-241,-122,-82,17,-20
240,-5,-244,-118,-83,15,-21
245,-5,-242,-119,-82,14,-21
250,-1,-241,-120,-84,13,-21
255,-4,-241,-126,-86,15,-23
260,-3,-245,-122,-88,14,-23
265,-8,-238,-126,-86,14,-24
270,-5,-240,-123,-86,13,-24
275,-4,-244,-126,-83,12,-25
280,-6,-240,-123,-84,13,-25
285,-3,-243,-120,-82,12,-25
290,-5,-239,-122,-80,13,-24
295,-6,-239,-118,-79,14,-24
300,-5,-241,-124,-78,11,-24
305,-4,-241,-122,-78,12,-21
310,-5,-243,-121,-77,9,-21
315,-5,-239,-123,-77,8,-20
320,-2,-244,-122,-78,7,-20
325,-4,-243,-124,-81,6,-20
330,-3,-238,-123,-81,6,-19
335,-7,-239,-126,-82,6,-20
340,-3,-240,-124,-82,6,-19
345,-5,-240,-122,-81,6,-18
350,-4,-240,-123,-80,6,-18
355,-3,-240,-122,-78,6,-19
360,-4,-241,-125,-76,7,-18
365,-1,-241,-122,-75,5,-17
370,-4,-236,-116,-71,5,-17
375,-5,-241,-124,-66,6,-16
380,-4,-238,-121,-63,5,-15
385,-4,-241,-123,-62,6,-15
390,-3,-241,-121,-58,5,-14
395,0,-242,-126,-56,6,-14
400,-3,-239,-118,-53,6,-14
405,-4,-239,-123,-54,7,-15
410,-4,-240,-119,-53,8,-16
415,-4,-238,-126,-54,7,-15
420,-1,-238,-122,-59,7,-15
425,-5,-237,-122,-60,7,-15
430,-2,-241,-124,-65,7,-14
435,-2,-242,-119,-70,6,-15
440,-3,-242,-124,-74,6,-14
445,-1,-241,-124,-78,5,-14
450,-5,-241,-122,-81,5,-13
455,-1,-244,-121,-82,4,-13
460,-2,-247,-119,-81,3,-12
465,0,-244,-124,-80,4,-11
470,-3,-245,-122,-75,3,-11
475,0,-248,-123,-69,4,-9
480,-2,-246,-121,-63,5,-8
485,-1,-247,-123,-54,8,-7
490,-1,-246,-118,-48,9,-7
495,-2,-242,-121,-40,11,-7
500,-4,-241,-123,-33,13,-8
505,-3,-244,-121,-29,16,-9
510,-1,-240,-123,-27,18,-9
515,-1,-241,-124,-25,22,-8
520,-3,-241,-126,-28,25,-9
525,-2,-241,-124,-30,26,-7
530,-1,-241,-126,-35,27,-8
535,-1,-243,-124,-40,27,-8
540,-2,-240,-121,-47,27,-8
545,-4,-239,-119,-52,26,-7
550,0,-244,-119,-57,27,-6
555,-4,-242,-122,-59,26,-6
560,-3,-241,-121,-58,25,-4
565,-2,-243,-123,-58,23,-4
570,-4,-242,-123,-56,22,-4
575,-3,-245,-127,-53,20,-4
580,-2,-242,-121,-51,18,-3
585,-2,-245,-122,-48,18,-3
590,0,-242,-122,-45,16,-2
595,-4,-242,-120,-42,14,-3
600,-3,-241,-121,-41,14,-3
605,-5,-241,-125,-39,14,-4
610,-1,-240,-125,-38,14,-4
615,-6,-239,-123,-38,14,-4
620,-4,-241,-125,-40,15,-7
625,-4,-239,-126,-42,16,-6
630,-2,-240,-124,-46,16,-7
635,-4,-239,-125,-50,18,-7
640,-5,-239,-129,-55,19,-8
645,-4,-241,-123,-57,20,-7
650,-4,-241,-125,-61,20,-6
655,-2,-242,-125,-63,19,-6
660,-4,-241,-123,-66,19,-5
665,-5,-241,-123,-67,17,-5
670,-4,-243,-124,-67,15,-5
675,-5,-243,-123,-66,14,-3
680,-2,-244,-124,-62,13,-4
685,-7,-243,-123,-59,14,-1
690,-2,-244,-122,-54,14,-2
695,4,-242,-119,-48,14,-2
700,-5,-243,-122,-42,16,-1
705,1,-245,-122,-37,17,0
710,-3,-243,-123,-34,20,0
715,-2,-243,-122,-32,20,-2
720,-2,-242,-123,-29,21,-1
725,-5,-239,-123,-31,21,-1
730,-3,-240,-119,-32,22,0
735,-5,-241,-126,-35,22,0
740,-3,-241,-122,-38,21,-1
745,-3,-240,-122,-41,21,-1
750,-2,-240,-123,-44,20,-1
755,-4,-241,-124,-45,21,-1
760,-5,-239,-123,-48,21,-1
765,-5,-240,-123,-49,22,-3
770,-6,-241,-122,-49,21,-2
775,-5,-239,-118,-46,21,-2
780,-4,-239,-121,-44,21,-2
785,-5,-241,-120,-41,22,-1
790,-4,-245,-123,-39,21,1
795,-3,-243,-121,-37,20,3
800,-4,-242,-125,-36,22,4
805,-4,-247,-121,-35,22,5
810,-3,-240,-122,-36,21,5
815,-4,-242,-127,-35,20,5
820,-6,-239,-126,-37,19,4
825,-2,-241,-125,-38,19,4
830,-6,-241,-124,-38,19,4
835,-6,-241,-124,-39,19,5
840,-3,-240,-122,-41,20,3
845,-4,-243,-124,-39,20,1
850,-4,-241,-122,-36,19,1
855,-7,-245,-126,-33,19,0
860,-7,-241,-124,-31,19,-1
865,-5,-243,-125,-27,20,-1
870,-5,-242,-122,-24,19,-1
875,-7,-237,-124,-23,19,-1
880,-7,-242,-124,-21,20,0
885,-5,-240,-123,-20,20,-1
890,-1,-240,-124,-17,19,-1
895,-5,-241,-125,-17,21,0
900,-5,-237,-124,-18,20,1
905,-5,-241,-124,-18,19,1
910,-6,-238,-126,-21,18,3
915,-2,-240,-118,-24,19,2
920,-2,-239,-123,-27,18,2
925,-5,-239,-122,-30,16,2
930,-4,-241,-126,-32,15,3
935,-5,-241,-123,-34,15,3
940,-5,-242,-123,-35,15,3
945,-3,-242,-122,-36,13,3
950,-2,-243,-122,-37,14,3
955,-3,-244,-121,-36,15,1
960,-2,-244,-125,-33,15,2
965,-5,-243,-124,-30,18,1
970,5,-244,-123,-29,19,1
975,-4,-243,-121,-27,20,1
980,-4,-241,-121,-27,20,1
985,-7,-241,-122,-26,19,0
990,-2,-244,-119,-29,18,0
995,-5,-241,-123,-32,16,0
1000,-3,-241,-122,-36,15,0
1005,-4,-244,-123,-40,13,1
1010,-4,-245,-123,-39,11,1
1015,-4,-242,-120,-40,12,0
1020,-6,-242,-122,-41,12,-1
1025,-10,-253,-129,-37,13,-1
1030,-8,-239,-125,-35,14,-1
1035,-4,-241,-122,-33,15,-1
1040,-3,-243,-120,-32,16,-2
1045,-5,-243,-119,-31,18,-3
1050,-3,-243,-120,-31,17,-4
1055,-3,-244,-124,-31,18,-3
1060,-5,-243,-122,-33,19,-2
1065,-3,-245,-125,-35,19,-4
1070,-5,-242,-117,-34,20,-3
1075,-2,-242,-120,-34,21,-4
1080,-4,-244,-122,-32,21,-3
1085,-6,-243,-120,-34,21,-4
1090,-5,-243,-124,-33,21,-4
1095,-3,-243,-120,-34,22,-5
1100,-5,-242,-122,-32,19,-3
1105,-3,-243,-124,-33,19,-3
1110,-4,-244,-118,-32,17,-4
1115,-6,-242,-122,-33,17,-4
1120,-5,-243,-122,-31,14,-5
1125,-7,-243,-122,-30,13,-3
1130,1,-239,-116,-27,14,-4
1135,-7,-240,-120,-27,13,-4
1140,-4,-246,-119,-27,12,-2
1145,-8,-243,-122,-25,13,-3
1150,-5,-243,-117,-22,12,-2
1155,-4,-244,-124,-20,11,-2
1160,-6,-242,-121,-20,13,-2
1165,-6,-244,-121,-19,11,-2
1170,-7,-242,-118,-16,10,-2
1175,-6,-244,-122,-16,10,-2
1180,-6,-240,-120,-13,11,0
1185,-2,-241,-120,-14,10,-1
1190,-5,-241,-123,-16,10,-1
1195,-4,-238,-124,-17,10,-1
1200,-5,-239,-120,-21,9,0
1205,-5,-240,-118,-26,8,-1
1210,-4,-242,-121,-30,6,-2
1215,-5,-240,-120,-32,7,-1
1220,-3,-239,-120,-37,7,-3
1225,-4,-243,-119,-40,7,-1
1230,-4,-245,-120,-42,7,-1
1235,-3,-242,-118,-41,6,-1
1240,-1,-238,-109,-42,7,-2
1245,-4,-241,-119,-40,7,-3
1250,-4,-244,-121,-38,6,-4
1255,-5,-247,-117,-36,6,-4
1260,-6,-245,-117,-32,7,-4
1265,-5,-243,-118,-31,6,-4
1270,-5,-243,-118,-30,6,-6
1275,-5,-243,-116,-29,4,-7
1280,-5,-243,-121,-27,4,-7
1285,-6,-243,-122,-27,3,-7
1290,-7,-239,-121,-25,3,-8
1295,-5,-243,-122,-24,3,-8
1300,-4,-245,-120,-25,3,-7
1305,-5,-241,-122,-26,2,-6
1310,-4,-243,-120,-26,2,-6
1315,-10,-238,-122,-27,1,-5
1320,-5,-244,-116,-28,1,-5
1325,-5,-242,-117,-28,-1,-6
1330,-6,-240,-119,-31,-1,-6
1335,-4,-242,-120,-31,-1,-7
1340,-7,-242,-120,-34,-2,-6
1345,-6,-242,-121,-36,0,-5
1350,-3,-241,-120,-38,-1,-6
1355,-5,-243,-121,-41,0,-7
1360,-3,-240,-117,-44,1,-6
1365,-2,-245,-121,-48,1,-6
1370,-5,-243,-122,-50,3,-8
1375,-4,-243,-121,-52,3,-9
1380,-3,-244,-122,-51,4,-6
1385,-5,-246,-118,-51,5,-7
1390,-5,-243,-121,-50,5,-7
1395,-4,-245,-121,-48,4,-8
1400,-1,-248,-120,-44,5,-8
1405,-3,-244,-117,-41,6,-7
1410,-3,-245,-118,-34,6,-6
1415,-3,-243,-115,-31,7,-6
1420,-4,-244,-118,-28,8,-6
1425,-9,-241,-118,-27,9,-5
1430,-5,-244,-119,-28,9,-6
1435,-5,-240,-116,-28,10,-7
1440,-2,-245,-118,-31,11,-7
1445,-6,-243,-119,-36,14,-8
1450,-6,-246,-116,-40,12,-8
1455,-7,-240,-121,-43,12,-8
1460,-1,-241,-120,-47,12,-8
1465,-5,-241,-120,-48,10,-7
1470,-6,-242,-121,-46,11,-7
1475,-4,-245,-120,-42,10,-7
1480,-3,-242,-118,-41,10,-7
1485,-5,-245,-119,-34,10,-7
1490,-3,-244,-119,-32,10,-7
1495,-7,-242,-118,-29,10,-7
1500,-4,-243,-122,-27,9,-8
1505,-5,-244,-119,-26,8,-6
1510,-3,-243,-120,-26,6,-5
1515,-8,-244,-124,-27,6,-7
1520,-4,-239,-116,-30,6,-6
1525,-8,-242,-120,-31,5,-5
1530,-6,-241,-122,-31,4,-6
1535,-5,-242,-116,-34,4,-6
1540,-5,-242,-115,-38,4,-5
1545,-6,-241,-118,-38,4,-5
1550,-6,-242,-119,-42,6,-5
1555,-7,-242,-118,-45,6,-5
1560,-8,-241,-120,-48,7,-5
1565,-7,-245,-119,-51,8,-5
1570,-7,-242,-122,-51,10,-5
1575,-3,-245,-119,-50,10,-6
1580,-5,-244,-123,-49,11,-4
1585,1,-246,-119,-49,12,-4
1590,-6,-243,-118,-49,12,-5
1595,-6,-242,-119,-46,13,-3
1600,-4,-243,-118,-46,13,-5
1605,-5,-243,-122,-45,13,-5
1610,-6,-242,-123,-46,14,-4
1615,-5,-242,-120,-46,13,-4
1620,0,-248,-118,-47,14,-3
1625,-2,-242,-120,-47,15,-3
1630,-4,-245,-122,-48,15,-3
1635,-4,-245,-121,-49,16,-5
1640,-5,-243,-119,-50,15,-6
1645,-3,-244,-124,-47,17,-4
1650,-5,-247,-120,-42,18,-6
1655,-6,-242,-119,-37,20,-6
1660,-6,-242,-115,-32,21,-5
1665,-3,-243,-122,-30,24,-4
1670,-5,-242,-114,-26,24,-3
1675,-13,-235,-131,-27,24,-4
1680,-2,-242,-113,-33,24,-2
1685,-5,-239,-124,-38,26,-1
1690,-3,-240,-121,-45,26,-2
1695,-4,-240,-123,-51,27,0
1700,1,-237,-122,-54,26,0
1705,-8,-236,-127,-57,26,-1
1710,-8,-248,-121,-54,25,0
1715,-9,-249,-126,-51,26,-2
1720,-5,-236,-126,-48,23,-2
1725,-2,-247,-120,-43,21,-4
1730,-7,-240,-121,-39,19,-5
1735,-5,-241,-121,-34,20,-6
1740,-8,-243,-123,-35,20,-6
1745,-7,-245,-121,-36,19,-6
1750,-6,-244,-122,-39,20,-6
1755,-4,-237,-119,-43,17,-5
1760,-3,-248,-122,-49,16,-4
1765,-7,-241,-120,-57,15,-2
1770,-7,-240,-127,-62,13,-1
1775,-5,-242,-121,-67,13,1
1780,-7,-244,-124,-72,12,2
1785,-7,-243,-123,-75,12,2
1790,-2,-239,-124,-74,13,1
1795,-9,-242,-119,-71,13,-1
1800,-5,-249,-121,-67,15,-2
1805,-5,-245,-120,-61,15,-2
1810,-7,-246,-123,-54,18,-3
1815,-4,-244,-121,-47,18,-4
1820,-5,-246,-122,-42,20,-5
1825,-9,-241,-130,-38,19,-4
1830,-4,-242,-118,-37,21,-3
1835,-9,-240,-151,-36,22,-3
1840,-5,-242,-130,-37,26,-3
1845,-7,-228,-117,-38,24,-3
1850,-13,-243,-134,-42,25,0
1855,9,-242,-108,-45,24,1
1860,-11,-239,-130,-50,24,2
1865,-15,-245,-122,-52,25,2
1870,0,-242,-123,-55,25,2
1875,-5,-241,-117,-57,26,2
1880,10,-235,-122,-60,25,2
1885,-5,-239,-123,-61,26,2
1890,-4,-240,-127,-63,26,3
1895,-4,-239,-126,-64,27,3
1900,-5,-235,-133,-66,27,3
1905,6,-239,-120,-68,28,3
1910,-4,-254,-125,-68,28,3
1915,7,-238,-128,-66,29,4
1920,-5,-236,-116,-63,28,3
1925,-13,-243,-122,-59,27,4
1930,-14,-239,-134,-56,26,4
1935,-6,-247,-126,-51,26,4
1940,-6,-241,-137,-48,27,5
1945,-4,-239,-134,-43,26,3
1950,-2,-238,-129,-40,26,2
1955,-8,-248,-124,-37,27,2
1960,-5,-243,-130,-35,27,1
1965,-6,-243,-128,-32,27,3
1970,-4,-246,-130,-26,27,2
1975,-2,-246,-131,-19,26,4
1980,1,-242,-128,-10,26,4
1985,-4,-242,-128,3,24,5
1990,-6,-245,-135,17,23,5
1995,-2,-248,-134,29,22,7
2000,-5,-248,-137,41,21,6
2005,-12,-241,-129,52,20,7
2010,-5,-241,-133,60,19,5
2015,3,-240,-138,69,18,4
2020,0,-237,-137,78,16,5
2025,-12,-248,-138,85,13,3
2030,-8,-245,-137,89,9,3
2035,-5,-227,-138,92,6,2
2040,-8,-237,-140,96,3,1
2045,-8,-237,-139,97,1,3
2050,-6,-234,-139,100,0,4
2055,-12,-228,-145,101,-1,5
2060,-7,-228,-129,104,-1,6
2065,-4,-221,-138,103,-2,8
2070,-6,-233,-135,102,-5,8
2075,-3,-210,-134,97,-7,9
2080,-7,-227,-130,90,-10,8
2085,-3,-217,-125,79,-14,8
2090,-6,-221,-130,63,-15,6
2095,-2,-219,-129,47,-17,3
2100,-8,-218,-131,23,-14,3
2105,-10,-218,-135,2,-15,2
2110,2,-211,-129,-24,-13,0
2115,-5,-213,-132,-51,-11,2
2120,-7,-216,-136,-78,-9,4
2125,-6,-216,-134,-105,-7,6
2130,-6,-216,-135,-129,-7,11
2135,-7,-213,-136,-151,-6,15
2140,-5,-213,-136,-172,-3,18
2145,-5,-209,-134,-186,0,17
2150,-1,-220,-133,-201,4,18
2155,-7,-213,-157,-213,7,18
2160,-5,-218,-136,-221,9,19
2165,-5,-221,-135,-229,12,18
2170,-5,-220,-134,-238,14,19
2175,-3,-219,-139,-248,15,17
2180,-2,-219,-137,-257,15,15
2185,-5,-218,-141,-265,16,10
2190,-3,-216,-133,-273,16,9
2195,-3,-218,-137,-279,18,4
2200,-11,-215,-133,-287,22,0
2205,-5,-210,-137,-293,26,-4
2210,0,-212,-133,-296,32,-7
2215,-3,-208,-137,-303,41,-9
2220,-7,-207,-140,-310,50,-9
2225,4,-202,-133,-320,57,-11
2230,-5,-205,-139,-331,62,-9
2235,-6,-202,-143,-343,65,-4
2240,-4,-203,-139,-357,70,-2
2245,-6,-199,-136,-375,74,5
2250,-11,-207,-132,-392,73,10
2255,-6,-203,-138,-411,72,12
2260,-8,-202,-137,-436,71,17
2265,-7,-203,-136,-456,68,19
2270,-7,-206,-133,-477,67,22
2275,-5,-205,-137,-494,63,23
2280,-6,-207,-139,-511,62,24
2285,-7,-204,-130,-523,56,26
2290,-9,-202,-134,-528,48,29
2295,-7,-203,-132,-528,37,31
2300,-7,-200,-132,-520,28,33
2305,-8,-197,-134,-517,20,37
2310,-9,-194,-133,-515,14,36
2315,-10,-194,-134,-516,10,32
2320,-9,-195,-134,-516,4,30
2325,-10,-194,-133,-521,2,21
2330,-12,-194,-135,-542,5,8
2335,-15,-193,-137,-574,8,-5
2340,-12,-194,-139,-610,12,-17
2345,-16,-196,-137,-647,21,-30
2350,-14,-196,-138,-681,32,-37
2355,-14,-200,-139,-714,39,-38
2360,-15,-199,-142,-741,43,-37
2365,-15,-200,-144,-762,45,-33
2370,-12,-202,-142,-787,46,-25
2375,-11,-205,-140,-802,46,-14
2380,-13,-206,-141,-815,43,-1
2385,-10,-208,-141,-824,36,12
2390,-6,-209,-139,-828,29,28
2395,-8,-209,-137,-829,24,42
2400,-6,-211,-138,-822,19,56
2405,-7,-212,-137,-811,13,68
2410,-8,-210,-133,-797,6,77
2415,-6,-214,-140,-780,2,84
2420,-7,-215,-139,-768,2,89
2425,-6,-215,-138,-762,0,90
2430,-7,-213,-138,-762,-3,90
2435,-7,-215,-140,-763,-4,86
2440,0,-213,-145,-763,-3,84
2445,-7,-213,-136,-764,-4,80
2450,-12,-214,-138,-762,-7,75
2455,-13,-214,-138,-752,-12,69
2460,-13,-212,-137,-750,-16,62
2465,-13,-209,-138,-746,-20,53
2470,-10,-213,-142,-741,-23,45
2475,-13,-209,-138,-745,-26,43
2480,-14,-212,-144,-750,-27,38
2485,-15,-215,-144,-754,-24,36
2490,-15,-208,-145,-760,-20,34
2495,-13,-210,-143,-772,-17,33
2500,-14,-210,-143,-779,-12,29
2505,-14,-208,-148,-785,-8,28
2510,-10,-208,-145,-783,-5,29
2515,-12,-207,-143,-775,-2,29
2520,-11,-203,-145,-766,5,31
2525,-7,-203,-148,-759,15,30
2530,-5,-207,-140,-748,29,29
2535,-3,-205,-147,-732,36,29
2540,-1,-204,-146,-718,43,29
2545,-5,-200,-150,-712,45,29
2550,-3,-202,-154,-714,44,26
2555,-3,-202,-154,-722,43,19
2560,-6,-203,-160,-733,41,13
2565,-5,-206,-161,-743,38,6
2570,-10,-203,-164,-757,32,1
2575,-10,-205,-166,-775,23,-1
2580,-8,-204,-169,-791,13,2
2585,-8,-202,-170,-806,4,10
2590,-11,-202,-172,-817,-9,19
2595,-7,-205,-168,-830,-22,30
2600,-9,-206,-171,-836,-39,36
2605,-9,-209,-174,-833,-52,39
2610,-10,-209,-176,-828,-57,39
2615,-15,-214,-176,-823,-56,36
2620,-13,-215,-178,-810,-54,34
2625,-12,-218,-177,-799,-49,29
2630,-12,-219,-183,-787,-43,22
2635,-12,-219,-181,-774,-32,13
2640,-12,-218,-186,-762,-13,9
2645,-10,-218,-186,-750,13,6
2650,-7,-217,-190,-738,37,7
2655,-12,-211,-184,-724,59,14
2660,-10,-213,-188,-706,74,27
2665,-10,-209,-187,-683,80,43
2670,-9,-209,-181,-659,82,62
2675,-4,-204,-179,-636,79,77
2680,-6,-201,-183,-617,75,93
2685,-5,-199,-183,-606,70,107
2690,-7,-197,-181,-601,69,119
2695,-7,-197,-186,-605,69,134
2700,-7,-197,-188,-611,69,143
2705,-7,-196,-192,-621,71,150
2710,-3,-197,-194,-635,81,154
2715,-6,-194,-191,-645,95,154
2720,-2,-196,-193,-645,108,153
2725,-6,-192,-190,-640,120,147
2730,-6,-186,-193,-630,136,141
2735,-5,-182,-190,-622,149,134
2740,0,-183,-190,-615,167,127
2745,-4,-175,-194,-614,178,121
2750,-7,-172,-194,-617,183,120
2755,-9,-173,-200,-624,182,123
2760,-8,-172,-204,-635,171,129
2765,-10,-174,-206,-643,155,137
2770,-13,-175,-201,-647,130,145
2775,-14,-173,-209,-647,103,154
2780,-15,-176,-206,-645,78,160
2785,-16,-178,-203,-640,53,162
2790,-22,-177,-206,-630,33,162
2795,-23,-180,-207,-622,14,164
2800,-24,-179,-204,-612,5,168
2805,-28,-182,-206,-601,4,171
2810,-29,-182,-207,-590,2,177
2815,-32,-183,-205,-582,3,180
2820,-28,-184,-203,-578,4,181
2825,-26,-185,-211,-581,8,184
2830,-22,-187,-212,-586,17,183
2835,-14,-187,-219,-590,28,182
2840,-16,-186,-221,-600,45,174
2845,-16,-184,-223,-612,65,163
2850,-12,-187,-223,-625,87,158
2855,-10,-186,-227,-638,109,152
2860,-12,-188,-231,-641,125,151
2865,-13,-189,-226,-635,141,144
2870,-11,-191,-227,-618,154,136
2875,-12,-190,-225,-596,160,129
2880,-14,-187,-225,-570,169,120
2885,-15,-187,-223,-538,173,109
2890,-14,-187,-224,-507,168,100
2895,-17,-188,-225,-476,155,88
2900,-20,-185,-223,-439,140,73
2905,-23,-186,-230,-396,125,62
2910,-24,-183,-231,-346,106,51
2915,-23,-185,-228,-291,88,40
2920,-24,-183,-236,-232,64,34
2925,-20,-181,-240,-173,45,30
2930,-24,-182,-235,-118,36,25
2935,-21,-178,-239,-71,26,20
2940,-21,-176,-238,-34,25,15
2945,-23,-176,-236,-9,25,10
2950,-16,-176,-234,12,22,6
2955,-16,-174,-236,24,26,0
2960,-11,-179,-229,34,32,-5
2965,-13,-176,-239,41,36,-9
2970,-10,-173,-237,41,36,-12
2975,-11,-174,-236,38,37,-12
2980,-11,-174,-242,34,31,-11
2985,-16,-175,-238,32,33,-16
2990,-17,-180,-240,38,27,-20
2995,-19,-178,-238,49,27,-27
3000,-18,-184,-234,64,22,-35
3005,-26,-180,-236,82,18,-40
3010,-26,-182,-233,105,12,-46
3015,-31,-176,-236,128,7,-53
3020,-23,-182,-237,156,3,-52
3025,-18,-182,-240,185,6,-53
3030,-19,-180,-244,209,7,-50
3035,-18,-179,-241,227,5,-50
3040,-17,-183,-244,237,1,-49
3045,-16,-185,-245,243,1,-49
3050,-16,-186,-244,248,4,-51
3055,-16,-190,-247,256,10,-50
3060,-19,-191,-242,268,13,-52
3065,-18,-189,-240,276,11,-54
3070,-16,-190,-239,289,7,-54
3075,-20,-190,-237,299,4,-54
3080,-23,-190,-232,311,-4,-50
3085,-17,-193,-231,322,-12,-46
3090,-16,-192,-231,337,-17,-41
3095,-16,-195,-226,353,-20,-34
3100,-18,-194,-228,372,-22,-29
3105,-17,-198,-229,390,-29,-26
3110,-18,-196,-227,408,-32,-25
3115,-15,-202,-229,426,-36,-24
3120,-15,-203,-227,444,-39,-25
3125,-13,-203,-228,459,-39,-27
3130,-14,-203,-229,473,-42,-28
3135,-14,-205,-231,486,-45,-32
3140,-15,-206,-232,498,-45,-38
3145,-14,-209,-233,510,-44,-42
3150,-14,-206,-231,521,-44,-48
3155,-14,-208,-230,529,-40,-51
3160,-14,-206,-233,539,-35,-55
3165,-15,-205,-232,550,-30,-55
3170,-10,-204,-232,562,-27,-56
3175,-13,-202,-228,574,-27,-55
3180,-12,-198,-231,588,-25,-53
3185,-12,-197,-230,602,-23,-49
3190,-13,-200,-225,614,-23,-47
3195,-15,-196,-228,620,-25,-45
3200,-11,-201,-239,620,-24,-47
3205,-15,-198,-228,619,-23,-45
3210,-12,-197,-228,616,-23,-47
3215,-15,-197,-225,615,-22,-51
3220,-15,-195,-223,614,-22,-55
3225,-13,-198,-221,615,-22,-61
3230,-15,-197,-220,618,-24,-64
3235,-16,-195,-220,623,-28,-65
3240,-16,-197,-218,629,-33,-64
3245,-13,-200,-216,639,-37,-66
3250,-14,-201,-213,657,-42,-67
3255,-14,-203,-215,671,-43,-66
3260,-14,-204,-210,680,-43,-64
3265,-15,-201,-210,685,-43,-60
3270,-12,-202,-207,695,-43,-56
3275,-13,-205,-206,701,-47,-54
3280,-8,-210,-203,704,-48,-47
3285,-10,-207,-201,700,-49,-39
3290,-10,-203,-197,697,-51,-33
3295,-14,-207,-194,695,-51,-24
3300,-15,-206,-192,687,-50,-13
3305,-15,-208,-190,677,-50,-6
3310,-11,-207,-196,670,-51,0
3315,-15,-205,-186,669,-50,2
3320,-15,-206,-186,667,-52,4
3325,-13,-207,-184,667,-51,1
3330,-14,-206,-184,662,-48,1
3335,-16,-206,-183,656,-49,-3
3340,-14,-207,-183,649,-45,-6
3345,-14,-206,-182,639,-43,-9
3350,-11,-209,-180,632,-41,-12
3355,-15,-208,-180,626,-40,-13
3360,-13,-207,-177,623,-37,-15
3365,-11,-210,-180,618,-32,-15
3370,-11,-207,-177,612,-30,-15
3375,-10,-213,-176,606,-24,-16
3380,-12,-210,-173,600,-20,-17
3385,-12,-216,-173,602,-16,-15
3390,-7,-214,-171,602,-15,-17
3395,-9,-216,-166,606,-9,-17
3400,-9,-216,-166,613,-6,-15
3405,-8,-215,-163,619,-3,-15
3410,-9,-219,-164,625,-1,-15
3415,-12,-215,-159,631,2,-17
3420,-8,-217,-161,642,7,-19
3425,-11,-217,-162,645,13,-20
3430,-11,-218,-160,646,18,-23
3435,-13,-215,-162,645,23,-27
3440,-8,-220,-160,646,27,-29
3445,-10,-218,-162,653,28,-32
3450,-14,-222,-164,658,30,-35
3455,-13,-220,-162,663,32,-35
3460,-15,-220,-159,660,32,-31
3465,-15,-222,-162,654,29,-28
3470,-16,-222,-157,648,28,-25
3475,-16,-223,-156,645,21,-21
3480,-19,-221,-161,641,16,-15
3485,-17,-222,-156,634,6,-7
3490,-16,-222,-161,626,0,-1
3495,-16,-223,-157,620,-7,3
3500,-16,-220,-155,615,-11,8
3505,-16,-221,-158,610,-18,9
3510,-16,-221,-154,606,-21,9
3515,-14,-224,-153,606,-25,7
3520,-15,-227,-148,607,-24,5
3525,-11,-230,-148,608,-25,2
3530,-14,-227,-153,608,-23,-4
3535,-14,-226,-147,606,-23,-7
3540,-15,-225,-142,603,-22,-14
3545,-16,-224,-144,598,-20,-22
3550,-13,-227,-140,590,-15,-30
3555,-16,-226,-142,586,-14,-40
3560,-14,-229,-142,576,-11,-49
3565,-16,-227,-142,569,-10,-53
3570,-16,-231,-136,557,-8,-62
3575,-14,-230,-138,549,-9,-71
3580,-16,-230,-139,538,-9,-78
3585,-16,-230,-140,525,-10,-81
3590,-20,-228,-138,514,-11,-84
3595,-19,-228,-141,502,-15,-85
3600,-16,-228,-138,491,-16,-82
3605,-19,-230,-138,481,-14,-76
3610,-18,-229,-138,470,-16,-71
3615,-19,-228,-137,459,-18,-66
3620,-18,-232,-134,451,-18,-62
3625,-18,-232,-134,440,-21,-57
3630,-16,-235,-136,433,-21,-56
3635,-19,-235,-134,430,-23,-55
3640,-15,-237,-134,426,-24,-56
3645,-17,-234,-133,422,-23,-57
3650,-14,-238,-140,420,-24,-57
3655,-16,-232,-136,421,-20,-59
3660,-15,-235,-139,421,-21,-62
3665,-15,-227,-135,418,-19,-66
3670,-15,-229,-134,416,-16,-69
3675,-14,-229,-138,416,-13,-75
3680,-13,-228,-138,410,-9,-75
3685,-14,-229,-137,401,-9,-72
3690,-14,-228,-133,388,-10,-71
3695,-12,-232,-134,376,-7,-69
3700,-13,-233,-134,363,3,-67
3705,-14,-234,-131,353,13,-64
3710,-11,-236,-129,344,22,-64
3715,-10,-235,-124,332,31,-62
3720,-8,-237,-123,324,35,-63
3725,-9,-239,-124,317,37,-63
3730,-9,-241,-122,310,38,-62
3735,-10,-240,-120,307,34,-63
3740,-12,-240,-120,302,29,-64
3745,-8,-242,-118,300,27,-67
3750,-11,-244,-123,301,23,-68
3755,-10,-245,-122,301,21,-72
3760,-12,-245,-120,303,16,-80
3765,-8,-250,-122,309,12,-85
3770,-12,-248,-125,313,11,-93
3775,-10,-246,-121,317,6,-100
3780,-12,-250,-124,326,5,-104
3785,-12,-249,-123,332,2,-108
3790,-13,-247,-125,339,-1,-112
3795,-15,-252,-120,344,-1,-116
3800,-16,-250,-121,350,0,-115
3805,-15,-247,-122,358,0,-112
3810,-14,-247,-118,365,0,-111
3815,-15,-249,-121,376,3,-108
3820,-16,-251,-118,385,5,-108
3825,-15,-249,-116,396,7,-110
3830,-12,-248,-115,402,7,-114
3835,-12,-249,-113,408,8,-121
3840,-12,-247,-114,410,11,-127
3845,-15,-249,-109,411,13,-134
3850,-15,-249,-111,410,10,-141
3855,-15,-247,-112,406,7,-143
3860,-15,-249,-110,400,2,-143
3865,-15,-251,-109,395,-5,-142
3870,-16,-249,-110,388,-9,-140
3875,-16,-249,-106,382,-13,-133
3880,-17,-250,-110,382,-16,-127
3885,-16,-252,-104,379,-19,-122
3890,-16,-249,-102,373,-23,-118
3895,-18,-247,-100,365,-25,-116
3900,-16,-247,-104,360,-26,-113
3905,-16,-245,-106,356,-25,-112
3910,-15,-248,-102,352,-23,-111
3915,-18,-245,-103,343,-21,-110
3920,-16,-246,-100,337,-17,-108
3925,-13,-250,-98,339,-11,-103
3930,-14,-244,-96,334,-7,-102
3935,-16,-248,-98,327,-1,-96
3940,-12,-248,-96,313,4,-92
3945,-12,-249,-97,293,7,-86
3950,-9,-246,-94,275,9,-77
3955,-10,-247,-94,256,9,-71
3960,-2,-251,-93,243,12,-62
3965,-6,-247,-96,230,13,-53
3970,-2,-250,-96,221,13,-44
3975,2,-249,-98,219,14,-38
3980,4,-249,-98,220,15,-35
3985,5,-252,-95,227,16,-35
3990,7,-255,-101,240,16,-41
3995,4,-252,-99,257,16,-50
4000,6,-249,-101,271,16,-63
4005,9,-249,-95,283,19,-78
4010,6,-247,-98,294,24,-95
4015,5,-248,-96,301,30,-112
4020,6,-246,-98,303,35,-126
4025,4,-246,-96,297,39,-138
4030,0,-246,-94,287,42,-150
4035,3,-244,-91,276,41,-154
4040,3,-250,-88,258,39,-158
4045,1,-249,-87,242,37,-159
4050,1,-249,-86,229,35,-156
4055,0,-253,-84,212,30,-150
4060,3,-256,-75,200,26,-141
4065,1,-254,-76,186,19,-134
4070,-2,-256,-77,172,13,-126
4075,-2,-251,-78,159,9,-120
4080,-1,-256,-75,151,8,-115
4085,-3,-257,-78,142,6,-113
4090,-2,-256,-74,132,4,-110
4095,0,-256,-74,124,3,-109
4100,-3,-257,-75,119,4,-110
4105,-2,-255,-78,111,4,-111
4110,-1,-257,-77,105,3,-110
4115,-1,-255,-77,100,5,-110
4120,0,-254,-77,96,6,-111
4125,-3,-254,-76,92,5,-108
4130,0,-255,-73,87,3,-107
4135,3,-255,-73,86,1,-107
4140,1,-254,-74,81,-1,-105
4145,0,-257,-74,76,-4,-105
4150,-1,-253,-76,71,-7,-102
4155,3,-256,-74,66,-10,-100
4160,2,-255,-71,62,-11,-98
4165,4,-256,-68,57,-11,-96
4170,6,-255,-71,50,-10,-92
4175,6,-256,-65,44,-9,-88
4180,9,-253,-69,36,-5,-83
4185,3,-257,-67,31,-4,-80
4190,2,-256,-70,27,-4,-78
4195,5,-256,-67,24,-4,-75
4200,3,-256,-67,22,-2,-73
4205,5,-257,-68,17,2,-74
4210,5,-257,-67,12,4,-75
4215,5,-257,-68,7,5,-75
4220,4,-257,-73,1,10,-74
4225,5,-255,-72,-3,13,-77
4230,2,-256,-75,-6,18,-75
4235,7,-257,-74,-10,21,-76
4240,5,-256,-76,-10,25,-75
4245,6,-257,-75,-10,28,-76
4250,6,-255,-73,-9,34,-78
4255,6,-256,-75,-10,37,-78
4260,3,-254,-75,-11,40,-79
4265,6,-255,-76,-16,40,-75
4270,8,-252,-76,-21,40,-71
4275,7,-252,-75,-26,40,-67
4280,6,-252,-78,-30,39,-63
4285,8,-250,-75,-36,39,-59
4290,9,-251,-76,-40,38,-55
4295,9,-253,-80,-46,34,-52
4300,9,-253,-76,-51,31,-50
4305,9,-256,-80,-59,27,-48
4310,10,-256,-78,-67,21,-47
4315,8,-255,-80,-74,18,-44
4320,7,-256,-79,-81,14,-41
4325,11,-256,-80,-87,9,-40
4330,6,-253,-78,-92,3,-38
4335,9,-255,-81,-96,0,-38
4340,7,-256,-82,-98,-5,-35
4345,7,-256,-82,-99,-7,-34
4350,6,-255,-78,-100,-9,-33
4355,4,-253,-86,-99,-10,-31
4360,7,-255,-82,-100,-10,-30
4365,6,-255,-80,-98,-11,-29
4370,9,-256,-82,-97,-12,-28
4375,8,-256,-84,-96,-14,-27
4380,7,-254,-78,-92,-16,-25
4385,6,-255,-82,-88,-18,-24
4390,2,-252,-83,-83,-19,-24
4395,5,-254,-84,-79,-20,-23
4400,2,-255,-83,-78,-19,-22
4405,6,-255,-85,-78,-15,-21
4410,4,-254,-88,-80,-14,-19
4415,5,-253,-82,-87,-11,-15
4420,5,-250,-85,-93,-7,-15
4425,4,-252,-79,-99,-4,-12
4430,5,-254,-82,-103,-2,-10
4435,4,-255,-86,-108,-2,-8
4440,6,-253,-89,-110,-1,-8
4445,4,-253,-77,-110,-1,-8
4450,3,-257,-84,-109,0,-8
4455,5,-253,-85,-107,1,-7
4460,5,-252,-83,-106,2,-5
4465,6,-254,-81,-103,2,-5
4470,6,-252,-82,-102,4,-4
4475,7,-255,-81,-102,6,-4
4480,4,-256,-79,-102,7,-3
4485,5,-256,-79,-104,8,-2
4490,9,-255,-83,-107,8,0
4495,6,-253,-85,-110,9,1
4500,6,-252,-79,-113,7,2
4505,6,-253,-83,-118,7,2
4510,2,-255,-81,-120,6,3
4515,7,-255,-82,-122,4,3
4520,6,-255,-85,-121,1,3
4525,2,-253,-81,-125,0,4
4530,6,-254,-82,-123,-2,6
4535,4,-255,-83,-125,-1,7
4540,5,-254,-83,-128,-1,8
4545,2,-255,-87,-128,1,9
4550,6,-255,-88,-127,5,10
4555,6,-256,-89,-129,6,11
4560,4,-255,-87,-129,8,11
4565,2,-254,-84,-126,11,12
4570,3,-254,-88,-125,12,12
4575,7,-254,-86,-123,14,13
4580,4,-251,-87,-121,15,14
4585,6,-256,-83,-121,15,15
4590,6,-256,-83,-121,16,17
4595,7,-254,-88,-125,18,17
4600,7,-256,-83,-124,19,18
4605,6,-255,-84,-126,20,17
4610,5,-254,-82,-126,20,17
4615,6,-257,-83,-125,20,15
4620,13,-249,-84,-124,18,14
4625,8,-256,-83,-123,16,12
4630,4,-256,-82,-122,14,10
4635,3,-256,-81,-121,13,10
4640,3,-256,-81,-118,13,9
4645,3,-255,-81,-118,14,8
4650,4,-255,-86,-118,15,7
4655,4,-255,-83,-118,17,8
4660,3,-253,-84,-120,17,9
4665,-1,-254,-87,-120,17,9
4670,2,-258,-86,-120,18,10
4675,5,-254,-88,-119,17,12
4680,6,-254,-89,-120,17,13
4685,6,-256,-87,-118,17,15
4690,4,-256,-88,-117,18,16
4695,7,-253,-86,-115,18,19
4700,4,-256,-89,-115,18,18
4705,6,-256,-87,-112,20,19
4710,4,-251,-86,-109,20,20
4715,6,-256,-87,-108,22,19
4720,5,-252,-87,-110,24,17
4725,4,-255,-86,-109,25,15
4730,5,-257,-88,-108,25,13
4735,4,-256,-85,-107,29,11
4740,6,-255,-89,-107,29,8
4745,6,-255,-91,-106,29,9
4750,4,-254,-90,-104,30,7
4755,2,-254,-90,-102,30,6
4760,2,-252,-95,-100,28,5
4765,6,-256,-89,-99,27,4
4770,4,-256,-92,-96,24,3
4775,1,-253,-95,-95,23,4
4780,3,-254,-92,-93,21,4
4785,-2,-253,-94,-91,19,4
4790,0,-252,-95,-90,18,4
4795,4,-255,-94,-89,15,5
4800,2,-255,-92,-91,15,4
4805,3,-255,-95,-90,13,5
4810,0,-253,-92,-90,10,2
4815,0,-252,-92,-91,8,1
4820,0,-252,-96,-93,6,1
4825,2,-255,-92,-94,2,0
4830,-1,-254,-96,-92,1,-2
4835,-5,-252,-96,-91,1,-4
4840,1,-254,-94,-89,1,-7
4845,1,-252,-92,-86,-1,-7
4850,2,-253,-92,-85,-2,-7
4855,1,-252,-91,-83,-2,-7
4860,1,-253,-92,-81,-1,-7
4865,-2,-253,-95,-81,-1,-6
4870,2,-253,-96,-81,0,-6
4875,2,-253,-94,-83,1,-3
4880,-1,-251,-93,-86,1,-2
4885,1,-254,-93,-87,1,-3
4890,1,-255,-92,-87,0,-3
4895,2,-253,-92,-89,2,-3
4900,4,-254,-92,-90,2,-4
4905,2,-251,-90,-92,3,-4
4910,2,-253,-94,-95,4,-6
4915,3,-251,-95,-95,6,-8
4920,2,-252,-92,-98,7,-10
4925,0,-251,-93,-100,7,-10
4930,1,-252,-92,-102,8,-11
4935,3,-254,-92,-104,9,-11
4940,2,-251,-93,-106,10,-13
4945,10,-249,-93,-107,11,-11
4950,1,-252,-97,-111,13,-11
4955,2,-252,-95,-115,15,-12
4960,2,-254,-96,-116,16,-11
4965,3,-253,-95,-120,18,-11
4970,1,-252,-93,-121,18,-10
4975,2,-254,-94,-122,20,-9
4980,1,-250,-95,-123,20,-8
4985,1,-252,-94,-124,22,-7
4990,0,-253,-92,-123,24,-4
4995,1,-253,-89,-122,24,-2
5000,1,-253,-96,-118,26,-1
5005,1,-253,-90,-113,26,-2
5010,4,-255,-91,-111,27,-3
5015,1,-254,-93,-109,27,-3
5020,0,-252,-96,-109,28,-5
5025,4,-253,-94,-110,26,-5
5030,4,-255,-93,-111,26,-4
5035,1,-255,-96,-111,26,-3
5040,4,-256,-94,-115,27,-3
5045,3,-256,-92,-118,26,-3
5050,2,-252,-95,-122,25,-2
5055,1,-255,-98,-120,24,-2
5060,4,-253,-98,-122,23,-3
5065,3,-254,-91,-121,22,-3
5070,-1,-252,-95,-117,19,-5
5075,3,-255,-92,-114,17,-6
5080,-2,-255,-92,-112,18,-6
5085,4,-255,-96,-107,17,-7
5090,1,-252,-95,-103,17,-8
5095,3,-253,-98,-102,15,-8
5100,3,-256,-96,-98,16,-7
5105,6,-253,-94,-99,17,-6
5110,4,-251,-96,-98,18,-7
5115,3,-251,-94,-98,18,-7
5120,3,-253,-98,-100,19,-7
5125,4,-251,-96,-99,21,-8
5130,5,-254,-98,-98,21,-5
5135,3,-251,-99,-100,23,-4
5140,5,-251,-96,-102,22,-5
5145,5,-252,-94,-103,23,-5
5150,4,-253,-98,-104,24,-5
5155,3,-251,-98,-101,22,-6
5160,4,-253,-98,-101,22,-6
5165,2,-252,-96,-102,22,-6
5170,4,-253,-99,-100,21,-7
5175,2,-253,-97,-99,21,-7
5180,-1,-255,-93,-100,20,-8
5185,0,-253,-93,-100,19,-9
5190,2,-253,-94,-98,17,-12
5195,3,-252,-97,-96,17,-12
5200,1,-250,-99,-96,18,-14
5205,1,-253,-96,-96,17,-14
5210,1,-251,-95,-94,19,-12
5215,3,-253,-95,-96,18,-10
5220,1,-251,-99,-96,19,-11
5225,4,-255,-100,-98,20,-10
5230,1,-251,-97,-98,20,-8
5235,0,-252,-100,-99,20,-7
5240,3,-250,-95,-102,22,-7
5245,6,-252,-97,-102,21,-4
5250,7,-254,-93,-103,22,-3
5255,4,-253,-96,-104,22,-2
5260,5,-253,-98,-103,23,-2
5265,4,-254,-95,-103,24,1
5270,5,-253,-94,-104,23,0
5275,6,-252,-93,-105,26,2
5280,7,-252,-97,-104,27,2
5285,6,-250,-99,-103,26,1
5290,5,-249,-97,-102,27,0
5295,6,-251,-100,-103,27,-1
5300,4,-250,-94,-106,28,-2
5305,5,-252,-95,-110,28,-4
5310,4,-251,-95,-112,28,-5
5315,5,-252,-98,-114,28,-7
5320,3,-252,-100,-116,30,-8
5325,5,-254,-100,-120,29,-8
5330,2,-251,-98,-122,30,-8
5335,4,-252,-97,-123,30,-9
5340,2,-255,-98,-121,31,-9
5345,4,-253,-100,-119,30,-9
5350,2,-252,-98,-114,28,-8
5355,5,-250,-100,-108,27,-6
5360,4,-252,-101,-104,25,-3
5365,5,-250,-102,-97,24,-2
5370,5,-251,-102,-93,23,-1
5375,3,-250,-101,-88,22,-1
5380,8,-254,-92,-86,21,0
5385,6,-253,-100,-85,18,2
5390,6,-248,-103,-85,20,0
5395,1,-251,-101,-86,20,-1
5400,3,-251,-102,-87,20,-6
5405,2,-252,-99,-88,20,-7
5410,2,-251,-105,-87,20,-9
5415,1,-253,-104,-85,19,-12
5420,1,-251,-102,-80,21,-13
5425,4,-253,-109,-76,20,-15
5430,1,-251,-104,-70,22,-16
5435,0,-252,-102,-64,23,-15
5440,0,-251,-102,-57,23,-16
5445,2,-253,-104,-52,25,-12
5450,2,-252,-103,-48,24,-12
5455,1,-253,-101,-45,27,-12
5460,1,-249,-100,-44,25,-13
5465,-1,-251,-97,-42,25,-12
5470,2,-250,-98,-44,25,-12
5475,3,-250,-101,-44,25,-12
5480,1,-251,-99,-44,25,-12
5485,1,-250,-103,-44,25,-12
5490,-2,-251,-106,-42,24,-10
5495,4,-250,-100,-38,23,-10
5500,2,-250,-101,-35,23,-9
5505,1,-252,-103,-31,22,-11
5510,5,-251,-99,-28,20,-10
5515,2,-250,-106,-26,19,-10
5520,0,-251,-99,-27,18,-11
5525,4,-252,-99,-26,17,-11
5530,4,-251,-99,-27,16,-11
5535,1,-250,-104,-29,18,-11
5540,7,-251,-104,-31,18,-10
5545,4,-250,-101,-31,19,-10
5550,1,-251,-101,-30,19,-12
5555,3,-246,-103,-30,20,-12
5560,3,-252,-100,-27,21,-14
5565,2,-252,-100,-26,21,-14
5570,1,-251,-101,-24,23,-13
5575,3,-251,-102,-23,24,-13
5580,4,-253,-102,-19,23,-14
5585,0,-250,-102,-20,25,-13
5590,6,-251,-101,-21,23,-12
5595,5,-252,-101,-22,23,-9
5600,5,-254,-102,-25,23,-7
5605,5,-251,-106,-28,22,-7
5610,4,-252,-102,-29,22,-7
5615,3,-250,-101,-30,21,-8
5620,4,-252,-101,-31,22,-7
5625,4,-250,-99,-30,22,-6
5630,3,-250,-100,-31,21,-6
5635,6,-251,-97,-34,21,-6
5640,3,-251,-99,-36,21,-6
5645,3,-248,-100,-35,20,-6
5650,6,-252,-97,-33,19,-5
5655,3,-251,-99,-32,19,-6
5660,2,-249,-98,-32,19,-6
5665,6,-253,-100,-32,18,-5
5670,4,-253,-98,-33,18,-6
5675,4,-254,-102,-32,18,-7
5680,7,-251,-101,-33,18,-7
5685,3,-250,-101,-33,18,-9
5690,4,-252,-100,-34,17,-9
5695,-1,-251,-102,-33,16,-9
5700,6,-250,-98,-34,16,-11
5705,7,-250,-102,-34,16,-9
5710,6,-253,-103,-34,15,-8
5715,5,-254,-102,-34,16,-7
5720,6,-253,-96,-34,17,-6
5725,4,-254,-101,-33,17,-7
5730,4,-252,-99,-35,17,-6
5735,3,-250,-97,-35,19,-5
5740,3,-252,-101,-35,19,-5
5745,3,-253,-94,-34,19,-6
5750,4,-251,-98,-33,18,-6
5755,1,-247,-100,-30,19,-5
5760,4,-252,-101,-31,19,-6
5765,4,-252,-100,-29,19,-6
5770,3,-252,-98,-28,19,-6
5775,1,-251,-96,-29,20,-6
5780,2,-252,-102,-29,18,-5
5785,6,-250,-99,-30,18,-6
5790,4,-252,-97,-33,17,-6
5795,6,-250,-102,-32,17,-6
5800,8,-252,-99,-35,17,-6
5805,4,-251,-96,-37,17,-8
5810,5,-249,-99,-35,16,-9
5815,5,-249,-103,-36,16,-8
5820,2,-251,-99,-35,16,-8
5825,5,-253,-100,-36,15,-9
5830,3,-251,-96,-36,15,-7
5835,4,-253,-99,-36,15,-7
5840,4,-251,-99,-36,17,-7
5845,4,-254,-97,-33,17,-7
5850,1,-252,-100,-34,18,-7
5855,2,-251,-93,-34,18,-8
5860,2,-251,-97,-32,18,-9
5865,2,-251,-98,-31,17,-9
5870,4,-252,-100,-32,17,-10
5875,1,-251,-98,-31,18,-8
5880,2,-251,-97,-31,17,-9
5885,2,-250,-98,-32,16,-8
5890,3,-250,-97,-31,17,-6
5895,4,-249,-98,-33,17,-6
5900,4,-249,-97,-33,17,-6
5905,0,-247,-99,-36,16,-4
5910,0,-249,-100,-40,16,-4
5915,3,-252,-97,-42,16,-5
5920,1,-246,-101,-42,16,-4
5925,4,-252,-101,-44,17,-5
5930,2,-249,-101,-45,16,-5
5935,6,-254,-96,-46,17,-7
5940,3,-252,-98,-46,18,-9
5945,4,-255,-98,-47,18,-11
5950,2,-252,-98,-45,20,-11
5955,0,-251,-101,-42,19,-11
5960,1,-250,-98,-39,20,-9
5965,4,-252,-98,-37,19,-8
5970,2,-251,-101,-34,19,-8
5975,2,-252,-91,-33,20,-6
5980,4,-253,-96,-32,21,-5
5985,4,-252,-100,-32,19,-6
5990,2,-254,-104,-32,18,-5
5995,5,-249,-103,-31,18,-5
6000,1,-254,-101,-31,18,-7
6005,1,-251,-99,-34,19,-7
6010,2,-252,-99,-36,20,-8
6015,2,-253,-101,-39,20,-8
6020,4,-251,-101,-40,22,-10
6025,3,-254,-96,-40,21,-10
6030,4,-249,-100,-39,20,-10
6035,4,-249,-103,-37,21,-10
6040,3,-250,-99,-35,19,-10
6045,2,-252,-99,-31,18,-12
6050,3,-252,-100,-26,18,-12
6055,2,-250,-96,-25,17,-10
6060,3,-252,-94,-23,17,-9
6065,4,-252,-100,-21,17,-11
6070,2,-253,-99,-19,17,-11
6075,4,-249,-94,-19,16,-11
6080,7,-251,-101,-19,15,-11
6085,3,-252,-99,-20,15,-10
6090,1,-251,-94,-20,15,-10
6095,3,-252,-97,-26,14,-10
6100,3,-252,-93,-27,17,-9
6105,2,-253,-94,-31,15,-7
6110,2,-251,-96,-34,15,-6
6115,6,-254,-95,-36,15,-7
6120,4,-255,-94,-41,14,-6
6125,4,-253,-99,-42,14,-5
6130,6,-251,-96,-45,14,-3
6135,4,-253,-96,-46,13,-3
6140,3,-254,-97,-47,14,-3
6145,8,-247,-103,-46,14,-4
6150,5,-252,-97,-47,16,-5
6155,5,-251,-97,-47,15,-3
6160,6,-252,-94,-45,16,-5
6165,3,-253,-97,-45,17,-6
6170,5,-253,-100,-44,17,-5
6175,4,-250,-99,-43,16,-5
6180,2,-249,-98,-42,17,-6
6185,5,-252,-101,-43,18,-4
6190,5,-251,-94,-42,19,-4
6195,4,-253,-96,-41,17,-4
6200,6,-252,-99,-40,17,-3
6205,3,-250,-101,-38,17,-3
6210,5,-250,-97,-38,17,-4
6215,3,-249,-98,-39,15,-3
6220,1,-250,-100,-40,16,-5
6225,3,-254,-97,-39,15,-5
6230,5,-254,-98,-40,15,-4
6235,2,-251,-100,-40,15,-4
6240,3,-250,-96,-44,16,-4
6245,2,-250,-99,-44,15,-4
6250,0,-246,-94,-45,16,-4
6255,5,-251,-101,-45,16,-3
6260,0,-251,-97,-45,16,-3
6265,1,-252,-102,-44,15,-2
6270,3,-252,-97,-45,15,-3
6275,2,-250,-97,-44,15,-3
6280,1,-250,-97,-43,14,-4
6285,3,-254,-98,-44,14,-5
6290,2,-251,-99,-45,14,-6
6295,1,-253,-99,-46,15,-7
6300,3,-252,-100,-44,15,-6
6305,4,-251,-99,-45,15,-8
6310,1,-253,-99,-44,14,-7
6315,4,-250,-96,-45,14,-9
6320,2,-251,-99,-45,13,-8
6325,2,-251,-98,-45,13,-7
6330,0,-251,-98,-44,12,-7
6335,4,-251,-95,-42,10,-7
6340,1,-252,-97,-43,12,-7
6345,4,-251,-92,-42,12,-5
6350,3,-254,-98,-44,13,-5
6355,3,-251,-96,-46,13,-4
6360,1,-252,-97,-49,12,-6
6365,3,-250,-97,-50,13,-4
6370,2,-250,-98,-49,15,-4
6375,6,-252,-99,-49,16,-4
6380,3,-255,-99,-51,16,-5
6385,5,-250,-97,-50,18,-6
6390,4,-254,-99,-50,17,-5
6395,3,-251,-95,-50,16,-7
6400,3,-250,-96,-49,17,-9
6405,2,-251,-94,-51,16,-8
6410,3,-254,-91,-51,14,-8
6415,3,-250,-98,-50,12,-7
6420,3,-250,-101,-49,12,-7
6425,0,-252,-99,-49,10,-9
6430,1,-249,-96,-48,8,-9
6435,1,-251,-96,-47,8,-10
6440,1,-254,-95,-46,8,-10
6445,0,-251,-98,-45,7,-10
6450,1,-252,-101,-46,8,-9
6455,2,-252,-98,-47,7,-11
6460,2,-251,-98,-47,7,-9
6465,1,-251,-98,-48,8,-10
6470,2,-252,-99,-47,9,-10
6475,7,-250,-97,-48,10,-10
6480,0,-249,-96,-49,9,-8
6485,3,-251,-99,-47,9,-8
6490,0,-252,-96,-47,8,-9
6495,2,-251,-96,-47,8,-7
6500,2,-253,-97,-47,8,-7
6505,4,-251,-101,-47,9,-7
6510,4,-253,-102,-48,8,-7
6515,0,-249,-95,-46,9,-7
6520,4,-250,-98,-46,10,-6
6525,4,-252,-97,-48,9,-7
6530,1,-248,-96,-51,9,-6
6535,7,-250,-99,-50,8,-7
6540,1,-248,-100,-50,9,-7
6545,2,-253,-100,-52,9,-6
6550,4,-253,-97,-53,10,-8
6555,3,-250,-98,-55,10,-9
6560,1,-252,-99,-55,10,-9
6565,2,-252,-99,-56,10,-9
6570,3,-252,-99,-54,9,-8
6575,2,-251,-97,-53,10,-9
6580,6,-246,-92,-50,10,-9
6585,7,-254,-99,-48,11,-8
6590,5,-250,-101,-47,11,-8
6595,4,-253,-97,-47,13,-7
6600,4,-250,-98,-44,13,-6
6605,3,-253,-104,-45,13,-5
6610,6,-255,-97,-47,13,-4
6615,5,-252,-99,-47,14,-5
6620,3,-254,-96,-49,12,-5
6625,7,-254,-97,-50,12,-6
6630,4,-255,-96,-50,13,-7
6635,5,-252,-98,-49,14,-6
6640,4,-249,-102,-50,13,-7
6645,3,-253,-100,-50,14,-8
6650,5,-253,-97,-48,15,-10
6655,4,-254,-98,-47,16,-9
6660,0,-252,-101,-45,16,-9
6665,2,-250,-99,-43,17,-10
6670,7,-255,-96,-40,19,-11
6675,5,-252,-94,-40,20,-10
6680,8,-251,-100,-39,22,-9
6685,-2,-248,-104,-38,24,-10
6690,7,-251,-93,-37,24,-8
6695,5,-252,-97,-39,25,-8
6700,7,-251,-98,-38,25,-8
6705,5,-252,-93,-38,26,-7
6710,7,-253,-94,-38,27,-7
6715,5,-250,-96,-39,27,-7
6720,3,-252,-94,-42,28,-3
6725,2,-252,-95,-42,27,-4
6730,3,-253,-96,-45,25,-5
6735,6,-252,-97,-47,26,-4
6740,4,-252,-95,-49,25,-3
6745,5,-251,-97,-51,23,-3
6750,6,-252,-96,-54,22,-3
6755,4,-251,-94,-54,21,-2
6760,4,-250,-100,-57,22,0
6765,5,-250,-97,-56,22,0
6770,2,-252,-98,-57,20,2
6775,2,-249,-95,-54,20,1
6780,3,-253,-98,-53,20,2
6785,4,-252,-103,-53,21,4
6790,3,-248,-101,-51,20,4
6795,-1,-249,-102,-53,21,7
6800,3,-253,-101,-53,22,6
6805,6,-253,-97,-50,22,6
6810,7,-254,-101,-52,22,7
6815,5,-251,-95,-52,22,8
6820,3,-249,-97,-52,21,8
6825,3,-249,-100,-51,20,9
6830,5,-254,-101,-53,21,8
6835,2,-255,-95,-53,21,6
6840,2,-251,-95,-54,23,5
6845,1,-251,-95,-54,22,6
6850,3,-251,-99,-54,24,5
6855,2,-252,-94,-55,24,4
6860,1,-250,-98,-55,24,4
6865,3,-252,-98,-56,25,3
6870,2,-251,-96,-56,24,4
6875,5,-255,-96,-57,25,2
6880,2,-250,-98,-57,25,2
6885,2,-250,-98,-55,24,1
6890,2,-250,-94,-54,24,2
6895,6,-253,-95,-52,21,3
6900,3,-252,-97,-53,20,2
6905,2,-252,-95,-51,19,1
6910,3,-252,-101,-52,17,0
6915,0,-253,-95,-51,17,-1
6920,-1,-250,-98,-50,15,0
6925,2,-255,-97,-49,14,-2
6930,4,-251,-98,-49,14,-2
6935,2,-248,-98,-48,15,-2
6940,1,-251,-98,-47,13,-1
6945,1,-250,-100,-47,13,-1
6950,3,-254,-102,-48,13,0
6955,3,-255,-98,-47,13,-1
6960,5,-253,-98,-48,14,0
6965,3,-251,-97,-50,15,3
6970,5,-256,-98,-51,16,1
6975,2,-252,-96,-51,16,3
6980,2,-252,-99,-51,16,2
6985,5,-253,-98,-52,16,1
6990,3,-252,-99,-53,17,0
6995,4,-251,-96,-53,18,0
7000,7,-253,-99,-53,16,-1
7005,1,-249,-96,-53,16,-2
7010,1,-250,-98,-54,18,-2
7015,-1,-255,-96,-54,16,-3
7020,3,-253,-100,-56,15,-2
7025,1,-250,-101,-52,14,-3
7030,2,-251,-99,-52,13,-4
7035,5,-252,-96,-53,12,-3
7040,5,-253,-96,-53,11,-3
7045,4,-252,-99,-53,11,-2
7050,3,-252,-101,-54,11,-2
7055,1,-251,-96,-57,12,0
7060,3,-251,-96,-56,13,0
7065,6,-252,-101,-56,12,-1
7070,2,-253,-96,-56,13,-1
7075,3,-254,-98,-55,15,-1
7080,2,-252,-96,-55,15,-2
7085,2,-251,-101,-53,14,0
7090,3,-252,-96,-52,16,-2
7095,4,-253,-98,-53,15,-3
7100,4,-253,-97,-52,15,-2
7105,1,-252,-97,-54,15,-2
7110,1,-255,-104,-52,15,-1
7115,3,-253,-100,-52,17,-1
7120,2,-248,-102,-53,17,-3
7125,2,-251,-108,-53,17,-2
7130,2,-252,-98,-53,17,-1
7135,4,-251,-101,-54,17,0
7140,2,-250,-96,-51,16,0
7145,0,-249,-98,-51,15,-1
7150,1,-248,-99,-49,15,0
7155,2,-250,-101,-48,15,1
7160,2,-251,-101,-51,17,2
7165,1,-248,-95,-50,17,1
7170,2,-252,-99,-55,18,2
7175,3,-252,-103,-57,17,0
7180,3,-253,-97,-58,17,0
7185,2,-256,-96,-59,19,-1
7190,3,-251,-98,-60,20,-1
7195,2,-251,-97,-60,20,0
7200,2,-253,-100,-58,20,-2
7205,0,-253,-101,-57,21,-3
7210,2,-248,-102,-54,22,-2
7215,1,-250,-98,-52,22,-1
7220,0,-252,-98,-51,22,-1
7225,5,-244,-97,-51,20,0
7230,2,-250,-100,-50,22,0
7235,3,-253,-103,-47,20,2
7240,3,-252,-95,-48,20,1
7245,4,-251,-101,-50,19,1
7250,3,-251,-98,-51,19,2
7255,4,-254,-97,-55,19,0
7260,-1,-251,-100,-55,19,0
7265,2,-252,-98,-57,18,-2
7270,4,-251,-100,-57,18,-3
7275,5,-253,-100,-56,18,-4
7280,1,-253,-102,-54,18,-4
7285,1,-252,-100,-53,17,-5
7290,0,-251,-98,-50,16,-4
7295,2,-252,-100,-47,18,-5
7300,1,-251,-100,-43,17,-4
7305,0,-253,-96,-41,15,-4
7310,3,-254,-98,-39,16,-4
7315,2,-252,-96,-41,16,-4
7320,4,-250,-100,-40,16,-3
7325,2,-251,-99,-41,16,-2
7330,2,-252,-96,-41,14,-2
7335,-2,-251,-96,-42,14,-1
7340,2,-251,-98,-43,14,0
7345,1,-249,-96,-44,14,-1
7350,0,-252,-98,-46,14,-2
7355,4,-251,-101,-47,14,-4
7360,2,-252,-97,-50,15,-3
7365,4,-251,-99,-51,15,-3
7370,2,-252,-99,-53,15,-4
7375,2,-252,-96,-54,14,-5
7380,0,-255,-98,-54,15,-4
7385,0,-252,-95,-54,16,-5
7390,1,-250,-99,-55,16,-6
7395,1,-252,-97,-54,16,-6
7400,3,-252,-95,-55,16,-6
7405,2,-250,-100,-54,17,-4
7410,0,-253,-99,-51,17,-5
7415,3,-250,-98,-49,18,-4
7420,3,-252,-103,-47,17,-4
7425,2,-251,-101,-45,17,-3
7430,3,-249,-99,-45,17,-2
7435,3,-250,-103,-43,17,-2
7440,2,-254,-101,-43,16,-1
7445,1,-250,-102,-43,16,-1
7450,3,-251,-97,-43,16,-1
7455,2,-250,-100,-42,17,-1
7460,1,-250,-101,-44,18,-1
7465,2,-251,-96,-46,18,-4
7470,1,-252,-99,-44,16,-5
7475,1,-252,-100,-46,17,-4
7480,4,-250,-101,-46,17,-5
7485,3,-250,-100,-47,17,-5
7490,-1,-247,-101,-47,18,-7
7495,1,-252,-99,-48,18,-8
7500,2,-249,-102,-49,17,-7
7505,2,-251,-95,-50,16,-8
7510,2,-249,-104,-52,18,-7
7515,1,-252,-97,-51,18,-7
7520,4,-253,-102,-50,17,-8
7525,2,-249,-100,-52,17,-8
7530,4,-251,-100,-52,17,-7
7535,3,-255,-97,-50,16,-6
7540,2,-252,-102,-51,17,-6
7545,1,-251,-100,-51,16,-6
7550,1,-249,-100,-50,16,-5
7555,3,-253,-101,-47,16,-7
7560,10,-257,-103,-46,16,-6
7565,2,-252,-95,-44,15,-6
7570,2,-250,-98,-44,15,-5
7575,2,-251,-101,-44,16,-6
7580,1,-253,-97,-44,16,-6
7585,2,-253,-98,-46,16,-6
7590,0,-252,-97,-46,15,-5
7595,2,-250,-102,-48,16,-5
7600,1,-252,-97,-49,17,-5
7605,2,-250,-97,-48,17,-4
7610,3,-250,-98,-50,18,-3
7615,2,-255,-97,-50,19,-5
7620,2,-253,-101,-49,18,-5
7625,4,-255,-97,-49,18,-4
7630,3,-251,-97,-47,19,-3
7635,5,-251,-95,-47,20,-4
7640,4,-252,-98,-50,20,-5
7645,3,-253,-97,-50,21,-6
7650,1,-251,-100,-50,20,-6
7655,2,-251,-93,-50,18,-6
7660,5,-252,-96,-50,20,-8
7665,3,-253,-97,-49,20,-7
7670,6,-253,-100,-47,20,-8
7675,0,-251,-100,-47,20,-7
7680,3,-252,-96,-47,20,-6
7685,3,-254,-99,-48,20,-5
7690,2,-248,-99,-47,17,-6
7695,2,-247,-100,-47,18,-6
7700,1,-251,-102,-47,18,-6
7705,1,-250,-100,-47,17,-6
7710,5,-251,-100,-47,16,-6
7715,3,-254,-99,-48,18,-6
7720,2,-253,-102,-49,16,-7
7725,1,-251,-96,-51,17,-6
7730,0,-250,-101,-50,17,-6
7735,0,-252,-100,-50,18,-6
7740,2,-251,-99,-50,19,-6
7745,2,-253,-96,-49,19,-5
7750,3,-250,-100,-51,19,-7
7755,2,-251,-99,-51,18,-6
7760,3,-251,-99,-50,18,-5
7765,0,-251,-97,-49,20,-5
7770,2,-253,-96,-50,20,-4
7775,0,-253,-99,-49,20,-4
7780,1,-250,-99,-47,20,-5
7785,3,-252,-100,-49,21,-4
7790,3,-251,-95,-48,22,-5
7795,3,-250,-97,-46,21,-5
7800,3,-251,-100,-45,21,-5
7805,5,-254,-99,-45,20,-4
7810,2,-250,-100,-45,19,-5
7815,3,-251,-100,-45,18,-4
7820,4,-252,-101,-46,16,-5
7825,2,-250,-96,-50,16,-5
7830,1,-252,-99,-50,15,-4
7835,0,-253,-98,-53,14,-3
7840,4,-252,-101,-54,14,-6
7845,2,-252,-100,-57,16,-4
7850,2,-252,-95,-57,17,-6
7855,1,-254,-100,-58,17,-5
7860,1,-249,-101,-59,18,-7
7865,1,-250,-100,-57,19,-6
7870,0,-254,-99,-52,21,-7
7875,2,-254,-99,-51,20,-7
7880,1,-251,-101,-46,20,-6
7885,-2,-260,-97,-46,19,-4
7890,0,-249,-100,-45,18,-2
7895,3,-253,-100,-44,18,-2
7900,1,-253,-101,-45,18,-3
7905,4,-253,-98,-46,16,-2
7910,4,-252,-99,-49,17,-3
7915,1,-252,-101,-49,16,-4
7920,1,-249,-100,-49,16,-6
7925,2,-252,-97,-49,16,-6
7930,1,-254,-99,-47,15,-8
7935,3,-253,-94,-49,16,-7
7940,1,-253,-95,-46,14,-7
7945,1,-251,-97,-45,14,-8
7950,3,-253,-100,-40,13,-8
7955,3,-250,-100,-40,14,-8
7960,3,-250,-102,-40,15,-8
7965,5,-253,-99,-40,15,-7
7970,3,-252,-96,-39,16,-7
7975,3,-248,-98,-40,13,-7
7980,2,-251,-100,-41,13,-5
7985,3,-251,-99,-42,14,-4
7990,1,-247,-93,-44,14,-5
7995,0,-255,-91,-44,14,-4
8000,3,-249,-98,-45,14,-4
8005,1,-251,-93,-46,13,-4
8010,4,-252,-98,-47,14,-5
8015,3,-252,-96,-48,14,-5
8020,3,-252,-96,-50,14,-6
8025,3,-251,-99,-51,15,-6
8030,1,-252,-99,-51,16,-7
8035,2,-249,-102,-53,14,-8
8040,1,-250,-98,-53,14,-7
8045,3,-252,-101,-52,15,-6
8050,2,-251,-103,-52,16,-7
8055,2,-250,-98,-51,17,-7
8060,1,-249,-100,-50,17,-6
8065,0,-253,-102,-49,18,-5
8070,1,-250,-103,-48,19,-4
8075,4,-251,-98,-47,19,-6
8080,2,-253,-103,-46,18,-4
8085,1,-251,-101,-44,18,-4
8090,4,-249,-99,-43,19,-3
8095,0,-247,-100,-42,17,-3
8100,-1,-253,-103,-42,17,-4
8105,1,-249,-101,-42,18,-4
8110,1,-248,-100,-42,17,-4
8115,1,-254,-97,-44,17,-5
8120,2,-250,-102,-48,19,-6
8125,1,-250,-96,-51,18,-5
8130,2,-251,-100,-52,20,-4
8135,0,-248,-99,-54,19,-2
8140,4,-248,-95,-55,20,2
8145,5,-251,-96,-55,20,5
8150,5,-253,-100,-55,22,8
8155,2,-252,-97,-53,22,13
8160,2,-251,-102,-49,25,16
8165,3,-254,-103,-46,30,20
8170,1,-251,-101,-44,32,21
8175,4,-249,-105,-41,35,23
8180,3,-248,-106,-40,37,25
8185,2,-251,-106,-45,36,26
8190,2,-251,-98,-46,33,28
8195,2,-251,-101,-50,30,29
8200,2,-251,-103,-54,28,28
8205,3,-251,-100,-60,24,27
8210,3,-254,-100,-66,22,27
8215,2,-250,-101,-74,20,28
8220,2,-254,-101,-81,18,27
8225,3,-253,-97,-86,13,29
8230,1,-251,-99,-93,11,29
8235,4,-253,-98,-99,8,28
8240,0,-255,-97,-104,6,26
8245,3,-252,-98,-110,7,24
8250,2,-250,-95,-115,5,21
8255,2,-252,-97,-116,6,17
8260,-3,-249,-98,-119,7,16
8265,-3,-248,-96,-121,6,13
8270,-3,-249,-95,-124,5,11
8275,-3,-247,-94,-132,1,8
8280,-2,-252,-94,-141,-3,8
8285,-3,-247,-96,-152,-8,8
8290,0,-248,-99,-162,-11,10
8295,-1,-245,-98,-172,-13,15
8300,-3,-246,-96,-180,-14,20
8305,1,-247,-101,-185,-17,25
8310,1,-249,-97,-191,-20,32
8315,0,-248,-98,-199,-21,36
8320,1,-260,-102,-205,-22,38
8325,-1,-248,-95,-213,-24,40
8330,1,-250,-100,-220,-25,41
8335,-1,-254,-98,-226,-25,41
8340,0,-250,-97,-231,-25,42
8345,0,-250,-98,-232,-25,40
8350,0,-251,-101,-233,-23,41
8355,-1,-246,-98,-228,-20,46
8360,-4,-245,-102,-223,-15,49
8365,-2,-244,-101,-217,-10,53
8370,1,-244,-100,-212,-7,60
8375,1,-246,-102,-208,-2,69
8380,4,-246,-106,-210,1,74
8385,4,-249,-101,-218,2,80
8390,5,-246,-102,-227,6,83
8395,3,-244,-100,-239,7,84
8400,3,-246,-101,-254,11,82
8405,5,-249,-106,-268,14,78
8410,4,-244,-100,-281,15,74
8415,5,-243,-103,-299,17,68
8420,3,-245,-102,-314,20,62
8425,3,-246,-103,-331,21,54
8430,-3,-246,-107,-347,23,49
8435,1,-247,-103,-363,24,42
8440,-1,-249,-105,-376,25,39
8445,-2,-246,-106,-386,24,38
8450,-1,-247,-107,-395,23,37
8455,-4,-247,-107,-400,19,40
8460,-4,-245,-106,-405,13,41
8465,-5,-244,-110,-412,11,43
8470,-7,-240,-108,-420,7,49
8475,-6,-244,-110,-426,1,53
8480,-6,-235,-111,-432,-7,57
8485,-8,-240,-110,-435,-15,61
8490,-5,-242,-109,-442,-19,65
8495,-8,-242,-108,-449,-24,71
8500,-7,-243,-109,-459,-28,73
8505,-5,-243,-110,-469,-29,76
8510,-5,-242,-112,-481,-31,79
8515,-6,-244,-110,-492,-31,82
8520,-5,-240,-111,-505,-30,84
8525,-4,-240,-112,-516,-28,87
8530,-7,-242,-115,-526,-24,88
8535,-2,-242,-115,-550,-22,106
8540,-6,-241,-117,-567,-22,102
8545,-4,-239,-110,-566,-22,94
8550,-8,-239,-116,-562,-20,88
8555,-4,-242,-119,-558,-20,85
8560,-6,-239,-114,-557,-19,81
8565,-4,-239,-120,-563,-21,79
8570,-8,-239,-117,-563,-21,84
8575,-8,-240,-121,-565,-23,84
8580,-7,-240,-122,-568,-25,87
8585,-8,-239,-121,-573,-27,89
8590,-10,-239,-119,-581,-29,90
8595,-12,-236,-126,-594,-33,91
8600,-13,-238,-125,-608,-35,93
8605,-14,-238,-123,-623,-38,92
8610,-13,-236,-126,-642,-43,92
8615,-13,-234,-125,-653,-46,98
8620,-11,-235,-127,-665,-52,105
8625,-8,-237,-130,-681,-56,114
8630,-14,-233,-125,-709,-59,131
8635,-9,-234,-128,-723,-66,128
8640,-8,-237,-134,-730,-68,125
8645,-10,-238,-139,-739,-68,122
8650,-9,-235,-135,-749,-63,119
8655,-7,-236,-137,-760,-58,111
8660,-11,-230,-133,-777,-51,101
8665,-8,-235,-134,-792,-45,97
8670,-10,-231,-135,-804,-37,93
8675,-11,-232,-136,-818,-30,89
8680,-12,-230,-138,-832,-24,87
8685,-12,-230,-141,-849,-21,87
8690,-10,-229,-141,-867,-22,86
8695,-12,-230,-145,-887,-23,88
8700,-11,-231,-145,-909,-24,89
8705,-12,-229,-144,-931,-28,92
8710,-14,-236,-150,-951,-29,96
8715,-13,-231,-144,-979,-28,116
8720,-13,-238,-151,-989,-31,106
8725,-14,-230,-149,-990,-29,92
8730,-13,-229,-150,-984,-28,91
8735,-13,-225,-150,-978,-24,88
8740,-12,-228,-152,-976,-24,89
8745,-13,-227,-155,-976,-23,87
8750,-12,-226,-154,-977,-24,86
8755,-14,-226,-157,-975,-25,84
8760,-13,-230,-159,-972,-23,78
8765,-15,-221,-163,-970,-19,67
8770,-13,-220,-164,-963,-13,63
8775,-13,-223,-164,-956,-4,57
8780,-11,-222,-165,-947,0,49
8785,-13,-222,-169,-942,5,44
8790,-14,-222,-171,-939,12,40
8795,-15,-217,-171,-939,16,38
8800,-15,-212,-173,-945,20,37
8805,-13,-216,-171,-954,25,35
8810,-14,-213,-171,-967,29,32
8815,-14,-214,-174,-973,34,29
8820,-11,-216,-177,-979,34,28
8825,-13,-217,-177,-977,35,26
8830,-13,-219,-179,-971,34,26
8835,-14,-219,-180,-960,30,24
8840,-13,-215,-180,-944,30,24
8845,-12,-219,-185,-930,29,22
8850,-14,-214,-186,-909,30,22
8855,-15,-213,-192,-876,34,18
8860,-15,-212,-199,-828,35,12
8865,-14,-214,-209,-770,37,6
8870,-15,-209,-201,-708,35,-1
8875,-13,-207,-205,-650,34,-10
8880,-12,-202,-205,-602,31,-17
8885,-13,-193,-201,-576,27,-24
8890,-14,-188,-206,-572,23,-28
8895,-14,-186,-200,-590,15,-29
8900,-14,-184,-199,-621,7,-28
8905,-15,-185,-200,-660,-2,-31
8910,-16,-186,-212,-695,-13,-33
8915,-20,-189,-213,-716,-20,-38
8920,-16,-191,-212,-722,-28,-44
8925,-18,-191,-213,-720,-36,-47
8930,-16,-187,-216,-720,-44,-46
8935,-16,-188,-215,-724,-57,-42
8940,-17,-185,-213,-737,-73,-36
8945,-16,-187,-214,-753,-85,-32
8950,-16,-185,-214,-772,-97,-23
8955,-18,-185,-214,-797,-110,-15
8960,-16,-184,-214,-822,-117,-2
8965,-26,-186,-211,-853,-118,19
8970,-22,-191,-211,-888,-114,46
8975,-23,-193,-211,-915,-110,72
8980,-16,-199,-214,-932,-103,91
8985,-16,-205,-218,-942,-95,101
8990,-15,-208,-221,-932,-85,106
8995,-14,-216,-225,-910,-78,111
9000,-16,-220,-227,-869,-68,114
9005,-16,-217,-225,-812,-58,116
9010,-15,-223,-229,-748,-48,114
9015,-16,-220,-229,-686,-35,113
9020,-13,-223,-229,-630,-21,111
9025,-16,-222,-236,-584,-6,108
9030,-16,-227,-236,-551,14,106
9035,-16,-226,-237,-524,31,101
9040,-16,-226,-235,-501,51,95
9045,-19,-227,-239,-476,65,85
9050,-19,-225,-235,-452,78,79
9055,-22,-223,-241,-419,89,74
9060,-17,-222,-245,-383,97,72
9065,-21,-216,-241,-349,104,68
9070,-22,-208,-241,-317,109,65
9075,-23,-206,-241,-295,115,62
9080,-19,-203,-241,-290,116,61
9085,-22,-199,-238,-295,116,63
9090,-22,-200,-234,-309,110,62
9095,-22,-194,-230,-331,108,62
9100,-23,-194,-228,-357,107,59
9105,-25,-193,-232,-378,107,54
9110,-21,-193,-230,-393,108,45
9115,-27,-193,-233,-397,107,40
9120,-27,-192,-235,-392,107,33
9125,-21,-191,-235,-371,108,30
9130,-22,-192,-238,-335,107,27
9135,-24,-188,-234,-289,105,28
9140,-25,-185,-232,-234,102,29
9145,-19,-184,-232,-178,101,30
9150,-17,-184,-235,-123,99,27
9155,-18,-185,-227,-77,99,27
9160,-16,-184,-228,-40,100,23
9165,-17,-180,-231,-15,105,18
9170,-18,-181,-227,0,110,14
9175,-19,-180,-230,7,113,7
9180,-21,-178,-231,11,116,-1
9185,-17,-180,-229,14,117,-7
9190,-21,-179,-231,16,118,-11
9195,-25,-177,-228,24,116,-12
9200,-16,-181,-226,37,114,-13
9205,-19,-177,-233,52,110,-14
9210,-20,-178,-231,67,107,-11
9215,-19,-181,-224,83,105,-9
9220,-16,-183,-225,103,106,-10
9225,-19,-183,-228,123,105,-10
9230,-16,-182,-225,140,106,-8
9235,-17,-183,-227,154,111,-5
9240,-14,-183,-228,167,117,-6
9245,-14,-187,-226,179,125,-7
9250,-14,-183,-229,189,128,-8
9255,-14,-185,-226,194,134,-13
9260,-12,-185,-229,200,135,-17
9265,-16,-185,-226,203,131,-19
9270,-14,-183,-224,206,124,-23
9275,-14,-186,-225,214,116,-24
9280,-16,-187,-222,221,108,-29
9285,-15,-187,-220,232,99,-37
9290,-16,-190,-220,244,92,-43
9295,-15,-191,-217,252,85,-41
9300,-12,-195,-217,262,82,-43
9305,-14,-193,-213,274,83,-44
9310,-19,-191,-215,286,82,-44
9315,-14,-192,-218,303,90,-47
9320,-16,-192,-212,317,92,-48
9325,-14,-192,-215,329,88,-51
9330,-16,-191,-217,345,83,-55
9335,-13,-193,-210,360,80,-58
9340,-12,-195,-212,381,74,-62
9345,-13,-192,-213,402,63,-66
9350,-13,-188,-211,426,51,-68
9355,-13,-192,-209,445,41,-70
9360,-12,-196,-212,462,31,-69
9365,-12,-195,-208,476,24,-68
9370,-10,-195,-208,491,17,-68
9375,-15,-193,-205,499,18,-73
9380,-10,-198,-204,511,16,-74
9385,-11,-198,-203,520,16,-71
9390,-12,-196,-199,527,14,-70
9395,-10,-198,-198,532,12,-69
9400,-11,-194,-193,530,6,-74
9405,-9,-194,-196,525,2,-78
9410,-9,-193,-193,513,4,-79
9415,-6,-194,-198,500,11,-78
9420,-8,-195,-196,484,20,-77
9425,-7,-193,-194,472,31,-76
9430,-5,-196,-191,468,44,-80
9435,-5,-193,-195,470,56,-83
9440,-4,-192,-196,474,71,-88
9445,-8,-193,-196,476,83,-94
9450,-5,-191,-190,480,92,-102
9455,-6,-191,-192,484,103,-104
9460,-4,-191,-194,486,110,-104
9465,-9,-188,-188,490,113,-104
9470,-6,-188,-192,490,114,-106
9475,-9,-190,-187,491,113,-106
9480,-7,-189,-193,495,112,-107
9485,-5,-190,-184,496,110,-102
9490,-5,-188,-187,501,106,-98
9495,-4,-186,-184,500,105,-99
9500,-4,-185,-189,500,108,-100
9505,-4,-185,-184,497,110,-100
9510,-8,-187,-184,493,112,-100
9515,-7,-187,-181,491,110,-105
9520,-3,-184,-184,490,106,-108
9525,-10,-185,-180,488,102,-109
9530,-3,-187,-183,487,96,-110
9535,-7,-185,-183,481,94,-112
9540,-1,-186,-178,474,93,-116
9545,-3,-188,-175,470,93,-119
9550,-2,-187,-175,467,93,-118
9555,-3,-187,-174,470,93,-113
9560,-1,-184,-176,468,91,-107
9565,-3,-183,-176,463,88,-102
9570,-1,-185,-172,453,86,-95
9575,-3,-184,-172,442,82,-86
9580,0,-184,-172,432,80,-79
9585,1,-185,-172,425,79,-73
9590,-1,-181,-177,414,75,-68
9595,-2,-181,-175,403,73,-66
9600,0,-185,-172,392,69,-62
9605,3,-190,-173,384,62,-58
9610,-2,-187,-176,376,63,-56
9615,0,-189,-175,369,63,-57
9620,-1,-189,-170,364,64,-62
9625,-1,-193,-170,364,60,-60
9630,6,-194,-167,368,52,-63
9635,-1,-193,-164,375,42,-67
9640,-5,-196,-167,382,34,-70
9645,-5,-198,-166,391,26,-74
9650,-6,-201,-162,399,19,-79
9655,-8,-204,-163,408,10,-88
9660,-11,-204,-162,416,7,-91
9665,-11,-204,-160,428,4,-91
9670,-11,-205,-163,433,1,-99
9675,-12,-207,-167,437,-1,-107
9680,-10,-206,-161,445,-2,-114
9685,-11,-208,-166,453,-4,-119
9690,-11,-205,-162,456,-6,-124
9695,-13,-202,-166,463,-8,-125
9700,-7,-208,-161,465,-10,-125
9705,-7,-204,-163,463,-19,-120
9710,-4,-207,-159,462,-26,-114
9715,-5,-203,-155,457,-35,-109
9720,-5,-204,-157,454,-41,-101
9725,-4,-203,-154,451,-44,-95
9730,-3,-202,-151,449,-44,-91
9735,3,-204,-156,448,-45,-89
9740,-1,-203,-168,446,-40,-91
9745,2,-202,-161,440,-36,-92
9750,4,-203,-159,433,-30,-93
9755,3,-202,-160,431,-25,-94
9760,1,-201,-159,428,-24,-96
9765,2,-203,-160,426,-27,-94
9770,5,-207,-162,426,-32,-90
9775,5,-202,-158,425,-39,-84
9780,2,-206,-155,426,-47,-75
9785,7,-209,-163,426,-57,-63
9790,4,-207,-158,425,-69,-50
9795,2,-208,-155,424,-81,-39
9800,5,-207,-158,423,-89,-33
9805,7,-211,-161,419,-94,-29
9810,6,-210,-155,420,-95,-27
9815,4,-212,-155,421,-95,-25
9820,5,-215,-151,424,-95,-23
9825,2,-213,-150,425,-95,-20
9830,-1,-216,-146,429,-98,-20
9835,-2,-216,-149,436,-102,-19
9840,-3,-217,-148,436,-104,-20
9845,0,-217,-148,430,-109,-18
9850,-1,-216,-148,422,-114,-23
9855,-3,-217,-148,412,-115,-24
9860,0,-221,-145,412,-112,-27
9865,-2,-218,-143,423,-106,-31
9870,-1,-220,-155,424,-97,-37
9875,-1,-216,-150,420,-89,-44
9880,-5,-216,-149,416,-82,-54
9885,-3,-214,-143,419,-79,-60
9890,-6,-212,-145,431,-75,-64
9895,-3,-215,-145,443,-68,-67
9900,-1,-209,-142,448,-58,-75
9905,-3,-210,-143,453,-49,-77
9910,-2,-211,-141,459,-40,-80
9915,1,-209,-137,465,-33,-84
9920,0,-210,-136,474,-27,-86
9925,5,-210,-139,478,-28,-85
9930,2,-208,-139,482,-30,-84
9935,2,-208,-133,484,-31,-85
9940,0,-209,-140,492,-31,-82
9945,0,-206,-134,501,-33,-79
9950,1,-204,-136,514,-33,-76
9955,-7,-205,-139,523,-34,-67
9960,3,-198,-140,522,-32,-58
9965,3,-193,-145,501,-28,-51
9970,4,-191,-147,466,-24,-43
9975,1,-190,-146,418,-19,-37
9980,2,-190,-143,366,-17,-29
9985,3,-193,-142,319,-20,-17
9990,2,-193,-139,277,-27,-4
9995,2,-195,-138,243,-34,6
10000,1,-198,-136,217,-37,16
10005,0,-201,-132,201,-40,23
10010,-3,-202,-132,188,-40,29
10015,-1,-207,-135,182,-39,38
10020,-1,-212,-133,177,-32,43
10025,-1,-211,-135,174,-27,47
10030,0,-216,-137,169,-20,49
10035,-3,-215,-136,164,-17,50
10040,-5,-215,-133,159,-15,49
10045,-3,-216,-133,154,-11,49
10050,-6,-219,-137,147,-8,49
10055,-4,-220,-136,138,-5,49
10060,-4,-223,-135,130,-6,49
10065,-7,-224,-130,121,-10,51
10070,-9,-220,-135,114,-12,54
10075,-9,-224,-136,103,-17,58
10080,-9,-225,-138,93,-18,55
10085,-9,-224,-137,84,-21,53
10090,-9,-220,-137,75,-20,50
10095,-12,-221,-137,66,-15,43
10100,-10,-224,-140,62,-9,41
10105,-10,-220,-140,55,-7,40
10110,-11,-224,-144,55,-5,38
10115,-14,-223,-144,53,-4,37
10120,-13,-226,-142,49,-8,36
10125,-13,-229,-139,43,-15,37
10130,-12,-227,-139,41,-21,37
10135,-12,-228,-144,39,-27,38
10140,-12,-230,-138,38,-33,38
10145,-11,-231,-139,39,-38,34
10150,-12,-233,-131,42,-40,32
10155,-13,-233,-138,48,-42,29
10160,-13,-233,-132,56,-42,24
10165,-15,-236,-130,61,-42,21
10170,-15,-234,-132,70,-43,17
10175,-14,-238,-141,81,-45,14
10180,-14,-242,-128,89,-46,11
10185,-14,-239,-129,93,-46,8
10190,-12,-244,-125,95,-44,3
10195,-9,-243,-125,97,-43,3
10200,-8,-247,-121,104,-40,2
10205,-5,-250,-121,110,-36,4
10210,-8,-247,-116,123,-35,6
10215,-4,-249,-120,137,-33,7
10220,-3,-249,-117,150,-29,7
10225,-1,-245,-123,163,-27,6
10230,-1,-248,-119,174,-25,7
10235,3,-246,-122,186,-20,9
10240,1,-244,-120,197,-14,7
10245,-1,-241,-118,205,-6,6
10250,2,-241,-118,212,5,4
10255,0,-236,-120,210,13,0
10260,1,-238,-124,204,23,-4
10265,2,-236,-119,193,34,-7
10270,4,-233,-119,172,41,-7
10275,0,-235,-118,144,50,-9
10280,-5,-236,-118,112,55,-11
10285,3,-232,-121,79,57,-12
10290,-3,-236,-122,48,56,-15
10295,-3,-237,-121,24,55,-17
10300,-4,-238,-122,-4,53,-17
10305,-5,-240,-123,-26,52,-19
10310,-3,-244,-121,-42,53,-21
10315,-4,-243,-125,-50,54,-24
10320,-5,-246,-122,-55,54,-25
10325,-7,-242,-120,-48,57,-27
10330,-4,-245,-120,-43,59,-27
10335,-7,-242,-119,-35,60,-29
10340,-5,-242,-121,-29,61,-29
10345,-8,-239,-120,-27,60,-31
10350,-7,-241,-123,-25,59,-31
10355,-9,-238,-123,-26,55,-33
10360,-4,-238,-119,-30,52,-35
10365,-7,-236,-119,-35,47,-36
10370,-3,-238,-125,-40,45,-37
10375,-5,-238,-121,-46,42,-36
10380,-6,-240,-122,-46,40,-36
10385,-5,-237,-120,-46,37,-35
10390,-2,-240,-122,-42,34,-35
10395,-2,-242,-116,-37,31,-35
10400,-4,-241,-120,-30,26,-35
10405,-6,-243,-122,-24,24,-36
10410,-1,-244,-124,-19,20,-36
10415,-4,-246,-122,-12,17,-34
10420,-3,-244,-125,-3,16,-34
10425,-1,-248,-124,8,15,-33
10430,-3,-248,-122,21,13,-30
10435,-2,-247,-121,36,13,-30
10440,-4,-245,-119,51,11,-31
10445,-4,-245,-118,66,11,-29
10450,-3,-245,-120,79,8,-31
10455,-2,-246,-116,91,6,-33
10460,-2,-243,-117,101,1,-33
10465,-2,-244,-117,111,-2,-36
10470,-4,-241,-115,117,-4,-34
10475,-3,-240,-114,119,-6,-36
10480,-3,-237,-118,122,-6,-36
10485,-6,-239,-119,122,-6,-37
10490,-2,-237,-116,121,-6,-36
10495,-5,-238,-120,119,-5,-35
10500,0,-240,-118,117,-5,-31
10505,0,-238,-117,113,-1,-29
10510,-1,-238,-118,105,3,-24
10515,-1,-238,-115,98,4,-20
10520,0,-238,-115,90,4,-17
10525,0,-240,-115,79,5,-13
10530,1,-240,-115,69,3,-9
10535,1,-244,-114,58,-2,-6
10540,0,-239,-114,46,-5,-2
10545,1,-242,-118,34,-8,1
10550,0,-243,-113,25,-10,4
10555,-2,-243,-114,17,-12,6
10560,-1,-246,-117,10,-12,9
10565,1,-247,-116,6,-10,10
10570,0,-250,-117,6,-10,12
10575,-3,-247,-115,5,-6,13
10580,-4,-247,-116,12,-2,12
10585,-3,-249,-118,21,5,10
10590,-5,-246,-118,29,12,10
10595,-2,-248,-116,36,15,11
10600,-7,-243,-115,40,18,11
10605,-4,-244,-113,44,18,10
10610,-1,-248,-117,44,16,8
10615,-7,-239,-112,43,15,7
10620,-5,-244,-113,41,13,4
10625,-8,-240,-111,35,11,3
10630,-8,-238,-112,26,13,3
10635,-8,-236,-112,16,15,2
10640,-6,-240,-114,5,16,2
10645,-6,-239,-118,-7,15,3
10650,-5,-239,-115,-23,14,3
10655,-4,-240,-113,-35,12,4
10660,-1,-241,-112,-50,9,5
10665,-3,-242,-114,-62,9,5
10670,-3,-240,-113,-74,11,5
10675,-4,-244,-114,-89,13,5
10680,-2,-245,-117,-99,13,5
10685,-4,-246,-114,-107,16,6
10690,-2,-245,-115,-111,16,7
10695,-2,-246,-115,-113,16,6
10700,-4,-249,-115,-112,17,9
10705,-2,-249,-113,-111,19,9
10710,-4,-248,-110,-109,19,9
10715,-2,-249,-108,-105,18,8
10720,-1,-252,-108,-100,19,6
10725,-3,-247,-111,-96,20,5
10730,-3,-247,-113,-93,21,4
10735,-3,-247,-110,-90,23,3
10740,-3,-246,-108,-87,25,3
10745,0,-247,-115,-85,27,1
10750,-4,-244,-116,-82,30,-1
10755,-4,-248,-112,-82,33,-2
10760,-3,-246,-116,-83,35,-3
10765,-1,-248,-116,-84,34,-4
10770,-4,-246,-115,-86,33,-4
10775,-3,-249,-112,-87,31,-4
10780,-4,-248,-116,-86,29,-5
10785,-4,-248,-113,-86,26,-4
10790,-1,-249,-112,-84,25,-3
10795,-3,-249,-112,-83,26,-4
10800,-3,-246,-112,-78,27,-3
10805,-2,-245,-111,-78,26,-3
10810,-3,-246,-113,-78,24,-3
10815,-4,-244,-111,-78,25,-2
10820,-4,-245,-111,-77,25,-1
10825,0,-248,-114,-77,27,-1
10830,-2,-245,-113,-78,30,-1
10835,1,-248,-113,-83,31,-1
10840,-2,-247,-114,-84,32,-1
10845,-2,-249,-113,-87,34,1
10850,-2,-248,-112,-87,36,2
10855,-1,-248,-113,-86,35,2
10860,-3,-246,-112,-82,35,2
10865,-3,-248,-110,-80,32,3
10870,-3,-248,-109,-73,29,4
10875,-3,-247,-114,-67,28,1
10880,-2,-249,-114,-59,27,0
10885,-5,-249,-114,-52,27,-2
10890,-2,-246,-112,-43,28,-2
10895,-2,-243,-112,-35,28,-3
10900,-2,-248,-114,-30,30,-5
10905,-3,-244,-114,-29,31,-5
10910,-4,-242,-113,-30,31,-7
10915,-6,-244,-116,-30,30,-7
10920,-6,-240,-111,-32,29,-8
10925,-2,-243,-112,-34,26,-7
10930,-5,-243,-114,-36,24,-4
10935,-5,-232,-114,-38,22,-4
10940,-1,-244,-111,-39,19,-2
10945,-4,-247,-115,-42,19,-2
10950,-5,-244,-114,-43,19,-2
10955,-2,-247,-116,-45,19,0
10960,-3,-248,-116,-48,19,2
10965,-5,-248,-114,-47,17,1
10970,-4,-248,-116,-45,17,2
10975,-5,-249,-113,-40,16,2
10980,-4,-251,-114,-33,15,3
10985,-3,-253,-111,-25,12,1
10990,-5,-251,-112,-14,10,1
10995,-3,-250,-114,-2,10,2
11000,-1,-251,-113,10,9,0
11005,-4,-251,-113,20,8,-1
11010,-5,-249,-114,28,8,-2
11015,-5,-244,-113,34,8,-3
11020,-4,-249,-111,37,9,-2
11025,-5,-247,-116,41,9,-2
11030,-5,-245,-113,40,8,-3
11035,-4,-249,-113,38,8,-3
11040,-2,-246,-115,39,7,-1
11045,-3,-244,-113,41,7,-5
11050,-3,-243,-112,45,9,-6
11055,0,-246,-110,50,7,-7
11060,-3,-244,-113,53,9,-9
11065,-3,-245,-111,54,8,-10
11070,-3,-245,-113,54,9,-12
11075,-1,-244,-113,57,7,-13
11080,-2,-245,-112,54,8,-14
11085,-1,-247,-111,50,5,-13
11090,-4,-247,-114,48,3,-11
11095,-4,-247,-110,44,-1,-12
11100,-4,-249,-111,43,-3,-9
11105,-5,-246,-112,40,-6,-5
11110,-5,-244,-111,39,-9,-3
11115,-7,-248,-111,35,-12,0
11120,-4,-246,-110,32,-16,3
11125,-4,-248,-112,30,-20,7
11130,-5,-247,-111,30,-23,10
11135,-4,-248,-112,30,-26,10
11140,-4,-247,-109,30,-28,10
11145,-6,-248,-109,36,-31,9
11150,-3,-248,-111,37,-32,7
11155,-6,-248,-115,37,-32,6
11160,-5,-247,-109,37,-32,3
11165,-6,-246,-112,37,-32,1
11170,-6,-246,-109,34,-31,0
11175,-6,-248,-112,29,-32,-3
11180,-5,-246,-112,24,-32,-5
11185,-4,-246,-113,19,-34,-4
11190,-5,-243,-110,13,-36,-4
11195,-6,-247,-113,9,-37,-6
11200,-6,-243,-110,5,-38,-5
11205,-6,-243,-110,2,-41,-5
11210,-5,-247,-111,-1,-42,-5
11215,-2,-247,-108,-6,-42,-5
11220,-4,-246,-111,-10,-42,-5
11225,-8,-246,-108,-16,-43,-6
11230,-7,-245,-108,-21,-43,-6
11235,-7,-246,-105,-27,-44,-6
11240,-5,-247,-111,-27,-43,-7
11245,-2,-248,-109,-28,-41,-7
11250,-3,-249,-114,-28,-39,-8
11255,-6,-243,-107,-26,-37,-9
11260,-1,-250,-107,-24,-35,-10
11265,-1,-243,-107,-20,-33,-11
11270,-3,-246,-109,-19,-28,-13
11275,-1,-247,-109,-19,-25,-14
11280,-5,-247,-108,-19,-25,-12
11285,-7,-246,-109,-22,-24,-10
11290,-6,-246,-109,-23,-26,-7
11295,-3,-248,-109,-28,-27,-7
11300,-4,-249,-108,-32,-31,-6
11305,-9,-250,-105,-36,-32,-4
11310,-8,-252,-108,-38,-33,-2
11315,-5,-253,-105,-39,-35,-2
11320,-8,-251,-110,-39,-36,-1
11325,-11,-248,-108,-36,-32,-1
11330,-8,-251,-107,-33,-32,-1
11335,-7,-254,-110,-29,-27,-2
11340,-9,-250,-111,-24,-25,-2
11345,-4,-250,-110,-18,-21,-1
11350,-9,-247,-109,-13,-20,1
11355,-6,-249,-108,-8,-20,0
11360,-6,-248,-107,-3,-18,-2
11365,-5,-248,-112,-1,-17,-3
11370,-6,-246,-105,-1,-17,-5
11375,-6,-246,-107,0,-15,-5
11380,-5,-242,-109,-5,-14,-6
11385,-6,-246,-102,-9,-14,-7
11390,-6,-244,-108,-15,-14,-5
11395,-6,-246,-109,-21,-14,-4
11400,-8,-245,-109,-28,-13,-5
11405,-4,-246,-108,-38,-11,-5
11410,-7,-244,-110,-47,-9,-5
11415,-6,-246,-108,-54,-7,-5
11420,-6,-244,-108,-62,-6,-4
11425,-8,-245,-105,-69,-4,-2
11430,-7,-246,-110,-75,-3,-2
11435,-7,-248,-103,-80,-3,-2
11440,-6,-251,-104,-83,-5,-2
11445,-5,-252,-107,-85,-3,-1
11450,-8,-250,-107,-84,-4,-1
11455,-6,-249,-106,-85,-3,0
11460,-6,-251,-106,-83,-2,0
11465,-5,-251,-106,-84,-2,-1
11470,-6,-248,-108,-85,-1,-1
11475,-10,-252,-107,-84,2,-3
11480,-8,-252,-105,-83,6,-2
11485,-5,-253,-104,-81,8,-5
11490,-5,-252,-107,-77,12,-5
11495,-7,-250,-109,-72,12,-5
11500,-7,-252,-108,-69,13,-6
11505,-8,-248,-110,-65,12,-6
11510,-5,-250,-104,-62,11,-4
11515,-10,-250,-110,-59,9,-4
11520,-8,-248,-108,-56,6,-3
11525,-9,-248,-109,-56,5,-5
11530,-6,-246,-104,-55,4,-4
11535,-8,-248,-104,-55,5,-5
11540,-5,-250,-106,-53,6,-5
11545,-7,-249,-108,-55,5,-6
11550,-8,-249,-110,-56,7,-7
11555,-8,-246,-108,-55,8,-7
11560,-5,-248,-107,-55,10,-7
11565,-7,-249,-106,-52,10,-10
11570,-10,-248,-109,-49,11,-12
11575,-4,-250,-107,-44,12,-12
11580,-5,-248,-109,-40,13,-10
11585,-7,-246,-107,-36,14,-12
11590,-4,-245,-111,-36,13,-12
11595,-6,-245,-106,-36,13,-11
11600,-6,-248,-107,-37,14,-14
11605,-3,-244,-106,-42,13,-14
11610,-7,-246,-109,-45,14,-13
11615,-5,-245,-109,-51,16,-12
11620,-7,-247,-107,-55,17,-12
11625,-6,-244,-107,-57,20,-12
11630,-5,-249,-107,-60,19,-9
11635,-5,-244,-112,-62,19,-8
11640,-5,-249,-105,-60,18,-6
11645,-3,-246,-105,-60,17,-6
11650,-7,-249,-109,-59,18,-5
11655,-4,-248,-110,-55,18,-4
11660,-6,-249,-109,-53,16,-3
11665,-4,-251,-106,-51,17,-4
11670,-3,-250,-108,-49,17,-3
11675,-7,-249,-108,-47,18,-3
11680,-6,-248,-108,-44,19,-4
11685,-7,-250,-109,-44,19,-4
11690,-5,-250,-105,-42,19,-5
11695,-6,-249,-109,-43,20,-6
11700,-12,-248,-108,-40,21,-7
11705,-6,-249,-106,-38,22,-7
11710,-7,-248,-105,-40,22,-8
11715,-9,-249,-109,-39,21,-9
11720,-9,-245,-111,-40,20,-10
11725,-7,-246,-106,-40,19,-11
11730,-6,-248,-110,-42,19,-12
11735,-9,-246,-109,-44,17,-12
11740,-8,-244,-107,-45,18,-11
11745,-9,-246,-108,-46,16,-12
11750,-6,-248,-108,-46,17,-12
11755,-8,-247,-109,-48,13,-12
11760,-8,-248,-108,-47,13,-11
11765,-5,-247,-106,-48,13,-11
11770,-5,-249,-109,-49,13,-8
11775,-5,-251,-110,-46,13,-7
11780,-7,-248,-109,-46,12,-7
11785,-6,-245,-109,-44,12,-6
11790,-5,-248,-108,-43,10,-4
11795,-5,-249,-110,-44,9,-4
11800,-5,-251,-108,-45,10,-6
11805,-6,-253,-113,-46,10,-4
11810,-7,-252,-110,-46,9,-3
11815,-5,-252,-110,-47,11,-3
11820,-7,-252,-110,-44,8,-2
11825,-6,-251,-107,-41,8,-2
11830,-8,-250,-109,-36,7,0
11835,-7,-248,-107,-32,7,1
11840,-8,-249,-108,-27,6,0
11845,-6,-247,-109,-23,6,-1
11850,-6,-249,-106,-18,6,-2
11855,-8,-248,-110,-17,8,-4
11860,-6,-245,-108,-17,11,-5
11865,-5,-247,-109,-18,12,-6
11870,-4,-248,-105,-19,13,-7
11875,-6,-246,-109,-19,14,-8
11880,-7,-246,-112,-19,16,-8
11885,-8,-247,-110,-22,15,-8
11890,-7,-245,-111,-21,17,-7
11895,-8,-244,-107,-23,16,-6
11900,-8,-244,-111,-28,16,-5
11905,-8,-244,-110,-29,17,-3
11910,-9,-243,-106,-34,16,-3
11915,-8,-243,-110,-38,16,-4
11920,-7,-243,-108,-43,16,-2
11925,-7,-247,-108,-51,16,-3
11930,-6,-247,-106,-55,17,-4
11935,-5,-248,-107,-59,18,-4
11940,-4,-249,-107,-62,21,-4
11945,-10,-249,-106,-64,24,-4
11950,-6,-247,-107,-64,27,-3
11955,-7,-249,-108,-63,28,-2
11960,-7,-253,-107,-62,28,-1
11965,-6,-246,-107,-59,30,-1
11970,-5,-246,-103,-56,31,-1
11975,-8,-248,-108,-54,31,-2
11980,-3,-252,-107,-52,29,-2
11985,-8,-248,-109,-51,27,-2
11990,-7,-249,-103,-53,27,-3
11995,-6,-246,-105,-52,26,-2
