timestamp,acc_x,acc_y,acc_z,gyro_x,gyro_y,gyro_z
0,4,-254,-67,-43,66,-10
5,5,-255,-65,-41,64,-9
10,4,-256,-64,-36,66,-10
15,6,-256,-65,-31,65,-10
20,5,-256,-63,-25,66,-8
25,4,-254,-77,-20,66,-7
30,5,-252,-67,-16,66,-8
35,5,-255,-69,-11,66,-7
40,5,-252,-67,-7,67,-8
45,4,-251,-65,-5,66,-9
50,4,-251,-68,-5,66,-8
55,4,-253,-66,-6,66,-8
60,4,-254,-68,-7,68,-7
65,6,-252,-64,-8,70,-8
70,5,-252,-66,-8,72,-8
75,12,-250,-64,-7,72,-8
80,4,-255,-65,-7,71,-8
85,4,-251,-65,-5,71,-7
90,4,-250,-63,-3,73,-6
95,5,-250,-65,-3,71,-7
100,4,-255,-65,-3,70,-7
105,4,-251,-65,-4,69,-7
110,4,-254,-64,-4,70,-6
115,6,-254,-66,-5,68,-6
120,5,-254,-65,-6,68,-6
125,6,-253,-66,-7,68,-7
130,6,-250,-64,-8,68,-8
135,4,-252,-64,-8,70,-6
140,4,-254,-66,-7,70,-4
145,4,-249,-63,-6,71,-5
150,6,-252,-65,-5,71,-5
155,6,-253,-64,-2,74,-5
160,5,-254,-64,0,74,-4
165,8,-253,-64,1,75,-4
170,6,-253,-63,2,73,-3
175,7,-250,-64,2,74,-3
180,5,-253,-63,3,74,-3
185,7,-257,-64,2,74,-4
190,6,-253,-62,0,75,-4
195,6,-255,-67,-3,76,-4
200,4,-254,-61,-4,76,-3
205,6,-252,-63,-5,77,-3
210,5,-253,-63,-4,78,-2
215,5,-253,-65,-2,78,-2
220,5,-255,-65,-1,77,0
225,5,-254,-64,-1,75,1
230,5,-254,-67,0,75,1
235,5,-255,-66,-3,75,-1
240,3,-253,-65,-4,74,1
245,5,-254,-63,-4,71,0
250,5,-251,-63,-6,70,1
255,5,-253,-64,-7,71,0
260,5,-252,-62,-6,71,1
265,4,-253,-64,-5,72,-1
270,6,-252,-63,-5,73,0
275,5,-250,-63,-5,75,-1
280,4,-249,-62,-7,77,-1
285,4,-252,-59,-7,78,-1
290,5,-253,-64,-6,80,-1
295,6,-253,-66,-5,80,-1
300,5,-252,-62,-6,81,-1
305,5,-253,-63,-9,80,-2
310,6,-255,-65,-9,79,-3
315,4,-256,-64,-12,78,-3
320,5,-255,-66,-15,77,-3
325,4,-252,-63,-17,75,-2
330,4,-252,-62,-19,72,-2
335,5,-250,-65,-20,71,-1
340,5,-254,-65,-22,70,-2
345,4,-252,-66,-22,68,0
350,4,-255,-64,-22,66,0
355,4,-253,-62,-22,67,0
360,4,-251,-64,-23,67,0
365,4,-253,-64,-22,67,1
370,5,-253,-63,-22,67,0
375,7,-254,-62,-20,66,0
380,5,-254,-64,-19,65,1
385,4,-253,-60,-15,65,1
390,5,-255,-65,-16,64,-1
395,4,-254,-62,-17,65,-1
400,4,-255,-67,-16,65,-1
405,4,-254,-63,-16,67,-1
410,7,-252,-65,-15,68,-1
415,4,-254,-65,-14,67,-2
420,4,-254,-65,-13,67,-2
425,3,-250,-65,-12,67,-2
430,6,-253,-64,-12,66,-1
435,4,-254,-64,-11,68,-2
440,4,-254,-63,-8,67,-2
445,6,-254,-64,-6,66,-1
450,5,-253,-65,-5,66,-2
455,4,-255,-66,-6,64,-2
460,4,-252,-69,-7,64,-2
465,6,-254,-64,-8,64,-3
470,5,-254,-66,-9,64,-3
475,5,-255,-66,-10,64,-3
480,4,-254,-64,-10,64,-2
485,4,-255,-64,-8,64,-2
490,6,-253,-65,-4,66,-3
495,5,-255,-63,0,66,-1
500,6,-251,-64,2,67,-1
505,5,-252,-63,5,69,-3
510,7,-255,-64,5,71,-3
515,4,-254,-63,5,72,-2
520,4,-253,-66,4,72,-3
525,3,-255,-65,3,72,-2
530,4,-254,-63,2,71,-1
535,4,-255,-59,-3,70,-2
540,5,-253,-63,-6,68,-2
545,5,-253,-61,-8,68,-1
550,4,-255,-63,-9,66,-2
555,4,-253,-63,-8,66,-2
560,5,-256,-64,-5,68,-2
565,5,-254,-58,-3,69,-2
570,4,-253,-63,-2,71,-1
575,4,-253,-66,-1,71,0
580,6,-254,-63,-2,71,-1
585,5,-253,-66,-3,71,0
590,4,-253,-64,-6,74,0
595,4,-251,-63,-10,75,-1
600,5,-254,-64,-11,74,-1
605,4,-251,-63,-12,75,0
610,6,-254,-65,-12,74,0
615,5,-252,-63,-13,74,0
620,4,-252,-63,-14,73,1
625,6,-250,-63,-14,75,1
630,5,-255,-64,-14,77,1
635,4,-253,-64,-15,79,0
640,4,-254,-64,-16,80,0
645,6,-255,-64,-15,81,-1
650,5,-255,-63,-15,81,-1
655,6,-254,-64,-15,80,-2
660,5,-255,-61,-11,79,-3
665,4,-253,-61,-9,79,-1
670,4,-254,-63,-6,80,-2
675,4,-248,-69,-4,81,-2
680,5,-255,-61,-3,81,-2
685,5,-254,-61,-3,79,-3
690,5,-255,-60,-3,78,-2
695,4,-254,-59,-4,75,-2
700,4,-253,-64,-4,74,-3
705,5,-254,-64,-5,74,-4
710,4,-253,-62,-6,74,-4
715,5,-253,-64,-9,74,-4
720,3,-250,-63,-10,77,-4
725,4,-253,-66,-14,79,-4
730,5,-252,-64,-18,79,-2
735,6,-253,-62,-20,80,-2
740,7,-255,-62,-24,79,-2
745,5,-252,-60,-25,80,-2
750,8,-256,-64,-27,79,-2
755,4,-253,-61,-25,81,-1
760,4,-255,-61,-27,82,-1
765,4,-255,-61,-27,84,-1
770,5,-254,-61,-27,84,-1
775,6,-255,-62,-27,83,-3
780,8,-253,-61,-24,82,-3
785,6,-255,-63,-24,80,-4
790,4,-254,-62,-23,81,-4
795,6,-255,-61,-20,81,-3
800,4,-255,-60,-19,82,-3
805,4,-254,-62,-16,84,-3
810,4,-254,-64,-15,84,-3
815,6,-253,-61,-13,83,-3
820,5,-254,-61,-13,81,-4
825,5,-251,-63,-15,80,-4
830,5,-256,-65,-17,79,-2
835,5,-255,-62,-19,79,-2
840,4,-255,-59,-20,75,-2
845,4,-254,-66,-21,73,-1
850,5,-256,-64,-19,71,0
855,4,-254,-63,-18,68,0
860,5,-255,-63,-14,66,1
865,4,-251,-64,-13,65,1
870,5,-256,-64,-10,63,0
875,4,-255,-63,-7,60,2
880,4,-254,-64,-5,60,2
885,4,-254,-62,-3,58,2
890,4,-254,-63,-3,58,2
895,5,-254,-63,-1,56,1
900,5,-255,-60,0,55,1
905,4,-254,-66,-1,57,0
910,4,-253,-63,0,58,-1
915,7,-255,-61,2,59,-1
920,7,-253,-62,2,59,-2
925,7,-251,-59,3,60,-4
930,6,-253,-62,3,60,-6
935,4,-255,-65,3,63,-6
940,6,-253,-63,2,66,-8
945,4,-255,-64,2,69,-7
950,5,-255,-63,-1,70,-9
955,6,-253,-63,-3,71,-9
960,5,-253,-63,-6,72,-9
965,5,-255,-62,-9,74,-8
970,6,-255,-63,-11,77,-9
975,7,-250,-64,-12,77,-7
980,6,-254,-62,-15,79,-8
985,4,-254,-66,-16,81,-6
990,4,-253,-66,-16,80,-5
995,4,-252,-64,-17,80,-3
1000,4,-254,-61,-16,80,-2
1005,5,-255,-62,-16,80,-2
1010,6,-254,-63,-12,81,-1
1015,6,-254,-63,-11,80,-2
1020,4,-255,-64,-9,81,-2
1025,8,-254,-62,-6,79,0
1030,7,-256,-63,-3,82,-1
1035,6,-254,-63,-1,84,0
1040,7,-253,-67,-2,87,0
1045,8,-255,-63,-1,89,-1
1050,6,-251,-65,0,93,0
1055,4,-254,-65,0,95,1
1060,6,-254,-64,0,98,1
1065,5,-254,-64,1,101,3
1070,5,-253,-63,3,103,3
1075,5,-249,-62,3,104,4
1080,8,-255,-63,3,106,6
1085,5,-256,-63,4,107,6
1090,5,-255,-63,2,108,6
1095,5,-253,-63,2,109,9
1100,4,-251,-64,2,111,10
1105,4,-254,-64,0,110,11
1110,-2,-253,-68,0,112,11
1115,4,-254,-63,-2,113,12
1120,6,-252,-64,-3,113,13
1125,6,-256,-64,-3,113,11
1130,7,-254,-67,-5,113,11
1135,4,-251,-62,-5,113,10
1140,6,-256,-64,-7,113,11
1145,5,-255,-65,-8,115,10
1150,7,-255,-63,-8,115,11
1155,6,-256,-62,-9,116,9
1160,8,-254,-64,-9,116,9
1165,6,-256,-62,-9,116,8
1170,4,-255,-64,-7,116,10
1175,4,-255,-65,-5,116,9
1180,4,-257,-64,-3,116,8
1185,4,-253,-65,-3,116,6
1190,4,-255,-64,0,114,5
1195,5,-255,-62,3,112,5
1200,4,-255,-64,6,110,5
1205,4,-253,-60,10,108,6
1210,2,-254,-65,14,108,5
1215,4,-254,-65,17,103,5
1220,0,-258,-66,15,100,5
1225,3,-253,-63,13,95,3
1230,4,-255,-65,11,92,4
1235,4,-254,-64,8,89,4
1240,4,-253,-60,6,86,4
1245,3,-252,-60,4,81,3
1250,3,-255,-63,2,78,3
1255,3,-254,-64,0,73,3
1260,4,-254,-64,-2,68,2
1265,5,-256,-61,-2,65,0
1270,4,-256,-60,0,62,0
1275,3,-257,-62,3,62,0
1280,2,-257,-65,6,62,-2
1285,4,-256,-68,8,60,-3
1290,4,-258,-66,11,56,-4
1295,4,-255,-65,13,55,-4
1300,4,-256,-66,19,51,-4
1305,2,-252,-63,22,50,-6
1310,5,-253,-64,24,47,-5
1315,0,-251,-65,24,44,-5
1320,3,-253,-66,24,41,-5
1325,4,-251,-61,21,39,-5
1330,-1,-250,-58,16,37,-6
1335,3,-254,-63,13,33,-4
1340,2,-253,-63,8,28,-5
1345,4,-251,-62,4,24,-6
1350,5,-251,-63,1,24,-5
1355,4,-251,-64,-1,26,-5
1360,5,-252,-63,-3,29,-7
1365,4,-251,-64,-4,32,-7
1370,3,-252,-62,-6,35,-8
1375,5,-250,-67,-9,36,-10
1380,4,-251,-61,-13,36,-9
1385,8,-252,-61,-18,35,-11
1390,5,-251,-61,-21,36,-11
1395,4,-250,-61,-28,34,-12
1400,7,-254,-64,-31,34,-12
1405,6,-254,-63,-34,34,-12
1410,4,-249,-63,-36,35,-12
1415,6,-252,-64,-40,34,-13
1420,4,-252,-67,-43,34,-12
1425,6,-255,-64,-44,35,-10
1430,7,-252,-68,-46,36,-11
1435,6,-254,-66,-49,39,-10
1440,6,-244,-67,-53,43,-10
1445,5,-251,-66,-55,45,-11
1450,7,-254,-67,-54,46,-11
1455,7,-253,-65,-54,47,-12
1460,5,-249,-66,-50,46,-14
1465,6,-251,-67,-48,42,-15
1470,4,-251,-67,-45,37,-15
1475,5,-249,-71,-45,36,-15
1480,7,-253,-65,-45,36,-14
1485,4,-248,-66,-44,37,-16
1490,5,-244,-69,-46,42,-16
1495,7,-246,-67,-48,44,-15
1500,4,-246,-70,-50,46,-16
1505,4,-247,-67,-49,49,-15
1510,4,-250,-67,-48,52,-15
1515,5,-248,-68,-46,52,-14
1520,4,-249,-66,-45,52,-15
1525,3,-248,-64,-44,51,-15
1530,5,-247,-69,-46,50,-16
1535,4,-249,-66,-48,48,-16
1540,5,-251,-64,-52,50,-17
1545,5,-249,-64,-58,53,-16
1550,6,-248,-63,-65,55,-17
1555,4,-249,-63,-72,58,-16
1560,7,-248,-63,-81,61,-19
1565,5,-251,-63,-90,63,-18
1570,7,-247,-64,-98,64,-19
1575,6,-249,-67,-105,67,-19
1580,5,-252,-68,-111,67,-22
1585,4,-251,-70,-114,69,-21
1590,9,-252,-67,-114,70,-22
1595,8,-256,-68,-112,69,-22
1600,5,-255,-66,-108,67,-20
1605,3,-254,-64,-104,62,-20
1610,4,-256,-65,-100,61,-19
1615,4,-255,-64,-94,59,-18
1620,4,-254,-65,-88,60,-16
1625,5,-255,-64,-80,59,-16
1630,6,-255,-64,-73,61,-15
1635,6,-258,-66,-66,62,-16
1640,7,-256,-64,-61,65,-15
1645,4,-256,-67,-61,66,-14
1650,8,-255,-67,-62,66,-15
1655,5,-255,-63,-64,65,-12
1660,4,-254,-66,-70,65,-12
1665,5,-254,-63,-74,66,-12
1670,5,-255,-67,-75,66,-14
1675,6,-257,-63,-76,66,-13
1680,4,-255,-64,-77,66,-14
1685,5,-254,-65,-78,65,-14
1690,4,-254,-66,-77,67,-14
1695,6,-255,-68,-75,69,-13
1700,4,-254,-65,-73,72,-12
1705,5,-253,-68,-72,75,-11
1710,9,-252,-63,-69,76,-13
1715,6,-252,-65,-68,76,-12
1720,9,-251,-65,-67,73,-12
1725,5,-250,-69,-66,70,-12
1730,6,-252,-65,-68,69,-12
1735,6,-251,-64,-70,67,-11
1740,5,-254,-62,-76,67,-11
1745,4,-254,-61,-81,64,-10
1750,7,-253,-66,-86,64,-9
1755,6,-253,-64,-93,63,-7
1760,7,-254,-63,-95,64,-8
1765,5,-254,-64,-95,64,-7
1770,6,-254,-65,-96,66,-7
1775,5,-256,-68,-92,69,-5
1780,4,-257,-66,-89,71,-2
1785,4,-253,-63,-89,72,-3
1790,8,-256,-66,-87,73,-1
1795,5,-253,-65,-86,75,-1
1800,4,-255,-68,-86,77,-2
1805,5,-255,-64,-84,76,0
1810,6,-255,-68,-84,75,1
1815,5,-255,-64,-83,74,1
1820,5,-255,-65,-81,75,2
1825,6,-254,-65,-78,74,3
1830,6,-257,-66,-74,73,4
1835,6,-256,-65,-71,73,4
1840,6,-255,-66,-67,74,4
1845,4,-254,-65,-64,74,5
1850,5,-256,-64,-59,73,6
1855,9,-256,-65,-55,72,7
1860,5,-255,-65,-51,73,7
1865,4,-254,-65,-48,76,7
1870,5,-256,-64,-43,76,8
1875,6,-257,-65,-42,79,9
1880,7,-255,-66,-40,80,10
1885,6,-255,-66,-39,80,10
1890,5,-252,-65,-39,81,10
1895,5,-255,-67,-38,81,8
1900,7,-256,-67,-38,81,9
1905,6,-253,-67,-39,80,9
1910,6,-255,-66,-37,81,9
1915,4,-253,-66,-36,80,10
1920,5,-253,-65,-35,79,11
1925,4,-251,-68,-33,80,11
1930,3,-252,-66,-32,81,12
1935,4,-250,-66,-31,80,11
1940,4,-251,-65,-29,80,11
1945,5,-248,-68,-29,78,12
1950,5,-251,-69,-30,81,12
1955,5,-248,-68,-32,81,11
1960,3,-253,-71,-35,80,10
1965,6,-248,-68,-38,80,11
1970,5,-250,-72,-42,79,11
1975,6,-247,-71,-47,81,10
1980,4,-250,-70,-51,80,11
1985,3,-249,-71,-58,81,8
1990,6,-247,-68,-62,78,7
1995,3,-246,-71,-67,76,6
2000,3,-246,-73,-71,75,5
2005,4,-247,-73,-75,71,4
2010,4,-245,-73,-80,71,2
2015,2,-246,-72,-83,72,4
2020,5,-245,-76,-86,71,2
2025,4,-243,-80,-90,73,1
2030,4,-244,-73,-94,75,2
2035,4,-245,-76,-94,77,0
2040,2,-241,-74,-94,78,-2
2045,5,-243,-75,-94,80,0
2050,5,-243,-73,-91,83,-1
2055,5,-243,-74,-92,83,-1
2060,4,-245,-73,-91,83,-2
2065,8,-244,-71,-89,82,-1
2070,7,-245,-76,-89,81,-2
2075,7,-243,-78,-89,78,-2
2080,6,-244,-76,-92,76,-4
2085,5,-243,-74,-97,73,-3
2090,7,-249,-76,-101,70,-4
2095,4,-247,-76,-106,68,-2
2100,6,-245,-75,-112,66,-3
2105,5,-242,-75,-117,64,-2
2110,5,-246,-78,-123,61,-2
2115,5,-245,-82,-128,60,0
2120,4,-242,-78,-136,57,-1
2125,4,-243,-81,-142,58,-2
2130,5,-242,-84,-148,58,-3
2135,3,-242,-80,-151,60,-4
2140,3,-242,-80,-152,58,-7
2145,3,-239,-81,-151,58,-11
2150,2,-238,-80,-152,58,-14
2155,4,-239,-79,-153,57,-17
2160,4,-236,-81,-155,56,-20
2165,4,-233,-81,-160,57,-22
2170,4,-236,-82,-167,58,-25
2175,5,-239,-82,-177,60,-29
2180,7,-234,-84,-189,63,-30
2185,5,-232,-86,-202,67,-31
2190,6,-233,-86,-211,70,-34
2195,8,-235,-84,-220,74,-36
2200,7,-237,-85,-225,75,-37
2205,5,-235,-84,-225,74,-37
2210,10,-238,-84,-223,74,-40
2215,7,-235,-84,-219,71,-40
2220,7,-236,-84,-217,72,-39
2225,11,-235,-85,-217,70,-40
2230,9,-234,-86,-219,68,-39
2235,8,-231,-84,-222,64,-41
2240,6,-232,-83,-231,62,-40
2245,9,-233,-83,-243,61,-42
2250,9,-235,-87,-255,59,-44
2255,7,-232,-83,-268,60,-46
2260,9,-232,-81,-280,62,-47
2265,9,-230,-84,-289,65,-51
2270,8,-232,-84,-295,67,-54
2275,7,-231,-86,-301,72,-57
2280,6,-227,-89,-307,76,-63
2285,8,-228,-91,-315,79,-68
2290,9,-225,-90,-323,82,-76
2295,8,-226,-90,-331,83,-80
2300,8,-221,-92,-338,85,-88
2305,12,-224,-89,-344,87,-93
2310,10,-220,-89,-345,89,-99
2315,8,-222,-89,-345,92,-104
2320,7,-222,-87,-344,95,-107
2325,10,-221,-89,-345,98,-110
2330,11,-222,-88,-348,100,-112
2335,8,-219,-89,-355,102,-114
2340,7,-218,-91,-366,104,-113
2345,10,-217,-95,-381,103,-112
2350,7,-216,-92,-398,101,-111
2355,10,-221,-93,-416,96,-109
2360,7,-219,-94,-438,93,-108
2365,10,-220,-97,-455,91,-104
2370,10,-222,-97,-473,92,-101
2375,6,-221,-94,-487,96,-100
2380,7,-220,-95,-500,99,-98
2385,9,-219,-101,-512,104,-96
2390,7,-218,-96,-522,106,-94
2395,8,-220,-93,-530,110,-93
2400,9,-219,-94,-532,114,-92
2405,11,-219,-99,-534,121,-89
2410,12,-217,-99,-532,128,-86
2415,13,-216,-101,-533,135,-86
2420,9,-216,-98,-534,142,-87
2425,12,-212,-102,-541,149,-89
2430,12,-214,-100,-548,148,-93
2435,11,-211,-103,-556,144,-96
2440,9,-207,-102,-565,135,-96
2445,6,-207,-101,-573,124,-97
2450,8,-205,-104,-578,111,-97
2455,9,-205,-104,-586,103,-96
2460,5,-204,-100,-595,92,-97
2465,8,-204,-102,-604,83,-97
2470,5,-201,-105,-610,80,-96
2475,8,-203,-105,-619,80,-97
2480,6,-203,-111,-626,83,-97
2485,7,-202,-111,-636,90,-98
2490,5,-205,-109,-647,95,-99
2495,4,-201,-114,-659,101,-100
2500,7,-204,-114,-672,101,-103
2505,4,-203,-112,-686,96,-102
2510,5,-206,-108,-698,88,-101
2515,5,-206,-112,-709,79,-98
2520,6,-206,-111,-719,71,-93
2525,6,-207,-113,-726,67,-86
2530,6,-210,-115,-732,66,-77
2535,6,-213,-110,-739,65,-69
2540,7,-218,-111,-741,63,-56
2545,7,-216,-111,-739,57,-41
2550,8,-219,-113,-740,46,-25
2555,4,-219,-109,-739,32,-11
2560,3,-217,-108,-737,15,3
2565,4,-221,-113,-729,-3,21
2570,4,-218,-115,-719,-17,37
2575,5,-221,-113,-712,-26,49
2580,4,-217,-114,-706,-35,60
2585,7,-222,-117,-699,-38,71
2590,6,-219,-117,-690,-37,73
2595,5,-222,-122,-679,-33,73
2600,7,-228,-120,-665,-25,70
2605,6,-226,-127,-656,-19,64
2610,6,-227,-129,-648,-16,53
2615,7,-231,-128,-644,-14,40
2620,10,-233,-133,-642,-15,25
2625,9,-231,-133,-637,-16,12
2630,10,-230,-132,-629,-16,1
2635,10,-231,-135,-620,-15,-12
2640,11,-228,-130,-610,-9,-19
2645,12,-230,-129,-598,-2,-25
2650,9,-226,-128,-580,6,-28
2655,9,-231,-125,-558,16,-28
2660,10,-231,-124,-532,19,-26
2665,8,-229,-124,-503,19,-23
2670,9,-229,-126,-473,16,-21
2675,8,-230,-122,-442,9,-16
2680,8,-229,-119,-410,-1,-10
2685,10,-231,-120,-375,-10,-3
2690,11,-225,-123,-337,-16,3
2695,10,-224,-120,-300,-16,7
2700,9,-223,-120,-262,-12,13
2705,7,-220,-122,-227,-4,19
2710,8,-216,-125,-193,9,21
2715,8,-215,-123,-169,23,22
2720,6,-213,-124,-144,39,21
2725,10,-214,-124,-127,48,20
2730,9,-218,-127,-118,55,17
2735,9,-217,-126,-114,54,15
2740,10,-216,-128,-113,50,10
2745,21,-211,-128,-117,42,5
2750,11,-217,-133,-123,33,4
2755,12,-217,-128,-130,22,3
2760,10,-219,-131,-139,15,4
2765,9,-217,-133,-148,12,8
2770,11,-221,-132,-153,16,14
2775,11,-222,-138,-151,25,17
2780,12,-224,-136,-146,34,21
2785,10,-221,-138,-138,45,24
2790,9,-223,-139,-126,52,25
2795,9,-222,-139,-114,57,27
2800,10,-228,-137,-102,60,30
2805,10,-224,-134,-90,61,32
2810,12,-224,-137,-77,60,31
2815,11,-227,-130,-65,60,30
2820,10,-224,-130,-54,61,27
2825,8,-221,-130,-36,65,25
2830,9,-221,-128,-15,72,19
2835,10,-221,-132,9,82,11
2840,8,-217,-133,36,96,1
2845,7,-216,-137,62,114,-13
2850,7,-213,-138,82,133,-28
2855,17,-212,-137,104,145,-41
2860,5,-214,-139,122,153,-52
2865,8,-215,-140,137,156,-67
2870,6,-215,-140,151,156,-77
2875,6,-214,-140,162,156,-87
2880,3,-215,-142,168,152,-92
2885,5,-218,-144,171,151,-93
2890,4,-214,-143,171,151,-91
2895,4,-215,-143,168,155,-87
2900,5,-219,-139,164,159,-81
2905,2,-221,-140,157,162,-72
2910,2,-222,-140,151,163,-60
2915,-3,-220,-138,148,166,-47
2920,1,-224,-138,144,167,-33
2925,-3,-223,-138,141,168,-17
2930,3,-226,-139,139,170,0
2935,4,-226,-139,139,168,14
2940,3,-228,-139,142,166,26
2945,5,-226,-138,145,162,36
2950,3,-227,-140,145,159,42
2955,5,-227,-142,146,158,47
2960,8,-228,-142,147,157,45
2965,8,-234,-143,149,158,40
2970,7,-228,-145,156,162,36
2975,12,-228,-145,164,166,32
2980,10,-226,-148,172,174,30
2985,9,-224,-150,181,181,28
2990,13,-223,-152,191,183,28
2995,18,-221,-155,199,181,25
3000,16,-219,-155,206,174,20
3005,15,-219,-153,211,163,17
3010,18,-220,-154,217,150,13
3015,15,-219,-152,220,137,10
3020,13,-219,-152,221,125,8
3025,13,-220,-152,220,115,7
3030,10,-218,-152,218,107,8
3035,9,-221,-151,215,99,11
3040,9,-223,-152,212,93,16
3045,5,-221,-145,212,91,24
3050,5,-225,-148,212,88,31
3055,7,-228,-143,214,91,39
3060,6,-225,-142,216,92,46
3065,4,-225,-146,218,95,53
3070,6,-218,-149,218,96,59
3075,9,-221,-142,213,98,63
3080,8,-220,-146,206,98,68
3085,10,-219,-141,194,100,68
3090,13,-216,-141,173,103,70
3095,15,-215,-141,152,103,68
3100,13,-213,-143,130,103,66
3105,15,-216,-135,106,101,62
3110,16,-214,-138,84,94,56
3115,17,-217,-135,67,86,52
3120,17,-218,-132,56,74,47
3125,15,-218,-132,53,65,39
3130,12,-220,-127,53,52,31
3135,12,-222,-128,58,35,27
3140,13,-221,-128,68,16,20
3145,12,-221,-128,80,-3,15
3150,13,-219,-130,94,-21,15
3155,12,-225,-133,103,-38,10
3160,12,-222,-135,109,-48,3
3165,15,-224,-135,112,-48,-1
3170,15,-225,-138,116,-36,-7
3175,17,-229,-144,119,-22,-9
3180,13,-225,-137,124,-7,-14
3185,17,-229,-137,124,7,-17
3190,17,-230,-136,127,22,-19
3195,19,-231,-136,130,33,-19
3200,17,-228,-135,134,41,-27
3205,21,-227,-133,138,49,-31
3210,21,-226,-133,140,57,-33
3215,19,-224,-133,139,61,-37
3220,24,-226,-133,137,66,-36
3225,20,-222,-132,134,70,-38
3230,21,-222,-131,133,71,-35
3235,27,-224,-129,129,74,-32
3240,22,-221,-133,124,78,-30
3245,21,-220,-137,119,83,-24
3250,27,-223,-131,113,90,-20
3255,24,-221,-129,110,93,-18
3260,24,-226,-124,106,96,-13
3265,21,-227,-124,102,93,-9
3270,20,-223,-123,101,87,-5
3275,22,-226,-125,100,79,1
3280,20,-225,-130,99,68,7
3285,18,-224,-127,100,59,11
3290,20,-224,-122,99,51,13
3295,19,-224,-126,99,49,15
3300,17,-223,-127,97,49,14
3305,12,-220,-128,92,52,13
3310,12,-221,-131,85,57,8
3315,13,-220,-130,76,62,2
3320,10,-220,-130,68,66,-7
3325,9,-220,-133,63,71,-14
3330,8,-219,-131,57,80,-21
3335,8,-220,-131,51,90,-27
3340,11,-219,-131,47,104,-31
3345,9,-219,-127,46,115,-37
3350,8,-223,-128,50,122,-42
3355,14,-226,-127,58,123,-45
3360,13,-226,-124,68,119,-49
3365,16,-225,-126,80,113,-52
3370,11,-225,-128,88,105,-55
3375,12,-222,-130,95,100,-55
3380,16,-221,-129,96,96,-56
3385,13,-220,-132,94,96,-56
3390,17,-218,-130,87,98,-54
3395,15,-217,-137,76,105,-54
3400,20,-215,-136,63,114,-53
3405,14,-219,-133,50,121,-51
3410,14,-221,-129,42,126,-45
3415,10,-222,-125,43,126,-41
3420,12,-223,-120,51,119,-31
3425,12,-226,-125,65,106,-25
3430,9,-223,-121,79,90,-18
3435,9,-224,-119,92,74,-9
3440,8,-219,-121,103,64,-3
3445,9,-224,-125,109,60,3
3450,11,-221,-124,110,62,7
3455,11,-217,-127,103,71,11
3460,12,-217,-127,89,81,13
3465,14,-216,-128,74,92,16
3470,16,-215,-127,63,107,18
3475,18,-217,-126,54,116,17
3480,15,-221,-126,47,124,16
3485,18,-225,-123,45,130,14
3490,21,-227,-122,54,137,13
3495,18,-230,-126,66,141,14
3500,21,-229,-119,81,141,14
3505,18,-230,-121,95,139,13
3510,14,-226,-124,102,135,10
3515,13,-233,-120,103,136,9
3520,22,-234,-120,103,134,7
3525,20,-228,-122,103,136,1
3530,17,-230,-120,105,136,-1
3535,11,-234,-128,110,139,-2
3540,18,-232,-126,111,147,-3
3545,17,-239,-126,98,170,-9
3550,13,-238,-124,88,190,-10
3555,17,-243,-111,93,197,-10
3560,12,-242,-112,116,194,-11
3565,11,-246,-124,143,191,-9
3570,18,-242,-113,177,190,0
3575,20,-245,-119,212,192,9
3580,16,-249,-112,254,183,13
3585,20,-248,-123,311,159,15
3590,23,-247,-122,356,149,18
3595,17,-241,-126,384,145,23
3600,18,-244,-123,403,133,27
3605,14,-241,-121,418,110,28
3610,15,-239,-116,433,87,33
3615,11,-244,-116,447,65,43
3620,14,-243,-111,465,40,54
3625,15,-240,-114,490,12,58
3630,16,-239,-104,520,-8,67
3635,11,-236,-110,554,-21,76
3640,14,-238,-113,583,-26,80
3645,14,-239,-110,612,-31,80
3650,18,-239,-109,634,-27,82
3655,13,-238,-110,659,-21,80
3660,22,-244,-107,684,-15,76
3665,11,-240,-109,720,-12,70
3670,14,-239,-111,754,-8,67
3675,17,-241,-118,759,-4,69
3680,14,-241,-114,752,-1,67
3685,19,-245,-119,731,2,68
3690,13,-246,-118,705,1,63
3695,15,-251,-114,683,-1,63
3700,15,-258,-118,669,-3,60
3705,15,-259,-120,666,-3,61
3710,18,-259,-118,670,-5,62
3715,14,-261,-120,679,-5,65
3720,19,-263,-120,691,-6,68
3725,21,-262,-119,703,-9,71
3730,18,-261,-122,712,-17,75
3735,16,-261,-120,721,-29,72
3740,18,-262,-124,726,-39,76
3745,15,-260,-120,734,-50,81
3750,13,-257,-121,744,-57,86
3755,13,-255,-118,747,-61,97
3760,14,-257,-113,742,-67,102
3765,16,-259,-106,739,-71,107
3770,12,-264,-103,741,-73,113
3775,15,-263,-97,751,-73,119
3780,15,-261,-96,766,-69,122
3785,11,-259,-91,780,-62,126
3790,13,-258,-91,791,-57,126
3795,12,-258,-85,802,-50,123
3800,10,-258,-84,813,-44,121
3805,9,-257,-85,820,-35,119
3810,7,-255,-80,822,-29,121
3815,6,-255,-76,823,-24,120
3820,9,-255,-73,825,-16,122
3825,6,-255,-71,822,-6,122
3830,7,-259,-71,816,8,127
3835,6,-258,-72,806,23,124
3840,6,-254,-68,789,37,126
3845,4,-255,-69,769,52,126
3850,-1,-259,-67,750,69,129
3855,-2,-256,-66,735,75,133
3860,2,-257,-62,719,81,137
3865,3,-256,-56,704,81,141
3870,-4,-257,-56,690,75,147
3875,2,-257,-57,678,65,151
3880,-4,-256,-56,675,51,157
3885,-2,-259,-45,682,34,161
3890,-4,-261,-47,700,21,167
3895,-1,-261,-48,716,11,172
3900,-1,-257,-48,733,6,174
3905,-3,-260,-47,744,8,177
3910,0,-258,-49,752,16,178
3915,-4,-260,-48,755,26,178
3920,-1,-261,-46,753,35,175
3925,-1,-263,-45,748,43,172
3930,1,-259,-50,738,50,167
3935,-5,-258,-49,725,58,161
3940,0,-260,-52,709,66,158
3945,0,-257,-54,691,74,154
3950,-2,-256,-54,674,79,152
3955,-5,-259,-56,660,83,149
3960,0,-258,-54,646,87,147
3965,-2,-258,-52,636,90,145
3970,1,-258,-56,627,92,143
3975,-1,-261,-49,619,90,141
3980,-1,-257,-48,613,86,141
3985,-2,-256,-44,609,78,142
3990,-3,-260,-46,609,68,144
3995,-1,-260,-47,609,61,144
4000,-5,-258,-40,611,56,144
4005,-5,-258,-38,613,51,145
4010,-4,-260,-37,614,51,146
4015,-6,-258,-34,615,54,145
4020,-5,-259,-35,617,58,143
4025,-7,-259,-32,619,60,141
4030,-6,-261,-27,618,64,138
4035,-8,-259,-30,616,67,135
4040,-9,-257,-29,612,69,132
4045,-10,-257,-25,607,71,129
4050,-10,-257,-29,600,71,124
4055,-7,-259,-28,591,70,120
4060,-10,-257,-26,583,68,115
4065,-10,-258,-28,571,64,109
4070,-11,-255,-26,556,57,104
4075,-12,-256,-25,540,53,99
4080,-12,-254,-27,521,47,95
4085,-18,-255,-20,505,41,92
4090,-15,-258,-20,494,36,89
4095,-14,-259,-17,487,30,87
4100,-16,-261,-14,486,25,85
4105,-15,-261,-15,494,20,81
4110,-15,-262,-18,506,13,77
4115,-13,-264,-12,518,8,73
4120,-14,-265,-12,533,3,69
4125,-15,-260,-18,543,4,67
4130,-14,-262,-18,545,2,62
4135,-12,-262,-21,544,4,57
4140,-14,-260,-17,537,7,52
4145,-15,-261,-18,530,9,46
4150,-15,-260,-17,520,6,41
4155,-11,-260,-19,509,3,36
4160,-15,-260,-14,499,-2,33
4165,-14,-261,-11,488,-7,28
4170,-18,-260,-8,477,-14,26
4175,-15,-261,-9,466,-20,24
4180,-19,-265,-8,458,-26,22
4185,-16,-261,-2,452,-32,21
4190,-16,-265,-1,448,-37,18
4195,-17,-265,0,449,-39,15
4200,-16,-265,3,451,-42,12
4205,-17,-270,0,453,-46,10
4210,-14,-267,2,451,-48,9
4215,-18,-268,0,449,-49,6
4220,-21,-270,1,444,-55,3
4225,-19,-265,2,435,-58,1
4230,-17,-270,1,424,-61,-1
4235,-17,-266,-2,410,-62,-6
4240,-16,-269,6,395,-61,-11
4245,-13,-266,1,378,-58,-14
4250,-15,-262,3,366,-52,-19
4255,-14,-266,1,354,-46,-25
4260,-13,-265,3,341,-38,-32
4265,-14,-263,5,330,-30,-38
4270,-12,-263,6,318,-21,-47
4275,-9,-264,5,307,-16,-55
4280,-13,-262,8,295,-13,-63
4285,-6,-265,9,284,-13,-71
4290,-9,-259,11,275,-12,-76
4295,-8,-261,17,270,-11,-82
4300,-7,-259,17,265,-8,-88
4305,-10,-257,18,262,-3,-95
4310,-7,-256,25,260,6,-100
4315,-6,-260,28,259,15,-105
4320,-6,-257,28,259,24,-109
4325,-9,-257,31,262,31,-111
4330,-6,-259,29,267,33,-112
4335,-5,-261,28,273,37,-115
4340,-5,-259,29,278,37,-117
4345,-6,-256,26,279,38,-118
4350,-5,-261,28,279,38,-120
4355,-7,-257,28,274,38,-120
4360,-7,-256,25,267,39,-119
4365,-4,-255,23,254,44,-117
4370,-10,-257,24,239,52,-111
4375,-6,-254,21,225,64,-107
4380,1,-256,21,209,77,-102
4385,-1,-256,22,194,90,-98
4390,-2,-258,23,180,101,-93
4395,3,-258,26,171,110,-89
4400,-3,-260,33,166,117,-85
4405,1,-261,34,166,121,-83
4410,-2,-263,37,170,124,-80
4415,-2,-265,37,178,124,-78
4420,-2,-267,38,186,122,-76
4425,-3,-263,39,190,117,-76
4430,-4,-264,38,190,115,-75
4435,-2,-261,38,187,113,-73
4440,-5,-260,36,181,111,-72
4445,-2,-259,31,172,114,-71
4450,-2,-259,32,163,118,-70
4455,-1,-259,30,151,123,-70
4460,0,-257,28,139,129,-71
4465,2,-258,25,130,132,-72
4470,-2,-261,26,117,131,-76
4475,8,-261,25,106,130,-77
4480,2,-258,22,94,130,-78
4485,1,-259,24,83,129,-81
4490,4,-257,20,72,133,-84
4495,2,-258,21,60,137,-86
4500,4,-255,25,50,140,-88
4505,5,-256,27,39,139,-89
4510,5,-256,25,31,137,-91
4515,5,-259,26,27,130,-91
4520,4,-260,28,27,121,-91
4525,1,-260,30,26,111,-89
4530,4,-259,29,30,103,-86
4535,1,-262,30,36,96,-84
4540,4,-260,26,46,89,-80
4545,4,-267,22,57,89,-74
4550,5,-265,23,66,88,-69
4555,4,-264,25,73,91,-62
4560,2,-264,24,76,95,-57
4565,4,-264,22,75,100,-52
4570,4,-258,21,70,102,-47
4575,5,-262,20,58,100,-46
4580,4,-263,29,45,96,-43
4585,5,-261,18,31,91,-42
4590,5,-260,17,18,87,-40
4595,4,-261,14,5,80,-40
4600,4,-264,17,-3,78,-39
4605,3,-262,14,-14,78,-36
4610,1,-265,16,-27,80,-34
4615,-3,-264,17,-40,84,-34
4620,0,-263,18,-48,87,-31
4625,-3,-266,23,-53,88,-30
4630,-4,-265,22,-54,87,-28
4635,-6,-265,26,-51,86,-25
4640,-5,-267,21,-44,86,-22
4645,-5,-267,24,-37,87,-18
4650,-5,-267,20,-30,92,-12
4655,-6,-267,13,-29,102,-4
4660,-6,-264,11,-30,114,4
4665,-2,-263,13,-38,126,9
4670,4,-264,12,-46,136,12
4675,4,-265,11,-48,144,10
4680,4,-264,14,-50,146,6
4685,4,-262,16,-52,138,1
4690,12,-261,14,-56,122,-3
4695,5,-269,18,-58,101,-7
4700,5,-267,17,-58,79,-10
4705,6,-266,18,-53,59,-16
4710,6,-263,12,-46,44,-22
4715,4,-263,15,-40,33,-28
4720,4,-266,9,-38,24,-34
4725,4,-265,8,-39,16,-38
4730,2,-261,6,-42,11,-41
4735,4,-267,9,-46,10,-43
4740,4,-265,12,-51,15,-45
4745,3,-266,15,-52,30,-48
4750,1,-268,15,-46,48,-52
4755,1,-267,21,-33,67,-55
4760,3,-268,26,-15,85,-60
4765,1,-267,27,8,98,-65
4770,3,-267,24,28,104,-66
4775,4,-268,28,46,101,-68
4780,-2,-266,25,60,92,-67
4785,1,-265,27,67,75,-63
4790,-2,-266,26,70,53,-58
4795,0,-268,25,68,27,-52
4800,-1,-266,26,63,1,-45
4805,0,-266,28,60,-21,-34
4810,-2,-267,28,57,-38,-25
4815,-4,-268,29,55,-50,-14
4820,-4,-266,30,56,-55,-7
4825,-7,-265,27,59,-56,2
4830,-5,-264,27,64,-51,8
4835,-2,-264,25,71,-46,14
4840,-3,-263,27,76,-40,19
4845,1,-266,27,81,-29,23
4850,-1,-264,21,86,-17,26
4855,2,-260,22,87,-5,27
4860,4,-257,19,85,6,26
4865,5,-260,20,82,15,25
4870,6,-261,16,78,20,20
4875,7,-258,15,74,20,17
4880,9,-258,19,70,19,14
4885,8,-260,19,64,15,10
4890,7,-264,21,60,7,6
4895,6,-261,28,56,-2,3
4900,5,-262,32,54,-13,-2
4905,6,-262,29,55,-21,-5
4910,2,-262,28,60,-30,-6
4915,6,-259,28,66,-39,-5
4920,4,-262,30,67,-43,-5
4925,3,-259,27,63,-43,-5
4930,4,-261,24,52,-37,-2
4935,7,-262,24,41,-25,0
4940,7,-262,25,28,-10,-2
4945,5,-265,27,19,7,-1
4950,6,-260,27,13,25,0
4955,5,-263,27,6,41,0
4960,6,-262,26,0,58,0
4965,4,-266,25,-5,70,-3
4970,8,-263,27,-13,79,-5
4975,6,-266,27,-22,84,-7
4980,9,-265,26,-35,86,-11
4985,5,-265,28,-49,83,-15
4990,6,-264,30,-64,79,-18
4995,8,-265,31,-76,75,-22
5000,6,-266,32,-82,67,-26
5005,8,-269,34,-84,62,-31
5010,4,-262,30,-83,59,-35
5015,6,-263,26,-80,61,-40
5020,6,-263,31,-76,68,-44
5025,7,-263,26,-71,76,-48
5030,7,-262,31,-67,85,-55
5035,8,-264,31,-61,92,-58
5040,8,-260,38,-56,99,-62
5045,6,-261,39,-47,100,-66
5050,8,-264,42,-35,97,-69
5055,8,-265,43,-21,90,-72
5060,7,-267,41,-5,86,-74
5065,8,-265,43,11,84,-76
5070,5,-265,37,24,84,-76
5075,5,-261,32,28,85,-76
5080,5,-256,32,27,86,-73
5085,4,-257,21,20,86,-71
5090,6,-255,16,5,88,-67
5095,4,-254,14,-15,89,-62
5100,5,-253,12,-35,91,-56
5105,6,-254,11,-57,90,-50
5110,4,-255,8,-75,85,-45
5115,10,-259,6,-91,84,-42
5120,7,-260,7,-102,85,-38
5125,6,-261,5,-111,86,-35
5130,6,-260,10,-113,88,-33
5135,8,-264,15,-111,88,-33
5140,7,-265,18,-104,86,-34
5145,5,-270,18,-97,84,-34
5150,4,-267,24,-90,79,-36
5155,4,-275,21,-83,77,-36
5160,4,-273,22,-78,76,-37
5165,-2,-271,23,-72,80,-37
5170,-2,-272,23,-64,87,-36
5175,1,-273,22,-54,95,-38
5180,-2,-275,21,-45,105,-38
5185,-5,-273,23,-36,112,-36
5190,-8,-270,22,-30,117,-33
5195,-7,-270,18,-25,121,-29
5200,-9,-267,18,-23,117,-26
5205,-5,-266,13,-24,110,-23
5210,-5,-266,14,-30,101,-18
5215,-5,-262,13,-36,89,-13
5220,-2,-268,13,-43,79,-8
5225,-3,-261,13,-54,71,-2
5230,-2,-263,12,-60,66,3
5235,0,-266,16,-65,66,7
5240,1,-263,16,-62,70,10
5245,3,-267,19,-57,75,11
5250,4,-268,25,-46,81,12
5255,4,-267,25,-34,88,9
5260,5,-267,24,-20,93,6
5265,4,-268,24,-5,94,0
5270,3,-267,26,8,95,-6
5275,4,-267,20,15,91,-10
5280,2,-264,23,22,89,-14
5285,4,-262,18,24,87,-15
5290,4,-262,20,23,84,-17
5295,5,-262,20,19,84,-17
5300,2,-260,20,15,83,-17
5305,4,-261,27,9,83,-15
5310,3,-263,31,4,79,-12
5315,2,-260,27,-2,77,-8
5320,2,-263,29,-4,71,-3
5325,4,-263,27,-6,66,2
5330,3,-261,26,-6,62,8
5335,4,-262,23,-5,57,10
5340,2,-266,22,-2,56,12
5345,4,-262,24,-3,54,17
5350,4,-266,18,-6,52,16
5355,4,-266,19,-10,48,19
5360,6,-266,14,-15,45,20
5365,4,-265,17,-19,41,19
5370,4,-264,15,-22,40,19
5375,7,-264,15,-24,41,17
5380,9,-267,19,-26,46,14
5385,7,-266,22,-26,54,10
5390,7,-265,24,-24,60,7
5395,9,-271,25,-23,65,3
5400,10,-266,24,-22,71,1
5405,10,-266,21,-20,74,-3
5410,8,-267,23,-21,74,-6
5415,8,-266,20,-20,71,-6
5420,6,-267,22,-23,67,-8
5425,8,-266,18,-25,62,-11
5430,5,-266,22,-27,53,-8
5435,5,-265,15,-30,46,-5
5440,5,-267,17,-33,42,-4
5445,6,-266,18,-36,39,-2
5450,5,-267,19,-37,38,0
5455,6,-265,19,-38,38,2
5460,5,-264,19,-36,39,6
5465,5,-266,19,-32,41,6
5470,4,-265,18,-28,43,8
5475,4,-264,16,-22,45,8
5480,4,-263,16,-15,47,9
5485,4,-263,17,-9,48,9
5490,6,-267,20,-4,49,10
5495,5,-268,23,2,49,9
5500,4,-266,19,9,50,10
5505,4,-267,24,15,48,10
5510,5,-267,23,20,47,10
5515,5,-265,19,26,44,9
5520,6,-266,22,27,43,8
5525,4,-263,21,29,43,7
5530,4,-266,22,31,44,5
5535,5,-265,21,32,45,2
5540,5,-265,16,32,48,0
5545,-2,-265,22,33,51,-1
5550,4,-265,21,33,54,-2
5555,4,-264,19,33,54,-3
5560,4,-264,20,32,55,-4
5565,4,-264,22,30,55,-4
5570,2,-265,21,27,55,-3
5575,2,-265,24,25,56,-4
5580,4,-262,23,24,59,-4
5585,4,-266,24,23,61,-3
5590,4,-268,31,25,63,-2
5595,4,-269,23,29,66,-1
5600,6,-267,27,32,67,1
5605,6,-265,26,37,72,1
5610,5,-267,28,41,76,2
5615,6,-264,24,44,78,2
5620,4,-264,27,46,80,2
5625,4,-262,28,47,82,-1
5630,7,-266,27,48,82,0
5635,5,-263,25,47,81,0
5640,7,-266,23,45,77,-2
5645,5,-264,27,43,76,-1
5650,4,-264,24,40,74,0
5655,5,-265,25,39,73,-1
5660,4,-263,22,34,74,-1
5665,4,-263,20,31,73,-2
5670,5,-263,24,28,72,-2
5675,6,-263,19,26,70,-2
5680,4,-265,25,20,69,0
5685,4,-262,24,17,70,1
5690,4,-262,26,15,72,2
5695,4,-265,25,15,71,2
5700,6,-262,24,16,72,0
5705,4,-263,27,17,72,1
5710,4,-263,24,20,71,1
5715,4,-260,25,21,71,1
5720,3,-263,24,21,72,0
5725,4,-262,28,23,72,-1
5730,4,-263,23,22,74,-2
5735,4,-263,26,21,75,-1
5740,4,-262,28,20,75,-3
5745,4,-262,22,18,78,-4
5750,3,-263,23,16,78,-4
5755,1,-266,20,18,79,-3
5760,3,-266,23,17,78,-2
5765,4,-260,26,17,78,-2
5770,4,-265,26,18,76,-1
5775,4,-265,24,18,74,-1
5780,2,-264,27,17,72,1
5785,4,-267,24,19,71,1
5790,4,-262,26,21,70,1
5795,4,-261,28,21,70,1
5800,5,-262,23,21,73,3
5805,3,-263,25,24,74,3
5810,4,-267,26,25,76,4
5815,4,-266,26,24,75,3
5820,5,-262,26,24,75,4
5825,4,-263,25,24,75,4
5830,5,-268,24,24,76,3
5835,4,-265,24,24,76,1
5840,5,-264,25,25,77,1
5845,4,-264,24,23,78,2
5850,4,-262,24,22,77,1
5855,1,-265,27,19,78,1
5860,3,-264,28,18,80,2
5865,3,-265,20,17,77,1
5870,5,-263,26,16,76,0
5875,1,-259,29,14,76,0
5880,2,-263,31,16,73,0
5885,2,-262,25,16,72,0
5890,2,-261,27,16,72,0
5895,4,-266,32,16,73,0
5900,4,-261,32,16,76,1
5905,3,-263,28,16,75,-1
5910,5,-263,29,16,77,0
5915,4,-263,26,15,79,0
5920,2,-261,28,12,79,0
5925,3,-264,30,11,79,1
5930,4,-262,28,8,79,0
5935,4,-263,27,7,79,1
5940,3,-260,26,6,80,0
5945,5,-263,26,4,80,0
5950,4,-264,22,2,79,-1
5955,4,-264,30,1,74,-2
5960,5,-263,27,1,73,0
5965,4,-264,28,1,68,0
5970,5,-262,30,2,64,-1
5975,4,-265,29,4,63,0
5980,4,-262,25,8,62,1
5985,2,-264,31,8,61,1
5990,3,-262,25,10,63,2
5995,4,-264,28,9,66,2
6000,4,-265,26,9,69,1
6005,5,-264,30,7,69,2
6010,4,-266,30,6,71,1
6015,2,-261,27,3,69,1
6020,4,-264,24,-1,69,0
6025,3,-262,27,-4,70,-2
6030,4,-263,28,-7,71,-1
6035,4,-262,29,-10,70,-2
6040,4,-264,24,-11,72,-3
6045,4,-263,25,-11,73,-3
6050,4,-264,26,-11,72,-5
6055,2,-261,30,-10,75,-3
6060,4,-262,26,-9,77,-4
6065,4,-262,27,-6,76,-3
6070,5,-264,31,-3,77,-3
6075,5,-263,29,-1,74,-2
6080,3,-265,27,1,72,-5
6085,2,-264,26,1,71,-2
6090,4,-261,29,1,68,-2
6095,3,-263,25,-1,66,-1
6100,4,-261,26,-4,61,-2
6105,3,-265,26,-8,57,1
6110,4,-260,24,-12,56,3
6115,4,-262,27,-18,54,3
6120,4,-262,29,-18,53,3
6125,5,-266,28,-19,56,4
6130,4,-264,32,-18,58,4
6135,3,-262,29,-15,58,3
6140,4,-264,26,-12,59,2
6145,4,-264,28,-8,61,2
6150,4,-265,31,-4,63,1
6155,5,-263,32,-1,65,-1
6160,4,-263,28,1,67,-1
6165,5,-265,28,3,69,-2
6170,4,-261,27,3,70,-4
6175,4,-264,30,3,71,-4
6180,4,-261,29,2,70,-5
6185,3,-266,24,0,72,-6
6190,4,-262,27,-3,72,-7
6195,4,-262,23,-6,72,-7
6200,3,-264,28,-8,73,-8
6205,5,-263,24,-10,74,-6
6210,6,-264,27,-9,73,-6
6215,4,-261,24,-10,70,-6
6220,4,-263,27,-12,68,-6
6225,3,-264,29,-15,67,-5
6230,4,-264,29,-15,66,-5
6235,3,-263,27,-15,65,-4
6240,4,-260,29,-16,65,-3
6245,5,-264,26,-15,66,-3
6250,4,-266,27,-15,66,-3
6255,3,-264,29,-14,65,-2
6260,2,-263,26,-14,66,-3
6265,4,-263,26,-14,68,-4
6270,4,-265,27,-13,69,-2
6275,4,-264,25,-12,70,-1
6280,4,-263,26,-12,72,-3
6285,3,-264,30,-12,73,-4
6290,5,-265,31,-12,73,-3
6295,4,-261,27,-12,74,-2
6300,3,-263,27,-14,72,-3
6305,2,-263,31,-13,71,-5
6310,4,-264,28,-15,68,-5
6315,1,-262,27,-16,68,-4
6320,3,-263,29,-17,67,-5
6325,3,-264,28,-18,66,-5
6330,4,-263,27,-17,68,-4
6335,4,-262,28,-14,70,-3
6340,4,-263,30,-12,71,-4
6345,4,-265,30,-6,72,-6
6350,4,-262,34,-2,71,-4
6355,4,-263,31,1,70,-4
6360,2,-264,30,1,72,-2
6365,4,-261,30,-1,72,-1
6370,4,-261,26,-6,71,-1
6375,5,-264,30,-9,71,-2
6380,3,-260,25,-14,72,-4
6385,4,-261,27,-17,71,-4
6390,4,-261,29,-20,70,-4
6395,4,-267,23,-22,69,-4
6400,5,-265,26,-22,67,-4
6405,1,-264,29,-23,64,-3
6410,4,-265,29,-20,63,-3
6415,4,-263,27,-19,61,-4
6420,2,-263,31,-16,61,-2
6425,3,-262,31,-15,61,-2
6430,0,-263,31,-15,62,0
6435,3,-263,31,-15,64,-2
6440,4,-263,30,-16,66,-2
6445,4,-263,28,-16,66,-1
6450,4,-263,27,-17,65,-1
6455,5,-264,30,-17,67,-2
6460,4,-265,28,-17,67,-4
6465,5,-267,23,-17,68,-3
6470,2,-263,25,-17,67,-3
6475,5,-262,29,-17,69,-5
6480,4,-266,27,-14,70,-4
6485,1,-261,25,-13,71,-6
6490,3,-264,30,-7,72,-4
6495,4,-262,29,-3,74,-3
6500,5,-267,28,0,77,-6
6505,3,-262,22,1,79,-6
6510,4,-264,24,2,78,-7
6515,4,-263,28,-3,78,-6
6520,4,-262,28,-6,75,-6
6525,4,-263,27,-14,73,-5
6530,4,-261,24,-21,71,-5
6535,4,-263,29,-25,67,-6
6540,4,-260,25,-27,67,-5
6545,3,-265,27,-28,67,-5
6550,2,-264,29,-27,66,-6
6555,5,-264,29,-24,64,-6
6560,4,-266,28,-23,64,-4
6565,6,-263,28,-20,65,-4
6570,4,-263,27,-18,67,-5
6575,4,-261,32,-14,67,-6
6580,4,-263,28,-12,69,-6
6585,4,-265,27,-12,69,-6
6590,4,-262,29,-11,70,-6
6595,3,-263,28,-13,72,-6
6600,4,-263,27,-11,73,-7
6605,5,-263,27,-10,74,-7
6610,5,-262,35,-13,72,-6
6615,4,-263,32,-12,72,-6
6620,4,-264,27,-12,70,-6
6625,4,-265,28,-11,68,-6
6630,3,-263,28,-10,68,-5
6635,3,-263,26,-11,69,-3
6640,4,-267,26,-13,68,-3
6645,4,-264,29,-15,68,-4
6650,5,-265,28,-17,68,-2
6655,4,-266,24,-19,66,-2
6660,3,-266,23,-19,64,-2
6665,4,-265,27,-19,64,-1
6670,5,-267,27,-18,64,-2
6675,5,-263,25,-18,65,-3
6680,6,-264,26,-17,67,-4
6685,3,-262,31,-17,67,-4
6690,5,-264,22,-19,71,-3
6695,3,-264,28,-18,72,-5
6700,2,-262,22,-19,74,-6
6705,3,-263,30,-19,75,-7
6710,5,-263,27,-16,74,-8
6715,-4,-276,35,-15,73,-8
6720,3,-264,40,-14,72,-8
6725,4,-264,28,-15,69,-8
6730,2,-264,26,-15,68,-10
6735,4,-263,29,-15,67,-10
6740,4,-264,28,-15,67,-8
6745,5,-263,30,-15,66,-9
6750,4,-261,28,-15,66,-9
6755,4,-263,25,-16,66,-9
6760,5,-261,29,-16,66,-8
6765,4,-267,26,-17,67,-9
6770,5,-265,23,-18,68,-7
6775,5,-263,28,-18,70,-8
6780,2,-265,28,-18,70,-8
6785,4,-264,29,-18,70,-8
6790,3,-265,27,-20,70,-7
6795,0,-264,28,-18,69,-9
6800,4,-261,26,-18,68,-8
6805,4,-265,29,-17,69,-8
6810,3,-263,30,-17,69,-9
6815,5,-266,25,-14,70,-8
6820,3,-263,29,-13,71,-7
6825,2,-264,32,-12,72,-8
6830,4,-264,33,-11,71,-6
6835,4,-261,30,-10,70,-6
6840,5,-264,30,-8,69,-6
6845,3,-262,26,-5,69,-7
6850,5,-262,30,-3,68,-5
6855,4,-265,27,-2,68,-6
6860,4,-264,29,0,69,-7
6865,4,-265,21,0,67,-7
6870,4,-264,27,-4,66,-8
6875,4,-264,23,-11,64,-8
6880,6,-262,26,-19,60,-8
6885,4,-263,22,-25,59,-7
6890,3,-264,21,-29,59,-6
6895,4,-265,27,-32,62,-6
6900,3,-264,30,-32,65,-6
6905,4,-265,29,-27,66,-7
6910,4,-266,27,-22,69,-6
6915,4,-265,32,-15,72,-7
6920,2,-264,28,-9,73,-9
6925,2,-262,31,-6,74,-9
6930,8,-259,32,-4,73,-8
6935,1,-255,24,-3,72,-9
6940,8,-260,19,-4,71,-10
6945,15,-274,40,-5,70,-10
6950,3,-261,34,-10,69,-9
6955,4,-265,28,-15,66,-10
6960,1,-264,24,-18,66,-9
6965,6,-264,17,-20,69,-8
6970,5,-265,18,-23,69,-7
6975,4,-260,27,-23,69,-7
6980,5,-271,38,-24,68,-5
6985,6,-265,26,-23,70,-6
6990,5,-261,26,-22,69,-5
6995,5,-262,29,-21,68,-5
7000,6,-266,26,-20,67,-3
7005,8,-263,33,-16,67,-3
7010,11,-257,27,-15,66,-4
7015,-1,-268,40,-13,66,-2
7020,6,-260,20,-12,66,-2
7025,4,-256,21,-9,67,-3
7030,8,-270,14,-7,67,-4
7035,5,-261,25,-6,67,-4
7040,5,-267,19,-6,68,-4
7045,3,-264,31,-4,68,-5
7050,9,-262,39,-5,70,-5
7055,3,-262,13,-8,71,-6
7060,5,-265,30,-11,72,-7
7065,4,-264,26,-13,72,-7
7070,2,-260,28,-17,71,-8
7075,4,-262,25,-18,70,-7
7080,5,-273,29,-19,71,-8
7085,9,-275,45,-19,70,-8
7090,3,-261,19,-20,69,-8
7095,8,-258,23,-17,69,-7
7100,-1,-267,32,-15,67,-7
7105,2,-260,26,-14,68,-4
7110,9,-263,25,-15,68,-3
7115,12,-266,27,-14,67,-4
7120,6,-260,22,-13,67,-2
7125,-16,-262,25,-14,67,-3
7130,3,-268,31,-15,69,-3
7135,16,-261,23,-13,69,-2
7140,5,-265,27,-12,69,-2
7145,5,-266,29,-9,69,-1
7150,5,-264,28,-6,69,-2
7155,4,-260,30,-4,69,-2
7160,3,-260,29,-5,70,-3
7165,-3,-272,26,-7,70,-3
7170,6,-258,23,-12,70,-2
7175,16,-265,21,-18,72,-4
7180,11,-261,42,-24,72,-3
7185,1,-264,32,-28,71,-2
7190,8,-262,33,-28,71,-3
7195,4,-262,29,-27,70,-2
7200,4,-264,25,-25,69,-2
7205,0,-268,27,-21,66,-3
7210,-4,-259,22,-18,66,-2
7215,4,-265,31,-15,64,-2
7220,4,-263,25,-14,65,-1
7225,4,-264,26,-13,65,-2
7230,4,-260,24,-13,66,-3
7235,5,-263,19,-15,69,-3
7240,2,-262,37,-16,70,-2
7245,4,-273,28,-17,72,-3
7250,5,-264,27,-18,72,-4
7255,5,-264,17,-19,74,-3
7260,1,-259,27,-18,75,-4
7265,9,-260,26,-17,74,-4
7270,4,-271,27,-18,72,-3
7275,6,-261,27,-16,72,-3
7280,5,-265,30,-16,71,-4
7285,8,-258,37,-15,71,-3
7290,4,-264,26,-16,71,-3
7295,5,-264,27,-16,70,-3
7300,4,-266,28,-16,70,-2
7305,4,-263,25,-18,70,-3
7310,-1,-261,25,-18,71,-1
7315,1,-260,26,-18,73,-1
7320,6,-257,20,-19,74,-3
7325,5,-260,26,-20,73,-1
7330,14,-263,18,-21,73,-3
7335,4,-259,33,-22,72,-2
7340,0,-257,28,-23,72,-4
7345,3,-263,27,-24,70,-3
7350,8,-266,30,-23,70,-4
7355,4,-261,33,-24,71,-4
7360,8,-274,30,-21,70,-4
7365,4,-264,27,-20,70,-5
7370,4,-262,29,-18,69,-5
7375,4,-267,29,-17,70,-3
7380,6,-264,31,-16,69,-4
7385,3,-266,19,-12,71,-3
7390,5,-271,19,-9,71,-3
7395,4,-262,28,-5,73,-3
7400,4,-266,26,-3,74,-2
7405,3,-265,28,-3,76,-3
7410,8,-268,26,-3,76,-5
7415,5,-269,23,-5,77,-4
7420,4,-261,20,-7,75,-5
7425,4,-264,38,-10,75,-4
7430,3,-271,33,-12,74,-5
7435,4,-263,26,-13,74,-3
7440,7,-266,31,-14,71,-3
7445,4,-263,27,-15,70,-5
7450,5,-263,28,-16,69,-5
7455,4,-263,28,-16,70,-4
7460,3,-264,29,-15,72,-2
7465,4,-262,31,-15,72,-3
7470,1,-260,29,-14,73,-4
7475,4,-264,27,-14,73,-3
7480,4,-265,31,-12,74,-4
7485,4,-264,28,-12,74,-5
7490,5,-262,30,-11,73,-5
7495,4,-261,27,-11,75,-5
7500,5,-262,29,-11,73,-5
7505,4,-263,27,-11,72,-5
7510,2,-262,30,-12,71,-5
7515,3,-262,25,-12,68,-5
7520,4,-262,27,-11,69,-5
7525,4,-262,29,-12,66,-4
7530,8,-268,26,-12,66,-5
7535,5,-264,28,-10,66,-4
7540,3,-263,30,-10,66,-2
7545,4,-266,30,-9,67,-3
7550,6,-265,28,-8,68,-4
7555,2,-262,23,-6,70,-3
7560,4,-267,29,-7,73,-5
7565,4,-262,27,-7,73,-4
7570,5,-263,24,-7,74,-4
7575,4,-263,26,-8,73,-3
7580,18,-266,10,-11,73,-3
7585,4,-264,27,-13,72,-2
7590,5,-264,26,-15,70,-4
7595,4,-263,29,-15,67,-4
7600,6,-262,29,-14,65,-4
7605,5,-264,32,-13,64,-3
7610,4,-265,29,-12,63,-3
7615,5,-266,26,-10,63,-4
7620,6,-265,29,-9,64,-2
7625,4,-266,27,-9,65,-1
7630,4,-264,28,-8,65,-2
7635,2,-264,26,-6,68,-3
7640,4,-263,26,-3,70,-3
7645,3,-264,26,-1,71,-4
7650,4,-266,24,1,74,-4
7655,4,-265,28,3,73,-4
7660,4,-264,24,5,73,-5
7665,4,-265,25,5,73,-6
7670,3,-265,24,4,74,-6
7675,4,-267,30,3,75,-6
7680,2,-261,24,-1,77,-8
7685,3,-260,26,-7,75,-9
7690,5,-265,25,-11,74,-8
7695,5,-261,26,-16,73,-6
7700,4,-263,27,-17,71,-4
7705,5,-261,27,-17,72,-5
7710,4,-261,28,-17,70,-5
7715,4,-264,28,-18,69,-6
7720,5,-262,25,-18,65,-6
7725,5,-263,29,-19,63,-7
7730,6,-264,30,-21,60,-5
7735,5,-264,27,-23,58,-3
7740,4,-265,26,-24,57,-3
7745,3,-261,30,-24,59,-4
7750,1,-260,30,-24,60,-2
7755,4,-262,30,-22,64,-3
7760,4,-263,31,-18,66,-4
7765,4,-264,30,-13,69,-4
7770,1,-264,31,-6,71,-6
7775,4,-265,32,-2,73,-4
7780,4,-265,31,2,74,-5
7785,1,-264,25,3,75,-6
7790,4,-264,25,2,76,-5
7795,1,-260,28,-1,74,-5
7800,4,-262,22,-6,73,-6
7805,1,-263,27,-10,73,-7
7810,4,-261,24,-14,72,-8
7815,1,-263,26,-19,73,-7
7820,2,-262,29,-22,72,-7
7825,4,-266,26,-23,71,-5
7830,2,-264,30,-22,70,-5
7835,4,-263,25,-19,69,-6
7840,4,-263,25,-18,69,-6
7845,4,-265,25,-15,69,-6
7850,4,-265,26,-13,69,-5
7855,4,-262,25,-12,68,-5
7860,5,-263,28,-11,69,-5
7865,4,-265,27,-13,68,-6
7870,3,-265,26,-14,67,-5
7875,4,-265,27,-15,68,-6
7880,2,-264,28,-16,66,-5
7885,2,-264,29,-16,65,-5
7890,9,-259,32,-16,67,-5
7895,4,-263,27,-16,66,-5
7900,2,-264,32,-17,64,-6
7905,3,-263,30,-16,67,-5
7910,4,-263,32,-14,68,-7
7915,4,-264,29,-12,69,-8
7920,4,-263,27,-10,70,-9
7925,3,-266,29,-8,72,-8
7930,4,-263,29,-6,73,-7
7935,4,-262,31,-6,73,-6
7940,4,-264,28,-6,73,-7
7945,4,-262,30,-7,72,-8
7950,4,-263,27,-7,70,-7
7955,4,-264,27,-8,71,-6
7960,4,-262,29,-8,71,-7
7965,4,-263,26,-8,70,-6
7970,4,-265,30,-8,70,-7
7975,2,-263,31,-7,69,-6
7980,2,-261,29,-7,70,-6
7985,4,-264,29,-7,71,-7
7990,4,-262,28,-8,72,-7
7995,4,-264,25,-7,74,-5
8000,6,-261,24,-6,75,-4
8005,4,-262,30,-6,76,-5
8010,6,-264,27,-7,77,-4
8015,5,-264,29,-6,77,-4
8020,4,-262,25,-6,76,-6
8025,4,-262,27,-8,74,-7
8030,4,-263,24,-10,73,-6
8035,4,-262,27,-10,71,-6
8040,4,-261,26,-12,71,-5
8045,3,-264,26,-15,71,-6
8050,4,-265,23,-16,71,-6
8055,2,-261,26,-19,72,-3
8060,5,-264,25,-20,73,-5
8065,5,-265,27,-20,73,-6
8070,4,-264,29,-19,75,-5
8075,4,-263,28,-16,75,-5
8080,4,-264,29,-12,74,-4
8085,6,-264,29,-9,75,-4
8090,6,-267,29,-5,74,-6
8095,4,-263,27,-3,74,-4
8100,5,-259,28,-4,73,-5
8105,4,-263,27,-3,75,-4
8110,2,-261,28,-4,75,-4
8115,4,-264,31,-4,75,-5
8120,3,-261,31,-6,75,-4
8125,4,-263,27,-6,75,-4
8130,5,-263,26,-7,75,-4
8135,4,-263,29,-7,74,-4
8140,5,-263,30,-8,73,-4
8145,4,-264,28,-11,74,-3
8150,4,-262,29,-13,73,-4
8155,4,-266,28,-13,73,-4
8160,4,-266,27,-14,73,-4
8165,3,-266,23,-14,73,-3
8170,4,-264,30,-13,74,-2
8175,2,-265,29,-11,76,-3
8180,4,-265,25,-11,78,-2
8185,4,-262,29,-11,78,-3
8190,4,-264,29,-11,78,-2
8195,4,-264,31,-8,76,-3
8200,3,-263,29,-8,75,-3
8205,4,-265,27,-7,76,-4
8210,3,-262,30,-7,74,-3
8215,4,-263,27,-9,73,-3
8220,4,-263,24,-8,72,-3
8225,2,-260,28,-8,74,-2
8230,4,-267,28,-10,74,-3
8235,4,-264,26,-9,76,-1
8240,4,-263,29,-9,77,-2
8245,4,-264,28,-9,78,-2
8250,2,-263,29,-8,78,-4
8255,4,-263,26,-7,76,-3
8260,5,-262,28,-5,76,-1
8265,2,-260,28,-5,74,-2
8270,4,-266,25,-4,72,-2
8275,4,-262,30,-5,72,-1
8280,4,-265,30,-3,71,0
8285,3,-260,30,-4,70,-3
8290,5,-267,27,-3,70,-1
8295,2,-264,30,-3,71,-2
8300,5,-264,28,-3,70,0
8305,2,-262,33,-5,71,-2
8310,3,-265,27,-6,70,-3
8315,5,-263,25,-8,68,-2
8320,3,-264,29,-12,67,-1
8325,4,-262,25,-14,67,-1
8330,5,-265,28,-17,66,-1
8335,4,-263,28,-18,67,-1
8340,5,-262,28,-16,69,-1
8345,2,-261,27,-16,70,-1
8350,2,-265,29,-11,69,-1
8355,5,-265,26,-8,71,-2
8360,5,-264,31,-5,71,-3
8365,6,-263,30,-2,73,-3
8370,4,-268,27,0,74,-3
8375,4,-264,29,2,74,-5
8380,3,-262,28,4,73,-5
8385,4,-263,25,5,71,-5
8390,4,-265,24,8,70,-4
8395,4,-266,28,7,69,-4
8400,5,-263,27,8,66,-5
8405,4,-262,26,8,63,-5
8410,4,-262,29,7,62,-4
8415,4,-260,27,5,61,-3
8420,6,-262,28,5,60,-3
8425,4,-268,32,4,61,-2
8430,4,-263,30,0,64,-3
8435,4,-264,31,0,68,-3
8440,4,-262,28,-1,71,-4
8445,5,-264,26,0,72,-3
8450,4,-261,31,2,73,-4
8455,3,-264,28,3,73,-5
8460,5,-263,28,4,71,-6
8465,2,-261,28,5,69,-7
8470,4,-266,29,5,68,-7
8475,4,-260,26,4,66,-8
8480,5,-263,32,1,68,-8
8485,3,-260,28,-2,68,-8
8490,5,-264,28,-3,71,-7
8495,6,-262,27,-5,75,-7
8500,4,-264,26,-7,77,-8
8505,4,-264,29,-8,79,-10
8510,3,-263,29,-7,80,-9
8515,4,-263,29,-7,82,-8
8520,5,-264,31,-8,82,-8
8525,5,-266,29,-7,79,-8
8530,6,-270,30,-4,77,-9
8535,5,-263,31,-2,73,-9
8540,4,-264,31,1,72,-9
8545,4,-266,28,4,69,-10
8550,5,-265,30,6,69,-9
8555,4,-265,27,5,71,-10
8560,4,-264,32,6,72,-8
8565,6,-265,29,7,73,-7
8570,5,-263,26,8,74,-8
8575,4,-263,29,7,75,-9
8580,4,-267,27,7,75,-9
8585,5,-263,27,6,74,-9
8590,4,-262,27,4,70,-8
8595,2,-260,30,-1,69,-9
8600,3,-263,25,-6,66,-8
8605,2,-261,28,-12,64,-9
8610,4,-261,28,-18,61,-9
8615,2,-262,32,-22,60,-9
8620,4,-261,29,-23,57,-8
8625,2,-262,35,-23,56,-8
8630,3,-264,33,-21,57,-9
8635,1,-264,36,-16,58,-8
8640,4,-264,34,-11,63,-9
8645,4,-262,33,-3,69,-10
8650,4,-264,33,2,73,-11
8655,4,-262,33,5,77,-13
8660,2,-263,33,5,78,-13
8665,2,-259,31,1,76,-13
8670,4,-259,35,-5,73,-13
8675,4,-260,32,-15,70,-14
8680,3,-260,31,-26,65,-14
8685,5,-259,35,-36,62,-14
8690,5,-261,31,-45,58,-14
8695,5,-262,33,-52,58,-14
8700,4,-260,32,-58,57,-14
8705,5,-262,35,-62,55,-15
8710,4,-261,33,-63,55,-14
8715,4,-261,30,-65,55,-14
8720,4,-261,32,-62,57,-14
8725,6,-264,34,-59,60,-14
8730,5,-266,34,-57,61,-14
8735,5,-265,32,-53,62,-15
8740,4,-263,30,-50,61,-13
8745,8,-261,26,-50,61,-13
8750,5,-262,31,-52,62,-12
8755,4,-260,33,-58,62,-12
8760,5,-261,28,-68,63,-11
8765,5,-261,30,-77,62,-11
8770,3,-262,32,-87,59,-10
8775,3,-263,30,-94,53,-8
8780,3,-258,34,-100,50,-6
8785,3,-259,32,-105,46,-3
8790,4,-258,32,-110,45,-1
8795,4,-258,34,-116,44,0
8800,4,-260,32,-122,44,-1
8805,2,-261,32,-128,41,1
8810,3,-258,33,-132,39,0
8815,4,-257,34,-133,36,-1
8820,3,-256,35,-134,31,0
8825,4,-257,37,-133,30,2
8830,5,-258,35,-134,27,1
8835,4,-258,32,-133,28,1
8840,4,-260,30,-132,30,1
8845,4,-258,33,-134,32,1
8850,6,-256,35,-137,37,0
8855,5,-255,31,-142,40,2
8860,2,-260,28,-148,43,4
8865,5,-258,31,-157,44,5
8870,5,-258,31,-164,44,7
8875,4,-261,30,-174,46,8
8880,5,-260,29,-180,47,11
8885,5,-261,29,-186,48,13
8890,6,-260,27,-189,48,15
8895,4,-260,32,-192,47,17
8900,4,-260,24,-193,44,19
8905,4,-260,27,-194,41,23
8910,2,-257,25,-196,36,25
8915,4,-259,28,-198,32,27
8920,4,-263,29,-199,31,28
8925,4,-262,25,-200,31,25
8930,4,-263,28,-201,34,22
8935,4,-262,29,-202,37,20
8940,4,-261,26,-206,40,17
8945,5,-259,23,-214,42,17
8950,4,-258,23,-224,44,12
8955,7,-262,25,-238,46,10
8960,4,-258,20,-250,47,10
8965,5,-257,21,-267,47,11
8970,5,-257,21,-283,49,10
8975,3,-256,18,-298,53,10
8980,6,-258,16,-315,56,12
8985,4,-257,20,-329,59,13
8990,2,-256,21,-341,58,14
8995,7,-257,19,-349,58,17
9000,4,-258,19,-353,62,19
9005,10,-261,20,-355,63,21
9010,5,-263,18,-353,65,22
9015,6,-264,14,-352,68,20
9020,8,-263,13,-350,70,18
9025,9,-264,19,-349,72,18
9030,6,-264,15,-349,73,17
9035,9,-264,13,-352,74,18
9040,9,-264,10,-356,73,12
9045,9,-266,10,-365,75,10
9050,8,-262,12,-373,78,8
9055,9,-262,12,-383,81,6
9060,8,-263,8,-394,86,6
9065,8,-263,13,-402,93,2
9070,11,-264,11,-411,100,1
9075,8,-262,13,-418,105,0
9080,7,-261,19,-425,108,-4
9085,6,-261,16,-429,113,-4
9090,7,-262,15,-431,119,-2
9095,7,-261,19,-429,121,-1
9100,5,-262,18,-426,121,2
9105,4,-258,15,-425,117,4
9110,4,-257,16,-428,111,6
9115,4,-258,11,-435,105,10
9120,1,-257,7,-447,96,13
9125,5,-257,5,-466,89,17
9130,-1,-257,5,-490,88,17
9135,4,-258,1,-519,89,21
9140,3,-259,3,-551,92,22
9145,4,-259,4,-584,98,22
9150,2,-259,0,-617,105,23
9155,1,-263,0,-650,113,23
9160,2,-261,0,-683,119,20
9165,5,-266,-8,-716,125,16
9170,4,-265,-5,-748,129,15
9175,5,-262,-5,-779,133,10
9180,5,-263,-10,-809,138,8
9185,5,-263,-4,-837,139,4
9190,4,-267,-6,-861,141,1
9195,5,-266,-7,-882,139,-2
9200,5,-269,0,-895,135,-5
9205,4,-271,-9,-904,130,-5
9210,4,-271,-6,-908,125,-4
9215,4,-268,-12,-914,123,-3
9220,4,-272,-14,-922,122,1
9225,5,-270,-18,-933,123,2
9230,5,-271,-15,-948,126,2
9235,3,-271,-17,-959,127,1
9240,7,-276,-22,-974,125,-2
9245,4,-271,-23,-988,121,-7
9250,0,-272,-25,-1006,115,-13
9255,3,-275,-27,-1023,109,-18
9260,2,-274,-25,-1036,104,-26
9265,-5,-272,-26,-1050,100,-31
9270,-2,-275,-25,-1062,98,-32
9275,-12,-276,-28,-1070,96,-33
9280,-1,-274,-31,-1078,96,-34
9285,2,-274,-34,-1082,96,-30
9290,3,-279,-40,-1086,100,-33
9295,-1,-277,-42,-1089,104,-37
9300,1,-274,-47,-1098,106,-43
9305,0,-275,-53,-1108,105,-45
9310,0,-274,-55,-1123,96,-46
9315,-1,-274,-62,-1139,83,-50
9320,-4,-270,-63,-1158,74,-50
9325,-2,-272,-72,-1175,66,-48
9330,7,-274,-75,-1190,62,-40
9335,4,-272,-78,-1208,61,-44
9340,6,-271,-78,-1223,59,-49
9345,5,-269,-79,-1233,58,-51
9350,5,-271,-74,-1236,54,-51
9355,4,-276,-74,-1230,45,-51
9360,4,-275,-68,-1212,34,-52
9365,4,-278,-69,-1184,24,-52
9370,5,-281,-68,-1149,21,-54
9375,6,-285,-68,-1109,21,-55
9380,5,-283,-79,-1068,26,-60
9385,7,-284,-73,-1027,37,-62
9390,5,-282,-77,-991,52,-66
9395,7,-287,-77,-956,68,-67
9400,4,-282,-84,-925,81,-68
9405,5,-277,-86,-906,89,-66
9410,4,-275,-89,-887,93,-67
9415,5,-277,-93,-872,94,-64
9420,6,-276,-93,-857,92,-61
9425,6,-274,-94,-840,90,-59
9430,5,-274,-94,-820,85,-58
9435,5,-272,-94,-795,82,-54
9440,4,-273,-89,-761,77,-53
9445,5,-271,-91,-719,70,-46
9450,5,-272,-91,-672,64,-43
9455,7,-269,-88,-623,63,-44
9460,5,-269,-90,-569,60,-47
9465,4,-264,-92,-519,54,-47
9470,4,-263,-100,-471,50,-44
9475,4,-260,-98,-433,44,-40
9480,5,-264,-101,-402,37,-38
9485,4,-260,-102,-377,34,-39
9490,4,-257,-103,-356,31,-39
9495,4,-258,-104,-338,24,-41
9500,3,-256,-107,-324,18,-40
9505,4,-256,-112,-314,8,-38
9510,2,-256,-110,-308,4,-36
9515,5,-256,-108,-302,5,-37
9520,3,-253,-112,-297,8,-40
9525,4,-254,-110,-293,13,-43
9530,-1,-255,-111,-290,21,-47
9535,3,-255,-104,-285,31,-51
9540,4,-257,-106,-279,38,-55
9545,5,-257,-108,-270,43,-56
9550,4,-254,-110,-266,46,-57
9555,4,-255,-108,-261,43,-58
9560,4,-256,-114,-256,34,-56
9565,5,-257,-113,-257,23,-55
9570,5,-254,-110,-257,11,-55
9575,5,-256,-107,-260,2,-54
9580,5,-255,-110,-262,-5,-54
9585,6,-256,-110,-262,-8,-54
9590,6,-256,-108,-259,-8,-56
9595,8,-255,-110,-254,-7,-59
9600,9,-257,-109,-246,-2,-63
9605,6,-255,-111,-240,1,-64
9610,8,-255,-111,-232,4,-66
9615,13,-257,-112,-226,4,-66
9620,11,-258,-113,-225,3,-68
9625,10,-254,-113,-232,0,-70
9630,11,-256,-121,-243,-5,-70
9635,15,-255,-119,-257,-10,-70
9640,13,-255,-118,-273,-16,-71
9645,17,-256,-119,-290,-21,-75
9650,12,-256,-124,-309,-25,-78
9655,14,-256,-126,-328,-27,-79
9660,15,-257,-123,-344,-29,-82
9665,14,-259,-129,-363,-32,-85
9670,9,-256,-129,-384,-34,-85
9675,9,-255,-129,-409,-40,-85
9680,12,-256,-129,-436,-46,-88
9685,9,-255,-130,-460,-52,-89
9690,6,-254,-129,-474,-54,-89
9695,4,-254,-128,-484,-54,-85
9700,7,-255,-130,-491,-56,-81
9705,2,-258,-122,-492,-56,-77
9710,7,-254,-123,-490,-56,-75
9715,4,-251,-127,-486,-54,-71
9720,5,-251,-126,-484,-48,-67
9725,8,-252,-127,-485,-36,-64
9730,6,-252,-127,-488,-22,-58
9735,6,-251,-126,-492,-8,-58
9740,8,-250,-122,-495,5,-58
9745,6,-251,-124,-498,13,-59
9750,6,-249,-122,-497,20,-59
9755,9,-248,-122,-491,24,-59
9760,5,-248,-118,-481,28,-63
9765,6,-246,-117,-465,33,-59
9770,7,-249,-114,-444,36,-55
9775,10,-249,-114,-423,37,-52
9780,7,-245,-115,-400,38,-55
9785,9,-246,-114,-375,36,-61
9790,4,-246,-114,-350,32,-60
9795,5,-244,-116,-327,22,-57
9800,7,-247,-114,-307,10,-58
9805,5,-241,-118,-289,-1,-61
9810,4,-238,-122,-275,-7,-66
9815,11,-234,-116,-265,-4,-65
9820,9,-240,-125,-261,2,-66
9825,5,-233,-128,-259,13,-68
9830,10,-236,-133,-264,26,-63
9835,9,-239,-131,-270,45,-66
9840,10,-240,-135,-276,62,-64
9845,13,-238,-135,-285,85,-61
9850,10,-237,-132,-293,106,-60
9855,12,-237,-129,-301,124,-61
9860,9,-232,-124,-299,137,-60
9865,10,-241,-124,-296,143,-56
9870,7,-238,-119,-287,146,-52
9875,9,-237,-114,-272,145,-51
9880,10,-237,-114,-250,140,-47
9885,7,-240,-111,-226,134,-45
9890,9,-239,-109,-200,130,-45
9895,8,-239,-108,-174,128,-45
9900,6,-235,-111,-142,127,-46
9905,5,-237,-112,-105,126,-49
9910,4,-238,-110,-58,122,-48
9915,2,-237,-112,-10,114,-45
9920,7,-238,-108,41,106,-42
9925,3,-235,-119,93,100,-35
9930,4,-234,-113,142,99,-29
9935,4,-234,-116,186,98,-22
9940,5,-235,-109,226,102,-21
9945,2,-231,-115,259,109,-20
9950,2,-223,-114,290,117,-12
9955,4,-219,-114,311,123,-7
9960,3,-214,-113,325,132,-5
9965,4,-219,-113,336,138,-1
9970,6,-219,-114,343,142,-2
9975,3,-215,-111,351,148,-7
9980,4,-216,-115,360,152,-4
9985,4,-212,-113,374,155,-3
9990,6,-217,-113,388,156,-5
9995,4,-216,-112,403,158,-8
10000,4,-213,-115,418,156,-11
10005,4,-214,-108,429,153,-11
10010,4,-212,-111,441,146,-8
10015,4,-209,-109,448,138,-4
10020,3,-208,-108,454,127,-3
10025,3,-209,-107,456,118,1
10030,-2,-216,-105,455,107,6
10035,4,-207,-109,451,99,9
10040,3,-207,-109,444,93,10
10045,4,-211,-110,437,90,14
10050,3,-210,-109,429,89,21
10055,4,-214,-112,423,90,24
10060,7,-214,-109,418,91,26
10065,5,-215,-113,413,92,29
10070,5,-217,-111,410,94,29
10075,7,-217,-114,409,99,31
10080,4,-214,-107,408,106,33
10085,5,-212,-107,405,113,35
10090,8,-210,-108,402,120,35
10095,5,-209,-108,398,125,32
10100,5,-207,-103,390,128,32
10105,5,-209,-101,385,128,31
10110,8,-210,-97,379,127,28
10115,8,-206,-99,370,120,27
10120,5,-206,-96,362,111,25
10125,4,-207,-94,352,96,22
10130,4,-202,-96,341,81,19
10135,4,-201,-96,326,65,18
10140,5,-197,-85,310,48,19
10145,4,-201,-95,298,34,21
10150,0,-203,-92,288,20,24
10155,2,-202,-92,285,8,26
10160,-1,-206,-89,286,3,27
10165,-4,-202,-92,291,-2,29
10170,-3,-203,-90,300,-1,34
10175,1,-205,-91,312,5,40
10180,2,-206,-92,321,13,44
10185,3,-208,-93,326,24,44
10190,3,-205,-91,335,30,44
10195,3,-205,-93,344,37,45
10200,4,-207,-92,349,45,50
10205,4,-208,-94,349,53,55
10210,4,-206,-91,345,61,49
10215,4,-208,-87,345,67,48
10220,4,-205,-90,353,68,51
10225,7,-209,-89,360,68,57
10230,5,-211,-86,362,65,53
10235,8,-208,-85,366,59,49
10240,5,-208,-87,374,52,49
10245,6,-207,-89,379,44,54
10250,11,-211,-91,381,43,62
10255,8,-210,-87,376,42,57
10260,10,-210,-85,376,42,57
10265,9,-209,-87,380,43,58
10270,10,-214,-87,386,44,69
10275,8,-218,-92,380,45,66
10280,8,-216,-91,371,45,61
10285,7,-217,-95,363,46,61
10290,7,-218,-93,356,50,65
10295,7,-213,-92,347,54,71
10300,5,-223,-94,342,58,81
10305,8,-226,-92,331,65,77
10310,6,-221,-90,329,72,79
10315,6,-219,-86,338,78,81
10320,10,-220,-87,350,83,84
10325,7,-216,-87,362,88,88
10330,6,-218,-83,373,91,90
10335,10,-220,-85,389,93,98
10340,9,-217,-87,392,91,100
10345,5,-213,-85,392,86,94
10350,6,-214,-83,392,82,96
10355,5,-217,-79,387,79,98
10360,8,-214,-81,379,77,97
10365,5,-216,-84,364,78,97
10370,5,-215,-84,347,78,98
10375,4,-210,-85,326,77,100
10380,7,-219,-83,302,77,106
10385,5,-218,-82,265,77,92
10390,5,-222,-86,241,77,87
10395,4,-222,-85,225,73,81
10400,4,-224,-88,215,69,77
10405,4,-228,-88,208,67,80
10410,2,-230,-88,192,64,69
10415,3,-227,-86,181,63,59
10420,4,-229,-85,182,66,54
10425,4,-235,-84,189,68,48
10430,3,-233,-85,198,76,45
10435,5,-236,-83,212,86,49
10440,4,-235,-80,215,96,42
10445,4,-234,-85,219,106,36
10450,4,-238,-85,227,117,35
10455,4,-238,-86,230,124,33
10460,5,-237,-86,225,131,30
10465,5,-237,-89,216,137,28
10470,4,-238,-91,203,142,29
10475,6,-239,-91,189,142,31
10480,6,-242,-87,178,143,32
10485,7,-240,-86,170,144,33
10490,7,-243,-86,166,145,35
10495,9,-243,-84,166,147,36
10500,9,-241,-85,171,151,38
10505,10,-244,-81,177,157,39
10510,10,-244,-80,186,163,42
10515,12,-242,-78,194,166,44
10520,9,-241,-80,201,168,46
10525,8,-240,-78,203,170,47
10530,10,-241,-79,200,172,49
10535,7,-238,-81,196,174,49
10540,9,-239,-80,187,173,50
10545,9,-241,-77,177,174,50
10550,8,-245,-76,168,176,50
10555,7,-243,-77,160,172,47
10560,7,-245,-78,155,170,44
10565,7,-245,-73,151,167,40
10570,4,-246,-68,148,165,37
10575,6,-248,-70,146,162,33
10580,2,-249,-75,143,159,32
10585,4,-249,-73,144,155,25
10590,2,-250,-70,143,149,21
10595,3,-254,-69,139,142,18
10600,0,-251,-71,134,136,15
10605,-1,-252,-75,129,130,13
10610,2,-253,-73,124,128,12
10615,-6,-252,-71,120,124,12
10620,-4,-250,-76,115,124,12
10625,1,-249,-73,111,123,13
10630,-3,-251,-75,110,123,12
10635,4,-249,-73,107,121,10
10640,3,-252,-70,107,118,9
10645,4,-251,-69,110,116,7
10650,2,-252,-70,112,109,5
10655,5,-251,-71,115,105,3
10660,4,-252,-68,116,100,0
10665,5,-250,-67,117,98,0
10670,5,-251,-68,117,92,-1
10675,4,-250,-69,116,88,-1
10680,5,-247,-68,115,82,-2
10685,4,-252,-68,116,78,-3
10690,6,-250,-68,120,73,-4
10695,5,-250,-68,125,69,-6
10700,6,-250,-65,128,67,-7
10705,8,-253,-65,131,64,-10
10710,6,-252,-65,133,64,-11
10715,5,-251,-71,131,63,-12
10720,6,-250,-67,127,62,-14
10725,5,-251,-68,122,62,-15
10730,6,-248,-67,115,62,-14
10735,4,-251,-68,107,62,-14
10740,5,-250,-68,102,61,-14
10745,4,-250,-69,98,60,-11
10750,4,-251,-68,97,59,-11
10755,6,-249,-68,97,60,-10
10760,4,-254,-65,98,62,-10
10765,0,-248,-67,97,61,-11
10770,2,-250,-66,94,62,-10
10775,1,-249,-67,89,61,-9
10780,2,-246,-63,79,61,-9
10785,1,-249,-65,69,56,-9
10790,2,-250,-65,59,52,-9
10795,1,-249,-66,51,45,-9
10800,4,-252,-67,42,39,-11
10805,3,-248,-63,34,35,-12
10810,3,-250,-64,25,30,-13
10815,6,-249,-66,17,27,-14
10820,4,-248,-67,12,25,-14
10825,4,-252,-63,7,26,-15
10830,5,-253,-65,2,27,-14
10835,5,-252,-62,2,28,-16
10840,6,-255,-65,1,27,-15
10845,4,-258,-65,3,28,-15
10850,6,-253,-63,7,27,-15
10855,6,-254,-60,7,25,-16
10860,5,-252,-61,10,23,-15
10865,4,-256,-64,12,21,-15
10870,5,-255,-64,14,19,-14
10875,7,-254,-63,13,19,-14
10880,6,-254,-64,12,20,-14
10885,6,-253,-64,10,23,-13
10890,9,-254,-64,7,23,-12
10895,6,-252,-63,5,23,-12
10900,4,-253,-63,2,23,-10
10905,6,-253,-62,1,23,-10
10910,6,-250,-63,2,22,-12
10915,5,-250,-60,0,21,-12
10920,5,-254,-62,1,20,-13
10925,4,-254,-61,2,22,-12
10930,4,-251,-63,4,25,-12
10935,4,-251,-62,5,30,-12
10940,5,-254,-63,2,35,-12
10945,6,-255,-62,-2,39,-12
10950,5,-254,-62,-5,41,-11
10955,5,-253,-61,-10,43,-10
10960,4,-254,-64,-13,42,-9
10965,5,-256,-70,-14,42,-10
10970,5,-255,-63,-14,43,-10
10975,5,-254,-63,-12,45,-11
10980,5,-256,-62,-11,49,-11
10985,4,-256,-63,-8,48,-12
10990,4,-257,-61,-4,46,-14
10995,4,-256,-62,-1,44,-14
11000,4,-257,-63,0,41,-14
11005,4,-256,-60,0,41,-12
11010,4,-253,-63,2,39,-12
11015,5,-255,-61,3,39,-9
11020,4,-256,-61,6,39,-9
11025,3,-256,-61,8,39,-8
11030,4,-252,-63,10,39,-6
11035,4,-253,-63,11,39,-7
11040,2,-252,-64,12,38,-5
11045,4,-252,-63,12,36,-3
11050,4,-252,-59,10,36,-2
11055,4,-246,-61,5,37,-1
11060,5,-249,-62,2,37,-1
11065,5,-251,-61,-1,38,-2
11070,4,-251,-60,-6,40,-1
11075,3,-252,-61,-10,38,-2
11080,2,-251,-64,-14,38,-3
11085,5,-251,-60,-19,39,-2
11090,4,-253,-63,-24,39,-2
11095,4,-252,-61,-26,38,-3
11100,2,-251,-62,-29,40,-1
11105,4,-255,-66,-31,41,-2
11110,3,-254,-61,-33,43,-1
11115,5,-255,-62,-33,45,-2
11120,6,-257,-60,-32,48,-2
11125,5,-256,-63,-32,51,-4
11130,5,-256,-62,-33,52,-3
11135,7,-257,-62,-32,54,-4
11140,6,-254,-62,-32,53,-5
11145,4,-254,-61,-32,53,-5
11150,5,-253,-62,-33,53,-7
11155,5,-256,-63,-31,52,-7
11160,4,-254,-64,-29,51,-6
11165,4,-252,-64,-29,49,-6
11170,5,-252,-64,-29,48,-5
11175,5,-250,-63,-29,47,-7
11180,5,-254,-64,-28,45,-6
11185,3,-253,-63,-28,44,-6
11190,5,-256,-64,-28,44,-5
11195,3,-254,-65,-26,42,-5
11200,2,-253,-61,-25,44,-3
11205,4,-254,-62,-25,45,-3
11210,3,-254,-62,-25,46,-4
11215,4,-256,-60,-27,48,-4
11220,4,-255,-60,-28,50,-4
11225,4,-255,-59,-29,52,-4
11230,1,-255,-62,-30,55,-3
11235,5,-257,-61,-31,57,-3
11240,3,-256,-61,-29,56,-2
11245,4,-257,-63,-27,56,-1
11250,2,-256,-63,-26,53,-2
11255,4,-256,-64,-27,50,-1
11260,4,-255,-63,-29,49,-2
11265,4,-257,-65,-31,52,-2
11270,2,-252,-64,-33,53,-2
11275,4,-256,-63,-33,53,0
11280,4,-254,-64,-31,55,0
11285,4,-257,-64,-30,53,0
11290,3,-254,-61,-28,53,0
11295,4,-256,-62,-25,52,1
11300,4,-255,-61,-24,51,0
11305,4,-254,-67,-23,52,1
11310,3,-252,-64,-22,51,1
11315,4,-252,-65,-24,50,1
11320,2,-252,-66,-25,49,0
11325,3,-253,-62,-26,47,1
11330,2,-252,-62,-27,47,0
11335,1,-251,-64,-26,47,0
11340,1,-251,-63,-27,47,1
11345,3,-252,-63,-27,47,0
11350,2,-251,-66,-29,48,-1
11355,4,-253,-63,-31,46,1
11360,4,-252,-64,-31,47,-3
11365,4,-252,-64,-33,48,-3
11370,4,-255,-64,-35,47,-2
11375,0,-255,-64,-36,47,-4
11380,1,-249,-68,-39,47,-3
11385,1,-254,-65,-38,47,-4
11390,2,-250,-64,-39,47,-3
11395,3,-256,-65,-39,47,-4
11400,3,-254,-62,-38,47,-5
11405,4,-255,-62,-37,47,-3
11410,4,-254,-63,-34,45,-3
11415,1,-254,-61,-33,44,-4
11420,2,-254,-62,-33,44,-3
11425,4,-254,-61,-35,44,-3
11430,4,-254,-63,-36,45,-3
11435,4,-253,-64,-38,48,-3
11440,3,-256,-65,-38,48,-2
11445,5,-252,-61,-37,49,-2
11450,4,-255,-67,-36,48,-2
11455,4,-256,-67,-32,49,-3
11460,5,-255,-63,-29,48,-3
11465,4,-257,-64,-28,47,-3
11470,4,-256,-61,-27,45,-4
11475,3,-254,-62,-28,44,-3
11480,3,-254,-62,-31,42,-3
11485,5,-252,-62,-32,42,-3
11490,4,-256,-62,-36,41,-4
11495,4,-254,-62,-38,41,-2
11500,2,-255,-64,-37,41,-3
11505,3,-253,-66,-36,42,-3
11510,2,-253,-63,-34,43,-4
11515,2,-253,-66,-33,46,-4
11520,1,-253,-64,-31,47,-4
11525,4,-254,-64,-31,45,-4
11530,3,-254,-64,-32,48,-3
11535,4,-255,-64,-31,48,-5
11540,2,-254,-61,-32,47,-3
11545,2,-253,-65,-32,46,-3
11550,4,-254,-64,-33,50,-2
11555,3,-250,-65,-34,51,-3
11560,4,-251,-65,-35,54,-3
11565,4,-252,-60,-35,59,-3
11570,4,-253,-66,-35,59,-4
11575,4,-254,-64,-35,59,-3
11580,4,-254,-64,-33,60,-4
11585,5,-254,-64,-30,59,-5
11590,5,-256,-63,-27,58,-5
11595,4,-255,-63,-25,57,-6
11600,3,-253,-64,-22,57,-7
11605,2,-251,-67,-21,57,-6
11610,4,-254,-66,-23,57,-6
11615,2,-256,-66,-25,57,-6
11620,4,-256,-67,-27,56,-6
11625,3,-255,-62,-27,56,-7
11630,3,-255,-69,-27,55,-6
11635,2,-253,-65,-28,55,-5
11640,1,-254,-67,-27,57,-5
11645,1,-252,-66,-26,59,-5
11650,4,-255,-65,-24,60,-6
11655,3,-254,-65,-23,60,-5
11660,-1,-251,-65,-23,60,-6
11665,2,-252,-67,-21,58,-5
11670,4,-251,-64,-17,56,-5
11675,0,-253,-65,-15,55,-3
11680,4,-254,-64,-15,53,-4
11685,1,-252,-66,-14,53,-5
11690,5,-255,-65,-12,50,-6
11695,3,-253,-63,-13,50,-6
11700,4,-256,-64,-14,50,-5
11705,4,-253,-62,-16,53,-4
11710,4,-255,-63,-18,53,-4
11715,2,-255,-67,-22,56,-3
11720,4,-255,-67,-27,57,-4
11725,3,-255,-63,-29,57,-3
11730,4,-254,-66,-28,59,-2
11735,4,-253,-64,-27,59,-2
11740,4,-253,-65,-24,62,-3
11745,4,-254,-66,-20,63,-2
11750,4,-253,-64,-15,65,-2
11755,5,-253,-62,-12,65,-3
11760,4,-251,-64,-11,65,-3
11765,3,-255,-62,-11,67,-2
11770,3,-253,-64,-11,65,-2
11775,4,-254,-59,-11,63,-3
11780,4,-253,-66,-11,63,-2
11785,2,-254,-66,-12,62,-3
11790,2,-252,-66,-11,62,-3
11795,3,-252,-66,-12,62,-2
11800,3,-253,-64,-13,64,-4
11805,1,-251,-65,-14,66,-4
11810,1,-252,-63,-16,68,-2
11815,2,-255,-68,-18,69,-2
11820,-1,-251,-62,-21,67,-4
11825,3,-251,-63,-23,66,-3
11830,2,-253,-62,-25,63,-2
11835,2,-253,-66,-22,62,-1
11840,3,-255,-63,-21,60,1
11845,0,-250,-64,-19,63,-1
11850,2,-252,-63,-17,64,-1
11855,2,-255,-64,-16,64,-3
11860,4,-253,-67,-15,65,-2
11865,1,-253,-64,-18,67,0
11870,3,-254,-67,-20,66,-1
11875,1,-252,-65,-21,64,-1
11880,3,-254,-64,-21,63,0
11885,-1,-252,-61,-19,62,-1
11890,1,-252,-63,-16,62,-2
11895,2,-254,-63,-15,59,-1
11900,3,-254,-67,-13,58,0
11905,4,-253,-62,-14,56,0
11910,1,-252,-64,-15,55,0
11915,3,-251,-66,-18,53,-1
11920,3,-255,-63,-20,55,0
11925,-1,-253,-65,-20,56,-1
11930,0,-251,-66,-20,56,0
11935,3,-255,-68,-19,57,-1
11940,-1,-254,-63,-17,61,-1
11945,3,-255,-65,-13,63,-1
11950,1,-255,-65,-10,64,-1
11955,1,-253,-64,-7,65,0
11960,0,-255,-65,-5,64,0
11965,0,-251,-66,-3,62,0
11970,5,-255,-67,-4,61,0
11975,2,-253,-65,-6,63,0
11980,4,-251,-66,-6,65,-1
11985,3,-254,-67,-8,66,-1
11990,8,-249,-61,-7,67,-2
