timestamp,acc_x,acc_y,acc_z,gyro_x,gyro_y,gyro_z
0,13,-256,9,-59,71,-5
5,12,-257,11,-62,71,-3
10,13,-255,8,-61,72,-3
15,15,-256,8,-61,72,-3
20,12,-256,9,-57,73,-3
25,14,-256,7,-52,76,-4
30,16,-255,10,-47,80,-5
35,14,-256,9,-43,82,-5
40,13,-254,10,-39,86,-6
45,14,-256,10,-35,90,-10
50,15,-254,9,-31,95,-10
55,13,-254,6,-26,100,-13
60,14,-254,7,-24,104,-15
65,16,-255,7,-26,108,-18
70,13,-255,6,-28,110,-20
75,15,-253,10,-32,112,-20
80,13,-253,10,-37,114,-23
85,6,-254,10,-43,115,-24
90,11,-253,12,-46,114,-26
95,12,-256,8,-51,113,-25
100,9,-256,8,-52,111,-26
105,9,-256,10,-51,111,-26
110,10,-256,13,-48,108,-26
115,6,-257,9,-42,106,-27
120,7,-258,10,-35,103,-26
125,8,-259,6,-31,99,-26
130,6,-258,12,-24,96,-26
135,6,-259,6,-21,93,-26
140,8,-259,7,-17,90,-24
145,3,-261,9,-13,87,-23
150,6,-258,9,-11,82,-21
155,5,-258,8,-8,79,-21
160,7,-258,6,-9,75,-21
165,5,-256,5,-8,69,-20
170,8,-256,7,-8,65,-19
175,9,-257,7,-9,61,-18
180,8,-256,10,-7,59,-18
185,10,-257,8,-8,57,-16
190,7,-255,8,-10,55,-16
195,9,-257,9,-11,52,-15
200,10,-256,7,-13,49,-15
205,6,-255,6,-16,44,-14
210,10,-256,10,-21,40,-13
215,10,-255,10,-25,36,-13
220,10,-257,8,-27,32,-14
225,7,-254,9,-30,31,-12
230,8,-253,8,-30,29,-13
235,8,-257,8,-30,27,-13
240,6,-255,7,-29,26,-13
245,9,-256,10,-30,25,-13
250,7,-255,11,-32,25,-13
255,10,-256,10,-30,26,-12
260,13,-256,11,-32,26,-13
265,14,-255,10,-31,27,-12
270,13,-256,10,-31,29,-13
275,12,-259,13,-32,29,-11
280,11,-253,12,-30,29,-11
285,13,-256,8,-29,28,-12
290,14,-255,13,-26,29,-11
295,11,-257,9,-24,30,-11
300,18,-257,13,-22,29,-10
305,10,-255,9,-22,29,-9
310,12,-255,12,-22,31,-11
315,10,-255,10,-26,29,-11
320,13,-257,10,-30,30,-12
325,13,-255,9,-34,30,-13
330,11,-256,10,-39,32,-14
335,11,-254,10,-44,33,-13
340,14,-255,9,-48,34,-13
345,10,-256,12,-51,35,-13
350,11,-255,7,-52,35,-13
355,10,-257,9,-51,36,-13
360,8,-256,9,-53,35,-14
365,11,-257,10,-52,37,-14
370,7,-256,13,-47,38,-16
375,12,-258,7,-46,40,-16
380,12,-257,10,-40,40,-16
385,11,-260,11,-35,43,-17
390,12,-258,14,-30,44,-17
395,10,-256,12,-26,47,-17
400,10,-256,10,-22,47,-17
405,12,-255,8,-20,47,-17
410,10,-256,7,-19,47,-17
415,10,-255,15,-16,45,-17
420,11,-256,10,-18,43,-16
425,14,-256,14,-21,42,-15
430,11,-257,11,-24,40,-14
435,13,-258,8,-26,36,-12
440,10,-254,14,-31,33,-13
445,10,-254,8,-36,30,-13
450,8,-253,14,-41,28,-11
455,12,-256,9,-45,28,-12
460,8,-255,14,-50,25,-9
465,12,-255,13,-53,24,-8
470,10,-257,12,-55,25,-10
475,7,-258,10,-57,25,-11
480,7,-257,12,-59,25,-11
485,11,-257,15,-58,25,-11
490,6,-257,12,-57,27,-12
495,10,-257,14,-57,28,-10
500,10,-257,10,-52,28,-11
505,9,-258,11,-50,28,-12
510,-5,-258,17,-46,28,-10
515,8,-257,7,-44,29,-11
520,12,-256,9,-42,28,-9
525,10,-256,8,-42,27,-9
530,9,-256,6,-43,26,-9
535,11,-257,7,-46,25,-10
540,10,-256,11,-47,23,-9
545,10,-256,13,-49,21,-9
550,13,-258,14,-51,20,-6
555,11,-258,13,-51,17,-5
560,9,-250,7,-51,15,-4
565,10,-257,7,-51,13,-3
570,7,-257,10,-49,11,-2
575,12,-257,12,-47,9,0
580,11,-258,8,-46,6,1
585,12,-256,14,-45,5,3
590,11,-256,12,-43,4,3
595,9,-257,8,-44,1,5
600,10,-254,7,-41,2,5
605,8,-254,11,-38,1,5
610,10,-254,11,-37,2,6
615,14,-256,10,-34,2,6
620,11,-256,10,-35,2,5
625,14,-251,11,-36,4,3
630,12,-254,11,-38,5,2
635,11,-255,13,-41,9,2
640,12,-254,11,-43,11,1
645,11,-255,11,-44,14,1
650,12,-256,11,-45,15,-1
655,11,-256,13,-44,16,-2
660,12,-256,13,-45,16,-2
665,13,-259,13,-44,17,-2
670,9,-257,15,-43,15,-1
675,10,-256,13,-42,15,-2
680,10,-257,9,-41,16,-2
685,13,-257,12,-40,16,0
690,9,-255,9,-35,16,0
695,10,-256,9,-33,16,0
700,6,-253,11,-31,16,0
705,12,-257,11,-30,16,1
710,9,-256,15,-31,16,1
715,9,-257,13,-30,15,2
720,9,-255,13,-31,15,2
725,8,-255,12,-33,16,1
730,11,-257,9,-33,15,1
735,8,-256,10,-34,15,2
740,9,-258,15,-37,16,1
745,11,-255,12,-39,16,1
750,9,-256,9,-40,14,0
755,8,-255,11,-41,14,1
760,9,-257,9,-41,14,2
765,8,-255,10,-40,13,1
770,8,-257,11,-40,12,1
775,9,-256,10,-37,11,2
780,10,-258,9,-35,9,2
785,11,-256,13,-30,9,3
790,10,-257,8,-26,7,2
795,12,-257,12,-24,7,2
800,9,-256,11,-21,5,2
805,12,-256,10,-17,4,3
810,10,-257,11,-15,5,3
815,7,-256,12,-15,5,3
820,10,-258,12,-14,6,4
825,10,-256,8,-15,6,3
830,7,-255,13,-16,7,2
835,11,-257,11,-15,7,3
840,8,-256,13,-17,7,3
845,11,-257,15,-16,8,3
850,12,-254,13,-16,9,2
855,9,-254,13,-19,10,3
860,9,-251,9,-21,11,3
865,7,-256,14,-22,11,2
870,12,-257,16,-24,10,3
875,11,-254,14,-27,10,3
880,9,-256,16,-29,9,2
885,11,-256,12,-29,8,2
890,13,-257,13,-31,6,3
895,7,-257,13,-36,4,4
900,11,-259,13,-37,3,4
905,12,-257,10,-38,3,4
910,10,-256,10,-37,5,4
915,8,-256,12,-37,5,5
920,13,-256,14,-38,7,5
925,8,-255,12,-40,8,3
930,12,-258,12,-42,9,2
935,11,-257,7,-44,8,2
940,11,-256,15,-45,9,3
945,10,-256,9,-48,7,2
950,8,-255,8,-45,7,2
955,11,-256,12,-43,6,2
960,13,-257,13,-42,4,2
965,8,-255,13,-40,5,3
970,10,-255,10,-39,6,3
975,10,-256,12,-41,7,2
980,10,-256,13,-42,7,3
985,8,-256,14,-45,8,3
990,11,-255,14,-48,7,4
995,10,-257,12,-50,10,5
1000,6,-253,12,-50,8,4
1005,7,-254,13,-52,8,4
1010,10,-255,14,-52,7,6
1015,10,-256,13,-52,5,7
1020,11,-256,12,-50,5,8
1025,10,-256,11,-51,4,7
1030,14,-256,14,-52,4,6
1035,11,-255,12,-52,4,7
1040,9,-256,12,-54,5,6
1045,10,-256,12,-54,4,5
1050,13,-255,12,-54,3,3
1055,11,-259,14,-53,5,3
1060,11,-258,14,-52,3,3
1065,8,-257,12,-50,2,4
1070,9,-257,16,-48,3,4
1075,10,-251,16,-46,3,3
1080,8,-257,8,-45,3,3
1085,6,-253,14,-42,6,3
1090,9,-255,14,-43,7,2
1095,7,-256,15,-43,7,2
1100,12,-258,13,-43,9,4
1105,7,-247,1,-44,11,3
1110,10,-255,11,-47,10,3
1115,10,-254,15,-47,10,3
1120,11,-257,16,-48,10,4
1125,8,-256,12,-50,9,4
1130,7,-254,17,-48,8,4
1135,9,-258,13,-48,7,4
1140,10,-256,18,-50,7,6
1145,7,-257,16,-50,6,6
1150,10,-255,13,-50,4,6
1155,8,-255,12,-51,4,6
1160,7,-262,18,-50,3,7
1165,8,-256,12,-47,0,7
1170,10,-256,10,-45,1,7
1175,11,-255,11,-45,0,7
1180,10,-255,16,-42,-1,8
1185,9,-256,14,-43,-1,8
1190,12,-257,15,-42,-1,8
1195,12,-257,17,-41,0,9
1200,10,-254,15,-42,1,9
1205,8,-255,11,-42,2,9
1210,11,-257,11,-43,2,9
1215,11,-256,13,-45,3,9
1220,13,-257,11,-44,3,9
1225,11,-256,13,-45,3,9
1230,9,-256,14,-46,4,9
1235,9,-257,14,-46,4,7
1240,8,-255,16,-45,6,6
1245,6,-256,12,-43,7,6
1250,9,-255,9,-42,9,5
1255,9,-256,13,-41,10,4
1260,7,-254,12,-42,11,5
1265,10,-256,12,-42,11,4
1270,10,-256,12,-45,12,3
1275,9,-255,11,-47,12,4
1280,7,-255,15,-47,12,2
1285,9,-257,11,-51,10,4
1290,10,-258,15,-50,10,2
1295,8,-255,14,-51,8,4
1300,8,-255,15,-50,8,3
1305,16,-258,15,-50,10,2
1310,12,-256,15,-49,8,3
1315,8,-257,15,-51,6,3
1320,9,-257,12,-53,7,5
1325,10,-257,16,-54,8,4
1330,9,-257,11,-55,10,5
1335,12,-259,13,-55,9,4
1340,11,-256,9,-57,9,4
1345,9,-256,12,-55,10,4
1350,12,-256,8,-54,9,3
1355,12,-253,11,-52,9,2
1360,10,-256,5,-52,10,1
1365,11,-255,9,-53,11,2
1370,12,-255,11,-54,12,1
1375,10,-255,10,-55,14,1
1380,12,-256,11,-56,14,1
1385,12,-255,9,-56,15,1
1390,9,-256,15,-56,15,1
1395,6,-254,11,-56,15,1
1400,6,-256,15,-55,15,1
1405,6,-257,13,-54,15,1
1410,10,-256,10,-52,15,0
1415,9,-256,12,-51,16,0
1420,10,-256,15,-49,17,1
1425,7,-255,10,-48,17,1
1430,6,-255,9,-49,17,0
1435,9,-256,12,-51,16,0
1440,12,-258,12,-53,16,0
1445,9,-257,10,-54,14,1
1450,8,-255,13,-54,15,1
1455,9,-256,9,-53,15,-1
1460,10,-259,11,-53,15,1
1465,10,-257,13,-51,15,2
1470,9,-257,12,-52,15,1
1475,9,-256,12,-49,16,0
1480,8,-256,10,-48,17,-1
1485,7,-256,10,-48,16,0
1490,8,-254,10,-46,18,-3
1495,9,-255,11,-46,17,-2
1500,9,-256,11,-46,17,-2
1505,10,-258,11,-46,17,-3
1510,7,-255,11,-46,16,-4
1515,7,-255,13,-48,16,-4
1520,6,-255,11,-50,17,-3
1525,9,-256,14,-51,17,-4
1530,10,-255,15,-51,16,-3
1535,10,-255,12,-49,17,-3
1540,8,-256,15,-51,19,-2
1545,8,-255,12,-50,18,-2
1550,13,-257,12,-49,18,-1
1555,10,-256,8,-48,19,-3
1560,7,-256,12,-46,19,-3
1565,10,-255,10,-47,20,-4
1570,9,-257,10,-47,22,-4
1575,9,-258,11,-45,23,-4
1580,6,-255,9,-45,22,-6
1585,7,-257,15,-45,22,-4
1590,8,-258,8,-45,22,-6
1595,7,-256,12,-46,22,-7
1600,10,-258,7,-45,21,-7
1605,7,-256,10,-44,21,-6
1610,9,-254,13,-45,21,-5
1615,7,-257,8,-43,20,-4
1620,9,-255,10,-42,21,-4
1625,7,-256,11,-42,20,-4
1630,8,-255,13,-42,20,-4
1635,9,-259,10,-41,19,-2
1640,7,-255,9,-41,17,-1
1645,11,-257,8,-43,16,-2
1650,7,-252,11,-42,17,-2
1655,10,-255,11,-44,17,-2
1660,9,-256,12,-48,17,-2
1665,10,-256,12,-50,17,-2
1670,8,-255,11,-53,17,-2
1675,10,-256,13,-56,19,-3
1680,11,-256,13,-59,19,-3
1685,8,-256,9,-61,19,-4
1690,9,-255,12,-61,18,-4
1695,10,-257,11,-63,18,-5
1700,6,-257,15,-62,18,-2
1705,7,-256,8,-63,16,-3
1710,9,-257,12,-61,16,-4
1715,10,-258,11,-59,15,-5
1720,6,-254,8,-59,15,-5
1725,7,-257,10,-57,15,-4
1730,8,-255,10,-55,15,-5
1735,9,-256,11,-56,16,-5
1740,9,-255,9,-53,17,-3
1745,9,-257,11,-49,17,-4
1750,9,-257,11,-48,16,-5
1755,7,-256,12,-44,15,-6
1760,19,-252,2,-45,15,-6
1765,9,-256,13,-46,15,-5
1770,7,-256,10,-44,13,-5
1775,7,-257,10,-46,12,-5
1780,8,-256,13,-46,11,-4
1785,6,-255,12,-49,11,-3
1790,8,-255,13,-51,10,-5
1795,8,-257,9,-52,11,-4
1800,8,-256,16,-54,10,-3
1805,8,-256,12,-54,11,-3
1810,9,-256,7,-56,12,-2
1815,8,-248,8,-56,13,-2
1820,8,-253,12,-55,13,0
1825,9,-257,10,-54,12,-2
1830,6,-256,12,-54,12,-2
1835,13,-257,14,-54,11,-3
1840,8,-256,13,-56,10,-2
1845,8,-256,6,-58,10,-3
1850,9,-256,10,-58,10,-3
1855,7,-256,7,-58,9,-4
1860,6,-256,9,-57,9,-3
1865,9,-256,14,-56,8,-4
1870,8,-256,10,-55,6,-4
1875,7,-254,9,-52,6,-4
1880,9,-257,9,-47,6,-4
1885,8,-255,9,-44,7,-4
1890,13,-256,9,-41,7,-3
1895,8,-253,14,-40,8,-4
1900,11,-255,8,-40,8,-3
1905,6,-255,14,-41,9,-3
1910,11,-254,9,-44,9,-2
1915,9,-256,12,-48,9,-4
1920,9,-254,11,-52,11,-4
1925,10,-256,12,-56,10,-3
1930,9,-256,13,-60,11,-3
1935,8,-256,10,-62,10,-3
1940,8,-254,16,-63,10,-2
1945,8,-256,14,-63,11,-3
1950,8,-255,13,-61,10,-5
1955,10,-257,11,-60,11,-5
1960,10,-255,17,-59,11,-3
1965,10,-257,10,-57,12,-5
1970,10,-258,11,-55,13,-5
1975,9,-256,10,-53,15,-5
1980,10,-259,12,-52,15,-6
1985,8,-256,11,-51,16,-9
1990,8,-256,7,-48,16,-8
1995,7,-256,7,-46,18,-7
2000,3,-257,9,-44,18,-7
2005,11,-257,10,-45,18,-8
2010,7,-256,12,-43,18,-7
2015,11,-257,8,-42,18,-5
2020,9,-256,12,-41,18,-7
2025,11,-256,9,-41,14,-6
2030,9,-255,11,-41,13,-5
2035,7,-256,15,-42,12,-4
2040,8,-255,13,-43,11,-4
2045,8,-256,12,-41,11,-3
2050,13,-254,12,-41,11,-2
2055,8,-256,13,-41,11,-2
2060,7,-255,8,-45,10,-1
2065,9,-255,13,-48,10,-3
2070,8,-256,8,-49,10,-1
2075,9,-256,12,-51,10,-2
2080,9,-257,11,-53,10,-2
2085,10,-256,9,-51,10,-2
2090,10,-256,11,-50,9,-4
2095,9,-257,13,-49,8,-5
2100,9,-258,8,-50,10,-4
2105,7,-256,7,-50,12,-5
2110,7,-255,10,-51,14,-6
2115,11,-256,8,-54,15,-7
2120,7,-254,13,-52,17,-6
2125,9,-255,9,-54,18,-5
2130,7,-258,12,-54,18,-5
2135,7,-253,15,-51,18,-6
2140,7,-254,9,-48,19,-7
2145,10,-257,15,-46,18,-6
2150,8,-256,10,-43,17,-6
2155,7,-255,8,-41,16,-7
2160,9,-256,12,-38,17,-7
2165,9,-257,15,-37,18,-7
2170,8,-256,10,-37,17,-7
2175,8,-254,9,-35,18,-6
2180,11,-258,9,-35,18,-6
2185,11,-256,9,-36,18,-5
2190,7,-257,16,-36,18,-6
2195,9,-256,8,-38,18,-4
2200,8,-257,12,-36,17,-5
2205,7,-256,10,-36,19,-4
2210,7,-258,10,-34,20,-4
2215,10,-255,15,-35,19,-3
2220,9,-256,9,-35,18,-4
2225,9,-255,13,-38,16,-4
2230,6,-255,11,-40,17,-4
2235,7,-257,11,-39,15,-3
2240,9,-257,13,-39,14,-5
2245,8,-255,14,-39,15,-5
2250,9,-257,10,-39,16,-7
2255,7,-255,8,-42,15,-7
2260,9,-260,10,-44,17,-6
2265,6,-254,11,-43,18,-6
2270,8,-256,12,-44,18,-7
2275,9,-256,9,-46,20,-7
2280,9,-258,13,-47,21,-7
2285,9,-256,9,-48,20,-7
2290,10,-258,11,-52,21,-6
2295,7,-256,7,-51,21,-6
2300,9,-255,11,-50,23,-5
2305,6,-256,10,-49,22,-5
2310,11,-258,7,-47,22,-5
2315,8,-260,12,-43,23,-4
2320,8,-256,14,-39,21,-4
2325,10,-259,13,-36,20,-2
2330,6,-255,11,-35,20,-2
2335,5,-256,10,-36,19,-3
2340,4,-256,13,-38,18,-1
2345,6,-258,10,-39,18,-2
2350,9,-255,7,-40,17,-2
2355,7,-256,5,-42,15,0
2360,12,-250,0,-41,13,2
2365,8,-256,12,-41,12,3
2370,9,-257,13,-40,12,3
2375,7,-255,10,-42,11,2
2380,8,-257,12,-42,8,2
2385,8,-254,12,-41,8,2
2390,7,-257,9,-39,6,1
2395,9,-256,13,-39,6,2
2400,6,-253,11,-39,8,0
2405,5,-254,10,-42,9,-1
2410,8,-256,9,-43,10,-2
2415,8,-256,10,-46,10,0
2420,7,-257,13,-48,13,-1
2425,9,-255,16,-49,13,-1
2430,10,-258,12,-49,13,-4
2435,10,-256,10,-49,15,-5
2440,8,-258,8,-48,13,-5
2445,7,-256,10,-45,13,-5
2450,10,-259,14,-43,14,-6
2455,8,-254,6,-41,15,-6
2460,11,-257,10,-38,13,-6
2465,8,-257,9,-37,12,-6
2470,9,-256,14,-38,12,-6
2475,9,-253,11,-36,10,-7
2480,11,-257,7,-38,11,-6
2485,8,-255,8,-38,8,-5
2490,11,-257,12,-39,8,-5
2495,10,-255,14,-40,7,-5
2500,7,-256,11,-42,6,-5
2505,10,-255,13,-44,5,-5
2510,6,-257,14,-48,4,-2
2515,10,-256,11,-48,4,-3
2520,9,-258,17,-49,4,-2
2525,11,-253,11,-51,2,-3
2530,8,-254,12,-50,3,-1
2535,9,-256,8,-50,2,-1
2540,9,-257,14,-52,3,0
2545,10,-256,12,-50,4,-1
2550,12,-255,10,-49,6,-2
2555,6,-257,9,-47,8,-2
2560,9,-257,9,-46,9,-3
2565,10,-257,15,-44,10,-4
2570,12,-259,11,-43,13,-4
2575,9,-257,10,-42,15,-4
2580,7,-255,10,-43,17,-6
2585,10,-255,10,-42,16,-6
2590,8,-256,9,-42,17,-7
2595,11,-258,8,-42,19,-7
2600,8,-256,11,-44,19,-9
2605,9,-257,12,-44,19,-8
2610,6,-255,12,-43,21,-9
2615,8,-256,11,-42,21,-9
2620,8,-258,11,-43,22,-10
2625,5,-256,10,-43,22,-10
2630,9,-256,13,-44,21,-11
2635,7,-255,11,-47,21,-10
2640,7,-256,11,-48,20,-9
2645,10,-256,9,-48,20,-7
2650,7,-255,13,-49,23,-8
2655,10,-255,6,-51,23,-9
2660,6,-256,11,-52,22,-9
2665,10,-255,7,-53,22,-8
2670,6,-256,11,-57,23,-9
2675,9,-255,8,-60,23,-8
2680,8,-255,11,-61,23,-7
2685,9,-257,6,-63,24,-7
2690,7,-256,12,-64,23,-7
2695,9,-257,10,-64,24,-8
2700,11,-257,9,-65,23,-8
2705,9,-255,10,-65,24,-8
2710,7,-256,7,-65,24,-10
2715,11,-258,9,-62,24,-9
2720,10,-258,9,-62,25,-12
2725,8,-257,4,-61,27,-11
2730,9,-256,11,-61,27,-13
2735,9,-257,7,-60,29,-12
2740,6,-256,10,-58,30,-13
2745,8,-259,4,-59,31,-13
2750,11,-258,8,-59,31,-15
2755,8,-258,7,-62,31,-15
2760,10,-258,9,-64,31,-14
2765,10,-258,6,-67,31,-15
2770,8,-257,6,-69,32,-15
2775,7,-256,5,-74,32,-16
2780,8,-256,7,-76,32,-15
2785,10,-258,6,-80,32,-15
2790,6,-255,7,-84,33,-14
2795,4,-256,5,-85,34,-13
2800,9,-256,5,-83,34,-13
2805,7,-258,4,-82,34,-14
2810,8,-259,4,-81,32,-12
2815,5,-257,8,-80,31,-11
2820,6,-258,6,-76,31,-10
2825,9,-257,3,-73,30,-10
2830,7,-256,4,-69,29,-10
2835,9,-257,7,-65,27,-10
2840,7,-256,5,-63,25,-8
2845,5,-254,8,-60,24,-6
2850,12,-252,9,-61,22,-5
2855,6,-256,8,-62,21,-6
2860,10,-255,5,-65,20,-4
2865,9,-254,7,-70,20,-4
2870,8,-253,7,-77,20,-4
2875,8,-255,4,-86,20,-5
2880,9,-257,7,-94,20,-5
2885,9,-255,7,-105,19,-5
2890,10,-254,4,-113,18,-4
2895,6,-259,8,-117,17,-3
2900,6,-256,7,-123,15,-4
2905,8,-257,2,-124,15,-4
2910,10,-259,3,-126,15,-4
2915,9,-258,1,-128,14,-2
2920,8,-257,3,-130,14,-3
2925,9,-257,4,-127,15,-3
2930,9,-258,4,-126,16,-5
2935,7,-256,2,-126,19,-6
2940,10,-258,-1,-123,19,-8
2945,10,-256,4,-122,23,-9
2950,12,-255,3,-121,26,-11
2955,12,-256,-2,-122,28,-13
2960,5,-257,9,-124,30,-14
2965,8,-254,4,-127,31,-15
2970,13,-254,3,-130,33,-17
2975,12,-255,0,-135,34,-18
2980,6,-254,0,-142,35,-20
2985,8,-255,2,-149,36,-20
2990,12,-255,0,-156,38,-21
2995,8,-256,0,-163,40,-22
3000,8,-254,1,-169,45,-23
3005,9,-256,-3,-175,48,-22
3010,11,-256,-5,-181,50,-25
3015,8,-267,9,-188,53,-23
3020,10,-256,-5,-192,54,-24
3025,9,-257,-4,-197,56,-24
3030,8,-254,-1,-202,57,-23
3035,10,-256,-5,-207,58,-23
3040,8,-256,-6,-208,60,-23
3045,11,-257,-9,-213,60,-23
3050,9,-256,-10,-216,61,-22
3055,7,-256,-13,-219,63,-22
3060,9,-253,-9,-222,63,-23
3065,10,-253,-7,-225,63,-23
3070,13,-254,-12,-232,65,-22
3075,10,-254,-12,-239,66,-20
3080,11,-255,-13,-246,67,-19
3085,10,-253,-14,-258,69,-18
3090,6,-252,-15,-268,69,-16
3095,7,-250,-14,-283,68,-13
3100,8,-252,-13,-295,66,-11
3105,6,-249,-19,-309,64,-8
3110,5,-250,-18,-327,61,-5
3115,7,-249,-19,-346,57,-2
3120,6,-250,-23,-363,54,3
3125,4,-250,-24,-377,50,4
3130,3,-249,-21,-391,48,7
3135,3,-253,-24,-406,47,9
3140,3,-248,-25,-420,48,11
3145,3,-250,-25,-431,53,13
3150,5,-251,-22,-442,56,13
3155,6,-251,-26,-453,60,13
3160,6,-246,-25,-466,61,13
3165,1,-249,-29,-478,63,13
3170,6,-249,-28,-488,66,12
3175,4,-246,-31,-501,69,10
3180,2,-242,-28,-511,72,10
3185,4,-243,-29,-522,71,10
3190,5,-245,-26,-532,71,9
3195,5,-242,-31,-548,71,8
3200,6,-242,-34,-565,71,8
3205,5,-242,-34,-583,67,9
3210,5,-241,-32,-605,64,11
3215,9,-239,-34,-630,60,12
3220,6,-239,-32,-654,55,14
3225,2,-238,-33,-678,51,16
3230,3,-238,-39,-701,45,19
3235,6,-236,-36,-723,40,23
3240,4,-235,-40,-744,34,24
3245,6,-238,-48,-767,27,27
3250,6,-236,-49,-792,21,31
3255,6,-237,-52,-819,16,32
3260,2,-235,-51,-849,12,34
3265,4,-235,-54,-877,10,31
3270,8,-236,-58,-903,11,30
3275,4,-237,-56,-926,16,24
3280,6,-239,-57,-943,22,17
3285,13,-238,-55,-957,32,8
3290,11,-240,-59,-961,43,0
3295,13,-241,-54,-963,54,-12
3300,12,-241,-53,-962,68,-24
3305,17,-245,-54,-956,82,-36
3310,19,-243,-57,-946,102,-51
3315,24,-241,-53,-938,124,-65
3320,25,-247,-58,-926,148,-80
3325,27,-246,-59,-918,176,-95
3330,31,-246,-58,-908,204,-111
3335,30,-247,-59,-902,233,-124
3340,32,-245,-56,-898,259,-138
3345,37,-250,-60,-896,284,-148
3350,35,-249,-61,-893,307,-155
3355,35,-248,-61,-891,328,-160
3360,37,-250,-60,-884,345,-166
3365,34,-252,-59,-876,361,-169
3370,34,-254,-61,-865,374,-170
3375,33,-256,-58,-856,384,-170
3380,37,-254,-64,-846,392,-166
3385,33,-258,-62,-834,397,-158
3390,30,-257,-63,-823,397,-150
3395,28,-254,-64,-814,393,-140
3400,22,-257,-64,-805,387,-127
3405,21,-256,-64,-797,377,-114
3410,16,-259,-65,-790,365,-99
3415,11,-259,-67,-783,351,-86
3420,2,-259,-64,-777,333,-71
3425,0,-257,-67,-769,310,-57
3430,-2,-256,-70,-763,284,-43
3435,-7,-257,-66,-755,256,-28
3440,-11,-256,-67,-747,225,-14
3445,-16,-252,-68,-731,193,1
3450,-16,-249,-71,-715,162,14
3455,-17,-246,-66,-695,134,25
3460,-20,-244,-69,-673,109,35
3465,-18,-239,-70,-653,90,45
3470,-19,-231,-70,-632,74,55
3475,-20,-229,-69,-615,65,62
3480,-19,-225,-72,-607,59,68
3485,-15,-220,-74,-606,56,74
3490,-11,-217,-80,-616,56,77
3495,-16,-215,-77,-637,58,81
3500,-9,-214,-81,-671,59,87
3505,-8,-213,-85,-715,60,94
3510,-8,-214,-85,-767,58,103
3515,-6,-214,-85,-823,52,112
3520,-10,-216,-81,-879,42,121
3525,-8,-219,-84,-933,29,134
3530,-1,-223,-84,-978,10,147
3535,-6,-223,-84,-1011,-12,159
3540,-3,-228,-82,-1031,-38,169
3545,-1,-232,-87,-1035,-62,180
3550,0,-235,-81,-1022,-82,189
3555,2,-237,-84,-996,-101,196
3560,0,-226,-75,-956,-115,199
3565,0,-237,-95,-908,-128,201
3570,0,-239,-91,-861,-135,199
3575,1,-241,-96,-820,-141,195
3580,2,-244,-99,-788,-144,188
3585,3,-246,-108,-768,-144,180
3590,9,-250,-108,-758,-144,169
3595,7,-248,-110,-760,-141,159
3600,7,-250,-109,-767,-137,149
3605,9,-254,-108,-776,-132,142
3610,24,-242,-120,-787,-127,132
3615,12,-255,-109,-793,-121,123
3620,8,-252,-101,-793,-117,116
3625,11,-253,-104,-781,-116,112
3630,14,-254,-93,-752,-115,106
3635,13,-251,-95,-708,-112,99
3640,10,-252,-99,-649,-108,95
3645,14,-247,-97,-580,-102,89
3650,13,-241,-96,-501,-95,88
3655,7,-231,-100,-419,-87,88
3660,8,-232,-101,-341,-79,91
3665,8,-229,-108,-273,-72,94
3670,6,-224,-109,-216,-69,100
3675,1,-218,-115,-173,-68,105
3680,1,-220,-115,-153,-70,111
3685,1,-216,-121,-150,-75,117
3690,0,-214,-125,-165,-84,125
3695,0,-215,-126,-196,-92,131
3700,0,-217,-125,-239,-101,132
3705,0,-221,-126,-287,-111,129
3710,1,-225,-126,-335,-119,127
3715,1,-228,-122,-378,-123,124
3720,2,-238,-124,-414,-120,116
3725,4,-246,-118,-440,-113,104
3730,4,-255,-121,-442,-102,89
3735,4,-259,-114,-429,-86,73
3740,2,-269,-113,-402,-74,52
3745,4,-277,-116,-350,-64,30
3750,1,-283,-116,-278,-57,5
3755,3,-290,-114,-184,-53,-17
3760,5,-291,-118,-76,-55,-38
3765,16,-277,-127,42,-58,-56
3770,6,-303,-114,162,-66,-74
3775,9,-303,-112,278,-71,-88
3780,7,-305,-119,386,-76,-98
3785,6,-304,-121,484,-79,-105
3790,6,-304,-120,578,-83,-110
3795,6,-297,-117,667,-85,-110
3800,2,-290,-122,745,-88,-107
3805,5,-283,-125,810,-93,-100
3810,4,-276,-124,856,-98,-96
3815,1,-267,-126,876,-105,-89
3820,1,-261,-126,866,-116,-81
3825,1,-257,-127,837,-127,-76
3830,0,-255,-126,793,-138,-70
3835,0,-252,-129,737,-143,-66
3840,-2,-250,-124,680,-138,-65
3845,0,-248,-123,625,-122,-65
3850,0,-254,-121,576,-95,-69
3855,0,-257,-121,537,-58,-72
3860,0,-259,-118,507,-16,-76
3865,-2,-264,-117,493,32,-81
3870,-2,-269,-113,488,78,-88
3875,-3,-270,-111,489,115,-97
3880,-1,-275,-106,499,140,-105
3885,-2,-277,-97,514,155,-112
3890,-4,-283,-99,533,161,-117
3895,-5,-283,-98,554,158,-121
3900,-2,-290,-94,576,145,-122
3905,-3,-290,-98,598,128,-123
3910,-2,-293,-96,615,115,-122
3915,0,-294,-98,630,106,-118
3920,0,-294,-98,642,101,-115
3925,0,-294,-100,646,100,-109
3930,2,-293,-104,648,104,-101
3935,5,-293,-99,649,111,-93
3940,2,-296,-99,652,121,-86
3945,6,-299,-100,660,134,-82
3950,5,-299,-101,674,147,-80
3955,9,-296,-100,691,159,-78
3960,11,-301,-103,708,167,-77
3965,10,-298,-98,729,172,-75
3970,3,-296,-99,750,176,-73
3975,6,-296,-99,771,180,-68
3980,8,-295,-96,788,182,-62
3985,9,-294,-96,807,185,-55
3990,7,-292,-94,827,185,-49
3995,4,-292,-91,848,184,-41
4000,7,-292,-89,872,182,-38
4005,8,-294,-84,895,178,-35
4010,5,-292,-82,925,172,-32
4015,1,-292,-74,957,167,-31
4020,4,-297,-72,993,162,-29
4025,4,-298,-65,1034,158,-28
4030,4,-302,-60,1083,154,-25
4035,3,-306,-54,1136,153,-22
4040,4,-308,-57,1189,152,-18
4045,1,-310,-53,1244,152,-10
4050,6,-317,-51,1297,154,-4
4055,6,-319,-46,1342,160,0
4060,10,-325,-47,1395,164,3
4065,11,-330,-46,1437,173,4
4070,11,-334,-39,1477,181,4
4075,13,-335,-38,1516,192,-1
4080,16,-336,-36,1554,202,-13
4085,15,-338,-33,1589,217,-30
4090,20,-337,-30,1620,232,-47
4095,22,-331,-19,1653,247,-64
4100,24,-332,-18,1687,267,-82
4105,26,-332,-15,1723,292,-103
4110,23,-326,-11,1757,315,-120
4115,19,-324,-12,1781,335,-132
4120,23,-324,-12,1792,345,-135
4125,15,-320,-17,1780,344,-148
4130,14,-308,-13,1748,333,-155
4135,15,-298,-15,1696,310,-156
4140,9,-283,-18,1622,282,-155
4145,11,-268,-26,1517,253,-150
4150,10,-257,-32,1388,227,-139
4155,7,-250,-33,1231,203,-126
4160,7,-251,-22,1068,178,-111
4165,7,-256,-27,906,151,-90
4170,7,-259,-14,759,127,-68
4175,4,-260,-4,639,103,-46
4180,5,-264,0,546,84,-26
4185,4,-269,8,483,67,-10
4190,4,-272,15,446,53,4
4195,0,-271,25,433,39,13
4200,1,-270,32,439,26,21
4205,6,-275,45,456,14,20
4210,2,-263,41,483,3,19
4215,0,-256,39,517,-2,16
4220,2,-252,44,554,-1,12
4225,1,-248,45,593,7,5
4230,5,-241,40,636,13,-4
4235,7,-241,41,677,21,-15
4240,6,-234,40,716,27,-28
4245,9,-232,35,751,33,-42
4250,12,-225,34,783,34,-53
4255,15,-223,23,810,29,-58
4260,15,-220,31,829,18,-59
4265,15,-219,27,837,9,-57
4270,17,-213,36,838,3,-50
4275,13,-213,42,833,-3,-42
4280,16,-212,44,828,-12,-31
4285,12,-215,48,821,-25,-20
4290,9,-218,51,816,-44,-7
4295,7,-219,51,814,-66,4
4300,9,-223,49,813,-88,16
4305,5,-227,53,812,-108,27
4310,5,-229,54,811,-124,36
4315,4,-235,55,813,-136,45
4320,4,-239,49,810,-146,53
4325,4,-243,51,803,-151,62
4330,3,-246,51,793,-152,70
4335,3,-254,50,778,-149,77
4340,3,-256,54,754,-145,83
4345,4,-255,56,725,-141,87
4350,3,-256,51,688,-138,91
4355,2,-259,52,638,-139,94
4360,0,-261,55,583,-147,92
4365,0,-266,52,526,-161,91
4370,-5,-269,47,470,-178,88
4375,-10,-269,49,417,-201,81
4380,-11,-272,45,370,-224,69
4385,-15,-268,51,329,-246,58
4390,-17,-271,52,301,-266,48
4395,-13,-270,55,289,-280,37
4400,-12,-267,62,296,-290,28
4405,-7,-263,62,322,-294,18
4410,-3,-257,63,363,-293,10
4415,0,-255,67,415,-290,6
4420,1,-249,64,468,-284,3
4425,4,-242,67,511,-274,3
4430,10,-233,68,536,-261,4
4435,17,-227,66,545,-246,10
4440,21,-218,66,538,-234,11
4445,20,-214,65,513,-220,11
4450,26,-210,64,470,-208,11
4455,23,-202,64,413,-195,9
4460,27,-200,63,341,-189,7
4465,29,-197,61,266,-185,2
4470,31,-201,64,194,-185,-5
4475,29,-200,64,131,-180,-10
4480,28,-202,66,83,-177,-15
4485,28,-204,71,51,-175,-20
4490,27,-206,69,36,-172,-24
4495,26,-209,68,35,-164,-27
4500,24,-211,71,49,-153,-31
4505,24,-214,67,76,-138,-30
4510,17,-219,71,106,-121,-31
4515,15,-220,68,140,-101,-33
4520,13,-226,69,173,-80,-38
4525,12,-228,69,198,-57,-41
4530,8,-226,63,214,-35,-46
4535,8,-232,66,223,-15,-51
4540,7,-231,66,227,5,-56
4545,5,-233,65,226,21,-62
4550,6,-232,67,219,36,-64
4555,5,-230,67,213,52,-65
4560,5,-230,66,200,63,-64
4565,9,-229,68,191,69,-67
4570,11,-231,67,181,72,-67
4575,14,-234,70,171,72,-66
4580,14,-232,71,160,68,-64
4585,12,-227,66,146,59,-63
4590,17,-230,68,131,49,-63
4595,17,-228,67,111,39,-62
4600,21,-226,65,88,28,-64
4605,20,-225,67,63,17,-63
4610,17,-225,67,38,7,-63
4615,17,-225,66,15,-1,-65
4620,19,-226,65,-2,-5,-64
4625,19,-226,65,-16,-6,-66
4630,20,-227,66,-27,-4,-65
4635,17,-229,68,-36,-1,-68
4640,16,-226,68,-44,5,-71
4645,18,-228,76,-51,9,-75
4650,18,-231,73,-60,8,-75
4655,22,-233,76,-69,4,-78
4660,18,-230,72,-74,-1,-78
4665,21,-234,74,-75,-8,-76
4670,20,-229,74,-71,-15,-76
4675,21,-231,76,-64,-18,-75
4680,17,-229,74,-57,-21,-72
4685,22,-229,70,-46,-20,-68
4690,20,-231,76,-39,-17,-64
4695,21,-228,73,-32,-14,-61
4700,21,-227,73,-19,-11,-58
4705,19,-229,69,-10,-9,-56
4710,23,-230,71,0,-9,-52
4715,19,-228,74,14,-12,-51
4720,20,-229,74,26,-17,-48
4725,21,-230,73,40,-23,-42
4730,18,-229,73,48,-29,-37
4735,16,-231,74,58,-32,-33
4740,16,-232,73,67,-36,-30
4745,14,-230,76,74,-36,-27
4750,19,-231,73,75,-34,-27
4755,17,-231,72,75,-28,-26
4760,19,-233,74,73,-19,-26
4765,17,-232,75,71,-8,-27
4770,18,-233,73,72,6,-25
4775,19,-233,72,70,21,-25
4780,17,-229,72,69,34,-26
4785,18,-234,75,69,44,-24
4790,19,-232,75,69,54,-23
4795,16,-232,76,68,60,-21
4800,13,-234,89,66,61,-21
4805,16,-231,74,63,60,-19
4810,19,-230,75,59,53,-16
4815,18,-228,74,51,46,-12
4820,21,-231,75,40,38,-10
4825,19,-227,72,22,28,-7
4830,19,-228,75,3,20,-4
4835,20,-229,72,-17,16,-1
4840,18,-229,75,-33,15,-1
4845,21,-233,71,-47,16,0
4850,19,-234,72,-55,20,-1
4855,21,-240,82,-61,24,-3
4860,21,-233,70,-69,32,-4
4865,21,-234,68,-77,40,-6
4870,20,-234,69,-87,52,-9
4875,20,-232,67,-101,63,-12
4880,19,-235,70,-113,73,-15
4885,21,-236,67,-124,81,-16
4890,24,-236,67,-131,91,-18
4895,20,-236,70,-135,98,-19
4900,20,-237,67,-141,106,-22
4905,20,-235,67,-144,112,-24
4910,21,-236,64,-148,114,-19
4915,18,-234,66,-160,116,-15
4920,17,-234,62,-174,117,-11
4925,18,-233,61,-193,115,-8
4930,17,-235,64,-212,112,-4
4935,14,-234,62,-229,108,-1
4940,13,-232,64,-242,104,-2
4945,12,-241,64,-248,104,0
4950,15,-237,64,-250,103,3
4955,14,-238,61,-246,105,4
4960,12,-239,62,-243,111,1
4965,10,-238,55,-240,117,3
4970,8,-239,59,-246,120,6
4975,8,-238,59,-253,122,6
4980,11,-240,58,-263,124,1
4985,9,-239,55,-271,118,5
4990,8,-240,54,-281,114,6
4995,14,-242,55,-288,109,4
5000,10,-241,57,-294,104,4
5005,11,-242,53,-297,97,5
5010,12,-242,52,-299,92,6
5015,12,-241,54,-304,87,4
5020,14,-242,55,-306,81,7
5025,15,-244,49,-306,75,12
5030,17,-246,49,-304,74,15
5035,14,-249,53,-302,73,16
5040,16,-246,51,-292,73,16
5045,17,-246,49,-280,72,18
5050,13,-245,54,-265,73,18
5055,13,-246,53,-246,74,17
5060,15,-247,56,-227,73,16
5065,13,-242,58,-211,73,12
5070,14,-243,57,-194,72,12
5075,14,-242,62,-181,67,13
5080,13,-241,61,-173,64,15
5085,12,-242,60,-167,60,15
5090,9,-242,58,-165,57,14
5095,15,-241,61,-165,51,15
5100,12,-240,63,-164,47,15
5105,13,-239,63,-165,44,15
5110,10,-240,56,-165,41,15
5115,12,-242,64,-165,40,13
5120,15,-242,60,-162,38,15
5125,15,-244,60,-158,38,14
5130,14,-245,61,-150,40,13
5135,13,-242,58,-141,44,13
5140,15,-245,60,-132,45,11
5145,16,-246,58,-123,48,10
5150,18,-244,55,-115,49,7
5155,20,-245,54,-107,49,9
5160,14,-243,58,-98,48,11
5165,18,-245,61,-95,47,12
5170,15,-242,56,-86,44,13
5175,17,-242,56,-85,40,16
5180,17,-244,54,-83,35,16
5185,15,-243,55,-83,30,17
5190,15,-246,54,-83,25,17
5195,13,-245,54,-82,19,18
5200,14,-242,56,-86,14,20
5205,12,-243,50,-91,12,20
5210,11,-245,53,-99,11,21
5215,13,-246,50,-105,11,22
5220,11,-247,51,-113,11,21
5225,11,-245,52,-119,13,21
5230,12,-247,52,-121,14,19
5235,13,-246,52,-119,17,19
5240,14,-246,54,-114,19,17
5245,11,-246,52,-108,22,16
5250,12,-245,53,-101,23,17
5255,14,-244,57,-93,26,17
5260,12,-243,54,-89,29,17
5265,13,-245,52,-86,31,17
5270,14,-243,53,-87,32,17
5275,17,-245,55,-86,32,18
5280,15,-245,54,-88,30,17
5285,13,-240,53,-88,27,18
5290,12,-242,53,-89,21,17
5295,13,-242,53,-88,17,17
5300,14,-242,49,-89,10,17
5305,16,-246,55,-89,7,16
5310,13,-243,55,-88,3,16
5315,12,-243,55,-87,0,16
5320,13,-243,54,-87,-2,15
5325,13,-245,54,-87,-2,15
5330,8,-244,55,-87,-2,15
5335,11,-243,54,-89,-1,15
5340,12,-244,54,-92,3,15
5345,12,-243,56,-98,7,15
5350,9,-245,48,-104,11,15
5355,10,-243,57,-108,17,12
5360,13,-248,52,-113,22,10
5365,7,-244,57,-113,26,8
5370,7,-248,53,-115,30,5
5375,10,-246,54,-112,33,2
5380,11,-246,49,-108,35,0
5385,9,-245,49,-104,36,-2
5390,12,-245,53,-99,39,-4
5395,11,-245,52,-95,40,-5
5400,-1,-237,55,-92,38,-6
5405,9,-243,51,-91,39,-4
5410,10,-241,48,-91,37,-5
5415,12,-248,52,-91,35,-4
5420,12,-247,48,-93,34,-4
5425,10,-248,50,-93,33,-4
5430,11,-244,53,-89,32,-3
5435,12,-244,51,-87,31,-2
5440,11,-246,54,-83,28,-2
5445,13,-244,51,-79,27,-2
5450,10,-246,50,-75,25,-1
5455,8,-246,48,-73,24,-2
5460,12,-246,51,-73,21,-2
5465,11,-245,47,-72,21,-4
5470,11,-243,52,-77,21,-6
5475,12,-244,47,-77,21,-5
5480,13,-241,47,-79,22,-2
5485,9,-246,49,-80,23,-3
5490,12,-245,48,-79,24,-3
5495,13,-245,52,-75,23,-5
5500,12,-247,47,-72,22,-4
5505,11,-245,51,-67,22,-5
5510,15,-244,53,-62,21,-5
5515,12,-242,52,-58,23,-4
5520,11,-244,51,-53,21,-4
5525,12,-247,50,-51,22,-5
5530,14,-247,46,-50,23,-6
5535,12,-244,49,-47,24,-7
5540,13,-246,48,-45,24,-7
5545,13,-247,53,-44,25,-7
5550,13,-245,49,-44,26,-8
5555,15,-243,51,-45,27,-9
5560,14,-248,48,-46,26,-10
5565,13,-245,51,-51,24,-13
5570,13,-247,47,-52,23,-10
5575,10,-246,45,-58,21,-7
5580,13,-248,44,-64,18,-6
5585,10,-244,48,-66,15,-5
5590,10,-245,52,-67,13,-3
5595,11,-246,50,-65,12,-3
5600,11,-243,49,-61,11,-4
5605,12,-245,53,-56,10,-3
5610,12,-247,49,-50,12,-4
5615,14,-248,50,-49,12,-4
5620,12,-246,48,-47,12,-4
5625,10,-243,45,-44,13,-5
5630,14,-246,46,-44,14,-6
5635,11,-244,47,-44,14,-8
5640,13,-247,49,-46,13,-9
5645,12,-245,49,-47,13,-10
5650,11,-242,47,-48,11,-9
5655,12,-245,50,-48,11,-10
5660,9,-242,49,-46,9,-9
5665,12,-246,51,-43,9,-9
5670,10,-246,45,-41,10,-8
5675,11,-246,52,-38,9,-10
5680,10,-244,50,-32,10,-8
5685,11,-243,49,-26,11,-8
5690,13,-244,48,-21,12,-8
5695,10,-246,47,-17,12,-7
5700,12,-247,52,-14,13,-5
5705,14,-247,49,-12,12,-4
5710,12,-246,51,-11,10,-5
5715,13,-244,53,-13,9,-3
5720,13,-247,49,-15,10,-3
5725,10,-246,53,-17,10,-3
5730,13,-245,51,-18,9,-3
5735,15,-247,48,-21,9,-4
5740,10,-247,50,-21,9,-5
5745,13,-245,52,-20,9,-4
5750,12,-245,50,-18,9,-5
5755,12,-247,50,-16,9,-4
5760,14,-245,51,-13,10,-6
5765,12,-247,53,-9,12,-6
5770,9,-243,54,-9,12,-7
5775,12,-245,53,-6,12,-7
5780,11,-244,53,-6,12,-8
5785,17,-249,51,-6,13,-9
5790,13,-246,52,-6,13,-8
5795,13,-244,50,-5,13,-8
5800,10,-244,52,-6,13,-6
5805,13,-243,48,-8,13,-6
5810,14,-245,49,-8,13,-5
5815,12,-244,54,-11,15,-5
5820,11,-242,51,-10,16,-5
5825,9,-240,51,-11,16,-5
5830,13,-245,49,-13,18,-6
5835,12,-244,50,-12,18,-5
5840,12,-243,47,-15,17,-6
5845,11,-246,49,-15,17,-7
5850,12,-244,49,-15,18,-7
5855,16,-246,55,-15,17,-7
5860,11,-246,51,-15,15,-7
5865,12,-246,52,-14,16,-8
5870,12,-245,55,-16,15,-8
5875,16,-246,53,-16,16,-7
5880,11,-244,50,-15,16,-6
5885,11,-244,54,-19,16,-6
5890,12,-243,50,-18,17,-7
5895,11,-245,50,-18,19,-7
5900,16,-247,53,-19,20,-6
5905,13,-246,50,-17,21,-6
5910,13,-246,56,-15,19,-6
5915,15,-246,55,-13,19,-7
5920,11,-244,51,-11,19,-8
5925,11,-244,52,-11,19,-7
5930,12,-242,52,-10,18,-7
5935,13,-242,52,-10,17,-7
5940,13,-242,54,-11,15,-7
5945,14,-241,50,-11,18,-7
5950,11,-243,54,-9,17,-6
5955,14,-243,52,-12,16,-7
5960,11,-244,53,-11,16,-8
5965,11,-244,54,-11,16,-7
5970,12,-244,56,-11,16,-7
5975,8,-242,52,-11,17,-7
5980,13,-243,53,-10,17,-4
5985,11,-244,56,-8,17,-5
5990,10,-247,57,-7,17,-5
5995,12,-242,56,-3,16,-4
6000,17,-250,59,-3,14,-3
6005,14,-241,54,-1,12,-3
6010,14,-242,53,-3,11,-4
6015,14,-243,53,-5,10,-3
6020,14,-240,56,-9,10,-4
6025,14,-244,57,-14,10,-4
6030,11,-242,54,-19,11,-4
6035,9,-240,55,-22,12,-5
6040,12,-242,53,-24,11,-3
6045,11,-242,56,-23,12,-4
6050,12,-243,53,-22,12,-3
6055,11,-238,49,-20,9,-3
6060,12,-242,54,-18,10,-2
6065,13,-243,56,-16,7,-2
6070,12,-243,57,-14,7,-4
6075,9,-241,55,-14,7,-5
6080,13,-242,57,-13,8,-5
6085,10,-246,52,-13,9,-6
6090,12,-241,54,-12,9,-5
6095,9,-243,56,-13,10,-4
6100,9,-244,57,-13,12,-5
6105,15,-243,56,-14,11,-4
6110,13,-241,56,-16,10,-2
6115,11,-244,58,-18,9,-3
6120,11,-244,53,-21,9,-2
6125,12,-240,55,-22,8,-3
6130,12,-240,54,-25,6,-3
6135,15,-246,55,-27,7,-2
6140,10,-241,57,-29,7,-2
6145,13,-241,54,-31,8,-2
6150,13,-245,57,-34,9,-3
6155,12,-245,59,-35,11,-3
6160,15,-243,56,-37,11,-4
6165,13,-243,55,-37,13,-6
6170,13,-243,55,-41,11,-6
6175,10,-245,55,-42,12,-6
6180,12,-243,55,-43,11,-6
6185,14,-244,49,-46,13,-6
6190,9,-242,54,-50,12,-4
6195,12,-242,56,-50,12,-6
6200,11,-241,56,-53,13,-6
6205,12,-243,52,-56,14,-5
6210,10,-245,51,-57,15,-5
6215,11,-241,54,-57,16,-5
6220,10,-244,55,-54,19,-5
6225,14,-243,55,-52,19,-5
6230,11,-239,53,-49,20,-5
6235,12,-243,56,-46,19,-7
6240,13,-242,58,-45,18,-7
6245,12,-243,56,-48,16,-9
6250,11,-241,53,-50,14,-9
6255,15,-243,57,-53,11,-8
6260,9,-239,57,-55,9,-8
6265,10,-238,55,-59,8,-9
6270,12,-242,56,-64,7,-9
6275,10,-241,53,-67,8,-8
6280,12,-241,50,-70,10,-7
6285,11,-239,55,-72,13,-9
6290,13,-242,55,-72,15,-9
6295,9,-239,55,-71,20,-9
6300,9,-242,56,-67,23,-9
6305,13,-241,53,-62,26,-10
6310,13,-243,57,-56,27,-10
6315,12,-240,54,-52,27,-8
6320,10,-241,57,-49,27,-6
6325,11,-239,57,-45,26,-3
6330,13,-244,55,-43,23,-2
6335,12,-243,55,-43,19,-1
6340,14,-242,56,-41,15,1
6345,12,-240,57,-41,11,4
6350,13,-241,57,-41,7,6
6355,13,-240,57,-43,2,6
6360,14,-238,57,-45,-1,6
6365,13,-239,55,-47,-4,7
6370,14,-240,59,-48,-6,9
6375,13,-241,55,-48,-7,10
6380,15,-241,58,-50,-6,10
6385,14,-243,58,-50,-7,10
6390,10,-241,58,-52,-6,10
6395,13,-241,56,-51,-6,10
6400,12,-240,58,-53,-6,11
6405,12,-244,57,-55,-5,10
6410,11,-241,58,-61,-5,10
6415,11,-240,55,-67,-4,9
6420,13,-241,57,-74,-1,10
6425,13,-240,54,-83,2,9
6430,12,-244,55,-89,3,7
6435,13,-242,52,-96,5,7
6440,13,-243,54,-100,7,5
6445,9,-241,55,-103,11,6
6450,13,-242,52,-107,14,5
6455,13,-247,49,-106,16,4
6460,11,-239,53,-106,20,3
6465,11,-241,54,-102,23,3
6470,11,-242,53,-99,25,2
6475,12,-244,54,-96,26,2
6480,10,-240,56,-94,24,1
6485,13,-244,58,-93,25,1
6490,11,-245,56,-89,22,1
6495,13,-242,56,-89,21,1
6500,12,-240,54,-88,19,1
6505,13,-243,57,-88,16,1
6510,12,-242,56,-93,16,0
6515,11,-240,53,-95,15,0
6520,14,-242,52,-100,17,-2
6525,13,-248,57,-107,19,-2
6530,12,-242,55,-113,22,-3
6535,11,-243,51,-118,28,-5
6540,12,-239,53,-121,32,-6
6545,10,-243,56,-125,35,-8
6550,13,-244,54,-130,38,-9
6555,14,-243,54,-132,41,-9
6560,11,-245,56,-132,43,-12
6565,10,-245,54,-130,44,-13
6570,13,-243,52,-131,44,-13
6575,13,-242,55,-132,46,-14
6580,10,-240,57,-132,45,-14
6585,9,-243,47,-130,44,-16
6590,12,-242,54,-131,45,-15
6595,12,-240,49,-133,46,-15
6600,1,-249,59,-138,45,-15
6605,14,-242,55,-141,45,-15
6610,11,-238,47,-148,45,-15
6615,13,-239,50,-154,45,-16
6620,11,-238,53,-163,47,-16
6625,11,-237,50,-170,47,-17
6630,11,-241,53,-175,48,-16
6635,10,-241,49,-181,48,-15
6640,12,-239,55,-186,49,-14
6645,16,-239,52,-191,51,-14
6650,21,-238,51,-196,52,-13
6655,12,-238,53,-198,52,-15
6660,14,-240,54,-203,51,-13
6665,12,-237,53,-205,50,-13
6670,12,-241,53,-208,47,-13
6675,12,-238,48,-213,45,-13
6680,12,-241,53,-217,44,-13
6685,12,-240,54,-220,41,-12
6690,11,-239,55,-223,39,-10
6695,13,-241,52,-228,36,-9
6700,6,-238,57,-234,35,-9
6705,12,-238,54,-238,35,-7
6710,14,-240,53,-244,35,-7
6715,12,-239,52,-249,34,-5
6720,11,-239,50,-252,35,-5
6725,12,-239,53,-255,35,-5
6730,13,-239,52,-258,37,-4
6735,10,-241,52,-261,37,-4
6740,11,-237,44,-266,39,-3
6745,14,-242,52,-268,41,-2
6750,10,-238,47,-273,39,0
6755,12,-244,48,-278,40,0
6760,12,-241,48,-280,39,1
6765,12,-238,46,-285,37,0
6770,12,-241,47,-292,35,-1
6775,10,-241,48,-298,31,1
6780,14,-242,43,-307,31,0
6785,9,-239,40,-314,28,-1
6790,14,-239,45,-322,28,-1
6795,10,-241,41,-328,28,-1
6800,10,-242,45,-334,28,0
6805,11,-241,43,-341,27,-1
6810,9,-245,47,-346,28,-1
6815,13,-242,46,-355,29,0
6820,8,-242,46,-359,27,-1
6825,11,-244,47,-362,27,0
6830,11,-243,45,-364,27,0
6835,13,-244,45,-367,29,1
6840,12,-243,45,-370,28,3
6845,13,-246,42,-372,28,4
6850,12,-242,44,-373,28,5
6855,12,-243,44,-374,29,6
6860,10,-243,40,-378,29,7
6865,11,-244,39,-381,30,7
6870,9,-244,42,-385,30,9
6875,11,-241,40,-387,29,11
6880,14,-243,35,-390,28,12
6885,11,-242,36,-394,28,13
6890,8,-245,37,-397,27,13
6895,9,-244,38,-402,29,14
6900,10,-243,37,-403,28,15
6905,9,-244,38,-404,29,15
6910,9,-243,37,-402,29,16
6915,10,-241,39,-400,30,15
6920,11,-247,39,-401,32,16
6925,11,-242,39,-403,31,18
6930,9,-243,36,-403,34,17
6935,11,-247,34,-407,36,21
6940,9,-244,38,-411,39,21
6945,11,-244,33,-416,41,21
6950,11,-246,30,-424,44,23
6955,12,-244,37,-435,45,23
6960,11,-246,34,-446,46,25
6965,9,-246,33,-457,45,25
6970,11,-248,32,-466,43,27
6975,7,-247,32,-475,43,29
6980,9,-248,30,-486,40,27
6985,8,-248,32,-500,39,29
6990,11,-249,28,-515,37,28
6995,9,-251,26,-530,36,31
7000,7,-250,29,-546,37,33
7005,7,-250,25,-559,37,34
7010,8,-251,26,-567,39,36
7015,8,-250,22,-573,41,37
7020,9,-249,21,-581,44,36
7025,6,-245,19,-591,50,34
7030,10,-246,17,-603,54,38
7035,5,-244,15,-615,58,40
7040,13,-246,16,-629,59,44
7045,9,-247,15,-646,63,42
7050,8,-244,12,-660,66,41
7055,11,-244,10,-669,70,42
7060,5,-246,15,-677,73,43
7065,16,-252,7,-681,75,49
7070,12,-245,12,-688,78,42
7075,7,-247,7,-690,81,34
7080,13,-248,8,-689,85,42
7085,20,-251,9,-693,84,35
7090,14,-248,5,-692,88,18
7095,9,-245,4,-683,94,9
7100,17,-249,3,-665,99,22
7105,18,-253,1,-649,97,17
7110,13,-253,3,-627,102,-1
7115,1,-249,2,-599,103,-8
7120,18,-257,1,-576,102,-4
7125,14,-252,1,-568,101,-25
7130,1,-246,4,-561,102,-27
7135,18,-251,4,-566,98,-16
7140,19,-251,6,-583,98,-31
7145,1,-246,8,-601,103,-33
7150,23,-254,6,-625,104,-20
7155,17,-250,5,-662,112,-35
7160,3,-249,7,-694,124,-38
7165,20,-253,1,-730,129,-29
7170,16,-254,0,-764,138,-38
7175,15,-253,-8,-808,148,-49
7180,11,-254,-10,-867,155,-57
7185,15,-255,-13,-940,153,-61
7190,14,-259,-17,-1029,148,-65
7195,12,-257,-27,-1119,139,-65
7200,16,-262,-15,-1202,130,-58
7205,18,-268,-16,-1270,119,-51
7210,16,-266,-18,-1325,113,-51
7215,16,-269,-26,-1366,107,-58
7220,14,-272,-23,-1393,105,-65
7225,16,-274,-21,-1407,104,-72
7230,16,-282,-22,-1411,104,-76
7235,16,-283,-20,-1405,104,-79
7240,14,-287,-21,-1384,108,-82
7245,12,-291,-21,-1357,120,-88
7250,18,-291,-17,-1321,141,-95
7255,11,-298,-27,-1292,166,-104
7260,9,-304,-32,-1263,192,-106
7265,6,-305,-29,-1244,214,-102
7270,6,-305,-31,-1228,226,-93
7275,3,-310,-33,-1218,226,-84
7280,7,-312,-35,-1208,215,-76
7285,8,-316,-38,-1198,197,-64
7290,9,-317,-42,-1186,168,-52
7295,12,-321,-46,-1172,137,-39
7300,11,-323,-52,-1158,107,-27
7305,12,-327,-62,-1140,80,-17
7310,14,-327,-74,-1120,60,-8
7315,11,-330,-81,-1101,50,1
7320,13,-326,-88,-1084,43,7
7325,9,-327,-100,-1069,45,10
7330,11,-329,-103,-1058,44,15
7335,5,-329,-109,-1046,41,16
7340,4,-325,-110,-1036,33,19
7345,2,-325,-110,-1028,21,25
7350,3,-323,-114,-1017,6,32
7355,4,-322,-117,-1011,-5,42
7360,0,-319,-118,-1004,-15,54
7365,-4,-315,-118,-995,-23,65
7370,-1,-316,-116,-982,-32,77
7375,-5,-312,-116,-962,-48,92
7380,-6,-310,-113,-940,-68,109
7385,-9,-310,-117,-921,-93,123
7390,-13,-308,-109,-900,-118,135
7395,-15,-305,-108,-879,-147,147
7400,-14,-306,-101,-850,-174,158
7405,-17,-301,-101,-811,-197,166
7410,-12,-304,-103,-763,-214,169
7415,-9,-302,-99,-708,-225,171
7420,-10,-299,-98,-644,-233,174
7425,-7,-299,-97,-570,-238,175
7430,-2,-298,-95,-494,-241,172
7435,2,-299,-92,-417,-241,167
7440,5,-296,-91,-341,-244,164
7445,6,-294,-93,-270,-246,163
7450,14,-293,-94,-209,-247,161
7455,14,-291,-97,-153,-247,157
7460,17,-292,-99,-105,-247,159
7465,17,-285,-94,-64,-243,157
7470,19,-285,-100,-32,-235,155
7475,18,-280,-97,-16,-224,157
7480,17,-284,-106,-4,-212,159
7485,20,-285,-100,-3,-204,152
7490,18,-282,-107,-9,-195,148
7495,14,-285,-113,-22,-190,140
7500,10,-289,-110,-42,-183,135
7505,10,-290,-112,-61,-178,128
7510,13,-293,-112,-80,-174,117
7515,5,-291,-110,-96,-169,102
7520,4,-292,-108,-106,-166,87
7525,1,-296,-114,-112,-162,74
7530,2,-300,-109,-115,-156,66
7535,1,-295,-105,-112,-150,59
7540,1,-296,-101,-103,-141,44
7545,-1,-298,-96,-88,-130,27
7550,0,-294,-92,-64,-116,12
7555,-5,-291,-85,-37,-101,-3
7560,-4,-292,-89,-7,-82,-14
7565,-5,-289,-83,20,-64,-21
7570,-10,-289,-80,47,-47,-23
7575,-8,-288,-81,65,-31,-25
7580,-6,-290,-82,82,-15,-26
7585,-5,-291,-79,99,-3,-20
7590,-11,-289,-80,120,8,-14
7595,-5,-289,-80,148,18,-11
7600,-7,-293,-85,181,29,-9
7605,-1,-295,-85,220,42,-9
7610,-4,-296,-86,264,50,-9
7615,-4,-298,-91,306,55,-11
7620,-1,-299,-86,341,54,-11
7625,0,-297,-91,367,50,-14
7630,-4,-296,-89,382,42,-14
7635,0,-301,-92,392,28,-14
7640,1,-301,-92,398,14,-14
7645,1,-295,-89,403,3,-17
7650,1,-295,-91,406,-10,-19
7655,3,-293,-87,418,-21,-22
7660,0,-286,-86,428,-34,-27
7665,1,-283,-80,443,-48,-31
7670,2,-276,-80,465,-61,-37
7675,1,-271,-83,493,-70,-41
7680,1,-266,-80,518,-78,-48
7685,0,-263,-78,541,-81,-57
7690,2,-256,-78,556,-84,-61
7695,0,-254,-75,564,-86,-70
7700,0,-247,-79,567,-89,-79
7705,1,-248,-78,567,-91,-88
7710,1,-245,-78,566,-91,-95
7715,2,-241,-77,560,-90,-102
7720,2,-242,-83,551,-86,-106
7725,0,-241,-80,547,-80,-113
7730,0,-241,-82,546,-71,-118
7735,1,-242,-81,547,-64,-123
7740,0,-240,-80,548,-57,-125
7745,0,-241,-80,548,-47,-125
7750,3,-242,-81,553,-35,-125
7755,1,-241,-78,560,-24,-123
7760,1,-241,-82,569,-13,-121
7765,1,-241,-80,581,-4,-122
7770,3,-238,-78,595,5,-121
7775,3,-236,-74,609,10,-121
7780,2,-235,-71,623,17,-121
7785,2,-232,-72,629,20,-122
7790,6,-233,-69,629,20,-123
7795,7,-230,-68,622,17,-122
7800,1,-230,-72,611,12,-121
7805,4,-228,-67,598,4,-121
7810,7,-226,-70,580,-6,-121
7815,5,-224,-66,560,-14,-119
7820,6,-224,-66,543,-21,-116
7825,3,-223,-68,521,-30,-112
7830,1,-220,-63,502,-40,-107
7835,-7,-221,-57,489,-49,-103
7840,1,-224,-62,486,-56,-98
7845,0,-219,-66,487,-62,-96
7850,2,-221,-62,490,-63,-93
7855,1,-219,-62,497,-59,-91
7860,5,-216,-64,507,-53,-90
7865,3,-211,-60,517,-43,-89
7870,7,-213,-64,527,-33,-89
7875,5,-207,-61,533,-23,-88
7880,2,-201,-59,532,-14,-83
7885,5,-202,-61,529,-7,-78
7890,11,-205,-66,523,-2,-74
7895,11,-199,-56,517,1,-68
7900,10,-195,-58,510,7,-65
7905,7,-197,-62,503,14,-62
7910,7,-196,-63,493,23,-60
7915,6,-195,-60,482,29,-60
7920,8,-197,-60,474,32,-63
7925,8,-198,-64,463,35,-68
7930,8,-201,-61,454,35,-70
7935,9,-201,-63,439,35,-71
7940,9,-202,-64,420,34,-77
7945,10,-205,-65,395,35,-83
7950,12,-205,-62,369,36,-87
7955,12,-207,-62,354,41,-91
7960,12,-213,-61,341,48,-97
7965,11,-209,-61,336,56,-101
7970,12,-213,-59,333,67,-107
7975,12,-213,-57,337,80,-112
7980,9,-211,-57,347,95,-117
7985,12,-215,-53,363,113,-120
7990,10,-217,-52,376,130,-123
7995,10,-214,-52,384,144,-124
8000,9,-216,-47,385,157,-124
8005,10,-217,-49,377,166,-121
8010,6,-219,-50,358,174,-117
8015,7,-221,-52,331,181,-111
8020,5,-223,-49,295,185,-104
8025,6,-229,-48,254,190,-98
8030,5,-233,-49,213,197,-89
8035,4,-238,-44,178,199,-83
8040,5,-242,-42,155,199,-78
8045,7,-248,-42,147,198,-73
8050,4,-251,-39,149,193,-69
8055,6,-254,-43,160,183,-66
8060,4,-253,-40,175,167,-63
8065,3,-255,-42,205,149,-60
8070,2,-256,-37,238,132,-59
8075,3,-256,-46,271,117,-59
8080,1,-254,-44,300,103,-60
8085,1,-255,-43,323,89,-61
8090,-1,-255,-44,333,75,-62
8095,4,-252,-37,335,63,-63
8100,0,-252,-37,328,53,-68
8105,0,-256,-38,315,44,-69
8110,0,-257,-33,297,35,-71
8115,1,-254,-31,271,29,-70
8120,0,-252,-31,249,23,-71
8125,3,-251,-27,228,20,-74
8130,1,-254,-25,211,15,-73
8135,0,-256,-24,203,13,-71
8140,4,-257,-20,201,8,-71
8145,2,-259,-19,202,3,-67
8150,2,-257,-15,209,-1,-65
8155,3,-256,-11,220,-3,-60
8160,5,-256,-9,233,-9,-55
8165,6,-256,-11,243,-14,-52
8170,8,-255,-14,248,-21,-50
8175,8,-256,-12,247,-28,-45
8180,11,-254,-8,240,-32,-43
8185,12,-254,-10,227,-34,-39
8190,14,-254,-10,215,-35,-35
8195,10,-251,-10,199,-32,-32
8200,17,-253,-14,181,-24,-30
8205,17,-255,-15,160,-15,-26
8210,13,-255,-14,142,-4,-23
8215,18,-256,-16,124,8,-21
8220,18,-257,-23,103,18,-17
8225,17,-259,-20,83,27,-14
8230,19,-260,-21,65,32,-11
8235,20,-265,-31,47,32,-7
8240,19,-261,-27,34,30,-5
8245,16,-263,-24,29,28,-2
8250,18,-264,-32,33,26,-1
8255,18,-266,-28,47,29,-2
8260,16,-264,-26,64,34,-3
8265,18,-267,-28,86,42,-4
8270,20,-267,-26,112,50,-6
8275,19,-266,-21,138,55,-8
8280,18,-265,-22,163,58,-9
8285,19,-264,-17,186,55,-11
8290,22,-261,-14,206,52,-11
8295,18,-261,-14,222,45,-11
8300,17,-256,-9,229,36,-10
8305,15,-256,-8,230,24,-9
8310,19,-258,-5,227,13,-5
8315,14,-256,-3,220,4,-3
8320,11,-254,-4,209,-6,-1
8325,11,-255,1,199,-14,4
8330,10,-256,3,188,-20,8
8335,8,-256,0,178,-25,11
8340,5,-252,0,169,-30,15
8345,4,-254,0,161,-33,18
8350,3,-254,0,153,-37,22
8355,2,-255,0,145,-40,27
8360,1,-252,-5,137,-40,30
8365,0,-251,-1,130,-41,32
8370,0,-253,-1,125,-42,34
8375,-3,-251,-7,117,-41,35
8380,0,-250,-6,113,-40,38
8385,-1,-254,0,108,-40,37
8390,-2,-249,-1,103,-40,38
8395,0,-253,-6,100,-42,40
8400,0,-253,-5,97,-44,41
8405,2,-254,-3,95,-44,41
8410,4,-255,0,92,-45,41
8415,5,-254,-2,89,-45,39
8420,7,-257,-2,86,-47,38
8425,6,-257,-4,81,-50,38
8430,10,-258,-1,80,-54,37
8435,7,-259,-1,79,-59,37
8440,8,-258,-4,82,-67,36
8445,10,-256,-2,86,-77,37
8450,11,-258,-2,94,-89,37
8455,14,-260,0,101,-101,40
8460,11,-257,-2,105,-115,43
8465,11,-259,-1,107,-131,47
8470,10,-258,-2,106,-148,50
8475,11,-260,-7,98,-164,55
8480,6,-258,-10,86,-181,61
8485,8,-256,-11,72,-197,66
8490,14,-257,-6,58,-211,70
8495,5,-257,-12,48,-223,74
8500,6,-257,-12,38,-234,79
8505,3,-258,-8,34,-243,83
8510,5,-258,-6,33,-251,85
8515,3,-251,-2,36,-257,90
8520,6,-256,-7,40,-261,94
8525,4,-256,-4,41,-266,96
8530,4,-256,-5,41,-267,97
8535,4,-255,-2,41,-267,99
8540,5,-255,1,39,-266,100
8545,7,-258,0,36,-264,99
8550,10,-256,-1,29,-263,99
8555,10,-259,1,25,-266,99
8560,11,-256,1,20,-266,97
8565,13,-257,0,15,-270,96
8570,15,-257,0,12,-273,94
8575,14,-256,1,9,-278,92
8580,16,-254,0,8,-283,90
8585,20,-253,0,5,-290,89
8590,16,-255,0,-1,-294,88
8595,15,-255,0,-8,-301,88
8600,18,-254,-4,-19,-306,87
8605,15,-255,0,-32,-309,88
8610,13,-255,-1,-45,-312,88
8615,13,-256,0,-61,-318,90
8620,12,-256,-2,-73,-322,92
8625,12,-254,0,-85,-327,95
8630,12,-254,0,-96,-330,99
8635,12,-257,0,-102,-335,101
8640,10,-258,0,-109,-339,103
8645,11,-260,0,-106,-341,106
8650,10,-257,-2,-104,-345,110
8655,7,-257,1,-97,-350,113
8660,4,-260,-1,-89,-357,118
8665,4,-256,0,-81,-363,122
8670,3,-257,2,-71,-371,123
8675,4,-258,1,-62,-379,126
8680,2,-258,0,-49,-387,129
8685,2,-258,0,-40,-397,132
8690,1,-256,0,-27,-410,134
8695,2,-257,-3,-18,-426,137
8700,0,-257,-2,-9,-441,139
8705,0,-256,-4,1,-452,139
8710,-2,-260,-2,2,-462,140
8715,-3,-256,-5,-1,-472,143
8720,-5,-257,-5,-8,-485,148
8725,-1,-257,-4,-18,-498,154
8730,-7,-257,-4,-31,-512,161
8735,-3,-259,-3,-45,-530,168
8740,-2,-258,-3,-51,-548,178
8745,-1,-262,0,-54,-566,185
8750,-1,-262,0,-55,-584,194
8755,-1,-263,0,-51,-601,200
8760,-5,-261,-1,-45,-616,207
8765,-6,-261,-3,-41,-628,211
8770,-1,-265,-3,-37,-638,215
8775,0,-261,-2,-33,-648,220
8780,-3,-261,-4,-36,-657,222
8785,0,-259,0,-37,-666,225
8790,2,-259,-4,-43,-677,230
8795,2,-259,-3,-49,-690,234
8800,1,-258,-3,-56,-701,236
8805,1,-258,-1,-63,-713,239
8810,3,-258,1,-67,-725,241
8815,2,-258,-3,-72,-734,246
8820,0,-256,0,-78,-744,249
8825,2,-257,-2,-85,-755,252
8830,1,-257,-4,-93,-765,255
8835,1,-257,-2,-103,-776,261
8840,0,-259,-1,-109,-785,264
8845,0,-258,-6,-114,-793,266
8850,-2,-258,0,-113,-800,268
8855,0,-262,-6,-110,-806,270
8860,-3,-260,-4,-102,-811,272
8865,-2,-261,-4,-91,-817,272
8870,-2,-259,-3,-78,-824,272
8875,-1,-259,-7,-61,-831,273
8880,0,-262,-7,-47,-837,272
8885,0,-260,-4,-34,-843,269
8890,0,-258,-8,-26,-848,265
8895,2,-258,-7,-21,-848,263
8900,5,-257,-4,-23,-850,259
8905,4,-257,-3,-28,-850,255
8910,7,-257,-4,-36,-850,253
8915,8,-259,-5,-48,-851,250
8920,7,-261,-5,-58,-851,250
8925,8,-258,-7,-68,-857,248
8930,8,-262,-1,-72,-859,250
8935,4,-261,-5,-73,-864,251
8940,3,-262,-2,-69,-868,252
8945,6,-264,-2,-64,-868,254
8950,7,-264,-5,-56,-869,257
8955,4,-261,-2,-46,-868,259
8960,5,-258,-1,-40,-867,262
8965,4,-262,-3,-37,-862,265
8970,4,-258,0,-35,-857,267
8975,4,-258,0,-33,-852,266
8980,2,-259,-2,-32,-847,266
8985,6,-258,1,-31,-840,265
8990,5,-257,1,-31,-836,261
8995,5,-256,0,-33,-830,257
9000,6,-255,0,-34,-824,254
9005,6,-255,2,-34,-818,249
9010,10,-256,0,-34,-812,246
9015,9,-254,0,-33,-808,242
9020,7,-256,0,-31,-804,237
9025,10,-257,0,-32,-799,234
9030,16,-261,7,-37,-796,230
9035,10,-256,1,-42,-792,229
9040,9,-256,6,-47,-787,227
9045,10,-258,1,-54,-782,226
9050,9,-256,8,-61,-775,226
9055,9,-255,5,-67,-767,222
9060,9,-258,5,-71,-758,224
9065,5,-257,6,-75,-748,224
9070,5,-258,6,-76,-739,225
9075,5,-259,4,-73,-731,224
9080,4,-262,10,-71,-724,225
9085,6,-259,16,-63,-717,226
9090,4,-260,5,-54,-710,224
9095,3,-262,8,-44,-703,223
9100,5,-262,10,-30,-698,221
9105,3,-260,8,-17,-693,219
9110,3,-261,10,-6,-688,216
9115,5,-262,8,6,-681,210
9120,4,-263,8,15,-673,203
9125,2,-261,5,19,-662,196
9130,8,-260,5,23,-652,190
9135,7,-258,6,22,-641,183
9140,7,-258,4,20,-628,175
9145,12,-259,4,16,-614,170
9150,13,-261,4,11,-602,164
9155,9,-258,1,6,-587,160
9160,12,-258,2,4,-570,158
9165,11,-257,4,1,-555,154
9170,10,-257,3,-2,-540,153
9175,11,-257,5,-4,-526,151
9180,10,-255,4,-3,-513,151
9185,9,-258,7,-4,-500,150
9190,9,-255,5,-5,-487,153
9195,9,-257,8,-5,-475,154
9200,9,-255,8,-6,-464,154
9205,5,-253,7,-4,-453,155
9210,5,-256,8,-4,-442,155
9215,7,-256,9,-1,-432,157
9220,7,-258,8,1,-423,158
9225,4,-256,9,5,-412,158
9230,3,-255,8,7,-403,158
9235,1,-256,8,12,-393,158
9240,4,-256,8,14,-384,157
9245,2,-257,12,21,-376,155
9250,4,-257,14,24,-369,151
9255,6,-256,7,29,-359,147
9260,2,-257,11,35,-351,142
9265,1,-256,13,40,-343,138
9270,5,-256,11,43,-336,133
9275,5,-254,11,47,-328,129
9280,2,-253,13,47,-322,123
9285,5,-252,15,49,-313,119
9290,4,-252,18,49,-304,115
9295,6,-250,11,47,-296,113
9300,7,-252,17,44,-286,110
9305,7,-249,15,38,-276,106
9310,3,-247,14,31,-266,103
9315,5,-247,13,21,-253,99
9320,4,-249,13,13,-239,97
9325,5,-248,20,2,-225,95
9330,6,-248,20,-7,-210,91
9335,4,-248,22,-15,-196,87
9340,5,-252,18,-25,-185,82
9345,5,-250,19,-28,-171,79
9350,5,-251,20,-33,-160,74
9355,6,-256,18,-37,-149,68
9360,4,-255,20,-39,-139,61
9365,4,-256,13,-40,-126,53
9370,5,-255,15,-44,-114,46
9375,4,-254,19,-43,-100,39
9380,2,-255,14,-45,-88,31
9385,2,-255,14,-45,-77,23
9390,5,-257,13,-44,-67,17
9395,2,-258,18,-44,-58,8
9400,1,-256,17,-42,-49,4
9405,4,-258,18,-39,-43,-1
9410,1,-257,18,-35,-37,-4
9415,0,-256,20,-34,-35,-9
9420,0,-254,21,-28,-33,-11
9425,0,-254,22,-25,-34,-10
9430,-5,-255,17,-24,-36,-8
9435,-2,-253,18,-22,-38,-6
9440,-6,-251,23,-23,-43,0
9445,-7,-254,19,-26,-49,6
9450,-8,-254,19,-33,-52,13
9455,-9,-257,20,-44,-56,17
9460,-8,-256,19,-56,-59,22
9465,-9,-255,17,-65,-60,24
9470,-5,-255,16,-71,-60,27
9475,-7,-256,15,-74,-61,30
9480,-2,-257,15,-74,-60,30
9485,-6,-257,14,-70,-57,29
9490,-1,-259,16,-62,-56,27
9495,0,-258,12,-55,-54,24
9500,1,-260,18,-44,-50,18
9505,1,-258,11,-33,-49,14
9510,3,-257,13,-21,-44,9
9515,4,-258,14,-13,-38,4
9520,6,-258,10,-6,-33,-2
9525,5,-257,17,-2,-25,-6
9530,6,-255,13,4,-18,-12
9535,6,-255,17,4,-11,-18
9540,9,-255,13,6,-4,-21
9545,7,-255,16,10,3,-26
9550,8,-254,17,12,7,-27
9555,4,-255,11,14,12,-30
9560,2,-255,17,15,13,-30
9565,2,-254,20,13,16,-29
9570,1,-252,17,12,18,-28
9575,0,-255,13,9,19,-29
9580,0,-255,17,4,22,-27
9585,-2,-255,19,1,22,-27
9590,-3,-254,19,-2,26,-24
9595,-3,-255,16,-4,29,-25
9600,-7,-254,16,-3,35,-23
9605,-7,-256,14,-1,37,-20
9610,-7,-253,18,0,38,-19
9615,-7,-257,18,2,41,-18
9620,-6,-254,16,2,40,-17
9625,-4,-255,17,4,39,-15
9630,-3,-256,15,0,38,-16
9635,-3,-255,17,0,36,-13
9640,-3,-255,16,-3,35,-15
9645,0,-256,17,-5,33,-15
9650,1,-259,17,-7,32,-16
9655,1,-256,16,-9,31,-17
9660,0,-252,13,-8,32,-20
9665,2,-254,16,-7,34,-22
9670,2,-256,16,-5,37,-24
9675,1,-258,19,-3,41,-26
9680,3,-256,16,0,46,-30
9685,3,-256,21,4,52,-34
9690,2,-256,17,9,57,-37
9695,2,-254,19,13,60,-40
9700,1,-254,21,16,62,-42
9705,0,-255,17,17,66,-42
9710,0,-250,18,20,70,-41
9715,0,-253,19,24,71,-41
9720,0,-252,21,27,72,-40
9725,-2,-250,20,27,74,-38
9730,-4,-248,23,26,74,-37
9735,-1,-249,17,25,77,-36
9740,-6,-245,22,22,79,-38
9745,-2,-248,23,16,79,-38
9750,-3,-249,19,11,82,-39
9755,-2,-251,24,6,85,-41
9760,-2,-247,20,4,86,-42
9765,-3,-251,24,0,87,-43
9770,-2,-253,21,-7,90,-44
9775,-4,-253,22,-10,92,-45
9780,-7,-250,23,-11,94,-45
9785,-6,-253,23,-10,92,-44
9790,-10,-249,24,-10,91,-42
9795,-6,-254,28,-10,88,-38
9800,-4,-253,22,-10,86,-35
9805,-6,-253,23,-10,83,-32
9810,-5,-255,25,-9,82,-30
9815,-5,-256,22,-11,80,-26
9820,-5,-255,25,-14,81,-24
9825,-8,-253,20,-19,81,-22
9830,-10,-252,20,-24,83,-22
9835,-10,-254,20,-29,84,-21
9840,-5,-253,24,-34,89,-23
9845,-4,-254,22,-39,92,-24
9850,-6,-255,20,-42,97,-26
9855,-4,-255,21,-43,102,-29
9860,0,-253,22,-43,106,-31
9865,0,-253,20,-41,107,-33
9870,1,-255,19,-38,108,-33
9875,0,-251,22,-36,109,-36
9880,3,-253,21,-34,109,-38
9885,2,-252,23,-34,110,-40
9890,3,-253,21,-36,112,-43
9895,5,-252,19,-38,117,-46
9900,4,-251,23,-40,121,-49
9905,5,-252,23,-42,127,-52
9910,6,-253,22,-39,133,-56
9915,4,-252,27,-37,140,-58
9920,5,-253,23,-33,145,-59
9925,3,-251,23,-30,150,-62
9930,1,-252,26,-25,155,-63
9935,1,-249,23,-24,158,-65
9940,0,-251,23,-27,161,-65
9945,0,-250,25,-31,163,-64
9950,-1,-252,24,-35,165,-65
9955,-1,-250,24,-42,168,-66
9960,-2,-252,24,-48,169,-68
9965,-3,-251,22,-56,171,-69
9970,-6,-251,26,-61,173,-68
9975,-4,-253,21,-64,173,-66
9980,-7,-252,21,-64,173,-65
9985,-7,-252,27,-65,170,-64
9990,-4,-254,19,-64,166,-59
9995,-8,-253,21,-67,161,-57
10000,-4,-253,23,-69,156,-52
10005,-6,-253,20,-70,149,-48
10010,-8,-252,23,-71,143,-45
10015,-3,-254,24,-72,136,-42
10020,-7,-252,19,-76,131,-39
10025,-5,-252,18,-80,127,-37
10030,-5,-253,18,-81,123,-33
10035,-4,-254,15,-84,119,-32
10040,-4,-253,16,-88,117,-29
10045,-3,-255,19,-89,116,-29
10050,-2,-253,17,-89,113,-29
10055,0,-255,18,-89,112,-30
10060,1,-255,17,-90,112,-31
10065,0,-254,18,-89,113,-35
10070,1,-254,18,-86,114,-37
10075,1,-253,20,-83,115,-42
10080,4,-257,21,-82,115,-45
10085,2,-253,18,-78,118,-49
10090,4,-254,19,-76,122,-54
10095,5,-254,18,-75,125,-54
10100,4,-255,18,-75,128,-56
10105,5,-255,19,-76,132,-57
10110,4,-255,22,-76,133,-55
10115,2,-252,17,-75,134,-54
10120,2,-255,19,-75,132,-52
10125,0,-250,17,-75,130,-48
10130,-4,-251,21,-76,128,-46
10135,-7,-253,20,-79,126,-42
10140,-3,-255,14,-82,122,-40
10145,-5,-253,14,-85,121,-38
10150,-8,-251,14,-90,119,-36
10155,-5,-255,14,-96,117,-35
10160,-10,-254,13,-99,116,-35
10165,-8,-253,15,-105,113,-35
10170,-11,-254,16,-107,110,-35
10175,-7,-257,14,-108,109,-36
10180,-7,-256,15,-107,105,-36
10185,-7,-256,18,-107,100,-36
10190,-8,-254,17,-105,96,-37
10195,-6,-256,21,-101,91,-37
10200,-1,-255,18,-99,85,-36
10205,-2,-256,15,-97,82,-37
10210,-4,-254,22,-96,79,-36
10215,-1,-253,18,-96,76,-38
10220,-1,-253,19,-95,73,-36
10225,1,-253,16,-96,73,-35
10230,6,-263,37,-97,71,-36
10235,0,-254,16,-98,69,-35
10240,0,-255,20,-101,67,-36
10245,0,-252,20,-101,68,-40
10250,1,-253,15,-105,68,-40
10255,0,-250,17,-107,67,-41
10260,1,-253,15,-108,65,-44
10265,0,-254,15,-109,65,-46
10270,0,-254,13,-108,65,-47
10275,0,-256,14,-107,64,-47
10280,0,-252,14,-107,65,-47
10285,-3,-255,28,-106,64,-47
10290,-2,-253,17,-106,63,-49
10295,-2,-255,16,-104,64,-46
10300,-1,-254,18,-105,62,-45
10305,-2,-255,18,-105,61,-45
10310,-2,-255,15,-103,59,-44
10315,0,-253,14,-102,56,-42
10320,-3,-254,12,-102,53,-39
10325,-6,-252,17,-100,48,-38
10330,-7,-255,16,-102,42,-36
10335,-4,-255,15,-103,36,-34
10340,-2,-256,14,-101,29,-32
10345,-1,-254,14,-102,24,-33
10350,-3,-258,16,-104,20,-32
10355,0,-256,15,-106,18,-35
10360,0,-253,14,-105,16,-36
10365,0,-255,18,-106,16,-37
10370,2,-256,11,-109,17,-41
10375,1,-255,13,-111,19,-43
10380,0,-257,16,-111,21,-45
10385,4,-256,10,-112,23,-49
10390,1,-256,18,-111,23,-51
10395,0,-255,10,-109,24,-52
10400,2,-256,10,-108,24,-54
10405,1,-256,10,-106,23,-55
10410,1,-254,11,-102,20,-55
10415,1,-257,13,-100,17,-54
10420,0,-257,12,-98,13,-54
10425,0,-256,14,-97,11,-52
10430,1,-258,10,-97,7,-49
10435,1,-257,15,-97,6,-48
10440,-1,-256,13,-98,4,-45
10445,0,-255,9,-98,4,-43
10450,1,-256,11,-98,5,-42
10455,0,-255,13,-95,6,-41
10460,0,-257,7,-92,8,-38
10465,-1,-257,10,-89,7,-37
10470,1,-257,14,-86,8,-35
10475,0,-256,14,-85,9,-32
10480,1,-257,10,-82,9,-31
10485,0,-258,11,-79,10,-29
10490,-2,-258,11,-77,9,-28
10495,0,-257,12,-73,8,-25
10500,3,-256,12,-72,6,-23
10505,0,-259,10,-69,4,-21
10510,2,-259,7,-66,2,-20
10515,2,-258,9,-65,3,-20
10520,3,-261,11,-65,2,-18
10525,2,-258,12,-62,3,-16
10530,3,-258,10,-61,3,-17
10535,1,-258,8,-59,3,-15
10540,3,-258,12,-58,4,-15
10545,1,-257,10,-56,4,-13
10550,3,-255,10,-53,4,-12
10555,1,-257,10,-50,5,-12
10560,2,-257,10,-50,6,-12
10565,3,-256,8,-48,7,-11
10570,3,-254,7,-47,7,-13
10575,3,-257,12,-44,8,-12
10580,5,-256,9,-46,9,-12
10585,2,-255,13,-45,9,-11
10590,2,-252,12,-44,11,-12
10595,2,-254,13,-42,11,-13
10600,2,-255,10,-41,13,-13
10605,2,-255,12,-42,12,-13
10610,3,-255,12,-42,13,-12
10615,3,-256,14,-43,14,-14
10620,5,-254,11,-42,15,-13
10625,1,-252,11,-44,15,-14
10630,1,-255,10,-46,15,-16
10635,4,-252,11,-48,15,-18
10640,0,-254,9,-48,15,-17
10645,1,-254,9,-50,15,-18
10650,7,-254,9,-53,14,-18
10655,6,-257,15,-52,15,-18
10660,-1,-259,7,-54,14,-19
10665,0,-256,8,-54,14,-19
10670,0,-256,11,-53,12,-17
10675,1,-256,13,-53,11,-17
10680,0,-256,13,-52,10,-17
10685,2,-259,15,-52,9,-15
10690,2,-256,13,-54,8,-15
10695,1,-257,12,-53,7,-13
10700,1,-257,10,-52,9,-12
10705,4,-261,11,-52,7,-9
10710,3,-257,8,-51,8,-8
10715,0,-257,8,-48,7,-6
10720,2,-257,12,-45,8,-7
10725,2,-257,8,-44,6,-7
10730,3,-260,7,-43,9,-6
10735,2,-256,8,-42,9,-6
10740,3,-256,9,-43,10,-7
10745,5,-256,8,-41,10,-7
10750,2,-252,10,-41,11,-8
10755,2,-254,11,-42,11,-8
10760,2,-253,11,-40,13,-11
10765,3,-253,6,-40,12,-13
10770,4,-255,9,-39,12,-15
10775,-14,-264,15,-40,12,-15
10780,3,-259,8,-39,10,-16
10785,3,-256,11,-38,7,-17
10790,2,-256,10,-35,7,-17
10795,3,-255,11,-34,5,-18
10800,5,-255,6,-32,6,-18
10805,2,-258,15,-29,8,-17
10810,2,-257,8,-27,9,-16
10815,3,-256,17,-27,9,-15
10820,3,-258,16,-27,10,-12
10825,0,-255,14,-27,11,-12
10830,-5,-247,1,-27,12,-9
10835,1,-256,13,-27,11,-7
10840,1,-254,5,-31,10,-5
10845,0,-255,9,-34,9,-5
10850,2,-255,12,-38,9,-2
10855,2,-255,11,-42,7,-2
10860,1,-256,11,-44,7,-1
10865,3,-256,9,-46,7,-3
10870,0,-255,15,-48,6,-3
10875,2,-255,10,-49,5,-5
10880,1,-254,9,-50,5,-6
10885,2,-256,9,-51,4,-6
10890,3,-256,10,-52,4,-7
10895,6,-254,13,-51,3,-9
10900,7,-257,10,-55,2,-12
10905,4,-256,10,-57,2,-12
10910,3,-253,10,-58,1,-13
10915,2,-255,10,-61,2,-13
10920,4,-252,7,-61,2,-13
10925,4,-255,13,-63,2,-13
10930,3,-253,9,-62,1,-13
10935,2,-256,12,-63,0,-12
10940,2,-255,10,-63,0,-12
10945,3,-257,12,-64,-1,-12
10950,4,-255,11,-66,0,-12
10955,3,-255,12,-65,-1,-10
10960,4,-255,11,-66,1,-10
10965,2,-256,12,-67,2,-9
10970,5,-257,12,-68,5,-7
10975,3,-256,13,-68,5,-8
10980,0,-255,8,-68,7,-8
10985,3,-256,13,-66,8,-8
10990,1,-256,13,-65,11,-9
10995,5,-253,14,-62,10,-7
11000,2,-255,8,-63,9,-8
11005,3,-254,11,-61,9,-7
11010,2,-255,11,-61,7,-7
11015,2,-255,12,-59,5,-7
11020,3,-256,9,-58,2,-6
11025,1,-255,12,-59,1,-6
11030,3,-256,8,-59,0,-6
11035,3,-255,10,-60,-1,-6
11040,2,-253,12,-60,-1,-4
11045,2,-257,14,-59,-4,-3
11050,3,-254,9,-60,-3,-2
11055,3,-257,8,-59,-4,-1
11060,5,-258,11,-58,-3,1
11065,2,-257,12,-57,-5,3
11070,4,-258,14,-56,-4,4
11075,3,-260,8,-54,-4,7
11080,2,-256,10,-53,-3,8
11085,6,-259,8,-49,-1,8
11090,3,-258,10,-49,-1,7
11095,4,-257,12,-48,0,7
11100,4,-258,9,-44,1,8
11105,4,-256,12,-46,2,7
11110,1,-255,10,-44,4,7
11115,6,-258,6,-43,6,4
11120,3,-256,12,-43,8,5
11125,3,-257,16,-44,11,3
11130,6,-257,11,-41,14,3
11135,4,-259,9,-37,14,3
11140,4,-257,13,-35,15,2
11145,5,-258,11,-31,16,2
11150,4,-254,14,-27,15,1
11155,4,-255,13,-25,14,2
11160,5,-256,12,-24,12,4
11165,5,-256,10,-23,9,2
11170,5,-256,11,-26,9,3
11175,3,-256,9,-24,8,4
11180,2,-256,7,-25,9,5
11185,7,-257,15,-25,9,5
11190,2,-255,10,-25,10,5
11195,1,-255,13,-23,12,4
11200,1,-256,12,-21,12,5
11205,2,-255,9,-19,13,5
11210,3,-258,11,-18,15,5
11215,1,-255,11,-16,15,5
11220,2,-256,8,-16,15,5
11225,2,-256,10,-14,16,4
11230,0,-257,13,-16,14,5
11235,3,-256,9,-16,15,6
11240,1,-258,13,-16,13,5
11245,0,-255,9,-15,12,6
11250,1,-256,12,-15,12,6
11255,3,-256,9,-15,11,7
11260,3,-258,10,-12,10,7
11265,2,-257,13,-10,9,6
11270,3,-255,7,-9,9,7
11275,3,-257,11,-9,7,5
11280,5,-257,11,-10,6,6
11285,1,-255,9,-9,6,4
11290,4,-255,13,-9,7,2
11295,3,-253,12,-10,6,1
11300,5,-253,14,-10,7,0
11305,3,-255,8,-12,7,-1
11310,3,-256,13,-17,7,-2
11315,5,-255,12,-20,8,-4
11320,3,-255,12,-23,8,-5
11325,2,-253,12,-23,8,-4
11330,4,-255,10,-24,8,-4
11335,1,-257,11,-25,8,-3
11340,2,-257,11,-28,7,-2
11345,4,-257,8,-29,9,-1
11350,4,-256,15,-30,9,-3
11355,4,-256,8,-29,10,-2
11360,2,-255,12,-29,12,-1
11365,2,-256,8,-29,14,-1
11370,2,-256,10,-29,16,-1
11375,1,-270,6,-27,18,-1
11380,2,-256,12,-26,18,-1
11385,0,-254,14,-26,17,-1
11390,0,-256,12,-25,17,-2
11395,0,-251,10,-23,16,-1
11400,2,-255,13,-24,14,0
11405,2,-256,12,-24,12,0
11410,4,-257,6,-29,12,0
11415,3,-255,10,-29,10,0
11420,4,-256,11,-30,12,0
11425,1,-255,8,-31,12,0
11430,4,-250,-2,-28,12,-2
11435,3,-258,13,-28,13,-1
11440,3,-257,12,-26,13,-2
11445,2,-254,12,-24,14,-3
11450,2,-254,11,-24,16,-5
11455,2,-255,10,-26,15,-3
11460,3,-255,10,-29,17,-4
11465,3,-254,13,-28,18,-6
11470,1,-255,9,-29,18,-6
11475,5,-256,10,-31,17,-7
11480,2,-255,10,-33,16,-8
11485,2,-254,17,-33,16,-7
11490,3,-254,8,-36,15,-7
11495,3,-256,16,-36,13,-7
11500,3,-254,11,-37,10,-8
11505,1,-253,14,-40,11,-8
11510,1,-255,12,-42,10,-6
11515,5,-257,13,-40,9,-5
11520,2,-256,15,-37,8,-6
11525,3,-256,14,-36,9,-6
11530,1,-256,14,-37,11,-6
11535,1,-253,13,-36,13,-5
11540,2,-255,15,-35,14,-6
11545,4,-254,15,-34,13,-6
11550,1,-256,16,-34,13,-5
11555,2,-255,15,-35,12,-5
11560,1,-255,15,-35,10,-3
11565,1,-256,12,-35,9,-3
11570,6,-257,14,-36,7,-2
11575,2,-255,17,-36,8,-2
11580,4,-256,15,-34,7,-1
11585,3,-255,13,-34,8,0
11590,3,-254,8,-32,9,1
11595,3,-254,15,-30,9,1
11600,1,-255,13,-30,12,-1
11605,3,-256,10,-31,13,0
11610,1,-254,12,-30,13,-2
11615,4,-256,16,-29,13,-1
11620,2,-255,10,-31,13,-2
11625,3,-254,13,-31,12,-2
11630,3,-257,16,-33,12,-3
11635,3,-257,16,-32,13,-2
11640,3,-254,14,-32,12,-3
11645,2,-255,11,-34,10,-3
11650,1,-256,13,-35,10,-3
11655,3,-257,14,-35,10,-4
11660,1,-253,14,-35,9,-3
11665,1,-256,15,-33,9,-4
11670,1,-254,14,-33,9,-4
11675,2,-257,12,-33,7,-5
11680,4,-257,14,-33,7,-4
11685,3,-255,14,-33,7,-3
11690,3,-256,14,-32,7,-2
11695,1,-255,12,-32,7,-3
11700,2,-256,13,-30,7,-3
11705,5,-258,14,-30,9,-4
11710,3,-259,12,-30,9,-4
11715,6,-256,10,-30,10,-3
11720,3,-256,18,-27,9,-3
11725,1,-256,13,-27,9,-2
11730,3,-256,14,-25,9,-1
11735,3,-255,14,-25,8,0
11740,2,-257,11,-24,7,1
11745,1,-255,14,-23,7,1
11750,3,-254,16,-21,7,2
11755,2,-255,13,-21,6,1
11760,3,-255,12,-22,8,1
11765,3,-253,13,-23,10,1
11770,2,-255,16,-27,9,2
11775,1,-256,13,-29,11,1
11780,2,-255,16,-32,11,0
11785,3,-254,13,-35,11,0
11790,2,-255,13,-35,11,0
11795,4,-255,11,-39,8,0
11800,2,-256,11,-41,7,-1
11805,4,-256,12,-43,8,-1
11810,2,-255,11,-44,7,-1
11815,2,-257,15,-42,7,-2
11820,2,-255,17,-42,9,-2
11825,1,-253,14,-41,8,-4
11830,2,-256,14,-42,11,-4
11835,2,-256,14,-41,13,-5
11840,3,-256,14,-41,14,-6
11845,1,-255,13,-42,16,-6
11850,1,-254,16,-40,16,-7
11855,2,-254,14,-39,18,-8
11860,2,-255,13,-39,19,-8
11865,2,-256,14,-36,21,-9
11870,2,-256,13,-36,20,-10
11875,3,-256,14,-36,22,-10
11880,1,-253,12,-36,21,-11
11885,4,-254,11,-35,21,-11
11890,2,-256,13,-34,19,-9
11895,3,-255,16,-34,19,-10
11900,3,-255,16,-35,18,-9
11905,1,-255,13,-35,19,-9
11910,2,-255,14,-36,19,-8
11915,1,-255,17,-38,19,-7
11920,-7,-256,12,-39,20,-7
11925,1,-255,10,-41,20,-8
11930,3,-257,12,-43,21,-7
11935,3,-257,15,-44,21,-7
11940,4,-257,19,-44,22,-7
11945,1,-256,14,-44,23,-9
11950,1,-255,16,-44,22,-8
11955,2,-256,16,-43,22,-10
11960,3,-258,13,-41,23,-10
11965,3,-255,14,-40,25,-11
11970,-3,-250,8,-40,26,-10
11975,3,-254,11,-38,26,-10
11980,5,-256,12,-38,27,-10
11985,2,-255,14,-35,28,-11
11990,1,-255,12,-35,29,-11
11995,4,-254,18,-32,29,-12
