timestamp,acc_x,acc_y,acc_z,gyro_x,gyro_y,gyro_z
0,3,-231,-94,46,15,-12
5,1,-224,-95,48,16,-10
10,3,-227,-92,50,16,-12
15,2,-225,-89,50,17,-9
20,5,-228,-90,50,19,-9
25,4,-228,-94,50,21,-9
30,7,-225,-95,47,23,-8
35,5,-228,-91,45,26,-9
40,6,-226,-91,45,28,-8
45,4,-229,-98,42,31,-9
50,2,-223,-99,39,32,-9
55,2,-227,-99,36,32,-10
60,4,-227,-91,32,32,-10
65,6,-225,-97,28,30,-11
70,3,-221,-98,27,29,-10
75,1,-225,-95,24,28,-11
80,3,-224,-95,23,26,-11
85,5,-226,-93,21,25,-10
90,3,-223,-93,19,22,-11
95,6,-222,-96,17,20,-11
100,8,-226,-95,15,19,-11
105,7,-226,-96,13,20,-10
110,3,-223,-98,10,18,-10
115,7,-225,-95,5,18,-11
120,6,-223,-97,2,18,-12
125,6,-227,-94,-1,19,-10
130,3,-228,-95,-2,22,-11
135,6,-231,-95,-2,24,-11
140,6,-230,-95,-2,27,-10
145,5,-228,-98,-2,32,-8
150,9,-229,-97,-1,34,-8
155,6,-226,-98,-1,37,-8
160,8,-226,-94,-1,40,-7
165,9,-229,-94,-1,44,-8
170,8,-231,-96,-4,46,-8
175,9,-225,-100,-6,49,-8
180,5,-229,-99,-8,50,-8
185,9,-232,-107,-9,52,-8
190,8,-227,-97,-10,54,-10
195,10,-229,-97,-11,55,-9
200,7,-229,-99,-11,54,-11
205,7,-227,-101,-11,56,-12
210,9,-227,-100,-11,56,-13
215,7,-229,-96,-10,57,-14
220,9,-227,-97,-7,57,-15
225,7,-226,-97,-7,58,-15
230,8,-228,-96,-7,59,-14
235,6,-228,-96,-9,59,-14
240,5,-230,-98,-8,59,-15
245,9,-230,-96,-8,59,-14
250,8,-228,-97,-9,61,-14
255,7,-229,-96,-9,60,-13
260,3,-229,-99,-8,61,-13
265,6,-228,-97,-5,60,-14
270,7,-226,-96,-5,61,-13
275,7,-230,-96,-3,60,-14
280,6,-226,-100,-3,59,-13
285,4,-224,-97,-2,58,-13
290,10,-227,-96,-5,57,-13
295,4,-225,-100,-9,56,-13
300,5,-227,-98,-14,57,-14
305,7,-227,-96,-19,56,-15
310,5,-224,-97,-24,57,-16
315,5,-227,-100,-28,57,-14
320,4,-226,-99,-31,57,-14
325,5,-227,-99,-32,55,-15
330,7,-225,-103,-34,55,-17
335,5,-225,-100,-34,54,-18
340,5,-224,-101,-33,51,-19
345,4,-223,-100,-33,49,-19
350,10,-228,-104,-33,48,-19
355,8,-225,-102,-34,48,-18
360,7,-227,-103,-36,48,-18
365,8,-226,-102,-39,46,-17
370,8,-229,-101,-39,46,-18
375,7,-230,-102,-38,43,-17
380,7,-228,-102,-37,41,-16
385,7,-228,-100,-35,39,-17
390,8,-228,-100,-31,39,-15
395,10,-230,-102,-26,38,-18
400,10,-230,-101,-23,38,-18
405,8,-230,-111,-18,38,-16
410,9,-230,-102,-14,38,-17
415,13,-230,-101,-11,39,-16
420,13,-229,-103,-8,39,-16
425,8,-228,-101,-5,38,-15
430,12,-230,-103,-2,42,-15
435,11,-230,-98,4,46,-14
440,15,-233,-102,9,50,-15
445,9,-228,-101,14,51,-15
450,9,-230,-96,22,55,-15
455,10,-228,-102,27,55,-14
460,7,-230,-100,32,58,-14
465,9,-228,-102,36,57,-13
470,10,-226,-101,40,58,-15
475,10,-225,-102,42,57,-13
480,6,-227,-101,42,56,-14
485,10,-226,-99,43,56,-15
490,8,-224,-99,41,55,-15
495,7,-223,-104,36,53,-15
500,7,-222,-99,30,51,-15
505,7,-225,-101,26,50,-16
510,7,-222,-104,18,45,-17
515,3,-225,-104,14,40,-15
520,7,-223,-102,11,35,-16
525,4,-222,-101,9,28,-20
530,7,-224,-103,7,21,-18
535,7,-225,-101,4,16,-20
540,8,-223,-106,5,11,-19
545,8,-224,-106,6,8,-20
550,5,-225,-105,9,7,-20
555,9,-227,-102,13,7,-21
560,11,-224,-112,17,7,-19
565,10,-222,-105,19,10,-20
570,7,-225,-103,19,13,-20
575,7,-225,-104,17,13,-21
580,8,-227,-103,15,16,-20
585,10,-225,-102,11,17,-19
590,11,-227,-102,8,19,-20
595,8,-224,-104,4,22,-17
600,11,-226,-107,2,24,-15
605,10,-229,-107,1,24,-12
610,9,-228,-100,1,24,-11
615,11,-232,-105,1,24,-9
620,13,-229,-100,2,24,-8
625,6,-228,-101,6,24,-9
630,7,-229,-100,12,23,-8
635,8,-225,-104,19,22,-9
640,5,-227,-107,27,20,-10
645,7,-231,-104,32,19,-11
650,9,-230,-104,36,18,-10
655,7,-227,-100,39,15,-11
660,11,-227,-104,42,13,-11
665,11,-229,-104,41,11,-13
670,9,-223,-104,41,11,-13
675,8,-221,-105,39,10,-15
680,9,-222,-101,38,7,-17
685,7,-224,-104,34,6,-16
690,8,-224,-102,30,4,-14
695,7,-225,-104,26,2,-15
700,10,-225,-107,24,2,-16
705,9,-224,-103,22,2,-15
710,8,-226,-103,21,2,-14
715,9,-223,-107,21,1,-14
720,9,-226,-104,22,2,-12
725,4,-222,-106,23,2,-12
730,9,-226,-107,23,3,-11
735,6,-226,-103,25,5,-11
740,7,-225,-105,27,7,-9
745,7,-225,-104,28,8,-9
750,7,-223,-104,28,10,-9
755,7,-226,-105,31,13,-9
760,10,-227,-106,31,15,-10
765,10,-229,-105,32,14,-9
770,9,-226,-107,33,14,-10
775,5,-227,-102,34,14,-8
780,9,-226,-104,38,12,-10
785,5,-231,-104,40,11,-8
790,9,-228,-105,45,11,-8
795,8,-224,-107,47,12,-7
800,7,-225,-102,49,11,-7
805,11,-227,-100,49,12,-10
810,9,-225,-102,46,9,-10
815,7,-224,-102,44,7,-12
820,6,-222,-103,41,6,-10
825,10,-223,-103,38,7,-10
830,8,-226,-100,35,7,-10
835,8,-223,-101,31,7,-9
840,5,-222,-107,28,8,-9
845,9,-222,-102,25,9,-9
850,9,-223,-103,24,10,-11
855,6,-222,-110,22,9,-14
860,9,-222,-100,23,9,-13
865,11,-227,-101,21,10,-13
870,11,-223,-105,21,12,-12
875,10,-224,-105,21,12,-12
880,7,-223,-108,21,10,-12
885,7,-224,-105,23,10,-11
890,8,-223,-105,25,10,-10
895,10,-223,-113,26,12,-11
900,10,-224,-105,27,10,-13
905,7,-226,-104,29,12,-12
910,9,-225,-102,28,12,-11
915,6,-224,-106,29,13,-12
920,10,-224,-102,30,13,-8
925,7,-227,-106,31,15,-9
930,6,-227,-108,31,16,-9
935,7,-224,-105,30,18,-9
940,7,-224,-107,31,18,-9
945,8,-226,-101,33,17,-7
950,9,-226,-100,34,18,-8
955,8,-227,-103,39,17,-6
960,6,-228,-103,41,18,-7
965,6,-225,-106,44,18,-7
970,8,-226,-101,47,18,-5
975,9,-226,-106,48,16,-5
980,9,-223,-105,48,15,-6
985,7,-225,-105,47,14,-7
990,5,-226,-103,46,13,-8
995,10,-225,-102,46,13,-9
1000,5,-223,-106,43,13,-9
1005,6,-223,-99,44,15,-9
1010,7,-225,-105,42,15,-8
1015,10,-226,-105,43,17,-9
1020,7,-223,-106,45,19,-9
1025,11,-226,-107,47,21,-11
1030,9,-226,-100,50,23,-11
1035,8,-225,-102,54,25,-10
1040,9,-226,-102,55,24,-11
1045,11,-229,-106,57,22,-14
1050,10,-227,-100,56,24,-13
1055,6,-228,-106,58,23,-12
1060,9,-225,-102,58,22,-12
1065,9,-224,-102,60,21,-12
1070,7,-226,-106,64,21,-11
1075,8,-225,-104,66,21,-12
1080,7,-229,-104,69,23,-13
1085,9,-225,-108,70,24,-14
1090,11,-228,-105,72,25,-15
1095,7,-225,-109,73,27,-13
1100,10,-222,-105,73,30,-11
1105,7,-227,-106,70,31,-11
1110,4,-220,-110,68,32,-10
1115,8,-225,-104,67,32,-10
1120,7,-226,-108,66,33,-9
1125,9,-225,-108,66,34,-10
1130,8,-226,-101,66,32,-9
1135,11,-223,-102,64,31,-10
1140,10,-225,-107,63,32,-10
1145,8,-229,-103,63,29,-10
1150,10,-227,-107,60,27,-9
1155,8,-227,-109,62,25,-9
1160,9,-226,-102,62,24,-10
1165,9,-230,-106,62,23,-12
1170,7,-225,-103,62,23,-13
1175,9,-226,-104,63,22,-13
1180,8,-227,-101,63,22,-13
1185,8,-226,-102,62,19,-13
1190,11,-225,-104,63,21,-13
1195,6,-224,-103,62,23,-12
1200,11,-228,-101,61,24,-12
1205,11,-224,-105,60,27,-11
1210,9,-224,-101,60,29,-10
1215,8,-226,-104,59,29,-9
1220,4,-221,-104,59,32,-10
1225,10,-223,-105,58,33,-10
1230,10,-224,-104,56,32,-9
1235,7,-226,-103,55,32,-10
1240,8,-224,-103,54,30,-9
1245,10,-226,-105,53,31,-10
1250,11,-225,-101,53,30,-11
1255,13,-226,-106,53,28,-11
1260,8,-224,-102,52,26,-10
1265,7,-221,-103,51,23,-11
1270,9,-221,-102,50,20,-13
1275,8,-226,-101,48,16,-12
1280,5,-223,-96,48,13,-12
1285,5,-214,-117,47,12,-13
1290,8,-224,-94,47,11,-13
1295,5,-228,-99,46,12,-13
1300,10,-224,-108,47,14,-14
1305,8,-225,-107,46,15,-13
1310,8,-228,-103,45,16,-15
1315,9,-221,-109,44,17,-17
1320,26,-227,-109,44,18,-14
1325,4,-221,-112,44,20,-14
1330,5,-216,-109,43,22,-15
1335,7,-219,-98,41,24,-14
1340,10,-229,-104,39,23,-13
1345,8,-222,-113,38,23,-12
1350,8,-232,-104,38,25,-13
1355,16,-228,-118,38,24,-13
1360,8,-227,-105,39,23,-14
1365,6,-224,-103,41,23,-12
1370,8,-225,-107,44,21,-15
1375,9,-228,-104,48,20,-14
1380,6,-225,-102,51,18,-15
1385,7,-220,-97,55,16,-15
1390,5,-224,-107,58,16,-16
1395,7,-227,-104,60,14,-16
1400,11,-226,-106,62,13,-16
1405,10,-224,-104,62,14,-17
1410,12,-228,-104,63,15,-18
1415,11,-222,-107,64,15,-17
1420,10,-224,-105,64,15,-16
1425,8,-224,-103,62,14,-17
1430,8,-223,-102,62,13,-17
1435,11,-224,-101,61,12,-18
1440,11,-225,-101,60,10,-14
1445,14,-230,-103,59,10,-14
1450,10,-224,-104,59,8,-15
1455,7,-223,-104,58,6,-14
1460,8,-223,-103,58,4,-13
1465,6,-221,-104,58,2,-13
1470,10,-223,-101,58,0,-12
1475,10,-223,-100,57,-1,-13
1480,9,-221,-98,55,-1,-12
1485,8,-222,-105,52,-2,-12
1490,9,-224,-105,49,-3,-12
1495,8,-221,-106,46,-3,-13
1500,8,-222,-103,43,-5,-14
1505,7,-224,-106,40,-5,-14
1510,10,-226,-100,38,-5,-13
1515,9,-226,-101,35,-8,-13
1520,8,-224,-106,34,-7,-13
1525,9,-228,-107,34,-9,-13
1530,9,-227,-112,36,-11,-15
1535,11,-228,-106,40,-12,-14
1540,6,-226,-104,45,-12,-13
1545,8,-229,-103,49,-11,-14
1550,14,-228,-106,51,-11,-15
1555,7,-226,-104,53,-13,-15
1560,11,-222,-107,53,-13,-13
1565,11,-222,-106,53,-14,-14
1570,8,-223,-105,51,-16,-14
1575,8,-224,-104,50,-17,-15
1580,6,-225,-100,47,-17,-14
1585,7,-223,-103,45,-20,-13
1590,7,-221,-105,43,-22,-13
1595,13,-223,-107,41,-22,-14
1600,10,-226,-102,38,-22,-14
1605,8,-224,-103,36,-22,-13
1610,9,-225,-104,32,-24,-11
1615,11,-227,-108,32,-22,-11
1620,11,-225,-104,33,-21,-10
1625,8,-223,-103,33,-20,-10
1630,8,-225,-105,34,-20,-9
1635,9,-224,-102,36,-19,-9
1640,6,-228,-102,36,-19,-9
1645,6,-226,-108,37,-18,-8
1650,13,-223,-106,38,-17,-7
1655,11,-223,-107,41,-15,-6
1660,9,-228,-105,43,-14,-5
1665,8,-228,-103,46,-14,-6
1670,8,-228,-104,50,-13,-6
1675,10,-226,-101,52,-13,-4
1680,8,-225,-105,53,-10,-4
1685,8,-226,-104,55,-9,-4
1690,9,-229,-107,56,-8,-5
1695,9,-221,-108,57,-5,-5
1700,12,-225,-107,59,-3,-6
1705,9,-222,-104,59,-2,-4
1710,6,-227,-107,59,-1,-5
1715,10,-221,-105,60,1,-6
1720,9,-221,-104,58,0,-7
1725,9,-224,-105,55,2,-7
1730,7,-227,-108,56,3,-3
1735,8,-223,-108,54,3,-5
1740,10,-224,-106,54,2,-5
1745,10,-232,-102,55,2,-5
1750,9,-227,-106,57,3,-4
1755,10,-224,-104,60,3,-5
1760,9,-228,-108,63,4,-4
1765,11,-228,-103,68,5,-4
1770,8,-226,-101,72,5,-1
1775,7,-225,-105,74,7,-3
1780,9,-225,-105,78,8,-3
1785,8,-227,-102,78,10,-2
1790,10,-224,-106,80,11,-2
1795,9,-228,-103,80,13,-2
1800,13,-226,-99,83,14,-3
1805,8,-226,-102,83,14,-4
1810,8,-224,-99,81,16,-3
1815,9,-224,-100,78,16,-5
1820,13,-227,-100,74,15,-5
1825,11,-227,-106,71,15,-7
1830,10,-224,-104,67,17,-7
1835,11,-228,-103,64,17,-6
1840,9,-225,-107,64,17,-5
1845,10,-227,-106,65,18,-5
1850,10,-224,-102,69,20,-6
1855,5,-224,-105,72,21,-5
1860,6,-223,-104,77,20,-4
1865,5,-220,-106,80,22,-2
1870,8,-224,-106,82,22,-4
1875,5,-227,-104,82,20,-5
1880,5,-223,-108,83,18,-5
1885,9,-223,-106,82,17,-3
1890,7,-225,-108,82,15,-6
1895,6,-224,-102,83,13,-6
1900,6,-227,-104,81,11,-5
1905,8,-225,-103,82,9,-6
1910,7,-228,-102,83,7,-6
1915,6,-226,-105,85,7,-5
1920,5,-224,-103,86,8,-6
1925,5,-224,-101,88,10,-4
1930,7,-224,-99,90,12,-4
1935,7,-227,-101,91,14,-4
1940,7,-229,-104,93,14,-4
1945,9,-228,-104,94,15,-2
1950,6,-226,-109,93,15,-3
1955,9,-229,-105,92,16,-2
1960,5,-225,-104,90,15,-3
1965,7,-226,-102,90,17,-3
1970,6,-230,-104,90,18,-2
1975,8,-230,-105,93,18,-2
1980,7,-228,-102,95,20,-3
1985,14,-228,-106,100,20,-4
1990,7,-227,-102,103,20,-4
1995,8,-224,-102,105,20,-3
2000,8,-226,-104,107,21,-5
2005,8,-227,-103,108,19,-5
2010,9,-224,-104,107,18,-5
2015,11,-225,-105,108,19,-8
2020,8,-227,-101,108,19,-8
2025,9,-227,-103,109,16,-9
2030,11,-228,-103,111,13,-10
2035,12,-226,-100,114,12,-10
2040,3,-225,-106,118,8,-13
2045,9,-225,-103,122,6,-14
2050,5,-223,-104,125,3,-13
2055,7,-227,-101,129,-1,-11
2060,6,-226,-98,133,-3,-14
2065,7,-221,-102,135,-6,-14
2070,7,-223,-96,135,-7,-14
2075,7,-225,-96,131,-9,-15
2080,5,-225,-98,127,-9,-15
2085,5,-224,-99,122,-10,-15
2090,13,-231,-88,115,-11,-14
2095,6,-222,-101,107,-12,-15
2100,7,-224,-100,100,-11,-13
2105,7,-229,-106,92,-11,-13
2110,8,-224,-106,86,-8,-14
2115,7,-225,-100,84,-8,-13
2120,6,-228,-99,84,-9,-15
2125,8,-231,-103,86,-10,-14
2130,8,-231,-102,92,-12,-15
2135,11,-230,-107,99,-14,-15
2140,8,-227,-105,106,-15,-13
2145,10,-231,-106,115,-15,-11
2150,9,-232,-103,125,-15,-12
2155,11,-233,-100,138,-17,-8
2160,9,-233,-105,147,-15,-8
2165,9,-231,-103,156,-14,-7
2170,7,-230,-100,163,-15,-6
2175,7,-229,-97,166,-14,-3
2180,8,-228,-98,167,-13,-1
2185,5,-226,-101,166,-12,1
2190,11,-228,-101,165,-12,3
2195,10,-224,-101,162,-12,3
2200,8,-224,-98,157,-11,5
2205,8,-223,-99,154,-11,5
2210,6,-226,-95,152,-12,4
2215,6,-224,-96,150,-13,2
2220,7,-222,-99,150,-14,4
2225,7,-225,-96,148,-13,3
2230,5,-226,-96,148,-12,1
2235,9,-227,-100,145,-11,0
2240,7,-225,-97,142,-12,-2
2245,4,-226,-95,140,-13,-5
2250,6,-224,-93,134,-18,-6
2255,7,-230,-92,123,-24,-8
2260,4,-227,-98,118,-26,-10
2265,4,-225,-95,114,-27,-11
2270,6,-225,-101,107,-29,-11
2275,6,-225,-99,98,-30,-13
2280,5,-226,-97,90,-30,-12
2285,7,-225,-105,83,-30,-15
2290,9,-228,-96,76,-32,-15
2295,4,-229,-98,74,-32,-15
2300,7,-227,-103,74,-33,-16
2305,5,-230,-100,75,-34,-17
2310,5,-234,-103,80,-35,-15
2315,8,-228,-101,86,-35,-16
2320,8,-230,-97,92,-34,-16
2325,5,-228,-95,97,-33,-18
2330,8,-227,-94,102,-32,-16
2335,7,-230,-97,104,-31,-16
2340,8,-227,-93,106,-29,-17
2345,4,-226,-98,107,-30,-17
2350,6,-225,-92,98,-33,-19
2355,8,-231,-93,96,-34,-16
2360,6,-228,-99,97,-33,-15
2365,12,-226,-98,98,-32,-15
2370,6,-228,-92,94,-30,-15
2375,6,-228,-93,93,-30,-15
2380,6,-227,-97,91,-28,-14
2385,7,-229,-93,86,-27,-14
2390,7,-227,-94,81,-25,-13
2395,7,-227,-95,78,-23,-15
2400,4,-231,-100,72,-20,-16
2405,6,-227,-91,67,-19,-15
2410,10,-228,-94,63,-19,-18
2415,8,-230,-98,59,-18,-21
2420,7,-228,-97,51,-16,-23
2425,7,-227,-97,45,-14,-24
2430,7,-231,-99,38,-13,-25
2435,7,-227,-97,32,-13,-22
2440,6,-230,-97,30,-15,-22
2445,7,-231,-98,33,-14,-23
2450,8,-234,-102,40,-14,-23
2455,9,-229,-100,48,-16,-21
2460,9,-231,-97,59,-15,-21
2465,7,-231,-97,69,-16,-17
2470,11,-229,-97,76,-15,-16
2475,4,-229,-100,80,-16,-15
2480,9,-226,-96,80,-17,-13
2485,8,-227,-94,80,-17,-11
2490,8,-229,-95,76,-18,-11
2495,6,-228,-95,73,-18,-11
2500,9,-228,-96,67,-18,-12
2505,6,-227,-93,63,-16,-12
2510,4,-225,-93,58,-16,-12
2515,8,-226,-94,55,-16,-13
2520,5,-224,-96,52,-18,-14
2525,6,-224,-98,49,-18,-16
2530,5,-222,-91,45,-18,-17
2535,4,-226,-96,41,-19,-18
2540,5,-229,-95,38,-19,-17
2545,4,-224,-98,34,-17,-18
2550,8,-228,-91,31,-16,-21
2555,4,-227,-97,28,-14,-21
2560,6,-227,-94,26,-14,-23
2565,7,-225,-90,25,-13,-23
2570,6,-229,-94,26,-12,-22
2575,6,-229,-95,27,-13,-20
2580,8,-232,-94,31,-12,-18
2585,1,-228,-97,34,-9,-18
2590,11,-231,-97,37,-7,-18
2595,8,-231,-96,40,-5,-20
2600,5,-226,-96,44,-1,-19
2605,8,-230,-96,48,3,-18
2610,5,-230,-103,49,6,-18
2615,6,-225,-100,54,9,-17
2620,8,-230,-93,56,13,-16
2625,9,-229,-98,57,14,-16
2630,6,-228,-100,59,16,-16
2635,4,-226,-98,62,16,-17
2640,7,-230,-97,63,17,-16
2645,8,-230,-96,62,15,-15
2650,10,-227,-96,62,14,-14
2655,6,-230,-96,62,13,-15
2660,4,-230,-98,62,12,-14
2665,5,-227,-97,60,12,-14
2670,6,-228,-98,60,10,-13
2675,9,-224,-94,59,9,-14
2680,9,-229,-92,56,10,-15
2685,8,-229,-95,57,11,-14
2690,10,-230,-98,54,12,-15
2695,7,-228,-93,54,13,-13
2700,9,-229,-98,54,14,-13
2705,9,-228,-97,54,16,-13
2710,6,-227,-92,53,18,-13
2715,7,-226,-94,52,20,-15
2720,8,-223,-92,51,23,-14
2725,6,-227,-96,48,24,-13
2730,11,-227,-94,44,24,-14
2735,5,-228,-101,39,25,-15
2740,7,-225,-95,35,23,-15
2745,4,-218,-95,32,23,-15
2750,5,-228,-95,31,21,-16
2755,6,-229,-91,30,21,-16
2760,8,-230,-96,31,19,-17
2765,3,-225,-98,33,20,-17
2770,5,-229,-99,37,21,-16
2775,7,-230,-94,40,21,-15
2780,7,-231,-98,43,23,-15
2785,7,-227,-98,43,26,-16
2790,6,-227,-94,44,31,-15
2795,8,-228,-96,43,33,-12
2800,6,-227,-98,40,33,-11
2805,8,-228,-95,35,34,-12
2810,5,-227,-93,30,33,-11
2815,5,-226,-93,24,33,-11
2820,6,-223,-99,19,33,-10
2825,7,-227,-96,15,32,-11
2830,6,-226,-97,12,32,-10
2835,4,-226,-96,11,33,-10
2840,7,-232,-96,13,31,-11
2845,7,-231,-97,15,33,-11
2850,5,-232,-91,19,31,-13
2855,6,-231,-92,23,29,-12
2860,5,-228,-99,29,26,-13
2865,6,-228,-94,36,24,-10
2870,5,-229,-100,41,22,-10
2875,7,-230,-97,46,21,-9
2880,6,-226,-96,50,20,-8
2885,9,-229,-101,53,20,-8
2890,9,-231,-97,54,19,-7
2895,11,-232,-98,55,19,-5
2900,5,-225,-99,53,22,-3
2905,7,-227,-97,52,22,-3
2910,6,-231,-93,50,23,-3
2915,7,-225,-98,47,24,-3
2920,3,-224,-95,43,24,-3
2925,5,-222,-95,39,24,-3
2930,4,-222,-96,35,23,-6
2935,1,-224,-93,32,22,-5
2940,7,-224,-93,30,22,-7
2945,5,-224,-97,23,22,-9
2950,4,-225,-94,19,21,-9
2955,4,-222,-99,15,19,-11
2960,5,-227,-91,11,14,-14
2965,7,-227,-97,7,10,-14
2970,3,-223,-99,5,7,-14
2975,6,-222,-96,2,6,-14
2980,3,-221,-98,-3,4,-15
2985,3,-223,-98,-9,5,-13
2990,7,-223,-101,-16,5,-12
2995,10,-224,-100,-23,6,-11
3000,6,-221,-99,-27,8,-9
3005,5,-223,-95,-33,11,-9
3010,7,-224,-94,-39,15,-9
3015,8,-221,-97,-44,17,-9
3020,9,-226,-101,-44,20,-11
3025,11,-226,-101,-46,24,-11
3030,9,-226,-102,-46,26,-11
3035,11,-224,-99,-49,27,-13
3040,12,-225,-100,-48,29,-14
3045,9,-225,-97,-51,32,-15
3050,11,-228,-100,-54,32,-18
3055,10,-226,-100,-56,35,-19
3060,8,-224,-95,-58,33,-19
3065,8,-227,-103,-59,31,-19
3070,8,-222,-101,-60,33,-20
3075,6,-228,-105,-60,32,-21
3080,9,-226,-103,-64,29,-22
3085,6,-226,-101,-62,28,-23
3090,4,-224,-105,-61,27,-25
3095,6,-225,-105,-61,26,-26
3100,4,-226,-103,-58,24,-25
3105,5,-229,-103,-56,23,-24
3110,8,-231,-104,-53,25,-23
3115,6,-228,-100,-49,26,-22
3120,9,-229,-96,-44,27,-20
3125,3,-228,-98,-40,30,-18
3130,5,-227,-100,-38,32,-18
3135,6,-227,-98,-38,34,-15
3140,7,-228,-101,-38,36,-14
3145,5,-229,-101,-38,38,-15
3150,10,-229,-102,-39,41,-12
3155,4,-226,-100,-40,41,-13
3160,5,-229,-98,-41,42,-12
3165,6,-231,-105,-44,39,-12
3170,6,-230,-103,-45,39,-12
3175,6,-229,-101,-47,37,-12
3180,8,-232,-104,-47,36,-11
3185,9,-229,-102,-47,33,-14
3190,9,-227,-106,-47,31,-16
3195,8,-225,-101,-45,30,-17
3200,9,-229,-105,-42,30,-17
3205,8,-227,-101,-37,27,-18
3210,6,-226,-103,-33,25,-19
3215,9,-227,-103,-28,22,-21
3220,9,-226,-102,-24,20,-23
3225,10,-227,-108,-23,16,-23
3230,6,-222,-98,-23,14,-23
3235,7,-230,-106,-23,15,-23
3240,8,-224,-104,-27,16,-24
3245,8,-226,-105,-30,15,-24
3250,7,-223,-101,-34,15,-24
3255,6,-223,-104,-38,15,-24
3260,5,-220,-106,-40,14,-24
3265,6,-218,-107,-43,12,-25
3270,6,-218,-106,-46,7,-26
3275,7,-219,-104,-48,4,-28
3280,5,-215,-109,-51,0,-31
3285,7,-212,-105,-54,-5,-31
3290,0,-207,-109,-59,-11,-33
3295,1,-206,-111,-64,-18,-35
3300,2,-207,-109,-71,-23,-36
3305,1,-200,-111,-81,-31,-39
3310,0,-199,-113,-92,-38,-39
3315,0,-194,-115,-106,-44,-41
3320,-1,-191,-118,-123,-50,-41
3325,1,-189,-122,-142,-52,-39
3330,3,-183,-114,-163,-55,-35
3335,3,-185,-118,-186,-51,-30
3340,5,-179,-113,-209,-45,-25
3345,8,-186,-115,-235,-36,-19
3350,8,-173,-117,-262,-24,-15
3355,10,-170,-118,-289,-9,-13
3360,12,-168,-116,-316,6,-12
3365,14,-165,-114,-339,20,-10
3370,17,-165,-117,-367,36,-13
3375,16,-162,-120,-393,53,-15
3380,24,-161,-118,-419,68,-18
3385,22,-162,-117,-446,86,-25
3390,22,-163,-116,-473,101,-29
3395,23,-159,-118,-497,116,-35
3400,19,-158,-122,-520,133,-40
3405,23,-158,-114,-540,147,-47
3410,25,-158,-124,-560,161,-50
3415,24,-158,-122,-577,176,-57
3420,23,-158,-123,-596,191,-63
3425,22,-157,-121,-614,203,-70
3430,20,-155,-123,-633,213,-76
3435,19,-157,-122,-651,222,-82
3440,15,-152,-122,-666,226,-87
3445,19,-156,-116,-680,229,-90
3450,17,-156,-123,-689,235,-93
3455,11,-158,-118,-696,241,-97
3460,13,-157,-122,-701,244,-100
3465,14,-160,-119,-704,248,-106
3470,14,-159,-119,-708,256,-111
3475,18,-161,-119,-710,267,-116
3480,22,-160,-121,-715,284,-120
3485,19,-159,-125,-723,307,-123
3490,28,-162,-127,-731,335,-124
3495,27,-159,-131,-744,365,-122
3500,31,-161,-133,-757,400,-116
3505,34,-162,-134,-774,438,-107
3510,36,-163,-134,-793,481,-101
3515,35,-163,-135,-810,524,-90
3520,34,-166,-143,-821,571,-80
3525,37,-169,-147,-831,613,-67
3530,37,-171,-150,-840,651,-53
3535,33,-170,-152,-848,684,-34
3540,33,-167,-156,-859,708,-12
3545,32,-168,-158,-875,722,12
3550,30,-170,-161,-899,724,36
3555,32,-169,-160,-932,715,57
3560,34,-165,-168,-966,698,66
3565,25,-172,-169,-1003,675,65
3570,27,-173,-166,-1047,651,62
3575,26,-173,-178,-1091,631,60
3580,29,-173,-181,-1135,603,60
3585,27,-178,-181,-1176,570,58
3590,24,-178,-184,-1207,530,54
3595,16,-175,-178,-1230,484,45
3600,21,-176,-182,-1241,439,32
3605,19,-177,-177,-1245,394,16
3610,20,-175,-179,-1242,352,-6
3615,17,-177,-172,-1236,312,-24
3620,12,-171,-169,-1231,277,-40
3625,10,-170,-166,-1225,244,-53
3630,13,-168,-165,-1218,217,-65
3635,15,-171,-162,-1210,189,-71
3640,10,-166,-158,-1199,173,-75
3645,11,-167,-161,-1188,166,-75
3650,16,-171,-157,-1178,168,-71
3655,13,-165,-158,-1167,173,-67
3660,10,-160,-157,-1153,185,-60
3665,14,-165,-159,-1132,200,-53
3670,7,-162,-163,-1102,219,-43
3675,11,-167,-162,-1062,241,-31
3680,11,-168,-164,-1017,264,-17
3685,8,-165,-163,-969,289,0
3690,11,-163,-166,-925,312,19
3695,13,-165,-173,-889,332,40
3700,11,-164,-176,-860,346,63
3705,11,-162,-177,-838,353,89
3710,10,-165,-177,-820,350,114
3715,12,-169,-184,-805,338,138
3720,13,-172,-186,-800,316,162
3725,12,-179,-187,-798,282,182
3730,14,-173,-191,-805,239,202
3735,13,-173,-193,-814,187,220
3740,15,-177,-196,-827,130,237
3745,16,-180,-199,-838,69,251
3750,15,-182,-205,-848,9,260
3755,14,-184,-203,-855,-50,264
3760,15,-191,-209,-859,-104,260
3765,13,-192,-207,-855,-154,248
3770,16,-196,-211,-841,-198,224
3775,15,-201,-215,-813,-232,194
3780,17,-205,-222,-771,-251,159
3785,18,-209,-216,-717,-255,122
3790,23,-212,-213,-656,-248,87
3795,23,-211,-215,-589,-230,53
3800,30,-210,-217,-521,-203,17
3805,32,-205,-215,-446,-171,-16
3810,37,-199,-218,-362,-135,-38
3815,39,-193,-218,-272,-106,-51
3820,42,-190,-221,-184,-79,-59
3825,44,-187,-223,-106,-59,-61
3830,48,-178,-222,-38,-41,-56
3835,52,-173,-222,21,-26,-45
3840,52,-170,-218,71,-15,-29
3845,54,-165,-214,111,-8,-7
3850,51,-160,-218,144,-4,19
3855,54,-156,-214,174,-3,48
3860,56,-153,-212,200,-3,76
3865,53,-147,-214,219,-7,102
3870,57,-144,-206,238,-13,131
3875,50,-142,-206,250,-23,153
3880,51,-137,-208,257,-35,174
3885,42,-132,-204,258,-48,188
3890,50,-134,-203,253,-60,200
3895,47,-131,-207,243,-74,207
3900,44,-129,-205,231,-86,207
3905,46,-130,-200,215,-94,205
3910,39,-129,-198,197,-105,196
3915,33,-128,-202,177,-109,186
3920,33,-131,-198,160,-113,172
3925,31,-128,-196,143,-115,155
3930,28,-129,-198,128,-113,134
3935,23,-141,-201,120,-112,114
3940,25,-138,-192,113,-113,93
3945,13,-139,-196,108,-114,74
3950,14,-143,-196,104,-116,55
3955,10,-143,-206,101,-118,39
3960,11,-145,-202,97,-116,26
3965,8,-148,-206,94,-116,15
3970,11,-150,-207,93,-114,6
3975,5,-155,-212,101,-117,-3
3980,8,-155,-216,113,-121,-12
3985,11,-158,-218,123,-122,-23
3990,8,-154,-219,134,-120,-33
3995,8,-154,-219,145,-114,-39
4000,6,-158,-223,161,-111,-40
4005,13,-161,-221,180,-110,-46
4010,13,-164,-225,203,-112,-49
4015,16,-163,-223,228,-114,-52
4020,15,-167,-219,255,-120,-58
4025,21,-170,-218,283,-131,-59
4030,14,-171,-217,310,-146,-66
4035,21,-176,-217,334,-165,-75
4040,19,-175,-218,345,-185,-90
4045,21,-180,-217,355,-204,-100
4050,20,-185,-221,361,-222,-113
4055,19,-184,-220,359,-237,-126
4060,18,-189,-215,350,-256,-134
4065,26,-190,-214,333,-277,-137
4070,19,-192,-214,302,-295,-142
4075,23,-189,-216,262,-311,-141
4080,16,-192,-221,213,-327,-142
4085,31,-200,-222,156,-341,-145
4090,23,-200,-228,94,-343,-160
4095,27,-198,-225,27,-339,-154
4100,30,-195,-231,-36,-337,-153
4105,17,-191,-237,-90,-333,-161
4110,22,-190,-244,-126,-339,-165
4115,32,-188,-242,-152,-346,-159
4120,27,-185,-245,-174,-350,-164
4125,24,-179,-247,-182,-346,-145
4130,33,-191,-249,-178,-341,-115
4135,16,-173,-250,-172,-333,-120
4140,27,-176,-254,-154,-324,-119
4145,24,-171,-267,-122,-312,-123
4150,5,-163,-264,-92,-288,-127
4155,28,-166,-264,-66,-267,-72
4160,24,-165,-268,-45,-233,-57
4165,7,-162,-266,-34,-188,-60
4170,16,-163,-262,-13,-150,-32
4175,15,-164,-265,24,-118,15
4180,17,-167,-258,74,-78,68
4185,17,-170,-250,144,-39,116
4190,16,-173,-246,227,-3,156
4195,20,-176,-234,307,28,192
4200,20,-177,-230,383,58,220
4205,17,-167,-223,444,86,243
4210,22,-166,-217,497,113,263
4215,19,-165,-213,546,138,275
4220,20,-161,-202,587,157,290
4225,19,-156,-199,613,170,299
4230,21,-158,-192,630,176,300
4235,13,-160,-185,637,178,295
4240,10,-164,-184,637,176,285
4245,10,-166,-174,637,169,270
4250,12,-168,-162,637,159,250
4255,3,-171,-161,641,147,227
4260,3,-174,-157,645,129,197
4265,4,-181,-152,650,109,166
4270,-2,-181,-141,659,84,137
4275,-3,-181,-140,671,59,106
4280,-5,-184,-141,687,34,81
4285,-11,-185,-135,712,9,58
4290,-13,-185,-137,742,-15,36
4295,-20,-187,-135,776,-39,14
4300,-16,-190,-135,814,-60,-2
4305,-16,-186,-139,852,-77,-16
4310,-15,-183,-144,894,-89,-23
4315,-15,-182,-140,935,-95,-26
4320,-14,-184,-143,974,-95,-26
4325,-10,-182,-149,1012,-94,-24
4330,-4,-181,-156,1045,-91,-20
4335,-5,-183,-157,1071,-87,-18
4340,-7,-177,-156,1086,-84,-13
4345,-3,-179,-160,1088,-80,-9
4350,-2,-179,-160,1078,-77,-6
4355,-4,-174,-166,1054,-73,-3
4360,-6,-174,-159,1017,-68,0
4365,0,-176,-170,973,-65,6
4370,-4,-174,-172,933,-61,9
4375,4,-178,-171,896,-55,14
4380,0,-184,-176,869,-46,16
4385,3,-183,-177,855,-37,22
4390,5,-184,-178,857,-27,31
4395,5,-187,-178,870,-14,37
4400,6,-187,-177,894,-3,45
4405,8,-188,-179,927,6,52
4410,8,-190,-178,959,13,58
4415,8,-191,-175,990,21,67
4420,6,-192,-172,1014,27,71
4425,6,-191,-170,1031,34,77
4430,7,-189,-168,1040,38,83
4435,9,-192,-164,1042,42,90
4440,10,-193,-155,1036,47,94
4445,8,-194,-153,1025,55,99
4450,10,-197,-145,1010,62,103
4455,9,-195,-138,993,71,103
4460,9,-197,-138,974,81,100
4465,8,-199,-128,951,90,96
4470,7,-197,-128,929,97,91
4475,5,-199,-124,906,105,81
4480,4,-203,-114,883,109,69
4485,1,-203,-117,859,110,54
4490,2,-205,-113,836,111,38
4495,-1,-203,-115,816,107,21
4500,0,-209,-112,796,101,3
4505,0,-206,-111,777,94,-12
4510,-1,-203,-115,762,84,-29
4515,0,-204,-118,747,73,-43
4520,-1,-211,-115,733,61,-57
4525,1,-210,-117,719,50,-69
4530,2,-208,-114,706,37,-77
4535,0,-209,-120,690,27,-85
4540,8,-218,-120,678,20,-88
4545,2,-208,-122,668,14,-92
4550,2,-210,-122,661,9,-92
4555,3,-211,-125,657,9,-90
4560,5,-213,-126,654,10,-89
4565,6,-215,-122,654,14,-84
4570,8,-214,-123,658,19,-78
4575,8,-215,-126,664,26,-70
4580,14,-217,-127,671,34,-62
4585,11,-215,-123,678,44,-54
4590,13,-213,-128,680,50,-49
4595,12,-220,-130,681,56,-42
4600,15,-215,-124,679,63,-37
4605,18,-214,-126,674,66,-29
4610,17,-212,-126,668,69,-21
4615,17,-209,-124,657,71,-16
4620,19,-209,-124,646,71,-10
4625,17,-214,-124,633,66,-6
4630,18,-213,-123,618,60,-2
4635,20,-216,-120,605,55,1
4640,18,-214,-117,596,51,3
4645,18,-213,-119,589,47,3
4650,18,-221,-121,587,47,3
4655,17,-217,-117,591,46,-1
4660,17,-217,-109,598,48,-2
4665,16,-219,-110,606,49,-7
4670,19,-219,-109,615,50,-14
4675,16,-221,-107,622,52,-18
4680,18,-220,-101,626,56,-23
4685,20,-225,-106,624,59,-31
4690,21,-219,-96,620,62,-36
4695,19,-220,-98,611,64,-43
4700,17,-218,-101,596,66,-46
4705,14,-224,-103,578,69,-51
4710,14,-220,-98,557,72,-54
4715,14,-220,-98,534,74,-55
4720,15,-221,-101,510,78,-55
4725,14,-221,-99,488,83,-56
4730,13,-221,-101,468,86,-57
4735,11,-223,-100,452,87,-53
4740,10,-219,-96,438,85,-52
4745,8,-222,-101,429,82,-50
4750,6,-222,-100,426,75,-45
4755,10,-224,-91,427,69,-42
4760,8,-222,-98,428,62,-39
4765,8,-221,-96,434,54,-39
4770,7,-226,-97,438,46,-36
4775,7,-226,-93,442,39,-34
4780,7,-222,-93,448,33,-33
4785,8,-224,-92,450,27,-31
4790,7,-220,-93,449,25,-33
4795,9,-222,-92,449,21,-35
4800,11,-225,-92,444,20,-40
4805,11,-222,-92,437,16,-43
4810,9,-224,-93,425,17,-47
4815,16,-227,-90,413,17,-48
4820,14,-225,-88,396,17,-50
4825,11,-222,-94,376,17,-53
4830,15,-230,-87,355,17,-56
4835,13,-226,-87,335,17,-58
4840,15,-226,-89,313,14,-59
4845,14,-232,-86,293,13,-61
4850,13,-230,-84,278,12,-60
4855,14,-228,-88,267,11,-60
4860,14,-233,-81,261,11,-58
4865,13,-232,-90,258,13,-54
4870,12,-234,-83,258,12,-47
4875,11,-234,-88,262,13,-43
4880,12,-231,-85,268,12,-38
4885,10,-235,-85,274,12,-35
4890,10,-232,-84,282,14,-28
4895,10,-232,-84,292,13,-23
4900,11,-235,-87,299,15,-22
4905,9,-229,-84,308,16,-19
4910,7,-231,-84,312,18,-16
4915,7,-229,-86,314,18,-15
4920,5,-230,-85,313,21,-10
4925,10,-231,-87,306,22,-6
4930,6,-227,-87,295,20,-3
4935,6,-224,-87,281,17,1
4940,7,-223,-87,261,13,2
4945,7,-222,-89,234,9,4
4950,6,-217,-89,204,6,4
4955,7,-219,-88,173,5,5
4960,4,-220,-88,142,4,2
4965,8,-223,-88,109,6,0
4970,9,-223,-88,82,8,-4
4975,16,-221,-89,57,10,-8
4980,10,-225,-84,39,11,-11
4985,10,-229,-88,29,13,-12
4990,10,-228,-91,29,13,-13
4995,10,-230,-85,34,12,-15
5000,12,-231,-86,42,10,-13
5005,14,-233,-88,52,7,-12
5010,16,-233,-89,64,3,-12
5015,11,-233,-85,74,1,-12
5020,15,-235,-83,81,-2,-9
5025,9,-233,-79,87,-4,-6
5030,12,-235,-89,89,-5,-6
5035,12,-233,-80,91,-7,-3
5040,11,-231,-85,89,-6,-2
5045,12,-231,-84,85,-6,-1
5050,13,-229,-84,79,-5,1
5055,15,-231,-83,73,-4,0
5060,13,-232,-84,66,-2,0
5065,11,-230,-82,59,-2,1
5070,14,-232,-84,53,-2,1
5075,12,-230,-92,48,-3,1
5080,14,-225,-91,43,-5,-1
5085,16,-234,-86,40,-6,0
5090,14,-229,-88,38,-5,-2
5095,12,-230,-86,37,-7,-2
5100,11,-227,-87,39,-8,-1
5105,12,-229,-83,39,-12,1
5110,10,-230,-89,40,-13,0
5115,13,-233,-86,43,-15,0
5120,12,-234,-85,44,-13,-1
5125,12,-231,-84,44,-14,0
5130,12,-232,-89,40,-16,-1
5135,13,-232,-87,35,-12,1
5140,9,-228,-81,30,-13,0
5145,9,-229,-90,24,-9,1
5150,12,-231,-92,18,-7,0
5155,10,-232,-95,12,-6,0
5160,11,-231,-92,9,-4,-1
5165,11,-230,-91,4,-2,-2
5170,11,-229,-90,2,1,-2
5175,10,-231,-91,1,2,-2
5180,11,-233,-92,4,1,-2
5185,3,-230,-89,9,1,-3
5190,9,-235,-92,17,2,1
5195,10,-229,-93,25,1,1
5200,9,-233,-87,32,1,3
5205,7,-229,-90,40,1,4
5210,11,-233,-96,45,1,4
5215,9,-230,-90,48,2,6
5220,9,-230,-93,51,2,7
5225,12,-229,-90,49,2,9
5230,12,-230,-90,46,3,8
5235,15,-231,-94,40,4,11
5240,11,-228,-99,35,6,10
5245,7,-229,-93,27,6,9
5250,12,-227,-96,21,7,9
5255,13,-232,-92,15,8,10
5260,10,-230,-90,12,9,11
5265,12,-230,-91,8,11,12
5270,12,-230,-96,7,13,11
5275,11,-231,-96,8,16,13
5280,12,-235,-94,9,16,12
5285,10,-231,-92,14,21,15
5290,12,-233,-89,18,23,16
5295,8,-230,-91,22,23,15
5300,12,-234,-79,25,23,16
5305,8,-231,-89,28,25,17
5310,12,-234,-90,30,25,16
5315,10,-230,-92,32,26,18
5320,8,-231,-91,32,24,18
5325,10,-229,-91,32,22,17
5330,9,-231,-91,30,20,17
5335,14,-232,-94,27,18,16
5340,10,-231,-89,26,17,15
5345,8,-232,-92,22,16,14
5350,9,-231,-88,17,16,12
5355,11,-233,-87,14,14,11
5360,11,-232,-87,8,15,8
5365,6,-227,-84,5,14,7
5370,9,-228,-90,3,13,6
5375,9,-228,-90,-1,12,5
5380,6,-229,-89,-2,14,4
5385,8,-230,-89,-1,13,4
5390,8,-229,-90,-1,14,5
5395,10,-230,-92,3,14,3
5400,13,-235,-89,6,14,4
5405,6,-230,-88,9,14,3
5410,8,-222,-95,13,14,2
5415,9,-234,-96,19,13,2
5420,8,-231,-92,23,12,1
5425,11,-232,-92,27,12,1
5430,9,-233,-91,30,10,0
5435,8,-231,-94,33,10,-1
5440,10,-232,-92,34,10,-1
5445,7,-231,-88,35,9,-1
5450,6,-231,-93,33,7,-2
5455,8,-231,-94,33,6,-1
5460,11,-233,-98,32,4,-2
5465,10,-232,-94,31,2,-3
5470,9,-234,-96,31,-2,-3
5475,5,-227,-91,32,-1,-3
5480,6,-233,-92,32,-2,-3
5485,6,-229,-94,34,-1,-3
5490,8,-230,-91,36,-1,-4
5495,9,-229,-91,37,0,-4
5500,6,-229,-91,40,2,-5
5505,7,-230,-91,40,4,-5
5510,8,-229,-91,42,5,-4
5515,8,-229,-89,40,8,-5
5520,6,-231,-94,38,8,-7
5525,8,-230,-92,34,8,-7
5530,9,-231,-92,31,8,-8
5535,6,-229,-89,29,9,-9
5540,10,-228,-91,25,9,-10
5545,10,-231,-88,25,9,-10
5550,9,-231,-92,23,12,-10
5555,5,-229,-86,23,12,-9
5560,6,-226,-89,23,12,-10
5565,8,-230,-89,23,12,-9
5570,9,-232,-88,24,9,-9
5575,8,-232,-95,26,8,-8
5580,8,-233,-91,28,5,-7
5585,6,-231,-93,31,3,-7
5590,6,-229,-89,30,-1,-8
5595,8,-231,-88,31,-3,-8
5600,6,-226,-93,30,-5,-9
5605,6,-228,-92,29,-6,-8
5610,3,-226,-92,29,-8,-10
5615,4,-226,-87,27,-8,-10
5620,9,-230,-91,27,-7,-12
5625,5,-228,-91,26,-7,-11
5630,6,-232,-88,25,-5,-13
5635,7,-230,-88,22,-3,-14
5640,10,-231,-93,22,-2,-15
5645,7,-232,-88,20,1,-17
5650,9,-231,-92,19,3,-17
5655,8,-232,-91,20,4,-17
5660,9,-229,-93,21,6,-17
5665,10,-231,-91,22,9,-19
5670,7,-229,-98,23,12,-17
5675,12,-233,-94,25,15,-15
5680,8,-224,-94,25,16,-12
5685,4,-228,-99,28,16,-14
5690,10,-230,-97,31,17,-12
5695,11,-232,-95,33,17,-10
5700,10,-230,-94,35,14,-9
5705,7,-229,-92,39,14,-9
5710,11,-231,-91,40,12,-10
5715,10,-228,-94,39,13,-10
5720,10,-232,-95,36,13,-10
5725,10,-227,-93,33,12,-12
5730,6,-229,-92,26,13,-13
5735,6,-228,-96,20,15,-15
5740,4,-224,-92,14,16,-17
5745,8,-228,-94,8,16,-19
5750,7,-228,-96,3,17,-21
5755,8,-230,-95,-3,17,-24
5760,9,-230,-97,-8,18,-26
5765,9,-227,-96,-9,19,-30
5770,10,-230,-94,-7,18,-30
5775,10,-231,-99,-3,19,-31
5780,9,-229,-97,4,18,-29
5785,5,-227,-96,14,17,-25
5790,7,-226,-101,24,18,-22
5795,10,-226,-96,31,18,-19
5800,10,-225,-98,41,20,-15
5805,11,-229,-95,48,22,-13
5810,13,-228,-98,54,24,-11
5815,7,-226,-97,56,25,-8
5820,11,-227,-101,56,28,-8
5825,10,-225,-96,52,30,-5
5830,10,-226,-96,46,33,-8
5835,14,-228,-96,35,35,-8
5840,14,-231,-97,24,36,-9
5845,10,-229,-91,14,38,-12
5850,11,-230,-94,4,40,-14
5855,9,-227,-96,-5,40,-17
5860,8,-227,-97,-10,41,-20
5865,11,-228,-95,-14,40,-22
5870,9,-231,-96,-14,39,-24
5875,12,-232,-96,-9,38,-23
5880,10,-232,-96,-2,36,-25
5885,11,-231,-97,6,34,-24
5890,9,-230,-98,16,29,-20
5895,10,-232,-104,25,27,-17
5900,12,-230,-89,34,24,-16
5905,7,-229,-96,39,23,-15
5910,9,-226,-95,44,21,-13
5915,11,-226,-99,45,21,-13
5920,11,-227,-99,42,23,-12
5925,8,-223,-98,37,24,-10
5930,10,-229,-95,33,26,-9
5935,9,-227,-96,27,28,-8
5940,12,-226,-95,21,31,-6
5945,8,-227,-93,15,35,-4
5950,11,-226,-101,11,38,-5
5955,14,-222,-100,8,39,-4
5960,12,-226,-100,7,39,-4
5965,10,-228,-99,10,41,-3
5970,10,-228,-100,14,40,-1
5975,10,-229,-96,17,40,-2
5980,11,-228,-103,23,39,-2
5985,11,-230,-99,28,38,0
5990,10,-228,-101,37,35,0
5995,8,-228,-100,43,33,0
6000,14,-233,-100,47,29,-2
6005,9,-226,-97,51,28,0
6010,8,-236,-97,52,24,0
6015,9,-227,-94,52,22,0
6020,8,-228,-97,50,20,-1
6025,8,-227,-95,46,19,-1
6030,12,-228,-101,44,18,0
6035,8,-226,-99,39,17,0
6040,10,-228,-96,38,15,1
6045,9,-229,-97,34,16,1
6050,7,-225,-93,33,17,3
6055,14,-231,-94,31,18,1
6060,10,-231,-98,31,19,2
6065,7,-230,-96,30,19,3
6070,7,-227,-101,28,21,2
6075,10,-227,-98,27,22,2
6080,10,-229,-99,25,23,3
6085,10,-231,-96,26,25,3
6090,11,-228,-97,26,25,0
6095,10,-229,-99,27,25,-1
6100,13,-230,-98,28,24,-2
6105,15,-227,-99,30,24,-4
6110,9,-228,-100,34,24,-6
6115,10,-227,-98,37,25,-5
6120,6,-223,-103,43,24,-5
6125,11,-227,-97,46,24,-5
6130,10,-227,-97,51,23,-3
6135,12,-228,-98,54,22,-3
6140,12,-228,-97,56,22,-2
6145,10,-225,-94,56,21,0
6150,11,-229,-98,56,20,2
6155,11,-231,-96,56,19,1
6160,9,-228,-98,54,16,1
6165,7,-230,-94,51,13,0
6170,12,-228,-97,50,9,0
6175,10,-229,-89,49,5,-2
6180,8,-227,-96,49,2,-4
6185,9,-231,-97,49,-2,-8
6190,9,-229,-100,52,-3,-10
6195,10,-228,-96,55,-6,-11
6200,11,-228,-97,58,-7,-14
6205,8,-228,-99,62,-7,-18
6210,10,-230,-100,66,-9,-17
6215,8,-228,-99,71,-10,-18
6220,5,-230,-94,75,-11,-19
6225,9,-229,-94,79,-11,-20
6230,5,-230,-99,82,-10,-20
6235,9,-232,-94,85,-11,-21
6240,6,-227,-95,87,-11,-20
6245,10,-230,-96,90,-10,-22
6250,8,-228,-95,93,-9,-20
6255,8,-232,-97,96,-7,-19
6260,10,-232,-99,99,-6,-19
6265,8,-228,-101,103,-7,-19
6270,8,-230,-102,108,-6,-19
6275,7,-227,-96,113,-6,-20
6280,11,-228,-95,118,-8,-17
6285,13,-224,-99,121,-8,-18
6290,9,-224,-97,124,-9,-17
6295,8,-226,-100,124,-9,-17
6300,10,-224,-100,121,-8,-16
6305,10,-225,-104,115,-9,-16
6310,10,-222,-98,104,-7,-18
6315,10,-225,-101,92,-5,-19
6320,8,-223,-102,77,-3,-20
6325,9,-227,-99,62,1,-18
6330,10,-228,-100,48,3,-19
6335,7,-231,-103,38,7,-22
6340,11,-229,-95,31,10,-22
6345,7,-228,-97,29,13,-22
6350,7,-230,-94,31,16,-22
6355,9,-226,-96,36,19,-20
6360,8,-231,-96,44,21,-18
6365,8,-231,-96,53,22,-14
6370,8,-230,-97,63,23,-14
6375,9,-231,-90,71,23,-11
6380,12,-228,-94,78,23,-9
6385,10,-231,-95,83,22,-5
6390,4,-230,-98,85,18,-6
6395,10,-230,-96,86,15,-5
6400,10,-228,-94,87,14,-6
6405,10,-228,-93,85,11,-9
6410,11,-230,-93,84,9,-11
6415,8,-229,-93,83,8,-13
6420,11,-231,-95,81,7,-15
6425,7,-228,-90,81,7,-18
6430,8,-231,-91,80,7,-19
6435,9,-228,-98,82,6,-21
6440,12,-229,-100,86,4,-23
6445,5,-231,-94,92,2,-26
6450,8,-230,-93,98,0,-26
6455,11,-232,-97,103,-1,-28
6460,8,-228,-97,107,-3,-28
6465,10,-228,-96,110,-6,-26
6470,14,-230,-92,115,-6,-27
6475,11,-228,-93,120,-9,-28
6480,11,-227,-92,123,-11,-29
6485,14,-230,-98,127,-12,-30
6490,10,-225,-95,128,-12,-29
6495,10,-227,-92,130,-13,-30
6500,12,-231,-89,134,-11,-31
6505,13,-229,-96,135,-12,-32
6510,9,-227,-98,137,-13,-31
6515,10,-227,-95,137,-14,-27
6520,10,-226,-96,139,-14,-26
6525,10,-226,-95,139,-14,-24
6530,11,-228,-91,140,-13,-23
6535,9,-229,-91,139,-11,-20
6540,9,-228,-96,138,-10,-19
6545,5,-226,-91,139,-8,-18
6550,11,-228,-97,139,-7,-15
6555,4,-232,-93,143,-5,-16
6560,10,-228,-93,144,-3,-15
6565,8,-230,-93,146,-3,-13
6570,8,-229,-92,148,0,-13
6575,9,-231,-95,150,1,-11
6580,8,-229,-96,150,2,-12
6585,9,-230,-93,151,3,-12
6590,9,-232,-90,151,5,-13
6595,6,-231,-87,151,5,-14
6600,9,-232,-90,149,6,-14
6605,14,-231,-92,144,5,-15
6610,3,-227,-89,138,5,-18
6615,8,-231,-87,131,5,-22
6620,7,-229,-90,123,5,-25
6625,12,-233,-86,116,5,-28
6630,9,-232,-89,106,6,-33
6635,10,-231,-88,97,8,-34
6640,7,-229,-85,89,9,-38
6645,9,-227,-89,82,11,-40
6650,8,-236,-88,77,13,-41
6655,5,-228,-86,75,14,-43
6660,9,-233,-87,78,15,-44
6665,11,-223,-84,84,15,-41
6670,11,-235,-91,91,14,-40
6675,10,-233,-91,100,12,-38
6680,9,-235,-86,111,10,-36
6685,9,-232,-88,120,7,-33
6690,10,-232,-88,128,4,-33
6695,11,-234,-88,134,1,-33
6700,12,-228,-88,137,-2,-32
6705,6,-232,-87,139,-7,-31
6710,7,-228,-92,139,-10,-29
6715,10,-233,-90,137,-14,-30
6720,12,-229,-90,134,-15,-31
6725,12,-230,-86,131,-16,-31
6730,14,-230,-93,127,-15,-32
6735,12,-230,-92,123,-15,-32
6740,11,-230,-90,120,-13,-33
6745,11,-227,-91,114,-12,-33
6750,10,-227,-89,110,-13,-35
6755,11,-231,-92,106,-14,-37
6760,8,-229,-93,104,-16,-39
6765,8,-230,-93,101,-17,-42
6770,11,-230,-93,100,-20,-42
6775,6,-230,-84,99,-20,-41
6780,7,-231,-86,102,-19,-41
6785,8,-231,-89,105,-17,-42
6790,12,-233,-90,111,-14,-40
6795,13,-237,-87,116,-11,-42
6800,10,-233,-90,122,-7,-38
6805,9,-235,-90,126,-8,-36
6810,9,-230,-96,130,-8,-35
6815,8,-233,-87,130,-11,-33
6820,7,-232,-91,134,-11,-32
6825,10,-235,-83,138,-10,-31
6830,8,-233,-88,140,-12,-30
6835,12,-235,-88,142,-14,-28
6840,13,-235,-92,143,-15,-29
6845,10,-227,-85,144,-16,-26
6850,13,-230,-89,140,-16,-27
6855,10,-229,-86,136,-14,-26
6860,13,-231,-90,132,-13,-26
6865,11,-229,-89,125,-10,-27
6870,12,-229,-92,119,-6,-26
6875,10,-228,-86,113,-4,-29
6880,13,-229,-93,106,-4,-28
6885,12,-228,-90,102,-3,-28
6890,12,-231,-89,94,0,-26
6895,12,-228,-85,88,0,-26
6900,13,-231,-90,84,1,-23
6905,14,-234,-90,79,0,-22
6910,11,-233,-87,76,1,-21
6915,11,-231,-90,70,2,-21
6920,12,-234,-88,65,3,-21
6925,14,-231,-91,60,3,-22
6930,9,-226,-86,54,5,-20
6935,10,-230,-80,51,7,-20
6940,15,-235,-86,49,7,-21
6945,12,-234,-82,49,10,-20
6950,12,-233,-89,49,13,-19
6955,11,-235,-86,49,14,-21
6960,11,-232,-86,50,15,-21
6965,13,-233,-85,50,16,-22
6970,8,-231,-84,49,17,-20
6975,10,-228,-82,47,16,-19
6980,15,-232,-87,45,17,-19
6985,11,-226,-88,42,16,-18
6990,11,-229,-84,37,16,-19
6995,9,-228,-88,33,15,-17
7000,13,-231,-84,29,14,-18
7005,11,-231,-85,25,15,-17
7010,12,-231,-84,20,14,-17
7015,11,-232,-90,15,14,-15
7020,13,-232,-86,12,15,-15
7025,10,-231,-81,8,15,-15
7030,10,-232,-87,8,15,-14
7035,8,-232,-80,8,17,-15
7040,11,-228,-89,9,16,-15
7045,14,-231,-90,11,17,-15
7050,12,-230,-89,13,18,-13
7055,12,-232,-90,13,19,-14
7060,11,-231,-90,13,18,-12
7065,9,-229,-90,14,18,-12
7070,13,-229,-90,15,18,-10
7075,12,-234,-88,17,17,-9
7080,9,-232,-82,18,16,-5
7085,13,-236,-86,20,16,-5
7090,12,-227,-88,23,16,-4
7095,11,-234,-85,26,16,-7
7100,12,-230,-88,27,16,-4
7105,10,-233,-86,30,16,-7
7110,11,-230,-84,33,18,-7
7115,11,-233,-89,34,20,-8
7120,11,-231,-86,34,21,-8
7125,14,-231,-88,32,22,-10
7130,11,-229,-87,30,22,-10
7135,15,-231,-88,26,23,-12
7140,11,-228,-90,23,22,-11
7145,12,-231,-83,19,21,-12
7150,13,-230,-87,15,20,-12
7155,13,-231,-85,12,19,-12
7160,13,-228,-89,11,16,-13
7165,12,-231,-92,8,16,-12
7170,11,-232,-88,7,16,-12
7175,10,-229,-89,6,16,-12
7180,9,-233,-88,5,17,-10
7185,10,-230,-92,6,17,-11
7190,11,-231,-88,7,17,-11
7195,9,-232,-87,8,14,-12
7200,7,-232,-90,12,15,-11
7205,6,-229,-89,12,15,-11
7210,9,-235,-87,15,15,-12
7215,10,-234,-86,18,16,-11
7220,10,-232,-89,20,16,-11
7225,12,-233,-88,23,20,-9
7230,10,-232,-88,25,22,-9
7235,11,-229,-84,27,23,-9
7240,9,-231,-91,27,24,-8
7245,12,-232,-85,29,24,-10
7250,10,-227,-89,31,23,-10
7255,9,-232,-85,33,23,-10
7260,11,-231,-87,33,21,-9
7265,11,-226,-89,34,20,-10
7270,12,-230,-86,34,21,-10
7275,14,-233,-87,34,19,-10
7280,12,-232,-89,33,19,-10
7285,12,-235,-89,31,20,-10
7290,8,-232,-90,29,20,-10
7295,8,-229,-90,28,21,-11
7300,15,-236,-91,25,23,-11
7305,11,-227,-86,22,23,-12
7310,9,-231,-88,19,23,-13
7315,16,-234,-92,19,24,-13
7320,12,-232,-89,18,23,-14
7325,10,-230,-90,17,21,-12
7330,13,-231,-90,15,20,-12
7335,11,-230,-89,15,18,-13
7340,12,-232,-93,17,19,-12
7345,9,-230,-88,19,17,-11
7350,9,-231,-91,21,16,-11
7355,11,-230,-88,25,15,-9
7360,6,-231,-90,28,14,-10
7365,13,-233,-90,33,15,-9
7370,10,-232,-94,37,14,-11
7375,10,-229,-89,40,14,-10
7380,10,-227,-91,41,14,-10
7385,11,-229,-93,40,16,-9
7390,14,-230,-88,41,19,-10
7395,14,-232,-89,38,21,-9
7400,14,-229,-92,33,22,-9
7405,11,-232,-90,29,24,-8
7410,13,-230,-90,24,25,-10
7415,14,-228,-94,20,29,-11
7420,13,-232,-88,16,31,-9
7425,8,-233,-91,13,31,-10
7430,13,-231,-89,13,32,-10
7435,16,-233,-86,13,32,-10
7440,14,-231,-90,15,31,-10
7445,13,-232,-91,17,28,-9
7450,13,-230,-92,20,27,-8
7455,13,-232,-93,23,26,-8
7460,16,-233,-90,28,25,-8
7465,16,-233,-90,33,24,-6
7470,12,-231,-89,35,24,-6
7475,13,-230,-84,38,22,-5
7480,14,-232,-88,40,22,-6
7485,13,-229,-89,40,21,-6
7490,15,-230,-90,39,21,-9
7495,12,-230,-91,37,21,-9
7500,15,-233,-91,34,22,-12
7505,13,-228,-91,30,21,-13
7510,11,-228,-92,25,24,-11
7515,11,-228,-91,19,25,-12
7520,12,-226,-94,12,28,-12
7525,9,-225,-95,6,30,-12
7530,10,-225,-95,0,34,-9
7535,12,-236,-96,-6,39,-8
7540,12,-230,-92,-9,42,-9
7545,13,-230,-93,-11,44,-9
7550,13,-234,-96,-9,47,-11
7555,10,-230,-94,-7,47,-9
7560,11,-233,-90,-1,48,-10
7565,12,-232,-95,6,49,-7
7570,15,-234,-87,13,48,-5
7575,14,-234,-95,23,48,-1
7580,11,-232,-91,30,48,3
7585,14,-233,-94,39,47,6
7590,5,-227,-98,46,48,8
7595,10,-232,-97,51,46,10
7600,12,-230,-93,57,46,11
7605,13,-230,-89,59,45,12
7610,11,-229,-88,61,45,15
7615,11,-228,-89,63,44,18
7620,11,-231,-89,63,41,18
7625,15,-231,-87,61,41,18
7630,10,-229,-90,58,41,18
7635,13,-229,-88,55,39,18
7640,10,-229,-89,52,38,15
7645,6,-228,-93,50,36,13
7650,14,-229,-87,48,38,12
7655,10,-228,-89,44,40,10
7660,10,-232,-91,42,39,10
7665,8,-229,-88,40,40,9
7670,12,-227,-94,35,40,6
7675,11,-229,-95,30,40,3
7680,11,-227,-91,24,39,0
7685,10,-229,-90,18,38,-2
7690,11,-233,-88,12,35,-5
7695,8,-229,-93,5,34,-6
7700,8,-229,-93,2,32,-10
7705,10,-228,-91,-1,30,-9
7710,12,-233,-91,-5,29,-10
7715,10,-229,-92,-7,28,-10
7720,11,-232,-91,-6,27,-8
7725,12,-233,-93,-3,27,-9
7730,11,-233,-90,0,26,-9
7735,11,-231,-89,2,27,-7
7740,10,-231,-90,4,29,-6
7745,9,-230,-93,6,31,-6
7750,14,-231,-98,9,32,-2
7755,9,-225,-97,11,33,-1
7760,12,-231,-90,13,33,2
7765,13,-226,-94,14,35,4
7770,12,-228,-91,16,37,7
7775,11,-230,-90,18,38,8
7780,11,-232,-92,21,38,7
7785,13,-227,-97,21,38,10
7790,12,-232,-94,23,39,9
7795,9,-231,-96,24,40,11
7800,15,-232,-94,27,40,8
7805,14,-233,-90,29,39,9
7810,7,-236,-92,31,39,7
7815,10,-232,-89,35,36,5
7820,14,-231,-92,38,34,3
7825,13,-228,-93,42,34,5
7830,13,-232,-94,44,32,4
7835,14,-231,-92,46,29,4
7840,10,-230,-98,50,27,3
7845,13,-229,-93,51,25,2
7850,11,-233,-93,52,24,1
7855,10,-231,-86,53,22,3
7860,10,-227,-92,54,21,4
7865,13,-228,-95,52,20,2
7870,14,-232,-94,51,20,2
7875,11,-228,-91,49,19,3
7880,12,-229,-93,45,18,3
7885,10,-226,-92,41,18,4
7890,14,-227,-95,36,17,2
7895,11,-226,-96,29,16,3
7900,17,-231,-90,22,16,3
7905,10,-227,-91,17,18,1
7910,15,-233,-98,13,19,0
7915,10,-230,-96,10,19,-1
7920,12,-232,-95,9,20,-1
7925,11,-228,-94,6,23,-2
7930,10,-230,-95,8,24,-3
7935,12,-229,-95,7,26,-3
7940,14,-229,-94,9,26,-5
7945,11,-228,-92,13,24,-6
7950,11,-229,-94,15,24,-6
7955,9,-227,-96,18,23,-6
7960,10,-226,-97,23,21,-5
7965,11,-228,-89,27,20,-5
7970,9,-232,-95,29,19,-3
7975,9,-231,-89,32,15,-2
7980,13,-231,-92,36,13,-1
7985,13,-231,-94,39,11,-2
7990,9,-231,-93,42,10,-3
7995,11,-231,-93,44,7,-2
8000,12,-232,-90,46,7,-1
8005,12,-232,-90,46,4,-1
8010,12,-234,-91,46,6,0
8015,13,-228,-94,46,9,-1
8020,12,-233,-89,44,9,-2
8025,5,-230,-93,42,11,-5
8030,10,-229,-98,41,13,-4
8035,11,-229,-95,40,14,-6
8040,11,-231,-91,39,14,-7
8045,12,-230,-93,40,15,-8
8050,10,-228,-93,38,14,-9
8055,9,-229,-93,40,15,-8
8060,6,-226,-92,43,14,-6
8065,11,-228,-92,44,12,-6
8070,12,-229,-95,44,11,-7
8075,11,-226,-93,46,11,-6
8080,8,-232,-96,47,9,-5
8085,10,-227,-93,46,8,-8
8090,10,-229,-94,46,9,-7
8095,13,-231,-98,46,9,-7
8100,13,-229,-95,46,8,-7
8105,12,-228,-94,43,7,-6
8110,10,-227,-96,41,8,-8
8115,13,-232,-99,39,8,-9
8120,13,-230,-94,37,10,-9
8125,16,-230,-95,35,9,-8
8130,13,-229,-98,34,9,-8
8135,14,-228,-96,34,10,-8
8140,13,-231,-96,38,10,-8
8145,13,-231,-97,40,11,-7
8150,11,-230,-95,44,9,-6
8155,12,-226,-91,46,9,-6
8160,10,-229,-93,51,9,-5
8165,13,-226,-93,53,6,-4
8170,11,-231,-96,55,4,-3
8175,10,-230,-94,57,3,-2
8180,12,-227,-94,59,3,-1
8185,10,-230,-93,59,4,1
8190,10,-229,-89,59,3,2
8195,9,-229,-95,60,4,1
8200,12,-230,-92,59,6,2
8205,10,-229,-93,59,7,1
8210,10,-229,-94,59,9,1
8215,10,-230,-97,59,8,1
8220,10,-230,-95,60,11,1
8225,12,-227,-91,60,12,2
8230,11,-228,-92,61,15,2
8235,11,-230,-93,61,14,1
8240,7,-225,-93,60,13,0
8245,8,-229,-100,59,14,0
8250,12,-229,-95,57,13,1
8255,10,-228,-96,56,13,2
8260,13,-230,-93,52,13,0
8265,14,-230,-98,49,9,0
8270,12,-229,-92,45,7,-1
8275,11,-230,-93,42,5,-2
8280,13,-233,-96,41,3,-2
8285,13,-229,-94,39,0,-4
8290,11,-230,-93,38,-1,-4
8295,10,-232,-94,38,-1,-6
8300,6,-228,-95,39,-2,-7
8305,11,-232,-92,41,-1,-7
8310,13,-229,-92,43,-1,-7
8315,12,-229,-93,46,0,-6
8320,9,-231,-93,49,0,-6
8325,10,-231,-96,53,2,-5
8330,9,-231,-95,56,2,-5
8335,9,-228,-92,56,4,-5
8340,10,-230,-94,56,4,-5
8345,10,-230,-96,55,5,-5
8350,17,-231,-97,54,7,-6
8355,9,-229,-93,54,9,-5
8360,10,-232,-97,55,11,-6
8365,11,-229,-94,55,12,-5
8370,8,-229,-98,56,11,-5
8375,8,-228,-95,59,12,-4
8380,10,-227,-95,60,12,-5
8385,8,-232,-95,63,11,-5
8390,9,-227,-96,64,11,-3
8395,10,-228,-98,66,10,-3
8400,12,-229,-96,65,11,-4
8405,6,-230,-97,67,10,-2
8410,10,-227,-98,68,10,-4
8415,10,-229,-95,66,11,-7
8420,11,-231,-94,64,10,-7
8425,12,-229,-95,63,9,-7
8430,8,-228,-98,59,10,-7
8435,10,-227,-96,55,8,-7
8440,10,-229,-97,53,8,-9
8445,7,-227,-98,50,8,-10
8450,7,-225,-96,45,8,-13
8455,12,-231,-95,42,8,-13
8460,8,-231,-96,38,10,-13
8465,10,-226,-97,36,11,-13
8470,8,-227,-95,33,14,-10
8475,6,-227,-95,32,16,-8
8480,12,-228,-94,32,19,-6
8485,10,-229,-95,33,21,-3
8490,9,-228,-98,33,22,-3
8495,9,-229,-95,35,24,-3
8500,7,-228,-93,38,25,-2
8505,14,-232,-93,41,24,-1
8510,9,-232,-94,45,24,-2
8515,10,-230,-95,48,22,-2
8520,9,-230,-92,49,20,-4
8525,10,-229,-94,52,18,-4
8530,8,-229,-93,56,15,-6
8535,11,-230,-95,57,13,-5
8540,11,-228,-95,59,11,-6
8545,10,-228,-94,59,10,-9
8550,14,-233,-92,58,8,-9
8555,10,-230,-88,55,4,-9
8560,9,-229,-92,54,4,-9
8565,10,-228,-91,53,2,-11
8570,9,-225,-93,53,3,-11
8575,11,-228,-93,52,1,-9
8580,9,-228,-91,53,1,-11
8585,6,-226,-94,54,2,-11
8590,8,-229,-94,54,2,-11
8595,11,-227,-95,57,2,-11
8600,12,-229,-93,61,2,-13
8605,10,-231,-95,66,6,-11
8610,8,-232,-94,69,6,-9
8615,7,-229,-97,72,8,-7
8620,10,-230,-99,73,12,-7
8625,9,-229,-92,74,14,-8
8630,8,-227,-99,73,16,-6
8635,9,-228,-99,72,19,-5
8640,8,-229,-98,70,20,-4
8645,12,-225,-96,68,22,-5
8650,13,-232,-96,65,23,-3
8655,11,-227,-99,62,24,-3
8660,12,-231,-95,61,24,-4
8665,10,-229,-100,61,24,-2
8670,11,-230,-95,61,23,-2
8675,8,-229,-97,63,23,-3
8680,11,-229,-95,64,22,-3
8685,10,-230,-94,66,20,-4
8690,12,-230,-93,67,18,-3
8695,11,-229,-97,69,18,-4
8700,11,-227,-97,69,17,-6
8705,10,-231,-94,71,14,-5
8710,10,-229,-93,70,13,-4
8715,12,-233,-92,69,12,-6
8720,10,-229,-96,67,11,-7
8725,10,-230,-97,65,9,-7
8730,9,-225,-92,60,7,-9
8735,9,-233,-93,56,7,-9
8740,9,-228,-92,54,7,-10
8745,10,-227,-96,53,6,-11
8750,7,-230,-99,50,7,-8
8755,11,-227,-94,47,8,-9
8760,12,-231,-97,48,9,-10
8765,10,-227,-94,48,9,-13
8770,7,-226,-98,48,8,-10
8775,9,-230,-96,50,9,-10
8780,10,-229,-96,53,9,-9
8785,6,-229,-97,54,10,-8
8790,11,-232,-98,54,11,-5
8795,13,-228,-91,57,13,-5
8800,9,-231,-95,59,13,-3
8805,9,-230,-96,60,15,-4
8810,9,-230,-93,58,16,-3
8815,8,-231,-92,57,18,-4
8820,13,-234,-94,57,19,-4
8825,15,-232,-91,58,22,-5
8830,10,-233,-88,58,22,-5
8835,7,-227,-96,58,22,-5
8840,6,-227,-99,61,22,-5
8845,5,-229,-98,63,23,-7
8850,12,-228,-92,65,21,-7
8855,11,-227,-94,67,19,-6
8860,8,-228,-91,67,20,-8
8865,10,-229,-95,68,17,-7
8870,13,-230,-91,67,16,-6
8875,13,-226,-93,67,15,-6
8880,10,-226,-97,65,14,-9
8885,10,-227,-93,62,13,-8
8890,7,-227,-98,57,11,-7
8895,11,-231,-95,51,12,-9
8900,9,-227,-92,45,12,-8
8905,11,-227,-93,38,13,-8
8910,9,-230,-95,33,13,-11
8915,10,-227,-94,26,14,-12
8920,7,-230,-94,17,15,-14
8925,12,-229,-97,12,17,-16
8930,7,-225,-100,7,21,-19
8935,11,-227,-95,4,20,-20
8940,10,-230,-89,-1,21,-21
8945,9,-224,-93,-3,22,-20
8950,18,-230,-98,-3,23,-22
8955,10,-227,-94,-1,22,-22
8960,9,-230,-100,1,22,-20
8965,8,-230,-90,5,22,-21
8970,9,-226,-91,11,21,-20
8975,9,-229,-95,14,19,-19
8980,9,-233,-92,22,18,-18
8985,11,-228,-92,29,16,-16
8990,9,-230,-91,35,15,-16
8995,13,-232,-98,44,14,-15
9000,4,-229,-90,51,11,-13
9005,13,-230,-90,56,10,-12
9010,10,-229,-93,61,9,-10
9015,10,-231,-94,65,9,-13
9020,13,-234,-97,70,8,-13
9025,9,-228,-98,73,6,-12
9030,8,-230,-99,77,7,-12
9035,11,-228,-96,81,5,-12
9040,6,-230,-103,82,4,-11
9045,11,-230,-92,84,6,-12
9050,12,-228,-98,85,5,-9
9055,14,-229,-98,84,5,-11
9060,11,-235,-99,87,5,-11
9065,10,-230,-95,86,4,-12
9070,9,-227,-94,86,3,-11
9075,10,-228,-93,86,3,-10
9080,10,-229,-92,88,2,-10
9085,10,-229,-93,88,2,-9
9090,11,-230,-94,88,3,-8
9095,11,-228,-92,90,4,-9
9100,10,-230,-91,90,4,-9
9105,8,-229,-93,91,5,-9
9110,13,-225,-96,91,8,-8
9115,10,-225,-94,91,8,-7
9120,9,-229,-94,89,8,-7
9125,13,-229,-93,87,7,-7
9130,8,-229,-90,83,4,-7
9135,9,-230,-91,82,4,-6
9140,10,-229,-96,82,2,-8
9145,9,-228,-92,82,0,-8
9150,12,-230,-88,83,-2,-8
9155,10,-232,-91,84,-4,-9
9160,10,-233,-94,86,-6,-11
9165,10,-229,-93,89,-8,-10
9170,5,-233,-84,91,-10,-12
9175,8,-228,-95,96,-11,-11
9180,8,-232,-94,102,-14,-11
9185,8,-228,-91,108,-14,-10
9190,10,-231,-91,112,-15,-11
9195,6,-228,-93,115,-15,-8
9200,10,-227,-92,116,-15,-8
9205,10,-228,-97,116,-14,-7
9210,10,-227,-94,116,-12,-4
9215,10,-224,-91,112,-11,-6
9220,10,-230,-88,110,-8,-5
9225,10,-227,-97,105,-6,-2
9230,11,-228,-92,97,-5,-2
9235,10,-230,-94,88,-4,-1
9240,10,-228,-92,81,-1,0
9245,10,-229,-95,72,2,-2
9250,8,-230,-93,65,4,-3
9255,11,-230,-93,59,5,-4
9260,11,-235,-92,57,7,-7
9265,10,-236,-93,59,8,-9
9270,6,-226,-91,61,9,-9
9275,4,-230,-95,67,8,-12
9280,10,-230,-92,74,8,-12
9285,10,-232,-94,83,9,-12
9290,7,-232,-88,91,7,-12
9295,10,-233,-91,98,7,-13
9300,9,-233,-87,102,6,-14
9305,9,-232,-90,106,5,-14
9310,11,-230,-89,106,1,-15
9315,7,-228,-87,105,2,-16
9320,7,-230,-92,103,2,-18
9325,8,-226,-91,103,0,-18
9330,6,-228,-90,99,1,-17
9335,10,-231,-87,98,2,-19
9340,8,-230,-86,97,1,-18
9345,6,-228,-90,97,-1,-20
9350,6,-229,-91,97,-5,-24
9355,11,-229,-88,95,-7,-28
9360,10,-229,-92,89,-10,-31
9365,5,-226,-92,81,-10,-32
9370,9,-223,-95,68,-8,-33
9375,7,-224,-94,49,-3,-38
9380,9,-224,-91,24,3,-43
9385,9,-226,-84,-10,7,-47
9390,12,-230,-85,-55,17,-49
9395,12,-226,-91,-112,32,-51
9400,10,-229,-86,-175,52,-49
9405,13,-230,-82,-243,75,-44
9410,15,-231,-82,-315,98,-36
9415,20,-233,-80,-383,120,-32
9420,15,-231,-81,-444,138,-30
9425,19,-234,-82,-496,149,-32
9430,19,-231,-81,-535,151,-37
9435,19,-235,-83,-560,144,-43
9440,19,-236,-84,-570,133,-51
9445,18,-228,-92,-566,114,-58
9450,17,-229,-91,-551,92,-65
9455,14,-229,-99,-530,65,-71
9460,16,-227,-99,-507,42,-79
9465,16,-222,-104,-483,23,-83
9470,18,-215,-109,-466,11,-83
9475,16,-215,-110,-458,6,-81
9480,20,-213,-111,-458,5,-73
9485,23,-216,-113,-466,7,-71
9490,17,-216,-117,-484,5,-69
9495,21,-210,-115,-515,-2,-67
9500,16,-210,-119,-550,-14,-70
9505,16,-215,-122,-594,-30,-72
9510,18,-213,-124,-638,-44,-76
9515,18,-212,-127,-675,-55,-79
9520,16,-213,-125,-700,-66,-81
9525,13,-216,-125,-705,-75,-81
9530,16,-217,-122,-691,-86,-81
9535,13,-214,-120,-658,-95,-82
9540,7,-215,-119,-613,-104,-81
9545,3,-211,-118,-561,-110,-85
9550,4,-211,-110,-512,-112,-85
9555,4,-208,-112,-475,-108,-87
9560,2,-202,-107,-451,-98,-83
9565,2,-201,-108,-447,-83,-79
9570,6,-199,-103,-460,-67,-72
9575,2,-198,-102,-490,-50,-68
9580,7,-200,-96,-531,-34,-65
9585,4,-200,-100,-582,-20,-64
9590,4,-201,-95,-639,-6,-63
9595,9,-207,-101,-701,2,-63
9600,8,-208,-100,-762,11,-63
9605,12,-211,-95,-820,14,-64
9610,10,-207,-99,-866,15,-60
9615,12,-209,-107,-899,14,-61
9620,12,-214,-109,-918,8,-62
9625,12,-218,-109,-920,2,-65
9630,14,-221,-115,-909,-4,-72
9635,9,-215,-122,-887,-7,-78
9640,17,-223,-120,-857,-10,-85
9645,14,-217,-126,-819,-15,-86
9650,12,-214,-123,-779,-17,-87
9655,9,-212,-130,-739,-19,-87
9660,11,-216,-125,-705,-20,-84
9665,8,-211,-128,-678,-19,-83
9670,10,-213,-129,-662,-19,-82
9675,8,-207,-126,-657,-21,-79
9680,7,-206,-128,-661,-24,-79
9685,8,-207,-126,-674,-22,-79
9690,6,-204,-127,-691,-25,-79
9695,6,-200,-128,-711,-24,-79
9700,7,-200,-123,-735,-22,-73
9705,9,-199,-124,-760,-17,-67
9710,7,-199,-125,-779,-12,-53
9715,5,-197,-122,-796,-5,-46
9720,4,-197,-123,-805,-2,-48
9725,8,-197,-125,-809,0,-53
9730,16,-197,-125,-810,2,-51
9735,11,-197,-127,-810,7,-26
9740,8,-198,-130,-805,13,-21
9745,7,-213,-127,-793,13,-29
9750,14,-196,-128,-790,9,-54
9755,18,-198,-134,-781,1,-40
9760,24,-199,-135,-768,-1,-14
9765,10,-200,-134,-765,2,4
9770,9,-195,-134,-757,0,-12
9775,8,-188,-133,-754,-8,-77
9780,26,-198,-141,-755,-19,-72
9785,21,-195,-142,-728,-25,-50
9790,25,-200,-143,-702,-20,-32
9795,22,-200,-142,-696,-13,1
9800,11,-201,-142,-690,-13,23
9805,12,-198,-139,-676,-20,5
9810,15,-233,-157,-662,-38,-37
9815,19,-190,-138,-690,-48,-81
9820,18,-190,-143,-680,-63,-43
9825,14,-193,-150,-655,-63,-26
9830,12,-193,-150,-642,-61,-17
9835,12,-191,-148,-636,-56,-13
9840,14,-193,-154,-632,-52,-9
9845,12,-190,-156,-634,-45,-6
9850,19,-189,-156,-651,-30,13
9855,4,-185,-157,-679,-16,31
9860,10,-185,-157,-685,-11,17
9865,18,-188,-156,-694,-1,17
9870,9,-183,-158,-716,13,25
9875,14,-180,-163,-721,18,19
9880,15,-181,-162,-724,25,7
9885,19,-182,-166,-731,34,3
9890,21,-182,-169,-735,45,5
9895,23,-181,-166,-740,54,7
9900,18,-178,-170,-746,65,4
9905,23,-181,-169,-752,76,3
9910,24,-176,-171,-757,84,2
9915,24,-177,-174,-761,91,0
9920,21,-176,-175,-768,100,-2
9925,18,-172,-180,-774,105,-2
9930,20,-172,-181,-779,114,1
9935,16,-171,-179,-783,123,5
9940,16,-171,-180,-782,131,11
9945,11,-167,-184,-779,136,17
9950,11,-168,-185,-772,138,25
9955,15,-167,-185,-764,139,30
9960,12,-165,-184,-757,139,32
9965,12,-160,-187,-749,138,31
9970,11,-162,-192,-741,135,26
9975,14,-160,-187,-729,132,22
9980,6,-156,-184,-719,131,17
9985,9,-160,-196,-710,125,11
9990,9,-160,-191,-703,117,6
9995,12,-161,-194,-698,109,1
10000,10,-164,-197,-689,99,-2
10005,18,-165,-203,-675,88,-8
10010,15,-162,-205,-657,78,-13
10015,18,-165,-215,-635,69,-19
10020,18,-160,-221,-613,64,-20
10025,24,-163,-215,-593,63,-23
10030,25,-159,-224,-575,65,-19
10035,29,-157,-231,-559,73,-12
10040,33,-157,-235,-544,84,1
10045,34,-153,-244,-527,97,20
10050,35,-144,-246,-500,115,40
10055,36,-137,-252,-466,136,59
10060,34,-133,-255,-428,157,79
10065,26,-128,-257,-387,177,96
10070,18,-125,-265,-353,196,114
10075,16,-125,-263,-330,212,137
10080,7,-124,-266,-318,227,159
10085,4,-123,-270,-315,240,183
10090,0,-125,-268,-315,253,200
10095,-6,-129,-269,-315,262,212
10100,1,-129,-268,-319,266,220
10105,-1,-129,-269,-327,264,222
10110,1,-130,-270,-338,261,213
10115,3,-133,-266,-349,250,198
10120,4,-132,-265,-359,230,182
10125,2,-139,-258,-359,210,170
10130,3,-145,-256,-352,183,158
10135,6,-157,-259,-339,152,151
10140,11,-166,-257,-328,117,136
10145,16,-166,-256,-319,82,110
10150,15,-168,-252,-312,52,78
10155,22,-164,-258,-308,27,51
10160,25,-168,-256,-299,11,34
10165,27,-168,-256,-292,6,19
10170,30,-167,-257,-290,12,4
10175,25,-171,-255,-287,28,-1
10180,32,-174,-257,-279,49,3
10185,35,-182,-258,-268,68,4
10190,38,-185,-258,-256,85,0
10195,34,-183,-265,-243,98,-7
10200,46,-186,-269,-225,112,-5
10205,36,-179,-272,-201,133,-11
10210,40,-174,-275,-164,159,-13
10215,40,-176,-277,-113,177,-17
10220,46,-168,-284,-53,197,-21
10225,44,-165,-282,10,206,-29
10230,37,-158,-279,93,212,-31
10235,40,-153,-278,171,210,-16
10240,36,-153,-274,248,202,-3
10245,37,-154,-274,320,188,4
10250,33,-151,-269,384,168,-7
10255,37,-148,-262,445,145,-21
10260,35,-148,-254,503,122,-24
10265,30,-146,-249,556,98,-37
10270,26,-150,-243,602,76,-54
10275,23,-146,-239,636,49,-78
10280,22,-144,-232,667,26,-103
10285,25,-148,-228,694,4,-108
10290,16,-143,-225,701,-22,-127
10295,16,-145,-220,704,-48,-140
10300,15,-146,-212,695,-72,-160
10305,12,-144,-209,677,-95,-175
10310,20,-146,-206,655,-114,-179
10315,14,-148,-206,628,-124,-180
10320,14,-150,-204,595,-131,-187
10325,19,-153,-207,562,-142,-211
10330,8,-153,-205,527,-150,-240
10335,16,-158,-203,500,-152,-238
10340,19,-163,-201,482,-153,-240
10345,7,-158,-206,468,-148,-241
10350,21,-169,-209,467,-138,-233
10355,12,-169,-208,477,-130,-233
10360,14,-174,-203,507,-125,-234
10365,23,-180,-207,543,-118,-244
10370,13,-176,-210,585,-106,-247
10375,16,-184,-210,645,-93,-224
10380,22,-188,-207,702,-84,-224
10385,20,-186,-209,756,-78,-237
10390,14,-187,-210,810,-73,-241
10395,17,-189,-205,867,-73,-228
10400,23,-190,-204,928,-77,-215
10405,12,-186,-209,987,-85,-214
10410,17,-187,-203,1039,-94,-199
10415,14,-190,-198,1093,-101,-182
10420,10,-186,-199,1143,-109,-165
10425,14,-186,-201,1189,-119,-140
10430,12,-181,-195,1216,-131,-140
10435,10,-180,-194,1228,-142,-145
10440,8,-176,-196,1233,-155,-139
10445,10,-169,-191,1239,-168,-125
10450,13,-166,-190,1241,-178,-108
10455,13,-164,-183,1248,-187,-87
10460,8,-159,-182,1254,-196,-73
10465,15,-159,-176,1258,-207,-61
10470,10,-154,-174,1259,-216,-54
10475,9,-151,-172,1256,-225,-48
10480,15,-156,-172,1249,-233,-45
10485,13,-154,-169,1236,-240,-46
10490,12,-151,-163,1220,-244,-49
10495,14,-150,-159,1205,-247,-56
10500,11,-147,-155,1193,-247,-62
10505,12,-145,-155,1186,-247,-66
10510,13,-142,-150,1182,-246,-73
10515,12,-139,-149,1176,-245,-79
10520,17,-138,-143,1167,-244,-83
10525,10,-132,-149,1156,-247,-86
10530,10,-134,-142,1145,-251,-85
10535,11,-131,-139,1134,-256,-87
10540,11,-129,-133,1124,-263,-86
10545,14,-128,-133,1119,-270,-85
10550,11,-128,-129,1113,-279,-87
10555,12,-128,-131,1109,-288,-86
10560,13,-122,-133,1103,-294,-86
10565,13,-123,-129,1096,-301,-89
10570,11,-122,-131,1086,-308,-92
10575,11,-121,-127,1079,-313,-94
10580,6,-120,-135,1069,-321,-97
10585,12,-121,-128,1053,-329,-99
10590,9,-125,-125,1036,-338,-102
10595,11,-125,-129,1017,-344,-105
10600,9,-128,-128,996,-348,-107
10605,9,-127,-129,978,-351,-110
10610,9,-130,-127,963,-356,-112
10615,6,-131,-127,949,-361,-116
10620,4,-129,-132,938,-369,-120
10625,2,-133,-131,925,-379,-123
10630,4,-135,-133,910,-389,-124
10635,4,-143,-123,893,-401,-123
10640,3,-147,-132,876,-417,-121
10645,1,-148,-129,855,-432,-120
10650,6,-155,-134,834,-450,-120
10655,3,-155,-131,810,-471,-119
10660,0,-156,-134,780,-492,-119
10665,2,-165,-135,751,-514,-120
10670,9,-171,-138,720,-532,-119
10675,7,-172,-137,687,-547,-122
10680,6,-176,-138,655,-557,-123
10685,4,-177,-140,625,-562,-126
10690,8,-183,-145,598,-563,-131
10695,9,-189,-138,576,-557,-134
10700,9,-193,-142,562,-548,-139
10705,11,-195,-138,551,-533,-144
10710,12,-196,-140,544,-513,-151
10715,15,-196,-140,540,-490,-155
10720,18,-199,-142,537,-464,-160
10725,16,-197,-146,534,-435,-163
10730,23,-197,-143,530,-405,-167
10735,25,-197,-145,522,-374,-169
10740,23,-198,-145,516,-343,-171
10745,26,-196,-137,510,-314,-170
10750,30,-201,-138,502,-283,-169
10755,32,-200,-141,493,-253,-167
10760,30,-197,-139,484,-226,-161
10765,34,-198,-132,478,-200,-157
10770,32,-197,-130,474,-180,-147
10775,35,-199,-129,477,-162,-138
10780,31,-196,-129,480,-150,-130
10785,31,-194,-128,487,-139,-123
10790,31,-195,-121,490,-132,-113
10795,27,-199,-120,491,-129,-104
10800,21,-195,-124,491,-128,-97
10805,19,-192,-117,487,-129,-91
10810,21,-190,-119,478,-132,-86
10815,20,-192,-119,468,-136,-81
10820,14,-191,-115,454,-138,-77
10825,14,-195,-112,437,-145,-74
10830,12,-194,-114,419,-147,-73
10835,11,-195,-113,398,-149,-72
10840,9,-195,-112,379,-148,-72
10845,7,-197,-111,360,-150,-72
10850,10,-202,-112,344,-146,-73
10855,3,-200,-105,329,-143,-75
10860,6,-201,-112,319,-141,-77
10865,2,-204,-112,310,-136,-79
10870,7,-206,-109,307,-132,-79
10875,6,-211,-108,306,-127,-81
10880,8,-211,-109,306,-124,-80
10885,8,-212,-112,309,-122,-78
10890,7,-217,-112,313,-118,-74
10895,7,-215,-112,318,-116,-70
10900,8,-216,-110,325,-114,-68
10905,6,-219,-113,331,-111,-61
10910,9,-219,-112,337,-111,-54
10915,9,-216,-116,341,-110,-47
10920,12,-222,-112,337,-109,-40
10925,12,-220,-113,332,-108,-32
10930,14,-216,-112,322,-106,-25
10935,14,-220,-114,309,-103,-16
10940,14,-216,-113,296,-100,-7
10945,15,-222,-117,281,-96,2
10950,14,-216,-112,266,-92,7
10955,12,-215,-115,254,-90,13
10960,5,-218,-109,242,-87,21
10965,15,-217,-112,231,-81,26
10970,12,-212,-109,221,-76,32
10975,14,-211,-114,210,-73,35
10980,12,-209,-111,202,-70,38
10985,12,-207,-113,192,-65,37
10990,10,-205,-109,183,-62,38
10995,7,-208,-111,175,-60,38
11000,8,-206,-106,170,-59,40
11005,5,-205,-111,164,-59,40
11010,8,-206,-102,162,-60,39
11015,3,-211,-104,157,-59,38
11020,5,-207,-109,150,-56,38
11025,6,-207,-100,147,-51,36
11030,5,-211,-103,141,-45,37
11035,8,-211,-101,138,-35,36
11040,4,-208,-101,134,-26,36
11045,6,-214,-104,129,-15,34
11050,7,-218,-102,127,-3,32
11055,4,-218,-103,126,8,31
11060,5,-218,-103,125,22,31
11065,8,-218,-102,127,35,31
11070,6,-220,-107,130,50,32
11075,8,-224,-101,134,62,35
11080,9,-223,-105,136,75,36
11085,11,-224,-109,135,84,40
11090,11,-228,-107,131,96,43
11095,10,-224,-107,129,104,46
11100,14,-227,-107,126,110,49
11105,13,-225,-106,118,114,51
11110,16,-234,-107,110,119,55
11115,13,-232,-111,105,126,58
11120,16,-233,-113,99,130,62
11125,18,-231,-111,94,137,62
11130,16,-229,-111,93,141,64
11135,16,-229,-114,90,144,65
11140,17,-235,-110,89,150,68
11145,17,-232,-111,95,157,68
11150,17,-230,-111,106,164,70
11155,13,-229,-110,121,173,71
11160,14,-228,-105,138,180,72
11165,12,-224,-107,156,180,73
11170,7,-221,-106,173,182,72
11175,7,-218,-110,185,179,70
11180,8,-221,-106,196,176,67
11185,7,-218,-98,201,171,66
11190,7,-216,-106,202,164,64
11195,4,-215,-103,204,159,66
11200,4,-218,-102,201,154,63
11205,4,-215,-103,194,150,60
11210,4,-215,-103,181,148,61
11215,1,-215,-101,168,147,61
11220,2,-221,-99,157,146,59
11225,2,-219,-100,145,148,53
11230,1,-220,-101,132,149,52
11235,2,-222,-108,120,151,50
11240,1,-223,-98,109,154,48
11245,2,-225,-102,101,156,45
11250,2,-226,-103,98,161,45
11255,5,-227,-105,98,166,45
11260,4,-226,-103,98,170,45
11265,5,-226,-106,100,171,43
11270,2,-227,-110,103,172,44
11275,6,-228,-104,106,172,43
11280,7,-230,-109,107,169,44
11285,3,-225,-104,110,164,44
11290,6,-225,-100,111,159,45
11295,7,-227,-108,110,153,45
11300,10,-228,-107,106,144,44
11305,6,-229,-105,107,138,43
11310,7,-225,-104,111,135,44
11315,5,-225,-104,116,131,41
11320,7,-225,-102,119,127,42
11325,3,-225,-102,128,122,42
11330,7,-223,-103,138,122,40
11335,6,-229,-102,145,118,40
11340,8,-224,-94,153,114,40
11345,4,-225,-101,162,111,41
11350,2,-224,-103,169,109,40
11355,1,-221,-97,176,107,40
11360,7,-225,-97,180,108,40
11365,5,-224,-100,183,109,39
11370,6,-224,-97,184,111,36
11375,5,-226,-95,182,111,35
11380,2,-224,-96,176,110,31
11385,3,-227,-99,173,113,30
11390,6,-227,-98,171,115,27
11395,3,-226,-97,166,117,25
11400,6,-228,-102,158,121,23
11405,4,-228,-100,149,125,20
11410,5,-227,-101,141,126,16
11415,1,-229,-105,132,126,14
11420,5,-230,-104,127,126,11
11425,6,-228,-103,124,124,10
11430,6,-226,-103,124,122,8
11435,7,-226,-100,129,119,7
11440,9,-225,-102,134,114,7
11445,7,-225,-104,141,111,4
11450,3,-225,-97,148,109,4
11455,8,-225,-102,153,104,5
11460,12,-228,-103,156,102,5
11465,10,-227,-102,152,100,5
11470,13,-227,-100,147,99,6
11475,13,-225,-99,136,96,5
11480,12,-228,-98,123,95,6
11485,9,-227,-98,109,96,8
11490,9,-228,-97,99,100,10
11495,8,-227,-98,89,103,12
11500,5,-226,-99,80,106,16
11505,11,-235,-100,72,108,17
11510,11,-229,-96,71,110,18
11515,7,-230,-97,77,113,21
11520,4,-232,-95,86,115,22
11525,6,-230,-95,94,115,24
11530,4,-230,-97,101,111,26
11535,9,-231,-97,106,108,26
11540,4,-231,-93,110,103,26
11545,7,-230,-93,112,100,28
11550,2,-226,-91,113,94,28
11555,5,-230,-94,112,88,29
11560,3,-231,-89,108,82,29
11565,1,-226,-93,105,79,28
11570,1,-226,-90,96,73,26
11575,0,-225,-87,90,71,29
11580,3,-226,-95,88,73,30
11585,2,-228,-95,85,74,31
11590,2,-222,-95,81,76,33
11595,6,-227,-93,75,79,32
11600,0,-225,-93,70,79,35
11605,2,-225,-95,66,80,37
11610,4,-227,-92,64,80,38
11615,1,-234,-95,56,78,38
11620,3,-231,-92,51,74,40
11625,4,-234,-94,50,72,42
11630,5,-233,-94,52,70,42
11635,2,-232,-93,56,71,43
11640,6,-231,-93,60,67,44
11645,4,-231,-93,65,67,44
11650,7,-234,-96,70,63,44
11655,6,-235,-89,75,66,46
11660,7,-232,-98,80,67,46
11665,5,-232,-92,83,68,44
11670,3,-238,-96,85,68,42
11675,5,-233,-95,86,69,42
11680,6,-231,-95,87,72,42
11685,8,-231,-97,86,72,41
11690,8,-232,-93,86,72,40
11695,5,-231,-95,85,74,38
11700,6,-230,-94,86,75,36
11705,7,-230,-95,86,76,34
11710,5,-231,-94,87,76,34
11715,5,-232,-93,89,77,32
11720,4,-229,-91,92,77,31
11725,4,-227,-91,92,76,31
11730,4,-226,-94,93,73,28
11735,3,-224,-93,92,71,26
11740,2,-227,-90,89,70,23
11745,3,-225,-92,84,70,22
11750,0,-225,-92,76,68,21
11755,3,-227,-94,71,68,21
11760,1,-225,-97,62,68,19
11765,1,-227,-92,57,68,20
11770,3,-228,-94,52,68,19
11775,3,-229,-91,49,68,20
11780,-1,-227,-94,46,68,19
11785,4,-230,-90,45,69,20
11790,1,-228,-92,46,70,20
11795,3,-229,-90,46,72,19
11800,2,-228,-90,48,75,18
11805,1,-230,-89,47,76,19
11810,-2,-231,-90,48,76,19
11815,3,-229,-88,48,77,18
11820,2,-231,-94,48,79,18
11825,3,-230,-91,45,79,18
11830,3,-229,-95,43,79,18
11835,4,-232,-94,40,78,17
11840,4,-229,-94,36,79,16
11845,4,-228,-90,33,80,15
11850,1,-228,-91,32,82,14
11855,3,-230,-93,31,83,14
11860,3,-227,-91,31,85,12
11865,1,-227,-93,30,86,11
11870,1,-235,-96,30,87,9
11875,2,-230,-94,29,86,11
11880,4,-229,-89,28,85,8
11885,1,-228,-96,29,83,7
11890,0,-227,-92,31,81,7
11895,5,-231,-93,32,78,9
11900,3,-228,-96,32,76,8
11905,2,-229,-94,32,75,7
11910,1,-228,-96,32,72,6
11915,2,-226,-92,31,70,7
11920,1,-229,-100,30,68,6
11925,4,-225,-91,29,67,6
11930,2,-231,-94,25,67,5
11935,3,-226,-97,22,67,3
11940,-1,-225,-96,19,68,1
11945,0,-224,-96,16,70,1
11950,1,-227,-88,13,71,0
11955,1,-228,-90,10,72,1
11960,1,-228,-94,9,72,-1
11965,2,-227,-93,6,73,-2
11970,1,-228,-94,4,72,-2
11975,1,-223,-94,3,71,-2
11980,2,-227,-97,3,70,0
11985,0,-227,-90,3,69,-1
11990,4,-228,-90,5,66,-3
11995,1,-227,-90,5,66,-3
