timestamp,acc_x,acc_y,acc_z,gyro_x,gyro_y,gyro_z
0,0,-226,-97,2,1,-22
5,1,-227,-94,4,2,-23
10,2,-228,-93,7,4,-24
15,-2,-225,-95,9,4,-25
20,1,-228,-100,12,5,-27
25,0,-229,-104,15,6,-26
30,1,-230,-102,19,8,-27
35,3,-229,-93,21,10,-29
40,1,-231,-100,25,12,-28
45,2,-234,-94,27,15,-26
50,0,-228,-97,36,21,-26
55,1,-230,-96,37,21,-26
60,5,-230,-99,37,22,-24
65,0,-230,-101,39,23,-21
70,3,-233,-93,39,21,-18
75,1,-232,-97,40,23,-19
80,2,-232,-94,40,22,-19
85,1,-227,-96,39,20,-18
90,5,-232,-98,38,18,-19
95,2,-229,-98,36,16,-19
100,2,-230,-97,33,14,-18
105,0,-226,-94,32,13,-19
110,3,-232,-99,32,11,-19
115,2,-228,-97,34,10,-19
120,-1,-231,-92,36,12,-18
125,1,-228,-99,38,11,-18
130,2,-227,-99,41,10,-18
135,0,-229,-92,43,11,-18
140,1,-230,-95,46,10,-19
145,0,-229,-97,47,9,-18
150,-1,-229,-96,47,8,-18
155,0,-231,-99,47,8,-19
160,0,-226,-97,47,7,-20
165,0,-231,-97,47,5,-18
170,2,-224,-93,47,5,-18
175,5,-226,-92,47,5,-16
180,2,-228,-96,48,6,-16
185,2,-230,-96,50,7,-16
190,0,-229,-99,50,7,-16
195,1,-229,-98,51,7,-15
200,1,-227,-94,52,7,-17
205,1,-228,-98,53,8,-14
210,2,-227,-97,54,10,-15
215,3,-228,-97,53,7,-15
220,2,-229,-93,51,5,-15
225,1,-231,-98,49,4,-16
230,3,-225,-102,46,4,-14
235,3,-229,-98,44,3,-15
240,1,-228,-96,44,3,-14
245,3,-229,-97,48,5,-14
250,2,-229,-101,49,6,-13
255,2,-230,-97,53,4,-13
260,1,-231,-98,55,5,-12
265,1,-230,-96,60,5,-12
270,2,-228,-96,62,6,-11
275,1,-228,-94,63,6,-12
280,0,-225,-97,62,7,-12
285,1,-225,-95,61,7,-13
290,5,-224,-92,59,7,-14
295,2,-232,-93,54,8,-13
300,3,-226,-94,49,8,-13
305,1,-227,-97,46,8,-12
310,1,-227,-96,43,7,-12
315,3,-232,-97,39,6,-14
320,1,-229,-97,38,5,-13
325,1,-233,-97,36,4,-11
330,3,-229,-94,36,4,-10
335,4,-235,-101,39,4,-11
340,0,-230,-98,43,4,-12
345,1,-232,-98,46,5,-12
350,3,-228,-95,51,6,-13
355,0,-226,-95,54,7,-12
360,0,-228,-96,58,6,-11
365,2,-229,-99,60,7,-12
370,2,-227,-99,61,6,-11
375,0,-224,-99,62,7,-10
380,-1,-225,-97,59,9,-12
385,1,-227,-98,57,9,-9
390,4,-225,-93,53,8,-8
395,2,-227,-100,48,7,-8
400,3,-226,-96,45,6,-9
405,0,-228,-101,43,5,-8
410,2,-226,-95,40,2,-8
415,1,-225,-99,40,2,-7
420,-1,-225,-99,39,2,-6
425,2,-226,-98,38,2,-5
430,0,-229,-95,36,-1,-4
435,2,-226,-98,36,-1,-4
440,1,-224,-94,33,-3,-4
445,0,-229,-97,31,-2,-4
450,0,-227,-94,32,-3,-3
455,-2,-225,-101,33,-4,-4
460,5,-225,-108,34,-5,-3
465,1,-227,-99,36,-6,0
470,0,-228,-101,37,-5,0
475,1,-230,-98,41,-5,1
480,0,-226,-100,44,-5,-1
485,1,-227,-101,47,-5,-2
490,0,-229,-99,51,-5,-1
495,0,-227,-98,53,-4,-2
500,1,-224,-95,55,-5,-4
505,-1,-224,-103,57,-6,-2
510,2,-224,-97,60,-5,-4
515,10,-225,-87,61,-6,-2
520,3,-224,-100,65,-5,-3
525,2,-223,-94,68,-4,-4
530,1,-226,-95,71,-2,-4
535,2,-225,-98,77,-2,-3
540,4,-225,-96,79,-2,-4
545,1,-224,-93,80,-3,-7
550,1,-225,-96,78,-4,-6
555,1,-225,-95,72,-5,-9
560,2,-223,-97,66,-10,-10
565,0,-227,-102,59,-15,-11
570,2,-226,-98,51,-19,-11
575,0,-231,-95,44,-24,-10
580,0,-229,-95,35,-28,-10
585,0,-230,-96,31,-31,-11
590,-2,-229,-96,30,-34,-10
595,2,-234,-100,29,-37,-9
600,1,-229,-99,31,-38,-11
605,0,-231,-97,32,-39,-11
610,0,-229,-105,33,-40,-13
615,1,-227,-96,34,-41,-13
620,2,-224,-96,33,-40,-13
625,0,-226,-102,31,-40,-12
630,1,-225,-101,30,-37,-13
635,0,-226,-100,28,-32,-14
640,0,-227,-104,23,-28,-12
645,4,-226,-100,20,-23,-12
650,2,-225,-102,17,-17,-11
655,0,-224,-104,17,-12,-10
660,6,-229,-98,18,-8,-10
665,3,-226,-99,19,-7,-9
670,5,-228,-99,24,-4,-6
675,3,-230,-99,28,-4,-5
680,3,-229,-102,31,-4,-4
685,5,-227,-99,33,-3,-2
690,3,-228,-97,34,-5,1
695,4,-229,-96,34,-5,2
700,1,-227,-97,32,-7,2
705,3,-228,-98,29,-9,3
710,3,-228,-97,27,-13,1
715,1,-230,-98,27,-15,4
720,0,-230,-100,30,-16,5
725,2,-234,-97,34,-17,5
730,2,-227,-103,39,-18,5
735,0,-231,-96,44,-16,3
740,-2,-230,-98,50,-18,1
745,0,-232,-96,55,-17,-2
750,0,-232,-98,59,-16,-4
755,1,-232,-94,64,-16,-6
760,0,-232,-95,64,-17,-7
765,-1,-229,-92,61,-15,-7
770,1,-232,-91,59,-13,-9
775,1,-228,-96,57,-11,-9
780,0,-232,-93,56,-8,-9
785,2,-229,-83,55,-6,-11
790,0,-232,-96,54,-5,-11
795,0,-231,-95,54,-2,-12
800,1,-229,-98,52,-1,-10
805,0,-230,-97,50,0,-11
810,0,-231,-96,47,0,-10
815,0,-231,-100,47,1,-9
820,-5,-229,-100,46,1,-5
825,-2,-231,-98,47,1,-4
830,-3,-232,-100,49,1,-4
835,0,-232,-97,54,1,-4
840,0,-231,-97,58,-1,-4
845,0,-231,-94,59,-1,-3
850,-4,-231,-95,61,-3,-4
855,-2,-232,-96,64,-7,-5
860,1,-229,-97,61,-11,-8
865,-3,-227,-99,58,-16,-11
870,-4,-228,-97,51,-20,-13
875,0,-230,-95,43,-25,-17
880,-2,-229,-98,31,-32,-17
885,-3,-227,-98,19,-38,-19
890,1,-230,-98,11,-44,-19
895,0,-226,-97,7,-49,-20
900,-1,-229,-96,7,-54,-21
905,-2,-230,-95,12,-58,-24
910,-2,-230,-95,21,-59,-26
915,0,-228,-94,31,-61,-28
920,0,-230,-96,44,-60,-30
925,-2,-228,-97,56,-57,-30
930,0,-234,-90,67,-56,-28
935,-1,-229,-95,77,-52,-28
940,-3,-230,-102,84,-49,-27
945,0,-230,-94,87,-47,-28
950,-4,-234,-93,86,-42,-29
955,0,-234,-96,83,-42,-30
960,-2,-230,-96,78,-40,-30
965,1,-234,-94,74,-40,-31
970,0,-230,-100,71,-37,-31
975,0,-236,-95,67,-37,-30
980,0,-234,-94,67,-33,-29
985,1,-234,-96,66,-29,-28
990,0,-233,-99,70,-23,-26
995,3,-234,-94,74,-20,-24
1000,0,-233,-95,82,-17,-22
1005,3,-230,-95,90,-14,-21
1010,1,-235,-91,100,-13,-18
1015,2,-231,-90,109,-14,-18
1020,1,-232,-94,118,-14,-18
1025,2,-230,-92,126,-16,-17
1030,3,-225,-93,132,-16,-17
1035,-1,-225,-93,136,-17,-16
1040,3,-230,-92,137,-18,-17
1045,2,-231,-98,138,-20,-17
1050,3,-229,-96,136,-20,-16
1055,3,-233,-102,133,-21,-20
1060,1,-231,-96,132,-20,-19
1065,1,-230,-98,130,-20,-19
1070,0,-227,-96,130,-20,-19
1075,0,-226,-97,129,-19,-18
1080,0,-228,-92,128,-18,-19
1085,-2,-229,-97,127,-17,-21
1090,1,-228,-93,126,-18,-21
1095,1,-232,-96,124,-16,-20
1100,0,-231,-99,121,-14,-17
1105,0,-229,-99,116,-8,-16
1110,-3,-228,-93,113,-7,-15
1115,-1,-232,-97,111,-4,-15
1120,0,-230,-97,108,-4,-13
1125,-2,-227,-95,106,-4,-12
1130,0,-229,-98,106,-4,-13
1135,-1,-228,-97,109,-4,-13
1140,0,-229,-95,112,-3,-13
1145,0,-229,-90,117,-1,-11
1150,-4,-232,-94,121,2,-11
1155,0,-229,-95,125,6,-13
1160,0,-229,-96,128,7,-11
1165,1,-232,-97,130,11,-10
1170,0,-226,-93,131,13,-11
1175,0,-225,-93,133,13,-10
1180,0,-229,-92,133,15,-10
1185,-1,-229,-94,132,17,-12
1190,0,-228,-92,131,17,-10
1195,0,-226,-92,130,17,-10
1200,-1,-227,-88,129,20,-9
1205,0,-226,-96,127,22,-9
1210,-1,-230,-88,124,21,-8
1215,2,-230,-92,123,22,-7
1220,1,-224,-87,121,22,-7
1225,0,-225,-92,119,21,-7
1230,-1,-223,-87,116,20,-7
1235,0,-226,-92,112,22,-6
1240,0,-226,-90,110,22,-5
1245,0,-225,-90,104,23,-4
1250,1,-227,-91,102,24,-4
1255,-1,-226,-90,98,26,-3
1260,0,-226,-91,93,29,-3
1265,1,-228,-86,91,28,-4
1270,1,-227,-93,90,27,-1
1275,0,-230,-93,87,28,-6
1280,0,-227,-91,86,28,-4
1285,0,-230,-94,84,28,-4
1290,0,-230,-94,83,28,-4
1295,1,-230,-96,81,30,-6
1300,0,-227,-94,80,32,-3
1305,2,-230,-95,80,31,-3
1310,-3,-226,-89,77,32,-3
1315,0,-227,-90,75,31,-4
1320,0,-226,-89,72,32,-5
1325,0,-228,-95,67,30,-4
1330,-2,-224,-97,62,31,-1
1335,0,-226,-94,57,30,-2
1340,0,-227,-95,54,32,-1
1345,1,-228,-97,48,33,-1
1350,0,-226,-96,42,35,0
1355,0,-229,-94,37,37,1
1360,0,-228,-95,33,39,0
1365,-2,-226,-90,30,42,0
1370,1,-229,-96,30,45,1
1375,0,-229,-92,30,47,-2
1380,0,-231,-89,33,49,-2
1385,-2,-228,-95,36,50,-2
1390,0,-229,-93,39,51,-1
1395,1,-232,-94,45,51,-3
1400,0,-230,-89,51,53,-3
1405,0,-227,-93,51,51,-5
1410,1,-226,-89,51,48,-6
1415,0,-230,-87,49,43,-6
1420,-2,-231,-89,47,42,-8
1425,-1,-228,-91,44,40,-10
1430,-1,-229,-91,39,39,-10
1435,-2,-230,-89,37,38,-11
1440,4,-231,-91,35,40,-11
1445,0,-231,-90,32,40,-12
1450,1,-230,-89,31,40,-17
1455,1,-227,-90,30,42,-17
1460,1,-230,-92,30,44,-19
1465,2,-229,-93,31,46,-18
1470,2,-232,-91,31,48,-17
1475,-2,-229,-92,30,50,-18
1480,1,-234,-91,29,52,-18
1485,1,-231,-91,31,55,-19
1490,1,-229,-90,31,57,-20
1495,-1,-228,-89,29,58,-19
1500,0,-226,-94,26,57,-19
1505,1,-227,-96,22,55,-17
1510,0,-228,-92,19,54,-19
1515,0,-230,-95,15,52,-18
1520,0,-230,-92,14,51,-17
1525,0,-229,-96,14,50,-18
1530,-1,-229,-96,14,51,-17
1535,1,-232,-92,17,51,-18
1540,-3,-228,-93,22,48,-17
1545,1,-230,-92,25,48,-18
1550,1,-231,-94,29,48,-18
1555,1,-230,-94,35,48,-20
1560,0,-227,-92,41,49,-19
1565,0,-228,-93,44,49,-19
1570,1,-227,-91,44,50,-19
1575,3,-230,-93,42,52,-20
1580,0,-225,-91,37,53,-18
1585,1,-231,-89,33,56,-17
1590,0,-226,-94,27,57,-18
1595,3,-227,-89,21,57,-17
1600,-1,-225,-96,16,54,-18
1605,-1,-226,-91,11,54,-15
1610,4,-230,-93,8,54,-18
1615,2,-231,-91,9,52,-16
1620,0,-232,-91,10,53,-17
1625,0,-230,-96,11,53,-18
1630,1,-229,-96,11,53,-16
1635,2,-230,-91,12,51,-18
1640,3,-231,-91,14,51,-18
1645,3,-230,-90,13,50,-21
1650,0,-228,-92,13,49,-20
1655,1,-229,-93,14,48,-20
1660,0,-230,-93,15,46,-23
1665,0,-228,-94,16,44,-21
1670,0,-227,-94,17,40,-19
1675,1,-227,-92,18,35,-20
1680,4,-231,-91,20,32,-19
1685,2,-228,-95,22,31,-20
1690,1,-231,-95,25,31,-19
1695,0,-224,-93,27,32,-20
1700,0,-228,-94,28,32,-19
1705,1,-229,-95,28,34,-18
1710,2,-229,-92,26,35,-19
1715,1,-228,-93,21,36,-20
1720,2,-228,-93,16,35,-21
1725,0,-227,-94,13,36,-22
1730,2,-228,-90,7,36,-23
1735,0,-228,-91,4,36,-22
1740,0,-226,-92,2,34,-23
1745,3,-232,-93,3,34,-25
1750,1,-234,-95,4,32,-24
1755,2,-234,-94,4,30,-24
1760,3,-240,-97,5,31,-24
1765,1,-231,-94,8,30,-23
1770,0,-232,-96,12,28,-23
1775,1,-235,-94,15,27,-23
1780,3,-234,-93,18,26,-20
1785,4,-232,-95,21,25,-20
1790,2,-231,-96,23,24,-17
1795,2,-234,-93,28,24,-17
1800,0,-231,-95,32,25,-16
1805,1,-232,-92,36,25,-15
1810,0,-232,-92,39,26,-13
1815,5,-232,-91,41,28,-11
1820,3,-228,-92,45,28,-8
1825,1,-233,-94,49,28,-8
1830,1,-227,-90,52,29,-7
1835,3,-230,-91,57,27,-7
1840,3,-232,-98,61,27,-6
1845,2,-231,-93,63,27,-6
1850,2,-226,-93,64,26,-6
1855,2,-227,-102,63,26,-6
1860,3,-230,-94,61,27,-6
1865,3,-232,-94,61,26,-5
1870,1,-228,-95,61,26,-6
1875,1,-232,-96,60,25,-6
1880,2,-227,-94,59,25,-6
1885,1,-227,-94,59,25,-8
1890,0,-226,-96,59,24,-8
1895,2,-230,-98,60,23,-8
1900,1,-232,-96,58,22,-8
1905,0,-232,-99,59,23,-9
1910,0,-231,-94,61,23,-7
1915,2,-231,-93,63,24,-7
1920,2,-231,-93,65,24,-7
1925,0,-233,-93,65,24,-7
1930,-2,-231,-89,65,21,-7
1935,0,-231,-96,66,22,-8
1940,0,-231,-93,65,21,-9
1945,2,-226,-95,66,20,-8
1950,3,-228,-93,64,20,-11
1955,2,-228,-95,62,21,-12
1960,2,-229,-92,58,22,-11
1965,1,-229,-94,54,23,-12
1970,3,-228,-99,50,24,-11
1975,1,-224,-97,48,24,-12
1980,2,-225,-94,45,25,-12
1985,0,-228,-100,42,23,-14
1990,2,-228,-94,40,22,-14
1995,4,-229,-97,38,22,-15
2000,3,-227,-96,37,21,-14
2005,4,-230,-97,37,21,-14
2010,1,-230,-96,38,21,-13
2015,0,-227,-93,40,21,-10
2020,0,-232,-96,42,20,-9
2025,-1,-224,-101,43,19,-9
2030,3,-233,-93,46,19,-10
2035,0,-228,-91,49,20,-11
2040,1,-232,-92,51,20,-10
2045,1,-229,-94,55,21,-8
2050,1,-229,-90,58,21,-8
2055,2,-233,-95,64,20,-8
2060,0,-232,-91,66,20,-10
2065,3,-230,-93,70,20,-11
2070,3,-233,-96,73,20,-11
2075,0,-230,-96,72,19,-12
2080,1,-230,-89,70,18,-12
2085,2,-232,-102,68,19,-14
2090,4,-225,-102,64,18,-13
2095,1,-229,-95,59,19,-12
2100,1,-228,-98,54,19,-12
2105,3,-230,-97,51,20,-10
2110,2,-227,-95,47,20,-11
2115,3,-229,-93,46,20,-9
2120,5,-234,-97,47,21,-10
2125,1,-227,-98,48,20,-11
2130,1,-229,-93,50,19,-12
2135,0,-227,-98,54,20,-12
2140,-3,-227,-98,57,18,-11
2145,0,-226,-93,61,16,-13
2150,1,-227,-93,63,13,-12
2155,2,-227,-93,65,11,-12
2160,1,-229,-97,69,9,-11
2165,0,-232,-94,72,6,-10
2170,0,-230,-98,73,5,-10
2175,4,-230,-95,77,6,-10
2180,1,-229,-92,80,7,-9
2185,1,-230,-97,82,8,-8
2190,2,-228,-94,84,9,-10
2195,4,-230,-88,86,10,-8
2200,4,-234,-99,88,10,-8
2205,1,-229,-97,88,13,-8
2210,1,-227,-91,88,12,-7
2215,0,-229,-92,86,15,-8
2220,1,-227,-97,81,15,-7
2225,2,-231,-91,78,13,-9
2230,0,-228,-91,75,12,-11
2235,2,-230,-91,72,11,-11
2240,0,-224,-93,69,9,-13
2245,4,-228,-90,67,6,-16
2250,4,-227,-95,66,4,-15
2255,3,-234,-91,67,2,-14
2260,1,-229,-92,68,1,-13
2265,0,-230,-95,69,0,-13
2270,2,-230,-94,69,-1,-12
2275,0,-228,-92,70,-2,-12
2280,2,-230,-95,70,-2,-10
2285,1,-228,-89,70,0,-8
2290,1,-229,-93,71,0,-10
2295,0,-226,-98,72,1,-8
2300,2,-233,-92,73,2,-8
2305,0,-230,-95,73,3,-7
2310,-1,-236,-102,74,4,-7
2315,2,-229,-95,73,4,-6
2320,-1,-229,-93,74,3,-4
2325,0,-229,-95,77,4,-4
2330,3,-231,-97,80,3,-4
2335,1,-229,-95,82,3,-5
2340,1,-230,-93,84,2,-6
2345,2,-230,-95,85,2,-6
2350,0,-231,-96,86,2,-4
2355,2,-229,-94,88,2,-3
2360,0,-232,-94,90,2,-3
2365,0,-229,-91,93,3,-4
2370,0,-230,-95,97,6,-3
2375,2,-230,-91,99,7,-3
2380,3,-231,-93,101,8,-1
2385,-1,-228,-91,105,10,0
2390,-1,-227,-88,109,12,0
2395,1,-232,-92,113,12,2
2400,3,-234,-93,116,16,3
2405,1,-231,-94,119,16,5
2410,1,-232,-85,122,14,7
2415,0,-226,-91,126,13,8
2420,1,-231,-95,129,13,10
2425,0,-227,-86,132,12,10
2430,1,-230,-91,135,13,10
2435,0,-228,-89,138,11,9
2440,2,-228,-86,142,8,7
2445,4,-228,-90,146,5,3
2450,3,-229,-88,147,2,-2
2455,3,-232,-88,147,-3,-7
2460,1,-233,-93,145,-6,-10
2465,2,-232,-96,140,-10,-15
2470,4,-229,-88,133,-14,-20
2475,-4,-231,-95,124,-17,-22
2480,0,-232,-93,113,-21,-23
2485,3,-234,-95,103,-24,-21
2490,1,-232,-99,95,-25,-21
2495,1,-233,-97,91,-27,-20
2500,1,-228,-95,91,-28,-18
2505,2,-233,-95,93,-28,-15
2510,1,-235,-93,98,-25,-12
2515,3,-232,-92,102,-23,-11
2520,1,-230,-95,106,-17,-8
2525,0,-227,-93,109,-13,-7
2530,1,-228,-95,110,-8,-4
2535,0,-226,-92,111,-4,-3
2540,1,-228,-92,111,-2,-3
2545,1,-229,-91,110,-2,0
2550,0,-225,-91,109,-3,1
2555,0,-227,-90,108,-4,2
2560,-2,-218,-90,108,-5,2
2565,0,-223,-86,106,-4,0
2570,2,-217,-85,104,-4,-1
2575,4,-223,-87,100,-4,-6
2580,7,-223,-82,93,-5,-9
2585,7,-224,-88,85,-7,-14
2590,0,-220,-90,74,-10,-20
2595,1,-221,-91,64,-14,-22
2600,0,-218,-95,54,-16,-28
2605,0,-216,-93,42,-19,-28
2610,-2,-217,-91,33,-20,-28
2615,0,-218,-96,22,-23,-25
2620,0,-221,-95,13,-22,-21
2625,2,-218,-94,5,-22,-19
2630,-1,-213,-107,-4,-23,-12
2635,4,-215,-100,-14,-21,-5
2640,2,-215,-98,-22,-19,1
2645,1,-219,-99,-30,-18,8
2650,3,-216,-99,-36,-17,13
2655,2,-213,-98,-42,-16,18
2660,4,-216,-101,-49,-14,25
2665,1,-214,-93,-56,-10,30
2670,0,-211,-100,-62,-6,36
2675,2,-214,-99,-69,0,40
2680,3,-215,-97,-74,6,44
2685,2,-213,-100,-79,12,49
2690,2,-214,-91,-83,18,50
2695,0,-203,-96,-86,21,50
2700,-1,-208,-95,-88,25,52
2705,-1,-207,-97,-89,24,53
2710,-3,-206,-94,-91,21,51
2715,-2,-204,-99,-93,17,50
2720,-4,-202,-94,-96,13,48
2725,-6,-201,-100,-100,5,46
2730,-6,-201,-101,-105,0,46
2735,-7,-201,-96,-109,-6,44
2740,-1,-200,-94,-112,-10,45
2745,-6,-201,-97,-117,-13,45
2750,0,-198,-99,-128,-15,45
2755,-4,-195,-101,-147,-16,43
2760,-1,-194,-105,-175,-16,41
2765,-2,-192,-102,-211,-18,41
2770,-2,-189,-105,-251,-18,39
2775,-4,-191,-102,-291,-19,37
2780,-3,-192,-106,-330,-22,36
2785,-4,-191,-105,-368,-26,33
2790,-3,-194,-104,-401,-32,33
2795,0,-191,-106,-429,-39,34
2800,-3,-191,-105,-453,-47,35
2805,-3,-188,-107,-473,-52,37
2810,-3,-188,-108,-491,-54,39
2815,-1,-188,-106,-510,-56,42
2820,-1,-185,-107,-526,-58,44
2825,0,-188,-109,-541,-58,45
2830,1,-187,-110,-556,-57,47
2835,-4,-184,-109,-573,-53,49
2840,-2,-182,-111,-589,-48,49
2845,-3,-184,-110,-606,-41,48
2850,-6,-182,-109,-619,-36,45
2855,-5,-184,-109,-628,-28,41
2860,-1,-179,-108,-635,-24,33
2865,-5,-181,-106,-644,-25,25
2870,-9,-180,-112,-651,-25,14
2875,-9,-178,-108,-658,-25,4
2880,-3,-180,-108,-663,-24,-8
2885,-6,-180,-109,-666,-22,-18
2890,1,-181,-105,-671,-15,-27
2895,0,-180,-113,-679,-6,-36
2900,-1,-178,-114,-690,8,-45
2905,1,-187,-117,-704,27,-53
2910,2,-183,-128,-720,48,-63
2915,0,-188,-124,-736,72,-71
2920,6,-190,-123,-752,102,-77
2925,6,-189,-129,-769,134,-81
2930,9,-192,-129,-781,168,-84
2935,6,-191,-129,-788,202,-86
2940,10,-194,-128,-788,237,-85
2945,9,-191,-132,-785,271,-80
2950,9,-192,-138,-775,301,-72
2955,9,-196,-132,-761,327,-65
2960,10,-201,-134,-748,344,-54
2965,4,-196,-135,-736,354,-42
2970,10,-197,-131,-724,357,-30
2975,8,-198,-133,-715,351,-22
2980,9,-200,-132,-710,336,-13
2985,8,-200,-132,-707,316,-4
2990,8,-200,-136,-701,289,0
2995,8,-201,-133,-698,259,3
3000,9,-200,-132,-694,226,0
3005,4,-198,-139,-690,195,-4
3010,6,-199,-139,-689,167,-11
3015,3,-194,-138,-687,138,-20
3020,1,-199,-137,-688,110,-31
3025,1,-194,-138,-685,85,-42
3030,0,-192,-141,-681,61,-52
3035,0,-191,-139,-678,41,-64
3040,0,-188,-138,-673,24,-76
3045,0,-190,-140,-670,9,-88
3050,0,-192,-137,-668,-4,-100
3055,-3,-187,-140,-668,-14,-110
3060,-1,-187,-139,-670,-19,-120
3065,-7,-187,-137,-669,-21,-129
3070,-4,-186,-139,-668,-19,-134
3075,-4,-187,-134,-664,-11,-137
3080,-6,-185,-142,-658,8,-139
3085,-6,-183,-141,-648,34,-140
3090,-5,-185,-143,-633,64,-138
3095,-7,-184,-149,-616,100,-133
3100,-6,-187,-148,-596,136,-126
3105,-2,-187,-149,-576,169,-120
3110,-1,-185,-146,-555,199,-114
3115,0,-186,-148,-533,223,-105
3120,1,-184,-155,-518,241,-97
3125,1,-184,-157,-505,252,-87
3130,1,-179,-159,-497,256,-75
3135,2,-181,-157,-494,252,-65
3140,5,-184,-161,-492,243,-56
3145,6,-184,-166,-498,228,-45
3150,8,-185,-170,-504,208,-39
3155,9,-188,-170,-514,183,-36
3160,7,-188,-175,-527,152,-36
3165,15,-194,-169,-538,124,-37
3170,16,-193,-176,-549,95,-46
3175,12,-202,-178,-558,66,-62
3180,7,-200,-180,-563,43,-79
3185,16,-202,-185,-567,24,-96
3190,13,-206,-187,-564,11,-116
3195,16,-203,-184,-562,5,-138
3200,14,-204,-186,-561,4,-157
3205,16,-205,-188,-559,9,-175
3210,21,-211,-185,-556,16,-188
3215,19,-211,-186,-552,24,-204
3220,17,-208,-187,-545,33,-216
3225,17,-212,-183,-532,41,-226
3230,19,-210,-179,-515,51,-234
3235,15,-211,-179,-490,57,-238
3240,19,-207,-179,-465,63,-241
3245,16,-207,-179,-432,68,-238
3250,19,-203,-177,-394,70,-236
3255,16,-197,-171,-351,75,-230
3260,18,-195,-171,-301,78,-221
3265,15,-194,-169,-250,82,-211
3270,13,-190,-169,-198,83,-199
3275,12,-187,-168,-147,85,-184
3280,14,-185,-167,-97,86,-168
3285,7,-178,-163,-56,87,-151
3290,12,-175,-165,-21,88,-136
3295,7,-171,-167,4,92,-123
3300,9,-171,-169,21,94,-109
3305,11,-172,-171,31,98,-97
3310,7,-168,-170,38,100,-85
3315,8,-170,-176,36,101,-79
3320,11,-168,-177,28,99,-73
3325,11,-169,-179,15,95,-69
3330,16,-170,-179,-7,87,-63
3335,15,-171,-180,-30,77,-63
3340,11,-168,-180,-54,65,-64
3345,12,-175,-191,-78,50,-62
3350,11,-175,-192,-102,33,-63
3355,14,-179,-192,-125,13,-62
3360,14,-177,-193,-146,-8,-61
3365,11,-178,-198,-159,-30,-64
3370,15,-184,-198,-165,-52,-67
3375,11,-186,-201,-167,-76,-69
3380,18,-192,-202,-163,-99,-71
3385,18,-193,-213,-156,-121,-77
3390,13,-191,-207,-150,-141,-85
3395,17,-193,-209,-137,-156,-86
3400,20,-197,-217,-122,-168,-87
3405,16,-192,-217,-105,-176,-92
3410,17,-193,-215,-84,-179,-91
3415,13,-196,-219,-55,-179,-84
3420,18,-201,-220,-19,-179,-68
3425,21,-204,-222,16,-178,-63
3430,23,-205,-216,52,-171,-62
3435,19,-202,-214,90,-159,-56
3440,27,-208,-218,131,-141,-37
3445,22,-204,-218,173,-117,-31
3450,15,-199,-218,212,-91,-27
3455,27,-199,-216,260,-58,-6
3460,29,-197,-213,306,-25,0
3465,24,-192,-207,349,9,1
3470,34,-191,-208,395,43,19
3475,28,-187,-206,436,73,29
3480,35,-191,-207,472,105,41
3485,29,-183,-201,495,128,36
3490,33,-186,-196,516,148,48
3495,34,-183,-197,529,163,64
3500,28,-184,-191,531,170,62
3505,30,-187,-190,522,174,74
3510,26,-184,-190,502,171,76
3515,32,-187,-193,474,162,70
3520,21,-183,-191,431,142,41
3525,26,-181,-189,386,127,46
3530,31,-184,-191,337,112,61
3535,21,-184,-192,282,86,34
3540,8,-180,-194,229,57,14
3545,18,-184,-189,182,38,33
3550,12,-183,-189,139,14,28
3555,4,-185,-185,108,-10,20
3560,3,-186,-190,86,-26,35
3565,7,-195,-185,68,-39,55
3570,-9,-193,-196,52,-55,36
3575,-11,-200,-187,43,-63,30
3580,-11,-205,-191,54,-65,25
3585,-16,-211,-191,80,-66,17
3590,-16,-206,-192,110,-64,-5
3595,-14,-208,-191,157,-59,-6
3600,-14,-205,-191,202,-48,10
3605,-11,-208,-187,249,-35,17
3610,-12,-208,-188,287,-22,12
3615,-6,-215,-192,317,-13,-3
3620,-15,-204,-186,330,-7,-27
3625,-5,-206,-186,342,-6,-22
3630,-1,-203,-184,363,-9,-8
3635,0,-203,-185,384,-13,2
3640,-1,-197,-188,395,-21,10
3645,0,-198,-184,393,-29,6
3650,6,-193,-186,373,-39,-15
3655,10,-191,-189,366,-51,-3
3660,11,-190,-187,360,-61,13
3665,14,-186,-186,349,-67,36
3670,14,-183,-189,331,-73,51
3675,15,-183,-187,313,-82,61
3680,18,-184,-186,294,-92,71
3685,19,-180,-186,276,-102,84
3690,16,-180,-183,261,-111,98
3695,17,-176,-184,245,-120,107
3700,18,-179,-182,232,-130,114
3705,15,-182,-177,217,-138,117
3710,15,-180,-177,205,-146,117
3715,13,-182,-174,197,-151,120
3720,10,-178,-168,187,-154,119
3725,8,-182,-170,183,-151,115
3730,5,-185,-163,177,-144,115
3735,4,-189,-160,179,-137,114
3740,5,-192,-161,186,-127,110
3745,3,-191,-160,197,-116,99
3750,0,-190,-147,206,-102,63
3755,3,-188,-149,208,-89,59
3760,5,-191,-151,231,-80,77
3765,4,-193,-149,256,-69,73
3770,1,-194,-146,278,-57,56
3775,3,-192,-142,295,-51,39
3780,8,-188,-144,307,-49,30
3785,2,-193,-141,311,-46,20
3790,4,-192,-138,306,-43,7
3795,4,-201,-140,293,-39,-17
3800,7,-189,-137,257,-34,-43
3805,10,-189,-133,246,-36,-34
3810,8,-189,-138,242,-33,-27
3815,6,-190,-138,234,-28,-23
3820,8,-192,-139,225,-26,-29
3825,8,-190,-146,214,-26,-37
3830,20,-215,-147,203,-24,-39
3835,5,-188,-147,176,-21,-70
3840,15,-194,-146,170,-18,-48
3845,11,-193,-146,171,-15,-33
3850,10,-195,-147,173,-10,-23
3855,12,-194,-148,178,-11,-14
3860,9,-196,-152,185,-11,-10
3865,9,-195,-152,193,-11,-6
3870,18,-212,-149,199,-12,-11
3875,7,-192,-148,193,-10,-32
3880,9,-197,-147,206,-13,-7
3885,9,-200,-157,230,-13,9
3890,14,-198,-144,251,-12,22
3895,7,-199,-149,268,-10,39
3900,6,-198,-151,288,-11,37
3905,5,-198,-155,314,-13,37
3910,5,-199,-156,341,-11,41
3915,6,-198,-151,364,-7,44
3920,7,-196,-153,385,-3,46
3925,7,-196,-148,398,1,47
3930,5,-195,-142,405,6,48
3935,5,-195,-146,407,11,50
3940,8,-192,-151,401,15,49
3945,10,-194,-147,392,19,48
3950,9,-194,-146,382,25,47
3955,11,-194,-146,373,29,48
3960,11,-198,-147,368,33,47
3965,14,-198,-141,369,37,47
3970,13,-198,-141,374,42,45
3975,14,-200,-140,382,46,46
3980,19,-202,-141,394,51,47
3985,13,-200,-134,409,53,46
3990,14,-198,-139,422,56,48
3995,15,-201,-136,436,60,46
4000,17,-197,-133,445,64,43
4005,14,-201,-132,450,68,40
4010,13,-201,-133,447,72,37
4015,9,-200,-134,439,73,31
4020,10,-199,-138,425,72,25
4025,7,-196,-138,409,68,19
4030,11,-202,-138,391,62,12
4035,6,-200,-135,374,56,5
4040,9,-198,-138,361,50,-3
4045,5,-201,-137,352,41,-10
4050,1,-199,-143,348,33,-19
4055,2,-197,-146,349,22,-24
4060,1,-201,-138,352,13,-31
4065,1,-198,-142,356,3,-34
4070,2,-201,-140,363,-6,-37
4075,0,-198,-143,366,-14,-37
4080,1,-196,-142,367,-20,-37
4085,2,-195,-138,364,-25,-38
4090,0,-194,-136,359,-29,-36
4095,3,-198,-135,352,-30,-37
4100,5,-196,-138,340,-32,-35
4105,6,-198,-135,329,-30,-33
4110,0,-196,-139,314,-28,-33
4115,1,-197,-132,299,-25,-33
4120,4,-202,-135,285,-23,-33
4125,2,-205,-131,274,-21,-32
4130,3,-206,-131,264,-17,-33
4135,6,-209,-133,257,-12,-34
4140,6,-207,-128,251,-8,-35
4145,7,-213,-128,251,-3,-35
4150,8,-213,-131,255,2,-36
4155,7,-213,-127,264,7,-34
4160,6,-206,-131,275,14,-30
4165,8,-215,-129,290,20,-27
4170,7,-216,-130,308,26,-21
4175,7,-218,-128,328,30,-13
4180,5,-213,-134,349,34,-5
4185,2,-211,-132,369,36,5
4190,6,-211,-130,388,37,13
4195,5,-207,-131,404,38,22
4200,4,-212,-130,415,35,31
4205,3,-210,-127,421,30,38
4210,5,-207,-129,418,24,42
4215,6,-208,-124,409,18,45
4220,2,-205,-135,396,10,46
4225,2,-204,-130,377,3,45
4230,3,-207,-130,358,-4,44
4235,2,-202,-129,341,-13,43
4240,1,-205,-128,323,-19,39
4245,2,-210,-130,309,-25,35
4250,0,-211,-128,300,-30,32
4255,1,-207,-122,294,-33,29
4260,1,-213,-125,291,-32,27
4265,-2,-215,-124,292,-32,26
4270,-3,-214,-123,296,-31,21
4275,0,-214,-121,300,-27,19
4280,0,-217,-123,306,-26,16
4285,0,-218,-118,314,-24,14
4290,0,-218,-120,323,-21,14
4295,1,-218,-119,334,-17,13
4300,1,-220,-116,343,-13,12
4305,1,-217,-119,356,-10,12
4310,4,-219,-118,366,-8,11
4315,3,-217,-118,379,-6,10
4320,1,-217,-118,388,-3,12
4325,4,-216,-111,398,0,13
4330,3,-215,-119,405,1,13
4335,3,-217,-119,411,3,14
4340,5,-213,-121,416,5,14
4345,5,-214,-123,419,5,17
4350,5,-212,-124,422,5,18
4355,4,-214,-122,421,7,18
4360,5,-213,-123,420,10,20
4365,4,-215,-124,416,11,24
4370,3,-211,-118,413,12,24
4375,3,-214,-127,407,12,28
4380,6,-214,-122,399,10,30
4385,4,-214,-122,390,9,30
4390,4,-217,-125,379,7,34
4395,7,-218,-120,367,6,37
4400,4,-218,-119,357,8,42
4405,2,-218,-122,352,8,42
4410,2,-220,-119,351,7,44
4415,0,-218,-122,356,7,46
4420,0,-220,-117,362,7,50
4425,4,-227,-118,369,1,51
4430,2,-223,-119,377,-2,52
4435,1,-221,-114,386,-4,53
4440,1,-221,-113,395,-5,52
4445,2,-218,-115,403,-7,54
4450,2,-218,-111,409,-9,54
4455,2,-218,-115,409,-10,54
4460,1,-215,-114,408,-8,53
4465,2,-216,-110,400,-9,53
4470,1,-213,-106,390,-11,50
4475,0,-214,-109,374,-10,49
4480,-3,-217,-111,354,-13,44
4485,0,-212,-108,333,-13,39
4490,1,-213,-112,310,-11,35
4495,1,-215,-110,288,-9,29
4500,0,-220,-107,266,-8,24
4505,0,-220,-106,248,-7,20
4510,1,-220,-106,234,-5,14
4515,2,-222,-106,225,-3,12
4520,-1,-221,-108,220,-2,9
4525,3,-224,-107,221,-3,4
4530,2,-225,-106,223,-2,3
4535,0,-222,-110,230,-2,3
4540,3,-224,-107,238,-1,0
4545,-3,-225,-107,245,-2,2
4550,0,-221,-109,247,-1,3
4555,1,-222,-111,245,-1,5
4560,1,-222,-108,242,-2,6
4565,1,-222,-109,235,-2,5
4570,0,-220,-108,225,-2,6
4575,1,-221,-106,217,-2,3
4580,4,-224,-108,207,-3,2
4585,1,-219,-109,199,-1,2
4590,1,-219,-110,192,-2,-1
4595,0,-221,-110,186,-2,-2
4600,-1,-226,-106,183,-1,-2
4605,1,-223,-108,180,-3,-4
4610,1,-222,-107,178,-4,-4
4615,0,-223,-107,176,-6,-6
4620,0,-225,-107,176,-7,-6
4625,-1,-222,-106,177,-7,-7
4630,2,-224,-102,180,-11,-6
4635,2,-225,-100,186,-14,-7
4640,2,-225,-101,188,-17,-7
4645,0,-225,-103,191,-18,-6
4650,-4,-217,-105,195,-16,-8
4655,3,-222,-103,196,-18,-12
4660,5,-223,-102,194,-19,-14
4665,3,-224,-100,189,-19,-17
4670,3,-227,-101,181,-18,-20
4675,1,-221,-102,173,-18,-22
4680,2,-225,-100,164,-17,-25
4685,-2,-221,-104,153,-15,-28
4690,0,-225,-101,142,-15,-29
4695,4,-226,-101,132,-12,-29
4700,0,-224,-103,125,-9,-29
4705,0,-226,-105,120,-7,-29
4710,1,-230,-102,118,-5,-27
4715,0,-228,-102,118,0,-28
4720,-1,-228,-103,122,4,-27
4725,-1,-225,-102,127,7,-27
4730,0,-228,-105,134,10,-25
4735,-1,-230,-103,143,10,-22
4740,-1,-229,-102,151,11,-21
4745,0,-225,-102,160,12,-19
4750,0,-230,-103,167,11,-16
4755,0,-222,-99,174,12,-13
4760,-3,-228,-102,179,10,-10
4765,0,-227,-97,185,7,-8
4770,0,-229,-99,189,6,-8
4775,-1,-227,-97,192,3,-10
4780,0,-227,-96,194,-1,-12
4785,0,-229,-97,195,-5,-16
4790,0,-225,-95,195,-9,-16
4795,0,-226,-94,191,-14,-21
4800,0,-222,-98,188,-19,-24
4805,0,-224,-93,184,-23,-29
4810,1,-228,-91,179,-27,-32
4815,4,-221,-99,174,-31,-36
4820,1,-227,-95,168,-33,-39
4825,0,-228,-93,163,-38,-41
4830,1,-224,-93,157,-40,-45
4835,2,-228,-93,151,-45,-47
4840,2,-227,-96,145,-50,-51
4845,2,-230,-94,141,-51,-51
4850,1,-231,-96,135,-53,-51
4855,0,-225,-101,132,-52,-51
4860,-1,-231,-98,127,-49,-49
4865,1,-225,-98,122,-47,-50
4870,4,-231,-97,118,-45,-48
4875,1,-226,-101,113,-43,-49
4880,2,-226,-97,114,-39,-47
4885,1,-228,-105,115,-34,-44
4890,0,-227,-103,119,-27,-39
4895,1,-227,-102,125,-21,-33
4900,2,-226,-102,127,-12,-26
4905,0,-225,-106,129,-6,-19
4910,-2,-224,-101,129,4,-13
4915,0,-226,-98,124,10,-6
4920,4,-226,-95,117,17,-2
4925,1,-225,-96,108,24,-1
4930,2,-226,-94,96,33,3
4935,3,-228,-88,85,40,3
4940,1,-224,-95,72,46,1
4945,1,-224,-89,59,48,0
4950,0,-225,-90,45,52,0
4955,1,-224,-92,32,52,-3
4960,1,-223,-91,23,51,-4
4965,3,-225,-92,11,49,-7
4970,1,-228,-92,4,45,-8
4975,3,-229,-91,-1,40,-8
4980,4,-229,-85,-2,34,-8
4985,1,-224,-96,2,28,-11
4990,1,-227,-98,8,22,-10
4995,0,-228,-100,20,18,-11
5000,1,-233,-98,35,14,-9
5005,0,-231,-99,50,12,-5
5010,2,-231,-97,65,11,0
5015,0,-228,-101,74,10,2
5020,0,-228,-97,79,9,4
5025,-2,-229,-103,78,7,4
5030,0,-229,-100,73,6,1
5035,0,-227,-102,63,6,-1
5040,0,-228,-100,51,9,-2
5045,1,-228,-101,39,10,-9
5050,1,-225,-97,23,15,-8
5055,-2,-227,-100,9,16,-9
5060,1,-228,-96,-4,18,-12
5065,1,-231,-95,-14,20,-14
5070,2,-232,-93,-21,21,-13
5075,0,-226,-94,-23,23,-12
5080,0,-226,-97,-20,22,-12
5085,0,-226,-99,-14,22,-11
5090,1,-227,-94,-5,22,-11
5095,0,-229,-93,5,22,-8
5100,0,-224,-94,16,22,-5
5105,-1,-224,-89,24,22,-2
5110,2,-227,-94,27,22,1
5115,1,-222,-90,26,23,2
5120,-1,-225,-93,20,22,1
5125,0,-224,-96,9,21,-1
5130,0,-228,-94,-5,20,-3
5135,0,-226,-96,-19,21,-6
5140,3,-228,-88,-31,23,-9
5145,1,-227,-98,-40,23,-12
5150,0,-228,-94,-46,25,-14
5155,1,-230,-94,-47,25,-16
5160,0,-229,-98,-46,28,-18
5165,2,-230,-97,-43,29,-18
5170,0,-226,-100,-37,33,-23
5175,0,-226,-100,-33,35,-23
5180,1,-226,-97,-28,38,-25
5185,2,-228,-106,-23,38,-25
5190,1,-225,-104,-17,37,-27
5195,1,-230,-98,-13,38,-27
5200,-2,-225,-102,-7,37,-25
5205,1,-227,-107,-3,36,-21
5210,1,-227,-105,0,35,-19
5215,1,-226,-107,2,34,-20
5220,3,-227,-104,7,33,-17
5225,-1,-225,-103,10,32,-16
5230,0,-224,-103,14,31,-15
5235,2,-227,-102,16,31,-14
5240,0,-221,-108,17,31,-16
5245,4,-226,-102,18,30,-16
5250,3,-225,-101,16,29,-16
5255,0,-225,-100,12,30,-16
5260,3,-224,-98,7,32,-17
5265,0,-223,-101,2,33,-19
5270,1,-228,-98,-6,33,-21
5275,1,-228,-97,-13,35,-24
5280,1,-226,-104,-21,37,-26
5285,1,-226,-100,-27,39,-30
5290,1,-227,-98,-31,42,-31
5295,4,-233,-98,-33,44,-33
5300,0,-227,-98,-31,47,-33
5305,6,-226,-103,-26,48,-35
5310,1,-227,-108,-20,50,-33
5315,0,-226,-103,-11,50,-31
5320,1,-226,-102,-3,51,-29
5325,2,-224,-104,5,48,-26
5330,1,-224,-108,14,46,-23
5335,4,-226,-108,23,44,-23
5340,0,-221,-100,26,41,-21
5345,2,-229,-110,28,39,-20
5350,1,-221,-100,29,38,-18
5355,0,-219,-104,28,34,-18
5360,-5,-220,-103,26,32,-17
5365,1,-224,-104,23,30,-15
5370,2,-224,-106,20,29,-15
5375,1,-223,-104,17,27,-14
5380,1,-225,-103,16,25,-14
5385,1,-225,-101,16,24,-11
5390,2,-227,-105,17,24,-11
5395,2,-228,-107,18,22,-10
5400,0,-225,-107,20,20,-8
5405,1,-229,-101,21,19,-8
5410,0,-226,-103,24,19,-7
5415,0,-226,-105,25,16,-4
5420,1,-225,-105,26,16,-3
5425,2,-226,-102,27,16,-1
5430,2,-224,-109,29,16,0
5435,1,-227,-101,29,16,-1
5440,2,-223,-105,31,17,1
5445,2,-225,-104,30,18,2
5450,6,-227,-108,31,19,1
5455,1,-223,-105,33,19,0
5460,2,-225,-106,33,20,-3
5465,1,-221,-105,34,20,-2
5470,-1,-221,-112,35,20,-5
5475,2,-225,-105,38,18,-5
5480,2,-223,-103,40,17,-6
5485,1,-225,-105,41,14,-7
5490,-2,-223,-107,43,14,-8
5495,1,-225,-101,43,14,-7
5500,0,-223,-106,43,13,-8
5505,5,-224,-107,42,13,-8
5510,3,-228,-108,41,14,-9
5515,1,-223,-109,42,14,-9
5520,1,-220,-107,41,16,-8
5525,0,-226,-110,39,16,-9
5530,3,-224,-108,38,17,-8
5535,2,-224,-104,37,17,-6
5540,5,-227,-105,35,17,-5
5545,0,-220,-106,33,18,-2
5550,0,-222,-107,31,19,-4
5555,1,-224,-104,29,21,-5
5560,2,-228,-103,27,23,-6
5565,4,-229,-109,24,25,-6
5570,0,-227,-111,23,28,-9
5575,2,-230,-103,23,28,-9
5580,1,-230,-106,23,28,-9
5585,1,-224,-103,25,31,-9
5590,0,-224,-105,25,32,-12
5595,1,-226,-106,28,32,-10
5600,1,-224,-109,29,32,-9
5605,1,-225,-106,31,33,-8
5610,1,-224,-107,33,32,-4
5615,2,-225,-108,35,33,0
5620,1,-219,-106,36,31,0
5625,3,-223,-107,36,29,1
5630,1,-222,-105,35,29,2
5635,0,-226,-108,34,27,1
5640,1,-222,-106,34,25,-1
5645,1,-223,-104,34,22,-1
5650,3,-225,-106,35,20,0
5655,3,-226,-105,37,18,-3
5660,0,-224,-102,37,17,-2
5665,1,-223,-103,37,18,-4
5670,0,-222,-100,36,16,-5
5675,3,-225,-105,36,16,-7
5680,0,-222,-106,36,16,-8
5685,2,-225,-111,35,17,-10
5690,0,-223,-104,33,17,-12
5695,1,-224,-104,32,19,-13
5700,1,-224,-102,30,21,-14
5705,-1,-226,-104,28,25,-14
5710,1,-224,-103,28,25,-14
5715,2,-226,-105,29,27,-15
5720,4,-225,-107,28,28,-13
5725,3,-226,-106,30,29,-12
5730,1,-228,-109,32,31,-10
5735,3,-224,-107,34,30,-9
5740,4,-226,-106,37,31,-7
5745,0,-225,-105,39,30,-6
5750,1,-223,-110,42,29,-5
5755,0,-223,-108,43,28,-4
5760,2,-224,-110,43,29,-3
5765,2,-222,-108,44,27,-3
5770,2,-224,-106,44,26,-3
5775,2,-224,-109,43,24,-2
5780,1,-224,-107,42,23,-4
5785,3,-223,-106,38,21,-6
5790,2,-223,-105,33,22,-7
5795,-1,-227,-103,32,22,-9
5800,1,-224,-105,30,21,-10
5805,1,-227,-104,29,22,-11
5810,1,-226,-104,30,22,-14
5815,2,-225,-100,30,23,-14
5820,0,-224,-103,29,24,-15
5825,1,-227,-106,30,25,-14
5830,0,-224,-106,31,24,-14
5835,0,-224,-105,34,25,-13
5840,-1,-224,-105,37,26,-10
5845,1,-229,-104,43,25,-9
5850,2,-229,-106,47,26,-8
5855,1,-227,-106,50,25,-7
5860,3,-226,-108,54,24,-5
5865,4,-231,-106,56,22,-3
5870,2,-225,-106,60,21,-2
5875,2,-225,-105,64,20,-3
5880,4,-223,-101,69,20,-3
5885,2,-220,-109,71,19,-4
5890,0,-226,-111,72,18,-4
5895,6,-226,-107,73,17,-6
5900,1,-223,-109,73,17,-8
5905,3,-229,-104,71,15,-10
5910,4,-226,-105,68,13,-12
5915,1,-224,-105,66,12,-16
5920,2,-225,-106,64,11,-19
5925,1,-222,-107,60,9,-19
5930,2,-225,-104,56,9,-21
5935,3,-224,-106,54,8,-23
5940,1,-221,-109,54,10,-21
5945,1,-227,-106,51,10,-19
5950,3,-222,-103,52,12,-17
5955,1,-222,-105,55,14,-15
5960,2,-221,-104,57,13,-12
5965,2,-225,-107,57,13,-11
5970,3,-225,-104,55,14,-10
5975,2,-222,-105,54,13,-8
5980,0,-221,-103,52,13,-8
5985,2,-222,-102,50,11,-8
5990,1,-221,-103,46,11,-9
5995,2,-225,-109,45,11,-8
6000,-1,-222,-108,45,13,-10
6005,2,-224,-107,44,14,-11
6010,4,-225,-104,46,15,-10
6015,2,-227,-98,48,16,-12
6020,0,-226,-98,49,18,-13
6025,2,-229,-103,54,18,-12
6030,0,-224,-102,58,19,-12
6035,5,-228,-102,62,19,-12
6040,2,-224,-101,67,19,-12
6045,2,-225,-108,71,17,-8
6050,5,-225,-104,73,17,-9
6055,4,-225,-107,74,16,-9
6060,2,-224,-102,73,16,-13
6065,3,-222,-109,70,16,-10
6070,1,-217,-107,70,15,-11
6075,1,-224,-109,67,13,-11
6080,2,-221,-105,65,13,-12
6085,2,-221,-107,63,14,-10
6090,0,-223,-105,61,15,-10
6095,1,-226,-109,61,15,-10
6100,1,-223,-108,59,15,-11
6105,3,-225,-110,59,15,-11
6110,0,-226,-105,60,16,-11
6115,1,-226,-104,63,17,-11
6120,2,-226,-107,66,17,-8
6125,1,-229,-103,69,19,-9
6130,0,-224,-107,72,20,-7
6135,1,-223,-106,75,21,-7
6140,2,-226,-104,78,22,-8
6145,4,-225,-105,80,22,-7
6150,0,-223,-106,80,22,-4
6155,1,-222,-101,79,23,-6
6160,2,-226,-107,78,23,-7
6165,3,-225,-103,78,22,-5
6170,3,-227,-105,76,22,-6
6175,1,-223,-107,76,21,-6
6180,2,-227,-102,75,21,-8
6185,3,-225,-103,73,20,-9
6190,2,-226,-100,71,18,-9
6195,3,-228,-103,67,18,-10
6200,2,-225,-103,65,17,-11
6205,1,-225,-102,63,16,-11
6210,1,-223,-102,60,15,-14
6215,0,-223,-100,57,13,-13
6220,2,-224,-101,53,12,-14
6225,4,-225,-103,49,12,-16
6230,3,-224,-96,47,11,-17
6235,1,-227,-102,41,11,-17
6240,1,-223,-103,37,11,-17
6245,1,-224,-100,33,11,-17
6250,3,-226,-99,31,11,-16
6255,0,-226,-102,30,11,-16
6260,1,-226,-103,31,11,-15
6265,0,-225,-101,34,10,-16
6270,0,-225,-101,38,9,-15
6275,-2,-223,-104,42,9,-14
6280,3,-227,-105,48,9,-13
6285,4,-226,-97,52,8,-12
6290,0,-221,-103,58,9,-11
6295,5,-226,-106,63,9,-12
6300,3,-225,-105,68,9,-12
6305,3,-226,-101,70,11,-10
6310,1,-223,-109,72,12,-9
6315,2,-224,-109,73,12,-6
6320,0,-221,-104,72,13,-6
6325,3,-223,-107,72,14,-3
6330,3,-225,-109,69,15,-3
6335,2,-221,-106,67,15,-2
6340,2,-226,-106,64,16,-1
6345,3,-224,-107,61,18,-3
6350,5,-224,-103,59,18,-2
6355,4,-224,-107,57,19,-1
6360,3,-225,-108,57,18,-1
6365,2,-225,-105,56,16,-2
6370,4,-225,-105,57,16,-2
6375,3,-226,-101,58,14,-2
6380,5,-228,-102,60,13,-4
6385,4,-226,-98,63,13,-4
6390,0,-225,-105,66,12,-5
6395,3,-227,-101,66,12,-5
6400,1,-225,-104,68,13,-7
6405,2,-223,-102,69,10,-9
6410,2,-227,-102,67,13,-8
6415,2,-225,-104,66,14,-9
6420,1,-225,-102,65,16,-9
6425,0,-224,-105,67,17,-8
6430,3,-230,-106,67,18,-9
6435,4,-225,-101,69,19,-9
6440,2,-222,-104,70,20,-7
6445,1,-221,-100,72,21,-5
6450,1,-226,-101,71,22,-4
6455,0,-226,-105,74,24,-2
6460,0,-226,-103,74,24,1
6465,0,-224,-101,74,25,3
6470,1,-226,-103,72,25,4
6475,0,-224,-104,70,24,4
6480,0,-227,-103,67,21,5
6485,0,-226,-102,67,20,5
6490,0,-226,-102,65,19,3
6495,-1,-220,-102,64,16,1
6500,1,-225,-98,66,14,0
6505,2,-224,-99,63,12,-1
6510,0,-227,-100,63,11,-2
6515,2,-225,-98,62,9,-4
6520,1,-223,-101,58,9,-5
6525,2,-226,-98,54,8,-8
6530,0,-224,-100,50,7,-8
6535,1,-223,-102,46,6,-10
6540,3,-223,-106,40,5,-13
6545,-2,-222,-100,36,6,-11
6550,-3,-221,-102,32,6,-12
6555,2,-227,-98,28,9,-14
6560,0,-226,-105,25,9,-15
6565,0,-222,-107,25,11,-14
6570,2,-223,-104,22,12,-12
6575,3,-224,-105,22,12,-12
6580,2,-226,-104,23,13,-10
6585,3,-223,-109,25,15,-9
6590,0,-222,-103,29,16,-6
6595,1,-219,-109,31,18,-6
6600,-1,-225,-110,34,19,-3
6605,1,-226,-111,35,19,-2
6610,4,-225,-109,36,21,-2
6615,0,-219,-107,32,21,-4
6620,1,-225,-109,30,21,-4
6625,2,-226,-111,29,22,-3
6630,2,-224,-110,25,23,-3
6635,2,-225,-106,24,23,-4
6640,1,-218,-106,22,24,-3
6645,3,-224,-106,24,23,-4
6650,1,-225,-106,26,22,-5
6655,4,-224,-103,28,21,-5
6660,0,-225,-105,32,21,-4
6665,2,-222,-107,35,20,-4
6670,0,-224,-109,37,20,-4
6675,2,-222,-104,39,19,-4
6680,2,-222,-103,40,19,-3
6685,2,-226,-106,40,19,-2
6690,2,-226,-103,40,18,-1
6695,2,-224,-108,40,16,-2
6700,6,-227,-98,40,15,-3
6705,0,-228,-103,38,15,-2
6710,2,-228,-104,36,14,-2
6715,4,-225,-107,36,13,-2
6720,8,-227,-107,37,11,-4
6725,2,-226,-103,40,11,-4
6730,3,-225,-104,43,11,-5
6735,2,-223,-104,45,11,-6
6740,1,-224,-107,48,9,-8
6745,2,-225,-100,50,8,-8
6750,3,-229,-107,54,8,-9
6755,0,-226,-104,58,7,-9
6760,3,-225,-100,60,6,-7
6765,3,-223,-106,61,5,-10
6770,2,-222,-112,63,3,-10
6775,4,-227,-108,65,3,-9
6780,3,-224,-105,64,4,-8
6785,3,-226,-103,65,3,-8
6790,2,-225,-106,63,2,-7
6795,2,-224,-107,62,4,-6
6800,2,-223,-104,58,5,-3
6805,3,-223,-108,55,6,-2
6810,1,-221,-111,54,6,-1
6815,0,-221,-103,50,7,-2
6820,0,-223,-105,45,9,-1
6825,8,-226,-101,44,9,-1
6830,1,-220,-106,44,9,0
6835,3,-227,-103,43,10,-3
6840,2,-226,-103,44,10,-2
6845,1,-226,-102,49,10,-4
6850,1,-226,-109,56,11,-5
6855,1,-225,-104,61,11,-5
6860,2,-227,-104,69,11,-5
6865,4,-226,-111,76,11,-7
6870,1,-228,-106,81,10,-7
6875,1,-224,-99,86,11,-6
6880,4,-223,-105,90,11,-6
6885,1,-223,-104,91,11,-4
6890,0,-222,-103,92,11,-2
6895,2,-223,-106,92,11,-1
6900,1,-223,-105,92,13,1
6905,4,-224,-106,91,12,4
6910,0,-223,-103,91,12,5
6915,1,-222,-104,91,12,7
6920,0,-226,-106,90,11,7
6925,-1,-227,-107,90,11,8
6930,-1,-225,-103,90,11,9
6935,1,-220,-108,90,11,10
6940,-1,-221,-103,91,11,7
6945,0,-228,-106,93,11,7
6950,1,-227,-102,94,12,6
6955,2,-228,-103,98,11,5
6960,2,-225,-99,98,10,6
6965,-1,-225,-103,101,11,4
6970,2,-228,-102,104,9,3
6975,1,-224,-102,107,8,2
6980,2,-226,-102,110,8,0
6985,0,-226,-111,113,4,0
6990,1,-230,-103,117,3,-1
6995,1,-226,-104,117,2,-1
7000,0,-225,-101,117,0,-3
7005,0,-227,-104,118,-1,-2
7010,0,-225,-102,117,-1,-1
7015,0,-228,-104,118,-3,0
7020,2,-226,-105,116,-3,0
7025,0,-226,-102,113,-3,-1
7030,1,-226,-101,109,-2,1
7035,-1,-222,-103,106,-3,1
7040,2,-221,-103,101,-1,1
7045,1,-226,-99,94,0,3
7050,0,-221,-99,88,2,3
7055,0,-223,-104,83,2,1
7060,1,-225,-102,79,2,2
7065,1,-224,-101,77,3,2
7070,0,-226,-99,75,2,2
7075,0,-222,-105,75,1,1
7080,1,-225,-103,75,-1,-1
7085,3,-226,-105,75,-2,-4
7090,0,-220,-103,77,-5,-5
7095,0,-223,-102,76,-8,-7
7100,0,-224,-98,74,-11,-9
7105,9,-228,-97,74,-13,-11
7110,-2,-226,-98,71,-14,-15
7115,1,-228,-101,68,-15,-18
7120,0,-227,-104,65,-15,-19
7125,1,-225,-101,62,-13,-19
7130,-1,-224,-103,59,-11,-18
7135,-1,-222,-102,57,-7,-15
7140,3,-223,-101,52,-3,-15
7145,3,-225,-97,46,1,-12
7150,4,-225,-98,39,5,-11
7155,0,-226,-103,29,8,-10
7160,1,-221,-106,19,10,-8
7165,2,-226,-103,12,10,-9
7170,1,-222,-103,4,7,-11
7175,2,-227,-99,0,6,-14
7180,1,-225,-98,-5,3,-17
7185,1,-226,-100,-4,1,-19
7190,1,-223,-104,0,0,-19
7195,1,-228,-100,8,-2,-19
7200,-1,-225,-100,17,-4,-18
7205,1,-222,-104,27,-4,-17
7210,0,-228,-100,34,-3,-16
7215,0,-226,-98,40,-1,-15
7220,1,-226,-102,41,1,-16
7225,1,-224,-100,42,1,-16
7230,0,-225,-99,40,3,-13
7235,1,-224,-105,37,4,-14
7240,0,-219,-103,31,4,-13
7245,-2,-222,-105,25,6,-14
7250,-1,-222,-102,19,6,-14
7255,2,-225,-100,12,7,-13
7260,1,-216,-100,6,7,-15
7265,-2,-214,-106,-3,8,-13
7270,0,-220,-104,-13,9,-9
7275,3,-222,-102,-24,10,-9
7280,1,-222,-104,-34,9,-5
7285,-1,-221,-103,-49,9,-6
7290,2,-221,-102,-65,7,-4
7295,0,-221,-104,-89,4,-7
7300,0,-219,-106,-111,4,-10
7305,-1,-223,-101,-134,2,-13
7310,2,-220,-108,-155,-1,-15
7315,2,-221,-100,-175,-3,-15
7320,13,-224,-99,-193,-5,-15
7325,5,-225,-105,-214,-6,-13
7330,7,-226,-100,-234,-7,-12
7335,3,-224,-103,-257,-8,-10
7340,3,-226,-102,-278,-10,-12
7345,1,-227,-104,-295,-15,-13
7350,4,-226,-107,-305,-22,-18
7355,7,-228,-110,-305,-30,-22
7360,4,-225,-108,-294,-37,-23
7365,3,-222,-112,-271,-42,-19
7370,4,-227,-109,-240,-44,-16
7375,2,-222,-111,-204,-44,-12
7380,2,-222,-113,-169,-41,-9
7385,2,-217,-110,-138,-37,-3
7390,0,-214,-108,-115,-33,-2
7395,0,-218,-111,-103,-31,0
7400,-3,-212,-112,-102,-26,0
7405,0,-216,-116,-114,-25,-3
7410,-8,-211,-111,-134,-22,-2
7415,-2,-211,-108,-166,-18,-4
7420,-4,-213,-118,-203,-13,-7
7425,-8,-211,-112,-244,-8,-12
7430,-4,-220,-114,-289,-6,-20
7435,-8,-213,-115,-332,-2,-27
7440,-2,-215,-115,-367,1,-36
7445,-9,-217,-111,-397,4,-46
7450,-6,-218,-116,-418,5,-57
7455,-10,-216,-115,-430,5,-66
7460,-4,-218,-114,-437,6,-77
7465,-7,-220,-116,-434,9,-87
7470,-2,-218,-115,-427,13,-93
7475,1,-215,-115,-412,16,-96
7480,3,-216,-113,-396,19,-99
7485,1,-218,-113,-381,19,-98
7490,2,-214,-111,-371,17,-93
7495,0,-213,-114,-367,12,-85
7500,4,-211,-114,-371,12,-82
7505,6,-215,-115,-383,11,-79
7510,8,-211,-110,-400,10,-77
7515,8,-209,-116,-419,9,-75
7520,11,-208,-113,-440,9,-77
7525,6,-205,-117,-459,8,-73
7530,7,-208,-115,-472,7,-67
7535,7,-208,-116,-483,7,-59
7540,6,-213,-113,-491,8,-50
7545,6,-209,-119,-496,9,-48
7550,10,-209,-121,-500,10,-45
7555,6,-207,-122,-514,18,-23
7560,6,-210,-119,-525,24,-17
7565,5,-207,-118,-532,28,-22
7570,3,-209,-124,-536,32,-23
7575,5,-207,-125,-542,37,-20
7580,9,-211,-127,-552,46,-12
7585,4,-216,-124,-566,56,4
7590,1,-214,-119,-568,60,-1
7595,4,-219,-123,-555,60,-16
7600,3,-221,-123,-542,62,-27
7605,9,-222,-128,-526,64,-31
7610,7,-219,-121,-505,65,-28
7615,13,-221,-127,-488,68,-8
7620,10,-238,-125,-475,70,18
7625,-1,-216,-123,-466,63,-15
7630,14,-222,-118,-437,48,-26
7635,10,-218,-122,-401,35,-26
7640,13,-216,-120,-374,27,-21
7645,14,-221,-127,-359,23,-10
7650,3,-210,-121,-372,20,-7
7655,13,-208,-116,-374,9,-1
7660,13,-210,-125,-354,-8,-10
7665,15,-210,-128,-337,-16,-16
7670,12,-202,-131,-336,-22,-21
7675,12,-203,-127,-344,-23,-14
7680,7,-199,-131,-366,-18,4
7685,1,-197,-133,-389,-11,14
7690,2,-195,-135,-399,-8,-7
7695,3,-196,-142,-411,2,-28
7700,2,-194,-147,-430,12,-34
7705,1,-193,-151,-446,25,-34
7710,1,-195,-152,-462,39,-32
7715,1,-193,-153,-476,52,-32
7720,0,-194,-154,-490,62,-35
7725,1,-195,-150,-499,70,-33
7730,0,-193,-153,-508,78,-35
7735,1,-193,-159,-516,86,-34
7740,0,-192,-155,-524,90,-29
7745,0,-191,-156,-532,93,-24
7750,6,-192,-152,-554,99,3
7755,-4,-190,-147,-583,104,38
7760,-2,-186,-149,-592,97,24
7765,-1,-192,-143,-583,91,5
7770,0,-190,-140,-585,91,-3
7775,-4,-192,-143,-595,91,-2
7780,-4,-188,-133,-611,92,-10
7785,2,-191,-136,-629,90,-4
7790,0,-197,-134,-635,85,6
7795,-1,-191,-137,-639,81,11
7800,0,-197,-134,-646,74,10
7805,1,-196,-133,-652,67,7
7810,-1,-191,-135,-657,59,2
7815,1,-198,-133,-658,50,3
7820,1,-202,-140,-655,44,4
7825,-1,-207,-138,-647,35,4
7830,1,-214,-143,-633,30,10
7835,4,-218,-144,-620,28,27
7840,-9,-216,-143,-615,32,63
7845,-5,-212,-147,-598,24,41
7850,2,-216,-153,-563,20,28
7855,1,-215,-156,-542,23,27
7860,6,-218,-160,-526,28,28
7865,9,-209,-156,-508,34,32
7870,5,-210,-157,-485,41,34
7875,4,-208,-158,-456,47,38
7880,7,-208,-166,-424,54,43
7885,9,-207,-166,-387,58,53
7890,6,-206,-168,-344,59,60
7895,8,-207,-175,-298,56,69
7900,9,-205,-173,-250,50,79
7905,5,-199,-176,-200,39,82
7910,8,-200,-181,-147,23,82
7915,2,-194,-188,-95,8,83
7920,5,-189,-200,-47,-11,79
7925,6,-188,-194,-4,-31,73
7930,6,-183,-199,36,-46,68
7935,4,-182,-201,74,-58,61
7940,4,-180,-197,113,-64,53
7945,4,-177,-199,152,-66,46
7950,3,-175,-197,187,-65,41
7955,-1,-176,-196,220,-62,39
7960,0,-175,-195,250,-56,42
7965,-8,-169,-195,272,-47,43
7970,-5,-172,-195,283,-37,46
7975,-9,-173,-200,282,-21,52
7980,-7,-179,-195,273,3,58
7985,-8,-172,-203,259,31,67
7990,-8,-173,-199,237,56,77
7995,-9,-177,-200,207,78,89
8000,-4,-177,-200,170,95,97
8005,-9,-180,-195,133,110,104
8010,-10,-184,-195,89,119,108
8015,-4,-188,-200,42,124,113
8020,-6,-193,-198,-13,125,110
8025,0,-197,-192,-72,124,105
8030,-12,-201,-196,-136,120,100
8035,-7,-202,-190,-201,116,102
8040,0,-205,-195,-269,113,98
8045,-10,-206,-198,-338,103,75
8050,-7,-207,-199,-402,96,78
8055,-8,-212,-202,-460,82,90
8060,-2,-220,-202,-508,61,83
8065,-14,-224,-205,-546,29,68
8070,-11,-229,-212,-565,0,78
8075,0,-250,-214,-564,-33,75
8080,-9,-252,-218,-546,-68,42
8085,-6,-259,-224,-517,-97,11
8090,-2,-274,-237,-478,-124,-16
8095,-11,-281,-239,-437,-155,-75
8100,-6,-292,-246,-395,-183,-130
8105,-9,-295,-256,-347,-203,-184
8110,-3,-294,-260,-245,-202,-216
8115,-2,-293,-262,-84,-190,-250
8120,1,-283,-264,121,-175,-309
8125,-1,-267,-263,363,-162,-367
8130,-2,-257,-266,629,-151,-412
8135,-3,-244,-268,880,-141,-440
8140,0,-224,-258,1084,-127,-429
8145,0,-209,-252,1225,-119,-410
8150,0,-198,-248,1298,-117,-390
8155,2,-192,-237,1316,-114,-363
8160,0,-184,-225,1288,-115,-329
8165,-5,-178,-215,1224,-121,-296
8170,-5,-178,-206,1140,-130,-256
8175,-5,-174,-201,1032,-145,-231
8180,-1,-174,-196,915,-160,-203
8185,-4,-174,-185,797,-172,-179
8190,-6,-181,-181,691,-181,-155
8195,-6,-175,-172,601,-189,-141
8200,-3,-180,-176,533,-196,-131
8205,-1,-183,-172,487,-202,-123
8210,0,-185,-168,458,-202,-118
8215,0,-192,-173,449,-194,-115
8220,1,-195,-163,450,-180,-112
8225,2,-199,-162,459,-164,-109
8230,0,-205,-158,471,-147,-108
8235,-2,-210,-161,486,-131,-109
8240,-1,-209,-155,503,-120,-113
8245,-2,-216,-151,524,-113,-117
8250,-1,-219,-153,548,-110,-126
8255,-4,-222,-151,577,-111,-141
8260,-5,-221,-152,608,-113,-153
8265,-5,-219,-151,635,-121,-166
8270,-10,-215,-154,661,-133,-179
8275,-8,-213,-153,676,-150,-193
8280,-7,-209,-153,687,-170,-203
8285,-7,-206,-150,694,-190,-209
8290,-2,-200,-157,691,-212,-218
8295,-8,-202,-156,680,-234,-227
8300,-8,-194,-152,685,-257,-230
8305,-2,-193,-159,700,-276,-235
8310,-2,-191,-159,715,-291,-236
8315,0,-188,-165,734,-299,-237
8320,1,-188,-163,756,-296,-239
8325,1,-185,-169,776,-287,-240
8330,-2,-185,-180,777,-268,-244
8335,-1,-183,-174,761,-243,-246
8340,-6,-175,-171,752,-227,-238
8345,-1,-181,-170,744,-218,-227
8350,-3,-175,-168,732,-216,-210
8355,-1,-175,-162,713,-216,-200
8360,-2,-173,-155,687,-215,-192
8365,0,-170,-150,657,-214,-184
8370,0,-171,-146,625,-213,-175
8375,2,-165,-139,592,-207,-167
8380,0,-167,-128,561,-200,-158
8385,2,-162,-121,534,-195,-151
8390,1,-160,-113,516,-192,-144
8395,0,-160,-109,504,-191,-136
8400,3,-154,-104,500,-192,-131
8405,7,-155,-98,502,-188,-130
8410,4,-153,-99,510,-179,-129
8415,6,-147,-94,519,-169,-128
8420,2,-146,-90,529,-158,-129
8425,4,-145,-89,539,-147,-130
8430,4,-140,-88,546,-140,-135
8435,4,-141,-86,550,-131,-136
8440,7,-139,-86,549,-124,-139
8445,5,-137,-89,545,-119,-141
8450,6,-133,-86,539,-110,-142
8455,2,-133,-87,533,-104,-143
8460,1,-134,-87,530,-96,-141
8465,1,-137,-90,526,-92,-140
8470,2,-137,-93,528,-94,-139
8475,3,-142,-95,541,-98,-138
8480,2,-143,-99,556,-100,-139
8485,2,-140,-104,576,-104,-141
8490,1,-139,-109,593,-104,-141
8495,0,-144,-107,607,-102,-141
8500,-2,-143,-119,611,-98,-139
8505,0,-144,-119,602,-96,-136
8510,-4,-137,-118,584,-92,-132
8515,3,-142,-117,567,-94,-126
8520,0,-142,-123,547,-96,-121
8525,0,-146,-118,526,-98,-118
8530,0,-147,-123,503,-99,-114
8535,-7,-148,-122,481,-98,-108
8540,-4,-153,-121,459,-99,-104
8545,-7,-154,-121,438,-100,-100
8550,-3,-162,-119,417,-102,-96
8555,-4,-166,-119,400,-108,-90
8560,-10,-170,-119,384,-114,-87
8565,-5,-174,-112,365,-122,-83
8570,-3,-176,-105,350,-132,-80
8575,-2,-177,-113,340,-143,-80
8580,-2,-184,-112,333,-154,-80
8585,0,-184,-111,324,-165,-80
8590,2,-192,-114,317,-173,-83
8595,2,-193,-115,302,-177,-87
8600,1,-196,-115,285,-180,-92
8605,5,-205,-118,266,-178,-96
8610,5,-206,-119,245,-173,-102
8615,11,-214,-119,228,-167,-108
8620,10,-218,-118,214,-157,-114
8625,12,-216,-117,203,-144,-118
8630,13,-222,-117,193,-129,-120
8635,15,-227,-118,190,-115,-117
8640,14,-230,-119,194,-102,-115
8645,17,-231,-122,202,-90,-111
8650,18,-235,-120,213,-78,-110
8655,18,-236,-119,226,-68,-104
8660,18,-237,-121,234,-58,-98
8665,22,-240,-118,242,-50,-91
8670,20,-241,-119,245,-43,-84
8675,21,-240,-123,247,-39,-80
8680,22,-240,-120,247,-37,-75
8685,22,-239,-119,246,-33,-72
8690,21,-236,-122,243,-30,-68
8695,18,-234,-124,240,-26,-62
8700,14,-231,-118,238,-20,-58
8705,11,-228,-115,240,-16,-54
8710,9,-226,-119,240,-13,-50
8715,6,-219,-111,236,-8,-46
8720,4,-221,-115,232,-8,-43
8725,5,-214,-107,227,-7,-41
8730,1,-212,-109,221,-9,-39
8735,0,-209,-110,217,-13,-38
8740,-2,-205,-108,216,-18,-37
8745,0,-205,-106,221,-26,-34
8750,0,-201,-110,228,-35,-31
8755,1,-202,-101,238,-42,-31
8760,2,-198,-104,248,-50,-28
8765,0,-198,-105,256,-57,-25
8770,-1,-199,-109,256,-60,-24
8775,2,-195,-102,253,-63,-19
8780,4,-195,-105,244,-65,-17
8785,3,-199,-101,230,-66,-12
8790,3,-207,-106,216,-70,-11
8795,13,-207,-110,205,-73,-5
8800,10,-206,-105,195,-75,-2
8805,8,-207,-105,188,-75,3
8810,9,-209,-109,185,-74,6
8815,11,-210,-106,183,-72,8
8820,11,-216,-105,182,-67,10
8825,11,-218,-104,180,-62,13
8830,13,-217,-106,174,-60,13
8835,12,-218,-103,166,-59,13
8840,9,-216,-108,156,-57,15
8845,18,-229,-103,144,-55,14
8850,12,-225,-108,133,-52,14
8855,12,-229,-110,124,-47,14
8860,9,-228,-108,118,-40,15
8865,13,-230,-113,115,-33,17
8870,12,-232,-112,115,-25,15
8875,14,-229,-111,120,-15,13
8880,13,-230,-113,126,-4,13
8885,15,-231,-115,133,5,11
8890,11,-228,-112,139,14,8
8895,16,-226,-114,138,26,6
8900,7,-232,-113,135,35,4
8905,11,-223,-111,130,44,2
8910,9,-223,-113,122,52,-1
8915,9,-223,-113,116,59,-5
8920,9,-218,-113,111,66,-6
8925,9,-222,-113,108,70,-7
8930,10,-218,-111,107,74,-7
8935,7,-223,-109,108,80,-8
8940,12,-223,-109,109,86,-8
8945,8,-219,-108,111,91,-9
8950,7,-218,-105,113,94,-9
8955,8,-223,-98,112,98,-11
8960,9,-218,-102,113,102,-12
8965,7,-218,-103,111,103,-11
8970,7,-216,-101,108,108,-11
8975,8,-217,-103,105,114,-10
8980,9,-218,-104,101,120,-10
8985,8,-222,-101,98,128,-10
8990,6,-218,-105,95,136,-9
8995,9,-223,-103,94,143,-8
9000,9,-224,-100,92,149,-8
9005,9,-215,-97,92,156,-8
9010,9,-223,-110,94,162,-5
9015,8,-226,-105,93,166,-5
9020,11,-225,-106,94,167,-4
9025,8,-223,-106,97,167,-5
9030,8,-225,-108,100,164,-6
9035,11,-226,-106,106,161,-4
9040,7,-223,-110,110,155,-5
9045,9,-228,-109,114,151,-4
9050,9,-227,-104,119,146,-4
9055,5,-226,-109,123,143,-4
9060,9,-223,-106,126,142,-3
9065,3,-223,-107,127,139,-1
9070,6,-226,-106,126,139,1
9075,7,-225,-109,124,137,3
9080,6,-225,-104,121,134,3
9085,3,-227,-105,117,133,6
9090,3,-221,-106,115,130,7
9095,3,-227,-107,112,129,10
9100,4,-223,-105,106,128,14
9105,3,-223,-107,102,126,16
9110,0,-220,-106,95,126,17
9115,2,-221,-103,88,124,20
9120,3,-221,-105,83,121,21
9125,4,-221,-99,77,118,24
9130,5,-220,-101,73,114,26
9135,7,-220,-102,72,108,29
9140,4,-218,-98,67,105,32
9145,5,-217,-101,63,102,34
9150,7,-216,-100,59,98,35
9155,6,-213,-100,55,94,36
9160,4,-218,-103,53,90,38
9165,5,-218,-108,51,85,37
9170,4,-218,-103,49,79,38
9175,5,-222,-104,46,76,36
9180,5,-222,-103,46,72,36
9185,6,-222,-102,45,70,36
9190,6,-226,-106,45,69,36
9195,7,-224,-104,46,69,34
9200,5,-223,-103,47,69,34
9205,7,-227,-107,46,69,33
9210,4,-221,-106,43,67,33
9215,4,-223,-97,38,66,31
9220,3,-223,-102,33,65,32
9225,3,-218,-103,25,62,33
9230,3,-224,-108,18,61,33
9235,3,-225,-104,13,59,32
9240,6,-227,-104,9,60,31
9245,3,-225,-104,8,59,29
9250,2,-226,-106,9,58,31
9255,3,-226,-105,10,57,30
9260,1,-229,-101,13,57,29
9265,3,-233,-103,16,57,28
9270,4,-227,-107,21,57,28
9275,4,-226,-104,26,58,29
9280,3,-226,-109,29,58,28
9285,7,-229,-105,32,58,28
9290,6,-229,-104,34,57,26
9295,3,-224,-106,36,60,27
9300,5,-225,-101,37,61,24
9305,5,-223,-99,40,63,27
9310,2,-227,-103,41,64,29
9315,5,-227,-101,46,65,27
9320,3,-229,-101,51,66,26
9325,1,-224,-101,55,69,25
9330,7,-226,-100,62,71,23
9335,5,-225,-104,66,70,21
9340,2,-225,-98,71,70,21
9345,1,-225,-101,74,70,19
9350,2,-225,-101,79,65,18
9355,3,-223,-102,81,63,17
9360,4,-223,-97,83,61,18
9365,3,-225,-101,84,57,16
9370,2,-223,-106,82,54,15
9375,3,-219,-101,80,51,13
9380,2,-223,-106,79,48,15
9385,7,-223,-100,77,45,13
9390,1,-221,-110,75,44,15
9395,3,-224,-103,75,42,16
9400,1,-225,-104,75,41,16
9405,4,-225,-109,76,42,18
9410,2,-225,-105,79,43,17
9415,3,-225,-104,82,47,21
9420,1,-227,-105,82,50,23
9425,2,-223,-104,82,52,22
9430,3,-226,-106,82,56,24
9435,5,-225,-106,80,56,24
9440,4,-225,-109,78,55,25
9445,2,-230,-110,79,56,26
9450,3,-227,-108,78,55,25
9455,3,-227,-110,80,56,25
9460,4,-228,-104,85,55,25
9465,4,-228,-106,87,53,26
9470,3,-226,-103,91,51,25
9475,1,-225,-104,94,50,24
9480,4,-228,-101,98,50,23
9485,1,-224,-96,100,50,21
9490,2,-225,-101,103,52,21
9495,3,-224,-99,103,51,20
9500,5,-226,-92,106,52,17
9505,0,-225,-111,108,54,15
9510,2,-225,-94,106,53,14
9515,4,-217,-103,104,53,13
9520,11,-225,-102,100,53,11
9525,7,-227,-95,96,51,11
9530,7,-220,-104,92,49,10
9535,-3,-221,-107,88,45,8
9540,3,-220,-100,84,44,7
9545,-1,-230,-99,82,40,6
9550,-1,-223,-109,80,37,6
9555,0,-229,-99,78,31,3
9560,1,-221,-97,77,26,3
9565,0,-227,-93,77,19,3
9570,1,-225,-102,77,14,-1
9575,1,-226,-95,77,9,-1
9580,-6,-224,-106,79,5,-2
9585,1,-226,-84,79,2,-5
9590,-1,-219,-91,77,-2,-7
9595,-2,-224,-101,76,-7,-10
9600,0,-223,-94,75,-10,-9
9605,0,-230,-99,73,-14,-10
9610,1,-222,-98,73,-15,-13
9615,0,-227,-99,72,-16,-9
9620,4,-223,-107,70,-17,-10
9625,2,-226,-104,67,-18,-9
9630,1,-224,-101,66,-18,-6
9635,3,-226,-104,63,-15,-2
9640,3,-226,-103,62,-15,-2
9645,2,-225,-116,62,-12,-2
9650,2,-228,-108,64,-13,-3
9655,2,-233,-106,66,-13,0
9660,3,-231,-99,69,-14,0
9665,3,-230,-109,75,-15,-1
9670,5,-235,-104,77,-14,0
9675,3,-229,-104,81,-13,1
9680,5,-228,-101,85,-13,1
9685,3,-231,-100,89,-12,1
9690,2,-226,-104,91,-10,2
9695,7,-231,-105,94,-9,3
9700,5,-228,-99,96,-7,4
9705,4,-225,-97,96,-5,5
9710,5,-228,-97,95,-2,5
9715,5,-228,-97,93,-1,8
9720,5,-227,-98,92,0,9
9725,4,-225,-97,90,1,9
9730,3,-224,-97,87,2,12
9735,3,-225,-96,85,3,13
9740,3,-224,-101,84,2,14
9745,4,-227,-95,81,4,16
9750,7,-227,-95,79,3,18
9755,4,-225,-97,78,5,18
9760,4,-230,-96,77,7,19
9765,7,-227,-101,76,9,21
9770,4,-223,-100,77,11,23
9775,5,-224,-99,75,13,25
9780,1,-223,-101,73,13,25
9785,5,-225,-99,70,15,25
9790,6,-228,-103,66,17,24
9795,3,-224,-103,60,19,28
9800,5,-227,-104,57,21,29
9805,3,-231,-105,59,25,30
9810,2,-228,-102,59,27,31
9815,3,-227,-99,60,28,33
9820,5,-232,-103,63,29,34
9825,0,-227,-102,67,29,36
9830,1,-227,-101,71,29,39
9835,3,-225,-100,76,29,39
9840,1,-226,-101,81,30,41
9845,2,-227,-100,87,31,40
9850,2,-227,-97,91,31,40
9855,0,-229,-98,97,31,40
9860,1,-224,-97,100,31,39
9865,2,-225,-97,100,30,39
9870,1,-227,-95,102,31,37
9875,0,-226,-96,101,31,34
9880,1,-229,-95,100,33,35
9885,-1,-226,-95,97,34,32
9890,2,-230,-98,94,34,30
9895,-2,-229,-97,92,34,30
9900,0,-229,-96,90,31,29
9905,0,-227,-98,88,30,27
9910,1,-230,-99,87,25,27
9915,-1,-230,-100,89,24,27
9920,0,-228,-96,89,21,25
9925,0,-232,-97,93,20,25
9930,0,-233,-96,96,18,22
9935,1,-230,-96,99,18,21
9940,-5,-226,-93,103,17,21
9945,-1,-227,-94,105,17,18
9950,0,-227,-97,107,16,16
9955,2,-231,-94,109,18,16
9960,0,-231,-95,109,17,16
9965,0,-227,-93,111,17,16
9970,0,-232,-95,114,17,16
9975,0,-231,-97,117,17,17
9980,0,-234,-97,119,14,18
9985,0,-235,-97,122,11,18
9990,0,-234,-92,125,10,19
9995,0,-231,-92,126,10,19
10000,-1,-233,-95,121,8,19
10005,1,-231,-98,121,11,18
10010,0,-232,-97,123,15,16
10015,0,-232,-95,127,18,12
10020,-1,-230,-94,131,22,8
10025,1,-228,-99,131,24,7
10030,4,-231,-97,128,27,3
10035,0,-226,-97,127,29,2
10040,10,-231,-102,125,30,2
10045,1,-230,-96,124,31,0
10050,0,-231,-96,124,30,0
10055,0,-228,-98,125,31,0
10060,1,-225,-94,126,29,0
10065,0,-229,-91,129,25,0
10070,1,-232,-90,134,23,0
10075,0,-227,-95,137,20,3
10080,0,-229,-98,141,17,2
10085,2,-231,-90,146,16,5
10090,0,-230,-94,150,15,5
10095,0,-230,-91,153,14,6
10100,3,-231,-92,152,15,6
10105,0,-227,-90,151,17,7
10110,0,-229,-92,151,17,6
10115,2,-228,-91,147,18,8
10120,0,-228,-91,144,19,7
10125,-2,-226,-89,141,18,7
10130,0,-224,-90,137,19,8
10135,-2,-230,-92,130,20,9
10140,-2,-227,-92,126,20,10
10145,-5,-228,-91,119,18,7
10150,0,-228,-91,109,17,9
10155,-4,-227,-90,108,18,10
10160,0,-230,-91,113,17,11
10165,-4,-229,-91,118,16,9
10170,-2,-229,-95,122,14,9
10175,1,-231,-88,117,9,10
10180,-1,-229,-88,122,6,11
10185,-1,-232,-92,129,5,11
10190,-1,-229,-91,134,5,10
10195,-1,-229,-95,133,2,9
10200,0,-233,-88,127,0,8
10205,-3,-232,-79,129,3,8
10210,1,-232,-92,133,6,3
10215,0,-233,-93,134,7,0
10220,0,-235,-89,134,10,-2
10225,-2,-231,-94,133,12,-5
10230,-1,-230,-96,131,13,-5
10235,-2,-229,-94,128,15,-3
10240,-2,-230,-88,124,16,-4
10245,-1,-233,-94,123,17,-5
10250,-3,-232,-91,122,17,-4
10255,0,-229,-91,124,16,-4
10260,-2,-237,-92,126,14,-3
10265,0,-226,-95,129,13,-3
10270,0,-232,-85,118,8,-4
10275,1,-234,-90,120,9,-2
10280,1,-235,-87,126,11,-2
10285,-1,-232,-87,131,13,-5
10290,-4,-231,-83,134,15,-5
10295,-1,-231,-82,135,15,-6
10300,0,-231,-91,132,14,-6
10305,-2,-229,-83,123,9,-6
10310,-5,-232,-84,120,7,-4
10315,0,-233,-83,120,8,-6
10320,-3,-234,-86,121,8,-6
10325,-1,-231,-88,122,6,-6
10330,0,-228,-90,122,6,-8
10335,0,-226,-89,121,6,-10
10340,0,-231,-88,119,6,-10
10345,0,-229,-87,114,5,-12
10350,1,-226,-88,107,3,-15
10355,1,-229,-90,96,4,-18
10360,4,-231,-87,85,2,-19
10365,0,-232,-89,75,1,-21
10370,0,-235,-86,66,-1,-20
10375,0,-230,-89,59,-1,-19
10380,0,-231,-92,56,-1,-17
10385,2,-233,-92,54,-1,-15
10390,0,-231,-91,55,1,-13
10395,0,-233,-91,59,3,-12
10400,1,-230,-89,63,6,-11
10405,1,-233,-98,68,10,-9
10410,0,-233,-93,69,11,-8
10415,1,-229,-90,69,12,-7
10420,-1,-230,-88,65,15,-5
10425,-1,-230,-82,61,13,-7
10430,0,-231,-87,58,13,-8
10435,0,-228,-90,54,9,-8
10440,-1,-232,-85,50,6,-8
10445,0,-227,-88,48,2,-11
10450,-4,-231,-83,44,-1,-11
10455,0,-230,-89,42,-3,-11
10460,0,-229,-85,41,-4,-13
10465,0,-226,-86,41,-5,-12
10470,-1,-229,-93,37,-5,-12
10475,0,-229,-87,34,-3,-11
10480,0,-231,-90,32,-2,-11
10485,0,-227,-88,31,2,-12
10490,2,-230,-90,30,2,-14
10495,0,-231,-87,28,5,-14
10500,0,-228,-89,27,5,-14
10505,0,-230,-92,22,6,-14
10510,2,-226,-88,17,7,-14
10515,-2,-228,-96,11,6,-14
10520,0,-224,-91,3,4,-14
10525,1,-226,-92,-4,4,-14
10530,0,-228,-90,-10,2,-14
10535,0,-226,-87,-16,1,-14
10540,-2,-226,-93,-20,1,-13
10545,0,-227,-90,-25,2,-11
10550,0,-230,-93,-27,4,-10
10555,0,-233,-90,-30,6,-9
10560,0,-230,-91,-31,8,-7
10565,2,-228,-87,-33,9,-9
10570,0,-233,-88,-33,10,-10
10575,1,-230,-90,-32,11,-9
10580,1,-230,-92,-30,11,-9
10585,-10,-227,-90,-30,13,-11
10590,1,-233,-91,-28,15,-11
10595,1,-236,-90,-26,16,-11
10600,2,-231,-86,-25,19,-12
10605,0,-230,-93,-23,21,-12
10610,1,-233,-90,-24,24,-12
10615,1,-229,-91,-24,27,-14
10620,1,-230,-85,-25,30,-15
10625,0,-231,-92,-27,33,-16
10630,4,-234,-90,-27,37,-20
10635,0,-230,-94,-24,39,-20
10640,2,-234,-96,-21,42,-21
10645,1,-229,-93,-17,44,-21
10650,3,-229,-90,-14,47,-22
10655,1,-228,-91,-12,48,-23
10660,1,-229,-92,-11,49,-23
10665,3,-226,-92,-13,49,-24
10670,1,-228,-90,-16,50,-26
10675,0,-223,-92,-18,50,-26
10680,2,-224,-86,-24,50,-27
10685,0,-227,-93,-30,51,-29
10690,1,-228,-95,-34,51,-28
10695,0,-226,-94,-34,52,-29
10700,0,-227,-93,-31,53,-32
10705,0,-228,-96,-29,53,-34
10710,3,-231,-91,-27,54,-35
10715,3,-227,-94,-25,54,-37
10720,1,-230,-96,-23,55,-38
10725,0,-232,-92,-22,54,-39
10730,0,-226,-93,-20,52,-41
10735,0,-225,-92,-21,50,-42
10740,0,-233,-93,-17,48,-41
10745,0,-230,-94,-15,46,-43
10750,2,-236,-97,-11,43,-43
10755,2,-236,-91,-5,42,-44
10760,2,-232,-90,0,42,-42
10765,0,-231,-96,7,38,-45
10770,1,-234,-94,14,34,-49
10775,0,-230,-92,16,34,-47
10780,3,-231,-94,14,34,-44
10785,-4,-232,-91,12,35,-43
10790,3,-234,-94,10,35,-43
10795,2,-231,-92,8,35,-41
10800,3,-237,-94,8,36,-40
10805,0,-235,-90,10,36,-41
10810,0,-231,-91,12,35,-41
10815,3,-231,-100,12,35,-39
10820,1,-227,-98,13,35,-38
10825,3,-232,-96,14,34,-40
10830,1,-230,-97,12,34,-40
10835,1,-229,-99,11,34,-41
10840,4,-226,-96,10,33,-40
10845,1,-228,-99,8,32,-41
10850,0,-226,-98,6,32,-40
10855,1,-226,-95,6,31,-41
10860,2,-224,-101,9,30,-41
10865,2,-229,-98,9,29,-41
10870,2,-231,-95,11,27,-41
10875,4,-231,-92,13,25,-42
10880,4,-228,-93,15,23,-42
10885,1,-229,-96,16,21,-43
10890,3,-233,-96,17,19,-44
10895,1,-226,-94,19,18,-42
10900,0,-224,-98,18,17,-43
10905,2,-229,-94,18,17,-43
10910,1,-229,-100,17,19,-43
10915,3,-233,-95,18,18,-42
10920,1,-231,-97,20,17,-41
10925,3,-231,-96,23,16,-42
10930,1,-229,-94,27,14,-43
10935,1,-228,-99,30,13,-43
10940,3,-228,-94,31,12,-42
10945,2,-229,-96,33,12,-43
10950,1,-228,-96,32,11,-38
10955,5,-231,-95,30,10,-37
10960,6,-228,-93,28,10,-37
10965,6,-227,-97,26,10,-35
10970,4,-230,-91,23,11,-36
10975,1,-228,-94,20,10,-36
10980,3,-228,-97,17,10,-34
10985,1,-227,-95,14,10,-32
10990,3,-228,-95,11,11,-33
10995,2,-228,-95,9,11,-31
11000,4,-227,-98,7,11,-33
11005,5,-231,-97,6,12,-31
11010,4,-229,-96,7,10,-31
11015,3,-230,-96,8,8,-31
11020,3,-226,-100,9,6,-28
11025,7,-229,-102,11,6,-28
11030,3,-231,-96,15,6,-26
11035,7,-230,-99,18,5,-26
11040,4,-229,-97,21,5,-25
11045,3,-229,-94,26,6,-25
11050,1,-231,-100,32,8,-22
11055,4,-228,-91,37,10,-24
11060,3,-229,-95,40,10,-23
11065,3,-228,-92,40,12,-22
11070,3,-231,-99,40,12,-21
11075,4,-228,-94,36,13,-22
11080,5,-229,-96,35,12,-23
11085,1,-228,-99,36,11,-22
11090,0,-224,-96,35,12,-23
11095,3,-227,-99,34,11,-23
11100,2,-225,-102,34,11,-22
11105,5,-229,-97,33,11,-22
11110,3,-229,-97,33,12,-23
11115,4,-227,-98,32,13,-25
11120,2,-227,-98,33,15,-24
11125,2,-224,-97,32,15,-24
11130,2,-228,-99,32,16,-27
11135,2,-226,-98,32,17,-26
11140,3,-226,-100,32,16,-26
11145,2,-227,-95,33,13,-26
11150,3,-229,-99,35,13,-24
11155,2,-230,-96,37,10,-24
11160,1,-224,-98,40,8,-21
11165,3,-224,-97,43,8,-20
11170,2,-223,-102,45,7,-18
11175,2,-226,-93,46,6,-18
11180,5,-228,-91,50,8,-17
11185,11,-233,-102,54,8,-17
11190,3,-225,-99,54,11,-16
11195,4,-226,-99,50,13,-14
11200,2,-226,-99,46,13,-15
11205,2,-227,-98,41,15,-16
11210,2,-229,-99,36,15,-16
11215,1,-228,-102,31,15,-17
11220,2,-227,-95,30,15,-17
11225,2,-230,-96,31,14,-20
11230,3,-229,-103,31,15,-21
11235,4,-233,-96,35,14,-22
11240,3,-232,-93,39,12,-22
11245,4,-230,-101,43,12,-23
11250,6,-232,-96,47,10,-24
11255,5,-229,-95,50,9,-23
11260,2,-234,-100,52,8,-23
11265,3,-227,-101,55,7,-21
11270,6,-228,-97,56,5,-18
11275,3,-230,-99,57,5,-18
11280,2,-226,-101,58,4,-16
11285,1,-229,-94,56,4,-14
11290,2,-230,-100,59,3,-13
11295,0,-226,-96,60,3,-13
11300,5,-228,-97,61,3,-10
11305,4,-227,-97,61,1,-8
11310,1,-227,-96,63,2,-8
11315,3,-227,-96,65,3,-9
11320,2,-226,-97,67,3,-6
11325,4,-228,-95,69,3,-5
11330,3,-229,-98,69,4,-5
11335,2,-224,-94,70,5,-7
11340,5,-226,-94,70,6,-6
11345,0,-224,-100,71,7,-6
11350,0,-228,-93,70,9,-6
11355,2,-229,-97,69,11,-8
11360,3,-226,-101,69,13,-9
11365,2,-227,-98,67,16,-9
11370,1,-228,-98,64,17,-10
11375,3,-229,-96,64,19,-11
11380,0,-230,-98,65,20,-13
11385,5,-229,-102,66,20,-14
11390,4,-228,-99,68,19,-16
11395,6,-230,-98,69,17,-16
11400,0,-233,-99,69,16,-16
11405,3,-227,-102,68,15,-15
11410,6,-230,-99,69,14,-13
11415,5,-228,-99,70,13,-14
11420,2,-229,-98,72,12,-12
11425,3,-228,-98,70,11,-11
11430,4,-229,-99,71,9,-11
11435,4,-230,-96,71,7,-8
11440,3,-228,-94,71,6,-6
11445,1,-229,-98,74,5,-4
11450,5,-231,-99,77,5,-5
11455,1,-226,-97,79,5,-5
11460,0,-222,-99,79,6,-4
11465,6,-227,-96,77,6,-5
11470,5,-227,-95,77,6,-6
11475,2,-227,-94,72,5,-7
11480,2,-225,-93,69,5,-10
11485,4,-224,-98,66,5,-10
11490,4,-225,-96,64,7,-11
11495,3,-224,-97,62,9,-11
11500,3,-227,-93,60,9,-11
11505,1,-228,-93,58,10,-9
11510,2,-226,-94,55,12,-10
11515,4,-225,-100,54,13,-10
11520,2,-230,-97,52,13,-10
11525,1,-228,-97,52,15,-10
11530,2,-226,-95,52,14,-8
11535,1,-229,-95,54,15,-7
11540,3,-227,-97,55,15,-5
11545,5,-231,-97,58,16,-6
11550,5,-229,-97,61,16,-5
11555,4,-230,-94,61,15,-6
11560,3,-226,-95,61,14,-6
11565,1,-225,-100,62,13,-5
11570,3,-227,-96,64,13,-6
11575,3,-227,-96,63,14,-7
11580,1,-223,-97,62,14,-6
11585,2,-227,-97,62,13,-8
11590,5,-228,-97,59,13,-9
11595,4,-228,-94,58,12,-9
11600,5,-228,-96,57,11,-8
11605,5,-229,-96,55,12,-9
11610,4,-226,-92,54,10,-7
11615,5,-226,-90,52,8,-8
11620,2,-228,-93,51,7,-9
11625,3,-226,-98,50,6,-9
11630,5,-231,-94,49,8,-9
11635,5,-229,-96,50,8,-8
11640,4,-229,-99,47,9,-10
11645,2,-226,-95,47,11,-11
11650,4,-232,-95,47,12,-12
11655,3,-228,-93,47,15,-12
11660,4,-232,-95,47,17,-11
11665,4,-233,-98,46,18,-11
11670,4,-230,-99,46,19,-11
11675,2,-227,-95,47,21,-11
11680,2,-228,-97,48,22,-13
11685,3,-231,-95,48,23,-13
11690,3,-234,-95,49,22,-9
11695,3,-233,-101,51,22,-10
11700,3,-226,-100,52,21,-9
11705,4,-229,-98,54,22,-9
11710,3,-228,-96,51,22,-10
11715,3,-225,-95,50,21,-10
11720,1,-227,-98,48,20,-9
11725,6,-228,-98,43,19,-10
11730,1,-225,-97,42,20,-11
11735,4,-229,-96,40,19,-10
11740,4,-225,-98,38,18,-10
11745,4,-231,-93,37,18,-12
11750,4,-229,-96,37,18,-11
11755,6,-226,-95,37,16,-10
11760,3,-226,-94,36,18,-10
11765,3,-226,-95,36,18,-11
11770,2,-228,-99,35,16,-12
11775,2,-229,-92,33,15,-12
11780,3,-228,-95,34,14,-12
11785,3,-225,-98,35,12,-11
11790,1,-227,-97,35,12,-11
11795,2,-229,-94,36,10,-13
11800,3,-228,-99,38,9,-12
11805,2,-227,-94,39,9,-12
11810,3,-228,-95,43,9,-11
11815,2,-234,-89,44,9,-10
11820,5,-230,-94,48,10,-10
11825,6,-230,-94,52,9,-10
11830,2,-226,-90,56,9,-10
11835,5,-232,-96,59,8,-10
11840,2,-229,-92,58,9,-8
11845,1,-228,-94,58,10,-8
11850,3,-228,-96,56,10,-6
11855,5,-228,-97,55,11,-4
11860,5,-232,-97,53,13,-5
11865,3,-229,-98,53,15,-6
11870,6,-229,-101,52,14,-5
11875,4,-227,-98,51,16,-8
11880,7,-228,-99,51,16,-10
11885,6,-229,-95,52,17,-9
11890,4,-225,-95,54,15,-11
11895,3,-232,-99,57,12,-11
11900,1,-227,-96,59,11,-10
11905,3,-226,-96,60,7,-9
11910,2,-223,-95,62,4,-10
11915,3,-225,-98,60,3,-11
11920,4,-227,-95,59,1,-11
11925,2,-225,-96,57,0,-10
11930,3,-224,-98,56,0,-10
11935,2,-225,-103,53,0,-10
11940,1,-221,-94,49,0,-9
11945,0,-227,-95,47,1,-8
11950,3,-230,-95,46,2,-6
11955,1,-227,-95,44,1,-5
11960,1,-224,-92,44,2,-4
11965,3,-226,-92,42,2,-3
11970,3,-229,-95,41,3,-1
11975,1,-229,-98,39,3,-3
11980,2,-229,-94,37,4,-2
11985,2,-228,-93,35,2,-2
11990,1,-232,-92,33,1,-2
11995,1,-228,-96,32,-1,-2
