timestamp,acc_x,acc_y,acc_z,gyro_x,gyro_y,gyro_z
0,-12,-239,-95,-45,40,9
5,-17,-235,-98,-50,38,11
10,-13,-238,-98,-58,28,11
15,-13,-237,-97,-61,18,5
20,-7,-237,-97,-59,16,2
25,-10,-239,-96,-51,22,-1
30,-8,-238,-96,-43,35,-1
35,-19,-237,-100,-43,48,10
40,-23,-236,-98,-53,44,15
45,-20,-235,-95,-71,23,15
50,-15,-239,-99,-87,8,13
55,-13,-241,-96,-98,4,11
60,-11,-239,-98,-99,6,8
65,-9,-243,-98,-95,15,7
70,-6,-243,-96,-83,26,6
75,-5,-241,-99,-69,36,5
80,-14,-243,-97,-57,43,4
85,-11,-239,-97,-48,47,2
90,-12,-241,-99,-45,51,2
95,-16,-240,-96,-46,54,0
100,-12,-240,-95,-44,58,0
105,-14,-238,-95,-46,60,-1
110,-15,-239,-96,-49,61,-1
115,-10,-241,-100,-49,59,-2
120,-12,-241,-94,-49,57,-3
125,-9,-240,-98,-48,54,-3
130,-10,-240,-99,-48,52,-1
135,-7,-242,-95,-49,50,1
140,-5,-238,-96,-51,51,2
145,-5,-241,-95,-54,56,3
150,-10,-236,-95,-55,62,5
155,-9,-244,-96,-56,68,4
160,-4,-239,-97,-53,75,7
165,-3,-242,-99,-50,83,7
170,-2,-245,-97,-44,89,6
175,-5,-244,-97,-39,98,5
180,-3,-245,-98,-36,105,6
185,-5,-243,-94,-31,112,7
190,-8,-241,-94,-27,119,7
195,-8,-241,-93,-25,124,7
200,-8,-240,-90,-23,130,5
205,-7,-244,-98,-20,134,3
210,-10,-241,-95,-15,136,4
215,-15,-241,-96,-13,136,2
220,-12,-240,-98,-8,135,0
225,-11,-243,-96,-4,129,-3
230,-15,-238,-97,-1,127,-5
235,-12,-241,-97,2,122,-7
240,-12,-241,-100,6,120,-9
245,-16,-242,-100,11,118,-12
250,-14,-240,-98,14,115,-15
255,-11,-243,-99,18,114,-13
260,-17,-238,-96,20,114,-15
265,-15,-238,-101,22,116,-17
270,-15,-236,-100,22,116,-17
275,-13,-237,-98,21,118,-16
280,-16,-237,-98,17,123,-18
285,-15,-235,-95,14,127,-17
290,-11,-235,-101,10,131,-18
295,-14,-236,-98,8,132,-18
300,-13,-239,-96,5,131,-18
305,-13,-239,-98,3,129,-19
310,-16,-236,-97,2,125,-17
315,-12,-239,-97,2,118,-18
320,-12,-240,-96,2,111,-17
325,-14,-237,-97,3,102,-16
330,-14,-241,-96,5,95,-17
335,-13,-238,-99,7,86,-18
340,-19,-237,-95,9,79,-18
345,-18,-235,-95,11,71,-18
350,-14,-240,-98,13,66,-18
355,-18,-237,-105,14,62,-20
360,-16,-238,-100,16,58,-20
365,-17,-240,-98,17,56,-20
370,-16,-238,-99,16,54,-20
375,-16,-237,-95,15,52,-20
380,-17,-234,-99,14,53,-18
385,-16,-235,-98,13,52,-18
390,-16,-239,-98,12,53,-15
395,-15,-237,-97,8,54,-12
400,-12,-236,-103,5,56,-11
405,-13,-238,-100,3,56,-11
410,-13,-240,-96,2,57,-9
415,-16,-238,-97,0,55,-8
420,-14,-238,-100,-4,52,-6
425,-12,-239,-98,-6,50,-7
430,-14,-239,-95,-10,49,-5
435,-11,-240,-96,-13,48,-6
440,-15,-237,-98,-16,46,-6
445,-14,-239,-96,-18,43,-7
450,-13,-240,-97,-20,42,-8
455,-11,-239,-98,-21,42,-8
460,-12,-240,-96,-21,39,-8
465,-11,-241,-96,-23,39,-7
470,-12,-236,-94,-24,37,-5
475,-8,-235,-95,-24,38,-5
480,-12,-240,-92,-27,39,-4
485,-7,-236,-97,-29,39,-2
490,-9,-240,-97,-33,42,0
495,-11,-235,-95,-36,45,1
500,-13,-236,-98,-39,47,2
505,-9,-237,-93,-41,48,3
510,-15,-239,-101,-43,49,3
515,-10,-240,-95,-45,47,4
520,-11,-241,-95,-45,46,4
525,-9,-240,-99,-45,46,5
530,-8,-242,-95,-45,45,4
535,-9,-241,-96,-45,44,5
540,-8,-244,-94,-44,45,5
545,-7,-240,-98,-43,45,5
550,-9,-241,-92,-39,44,7
555,-7,-242,-92,-35,46,7
560,-11,-245,-93,-30,47,7
565,-5,-245,-97,-24,49,6
570,-7,-241,-99,-16,50,4
575,-7,-242,-95,-8,53,4
580,-8,-241,-95,-1,54,3
585,-7,-242,-98,7,53,1
590,-8,-239,-98,13,54,1
595,-9,-242,-97,15,55,0
600,-7,-240,-100,18,58,-3
605,-8,-240,-100,19,61,-4
610,-10,-238,-99,19,64,-6
615,-8,-237,-101,18,67,-9
620,-10,-235,-95,16,70,-10
625,-10,-238,-98,14,74,-11
630,-12,-236,-102,11,79,-11
635,-14,-235,-99,9,85,-10
640,-12,-239,-96,10,91,-10
645,-12,-240,-94,11,97,-9
650,-11,-241,-94,12,104,-10
655,-13,-239,-98,11,108,-8
660,-13,-240,-95,9,109,-8
665,-13,-240,-95,8,110,-11
670,-12,-243,-99,9,111,-8
675,-12,-239,-93,9,108,-9
680,-10,-246,-94,9,106,-10
685,-15,-243,-96,12,101,-11
690,-10,-246,-94,16,95,-12
695,-13,-242,-96,20,88,-13
700,-15,-241,-95,24,84,-14
705,-13,-243,-98,29,78,-16
710,-16,-241,-92,34,73,-17
715,-12,-239,-100,38,68,-18
720,-17,-239,-95,40,65,-17
725,-16,-240,-99,43,61,-17
730,-16,-237,-98,42,60,-15
735,-13,-239,-91,42,60,-15
740,-12,-241,-94,41,58,-15
745,-12,-240,-95,40,59,-15
750,-14,-239,-95,38,58,-14
755,-12,-239,-96,36,59,-12
760,-9,-238,-94,35,59,-11
765,-14,-234,-94,34,58,-10
770,-11,-241,-94,31,57,-8
775,-11,-245,-93,30,57,-6
780,-12,-239,-90,26,55,-7
785,-13,-240,-89,22,55,-6
790,-13,-238,-95,18,53,-5
795,-10,-240,-88,14,54,-3
800,-13,-238,-93,12,54,-4
805,-12,-240,-97,10,55,-4
810,-11,-240,-95,10,55,-2
815,-9,-240,-96,8,56,-1
820,-10,-244,-93,8,55,-1
825,-9,-240,-92,6,57,0
830,-11,-239,-95,4,58,0
835,-7,-241,-91,2,58,-1
840,-10,-239,-96,2,60,0
845,-13,-241,-95,1,61,1
850,-11,-241,-94,4,62,2
855,-11,-240,-94,4,61,4
860,-10,-239,-97,4,61,3
865,-8,-243,-92,6,63,5
870,-7,-242,-94,6,65,5
875,-9,-240,-95,6,67,4
880,-9,-239,-96,5,70,6
885,-8,-237,-94,3,74,6
890,-10,-240,-94,2,76,6
895,-11,-238,-95,-2,80,6
900,-7,-239,-91,-5,82,7
905,-7,-239,-96,-8,86,7
910,-8,-244,-95,-12,89,7
915,-8,-242,-93,-15,90,8
920,-12,-240,-98,-16,93,8
925,-13,-237,-95,-16,93,9
930,-10,-242,-93,-13,94,9
935,-14,-240,-94,-11,91,7
940,-12,-241,-95,-9,89,8
945,-13,-244,-87,-8,87,8
950,-9,-241,-96,-5,86,9
955,-9,-241,-89,-5,83,8
960,-13,-241,-94,-6,80,8
965,-10,-238,-92,-8,77,8
970,-10,-239,-93,-10,77,10
975,-14,-238,-91,-13,74,10
980,-12,-239,-92,-17,73,9
985,-13,-239,-95,-19,72,8
990,-13,-238,-93,-21,72,8
995,-10,-239,-90,-22,72,7
1000,-12,-237,-93,-22,70,5
1005,-13,-239,-95,-20,69,5
1010,-12,-236,-93,-18,68,5
1015,-13,-238,-98,-17,69,6
1020,-10,-240,-94,-16,72,8
1025,-10,-241,-97,-16,71,7
1030,-11,-237,-92,-13,73,8
1035,-10,-242,-92,-12,76,9
1040,-10,-241,-93,-8,77,9
1045,-13,-242,-91,-8,79,8
1050,-9,-242,-92,-7,80,8
1055,-11,-244,-91,-6,80,7
1060,-10,-245,-96,-6,79,6
1065,-11,-239,-91,-6,80,6
1070,-11,-241,-91,-6,80,3
1075,-13,-238,-90,-6,81,1
1080,-12,-241,-94,-5,81,-2
1085,-12,-240,-92,-4,81,-3
1090,-13,-239,-95,-3,82,-3
1095,-10,-243,-94,-3,83,-4
1100,-11,-242,-90,-4,85,-4
1105,-10,-242,-97,-3,85,-6
1110,-11,-240,-94,-2,86,-5
1115,-9,-240,-97,-2,87,-5
1120,-8,-242,-89,-3,87,-5
1125,-10,-243,-93,-4,87,-7
1130,-12,-240,-94,-5,84,-7
1135,-16,-240,-94,-4,84,-7
1140,-12,-242,-96,-5,83,-6
1145,-12,-242,-92,-4,80,-6
1150,-14,-241,-93,-2,80,-8
1155,-14,-241,-97,0,79,-8
1160,-13,-235,-90,2,78,-7
1165,-17,-241,-98,3,76,-8
1170,-16,-238,-90,3,76,-8
1175,-11,-242,-94,3,74,-10
1180,-12,-239,-91,3,73,-9
1185,-11,-238,-90,3,73,-9
1190,-10,-239,-99,4,74,-9
1195,-9,-242,-95,2,74,-10
1200,-12,-238,-94,1,75,-10
1205,-10,-243,-95,0,74,-10
1210,-13,-240,-92,-1,73,-9
1215,-12,-242,-92,0,71,-9
1220,-9,-242,-94,-1,70,-11
1225,-13,-241,-93,-2,69,-9
1230,-12,-238,-92,0,66,-8
1235,-13,-243,-89,1,66,-10
1240,-8,-243,-95,1,65,-11
1245,-9,-242,-92,0,65,-10
1250,-12,-240,-93,1,65,-10
1255,-13,-240,-90,1,66,-8
1260,-13,-241,-95,0,65,-8
1265,-14,-238,-94,2,66,-8
1270,-12,-241,-89,1,65,-9
1275,-10,-240,-93,1,63,-8
1280,-11,-239,-92,0,63,-8
1285,-13,-239,-92,-1,65,-7
1290,-12,-239,-95,-4,66,-6
1295,-9,-240,-93,-5,66,-8
1300,-11,-240,-94,-6,66,-8
1305,-13,-243,-93,-5,67,-8
1310,-12,-241,-95,-4,66,-8
1315,-10,-240,-95,-4,65,-6
1320,-11,-238,-92,-1,64,-6
1325,-11,-241,-91,0,65,-4
1330,-9,-241,-92,0,65,-5
1335,-12,-239,-92,0,64,-4
1340,-8,-238,-91,-1,65,-4
1345,-10,-240,-94,-3,66,-4
1350,-12,-239,-93,-5,66,-4
1355,-8,-241,-93,-7,68,-5
1360,-11,-239,-98,-10,68,-6
1365,-9,-241,-90,-11,68,-5
1370,-9,-240,-94,-11,69,-5
1375,-11,-240,-93,-12,68,-7
1380,-11,-241,-94,-13,68,-6
1385,-9,-241,-92,-13,67,-5
1390,-12,-239,-91,-13,66,-4
1395,-11,-242,-96,-13,65,-3
1400,-9,-239,-93,-13,64,-3
1405,-12,-241,-92,-11,63,-3
1410,-14,-240,-95,-11,62,-3
1415,-12,-242,-95,-11,62,-3
1420,-12,-241,-91,-10,62,-3
1425,-10,-241,-92,-8,61,-3
1430,-9,-242,-91,-8,61,-4
1435,-13,-242,-92,-8,60,-4
1440,-11,-237,-89,-9,61,-3
1445,-12,-242,-89,-8,59,-5
1450,-11,-242,-94,-8,60,-5
1455,-11,-240,-93,-9,60,-5
1460,-10,-243,-90,-8,60,-5
1465,-12,-243,-93,-7,60,-3
1470,-12,-241,-96,-8,59,-4
1475,-12,-242,-94,-8,60,-3
1480,-12,-241,-93,-8,60,-3
1485,-10,-242,-90,-6,60,-6
1490,-13,-241,-92,-4,60,-5
1495,-11,-236,-93,-4,60,-5
1500,-11,-240,-91,-4,61,-5
1505,-10,-240,-91,-3,60,-6
1510,-11,-244,-94,-2,60,-4
1515,-13,-241,-94,-2,60,-5
1520,-14,-241,-93,-3,60,-5
1525,-11,-241,-90,-4,60,-6
1530,-10,-241,-95,-5,59,-7
1535,-11,-242,-92,-6,60,-6
1540,-13,-240,-95,-6,59,-8
1545,-12,-241,-93,-6,61,-7
1550,-12,-243,-95,-7,61,-8
1555,-11,-240,-96,-8,61,-10
1560,-11,-242,-93,-9,60,-10
1565,-12,-239,-91,-11,62,-10
1570,-6,-241,-88,-9,63,-10
1575,-12,-240,-93,-8,63,-10
1580,-12,-241,-92,-8,62,-9
1585,-12,-242,-91,-8,63,-9
1590,-9,-241,-89,-7,62,-9
1595,-10,-241,-89,-8,62,-9
1600,-13,-240,-94,-8,62,-8
1605,-8,-241,-92,-10,62,-8
1610,-10,-239,-94,-12,61,-9
1615,-11,-241,-93,-14,61,-8
1620,-9,-243,-93,-15,61,-10
1625,-10,-240,-93,-16,62,-10
1630,-10,-239,-94,-18,62,-10
1635,-9,-240,-87,-20,61,-9
1640,-11,-239,-95,-21,62,-9
1645,-12,-242,-92,-22,64,-9
1650,-12,-242,-94,-24,67,-9
1655,-11,-240,-95,-23,68,-10
1660,-12,-240,-92,-25,71,-8
1665,-12,-242,-93,-25,71,-9
1670,-13,-239,-95,-26,72,-8
1675,-11,-242,-94,-23,74,-8
1680,-12,-241,-94,-23,74,-6
1685,-13,-240,-95,-20,73,-9
1690,-11,-243,-91,-18,72,-9
1695,-10,-240,-91,-16,70,-11
1700,-9,-240,-91,-13,69,-9
1705,-13,-242,-91,-14,70,-9
1710,-11,-242,-87,-15,68,-9
1715,-11,-242,-90,-16,70,-9
1720,-11,-239,-90,-18,69,-10
1725,-9,-239,-91,-21,68,-9
1730,-11,-244,-91,-22,68,-9
1735,-10,-240,-91,-23,68,-8
1740,-13,-243,-91,-22,68,-7
1745,-7,-242,-91,-24,66,-8
1750,-10,-243,-94,-24,67,-5
1755,-12,-241,-96,-22,67,-6
1760,-11,-240,-92,-19,67,-7
1765,-9,-243,-94,-19,68,-6
1770,-12,-243,-95,-17,68,-7
1775,-8,-240,-94,-18,71,-6
1780,-9,-243,-99,-15,72,-5
1785,-10,-244,-93,-13,74,-4
1790,-8,-245,-92,-13,73,-2
1795,-12,-243,-93,-12,74,-1
1800,-14,-242,-94,-11,76,0
1805,-14,-241,-94,-9,75,2
1810,-13,-244,-96,-8,75,1
1815,-11,-243,-90,-5,74,2
1820,-10,-242,-95,-4,74,1
1825,-14,-243,-90,-3,74,1
1830,-9,-241,-89,-4,75,1
1835,-13,-240,-92,-5,74,1
1840,-10,-240,-94,-5,77,0
1845,-12,-240,-94,-7,78,0
1850,-13,-243,-91,-6,78,-1
1855,-10,-240,-89,-9,80,0
1860,-13,-242,-90,-10,81,1
1865,-12,-242,-91,-9,80,1
1870,-12,-240,-93,-10,81,2
1875,-10,-239,-92,-10,79,-1
1880,-12,-239,-90,-11,78,1
1885,-12,-240,-92,-12,78,2
1890,-12,-240,-92,-12,77,2
1895,-12,-243,-92,-10,77,0
1900,-13,-244,-94,-10,76,1
1905,-12,-244,-95,-9,75,1
1910,-13,-240,-95,-9,74,1
1915,-12,-237,-94,-9,73,1
1920,-14,-241,-93,-9,73,2
1925,-12,-241,-88,-9,74,1
1930,-12,-240,-92,-7,74,1
1935,-12,-240,-91,-8,75,1
1940,-13,-237,-93,-8,75,3
1945,-9,-241,-91,-8,75,2
1950,-13,-243,-94,-9,73,0
1955,-10,-242,-93,-8,73,1
1960,-12,-240,-97,-11,73,-1
1965,-13,-240,-97,-11,73,0
1970,-13,-241,-91,-13,73,-1
1975,-10,-239,-93,-13,74,0
1980,-12,-241,-94,-14,74,0
1985,-11,-238,-95,-15,74,-1
1990,-13,-241,-95,-14,74,0
1995,-12,-238,-93,-16,72,0
2000,-13,-240,-90,-16,71,-1
2005,-12,-241,-89,-17,69,-1
2010,-10,-243,-89,-18,70,1
2015,-13,-241,-95,-17,69,0
2020,-12,-241,-93,-15,67,0
2025,-10,-243,-93,-14,69,-1
2030,-13,-240,-92,-13,68,-1
2035,-14,-243,-92,-11,69,0
2040,-13,-239,-91,-12,68,2
2045,-12,-241,-92,-14,68,0
2050,-11,-239,-92,-13,68,0
2055,-13,-240,-90,-13,66,2
2060,-14,-241,-89,-13,66,2
2065,-10,-245,-93,-12,63,2
2070,-14,-242,-93,-13,60,5
2075,-11,-240,-93,-13,60,4
2080,-13,-242,-91,-11,59,4
2085,-11,-241,-91,-11,58,4
2090,-12,-242,-94,-10,56,6
2095,-10,-241,-94,-10,59,6
2100,-12,-242,-93,-10,60,4
2105,-12,-244,-89,-11,61,4
2110,-11,-242,-93,-12,60,2
2115,-10,-241,-92,-12,60,4
2120,-15,-242,-93,-10,60,4
2125,-9,-242,-92,-12,60,2
2130,-12,-241,-93,-10,61,1
2135,-14,-242,-88,-10,60,2
2140,-13,-243,-92,-9,60,2
2145,-10,-240,-95,-8,61,2
2150,-10,-244,-95,-8,62,1
2155,-12,-238,-93,-8,63,-1
2160,-10,-241,-96,-8,63,-1
2165,-12,-240,-95,-6,62,-1
2170,-11,-241,-94,-7,63,-2
2175,-10,-243,-94,-6,62,-3
2180,-11,-242,-89,-6,62,-3
2185,-10,-240,-95,-6,63,-3
2190,-10,-241,-92,-6,63,-2
2195,-10,-242,-93,-6,64,-3
2200,-10,-240,-92,-7,63,-3
2205,-12,-243,-92,-8,64,-3
2210,-10,-242,-91,-9,63,-2
2215,-9,-242,-94,-9,64,-1
2220,-16,-241,-92,-10,64,-2
2225,-11,-239,-94,-10,66,-1
2230,-13,-239,-90,-9,66,-2
2235,-9,-241,-93,-8,65,-2
2240,-12,-236,-93,-9,65,-2
2245,-9,-239,-89,-11,66,-4
2250,-9,-237,-95,-10,67,-2
2255,-11,-242,-93,-10,66,-2
2260,-11,-241,-94,-11,67,-2
2265,-12,-239,-95,-12,67,-3
2270,-10,-239,-91,-12,68,-2
2275,-11,-241,-92,-14,68,-1
2280,-10,-239,-90,-14,69,-1
2285,-10,-239,-91,-15,70,-3
2290,-13,-237,-97,-16,70,-3
2295,-13,-240,-91,-18,70,-2
2300,-10,-240,-93,-19,69,-1
2305,-12,-241,-92,-20,68,-2
2310,-10,-241,-92,-20,68,-2
2315,-12,-239,-88,-19,67,-1
2320,-10,-241,-93,-19,68,0
2325,-13,-241,-94,-19,67,-1
2330,-9,-242,-93,-17,66,0
2335,-13,-241,-92,-17,67,-1
2340,-13,-240,-91,-17,66,-3
2345,-11,-243,-95,-17,66,-2
2350,-11,-239,-87,-17,66,-2
2355,-10,-241,-90,-15,67,-2
2360,-15,-241,-89,-15,66,-1
2365,-12,-238,-94,-16,64,-3
2370,-12,-241,-89,-14,63,-2
2375,-11,-243,-90,-15,64,-2
2380,-11,-242,-90,-14,63,-1
2385,-12,-241,-93,-12,63,-1
2390,-12,-242,-89,-11,63,0
2395,-11,-241,-91,-11,63,0
2400,-12,-243,-95,-13,63,-1
2405,-12,-244,-91,-13,63,0
2410,-11,-239,-92,-12,65,0
2415,-14,-239,-92,-13,66,0
2420,-9,-244,-92,-9,66,1
2425,-12,-241,-89,-9,66,0
2430,-14,-240,-89,-8,67,-1
2435,-13,-240,-95,-7,68,1
2440,-11,-243,-91,-9,69,0
2445,-10,-245,-91,-11,69,-1
2450,-12,-239,-89,-13,69,0
2455,-13,-238,-92,-16,70,-1
2460,-11,-240,-94,-16,73,0
2465,-10,-239,-92,-16,74,1
2470,-14,-240,-92,-18,75,1
2475,-13,-240,-91,-18,76,1
2480,-14,-240,-89,-18,75,0
2485,-11,-245,-94,-17,75,-2
2490,-11,-241,-94,-16,74,-3
2495,-13,-242,-94,-13,73,-4
2500,-14,-240,-93,-14,72,-4
2505,-13,-241,-91,-13,70,-4
2510,-13,-238,-87,-15,68,-5
2515,-12,-240,-95,-17,70,-3
2520,-12,-239,-92,-18,69,-2
2525,-13,-241,-90,-21,68,-2
2530,-10,-242,-90,-22,68,-3
2535,-14,-240,-91,-23,66,-4
2540,-11,-242,-90,-22,64,-3
2545,-12,-242,-95,-22,63,-4
2550,-12,-242,-93,-21,62,-4
2555,-13,-241,-92,-18,61,-6
2560,-11,-238,-96,-17,61,-3
2565,-11,-238,-94,-16,64,-4
2570,-12,-242,-92,-15,63,-2
2575,-12,-241,-94,-14,65,0
2580,-9,-241,-92,-15,66,2
2585,-14,-242,-93,-17,66,2
2590,-11,-243,-92,-17,69,3
2595,-13,-239,-96,-19,69,3
2600,-11,-245,-91,-18,70,4
2605,-11,-241,-93,-20,71,5
2610,-12,-242,-92,-21,71,5
2615,-15,-238,-95,-21,72,4
2620,-11,-238,-91,-21,73,3
2625,-12,-242,-92,-20,74,3
2630,-9,-242,-93,-20,75,2
2635,-13,-240,-93,-20,77,2
2640,-13,-240,-93,-20,79,1
2645,-11,-238,-96,-19,79,2
2650,-8,-242,-96,-19,80,2
2655,-12,-240,-93,-19,81,1
2660,-12,-238,-94,-20,81,1
2665,-11,-239,-93,-20,83,2
2670,-14,-241,-94,-23,82,4
2675,-10,-243,-95,-24,83,5
2680,-11,-241,-97,-26,85,5
2685,-11,-238,-93,-29,86,5
2690,-13,-241,-93,-28,90,7
2695,-13,-240,-95,-29,95,8
2700,-11,-241,-94,-31,100,9
2705,-13,-239,-94,-31,103,9
2710,-13,-240,-97,-31,108,10
2715,-12,-240,-98,-30,113,10
2720,-11,-236,-95,-29,115,11
2725,-10,-238,-93,-28,118,15
2730,-10,-237,-98,-27,122,17
2735,-9,-240,-97,-26,127,19
2740,-9,-237,-96,-28,131,20
2745,-12,-236,-96,-29,137,22
2750,-10,-234,-99,-29,144,23
2755,-7,-238,-101,-30,151,24
2760,-10,-237,-98,-32,159,28
2765,-5,-238,-99,-33,167,29
2770,-9,-235,-96,-33,176,31
2775,-9,-232,-102,-35,185,34
2780,-5,-234,-100,-38,194,34
2785,-8,-230,-101,-41,205,36
2790,-4,-232,-104,-48,212,39
2795,-5,-230,-102,-56,219,40
2800,-6,-233,-101,-61,226,43
2805,-4,-229,-100,-68,232,46
2810,-6,-231,-103,-74,238,49
2815,-5,-232,-100,-82,241,52
2820,-2,-233,-101,-88,245,55
2825,-6,-235,-98,-95,247,57
2830,-6,-230,-101,-102,248,60
2835,-8,-232,-96,-109,251,63
2840,-7,-233,-102,-115,254,67
2845,-9,-234,-102,-119,256,69
2850,-12,-235,-99,-126,260,72
2855,-11,-231,-101,-130,262,74
2860,-11,-238,-99,-134,266,76
2865,-9,-236,-103,-136,268,78
2870,-11,-234,-102,-138,273,80
2875,-9,-235,-102,-139,278,84
2880,-9,-234,-103,-139,282,86
2885,-8,-234,-103,-138,288,87
2890,-3,-234,-100,-136,294,91
2895,-6,-233,-101,-137,300,93
2900,-8,-231,-98,-140,303,97
2905,-8,-233,-101,-143,303,100
2910,-5,-234,-100,-149,301,106
2915,-10,-230,-102,-158,295,111
2920,-10,-232,-96,-169,287,117
2925,-14,-230,-103,-178,278,121
2930,-11,-232,-99,-189,270,126
2935,-14,-234,-100,-199,259,131
2940,-17,-232,-100,-210,249,133
2945,-17,-236,-101,-217,239,136
2950,-16,-234,-100,-223,231,136
2955,-18,-235,-100,-229,224,135
2960,-15,-238,-99,-232,218,133
2965,-16,-236,-104,-233,212,132
2970,-16,-240,-104,-232,211,130
2975,-14,-238,-109,-229,210,130
2980,-13,-238,-106,-225,213,128
2985,-15,-236,-109,-223,215,127
2990,-14,-237,-106,-220,222,126
2995,-17,-237,-106,-219,228,125
3000,-14,-235,-104,-217,235,127
3005,-12,-235,-107,-216,242,129
3010,-12,-235,-108,-216,248,131
3015,-17,-236,-106,-215,254,132
3020,-12,-234,-106,-214,257,132
3025,-14,-233,-103,-213,261,131
3030,-13,-233,-106,-211,263,131
3035,-16,-234,-106,-209,265,130
3040,-14,-235,-105,-208,264,127
3045,-14,-234,-102,-208,263,125
3050,-15,-233,-103,-207,263,122
3055,-15,-234,-105,-207,261,121
3060,-14,-234,-104,-206,258,119
3065,-18,-232,-104,-204,256,116
3070,-14,-236,-105,-203,256,114
3075,-16,-232,-106,-201,253,113
3080,-17,-232,-103,-199,249,110
3085,-17,-233,-108,-196,247,109
3090,-16,-232,-106,-192,244,108
3095,-21,-228,-107,-187,243,107
3100,-14,-228,-109,-184,242,107
3105,-15,-226,-107,-181,242,107
3110,-15,-226,-111,-179,241,107
3115,-17,-225,-110,-180,239,108
3120,-16,-223,-107,-183,237,111
3125,-22,-221,-113,-188,237,112
3130,-15,-223,-112,-194,237,114
3135,-15,-223,-111,-200,234,116
3140,-16,-223,-110,-207,233,117
3145,-17,-221,-111,-213,232,119
3150,-15,-220,-113,-220,231,121
3155,-15,-222,-115,-229,232,122
3160,-14,-219,-110,-237,231,123
3165,-13,-224,-116,-246,230,124
3170,-16,-220,-112,-253,228,125
3175,-16,-222,-116,-260,228,123
3180,-19,-220,-117,-266,225,122
3185,-18,-221,-113,-269,221,120
3190,-20,-224,-113,-272,216,121
3195,-22,-220,-120,-274,212,120
3200,-22,-220,-113,-278,208,121
3205,-22,-222,-118,-281,204,120
3210,-22,-222,-118,-285,202,121
3215,-22,-222,-119,-288,200,121
3220,-20,-222,-116,-291,200,119
3225,-21,-224,-122,-292,201,120
3230,-19,-222,-118,-292,202,118
3235,-23,-223,-117,-289,204,118
3240,-20,-223,-117,-288,204,118
3245,-22,-223,-123,-285,205,116
3250,-20,-222,-118,-281,207,117
3255,-21,-220,-123,-280,207,118
3260,-19,-223,-118,-279,209,119
3265,-20,-217,-119,-279,212,118
3270,-18,-220,-119,-282,214,121
3275,-18,-218,-118,-286,217,123
3280,-16,-212,-123,-292,220,123
3285,-18,-214,-120,-299,223,124
3290,-14,-217,-118,-308,227,127
3295,-17,-215,-118,-319,227,129
3300,-15,-213,-121,-332,228,129
3305,-16,-215,-119,-346,228,129
3310,-16,-210,-124,-363,227,130
3315,-21,-211,-118,-382,225,130
3320,-19,-208,-120,-403,222,131
3325,-20,-206,-121,-426,219,130
3330,-20,-211,-126,-448,215,130
3335,-23,-209,-128,-468,213,131
3340,-20,-208,-126,-492,209,132
3345,-25,-212,-131,-513,203,129
3350,-21,-211,-130,-537,200,128
3355,-23,-213,-132,-556,200,126
3360,-22,-211,-133,-573,198,121
3365,-22,-214,-132,-585,198,121
3370,-26,-212,-134,-592,198,119
3375,-24,-211,-134,-592,197,116
3380,-21,-208,-135,-587,199,113
3385,-22,-209,-140,-578,201,108
3390,-18,-209,-137,-566,203,104
3395,-17,-208,-138,-553,205,102
3400,-16,-207,-138,-540,209,99
3405,-16,-203,-136,-533,214,98
3410,-15,-201,-135,-530,220,95
3415,-14,-203,-138,-527,223,95
3420,-14,-205,-136,-526,221,95
3425,-15,-200,-137,-528,214,93
3430,-14,-203,-138,-532,207,93
3435,-18,-200,-138,-540,197,96
3440,-23,-198,-136,-550,182,96
3445,-25,-199,-137,-561,169,101
3450,-24,-201,-142,-572,157,105
3455,-25,-205,-139,-585,145,107
3460,-24,-199,-145,-594,134,109
3465,-21,-202,-145,-604,127,109
3470,-25,-201,-146,-613,120,107
3475,-25,-202,-146,-620,115,107
3480,-23,-202,-145,-625,110,104
3485,-22,-203,-147,-630,107,101
3490,-24,-202,-146,-633,100,95
3495,-22,-203,-147,-635,96,89
3500,-21,-204,-148,-632,92,84
3505,-19,-204,-147,-629,90,82
3510,-23,-202,-149,-625,86,77
3515,-16,-201,-148,-615,87,73
3520,-17,-202,-149,-607,89,68
3525,-16,-203,-148,-598,91,65
3530,-16,-201,-149,-592,94,63
3535,-18,-200,-150,-589,94,59
3540,-15,-199,-154,-588,94,54
3545,-17,-199,-150,-590,91,51
3550,-16,-201,-154,-597,88,51
3555,-18,-201,-158,-607,83,49
3560,-20,-197,-156,-620,79,45
3565,-21,-199,-165,-633,73,41
3570,-17,-201,-157,-647,70,38
3575,-17,-201,-158,-657,64,33
3580,-18,-205,-155,-662,58,30
3585,-19,-206,-157,-664,52,26
3590,-23,-206,-160,-661,43,23
3595,-21,-205,-160,-652,34,18
3600,-22,-205,-161,-638,26,13
3605,-22,-205,-159,-619,19,9
3610,-17,-206,-163,-597,17,5
3615,-18,-205,-165,-576,15,-2
3620,-18,-205,-162,-557,17,-7
3625,-20,-202,-167,-533,20,-12
3630,-18,-202,-165,-511,24,-16
3635,-17,-198,-164,-492,29,-20
3640,-14,-203,-166,-477,32,-27
3645,-16,-196,-166,-462,34,-30
3650,-13,-201,-164,-453,36,-35
3655,-13,-199,-165,-449,38,-36
3660,-14,-197,-166,-448,41,-38
3665,-15,-196,-169,-450,45,-39
3670,-14,-201,-169,-456,46,-42
3675,-12,-203,-167,-463,50,-41
3680,-12,-203,-170,-468,52,-41
3685,-12,-202,-171,-473,53,-40
3690,-12,-203,-167,-472,51,-40
3695,-14,-204,-172,-470,50,-41
3700,-11,-204,-171,-464,47,-41
3705,-17,-206,-175,-456,44,-43
3710,-17,-207,-173,-445,40,-44
3715,-17,-208,-173,-429,33,-47
3720,-17,-207,-177,-413,27,-49
3725,-21,-205,-179,-393,17,-52
3730,-18,-207,-176,-372,10,-55
3735,-19,-205,-175,-351,3,-57
3740,-17,-203,-176,-330,0,-60
3745,-19,-201,-176,-313,-2,-60
3750,-17,-200,-173,-296,0,-61
3755,-18,-202,-177,-282,2,-62
3760,-20,-200,-177,-268,7,-61
3765,-18,-197,-179,-256,13,-61
3770,-17,-196,-177,-247,22,-59
3775,-16,-197,-179,-239,32,-58
3780,-15,-194,-175,-229,43,-57
3785,-15,-191,-178,-221,50,-56
3790,-14,-194,-176,-211,56,-56
3795,-14,-191,-175,-201,57,-57
3800,-14,-192,-176,-192,56,-59
3805,-15,-189,-176,-181,52,-61
3810,-13,-188,-174,-172,46,-62
3815,-17,-188,-174,-161,40,-64
3820,-16,-185,-174,-150,33,-65
3825,-17,-183,-176,-139,27,-67
3830,-19,-183,-177,-128,19,-67
3835,-19,-183,-177,-120,10,-69
3840,-22,-177,-177,-113,4,-70
3845,-21,-177,-179,-107,0,-70
3850,-22,-177,-179,-105,-3,-72
3855,-24,-172,-180,-106,-4,-74
3860,-20,-171,-183,-112,-3,-75
3865,-20,-172,-183,-118,-2,-76
3870,-20,-170,-184,-129,2,-77
3875,-20,-167,-185,-139,5,-79
3880,-19,-170,-185,-150,10,-82
3885,-25,-166,-188,-159,17,-85
3890,-16,-167,-186,-167,23,-88
3895,-18,-170,-188,-173,28,-90
3900,-20,-165,-187,-177,35,-93
3905,-19,-164,-188,-181,39,-94
3910,-20,-163,-190,-185,43,-95
3915,-17,-166,-191,-188,43,-96
3920,-19,-165,-192,-194,43,-95
3925,-21,-162,-187,-199,39,-94
3930,-21,-163,-191,-204,36,-93
3935,-19,-161,-193,-211,32,-92
3940,-17,-161,-195,-220,27,-91
3945,-21,-160,-194,-231,24,-91
3950,-20,-161,-192,-240,18,-92
3955,-20,-161,-196,-250,13,-92
3960,-22,-160,-193,-257,9,-96
3965,-19,-163,-191,-261,5,-99
3970,-21,-161,-194,-262,2,-101
3975,-15,-160,-190,-262,-4,-106
3980,-20,-159,-192,-258,-10,-110
3985,-19,-159,-190,-254,-13,-113
3990,-19,-154,-187,-249,-18,-116
3995,-14,-158,-189,-244,-22,-119
4000,-17,-153,-192,-237,-22,-121
4005,-18,-150,-192,-232,-25,-127
4010,-19,-147,-188,-230,-26,-129
4015,-17,-144,-191,-231,-29,-132
4020,-17,-148,-192,-237,-29,-132
4025,-20,-141,-195,-250,-28,-133
4030,-19,-138,-196,-266,-27,-135
4035,-18,-139,-192,-287,-23,-135
4040,-19,-138,-195,-312,-18,-136
4045,-19,-140,-194,-337,-10,-137
4050,-20,-141,-196,-362,-6,-138
4055,-17,-140,-197,-387,2,-139
4060,-16,-141,-195,-411,6,-140
4065,-16,-139,-197,-432,12,-143
4070,-14,-142,-197,-454,17,-144
4075,-10,-146,-200,-473,24,-145
4080,-14,-146,-201,-490,31,-149
4085,-12,-150,-203,-502,36,-151
4090,-9,-151,-200,-508,45,-153
4095,-7,-154,-203,-508,52,-154
4100,-9,-156,-200,-505,56,-155
4105,-7,-159,-201,-496,57,-156
4110,-8,-164,-201,-484,58,-159
4115,-13,-164,-199,-473,58,-168
4120,-7,-162,-196,-457,57,-171
4125,-8,-162,-196,-440,54,-174
4130,-11,-161,-196,-426,51,-178
4135,-9,-159,-197,-417,48,-184
4140,-14,-162,-199,-411,40,-190
4145,-12,-159,-204,-410,33,-198
4150,-14,-160,-204,-410,23,-203
4155,-19,-157,-202,-414,10,-207
4160,-19,-157,-201,-416,-3,-211
4165,-21,-152,-202,-422,-15,-215
4170,-20,-155,-202,-428,-22,-217
4175,-23,-157,-205,-437,-29,-217
4180,-21,-159,-204,-445,-32,-214
4185,-22,-156,-203,-451,-31,-210
4190,-25,-162,-207,-454,-30,-206
4195,-24,-159,-206,-453,-26,-201
4200,-23,-161,-205,-449,-23,-195
4205,-21,-161,-209,-441,-20,-189
4210,-21,-167,-210,-431,-18,-183
4215,-22,-164,-213,-419,-13,-178
4220,-21,-168,-210,-403,-8,-175
4225,-15,-169,-213,-384,-2,-174
4230,-14,-168,-212,-365,4,-176
4235,-16,-169,-211,-348,10,-179
4240,-15,-172,-212,-328,15,-177
4245,-13,-177,-213,-308,20,-176
4250,-13,-176,-212,-288,25,-177
4255,-13,-170,-214,-268,30,-178
4260,-9,-173,-213,-250,35,-179
4265,-12,-169,-212,-229,39,-180
4270,-12,-169,-211,-209,40,-179
4275,-14,-167,-209,-188,36,-179
4280,-16,-166,-212,-168,33,-177
4285,-17,-163,-212,-147,29,-172
4290,-19,-163,-212,-128,24,-168
4295,-20,-160,-212,-108,20,-162
4300,-23,-160,-213,-95,15,-157
4305,-19,-160,-210,-85,12,-150
4310,-22,-158,-210,-80,7,-144
4315,-21,-154,-209,-82,5,-143
4320,-20,-158,-209,-91,0,-143
4325,-21,-159,-211,-104,-6,-143
4330,-23,-158,-213,-118,-10,-143
4335,-20,-158,-214,-133,-14,-147
4340,-18,-162,-210,-147,-16,-150
4345,-21,-161,-212,-155,-20,-154
4350,-19,-165,-212,-160,-21,-154
4355,-21,-167,-212,-161,-23,-153
4360,-23,-168,-213,-158,-21,-154
4365,-22,-173,-211,-148,-16,-152
4370,-24,-172,-212,-132,-14,-149
4375,-22,-173,-214,-107,-10,-146
4380,-27,-176,-213,-76,-5,-140
4385,-26,-173,-215,-39,0,-134
4390,-25,-172,-214,-1,2,-130
4395,-22,-172,-213,40,5,-124
4400,-24,-170,-213,73,6,-118
4405,-26,-167,-213,112,7,-113
4410,-24,-163,-214,144,7,-108
4415,-24,-162,-212,168,5,-105
4420,-21,-159,-207,182,4,-103
4425,-21,-155,-209,188,1,-101
4430,-22,-154,-207,189,-1,-100
4435,-19,-146,-207,184,-2,-102
4440,-19,-151,-208,176,-3,-104
4445,-13,-150,-207,166,-3,-106
4450,-14,-149,-208,154,-4,-111
4455,-13,-148,-206,143,-4,-116
4460,-11,-148,-209,136,-3,-121
4465,-9,-149,-209,132,-4,-127
4470,-11,-145,-209,131,-3,-130
4475,-11,-145,-210,133,0,-134
4480,-11,-145,-207,136,2,-137
4485,-11,-147,-210,139,5,-142
4490,-12,-147,-209,145,7,-146
4495,-12,-146,-210,151,9,-147
4500,-12,-151,-212,156,10,-148
4505,-11,-150,-209,161,11,-149
4510,-13,-150,-211,165,9,-149
4515,-15,-151,-210,171,10,-150
4520,-15,-154,-208,174,12,-149
4525,-10,-155,-207,178,12,-146
4530,-15,-152,-211,182,14,-142
4535,-13,-155,-207,186,17,-139
4540,-14,-157,-209,190,20,-134
4545,-13,-164,-213,197,21,-134
4550,-17,-155,-206,203,25,-129
4555,-16,-155,-209,212,25,-128
4560,-16,-160,-210,222,26,-125
4565,-10,-161,-205,234,26,-122
4570,-14,-160,-206,250,25,-121
4575,-10,-161,-202,266,23,-118
4580,-11,-159,-203,284,21,-117
4585,-9,-159,-203,297,22,-116
4590,-10,-158,-200,313,22,-115
4595,-8,-162,-204,329,24,-117
4600,-8,-157,-202,340,24,-119
4605,-9,-155,-199,352,25,-121
4610,-10,-158,-199,360,27,-122
4615,-5,-155,-203,366,26,-123
4620,-8,-156,-203,368,26,-122
4625,-9,-155,-200,368,24,-122
4630,-9,-157,-199,366,23,-119
4635,-10,-154,-203,361,22,-119
4640,-12,-156,-197,355,22,-116
4645,-12,-158,-201,351,24,-114
4650,-6,-166,-196,347,25,-110
4655,-11,-162,-199,346,27,-107
4660,-13,-162,-203,348,30,-102
4665,-10,-162,-197,352,35,-97
4670,-10,-166,-202,359,39,-92
4675,-9,-166,-199,370,44,-88
4680,-11,-170,-199,383,49,-85
4685,-8,-171,-200,397,51,-81
4690,-6,-173,-201,417,51,-77
4695,-12,-174,-193,436,50,-74
4700,-13,-169,-194,453,47,-72
4705,-11,-180,-197,472,43,-67
4710,-10,-174,-191,490,40,-64
4715,-13,-171,-189,507,36,-61
4720,-10,-176,-188,521,32,-61
4725,-12,-172,-185,535,27,-59
4730,-9,-176,-187,544,23,-61
4735,-10,-175,-187,552,20,-61
4740,-11,-176,-188,561,18,-62
4745,-11,-175,-187,567,16,-64
4750,-10,-180,-184,574,15,-69
4755,-9,-182,-186,575,14,-71
4760,-8,-186,-184,573,11,-76
4765,-8,-183,-186,569,11,-79
4770,-11,-181,-191,566,9,-84
4775,-9,-180,-191,564,8,-88
4780,-8,-185,-190,562,10,-87
4785,-9,-183,-194,560,9,-88
4790,-10,-186,-194,556,10,-88
4795,-8,-184,-193,552,7,-87
4800,-11,-185,-191,550,7,-87
4805,-10,-188,-194,547,7,-87
4810,-10,-190,-191,544,8,-81
4815,-11,-190,-194,545,7,-79
4820,-14,-191,-191,547,9,-72
4825,-12,-191,-188,551,12,-69
4830,-12,-195,-193,555,10,-63
4835,-12,-192,-185,562,10,-62
4840,-13,-195,-184,567,9,-60
4845,-13,-200,-180,576,7,-60
4850,-12,-198,-181,588,6,-58
4855,-14,-201,-178,603,5,-57
4860,-12,-200,-174,619,2,-59
4865,-12,-202,-175,634,0,-59
4870,-12,-204,-172,647,-3,-60
4875,-10,-203,-170,661,-7,-62
4880,-14,-199,-172,672,-8,-65
4885,-12,-200,-172,680,-11,-68
4890,-11,-202,-172,686,-13,-69
4895,-10,-200,-173,688,-15,-74
4900,-11,-204,-172,688,-16,-77
4905,-11,-203,-172,682,-17,-79
4910,-11,-201,-174,673,-15,-77
4915,-9,-202,-180,659,-13,-77
4920,-8,-204,-183,643,-9,-74
4925,-9,-201,-175,629,-6,-72
4930,-10,-201,-176,614,-2,-70
4935,-11,-201,-177,600,2,-66
4940,-11,-202,-180,587,9,-60
4945,-9,-199,-177,578,14,-56
4950,-7,-200,-175,571,22,-50
4955,-11,-199,-173,566,29,-47
4960,-11,-199,-171,563,37,-43
4965,-11,-198,-170,561,42,-39
4970,-15,-196,-169,556,47,-36
4975,-14,-200,-168,551,52,-34
4980,-11,-195,-158,543,57,-30
4985,-11,-203,-157,534,63,-26
4990,-15,-201,-158,525,69,-25
4995,-15,-204,-158,515,74,-23
5000,-15,-203,-157,508,80,-19
5005,-16,-205,-151,504,85,-14
5010,-16,-207,-149,501,89,-11
5015,-13,-212,-151,500,93,-9
5020,-14,-209,-149,500,97,-6
5025,-17,-209,-146,500,98,-4
5030,-14,-211,-147,498,100,-4
5035,-15,-214,-148,496,98,-3
5040,-12,-213,-146,493,98,-3
5045,-9,-210,-146,489,97,-3
5050,-9,-212,-142,485,97,-3
5055,-8,-214,-142,482,96,-5
5060,-9,-211,-142,478,96,-6
5065,-11,-212,-143,473,93,-7
5070,-10,-214,-140,470,90,-10
5075,-9,-214,-141,466,88,-11
5080,-9,-215,-140,465,87,-14
5085,-8,-217,-136,464,87,-18
5090,-11,-215,-130,464,87,-20
5095,-11,-215,-138,466,85,-20
5100,-11,-217,-140,466,85,-22
5105,-14,-215,-138,467,84,-23
5110,-14,-215,-138,464,84,-23
5115,-10,-217,-138,463,83,-24
5120,-17,-215,-138,462,82,-23
5125,-15,-219,-136,461,82,-22
5130,-14,-216,-137,459,84,-22
5135,-10,-217,-137,454,85,-21
5140,-13,-215,-140,453,87,-20
5145,-14,-220,-136,446,86,-19
5150,-12,-217,-137,440,85,-20
5155,-13,-217,-134,435,83,-20
5160,-14,-219,-131,428,83,-20
5165,-9,-221,-135,422,81,-20
5170,-10,-220,-134,417,81,-22
5175,-9,-223,-131,415,81,-24
5180,-4,-223,-130,413,82,-25
5185,-7,-222,-130,411,81,-28
5190,-9,-225,-130,409,83,-29
5195,1,-220,-128,407,84,-31
5200,-6,-225,-133,407,85,-32
5205,-7,-221,-131,406,88,-34
5210,-7,-226,-125,406,90,-33
5215,-6,-222,-124,405,93,-35
5220,-7,-225,-127,404,96,-34
5225,-6,-225,-127,403,99,-33
5230,-3,-226,-126,404,102,-32
5235,-5,-223,-121,399,105,-33
5240,-6,-223,-123,399,108,-33
5245,-4,-224,-122,396,110,-34
5250,-8,-224,-121,393,111,-34
5255,-8,-225,-121,389,112,-34
5260,-6,-224,-121,385,111,-35
5265,-4,-225,-120,380,110,-36
5270,-6,-231,-123,374,110,-38
5275,-6,-227,-119,370,109,-39
5280,-6,-227,-116,369,110,-41
5285,-3,-228,-122,366,107,-39
5290,-3,-231,-117,365,105,-40
5295,-5,-229,-116,365,104,-39
5300,0,-230,-118,365,102,-38
5305,-1,-230,-108,364,101,-34
5310,-8,-226,-119,364,98,-31
5315,-4,-229,-114,361,97,-30
5320,-3,-228,-114,358,95,-27
5325,-5,-229,-115,352,93,-22
5330,-5,-230,-117,348,89,-20
5335,-7,-228,-115,344,86,-18
5340,-2,-232,-116,339,83,-15
5345,-8,-231,-114,332,82,-16
5350,-8,-228,-115,327,81,-13
5355,-1,-231,-109,321,79,-13
5360,-7,-230,-113,315,80,-15
5365,-3,-229,-114,308,79,-15
5370,-8,-229,-114,300,79,-14
5375,-10,-231,-112,293,80,-13
5380,-4,-231,-112,288,82,-16
5385,-4,-232,-113,283,85,-16
5390,-4,-231,-114,276,86,-18
5395,-7,-229,-109,270,89,-19
5400,-1,-232,-110,263,92,-21
5405,-2,-232,-110,257,92,-22
5410,0,-233,-109,252,96,-25
5415,0,-230,-106,247,96,-26
5420,0,-232,-109,245,99,-27
5425,0,-235,-105,242,101,-28
5430,-4,-231,-108,239,105,-26
5435,-1,-233,-107,237,108,-25
5440,-1,-230,-110,233,111,-23
5445,1,-234,-110,229,112,-21
5450,0,-231,-107,225,113,-20
5455,0,-233,-106,222,112,-16
5460,-1,-235,-109,219,111,-16
5465,0,-236,-105,214,108,-14
5470,-1,-233,-109,208,107,-14
5475,-3,-233,-105,204,103,-13
5480,0,-237,-112,196,99,-13
5485,-3,-234,-102,189,95,-15
5490,-1,-234,-104,178,92,-16
5495,-1,-238,-103,167,85,-17
5500,-2,-236,-105,155,81,-20
5505,-6,-236,-99,146,76,-22
5510,-6,-237,-99,137,71,-21
5515,-4,-237,-104,128,65,-20
5520,-5,-238,-100,121,61,-20
5525,-10,-237,-106,115,56,-17
5530,-4,-234,-101,110,51,-15
5535,-4,-234,-103,107,47,-10
5540,-6,-235,-99,102,43,-6
5545,-5,-232,-101,100,41,-1
5550,-6,-235,-103,97,39,3
5555,-6,-238,-105,95,36,9
5560,-6,-233,-99,93,33,11
5565,-1,-241,-101,94,30,13
5570,-5,-239,-100,95,28,14
5575,-7,-237,-97,97,26,14
5580,-5,-237,-99,99,25,13
5585,-5,-237,-99,100,23,13
5590,-4,-240,-100,101,22,13
5595,-10,-240,-101,100,22,9
5600,-9,-240,-100,98,24,9
5605,-6,-240,-98,95,23,7
5610,-11,-237,-100,89,24,6
5615,-10,-239,-98,81,26,5
5620,-9,-237,-98,74,27,3
5625,-12,-237,-99,66,28,3
5630,-10,-236,-97,60,29,1
5635,-3,-238,-96,53,32,0
5640,-10,-240,-96,45,34,-3
5645,-12,-236,-97,39,36,-7
5650,-10,-238,-92,32,39,-8
5655,-14,-237,-98,26,40,-11
5660,-12,-237,-93,22,40,-13
5665,-12,-236,-91,18,42,-15
5670,-7,-239,-92,15,41,-17
5675,-12,-237,-97,12,39,-19
5680,-8,-243,-95,10,37,-19
5685,-12,-239,-96,9,33,-20
5690,-9,-238,-95,7,29,-19
5695,-10,-239,-97,8,25,-19
5700,-11,-234,-96,8,21,-19
5705,-10,-235,-95,9,18,-19
5710,-11,-235,-98,11,15,-21
5715,-8,-240,-97,10,11,-20
5720,-7,-242,-100,11,11,-20
5725,-6,-240,-98,11,9,-20
5730,-4,-241,-96,11,6,-19
5735,-4,-240,-99,8,6,-19
5740,-6,-233,-99,3,6,-18
5745,-8,-237,-100,0,5,-16
5750,-6,-236,-98,-3,3,-16
5755,-3,-238,-100,-5,1,-14
5760,-5,-236,-98,-6,1,-14
5765,-8,-237,-98,-6,-1,-13
5770,-8,-240,-96,-6,0,-12
5775,-3,-240,-95,-3,0,-11
5780,-7,-239,-97,-1,0,-8
5785,-8,-236,-97,-2,1,-7
5790,-8,-238,-99,-4,3,-6
5795,-8,-237,-97,-5,6,-4
5800,-10,-234,-98,-11,10,0
5805,-10,-235,-98,-16,12,3
5810,-9,-237,-95,-21,16,5
5815,-10,-239,-100,-25,18,7
5820,-7,-239,-99,-31,20,10
5825,-8,-234,-96,-33,21,12
5830,-9,-236,-97,-35,21,15
5835,-10,-236,-93,-34,22,15
5840,-6,-237,-98,-33,23,16
5845,-10,-235,-97,-32,24,16
5850,-8,-238,-102,-30,23,18
5855,-6,-235,-98,-30,24,18
5860,-6,-234,-98,-29,23,18
5865,-8,-238,-97,-30,25,16
5870,-4,-237,-93,-33,25,15
5875,-4,-235,-98,-37,25,14
5880,-6,-234,-98,-41,24,13
5885,-2,-238,-98,-44,25,14
5890,-6,-238,-99,-49,26,14
5895,-6,-238,-102,-57,27,15
5900,-3,-237,-99,-66,27,16
5905,-6,-236,-97,-72,30,18
5910,-3,-236,-97,-77,31,19
5915,-9,-236,-96,-83,34,20
5920,-7,-239,-98,-87,36,21
5925,-8,-239,-98,-90,39,22
5930,-8,-237,-97,-93,42,22
5935,-9,-238,-101,-94,45,24
5940,-9,-238,-99,-96,49,26
5945,-5,-241,-98,-95,53,26
5950,-7,-237,-98,-95,56,27
5955,-8,-237,-99,-94,60,28
5960,-6,-236,-102,-94,63,27
5965,-7,-237,-98,-93,65,28
5970,-10,-237,-96,-93,68,29
5975,-11,-234,-101,-92,70,28
5980,-8,-237,-101,-91,74,29
5985,-8,-238,-98,-90,75,28
5990,-7,-240,-98,-88,77,28
5995,-8,-237,-96,-87,77,30
6000,-10,-238,-100,-86,78,27
6005,-6,-237,-98,-84,77,27
6010,-11,-235,-103,-83,76,28
6015,-8,-237,-103,-81,76,27
6020,-9,-237,-102,-79,77,25
6025,-8,-242,-103,-79,76,24
6030,-9,-238,-103,-79,74,25
6035,-6,-235,-103,-77,74,24
6040,-11,-238,-104,-74,74,23
6045,-9,-238,-103,-72,72,23
6050,-7,-238,-104,-69,72,23
6055,-9,-238,-105,-67,71,24
6060,-10,-236,-104,-62,70,25
6065,-9,-235,-103,-60,70,26
6070,-9,-237,-107,-56,72,27
6075,-9,-239,-104,-55,72,30
6080,-11,-238,-103,-55,72,30
6085,-8,-239,-104,-55,74,30
6090,-11,-236,-106,-58,74,31
6095,-8,-234,-101,-62,75,30
6100,-10,-234,-103,-65,76,30
6105,-9,-237,-106,-70,77,29
6110,-12,-235,-104,-74,78,30
6115,-11,-238,-104,-78,79,29
6120,-11,-232,-105,-81,80,29
6125,-12,-236,-102,-84,80,28
6130,-10,-238,-106,-88,81,26
6135,-8,-235,-102,-90,82,27
6140,-8,-239,-101,-94,81,25
6145,-11,-234,-104,-95,81,22
6150,-9,-236,-103,-94,80,21
6155,-12,-234,-105,-93,80,20
6160,-9,-236,-107,-92,79,20
6165,-11,-237,-107,-91,77,19
6170,-12,-231,-108,-90,75,20
6175,-11,-225,-112,-87,74,19
6180,-10,-237,-106,-86,73,18
6185,-13,-236,-106,-82,72,16
6190,-10,-235,-111,-78,70,16
6195,-11,-237,-104,-76,71,16
6200,-10,-237,-106,-74,68,18
6205,-10,-236,-109,-70,69,17
6210,-11,-235,-108,-68,69,18
6215,-12,-237,-110,-63,67,16
6220,-13,-239,-108,-62,66,17
6225,-13,-236,-110,-59,65,16
6230,-15,-236,-110,-55,67,15
6235,-12,-234,-109,-51,66,15
6240,-11,-239,-110,-47,66,18
6245,-11,-238,-104,-44,67,17
6250,-10,-238,-109,-40,69,17
6255,-12,-233,-107,-37,69,18
6260,-12,-237,-106,-34,70,18
6265,-13,-236,-108,-29,71,19
6270,-14,-236,-106,-28,72,18
6275,-13,-234,-108,-27,72,18
6280,-16,-234,-105,-26,72,18
6285,-19,-232,-108,-26,72,17
6290,-15,-234,-110,-27,71,18
6295,-10,-237,-109,-27,69,18
6300,-11,-234,-104,-27,69,18
6305,-13,-237,-107,-26,67,17
6310,-14,-236,-105,-27,67,16
6315,-14,-232,-103,-25,66,16
6320,-13,-237,-110,-24,65,15
6325,-10,-235,-106,-22,63,14
6330,-13,-238,-107,-23,63,15
6335,-14,-235,-106,-20,63,13
6340,-13,-237,-107,-19,63,12
6345,-10,-235,-105,-19,63,11
6350,-12,-235,-109,-19,62,10
6355,-15,-234,-107,-18,63,9
6360,-14,-235,-107,-19,64,7
6365,-17,-233,-105,-19,65,6
6370,-12,-239,-106,-19,66,6
6375,-15,-235,-105,-20,66,6
6380,-14,-234,-111,-21,67,6
6385,-11,-237,-104,-21,69,6
6390,-12,-236,-107,-18,69,5
6395,-15,-228,-111,-16,69,5
6400,-14,-236,-108,-16,70,5
6405,-13,-231,-103,-14,70,4
6410,-12,-237,-109,-12,69,7
6415,-12,-236,-106,-9,67,6
6420,-13,-235,-107,-6,66,5
6425,-13,-236,-105,-5,65,5
6430,-13,-237,-109,-3,64,4
6435,-9,-238,-108,-3,65,3
6440,-12,-235,-107,-2,63,2
6445,-11,-238,-106,0,63,1
6450,-14,-236,-107,0,63,-1
6455,-14,-234,-109,2,64,-1
6460,-11,-238,-107,2,65,-3
6465,-13,-236,-107,3,66,-4
6470,-13,-236,-106,4,67,-2
6475,-9,-239,-106,4,69,-3
6480,-14,-233,-107,6,69,-4
6485,-13,-234,-103,8,71,-3
6490,-10,-236,-107,9,72,-3
6495,-11,-234,-107,11,72,-1
6500,-11,-235,-104,12,71,0
6505,-9,-241,-108,11,70,1
6510,-13,-234,-105,11,69,0
6515,-12,-233,-105,10,68,0
6520,-10,-237,-108,9,67,0
6525,-8,-238,-103,9,67,0
6530,-13,-237,-106,8,66,1
6535,-11,-235,-110,6,67,1
6540,-15,-234,-105,5,68,0
6545,-14,-235,-104,5,67,-1
6550,-12,-235,-106,5,68,-2
6555,-13,-237,-107,5,69,-1
6560,-13,-237,-106,8,70,-3
6565,-13,-233,-108,7,71,-3
6570,-12,-237,-106,8,71,-4
6575,-12,-235,-110,8,71,-3
6580,-14,-236,-104,7,72,-4
6585,-12,-235,-104,7,72,-5
6590,-11,-236,-105,5,73,-5
6595,-12,-235,-105,4,74,-3
6600,-11,-234,-104,3,73,-3
6605,-11,-239,-103,4,74,-5
6610,-12,-237,-104,6,73,-5
6615,-13,-237,-102,8,71,-5
6620,-11,-240,-106,12,69,-6
6625,-12,-236,-104,16,68,-6
6630,-13,-236,-108,19,65,-7
6635,-9,-238,-109,22,65,-8
6640,-14,-235,-103,27,65,-7
6645,-12,-238,-107,30,64,-6
6650,-9,-237,-107,33,64,-6
6655,-10,-236,-107,34,65,-5
6660,-13,-237,-106,37,65,-4
6665,-10,-236,-103,38,67,-3
6670,-12,-237,-103,38,66,-2
6675,-13,-237,-106,38,68,-2
6680,-15,-235,-104,38,67,-1
6685,-14,-236,-106,37,68,0
6690,-11,-237,-107,36,67,-1
6695,-13,-234,-101,32,67,-1
6700,-13,-235,-103,30,67,-2
6705,-14,-236,-103,29,66,-2
6710,-13,-232,-105,26,68,-4
6715,-15,-234,-102,25,68,-4
6720,-13,-239,-104,25,69,-2
6725,-15,-234,-102,23,69,-4
6730,-12,-235,-103,23,67,-4
6735,-12,-237,-102,22,68,-5
6740,-11,-236,-102,21,69,-5
6745,-12,-236,-102,20,69,-4
6750,-10,-236,-107,21,71,-4
6755,-13,-234,-104,20,71,-5
6760,-11,-233,-106,18,71,-3
6765,-12,-236,-105,18,70,-4
6770,-12,-236,-109,17,71,-5
6775,-10,-237,-104,16,71,-5
6780,-9,-235,-103,16,73,-5
6785,-12,-237,-106,15,72,-4
6790,-12,-235,-102,15,71,-5
6795,-12,-236,-107,16,70,-6
6800,-16,-236,-105,16,70,-5
6805,-13,-236,-100,18,70,-6
6810,-15,-239,-102,21,69,-5
6815,-11,-235,-102,24,68,-6
6820,-12,-239,-106,24,68,-4
6825,-13,-238,-105,24,69,-3
6830,-12,-236,-101,26,68,-3
6835,-13,-237,-101,27,67,-4
6840,-10,-237,-102,29,67,-3
6845,-12,-237,-100,30,67,-5
6850,-11,-236,-103,32,66,-4
6855,-12,-237,-103,32,66,-4
6860,-13,-235,-103,32,66,-4
6865,-13,-235,-103,32,66,-5
6870,-13,-237,-102,33,67,-6
6875,-13,-236,-99,32,68,-6
6880,-12,-236,-104,31,68,-6
6885,-10,-238,-101,30,67,-6
6890,-11,-239,-102,30,68,-5
6895,-14,-236,-106,29,67,-4
6900,-15,-237,-98,26,66,-6
6905,-12,-237,-100,23,66,-5
6910,-13,-238,-99,20,66,-4
6915,-13,-237,-99,18,65,-6
6920,-10,-238,-100,15,64,-7
6925,-14,-238,-101,14,65,-6
6930,-12,-238,-100,14,64,-4
6935,-14,-235,-99,15,65,-4
6940,-11,-236,-102,17,67,-5
6945,-11,-236,-103,17,67,-5
6950,-10,-238,-100,17,68,-6
6955,-13,-234,-101,18,67,-6
6960,-12,-237,-98,18,69,-6
6965,-11,-238,-101,18,71,-6
6970,-13,-238,-101,15,70,-5
6975,-11,-236,-102,12,71,-4
6980,-12,-236,-104,11,70,-3
6985,-11,-239,-102,10,70,-5
6990,-13,-235,-99,8,69,-4
6995,-13,-241,-100,9,70,-3
7000,-12,-238,-103,11,70,-4
7005,-10,-237,-103,12,70,-5
7010,-12,-238,-101,14,69,-6
7015,-15,-234,-103,15,68,-6
7020,-11,-235,-101,15,67,-5
7025,-13,-237,-97,15,68,-6
7030,-15,-236,-103,12,69,-6
7035,-13,-235,-100,12,70,-5
7040,-12,-237,-99,9,70,-4
7045,-10,-239,-99,7,72,-4
7050,-14,-236,-98,4,72,-4
7055,-11,-240,-96,3,71,-4
7060,-11,-235,-99,1,72,-3
7065,-9,-237,-95,-1,74,-4
7070,-14,-238,-103,-3,73,-4
7075,-12,-237,-98,-3,73,-4
7080,-12,-240,-100,-6,73,-4
7085,-14,-237,-102,-6,71,-3
7090,-13,-237,-100,-6,72,-4
7095,-11,-238,-100,-8,71,-2
7100,-11,-238,-100,-8,70,-4
7105,-11,-239,-103,-8,70,-3
7110,-11,-240,-102,-8,70,-3
7115,-11,-237,-100,-7,70,-4
7120,-10,-240,-101,-6,69,-2
7125,-12,-237,-102,-6,70,-2
7130,-11,-239,-96,-4,69,-4
7135,-9,-239,-98,-3,68,-2
7140,-14,-235,-101,-3,67,-2
7145,-11,-238,-96,-2,67,-2
7150,-11,-236,-107,-2,66,-2
7155,-12,-239,-102,-3,67,-2
7160,-13,-239,-99,-3,67,-3
7165,-10,-237,-99,-3,67,-3
7170,-13,-237,-101,-4,67,-2
7175,-15,-235,-100,-3,67,-3
7180,-11,-237,-98,-4,67,-3
7185,-12,-239,-101,-3,66,-3
7190,-12,-237,-100,-3,67,-4
7195,-11,-236,-101,-2,69,-4
7200,-11,-237,-100,-1,69,-5
7205,-9,-238,-102,-1,70,-4
7210,-11,-238,-98,0,70,-2
7215,-12,-239,-101,0,69,-3
7220,-13,-240,-103,1,69,-3
7225,-13,-237,-99,1,68,-2
7230,-14,-236,-100,2,68,-1
7235,-11,-238,-99,1,69,-1
7240,-13,-236,-100,-1,68,-1
7245,-12,-236,-101,-1,67,-2
7250,-12,-238,-102,-3,67,-3
7255,-10,-242,-100,-2,67,-3
7260,-11,-241,-98,-1,66,-4
7265,-13,-238,-99,1,67,-3
7270,-9,-240,-103,3,66,-3
7275,-11,-240,-103,5,66,-4
7280,-10,-237,-96,5,66,-5
7285,-12,-235,-103,4,66,-4
7290,-11,-238,-98,2,67,-3
7295,-12,-234,-97,0,68,-2
7300,-12,-236,-102,-2,68,-1
7305,-14,-238,-100,-6,68,0
7310,-16,-237,-98,-6,69,0
7315,-12,-238,-99,-7,69,0
7320,-14,-236,-102,-8,69,0
7325,-15,-238,-97,-8,70,0
7330,-11,-237,-100,-7,69,-1
7335,-12,-238,-100,-6,71,-3
7340,-13,-237,-102,-7,73,-3
7345,-13,-238,-99,-7,75,-4
7350,-13,-236,-103,-7,75,-4
7355,-8,-240,-102,-7,75,-3
7360,-14,-234,-100,-10,73,-5
7365,-11,-238,-100,-11,72,-4
7370,-8,-235,-109,-12,70,-4
7375,-12,-237,-100,-13,69,-5
7380,-11,-238,-96,-11,68,-5
7385,-9,-240,-99,-10,67,-7
7390,-13,-238,-102,-5,69,-7
7395,-11,-240,-102,-1,69,-8
7400,-13,-235,-102,4,69,-7
7405,-14,-239,-104,9,70,-6
7410,-14,-239,-100,15,69,-6
7415,-12,-239,-102,19,72,-5
7420,-13,-236,-104,26,72,-4
7425,-11,-241,-103,29,73,-3
7430,-8,-242,-102,30,73,-2
7435,-11,-236,-102,30,74,1
7440,-10,-238,-97,31,73,2
7445,-13,-239,-99,29,72,1
7450,-10,-239,-99,26,70,1
7455,-11,-239,-96,24,70,0
7460,-12,-238,-101,20,69,-2
7465,-13,-237,-99,18,68,-3
7470,-12,-240,-97,18,67,-1
7475,-12,-236,-98,17,68,-2
7480,-5,-240,-94,17,68,-3
7485,-12,-239,-97,17,68,-3
7490,-10,-240,-98,16,67,-3
7495,-9,-235,-99,16,67,-2
7500,-9,-240,-98,16,67,-3
7505,-8,-239,-96,15,68,-3
7510,-11,-238,-97,14,69,-4
7515,-14,-239,-99,13,70,-3
7520,-10,-237,-99,12,70,-3
7525,-12,-240,-97,13,70,-3
7530,-14,-240,-99,11,71,-4
7535,-11,-237,-100,11,71,-2
7540,-11,-239,-100,9,71,-4
7545,-12,-239,-96,11,71,-3
7550,-13,-239,-102,12,71,-3
7555,-12,-238,-97,13,71,-2
7560,-11,-237,-101,11,70,-3
7565,-14,-238,-98,10,70,-3
7570,-11,-238,-93,10,71,-3
7575,-14,-237,-98,9,71,-2
7580,-9,-240,-96,7,71,-1
7585,-14,-238,-95,6,70,-3
7590,-11,-242,-98,4,68,-3
7595,-12,-237,-93,3,70,-1
7600,-13,-239,-97,3,70,-2
7605,-12,-241,-97,3,70,-3
7610,-15,-239,-99,3,70,-1
7615,-13,-238,-97,4,71,-1
7620,-12,-238,-97,5,70,-1
7625,-10,-239,-99,4,70,-3
7630,-11,-237,-96,5,70,-2
7635,-13,-238,-99,5,68,-3
7640,-10,-241,-94,4,68,-3
7645,-10,-242,-100,4,68,-3
7650,-14,-234,-101,1,67,-3
7655,-11,-240,-98,0,67,-2
7660,-13,-238,-96,-2,66,-2
7665,-9,-241,-96,-3,67,-3
7670,-7,-239,-95,-3,67,-2
7675,-12,-239,-95,-3,66,-3
7680,-12,-238,-97,-3,67,-4
7685,-11,-238,-97,-1,67,-5
7690,-13,-241,-99,-1,66,-6
7695,-12,-237,-96,0,67,-5
7700,-15,-231,-99,1,67,-5
7705,-10,-236,-97,1,66,-4
7710,-15,-241,-88,3,67,-4
7715,-11,-238,-98,3,67,-2
7720,-17,-232,-99,5,68,-3
7725,-10,-232,-97,4,67,-3
7730,-15,-236,-97,4,66,-3
7735,-14,-238,-90,7,65,-2
7740,-10,-243,-96,8,65,-2
7745,-9,-235,-84,8,64,-1
7750,-8,-242,-96,10,64,-2
7755,-8,-240,-97,10,63,-3
7760,-13,-238,-96,9,62,-3
7765,-14,-239,-96,8,62,-4
7770,-12,-238,-98,7,65,-5
7775,-11,-246,-88,7,66,-5
7780,-21,-241,-102,7,67,-3
7785,-13,-238,-98,7,68,-4
7790,-13,-243,-102,7,68,-4
7795,-12,-238,-102,7,71,-4
7800,-10,-232,-94,8,73,-3
7805,-11,-238,-99,8,73,-5
7810,-14,-236,-96,7,73,-3
7815,-11,-239,-99,6,73,-3
7820,-13,-235,-91,7,73,-3
7825,-14,-239,-94,6,74,-5
7830,-10,-243,-90,5,75,-3
7835,-14,-236,-97,4,76,-2
7840,-15,-239,-97,3,73,-3
7845,-8,-238,-95,3,73,-3
7850,-11,-240,-99,1,74,-2
7855,-16,-242,-91,1,75,-4
7860,-7,-240,-81,0,75,-4
7865,-6,-242,-103,0,74,-5
7870,-24,-235,-93,0,75,-4
7875,-31,-239,-89,0,75,-5
7880,-16,-240,-97,0,73,-3
7885,-9,-234,-102,1,73,-3
7890,-11,-242,-104,1,73,-4
7895,-7,-240,-87,2,72,-3
7900,-12,-237,-99,2,73,-3
7905,-13,-242,-92,0,70,-3
7910,-13,-238,-95,0,70,-2
7915,-12,-239,-98,1,70,-2
7920,-15,-236,-98,0,71,-3
7925,-13,-237,-99,1,71,-3
7930,-9,-237,-84,2,71,-2
7935,-11,-240,-96,2,71,-3
7940,-14,-235,-97,1,71,-3
7945,-7,-239,-89,0,71,-3
7950,-11,-240,-95,0,72,-1
7955,-17,-241,-97,0,74,-3
7960,-17,-243,-94,0,74,-2
7965,-16,-236,-96,1,74,-2
7970,-14,-241,-96,1,75,-3
7975,-22,-242,-97,1,75,-4
7980,-11,-241,-97,1,74,-3
7985,-13,-241,-96,-1,73,-6
7990,-14,-242,-95,-1,71,-7
7995,-15,-241,-95,-3,70,-10
8000,-7,-239,-89,-5,70,-13
8005,-17,-239,-90,-7,69,-15
8010,-11,-240,-96,-7,70,-15
8015,-23,-245,-100,-9,69,-15
8020,-6,-237,-90,-10,70,-15
8025,-10,-237,-94,-9,70,-14
8030,-17,-241,-88,-8,70,-14
8035,-20,-240,-93,-8,70,-14
8040,-9,-236,-94,-5,71,-14
8045,-3,-233,-91,-6,71,-12
8050,-7,-240,-79,-5,72,-12
8055,-22,-244,-83,-4,72,-14
8060,-11,-238,-100,-2,70,-14
8065,-13,-240,-92,-2,69,-13
8070,-10,-237,-97,0,68,-12
8075,-11,-239,-97,3,64,-11
8080,-8,-237,-92,4,63,-9
8085,-11,-237,-99,5,63,-10
8090,-14,-237,-95,3,63,-9
8095,-8,-241,-96,0,62,-10
8100,-14,-237,-96,0,63,-12
8105,-12,-241,-101,-1,62,-12
8110,-17,-228,-84,-2,63,-11
8115,-6,-241,-99,-1,63,-11
8120,-11,-236,-94,-1,62,-11
8125,-25,-240,-96,-1,63,-13
8130,-19,-230,-92,-2,61,-14
8135,-13,-243,-92,-4,60,-18
8140,-15,-237,-90,-7,59,-21
8145,-15,-239,-93,-10,60,-22
8150,-14,-238,-89,-11,60,-23
8155,-22,-241,-90,-16,62,-21
8160,-2,-228,-100,-21,62,-21
8165,-7,-236,-101,-22,64,-18
8170,-7,-238,-103,-25,66,-17
8175,-9,-241,-92,-26,67,-17
8180,-4,-244,-99,-23,69,-16
8185,-10,-239,-92,-23,69,-17
8190,-9,-241,-89,-21,72,-18
8195,-7,-241,-94,-20,73,-20
8200,-7,-241,-93,-20,74,-24
8205,-9,-239,-93,-21,76,-25
8210,-6,-238,-96,-23,77,-26
8215,-10,-237,-94,-25,76,-24
8220,-13,-238,-93,-28,75,-25
8225,-11,-237,-95,-33,73,-20
8230,-14,-237,-94,-43,72,-15
8235,-17,-234,-91,-56,70,-10
8240,-16,-237,-89,-70,66,-5
8245,-15,-233,-89,-84,63,1
8250,-17,-226,-101,-98,62,7
8255,-13,-233,-87,-109,59,12
8260,-14,-233,-85,-118,57,17
8265,-14,-237,-86,-127,51,20
8270,-12,-238,-88,-135,46,22
8275,-4,-224,-89,-143,40,23
8280,-11,-234,-87,-153,36,25
8285,-8,-236,-90,-166,34,25
8290,-8,-229,-88,-177,36,24
8295,-6,-232,-92,-193,36,23
8300,-4,-233,-85,-209,39,21
8305,-4,-234,-91,-223,41,19
8310,-7,-234,-90,-237,43,16
8315,-6,-232,-94,-248,45,15
8320,-8,-231,-94,-258,45,15
8325,-9,-232,-93,-264,44,16
8330,-9,-235,-99,-267,42,15
8335,-9,-233,-97,-269,41,18
8340,-10,-232,-97,-268,39,22
8345,-14,-231,-98,-266,36,25
8350,-14,-233,-100,-266,34,29
8355,-12,-235,-98,-268,29,34
8360,-15,-234,-99,-274,26,37
8365,-15,-231,-96,-281,23,38
8370,-12,-232,-100,-290,20,41
8375,-14,-231,-98,-301,19,39
8380,-15,-232,-100,-311,18,40
8385,-10,-231,-97,-322,19,40
8390,-10,-231,-95,-332,19,39
8395,-13,-232,-96,-342,22,40
8400,-14,-234,-98,-351,23,41
8405,-12,-235,-100,-361,26,41
8410,-13,-230,-99,-370,28,41
8415,-13,-234,-94,-379,30,41
8420,-12,-233,-95,-389,30,42
8425,-13,-234,-98,-399,29,47
8430,-14,-230,-97,-407,27,50
8435,-13,-232,-97,-417,26,54
8440,-13,-228,-99,-427,23,57
8445,-15,-231,-98,-435,24,60
8450,-14,-231,-100,-445,23,61
8455,-13,-230,-100,-458,22,61
8460,-17,-230,-102,-470,19,63
8465,-12,-231,-104,-483,19,65
8470,-13,-227,-103,-495,20,65
8475,-10,-228,-101,-510,20,66
8480,-15,-226,-107,-521,21,66
8485,-13,-225,-103,-532,22,67
8490,-13,-224,-109,-542,24,69
8495,-15,-224,-105,-552,28,71
8500,-10,-228,-109,-564,31,72
8505,-10,-227,-106,-580,32,71
8510,-12,-228,-106,-600,35,70
8515,-13,-227,-109,-623,37,69
8520,-13,-226,-109,-645,41,67
8525,-12,-226,-111,-666,45,65
8530,-13,-229,-111,-685,51,61
8535,-15,-227,-111,-701,56,60
8540,-15,-230,-113,-711,61,57
8545,-17,-227,-114,-719,67,53
8550,-17,-228,-116,-722,72,52
8555,-22,-224,-117,-722,78,51
8560,-20,-224,-123,-719,84,51
8565,-21,-222,-125,-716,89,52
8570,-19,-223,-126,-718,94,55
8575,-22,-218,-134,-723,97,56
8580,-23,-222,-136,-731,95,55
8585,-20,-222,-136,-744,94,52
8590,-25,-217,-136,-759,91,50
8595,-25,-220,-136,-772,90,49
8600,-22,-219,-138,-784,91,48
8605,-23,-219,-141,-797,91,49
8610,-24,-222,-142,-814,90,52
8615,-24,-221,-144,-836,90,54
8620,-25,-222,-144,-859,88,58
8625,-25,-218,-141,-882,82,64
8630,-25,-220,-146,-903,76,71
8635,-22,-221,-147,-922,72,79
8640,-26,-218,-145,-940,68,87
8645,-24,-225,-143,-954,66,96
8650,-19,-231,-146,-964,64,99
8655,-19,-231,-147,-965,65,100
8660,-17,-233,-148,-961,70,97
8665,-17,-237,-153,-949,75,92
8670,-13,-239,-155,-935,81,85
8675,-12,-238,-161,-918,91,79
8680,-11,-238,-162,-902,104,78
8685,-11,-240,-164,-886,120,78
8690,-9,-234,-170,-873,134,80
8695,-9,-235,-177,-859,150,81
8700,-7,-235,-179,-845,163,84
8705,-9,-235,-180,-831,174,84
8710,-13,-235,-181,-820,183,84
8715,-15,-241,-180,-812,187,84
8720,-18,-239,-181,-810,186,82
8725,-22,-241,-183,-809,183,79
8730,-25,-240,-184,-812,178,76
8735,-26,-241,-185,-809,174,75
8740,-27,-241,-191,-800,172,74
8745,-27,-240,-189,-780,176,76
8750,-28,-241,-191,-753,182,78
8755,-28,-239,-190,-728,188,78
8760,-26,-242,-188,-698,195,73
8765,-24,-239,-188,-664,200,67
8770,-25,-239,-188,-633,203,58
8775,-22,-237,-187,-604,206,50
8780,-20,-235,-186,-575,209,44
8785,-16,-228,-190,-546,210,39
8790,-20,-228,-197,-520,210,37
8795,-14,-220,-191,-495,208,35
8800,-13,-211,-192,-474,205,34
8805,-11,-214,-193,-449,201,34
8810,-16,-209,-187,-423,194,36
8815,-12,-212,-191,-404,186,38
8820,-13,-207,-191,-393,176,37
8825,-11,-208,-191,-393,168,35
8830,-13,-211,-193,-392,159,36
8835,-13,-212,-193,-390,150,35
8840,-19,-205,-195,-386,145,36
8845,-17,-207,-193,-378,138,35
8850,-17,-210,-195,-367,135,36
8855,-19,-206,-194,-351,135,34
8860,-21,-206,-195,-333,139,31
8865,-22,-209,-190,-310,141,30
8870,-24,-204,-192,-281,146,28
8875,-19,-207,-197,-248,150,26
8880,-25,-207,-195,-211,152,22
8885,-24,-205,-192,-173,152,19
8890,-25,-211,-193,-130,151,15
8895,-24,-206,-192,-90,146,11
8900,-26,-207,-188,-48,138,7
8905,-22,-205,-192,-8,131,2
8910,-27,-201,-191,29,120,-6
8915,-24,-200,-191,64,108,-12
8920,-21,-199,-194,92,101,-17
8925,-22,-196,-191,110,94,-24
8930,-20,-193,-195,119,86,-28
8935,-20,-190,-195,120,79,-29
8940,-19,-189,-194,111,76,-27
8945,-20,-191,-195,95,73,-24
8950,-20,-189,-191,78,77,-18
8955,-19,-192,-189,63,84,-9
8960,-20,-193,-188,48,91,-3
8965,-20,-193,-184,40,96,4
8970,-19,-195,-177,38,101,8
8975,-20,-199,-178,41,108,12
8980,-21,-198,-173,53,113,17
8985,-19,-197,-175,69,118,21
8990,-22,-197,-175,86,124,23
8995,-20,-197,-173,108,132,27
9000,-16,-201,-169,128,137,27
9005,-17,-200,-172,148,143,27
9010,-17,-198,-170,165,145,27
9015,-17,-194,-171,179,148,27
9020,-17,-198,-169,187,149,27
9025,-18,-197,-172,193,150,24
9030,-18,-194,-172,194,149,22
9035,-17,-198,-173,196,148,20
9040,-15,-199,-173,195,145,17
9045,-16,-197,-179,194,144,18
9050,-15,-198,-177,196,144,17
9055,-17,-200,-186,198,146,15
9060,-16,-199,-186,201,152,15
9065,-13,-198,-186,206,161,15
9070,-12,-197,-189,215,171,18
9075,-12,-195,-185,226,181,21
9080,-12,-198,-186,239,190,26
9085,-14,-195,-189,252,196,30
9090,-13,-196,-183,269,202,33
9095,-13,-194,-188,286,204,36
9100,-15,-194,-183,303,206,37
9105,-14,-196,-178,319,209,39
9110,-13,-193,-182,334,208,39
9115,-14,-194,-177,352,207,42
9120,-12,-191,-174,369,203,44
9125,-17,-194,-175,384,200,46
9130,-17,-190,-175,397,195,49
9135,-18,-189,-172,407,187,49
9140,-19,-188,-170,415,181,51
9145,-18,-185,-170,423,172,50
9150,-20,-185,-173,427,163,53
9155,-17,-183,-166,433,152,55
9160,-22,-183,-164,440,138,55
9165,-23,-180,-167,447,124,57
9170,-22,-179,-164,456,109,58
9175,-20,-181,-159,466,97,58
9180,-20,-180,-161,474,82,59
9185,-17,-179,-159,485,67,59
9190,-22,-176,-159,493,54,61
9195,-18,-178,-156,500,45,60
9200,-19,-177,-155,503,38,60
9205,-17,-177,-154,504,33,60
9210,-12,-176,-154,504,31,61
9215,-15,-174,-153,505,34,56
9220,-15,-173,-154,503,37,54
9225,-11,-175,-154,499,41,51
9230,-13,-174,-156,498,47,48
9235,-10,-176,-156,498,53,45
9240,-8,-174,-149,498,58,40
9245,-8,-177,-155,499,63,36
9250,-8,-176,-151,499,70,34
9255,-7,-176,-150,501,75,31
9260,-10,-175,-149,503,79,28
9265,-6,-174,-154,504,82,28
9270,-6,-175,-156,502,82,29
9275,-8,-173,-156,499,85,28
9280,-9,-175,-154,495,85,25
9285,-10,-174,-152,491,85,24
9290,-11,-175,-151,487,83,24
9295,-10,-179,-148,481,81,24
9300,-12,-181,-148,475,77,22
9305,-13,-179,-149,470,74,20
9310,-11,-181,-149,463,71,19
9315,-13,-180,-149,458,68,17
9320,-15,-181,-151,452,69,17
9325,-16,-180,-149,449,68,17
9330,-15,-184,-151,447,70,15
9335,-15,-183,-156,445,72,14
9340,-14,-185,-148,442,75,11
9345,-13,-185,-149,438,78,10
9350,-11,-186,-153,434,85,8
9355,-13,-185,-150,426,93,8
9360,-15,-186,-149,421,102,7
9365,-11,-188,-147,413,110,7
9370,-12,-189,-148,408,119,7
9375,-14,-186,-148,402,129,7
9380,-10,-190,-148,397,137,8
9385,-11,-193,-148,392,144,7
9390,-10,-191,-141,389,151,7
9395,-12,-191,-145,388,155,6
9400,-8,-195,-143,387,158,7
9405,-10,-191,-145,387,159,9
9410,-9,-192,-142,386,160,9
9415,-13,-191,-142,384,157,8
9420,-14,-192,-143,381,155,8
9425,-9,-195,-142,378,149,9
9430,-12,-192,-142,372,141,10
9435,-13,-194,-141,368,133,12
9440,-14,-194,-140,365,125,11
9445,-13,-196,-142,359,114,14
9450,-13,-198,-142,353,103,13
9455,-17,-198,-140,347,93,12
9460,-15,-200,-138,342,82,13
9465,-18,-199,-140,339,73,12
9470,-17,-204,-143,336,62,14
9475,-18,-204,-139,335,55,15
9480,-19,-204,-138,333,48,17
9485,-17,-206,-141,334,43,18
9490,-19,-205,-139,332,43,18
9495,-19,-211,-139,331,40,17
9500,-19,-208,-136,332,40,17
9505,-21,-212,-136,332,41,17
9510,-19,-212,-136,331,43,16
9515,-18,-211,-138,328,47,15
9520,-19,-209,-138,325,51,15
9525,-16,-210,-133,321,56,14
9530,-17,-211,-132,316,61,11
9535,-13,-210,-131,311,63,10
9540,-13,-210,-133,308,67,9
9545,-13,-209,-131,303,68,9
9550,-17,-206,-128,297,71,8
9555,-10,-208,-127,291,73,5
9560,-11,-207,-128,287,77,4
9565,-15,-206,-126,282,79,2
9570,-16,-205,-129,276,82,0
9575,-10,-204,-130,274,83,-1
9580,-15,-205,-130,269,84,-3
9585,-12,-204,-128,262,83,-4
9590,-12,-204,-125,256,85,-4
9595,-14,-205,-126,250,84,-4
9600,-11,-206,-126,243,85,-5
9605,-17,-202,-126,234,83,-3
9610,-12,-205,-126,223,82,-4
9615,-14,-207,-126,214,82,-5
9620,-11,-209,-124,203,81,-5
9625,-15,-210,-122,193,79,-5
9630,-12,-212,-121,182,75,-6
9635,-13,-215,-123,173,73,-3
9640,-15,-212,-120,165,71,-2
9645,-18,-212,-122,161,68,0
9650,-18,-213,-122,157,65,0
9655,-17,-217,-121,154,64,2
9660,-16,-216,-122,150,60,2
9665,-23,-223,-121,149,57,4
9670,-19,-215,-125,145,53,4
9675,-18,-221,-121,144,49,6
9680,-19,-221,-124,142,46,8
9685,-16,-217,-124,142,44,9
9690,-19,-222,-122,142,45,9
9695,-17,-219,-125,141,46,11
9700,-16,-222,-121,138,45,12
9705,-15,-223,-121,135,47,11
9710,-12,-224,-122,133,49,11
9715,-18,-226,-118,130,52,12
9720,-14,-225,-119,128,54,12
9725,-12,-228,-117,126,57,10
9730,-16,-225,-120,126,62,9
9735,-13,-228,-118,127,65,10
9740,-15,-226,-115,130,69,11
9745,-11,-228,-118,132,73,9
9750,-11,-228,-117,134,79,6
9755,-11,-227,-119,136,82,6
9760,-12,-227,-115,138,87,3
9765,-11,-226,-116,138,93,5
9770,-11,-222,-116,138,97,2
9775,-7,-223,-117,137,101,2
9780,-7,-227,-118,133,105,1
9785,-11,-226,-116,131,108,0
9790,-13,-226,-114,128,109,0
9795,-15,-223,-117,126,109,0
9800,-11,-226,-116,122,111,-2
9805,-9,-227,-111,116,110,-2
9810,-12,-226,-116,110,111,-2
9815,-10,-227,-117,105,111,-5
9820,-11,-231,-117,103,111,-6
9825,-13,-228,-119,101,112,-6
9830,-12,-229,-116,102,110,-9
9835,-14,-225,-117,102,110,-8
9840,-12,-228,-118,102,111,-8
9845,-11,-228,-118,103,113,-6
9850,-12,-230,-116,103,117,-6
9855,-10,-228,-120,102,119,-4
9860,-12,-229,-116,102,120,-1
9865,-12,-230,-116,100,121,0
9870,-13,-228,-114,96,122,1
9875,-13,-230,-116,92,121,3
9880,-13,-233,-116,91,120,4
9885,-14,-228,-115,91,119,5
9890,-12,-232,-114,92,117,7
9895,-16,-230,-112,94,116,8
9900,-14,-232,-112,99,114,9
9905,-14,-232,-113,103,114,10
9910,-14,-228,-112,108,113,10
9915,-14,-230,-113,112,115,9
9920,-14,-231,-112,116,113,10
9925,-14,-231,-109,115,112,11
9930,-13,-228,-113,114,114,12
9935,-13,-226,-111,112,114,13
9940,-12,-228,-111,107,115,13
9945,-13,-225,-109,101,116,14
9950,-10,-230,-109,92,115,15
9955,-16,-227,-113,85,114,17
9960,-13,-231,-112,78,112,17
9965,-14,-229,-113,74,111,18
9970,-13,-229,-107,69,109,20
9975,-16,-230,-111,67,108,20
9980,-17,-229,-115,63,107,20
9985,-15,-232,-112,60,108,20
9990,-18,-232,-113,57,109,20
9995,-12,-229,-111,54,112,20
10000,-15,-232,-112,48,113,20
10005,-15,-232,-111,45,114,21
10010,-17,-229,-113,43,116,22
10015,-14,-233,-114,40,116,20
10020,-16,-234,-110,38,116,21
10025,-15,-232,-108,37,116,21
10030,-15,-234,-107,37,114,21
10035,-18,-231,-109,38,113,19
10040,-12,-230,-118,38,112,19
10045,-14,-236,-109,40,112,20
10050,-13,-231,-110,40,114,17
10055,-15,-232,-106,42,110,18
10060,-17,-233,-109,43,109,18
10065,-14,-235,-113,43,110,19
10070,-16,-234,-105,41,112,17
10075,-15,-233,-108,40,113,17
10080,-19,-235,-107,38,114,17
10085,-15,-232,-108,36,116,17
10090,-14,-235,-106,35,116,15
10095,-15,-232,-110,35,117,14
10100,-17,-227,-105,37,120,13
10105,-17,-233,-108,38,121,15
10110,-16,-234,-108,40,122,13
10115,-15,-234,-105,41,123,14
10120,-17,-234,-108,41,124,13
10125,-15,-233,-108,41,124,13
10130,-15,-234,-108,40,126,14
10135,-14,-234,-109,37,127,15
10140,-14,-235,-105,34,128,16
10145,-14,-232,-103,32,127,15
10150,-18,-234,-102,29,129,15
10155,-15,-234,-109,26,130,14
10160,-12,-235,-107,24,129,15
10165,-17,-233,-103,23,129,15
10170,-18,-234,-107,21,128,13
10175,-16,-231,-110,21,123,14
10180,-16,-235,-107,19,120,13
10185,-16,-234,-108,18,118,13
10190,-18,-233,-107,16,117,13
10195,-16,-236,-105,14,114,12
10200,-21,-233,-107,13,113,12
10205,-18,-236,-107,14,108,11
10210,-15,-237,-108,14,105,13
10215,-18,-239,-111,16,101,11
10220,-18,-236,-106,17,98,12
10225,-18,-235,-108,18,97,11
10230,-17,-237,-109,20,96,11
10235,-19,-232,-107,23,95,12
10240,-19,-232,-106,25,94,12
10245,-18,-236,-103,26,94,12
10250,-17,-235,-104,27,94,11
10255,-16,-233,-104,28,95,9
10260,-21,-237,-99,29,95,10
10265,-13,-236,-108,28,94,10
10270,-14,-235,-105,28,95,10
10275,-14,-237,-106,27,93,10
10280,-17,-236,-107,26,93,9
10285,-14,-234,-103,26,93,9
10290,-16,-236,-103,25,93,8
10295,-15,-236,-108,26,94,8
10300,-15,-236,-108,26,94,8
10305,-15,-237,-99,28,93,7
10310,-18,-235,-108,28,92,8
10315,-23,-239,-104,28,91,9
10320,-17,-231,-105,27,91,8
10325,-13,-236,-105,27,89,9
10330,-15,-234,-106,27,90,8
10335,-15,-235,-107,26,89,8
10340,-17,-233,-109,24,89,8
10345,-15,-236,-103,24,89,8
10350,-16,-236,-107,20,87,7
10355,-14,-233,-105,18,87,7
10360,-14,-236,-106,17,86,8
10365,-17,-237,-101,16,84,7
10370,-17,-238,-105,16,83,8
10375,-16,-236,-104,16,82,7
10380,-18,-238,-106,18,80,6
10385,-15,-235,-107,21,80,6
10390,-14,-238,-107,24,79,6
10395,-17,-236,-107,26,79,5
10400,-16,-234,-105,28,80,6
10405,-16,-234,-106,30,79,5
10410,-16,-233,-107,30,80,5
10415,-15,-234,-104,30,80,4
10420,-13,-235,-105,27,81,4
10425,-20,-231,-97,25,80,3
10430,-19,-230,-108,23,81,2
10435,-16,-232,-106,19,81,3
10440,-18,-235,-102,16,81,3
10445,-15,-234,-104,13,82,2
10450,-15,-234,-107,10,82,0
10455,-17,-232,-101,9,82,0
10460,-18,-233,-105,7,82,0
10465,-14,-236,-106,7,82,0
10470,-12,-235,-105,3,81,0
10475,-12,-235,-102,0,79,1
10480,-15,-235,-101,-3,78,1
10485,-19,-234,-108,-5,78,0
10490,-16,-233,-106,-6,78,1
10495,-17,-234,-104,-9,77,1
10500,-14,-239,-104,-10,77,3
10505,-15,-236,-105,-14,77,3
10510,-15,-240,-102,-16,78,3
10515,-15,-238,-105,-16,79,2
10520,-19,-236,-104,-17,78,2
10525,-15,-237,-106,-15,79,1
10530,-16,-237,-104,-12,79,0
10535,-12,-234,-112,-9,79,0
10540,-17,-238,-107,-8,80,0
10545,-15,-237,-101,-6,81,-2
10550,-18,-235,-102,-3,81,-3
10555,-14,-235,-105,-2,79,-3
10560,-18,-236,-102,-3,79,-3
10565,-15,-236,-102,-3,80,-3
10570,-14,-236,-100,-4,81,-2
10575,-14,-236,-103,-6,80,-1
10580,-15,-235,-102,-5,78,0
10585,-15,-235,-105,-6,79,-1
10590,-15,-234,-102,-6,80,-1
10595,-15,-236,-101,-8,78,-1
10600,-16,-233,-104,-6,77,0
10605,-13,-237,-103,-6,74,-1
10610,-17,-233,-105,-5,71,-2
10615,-17,-238,-103,-4,70,-1
10620,-12,-239,-104,-1,69,-2
10625,-12,-238,-107,0,71,-3
10630,-14,-237,-101,4,70,-2
10635,-15,-239,-104,6,72,0
10640,-16,-235,-105,7,70,1
10645,-14,-243,-104,10,70,1
10650,-15,-241,-99,11,70,1
10655,-17,-237,-99,12,69,0
10660,-17,-240,-102,11,69,-1
10665,-18,-234,-102,13,67,0
10670,-20,-237,-102,12,67,1
10675,-16,-239,-103,12,67,0
10680,-15,-236,-103,12,68,-1
10685,-15,-239,-102,12,65,0
10690,-17,-234,-100,13,64,0
10695,-17,-237,-101,13,63,-1
10700,-18,-237,-101,14,62,-2
10705,-17,-238,-103,17,62,-2
10710,-19,-235,-104,19,59,-2
10715,-17,-236,-103,21,58,-1
10720,-11,-237,-100,23,58,-3
10725,-15,-237,-103,24,57,-2
10730,-14,-235,-101,25,57,-4
10735,-19,-232,-102,25,59,-5
10740,-15,-236,-103,26,59,-6
10745,-14,-237,-105,26,59,-7
10750,-18,-234,-105,25,60,-9
10755,-9,-225,-108,25,62,-8
10760,-15,-234,-103,23,62,-9
10765,-14,-238,-104,22,61,-9
10770,-17,-232,-97,19,61,-11
10775,-14,-230,-102,17,61,-11
10780,-16,-235,-103,13,62,-12
10785,-18,-235,-105,11,63,-13
10790,-14,-237,-105,7,64,-13
10795,-16,-233,-103,4,66,-14
10800,-16,-234,-107,1,67,-15
10805,-14,-236,-105,-3,66,-15
10810,-16,-233,-106,-5,65,-16
10815,-14,-234,-102,-7,65,-16
10820,-15,-237,-100,-9,65,-14
10825,-16,-236,-107,-10,65,-14
10830,-15,-235,-102,-11,64,-15
10835,-15,-236,-102,-12,63,-14
10840,-17,-232,-105,-14,62,-13
10845,-15,-236,-104,-13,61,-15
10850,-17,-236,-100,-14,61,-14
10855,-16,-236,-104,-12,60,-15
10860,-13,-240,-100,-15,58,-14
10865,-16,-236,-102,-17,57,-15
10870,-16,-234,-101,-19,56,-16
10875,-14,-235,-102,-18,55,-16
10880,-16,-237,-104,-21,56,-15
10885,-20,-234,-103,-20,55,-16
10890,-17,-232,-104,-21,56,-19
10895,-16,-236,-99,-19,56,-16
10900,-14,-237,-103,-19,56,-16
10905,-13,-236,-100,-19,56,-14
10910,-14,-236,-102,-20,57,-15
10915,-16,-236,-100,-20,58,-14
10920,-14,-238,-101,-21,61,-14
10925,-14,-239,-102,-22,62,-13
10930,-15,-235,-103,-22,62,-10
10935,-13,-238,-104,-22,62,-10
10940,-15,-238,-100,-21,64,-10
10945,-11,-241,-101,-19,64,-9
10950,-14,-237,-102,-18,65,-8
10955,-16,-239,-103,-17,65,-8
10960,-13,-238,-103,-16,65,-7
10965,-15,-237,-102,-15,67,-7
10970,-12,-241,-100,-15,69,-8
10975,-12,-237,-102,-15,69,-7
10980,-16,-238,-104,-16,68,-8
10985,-15,-236,-102,-15,66,-8
10990,-17,-235,-101,-16,67,-7
10995,-16,-236,-104,-16,68,-8
11000,-14,-241,-101,-18,66,-9
11005,-16,-237,-99,-16,64,-10
11010,-16,-237,-100,-15,62,-8
11015,-14,-238,-101,-15,60,-7
11020,-13,-241,-98,-12,60,-7
11025,-15,-238,-102,-11,58,-7
11030,-13,-240,-98,-7,57,-8
11035,-13,-236,-100,-4,56,-7
11040,-13,-236,-99,0,56,-9
11045,-12,-239,-99,2,56,-7
11050,-13,-237,-103,6,54,-6
11055,-13,-237,-103,9,54,-6
11060,-17,-237,-101,12,54,-5
11065,-15,-239,-104,17,53,-5
11070,-13,-240,-103,20,52,-5
11075,-15,-238,-105,21,52,-4
11080,-11,-242,-98,23,53,-4
11085,-15,-238,-100,26,54,-5
11090,-15,-237,-102,27,57,-5
11095,-14,-237,-102,28,58,-5
11100,-13,-237,-105,31,60,-4
11105,-12,-238,-103,33,62,-5
11110,-14,-240,-99,37,64,-4
11115,-14,-238,-98,38,66,-3
11120,-14,-240,-101,40,68,-2
11125,-15,-237,-101,40,69,-2
11130,-16,-236,-102,42,69,-3
11135,-15,-237,-103,41,70,-3
11140,-17,-238,-102,38,72,-2
11145,-13,-238,-100,35,71,-2
11150,-14,-235,-98,35,73,-1
11155,-14,-235,-104,29,73,-1
11160,-14,-238,-103,18,73,0
11165,-14,-236,-100,8,72,-1
11170,-14,-237,-99,-2,73,-2
11175,-11,-237,-98,-10,72,0
11180,-14,-238,-100,-19,70,-1
11185,-14,-238,-95,-24,68,0
11190,-11,-235,-102,-25,67,2
11195,-14,-239,-96,-24,62,3
11200,-15,-238,-96,-21,59,5
11205,-14,-236,-100,-15,56,9
11210,-13,-236,-101,-7,54,10
11215,-13,-238,-105,-2,50,11
11220,-14,-237,-102,3,48,13
11225,-14,-233,-104,7,47,15
11230,-12,-238,-100,11,47,17
11235,-15,-236,-100,12,49,17
11240,-9,-234,-101,10,50,17
11245,-14,-238,-103,4,51,17
11250,-13,-234,-106,-3,54,15
11255,-13,-236,-102,-12,55,14
11260,-14,-238,-106,-22,58,14
11265,-12,-238,-102,-28,60,12
11270,-14,-238,-100,-34,62,11
11275,-15,-240,-100,-37,63,11
11280,-16,-239,-104,-37,64,11
11285,-19,-239,-102,-38,66,11
11290,-16,-238,-98,-37,68,12
11295,-11,-239,-99,-34,72,11
11300,-18,-238,-101,-33,77,11
11305,-14,-239,-101,-31,80,10
11310,-19,-238,-101,-30,83,8
11315,-15,-236,-100,-31,85,7
11320,-15,-235,-101,-30,90,5
11325,-17,-234,-100,-30,92,5
11330,-16,-235,-101,-31,91,4
11335,-16,-235,-106,-34,90,4
11340,-14,-235,-100,-39,87,5
11345,-18,-233,-107,-43,82,4
11350,-16,-236,-100,-48,78,5
11355,-17,-235,-101,-53,73,6
11360,-17,-238,-102,-55,69,6
11365,-16,-235,-100,-56,66,9
11370,-14,-236,-103,-56,65,8
11375,-16,-239,-102,-56,62,8
11380,-17,-236,-100,-55,61,9
11385,-13,-239,-104,-51,60,8
11390,-15,-241,-103,-48,59,9
11395,-15,-239,-100,-45,59,10
11400,-16,-242,-105,-42,59,10
11405,-17,-238,-103,-39,59,9
11410,-16,-241,-101,-34,59,10
11415,-18,-238,-100,-30,59,9
11420,-16,-241,-97,-26,57,10
11425,-19,-238,-103,-22,57,10
11430,-17,-239,-103,-19,56,11
11435,-15,-239,-100,-18,56,12
11440,-20,-236,-96,-19,57,10
11445,-16,-239,-98,-19,58,10
11450,-19,-236,-102,-19,59,10
11455,-19,-235,-97,-21,62,11
11460,-15,-234,-100,-24,63,9
11465,-18,-232,-100,-29,63,8
11470,-17,-236,-102,-34,66,8
11475,-17,-236,-99,-38,68,7
11480,-13,-235,-106,-42,70,8
11485,-17,-234,-103,-45,70,8
11490,-15,-234,-102,-46,72,8
11495,-14,-234,-102,-47,71,8
11500,-14,-232,-99,-47,71,7
11505,-17,-233,-103,-46,70,7
11510,-16,-235,-103,-44,69,5
11515,-14,-239,-103,-41,68,5
11520,-14,-235,-100,-40,66,2
11525,-16,-235,-103,-41,63,2
11530,-16,-236,-101,-41,62,3
11535,-17,-240,-103,-41,61,1
11540,-19,-238,-101,-40,59,1
11545,-17,-238,-104,-39,57,0
11550,-17,-239,-104,-36,57,-1
11555,-19,-237,-104,-36,57,-2
11560,-16,-239,-103,-32,57,-2
11565,-17,-236,-102,-30,58,-2
11570,-17,-238,-102,-28,59,-2
11575,-17,-234,-100,-26,60,-3
11580,-19,-234,-97,-25,63,-4
11585,-19,-238,-101,-24,63,-3
11590,-19,-235,-99,-24,64,-3
11595,-15,-235,-102,-23,63,-3
11600,-19,-235,-103,-23,65,-2
11605,-17,-236,-100,-23,63,-3
11610,-15,-235,-101,-22,64,-2
11615,-17,-235,-104,-22,63,-2
11620,-19,-235,-102,-22,62,-4
11625,-20,-234,-107,-23,62,-4
11630,-18,-233,-101,-23,60,-6
11635,-18,-235,-100,-25,59,-7
11640,-19,-235,-106,-26,59,-6
11645,-15,-237,-106,-27,58,-7
11650,-15,-236,-105,-27,57,-7
11655,-18,-235,-105,-28,55,-7
11660,-13,-236,-110,-30,55,-7
11665,-15,-236,-104,-30,52,-7
11670,-15,-237,-107,-29,49,-6
11675,-16,-238,-100,-29,48,-7
11680,-17,-236,-105,-30,48,-7
11685,-20,-236,-106,-28,48,-7
11690,-18,-237,-104,-27,47,-6
11695,-13,-239,-104,-26,46,-6
11700,-15,-238,-106,-26,46,-7
11705,-17,-238,-102,-24,49,-7
11710,-19,-236,-103,-23,50,-7
11715,-16,-239,-103,-24,48,-6
11720,-16,-235,-103,-22,50,-6
11725,-17,-235,-107,-23,52,-6
11730,-18,-238,-104,-23,54,-8
11735,-15,-233,-104,-22,56,-7
11740,-18,-236,-101,-21,56,-6
11745,-18,-234,-100,-21,59,-7
11750,-14,-237,-101,-21,59,-6
11755,-17,-235,-103,-20,59,-7
11760,-18,-236,-101,-21,58,-7
11765,-17,-237,-105,-20,59,-8
11770,-17,-236,-101,-20,58,-8
11775,-15,-238,-102,-22,59,-9
11780,-16,-237,-104,-23,56,-8
11785,-15,-236,-104,-24,57,-8
11790,-17,-238,-103,-24,56,-9
11795,-17,-233,-104,-26,54,-9
11800,-19,-237,-105,-26,54,-10
11805,-20,-236,-101,-27,54,-12
11810,-16,-235,-102,-30,55,-13
11815,-15,-236,-103,-28,53,-13
11820,-19,-235,-103,-28,53,-13
11825,-17,-238,-100,-27,53,-14
11830,-18,-237,-106,-28,53,-14
11835,-18,-236,-104,-27,53,-16
11840,-15,-232,-101,-27,53,-16
11845,-18,-238,-105,-26,54,-15
11850,-18,-236,-104,-26,52,-15
11855,-19,-235,-108,-27,52,-16
11860,-19,-235,-101,-25,52,-15
11865,-17,-236,-103,-23,51,-16
11870,-16,-236,-106,-24,51,-15
11875,-17,-236,-107,-24,51,-15
11880,-19,-238,-104,-24,50,-16
11885,-17,-237,-104,-24,49,-14
11890,-16,-236,-104,-24,48,-16
11895,-18,-234,-103,-25,49,-16
11900,-16,-235,-103,-25,47,-16
11905,-15,-237,-104,-27,47,-16
11910,-16,-235,-103,-26,46,-16
11915,-19,-236,-102,-27,45,-16
11920,-19,-235,-102,-26,46,-16
11925,-18,-237,-105,-24,46,-16
11930,-17,-236,-105,-23,47,-18
11935,-15,-235,-104,-24,47,-17
11940,-15,-235,-104,-21,50,-17
11945,-16,-236,-106,-22,51,-15
11950,-19,-238,-100,-21,50,-15
11955,-14,-235,-104,-21,52,-14
11960,-15,-236,-107,-23,54,-15
11965,-17,-235,-103,-24,55,-15
11970,-18,-232,-106,-24,56,-14
11975,-15,-235,-104,-25,56,-13
11980,-13,-233,-107,-25,55,-14
11985,-14,-237,-107,-27,56,-13
11990,-14,-233,-104,-29,58,-13
11995,-15,-234,-107,-30,57,-13
