timestamp,acc_x,acc_y,acc_z,gyro_x,gyro_y,gyro_z
0,17,-256,18,-41,9,-4
5,15,-253,12,-43,12,-4
10,18,-252,19,-41,13,-3
15,18,-256,19,-41,14,-3
20,12,-254,17,-40,13,-3
25,16,-259,19,-38,15,-3
30,15,-255,18,-39,15,-3
35,15,-254,20,-38,14,-3
40,14,-254,18,-37,12,-2
45,16,-258,19,-36,13,0
50,16,-256,18,-35,12,0
55,16,-256,19,-35,10,1
60,17,-255,17,-36,9,1
65,16,-255,17,-35,7,1
70,15,-248,30,-37,5,0
75,18,-255,18,-38,5,-1
80,14,-253,23,-39,5,1
85,16,-256,19,-40,6,0
90,15,-255,17,-41,6,0
95,17,-256,21,-38,7,1
100,16,-256,19,-38,10,0
105,17,-256,16,-38,11,-1
110,17,-254,22,-38,11,0
115,17,-257,18,-36,12,1
120,16,-255,20,-31,11,2
125,17,-255,17,-31,11,1
130,18,-254,19,-27,8,1
135,16,-255,18,-25,8,0
140,17,-255,22,-20,8,0
145,18,-255,21,-18,7,-1
150,17,-253,21,-14,8,-3
155,18,-256,18,-10,8,-3
160,15,-254,18,-11,10,-4
165,15,-254,21,-13,14,-4
170,16,-255,19,-16,15,-4
175,14,-255,20,-20,16,-5
180,16,-254,19,-26,18,-3
185,18,-255,17,-31,19,-4
190,15,-255,19,-32,19,-5
195,15,-254,21,-36,18,-4
200,15,-253,20,-36,18,-3
205,17,-253,27,-36,17,-3
210,15,-255,20,-35,16,-1
215,15,-254,18,-37,15,-1
220,14,-253,19,-35,15,-2
225,13,-249,20,-35,12,0
230,14,-253,22,-36,12,-1
235,14,-252,24,-37,13,-1
240,16,-253,15,-39,13,-1
245,15,-254,24,-39,14,-1
250,14,-252,20,-40,15,-1
255,15,-252,22,-40,15,-1
260,15,-255,19,-41,17,-3
265,16,-255,20,-40,18,-2
270,21,-254,18,-41,17,-3
275,16,-253,16,-42,18,-3
280,15,-252,22,-41,20,-4
285,15,-256,21,-41,21,-5
290,17,-255,21,-41,20,-3
295,16,-254,22,-40,18,-4
300,15,-255,23,-42,19,-5
305,16,-254,21,-42,19,-4
310,15,-255,21,-43,20,-4
315,16,-255,24,-45,20,-4
320,14,-257,16,-45,19,-4
325,14,-252,22,-45,17,-4
330,16,-255,22,-47,15,-5
335,16,-254,18,-49,16,-4
340,15,-254,18,-50,14,-2
345,12,-252,22,-49,16,-2
350,15,-253,18,-51,16,-2
355,12,-255,17,-52,16,-2
360,14,-253,21,-53,17,-3
365,17,-255,19,-54,19,-2
370,18,-258,21,-54,20,-1
375,16,-253,21,-53,21,-2
380,15,-258,21,-50,20,-1
385,15,-257,21,-50,20,-2
390,16,-255,20,-49,18,-2
395,17,-256,22,-46,20,-1
400,14,-257,20,-44,19,-2
405,16,-254,20,-43,19,-2
410,15,-256,22,-40,18,-1
415,15,-256,15,-39,17,-3
420,15,-254,16,-39,16,-3
425,15,-256,21,-39,16,-3
430,17,-256,21,-38,17,-3
435,15,-256,19,-36,18,-2
440,16,-254,22,-36,18,-3
445,12,-253,20,-36,18,-3
450,17,-256,20,-36,19,-3
455,15,-253,22,-37,20,-3
460,15,-255,21,-39,20,-3
465,18,-256,20,-39,19,-4
470,14,-251,20,-42,20,-4
475,13,-254,16,-44,19,-4
480,12,-253,20,-43,19,-5
485,14,-254,21,-45,20,-6
490,13,-255,20,-44,17,-4
495,14,-253,24,-45,18,-5
500,14,-254,17,-48,16,-2
505,14,-253,21,-49,15,-4
510,15,-255,22,-50,15,-4
515,14,-252,19,-52,16,-4
520,19,-254,21,-53,15,-5
525,17,-254,21,-52,15,-6
530,17,-255,18,-49,13,-6
535,20,-256,20,-46,12,-5
540,18,-255,18,-46,13,-5
545,14,-254,19,-43,13,-5
550,16,-254,18,-44,15,-4
555,15,-253,19,-44,15,-6
560,18,-257,13,-45,18,-6
565,16,-255,18,-46,19,-4
570,15,-253,22,-46,17,-6
575,16,-255,25,-47,17,-6
580,17,-254,21,-47,17,-6
585,14,-255,22,-47,17,-6
590,14,-254,23,-46,18,-5
595,15,-253,19,-46,18,-6
600,18,-254,25,-45,21,-5
605,17,-253,20,-46,20,-6
610,17,-255,19,-45,20,-6
615,22,-262,20,-46,22,-5
620,15,-255,20,-47,23,-6
625,17,-255,23,-48,23,-7
630,14,-257,20,-51,23,-7
635,13,-254,18,-50,23,-8
640,18,-256,20,-52,23,-6
645,16,-256,19,-52,23,-7
650,16,-254,18,-51,23,-8
655,15,-256,18,-50,23,-8
660,15,-256,23,-47,23,-6
665,16,-255,19,-44,21,-5
670,11,-255,30,-42,21,-7
675,16,-256,17,-43,20,-6
680,14,-255,21,-43,19,-6
685,19,-256,19,-44,19,-7
690,14,-255,15,-45,19,-7
695,17,-254,15,-44,21,-6
700,14,-252,20,-43,21,-7
705,16,-257,19,-41,21,-6
710,16,-254,20,-41,21,-6
715,16,-256,18,-40,21,-5
720,14,-253,20,-37,21,-5
725,13,-252,18,-37,21,-7
730,17,-255,20,-37,22,-6
735,13,-254,16,-38,23,-7
740,15,-254,20,-37,25,-6
745,15,-254,19,-38,25,-7
750,16,-255,22,-41,25,-9
755,16,-253,20,-44,25,-8
760,14,-255,21,-45,26,-8
765,16,-254,19,-44,25,-8
770,14,-255,15,-45,25,-9
775,15,-253,22,-43,26,-9
780,17,-257,21,-43,26,-7
785,14,-255,22,-42,25,-8
790,17,-255,18,-41,26,-7
795,15,-255,23,-40,26,-7
800,13,-255,16,-40,25,-7
805,16,-256,21,-40,23,-6
810,13,-253,17,-40,22,-5
815,15,-255,19,-42,21,-5
820,14,-253,22,-45,19,-5
825,15,-253,23,-45,18,-5
830,14,-254,19,-46,16,-5
835,14,-253,17,-46,15,-4
840,13,-254,20,-47,14,-4
845,13,-253,21,-47,14,-4
850,16,-255,18,-50,13,-4
855,14,-256,21,-51,15,-5
860,14,-252,20,-53,16,-5
865,14,-256,23,-54,18,-7
870,18,-254,20,-55,20,-8
875,18,-255,17,-55,18,-7
880,16,-256,21,-57,20,-7
885,13,-252,20,-58,21,-7
890,16,-255,19,-54,20,-7
895,16,-255,18,-52,20,-8
900,16,-255,19,-51,20,-9
905,16,-256,16,-50,19,-7
910,18,-255,21,-50,19,-8
915,17,-255,21,-51,19,-9
920,12,-254,20,-52,18,-7
925,16,-254,20,-52,19,-7
930,17,-256,20,-56,19,-7
935,15,-253,16,-57,19,-6
940,14,-252,19,-58,17,-5
945,15,-253,21,-60,16,-4
950,14,-253,19,-60,16,-4
955,16,-255,19,-63,14,-4
960,16,-253,19,-64,12,-4
965,16,-253,16,-63,11,-4
970,13,-253,17,-61,9,-4
975,17,-256,18,-61,8,-4
980,16,-257,19,-61,8,-3
985,17,-255,22,-60,10,-3
990,16,-256,19,-58,9,-4
995,13,-256,20,-56,9,-4
1000,14,-253,21,-54,11,-4
1005,12,-255,24,-53,11,-4
1010,16,-255,15,-51,13,-5
1015,15,-255,19,-53,13,-4
1020,17,-255,17,-54,16,-5
1025,16,-254,17,-54,17,-5
1030,13,-253,20,-54,18,-3
1035,11,-254,16,-55,18,-3
1040,19,-253,24,-57,17,-4
1045,17,-258,21,-56,17,-5
1050,16,-257,20,-54,17,-6
1055,16,-254,18,-55,16,-4
1060,15,-254,19,-52,17,-5
1065,15,-254,15,-51,15,-6
1070,14,-255,19,-50,14,-5
1075,17,-256,19,-50,15,-5
1080,16,-253,17,-51,13,-4
1085,19,-254,17,-52,12,-3
1090,17,-253,19,-52,11,-3
1095,15,-253,17,-54,10,-2
1100,14,-256,22,-55,11,-2
1105,17,-255,20,-54,10,-3
1110,19,-255,22,-54,10,-1
1115,15,-256,18,-55,11,-2
1120,18,-255,18,-56,12,0
1125,17,-255,18,-57,12,-3
1130,15,-253,14,-57,13,-3
1135,17,-255,20,-55,14,-4
1140,15,-255,17,-55,15,-5
1145,15,-255,21,-55,15,-3
1150,17,-256,16,-53,15,-4
1155,14,-255,21,-51,18,-5
1160,20,-248,24,-50,19,-5
1165,18,-258,18,-49,18,-5
1170,16,-255,17,-47,20,-5
1175,18,-257,20,-46,20,-5
1180,15,-256,20,-45,22,-5
1185,15,-255,19,-46,21,-5
1190,15,-255,15,-44,22,-6
1195,17,-256,17,-44,22,-5
1200,13,-255,20,-40,21,-3
1205,12,-253,20,-42,19,-4
1210,12,-255,21,-42,20,-6
1215,9,-256,20,-43,16,-4
1220,13,-254,16,-43,15,-4
1225,18,-253,10,-45,12,-3
1230,16,-255,16,-46,11,-3
1235,15,-254,20,-47,9,-1
1240,14,-253,20,-49,10,-2
1245,19,-252,19,-51,10,0
1250,13,-251,20,-54,10,0
1255,15,-253,16,-57,10,-2
1260,15,-255,19,-63,10,-1
1265,14,-254,19,-65,12,-1
1270,14,-255,21,-66,11,-2
1275,14,-254,20,-65,11,-3
1280,16,-255,19,-64,12,-3
1285,15,-252,16,-62,11,-2
1290,14,-254,14,-63,12,-2
1295,15,-254,18,-65,14,-2
1300,17,-254,18,-67,14,-3
1305,14,-256,16,-67,16,-3
1310,18,-255,17,-68,15,-3
1315,16,-255,20,-68,16,-5
1320,16,-254,19,-69,16,-5
1325,16,-254,19,-67,16,-5
1330,16,-257,17,-65,15,-5
1335,16,-256,18,-63,14,-5
1340,14,-256,18,-59,14,-4
1345,17,-257,18,-57,14,-5
1350,17,-256,20,-55,14,-4
1355,16,-257,15,-53,15,-7
1360,17,-256,19,-53,16,-6
1365,17,-255,13,-54,16,-7
1370,15,-257,20,-53,17,-5
1375,21,-256,17,-54,17,-6
1380,17,-256,15,-55,18,-5
1385,17,-255,17,-56,19,-6
1390,17,-254,21,-56,19,-5
1395,14,-256,17,-58,20,-6
1400,14,-255,17,-59,20,-4
1405,16,-252,18,-61,20,-6
1410,12,-255,16,-61,21,-6
1415,14,-255,14,-64,20,-5
1420,15,-254,17,-65,19,-5
1425,16,-256,19,-65,20,-6
1430,15,-254,17,-65,19,-5
1435,15,-255,17,-65,17,-5
1440,15,-256,17,-65,18,-7
1445,16,-257,19,-65,17,-6
1450,16,-255,15,-65,17,-6
1455,14,-256,15,-64,16,-5
1460,15,-256,16,-62,16,-5
1465,15,-253,16,-61,16,-6
1470,17,-254,14,-59,18,-6
1475,14,-254,19,-58,19,-7
1480,19,-255,14,-58,19,-7
1485,17,-255,16,-60,20,-6
1490,17,-256,14,-58,20,-4
1495,17,-255,18,-59,18,-5
1500,16,-254,16,-59,18,-5
1505,12,-256,21,-57,20,-6
1510,16,-255,16,-56,20,-5
1515,14,-256,20,-54,19,-6
1520,16,-255,20,-53,20,-7
1525,17,-256,17,-52,20,-6
1530,13,-254,18,-51,20,-6
1535,17,-255,19,-50,21,-7
1540,15,-255,20,-50,22,-7
1545,16,-255,17,-50,21,-4
1550,16,-256,17,-50,21,-4
1555,18,-257,18,-52,21,-3
1560,16,-256,13,-56,20,-3
1565,17,-256,18,-59,18,-1
1570,15,-256,20,-61,18,-1
1575,14,-254,12,-64,17,-2
1580,16,-256,18,-65,16,-3
1585,16,-254,19,-66,16,-1
1590,19,-256,19,-67,16,-1
1595,14,-253,18,-69,15,-2
1600,14,-254,16,-70,16,-1
1605,15,-255,20,-70,17,-2
1610,19,-254,15,-71,17,-3
1615,14,-255,16,-73,17,-4
1620,13,-255,15,-73,18,-4
1625,14,-256,15,-72,18,-3
1630,15,-258,16,-69,19,-3
1635,17,-256,15,-67,19,-3
1640,15,-257,13,-63,19,-5
1645,16,-256,15,-60,20,-5
1650,17,-258,15,-57,20,-7
1655,16,-256,20,-51,21,-7
1660,15,-255,20,-49,21,-5
1665,17,-256,16,-48,23,-6
1670,16,-256,18,-46,21,-6
1675,17,-253,16,-48,22,-4
1680,16,-255,17,-50,20,-4
1685,15,-254,20,-51,20,-4
1690,15,-254,15,-54,19,-4
1695,16,-252,14,-56,19,-5
1700,18,-255,19,-63,17,-4
1705,17,-255,19,-67,16,-3
1710,15,-253,13,-69,14,-3
1715,18,-254,19,-71,14,-3
1720,17,-255,19,-72,13,-3
1725,14,-256,14,-72,13,-2
1730,14,-252,13,-72,14,-2
1735,17,-256,15,-71,15,-2
1740,13,-257,14,-68,17,-3
1745,15,-255,13,-66,17,-3
1750,15,-255,19,-64,17,-4
1755,17,-256,13,-62,18,-4
1760,10,-252,5,-61,19,-3
1765,13,-255,18,-59,22,-4
1770,14,-251,16,-58,22,-5
1775,13,-255,14,-57,20,-4
1780,15,-255,14,-59,21,-4
1785,17,-255,19,-58,19,-3
1790,15,-255,15,-59,19,-5
1795,16,-256,16,-58,19,-5
1800,17,-256,17,-58,19,-4
1805,14,-253,16,-60,19,-6
1810,18,-255,17,-61,18,-6
1815,10,-265,9,-60,17,-5
1820,16,-256,13,-59,16,-4
1825,16,-257,17,-59,17,-4
1830,15,-257,16,-60,18,-4
1835,14,-254,16,-58,16,-4
1840,14,-255,18,-59,15,-3
1845,16,-257,13,-57,15,-3
1850,13,-256,17,-58,15,-2
1855,15,-255,19,-57,14,0
1860,14,-255,15,-56,16,-2
1865,15,-257,15,-56,14,1
1870,14,-256,17,-54,14,-2
1875,16,-255,15,-53,14,-1
1880,15,-255,17,-54,12,-2
1885,18,-256,14,-52,12,-1
1890,15,-255,17,-53,12,-2
1895,13,-255,16,-52,13,-4
1900,16,-257,15,-51,13,-3
1905,15,-255,15,-53,14,-3
1910,13,-253,14,-56,16,-6
1915,17,-254,14,-56,18,-6
1920,14,-254,18,-59,19,-5
1925,16,-255,10,-60,18,-5
1930,14,-253,17,-63,19,-6
1935,19,-255,13,-67,20,-6
1940,14,-257,19,-69,20,-4
1945,18,-254,16,-70,19,-5
1950,14,-257,12,-70,20,-3
1955,16,-256,18,-70,20,-5
1960,18,-256,16,-68,18,-4
1965,13,-255,14,-67,19,-3
1970,14,-256,12,-65,18,-2
1975,15,-257,13,-63,18,-2
1980,15,-257,15,-60,19,-2
1985,18,-255,12,-60,18,-2
1990,17,-255,16,-59,16,-2
1995,15,-255,15,-60,16,-2
2000,15,-254,13,-60,16,-1
2005,14,-253,16,-60,14,-2
2010,17,-256,17,-61,14,-4
2015,15,-254,15,-61,14,-3
2020,15,-255,11,-61,12,-3
2025,15,-255,16,-60,12,-3
2030,15,-256,17,-59,13,-3
2035,17,-255,13,-60,16,-4
2040,15,-255,14,-61,19,-5
2045,16,-256,16,-59,20,-6
2050,12,-254,14,-63,23,-6
2055,16,-256,13,-63,25,-7
2060,17,-258,14,-64,25,-6
2065,14,-256,12,-64,25,-4
2070,14,-256,15,-63,25,-5
2075,15,-257,13,-61,24,-6
2080,17,-256,21,-59,24,-4
2085,15,-256,11,-58,24,-4
2090,15,-256,12,-56,24,-5
2095,17,-255,20,-53,23,-4
2100,14,-257,12,-52,21,-3
2105,15,-255,15,-51,21,-2
2110,14,-254,17,-51,18,-1
2115,13,-256,15,-51,16,-1
2120,17,-255,15,-52,16,0
2125,14,-255,13,-51,15,-1
2130,16,-253,13,-52,14,-1
2135,13,-256,15,-53,14,-1
2140,13,-254,10,-53,13,-1
2145,16,-255,15,-54,13,-1
2150,17,-256,13,-55,14,0
2155,15,-254,13,-56,14,-1
2160,13,-256,15,-58,15,-3
2165,15,-255,16,-60,16,-3
2170,14,-255,9,-59,18,-5
2175,14,-251,13,-61,19,-3
2180,13,-256,11,-61,21,-4
2185,15,-255,16,-58,22,-4
2190,16,-255,16,-59,20,-4
2195,14,-257,13,-58,19,-3
2200,15,-255,13,-54,19,-3
2205,17,-255,14,-51,19,-2
2210,14,-254,13,-52,17,-2
2215,16,-257,12,-52,16,-1
2220,15,-257,13,-53,14,-1
2225,15,-253,15,-54,14,-2
2230,14,-255,14,-54,14,-1
2235,17,-256,14,-53,14,-1
2240,14,-255,16,-51,15,-2
2245,14,-254,11,-50,15,-2
2250,16,-256,14,-51,14,-3
2255,16,-256,12,-52,15,-3
2260,14,-250,15,-53,18,-3
2265,16,-256,15,-50,19,-2
2270,12,-256,15,-49,18,-2
2275,12,-255,11,-50,16,-2
2280,14,-256,18,-47,17,-2
2285,13,-256,10,-50,16,-3
2290,16,-258,14,-53,14,-2
2295,15,-256,15,-54,13,-3
2300,16,-255,16,-56,13,-4
2305,16,-256,14,-58,15,-2
2310,15,-251,13,-60,16,-3
2315,19,-259,16,-61,18,-3
2320,15,-257,12,-62,19,-3
2325,14,-258,17,-61,20,-3
2330,17,-256,11,-61,20,-2
2335,16,-256,16,-60,19,-3
2340,14,-256,14,-60,19,-4
2345,15,-254,13,-57,18,-4
2350,16,-255,16,-55,17,-5
2355,17,-257,18,-54,17,-4
2360,10,-245,-3,-55,16,-3
2365,14,-255,14,-56,15,-5
2370,14,-255,14,-56,16,-4
2375,14,-256,11,-56,15,-5
2380,14,-257,13,-56,16,-4
2385,12,-254,16,-57,15,-2
2390,14,-255,17,-59,15,-2
2395,13,-256,13,-59,16,-1
2400,14,-255,14,-60,15,-1
2405,13,-257,15,-59,14,-1
2410,15,-257,13,-59,13,-1
2415,14,-245,6,-57,13,-1
2420,12,-255,10,-58,12,1
2425,13,-253,17,-54,10,-1
2430,15,-256,12,-55,10,-3
2435,17,-255,11,-55,10,-2
2440,14,-257,16,-56,10,-3
2445,14,-255,13,-58,11,-4
2450,14,-256,13,-58,10,-4
2455,17,-258,15,-57,12,-6
2460,14,-256,14,-59,13,-5
2465,14,-257,12,-59,13,-5
2470,12,-256,11,-59,13,-4
2475,17,-258,15,-60,13,-3
2480,14,-259,13,-62,14,-3
2485,14,-258,12,-64,13,-3
2490,13,-258,11,-68,13,-2
2495,15,-261,7,-71,12,0
2500,16,-257,10,-74,12,1
2505,15,-259,12,-76,12,2
2510,13,-261,12,-79,11,2
2515,13,-258,10,-79,12,4
2520,16,-258,9,-81,14,4
2525,12,-255,4,-82,14,3
2530,16,-257,4,-81,14,3
2535,17,-256,9,-83,14,3
2540,14,-257,2,-82,15,1
2545,14,-256,3,-82,15,0
2550,16,-254,-1,-84,17,0
2555,18,-255,1,-88,17,0
2560,19,-255,1,-93,18,0
2565,19,-255,0,-100,19,0
2570,22,-252,-3,-109,22,-1
2575,19,-256,-1,-121,26,-1
2580,16,-254,-1,-133,30,0
2585,15,-253,0,-145,33,0
2590,18,-254,0,-154,39,-1
2595,17,-256,-2,-165,44,-1
2600,16,-256,-4,-175,50,0
2605,17,-256,-1,-181,52,0
2610,15,-256,-1,-185,56,2
2615,15,-257,-1,-189,59,0
2620,15,-257,-5,-189,61,-1
2625,15,-255,-1,-187,63,-2
2630,12,-258,-6,-183,66,-2
2635,13,-257,-4,-179,68,-4
2640,12,-256,-1,-172,71,-7
2645,13,-255,1,-165,74,-8
2650,15,-252,-3,-159,77,-9
2655,11,-255,-4,-153,79,-11
2660,10,-253,-2,-153,82,-13
2665,15,-252,-2,-155,85,-14
2670,12,-251,-6,-161,87,-15
2675,13,-253,-3,-170,87,-18
2680,13,-250,-2,-183,88,-18
2685,16,-252,-1,-195,89,-16
2690,12,-252,-1,-207,88,-16
2695,9,-254,0,-220,87,-15
2700,12,-253,-6,-232,86,-14
2705,11,-252,-3,-242,85,-13
2710,10,-256,-5,-249,82,-10
2715,11,-257,-2,-255,80,-10
2720,10,-255,-1,-260,78,-9
2725,9,-256,-5,-263,74,-7
2730,13,-259,-3,-266,71,-6
2735,15,-260,-7,-267,67,-7
2740,14,-257,-7,-268,64,-6
2745,8,-258,-6,-267,61,-5
2750,10,-261,-8,-265,59,-5
2755,13,-256,-11,-264,60,-7
2760,14,-258,-10,-262,62,-8
2765,12,-256,-4,-263,64,-9
2770,15,-258,-7,-262,69,-11
2775,13,-257,-7,-263,74,-14
2780,16,-260,-10,-265,80,-16
2785,14,-257,-9,-268,84,-18
2790,12,-260,-13,-274,89,-19
2795,16,-259,-6,-285,93,-20
2800,16,-259,-12,-293,98,-22
2805,15,-260,-15,-304,100,-21
2810,17,-261,-12,-312,103,-20
2815,15,-258,-15,-319,104,-19
2820,18,-260,-13,-321,105,-18
2825,17,-258,-15,-319,106,-17
2830,17,-256,-12,-313,107,-14
2835,15,-257,-11,-305,110,-13
2840,16,-258,-11,-296,109,-11
2845,16,-254,-9,-285,110,-10
2850,16,-254,-8,-279,109,-8
2855,14,-254,-17,-275,108,-6
2860,15,-251,-12,-278,108,-4
2865,12,-253,-14,-287,106,-2
2870,14,-249,-12,-300,106,0
2875,13,-248,-19,-319,107,1
2880,13,-249,-17,-340,104,2
2885,9,-247,-16,-364,104,3
2890,10,-245,-14,-387,103,4
2895,11,-246,-15,-410,101,5
2900,10,-248,-16,-433,102,7
2905,17,-242,-11,-456,103,8
2910,9,-247,-19,-480,104,9
2915,10,-249,-20,-500,107,11
2920,12,-249,-23,-522,109,14
2925,10,-245,-22,-545,110,16
2930,8,-245,-27,-567,110,18
2935,7,-246,-31,-591,110,23
2940,8,-250,-29,-615,110,28
2945,10,-247,-33,-638,106,31
2950,7,-251,-31,-658,102,38
2955,7,-250,-32,-671,97,44
2960,6,-254,-25,-683,91,50
2965,7,-254,-35,-686,85,58
2970,10,-253,-35,-685,81,62
2975,8,-252,-28,-677,79,66
2980,8,-253,-28,-660,78,70
2985,9,-253,-22,-642,78,73
2990,7,-247,-23,-622,78,78
2995,7,-250,-20,-604,76,80
3000,4,-250,-18,-593,71,82
3005,4,-248,-20,-584,66,83
3010,3,-251,-19,-584,56,86
3015,4,-250,-19,-590,43,88
3020,7,-251,-18,-602,31,92
3025,5,-253,-17,-616,21,93
3030,10,-256,-18,-629,13,94
3035,5,-256,-23,-642,11,95
3040,10,-258,-21,-649,10,96
3045,11,-262,-26,-649,14,94
3050,14,-261,-29,-646,20,90
3055,12,-259,-31,-638,28,86
3060,17,-261,-33,-632,37,80
3065,17,-257,-37,-624,47,74
3070,19,-259,-43,-618,57,67
3075,20,-256,-47,-616,70,62
3080,20,-254,-47,-613,81,54
3085,17,-248,-55,-615,94,48
3090,22,-246,-57,-625,105,41
3095,20,-245,-63,-636,115,35
3100,20,-244,-61,-652,125,28
3105,19,-236,-65,-668,135,24
3110,18,-237,-66,-688,144,19
3115,16,-232,-66,-707,151,18
3120,16,-232,-67,-730,159,16
3125,11,-228,-67,-754,162,15
3130,13,-232,-64,-779,166,14
3135,11,-230,-64,-802,167,15
3140,9,-231,-68,-822,167,17
3145,3,-230,-68,-845,164,19
3150,4,-233,-64,-863,154,25
3155,2,-234,-68,-880,141,31
3160,-2,-235,-67,-897,123,37
3165,-1,-237,-70,-912,102,44
3170,0,-237,-69,-922,80,56
3175,-3,-240,-72,-933,53,66
3180,-3,-244,-72,-937,26,76
3185,-10,-241,-72,-937,0,86
3190,-11,-240,-77,-931,-24,93
3195,-13,-238,-79,-919,-46,101
3200,-10,-234,-75,-904,-67,112
3205,-14,-232,-81,-883,-86,122
3210,-12,-229,-80,-859,-103,129
3215,-14,-224,-84,-835,-121,137
3220,-14,-221,-81,-807,-137,142
3225,-12,-216,-84,-783,-153,148
3230,-9,-210,-82,-763,-159,151
3235,-7,-207,-80,-750,-161,151
3240,-1,-203,-80,-746,-153,148
3245,1,-200,-79,-750,-139,141
3250,2,-199,-81,-760,-115,128
3255,7,-202,-80,-778,-85,113
3260,11,-203,-77,-804,-53,98
3265,14,-203,-79,-840,-20,77
3270,17,-207,-88,-881,10,58
3275,15,-212,-87,-927,34,37
3280,17,-216,-93,-974,49,18
3285,21,-221,-95,-1021,60,1
3290,30,-230,-100,-1064,61,-14
3295,26,-235,-98,-1103,63,-24
3300,28,-244,-101,-1135,63,-32
3305,32,-251,-106,-1154,61,-34
3310,27,-257,-106,-1157,61,-36
3315,26,-257,-110,-1141,60,-33
3320,24,-260,-109,-1106,62,-25
3325,19,-259,-109,-1057,63,-17
3330,16,-260,-108,-997,66,-6
3335,12,-261,-105,-927,72,8
3340,7,-258,-106,-854,76,24
3345,5,-256,-107,-783,79,43
3350,2,-256,-106,-717,79,60
3355,1,-250,-107,-660,78,77
3360,-2,-247,-113,-614,76,91
3365,-2,-245,-110,-580,70,103
3370,-3,-247,-117,-566,65,110
3375,-8,-244,-114,-567,55,113
3380,-11,-247,-115,-580,41,115
3385,-9,-247,-113,-596,22,113
3390,-10,-251,-110,-615,0,106
3395,-12,-256,-115,-636,-25,97
3400,-10,-256,-114,-649,-46,83
3405,-9,-262,-112,-655,-66,63
3410,-9,-265,-114,-647,-83,41
3415,-12,-267,-111,-627,-97,17
3420,-11,-270,-112,-590,-114,-6
3425,-10,-274,-113,-541,-126,-30
3430,-9,-274,-111,-484,-138,-53
3435,-10,-276,-109,-419,-147,-69
3440,-7,-272,-112,-351,-153,-83
3445,-10,-272,-113,-291,-155,-93
3450,-4,-269,-111,-235,-150,-92
3455,-1,-263,-114,-186,-137,-86
3460,0,-265,-112,-147,-120,-71
3465,1,-259,-111,-115,-97,-51
3470,2,-254,-111,-79,-64,-29
3475,9,-257,-109,-44,-28,-5
3480,12,-252,-107,-9,6,16
3485,12,-251,-109,23,35,33
3490,13,-252,-108,48,54,45
3495,13,-253,-109,66,61,55
3500,2,-245,-117,82,56,62
3505,14,-253,-112,92,38,63
3510,7,-251,-113,103,12,57
3515,10,-255,-112,113,-24,50
3520,10,-261,-113,121,-63,39
3525,6,-259,-115,131,-107,27
3530,0,-264,-113,145,-152,11
3535,0,-268,-112,162,-193,-5
3540,0,-268,-116,188,-231,-20
3545,0,-273,-112,218,-258,-34
3550,0,-272,-116,252,-273,-47
3555,-3,-274,-113,288,-277,-59
3560,2,-268,-113,319,-271,-68
3565,0,-265,-123,345,-255,-73
3570,0,-268,-122,365,-234,-78
3575,2,-267,-120,383,-206,-81
3580,1,-263,-120,396,-179,-84
3585,2,-264,-126,403,-154,-87
3590,2,-267,-122,403,-129,-89
3595,3,-266,-120,404,-109,-92
3600,4,-268,-117,405,-97,-96
3605,4,-274,-119,404,-91,-98
3610,6,-276,-119,407,-88,-102
3615,4,-277,-122,412,-86,-104
3620,5,-281,-123,423,-86,-104
3625,5,-283,-123,436,-85,-104
3630,2,-281,-128,451,-85,-103
3635,5,-287,-123,469,-82,-102
3640,6,-290,-127,486,-81,-104
3645,7,-294,-125,505,-77,-107
3650,6,-292,-127,525,-72,-111
3655,9,-290,-126,543,-69,-117
3660,10,-293,-126,560,-63,-121
3665,11,-291,-127,569,-59,-124
3670,11,-288,-125,576,-53,-128
3675,9,-285,-124,577,-43,-127
3680,11,-287,-122,571,-32,-125
3685,12,-283,-120,560,-18,-122
3690,12,-283,-122,550,-2,-116
3695,12,-276,-116,539,14,-108
3700,15,-281,-112,530,28,-101
3705,10,-272,-111,522,39,-94
3710,11,-270,-108,519,43,-88
3715,8,-268,-101,517,41,-80
3720,6,-267,-102,522,32,-77
3725,4,-266,-98,529,17,-75
3730,0,-267,-93,547,0,-70
3735,-1,-267,-89,573,-19,-67
3740,-5,-265,-89,605,-38,-65
3745,-10,-263,-85,640,-59,-64
3750,-8,-264,-83,680,-76,-62
3755,-8,-263,-82,716,-91,-60
3760,-9,-268,-85,748,-104,-57
3765,-7,-265,-81,777,-110,-56
3770,-6,-264,-82,802,-112,-53
3775,-6,-267,-82,822,-109,-53
3780,-5,-262,-82,841,-105,-49
3785,0,-266,-78,858,-98,-47
3790,1,-269,-79,870,-90,-46
3795,3,-269,-80,881,-81,-44
3800,11,-270,-75,891,-74,-44
3805,18,-270,-76,898,-62,-41
3810,19,-270,-71,906,-51,-39
3815,19,-271,-73,917,-43,-37
3820,23,-272,-66,928,-36,-34
3825,24,-273,-66,940,-30,-27
3830,20,-276,-64,957,-27,-23
3835,24,-277,-63,975,-25,-18
3840,21,-281,-62,994,-27,-14
3845,21,-283,-59,1015,-29,-9
3850,21,-287,-58,1038,-32,-6
3855,20,-289,-53,1064,-34,-4
3860,16,-287,-52,1090,-40,-3
3865,14,-292,-56,1114,-45,-4
3870,12,-291,-51,1137,-49,-7
3875,9,-293,-51,1159,-54,-12
3880,9,-295,-47,1180,-56,-18
3885,12,-295,-44,1204,-51,-27
3890,12,-296,-41,1227,-41,-37
3895,9,-298,-37,1253,-22,-48
3900,9,-295,-40,1280,4,-59
3905,6,-298,-29,1309,41,-71
3910,9,-298,-23,1336,81,-81
3915,12,-300,-20,1375,122,-92
3920,15,-300,-15,1421,159,-105
3925,12,-306,-10,1473,192,-121
3930,14,-314,1,1535,222,-136
3935,17,-313,7,1605,252,-149
3940,15,-320,14,1684,281,-158
3945,16,-322,18,1766,305,-163
3950,15,-322,11,1840,321,-163
3955,13,-325,1,1886,329,-169
3960,12,-321,-9,1891,322,-175
3965,7,-315,-23,1847,299,-179
3970,6,-307,-32,1752,265,-183
3975,1,-294,-46,1605,228,-193
3980,0,-277,-58,1413,197,-196
3985,-2,-263,-58,1186,181,-192
3990,-5,-256,-62,940,180,-176
3995,-1,-252,-60,688,189,-149
4000,-1,-252,-53,458,201,-116
4005,-3,-259,-37,266,212,-77
4010,-6,-269,-21,128,211,-40
4015,-5,-279,0,48,201,-5
4020,-6,-289,9,23,183,28
4025,-7,-289,24,51,160,51
4030,-7,-289,34,112,134,67
4035,-2,-289,39,193,110,77
4040,-5,-284,46,280,83,80
4045,-2,-273,56,370,57,77
4050,-5,-265,55,455,27,67
4055,-2,-253,58,531,-3,57
4060,-6,-246,55,601,-38,43
4065,0,-234,54,649,-70,32
4070,-4,-224,54,676,-104,20
4075,-4,-213,51,680,-133,10
4080,0,-206,49,650,-155,-1
4085,0,-198,49,594,-170,-10
4090,0,-187,33,518,-176,-11
4095,0,-195,50,428,-178,-8
4100,0,-199,45,330,-173,-4
4105,1,-200,51,231,-165,5
4110,3,-208,52,138,-152,20
4115,3,-213,56,55,-134,32
4120,6,-222,56,-15,-118,43
4125,9,-229,57,-66,-109,55
4130,12,-235,61,-93,-104,68
4135,16,-245,55,-97,-103,84
4140,17,-246,58,-82,-104,96
4145,18,-250,54,-43,-111,112
4150,19,-259,54,14,-117,124
4155,22,-255,52,82,-122,127
4160,23,-257,51,155,-128,137
4165,26,-256,50,221,-128,143
4170,21,-255,48,282,-126,149
4175,25,-250,50,328,-120,141
4180,22,-247,52,357,-117,144
4185,21,-252,42,363,-105,137
4190,21,-247,43,350,-88,125
4195,20,-254,42,316,-75,125
4200,18,-247,41,263,-61,112
4205,15,-254,39,202,-51,108
4210,20,-257,38,132,-41,91
4215,12,-260,38,65,-37,93
4220,7,-264,41,5,-28,74
4225,9,-271,35,-34,-27,61
4230,9,-273,31,-50,-22,49
4235,10,-274,30,-44,-14,39
4240,11,-286,31,-13,-2,34
4245,4,-278,24,33,10,14
4250,9,-284,25,100,18,4
4255,4,-278,21,177,25,0
4260,6,-278,19,261,33,-12
4265,8,-271,21,342,35,-34
4270,10,-265,22,421,26,-31
4275,4,-257,23,489,20,-31
4280,6,-253,27,543,9,-33
4285,3,-249,27,581,-8,-35
4290,3,-236,38,599,-25,-47
4295,8,-230,41,602,-53,-40
4300,5,-225,42,590,-79,-37
4305,8,-225,41,561,-101,-36
4310,6,-216,41,515,-122,-35
4315,7,-215,46,458,-143,-32
4320,5,-213,47,396,-160,-31
4325,8,-213,49,333,-172,-29
4330,5,-213,53,272,-181,-29
4335,9,-212,48,218,-183,-27
4340,10,-221,48,164,-182,-25
4345,10,-220,50,120,-177,-24
4350,6,-221,49,80,-164,-20
4355,11,-227,48,51,-147,-15
4360,12,-233,47,28,-127,-13
4365,14,-234,51,16,-105,-10
4370,15,-236,47,12,-87,-10
4375,8,-238,49,16,-73,-9
4380,10,-240,51,25,-62,-10
4385,8,-242,49,32,-54,-16
4390,13,-245,46,36,-58,-19
4395,11,-244,45,37,-64,-14
4400,9,-247,39,34,-67,-13
4405,11,-250,44,29,-72,-15
4410,12,-247,39,24,-80,-11
4415,10,-252,39,14,-87,-13
4420,8,-253,36,6,-91,-15
4425,13,-251,34,2,-91,-13
4430,8,-252,33,4,-89,-10
4435,10,-252,34,11,-87,-3
4440,7,-251,31,25,-88,0
4445,8,-253,28,45,-87,-1
4450,5,-255,31,69,-83,-1
4455,5,-254,36,100,-79,-2
4460,10,-243,44,132,-75,-4
4465,6,-251,37,163,-68,-7
4470,7,-250,39,190,-60,-7
4475,4,-246,39,213,-53,-11
4480,5,-244,47,233,-50,-13
4485,6,-242,42,248,-43,-15
4490,6,-238,41,257,-42,-16
4495,6,-238,40,256,-38,-18
4500,7,-239,49,248,-37,-19
4505,6,-237,49,236,-42,-20
4510,9,-237,51,218,-47,-20
4515,4,-236,45,199,-51,-20
4520,4,-236,47,183,-56,-19
4525,6,-235,44,167,-62,-19
4530,8,-242,50,158,-63,-17
4535,9,-241,54,152,-63,-13
4540,11,-242,49,150,-63,-11
4545,11,-241,58,147,-64,-10
4550,6,-238,55,144,-66,-7
4555,11,-242,59,139,-67,-6
4560,9,-242,54,138,-71,-6
4565,13,-236,57,136,-75,-7
4570,11,-241,60,135,-82,-6
4575,12,-240,53,130,-88,-8
4580,14,-240,59,124,-93,-10
4585,14,-243,59,117,-93,-10
4590,15,-243,58,112,-91,-12
4595,14,-241,57,109,-86,-15
4600,18,-245,61,110,-80,-15
4605,14,-241,62,110,-72,-17
4610,16,-243,57,107,-62,-19
4615,15,-241,59,106,-53,-25
4620,16,-242,60,104,-45,-27
4625,15,-237,61,102,-41,-29
4630,17,-237,54,97,-37,-31
4635,21,-226,59,89,-34,-31
4640,15,-235,54,85,-29,-32
4645,15,-238,58,78,-29,-32
4650,18,-240,57,73,-29,-31
4655,14,-239,60,71,-29,-31
4660,17,-242,64,74,-27,-30
4665,18,-243,63,78,-22,-30
4670,18,-246,60,85,-21,-29
4675,19,-242,58,90,-19,-28
4680,15,-236,61,93,-17,-27
4685,19,-239,59,92,-15,-27
4690,26,-237,67,87,-10,-27
4695,14,-236,58,81,-5,-29
4700,15,-235,56,72,-1,-29
4705,14,-236,53,62,6,-29
4710,15,-234,55,49,15,-28
4715,15,-238,56,39,24,-28
4720,17,-240,59,33,32,-25
4725,13,-240,62,31,41,-25
4730,16,-240,65,32,45,-23
4735,12,-240,63,38,50,-24
4740,14,-242,61,48,52,-24
4745,15,-240,62,58,52,-25
4750,14,-243,63,72,49,-24
4755,16,-242,62,84,46,-23
4760,16,-240,61,96,42,-21
4765,15,-241,61,106,39,-21
4770,13,-240,59,114,39,-20
4775,10,-239,62,114,38,-19
4780,16,-239,61,109,36,-19
4785,12,-234,60,104,37,-19
4790,12,-234,65,93,38,-19
4795,12,-235,61,82,38,-18
4800,11,-235,61,72,40,-18
4805,13,-235,60,61,40,-19
4810,11,-236,63,52,39,-18
4815,13,-233,62,45,38,-16
4820,9,-234,62,38,34,-14
4825,13,-236,64,37,33,-14
4830,14,-240,63,34,30,-14
4835,12,-238,63,30,26,-11
4840,14,-240,64,28,25,-9
4845,14,-237,65,28,23,-8
4850,14,-239,64,29,19,-6
4855,12,-238,66,30,16,-5
4860,14,-235,63,31,11,-4
4865,14,-237,64,31,7,-4
4870,14,-234,67,29,4,0
4875,13,-236,66,25,-1,2
4880,15,-236,63,17,-4,3
4885,18,-238,63,9,-7,4
4890,15,-235,62,-2,-10,4
4895,16,-235,61,-12,-10,6
4900,15,-237,63,-18,-10,7
4905,14,-235,63,-22,-8,8
4910,15,-236,61,-23,-7,9
4915,14,-240,67,-21,-4,10
4920,14,-238,66,-17,-1,11
4925,16,-239,62,-14,0,11
4930,14,-238,63,-11,2,12
4935,16,-242,68,-9,2,12
4940,15,-241,66,-4,3,14
4945,14,-242,66,-2,3,15
4950,13,-242,65,1,3,16
4955,14,-242,62,5,2,17
4960,16,-241,64,8,0,19
4965,16,-243,68,13,1,21
4970,11,-240,66,14,0,21
4975,14,-239,66,12,-2,24
4980,12,-238,64,10,-3,22
4985,14,-238,64,5,-4,24
4990,16,-238,62,-4,-2,23
4995,16,-238,62,-14,2,23
5000,14,-237,64,-24,3,21
5005,15,-238,62,-33,7,22
5010,14,-239,65,-42,12,19
5015,15,-237,61,-50,12,18
5020,16,-236,66,-58,12,17
5025,16,-240,64,-66,12,17
5030,13,-242,63,-73,12,19
5035,15,-237,60,-75,13,20
5040,15,-237,66,-76,12,20
5045,18,-240,64,-77,13,20
5050,15,-241,64,-76,13,21
5055,10,-239,65,-72,15,21
5060,11,-238,63,-72,17,22
5065,12,-241,63,-73,16,21
5070,14,-239,63,-75,16,20
5075,14,-241,64,-81,18,19
5080,9,-238,60,-91,19,18
5085,12,-241,61,-99,21,18
5090,13,-241,60,-109,25,17
5095,12,-241,60,-118,29,16
5100,10,-240,60,-124,30,16
5105,9,-242,55,-128,32,14
5110,10,-242,61,-127,35,12
5115,12,-243,62,-121,36,9
5120,8,-241,59,-116,32,8
5125,12,-243,62,-104,31,7
5130,11,-242,62,-95,29,7
5135,11,-239,61,-84,27,9
5140,14,-240,62,-75,27,10
5145,11,-239,61,-67,26,11
5150,12,-239,57,-61,25,10
5155,10,-236,59,-56,25,9
5160,11,-238,61,-54,24,10
5165,15,-239,59,-58,24,12
5170,13,-239,62,-62,24,13
5175,14,-239,58,-67,24,11
5180,10,-240,62,-72,25,11
5185,11,-240,58,-73,28,11
5190,12,-240,62,-75,32,9
5195,9,-242,60,-71,36,8
5200,12,-243,61,-67,41,6
5205,7,-242,61,-59,45,3
5210,13,-243,61,-54,46,0
5215,10,-243,61,-47,49,-2
5220,9,-243,63,-39,50,-4
5225,12,-241,62,-36,48,-8
5230,2,-241,66,-32,48,-8
5235,10,-243,62,-31,49,-10
5240,8,-239,60,-35,47,-9
5245,11,-242,60,-40,45,-10
5250,12,-241,60,-46,44,-9
5255,7,-241,61,-56,41,-7
5260,11,-242,58,-64,40,-6
5265,10,-240,60,-69,38,-5
5270,8,-240,62,-72,36,-2
5275,10,-242,58,-70,35,-4
5280,9,-241,61,-68,32,-4
5285,7,-242,56,-63,30,-5
5290,10,-241,61,-58,29,-6
5295,8,-242,63,-54,28,-8
5300,11,-241,60,-48,27,-9
5305,10,-242,61,-45,26,-9
5310,8,-240,59,-42,27,-9
5315,13,-241,60,-41,24,-10
5320,11,-240,60,-41,23,-9
5325,10,-241,61,-42,24,-8
5330,11,-242,59,-42,25,-9
5335,12,-239,61,-43,23,-7
5340,12,-241,59,-43,24,-6
5345,11,-242,60,-42,23,-7
5350,10,-242,64,-39,19,-4
5355,11,-240,61,-38,16,-5
5360,17,-244,60,-34,13,-4
5365,11,-240,62,-31,10,-3
5370,12,-240,59,-30,8,-4
5375,12,-238,59,-30,6,-3
5380,12,-240,60,-28,5,-4
5385,13,-242,60,-30,5,-4
5390,11,-240,59,-31,6,-2
5395,13,-245,59,-33,9,-3
5400,8,-242,62,-32,12,-3
5405,12,-242,61,-32,14,-5
5410,10,-241,56,-29,17,-4
5415,11,-240,58,-23,20,-5
5420,11,-242,60,-19,23,-6
5425,13,-241,60,-14,23,-5
5430,15,-240,61,-6,23,-5
5435,11,-242,62,-2,21,-8
5440,12,-242,64,2,19,-8
5445,11,-239,63,3,16,-7
5450,10,-237,59,5,15,-9
5455,8,-236,64,3,14,-8
5460,13,-239,64,2,13,-6
5465,11,-239,64,0,11,-4
5470,12,-238,60,-4,9,-3
5475,12,-239,63,-8,8,-3
5480,10,-240,62,-16,4,-1
5485,11,-240,63,-21,2,2
5490,9,-238,64,-27,0,2
5495,11,-241,59,-30,-2,2
5500,12,-238,60,-32,-4,3
5505,13,-240,62,-32,-2,2
5510,12,-241,58,-31,-1,3
5515,10,-241,61,-27,-1,2
5520,9,-241,63,-23,1,0
5525,8,-241,60,-17,1,-1
5530,12,-238,62,-14,3,-3
5535,10,-241,57,-10,5,-5
5540,10,-238,62,-13,5,-6
5545,9,-238,59,-17,8,-7
5550,13,-240,61,-19,8,-8
5555,12,-239,58,-22,8,-9
5560,9,-238,56,-23,8,-7
5565,10,-237,61,-20,10,-9
5570,13,-240,63,-16,11,-10
5575,12,-240,60,-14,12,-9
5580,13,-243,63,-9,13,-9
5585,14,-238,61,-5,13,-8
5590,15,-241,63,-3,13,-8
5595,10,-239,64,-2,13,-10
5600,12,-239,67,-3,10,-7
5605,12,-237,63,-2,9,-6
5610,10,-243,64,-4,8,-6
5615,12,-240,64,-6,6,-8
5620,12,-239,61,-9,4,-7
5625,13,-237,58,-12,2,-8
5630,10,-241,65,-16,1,-7
5635,14,-237,62,-18,2,-6
5640,10,-240,62,-19,3,-6
5645,14,-241,62,-20,4,-8
5650,13,-241,64,-17,5,-9
5655,11,-240,61,-15,6,-10
5660,13,-239,60,-11,8,-11
5665,10,-238,65,-9,11,-11
5670,11,-240,67,-5,12,-13
5675,9,-239,63,-2,14,-12
5680,13,-242,64,2,17,-13
5685,11,-240,58,0,16,-13
5690,10,-239,61,1,16,-14
5695,11,-242,64,2,16,-16
5700,13,-237,64,1,15,-17
5705,11,-239,61,-3,14,-17
5710,8,-239,66,-4,13,-18
5715,8,-239,65,-5,14,-20
5720,13,-238,64,-6,14,-19
5725,8,-238,67,-6,12,-18
5730,11,-238,64,-3,13,-17
5735,9,-239,64,-2,13,-17
5740,12,-238,61,2,12,-16
5745,9,-237,63,6,10,-18
5750,15,-238,64,13,10,-17
5755,10,-237,64,16,9,-18
5760,14,-239,64,18,8,-19
5765,13,-240,64,19,7,-19
5770,10,-238,63,18,6,-19
5775,12,-238,62,15,7,-18
5780,10,-236,64,12,8,-19
5785,12,-240,66,6,9,-19
5790,13,-236,63,2,11,-22
5795,13,-237,65,-5,12,-22
5800,14,-238,63,-9,12,-20
5805,14,-236,67,-12,11,-21
5810,14,-238,72,-16,11,-20
5815,11,-238,64,-16,12,-21
5820,11,-238,65,-16,9,-19
5825,13,-241,62,-15,8,-18
5830,3,-233,66,-15,5,-17
5835,15,-239,68,-13,4,-15
5840,13,-239,64,-8,3,-13
5845,14,-239,66,-3,2,-11
5850,12,-237,65,5,0,-13
5855,14,-241,65,11,0,-12
5860,15,-236,62,19,-2,-10
5865,16,-239,65,25,-3,-11
5870,12,-239,66,28,-2,-12
5875,15,-239,69,30,-3,-12
5880,15,-236,66,29,-3,-15
5885,11,-224,51,29,-1,-15
5890,15,-236,67,26,0,-15
5895,16,-237,67,24,0,-15
5900,12,-236,68,21,1,-14
5905,13,-234,68,18,2,-15
5910,14,-235,65,13,4,-13
5915,12,-235,70,8,7,-13
5920,15,-237,64,1,8,-13
5925,15,-238,68,-5,10,-12
5930,12,-235,66,-10,12,-12
5935,13,-236,71,-14,13,-11
5940,15,-241,67,-17,13,-12
5945,9,-238,69,-19,12,-13
5950,12,-236,66,-18,11,-12
5955,13,-239,64,-19,11,-14
5960,10,-237,68,-18,9,-13
5965,9,-237,67,-17,7,-12
5970,12,-238,71,-15,8,-11
5975,14,-235,67,-13,9,-11
5980,12,-238,64,-11,8,-9
5985,14,-237,66,-9,7,-10
5990,10,-236,69,-8,7,-10
5995,14,-237,64,-6,7,-8
6000,13,-237,68,-7,5,-8
6005,15,-239,65,-5,6,-8
6010,14,-235,66,-6,7,-9
6015,14,-236,66,-5,8,-7
6020,11,-235,66,-8,9,-8
6025,15,-236,68,-11,11,-10
6030,12,-235,64,-13,11,-9
6035,14,-236,66,-16,10,-9
6040,12,-237,63,-18,9,-9
6045,13,-239,65,-22,9,-9
6050,13,-239,65,-22,7,-9
6055,12,-238,66,-22,5,-10
6060,10,-236,68,-22,5,-8
6065,15,-238,64,-21,5,-10
6070,14,-238,69,-16,5,-11
6075,17,-239,65,-11,5,-9
6080,12,-240,68,-5,4,-10
6085,13,-237,66,0,4,-11
6090,16,-238,63,5,3,-11
6095,14,-238,65,12,2,-11
6100,12,-238,66,16,2,-10
6105,14,-240,67,21,2,-10
6110,14,-237,70,23,2,-11
6115,15,-236,67,27,4,-11
6120,14,-235,68,29,5,-10
6125,13,-238,70,31,7,-11
6130,11,-234,66,31,7,-9
6135,12,-233,69,31,9,-12
6140,10,-233,69,26,11,-12
6145,10,-235,69,22,14,-11
6150,14,-235,70,15,14,-11
6155,14,-233,67,10,15,-12
6160,13,-235,68,6,15,-12
6165,12,-236,67,2,17,-12
6170,16,-235,66,0,18,-13
6175,14,-236,68,0,16,-16
6180,13,-235,68,1,16,-13
6185,13,-237,72,4,17,-13
6190,12,-235,70,7,16,-12
6195,12,-236,71,5,16,-14
6200,16,-237,67,6,15,-13
6205,15,-236,70,3,15,-12
6210,19,-236,70,3,16,-12
6215,13,-236,73,1,18,-12
6220,15,-240,69,0,17,-11
6225,15,-237,65,3,19,-9
6230,13,-236,68,6,17,-11
6235,14,-236,72,9,17,-10
6240,19,-236,66,13,16,-11
6245,10,-232,70,13,13,-9
6250,14,-233,69,12,10,-10
6255,11,-234,70,7,7,-8
6260,13,-231,68,3,6,-7
6265,16,-232,69,-2,6,-7
6270,14,-232,69,-10,7,-8
6275,13,-236,68,-14,7,-10
6280,14,-235,68,-18,8,-11
6285,16,-235,68,-20,10,-12
6290,19,-235,68,-21,13,-12
6295,12,-233,66,-20,16,-11
6300,14,-235,71,-19,18,-11
6305,15,-236,70,-19,21,-12
6310,13,-236,69,-17,22,-13
6315,12,-234,71,-16,24,-14
6320,15,-235,76,-16,25,-14
6325,15,-234,73,-19,25,-12
6330,17,-237,73,-20,24,-12
6335,14,-232,75,-26,25,-13
6340,15,-235,75,-30,22,-12
6345,15,-234,72,-36,20,-11
6350,17,-235,72,-40,19,-10
6355,11,-233,72,-44,19,-8
6360,15,-238,73,-45,18,-8
6365,17,-237,72,-48,20,-8
6370,12,-234,72,-48,21,-7
6375,14,-239,73,-47,22,-7
6380,14,-237,72,-46,25,-9
6385,15,-242,71,-41,26,-8
6390,14,-237,73,-33,27,-8
6395,12,-237,67,-27,27,-11
6400,17,-234,69,-22,27,-9
6405,14,-235,68,-19,26,-8
6410,14,-236,67,-19,24,-10
6415,14,-235,71,-19,24,-9
6420,13,-234,70,-20,21,-8
6425,14,-233,66,-24,23,-8
6430,16,-234,77,-27,23,-9
6435,14,-232,72,-29,24,-10
6440,13,-235,71,-31,25,-10
6445,16,-231,70,-34,24,-10
6450,13,-234,72,-39,25,-10
6455,16,-237,71,-42,27,-12
6460,16,-233,71,-47,26,-13
6465,13,-233,71,-48,27,-12
6470,13,-233,68,-51,26,-12
6475,14,-233,70,-54,25,-11
6480,16,-240,72,-54,23,-11
6485,9,-229,70,-54,23,-10
6490,15,-231,71,-56,22,-10
6495,12,-233,69,-56,20,-10
6500,12,-230,72,-58,19,-10
6505,13,-234,70,-56,18,-10
6510,16,-231,73,-56,18,-10
6515,12,-231,70,-56,18,-11
6520,16,-234,73,-54,22,-11
6525,15,-234,71,-54,24,-11
6530,17,-235,72,-52,28,-12
6535,14,-232,73,-50,30,-12
6540,14,-235,71,-46,31,-10
6545,14,-235,73,-46,33,-10
6550,14,-236,71,-43,33,-9
6555,15,-235,76,-39,31,-8
6560,15,-234,71,-36,30,-6
6565,17,-236,71,-36,28,-6
6570,14,-236,69,-36,24,-8
6575,12,-234,70,-38,23,-8
6580,13,-232,74,-43,18,-10
6585,12,-233,68,-48,16,-10
6590,17,-234,73,-56,15,-9
6595,15,-233,74,-63,17,-10
6600,15,-235,65,-72,18,-10
6605,18,-234,67,-79,19,-8
6610,10,-232,68,-80,21,-8
6615,15,-234,69,-83,21,-7
6620,14,-237,70,-80,20,-6
6625,12,-237,64,-78,18,-7
6630,13,-237,65,-75,18,-7
6635,14,-237,69,-69,17,-7
6640,15,-233,67,-67,15,-7
6645,15,-234,68,-64,12,-8
6650,14,-235,68,-62,11,-8
6655,12,-232,66,-56,8,-9
6660,14,-234,73,-51,4,-8
6665,16,-236,71,-47,3,-8
6670,16,-234,72,-37,-1,-8
6675,15,-238,72,-29,-6,-7
6680,16,-231,70,-25,-13,-5
6685,17,-231,65,-23,-20,-3
6690,14,-228,67,-25,-28,-2
6695,19,-230,64,-29,-38,-2
6700,17,-231,69,-31,-47,-3
6705,19,-227,65,-33,-55,-4
6710,17,-226,65,-32,-60,-5
6715,13,-227,64,-37,-63,-7
6720,16,-228,64,-45,-59,-8
6725,14,-227,64,-57,-53,-8
6730,15,-230,65,-74,-43,-8
6735,12,-229,67,-95,-32,-9
6740,12,-232,70,-117,-19,-11
6745,16,-232,70,-133,-7,-12
6750,12,-235,77,-142,5,-13
6755,13,-238,78,-144,14,-15
6760,11,-239,77,-137,21,-16
6765,13,-239,83,-126,25,-17
6770,13,-240,80,-107,26,-20
6775,12,-240,77,-87,28,-20
6780,12,-236,81,-68,28,-21
6785,14,-236,80,-49,28,-20
6790,15,-236,78,-34,28,-19
6795,15,-233,78,-22,28,-18
6800,13,-234,75,-17,31,-17
6805,16,-233,79,-13,34,-16
6810,15,-232,77,-16,34,-15
6815,18,-231,74,-25,34,-15
6820,14,-227,77,-36,33,-14
6825,16,-230,72,-51,31,-13
6830,14,-229,75,-68,29,-11
6835,13,-230,74,-82,28,-8
6840,14,-230,72,-97,27,-6
6845,14,-229,72,-109,28,-4
6850,14,-232,70,-122,30,-4
6855,13,-235,73,-134,32,-5
6860,13,-233,70,-141,34,-3
6865,18,-237,69,-147,35,-4
6870,13,-237,66,-151,35,-3
6875,14,-237,65,-151,34,-3
6880,12,-236,68,-155,32,-5
6885,15,-236,67,-154,31,-5
6890,14,-236,63,-148,31,-4
6895,16,-237,60,-141,31,-5
6900,15,-234,64,-135,30,-4
6905,18,-236,63,-128,29,-5
6910,14,-234,60,-126,28,-6
6915,16,-237,66,-124,30,-5
6920,16,-237,65,-123,32,-6
6925,15,-236,68,-122,32,-6
6930,16,-239,66,-121,33,-7
6935,19,-241,69,-117,34,-6
6940,17,-237,69,-113,34,-7
6945,16,-237,71,-107,33,-5
6950,16,-238,71,-106,32,-5
6955,15,-233,70,-104,30,-5
6960,16,-233,68,-107,28,-6
6965,14,-231,66,-111,26,-6
6970,14,-230,71,-118,25,-5
6975,15,-227,67,-129,22,-6
6980,17,-232,64,-143,20,-6
6985,9,-231,63,-157,20,-6
6990,14,-229,64,-168,19,-6
6995,14,-232,65,-179,21,-4
7000,13,-235,63,-184,22,-5
7005,14,-233,66,-186,22,-4
7010,15,-236,66,-186,23,-4
7015,14,-235,64,-183,24,-4
7020,16,-236,63,-179,26,-4
7025,17,-235,66,-172,27,-5
7030,13,-245,58,-165,26,-6
7035,14,-235,64,-157,24,-4
7040,14,-235,60,-154,22,-5
7045,13,-236,62,-150,20,-5
7050,16,-240,63,-147,18,-4
7055,14,-239,64,-143,19,-4
7060,16,-240,65,-140,20,-3
7065,17,-241,64,-136,22,-5
7070,18,-240,66,-131,23,-5
7075,16,-241,65,-123,26,-7
7080,18,-237,66,-116,29,-7
7085,17,-227,57,-107,31,-8
7090,15,-235,69,-101,35,-7
7095,15,-235,69,-96,37,-6
7100,17,-235,67,-95,39,-6
7105,14,-235,64,-97,40,-6
7110,13,-234,67,-103,39,-6
7115,16,-232,68,-116,37,-6
7120,15,-230,63,-131,34,-5
7125,12,-229,65,-152,31,-4
7130,13,-232,68,-175,29,-4
7135,14,-232,64,-197,27,-4
7140,13,-234,63,-217,28,-3
7145,10,-234,64,-234,27,-3
7150,10,-234,62,-246,29,-3
7155,12,-235,63,-251,31,-3
7160,13,-238,62,-255,33,-4
7165,12,-238,62,-254,35,-5
7170,13,-237,59,-253,36,-5
7175,11,-234,60,-252,37,-6
7180,11,-234,58,-251,37,-7
7185,13,-236,57,-252,38,-9
7190,13,-236,60,-256,41,-9
7195,15,-232,62,-261,42,-10
7200,15,-236,59,-264,45,-11
7205,17,-235,62,-268,47,-11
7210,14,-235,60,-273,47,-12
7215,17,-236,64,-276,48,-12
7220,15,-235,63,-280,49,-13
7225,13,-234,64,-285,49,-12
7230,16,-237,63,-290,50,-12
7235,14,-236,66,-293,49,-12
7240,15,-236,64,-296,47,-11
7245,13,-237,65,-297,45,-10
7250,17,-236,62,-299,41,-10
7255,18,-236,63,-298,36,-11
7260,14,-236,58,-299,30,-10
7265,14,-236,64,-304,25,-10
7270,15,-237,59,-311,24,-9
7275,12,-234,59,-320,24,-9
7280,15,-235,58,-331,26,-10
7285,14,-235,61,-341,29,-8
7290,13,-235,61,-355,34,-11
7295,15,-236,59,-367,41,-11
7300,13,-235,62,-378,47,-13
7305,13,-234,58,-390,52,-12
7310,12,-235,61,-402,57,-13
7315,10,-236,56,-415,59,-15
7320,12,-233,58,-428,61,-15
7325,14,-235,59,-440,59,-16
7330,12,-239,57,-449,58,-16
7335,14,-238,56,-457,55,-16
7340,14,-240,55,-467,52,-16
7345,16,-238,58,-475,51,-14
7350,15,-236,55,-483,50,-13
7355,13,-236,54,-493,48,-13
7360,16,-236,52,-505,46,-11
7365,14,-236,54,-517,43,-11
7370,16,-236,49,-527,43,-12
7375,19,-239,54,-533,41,-13
7380,16,-235,50,-538,40,-14
7385,19,-237,53,-539,41,-16
7390,17,-240,52,-536,43,-16
7395,16,-239,51,-536,42,-17
7400,17,-237,45,-536,43,-19
7405,13,-237,48,-540,45,-21
7410,17,-233,50,-547,46,-22
7415,15,-232,48,-555,46,-23
7420,14,-229,50,-567,49,-24
7425,12,-232,48,-579,51,-23
7430,15,-233,51,-591,58,-23
7435,12,-233,51,-603,63,-24
7440,15,-235,52,-613,71,-23
7445,14,-235,49,-621,79,-24
7450,16,-238,47,-631,87,-24
7455,14,-239,52,-634,95,-25
7460,16,-240,47,-641,106,-26
7465,16,-241,49,-645,116,-27
7470,18,-237,51,-653,125,-26
7475,14,-241,47,-662,136,-26
7480,16,-239,50,-674,145,-28
7485,16,-242,48,-684,153,-27
7490,16,-242,55,-698,157,-27
7495,17,-243,53,-709,157,-27
7500,15,-243,49,-715,155,-27
7505,14,-240,51,-715,152,-27
7510,15,-243,50,-713,148,-24
7515,15,-244,49,-704,142,-22
7520,13,-245,48,-693,138,-21
7525,12,-243,47,-687,134,-18
7530,12,-242,44,-685,130,-16
7535,12,-244,41,-691,124,-13
7540,13,-239,41,-707,123,-8
7545,12,-242,40,-732,125,-4
7550,14,-239,36,-760,130,0
7555,12,-240,39,-789,144,5
7560,14,-244,36,-809,162,12
7565,11,-249,36,-812,184,14
7570,14,-253,36,-800,208,18
7575,15,-255,31,-783,231,19
7580,12,-256,30,-766,248,20
7585,13,-261,22,-760,260,27
7590,11,-261,19,-771,270,27
7595,12,-261,11,-803,280,26
7600,14,-260,8,-865,285,17
7605,10,-259,10,-949,285,5
7610,13,-256,7,-1046,278,-3
7615,10,-260,6,-1144,267,-8
7620,7,-258,10,-1235,253,-7
7625,3,-263,7,-1309,243,-10
7630,4,-264,6,-1371,233,-11
7635,4,-266,5,-1422,224,-13
7640,3,-268,4,-1472,210,-14
7645,4,-269,1,-1524,192,-13
7650,-2,-273,3,-1579,168,-10
7655,-1,-277,0,-1631,142,-2
7660,0,-283,0,-1677,111,10
7665,0,-292,-4,-1707,81,26
7670,1,-297,-2,-1723,53,43
7675,7,-302,-9,-1725,32,61
7680,18,-295,-18,-1714,20,77
7685,17,-317,-9,-1690,21,90
7690,22,-321,-13,-1663,33,97
7695,30,-328,-12,-1622,52,100
7700,35,-337,-17,-1575,77,99
7705,34,-343,-19,-1520,105,96
7710,39,-346,-28,-1461,133,85
7715,37,-354,-33,-1399,156,75
7720,33,-355,-46,-1345,172,63
7725,27,-356,-61,-1302,177,55
7730,24,-358,-69,-1265,174,52
7735,20,-359,-75,-1226,167,60
7740,13,-358,-84,-1185,157,72
7745,12,-355,-95,-1138,146,87
7750,9,-354,-106,-1095,127,110
7755,3,-347,-120,-1063,99,132
7760,3,-343,-127,-1035,64,156
7765,0,-334,-130,-1016,27,171
7770,0,-326,-138,-999,-2,182
7775,0,-322,-131,-985,-18,185
7780,-1,-318,-133,-972,-19,176
7785,0,-316,-131,-955,-9,170
7790,-3,-314,-125,-933,8,158
7795,-8,-311,-121,-904,25,140
7800,-9,-309,-114,-863,38,120
7805,-10,-305,-103,-814,43,101
7810,-8,-300,-100,-762,45,84
7815,-12,-298,-89,-704,43,69
7820,-7,-296,-86,-645,35,58
7825,-2,-291,-86,-590,25,52
7830,-4,-288,-79,-538,6,47
7835,-3,-286,-79,-493,-15,47
7840,-1,-285,-83,-453,-45,51
7845,-6,-279,-77,-416,-78,60
7850,-1,-277,-83,-386,-116,70
7855,1,-277,-80,-365,-154,81
7860,3,-277,-85,-350,-187,93
7865,3,-270,-86,-344,-216,107
7870,7,-270,-86,-339,-236,118
7875,7,-272,-87,-339,-246,129
7880,12,-270,-89,-338,-245,135
7885,10,-270,-91,-336,-239,140
7890,10,-275,-92,-334,-224,139
7895,12,-275,-93,-330,-208,133
7900,13,-279,-96,-325,-188,130
7905,13,-280,-95,-318,-166,120
7910,10,-280,-96,-311,-144,107
7915,14,-282,-97,-300,-123,97
7920,9,-287,-98,-286,-102,84
7925,8,-286,-99,-262,-83,71
7930,10,-290,-103,-231,-68,59
7935,9,-290,-99,-193,-59,48
7940,6,-291,-100,-144,-54,39
7945,9,-292,-100,-83,-51,32
7950,9,-290,-99,-17,-50,27
7955,7,-293,-98,54,-50,23
7960,4,-289,-95,129,-50,20
7965,7,-287,-100,203,-48,18
7970,5,-287,-94,273,-45,12
7975,6,-280,-90,338,-35,8
7980,7,-281,-90,394,-23,3
7985,8,-277,-91,444,-9,-4
7990,8,-271,-85,485,7,-9
7995,7,-269,-89,517,23,-15
8000,11,-269,-84,541,38,-23
8005,8,-265,-86,556,50,-34
8010,5,-266,-86,560,58,-43
8015,10,-261,-87,552,60,-51
8020,7,-263,-89,536,57,-57
8025,4,-263,-85,512,50,-65
8030,6,-261,-84,484,40,-67
8035,6,-264,-87,459,28,-69
8040,4,-264,-85,436,17,-71
8045,1,-266,-83,420,8,-73
8050,1,-266,-83,413,1,-76
8055,1,-270,-82,414,-5,-82
8060,0,-267,-82,426,-9,-89
8065,-1,-271,-82,449,-12,-99
8070,-8,-265,-77,480,-13,-106
8075,-8,-270,-73,516,-14,-112
8080,-10,-267,-74,553,-14,-117
8085,-9,-266,-75,590,-17,-120
8090,-12,-266,-78,626,-22,-125
8095,-9,-262,-75,657,-31,-127
8100,-12,-260,-74,687,-40,-124
8105,-13,-258,-71,713,-48,-121
8110,-9,-260,-72,734,-57,-118
8115,-8,-253,-67,751,-65,-113
8120,-9,-256,-70,765,-73,-107
8125,-8,-250,-66,774,-79,-100
8130,-8,-250,-67,777,-83,-95
8135,-7,-250,-67,774,-87,-89
8140,-2,-248,-67,763,-93,-83
8145,-4,-248,-70,744,-100,-76
8150,0,-248,-74,714,-111,-70
8155,0,-248,-70,681,-123,-61
8160,0,-251,-70,649,-135,-56
8165,2,-250,-72,617,-147,-52
8170,2,-250,-67,597,-160,-50
8175,8,-253,-67,588,-169,-49
8180,6,-253,-70,588,-178,-51
8185,7,-249,-63,599,-185,-55
8190,9,-249,-58,621,-192,-59
8195,9,-245,-58,653,-199,-64
8200,10,-242,-51,692,-206,-70
8205,9,-236,-51,731,-213,-73
8210,9,-231,-54,760,-219,-77
8215,18,-224,-61,777,-225,-82
8220,9,-226,-55,784,-230,-83
8225,8,-219,-57,773,-234,-84
8230,6,-218,-58,745,-240,-82
8235,7,-213,-59,700,-247,-80
8240,6,-213,-60,645,-257,-76
8245,5,-212,-61,580,-264,-69
8250,2,-213,-61,510,-274,-61
8255,5,-215,-58,447,-282,-55
8260,4,-215,-56,399,-286,-49
8265,6,-215,-51,368,-291,-43
8270,2,-209,-56,353,-291,-35
8275,6,-220,-46,355,-288,-31
8280,5,-216,-45,367,-283,-29
8285,6,-212,-40,389,-277,-27
8290,8,-214,-38,418,-268,-30
8295,11,-211,-40,452,-256,-33
8300,11,-208,-41,491,-241,-38
8305,12,-205,-39,520,-226,-45
8310,15,-203,-40,546,-211,-53
8315,16,-200,-44,560,-196,-61
8320,17,-196,-44,558,-183,-74
8325,17,-194,-44,538,-169,-85
8330,19,-195,-44,507,-155,-100
8335,25,-194,-50,461,-142,-109
8340,25,-195,-49,410,-132,-113
8345,22,-194,-52,355,-122,-117
8350,27,-198,-50,305,-114,-123
8355,27,-199,-46,260,-102,-131
8360,30,-201,-47,226,-85,-143
8365,33,-204,-46,205,-63,-152
8370,32,-212,-40,192,-37,-162
8375,35,-214,-37,193,-7,-168
8380,35,-216,-38,199,21,-173
8385,36,-221,-40,205,51,-174
8390,34,-226,-42,203,79,-172
8395,32,-229,-39,190,106,-165
8400,32,-235,-42,169,129,-157
8405,29,-242,-41,146,145,-150
8410,30,-247,-40,126,154,-141
8415,25,-249,-39,106,160,-129
8420,23,-253,-40,96,163,-117
8425,21,-253,-41,100,160,-104
8430,17,-257,-42,118,155,-93
8435,16,-260,-40,140,150,-80
8440,16,-256,-39,166,141,-69
8445,12,-254,-40,193,131,-57
8450,9,-256,-41,216,121,-49
8455,5,-258,-43,240,108,-43
8460,1,-257,-44,260,96,-37
8465,1,-255,-40,279,85,-35
8470,0,-257,-33,292,75,-32
8475,0,-257,-36,298,64,-29
8480,0,-259,-39,301,57,-26
8485,-2,-262,-32,303,53,-24
8490,0,-263,-35,308,45,-22
8495,-1,-263,-29,316,39,-21
8500,-1,-262,-29,330,38,-19
8505,2,-261,-25,346,36,-18
8510,2,-262,-22,361,35,-17
8515,5,-262,-24,380,33,-17
8520,5,-262,-21,394,30,-15
8525,7,-263,-22,410,26,-15
8530,8,-260,-20,419,21,-11
8535,9,-259,-14,426,15,-9
8540,13,-257,-13,431,9,-7
8545,13,-254,-9,436,9,-4
8550,18,-254,-3,444,7,-2
8555,15,-253,-5,451,8,0
8560,17,-248,0,454,7,5
8565,21,-250,-2,450,8,8
8570,24,-245,-4,435,9,10
8575,20,-248,0,413,16,14
8580,27,-244,0,386,20,16
8585,27,-243,-2,361,26,19
8590,29,-248,2,336,34,20
8595,28,-244,1,310,41,20
8600,28,-245,0,284,46,20
8605,28,-245,2,258,50,20
8610,27,-245,-1,231,52,19
8615,25,-246,-4,205,54,17
8620,26,-248,0,177,56,13
8625,25,-249,-1,151,60,9
8630,22,-250,-7,127,66,6
8635,23,-253,-4,104,73,3
8640,24,-252,-1,82,79,0
8645,21,-256,-6,62,86,-4
8650,20,-256,-10,46,91,-7
8655,16,-258,-1,31,96,-9
8660,16,-258,-6,22,100,-12
8665,13,-258,-6,16,107,-15
8670,15,-263,0,19,110,-18
8675,10,-264,-7,27,115,-18
8680,11,-264,-4,36,117,-18
8685,10,-266,-6,49,117,-16
8690,8,-263,-3,62,112,-13
8695,6,-262,-5,73,106,-5
8700,4,-259,0,83,98,1
8705,8,-260,-7,86,90,7
8710,7,-258,0,90,80,13
8715,4,-257,0,89,68,21
8720,6,-256,1,87,57,29
8725,7,-256,4,85,48,36
8730,7,-255,6,84,37,42
8735,7,-255,9,82,28,50
8740,8,-256,9,79,19,56
8745,9,-255,9,76,11,59
8750,8,-256,10,74,6,63
8755,9,-256,12,72,0,63
8760,11,-257,8,66,-1,65
8765,9,-256,4,63,-5,67
8770,11,-260,5,59,-8,67
8775,8,-256,4,55,-13,67
8780,6,-256,2,53,-16,70
8785,5,-257,7,54,-17,72
8790,7,-256,4,57,-19,75
8795,4,-259,2,61,-17,78
8800,10,-261,2,64,-15,81
8805,5,-256,2,67,-15,84
8810,17,-266,-3,69,-16,90
8815,3,-258,4,68,-22,95
8820,8,-258,0,65,-30,100
8825,3,-258,0,64,-39,104
8830,1,-256,-1,61,-50,109
8835,1,-256,0,61,-59,114
8840,1,-257,2,65,-69,117
8845,4,-256,2,68,-77,118
8850,0,-254,2,75,-86,119
8855,1,-256,2,80,-96,119
8860,1,-252,3,81,-106,117
8865,6,-243,-3,75,-118,117
8870,1,-248,4,67,-133,115
8875,-3,-245,8,53,-147,113
8880,-1,-244,6,38,-160,109
8885,-3,-244,7,24,-173,105
8890,-10,-243,5,10,-182,101
8895,-7,-244,6,-5,-193,101
8900,-8,-243,12,-20,-201,101
8905,-7,-242,9,-35,-207,104
8910,-7,-245,13,-48,-213,105
8915,-7,-250,10,-62,-217,107
8920,0,-251,8,-72,-215,109
8925,1,-255,13,-75,-212,110
8930,-1,-255,14,-79,-204,111
8935,3,-258,16,-80,-196,112
8940,3,-258,17,-79,-185,113
8945,5,-258,21,-78,-173,111
8950,12,-262,15,-79,-162,110
8955,11,-260,20,-77,-151,109
8960,18,-261,21,-73,-140,105
8965,17,-261,21,-65,-132,102
8970,22,-261,16,-56,-124,98
8975,23,-260,18,-44,-115,95
8980,26,-260,19,-33,-109,90
8985,26,-260,17,-18,-103,83
8990,25,-258,14,-6,-97,76
8995,25,-256,16,5,-89,68
9000,24,-256,14,15,-78,60
9005,24,-255,18,21,-67,52
9010,21,-253,20,26,-54,45
9015,21,-251,17,28,-41,36
9020,18,-250,18,27,-24,29
9025,16,-253,22,26,-10,22
9030,16,-249,21,21,6,16
9035,16,-249,21,17,22,9
9040,14,-249,21,14,37,1
9045,11,-247,18,12,54,-6
9050,8,-244,24,7,72,-14
9055,10,-244,22,-2,92,-23
9060,9,-244,24,-10,110,-33
9065,8,-242,20,-20,126,-43
9070,9,-240,20,-32,141,-54
9075,6,-242,19,-45,153,-63
9080,7,-243,23,-57,159,-71
9085,5,-244,21,-67,161,-79
9090,4,-243,24,-78,160,-84
9095,3,-247,20,-88,157,-86
9100,0,-245,21,-97,153,-90
9105,0,-247,21,-106,150,-94
9110,0,-247,20,-113,149,-95
9115,1,-250,22,-122,146,-96
9120,-1,-253,18,-131,146,-97
9125,-5,-248,23,-136,146,-99
9130,-7,-248,23,-136,146,-100
9135,-8,-252,29,-130,149,-100
9140,-8,-255,27,-120,155,-103
9145,-1,-255,31,-105,164,-104
9150,-2,-256,30,-87,178,-106
9155,-2,-260,26,-77,198,-107
9160,2,-260,22,-70,222,-107
9165,2,-266,23,-78,243,-104
9170,5,-272,19,-98,257,-98
9175,5,-271,17,-129,263,-89
9180,8,-274,12,-159,260,-79
9185,8,-275,9,-184,250,-68
9190,11,-275,6,-192,232,-56
9195,13,-277,3,-186,205,-44
9200,12,-271,6,-170,178,-30
9205,10,-266,2,-142,150,-18
9210,13,-264,4,-109,122,-8
9215,6,-256,2,-76,94,-2
9220,4,-253,11,-44,67,2
9225,2,-244,7,-16,43,3
9230,3,-241,8,1,24,1
9235,0,-234,6,10,9,-4
9240,-8,-232,12,7,2,-12
9245,-8,-228,9,-11,-2,-22
9250,-7,-228,11,-41,-1,-33
9255,-8,-229,12,-79,5,-45
9260,-9,-229,12,-122,15,-59
9265,-10,-235,14,-162,27,-69
9270,-9,-238,15,-203,40,-80
9275,-9,-243,16,-239,53,-88
9280,-5,-250,21,-265,63,-93
9285,-5,-256,19,-282,73,-97
9290,-7,-259,22,-291,77,-96
9295,-2,-268,25,-285,83,-96
9300,1,-274,21,-271,83,-94
9305,1,-274,23,-248,87,-90
9310,3,-279,18,-218,87,-87
9315,4,-280,15,-184,87,-83
9320,2,-281,14,-149,85,-79
9325,3,-281,13,-111,82,-74
9330,5,-277,6,-74,81,-70
9335,5,-277,6,-38,78,-66
9340,10,-278,9,-4,76,-61
9345,6,-271,7,29,75,-59
9350,7,-264,6,57,73,-57
9355,8,-264,2,76,72,-54
9360,10,-260,5,87,71,-53
9365,8,-258,3,92,67,-53
9370,10,-254,2,88,64,-53
9375,13,-255,10,76,62,-52
9380,14,-250,8,59,59,-51
9385,14,-248,9,36,57,-49
9390,14,-248,10,14,53,-46
9395,15,-245,13,-8,50,-41
9400,17,-247,14,-31,47,-39
9405,19,-245,12,-51,45,-34
9410,14,-252,18,-68,46,-32
9415,15,-250,17,-85,47,-28
9420,16,-254,16,-100,53,-25
9425,14,-255,18,-112,61,-22
9430,15,-255,16,-121,73,-22
9435,16,-257,16,-128,87,-19
9440,12,-258,13,-135,98,-17
9445,16,-260,11,-141,105,-17
9450,13,-257,6,-148,108,-17
9455,12,-257,7,-155,109,-17
9460,9,-255,22,-155,107,-18
9465,13,-255,6,-150,106,-20
9470,11,-256,8,-142,106,-25
9475,13,-253,8,-130,110,-29
9480,5,-250,7,-120,115,-37
9485,10,-253,7,-111,122,-45
9490,6,-248,8,-106,132,-53
9495,8,-252,8,-108,138,-59
9500,8,-247,12,-114,146,-66
9505,5,-252,12,-126,152,-72
9510,9,-251,10,-139,158,-78
9515,9,-252,9,-154,161,-81
9520,7,-250,5,-170,164,-85
9525,8,-256,8,-189,164,-85
9530,7,-255,8,-206,163,-85
9535,8,-256,8,-218,161,-83
9540,4,-257,9,-229,159,-79
9545,6,-261,4,-234,156,-75
9550,8,-262,4,-234,154,-69
9555,4,-263,4,-226,149,-64
9560,4,-266,3,-215,144,-60
9565,4,-265,4,-201,138,-57
9570,4,-269,5,-184,132,-55
9575,1,-268,3,-163,125,-53
9580,5,-268,4,-138,118,-52
9585,5,-268,0,-111,113,-52
9590,3,-266,4,-87,106,-50
9595,5,-265,2,-68,99,-50
9600,6,-266,1,-50,92,-49
9605,4,-259,2,-41,86,-48
9610,10,-258,4,-34,79,-47
9615,8,-257,4,-32,72,-47
9620,9,-256,2,-32,67,-45
9625,14,-256,4,-36,62,-42
9630,11,-253,8,-40,61,-38
9635,16,-255,9,-43,58,-34
9640,15,-253,5,-45,58,-31
9645,12,-253,6,-48,58,-28
9650,17,-252,7,-51,58,-24
9655,19,-256,14,-56,58,-21
9660,20,-255,8,-62,59,-17
9665,16,-253,4,-72,61,-14
9670,14,-256,7,-78,64,-12
9675,16,-254,6,-87,68,-12
9680,17,-254,7,-95,75,-12
9685,15,-258,4,-103,81,-12
9690,14,-258,5,-110,86,-13
9695,17,-258,0,-116,91,-12
9700,15,-260,4,-118,97,-12
9705,12,-259,0,-121,99,-14
9710,18,-260,3,-121,101,-15
9715,12,-262,1,-117,104,-17
9720,12,-259,1,-110,104,-18
9725,12,-259,-2,-100,104,-18
9730,14,-260,1,-87,104,-20
9735,15,-262,-5,-76,103,-20
9740,14,-258,1,-63,103,-21
9745,13,-260,0,-51,102,-20
9750,9,-261,-1,-42,103,-19
9755,14,-259,1,-35,103,-18
9760,12,-258,4,-33,102,-18
9765,13,-258,2,-31,100,-18
9770,15,-258,-1,-32,97,-17
9775,14,-254,0,-33,95,-16
9780,17,-257,2,-39,93,-19
9785,16,-255,1,-42,92,-20
9790,16,-257,0,-49,93,-22
9795,14,-256,1,-51,93,-23
9800,16,-258,-1,-52,92,-25
9805,16,-258,0,-54,90,-26
9810,16,-257,0,-54,90,-27
9815,14,-259,2,-55,89,-27
9820,14,-259,1,-52,88,-29
9825,11,-259,0,-49,88,-30
9830,13,-261,0,-44,87,-30
9835,13,-260,-1,-41,85,-32
9840,11,-258,1,-35,82,-32
9845,13,-260,1,-31,79,-30
9850,11,-260,1,-30,73,-30
9855,11,-255,1,-28,67,-27
9860,11,-257,-1,-24,64,-26
9865,8,-257,2,-21,60,-25
9870,10,-256,3,-19,57,-24
9875,9,-255,1,-17,55,-21
9880,10,-257,2,-15,53,-19
9885,12,-254,1,-15,50,-17
9890,13,-256,4,-17,46,-16
9895,8,-255,1,-21,42,-16
9900,16,-257,-3,-28,37,-14
9905,13,-256,2,-34,31,-13
9910,11,-256,0,-39,28,-13
9915,12,-257,0,-46,26,-13
9920,15,-256,2,-51,23,-13
9925,15,-256,5,-55,19,-13
9930,14,-256,1,-57,18,-11
9935,14,-256,2,-59,16,-11
9940,14,-259,1,-60,14,-11
9945,12,-257,4,-58,12,-10
9950,17,-256,-3,-59,9,-10
9955,13,-257,5,-59,7,-9
9960,12,-260,1,-58,7,-9
9965,11,-258,0,-60,5,-6
9970,13,-258,0,-61,2,-6
9975,12,-257,-2,-61,-1,-6
9980,12,-255,-1,-62,-3,-3
9985,9,-257,2,-61,-6,-2
9990,9,-257,0,-59,-8,-1
9995,13,-260,1,-60,-12,-1
10000,12,-259,2,-58,-14,-1
10005,18,-262,17,-55,-16,0
10010,13,-259,3,-54,-18,0
10015,11,-257,2,-53,-20,0
10020,13,-257,1,-52,-21,0
10025,12,-256,5,-51,-22,-1
10030,12,-256,2,-50,-24,-1
10035,12,-258,3,-50,-24,2
10040,14,-258,1,-51,-25,1
10045,11,-256,2,-52,-25,2
10050,8,-258,4,-53,-26,3
10055,13,-256,2,-51,-27,4
10060,13,-259,1,-52,-29,4
10065,11,-259,4,-50,-32,7
10070,10,-257,5,-49,-31,7
10075,14,-257,7,-46,-34,7
10080,10,-256,3,-45,-37,8
10085,13,-259,2,-43,-41,8
10090,10,-255,0,-38,-44,8
10095,12,-257,0,-40,-46,8
10100,12,-256,2,-39,-47,10
10105,10,-257,2,-40,-46,10
10110,13,-256,3,-41,-45,10
10115,15,-257,5,-41,-43,8
10120,14,-256,6,-41,-39,8
10125,13,-256,5,-40,-36,7
10130,12,-256,2,-42,-34,5
10135,13,-257,4,-40,-32,4
10140,13,-258,7,-40,-31,3
10145,10,-258,6,-38,-30,2
10150,9,-259,8,-38,-28,0
10155,11,-258,5,-38,-28,-2
10160,11,-259,5,-36,-29,-2
10165,11,-258,1,-38,-29,-1
10170,13,-259,6,-37,-30,0
10175,10,-259,1,-37,-30,1
10180,10,-260,1,-38,-33,0
10185,16,-263,3,-36,-33,2
10190,13,-260,4,-32,-33,3
10195,12,-261,4,-27,-35,6
10200,13,-259,3,-21,-33,8
10205,14,-258,2,-16,-33,7
10210,15,-258,0,-13,-33,7
10215,12,-257,1,-8,-33,7
10220,12,-258,1,-5,-32,6
10225,12,-257,0,-5,-32,6
10230,13,-257,3,-5,-32,5
10235,13,-256,1,-6,-30,5
10240,15,-255,3,-7,-29,4
10245,16,-259,1,-9,-28,4
10250,11,-256,3,-9,-28,3
10255,17,-259,1,-11,-26,3
10260,14,-260,2,-11,-25,3
10265,13,-257,7,-11,-23,1
10270,13,-257,2,-10,-23,2
10275,14,-259,6,-8,-22,2
10280,12,-258,5,-5,-23,2
10285,13,-258,2,-4,-24,4
10290,14,-258,4,-2,-24,4
10295,14,-257,3,-2,-23,4
10300,12,-259,3,0,-23,5
10305,12,-258,4,1,-24,6
10310,17,-257,4,5,-24,5
10315,16,-259,5,6,-25,6
10320,16,-258,6,9,-27,6
10325,12,-257,2,12,-27,7
10330,14,-256,8,16,-27,6
10335,13,-255,8,18,-26,7
10340,15,-254,5,17,-24,5
10345,15,-256,8,16,-21,3
10350,14,-256,6,14,-20,3
10355,14,-252,8,10,-18,1
10360,14,-254,4,4,-17,2
10365,15,-254,8,-1,-15,1
10370,14,-255,6,-5,-13,-2
10375,11,-252,7,-7,-12,-5
10380,13,-254,7,-11,-12,-7
10385,14,-255,5,-11,-10,-7
10390,14,-255,5,-10,-6,-8
10395,13,-255,8,-11,-6,-10
10400,12,-252,7,-12,-5,-12
10405,14,-255,5,-15,-4,-13
10410,10,-254,8,-18,-2,-15
10415,16,-256,9,-20,-1,-15
10420,12,-253,8,-23,1,-19
10425,13,-255,6,-26,2,-19
10430,12,-254,9,-28,5,-20
10435,14,-255,9,-32,7,-20
10440,14,-253,8,-36,10,-22
10445,13,-253,14,-36,12,-21
10450,11,-258,13,-37,15,-19
10455,13,-255,9,-38,15,-17
10460,13,-258,5,-38,13,-17
10465,11,-256,4,-39,10,-14
10470,9,-255,7,-44,7,-11
10475,11,-255,6,-50,1,-10
10480,8,-255,9,-58,-1,-8
10485,12,-257,5,-65,-4,-5
10490,11,-256,8,-69,-5,-2
10495,15,-257,1,-73,-7,1
10500,11,-258,6,-74,-11,2
10505,12,-257,4,-75,-13,4
10510,11,-259,3,-75,-12,7
10515,11,-259,3,-73,-13,9
10520,14,-259,0,-72,-11,8
10525,13,-261,2,-71,-9,9
10530,12,-262,0,-67,-9,7
10535,13,-261,6,-63,-8,10
10540,13,-262,6,-58,-7,8
10545,15,-260,4,-51,-6,7
10550,9,-269,8,-45,-6,7
10555,15,-258,4,-39,-5,5
10560,17,-262,8,-35,-2,4
10565,15,-261,8,-30,-2,4
10570,16,-260,6,-24,0,3
10575,10,-260,8,-20,3,2
10580,15,-257,9,-15,6,2
10585,14,-257,6,-11,9,1
10590,14,-256,8,-7,9,-1
10595,17,-257,11,-5,11,-1
10600,14,-256,8,-4,12,0
10605,22,-262,22,-3,11,-1
10610,16,-255,7,0,11,-2
10615,12,-255,8,1,12,-2
10620,12,-257,8,0,13,-3
10625,14,-255,7,-2,13,-3
10630,12,-254,7,-6,14,-3
10635,9,-255,6,-10,14,-5
10640,9,-255,6,-11,16,-6
10645,10,-257,10,-14,16,-7
10650,9,-255,9,-16,17,-9
10655,9,-256,7,-19,18,-7
10660,13,-261,17,-19,18,-9
10665,12,-258,7,-20,18,-10
10670,11,-257,9,-19,18,-10
10675,8,-256,10,-20,19,-10
10680,9,-258,8,-21,19,-10
10685,11,-257,11,-20,18,-8
10690,11,-258,8,-21,17,-7
10695,11,-258,10,-21,15,-7
10700,12,-256,4,-21,15,-6
10705,12,-258,7,-23,13,-3
10710,11,-258,9,-22,10,-3
10715,14,-258,7,-22,9,-3
10720,12,-257,9,-23,6,-2
10725,12,-258,9,-20,4,0
10730,12,-254,8,-18,4,-1
10735,14,-258,7,-16,2,1
10740,8,-256,9,-14,1,-1
10745,13,-259,8,-15,1,0
10750,13,-256,6,-15,1,0
10755,14,-257,11,-14,0,0
10760,17,-258,9,-15,-1,0
10765,13,-255,9,-16,-2,1
10770,11,-257,9,-18,-3,1
10775,12,-256,7,-19,-3,1
10780,12,-258,6,-20,-3,1
10785,11,-256,11,-19,-3,2
10790,12,-255,10,-19,-3,0
10795,11,-255,7,-19,-3,1
10800,10,-256,6,-18,-3,2
10805,11,-259,8,-18,-3,3
10810,13,-257,9,-19,-3,4
10815,9,-255,8,-18,-3,5
10820,11,-260,7,-18,-3,5
10825,13,-259,7,-19,-3,5
10830,9,-258,6,-20,-2,5
10835,10,-257,8,-16,-1,3
10840,10,-256,9,-16,1,5
10845,10,-257,9,-15,2,2
10850,12,-254,6,-15,2,0
10855,13,-257,9,-14,1,0
10860,10,-254,9,-13,2,0
10865,11,-257,7,-13,3,0
10870,13,-253,9,-13,4,-1
10875,14,-255,9,-13,6,-1
10880,14,-255,9,-18,7,-1
10885,10,-256,10,-18,6,0
10890,15,-255,6,-20,5,0
10895,12,-257,10,-22,5,0
10900,9,-256,8,-26,4,1
10905,10,-257,10,-28,3,0
10910,11,-255,11,-29,2,1
10915,12,-256,12,-31,1,3
10920,9,-255,9,-31,1,3
10925,9,-254,8,-29,-1,4
10930,11,-255,9,-29,-1,5
10935,12,-256,6,-28,-3,5
10940,12,-257,12,-26,-4,6
10945,9,-255,10,-26,-4,6
10950,10,-255,8,-28,-4,6
10955,10,-255,9,-27,-4,6
10960,13,-256,8,-28,-4,6
10965,10,-253,8,-28,-4,4
10970,10,-255,12,-28,-4,6
10975,12,-253,12,-31,-5,4
10980,12,-254,7,-33,-6,5
10985,13,-257,11,-36,-6,4
10990,13,-255,10,-38,-5,4
10995,11,-257,8,-38,-4,3
11000,11,-256,13,-42,-2,3
11005,12,-255,8,-42,-2,2
11010,11,-255,10,-43,-3,3
11015,13,-257,8,-44,-2,3
11020,12,-256,12,-44,-2,4
11025,13,-259,9,-43,-2,4
11030,11,-256,9,-43,-2,4
11035,11,-256,12,-44,-2,3
11040,10,-257,10,-47,-2,3
11045,13,-256,8,-47,-3,5
11050,8,-256,7,-47,-3,5
11055,8,-256,9,-46,-3,4
11060,7,-256,10,-48,-4,6
11065,9,-255,10,-49,-4,6
11070,8,-255,11,-49,-6,8
11075,12,-258,11,-49,-6,7
11080,11,-257,11,-48,-6,7
11085,11,-256,12,-45,-6,9
11090,11,-257,14,-46,-7,8
11095,10,-258,9,-43,-6,8
11100,11,-257,8,-42,-6,8
11105,9,-256,13,-40,-6,8
11110,14,-258,11,-36,-5,7
11115,10,-256,9,-33,-4,6
11120,12,-255,10,-31,-4,6
11125,14,-257,11,-29,-2,5
11130,13,-258,6,-29,-2,6
11135,11,-256,10,-30,-1,6
11140,11,-258,10,-30,-2,6
11145,12,-258,11,-29,-3,6
11150,20,-259,13,-29,-3,7
11155,12,-256,11,-31,-2,8
11160,10,-258,9,-31,-2,7
11165,12,-255,17,-32,-2,6
11170,11,-257,11,-28,-1,6
11175,12,-257,9,-26,0,4
11180,11,-252,15,-25,-1,5
11185,12,-255,8,-23,0,6
11190,12,-257,10,-24,0,6
11195,12,-256,14,-24,0,6
11200,11,-254,10,-25,-1,8
11205,15,-262,21,-27,0,6
11210,7,-255,7,-31,0,4
11215,11,-254,10,-31,0,5
11220,13,-256,6,-33,2,4
11225,13,-255,9,-34,1,4
11230,11,-256,10,-35,2,2
11235,12,-256,10,-39,4,4
11240,11,-256,13,-41,6,2
11245,10,-256,7,-43,6,3
11250,13,-260,11,-46,8,2
11255,12,-258,6,-45,11,2
11260,10,-256,8,-47,13,2
11265,10,-258,10,-46,14,3
11270,12,-258,8,-44,14,3
11275,12,-256,11,-43,14,3
11280,16,-259,8,-38,15,3
11285,11,-255,10,-35,14,3
11290,10,-257,9,-36,14,2
11295,8,-257,13,-34,13,4
11300,22,-237,4,-32,11,4
11305,11,-260,9,-31,12,4
11310,11,-255,7,-31,11,4
11315,11,-256,10,-33,9,4
11320,11,-257,12,-33,7,6
11325,12,-256,11,-36,6,7
11330,12,-255,10,-37,7,8
11335,12,-256,11,-35,5,7
11340,12,-256,11,-36,4,9
11345,9,-257,11,-36,5,8
11350,9,-257,12,-34,4,10
11355,9,-255,8,-32,4,9
11360,9,-254,11,-31,3,9
11365,12,-258,8,-30,4,9
11370,9,-255,9,-31,4,9
11375,11,-258,7,-30,5,9
11380,10,-259,14,-29,6,9
11385,9,-258,8,-27,8,8
11390,10,-258,7,-26,7,8
11395,9,-255,9,-23,8,8
11400,14,-258,7,-22,8,6
11405,9,-255,10,-21,9,7
11410,10,-256,11,-19,8,7
11415,11,-257,12,-19,8,6
11420,12,-258,12,-19,9,5
11425,11,-256,8,-19,9,4
11430,9,-253,10,-20,8,5
11435,9,-256,8,-22,8,3
11440,12,-256,9,-20,6,3
11445,10,-256,15,-23,5,2
11450,13,-256,11,-24,5,2
11455,10,-256,8,-24,5,3
11460,8,-255,10,-24,4,1
11465,8,-256,9,-27,7,2
11470,9,-256,12,-27,7,2
11475,9,-256,11,-26,8,2
11480,11,-255,8,-26,6,1
11485,8,-256,12,-27,5,3
11490,11,-258,13,-28,4,3
11495,10,-256,15,-29,4,0
11500,10,-255,11,-30,4,3
11505,9,-259,11,-30,2,3
11510,8,-255,11,-30,1,5
11515,11,-258,10,-28,-1,5
11520,8,-256,15,-26,-1,5
11525,13,-258,11,-26,-2,6
11530,11,-255,11,-26,-3,7
11535,11,-252,9,-24,-3,5
11540,11,-255,13,-22,-4,5
11545,12,-255,13,-23,-3,5
11550,6,-253,8,-22,-3,5
11555,14,-255,9,-24,-3,5
11560,10,-256,11,-24,-3,4
11565,10,-256,8,-27,-3,3
11570,11,-256,9,-28,-3,3
11575,12,-254,10,-29,-2,4
11580,13,-255,13,-32,-1,2
11585,12,-255,13,-34,-1,3
11590,13,-256,15,-35,0,1
11595,13,-256,9,-37,1,2
11600,13,-255,13,-38,1,1
11605,11,-256,10,-40,0,2
11610,11,-255,12,-40,0,1
11615,11,-255,12,-39,1,2
11620,12,-256,10,-38,-1,2
11625,9,-253,12,-39,-2,3
11630,11,-258,13,-39,-1,3
11635,11,-261,7,-40,-3,3
11640,13,-257,12,-41,-1,3
11645,15,-256,13,-41,-2,2
11650,10,-255,12,-42,-1,2
11655,12,-260,12,-42,-2,1
11660,13,-254,9,-42,-2,1
11665,10,-255,11,-42,-1,0
11670,8,-254,11,-42,1,0
11675,13,-256,9,-43,1,0
11680,13,-261,11,-42,1,0
11685,11,-257,12,-40,2,-2
11690,13,-256,10,-41,4,-3
11695,12,-256,11,-40,5,-4
11700,9,-254,11,-41,4,-4
11705,11,-257,12,-42,5,-6
11710,12,-256,11,-40,5,-6
11715,11,-256,12,-39,5,-4
11720,13,-256,7,-39,5,-5
11725,11,-257,12,-40,7,-6
11730,10,-255,15,-39,8,-3
11735,12,-257,11,-41,7,-4
11740,9,-256,14,-40,6,-4
11745,11,-255,8,-40,7,-3
11750,19,-267,18,-41,7,-3
11755,11,-256,9,-42,8,-4
11760,10,-256,12,-41,8,-4
11765,11,-256,12,-42,8,-4
11770,13,-256,8,-42,8,-3
11775,11,-257,9,-43,7,-5
11780,11,-257,15,-45,8,-4
11785,8,-256,14,-47,8,-3
11790,11,-255,13,-47,8,-3
11795,14,-259,7,-45,8,-4
11800,21,-256,16,-47,9,-3
11805,11,-257,13,-46,9,-4
11810,12,-255,11,-47,9,-3
11815,13,-256,11,-45,9,-3
11820,8,-254,15,-44,10,-4
11825,9,-257,13,-43,9,-6
11830,11,-256,14,-41,10,-6
11835,8,-253,10,-42,10,-4
11840,12,-256,12,-43,11,-6
11845,9,-255,12,-42,12,-8
11850,12,-255,12,-42,12,-8
11855,12,-257,10,-43,13,-7
11860,12,-256,15,-42,14,-7
11865,7,-256,18,-43,16,-6
11870,14,-256,9,-43,16,-6
11875,10,-255,12,-41,16,-8
11880,10,-255,16,-40,16,-8
11885,12,-257,15,-41,16,-7
11890,11,-256,11,-40,15,-8
11895,11,-256,9,-40,15,-8
11900,8,-256,17,-40,14,-8
11905,10,-254,16,-39,12,-7
11910,7,-253,12,-39,12,-7
11915,10,-255,10,-42,11,-6
11920,12,-256,14,-45,9,-5
11925,13,-254,14,-48,9,-6
11930,12,-255,12,-51,9,-5
11935,12,-255,11,-53,10,-6
11940,13,-257,8,-53,9,-6
11945,10,-256,10,-54,9,-7
11950,12,-257,9,-52,11,-6
11955,13,-258,13,-50,12,-6
11960,10,-258,12,-51,11,-5
11965,10,-255,14,-50,12,-7
11970,9,-257,11,-50,14,-6
11975,11,-256,13,-50,15,-7
11980,9,-257,13,-49,16,-7
11985,12,-257,10,-47,14,-7
11990,10,-257,13,-44,14,-7
11995,9,-258,13,-43,15,-7
