timestamp,acc_x,acc_y,acc_z,gyro_x,gyro_y,gyro_z
0,-2,-254,-59,-14,72,-5
5,-2,-256,-62,-14,73,-4
10,-6,-252,-54,-12,75,-4
15,-3,-255,-56,-11,79,-4
20,-7,-256,-62,-10,79,-5
25,-6,-256,-54,-7,79,-6
30,-7,-254,-59,-7,78,-5
35,-6,-255,-57,-8,76,-5
40,-6,-256,-55,-8,76,-5
45,-8,-255,-53,-8,75,-6
50,-4,-254,-55,-8,73,-5
55,-1,-256,-60,-7,72,-4
60,-6,-254,-58,-9,70,-5
65,-5,-254,-59,-9,68,-6
70,-4,-257,-55,-11,68,-5
75,-9,-253,-57,-12,66,-5
80,-6,-255,-56,-13,68,-3
85,-5,-257,-55,-14,69,-3
90,-4,-256,-57,-12,68,-3
95,-6,-255,-57,-14,68,-4
100,-6,-254,-54,-12,68,-4
105,-4,-256,-59,-12,68,-5
110,-5,-254,-56,-12,68,-4
115,-5,-255,-59,-14,68,-5
120,-5,-255,-62,-16,68,-4
125,-8,-255,-62,-19,66,-4
130,-5,-255,-55,-21,65,-5
135,-3,-255,-58,-24,64,-3
140,-3,-256,-55,-23,65,-3
145,-5,-256,-61,-21,64,-3
150,-4,-256,-59,-21,65,-3
155,-8,-253,-57,-20,67,-4
160,-3,-255,-61,-19,66,-4
165,-6,-254,-57,-20,66,-4
170,-4,-256,-59,-20,67,-4
175,-5,-255,-61,-20,67,-2
180,-3,-257,-59,-21,69,-4
185,-4,-256,-56,-22,71,-2
190,-5,-256,-57,-23,71,-3
195,-6,-256,-59,-22,71,-4
200,-4,-253,-60,-20,70,-4
205,-6,-256,-57,-19,69,-5
210,-4,-256,-57,-17,70,-5
215,-6,-255,-60,-15,70,-6
220,-6,-255,-59,-14,72,-5
225,-5,-255,-57,-13,74,-7
230,-7,-254,-58,-15,75,-6
235,-8,-254,-57,-15,76,-7
240,-6,-259,-60,-17,76,-6
245,-4,-257,-58,-19,76,-8
250,-5,-256,-56,-17,76,-7
255,-6,-252,-58,-14,75,-7
260,-6,-256,-59,-13,74,-6
265,-4,-255,-55,-12,72,-4
270,-3,-256,-58,-11,72,-6
275,-3,-254,-60,-11,72,-5
280,-5,-255,-59,-12,71,-6
285,-8,-254,-60,-13,69,-4
290,-2,-257,-61,-13,68,-3
295,-7,-255,-53,-12,69,-3
300,-6,-253,-56,-12,71,-3
305,-4,-255,-56,-11,70,-2
310,-6,-256,-60,-10,71,-2
315,-7,-253,-58,-11,72,-1
320,-5,-255,-55,-11,74,-1
325,-5,-257,-57,-13,74,-1
330,-4,-257,-58,-12,76,-3
335,-6,-256,-55,-11,77,-2
340,-5,-255,-55,-10,78,-2
345,-7,-255,-55,-10,78,-3
350,-8,-256,-60,-10,77,-3
355,-7,-256,-54,-9,76,-4
360,-5,-257,-57,-8,75,-4
365,-5,-255,-61,-10,75,-4
370,-3,-254,-57,-10,74,-3
375,-4,-252,-59,-11,73,-2
380,-7,-255,-63,-10,74,-3
385,-7,-254,-57,-11,76,-3
390,-5,-254,-56,-10,75,-3
395,-6,-257,-57,-11,74,-5
400,-7,-255,-58,-10,73,-5
405,-4,-254,-61,-10,71,-4
410,-8,-255,-57,-12,72,-6
415,-6,-256,-61,-12,72,-4
420,-6,-255,-57,-13,72,-5
425,-7,-255,-59,-10,69,-5
430,-5,-256,-57,-10,68,-7
435,-4,-258,-59,-8,68,-6
440,-5,-257,-60,-8,68,-5
445,-6,-256,-60,-6,68,-5
450,-5,-255,-60,-7,68,-4
455,-1,-255,-60,-6,69,-5
460,-8,-258,-61,-8,70,-8
465,-7,-254,-56,-9,72,-5
470,-2,-256,-60,-12,73,-5
475,-6,-255,-55,-11,73,-5
480,-5,-256,-54,-11,73,-6
485,-5,-256,-56,-12,74,-5
490,-6,-255,-53,-11,74,-6
495,-4,-257,-56,-10,73,-5
500,-3,-253,-60,-10,73,-6
505,-6,-255,-59,-12,73,-5
510,-8,-256,-58,-12,71,-5
515,-3,-256,-58,-15,73,-4
520,-3,-254,-56,-16,73,-4
525,-6,-256,-59,-17,73,-4
530,-6,-256,-57,-17,73,-3
535,-4,-252,-60,-18,72,-3
540,-5,-257,-56,-19,70,-4
545,-4,-256,-58,-19,72,-1
550,-6,-255,-59,-20,72,-1
555,-7,-255,-59,-20,73,-2
560,-3,-256,-57,-20,72,-5
565,-5,-253,-60,-18,72,-3
570,-7,-256,-59,-16,72,-3
575,-4,-256,-61,-14,71,-4
580,-7,-255,-55,-12,71,-4
585,-4,-255,-58,-11,70,-3
590,-7,-253,-60,-9,69,-5
595,-2,-256,-59,-9,68,-5
600,-6,-254,-57,-8,69,-5
605,-7,-254,-59,-8,69,-4
610,-7,-255,-57,-7,70,-4
615,-4,-254,-59,-8,70,-4
620,-2,-256,-59,-9,72,-5
625,-5,-257,-57,-10,70,-4
630,-6,-256,-57,-11,69,-5
635,-4,-255,-53,-11,71,-4
640,-7,-257,-54,-11,71,-5
645,-5,-255,-58,-10,71,-5
650,-7,-255,-55,-8,71,-5
655,-7,-256,-59,-8,71,-6
660,-6,-253,-54,-8,71,-4
665,-5,-255,-55,-9,71,-5
670,-5,-254,-56,-10,71,-5
675,-5,-256,-60,-10,71,-5
680,-6,-253,-56,-10,71,-5
685,-4,-255,-55,-11,72,-3
690,-5,-255,-58,-9,71,-4
695,-6,-256,-57,-9,71,-3
700,-3,-256,-58,-11,71,-2
705,-3,-256,-56,-10,71,-3
710,-5,-256,-58,-11,70,-2
715,-3,-254,-58,-12,72,-2
720,-7,-257,-57,-11,70,-2
725,-4,-256,-55,-11,69,-3
730,-5,-253,-59,-12,68,-3
735,-2,-256,-56,-12,69,-4
740,-6,-253,-56,-11,70,-3
745,-4,-256,-57,-11,72,-3
750,-5,-254,-55,-8,71,-3
755,-4,-254,-55,-7,72,-1
760,-7,-255,-56,-4,71,-4
765,-4,-258,-55,-3,71,-3
770,-5,-257,-59,-4,70,-3
775,-5,-255,-58,-4,70,-4
780,-4,-257,-54,-4,72,-3
785,-7,-259,-55,-4,72,-4
790,1,-256,-56,-5,72,-3
795,-6,-255,-59,-6,72,-3
800,-5,-255,-57,-6,73,-3
805,-3,-255,-55,-8,73,-3
810,-5,-256,-56,-8,72,-2
815,-4,-256,-53,-9,70,-3
820,-5,-255,-60,-9,72,-4
825,-4,-256,-53,-9,72,-3
830,-5,-257,-55,-8,72,-3
835,-3,-256,-55,-8,72,-4
840,-4,-254,-58,-6,70,-3
845,-4,-254,-57,-5,71,-2
850,-4,-255,-54,-4,71,-3
855,-2,-257,-58,-5,73,-3
860,-5,-255,-57,-3,71,-3
865,-7,-254,-58,-4,71,-4
870,-5,-255,-60,-6,71,-3
875,-3,-255,-56,-7,73,-1
880,-4,-254,-59,-7,73,-2
885,-7,-253,-58,-9,72,-3
890,-6,-254,-56,-8,71,-3
895,-8,-255,-59,-7,72,-3
900,-3,-255,-56,-7,71,-4
905,-1,-257,-57,-5,72,-3
910,-5,-257,-58,-5,72,-3
915,-5,-256,-56,-5,71,-3
920,-4,-258,-56,-4,73,-1
925,-5,-254,-52,-4,72,-1
930,-5,-253,-55,-5,71,-2
935,-4,-256,-54,-7,71,-2
940,-5,-253,-58,-8,70,-1
945,-5,-256,-54,-11,68,-2
950,-2,-237,-60,-11,66,0
955,-7,-255,-56,-14,66,-1
960,-5,-256,-55,-16,66,-2
965,-6,-255,-57,-17,65,-2
970,-5,-254,-56,-17,66,-2
975,-4,-255,-55,-17,66,-1
980,-5,-257,-53,-16,66,-3
985,-5,-257,-57,-15,66,-1
990,-9,-257,-56,-13,67,-3
995,-6,-255,-56,-11,68,-3
1000,-6,-256,-59,-11,69,-4
1005,-6,-248,-59,-11,71,-4
1010,-4,-256,-53,-9,74,-3
1015,-4,-251,-56,-10,75,-3
1020,-5,-263,-56,-9,73,-5
1025,-8,-255,-48,-9,73,-6
1030,-5,-255,-57,-6,73,-4
1035,0,-260,-58,-4,73,-4
1040,-7,-251,-58,-1,73,-3
1045,-4,-257,-53,0,72,-4
1050,-10,-251,-60,1,73,-4
1055,-6,-257,-51,2,73,-5
1060,-2,-255,-58,1,73,-4
1065,-5,-254,-52,-1,71,-3
1070,-5,-254,-56,-3,70,-4
1075,-3,-256,-58,-6,70,-5
1080,-6,-257,-57,-7,69,-4
1085,-4,-254,-52,-9,69,-4
1090,-10,-250,-56,-10,68,-4
1095,-6,-256,-56,-10,67,-3
1100,0,-258,-48,-10,65,-2
1105,-2,-247,-60,-10,64,-3
1110,-9,-259,-59,-13,64,-2
1115,-3,-252,-58,-13,62,-3
1120,-10,-253,-45,-14,63,-3
1125,-7,-260,-54,-11,61,-1
1130,-5,-255,-48,-10,61,-2
1135,-4,-256,-54,-9,64,-3
1140,-4,-255,-56,-10,65,-1
1145,-1,-257,-57,-11,68,-1
1150,-2,-253,-57,-13,70,1
1155,-2,-257,-55,-15,72,1
1160,-11,-256,-60,-18,72,-1
1165,-10,-255,-61,-19,72,0
1170,-5,-258,-58,-19,72,0
1175,-9,-258,-62,-15,70,1
1180,-22,-253,-40,-11,70,0
1185,-7,-269,-61,-8,71,-1
1190,-3,-261,-67,-6,70,0
1195,-1,-270,-60,-4,69,0
1200,-1,-268,-52,-3,69,-1
1205,-6,-250,-62,-4,68,-3
1210,-9,-278,-50,-6,68,-3
1215,-3,-254,-56,-6,68,-2
1220,-5,-255,-57,-10,66,-2
1225,-6,-255,-59,-10,66,-3
1230,-5,-255,-57,-13,66,-1
1235,1,-246,-49,-12,66,-1
1240,2,-251,-62,-14,66,-2
1245,-7,-251,-48,-14,66,-2
1250,-14,-256,-47,-16,65,-1
1255,-5,-249,-55,-15,64,-2
1260,-11,-252,-59,-16,63,-3
1265,-6,-244,-61,-18,66,-2
1270,-7,-253,-58,-19,67,-3
1275,-10,-253,-51,-19,69,-2
1280,-6,-253,-56,-18,70,-1
1285,-3,-255,-66,-17,70,-1
1290,-3,-257,-55,-18,69,-1
1295,-4,-257,-56,-17,70,-2
1300,-6,-257,-54,-18,69,-3
1305,-4,-256,-54,-17,68,-2
1310,-5,-255,-50,-17,67,-3
1315,-4,-253,-53,-17,66,-3
1320,-5,-268,-52,-18,67,-3
1325,2,-249,-50,-18,67,-3
1330,-3,-259,-54,-18,68,-3
1335,-14,-251,-66,-19,69,-1
1340,0,-257,-62,-20,68,-2
1345,-8,-257,-54,-19,66,-3
1350,-11,-255,-55,-20,66,-3
1355,-6,-255,-59,-18,66,-4
1360,-7,-256,-54,-17,66,-4
1365,-13,-250,-58,-18,66,-4
1370,-6,-254,-56,-20,65,-4
1375,-9,-255,-55,-17,65,-4
1380,-3,-255,-56,-16,63,-3
1385,-3,-254,-58,-16,62,-5
1390,-4,-254,-57,-15,62,-3
1395,-4,-252,-52,-18,63,-3
1400,-8,-255,-53,-19,63,-4
1405,-5,-259,-48,-20,64,-3
1410,-6,-248,-63,-19,65,-3
1415,-5,-257,-61,-19,66,-2
1420,-9,-255,-57,-19,64,-2
1425,-8,-251,-63,-18,64,-3
1430,0,-253,-61,-18,66,-3
1435,-1,-249,-56,-17,65,-3
1440,-4,-256,-58,-18,64,-3
1445,-4,-256,-55,-18,62,-3
1450,-6,-255,-54,-16,62,-4
1455,-5,-256,-56,-18,62,-5
1460,-6,-249,-63,-19,63,-5
1465,-7,-251,-41,-19,63,-5
1470,-2,-252,-54,-18,65,-5
1475,-10,-255,-55,-19,66,-4
1480,-5,-258,-54,-19,65,-5
1485,-4,-262,-59,-18,66,-5
1490,-3,-259,-53,-18,64,-4
1495,-8,-254,-58,-16,63,-4
1500,-5,-255,-57,-14,64,-4
1505,-2,-251,-57,-13,63,-4
1510,-7,-257,-57,-12,64,-2
1515,-7,-255,-56,-10,64,-3
1520,-3,-255,-58,-10,64,-4
1525,-6,-253,-58,-9,63,-3
1530,-6,-247,-35,-9,63,-4
1535,-7,-256,-56,-10,62,-4
1540,-5,-254,-55,-10,63,-4
1545,-2,-257,-57,-9,64,-1
1550,-5,-255,-53,-9,66,-2
1555,-6,-254,-53,-9,65,-2
1560,-3,-255,-53,-11,66,-3
1565,-7,-254,-59,-12,68,0
1570,-6,-254,-59,-13,70,-1
1575,-6,-253,-54,-12,71,-2
1580,-13,-254,-54,-13,72,-3
1585,-5,-254,-61,-13,72,-3
1590,-6,-256,-56,-11,71,-5
1595,-6,-257,-58,-10,71,-2
1600,-7,-247,-62,-9,72,-3
1605,-8,-256,-57,-10,72,-3
1610,-9,-255,-56,-10,72,-4
1615,-6,-257,-58,-12,69,-2
1620,-5,-257,-56,-16,68,-3
1625,-5,-259,-56,-18,64,-3
1630,-6,-256,-55,-20,64,-2
1635,-6,-256,-59,-21,62,-1
1640,-5,-256,-55,-21,61,-2
1645,-6,-257,-56,-20,63,-1
1650,-6,-254,-58,-20,64,0
1655,-8,-263,-57,-20,66,-2
1660,-7,-256,-55,-21,66,-2
1665,-7,-253,-59,-22,69,-2
1670,-6,-254,-50,-23,70,0
1675,-5,-254,-54,-25,69,0
1680,-2,-254,-60,-29,70,0
1685,-6,-255,-58,-31,72,0
1690,-4,-256,-57,-32,73,0
1695,-2,-256,-58,-31,74,0
1700,-6,-256,-57,-31,76,1
1705,-6,-256,-56,-28,77,1
1710,-4,-256,-61,-26,76,1
1715,-5,-257,-57,-27,76,0
1720,-6,-256,-59,-25,73,1
1725,-5,-255,-56,-26,72,1
1730,-5,-256,-54,-25,69,-1
1735,-4,-257,-60,-27,69,-1
1740,-9,-257,-56,-26,68,0
1745,-6,-253,-56,-26,71,-2
1750,-5,-257,-58,-27,72,-2
1755,-5,-255,-56,-26,72,-2
1760,-6,-254,-60,-26,73,-2
1765,-8,-261,-67,-27,74,0
1770,-5,-256,-56,-26,74,0
1775,-7,-255,-56,-28,75,-2
1780,-6,-255,-57,-27,74,0
1785,-6,-252,-60,-25,73,0
1790,-3,-253,-58,-23,73,-1
1795,-8,-255,-61,-20,73,-1
1800,-7,-255,-55,-20,72,1
1805,-5,-254,-58,-17,71,0
1810,-6,-256,-57,-16,71,0
1815,-2,-255,-56,-19,72,1
1820,-7,-254,-55,-20,73,1
1825,-7,-254,-60,-23,76,0
1830,-6,-256,-58,-28,75,0
1835,-8,-254,-55,-33,76,1
1840,-10,-256,-54,-36,77,1
1845,-5,-257,-57,-40,78,0
1850,-6,-254,-56,-44,75,-1
1855,-9,-255,-56,-45,76,-1
1860,-7,-256,-57,-44,76,0
1865,-5,-256,-57,-43,75,0
1870,-7,-256,-59,-39,76,0
1875,-11,-256,-56,-37,76,-2
1880,-6,-255,-56,-36,77,-2
1885,-6,-255,-62,-33,77,-2
1890,-6,-254,-57,-31,77,-1
1895,-6,-254,-62,-30,77,-1
1900,-6,-256,-62,-31,78,-1
1905,-5,-255,-61,-30,76,-1
1910,-5,-255,-60,-30,74,-2
1915,-4,-257,-61,-28,72,-3
1920,-5,-255,-59,-26,71,-2
1925,-7,-253,-57,-23,72,0
1930,-6,-256,-57,-22,75,0
1935,-6,-256,-58,-22,75,0
1940,-6,-257,-57,-21,75,0
1945,-4,-253,-57,-22,74,0
1950,-5,-255,-58,-23,74,2
1955,-8,-256,-57,-24,74,2
1960,-7,-253,-60,-25,72,1
1965,-4,-256,-60,-27,72,1
1970,-7,-256,-55,-29,74,2
1975,-8,-255,-58,-28,77,2
1980,-9,-255,-59,-27,77,0
1985,-9,-249,-62,-28,76,0
1990,-5,-255,-52,-28,77,1
1995,-5,-256,-56,-27,79,1
2000,-6,-255,-55,-27,81,1
2005,-5,-255,-57,-26,80,2
2010,-7,-257,-57,-26,80,1
2015,-5,-257,-60,-24,80,0
2020,-7,-254,-57,-23,79,2
2025,-2,-257,-58,-21,80,2
2030,-6,-255,-60,-22,81,1
2035,-7,-256,-61,-21,79,2
2040,-4,-256,-60,-21,80,2
2045,-4,-256,-58,-19,80,0
2050,-7,-254,-60,-18,77,0
2055,-7,-256,-60,-16,76,-1
2060,-6,-256,-57,-14,75,0
2065,-8,-255,-59,-15,75,0
2070,-4,-255,-59,-14,74,0
2075,-7,-253,-60,-14,75,-1
2080,-9,-253,-59,-14,75,-1
2085,-8,-253,-59,-15,74,0
2090,-7,-257,-56,-15,72,-2
2095,-5,-254,-57,-16,74,-2
2100,-5,-257,-62,-14,75,0
2105,-6,-256,-63,-15,74,-1
2110,-5,-256,-55,-14,74,0
2115,-6,-256,-55,-14,76,0
2120,-9,-252,-59,-12,78,-2
2125,-3,-255,-56,-11,78,-1
2130,-6,-256,-55,-12,78,-1
2135,-3,-256,-58,-11,80,-2
2140,-7,-255,-57,-13,78,-3
2145,1,-256,-56,-15,78,-2
2150,-6,-255,-57,-17,76,-3
2155,-7,-255,-59,-16,75,-3
2160,-4,-256,-55,-16,73,-4
2165,-6,-256,-57,-16,71,-4
2170,-7,-254,-55,-16,70,-4
2175,-5,-256,-56,-17,68,-2
2180,-6,-256,-55,-15,68,-3
2185,-8,-254,-59,-15,66,-4
2190,-4,-257,-58,-16,65,-3
2195,-7,-256,-60,-15,66,-3
2200,-3,-263,-58,-16,66,-2
2205,-4,-256,-59,-18,66,-3
2210,-5,-255,-57,-17,67,-4
2215,-6,-254,-61,-16,68,-4
2220,-6,-253,-60,-15,70,-1
2225,-8,-256,-60,-15,72,-3
2230,-4,-257,-56,-13,72,-3
2235,-7,-255,-58,-13,71,-4
2240,-5,-255,-61,-11,71,-3
2245,-6,-253,-57,-9,71,-4
2250,-5,-256,-57,-7,71,-5
2255,-6,-252,-57,-6,69,-4
2260,-4,-255,-55,-6,68,-4
2265,-3,-254,-59,-5,69,-3
2270,-6,-255,-60,-8,68,-3
2275,-7,-251,-59,-10,69,-3
2280,-3,-254,-58,-12,69,-3
2285,-5,-256,-59,-14,72,-3
2290,-5,-255,-59,-15,72,-3
2295,-6,-256,-59,-17,71,-3
2300,-3,-256,-58,-17,73,-3
2305,-6,-256,-57,-16,73,-3
2310,-8,-262,-61,-15,75,-3
2315,-7,-255,-60,-15,76,-3
2320,-7,-256,-58,-14,75,-1
2325,-4,-256,-57,-11,76,-1
2330,-3,-256,-55,-11,74,-1
2335,-2,-256,-57,-10,74,-3
2340,-5,-257,-58,-10,75,-2
2345,-7,-256,-58,-10,75,-1
2350,-5,-258,-60,-9,74,-3
2355,-5,-256,-61,-10,73,-1
2360,-4,-256,-61,-10,72,-2
2365,-3,-257,-57,-7,72,-2
2370,-5,-257,-58,-6,71,-2
2375,-8,-254,-59,-4,70,-2
2380,-8,-255,-56,-3,69,-3
2385,-5,-255,-56,-2,68,-3
2390,-5,-253,-59,-3,69,-3
2395,-5,-256,-58,-4,69,-2
2400,-6,-256,-62,-7,71,-1
2405,-5,-255,-58,-8,71,-3
2410,-4,-255,-58,-11,71,-4
2415,-6,-253,-60,-12,72,-3
2420,-13,-253,-60,-14,73,-2
2425,-8,-254,-59,-17,71,-4
2430,-4,-257,-57,-18,70,-4
2435,-8,-256,-58,-19,70,-4
2440,-4,-256,-59,-17,70,-3
2445,-2,-256,-58,-16,71,-4
2450,-4,-255,-54,-15,72,-3
2455,-5,-255,-55,-15,72,-4
2460,-5,-256,-59,-13,72,-3
2465,-5,-256,-57,-12,72,-4
2470,-8,-256,-58,-13,71,-4
2475,-4,-257,-56,-12,69,-3
2480,-5,-256,-58,-13,69,-3
2485,-6,-254,-58,-14,68,-2
2490,-7,-254,-59,-13,71,-2
2495,-5,-256,-60,-14,71,-2
2500,-4,-256,-58,-14,71,-3
2505,-8,-254,-57,-15,73,-2
2510,-3,-255,-59,-15,74,-2
2515,-6,-255,-55,-14,74,-2
2520,-6,-254,-59,-15,76,-2
2525,-5,-255,-61,-15,77,-3
2530,3,-252,-65,-14,79,-3
2535,-8,-253,-60,-13,79,-2
2540,-4,-254,-60,-11,80,-3
2545,-9,-254,-57,-10,77,-3
2550,-6,-256,-59,-10,76,-3
2555,-6,-256,-60,-10,73,-3
2560,-5,-256,-60,-12,72,-4
2565,-5,-255,-54,-12,70,-2
2570,-7,-254,-58,-13,68,-3
2575,-8,-256,-61,-12,66,-2
2580,-5,-256,-58,-14,66,-4
2585,-5,-255,-59,-13,64,-4
2590,-8,-253,-58,-13,63,-3
2595,-6,-254,-60,-13,60,-5
2600,-9,-255,-64,-13,58,-7
2605,-7,-253,-63,-13,55,-8
2610,-4,-255,-63,-14,53,-9
2615,-8,-255,-64,-14,51,-10
2620,-8,-253,-61,-19,52,-9
2625,-1,-256,-63,-24,51,-9
2630,-8,-252,-60,-30,50,-9
2635,-11,-247,-69,-38,48,-11
2640,-7,-253,-66,-43,48,-12
2645,-5,-254,-63,-49,49,-12
2650,-10,-252,-66,-55,49,-13
2655,-6,-249,-67,-62,47,-14
2660,-8,-249,-67,-66,43,-14
2665,-6,-249,-66,-70,41,-14
2670,-8,-250,-69,-74,37,-13
2675,-7,-251,-68,-75,36,-13
2680,-6,-246,-76,-78,36,-13
2685,-7,-248,-70,-79,38,-12
2690,-5,-243,-72,-82,41,-11
2695,-8,-242,-78,-86,43,-10
2700,-6,-240,-77,-96,44,-10
2705,-6,-239,-83,-105,43,-11
2710,-3,-239,-82,-115,42,-12
2715,-4,-236,-80,-126,39,-14
2720,-3,-235,-83,-135,36,-16
2725,-6,-234,-85,-144,34,-16
2730,-2,-237,-85,-154,34,-19
2735,1,-235,-84,-161,35,-19
2740,-1,-232,-81,-170,38,-20
2745,-8,-229,-83,-177,42,-21
2750,-1,-230,-83,-182,46,-22
2755,-1,-230,-80,-188,48,-22
2760,2,-229,-82,-194,48,-23
2765,2,-231,-79,-201,51,-23
2770,2,-228,-80,-210,52,-25
2775,4,-230,-78,-219,54,-28
2780,4,-228,-81,-228,58,-29
2785,1,-230,-80,-240,61,-30
2790,-1,-229,-83,-254,66,-30
2795,4,-229,-84,-269,70,-33
2800,0,-228,-83,-281,75,-34
2805,4,-230,-83,-293,82,-35
2810,4,-229,-84,-298,88,-34
2815,4,-228,-82,-300,94,-35
2820,4,-231,-82,-293,99,-38
2825,1,-228,-77,-285,102,-39
2830,4,-229,-80,-275,103,-41
2835,4,-225,-78,-270,105,-42
2840,4,-224,-86,-273,104,-44
2845,1,-222,-91,-284,102,-46
2850,4,-219,-90,-303,98,-46
2855,3,-214,-97,-324,92,-48
2860,0,-212,-96,-350,87,-48
2865,-4,-207,-94,-376,84,-46
2870,-4,-205,-99,-395,80,-42
2875,-1,-202,-97,-407,74,-39
2880,-3,-198,-102,-412,69,-34
2885,-3,-194,-95,-411,61,-26
2890,-2,-190,-97,-409,53,-21
2895,1,-186,-100,-406,45,-15
2900,-4,-181,-94,-408,37,-7
2905,-5,-176,-92,-414,32,-2
2910,-4,-172,-94,-422,27,3
2915,-6,-165,-96,-435,21,5
2920,-7,-163,-91,-446,17,10
2925,-5,-157,-91,-462,13,12
2930,-10,-151,-88,-479,5,13
2935,-10,-150,-90,-499,-3,13
2940,-9,-146,-83,-518,-13,12
2945,-6,-143,-81,-536,-27,11
2950,-14,-143,-76,-555,-42,7
2955,-9,-139,-75,-575,-58,3
2960,-12,-135,-68,-594,-74,-1
2965,-6,-133,-73,-615,-87,-4
2970,-8,-130,-72,-637,-96,-8
2975,-11,-128,-71,-663,-94,-12
2980,-8,-128,-69,-692,-88,-20
2985,-9,-126,-68,-725,-74,-30
2990,-11,-125,-67,-759,-57,-43
2995,-7,-128,-70,-791,-45,-61
3000,-11,-128,-67,-824,-40,-78
3005,-10,-126,-63,-850,-45,-94
3010,-9,-127,-65,-870,-61,-110
3015,-6,-127,-63,-883,-82,-123
3020,-5,-128,-62,-896,-103,-130
3025,-7,-129,-63,-907,-123,-137
3030,-9,-127,-64,-918,-138,-142
3035,-6,-127,-63,-932,-150,-145
3040,-7,-128,-68,-949,-155,-146
3045,-3,-124,-67,-970,-159,-146
3050,-5,-128,-69,-994,-160,-146
3055,-4,-127,-72,-1022,-162,-146
3060,-5,-130,-72,-1050,-167,-144
3065,-5,-129,-76,-1081,-173,-141
3070,-4,-136,-73,-1109,-180,-138
3075,-2,-130,-81,-1134,-181,-133
3080,3,-144,-78,-1154,-179,-128
3085,3,-145,-84,-1168,-167,-124
3090,5,-155,-87,-1175,-142,-118
3095,6,-158,-93,-1176,-106,-117
3100,8,-170,-96,-1173,-55,-120
3105,4,-175,-104,-1170,-10,-126
3110,12,-190,-111,-1165,48,-131
3115,9,-201,-115,-1164,95,-145
3120,10,-215,-122,-1171,125,-155
3125,12,-231,-121,-1185,130,-162
3130,10,-245,-120,-1199,114,-164
3135,9,-261,-117,-1199,82,-157
3140,8,-272,-106,-1172,38,-139
3145,6,-284,-100,-1103,-19,-119
3150,5,-299,-90,-990,-77,-99
3155,2,-309,-81,-831,-127,-81
3160,3,-321,-79,-628,-166,-57
3165,-4,-337,-78,-401,-191,-44
3170,-15,-343,-84,-164,-203,-27
3175,-15,-353,-92,73,-202,-7
3180,-25,-355,-98,309,-194,9
3185,-26,-358,-107,541,-179,35
3190,-23,-356,-115,756,-158,60
3195,-26,-347,-120,952,-135,81
3200,-29,-341,-121,1134,-111,96
3205,-24,-329,-128,1298,-82,117
3210,-18,-320,-132,1441,-41,134
3215,-14,-312,-134,1564,8,138
3220,-7,-302,-129,1672,55,134
3225,-3,-292,-131,1754,101,114
3230,4,-289,-130,1814,145,98
3235,7,-282,-132,1850,189,80
3240,6,-279,-128,1865,226,55
3245,6,-277,-122,1865,252,30
3250,12,-273,-117,1843,261,4
3255,12,-270,-117,1801,249,-29
3260,16,-269,-118,1736,222,-56
3265,13,-261,-116,1653,191,-73
3270,13,-259,-117,1552,151,-88
3275,11,-258,-115,1442,112,-94
3280,7,-256,-119,1350,73,-96
3285,12,-252,-115,1235,43,-92
3290,7,-259,-109,1125,16,-78
3295,4,-268,-106,1028,5,-65
3300,1,-272,-96,951,6,-49
3305,1,-283,-91,901,15,-21
3310,4,-299,-88,886,21,7
3315,-1,-306,-81,911,27,20
3320,-5,-318,-83,976,41,42
3325,-8,-324,-74,1062,63,60
3330,-8,-332,-77,1169,91,79
3335,-6,-345,-71,1288,117,94
3340,-7,-350,-69,1425,135,107
3345,-10,-360,-64,1565,147,104
3350,-8,-363,-60,1714,149,102
3355,-5,-371,-49,1874,146,89
3360,-7,-387,-31,2063,142,92
3365,-6,-404,-4,2275,143,80
3370,-10,-439,53,2569,140,49
3375,22,-527,150,3022,134,39
3380,-16,-590,216,3689,130,14
3385,-7,-710,202,4556,131,6
3390,-38,-771,73,5301,134,-51
3395,-6,-770,15,5693,145,-79
3400,-41,-717,-119,5939,170,-191
3405,-67,-630,-269,5852,187,-174
3410,9,-536,-379,5365,189,-71
3415,2,-433,-451,4668,168,-130
3420,18,-338,-448,3913,141,-154
3425,25,-245,-375,3260,174,-136
3430,7,-189,-286,2756,246,-77
3435,-7,-160,-187,2268,279,-4
3440,-7,-158,-91,1739,236,61
3445,5,-191,1,1232,167,105
3450,3,-239,76,827,107,124
3455,-6,-273,136,572,50,121
3460,-13,-291,170,463,1,112
3465,-17,-289,170,385,-32,99
3470,-16,-263,160,310,-49,77
3475,-19,-229,146,212,-61,48
3480,-22,-194,128,87,-62,28
3485,-25,-167,113,-58,-63,12
3490,-25,-158,101,-215,-60,3
3495,-24,-158,96,-368,-48,1
3500,-16,-166,98,-495,-18,0
3505,-19,-173,102,-574,21,-14
3510,-16,-187,109,-583,63,-34
3515,-15,-198,122,-514,93,-56
3520,-10,-210,126,-373,115,-76
3525,-6,-219,127,-175,134,-94
3530,-2,-224,130,63,157,-108
3535,-1,-231,132,319,178,-116
3540,4,-234,129,566,193,-118
3545,4,-237,123,786,198,-117
3550,9,-234,115,966,191,-109
3555,5,-230,112,1097,178,-100
3560,6,-232,101,1178,156,-84
3565,4,-232,92,1210,134,-66
3570,4,-228,87,1199,107,-45
3575,4,-234,81,1145,86,-21
3580,1,-237,71,1055,70,1
3585,1,-238,69,929,64,22
3590,-3,-240,69,779,66,41
3595,-9,-243,67,613,69,59
3600,-9,-245,67,446,71,77
3605,-13,-251,68,292,69,94
3610,-14,-264,64,164,61,108
3615,-16,-262,68,69,49,119
3620,-15,-268,65,0,33,125
3625,-19,-270,59,-44,19,128
3630,-22,-272,56,-70,14,129
3635,-19,-277,47,-86,10,128
3640,-22,-277,38,-97,10,123
3645,-23,-278,33,-108,12,118
3650,-23,-278,32,-118,12,113
3655,-22,-274,25,-126,16,110
3660,-22,-271,24,-135,21,106
3665,-19,-271,25,-146,31,100
3670,-18,-265,31,-155,47,90
3675,-14,-264,36,-160,64,78
3680,-9,-262,37,-160,81,62
3685,-9,-259,40,-156,93,45
3690,-8,-257,40,-156,95,32
3695,-4,-254,39,-164,89,19
3700,-2,-249,42,-178,82,8
3705,2,-250,47,-187,74,0
3710,0,-254,53,-188,71,-7
3715,6,-247,59,-179,69,-13
3720,4,-253,61,-156,71,-17
3725,3,-256,64,-118,70,-19
3730,-4,-258,65,-76,65,-20
3735,-3,-260,63,-35,57,-20
3740,-2,-257,58,0,46,-17
3745,-2,-260,58,24,37,-14
3750,-3,-256,56,36,30,-12
3755,-4,-257,47,40,28,-8
3760,-6,-256,46,35,28,-4
3765,-6,-256,49,25,28,0
3770,-11,-258,45,13,32,5
3775,-9,-258,46,0,35,9
3780,-11,-262,45,-9,37,11
3785,-12,-266,48,-14,37,10
3790,-12,-264,50,-17,34,10
3795,-12,-270,47,-16,29,9
3800,-15,-271,47,-16,25,8
3805,-12,-269,43,-16,20,8
3810,-15,-270,38,-18,18,9
3815,-16,-272,36,-24,16,9
3820,-13,-270,38,-30,20,8
3825,-19,-272,35,-40,21,5
3830,-12,-269,39,-49,28,3
3835,-13,-269,37,-59,35,-1
3840,-11,-267,40,-67,41,-4
3845,-11,-268,43,-73,45,-7
3850,-6,-264,43,-76,49,-11
3855,-6,-264,48,-75,52,-15
3860,-7,-263,45,-71,57,-18
3865,-6,-264,48,-65,59,-22
3870,-3,-262,51,-58,60,-24
3875,-1,-262,50,-50,60,-28
3880,0,-262,52,-39,60,-30
3885,-2,-259,54,-27,59,-31
3890,-5,-257,55,-17,57,-31
3895,-1,-261,49,-10,57,-32
3900,-1,-260,47,-7,56,-31
3905,-1,-259,49,-5,56,-31
3910,-1,-257,49,-5,56,-30
3915,-3,-261,49,-9,57,-28
3920,-3,-257,42,-11,57,-29
3925,-3,-258,49,-11,58,-27
3930,-9,-262,42,-9,59,-27
3935,-4,-258,48,-5,60,-26
3940,-5,-259,49,2,59,-25
3945,-8,-259,51,11,59,-22
3950,-6,-260,52,19,57,-19
3955,-8,-260,52,28,57,-18
3960,-5,-260,56,39,56,-15
3965,-9,-262,53,47,55,-14
3970,-7,-266,56,55,55,-13
3975,-7,-267,51,59,54,-11
3980,-6,-261,53,60,53,-10
3985,-8,-263,49,58,53,-11
3990,-7,-263,50,52,55,-10
3995,-8,-263,49,45,57,-9
4000,-7,-262,52,39,60,-10
4005,-8,-263,51,32,63,-11
4010,-10,-264,54,30,67,-12
4015,-9,-261,52,26,69,-15
4020,-6,-262,48,19,74,-17
4025,-8,-262,52,14,78,-19
4030,-7,-260,49,9,81,-21
4035,-10,-261,47,3,81,-22
4040,-7,-261,49,-6,80,-23
4045,-2,-262,51,-12,82,-23
4050,-3,-260,50,-18,84,-25
4055,-7,-262,51,-23,86,-24
4060,-5,-262,51,-23,88,-27
4065,-4,-263,53,-23,88,-28
4070,-5,-262,50,-21,89,-28
4075,-5,-260,49,-19,90,-29
4080,-7,-263,49,-17,91,-30
4085,-6,-262,53,-14,90,-31
4090,-7,-260,50,-11,90,-32
4095,-7,-260,51,-8,88,-30
4100,-6,-263,50,-5,86,-27
4105,-6,-263,53,-2,84,-25
4110,-4,-260,48,-2,83,-23
4115,-6,-259,47,-1,81,-23
4120,-6,-262,50,2,80,-22
4125,-5,-262,49,4,80,-20
4130,-6,-261,51,7,81,-18
4135,-6,-262,53,8,83,-15
4140,-7,-261,50,9,86,-14
4145,-5,-261,50,10,90,-12
4150,-4,-262,52,12,91,-11
4155,-8,-264,52,17,91,-10
4160,-6,-265,54,21,92,-10
4165,-9,-263,56,23,92,-10
4170,-4,-260,50,25,95,-10
4175,-6,-260,52,23,93,-11
4180,-7,-259,52,19,91,-11
4185,-4,-260,52,15,88,-11
4190,-3,-262,50,10,85,-13
4195,-8,-258,51,3,84,-13
4200,-6,-260,52,-1,81,-14
4205,-8,-258,53,-6,78,-14
4210,-9,-261,54,-9,76,-13
4215,-10,-258,53,-9,72,-16
4220,-6,-259,53,-9,70,-19
4225,-6,-260,52,-7,69,-19
4230,-7,-264,53,-6,69,-20
4235,-8,-262,50,-3,69,-22
4240,-9,-263,53,1,69,-24
4245,-7,-260,54,4,69,-25
4250,-7,-269,55,7,68,-25
4255,-11,-261,54,7,67,-26
4260,-8,-257,51,8,66,-26
4265,-8,-260,50,7,66,-24
4270,-7,-262,51,5,65,-24
4275,-8,-261,49,3,65,-22
4280,-9,-261,50,1,66,-22
4285,-7,-261,51,1,66,-22
4290,-5,-260,50,0,66,-22
4295,-6,-261,52,2,66,-21
4300,-5,-260,54,3,65,-21
4305,-7,-260,49,5,66,-21
4310,-7,-260,48,7,67,-21
4315,-7,-257,55,8,66,-21
4320,-5,-259,53,9,67,-22
4325,-3,-263,53,9,70,-20
4330,-2,-262,54,10,67,-20
4335,-6,-261,52,8,66,-20
4340,-6,-259,48,10,65,-18
4345,-3,-260,55,9,62,-19
4350,-6,-258,54,8,60,-18
4355,-14,-257,61,5,56,-17
4360,-6,-259,52,-1,54,-18
4365,-1,-262,52,-6,50,-17
4370,-2,-263,56,-11,49,-16
4375,-7,-262,52,-18,48,-16
4380,-4,-259,50,-24,48,-17
4385,-4,-260,49,-28,48,-18
4390,-5,-259,48,-29,50,-17
4395,-3,-257,53,-26,51,-19
4400,-7,-258,53,-21,52,-17
4405,-1,-260,53,-15,53,-17
4410,-5,-260,56,-11,54,-17
4415,-5,-258,56,-7,55,-16
4420,-4,-259,52,-6,55,-15
4425,-4,-258,51,-6,54,-15
4430,-4,-260,52,-9,53,-13
4435,-2,-262,53,-11,54,-13
4440,-2,-259,55,-14,53,-11
4445,-4,-262,54,-16,53,-12
4450,1,-262,51,-18,54,-8
4455,-4,-258,50,-20,55,-8
4460,-4,-259,50,-22,54,-7
4465,-1,-261,50,-25,56,-6
4470,-3,-259,50,-27,57,-7
4475,-3,-261,51,-28,59,-6
4480,0,-261,51,-30,60,-7
4485,-3,-258,54,-29,63,-6
4490,-1,-260,54,-29,65,-7
4495,-4,-259,51,-28,63,-7
4500,-4,-262,52,-29,62,-7
4505,0,-260,52,-28,63,-6
4510,-4,-260,53,-29,60,-6
4515,-7,-261,49,-29,60,-7
4520,-2,-260,52,-30,60,-6
4525,-2,-261,52,-32,59,-5
4530,-4,-260,52,-33,62,-4
4535,-3,-260,51,-33,60,-4
4540,-1,-259,53,-33,61,-3
4545,-6,-260,52,-33,59,-4
4550,-1,-262,50,-33,59,-4
4555,-5,-259,54,-34,58,-3
4560,-3,-262,53,-32,57,-3
4565,-5,-260,54,-33,56,-2
4570,-5,-260,48,-31,57,0
4575,-3,-261,51,-31,58,0
4580,-7,-263,47,-31,59,-1
4585,-4,-264,50,-27,59,-1
4590,-6,-261,54,-25,59,0
4595,-2,-261,52,-21,59,0
4600,-3,-262,50,-17,63,0
4605,-4,-258,53,-15,67,0
4610,-1,-260,52,-14,68,0
4615,-5,-261,53,-13,68,-1
4620,0,-262,52,-13,66,0
4625,-2,-260,51,-12,66,0
4630,-5,-260,53,-13,65,-1
4635,-1,-261,50,-14,65,-1
4640,-5,-263,48,-15,64,-3
4645,0,-262,52,-19,63,-2
4650,-2,-264,51,-21,65,-1
4655,-1,-261,52,-24,64,-1
4660,-3,-261,49,-25,65,-2
4665,-4,-263,53,-25,68,-3
4670,-3,-262,50,-25,70,-3
4675,-5,-266,44,-22,71,-1
4680,-3,-262,52,-21,71,-2
4685,0,-265,50,-18,72,-2
4690,-5,-260,48,-14,71,-1
4695,-2,-263,50,-13,71,0
4700,-5,-263,49,-11,70,0
4705,-4,-262,49,-9,71,0
4710,-4,-261,52,-10,69,-1
4715,-4,-263,53,-9,68,1
4720,-3,-260,45,-8,69,-1
4725,-5,-258,53,-6,69,0
4730,-5,-260,51,-7,70,-2
4735,-1,-260,49,-8,70,-2
4740,-7,-259,51,-11,72,-2
4745,-2,-261,50,-12,72,-2
4750,-5,-260,51,-13,72,-4
4755,-3,-263,56,-13,73,-4
4760,-5,-261,48,-14,72,-4
4765,-3,-260,51,-13,74,-6
4770,-4,-264,53,-13,75,-4
4775,-6,-262,51,-11,78,-5
4780,-5,-261,49,-11,77,-5
4785,-8,-262,49,-12,77,-6
4790,-5,-261,52,-12,75,-5
4795,-5,-260,53,-9,73,-4
4800,-7,-261,52,-6,72,-5
4805,-7,-258,54,-5,72,-5
4810,-4,-262,49,-3,72,-6
4815,-6,-259,52,1,73,-7
4820,-3,-261,55,3,73,-6
4825,-5,-259,53,4,73,-5
4830,-4,-262,52,5,73,-8
4835,-10,-258,51,4,74,-8
4840,-4,-261,55,3,74,-8
4845,-6,-259,51,2,75,-10
4850,-8,-259,52,0,76,-11
4855,-1,-261,55,-2,76,-10
4860,-3,-261,53,-5,76,-11
4865,-6,-261,54,-8,75,-12
4870,-6,-260,49,-9,77,-12
4875,-5,-259,50,-9,76,-11
4880,-5,-261,49,-11,76,-11
4885,-5,-262,52,-9,76,-12
4890,-2,-263,59,-9,73,-10
4895,-9,-263,53,-6,71,-8
4900,-5,-259,53,-2,69,-8
4905,-5,-262,54,-1,68,-7
4910,-3,-259,53,0,70,-7
4915,-5,-258,49,0,68,-6
4920,-6,-260,51,-1,66,-5
4925,-5,-261,53,-2,64,-5
4930,-2,-259,56,-3,65,-3
4935,-4,-262,50,-2,63,-3
4940,-6,-257,51,-1,65,-4
4945,-3,-259,51,-2,66,-4
4950,-5,-259,54,-2,69,-4
4955,-6,-261,57,-3,72,-6
4960,-3,-259,49,-5,71,-6
4965,-2,-262,52,-8,70,-7
4970,-1,-260,50,-9,71,-7
4975,-2,-261,53,-9,71,-8
4980,-4,-260,54,-9,70,-8
4985,-4,-260,54,-8,69,-7
4990,-4,-260,50,-7,69,-9
4995,-5,-259,45,-6,68,-7
5000,-4,-261,55,-5,64,-5
5005,-3,-262,53,-5,63,-5
5010,-4,-260,52,-4,63,-6
5015,1,-261,53,-4,64,-5
5020,-4,-260,53,-5,63,-5
5025,-3,-261,51,-6,65,-4
5030,-4,-263,53,-6,66,-4
5035,-2,-262,50,-5,65,-4
5040,-3,-260,52,-6,67,-6
5045,0,-265,53,-6,67,-6
5050,-3,-264,50,-3,68,-7
5055,-4,-259,52,-4,69,-8
5060,-1,-262,51,-3,69,-8
5065,-4,-258,48,-3,71,-8
5070,-5,-260,50,-3,71,-7
5075,-6,-260,52,-3,72,-9
5080,-4,-260,51,-2,74,-7
5085,-4,-260,47,-2,74,-7
5090,-3,-264,52,-2,72,-7
5095,-5,-257,51,0,72,-7
5100,-4,-259,59,2,72,-5
5105,0,-265,48,4,70,-5
5110,-4,-263,56,6,70,-4
5115,0,-262,55,8,71,-5
5120,-2,-262,51,8,68,-5
5125,-3,-261,50,8,65,-4
5130,-6,-262,48,3,63,-3
5135,-4,-259,54,-2,62,-3
5140,-3,-259,53,-5,61,-3
5145,-3,-259,53,-7,60,-1
5150,-4,-262,52,-9,61,-1
5155,-3,-259,55,-7,63,-2
5160,-5,-260,51,-4,66,-1
5165,-5,-260,56,-2,68,-5
5170,-4,-261,55,2,71,-5
5175,-5,-259,54,5,72,-5
5180,-5,-260,54,7,73,-6
5185,-2,-262,51,9,74,-7
5190,-2,-261,54,10,74,-8
5195,-2,-261,51,10,74,-9
5200,-5,-261,54,9,74,-8
5205,-4,-262,54,7,74,-9
5210,-8,-266,54,5,75,-9
5215,-5,-260,54,4,74,-8
5220,-4,-260,53,5,75,-8
5225,-4,-260,53,5,76,-9
5230,-2,-261,54,4,77,-6
5235,-3,-260,50,3,76,-6
5240,-4,-261,53,2,76,-6
5245,-4,-258,51,3,79,-7
5250,-3,-259,53,3,77,-5
5255,-4,-259,55,4,75,-4
5260,-1,-262,52,3,75,-3
5265,-5,-258,50,4,74,-4
5270,0,-260,53,5,72,-2
5275,-4,-259,54,5,71,-3
5280,-7,-260,54,7,72,-3
5285,-2,-258,55,7,72,-1
5290,-1,-261,48,7,74,0
5295,-5,-258,50,8,72,0
5300,-6,-257,55,7,71,1
5305,-7,-259,56,7,72,0
5310,-3,-261,53,8,71,-2
5315,0,-263,64,6,71,-2
5320,-4,-262,57,5,70,-2
5325,-4,-261,53,5,70,-2
5330,-5,-260,54,5,72,-2
5335,-2,-263,60,6,71,-2
5340,-5,-261,54,6,72,-2
5345,-5,-257,55,7,74,-3
5350,0,-259,56,8,74,-2
5355,-7,-258,54,8,74,-4
5360,-5,-260,58,9,73,-5
5365,-4,-258,54,9,74,-4
5370,-2,-261,55,9,76,-6
5375,-4,-260,56,9,76,-5
5380,-6,-257,55,9,75,-6
5385,-5,-262,54,7,74,-5
5390,-7,-258,52,3,74,-5
5395,-6,-262,53,0,74,-5
5400,-4,-259,56,-4,74,-4
5405,-4,-262,54,-6,75,-4
5410,-3,-264,55,-8,76,-3
5415,-1,-258,55,-9,75,-6
5420,-7,-258,55,-11,73,-4
5425,-2,-258,62,-12,72,-4
5430,-2,-260,56,-12,71,-4
5435,-5,-258,55,-13,70,-4
5440,-2,-261,54,-14,70,-4
5445,-4,-262,55,-14,68,-2
5450,-2,-259,54,-15,68,-4
5455,-3,-263,56,-14,70,-4
5460,-4,-260,54,-14,70,-4
5465,-7,-259,54,-13,70,-3
5470,0,-260,53,-11,71,-3
5475,-12,-262,51,-12,73,-2
5480,-4,-261,56,-13,72,-2
5485,-4,-262,54,-13,71,-2
5490,-5,-260,58,-13,71,-3
5495,-5,-259,53,-15,71,-4
5500,-5,-260,56,-15,69,-2
5505,0,-264,57,-16,68,-4
5510,-2,-262,52,-17,67,-3
5515,-6,-259,57,-17,68,-3
5520,-8,-261,56,-17,68,-3
5525,-5,-260,55,-15,69,-2
5530,0,-257,49,-15,70,-3
5535,-6,-259,55,-14,73,-4
5540,-3,-259,55,-14,70,-2
5545,-4,-260,55,-14,70,-3
5550,-3,-261,50,-12,71,-4
5555,-5,-261,51,-14,69,-4
5560,-8,-259,51,-15,70,-5
5565,-1,-261,56,-16,68,-6
5570,-7,-258,49,-18,70,-4
5575,-3,-262,56,-19,70,-4
5580,-5,-257,54,-18,70,-5
5585,-8,-256,57,-17,71,-5
5590,-4,-262,55,-15,72,-4
5595,-3,-263,54,-13,74,-5
5600,-3,-259,52,-12,73,-4
5605,-3,-262,53,-11,73,-6
5610,-4,-259,60,-8,74,-7
5615,-2,-259,55,-6,74,-6
5620,-2,-262,53,-5,72,-3
5625,-5,-261,55,-3,71,-4
5630,-4,-259,58,-2,70,-4
5635,-4,-261,52,-2,70,-6
5640,-7,-261,55,-2,71,-5
5645,-2,-259,53,-3,70,-6
5650,-3,-261,55,-5,71,-6
5655,0,-260,54,-8,72,-6
5660,-4,-260,54,-10,71,-4
5665,-4,-261,55,-11,73,-6
5670,-2,-260,55,-13,73,-5
5675,-5,-259,57,-15,73,-5
5680,-2,-264,57,-16,73,-4
5685,-4,-260,55,-17,73,-5
5690,-3,-260,56,-16,72,-6
5695,-3,-259,52,-15,70,-5
5700,-4,-262,55,-15,71,-6
5705,-8,-262,53,-16,70,-4
5710,-4,-259,54,-17,70,-4
5715,0,-260,57,-15,69,-4
5720,-5,-258,56,-15,68,-4
5725,-6,-258,55,-17,69,-4
5730,-4,-259,55,-16,68,-5
5735,-4,-258,53,-16,69,-4
5740,-1,-261,53,-16,70,-5
5745,-5,-259,59,-16,70,-5
5750,-3,-258,54,-16,71,-5
5755,-6,-261,54,-16,72,-5
5760,-6,-262,52,-20,70,-5
5765,-1,-261,55,-21,71,-4
5770,-1,-258,51,-20,72,-5
5775,-4,-260,51,-21,70,-4
5780,-4,-259,55,-21,70,-4
5785,-5,-259,53,-20,69,-3
5790,-5,-259,55,-20,69,-5
5795,-7,-261,53,-18,67,-2
5800,-5,-260,51,-19,67,-2
5805,-2,-260,55,-19,66,-3
5810,-3,-258,56,-17,66,-2
5815,-4,-261,57,-17,66,-4
5820,1,-260,54,-18,66,-3
5825,-6,-261,54,-18,67,-4
5830,-5,-260,53,-20,68,-4
5835,-6,-261,51,-22,68,-3
5840,-3,-260,51,-22,69,-4
5845,-4,-257,57,-23,71,-5
5850,1,-261,59,-23,72,-4
5855,-4,-258,50,-22,73,-4
5860,-6,-261,55,-22,73,-4
5865,-4,-262,55,-22,74,-6
5870,-1,-263,53,-22,73,-6
5875,-5,-260,53,-23,70,-7
5880,-4,-259,56,-24,71,-7
5885,-2,-262,55,-24,72,-6
5890,-5,-263,49,-24,72,-6
5895,-4,-263,53,-23,71,-7
5900,-7,-257,53,-22,70,-7
5905,-2,-263,52,-20,72,-7
5910,-6,-261,52,-20,68,-7
5915,-4,-262,51,-18,68,-7
5920,-4,-260,49,-21,68,-7
5925,-5,-260,52,-18,65,-7
5930,1,-263,53,-18,64,-6
5935,-2,-261,56,-18,62,-5
5940,-3,-261,53,-16,62,-3
5945,-7,-260,53,-14,61,-2
5950,-6,-263,55,-10,62,-3
5955,-6,-261,59,-6,63,-2
5960,-3,-260,54,-3,66,-3
5965,-6,-259,57,0,66,-5
5970,-5,-261,55,2,68,-5
5975,-6,-257,55,4,69,-6
5980,-5,-259,56,1,69,-6
5985,-5,-259,53,-1,69,-7
5990,-6,-261,54,-6,70,-7
5995,-6,-258,60,-10,70,-8
6000,-3,-259,53,-15,71,-8
6005,-7,-261,57,-18,71,-9
6010,0,-260,58,-20,71,-11
6015,-6,-260,57,-21,70,-10
6020,-5,-259,52,-21,69,-9
6025,-6,-260,54,-22,69,-9
6030,-2,-261,55,-21,67,-9
6035,-3,-262,57,-22,68,-8
6040,-3,-261,54,-22,66,-9
6045,-3,-261,55,-22,64,-7
6050,-3,-260,56,-22,64,-6
6055,-6,-259,55,-22,63,-5
6060,-6,-261,50,-20,63,-5
6065,-2,-259,42,-17,63,-5
6070,-3,-260,52,-15,64,-6
6075,0,-262,51,-12,65,-6
6080,-6,-263,53,-9,66,-6
6085,-5,-260,51,-5,69,-7
6090,-2,-263,51,-5,69,-7
6095,-2,-261,51,-3,69,-7
6100,-4,-263,50,-3,69,-7
6105,-3,-260,51,-4,70,-7
6110,-4,-260,55,-4,71,-7
6115,-3,-262,54,-6,71,-9
6120,-3,-258,54,-8,73,-9
6125,-4,-261,53,-6,72,-10
6130,-5,-260,58,-5,73,-10
6135,1,-261,54,-5,72,-8
6140,-5,-259,52,-5,73,-8
6145,-4,-261,55,-6,74,-8
6150,-4,-260,55,-5,74,-8
6155,-4,-260,53,-5,74,-8
6160,-6,-258,58,-6,73,-6
6165,-6,-258,56,-7,70,-7
6170,-8,-262,57,-8,71,-7
6175,-4,-260,55,-8,69,-7
6180,-5,-260,58,-7,68,-5
6185,-4,-258,53,-7,67,-7
6190,-5,-259,57,-7,67,-6
6195,-2,-260,52,-8,67,-7
6200,-2,-258,54,-9,68,-7
6205,-3,-259,54,-11,69,-5
6210,-4,-260,52,-13,70,-6
6215,-2,-259,54,-15,71,-6
6220,-4,-261,55,-17,72,-7
6225,-2,-259,52,-17,73,-6
6230,-3,-261,56,-20,71,-7
6235,-3,-258,51,-21,70,-6
6240,-4,-263,52,-21,68,-6
6245,-2,-260,52,-22,66,-7
6250,-6,-261,52,-21,65,-6
6255,-4,-262,55,-21,66,-6
6260,-4,-260,54,-18,65,-4
6265,-3,-261,55,-18,64,-4
6270,-4,-262,52,-16,65,-3
6275,2,-263,48,-15,66,-3
6280,-4,-261,56,-13,69,-2
6285,-2,-261,52,-14,69,-3
6290,-2,-258,53,-16,70,-1
6295,-2,-262,54,-18,70,-2
6300,-4,-262,54,-20,72,-2
6305,-3,-257,56,-22,72,-3
6310,-3,-259,54,-23,74,-5
6315,0,-260,56,-24,74,-4
6320,-3,-259,57,-23,74,-4
6325,-2,-261,54,-24,75,-5
6330,-4,-260,54,-24,76,-6
6335,-5,-258,54,-24,75,-6
6340,-4,-259,54,-26,73,-6
6345,-4,-257,54,-27,72,-5
6350,0,-261,55,-27,71,-5
6355,-3,-261,55,-26,69,-4
6360,-8,-260,55,-26,68,-5
6365,-4,-260,56,-24,68,-3
6370,-3,-259,51,-25,68,-3
6375,1,-263,53,-25,68,-2
6380,-5,-259,52,-24,68,-2
6385,-3,-266,63,-24,69,-2
6390,-4,-260,55,-25,68,-1
6395,-3,-260,54,-25,70,-1
6400,-5,-259,51,-23,69,0
6405,-4,-263,51,-22,69,-1
6410,-4,-260,49,-21,70,-2
6415,-4,-259,51,-19,71,-1
6420,-2,-260,52,-18,72,0
6425,-4,-263,54,-17,73,-1
6430,-3,-262,50,-15,75,-2
6435,-2,-262,53,-17,75,-1
6440,-2,-261,54,-17,73,-1
6445,-2,-260,56,-18,74,-3
6450,-4,-259,53,-19,74,-4
6455,-3,-261,54,-19,73,-2
6460,-1,-261,54,-18,72,-3
6465,-2,-261,53,-17,72,-3
6470,-5,-261,52,-15,73,-2
6475,-4,-259,51,-15,72,-3
6480,-4,-258,51,-14,74,-4
6485,-2,-261,55,-13,72,-3
6490,-10,-270,54,-14,71,-1
6495,-3,-260,53,-14,69,-3
6500,-6,-261,55,-13,69,-3
6505,-3,-259,57,-13,68,-2
6510,-3,-259,52,-13,69,-2
6515,-7,-262,53,-14,69,-2
6520,-4,-260,53,-13,70,-3
6525,-5,-262,52,-11,71,-2
6530,-4,-263,53,-11,71,-3
6535,-2,-259,50,-10,71,-1
6540,-4,-258,49,-8,70,-3
6545,-2,-261,58,-8,70,-3
6550,-3,-259,52,-7,71,-5
6555,-4,-261,56,-7,71,-3
6560,-4,-260,52,-6,72,-4
6565,-1,-263,54,-7,71,-4
6570,-3,-258,56,-8,71,-4
6575,-2,-260,54,-9,71,-3
6580,-5,-259,54,-9,70,-4
6585,-3,-259,56,-11,72,-3
6590,-4,-259,55,-11,73,-3
6595,-4,-250,44,-11,73,-4
6600,-2,-261,53,-10,74,-4
6605,-3,-260,55,-11,76,-3
6610,-7,-260,52,-11,76,-4
6615,-2,-261,56,-11,79,-5
6620,-6,-261,55,-9,78,-5
6625,-3,-259,57,-8,77,-5
6630,-4,-264,55,-8,76,-4
6635,-3,-259,56,-6,73,-4
6640,-3,-261,56,-5,70,-4
6645,-3,-262,55,-5,70,-6
6650,-2,-261,52,-5,67,-5
6655,-3,-259,53,-4,66,-5
6660,-1,-259,57,-3,67,-6
6665,-5,-261,55,-2,68,-5
6670,-3,-260,52,-1,65,-4
6675,-4,-260,54,0,68,-5
6680,-5,-263,51,1,69,-5
6685,-1,-259,57,0,70,-5
6690,-6,-261,55,-2,70,-5
6695,-3,-261,58,-4,69,-5
6700,-3,-260,57,-6,70,-6
6705,0,-258,53,-9,70,-5
6710,-4,-262,57,-11,69,-6
6715,-5,-261,52,-12,67,-6
6720,-4,-260,53,-14,67,-4
6725,-7,-260,53,-15,68,-5
6730,-7,-261,51,-19,69,-4
6735,-1,-261,52,-20,70,-4
6740,-6,-260,51,-21,71,-6
6745,-3,-261,52,-18,72,-5
6750,-1,-260,57,-17,72,-5
6755,-5,-259,51,-17,71,-5
6760,-5,-262,50,-13,72,-6
6765,-3,-260,53,-12,71,-6
6770,-4,-262,51,-11,70,-5
6775,-6,-260,53,-11,69,-6
6780,-3,-262,54,-10,69,-5
6785,-3,-259,51,-11,69,-6
6790,-4,-258,56,-8,70,-6
6795,-4,-259,53,-4,70,-5
6800,-4,-258,51,0,71,-6
6805,-3,-261,54,6,72,-7
6810,-1,-256,55,10,72,-8
6815,-3,-258,54,12,74,-8
6820,-5,-259,56,13,74,-8
6825,-5,-260,55,11,74,-9
6830,-5,-261,52,10,74,-10
6835,-9,-260,54,8,73,-10
6840,-5,-260,54,6,72,-12
6845,-5,-259,56,2,70,-13
6850,-3,-260,51,-1,67,-12
6855,-4,-261,53,-3,65,-14
6860,-5,-261,49,-4,65,-12
6865,-2,-264,54,-4,64,-12
6870,-2,-260,54,-1,66,-11
6875,-3,-261,52,2,68,-10
6880,-2,-261,54,6,70,-13
6885,-2,-262,50,11,73,-12
6890,-2,-261,52,14,73,-13
6895,-5,-261,52,15,71,-14
6900,-5,-260,53,15,66,-11
6905,-5,-260,52,14,62,-10
6910,-7,-258,55,15,58,-10
6915,1,-262,68,15,56,-7
6920,-4,-263,52,16,56,-7
6925,-7,-260,50,16,61,-8
6930,-2,-259,51,16,70,-11
6935,0,-258,46,12,80,-14
6940,0,-260,45,7,90,-16
6945,-1,-258,46,1,94,-18
6950,-4,-262,46,-4,93,-20
6955,-3,-260,45,-7,87,-20
6960,-5,-260,47,-9,77,-20
6965,-1,-260,54,-9,66,-17
6970,-4,-256,53,-7,53,-15
6975,-3,-257,59,-8,46,-11
6980,-5,-254,56,-13,46,-9
6985,-5,-253,51,-24,48,-8
6990,-6,-252,60,-40,53,-9
6995,-4,-252,57,-61,54,-10
7000,-4,-251,60,-83,54,-9
7005,-3,-251,57,-100,51,-10
7010,-5,-250,53,-120,47,-10
7015,-5,-251,57,-138,45,-11
7020,-3,-250,57,-153,39,-11
7025,-8,-246,61,-163,35,-10
7030,-4,-249,56,-173,30,-6
7035,-4,-246,54,-182,26,0
7040,-5,-245,56,-192,19,6
7045,-5,-247,55,-205,12,13
7050,2,-247,55,-220,4,19
7055,-2,-245,61,-239,-4,27
7060,-3,-243,57,-259,-13,33
7065,0,-242,54,-281,-24,40
7070,-3,-243,56,-303,-34,45
7075,-2,-245,58,-325,-42,45
7080,-1,-244,58,-345,-48,49
7085,-4,-242,57,-362,-50,48
7090,-5,-241,54,-381,-47,46
7095,-2,-241,58,-400,-40,44
7100,-4,-242,59,-418,-29,38
7105,-6,-240,53,-437,-15,31
7110,-4,-246,52,-453,-2,24
7115,-6,-247,48,-470,11,16
7120,-3,-249,45,-492,28,6
7125,-4,-252,36,-514,45,-6
7130,0,-255,36,-535,64,-13
7135,1,-254,31,-549,78,-26
7140,-3,-262,30,-556,90,-41
7145,-2,-263,26,-561,103,-49
7150,-1,-263,24,-567,116,-58
7155,1,-258,25,-581,126,-65
7160,4,-258,31,-607,135,-75
7165,4,-256,42,-642,142,-81
7170,5,-255,55,-680,142,-77
7175,2,-257,65,-720,129,-76
7180,3,-259,77,-758,110,-67
7185,1,-272,100,-795,88,-57
7190,2,-285,113,-821,68,-45
7195,1,-294,126,-830,53,-38
7200,1,-301,124,-834,48,-41
7205,-4,-303,104,-855,51,-53
7210,-6,-291,68,-929,56,-72
7215,-15,-273,34,-1090,63,-87
7220,-18,-263,0,-1332,71,-104
7225,-15,-261,-28,-1623,79,-121
7230,-13,-270,-50,-1928,97,-135
7235,-16,-278,-66,-2231,128,-145
7240,-15,-298,-74,-2535,171,-145
7245,-17,-303,-86,-2833,219,-141
7250,-16,-311,-86,-3119,261,-133
7255,-14,-321,-87,-3376,288,-130
7260,-13,-335,-71,-3589,299,-123
7265,-8,-358,-47,-3756,306,-118
7270,-14,-389,-22,-3876,322,-113
7275,-18,-422,3,-3942,356,-92
7280,-28,-453,24,-3958,392,-53
7285,-32,-474,30,-3913,421,1
7290,-22,-487,40,-3800,431,56
7295,-10,-499,40,-3600,411,93
7300,1,-507,35,-3312,369,110
7305,10,-522,23,-2948,319,111
7310,14,-525,11,-2532,264,92
7315,23,-521,9,-2095,203,63
7320,21,-515,2,-1661,142,36
7325,19,-499,-9,-1250,97,32
7330,19,-476,-24,-877,71,46
7335,17,-449,-45,-552,54,62
7340,15,-417,-65,-287,46,72
7345,9,-390,-94,-92,45,83
7350,5,-375,-100,21,53,93
7355,4,-357,-119,45,58,100
7360,3,-341,-130,-18,58,104
7365,1,-322,-134,-154,51,112
7370,-2,-312,-140,-349,39,118
7375,-2,-298,-141,-591,26,118
7380,-4,-290,-139,-802,16,115
7385,-4,-283,-143,-1079,8,108
7390,1,-283,-138,-1348,6,96
7395,-1,-285,-134,-1597,12,72
7400,-10,-283,-134,-1810,25,51
7405,-7,-290,-128,-1988,44,34
7410,-4,-291,-124,-2121,57,17
7415,-6,-297,-122,-2212,67,-6
7420,-3,-300,-114,-2258,74,-22
7425,1,-305,-105,-2260,83,-37
7430,-3,-302,-102,-2216,90,-57
7435,-1,-305,-104,-2130,106,-61
7440,1,-306,-97,-2011,120,-56
7445,-3,-303,-102,-1864,134,-52
7450,5,-306,-102,-1698,144,-52
7455,5,-300,-102,-1526,150,-52
7460,4,-301,-97,-1351,154,-54
7465,3,-296,-99,-1180,157,-56
7470,5,-295,-96,-1017,152,-48
7475,6,-292,-99,-867,141,-52
7480,6,-284,-95,-737,125,-56
7485,4,-284,-93,-628,104,-47
7490,7,-279,-99,-537,82,-26
7495,7,-279,-105,-459,65,-20
7500,11,-277,-105,-391,59,-15
7505,11,-277,-110,-334,63,-8
7510,3,-273,-112,-272,73,-4
7515,7,-271,-116,-209,89,12
7520,1,-268,-112,-134,101,18
7525,6,-269,-115,-46,104,19
7530,4,-259,-110,55,103,14
7535,-1,-256,-109,170,98,11
7540,-8,-245,-101,294,94,9
7545,-4,-236,-102,430,85,22
7550,-5,-221,-100,554,75,42
7555,-2,-211,-99,679,64,53
7560,-4,-197,-95,792,58,33
7565,-2,-189,-98,883,59,21
7570,1,-180,-93,949,67,14
7575,-5,-168,-85,984,81,-3
7580,-10,-157,-84,1016,95,-5
7585,-10,-151,-83,1027,104,12
7590,-10,-144,-77,1019,107,24
7595,-4,-139,-74,996,111,30
7600,-3,-135,-70,971,110,30
7605,-6,-130,-70,953,113,20
7610,-5,-127,-67,938,118,15
7615,-8,-124,-61,925,123,13
7620,-7,-123,-61,922,122,23
7625,-5,-119,-56,928,114,35
7630,-3,-117,-51,941,100,41
7635,-1,-114,-52,959,80,45
7640,1,-111,-50,975,61,55
7645,0,-106,-49,984,37,69
7650,0,-103,-50,984,16,82
7655,4,-99,-51,976,1,86
7660,4,-96,-57,961,-4,92
7665,1,-90,-51,936,-5,100
7670,4,-90,-53,911,1,109
7675,2,-90,-52,887,8,113
7680,0,-87,-50,867,13,111
7685,-6,-84,-49,849,11,110
7690,-9,-78,-52,834,2,113
7695,-9,-82,-48,819,-11,118
7700,-7,-81,-51,803,-25,124
7705,-10,-76,-59,784,-28,125
7710,-4,-74,-54,759,-18,130
7715,-2,-75,-62,730,7,136
7720,3,-75,-64,688,47,136
7725,5,-75,-66,630,92,132
7730,8,-75,-66,568,140,123
7735,10,-79,-67,506,181,113
7740,9,-82,-71,445,209,101
7745,8,-86,-70,388,221,86
7750,9,-93,-74,332,209,71
7755,8,-101,-77,276,177,58
7760,10,-111,-83,218,130,44
7765,10,-119,-88,168,76,34
7770,12,-128,-95,100,32,22
7775,7,-142,-102,23,-14,11
7780,12,-148,-110,-69,-49,5
7785,17,-163,-124,-172,-72,1
7790,18,-184,-131,-277,-76,1
7795,18,-202,-137,-380,-58,2
7800,20,-224,-138,-472,-20,3
7805,20,-244,-141,-545,32,3
7810,13,-261,-141,-596,88,0
7815,13,-286,-140,-622,139,-3
7820,9,-305,-137,-621,179,-7
7825,5,-318,-132,-592,206,-13
7830,-1,-326,-117,-536,225,-8
7835,-4,-333,-126,-450,232,-13
7840,-7,-335,-120,-339,231,-15
7845,-11,-333,-117,-205,224,-12
7850,-17,-323,-116,-55,211,-11
7855,-21,-317,-108,98,195,-11
7860,-23,-297,-103,238,177,-7
7865,-25,-287,-102,347,163,-5
7870,-25,-272,-97,423,154,2
7875,-24,-259,-100,464,152,10
7880,-21,-252,-97,475,155,17
7885,-20,-247,-86,465,161,22
7890,-19,-237,-79,444,167,26
7895,-18,-232,-70,420,169,30
7900,-12,-229,-67,396,170,32
7905,-13,-224,-61,373,170,34
7910,-11,-219,-60,351,165,37
7915,-6,-220,-59,325,160,37
7920,-6,-215,-59,292,155,37
7925,-4,-215,-62,251,151,36
7930,-3,-216,-61,206,146,38
7935,0,-217,-61,156,141,37
7940,2,-225,-64,110,135,37
7945,1,-228,-65,71,127,37
7950,3,-232,-66,41,118,36
7955,4,-238,-66,23,108,35
7960,2,-237,-71,13,98,34
7965,2,-247,-77,11,87,33
7970,1,-247,-81,8,77,31
7975,4,-250,-88,6,71,30
7980,1,-251,-87,4,67,30
7985,2,-252,-91,2,70,31
7990,2,-251,-86,4,80,31
7995,0,-252,-92,9,92,32
8000,-2,-253,-92,15,104,35
8005,-2,-255,-92,27,113,37
8010,-5,-250,-95,41,122,37
8015,-5,-251,-91,56,129,40
8020,-9,-249,-93,71,134,43
8025,-9,-243,-90,83,134,45
8030,-2,-246,-90,91,133,47
8035,-9,-243,-89,95,132,48
8040,-10,-242,-91,96,131,47
8045,-9,-241,-89,92,129,47
8050,-10,-239,-87,84,127,47
8055,-7,-239,-87,74,124,46
8060,-9,-239,-88,63,125,45
8065,-6,-239,-88,49,128,45
8070,-7,-238,-86,36,131,42
8075,-5,-238,-83,26,136,40
8080,-5,-241,-81,14,140,38
8085,-5,-241,-85,5,143,36
8090,-8,-241,-80,-4,143,32
8095,-5,-242,-79,-9,145,31
8100,-8,-244,-78,-13,144,27
8105,-4,-247,-80,-17,140,26
8110,-3,-247,-73,-20,138,21
8115,-3,-246,-75,-22,139,21
8120,-4,-250,-75,-24,143,18
8125,-3,-248,-72,-24,147,16
8130,-4,-248,-77,-21,152,15
8135,-6,-250,-75,-16,155,14
8140,-6,-251,-76,-11,159,12
8145,-8,-249,-70,-4,162,13
8150,-5,-253,-76,1,160,13
8155,-5,-250,-76,8,156,15
8160,-8,-249,-72,16,153,16
8165,-12,-247,-73,19,150,16
8170,-5,-249,-71,23,146,17
8175,-7,-249,-70,21,145,16
8180,-10,-246,-72,16,141,16
8185,-12,-248,-70,5,138,16
8190,-9,-248,-76,-10,135,15
8195,-12,-246,-72,-28,133,16
8200,-11,-248,-76,-44,129,17
8205,-13,-248,-75,-60,128,15
8210,-15,-249,-75,-72,124,14
8215,-10,-252,-74,-82,122,14
8220,-10,-249,-70,-84,121,13
8225,-15,-251,-76,-85,120,12
8230,-14,-252,-74,-85,118,10
8235,-11,-252,-73,-84,113,8
8240,-12,-252,-75,-81,107,5
8245,-13,-251,-74,-80,99,4
8250,-10,-254,-72,-79,92,2
8255,-10,-252,-74,-76,86,0
8260,-11,-251,-76,-77,80,-2
8265,-11,-252,-74,-76,76,-5
8270,-13,-254,-76,-76,73,-6
8275,-12,-254,-74,-75,70,-10
8280,-12,-251,-74,-74,68,-11
8285,-11,-251,-77,-70,64,-12
8290,-12,-251,-78,-67,62,-12
8295,-9,-255,-78,-62,61,-13
8300,-9,-254,-77,-57,58,-12
8305,-11,-253,-76,-49,54,-12
8310,-10,-252,-76,-40,49,-9
8315,-9,-257,-86,-31,44,-8
8320,-6,-254,-78,-25,40,-8
8325,-10,-250,-76,-19,37,-8
8330,-7,-251,-77,-15,34,-9
8335,-9,-253,-77,-14,32,-8
8340,-6,-251,-79,-13,31,-9
8345,-8,-249,-75,-12,30,-9
8350,-6,-251,-77,-8,29,-10
8355,-6,-253,-78,-5,28,-10
8360,-8,-251,-76,0,27,-10
8365,-5,-252,-78,2,25,-12
8370,-4,-250,-74,5,24,-11
8375,-8,-249,-79,9,24,-11
8380,-5,-250,-79,9,24,-10
8385,-5,-252,-78,8,24,-11
8390,-5,-252,-78,7,28,-12
8395,-5,-252,-75,10,31,-11
8400,-4,-251,-79,14,35,-11
8405,-7,-252,-80,19,39,-11
8410,-6,-250,-78,23,40,-8
8415,-7,-250,-77,27,39,-8
8420,-6,-247,-78,29,39,-7
8425,-6,-248,-94,33,39,-8
8430,-9,-246,-77,36,39,-8
8435,-5,-246,-79,39,37,-6
8440,-3,-245,-78,42,36,-5
8445,-4,-246,-74,45,34,-4
8450,-5,-245,-75,45,31,-2
8455,-4,-247,-75,44,31,-1
8460,-2,-246,-75,41,31,0
8465,-6,-244,-75,37,33,2
8470,-3,-245,-77,32,36,3
8475,-5,-249,-72,28,41,5
8480,-4,-247,-71,25,46,6
8485,-4,-251,-76,26,51,8
8490,-3,-249,-70,28,56,7
8495,-1,-253,-72,31,60,7
8500,1,-253,-75,36,65,7
8505,-1,-252,-72,40,69,8
8510,-2,-252,-75,44,72,8
8515,-1,-254,-74,47,75,6
8520,0,-251,-76,47,74,5
8525,-3,-252,-77,46,75,6
8530,-3,-251,-75,45,77,7
8535,-5,-251,-83,44,81,5
8540,-7,-250,-76,42,83,6
8545,-4,-250,-73,40,84,7
8550,-4,-250,-77,41,87,7
8555,-4,-249,-79,40,86,8
8560,-6,-248,-75,42,86,10
8565,-5,-248,-77,43,84,12
8570,-5,-250,-74,42,83,14
8575,-6,-249,-75,42,84,16
8580,-6,-250,-79,41,87,17
8585,-4,-248,-75,38,89,18
8590,-8,-250,-73,36,90,20
8595,-6,-247,-78,36,90,19
8600,-4,-251,-74,36,90,17
8605,-7,-249,-79,37,89,16
8610,-6,-248,-74,40,90,17
8615,-8,-247,-71,42,91,17
8620,-7,-246,-74,42,92,16
8625,-8,-251,-78,42,93,14
8630,-5,-247,-69,40,91,14
8635,-8,-245,-75,37,92,14
8640,-7,-249,-75,35,90,11
8645,-9,-250,-75,32,88,11
8650,-8,-248,-73,30,89,12
8655,-5,-249,-75,28,88,11
8660,-9,-247,-71,26,89,12
8665,-7,-249,-72,25,88,12
8670,-5,-250,-72,22,88,11
8675,-11,-250,-72,21,88,10
8680,-7,-250,-72,20,86,10
8685,-5,-253,-73,18,83,9
8690,-7,-252,-70,16,82,8
8695,-6,-250,-76,14,82,8
8700,-7,-251,-74,13,80,5
8705,-9,-250,-74,10,78,6
8710,-7,-248,-70,7,74,6
8715,-8,-253,-71,5,74,6
8720,-6,-248,-69,4,72,6
8725,-7,-250,-69,2,72,7
8730,-10,-247,-74,2,72,5
8735,-8,-250,-75,1,70,6
8740,-8,-252,-76,1,68,4
8745,-7,-246,-73,-1,70,6
8750,-10,-249,-73,-3,68,5
8755,-11,-247,-73,-6,69,4
8760,-5,-250,-75,-8,69,5
8765,-7,-252,-76,-9,69,5
8770,-6,-251,-73,-11,70,4
8775,-10,-250,-73,-13,69,5
8780,-9,-249,-69,-15,67,3
8785,-7,-253,-70,-15,64,2
8790,-5,-253,-74,-13,62,0
8795,-4,-254,-73,-11,62,2
8800,-7,-254,-71,-7,65,-1
8805,-8,-252,-71,-2,67,-1
8810,-6,-254,-70,3,68,-1
8815,-8,-252,-69,6,70,-2
8820,-5,-253,-69,8,73,-2
8825,-2,-253,-66,8,73,-3
8830,-3,-251,-71,7,73,-4
8835,-5,-253,-70,8,70,-4
8840,-7,-250,-69,8,66,-4
8845,-8,-253,-72,7,65,-5
8850,-7,-249,-70,6,63,-8
8855,-4,-251,-70,5,61,-7
8860,-9,-248,-70,3,60,-9
8865,-7,-248,-70,-1,61,-8
8870,-8,-249,-70,-5,62,-8
8875,-9,-251,-67,-10,63,-8
8880,-8,-253,-73,-13,61,-8
8885,-6,-250,-73,-16,61,-8
8890,-8,-252,-69,-18,61,-8
8895,-7,-252,-71,-19,61,-8
8900,-13,-249,-71,-18,59,-8
8905,-10,-253,-71,-16,57,-7
8910,-7,-251,-68,-14,56,-7
8915,-6,-253,-69,-14,55,-6
8920,-8,-251,-69,-12,54,-7
8925,-11,-251,-69,-11,55,-6
8930,-6,-252,-69,-12,56,-7
8935,-5,-253,-67,-10,55,-6
8940,-6,-252,-70,-6,55,-7
8945,-9,-254,-68,-4,57,-8
8950,-7,-250,-70,-3,59,-8
8955,-8,-250,-68,-3,60,-7
8960,-6,-253,-68,-4,62,-7
8965,-4,-252,-68,-6,61,-9
8970,-8,-254,-72,-5,61,-8
8975,-6,-253,-68,-7,61,-7
8980,-6,-253,-69,-6,60,-8
8985,-7,-251,-68,-6,60,-8
8990,-6,-254,-69,-6,60,-9
8995,-5,-254,-71,-6,60,-10
9000,-6,-254,-69,-3,59,-10
9005,-8,-253,-69,0,62,-9
9010,-9,-254,-70,3,65,-9
9015,-6,-253,-69,6,67,-8
9020,-9,-256,-68,12,69,-6
9025,-10,-250,-70,16,68,-6
9030,-6,-255,-65,20,65,-4
9035,-11,-250,-69,26,63,-4
9040,-9,-253,-68,28,61,-4
9045,-6,-254,-67,28,59,-7
9050,-5,-254,-65,26,60,-7
9055,-7,-252,-73,22,63,-8
9060,-8,-250,-66,18,66,-8
9065,-9,-252,-66,16,65,-9
9070,-6,-251,-66,12,64,-10
9075,-8,-253,-66,8,64,-12
9080,-8,-248,-75,8,64,-13
9085,-3,-251,-69,9,63,-13
9090,-8,-253,-66,9,62,-14
9095,-6,-251,-65,8,63,-14
9100,-7,-251,-64,6,63,-14
9105,-10,-253,-66,6,62,-14
9110,-7,-252,-68,7,63,-15
9115,-7,-252,-66,5,62,-13
9120,-8,-252,-66,4,62,-12
9125,-8,-253,-64,6,60,-12
9130,-6,-254,-65,6,59,-11
9135,-7,-252,-67,8,57,-11
9140,-7,-253,-65,10,56,-11
9145,-6,-255,-65,11,56,-11
9150,-9,-250,-65,12,55,-11
9155,-8,-252,-68,12,56,-11
9160,-5,-252,-65,12,56,-11
9165,-6,-255,-64,11,56,-11
9170,-8,-253,-67,9,57,-10
9175,-7,-252,-68,8,57,-11
9180,-8,-250,-68,5,57,-12
9185,-9,-253,-66,5,56,-13
9190,-14,-250,-78,3,55,-13
9195,-7,-254,-66,2,54,-11
9200,-9,-253,-66,5,54,-13
9205,-7,-254,-68,9,53,-12
9210,-7,-253,-67,12,53,-12
9215,-8,-255,-67,13,56,-12
9220,-7,-253,-69,15,58,-11
9225,-8,-253,-70,13,59,-10
9230,-10,-252,-68,12,59,-9
9235,-5,-252,-71,12,57,-9
9240,-7,-250,-65,9,57,-9
9245,-9,-251,-66,10,55,-8
9250,-8,-254,-70,10,56,-7
9255,-11,-251,-67,11,55,-7
9260,-7,-254,-68,11,54,-9
9265,-7,-251,-67,14,53,-8
9270,-5,-253,-69,15,49,-8
9275,-6,-249,-69,17,49,-7
9280,-7,-251,-66,21,47,-7
9285,-8,-251,-66,20,47,-6
9290,-7,-251,-64,16,46,-5
9295,-9,-254,-68,13,47,-6
9300,-7,-250,-66,6,48,-7
9305,-7,-253,-64,1,49,-9
9310,-4,-253,-65,-3,53,-8
9315,-6,-254,-67,-5,56,-10
9320,-6,-254,-65,-8,59,-8
9325,-8,-253,-65,-7,62,-9
9330,-4,-254,-68,-5,63,-9
9335,-8,-254,-66,0,64,-10
9340,-8,-254,-64,4,65,-10
9345,-9,-252,-67,9,64,-10
9350,-8,-254,-64,13,64,-9
9355,-9,-255,-66,14,64,-9
9360,-8,-253,-67,15,62,-9
9365,-9,-252,-69,15,60,-10
9370,-6,-255,-66,14,56,-9
9375,-8,-253,-67,15,53,-9
9380,-9,-254,-67,16,50,-9
9385,-11,-250,-65,17,48,-9
9390,-8,-250,-69,18,45,-8
9395,-8,-249,-65,19,44,-7
9400,-6,-253,-64,20,45,-6
9405,-11,-254,-60,22,46,-4
9410,-6,-253,-64,25,48,-3
9415,-10,-252,-63,28,49,-4
9420,-6,-254,-63,33,50,-6
9425,-8,-253,-65,37,50,-4
9430,-6,-254,-64,38,49,-4
9435,-6,-253,-66,36,50,-3
9440,-2,-254,-64,34,51,-5
9445,-4,-250,-64,31,51,-5
9450,-9,-251,-65,30,51,-5
9455,-7,-254,-65,32,53,-4
9460,-8,-249,-68,36,51,-5
9465,-7,-253,-64,38,52,-6
9470,-5,-253,-64,42,54,-5
9475,-6,-251,-65,44,53,-7
9480,-6,-253,-67,45,51,-6
9485,-7,-252,-64,45,51,-8
9490,-9,-253,-63,44,50,-8
9495,-5,-251,-64,42,48,-8
9500,-10,-250,-61,38,45,-7
9505,-6,-252,-63,35,42,-8
9510,-8,-256,-60,33,42,-8
9515,-2,-242,-64,31,41,-7
9520,-7,-256,-62,31,43,-7
9525,-6,-254,-63,33,42,-6
9530,-5,-253,-59,35,42,-8
9535,-7,-255,-61,34,40,-7
9540,-6,-253,-65,32,40,-5
9545,-9,-250,-70,27,40,-3
9550,-6,-252,-65,17,44,-2
9555,-6,-250,-66,5,49,-2
9560,-7,-252,-66,-8,53,-2
9565,-10,-255,-65,-17,58,1
9570,-6,-255,-64,-21,61,0
9575,-7,-255,-64,-19,61,-1
9580,-7,-254,-63,-15,59,1
9585,-7,-255,-65,-7,58,-1
9590,-8,-254,-65,-2,57,-1
9595,-7,-254,-66,3,56,0
9600,-10,-253,-63,8,56,-2
9605,-9,-251,-64,13,55,-1
9610,-6,-251,-63,18,55,0
9615,-7,-253,-66,18,54,0
9620,-7,-252,-65,16,52,-1
9625,-3,-250,-64,12,52,-1
9630,-8,-254,-64,7,53,0
9635,-8,-250,-65,4,54,-3
9640,-7,-252,-63,-1,55,-3
9645,-9,-255,-65,-5,56,-1
9650,-6,-251,-63,-8,56,-2
9655,-9,-254,-63,-9,55,-3
9660,-6,-253,-62,-12,56,-4
9665,-8,-252,-64,-14,58,-2
9670,-9,-254,-63,-14,61,-2
9675,-9,-255,-62,-17,64,-3
9680,-5,-252,-64,-17,66,-3
9685,-9,-252,-64,-16,68,-4
9690,-11,-252,-64,-13,69,-4
9695,-8,-256,-61,-8,65,-4
9700,-7,-253,-64,-4,62,-2
9705,-7,-254,-62,-1,61,-4
9710,-9,-255,-62,2,60,-4
9715,-6,-253,-62,1,60,-3
9720,-6,-253,-64,-2,58,-3
9725,-7,-256,-61,-5,58,-4
9730,-6,-255,-64,-8,60,-4
9735,-6,-255,-43,-13,62,-4
9740,-9,-255,-64,-17,65,-3
9745,-4,-254,-63,-24,68,-3
9750,-6,-255,-63,-27,70,-2
9755,-4,-255,-63,-28,70,-3
9760,-4,-253,-64,-26,70,-3
9765,-9,-254,-63,-22,69,-2
9770,-3,-255,-64,-19,67,-2
9775,-8,-254,-62,-16,65,-3
9780,-9,-252,-67,-13,66,-2
9785,-9,-255,-64,-11,66,-2
9790,-7,-252,-66,-12,64,-3
9795,-7,-255,-63,-12,62,-2
9800,-7,-256,-62,-12,60,-2
9805,-8,-253,-61,-13,58,-3
9810,-8,-251,-64,-13,57,-1
9815,-8,-253,-61,-14,59,-2
9820,-5,-256,-64,-14,61,0
9825,-7,-254,-64,-14,64,-1
9830,-10,-253,-64,-17,67,-1
9835,-7,-253,-66,-21,69,-3
9840,-12,-251,-60,-26,69,-2
9845,-6,-255,-64,-27,70,-3
9850,-6,-256,-66,-27,67,-4
9855,-6,-256,-65,-26,67,-5
9860,-8,-255,-64,-19,66,-5
9865,-8,-253,-63,-12,67,-5
9870,-7,-255,-63,-5,67,-5
9875,-5,-255,-63,-1,67,-6
9880,-5,-254,-62,3,67,-5
9885,-5,-255,-62,8,68,-6
9890,-10,-251,-62,10,70,-6
9895,-6,-253,-59,13,71,-6
9900,-6,-256,-62,13,71,-5
9905,-5,-253,-60,14,72,-4
9910,-8,-252,-59,12,73,-4
9915,-6,-255,-61,10,74,-4
9920,-6,-251,-58,7,75,-3
9925,-9,-251,-63,4,77,-3
9930,-6,-253,-58,2,77,-2
9935,-6,-254,-60,-2,75,-3
9940,-8,-250,-59,-6,71,-2
9945,-5,-252,-64,-11,68,-1
9950,-8,-257,-72,-15,63,0
9955,-5,-253,-67,-21,63,0
9960,-8,-252,-66,-24,62,1
9965,-6,-253,-63,-27,63,0
9970,-4,-253,-63,-28,63,2
9975,-6,-255,-64,-28,66,0
9980,-9,-252,-63,-27,66,1
9985,-6,-255,-64,-27,67,1
9990,-5,-255,-62,-29,70,0
9995,-5,-254,-62,-27,73,0
10000,-6,-255,-59,-26,76,-1
10005,-7,-256,-64,-26,77,-3
10010,-10,-254,-65,-28,77,-2
10015,-9,-255,-64,-33,79,-3
10020,-7,-255,-66,-38,76,-2
10025,-10,-255,-64,-43,72,-3
10030,-10,-253,-66,-47,68,-3
10035,-6,-255,-64,-49,65,-3
10040,-6,-255,-64,-49,65,-3
10045,-8,-256,-67,-45,63,-2
10050,-8,-254,-64,-40,63,-4
10055,-7,-254,-64,-37,66,-3
10060,-7,-252,-71,-34,70,-3
10065,-11,-253,-62,-32,71,-3
10070,-6,-255,-65,-29,72,-4
10075,-9,-253,-62,-29,73,-2
10080,-8,-253,-62,-27,72,-2
10085,-7,-252,-65,-26,73,-1
10090,-6,-254,-65,-25,74,-2
10095,-6,-253,-65,-25,72,-2
10100,-6,-255,-65,-24,72,-1
10105,-5,-253,-63,-25,72,-1
10110,-7,-253,-64,-25,74,0
10115,-9,-253,-64,-25,76,0
10120,-8,-251,-63,-23,74,0
10125,-5,-254,-65,-23,70,0
10130,-8,-254,-64,-23,68,-1
10135,-7,-255,-65,-24,65,-1
10140,-7,-255,-63,-25,63,-1
10145,-7,-254,-61,-25,62,0
10150,-8,-252,-59,-26,65,0
10155,-10,-254,-62,-25,68,0
10160,-8,-253,-65,-24,70,-2
10165,-11,-254,-64,-23,71,-3
10170,-12,-247,-62,-21,73,-3
10175,-7,-255,-64,-19,73,-2
10180,-8,-257,-64,-19,72,-3
10185,-9,-253,-64,-19,70,-4
10190,-6,-255,-64,-19,71,-3
10195,-8,-254,-67,-20,68,-2
10200,-6,-255,-64,-21,68,-1
10205,-9,-254,-66,-20,67,-1
10210,-9,-253,-64,-20,66,0
10215,-8,-254,-63,-21,65,0
10220,-7,-252,-64,-18,68,0
10225,-9,-253,-66,-16,68,1
10230,-9,-253,-64,-13,68,1
10235,-5,-254,-65,-9,69,1
10240,-7,-252,-64,-6,70,1
10245,-6,-255,-66,-3,70,1
10250,-8,-250,-64,-2,70,0
10255,-7,-255,-68,-4,70,2
10260,-8,-254,-63,-7,71,0
10265,-10,-249,-65,-10,73,0
10270,-8,-250,-63,-16,73,1
10275,-5,-253,-65,-21,72,1
10280,-5,-256,-73,-24,72,-1
10285,-7,-253,-61,-26,71,0
10290,-6,-254,-63,-26,70,1
10295,-7,-256,-64,-22,70,0
10300,-7,-254,-62,-19,70,0
10305,-4,-254,-63,-14,71,1
10310,-10,-252,-63,-11,69,0
10315,-8,-255,-61,-12,69,0
10320,-10,-252,-63,-11,68,-1
10325,-9,-255,-66,-12,69,-2
10330,-8,-253,-66,-15,71,-1
10335,-9,-252,-65,-18,72,-3
10340,-7,-254,-66,-23,73,-2
10345,-9,-252,-64,-26,72,-3
10350,-9,-255,-65,-27,71,-2
10355,-8,-254,-65,-27,71,-1
10360,-7,-254,-64,-25,67,-1
10365,-9,-255,-63,-21,65,-2
10370,-9,-253,-67,-18,63,0
10375,-11,-252,-67,-13,62,1
10380,-9,-252,-66,-8,62,0
10385,-11,-252,-68,-3,60,0
10390,-4,-252,-68,1,62,0
10395,-7,-253,-66,5,63,-1
10400,-5,-250,-68,6,63,0
10405,-5,-251,-69,5,62,-2
10410,-10,-253,-68,2,65,-1
10415,-8,-252,-67,0,64,0
10420,-5,-253,-63,-2,65,-2
10425,-6,-253,-63,-4,67,-1
10430,-7,-254,-63,-7,69,-1
10435,-8,-251,-64,-8,71,-3
10440,-6,-254,-64,-8,73,-2
10445,-5,-254,-60,-8,75,-2
10450,-5,-254,-64,-8,74,-3
10455,-5,-253,-63,-6,76,-2
10460,-5,-253,-65,-5,73,-2
10465,-8,-254,-65,-4,70,-2
10470,-7,-253,-62,-1,69,-2
10475,-9,-254,-62,0,67,-3
10480,-7,-252,-63,0,67,0
10485,-6,-254,-65,-2,67,-1
10490,-7,-254,-63,-2,69,0
10495,-14,-253,-71,-4,69,-1
10500,-10,-253,-66,-6,70,0
10505,-5,-253,-64,-8,73,-1
10510,-9,-254,-63,-10,76,0
10515,-6,-253,-63,-10,76,-1
10520,-9,-255,-65,-9,76,0
10525,-8,-250,-62,-11,76,-1
10530,-9,-251,-65,-10,75,-1
10535,-6,-253,-67,-9,74,0
10540,-9,-252,-65,-8,71,-1
10545,-9,-251,-62,-4,70,-2
10550,-9,-255,-65,-1,71,-2
10555,-4,-256,-63,1,72,-1
10560,-7,-254,-66,1,72,-1
10565,-7,-253,-62,-1,70,-2
10570,-7,-254,-66,-3,68,0
10575,-7,-254,-63,-6,69,0
10580,-8,-253,-65,-10,68,1
10585,-6,-253,-66,-8,71,1
10590,-9,-253,-64,-9,72,2
10595,-6,-251,-62,-9,71,2
10600,-8,-253,-61,-9,73,2
10605,-10,-248,-66,-8,75,1
10610,-8,-255,-63,-6,76,1
10615,-7,-255,-62,-3,73,3
10620,-6,-256,-64,-1,75,2
10625,-5,-254,-62,2,75,1
10630,-7,-252,-62,4,74,2
10635,-8,-254,-62,6,74,1
10640,-9,-251,-63,5,75,2
10645,-6,-254,-64,5,77,3
10650,-6,-255,-65,6,79,1
10655,-9,-252,-65,5,78,1
10660,-10,-254,-64,3,77,1
10665,-7,-253,-64,2,76,1
10670,-5,-255,-64,2,76,1
10675,-10,-253,-64,2,74,1
10680,-10,-252,-63,2,75,-2
10685,-10,-255,-65,2,74,-1
10690,-7,-253,-64,1,71,-1
10695,-6,-255,-66,2,70,-3
10700,-8,-253,-63,2,72,-2
10705,-10,-251,-62,4,72,-1
10710,-8,-254,-65,3,71,0
10715,-11,-249,-69,2,70,-1
10720,-10,-255,-63,1,71,-1
10725,-9,-253,-63,0,71,0
10730,-8,-253,-62,1,73,-1
10735,-9,-253,-63,-1,74,-2
10740,-7,-255,-64,-1,77,-2
10745,-8,-254,-63,-1,78,0
10750,-8,-253,-63,-3,77,-1
10755,-7,-251,-63,-6,76,-2
10760,-7,-255,-64,-10,75,-2
10765,-7,-256,-61,-14,72,-1
10770,-6,-254,-60,-17,70,-2
10775,-8,-255,-62,-18,70,-2
10780,-5,-254,-62,-16,71,-2
10785,-8,-252,-61,-13,72,-1
10790,-4,-254,-60,-10,74,-1
10795,-9,-254,-65,-7,73,-1
10800,-7,-254,-63,-4,73,0
10805,-6,-252,-62,-3,74,0
10810,-8,-252,-64,-3,76,-2
10815,-7,-255,-62,-6,78,-1
10820,-7,-257,-62,-8,80,0
10825,-6,-254,-61,-12,82,-1
10830,-7,-251,-62,-14,85,-2
10835,-9,-254,-66,-16,86,-2
10840,-10,-251,-64,-17,84,-2
10845,-9,-254,-65,-16,80,-3
10850,-11,-251,-64,-16,78,-3
10855,-9,-251,-66,-15,75,-4
10860,-10,-253,-63,-12,75,-2
10865,-9,-254,-65,-12,73,-4
10870,-8,-252,-62,-14,74,-4
10875,-10,-252,-64,-15,75,-3
10880,-13,-251,-64,-18,76,-3
10885,-10,-250,-62,-20,77,-2
10890,-10,-252,-65,-20,76,-4
10895,-10,-253,-64,-18,77,-5
10900,-7,-254,-65,-14,76,-2
10905,-7,-250,-65,-11,73,-4
10910,-10,-256,-63,-11,73,-3
10915,-9,-255,-66,-10,70,-2
10920,-8,-254,-65,-9,69,-3
10925,-8,-253,-67,-6,70,-1
10930,-11,-258,-65,-5,71,-1
10935,-5,-253,-64,-4,72,-1
10940,-8,-254,-66,-4,73,0
10945,-7,-256,-60,-3,74,-1
10950,-7,-252,-60,-2,75,0
10955,-9,-253,-62,-3,75,0
10960,-7,-255,-62,-5,76,1
10965,-8,-253,-62,-8,78,-1
10970,-7,-255,-63,-11,79,-1
10975,-11,-251,-66,-11,79,-2
10980,-9,-253,-61,-11,79,-2
10985,-11,-255,-63,-8,80,-3
10990,-7,-255,-63,-5,81,-4
10995,-8,-254,-63,-3,81,-4
11000,-9,-253,-59,0,80,-4
11005,-10,-254,-63,1,80,-4
11010,-8,-254,-65,2,78,-4
11015,-9,-255,-63,0,77,-3
11020,-10,-254,-64,-2,76,-4
11025,-9,-252,-63,-6,76,-4
11030,-10,-252,-64,-11,76,-3
11035,-10,-251,-64,-15,77,-3
11040,-9,-254,-69,-18,75,-2
11045,-10,-250,-64,-17,73,-2
11050,-5,-254,-63,-16,72,-3
11055,-10,-254,-63,-16,70,-1
11060,-7,-253,-61,-12,69,-2
11065,-8,-252,-63,-11,70,-3
11070,-8,-253,-61,-11,69,-2
11075,-8,-256,-66,-10,70,0
11080,-10,-251,-63,-10,70,1
11085,-9,-254,-63,-10,70,1
11090,-9,-253,-65,-8,70,-1
11095,-8,-253,-62,-8,70,-1
11100,-10,-255,-63,-7,69,0
11105,-6,-256,-64,-5,71,-1
11110,-8,-254,-62,-4,70,0
11115,-6,-256,-64,-2,70,-1
11120,-9,-252,-64,-3,70,-2
11125,-8,-253,-64,-4,70,-4
11130,-13,-254,-63,-4,71,-2
11135,-8,-255,-62,-7,71,-4
11140,-9,-253,-63,-6,71,-5
11145,-9,-253,-61,-7,72,-5
11150,-15,-254,-67,-6,72,-6
11155,-9,-253,-63,-6,73,-5
11160,-9,-253,-61,-9,73,-6
11165,-10,-253,-62,-8,72,-7
11170,-8,-252,-63,-9,72,-7
11175,-8,-254,-65,-13,73,-5
11180,-8,-254,-62,-14,73,-6
11185,-8,-256,-65,-17,72,-6
11190,-10,-252,-65,-19,73,-4
11195,-9,-255,-64,-21,73,-4
11200,-11,-255,-63,-20,74,-6
11205,-7,-252,-63,-22,72,-5
11210,-9,-253,-62,-21,69,-5
11215,-10,-254,-64,-21,67,-5
11220,-8,-254,-65,-19,65,-6
11225,-4,-253,-61,-19,64,-3
11230,-6,-255,-62,-20,64,-4
11235,-7,-253,-65,-20,62,-3
11240,-7,-254,-63,-21,64,-2
11245,-7,-254,-64,-21,68,-3
11250,-7,-256,-64,-22,69,-4
11255,-7,-254,-62,-23,69,-3
11260,-5,-256,-63,-22,69,-3
11265,-10,-256,-60,-21,69,-3
11270,-6,-256,-64,-21,69,-3
11275,-11,-253,-63,-21,69,-4
11280,-11,-254,-62,-21,68,-3
11285,-10,-252,-62,-20,68,-4
11290,-8,-254,-62,-22,67,-4
11295,-7,-255,-61,-23,66,-4
11300,-9,-254,-66,-25,67,-5
11305,-8,-255,-63,-26,66,-5
11310,-7,-254,-64,-26,67,-5
11315,-8,-255,-64,-25,70,-4
11320,-9,-252,-64,-25,72,-4
11325,-9,-255,-58,-23,73,-2
11330,-10,-252,-62,-22,73,-3
11335,-5,-256,-62,-22,71,-4
11340,-6,-253,-64,-22,71,-4
11345,-7,-256,-64,-22,71,-4
11350,-10,-252,-63,-23,68,-6
11355,-8,-255,-65,-24,68,-5
11360,-8,-254,-62,-24,67,-5
11365,-2,-251,-66,-23,66,-6
11370,-9,-255,-61,-23,66,-5
11375,-7,-256,-62,-21,65,-6
11380,-11,-252,-62,-20,67,-3
11385,-7,-256,-63,-19,66,-5
11390,-9,-255,-62,-21,67,-5
11395,-7,-254,-63,-20,70,-4
11400,-6,-254,-64,-21,71,-5
11405,-10,-254,-63,-22,73,-5
11410,-9,-252,-63,-25,72,-5
11415,-7,-252,-64,-25,71,-7
11420,-8,-252,-64,-25,70,-7
11425,-6,-254,-62,-24,69,-5
11430,-10,-255,-64,-23,69,-5
11435,-13,-254,-65,-24,67,-7
11440,-7,-253,-65,-25,69,-6
11445,-11,-251,-63,-26,68,-6
11450,-7,-254,-64,-25,69,-5
11455,-7,-255,-64,-26,69,-5
11460,-9,-255,-64,-26,67,-5
11465,-7,-253,-66,-24,68,-6
11470,-7,-254,-64,-23,67,-6
11475,-6,-247,-63,-19,69,-5
11480,-11,-252,-65,-17,70,-4
11485,-10,-257,-63,-17,71,-3
11490,-8,-252,-62,-18,72,-4
11495,-8,-256,-62,-20,73,-5
11500,-6,-253,-63,-19,73,-3
11505,-7,-253,-66,-19,73,-3
11510,-9,-253,-62,-19,71,-3
11515,-9,-252,-64,-17,71,-4
11520,-9,-254,-61,-18,72,-3
11525,-6,-252,-65,-17,72,-5
11530,-7,-252,-63,-16,72,-3
11535,-6,-253,-60,-14,72,-4
11540,-8,-251,-64,-15,72,-5
11545,-5,-254,-62,-15,74,-3
11550,-6,-252,-65,-19,74,-4
11555,-6,-255,-62,-23,74,-5
11560,-7,-256,-62,-27,72,-4
11565,-8,-253,-63,-31,72,-6
11570,-10,-254,-64,-32,70,-4
11575,-10,-254,-64,-32,71,-5
11580,-7,-257,-64,-29,72,-5
11585,-9,-255,-61,-26,71,-5
11590,-8,-253,-64,-24,72,-6
11595,-9,-256,-64,-24,72,-7
11600,-2,-256,-66,-24,72,-6
11605,-10,-253,-63,-25,73,-4
11610,-9,-253,-65,-24,73,-5
11615,-8,-252,-64,-22,73,-5
11620,-8,-254,-62,-20,73,-5
11625,-7,-253,-65,-18,75,-4
11630,-6,-255,-68,-16,75,-4
11635,-8,-250,-66,-15,76,-5
11640,-6,-252,-64,-16,77,-3
11645,-8,-252,-63,-19,77,-4
11650,-7,-252,-64,-21,78,-4
11655,-3,-255,-63,-24,78,-4
11660,-10,-252,-64,-25,79,-5
11665,-6,-256,-64,-27,80,-5
11670,-9,-255,-63,-27,80,-5
11675,-8,-252,-63,-27,81,-5
11680,-7,-254,-65,-25,82,-6
11685,-7,-255,-63,-24,83,-6
11690,-10,-254,-64,-20,84,-5
11695,-19,-258,-68,-20,83,-6
11700,-7,-253,-63,-18,85,-5
11705,-9,-255,-64,-18,86,-6
11710,-8,-251,-64,-19,87,-6
11715,-10,-253,-64,-21,86,-6
11720,-8,-253,-63,-22,85,-4
11725,-7,-253,-63,-23,84,-4
11730,-9,-254,-66,-23,87,-4
11735,-9,-252,-64,-21,84,-4
11740,-10,-256,-65,-17,83,-4
11745,-6,-256,-63,-17,82,-2
11750,-8,-252,-62,-17,80,-4
11755,-7,-255,-65,-16,78,-3
11760,-8,-254,-64,-16,78,-2
11765,-8,-251,-69,-18,77,0
11770,-10,-253,-62,-19,75,-1
11775,-7,-255,-65,-18,75,-1
11780,-6,-254,-66,-17,76,1
11785,-10,-255,-63,-15,76,-1
11790,-7,-252,-62,-15,78,0
11795,-6,-252,-63,-14,80,-1
11800,-7,-252,-64,-14,84,-3
11805,-5,-255,-50,-15,87,-4
11810,-9,-253,-62,-14,89,-4
11815,-9,-255,-64,-13,88,-3
11820,-12,-254,-63,-11,86,-4
11825,-10,-255,-62,-8,84,-4
11830,-10,-254,-62,-6,82,-4
11835,-7,-253,-64,-4,81,-4
11840,-9,-253,-64,-4,81,-4
11845,-11,-253,-64,-5,80,-4
11850,-11,-253,-63,-8,80,-5
11855,-11,-253,-65,-10,79,-6
11860,-9,-254,-65,-13,80,-5
11865,-5,-253,-64,-14,79,-5
11870,-10,-254,-66,-18,78,-3
11875,-6,-256,-65,-17,77,-4
11880,-8,-254,-63,-14,76,-3
11885,-9,-254,-64,-14,73,-4
11890,-8,-253,-63,-14,75,-3
11895,-10,-254,-66,-13,75,-4
11900,-7,-252,-62,-15,75,-4
11905,-6,-254,-66,-15,75,-4
11910,-17,-253,-67,-15,75,-6
11915,-5,-254,-65,-14,75,-5
11920,-8,-256,-66,-11,74,-5
11925,-9,-251,-64,-10,72,-4
11930,-7,-253,-66,-7,71,-5
11935,-8,-256,-65,-4,67,-4
11940,-8,-254,-67,-2,67,-5
11945,-5,-256,-68,0,66,-3
11950,-9,-252,-64,1,65,-4
11955,-9,-253,-67,1,66,-4
11960,-6,-254,-66,0,68,-3
11965,-5,-256,-66,-3,70,-3
11970,-10,-254,-63,-3,73,-2
11975,-8,-253,-64,-3,75,-4
11980,-10,-250,-62,-1,76,-5
11985,-8,-253,-64,-2,77,-4
11990,-9,-253,-63,0,74,-5
11995,-10,-251,-63,0,73,-4
