timestamp,acc_x,acc_y,acc_z,gyro_x,gyro_y,gyro_z
0,-16,-251,-57,-36,62,2
5,-19,-251,-61,-38,61,2
10,-19,-251,-60,-39,62,2
15,-17,-250,-59,-39,62,2
20,-14,-250,-64,-37,63,1
25,-22,-247,-61,-35,63,1
30,-17,-247,-60,-34,63,1
35,-19,-250,-59,-34,64,-1
40,-16,-249,-59,-34,65,-1
45,-15,-249,-63,-36,66,0
50,-16,-250,-60,-37,66,1
55,-19,-247,-60,-39,69,3
60,-13,-252,-62,-39,69,1
65,-14,-250,-59,-38,70,1
70,-17,-253,-60,-36,70,0
75,-8,-242,-60,-35,71,-2
80,-17,-252,-56,-32,69,-1
85,-18,-249,-60,-28,70,-3
90,-15,-253,-57,-24,70,-5
95,-18,-249,-62,-20,70,-7
100,-19,-249,-62,-21,72,-8
105,-18,-248,-59,-24,73,-8
110,-19,-248,-61,-30,73,-8
115,-17,-249,-58,-36,73,-9
120,-16,-250,-56,-44,71,-6
125,-19,-251,-54,-48,72,-5
130,-17,-251,-59,-50,71,-5
135,-14,-253,-60,-48,70,-3
140,-17,-253,-61,-44,68,-3
145,-16,-251,-58,-38,66,-3
150,-20,-253,-63,-31,64,-4
155,-20,-250,-64,-25,61,-3
160,-17,-245,-67,-25,57,-2
165,-20,-247,-66,-25,55,-3
170,-19,-248,-67,-28,55,-3
175,-16,-248,-64,-32,55,-2
180,-16,-251,-63,-34,58,-2
185,-19,-248,-66,-34,61,0
190,-16,-249,-61,-34,63,1
195,-14,-247,-63,-32,65,-1
200,-17,-250,-56,-30,66,0
205,-17,-250,-58,-27,67,-1
210,-12,-249,-57,-27,68,-2
215,-15,-249,-56,-30,67,-5
220,-16,-248,-57,-32,66,-5
225,-17,-250,-58,-34,66,-6
230,-15,-251,-61,-36,65,-6
235,-19,-249,-60,-40,66,-7
240,-16,-250,-60,-41,67,-9
245,-17,-250,-61,-42,69,-8
250,-17,-253,-59,-41,69,-8
255,-19,-249,-59,-39,69,-6
260,-15,-252,-58,-34,70,-5
265,-17,-250,-59,-34,72,-4
270,-18,-248,-60,-35,70,-3
275,-20,-251,-59,-34,68,-2
280,-14,-250,-60,-33,67,-4
285,-16,-249,-57,-31,63,-4
290,-15,-248,-63,-29,61,-4
295,-16,-252,-60,-27,61,-4
300,-15,-249,-64,-29,61,-4
305,-18,-248,-60,-30,60,-4
310,-16,-249,-61,-32,60,-4
315,-16,-249,-61,-35,62,-4
320,-15,-252,-61,-37,64,-4
325,-17,-252,-57,-38,63,-3
330,-15,-249,-58,-35,63,-1
335,-18,-250,-60,-34,61,-3
340,-19,-249,-60,-34,60,-2
345,-17,-249,-60,-36,62,-4
350,-15,-250,-58,-38,62,-5
355,-16,-252,-63,-40,63,-5
360,-14,-253,-62,-41,66,-5
365,-18,-251,-62,-41,67,-7
370,-18,-248,-65,-41,70,-7
375,-16,-250,-63,-38,70,-6
380,-15,-252,-62,-36,71,-5
385,-19,-251,-63,-35,73,-6
390,-14,-249,-62,-35,73,-6
395,-19,-247,-61,-35,73,-6
400,-16,-249,-60,-36,72,-6
405,-14,-248,-60,-36,72,-6
410,-15,-246,-60,-37,70,-7
415,-16,-247,-61,-35,69,-6
420,-15,-249,-63,-35,67,-5
425,-16,-248,-60,-36,66,-6
430,-15,-247,-58,-39,66,-6
435,-17,-248,-62,-43,66,-8
440,-17,-248,-63,-45,67,-8
445,-15,-249,-59,-46,69,-7
450,-18,-248,-64,-47,70,-9
455,-20,-249,-64,-48,71,-9
460,-16,-249,-62,-46,72,-8
465,-17,-247,-65,-45,72,-8
470,-15,-246,-64,-44,73,-6
475,-17,-252,-62,-42,75,-4
480,-18,-250,-61,-41,77,-2
485,-15,-251,-59,-38,74,-2
490,-14,-253,-60,-34,71,0
495,-14,-250,-59,-30,68,0
500,-16,-252,-61,-27,66,-1
505,-14,-248,-64,-26,65,-1
510,-13,-250,-64,-27,64,-3
515,-26,-252,-65,-33,65,-4
520,-16,-250,-64,-36,66,-5
525,-13,-251,-65,-38,70,-6
530,-17,-250,-64,-39,73,-5
535,-18,-249,-66,-39,76,-7
540,-15,-250,-61,-38,77,-7
545,-16,-250,-65,-35,80,-8
550,-15,-251,-61,-34,83,-7
555,-12,-254,-61,-34,84,-7
560,-18,-249,-61,-33,83,-5
565,-17,-250,-66,-34,80,-7
570,-16,-253,-64,-34,78,-6
575,-14,-252,-65,-33,77,-6
580,-15,-253,-65,-32,78,-5
585,-18,-248,-66,-29,77,-4
590,-19,-249,-66,-23,76,-4
595,-19,-248,-65,-20,77,-4
600,-16,-249,-66,-20,77,-5
605,-14,-248,-65,-21,79,-6
610,-19,-250,-70,-23,79,-5
615,-14,-247,-67,-26,78,-5
620,-15,-248,-62,-27,78,-5
625,-16,-250,-63,-29,77,-3
630,-16,-247,-60,-29,78,-5
635,-18,-249,-60,-29,77,-5
640,-17,-248,-59,-31,76,-4
645,-16,-247,-62,-31,77,-5
650,-14,-249,-63,-32,75,-4
655,-16,-249,-64,-32,75,-4
660,-16,-249,-64,-31,76,-3
665,-17,-251,-67,-31,75,-2
670,-17,-250,-63,-29,72,-4
675,-18,-249,-64,-28,71,-4
680,-18,-250,-66,-27,71,-4
685,-13,-251,-66,-24,73,-4
690,-14,-249,-62,-23,73,-3
695,-17,-247,-63,-21,75,-2
700,-16,-248,-62,-21,77,-1
705,-17,-249,-62,-21,77,0
710,-16,-250,-64,-22,77,0
715,-18,-248,-63,-22,76,1
720,-18,-248,-64,-24,76,0
725,-15,-248,-68,-27,74,1
730,-16,-250,-61,-29,74,1
735,-15,-250,-65,-29,73,-1
740,-17,-249,-66,-29,73,-2
745,-14,-248,-64,-28,72,-2
750,-18,-249,-66,-29,72,-3
755,-17,-249,-65,-33,73,-4
760,-15,-249,-62,-35,74,-6
765,-17,-249,-61,-36,74,-5
770,-17,-249,-63,-36,75,-7
775,-15,-248,-64,-36,77,-6
780,-14,-248,-67,-35,79,-5
785,-17,-248,-66,-34,78,-7
790,-17,-248,-62,-34,80,-6
795,-15,-249,-61,-35,80,-6
800,-17,-249,-64,-33,77,-6
805,-14,-249,-65,-35,76,-5
810,-17,-249,-65,-35,73,-5
815,-17,-249,-66,-37,73,-4
820,-18,-249,-65,-38,72,-3
825,-18,-248,-67,-39,71,-3
830,-15,-250,-64,-40,72,-3
835,-18,-251,-66,-37,71,-3
840,-16,-251,-73,-36,71,-1
845,-16,-248,-65,-35,73,2
850,-17,-250,-66,-32,71,0
855,-19,-247,-65,-31,70,-1
860,-20,-247,-69,-30,69,-1
865,-16,-248,-68,-33,69,-1
870,-17,-249,-65,-32,70,-2
875,-15,-248,-63,-34,70,-2
880,-11,-247,-64,-34,69,0
885,-16,-251,-68,-33,70,0
890,-15,-248,-61,-31,69,-1
895,-18,-250,-66,-27,71,-2
900,-19,-247,-69,-27,71,-3
905,-16,-249,-66,-26,71,-3
910,-17,-249,-67,-26,72,-5
915,-17,-251,-66,-26,72,-3
920,-17,-248,-64,-28,73,-3
925,-16,-249,-67,-31,71,-4
930,-18,-249,-63,-32,72,-5
935,-15,-249,-66,-30,71,-5
940,-15,-251,-64,-27,72,-4
945,-15,-251,-66,-22,72,-4
950,-16,-254,-65,-18,74,-4
955,-17,-248,-65,-16,76,-3
960,-18,-249,-65,-14,77,-2
965,-17,-250,-65,-14,76,-1
970,-16,-250,-66,-13,74,-2
975,-16,-249,-62,-10,74,0
980,-19,-246,-66,-8,71,0
985,-16,-248,-64,-7,70,-2
990,-18,-249,-62,-7,66,-1
995,-15,-248,-65,-10,65,-1
1000,-15,-253,-63,-13,65,0
1005,-15,-249,-69,-16,62,0
1010,-16,-250,-67,-17,61,0
1015,-16,-249,-64,-17,62,0
1020,-19,-253,-62,-17,63,1
1025,-15,-251,-65,-16,63,1
1030,-18,-248,-66,-13,64,-2
1035,-15,-249,-64,-14,66,-3
1040,-16,-250,-66,-14,67,-2
1045,-15,-251,-66,-13,71,-3
1050,-20,-249,-66,-10,72,-4
1055,-26,-248,-69,-8,70,-3
1060,-14,-248,-67,-5,70,-4
1065,-17,-246,-63,-4,70,-3
1070,-16,-243,-65,-3,71,-1
1075,-17,-248,-61,-5,72,-2
1080,-16,-244,-62,-7,71,-3
1085,-19,-248,-65,-8,69,-2
1090,-17,-247,-62,-11,68,-3
1095,-16,-248,-66,-11,67,-3
1100,-15,-249,-66,-13,67,-3
1105,-16,-251,-68,-14,67,-5
1110,-18,-249,-64,-13,66,-4
1115,-18,-249,-69,-12,66,-3
1120,-16,-251,-66,-10,68,-3
1125,-14,-250,-66,-9,68,-5
1130,-19,-249,-62,-9,68,-4
1135,-15,-250,-65,-10,69,-3
1140,-15,-251,-64,-10,69,-3
1145,-16,-249,-63,-7,69,-1
1150,-15,-250,-66,-3,70,-3
1155,-14,-250,-68,1,70,-2
1160,-16,-247,-65,5,69,0
1165,-15,-250,-58,6,69,-1
1170,-16,-248,-66,8,70,-1
1175,-16,-248,-64,4,70,0
1180,-16,-249,-64,2,70,1
1185,-19,-250,-65,0,70,-1
1190,-20,-247,-63,-3,70,-1
1195,-14,-250,-70,-6,70,-1
1200,-17,-253,-69,-8,68,-1
1205,-17,-250,-62,-7,69,-1
1210,-15,-250,-63,-6,71,-3
1215,-17,-251,-65,-5,71,-5
1220,-14,-253,-66,-4,70,-4
1225,-15,-249,-66,-4,71,-3
1230,-19,-253,-66,-1,72,-2
1235,-18,-250,-65,2,72,-2
1240,-18,-250,-67,7,71,-3
1245,-20,-248,-70,11,72,-2
1250,-19,-249,-64,14,71,-1
1255,-16,-249,-66,15,68,0
1260,-17,-248,-64,14,68,0
1265,-18,-248,-65,11,68,-1
1270,-16,-248,-69,9,69,0
1275,-24,-257,-60,6,67,1
1280,-18,-251,-62,4,64,0
1285,-14,-250,-62,3,61,0
1290,-18,-248,-68,0,63,1
1295,-17,-249,-66,-1,63,0
1300,-16,-252,-67,-3,63,-1
1305,-17,-248,-66,-2,65,-2
1310,-17,-247,-67,0,65,-2
1315,-16,-248,-69,3,65,-3
1320,-17,-248,-65,4,66,-5
1325,-17,-249,-66,6,67,-3
1330,-14,-248,-66,9,69,-3
1335,-18,-247,-64,11,69,-3
1340,-17,-247,-64,12,68,-1
1345,-17,-245,-65,13,67,0
1350,-16,-247,-66,14,67,1
1355,-17,-248,-65,13,66,2
1360,-15,-249,-62,11,66,1
1365,-17,-247,-62,9,66,1
1370,-17,-248,-62,6,67,1
1375,-15,-249,-64,1,67,0
1380,-19,-250,-63,-2,67,0
1385,-16,-257,-73,-3,67,1
1390,-17,-252,-67,-2,65,-2
1395,-17,-250,-63,-1,66,-5
1400,-16,-250,-66,0,66,-4
1405,-18,-249,-63,3,66,-4
1410,-15,-250,-65,5,66,-5
1415,-16,-251,-65,7,66,-5
1420,-15,-248,-63,7,67,-7
1425,-15,-252,-65,5,69,-7
1430,-19,-248,-68,5,69,-6
1435,-17,-248,-65,3,70,-4
1440,-19,-248,-62,4,68,-5
1445,-14,-247,-62,3,68,-3
1450,-18,-249,-64,2,67,-6
1455,-15,-249,-61,3,66,-4
1460,-15,-248,-63,5,67,-5
1465,-15,-249,-63,4,67,-4
1470,-13,-248,-65,3,68,-3
1475,-12,-248,-63,3,70,-4
1480,-16,-248,-60,3,70,-4
1485,-16,-250,-63,4,70,-2
1490,-17,-248,-65,4,69,-2
1495,-19,-250,-62,3,70,-1
1500,-13,-249,-62,2,70,-3
1505,-15,-250,-65,4,70,-1
1510,-16,-251,-61,3,70,-2
1515,-17,-249,-62,4,70,-3
1520,-17,-249,-63,4,70,-4
1525,-14,-250,-64,2,70,-5
1530,-17,-249,-60,3,72,-6
1535,-13,-250,-62,3,72,-6
1540,-17,-248,-67,6,74,-6
1545,-16,-252,-63,8,75,-7
1550,-16,-250,-61,11,77,-7
1555,-16,-248,-63,12,78,-6
1560,-18,-248,-59,14,78,-7
1565,-15,-249,-61,13,79,-5
1570,-19,-249,-63,12,77,-4
1575,-15,-251,-61,10,75,-3
1580,-14,-250,-63,6,72,-2
1585,-17,-253,-63,3,71,-1
1590,-18,-249,-62,1,69,-2
1595,-14,-252,-65,0,69,-2
1600,-17,-250,-59,5,69,-3
1605,-16,-248,-60,9,70,-4
1610,-19,-246,-62,13,71,-5
1615,-15,-248,-59,17,72,-5
1620,-15,-254,-65,19,73,-5
1625,-17,-250,-61,19,73,-5
1630,-17,-248,-63,17,74,-5
1635,-17,-248,-63,15,75,-7
1640,-16,-247,-63,12,75,-6
1645,-19,-248,-62,8,75,-7
1650,-15,-250,-61,5,75,-7
1655,-19,-250,-61,3,76,-7
1660,-12,-252,-65,2,77,-8
1665,-17,-250,-63,1,78,-6
1670,-16,-249,-64,2,79,-6
1675,-14,-249,-60,3,78,-6
1680,-15,-250,-65,4,77,-6
1685,-13,-250,-58,5,74,-6
1690,-15,-252,-59,6,74,-6
1695,-13,-250,-62,8,72,-6
1700,-15,-249,-63,5,72,-5
1705,-16,-249,-60,5,71,-4
1710,-12,-245,-69,4,71,-6
1715,-16,-249,-65,1,72,-6
1720,-19,-250,-63,1,73,-5
1725,-12,-249,-64,0,74,-5
1730,-14,-250,-63,2,74,-5
1735,-15,-250,-62,2,73,-6
1740,-16,-249,-61,4,73,-5
1745,-17,-249,-62,4,72,-7
1750,-15,-250,-62,2,73,-7
1755,-20,-246,-61,-1,74,-6
1760,-15,-250,-62,-2,75,-7
1765,-17,-250,-62,-3,74,-6
1770,-14,-249,-59,-5,73,-8
1775,-15,-248,-58,-6,76,-5
1780,-16,-251,-62,-5,78,-4
1785,-17,-249,-61,-5,80,-5
1790,-18,-249,-61,-5,80,-3
1795,-15,-249,-64,-6,78,-3
1800,-16,-249,-59,-7,78,-3
1805,-16,-249,-60,-7,77,-3
1810,-16,-248,-64,-5,76,-3
1815,-15,-247,-59,-2,77,-3
1820,-23,-261,-60,1,77,-5
1825,-19,-248,-62,6,77,-5
1830,-15,-248,-64,7,77,-5
1835,-17,-248,-62,5,77,-5
1840,-18,-247,-64,2,75,-3
1845,-16,-248,-62,-3,74,-3
1850,-18,-247,-65,-8,74,-3
1855,-18,-248,-60,-10,73,-3
1860,-16,-252,-62,-11,73,-3
1865,-18,-250,-62,-12,73,-3
1870,-15,-252,-63,-9,74,-4
1875,-19,-251,-62,-6,77,-6
1880,-16,-251,-64,-3,77,-7
1885,-16,-248,-62,-2,76,-7
1890,-17,-248,-61,-2,77,-5
1895,-16,-250,-63,-3,77,-4
1900,-12,-249,-63,-5,76,-1
1905,-17,-251,-64,-6,77,-3
1910,-17,-248,-63,-6,76,-4
1915,-12,-252,-59,-5,77,-3
1920,-15,-248,-61,-4,79,-3
1925,-15,-253,-62,-3,78,-2
1930,-14,-252,-59,-1,77,-2
1935,-14,-249,-66,-1,77,-2
1940,-18,-249,-62,-2,75,-2
1945,-17,-249,-63,-5,74,-3
1950,-18,-248,-64,-8,73,-2
1955,-15,-250,-63,-8,72,-2
1960,-16,-250,-59,-7,72,-2
1965,-16,-250,-63,-6,71,-4
1970,-18,-249,-61,-5,70,-3
1975,-17,-251,-65,-4,69,-4
1980,-15,-248,-62,-4,71,-4
1985,-18,-247,-62,-4,70,-7
1990,-18,-248,-59,-3,69,-6
1995,-17,-249,-60,-3,69,-5
2000,-15,-249,-60,-5,69,-6
2005,-15,-249,-61,-6,69,-5
2010,-17,-250,-60,-6,70,-3
2015,-15,-250,-61,-8,71,-4
2020,-15,-251,-63,-8,70,-2
2025,-16,-249,-62,-8,70,-2
2030,-18,-248,-60,-10,71,-2
2035,-15,-254,-62,-11,69,-1
2040,-16,-250,-60,-12,70,0
2045,-20,-249,-62,-13,70,-1
2050,-17,-251,-61,-15,69,-3
2055,-16,-249,-63,-16,71,-3
2060,-18,-249,-59,-13,70,-5
2065,-18,-251,-55,-11,70,-7
2070,-16,-250,-61,-10,70,-6
2075,-17,-249,-59,-9,69,-7
2080,-17,-248,-61,-9,68,-5
2085,-16,-248,-64,-11,68,-5
2090,-15,-249,-62,-11,67,-3
2095,-18,-249,-62,-12,68,-4
2100,-16,-249,-62,-13,67,-3
2105,-15,-250,-61,-13,66,-2
2110,-15,-250,-60,-16,65,-1
2115,-17,-251,-59,-19,64,-1
2120,-17,-250,-59,-22,66,0
2125,-17,-249,-62,-26,66,1
2130,-14,-252,-63,-25,69,0
2135,-15,-250,-62,-23,69,0
2140,-16,-250,-60,-21,71,-2
2145,-11,-251,-72,-17,71,-3
2150,-17,-249,-59,-14,70,-4
2155,-19,-248,-60,-11,70,-4
2160,-14,-248,-64,-10,71,-5
2165,-14,-249,-59,-9,70,-5
2170,-18,-249,-57,-9,69,-6
2175,-14,-252,-57,-10,71,-5
2180,-16,-249,-60,-12,70,-3
2185,-20,-250,-55,-14,69,-1
2190,-16,-251,-62,-16,70,-1
2195,-18,-248,-61,-16,68,-1
2200,-16,-251,-58,-17,68,1
2205,-14,-250,-61,-19,66,2
2210,-17,-250,-61,-21,65,1
2215,-19,-248,-57,-22,64,-1
2220,-17,-250,-62,-24,65,-2
2225,-20,-247,-64,-25,65,-2
2230,-18,-249,-62,-24,66,-3
2235,-15,-250,-67,-25,67,-4
2240,-16,-250,-61,-26,68,-4
2245,-18,-249,-63,-23,69,-3
2250,-16,-249,-60,-23,70,-3
2255,-23,-247,-64,-22,69,-2
2260,-17,-247,-64,-20,70,-2
2265,-15,-250,-61,-19,69,-2
2270,-16,-247,-60,-19,69,-2
2275,-17,-247,-60,-16,68,0
2280,-17,-248,-57,-19,68,3
2285,-18,-248,-64,-20,68,2
2290,-16,-248,-59,-23,67,2
2295,-14,-252,-61,-25,66,2
2300,-17,-250,-63,-26,66,2
2305,-17,-249,-65,-27,67,2
2310,-16,-252,-63,-27,65,0
2315,-17,-251,-60,-27,64,-1
2320,-20,-251,-61,-22,65,-1
2325,-17,-251,-60,-19,67,-2
2330,-16,-250,-64,-15,67,-1
2335,-16,-252,-66,-13,68,-1
2340,-16,-252,-62,-12,68,-1
2345,-17,-251,-61,-12,68,0
2350,-17,-249,-60,-12,68,0
2355,-16,-249,-64,-11,67,1
2360,-16,-250,-62,-13,67,1
2365,-18,-249,-73,-15,68,0
2370,-18,-248,-62,-17,69,2
2375,-13,-248,-62,-18,70,1
2380,-16,-251,-62,-20,70,2
2385,-16,-248,-59,-22,69,0
2390,-16,-253,-63,-24,68,1
2395,-20,-248,-64,-26,67,2
2400,-15,-249,-63,-25,66,3
2405,-16,-251,-64,-26,65,1
2410,-17,-252,-60,-25,64,0
2415,-19,-252,-61,-23,64,1
2420,-17,-251,-64,-22,63,1
2425,-15,-251,-66,-22,64,1
2430,-15,-251,-59,-21,64,2
2435,-17,-251,-64,-19,63,2
2440,-16,-250,-66,-19,64,2
2445,-17,-251,-63,-18,63,2
2450,-14,-254,-66,-18,61,3
2455,-15,-251,-68,-18,62,4
2460,-19,-252,-63,-20,60,5
2465,-19,-252,-63,-20,60,6
2470,-19,-249,-63,-20,58,7
2475,-11,-254,-66,-19,58,6
2480,-15,-253,-66,-20,57,7
2485,-18,-251,-67,-19,55,8
2490,-19,-253,-67,-20,54,9
2495,-19,-251,-69,-20,53,12
2500,-17,-252,-70,-21,51,14
2505,-18,-255,-73,-22,48,13
2510,-20,-249,-67,-21,47,14
2515,-20,-251,-73,-21,45,15
2520,-18,-249,-72,-22,42,15
2525,-18,-248,-70,-21,42,13
2530,-21,-246,-74,-21,43,12
2535,-18,-247,-75,-23,43,11
2540,-20,-245,-71,-26,45,11
2545,-18,-245,-70,-30,47,11
2550,-19,-242,-70,-34,48,10
2555,-18,-244,-70,-38,46,11
2560,-17,-243,-67,-39,47,11
2565,-15,-242,-65,-40,46,10
2570,-19,-243,-66,-43,45,9
2575,-22,-241,-63,-44,43,10
2580,-18,-241,-65,-47,38,10
2585,-16,-245,-62,-48,37,9
2590,-16,-244,-63,-50,35,6
2595,-19,-243,-63,-52,32,4
2600,-19,-248,-64,-55,32,4
2605,-15,-248,-68,-58,33,3
2610,-20,-252,-69,-62,35,2
2615,-15,-250,-70,-65,37,1
2620,-12,-253,-69,-68,37,-1
2625,-17,-251,-74,-72,36,0
2630,-13,-252,-76,-76,36,-3
2635,-13,-250,-78,-85,43,-3
2640,-15,-249,-83,-97,53,-4
2645,-14,-246,-85,-112,65,-3
2650,-16,-243,-86,-135,74,-5
2655,-13,-242,-92,-164,79,-10
2660,-15,-236,-104,-206,77,-15
2665,-14,-231,-110,-264,74,-14
2670,-18,-229,-115,-332,77,-9
2675,-19,-229,-122,-403,81,-5
2680,-25,-226,-124,-467,79,-6
2685,-30,-222,-131,-528,66,-3
2690,-42,-227,-144,-594,40,-1
2695,-33,-212,-155,-676,12,8
2700,-38,-205,-168,-770,-15,15
2705,-44,-195,-177,-870,-32,26
2710,-49,-191,-183,-963,-39,42
2715,-51,-186,-182,-1046,-41,56
2720,-54,-185,-185,-1119,-45,70
2725,-55,-182,-181,-1190,-51,84
2730,-55,-178,-183,-1259,-58,103
2735,-54,-173,-183,-1322,-64,122
2740,-51,-165,-185,-1381,-68,136
2745,-52,-156,-186,-1442,-74,151
2750,-48,-153,-189,-1511,-82,160
2755,-47,-147,-191,-1587,-90,172
2760,-41,-135,-185,-1666,-95,183
2765,-41,-130,-179,-1745,-89,192
2770,-37,-125,-173,-1821,-75,202
2775,-38,-117,-161,-1889,-58,210
2780,-33,-111,-150,-1945,-34,218
2785,-27,-107,-138,-1981,-7,223
2790,-20,-101,-121,-2003,22,225
2795,-18,-93,-110,-2011,54,230
2800,-6,-87,-90,-2008,79,239
2805,-7,-84,-73,-1983,92,242
2810,-4,-83,-50,-1931,96,247
2815,-1,-83,-32,-1859,89,245
2820,4,-81,-24,-1769,73,241
2825,3,-80,-12,-1690,54,235
2830,2,-74,-2,-1587,33,232
2835,11,-75,7,-1492,16,230
2840,16,-70,12,-1402,0,224
2845,24,-70,24,-1313,-11,216
2850,33,-79,30,-1223,-12,205
2855,37,-87,37,-1132,-3,195
2860,37,-98,31,-1026,22,189
2865,31,-111,19,-926,43,191
2870,30,-117,5,-847,57,190
2875,19,-124,-21,-799,41,182
2880,8,-134,-43,-793,-10,172
2885,-3,-145,-78,-823,-71,163
2890,-13,-152,-108,-868,-126,158
2895,-21,-156,-150,-924,-149,170
2900,-29,-152,-179,-995,-116,196
2905,-36,-144,-200,-1079,-23,228
2910,-55,-149,-196,-1149,104,251
2915,-65,-139,-194,-1193,206,261
2920,-84,-119,-213,-1214,258,257
2925,-89,-102,-233,-1231,251,263
2930,-85,-88,-268,-1279,220,278
2935,-80,-84,-274,-1390,195,310
2940,-63,-100,-247,-1538,189,358
2945,-42,-130,-198,-1645,214,387
2950,-15,-170,-141,-1670,257,394
2955,-1,-196,-80,-1604,313,368
2960,1,-223,-45,-1439,367,336
2965,2,-249,-25,-1216,387,300
2970,0,-273,-20,-992,362,264
2975,-5,-295,-34,-780,313,230
2980,-14,-302,-58,-599,261,213
2985,-22,-301,-94,-473,202,220
2990,-19,-284,-152,-456,132,236
2995,-26,-273,-193,-525,85,244
3000,-19,-264,-217,-623,61,250
3005,-19,-262,-216,-712,82,233
3010,-24,-252,-208,-725,130,184
3015,-17,-242,-191,-671,181,123
3020,-25,-221,-174,-564,224,56
3025,-33,-198,-167,-452,264,8
3030,-29,-181,-167,-395,300,-10
3035,-28,-176,-159,-394,337,-7
3040,-26,-177,-148,-415,370,14
3045,-26,-172,-148,-448,386,41
3050,-32,-177,-148,-526,389,76
3055,-31,-188,-146,-608,369,118
3060,-32,-206,-146,-669,335,151
3065,-38,-219,-151,-705,283,160
3070,-37,-231,-153,-720,221,164
3075,-43,-237,-163,-710,153,171
3080,-34,-241,-173,-698,80,181
3085,-34,-237,-184,-714,20,181
3090,-31,-233,-197,-764,-15,186
3095,-28,-233,-200,-833,-24,193
3100,-35,-227,-207,-892,-11,195
3105,-40,-228,-208,-928,2,196
3110,-42,-225,-207,-933,14,210
3115,-43,-225,-208,-913,21,224
3120,-53,-217,-195,-874,23,225
3125,-54,-217,-203,-828,7,217
3130,-58,-210,-205,-789,-17,201
3135,-62,-206,-207,-754,-41,192
3140,-62,-206,-211,-728,-76,189
3145,-60,-212,-213,-702,-108,198
3150,-58,-210,-216,-676,-143,200
3155,-43,-221,-221,-651,-181,178
3160,-42,-218,-227,-634,-172,134
3165,-38,-209,-230,-613,-146,103
3170,-46,-201,-231,-584,-129,89
3175,-43,-201,-236,-566,-131,65
3180,-36,-196,-236,-558,-131,40
3185,-38,-193,-235,-561,-123,9
3190,-43,-192,-242,-566,-113,-22
3195,-43,-189,-242,-575,-110,-38
3200,-45,-193,-249,-586,-105,-47
3205,-51,-188,-250,-585,-100,-50
3210,-48,-194,-253,-567,-90,-37
3215,-42,-199,-262,-543,-80,-28
3220,-46,-199,-266,-510,-59,-14
3225,-43,-205,-270,-468,-50,3
3230,-54,-208,-260,-414,-43,19
3235,-51,-215,-264,-356,-46,21
3240,-58,-217,-260,-293,-50,21
3245,-62,-224,-256,-228,-58,24
3250,-65,-217,-253,-163,-61,20
3255,-62,-213,-250,-109,-59,15
3260,-58,-203,-255,-62,-55,3
3265,-57,-198,-254,-26,-54,-10
3270,-57,-196,-256,7,-58,-18
3275,-51,-198,-255,48,-60,-25
3280,-53,-201,-252,93,-57,-32
3285,-55,-199,-253,130,-62,-38
3290,-53,-202,-251,167,-58,-45
3295,-56,-203,-256,208,-49,-55
3300,-58,-205,-259,249,-36,-68
3305,-60,-209,-262,288,-17,-82
3310,-58,-213,-259,334,6,-99
3315,-58,-216,-259,386,32,-115
3320,-59,-222,-261,445,62,-131
3325,-57,-223,-257,508,90,-143
3330,-56,-230,-255,572,119,-152
3335,-51,-229,-248,628,145,-158
3340,-55,-243,-253,677,170,-162
3345,-53,-247,-254,721,190,-163
3350,-55,-250,-267,757,208,-157
3355,-55,-256,-269,779,219,-149
3360,-56,-254,-278,793,230,-137
3365,-52,-254,-284,807,244,-123
3370,-47,-251,-291,824,259,-109
3375,-50,-249,-299,852,276,-94
3380,-50,-244,-307,896,284,-93
3385,-51,-240,-295,940,285,-110
3390,-55,-237,-289,979,281,-117
3395,-57,-222,-270,1006,280,-124
3400,-53,-210,-251,1014,284,-135
3405,-51,-195,-233,1016,288,-143
3410,-45,-189,-222,1022,283,-145
3415,-45,-184,-211,1033,270,-146
3420,-41,-186,-196,1051,251,-142
3425,-37,-193,-185,1078,230,-141
3430,-33,-195,-175,1108,207,-141
3435,-36,-201,-163,1145,178,-151
3440,-34,-204,-158,1187,157,-163
3445,-37,-208,-148,1227,137,-174
3450,-38,-207,-147,1255,122,-189
3455,-38,-202,-142,1286,113,-202
3460,-41,-201,-135,1318,109,-220
3465,-44,-193,-131,1348,106,-236
3470,-42,-192,-124,1365,107,-249
3475,-40,-191,-120,1363,114,-253
3480,-32,-187,-108,1345,137,-244
3485,-27,-193,-102,1323,163,-224
3490,-24,-188,-96,1302,186,-206
3495,-22,-187,-106,1288,200,-189
3500,-18,-187,-109,1273,203,-171
3505,-11,-185,-119,1250,193,-156
3510,-12,-185,-115,1216,173,-138
3515,-11,-191,-119,1166,147,-120
3520,-15,-193,-119,1104,122,-100
3525,-13,-199,-126,1035,94,-83
3530,-18,-206,-122,968,71,-68
3535,-24,-212,-130,916,53,-61
3540,-31,-216,-129,881,39,-61
3545,-30,-226,-132,861,29,-68
3550,-33,-226,-139,845,30,-80
3555,-38,-237,-140,837,39,-91
3560,-39,-241,-140,840,53,-105
3565,-41,-246,-145,860,68,-122
3570,-40,-249,-146,895,81,-139
3575,-37,-250,-145,938,89,-160
3580,-34,-246,-148,982,94,-178
3585,-33,-240,-146,1020,96,-197
3590,-31,-236,-149,1037,92,-210
3595,-33,-231,-149,1035,87,-223
3600,-27,-228,-150,1016,86,-230
3605,-31,-226,-142,977,89,-236
3610,-27,-227,-139,926,94,-241
3615,-26,-229,-138,874,98,-242
3620,-26,-228,-128,831,102,-238
3625,-26,-232,-126,794,102,-233
3630,-21,-232,-123,768,98,-227
3635,-21,-231,-120,755,95,-222
3640,-22,-230,-114,744,93,-212
3645,-24,-229,-111,736,89,-201
3650,-23,-225,-108,731,83,-187
3655,-23,-230,-106,726,79,-170
3660,-24,-227,-95,720,76,-155
3665,-23,-230,-98,716,73,-141
3670,-19,-228,-98,711,71,-133
3675,-20,-232,-95,712,71,-124
3680,-20,-230,-88,717,74,-116
3685,-19,-230,-91,723,75,-106
3690,-19,-228,-87,728,78,-97
3695,-21,-228,-85,727,79,-88
3700,-21,-228,-85,719,77,-76
3705,-21,-226,-85,703,76,-64
3710,-19,-232,-88,684,72,-55
3715,-20,-231,-88,664,65,-47
3720,-20,-232,-93,645,60,-42
3725,-17,-233,-93,626,55,-40
3730,-21,-237,-97,607,50,-41
3735,-18,-233,-100,588,45,-45
3740,-19,-233,-100,570,44,-51
3745,-18,-235,-100,550,46,-57
3750,-17,-234,-107,529,50,-65
3755,-12,-236,-103,508,54,-72
3760,-15,-239,-105,485,62,-79
3765,-11,-242,-100,467,68,-86
3770,-10,-237,-99,451,72,-92
3775,-11,-238,-101,439,74,-96
3780,-13,-236,-98,429,72,-98
3785,-16,-238,-101,420,71,-99
3790,-10,-238,-98,410,70,-99
3795,-13,-239,-98,403,68,-96
3800,-12,-240,-98,393,66,-92
3805,-15,-237,-96,381,63,-88
3810,-16,-237,-99,365,58,-83
3815,-15,-239,-95,353,51,-80
3820,-18,-234,-92,341,46,-75
3825,-18,-233,-94,328,40,-70
3830,-18,-232,-99,314,33,-65
3835,-19,-234,-98,298,30,-61
3840,-19,-232,-98,280,27,-56
3845,-19,-233,-98,259,27,-52
3850,-19,-232,-101,238,28,-48
3855,-17,-230,-95,218,29,-46
3860,-18,-231,-99,199,32,-42
3865,-20,-234,-96,180,35,-40
3870,-17,-232,-96,161,38,-41
3875,-16,-233,-93,142,42,-39
3880,-14,-231,-93,124,43,-37
3885,-20,-232,-92,105,49,-35
3890,-20,-233,-89,87,52,-35
3895,-19,-237,-90,74,55,-29
3900,-20,-238,-91,63,60,-25
3905,-19,-238,-86,57,64,-20
3910,-17,-241,-88,54,68,-15
3915,-17,-242,-87,51,71,-12
3920,-18,-243,-90,48,73,-8
3925,-20,-239,-87,45,72,-4
3930,-22,-242,-87,44,70,-1
3935,-17,-241,-92,43,68,2
3940,-21,-243,-91,40,65,4
3945,-18,-247,-88,40,64,5
3950,-21,-245,-90,39,65,9
3955,-18,-246,-92,40,65,11
3960,-18,-247,-92,44,69,12
3965,-20,-246,-90,50,73,13
3970,-19,-246,-92,56,75,11
3975,-19,-244,-88,64,78,10
3980,-18,-244,-88,71,81,9
3985,-19,-244,-87,77,83,7
3990,-9,-234,-88,81,86,7
3995,-20,-245,-86,81,87,7
4000,-19,-242,-85,81,84,8
4005,-20,-241,-86,75,83,8
4010,-21,-238,-81,66,81,7
4015,-25,-239,-83,53,79,6
4020,-23,-238,-83,42,78,7
4025,-21,-241,-84,29,78,9
4030,-22,-241,-87,17,78,11
4035,-23,-239,-85,10,78,12
4040,-22,-243,-87,8,78,11
4045,-20,-242,-88,9,76,11
4050,-21,-246,-90,13,75,11
4055,-23,-245,-88,19,75,12
4060,-19,-243,-91,30,72,11
4065,-21,-242,-94,40,70,13
4070,-20,-243,-90,47,67,12
4075,-18,-241,-93,51,63,12
4080,-18,-240,-89,54,58,12
4085,-18,-241,-91,57,55,11
4090,-18,-239,-93,60,54,13
4095,-19,-234,-87,61,54,13
4100,-18,-240,-95,58,54,14
4105,-18,-238,-92,54,56,14
4110,-20,-237,-92,50,56,15
4115,-16,-238,-93,46,59,14
4120,-14,-239,-93,41,63,17
4125,-17,-237,-96,36,66,18
4130,-18,-238,-93,32,72,19
4135,-14,-238,-98,28,76,20
4140,-19,-240,-101,24,81,21
4145,-16,-240,-97,20,85,22
4150,-16,-237,-96,18,91,22
4155,-17,-235,-98,15,97,20
4160,-18,-237,-96,11,101,22
4165,-16,-241,-94,7,105,23
4170,-17,-237,-99,4,110,22
4175,-18,-239,-95,4,116,23
4180,-16,-242,-98,4,121,22
4185,-18,-238,-92,8,124,20
4190,-18,-242,-95,11,129,20
4195,-18,-241,-95,13,132,19
4200,-19,-239,-95,16,136,17
4205,-17,-241,-96,18,140,16
4210,-23,-242,-99,20,141,15
4215,-21,-242,-94,24,145,13
4220,-22,-239,-93,27,146,12
4225,-24,-244,-93,31,147,13
4230,-18,-243,-97,34,145,11
4235,-21,-245,-92,37,144,11
4240,-21,-243,-94,42,143,10
4245,-21,-244,-89,45,142,11
4250,-19,-243,-90,50,139,11
4255,-20,-244,-95,55,139,12
4260,-20,-244,-91,59,138,12
4265,-22,-243,-93,64,137,12
4270,-22,-243,-88,66,135,10
4275,-19,-246,-92,66,136,10
4280,-18,-242,-91,66,137,9
4285,-21,-243,-90,65,138,9
4290,-21,-244,-88,66,139,6
4295,-19,-245,-86,67,140,5
4300,-21,-244,-86,69,140,3
4305,-23,-242,-88,71,139,1
4310,-24,-242,-90,72,139,-1
4315,-23,-246,-85,71,140,-3
4320,-25,-244,-87,71,139,-5
4325,-25,-242,-87,74,138,-7
4330,-28,-242,-85,75,138,-9
4335,-26,-243,-87,75,137,-13
4340,-26,-238,-86,72,137,-16
4345,-28,-244,-87,68,137,-17
4350,-22,-241,-85,62,137,-20
4355,-25,-239,-82,52,136,-24
4360,-24,-241,-84,42,133,-25
4365,-24,-242,-86,32,132,-25
4370,-26,-242,-87,25,129,-24
4375,-23,-244,-88,20,125,-23
4380,-27,-241,-86,18,120,-22
4385,-26,-245,-87,20,116,-21
4390,-26,-244,-90,23,111,-20
4395,-25,-245,-87,26,105,-19
4400,-23,-242,-89,29,100,-18
4405,-24,-245,-86,30,97,-19
4410,-23,-244,-89,30,94,-18
4415,-23,-243,-90,31,90,-19
4420,-21,-240,-87,29,86,-20
4425,-29,-256,-83,24,84,-21
4430,-20,-241,-89,21,78,-22
4435,-20,-241,-86,19,76,-22
4440,-23,-240,-84,16,74,-22
4445,-21,-242,-88,13,72,-22
4450,-17,-243,-87,12,69,-23
4455,-18,-242,-86,10,66,-23
4460,-18,-243,-85,8,65,-24
4465,-15,-242,-85,6,63,-25
4470,-18,-243,-86,5,62,-25
4475,-18,-244,-86,4,61,-25
4480,-19,-244,-88,2,61,-24
4485,-15,-246,-86,4,60,-21
4490,-18,-245,-86,5,58,-22
4495,-19,-245,-89,8,57,-22
4500,-19,-243,-86,7,58,-22
4505,-18,-243,-86,7,58,-21
4510,-18,-245,-85,9,57,-20
4515,-14,-245,-87,9,57,-20
4520,-17,-241,-86,9,56,-18
4525,-16,-241,-84,9,55,-18
4530,-17,-246,-91,11,54,-16
4535,-22,-238,-86,12,54,-18
4540,-20,-243,-85,13,56,-17
4545,-20,-242,-86,14,55,-16
4550,-18,-244,-85,16,54,-16
4555,-16,-244,-86,17,54,-17
4560,-21,-244,-85,17,54,-18
4565,-21,-242,-86,18,54,-19
4570,-21,-243,-86,18,50,-19
4575,-20,-242,-86,16,51,-19
4580,-21,-245,-85,12,50,-18
4585,-21,-243,-85,9,49,-18
4590,-21,-243,-84,6,49,-18
4595,-18,-244,-83,3,50,-18
4600,-18,-243,-85,0,51,-16
4605,-18,-243,-85,-5,51,-16
4610,-22,-246,-82,-6,52,-14
4615,-18,-246,-82,-8,51,-15
4620,-18,-241,-84,-10,53,-15
4625,-19,-245,-83,-10,53,-17
4630,-19,-244,-82,-12,53,-20
4635,-19,-241,-82,-14,54,-21
4640,-17,-241,-83,-17,54,-24
4645,-16,-245,-82,-21,55,-26
4650,-19,-242,-82,-24,57,-26
4655,-19,-244,-84,-26,56,-26
4660,-19,-246,-82,-29,59,-26
4665,-17,-242,-84,-33,62,-26
4670,-15,-244,-84,-37,64,-24
4675,-19,-242,-80,-39,65,-22
4680,-17,-243,-81,-44,67,-21
4685,-19,-244,-78,-48,70,-19
4690,-18,-244,-82,-52,71,-19
4695,-12,-246,-75,-56,69,-17
4700,-16,-244,-84,-61,73,-15
4705,-19,-241,-84,-67,74,-12
4710,-15,-244,-84,-71,74,-10
4715,-13,-243,-80,-76,76,-6
4720,-18,-242,-84,-77,77,-2
4725,-13,-246,-85,-76,76,-1
4730,-15,-246,-86,-70,74,0
4735,-17,-244,-90,-64,73,1
4740,-16,-246,-85,-56,69,1
4745,-17,-242,-85,-50,65,-1
4750,-18,-239,-76,-48,61,-2
4755,-18,-233,-95,-49,58,-3
4760,-18,-244,-84,-49,58,-4
4765,-10,-236,-79,-51,60,-5
4770,-9,-243,-81,-52,62,-4
4775,-17,-244,-90,-54,63,-6
4780,-15,-245,-86,-54,65,-6
4785,-20,-248,-94,-53,69,-6
4790,-13,-241,-96,-52,71,-5
4795,-22,-243,-90,-49,74,-5
4800,-12,-246,-68,-47,77,-4
4805,-14,-245,-89,-44,79,-4
4810,-19,-242,-86,-41,81,-4
4815,-18,-246,-87,-38,83,-4
4820,-17,-246,-87,-35,84,-5
4825,-18,-239,-80,-34,83,-5
4830,-14,-242,-82,-32,83,-5
4835,-19,-246,-84,-32,82,-5
4840,-19,-248,-83,-32,79,-6
4845,-18,-241,-72,-31,78,-5
4850,-21,-240,-83,-31,78,-4
4855,-23,-246,-90,-29,78,-2
4860,-22,-233,-86,-26,76,-3
4865,-12,-238,-82,-25,75,-3
4870,-22,-237,-93,-23,74,-2
4875,-17,-241,-96,-20,75,-3
4880,-17,-246,-85,-20,75,-4
4885,-19,-242,-85,-19,76,-3
4890,-16,-242,-88,-20,77,-4
4895,-17,-244,-84,-20,76,-5
4900,-16,-252,-100,-22,77,-7
4905,-15,-254,-65,-23,78,-6
4910,-20,-237,-75,-24,78,-6
4915,-23,-238,-84,-26,77,-6
4920,-16,-245,-78,-27,76,-5
4925,-18,-235,-83,-25,75,-4
4930,-22,-231,-91,-27,74,-4
4935,-32,-241,-85,-26,73,-1
4940,-17,-245,-87,-27,72,0
4945,-16,-242,-83,-26,71,0
4950,-18,-242,-100,-24,69,1
4955,-18,-241,-87,-22,68,1
4960,-19,-241,-86,-17,68,1
4965,-18,-244,-86,-17,69,0
4970,-18,-242,-86,-14,72,0
4975,-17,-243,-91,-16,74,-1
4980,-19,-243,-88,-18,76,-1
4985,-21,-250,-88,-20,79,-1
4990,-16,-233,-89,-20,81,-1
4995,-17,-238,-93,-22,82,-1
5000,-21,-248,-98,-22,82,-1
5005,-8,-243,-78,-25,85,1
5010,-15,-244,-80,-27,84,-1
5015,-15,-240,-88,-29,83,1
5020,-31,-247,-90,-30,81,2
5025,-17,-246,-89,-31,81,2
5030,-18,-242,-89,-31,81,2
5035,-17,-242,-87,-32,80,2
5040,-20,-239,-83,-35,80,2
5045,-17,-244,-84,-37,79,2
5050,-15,-258,-80,-41,77,1
5055,-30,-244,-98,-45,77,1
5060,-28,-249,-89,-48,75,1
5065,-13,-243,-91,-47,74,2
5070,-6,-255,-98,-45,73,2
5075,-24,-253,-82,-42,72,2
5080,-22,-239,-77,-38,72,0
5085,-16,-244,-87,-33,72,1
5090,-16,-245,-106,-30,68,1
5095,-25,-230,-100,-27,69,1
5100,-19,-242,-101,-26,69,1
5105,-38,-236,-101,-26,69,1
5110,-16,-246,-87,-26,68,1
5115,-18,-242,-89,-26,68,3
5120,-17,-244,-86,-27,68,4
5125,-16,-244,-87,-29,69,3
5130,-18,-244,-88,-30,70,5
5135,-14,-240,-84,-32,71,4
5140,-12,-243,-88,-34,74,4
5145,-20,-241,-78,-37,76,3
5150,-17,-245,-88,-38,77,3
5155,-26,-238,-86,-38,78,2
5160,-20,-233,-84,-39,78,2
5165,-12,-244,-76,-39,80,3
5170,-20,-244,-93,-39,79,2
5175,-18,-236,-93,-38,76,4
5180,-22,-244,-88,-38,76,1
5185,-15,-242,-87,-37,74,3
5190,-19,-241,-86,-38,74,5
5195,-16,-244,-93,-39,75,4
5200,-16,-244,-87,-39,76,6
5205,-18,-237,-91,-37,75,7
5210,-22,-245,-92,-36,74,6
5215,-13,-241,-90,-35,75,7
5220,-16,-237,-92,-35,76,7
5225,-20,-245,-93,-34,76,8
5230,-11,-243,-86,-34,76,7
5235,-19,-243,-88,-33,76,6
5240,-15,-245,-92,-33,76,6
5245,-20,-242,-90,-32,74,4
5250,-19,-242,-91,-30,74,5
5255,-17,-244,-89,-28,71,6
5260,-17,-241,-87,-25,72,6
5265,-17,-241,-88,-24,72,7
5270,-18,-244,-88,-23,71,6
5275,-14,-240,-96,-24,70,5
5280,-18,-242,-86,-23,70,6
5285,-19,-239,-89,-25,71,6
5290,-18,-239,-89,-27,71,6
5295,-15,-241,-87,-27,72,5
5300,-29,-244,-94,-26,72,4
5305,-17,-244,-89,-27,73,2
5310,-18,-241,-86,-27,72,3
5315,-22,-243,-91,-27,71,1
5320,-18,-238,-86,-28,70,1
5325,-28,-247,-85,-29,70,2
5330,-21,-242,-87,-31,69,0
5335,-20,-240,-87,-32,69,0
5340,-17,-245,-90,-34,69,1
5345,-20,-242,-88,-36,69,1
5350,-19,-245,-92,-35,70,2
5355,-22,-241,-88,-34,71,2
5360,-19,-242,-90,-31,72,3
5365,-17,-244,-86,-30,73,3
5370,-17,-244,-87,-29,72,3
5375,-17,-245,-89,-28,73,3
5380,-18,-244,-91,-28,73,2
5385,-17,-247,-88,-29,72,3
5390,-18,-242,-90,-29,70,3
5395,-17,-243,-89,-30,69,2
5400,-19,-245,-86,-29,69,3
5405,-21,-246,-91,-31,68,2
5410,-14,-245,-84,-30,70,1
5415,-18,-245,-90,-28,69,2
5420,-16,-244,-89,-24,69,2
5425,-16,-243,-92,-23,70,1
5430,-16,-243,-88,-21,70,2
5435,-17,-244,-90,-19,72,2
5440,-18,-242,-89,-18,73,0
5445,-17,-244,-86,-17,73,0
5450,-19,-243,-90,-16,72,-1
5455,-22,-243,-85,-16,72,-3
5460,-17,-242,-86,-15,73,-3
5465,-17,-245,-94,-14,73,-3
5470,-18,-244,-89,-13,74,-3
5475,-18,-245,-87,-13,73,-3
5480,-19,-242,-90,-12,72,-3
5485,-18,-243,-89,-12,72,-3
5490,-17,-242,-89,-10,72,-2
5495,-18,-243,-88,-10,70,-1
5500,-17,-239,-91,-11,70,-1
5505,-18,-240,-93,-11,68,-3
5510,-20,-242,-91,-12,67,-3
5515,-19,-242,-90,-13,66,-2
5520,-16,-244,-90,-13,65,-2
5525,-16,-245,-90,-13,66,-1
5530,-17,-244,-89,-12,66,-1
5535,-20,-242,-90,-10,66,-2
5540,-18,-243,-90,-9,66,-2
5545,-17,-241,-91,-8,66,-2
5550,-22,-242,-92,-7,66,-1
5555,-20,-244,-90,-5,66,-1
5560,-21,-241,-89,-4,64,1
5565,-16,-242,-92,-3,64,0
5570,-20,-242,-87,-4,65,3
5575,-17,-243,-86,-4,63,2
5580,-20,-243,-88,-4,64,3
5585,-14,-242,-89,-4,65,3
5590,-18,-241,-91,-3,65,2
5595,-17,-245,-91,-3,65,2
5600,-17,-242,-90,-3,65,0
5605,-19,-240,-89,0,65,0
5610,-19,-243,-89,0,64,-1
5615,-15,-245,-87,-3,63,-1
5620,-15,-244,-92,-4,63,-1
5625,-18,-241,-87,-6,65,-2
5630,-19,-242,-86,-7,64,-3
5635,-18,-243,-86,-10,66,-3
5640,-16,-242,-88,-12,66,-3
5645,-19,-241,-85,-12,68,-5
5650,-20,-243,-85,-12,68,-6
5655,-20,-244,-89,-10,68,-6
5660,-21,-244,-86,-10,70,-8
5665,-20,-242,-91,-8,69,-8
5670,-21,-242,-88,-5,71,-8
5675,-19,-244,-95,-2,72,-11
5680,-18,-243,-87,0,71,-10
5685,-16,-244,-90,2,70,-9
5690,-18,-241,-92,3,70,-8
5695,-21,-241,-93,3,70,-8
5700,-16,-243,-90,1,68,-6
5705,-18,-240,-87,2,66,-4
5710,-18,-243,-89,1,65,-3
5715,-17,-243,-88,0,64,-3
5720,-19,-240,-86,-1,65,-3
5725,-14,-242,-87,-4,65,-1
5730,-21,-250,-83,-6,64,0
5735,-19,-241,-91,-5,64,1
5740,-21,-241,-91,-2,63,0
5745,-19,-245,-91,-1,62,-1
5750,-19,-243,-89,1,64,-2
5755,-18,-243,-92,5,61,-2
5760,-17,-243,-91,7,60,-5
5765,-16,-244,-89,8,61,-8
5770,-19,-243,-89,9,59,-9
5775,-16,-245,-86,9,60,-9
5780,-19,-242,-88,8,60,-11
5785,-21,-242,-87,6,62,-11
5790,-20,-241,-91,5,62,-11
5795,-18,-243,-87,5,63,-11
5800,-18,-241,-86,4,65,-12
5805,-23,-245,-87,3,65,-13
5810,-17,-244,-87,2,65,-12
5815,-19,-242,-85,1,66,-12
5820,-20,-241,-88,0,66,-11
5825,-17,-244,-87,0,66,-9
5830,-18,-243,-88,0,66,-11
5835,-21,-240,-89,0,67,-10
5840,-20,-247,-90,1,67,-9
5845,-19,-244,-84,1,67,-9
5850,-18,-243,-88,2,67,-8
5855,-16,-246,-91,4,67,-8
5860,-18,-246,-86,4,67,-7
5865,-19,-241,-91,6,65,-6
5870,-19,-243,-89,9,64,-6
5875,-19,-245,-92,10,63,-6
5880,-18,-240,-86,10,62,-5
5885,-16,-241,-89,10,61,-5
5890,-16,-242,-88,8,61,-5
5895,-18,-242,-89,8,61,-7
5900,-20,-243,-95,8,59,-8
5905,-19,-243,-92,5,61,-7
5910,-16,-239,-89,5,62,-7
5915,-16,-241,-88,4,63,-7
5920,-19,-243,-88,2,64,-6
5925,-17,-237,-88,0,65,-7
5930,-15,-245,-89,0,67,-8
5935,-19,-243,-88,2,67,-9
5940,-19,-242,-88,1,67,-9
5945,-17,-245,-89,2,68,-9
5950,-16,-244,-87,1,67,-10
5955,-18,-243,-92,1,68,-9
5960,-17,-241,-87,1,68,-8
5965,-18,-245,-83,0,70,-8
5970,-17,-244,-84,-1,69,-8
5975,-17,-246,-87,-1,69,-7
5980,-19,-244,-88,-2,68,-4
5985,-20,-244,-86,-1,68,-5
5990,-18,-244,-88,-2,67,-5
5995,-20,-243,-88,-2,67,-3
6000,-17,-242,-88,-2,67,-4
6005,-16,-243,-89,0,66,-3
6010,-19,-244,-88,-1,66,-4
6015,-18,-241,-88,1,64,-5
6020,-18,-241,-89,1,63,-4
6025,-20,-244,-87,1,61,-4
6030,-21,-239,-86,-1,60,-2
6035,-19,-240,-89,0,59,1
6040,-16,-242,-93,0,55,3
6045,-19,-242,-88,0,55,5
6050,-15,-243,-85,-1,55,3
6055,-18,-246,-89,-2,57,3
6060,-22,-247,-87,-2,59,4
6065,-19,-242,-85,-4,61,2
6070,-16,-247,-86,-7,63,1
6075,-19,-241,-84,-9,64,-2
6080,-17,-243,-88,-10,66,-3
6085,-17,-245,-85,-8,65,-4
6090,-20,-242,-85,-8,67,-5
6095,-17,-243,-87,-5,67,-6
6100,-18,-244,-84,-3,66,-5
6105,-19,-244,-86,-4,67,-6
6110,-19,-246,-89,-3,67,-6
6115,-19,-241,-87,-1,68,-6
6120,-18,-244,-87,-1,67,-5
6125,-19,-245,-88,-2,67,-6
6130,-17,-245,-89,-1,66,-6
6135,-20,-243,-85,-2,65,-3
6140,-17,-246,-87,-1,66,-3
6145,-15,-243,-85,-1,64,-4
6150,-19,-243,-85,1,64,-3
6155,-20,-245,-89,1,64,-4
6160,-17,-243,-87,1,61,-5
6165,-20,-240,-91,2,62,-4
6170,-16,-242,-89,2,62,-3
6175,-17,-242,-86,1,63,-2
6180,-18,-246,-84,0,65,0
6185,-19,-243,-87,-2,65,-2
6190,-19,-245,-85,-4,66,-1
6195,-17,-244,-88,-4,66,-2
6200,-17,-243,-87,-5,68,-2
6205,-20,-243,-88,-8,71,-1
6210,-19,-245,-87,-6,71,0
6215,-19,-241,-88,-6,72,1
6220,-19,-243,-88,-4,72,1
6225,-18,-240,-90,-5,73,2
6230,-17,-244,-90,-4,71,1
6235,-18,-240,-87,-5,70,3
6240,-18,-241,-90,-6,67,5
6245,-15,-240,-91,-6,66,8
6250,-19,-241,-89,-6,64,11
6255,-21,-242,-88,-8,62,11
6260,-17,-244,-87,-10,62,10
6265,-19,-244,-90,-11,61,7
6270,-18,-242,-89,-11,64,6
6275,-24,-247,-85,-12,70,4
6280,-20,-242,-85,-14,73,3
6285,-17,-246,-85,-17,77,1
6290,-18,-243,-85,-19,79,0
6295,-20,-242,-84,-20,78,0
6300,-20,-242,-85,-17,78,-1
6305,-19,-239,-87,-17,76,-2
6310,-19,-247,-86,-14,75,-2
6315,-21,-246,-85,-13,74,-2
6320,-20,-245,-82,-13,73,-1
6325,-20,-243,-86,-12,74,-1
6330,-22,-246,-86,-12,72,0
6335,-19,-245,-87,-10,72,2
6340,-20,-242,-86,-7,71,2
6345,-19,-245,-88,-5,71,0
6350,-19,-244,-91,-4,71,-1
6355,-20,-247,-85,-1,71,0
6360,-20,-245,-86,0,71,0
6365,-22,-244,-85,3,68,0
6370,-20,-244,-87,4,67,1
6375,-18,-242,-86,6,66,2
6380,-18,-247,-84,7,65,2
6385,-18,-247,-89,9,65,1
6390,-19,-245,-92,10,63,1
6395,-18,-243,-87,10,64,-1
6400,-18,-244,-87,11,64,-1
6405,-18,-244,-89,10,64,-1
6410,-18,-243,-87,9,65,-1
6415,-20,-241,-88,6,65,-2
6420,-18,-243,-86,4,66,-3
6425,-16,-245,-90,6,67,-5
6430,-18,-246,-93,8,68,-6
6435,-20,-244,-88,9,68,-7
6440,-17,-245,-88,12,69,-8
6445,-20,-246,-88,13,69,-11
6450,-18,-242,-88,15,68,-11
6455,-18,-241,-90,16,67,-12
6460,-19,-241,-90,18,66,-12
6465,-15,-244,-86,17,65,-13
6470,-20,-241,-87,16,64,-12
6475,-17,-247,-89,17,62,-12
6480,-18,-237,-85,15,63,-11
6485,-18,-242,-84,14,63,-9
6490,-21,-246,-86,11,62,-8
6495,-16,-236,-89,12,63,-5
6500,-24,-242,-84,12,65,-4
6505,-17,-247,-85,11,65,-3
6510,-19,-243,-84,12,65,-4
6515,-19,-244,-86,12,64,-3
6520,-20,-245,-87,12,64,-1
6525,-20,-245,-85,12,65,-1
6530,-18,-246,-87,12,65,0
6535,-18,-245,-81,11,65,-1
6540,-19,-242,-85,10,64,-1
6545,-22,-241,-85,10,66,-1
6550,-19,-243,-86,11,65,-3
6555,-20,-243,-86,12,64,-3
6560,-18,-244,-85,13,65,-3
6565,-20,-241,-86,14,63,-3
6570,-19,-244,-85,14,63,-3
6575,-19,-243,-88,13,63,-3
6580,-19,-242,-87,14,64,-4
6585,-19,-244,-87,15,64,-5
6590,-17,-242,-84,14,64,-5
6595,-21,-244,-90,14,63,-5
6600,-18,-241,-99,15,63,-4
6605,-18,-242,-84,14,65,-4
6610,-18,-245,-84,14,65,-3
6615,-19,-244,-89,14,65,-3
6620,-21,-245,-88,15,65,-4
6625,-15,-246,-88,13,66,-3
6630,-19,-243,-87,13,68,-3
6635,-17,-243,-85,12,67,-3
6640,-21,-245,-87,13,65,-2
6645,-17,-243,-84,14,65,-2
6650,-18,-245,-86,14,66,-1
6655,-19,-245,-82,15,65,0
6660,-19,-243,-82,16,66,0
6665,-15,-243,-84,16,66,1
6670,-21,-246,-82,14,67,0
6675,-18,-243,-85,14,68,-2
6680,-20,-244,-82,14,68,-3
6685,-18,-245,-85,13,69,-4
6690,-19,-244,-83,12,67,-4
6695,-18,-246,-85,9,67,-4
6700,-18,-244,-81,5,67,-7
6705,-20,-245,-85,4,67,-7
6710,-20,-248,-81,3,66,-7
6715,-18,-246,-84,1,64,-7
6720,-20,-243,-83,-1,67,-8
6725,-20,-244,-84,-2,67,-8
6730,-19,-245,-84,-2,66,-7
6735,-20,-244,-84,-1,67,-6
6740,-23,-247,-83,1,66,-6
6745,-17,-248,-84,3,65,-6
6750,-19,-243,-86,4,65,-5
6755,-18,-246,-86,4,66,-4
6760,-18,-246,-84,5,65,-4
6765,-19,-245,-82,6,65,-4
6770,-18,-244,-86,8,64,-4
6775,-19,-241,-86,10,64,-5
6780,-20,-243,-85,13,64,-5
6785,-20,-245,-87,13,63,-4
6790,-18,-243,-87,14,63,-4
6795,-17,-245,-87,13,64,-4
6800,-19,-244,-83,12,63,-3
6805,-15,-243,-85,12,65,-5
6810,-19,-243,-85,12,65,-6
6815,-17,-243,-85,12,65,-5
6820,-16,-239,-89,11,66,-2
6825,-16,-243,-84,11,66,0
6830,-20,-238,-89,8,64,2
6835,-18,-239,-89,4,61,6
6840,-12,-244,-87,-7,60,8
6845,-17,-240,-92,-23,60,8
6850,-14,-241,-88,-42,62,7
6855,-16,-239,-89,-54,64,4
6860,-15,-242,-91,-59,69,5
6865,-15,-241,-93,-69,78,4
6870,-19,-246,-90,-96,90,5
6875,-18,-246,-89,-139,102,9
6880,-17,-249,-84,-178,115,14
6885,-14,-245,-84,-198,124,10
6890,-15,-241,-86,-190,128,5
6895,-21,-226,-97,-162,128,-1
6900,-18,-221,-99,-139,126,1
6905,-20,-222,-104,-152,124,13
6910,-23,-234,-96,-231,124,34
6915,-25,-249,-79,-362,116,54
6920,-23,-249,-74,-467,103,68
6925,-22,-240,-76,-457,85,65
6930,-27,-226,-92,-350,71,50
6935,-26,-214,-102,-245,62,38
6940,-31,-212,-104,-218,57,39
6945,-28,-212,-103,-270,54,51
6950,-26,-214,-96,-360,54,70
6955,-26,-215,-93,-449,59,89
6960,-24,-214,-88,-520,61,97
6965,-22,-213,-86,-561,59,89
6970,-29,-207,-92,-581,43,60
6975,-30,-205,-97,-622,6,46
6980,-31,-203,-100,-685,-28,50
6985,-27,-199,-103,-754,-48,44
6990,-33,-192,-108,-832,-73,31
6995,-30,-192,-109,-920,-102,31
7000,-30,-199,-115,-1017,-128,36
7005,-31,-203,-115,-1117,-141,46
7010,-34,-211,-111,-1204,-147,61
7015,-31,-221,-114,-1269,-149,74
7020,-32,-231,-116,-1315,-142,87
7025,-31,-238,-122,-1349,-126,96
7030,-31,-244,-123,-1369,-107,103
7035,-31,-248,-125,-1373,-79,107
7040,-28,-247,-116,-1361,-48,116
7045,-27,-263,-120,-1335,-18,119
7050,-22,-271,-122,-1284,18,121
7055,-19,-278,-121,-1213,59,120
7060,-11,-278,-114,-1124,93,117
7065,-9,-276,-106,-1027,122,114
7070,-8,-277,-101,-935,138,109
7075,-9,-274,-87,-852,142,100
7080,-9,-271,-82,-776,140,94
7085,-10,-270,-71,-714,133,92
7090,-13,-269,-64,-679,121,100
7095,-15,-270,-47,-693,105,115
7100,-17,-278,-34,-765,79,134
7105,-20,-291,-23,-895,49,153
7110,-22,-304,-20,-1072,10,177
7115,-22,-312,-20,-1278,-39,213
7120,-23,-312,-32,-1480,-98,253
7125,-24,-304,-55,-1662,-161,285
7130,-22,-286,-84,-1816,-227,304
7135,-29,-265,-120,-1941,-282,307
7140,-30,-266,-160,-2019,-307,301
7145,-29,-281,-183,-2065,-292,298
7150,-32,-308,-203,-2091,-258,298
7155,-39,-336,-194,-2098,-233,307
7160,-34,-359,-179,-2057,-247,323
7165,-27,-376,-177,-1942,-292,315
7170,-33,-383,-184,-1751,-323,293
7175,-33,-397,-183,-1521,-315,287
7180,-26,-404,-187,-1287,-276,301
7185,-16,-386,-192,-1039,-221,295
7190,-19,-351,-210,-770,-148,227
7195,-31,-322,-216,-516,-70,126
7200,-38,-308,-215,-358,0,43
7205,-41,-306,-208,-336,41,2
7210,-36,-309,-199,-395,47,-11
7215,-42,-307,-201,-462,27,-21
7220,-45,-308,-207,-497,3,-25
7225,-46,-299,-221,-489,-19,-22
7230,-57,-293,-235,-457,-26,-25
7235,-59,-298,-236,-408,-11,-28
7240,-64,-304,-234,-333,17,-37
7245,-59,-307,-233,-247,48,-38
7250,-54,-308,-235,-168,81,-37
7255,-57,-302,-237,-103,114,-41
7260,-63,-298,-247,-54,135,-46
7265,-61,-296,-251,-21,148,-51
7270,-60,-295,-256,8,153,-58
7275,-60,-294,-258,35,152,-66
7280,-60,-296,-253,70,153,-74
7285,-64,-298,-252,108,148,-83
7290,-60,-300,-242,158,132,-89
7295,-58,-299,-235,217,113,-99
7300,-55,-297,-232,287,93,-112
7305,-52,-286,-230,354,71,-133
7310,-53,-274,-226,416,48,-155
7315,-46,-260,-224,460,27,-174
7320,-48,-251,-220,487,11,-189
7325,-39,-244,-217,492,-8,-202
7330,-38,-238,-206,486,-10,-218
7335,-37,-237,-205,465,-2,-228
7340,-34,-233,-193,432,10,-235
7345,-34,-233,-190,394,22,-238
7350,-33,-228,-188,357,28,-236
7355,-26,-222,-196,317,29,-227
7360,-38,-227,-182,276,27,-212
7365,-39,-224,-186,233,17,-188
7370,-33,-224,-177,194,4,-163
7375,-32,-224,-181,163,-5,-139
7380,-34,-222,-179,140,-10,-121
7385,-31,-222,-177,124,-12,-102
7390,-33,-226,-168,118,-16,-84
7395,-33,-224,-164,124,-22,-70
7400,-29,-223,-161,143,-27,-56
7405,-32,-220,-160,171,-31,-45
7410,-31,-220,-156,205,-28,-35
7415,-29,-220,-153,242,-21,-30
7420,-30,-213,-154,284,-10,-28
7425,-26,-210,-150,325,4,-28
7430,-27,-206,-151,374,24,-29
7435,-22,-201,-146,432,46,-32
7440,-24,-196,-147,482,69,-32
7445,-25,-190,-145,529,87,-36
7450,-23,-183,-143,574,105,-40
7455,-22,-181,-142,614,114,-50
7460,-21,-173,-137,648,119,-58
7465,-19,-165,-134,677,124,-69
7470,-21,-164,-131,701,133,-77
7475,-18,-161,-132,717,144,-78
7480,-17,-160,-127,724,154,-72
7485,-13,-160,-121,723,163,-66
7490,-6,-155,-119,725,170,-62
7495,-9,-156,-117,732,176,-60
7500,-5,-154,-111,739,180,-57
7505,-3,-152,-116,747,180,-51
7510,-5,-148,-111,757,178,-50
7515,-2,-141,-113,767,175,-47
7520,0,-135,-113,777,174,-48
7525,-3,-130,-110,779,172,-47
7530,1,-128,-104,777,171,-45
7535,0,-125,-105,766,172,-47
7540,-1,-123,-104,746,174,-49
7545,-1,-123,-100,724,180,-51
7550,-4,-120,-95,702,187,-56
7555,-6,-123,-91,683,194,-64
7560,-9,-126,-87,665,197,-72
7565,-15,-128,-86,651,208,-81
7570,-11,-135,-85,646,220,-92
7575,-10,-132,-79,648,231,-102
7580,-18,-143,-81,666,242,-110
7585,-19,-142,-83,692,252,-121
7590,-21,-146,-84,718,265,-128
7595,-19,-144,-84,746,279,-135
7600,-19,-145,-90,771,294,-144
7605,-24,-140,-88,792,314,-153
7610,-20,-139,-99,809,329,-163
7615,-23,-135,-98,825,335,-175
7620,-22,-133,-100,848,337,-186
7625,-20,-126,-104,870,331,-186
7630,-19,-122,-105,895,317,-198
7635,-18,-115,-102,917,300,-206
7640,-17,-111,-99,929,280,-209
7645,-18,-110,-99,931,263,-207
7650,-16,-106,-98,922,241,-205
7655,-17,-105,-95,899,219,-196
7660,-17,-107,-97,866,201,-185
7665,-21,-106,-100,821,183,-175
7670,-22,-112,-96,770,161,-160
7675,-23,-118,-100,725,141,-150
7680,-30,-125,-94,687,124,-138
7685,-26,-132,-107,655,116,-131
7690,-27,-135,-102,623,109,-119
7695,-29,-145,-101,598,107,-104
7700,-29,-153,-101,581,106,-93
7705,-28,-160,-99,581,104,-83
7710,-25,-168,-99,593,108,-73
7715,-28,-171,-99,624,115,-66
7720,-26,-172,-111,659,119,-57
7725,-27,-174,-112,688,112,-45
7730,-27,-175,-117,703,97,-35
7735,-28,-170,-121,703,79,-26
7740,-29,-173,-122,690,56,-16
7745,-25,-171,-124,667,37,-7
7750,-24,-172,-119,638,19,4
7755,-26,-179,-120,607,6,14
7760,-23,-182,-122,578,-3,22
7765,-22,-186,-119,549,-2,29
7770,-23,-190,-122,524,4,36
7775,-20,-192,-125,504,17,40
7780,-21,-198,-122,487,34,46
7785,-23,-197,-125,472,53,54
7790,-27,-201,-115,458,70,63
7795,-20,-207,-125,447,81,69
7800,-19,-211,-125,438,93,70
7805,-19,-215,-120,430,108,66
7810,-20,-220,-121,424,123,62
7815,-14,-221,-118,417,140,63
7820,-16,-229,-120,405,163,57
7825,-11,-232,-118,388,188,49
7830,-14,-237,-116,364,212,38
7835,-14,-246,-110,341,227,26
7840,-13,-253,-109,318,236,15
7845,-18,-255,-107,299,242,0
7850,-19,-259,-102,284,247,-11
7855,-23,-260,-98,275,247,-22
7860,-27,-257,-94,273,243,-33
7865,-29,-258,-89,275,237,-42
7870,-29,-256,-84,280,228,-48
7875,-31,-250,-81,286,216,-51
7880,-32,-249,-81,292,201,-52
7885,-32,-247,-82,302,184,-54
7890,-33,-244,-82,312,167,-53
7895,-34,-245,-83,318,152,-49
7900,-27,-244,-83,324,139,-45
7905,-35,-239,-80,325,133,-41
7910,-28,-243,-83,325,132,-35
7915,-33,-238,-82,319,130,-28
7920,-31,-233,-86,309,127,-22
7925,-28,-236,-83,292,120,-13
7930,-24,-235,-83,274,113,-6
7935,-26,-232,-91,255,99,1
7940,-23,-232,-86,238,87,10
7945,-25,-236,-86,223,75,18
7950,-20,-240,-87,212,63,25
7955,-15,-242,-90,215,55,31
7960,-18,-247,-91,220,50,33
7965,-18,-247,-88,227,49,33
7970,-18,-247,-91,233,52,28
7975,-18,-250,-90,237,56,20
7980,-19,-249,-87,237,61,13
7985,-19,-252,-88,232,66,3
7990,-18,-254,-88,225,71,-5
7995,-24,-250,-84,220,77,-13
8000,-22,-256,-84,214,77,-23
8005,-20,-250,-84,209,75,-31
8010,-25,-247,-85,200,70,-40
8015,-24,-249,-83,191,62,-46
8020,-25,-246,-80,182,48,-50
8025,-25,-245,-80,174,31,-53
8030,-26,-244,-81,165,16,-55
8035,-25,-243,-83,157,-1,-54
8040,-25,-242,-82,148,-15,-50
8045,-19,-245,-80,137,-27,-44
8050,-19,-242,-80,125,-40,-36
8055,-16,-245,-79,111,-50,-29
8060,-19,-247,-77,104,-57,-24
8065,-17,-247,-76,103,-60,-20
8070,-20,-248,-71,106,-62,-15
8075,-15,-248,-72,109,-66,-11
8080,-13,-251,-75,112,-71,-10
8085,-13,-249,-72,114,-71,-10
8090,-14,-248,-71,116,-68,-8
8095,-8,-247,-70,119,-67,-9
8100,-11,-247,-73,125,-63,-10
8105,-9,-248,-72,129,-60,-13
8110,-13,-245,-73,129,-56,-17
8115,-6,-246,-66,125,-51,-22
8120,-15,-245,-66,120,-48,-26
8125,-13,-244,-64,117,-46,-30
8130,-16,-244,-64,117,-43,-35
8135,-14,-245,-65,119,-40,-37
8140,-13,-248,-68,120,-36,-43
8145,-12,-247,-67,122,-32,-45
8150,-17,-247,-66,120,-27,-45
8155,-18,-249,-62,119,-24,-45
8160,-19,-248,-68,116,-24,-45
8165,-18,-248,-64,115,-24,-43
8170,-20,-248,-65,113,-24,-41
8175,-22,-248,-64,110,-23,-38
8180,-22,-249,-62,107,-22,-34
8185,-22,-248,-60,105,-21,-32
8190,-21,-249,-65,102,-20,-28
8195,-20,-249,-63,100,-21,-24
8200,-19,-249,-65,98,-21,-20
8205,-15,-248,-62,103,-19,-15
8210,-13,-247,-66,107,-12,-13
8215,-17,-246,-60,111,-7,-11
8220,-12,-250,-67,112,1,-8
8225,-12,-235,-60,111,8,-4
8230,-12,-248,-61,108,18,-1
8235,-12,-248,-61,105,27,0
8240,-10,-251,-64,104,32,2
8245,-10,-253,-62,105,39,4
8250,-9,-253,-60,107,44,4
8255,-10,-252,-57,111,50,5
8260,-11,-251,-61,114,59,6
8265,-11,-252,-63,118,69,0
8270,-9,-251,-63,121,80,-2
8275,-12,-248,-60,122,94,-4
8280,-17,-246,-63,125,106,-4
8285,-13,-250,-56,127,119,-6
8290,-15,-249,-60,131,128,-5
8295,-16,-245,-60,132,135,-4
8300,-13,-247,-58,133,142,-2
8305,-12,-247,-54,134,150,0
8310,-13,-247,-58,132,157,1
8315,-17,-246,-54,131,163,5
8320,-14,-245,-58,128,165,8
8325,-17,-245,-54,124,165,9
8330,-12,-247,-55,122,167,13
8335,-10,-248,-62,117,168,17
8340,-13,-249,-58,110,171,19
8345,-15,-248,-58,105,174,23
8350,-17,-249,-57,101,177,24
8355,-16,-252,-61,98,178,25
8360,-14,-250,-62,95,180,25
8365,-15,-250,-60,94,180,24
8370,-14,-252,-59,95,180,20
8375,-14,-249,-62,98,181,19
8380,-15,-251,-55,104,180,19
8385,-13,-253,-59,111,179,17
8390,-19,-253,-61,117,178,15
8395,-14,-249,-60,119,181,11
8400,-16,-250,-57,118,179,11
8405,-19,-249,-58,111,178,7
8410,-18,-249,-61,104,176,4
8415,-18,-252,-68,95,175,0
8420,-17,-253,-65,86,177,-1
8425,-17,-251,-60,81,177,-1
8430,-16,-255,-55,78,181,-1
8435,-16,-255,-62,79,182,1
8440,-18,-251,-58,80,182,2
8445,-17,-249,-66,80,180,1
8450,-17,-255,-62,80,175,1
8455,-21,-252,-59,79,172,2
8460,-20,-252,-57,76,168,0
8465,-19,-253,-62,73,165,-3
8470,-18,-251,-59,69,166,-3
8475,-17,-255,-56,64,165,-4
8480,-22,-250,-58,61,163,-7
8485,-22,-250,-59,57,161,-9
8490,-18,-252,-59,53,155,-11
8495,-23,-250,-59,50,150,-14
8500,-22,-250,-58,48,143,-16
8505,-22,-250,-57,49,133,-18
8510,-21,-251,-54,52,123,-19
8515,-21,-247,-60,57,114,-18
8520,-23,-249,-59,60,107,-19
8525,-20,-247,-55,62,103,-18
8530,-20,-247,-56,62,102,-19
8535,-21,-245,-59,58,100,-19
8540,-22,-243,-59,54,98,-19
8545,-25,-245,-56,47,95,-16
8550,-23,-247,-58,39,92,-16
8555,-23,-258,-53,32,87,-17
8560,-22,-248,-61,24,83,-17
8565,-21,-254,-54,18,80,-16
8570,-19,-255,-53,13,77,-16
8575,-17,-255,-53,10,76,-15
8580,-18,-256,-49,9,78,-15
8585,-14,-253,-52,10,80,-15
8590,-16,-253,-53,11,82,-14
8595,-16,-252,-54,13,83,-15
8600,-15,-253,-53,11,83,-15
8605,-14,-250,-54,9,83,-18
8610,-16,-250,-55,6,85,-16
8615,-16,-252,-52,3,88,-16
8620,-19,-248,-56,3,92,-16
8625,-17,-250,-56,5,92,-14
8630,-16,-249,-56,8,94,-14
8635,-21,-248,-57,8,92,-13
8640,-17,-247,-59,7,91,-15
8645,-14,-248,-58,1,87,-16
8650,-19,-248,-60,-8,86,-16
8655,-21,-250,-57,-15,86,-18
8660,-27,-257,-52,-23,82,-19
8665,-19,-252,-58,-27,80,-20
8670,-19,-255,-57,-26,80,-19
8675,-20,-254,-55,-23,83,-19
8680,-18,-255,-56,-19,86,-17
8685,-16,-254,-57,-17,89,-13
8690,-18,-253,-59,-18,91,-12
8695,-19,-251,-58,-20,91,-8
8700,-16,-250,-53,-24,90,-7
8705,-13,-252,-59,-26,90,-4
8710,-14,-250,-56,-26,89,-2
8715,-16,-249,-53,-27,89,-1
8720,-14,-254,-54,-27,88,0
8725,-16,-252,-54,-25,87,0
8730,-19,-251,-57,-23,88,0
8735,-17,-252,-55,-22,87,-1
8740,-17,-251,-57,-21,87,-1
8745,-17,-250,-56,-21,89,0
8750,-16,-250,-56,-21,92,0
8755,-18,-253,-56,-22,97,-1
8760,-16,-252,-56,-24,102,-2
8765,-20,-248,-54,-27,104,-2
8770,-24,-247,-53,-28,106,-2
8775,-19,-249,-59,-27,108,-2
8780,-16,-249,-55,-24,110,-1
8785,-19,-249,-57,-18,110,1
8790,-18,-248,-59,-15,109,3
8795,-19,-247,-56,-14,108,4
8800,-19,-248,-58,-16,106,4
8805,-18,-248,-53,-19,104,5
8810,-20,-245,-57,-23,104,8
8815,-17,-250,-50,-27,101,9
8820,-17,-249,-53,-31,98,12
8825,-16,-249,-57,-35,98,13
8830,-17,-254,-55,-38,95,13
8835,-17,-252,-51,-39,92,14
8840,-17,-253,-52,-36,91,10
8845,-17,-253,-54,-34,90,11
8850,-18,-253,-53,-33,88,10
8855,-17,-251,-55,-32,86,8
8860,-19,-253,-56,-32,86,7
8865,-16,-254,-53,-33,85,6
8870,-16,-253,-53,-35,86,5
8875,-13,-254,-51,-37,92,3
8880,-17,-253,-51,-34,95,3
8885,-15,-254,-53,-29,96,4
8890,-15,-253,-54,-24,98,4
8895,-16,-251,-54,-21,99,6
8900,-18,-252,-54,-22,98,9
8905,-20,-253,-58,-24,94,10
8910,-19,-250,-60,-26,89,11
8915,-19,-253,-59,-28,85,15
8920,-20,-254,-62,-29,82,16
8925,-20,-255,-57,-28,80,17
8930,-17,-256,-56,-26,78,18
8935,-20,-256,-60,-21,76,17
8940,-19,-253,-62,-17,75,16
8945,-16,-252,-57,-10,75,15
8950,-20,-250,-54,-5,77,11
8955,-18,-250,-60,-2,78,10
8960,-14,-251,-54,2,76,8
8965,-16,-249,-57,3,73,8
8970,-17,-250,-58,4,70,9
8975,-19,-248,-60,5,67,11
8980,-19,-250,-56,5,66,12
8985,-17,-247,-54,4,62,13
8990,-16,-246,-60,3,61,12
8995,-16,-248,-53,0,60,14
9000,-17,-248,-53,-3,58,12
9005,-14,-251,-55,-8,56,11
9010,-16,-253,-54,-13,55,12
9015,-14,-252,-52,-15,54,13
9020,-13,-250,-56,-20,52,12
9025,-15,-251,-57,-19,51,13
9030,-17,-250,-55,-16,47,11
9035,-13,-250,-54,-10,43,10
9040,-17,-252,-55,-3,39,7
9045,-19,-249,-58,0,38,6
9050,-18,-246,-57,1,38,3
9055,-15,-248,-57,0,36,2
9060,-19,-244,-56,-6,38,0
9065,-18,-246,-59,-14,38,-2
9070,-20,-247,-56,-23,39,-6
9075,-17,-253,-57,-29,37,-10
9080,-16,-255,-56,-32,36,-13
9085,-14,-255,-57,-31,36,-13
9090,-17,-252,-53,-26,37,-15
9095,-11,-249,-63,-20,38,-16
9100,-16,-253,-56,-15,38,-16
9105,-16,-252,-54,-8,38,-16
9110,-14,-250,-57,0,37,-15
9115,-15,-252,-55,5,40,-14
9120,-18,-248,-55,8,40,-12
9125,-17,-248,-59,8,43,-13
9130,-18,-248,-61,5,46,-11
9135,-16,-249,-57,2,48,-8
9140,-13,-251,-59,-1,45,-6
9145,-15,-248,-58,-4,43,-4
9150,-14,-251,-52,-7,40,-2
9155,-15,-251,-53,-10,38,0
9160,-14,-249,-56,-12,36,1
9165,-17,-253,-54,-14,35,0
9170,-17,-250,-56,-15,33,0
9175,-16,-251,-56,-13,33,-2
9180,-17,-255,-58,-9,34,-2
9185,-16,-252,-60,-3,33,-7
9190,-18,-249,-56,4,34,-10
9195,-16,-248,-56,8,35,-11
9200,-17,-250,-56,7,37,-13
9205,-17,-250,-55,5,39,-14
9210,-14,-248,-53,1,40,-15
9215,-15,-250,-53,-2,40,-14
9220,-13,-249,-56,-5,40,-12
9225,-16,-249,-53,-7,39,-11
9230,-14,-249,-53,-7,39,-9
9235,-16,-249,-55,-6,40,-9
9240,-16,-249,-58,-6,39,-7
9245,-17,-248,-55,-7,43,-8
9250,-15,-250,-54,-6,44,-9
9255,-17,-249,-52,-5,46,-8
9260,-20,-248,-52,-6,50,-9
9265,-18,-248,-54,-8,52,-10
9270,-16,-252,-52,-11,54,-10
9275,-14,-255,-56,-13,56,-13
9280,-16,-253,-53,-13,57,-14
9285,-17,-254,-58,-10,59,-11
9290,-15,-255,-53,-7,59,-12
9295,-15,-252,-52,-3,60,-11
9300,-15,-251,-55,0,61,-10
9305,-13,-249,-52,1,60,-10
9310,-14,-253,-52,3,60,-12
9315,-12,-249,-49,1,61,-13
9320,-14,-249,-51,-2,62,-14
9325,-11,-251,-54,-5,67,-16
9330,-14,-251,-56,-7,68,-18
9335,-14,-250,-51,-8,69,-19
9340,-18,-249,-52,-9,69,-19
9345,-14,-252,-54,-11,71,-21
9350,-13,-251,-55,-11,73,-22
9355,-15,-252,-59,-11,74,-23
9360,-14,-252,-57,-12,76,-23
9365,-15,-252,-57,-13,78,-21
9370,-15,-253,-55,-16,78,-19
9375,-14,-249,-54,-17,76,-19
9380,-17,-251,-52,-19,78,-15
9385,-14,-251,-53,-21,78,-11
9390,-15,-256,-52,-22,75,-9
9395,-17,-253,-51,-20,73,-9
9400,-15,-252,-55,-15,70,-10
9405,-18,-250,-51,-12,68,-10
9410,-17,-249,-57,-10,69,-12
9415,-19,-249,-49,-10,68,-10
9420,-17,-250,-53,-10,69,-14
9425,-25,-257,-66,-13,71,-14
9430,-16,-249,-52,-17,72,-14
9435,-17,-248,-55,-23,74,-13
9440,-16,-248,-52,-30,76,-13
9445,-12,-249,-54,-34,78,-11
9450,-15,-251,-53,-39,78,-9
9455,-14,-250,-50,-41,76,-9
9460,-16,-252,-49,-41,75,-7
9465,-16,-251,-51,-39,75,-6
9470,-14,-248,-49,-37,77,-8
9475,-13,-251,-53,-34,83,-7
9480,-16,-248,-57,-34,88,-4
9485,-17,-250,-53,-38,90,-6
9490,-17,-250,-54,-44,91,-8
9495,-13,-253,-54,-50,94,-9
9500,-17,-252,-53,-56,93,-11
9505,-16,-251,-56,-57,96,-11
9510,-14,-251,-57,-55,98,-14
9515,-14,-253,-51,-51,101,-14
9520,-17,-253,-55,-47,103,-14
9525,-16,-254,-54,-42,106,-15
9530,-13,-255,-53,-38,108,-15
9535,-18,-256,-46,-33,105,-13
9540,-18,-253,-54,-28,102,-12
9545,-15,-257,-50,-21,101,-10
9550,-17,-257,-53,-13,100,-8
9555,-14,-255,-55,-5,100,-6
9560,-16,-255,-55,-2,100,-7
9565,-16,-252,-58,-1,102,-7
9570,-18,-253,-57,-4,102,-8
9575,-14,-252,-61,-10,103,-7
9580,-14,-251,-57,-15,104,-9
9585,-16,-250,-58,-20,105,-10
9590,-14,-253,-56,-21,107,-12
9595,-15,-251,-52,-20,108,-13
9600,-13,-250,-57,-21,111,-14
9605,-15,-251,-53,-21,114,-14
9610,-15,-249,-55,-20,117,-16
9615,-15,-251,-57,-20,119,-18
9620,-16,-250,-57,-21,121,-17
9625,-16,-249,-57,-21,122,-16
9630,-15,-251,-54,-22,122,-15
9635,-18,-248,-56,-24,122,-15
9640,-9,-249,-59,-27,120,-12
9645,-14,-251,-55,-27,117,-11
9650,-16,-251,-54,-30,113,-10
9655,-17,-252,-52,-29,111,-10
9660,-18,-252,-57,-30,111,-11
9665,-17,-255,-50,-25,108,-9
9670,-19,-252,-51,-20,103,-11
9675,-14,-253,-55,-13,100,-10
9680,-11,-253,-54,-6,97,-11
9685,-19,-251,-56,-1,95,-11
9690,-17,-251,-53,3,93,-9
9695,-16,-252,-51,6,91,-10
9700,-15,-249,-52,6,87,-11
9705,-17,-249,-58,4,84,-11
9710,-13,-249,-53,0,81,-9
9715,-16,-249,-49,-4,77,-7
9720,-18,-246,-49,-7,75,-8
9725,-15,-249,-49,-10,71,-9
9730,-19,-249,-55,-13,68,-8
9735,-17,-252,-52,-17,65,-9
9740,-19,-250,-54,-19,62,-8
9745,-15,-252,-51,-19,60,-8
9750,-16,-257,-53,-19,61,-9
9755,-14,-251,-55,-20,60,-9
9760,-18,-249,-56,-22,62,-9
9765,-17,-253,-55,-23,62,-9
9770,-16,-250,-59,-24,58,-10
9775,-16,-252,-56,-26,57,-10
9780,-16,-251,-54,-27,55,-10
9785,-16,-253,-53,-27,54,-10
9790,-16,-253,-55,-25,53,-11
9795,-15,-252,-55,-22,53,-10
9800,-10,-254,-54,-18,53,-8
9805,-17,-254,-59,-14,51,-7
9810,-16,-253,-55,-12,50,-7
9815,-16,-252,-55,-9,48,-7
9820,-16,-252,-55,-10,46,-6
9825,-17,-254,-56,-12,42,-6
9830,-16,-252,-58,-14,38,-7
9835,-19,-251,-58,-14,35,-8
9840,-15,-251,-55,-13,33,-9
9845,-14,-253,-55,-13,33,-10
9850,-14,-250,-53,-14,32,-10
9855,-17,-248,-57,-17,32,-11
9860,-15,-244,-49,-21,31,-10
9865,-16,-251,-56,-22,32,-8
9870,-15,-247,-53,-22,31,-6
9875,-17,-248,-54,-21,31,-6
9880,-13,-248,-54,-22,30,-4
9885,-15,-248,-58,-27,30,-1
9890,-10,-245,-57,-34,31,-1
9895,-16,-247,-50,-41,32,2
9900,-17,-248,-55,-47,28,2
9905,-16,-249,-52,-50,26,1
9910,-16,-253,-56,-51,25,0
9915,-15,-251,-56,-53,25,0
9920,-11,-254,-56,-53,25,-3
9925,-17,-253,-56,-51,26,-3
9930,-18,-254,-57,-49,29,-5
9935,-13,-254,-56,-46,31,-7
9940,-16,-251,-53,-44,34,-8
9945,-13,-251,-56,-41,38,-7
9950,-15,-251,-56,-40,40,-8
9955,-13,-252,-56,-38,42,-7
9960,-17,-251,-55,-36,44,-7
9965,-15,-249,-54,-35,43,-3
9970,-16,-260,-54,-34,41,-3
9975,-16,-252,-55,-34,36,-2
9980,-17,-251,-58,-34,29,0
9985,-16,-250,-59,-36,23,-1
9990,-19,-253,-59,-37,21,1
9995,-17,-252,-60,-37,21,1
10000,-17,-254,-59,-37,22,1
10005,-13,-254,-60,-34,26,1
10010,-17,-253,-54,-33,26,-1
10015,-18,-251,-58,-30,26,-2
10020,-15,-252,-58,-28,30,-4
10025,-14,-251,-63,-25,33,-5
10030,-17,-248,-61,-25,36,-3
10035,-14,-246,-60,-27,39,-2
10040,-13,-248,-56,-29,42,-1
10045,-17,-243,-60,-31,43,0
10050,-14,-248,-58,-33,44,2
10055,-16,-248,-55,-35,40,2
10060,-16,-247,-59,-36,36,3
10065,-17,-245,-55,-37,30,3
10070,-14,-248,-57,-38,26,4
10075,-14,-247,-58,-37,23,6
10080,-17,-249,-52,-36,23,6
10085,-14,-249,-54,-33,24,7
10090,-18,-246,-54,-33,24,6
10095,-19,-249,-56,-32,26,3
10100,-19,-249,-61,-31,28,4
10105,-16,-251,-57,-28,29,0
10110,-16,-250,-61,-26,31,-1
10115,-15,-249,-56,-26,32,-2
10120,-18,-249,-60,-26,35,-3
10125,-17,-250,-60,-26,37,-3
10130,-15,-249,-63,-27,37,-2
10135,-15,-249,-60,-26,34,0
10140,-18,-249,-59,-25,33,0
10145,-16,-251,-55,-24,35,-1
10150,-19,-251,-61,-26,34,0
10155,-15,-249,-59,-27,33,0
10160,-16,-254,-57,-28,35,0
10165,-14,-251,-55,-29,37,1
10170,-19,-252,-59,-27,40,-1
10175,-18,-252,-61,-24,41,-1
10180,-16,-251,-59,-21,42,-1
10185,-11,-257,-63,-18,42,0
10190,-16,-254,-60,-16,44,1
10195,-15,-253,-60,-17,44,0
10200,-14,-254,-59,-20,45,-1
10205,-18,-252,-59,-23,42,-2
10210,-17,-252,-57,-23,42,-1
10215,-17,-251,-57,-25,40,-2
10220,-15,-250,-55,-25,39,-1
10225,-17,-251,-56,-24,39,-3
10230,-16,-252,-59,-23,40,-5
10235,-15,-250,-57,-20,40,-4
10240,-17,-253,-57,-18,44,-4
10245,-15,-250,-60,-15,44,-3
10250,-16,-250,-57,-13,43,-3
10255,-18,-250,-56,-10,43,-3
10260,-17,-249,-60,-7,42,-2
10265,-13,-253,-59,-5,42,-2
10270,-14,-250,-58,-3,43,-2
10275,-15,-248,-56,-3,46,-3
10280,-12,-248,-56,-4,50,-1
10285,-12,-248,-55,-5,53,-1
10290,-14,-248,-58,-8,53,-3
10295,-11,-252,-57,-11,54,-3
10300,-14,-248,-56,-11,54,-2
10305,-13,-252,-57,-11,56,-1
10310,-11,-251,-58,-11,58,-1
10315,-11,-250,-59,-10,61,-2
10320,-15,-251,-52,-10,61,-2
10325,-13,-249,-58,-12,60,-2
10330,-16,-251,-54,-12,60,-3
10335,-15,-249,-61,-11,59,-2
10340,-13,-252,-58,-9,61,-4
10345,-14,-249,-59,-7,63,-4
10350,-15,-254,-58,-4,63,-6
10355,-17,-253,-54,1,67,-3
10360,-12,-250,-58,3,66,-4
10365,-14,-250,-60,5,67,-5
10370,-17,-250,-60,6,66,-6
10375,-15,-250,-55,7,68,-5
10380,-14,-248,-58,6,68,-5
10385,-14,-248,-57,6,69,-5
10390,-16,-249,-57,5,70,-5
10395,-17,-248,-55,4,71,-4
10400,-14,-247,-57,4,71,-3
10405,-13,-250,-60,0,70,-1
10410,-17,-248,-54,-4,70,-4
10415,-18,-249,-59,-9,66,-4
10420,-18,-249,-59,-13,65,-6
10425,-18,-249,-57,-16,66,-6
10430,-14,-251,-56,-18,67,-6
10435,-16,-253,-57,-18,65,-8
10440,-13,-253,-56,-16,64,-9
10445,-15,-255,-55,-15,63,-8
10450,-15,-251,-58,-16,63,-9
10455,-15,-254,-58,-15,65,-9
10460,-17,-252,-54,-17,66,-9
10465,-14,-255,-51,-15,66,-9
10470,-16,-253,-54,-13,68,-9
10475,-15,-254,-52,-10,67,-9
10480,-13,-249,-55,-7,66,-7
10485,-16,-250,-55,-5,66,-5
10490,-18,-247,-54,-5,68,-4
10495,-17,-249,-55,-6,67,-2
10500,-16,-251,-55,-7,66,-4
10505,-16,-252,-53,-9,67,-5
10510,-16,-248,-53,-9,67,-5
10515,-14,-250,-69,-11,66,-5
10520,-17,-252,-57,-13,66,-5
10525,-14,-251,-56,-16,66,-6
10530,-15,-251,-54,-17,62,-5
10535,-15,-254,-61,-14,63,-6
10540,-17,-253,-57,-12,63,-5
10545,-18,-253,-58,-9,64,-7
10550,-16,-252,-58,-8,67,-7
10555,-17,-255,-57,-4,70,-7
10560,-16,-253,-57,-1,69,-9
10565,-17,-251,-56,3,68,-8
10570,-15,-249,-58,5,69,-7
10575,-14,-248,-61,7,71,-5
10580,-13,-251,-59,6,73,-4
10585,-11,-251,-60,7,77,-5
10590,-13,-250,-57,4,79,-4
10595,-15,-250,-54,-1,80,-4
10600,-15,-250,-58,-6,79,-5
10605,-12,-250,-58,-7,77,-4
10610,-16,-249,-57,-10,76,-5
10615,-14,-251,-55,-12,77,-4
10620,-21,-247,-67,-13,79,-6
10625,-16,-252,-56,-11,82,-7
10630,-15,-250,-55,-11,83,-7
10635,-15,-250,-49,-10,85,-8
10640,-13,-251,-54,-6,85,-7
10645,-17,-251,-53,-4,86,-7
10650,-14,-252,-55,-1,85,-7
10655,-11,-254,-56,0,83,-7
10660,-15,-255,-53,3,84,-7
10665,-17,-251,-56,3,86,-6
10670,-16,-251,-57,2,87,-5
10675,-16,-248,-58,1,87,-4
10680,-16,-249,-58,-1,87,-6
10685,-16,-251,-56,-2,88,-3
10690,-14,-251,-56,-5,88,-3
10695,-19,-249,-56,-5,88,-4
10700,-18,-250,-58,-6,88,-4
10705,-16,-251,-56,-8,91,-5
10710,-16,-249,-54,-10,91,-5
10715,-15,-251,-54,-12,90,-3
10720,-14,-252,-56,-14,91,-4
10725,-13,-251,-57,-17,90,-3
10730,-14,-253,-53,-17,90,-4
10735,-17,-250,-56,-18,91,-4
10740,-14,-254,-53,-16,91,-3
10745,-16,-250,-61,-14,94,-3
10750,-17,-249,-59,-11,94,-3
10755,-17,-249,-57,-9,95,-2
10760,-19,-248,-55,-11,94,-2
10765,-17,-250,-55,-11,95,-3
10770,-15,-249,-54,-15,96,-3
10775,-17,-250,-57,-18,97,-4
10780,-16,-253,-57,-17,98,-3
10785,-17,-249,-56,-16,97,-3
10790,-18,-249,-55,-14,96,-2
10795,-17,-249,-57,-13,93,-3
10800,-16,-249,-55,-14,91,-2
10805,-15,-250,-59,-16,89,-1
10810,-15,-252,-59,-19,87,0
10815,-17,-251,-57,-22,86,0
10820,-20,-251,-57,-21,83,1
10825,-20,-251,-57,-21,85,2
10830,-15,-251,-61,-20,85,2
10835,-14,-248,-61,-18,85,3
10840,-21,-252,-60,-17,86,2
10845,-17,-251,-60,-19,88,1
10850,-17,-249,-57,-22,88,0
10855,-19,-249,-57,-25,91,-2
10860,-15,-250,-58,-26,90,-3
10865,-20,-250,-54,-27,90,-3
10870,-17,-249,-50,-25,89,-4
10875,-17,-252,-57,-23,87,-3
10880,-18,-249,-54,-19,85,-4
10885,-19,-251,-56,-17,85,-3
10890,-17,-249,-59,-17,86,-1
10895,-18,-250,-56,-17,84,-1
10900,-17,-251,-54,-18,83,-1
10905,-18,-250,-57,-20,82,1
10910,-19,-250,-55,-23,82,2
10915,-18,-253,-59,-24,81,2
10920,-17,-253,-57,-24,78,2
10925,-16,-253,-56,-24,76,2
10930,-16,-252,-58,-25,74,3
10935,-17,-253,-61,-25,74,1
10940,-15,-251,-58,-25,73,2
10945,-17,-248,-57,-24,72,3
10950,-19,-248,-58,-24,69,2
10955,-16,-253,-61,-26,69,3
10960,-15,-250,-59,-27,72,3
10965,-17,-249,-56,-29,72,3
10970,-15,-249,-57,-29,73,3
10975,-15,-247,-58,-28,74,4
10980,-16,-250,-55,-27,73,4
10985,-16,-248,-57,-25,72,5
10990,-16,-248,-56,-23,71,5
10995,-20,-250,-57,-22,68,5
11000,-16,-251,-56,-23,66,5
11005,-19,-251,-61,-27,62,4
11010,-16,-252,-57,-33,61,4
11015,-18,-253,-60,-35,59,5
11020,-17,-252,-59,-35,58,5
11025,-18,-252,-56,-34,58,3
11030,-17,-253,-59,-30,57,2
11035,-17,-251,-57,-27,56,1
11040,-18,-251,-59,-23,54,2
11045,-19,-248,-59,-21,54,1
11050,-17,-250,-61,-20,54,1
11055,-18,-248,-57,-19,56,0
11060,-16,-257,-59,-19,56,-1
11065,-17,-248,-57,-18,53,-1
11070,-15,-249,-59,-17,53,-1
11075,-16,-249,-61,-17,52,1
11080,-17,-249,-59,-19,53,0
11085,-16,-253,-59,-21,55,2
11090,-18,-247,-57,-24,55,3
11095,-19,-248,-61,-27,55,2
11100,-17,-249,-61,-29,53,2
11105,-18,-248,-58,-31,52,1
11110,-19,-250,-56,-32,51,0
11115,-19,-248,-59,-34,52,0
11120,-19,-249,-60,-36,52,-1
11125,-16,-251,-56,-39,50,-4
11130,-16,-253,-54,-40,51,-3
11135,-18,-252,-53,-41,53,-3
11140,-18,-252,-54,-39,56,-4
11145,-14,-254,-54,-38,57,-2
11150,-16,-255,-52,-34,56,-2
11155,-14,-253,-56,-29,56,0
11160,-15,-249,-54,-24,56,1
11165,-15,-257,-54,-21,56,4
11170,-15,-251,-58,-18,55,3
11175,-14,-253,-59,-15,54,3
11180,-13,-249,-59,-14,53,3
11185,-15,-252,-58,-13,52,1
11190,-14,-251,-57,-14,52,1
11195,-18,-250,-53,-14,51,-1
11200,-17,-250,-55,-12,51,-2
11205,-16,-253,-59,-11,52,-2
11210,-16,-251,-56,-10,52,-3
11215,-16,-251,-61,-9,54,-4
11220,-17,-248,-58,-8,55,-5
11225,-14,-252,-57,-7,55,-6
11230,-18,-247,-57,-8,54,-7
11235,-15,-252,-58,-8,53,-6
11240,-17,-251,-56,-8,52,-6
11245,-16,-252,-58,-4,51,-6
11250,-18,-249,-55,3,50,-6
11255,-14,-252,-62,8,49,-7
11260,-15,-251,-59,14,48,-9
11265,-15,-250,-62,17,51,-8
11270,-14,-250,-61,17,54,-7
11275,-16,-245,-64,15,56,-5
11280,-15,-248,-60,13,59,-3
11285,-14,-249,-57,10,56,0
11290,-13,-251,-58,9,54,2
11295,-14,-251,-59,9,53,3
11300,-14,-252,-58,8,52,2
11305,-14,-251,-57,9,53,1
11310,-16,-250,-55,10,54,-1
11315,-13,-251,-58,11,56,-2
11320,-14,-251,-61,12,60,-6
11325,-14,-251,-58,10,63,-7
11330,-17,-250,-58,10,66,-8
11335,-15,-251,-55,10,69,-10
11340,-15,-252,-58,10,70,-11
11345,-15,-250,-57,10,70,-12
11350,-18,-249,-58,11,71,-11
11355,-15,-251,-56,11,71,-10
11360,-17,-248,-58,10,70,-10
11365,-14,-250,-58,9,68,-9
11370,-17,-248,-53,6,67,-7
11375,-15,-249,-57,4,66,-5
11380,-15,-252,-61,6,68,-4
11385,-17,-254,-56,9,69,-2
11390,-16,-252,-56,8,72,-1
11395,-16,-252,-56,9,74,0
11400,-15,-249,-61,9,77,2
11405,-14,-252,-57,10,77,1
11410,-20,-252,-60,11,78,-1
11415,-17,-254,-57,13,78,-4
11420,-14,-250,-61,15,77,-3
11425,-15,-250,-59,16,79,-5
11430,-15,-250,-58,15,81,-6
11435,-15,-250,-58,12,84,-8
11440,-17,-250,-58,11,86,-11
11445,-16,-250,-58,12,88,-11
11450,-13,-252,-59,15,89,-10
11455,-15,-250,-58,17,89,-10
11460,-14,-248,-55,21,89,-10
11465,-16,-248,-57,24,88,-9
11470,-16,-249,-56,24,87,-6
11475,-11,-247,-58,23,85,-5
11480,-17,-248,-55,23,83,-4
11485,-15,-248,-55,19,82,-3
11490,-15,-248,-57,17,80,-2
11495,-12,-249,-60,17,78,-3
11500,-14,-249,-57,16,77,-3
11505,-16,-249,-55,16,77,-3
11510,-16,-249,-56,16,78,-4
11515,-17,-249,-57,14,76,-3
11520,-16,-249,-53,13,78,-6
11525,-14,-251,-59,12,78,-5
11530,-14,-252,-56,10,79,-6
11535,-15,-252,-58,10,79,-6
11540,-15,-252,-55,9,80,-7
11545,-14,-253,-53,8,81,-9
11550,-17,-248,-59,10,80,-8
11555,-16,-250,-57,12,80,-8
11560,-14,-250,-55,12,80,-7
11565,-17,-250,-56,11,79,-7
11570,-15,-250,-55,9,79,-6
11575,-14,-251,-55,8,81,-7
11580,-15,-249,-56,5,84,-7
11585,-20,-249,-53,6,85,-7
11590,-16,-253,-54,3,87,-5
11595,-18,-250,-57,2,89,-5
11600,-17,-251,-52,0,88,-6
11605,-23,-248,-63,1,92,-6
11610,-15,-251,-57,1,91,-6
11615,-14,-249,-52,3,91,-6
11620,-20,-249,-52,1,89,-6
11625,-17,-250,-52,1,89,-5
11630,-18,-247,-55,-4,89,-6
11635,-15,-254,-57,-8,88,-6
11640,-19,-248,-60,-14,88,-3
11645,-19,-256,-57,-17,87,-3
11650,-15,-254,-57,-19,86,-2
11655,-14,-255,-53,-19,84,-1
11660,-18,-254,-59,-18,81,0
11665,-16,-254,-53,-17,77,0
11670,-15,-253,-54,-15,76,-1
11675,-19,-252,-59,-16,74,-2
11680,-20,-250,-53,-18,76,-1
11685,-16,-250,-56,-18,78,-2
11690,-17,-251,-54,-17,78,-3
11695,-15,-250,-56,-17,78,-2
11700,-15,-251,-56,-15,80,-1
11705,-15,-250,-52,-17,82,-1
11710,-17,-251,-54,-17,83,-2
11715,-16,-251,-53,-20,85,-1
11720,-19,-249,-52,-23,84,1
11725,-15,-249,-55,-28,83,1
11730,-16,-249,-53,-31,80,1
11735,-16,-252,-52,-34,80,1
11740,-17,-254,-54,-34,76,0
11745,-17,-249,-54,-32,77,-1
11750,-17,-251,-53,-32,76,-1
11755,-15,-252,-51,-32,75,-3
11760,-17,-253,-54,-32,75,-4
11765,-19,-251,-51,-31,74,-4
11770,-16,-251,-55,-31,75,-4
11775,-13,-250,-53,-30,76,-2
11780,-12,-254,-52,-29,78,-3
11785,-16,-249,-56,-28,75,-2
11790,-13,-249,-57,-28,74,-2
11795,-12,-251,-55,-29,75,-2
11800,-14,-251,-57,-30,73,-4
11805,-16,-252,-56,-35,73,-5
11810,-18,-251,-56,-37,72,-4
11815,-18,-250,-55,-38,73,-4
11820,-24,-249,-42,-35,74,-2
11825,-16,-252,-55,-35,73,-3
11830,-14,-251,-54,-36,74,-4
11835,-17,-250,-56,-40,74,-4
11840,-16,-251,-49,-45,75,-5
11845,-15,-249,-55,-50,75,-6
11850,-15,-249,-54,-53,74,-6
11855,-17,-249,-57,-55,71,-7
11860,-16,-250,-58,-57,71,-7
11865,-16,-249,-57,-59,73,-8
11870,-16,-249,-56,-62,72,-9
11875,-15,-251,-54,-64,70,-9
11880,-15,-252,-55,-67,69,-8
11885,-18,-250,-53,-69,68,-7
11890,-17,-256,-54,-67,68,-5
11895,-13,-253,-55,-66,68,-5
11900,-14,-254,-53,-61,69,-5
11905,-13,-253,-54,-54,68,-4
11910,-14,-255,-56,-49,65,-3
11915,-16,-251,-59,-45,61,-5
11920,-16,-250,-56,-44,59,-6
11925,-16,-250,-61,-46,55,-7
11930,-18,-249,-55,-46,56,-6
11935,-18,-248,-58,-48,58,-6
11940,-20,-248,-60,-49,61,-6
11945,-14,-250,-59,-46,61,-6
11950,-14,-251,-58,-42,61,-6
11955,-15,-250,-61,-39,62,-7
11960,-15,-249,-64,-36,63,-6
11965,-13,-251,-58,-35,64,-5
11970,-17,-249,-59,-36,65,-4
11975,-13,-251,-59,-39,64,-2
11980,-16,-251,-59,-40,62,-3
11985,-16,-254,-57,-40,61,-2
11990,-14,-253,-58,-40,60,-2
11995,-15,-251,-59,-39,62,-4
