timestamp,acc_x,acc_y,acc_z,gyro_x,gyro_y,gyro_z
0,-17,-236,-102,-1,73,-4
5,-14,-235,-101,-1,72,-4
10,-14,-237,-102,-2,74,-2
15,-16,-236,-102,-4,73,-2
20,-13,-237,-100,-2,72,-4
25,-23,-240,-100,-3,73,-4
30,-13,-234,-107,-5,72,-4
35,-16,-235,-103,-6,73,-3
40,-15,-237,-100,-7,72,-4
45,-16,-237,-101,-9,73,-4
50,-15,-235,-102,-9,73,-5
55,-14,-238,-105,-10,69,-5
60,-14,-236,-102,-10,70,-5
65,-15,-236,-100,-9,71,-5
70,-19,-234,-104,-10,72,-6
75,-12,-234,-101,-7,72,-4
80,-15,-238,-101,-8,74,-5
85,-14,-232,-101,-6,74,-2
90,-16,-238,-104,-6,74,-4
95,-14,-236,-102,-5,73,-4
100,-19,-235,-104,-5,74,-4
105,-15,-240,-103,-4,73,0
110,-15,-237,-103,-4,75,-2
115,-12,-238,-101,-4,73,0
120,-15,-238,-101,-4,72,1
125,-13,-237,-99,-4,73,0
130,-16,-237,-99,-4,74,0
135,-14,-237,-101,-2,74,0
140,-15,-238,-103,-3,74,0
145,-15,-238,-101,-3,73,0
150,-18,-235,-101,-2,72,-1
155,-14,-237,-101,-3,71,0
160,-15,-238,-100,-4,71,0
165,-16,-236,-105,-4,71,-2
170,-15,-236,-105,-4,73,-2
175,-14,-235,-101,-4,70,-3
180,-14,-236,-101,-2,70,-3
185,-16,-238,-101,-2,70,-3
190,-14,-237,-99,-1,71,-2
195,-15,-236,-99,-1,70,-2
200,-15,-234,-100,0,71,0
205,-13,-236,-102,0,70,0
210,-16,-234,-101,0,71,-1
215,-16,-238,-97,0,70,0
220,-15,-237,-103,-1,69,0
225,-17,-235,-102,-3,69,2
230,-15,-237,-102,-3,70,2
235,-15,-236,-103,-3,69,-1
240,-14,-236,-99,-2,70,-1
245,-15,-234,-99,-2,69,-1
250,-14,-238,-101,-1,69,-2
255,-14,-236,-102,1,67,-1
260,-18,-238,-100,1,68,-3
265,-14,-235,-103,1,67,-2
270,-16,-238,-103,0,67,-1
275,-13,-237,-102,0,67,-1
280,-14,-240,-102,2,67,-2
285,-15,-239,-103,2,69,-2
290,-13,-235,-101,3,70,-1
295,-15,-236,-106,4,71,-2
300,-14,-239,-101,4,72,-1
305,-15,-237,-102,4,74,0
310,-15,-236,-102,3,74,1
315,-15,-236,-105,3,74,1
320,-17,-239,-104,3,72,-1
325,-15,-237,-102,4,73,-1
330,-14,-239,-103,4,71,-2
335,-15,-238,-104,6,71,-4
340,-18,-234,-98,6,69,-4
345,-13,-236,-101,3,69,-6
350,-17,-237,-103,3,69,-5
355,-16,-235,-102,0,69,-6
360,-16,-234,-102,-3,69,-5
365,-17,-237,-100,-7,71,-6
370,-14,-236,-103,-10,71,-3
375,-17,-234,-103,-10,68,-5
380,-17,-236,-99,-10,68,-4
385,-16,-239,-100,-12,66,-4
390,-16,-238,-107,-9,66,-3
395,-14,-238,-98,-6,64,-4
400,-14,-237,-100,-3,63,-5
405,-12,-237,-102,-1,64,-5
410,-14,-236,-102,1,64,-5
415,-13,-238,-98,1,64,-4
420,-13,-237,-100,1,62,-4
425,-16,-239,-103,2,63,-2
430,-18,-239,-101,3,63,-1
435,-16,-239,-103,3,63,0
440,-16,-241,-100,3,63,-1
445,-16,-237,-99,5,62,0
450,-15,-242,-104,6,62,0
455,-17,-235,-100,4,63,-1
460,-16,-236,-99,3,62,-2
465,-15,-238,-101,1,62,-3
470,-17,-234,-97,-1,62,-3
475,-14,-235,-102,-3,61,-3
480,-11,-238,-98,-4,61,-3
485,-16,-239,-104,-5,64,-3
490,-15,-235,-101,-7,65,-4
495,-15,-234,-100,-7,66,-3
500,-18,-237,-99,-8,67,-2
505,-13,-238,-103,-9,69,-1
510,-16,-235,-102,-8,68,-4
515,-14,-236,-99,-7,69,-4
520,-14,-235,-101,-8,70,-2
525,-14,-239,-100,-8,72,-2
530,-15,-237,-101,-9,72,-3
535,-13,-237,-97,-8,71,-1
540,-14,-237,-105,-8,71,-1
545,-16,-237,-100,-9,71,-1
550,-15,-238,-103,-11,69,0
555,-13,-239,-101,-12,69,-2
560,-16,-238,-97,-14,67,-1
565,-15,-236,-100,-15,67,-1
570,-15,-237,-99,-16,66,-2
575,-17,-236,-103,-18,64,-1
580,-15,-238,-100,-21,65,0
585,-18,-238,-99,-22,65,-3
590,-13,-237,-103,-22,65,-3
595,-16,-237,-102,-23,64,-3
600,-18,-237,-100,-25,63,-3
605,-15,-237,-103,-26,63,-3
610,-17,-235,-102,-24,65,-4
615,-17,-235,-99,-24,65,-5
620,-22,-236,-95,-22,66,-4
625,-14,-237,-102,-21,67,-4
630,-15,-237,-101,-21,67,-3
635,-15,-235,-103,-22,68,-3
640,-16,-235,-103,-24,67,-3
645,-15,-236,-101,-26,67,-2
650,-14,-234,-102,-27,66,0
655,-14,-237,-104,-29,65,-1
660,-11,-237,-99,-32,65,-2
665,-15,-234,-100,-35,66,-2
670,-15,-234,-102,-36,65,-3
675,-14,-237,-101,-37,66,-2
680,-15,-234,-107,-37,65,-2
685,-13,-237,-103,-37,63,-2
690,-13,-239,-101,-35,64,-1
695,-16,-235,-104,-33,63,1
700,-13,-238,-101,-32,62,0
705,-17,-237,-105,-29,62,3
710,-15,-236,-99,-29,64,4
715,-16,-238,-103,-27,64,2
720,-15,-239,-104,-27,64,2
725,-18,-239,-98,-26,64,2
730,-13,-236,-105,-26,66,2
735,-19,-237,-100,-24,66,0
740,-20,-235,-102,-23,65,1
745,-18,-238,-102,-22,66,-2
750,-18,-236,-105,-21,67,-2
755,-17,-236,-100,-20,66,-1
760,-15,-236,-101,-20,65,-1
765,-15,-235,-101,-19,67,0
770,-16,-239,-102,-17,68,0
775,-13,-238,-106,-18,68,1
780,-14,-237,-101,-17,67,-1
785,-15,-234,-105,-17,67,0
790,-15,-237,-102,-17,67,0
795,-14,-237,-101,-17,66,-1
800,-17,-236,-102,-18,67,-2
805,-13,-237,-99,-18,67,-1
810,-15,-237,-100,-18,68,0
815,-13,-239,-102,-18,67,-1
820,-15,-235,-101,-19,67,-1
825,-15,-234,-105,-19,67,0
830,-16,-237,-101,-21,66,-1
835,-15,-236,-102,-21,67,0
840,-15,-237,-101,-22,67,-1
845,-15,-233,-98,-24,68,1
850,-14,-236,-99,-26,69,0
855,-13,-237,-101,-27,67,1
860,-14,-235,-102,-30,69,1
865,-16,-235,-100,-33,70,3
870,-17,-239,-103,-33,70,1
875,-14,-239,-99,-33,70,0
880,-13,-234,-101,-34,70,1
885,-16,-235,-102,-34,72,2
890,-14,-238,-104,-32,74,1
895,-15,-236,-103,-32,74,0
900,-13,-235,-103,-30,74,1
905,-14,-236,-102,-29,73,0
910,-14,-238,-105,-28,73,0
915,-16,-236,-103,-27,72,0
920,-15,-236,-103,-25,72,1
925,-12,-238,-99,-23,71,1
930,-14,-238,-98,-22,70,2
935,-16,-236,-104,-21,71,3
940,-15,-237,-100,-22,71,3
945,-17,-234,-101,-22,69,4
950,-16,-236,-100,-25,70,4
955,-16,-237,-100,-27,71,4
960,-17,-234,-101,-28,71,4
965,-18,-236,-104,-29,71,4
970,-17,-240,-102,-30,71,3
975,-18,-237,-102,-32,74,4
980,-15,-233,-102,-34,76,5
985,-16,-234,-101,-37,76,5
990,-16,-234,-103,-37,76,5
995,-15,-237,-99,-39,76,5
1000,-18,-237,-104,-41,78,5
1005,-19,-236,-103,-44,77,5
1010,-18,-236,-100,-44,78,4
1015,-15,-236,-99,-47,77,4
1020,-16,-238,-105,-48,76,4
1025,-16,-236,-104,-49,75,3
1030,-19,-236,-103,-49,74,2
1035,-16,-237,-103,-48,74,-1
1040,-18,-237,-100,-46,71,-1
1045,-14,-237,-103,-43,69,-1
1050,-15,-237,-100,-40,70,-1
1055,-18,-237,-114,-37,70,-1
1060,-18,-236,-106,-35,69,0
1065,-20,-235,-104,-34,71,1
1070,-19,-236,-102,-34,73,1
1075,-17,-235,-105,-31,72,2
1080,-15,-237,-102,-30,71,3
1085,-16,-235,-102,-30,70,3
1090,-17,-237,-103,-30,70,3
1095,-18,-238,-103,-30,71,2
1100,-19,-236,-104,-31,70,1
1105,-15,-235,-103,-32,71,3
1110,-15,-235,-98,-32,73,1
1115,-17,-238,-103,-34,72,2
1120,-15,-238,-100,-35,73,0
1125,-18,-238,-104,-36,73,0
1130,-14,-240,-105,-37,72,0
1135,-15,-235,-103,-40,72,0
1140,-18,-235,-102,-42,74,-1
1145,-15,-237,-102,-44,75,1
1150,-15,-233,-103,-44,75,1
1155,-15,-234,-103,-44,75,1
1160,-17,-235,-105,-42,74,2
1165,-16,-234,-101,-40,74,2
1170,-18,-235,-103,-39,72,1
1175,-18,-234,-104,-38,68,1
1180,-16,-237,-106,-38,67,-1
1185,-14,-233,-105,-38,66,0
1190,-15,-234,-103,-39,65,-2
1195,-16,-235,-103,-41,64,-4
1200,-15,-235,-100,-44,64,-2
1205,-18,-235,-102,-46,64,-2
1210,-13,-235,-102,-48,63,-2
1215,-13,-236,-102,-51,64,-3
1220,-17,-236,-104,-53,65,-2
1225,-17,-235,-104,-55,66,-3
1230,-15,-237,-104,-55,66,-2
1235,-15,-235,-106,-56,68,-2
1240,-15,-235,-104,-56,67,-4
1245,-14,-237,-106,-56,69,-4
1250,-14,-237,-107,-54,70,-3
1255,-15,-233,-104,-51,70,-2
1260,-12,-238,-108,-50,71,-3
1265,-14,-237,-101,-48,72,-3
1270,-17,-237,-103,-45,72,-2
1275,-14,-237,-104,-43,72,-2
1280,-15,-234,-103,-41,72,-1
1285,-14,-236,-110,-38,71,1
1290,-17,-237,-103,-36,71,0
1295,-16,-234,-106,-35,71,-1
1300,-16,-233,-106,-33,69,1
1305,-17,-236,-108,-33,70,0
1310,-15,-234,-106,-31,73,0
1315,-14,-236,-109,-30,75,-1
1320,-14,-235,-103,-32,78,0
1325,-15,-235,-112,-33,80,-1
1330,-14,-236,-104,-34,81,-2
1335,-14,-239,-104,-36,84,-1
1340,-13,-240,-103,-36,85,-1
1345,-17,-234,-106,-38,83,-1
1350,-17,-235,-105,-37,82,-2
1355,-14,-234,-104,-38,82,-1
1360,-17,-235,-101,-36,79,-1
1365,-16,-235,-103,-37,76,1
1370,-13,-236,-109,-36,76,-1
1375,-18,-236,-105,-34,74,-1
1380,-17,-236,-106,-33,74,-1
1385,-19,-236,-105,-33,75,-2
1390,-16,-237,-104,-33,75,-2
1395,-17,-234,-105,-32,76,-3
1400,-15,-236,-110,-34,76,-2
1405,-18,-235,-106,-37,76,-3
1410,-15,-235,-105,-39,75,-3
1415,-15,-234,-104,-41,74,-5
1420,-15,-235,-105,-43,75,-3
1425,-17,-233,-104,-46,74,-2
1430,-17,-233,-107,-45,75,-3
1435,-15,-233,-106,-47,76,-3
1440,-16,-234,-104,-46,79,-3
1445,-16,-235,-107,-44,78,-3
1450,-18,-236,-103,-43,78,-2
1455,-16,-236,-105,-43,78,-1
1460,-19,-232,-105,-41,77,0
1465,-12,-234,-105,-40,78,-1
1470,-15,-236,-104,-41,77,-2
1475,-14,-234,-104,-42,78,0
1480,-15,-235,-106,-44,75,-1
1485,-16,-235,-105,-45,75,-1
1490,-16,-233,-107,-45,72,-2
1495,-14,-232,-105,-45,70,-2
1500,-14,-238,-107,-42,68,-4
1505,-16,-237,-107,-42,65,-3
1510,-13,-235,-109,-41,64,-4
1515,-17,-235,-107,-39,65,-4
1520,-14,-240,-104,-35,65,-4
1525,-14,-235,-107,-34,64,-4
1530,-15,-238,-107,-32,66,-4
1535,-18,-235,-105,-31,66,-3
1540,-15,-239,-103,-29,66,-5
1545,-17,-236,-107,-28,68,-3
1550,-16,-234,-105,-26,70,-2
1555,-17,-235,-108,-27,71,-2
1560,-14,-234,-109,-27,72,-3
1565,-16,-233,-105,-24,75,-4
1570,-17,-232,-105,-25,76,-3
1575,-16,-235,-111,-25,75,-4
1580,-15,-232,-108,-25,74,-5
1585,-16,-231,-108,-25,75,-4
1590,-17,-234,-106,-25,74,-2
1595,-14,-236,-107,-25,74,-3
1600,-22,-236,-116,-26,72,-2
1605,-17,-229,-107,-24,70,-3
1610,-16,-235,-108,-25,68,-1
1615,-18,-235,-109,-24,67,-2
1620,-18,-234,-109,-24,66,-2
1625,-16,-238,-109,-24,65,-2
1630,-14,-236,-107,-25,65,-3
1635,-14,-236,-107,-24,66,-3
1640,-16,-235,-108,-21,67,-3
1645,-15,-235,-108,-19,67,-4
1650,-18,-235,-106,-16,67,-3
1655,-16,-234,-104,-12,70,-5
1660,-17,-237,-106,-9,68,-3
1665,-14,-235,-104,-6,69,-4
1670,-15,-235,-109,-5,68,-4
1675,-18,-233,-104,-2,71,-4
1680,-16,-235,-106,-1,73,-5
1685,-15,-233,-107,-2,71,-4
1690,-16,-233,-105,-3,70,-3
1695,-15,-232,-107,-6,68,-2
1700,-16,-232,-107,-8,68,-2
1705,-14,-234,-107,-12,69,-3
1710,-14,-226,-110,-15,67,-2
1715,-15,-235,-108,-15,70,-1
1720,-15,-237,-109,-15,70,-1
1725,-14,-235,-108,-15,71,-1
1730,-16,-236,-108,-17,71,-1
1735,-19,-233,-112,-17,71,-2
1740,-16,-236,-111,-17,73,-3
1745,-17,-236,-108,-18,74,-4
1750,-15,-235,-110,-19,76,-5
1755,-16,-232,-113,-24,77,-6
1760,-15,-237,-112,-26,76,-7
1765,-15,-234,-113,-29,77,-8
1770,-15,-237,-115,-33,74,-9
1775,-18,-237,-115,-38,72,-11
1780,-19,-232,-117,-39,66,-11
1785,-16,-236,-117,-39,61,-11
1790,-18,-235,-116,-37,55,-12
1795,-17,-232,-115,-34,49,-13
1800,-20,-230,-114,-29,42,-13
1805,-20,-230,-117,-25,35,-11
1810,-18,-231,-116,-24,29,-12
1815,-19,-232,-118,-26,26,-12
1820,-22,-237,-122,-27,23,-10
1825,-18,-231,-119,-32,20,-10
1830,-16,-233,-118,-38,19,-10
1835,-15,-235,-120,-44,18,-11
1840,-14,-237,-121,-52,18,-11
1845,-14,-236,-123,-59,19,-11
1850,-12,-236,-128,-64,22,-10
1855,-11,-241,-123,-66,23,-12
1860,-12,-239,-124,-66,24,-14
1865,-8,-240,-123,-64,26,-14
1870,-10,-245,-125,-62,27,-18
1875,-7,-244,-129,-57,31,-21
1880,-7,-242,-127,-51,36,-24
1885,-9,-241,-130,-44,41,-30
1890,-8,-241,-134,-40,46,-34
1895,-14,-235,-134,-33,50,-38
1900,-12,-232,-135,-28,53,-42
1905,-11,-230,-140,-23,57,-47
1910,-10,-224,-140,-18,59,-51
1915,-10,-221,-142,-18,64,-57
1920,-9,-217,-148,-25,71,-62
1925,-11,-208,-150,-44,78,-70
1930,-6,-201,-150,-73,85,-76
1935,-10,-195,-148,-110,96,-83
1940,-7,-194,-154,-150,102,-90
1945,-6,-192,-156,-194,108,-95
1950,-3,-194,-158,-237,110,-99
1955,-4,-194,-154,-280,114,-106
1960,-3,-193,-154,-320,118,-112
1965,-1,-193,-159,-356,121,-117
1970,1,-192,-160,-381,126,-122
1975,0,-189,-162,-411,133,-125
1980,0,-190,-164,-444,139,-132
1985,-2,-187,-169,-480,149,-136
1990,-1,-186,-171,-519,156,-139
1995,0,-183,-173,-559,160,-144
2000,-2,-184,-177,-598,162,-147
2005,0,-184,-179,-634,161,-152
2010,0,-184,-174,-664,157,-156
2015,-2,-180,-175,-689,157,-161
2020,-1,-178,-175,-715,157,-167
2025,1,-178,-168,-736,153,-171
2030,2,-173,-168,-752,149,-175
2035,1,-169,-161,-763,141,-178
2040,7,-160,-150,-770,131,-179
2045,5,-163,-151,-773,119,-178
2050,4,-154,-147,-770,108,-177
2055,5,-147,-145,-769,100,-175
2060,5,-144,-136,-767,94,-174
2065,4,-136,-132,-769,88,-173
2070,2,-134,-130,-775,81,-168
2075,6,-126,-120,-786,74,-166
2080,6,-122,-124,-801,67,-164
2085,2,-115,-119,-822,59,-161
2090,1,-112,-116,-847,47,-156
2095,1,-107,-110,-879,37,-154
2100,0,-105,-110,-913,24,-152
2105,-2,-101,-105,-953,9,-148
2110,-1,-99,-107,-992,-6,-145
2115,-4,-96,-106,-1037,-24,-144
2120,-7,-93,-110,-1080,-39,-146
2125,-8,-90,-113,-1123,-53,-149
2130,-4,-91,-117,-1164,-64,-152
2135,-6,-90,-121,-1199,-70,-159
2140,-1,-91,-121,-1233,-77,-166
2145,0,-97,-121,-1265,-82,-174
2150,0,-88,-126,-1301,-82,-183
2155,0,-82,-129,-1340,-78,-191
2160,1,-87,-132,-1390,-68,-196
2165,-1,-80,-136,-1444,-54,-203
2170,0,-81,-145,-1505,-35,-208
2175,-4,-80,-149,-1573,-15,-214
2180,-1,-79,-154,-1649,9,-218
2185,-2,-83,-157,-1728,30,-222
2190,-2,-91,-160,-1808,47,-225
2195,-3,-96,-163,-1877,58,-225
2200,-8,-103,-161,-1934,62,-222
2205,-12,-109,-160,-1977,59,-215
2210,-19,-119,-161,-2011,50,-205
2215,-20,-126,-159,-2033,34,-186
2220,-21,-135,-162,-2056,13,-163
2225,-21,-140,-160,-2067,-3,-140
2230,-21,-145,-160,-2065,-20,-116
2235,-13,-152,-158,-2051,-34,-99
2240,-9,-162,-162,-2030,-53,-83
2245,-1,-162,-167,-2004,-80,-64
2250,1,-169,-174,-1974,-115,-48
2255,4,-176,-176,-1936,-157,-26
2260,3,-173,-175,-1881,-207,-5
2265,3,-170,-176,-1815,-265,12
2270,-4,-170,-180,-1742,-336,16
2275,-20,-167,-177,-1672,-417,13
2280,-33,-171,-177,-1606,-500,6
2285,-51,-172,-173,-1552,-570,-6
2290,-71,-174,-173,-1520,-625,-20
2295,-85,-172,-170,-1514,-657,-30
2300,-91,-175,-171,-1530,-663,-47
2305,-94,-179,-174,-1559,-644,-67
2310,-82,-187,-180,-1595,-595,-90
2315,-75,-196,-186,-1627,-515,-126
2320,-60,-202,-195,-1637,-406,-172
2325,-47,-209,-209,-1621,-271,-218
2330,-32,-214,-217,-1586,-121,-262
2335,-15,-218,-224,-1521,25,-289
2340,0,-228,-233,-1424,158,-301
2345,12,-242,-238,-1296,270,-297
2350,26,-248,-245,-1138,355,-286
2355,38,-253,-250,-963,397,-273
2360,53,-269,-250,-792,393,-262
2365,60,-259,-254,-628,347,-260
2370,64,-247,-262,-464,264,-252
2375,63,-236,-263,-305,163,-239
2380,60,-225,-256,-161,56,-220
2385,37,-209,-251,-27,-45,-205
2390,15,-196,-243,94,-139,-196
2395,-3,-183,-229,197,-224,-195
2400,-25,-174,-216,276,-300,-200
2405,-40,-158,-208,331,-356,-208
2410,-53,-144,-208,357,-393,-212
2415,-64,-135,-207,356,-409,-208
2420,-71,-120,-213,330,-409,-192
2425,-70,-118,-220,293,-392,-161
2430,-71,-116,-229,258,-364,-126
2435,-64,-121,-241,232,-330,-85
2440,-54,-136,-256,215,-293,-49
2445,-40,-153,-266,204,-250,-24
2450,-19,-174,-275,198,-207,-6
2455,-1,-199,-287,195,-152,4
2460,8,-223,-294,195,-91,3
2465,10,-248,-302,206,-36,-3
2470,23,-265,-305,231,14,-20
2475,29,-280,-304,279,45,-42
2480,30,-288,-302,355,79,-60
2485,32,-298,-305,460,105,-67
2490,26,-301,-304,583,130,-68
2495,21,-299,-298,713,149,-56
2500,6,-292,-293,838,158,-36
2505,0,-282,-285,946,160,-10
2510,-8,-271,-281,1038,161,18
2515,-21,-264,-273,1099,155,39
2520,-25,-248,-268,1134,149,49
2525,-34,-246,-259,1147,136,79
2530,-34,-237,-248,1156,128,82
2535,-33,-245,-240,1167,113,96
2540,-38,-246,-230,1181,109,99
2545,-34,-259,-218,1203,102,80
2550,-32,-302,-206,1255,91,64
2555,-33,-304,-223,1311,74,20
2560,-29,-294,-262,1320,58,-65
2565,-14,-279,-279,1268,44,-159
2570,-18,-244,-317,1220,51,-229
2575,-2,-175,-314,1205,73,-284
2580,2,-116,-324,1251,67,-259
2585,5,-73,-329,1325,52,-220
2590,1,-59,-335,1366,48,-176
2595,0,-51,-322,1340,53,-134
2600,-2,-68,-308,1280,86,-65
2605,-5,-94,-278,1244,125,-4
2610,0,-129,-252,1241,151,19
2615,1,-155,-225,1277,160,25
2620,4,-183,-207,1358,157,25
2625,3,-212,-189,1474,147,27
2630,4,-230,-176,1599,131,27
2635,2,-241,-169,1712,114,30
2640,0,-244,-165,1808,99,35
2645,-1,-246,-160,1885,93,40
2650,-3,-246,-156,1946,89,41
2655,-5,-246,-154,2000,87,36
2660,-9,-248,-151,2047,87,24
2665,-12,-241,-149,2081,91,6
2670,-13,-234,-143,2091,104,-9
2675,-9,-226,-135,2072,120,-24
2680,-14,-218,-126,2017,133,-36
2685,-8,-207,-123,1925,142,-49
2690,-9,-196,-117,1807,151,-58
2695,-7,-189,-112,1699,163,-61
2700,-8,-183,-109,1565,175,-55
2705,-4,-184,-102,1453,188,-45
2710,-9,-178,-94,1374,196,-32
2715,-11,-180,-89,1327,202,-15
2720,-10,-182,-84,1308,199,-5
2725,-16,-188,-76,1306,191,6
2730,-15,-193,-75,1306,174,11
2735,-17,-204,-69,1297,152,14
2740,-17,-213,-71,1268,131,13
2745,-20,-216,-80,1217,111,12
2750,-18,-221,-80,1146,97,12
2755,-23,-221,-85,1065,84,11
2760,-22,-223,-96,977,70,12
2765,-26,-225,-98,888,60,13
2770,-30,-222,-105,804,50,16
2775,-28,-221,-109,735,41,17
2780,-33,-222,-117,681,32,23
2785,-26,-226,-118,648,22,28
2790,-24,-224,-118,631,15,32
2795,-24,-229,-129,625,8,34
2800,-26,-229,-128,632,5,36
2805,-26,-230,-132,642,4,42
2810,-24,-232,-128,657,8,52
2815,-20,-235,-125,677,9,59
2820,-21,-235,-124,706,9,62
2825,-18,-237,-120,741,11,65
2830,-15,-240,-121,777,9,64
2835,-14,-241,-114,809,3,66
2840,-17,-235,-116,831,-2,66
2845,-14,-234,-112,848,-5,61
2850,-13,-229,-110,854,-5,55
2855,-10,-231,-110,848,0,47
2860,-9,-225,-101,833,9,39
2865,-5,-221,-99,809,20,28
2870,-8,-221,-97,784,33,16
2875,-8,-219,-88,757,45,2
2880,-7,-221,-86,730,56,-8
2885,-6,-218,-83,697,64,-15
2890,-9,-219,-83,659,69,-18
2895,-5,-219,-82,621,72,-19
2900,-11,-228,-84,584,73,-21
2905,-9,-222,-81,552,72,-22
2910,-10,-225,-81,524,70,-22
2915,-12,-227,-83,503,68,-23
2920,-10,-228,-83,485,65,-21
2925,-14,-233,-81,470,62,-16
2930,-14,-234,-83,457,58,-15
2935,-15,-240,-81,443,59,-11
2940,-11,-238,-82,430,60,-4
2945,-14,-240,-83,415,65,1
2950,-15,-239,-83,395,69,5
2955,-14,-239,-85,378,71,8
2960,-14,-235,-89,364,68,11
2965,-12,-234,-89,352,66,12
2970,-11,-235,-89,344,62,11
2975,-14,-236,-86,340,58,11
2980,-14,-234,-85,337,53,10
2985,-14,-236,-87,333,48,11
2990,-11,-233,-89,327,44,12
2995,-9,-232,-89,321,40,12
3000,-12,-234,-89,312,40,13
3005,-3,-230,-90,300,41,14
3010,-10,-235,-89,287,41,15
3015,-8,-237,-88,273,40,18
3020,-10,-237,-85,255,39,20
3025,-8,-235,-85,242,37,23
3030,-10,-233,-85,228,35,28
3035,-9,-235,-84,218,32,32
3040,-11,-236,-85,208,32,35
3045,-11,-235,-84,200,31,39
3050,-8,-239,-78,191,30,41
3055,-10,-239,-78,181,27,42
3060,-9,-236,-79,167,23,43
3065,-9,-237,-80,146,17,41
3070,-9,-236,-80,116,7,38
3075,-8,-234,-85,82,-2,38
3080,-10,-232,-89,50,-9,35
3085,-13,-233,-91,23,-13,33
3090,-10,-236,-90,2,-11,28
3095,-7,-235,-91,-9,-6,23
3100,-14,-240,-91,-9,1,18
3105,-9,-244,-88,-1,12,13
3110,-10,-247,-89,14,21,10
3115,-9,-245,-97,30,31,10
3120,-14,-245,-87,47,41,8
3125,-12,-243,-85,62,51,8
3130,-15,-244,-87,72,58,7
3135,-16,-247,-84,82,63,9
3140,-15,-246,-80,86,68,11
3145,-17,-245,-85,87,70,11
3150,-16,-245,-83,88,75,12
3155,-18,-244,-83,83,75,13
3160,-18,-244,-86,76,78,15
3165,-19,-243,-84,67,81,14
3170,-20,-244,-86,60,82,13
3175,-21,-241,-85,51,84,13
3180,-21,-240,-87,43,85,13
3185,-20,-236,-87,36,88,13
3190,-22,-240,-84,31,89,11
3195,-24,-239,-86,27,93,9
3200,-22,-240,-86,23,94,8
3205,-20,-239,-86,20,97,8
3210,-19,-242,-85,15,100,8
3215,-19,-242,-85,9,103,8
3220,-18,-243,-86,5,106,8
3225,-17,-244,-82,-2,108,7
3230,-20,-243,-87,-8,109,9
3235,-17,-245,-85,-14,109,8
3240,-14,-246,-86,-21,110,7
3245,-16,-247,-84,-28,111,5
3250,-19,-244,-88,-34,109,4
3255,-17,-246,-87,-38,108,2
3260,-16,-247,-88,-40,108,1
3265,-17,-246,-86,-38,108,0
3270,-18,-246,-84,-36,110,-3
3275,-16,-245,-88,-32,111,-4
3280,-13,-245,-82,-28,110,-3
3285,-13,-244,-85,-24,110,-3
3290,-12,-245,-85,-23,109,-2
3295,-16,-242,-86,-21,108,-3
3300,-17,-241,-85,-22,109,-1
3305,-19,-240,-84,-24,106,0
3310,-17,-241,-85,-28,105,2
3315,-16,-241,-86,-35,99,2
3320,-13,-240,-89,-42,95,2
3325,-16,-240,-86,-51,92,0
3330,-16,-241,-83,-61,87,0
3335,-16,-238,-87,-74,82,-2
3340,-13,-243,-87,-86,78,-5
3345,-18,-240,-83,-96,74,-6
3350,-17,-242,-88,-102,69,-9
3355,-16,-240,-89,-105,66,-10
3360,-14,-244,-87,-108,60,-13
3365,-17,-240,-89,-110,56,-14
3370,-17,-241,-88,-111,53,-16
3375,-16,-242,-92,-110,50,-17
3380,-16,-240,-90,-108,50,-18
3385,-13,-240,-93,-108,50,-20
3390,-18,-238,-90,-106,52,-20
3395,-16,-240,-87,-106,54,-20
3400,-12,-243,-89,-106,54,-19
3405,-15,-239,-90,-106,57,-18
3410,-17,-238,-91,-108,57,-17
3415,-17,-238,-88,-108,60,-15
3420,-13,-238,-93,-109,62,-13
3425,-18,-239,-91,-110,66,-10
3430,-15,-242,-88,-111,69,-12
3435,-13,-240,-88,-113,73,-11
3440,-15,-240,-90,-115,76,-11
3445,-17,-239,-91,-118,79,-11
3450,-17,-241,-87,-121,80,-12
3455,-13,-240,-91,-125,80,-14
3460,-16,-239,-88,-131,80,-14
3465,-14,-237,-91,-138,77,-14
3470,-15,-237,-93,-146,77,-16
3475,-14,-239,-92,-153,74,-18
3480,-19,-236,-88,-163,73,-18
3485,-13,-237,-92,-173,71,-16
3490,-10,-240,-90,-185,69,-14
3495,-14,-238,-92,-195,70,-12
3500,-15,-238,-90,-203,71,-10
3505,-11,-242,-97,-209,72,-8
3510,-13,-244,-90,-210,74,-7
3515,-10,-243,-92,-208,75,-6
3520,-16,-245,-91,-202,77,-5
3525,-14,-245,-94,-191,78,-5
3530,-15,-245,-95,-179,80,-5
3535,-14,-241,-94,-165,79,-3
3540,-12,-245,-90,-152,81,-3
3545,-13,-242,-95,-139,84,-4
3550,-17,-233,-99,-126,83,-7
3555,-12,-243,-92,-113,85,-8
3560,-16,-243,-96,-104,87,-8
3565,-10,-243,-95,-94,88,-8
3570,-16,-239,-92,-85,90,-8
3575,-13,-243,-96,-79,91,-10
3580,-14,-244,-97,-73,91,-10
3585,-15,-245,-95,-67,91,-10
3590,-17,-242,-95,-64,92,-10
3595,-14,-244,-97,-59,92,-7
3600,-16,-241,-94,-57,93,-7
3605,-14,-243,-96,-56,94,-6
3610,-17,-244,-95,-58,93,-2
3615,-15,-241,-94,-58,94,1
3620,-14,-244,-94,-60,94,3
3625,-17,-242,-93,-62,93,8
3630,-17,-243,-94,-63,92,10
3635,-15,-242,-94,-65,92,12
3640,-16,-242,-95,-65,91,14
3645,-14,-244,-94,-65,91,14
3650,-13,-247,-95,-62,90,16
3655,-16,-241,-92,-57,87,16
3660,-17,-248,-92,-52,86,15
3665,-16,-242,-95,-47,86,14
3670,-14,-245,-93,-42,85,13
3675,-18,-241,-92,-35,82,13
3680,-17,-240,-93,-32,78,13
3685,-16,-241,-95,-30,75,13
3690,-15,-238,-94,-28,74,14
3695,-20,-238,-96,-27,73,15
3700,-16,-239,-97,-29,72,16
3705,-15,-237,-96,-34,72,17
3710,-16,-237,-95,-36,70,18
3715,-15,-236,-98,-42,68,18
3720,-16,-236,-95,-48,66,18
3725,-17,-236,-95,-53,62,19
3730,-13,-236,-100,-58,61,20
3735,-15,-235,-97,-63,60,19
3740,-15,-235,-98,-68,59,17
3745,-16,-235,-98,-72,59,15
3750,-15,-233,-98,-76,58,16
3755,-13,-239,-98,-80,56,15
3760,-17,-233,-97,-85,57,15
3765,-15,-237,-99,-87,59,14
3770,-14,-239,-99,-90,61,13
3775,-13,-237,-99,-94,62,14
3780,-13,-236,-97,-96,65,13
3785,-12,-236,-102,-97,66,11
3790,-13,-235,-102,-98,66,10
3795,-16,-239,-100,-100,66,10
3800,-13,-236,-104,-101,69,8
3805,-12,-236,-102,-102,69,8
3810,-14,-238,-96,-104,69,7
3815,-13,-236,-101,-108,69,5
3820,-14,-236,-100,-110,70,4
3825,-13,-233,-102,-113,71,2
3830,-14,-233,-103,-115,71,1
3835,-14,-235,-100,-118,74,-2
3840,-12,-234,-102,-122,74,-3
3845,-16,-239,-106,-126,75,-6
3850,-13,-236,-101,-129,76,-10
3855,-16,-235,-101,-132,75,-10
3860,-15,-238,-101,-134,76,-10
3865,-17,-237,-102,-135,75,-13
3870,-16,-235,-103,-135,74,-13
3875,-17,-236,-103,-135,72,-14
3880,-14,-239,-106,-135,73,-13
3885,-15,-237,-105,-136,73,-13
3890,-15,-237,-109,-133,73,-11
3895,-17,-237,-103,-131,73,-12
3900,-17,-237,-106,-128,73,-12
3905,-17,-238,-105,-124,73,-10
3910,-18,-236,-103,-121,75,-9
3915,-18,-236,-108,-117,75,-8
3920,-15,-238,-106,-113,77,-8
3925,-16,-236,-105,-109,81,-8
3930,-17,-234,-104,-105,82,-9
3935,-16,-238,-107,-103,83,-10
3940,-17,-235,-104,-101,84,-11
3945,-19,-237,-104,-100,85,-11
3950,-17,-235,-107,-99,87,-12
3955,-15,-236,-104,-98,88,-13
3960,-13,-238,-105,-98,87,-10
3965,-17,-235,-103,-97,87,-12
3970,-16,-237,-100,-96,88,-12
3975,-14,-237,-104,-97,89,-11
3980,-13,-233,-103,-97,85,-9
3985,-14,-236,-102,-99,85,-8
3990,-13,-242,-104,-98,84,-8
3995,-15,-239,-103,-98,83,-7
4000,-13,-239,-104,-99,81,-6
4005,-16,-237,-100,-100,81,-6
4010,-15,-236,-108,-100,79,-4
4015,-14,-237,-106,-100,78,-2
4020,-15,-238,-106,-100,76,-3
4025,-15,-234,-102,-100,75,-1
4030,-16,-236,-108,-100,74,-2
4035,-12,-237,-106,-100,73,-1
4040,-16,-236,-105,-99,72,0
4045,-13,-235,-107,-95,72,0
4050,-14,-237,-105,-94,73,0
4055,-14,-237,-106,-92,73,1
4060,-13,-235,-104,-88,73,1
4065,-16,-239,-107,-85,73,1
4070,-13,-235,-104,-83,72,-1
4075,-14,-235,-110,-81,74,-2
4080,-11,-236,-107,-79,75,-1
4085,-12,-236,-106,-77,74,-2
4090,-14,-235,-104,-78,75,-1
4095,-13,-235,-106,-76,76,-1
4100,-11,-236,-106,-78,77,-3
4105,-13,-234,-106,-78,77,-3
4110,-14,-237,-107,-78,77,-5
4115,-13,-237,-109,-76,75,-4
4120,-15,-237,-106,-75,74,-4
4125,-16,-235,-111,-71,75,-3
4130,-15,-234,-108,-68,73,-4
4135,-15,-235,-109,-66,70,-4
4140,-11,-235,-107,-63,68,-2
4145,-15,-236,-111,-61,66,0
4150,-15,-234,-112,-59,65,1
4155,-14,-235,-112,-56,65,1
4160,-15,-233,-113,-54,64,3
4165,-14,-232,-109,-53,64,4
4170,-13,-233,-111,-50,65,6
4175,-12,-235,-110,-48,64,5
4180,-12,-235,-110,-46,64,4
4185,-14,-235,-111,-45,63,3
4190,-13,-234,-109,-44,62,0
4195,-13,-236,-110,-43,61,-2
4200,-11,-238,-109,-43,61,-3
4205,-19,-232,-113,-42,62,-4
4210,-16,-236,-108,-41,64,-5
4215,-17,-237,-110,-36,64,-7
4220,-16,-236,-111,-31,64,-7
4225,-13,-235,-108,-24,63,-5
4230,-16,-232,-108,-18,63,-5
4235,-16,-234,-110,-13,64,-3
4240,-11,-234,-110,-7,66,-1
4245,-11,-233,-111,-5,66,0
4250,-16,-231,-110,-5,67,3
4255,-14,-234,-107,-5,65,3
4260,-15,-231,-107,-5,68,5
4265,-14,-233,-108,-5,69,5
4270,-16,-231,-105,-6,68,3
4275,-14,-234,-110,-7,68,0
4280,-16,-235,-106,-6,68,1
4285,-14,-234,-109,-6,67,0
4290,-15,-235,-108,-5,66,-2
4295,-16,-234,-111,-5,64,-1
4300,-18,-231,-104,-4,64,-3
4305,-19,-233,-109,-3,63,-4
4310,-14,-237,-110,-3,61,-3
4315,-17,-232,-114,-3,59,-3
4320,-16,-234,-107,-2,58,-4
4325,-18,-233,-107,-2,57,-3
4330,-18,-234,-112,-3,58,-2
4335,-16,-233,-109,-3,59,-1
4340,-15,-237,-107,-2,62,0
4345,-15,-235,-107,-2,63,0
4350,-15,-234,-105,-3,66,2
4355,-14,-235,-111,-4,68,3
4360,-14,-233,-109,-4,69,2
4365,-13,-232,-105,-3,73,2
4370,-14,-231,-108,0,73,0
4375,-13,-232,-106,1,75,-1
4380,-12,-234,-109,2,76,-3
4385,-13,-233,-107,3,79,-4
4390,-13,-234,-108,2,79,-6
4395,-13,-235,-109,4,78,-10
4400,-13,-232,-106,5,78,-10
4405,-14,-236,-110,3,79,-10
4410,-15,-233,-108,4,77,-9
4415,-17,-232,-109,2,77,-9
4420,-16,-238,-107,0,76,-8
4425,-13,-232,-108,-2,73,-7
4430,-12,-235,-108,-4,71,-7
4435,-14,-233,-109,-5,69,-5
4440,-13,-237,-111,-6,69,-4
4445,-17,-232,-109,-6,68,-2
4450,-15,-234,-110,-7,68,-2
4455,-16,-233,-110,-8,68,0
4460,-16,-235,-108,-7,68,1
4465,-14,-235,-111,-6,68,-1
4470,-17,-233,-110,-5,69,1
4475,-14,-238,-112,-5,70,0
4480,-14,-234,-107,-2,70,0
4485,-14,-232,-110,-1,71,0
4490,-17,-236,-106,1,72,0
4495,-17,-237,-107,3,72,0
4500,-16,-234,-109,6,72,0
4505,-15,-237,-110,7,73,1
4510,-17,-231,-109,7,74,0
4515,-16,-233,-108,7,72,-1
4520,-14,-234,-104,6,72,-2
4525,-15,-234,-109,5,71,-3
4530,-17,-234,-108,4,69,-4
4535,-13,-238,-110,4,66,-5
4540,-14,-234,-106,1,66,-7
4545,-16,-235,-105,-1,67,-8
4550,-16,-235,-107,-2,67,-9
4555,-13,-239,-105,0,65,-12
4560,-15,-236,-105,1,64,-14
4565,-14,-236,-110,3,63,-14
4570,-13,-236,-107,5,64,-15
4575,-15,-235,-105,11,64,-14
4580,-17,-235,-110,13,63,-14
4585,-14,-236,-106,17,62,-13
4590,-14,-233,-107,19,62,-13
4595,-18,-235,-108,19,63,-10
4600,-15,-232,-109,18,62,-11
4605,-16,-233,-107,18,62,-8
4610,-18,-233,-105,15,63,-9
4615,-17,-235,-110,11,65,-9
4620,-18,-232,-107,10,64,-7
4625,-14,-234,-110,10,66,-6
4630,-15,-234,-108,8,67,-7
4635,-17,-233,-103,6,67,-7
4640,-15,-232,-109,5,68,-8
4645,-16,-234,-106,5,69,-7
4650,-16,-234,-103,6,69,-8
4655,-18,-236,-105,7,69,-7
4660,-16,-233,-107,7,68,-7
4665,-14,-235,-108,7,68,-7
4670,-15,-234,-109,9,68,-7
4675,-13,-237,-106,9,69,-6
4680,-14,-235,-108,9,70,-6
4685,-15,-234,-103,8,71,-7
4690,-11,-238,-101,7,70,-8
4695,-12,-235,-108,6,71,-9
4700,-11,-234,-104,6,70,-10
4705,-14,-235,-104,7,70,-12
4710,-15,-235,-107,6,69,-12
4715,-10,-236,-106,7,68,-12
4720,-12,-236,-108,6,68,-13
4725,-13,-235,-106,7,69,-13
4730,-13,-236,-105,6,67,-14
4735,-13,-234,-108,6,68,-13
4740,-15,-236,-106,6,68,-13
4745,-16,-236,-109,4,69,-13
4750,-16,-236,-106,4,69,-12
4755,-16,-232,-104,3,70,-12
4760,-16,-235,-102,2,68,-12
4765,-13,-239,-107,0,68,-13
4770,-14,-236,-106,-4,69,-13
4775,-13,-233,-106,-7,69,-12
4780,-15,-234,-99,-10,70,-12
4785,-15,-233,-104,-13,71,-9
4790,-13,-232,-104,-17,73,-7
4795,-16,-232,-107,-20,75,-7
4800,-15,-233,-101,-24,74,-6
4805,-16,-233,-100,-27,75,-4
4810,-14,-232,-102,-29,77,-3
4815,-13,-234,-104,-30,77,-2
4820,-13,-233,-106,-32,78,-1
4825,-15,-235,-102,-32,79,0
4830,-11,-238,-99,-33,81,1
4835,-15,-237,-102,-33,80,1
4840,-16,-234,-102,-33,79,2
4845,-11,-237,-102,-32,77,4
4850,-14,-238,-102,-30,76,2
4855,-13,-236,-109,-27,74,3
4860,-13,-236,-106,-25,73,3
4865,-13,-236,-104,-23,71,4
4870,-12,-236,-106,-18,68,3
4875,-14,-236,-105,-18,66,3
4880,-14,-240,-109,-17,63,3
4885,-13,-237,-108,-16,61,4
4890,-12,-239,-107,-18,59,4
4895,-15,-237,-105,-20,58,3
4900,-16,-235,-106,-23,60,2
4905,-15,-233,-105,-23,60,2
4910,-18,-232,-108,-23,61,2
4915,-9,-240,-106,-25,61,1
4920,-17,-236,-105,-24,63,-2
4925,-17,-230,-106,-23,64,-3
4930,-13,-232,-110,-22,66,-2
4935,-14,-238,-108,-23,67,-3
4940,-15,-245,-114,-22,69,-3
4945,-18,-230,-113,-22,69,-5
4950,-28,-229,-93,-24,71,-6
4955,-16,-232,-110,-25,71,-7
4960,-21,-230,-111,-26,70,-7
4965,-17,-232,-108,-24,72,-8
4970,-13,-234,-106,-23,71,-8
4975,-15,-236,-104,-19,70,-10
4980,-17,-233,-107,-15,69,-10
4985,-15,-236,-108,-11,69,-10
4990,-6,-236,-102,-8,69,-10
4995,-13,-238,-109,-5,68,-9
5000,-6,-245,-112,-3,67,-8
5005,-18,-232,-112,-2,65,-7
5010,-11,-231,-106,-1,65,-7
5015,-15,-240,-111,2,65,-5
5020,-17,-234,-116,4,65,-3
5025,-12,-234,-105,8,64,-3
5030,-20,-231,-110,12,64,-2
5035,-17,-241,-111,15,62,1
5040,-21,-234,-103,17,63,2
5045,-15,-235,-121,19,62,1
5050,-16,-237,-105,20,63,1
5055,-15,-233,-103,19,65,1
5060,-16,-233,-101,18,65,-1
5065,-14,-233,-103,17,65,-2
5070,-17,-230,-97,13,66,-3
5075,-15,-241,-98,9,66,-4
5080,-20,-227,-97,6,66,-6
5085,-8,-238,-115,3,66,-9
5090,-12,-231,-108,2,67,-10
5095,-22,-231,-109,0,67,-10
5100,-5,-230,-109,-3,67,-12
5105,-12,-237,-113,-5,68,-12
5110,-26,-234,-102,-6,67,-13
5115,-1,-242,-94,-6,67,-15
5120,-19,-238,-103,-6,66,-14
5125,-18,-238,-108,-7,65,-14
5130,-16,-236,-108,-6,64,-14
5135,-16,-235,-104,-5,63,-14
5140,-14,-233,-105,-4,62,-14
5145,-16,-229,-105,-3,61,-13
5150,-8,-236,-109,-1,61,-12
5155,-16,-230,-103,0,62,-12
5160,-18,-237,-117,2,61,-11
5165,-15,-233,-107,2,61,-11
5170,-19,-231,-103,3,62,-11
5175,-13,-235,-115,5,63,-9
5180,-15,-232,-107,7,63,-9
5185,-13,-237,-107,11,62,-10
5190,-14,-239,-105,13,66,-9
5195,-16,-234,-107,17,66,-9
5200,-13,-227,-106,20,67,-9
5205,-14,-234,-110,22,68,-9
5210,-16,-237,-107,26,69,-9
5215,-14,-237,-110,27,69,-9
5220,-13,-236,-106,28,70,-9
5225,-19,-231,-101,29,71,-11
5230,-20,-229,-115,30,72,-11
5235,-15,-234,-110,30,72,-12
5240,-17,-237,-109,30,70,-12
5245,-12,-235,-98,31,71,-11
5250,-12,-231,-102,29,70,-10
5255,-12,-231,-100,27,71,-13
5260,-19,-250,-105,26,70,-13
5265,-13,-240,-117,25,70,-12
5270,-12,-242,-92,23,68,-12
5275,-11,-237,-107,21,68,-11
5280,-18,-241,-103,19,69,-11
5285,-12,-233,-106,19,69,-9
5290,-15,-234,-105,19,69,-10
5295,-15,-237,-102,19,69,-10
5300,-13,-236,-103,19,67,-8
5305,-19,-235,-102,19,67,-10
5310,-13,-236,-98,20,68,-9
5315,-13,-231,-99,23,68,-9
5320,-14,-242,-108,22,70,-8
5325,-6,-235,-102,21,70,-7
5330,-15,-234,-107,18,71,-8
5335,-16,-233,-108,17,71,-8
5340,-15,-232,-92,14,73,-8
5345,-9,-235,-102,12,75,-8
5350,-11,-234,-101,9,75,-8
5355,-14,-234,-106,8,75,-8
5360,-12,-234,-105,6,76,-8
5365,-15,-232,-101,4,76,-9
5370,-11,-235,-102,2,75,-10
5375,-12,-235,-105,2,74,-11
5380,-12,-239,-107,3,75,-11
5385,-15,-239,-103,5,74,-10
5390,-12,-241,-98,8,74,-11
5395,-16,-231,-101,13,72,-12
5400,-12,-237,-103,16,72,-13
5405,-15,-238,-100,20,71,-12
5410,-13,-239,-101,22,69,-12
5415,-14,-237,-101,23,68,-13
5420,-19,-232,-97,23,67,-12
5425,-17,-236,-103,22,68,-10
5430,-16,-235,-103,20,68,-9
5435,-12,-237,-99,17,69,-9
5440,-16,-238,-102,14,68,-9
5445,-23,-247,-98,10,68,-10
5450,-13,-233,-101,8,70,-8
5455,-11,-237,-102,5,68,-8
5460,-14,-238,-102,4,68,-8
5465,-15,-237,-104,4,68,-7
5470,-23,-237,-96,5,69,-7
5475,-15,-234,-102,5,69,-6
5480,-14,-235,-99,8,68,-7
5485,-15,-238,-102,11,68,-8
5490,-12,-233,-110,15,68,-8
5495,-13,-237,-105,18,69,-9
5500,-12,-239,-105,21,70,-8
5505,-12,-237,-98,22,71,-7
5510,-13,-236,-103,23,71,-5
5515,-19,-239,-106,24,73,-6
5520,-12,-237,-101,21,73,-7
5525,-13,-241,-100,19,74,-7
5530,-15,-235,-100,17,73,-8
5535,-14,-237,-100,14,75,-10
5540,-15,-237,-102,11,73,-11
5545,-15,-235,-101,11,72,-10
5550,-13,-238,-100,10,72,-10
5555,-13,-238,-100,11,72,-9
5560,-14,-233,-101,11,71,-8
5565,-14,-238,-101,11,71,-7
5570,-14,-237,-99,11,70,-5
5575,-13,-240,-100,8,69,-5
5580,-11,-238,-103,9,69,-4
5585,-14,-236,-99,7,67,-2
5590,-12,-238,-102,6,63,-2
5595,-12,-238,-102,4,64,-3
5600,-13,-236,-99,2,62,-2
5605,-14,-237,-103,-2,62,-3
5610,-14,-237,-103,-5,63,-3
5615,-15,-236,-101,-7,64,-2
5620,-19,-239,-106,-9,65,-3
5625,-17,-235,-99,-10,67,-4
5630,-16,-240,-97,-10,67,-4
5635,-14,-235,-100,-11,67,-4
5640,-17,-236,-100,-12,71,-5
5645,-14,-236,-102,-13,71,-5
5650,-17,-235,-100,-16,72,-6
5655,-16,-234,-102,-20,73,-6
5660,-14,-236,-98,-24,73,-6
5665,-11,-239,-102,-29,75,-4
5670,-14,-236,-101,-33,75,-4
5675,-13,-237,-102,-35,76,-5
5680,-16,-237,-101,-35,76,-6
5685,-12,-237,-102,-37,75,-6
5690,-17,-238,-101,-37,74,-8
5695,-10,-237,-100,-35,73,-10
5700,-11,-239,-103,-34,71,-11
5705,-14,-236,-100,-34,70,-12
5710,-14,-236,-98,-33,70,-12
5715,-12,-237,-99,-32,69,-12
5720,-13,-239,-99,-34,72,-11
5725,-16,-236,-100,-34,73,-10
5730,-15,-243,-102,-34,74,-9
5735,-13,-239,-102,-34,74,-6
5740,-16,-239,-99,-35,75,-3
5745,-16,-239,-100,-35,76,-3
5750,-14,-238,-99,-37,76,0
5755,-12,-237,-100,-39,75,1
5760,-16,-237,-99,-40,75,2
5765,-14,-239,-96,-43,75,1
5770,-15,-235,-101,-50,74,-1
5775,-12,-239,-101,-55,73,-4
5780,-11,-236,-95,-60,71,-6
5785,-13,-238,-95,-66,73,-9
5790,-11,-238,-99,-73,74,-12
5795,-14,-234,-96,-80,76,-17
5800,-14,-232,-95,-93,76,-23
5805,-13,-236,-95,-110,78,-29
5810,-11,-235,-94,-125,79,-34
5815,-11,-236,-93,-145,79,-41
5820,-12,-235,-96,-166,84,-45
5825,-12,-234,-93,-185,90,-48
5830,-16,-233,-97,-203,97,-52
5835,-15,-233,-91,-218,108,-52
5840,-17,-234,-96,-230,122,-49
5845,-20,-227,-96,-239,137,-45
5850,-16,-226,-98,-250,151,-39
5855,-17,-229,-96,-259,163,-30
5860,-13,-233,-94,-272,172,-22
5865,-15,-229,-96,-285,180,-12
5870,-13,-232,-97,-297,187,-2
5875,-13,-232,-97,-306,191,6
5880,-14,-231,-101,-309,195,16
5885,-14,-232,-96,-311,194,22
5890,-15,-231,-101,-312,193,28
5895,-12,-233,-98,-316,189,26
5900,-10,-235,-100,-323,183,26
5905,-13,-232,-103,-331,177,24
5910,-10,-234,-97,-340,169,18
5915,-11,-231,-99,-347,161,13
5920,-11,-232,-98,-351,153,7
5925,-9,-234,-102,-353,144,2
5930,-10,-235,-101,-356,133,0
5935,-12,-231,-105,-358,122,-4
5940,-9,-232,-103,-362,113,-6
5945,-7,-230,-106,-367,103,-6
5950,-7,-228,-103,-375,96,-7
5955,-7,-229,-105,-385,88,-8
5960,-10,-230,-103,-400,84,-10
5965,-10,-229,-106,-414,79,-11
5970,-11,-228,-106,-430,78,-11
5975,-11,-226,-106,-449,74,-12
5980,-12,-222,-105,-469,70,-12
5985,-9,-222,-106,-492,71,-12
5990,-11,-223,-106,-520,72,-11
5995,-7,-220,-109,-550,71,-12
6000,-7,-215,-107,-579,70,-11
6005,-11,-212,-109,-607,70,-10
6010,-12,-211,-109,-635,72,-8
6015,-9,-208,-115,-662,77,-4
6020,-12,-208,-114,-686,82,0
6025,-5,-207,-120,-711,84,2
6030,-8,-209,-116,-734,89,2
6035,-5,-211,-121,-754,90,4
6040,-6,-210,-120,-770,93,3
6045,-5,-213,-121,-783,92,0
6050,-6,-213,-119,-794,88,-6
6055,-6,-214,-123,-809,85,-11
6060,-7,-219,-124,-828,79,-20
6065,-3,-217,-126,-851,75,-26
6070,-5,-214,-127,-877,69,-31
6075,-2,-214,-131,-903,64,-36
6080,-1,-212,-131,-921,59,-37
6085,-3,-209,-134,-932,54,-34
6090,-4,-206,-134,-939,48,-29
6095,-1,-210,-140,-940,42,-24
6100,-4,-211,-139,-933,36,-19
6105,-4,-211,-139,-924,32,-13
6110,-6,-209,-144,-911,26,-9
6115,-12,-205,-143,-894,22,-5
6120,-10,-207,-146,-878,16,0
6125,-11,-210,-146,-865,12,4
6130,-16,-203,-144,-856,9,9
6135,-18,-205,-146,-855,11,18
6140,-16,-204,-143,-861,15,27
6145,-20,-198,-146,-879,22,36
6150,-22,-199,-143,-907,30,45
6155,-22,-199,-141,-945,36,54
6160,-22,-198,-138,-994,49,64
6165,-29,-199,-143,-1045,62,72
6170,-20,-196,-139,-1092,75,79
6175,-15,-199,-139,-1132,87,88
6180,-14,-205,-138,-1163,98,98
6185,-14,-210,-130,-1188,104,104
6190,-10,-214,-131,-1210,102,109
6195,-7,-219,-132,-1228,97,110
6200,0,-226,-135,-1240,85,106
6205,-3,-228,-137,-1243,72,99
6210,-5,-226,-137,-1240,61,89
6215,-4,-228,-141,-1235,52,78
6220,-7,-229,-141,-1231,46,65
6225,-5,-227,-147,-1229,45,50
6230,-2,-224,-150,-1229,46,38
6235,-5,-219,-159,-1230,51,24
6240,-6,-214,-168,-1232,57,11
6245,-6,-210,-175,-1235,64,-7
6250,-10,-201,-182,-1238,72,-23
6255,-16,-197,-188,-1240,79,-36
6260,-20,-196,-197,-1240,85,-49
6265,-23,-192,-200,-1233,89,-55
6270,-25,-194,-206,-1215,91,-58
6275,-25,-208,-221,-1190,90,-57
6280,-26,-196,-213,-1160,86,-48
6285,-29,-200,-213,-1129,78,-37
6290,-30,-207,-210,-1096,65,-29
6295,-32,-221,-210,-1058,53,-25
6300,-28,-231,-211,-1009,42,-25
6305,-24,-248,-212,-952,38,-27
6310,-24,-266,-216,-887,35,-30
6315,-25,-276,-226,-820,33,-34
6320,-25,-281,-240,-752,33,-41
6325,-23,-290,-255,-686,34,-45
6330,-18,-292,-270,-616,43,-38
6335,-19,-295,-275,-541,57,-25
6340,-14,-297,-285,-458,65,-8
6345,-16,-303,-297,-365,68,4
6350,-10,-305,-298,-287,64,11
6355,-11,-298,-298,-187,62,19
6360,-6,-291,-296,-86,62,33
6365,-9,-280,-297,11,64,51
6370,-6,-268,-293,101,61,69
6375,-1,-254,-291,178,56,80
6380,9,-233,-283,239,53,93
6385,2,-239,-266,274,57,98
6390,2,-239,-261,277,61,84
6395,6,-240,-254,239,61,62
6400,6,-238,-250,158,54,33
6405,2,-237,-248,49,39,-14
6410,-1,-236,-254,-67,25,-61
6415,-2,-238,-254,-174,15,-104
6420,-5,-232,-255,-255,12,-142
6425,-8,-232,-261,-303,21,-164
6430,-10,-231,-261,-324,40,-170
6435,-15,-231,-260,-314,67,-167
6440,-14,-232,-255,-277,102,-163
6445,-18,-230,-250,-215,136,-162
6450,-15,-232,-245,-124,161,-163
6455,-14,-229,-238,-5,177,-162
6460,-12,-227,-231,138,185,-154
6465,-11,-225,-227,295,188,-139
6470,-9,-224,-220,456,189,-118
6475,-9,-221,-217,614,192,-94
6480,-6,-225,-211,755,199,-67
6485,-5,-231,-202,878,208,-43
6490,-11,-219,-198,980,223,-16
6495,-15,-220,-193,1058,240,3
6500,-14,-217,-186,1106,263,13
6505,-15,-212,-180,1125,284,22
6510,-15,-205,-173,1126,301,24
6515,-14,-202,-172,1108,313,23
6520,-13,-201,-166,1082,319,24
6525,-10,-194,-165,1049,321,26
6530,-14,-189,-164,1016,320,31
6535,-13,-184,-159,990,318,36
6540,-10,-184,-155,972,313,39
6545,-6,-182,-153,966,308,45
6550,-8,-182,-153,967,303,52
6555,-6,-181,-151,978,300,59
6560,-6,-177,-146,993,293,64
6565,-7,-177,-146,1010,287,73
6570,-7,-174,-143,1028,283,86
6575,-5,-169,-144,1048,280,100
6580,-5,-169,-142,1071,278,116
6585,-11,-166,-136,1096,278,133
6590,-7,-165,-137,1121,282,150
6595,-9,-166,-142,1143,285,159
6600,-10,-161,-138,1159,287,168
6605,-11,-160,-138,1175,288,176
6610,-10,-158,-134,1191,287,183
6615,-10,-153,-137,1204,287,194
6620,-14,-151,-139,1203,282,190
6625,-11,-151,-140,1195,273,182
6630,-12,-148,-136,1180,262,180
6635,-12,-146,-135,1161,251,175
6640,-13,-144,-136,1145,240,175
6645,-6,-145,-137,1128,235,172
6650,-10,-143,-136,1109,231,160
6655,-11,-141,-135,1091,231,150
6660,-6,-138,-137,1077,233,141
6665,-7,-138,-135,1069,233,134
6670,-3,-136,-136,1065,233,128
6675,-8,-131,-132,1067,232,113
6680,-7,-131,-133,1072,233,108
6685,-9,-130,-130,1075,235,108
6690,-7,-128,-130,1075,236,110
6695,-13,-124,-130,1069,236,106
6700,-13,-124,-129,1054,234,102
6705,-8,-109,-140,1030,227,98
6710,-16,-121,-128,1003,216,100
6715,-15,-120,-127,970,205,102
6720,-18,-119,-130,928,192,105
6725,-18,-120,-131,886,181,108
6730,-19,-123,-130,841,171,111
6735,-16,-126,-129,798,161,114
6740,-12,-127,-133,757,152,116
6745,-16,-126,-134,719,144,117
6750,-13,-133,-133,686,135,117
6755,-10,-135,-134,655,126,118
6760,-12,-133,-134,625,118,118
6765,-9,-137,-136,598,111,117
6770,-6,-145,-138,566,110,114
6775,-3,-147,-140,535,108,111
6780,-4,-155,-137,504,110,106
6785,-4,-155,-132,475,110,100
6790,-1,-163,-138,445,110,92
6795,0,-168,-136,418,113,87
6800,-2,-171,-136,394,118,79
6805,0,-173,-136,371,124,72
6810,2,-181,-140,352,132,63
6815,4,-180,-127,336,142,57
6820,0,-185,-138,321,155,53
6825,2,-192,-137,310,164,50
6830,0,-196,-134,300,171,49
6835,1,-199,-135,288,178,48
6840,1,-200,-139,277,180,50
6845,0,-207,-141,266,182,53
6850,0,-209,-142,255,179,57
6855,-2,-211,-144,243,174,61
6860,0,-220,-141,234,167,65
6865,-4,-221,-141,228,159,71
6870,0,-223,-137,226,151,77
6875,-5,-229,-139,232,145,84
6880,-8,-232,-139,242,137,89
6885,-10,-234,-132,254,132,92
6890,-12,-234,-130,270,122,93
6895,-8,-233,-126,286,112,95
6900,-8,-237,-126,302,105,95
6905,-12,-231,-121,317,100,95
6910,-13,-227,-121,332,94,92
6915,-9,-229,-118,343,91,90
6920,-4,-224,-113,350,89,87
6925,-15,-219,-120,351,89,84
6930,-11,-221,-113,349,91,83
6935,-11,-219,-115,340,92,79
6940,-8,-217,-113,329,93,76
6945,-11,-214,-113,316,97,74
6950,-12,-210,-110,300,101,72
6955,-9,-212,-109,283,104,68
6960,-12,-212,-114,267,108,66
6965,-11,-209,-115,252,111,62
6970,-12,-213,-110,238,114,63
6975,-11,-211,-112,226,118,63
6980,-13,-213,-113,216,119,64
6985,-13,-216,-113,206,121,64
6990,-12,-218,-119,196,122,64
6995,-14,-219,-115,186,120,64
7000,-9,-220,-116,175,118,64
7005,-13,-223,-114,164,116,63
7010,-14,-227,-114,154,114,61
7015,-17,-226,-114,145,111,59
7020,-11,-229,-112,138,106,58
7025,-11,-230,-111,134,101,57
7030,-16,-235,-108,132,96,56
7035,-13,-234,-112,132,88,54
7040,-13,-237,-111,137,82,54
7045,-17,-232,-110,141,75,52
7050,-18,-234,-106,146,68,52
7055,-12,-239,-108,148,60,52
7060,-12,-239,-108,151,54,54
7065,-12,-240,-104,151,50,52
7070,-14,-240,-103,152,49,54
7075,-12,-239,-103,154,46,53
7080,-14,-240,-105,156,48,54
7085,-12,-239,-106,161,47,54
7090,-12,-242,-105,167,49,54
7095,-15,-242,-106,173,51,55
7100,-15,-240,-104,178,54,55
7105,-11,-242,-104,183,56,55
7110,-15,-242,-104,186,56,54
7115,-15,-240,-104,189,58,55
7120,-11,-238,-101,188,59,56
7125,-11,-239,-100,184,60,57
7130,-12,-241,-99,182,60,56
7135,-9,-237,-103,181,61,53
7140,-11,-235,-101,179,62,50
7145,-12,-233,-103,179,62,49
7150,-11,-240,-96,181,61,48
7155,-10,-236,-97,182,59,48
7160,-9,-237,-97,183,57,46
7165,-10,-230,-98,184,52,46
7170,-6,-239,-101,187,54,57
7175,-11,-233,-97,185,55,50
7180,-11,-234,-95,181,54,42
7185,-11,-230,-99,177,53,40
7190,-11,-228,-97,171,56,39
7195,-10,-233,-98,162,61,39
7200,-12,-231,-101,152,65,41
7205,-12,-229,-100,141,65,38
7210,-9,-232,-97,133,68,39
7215,-9,-229,-101,121,71,38
7220,-12,-230,-100,111,73,37
7225,-11,-233,-100,100,76,38
7230,-12,-235,-101,92,78,38
7235,-10,-232,-101,85,83,38
7240,-14,-233,-102,80,88,36
7245,-12,-236,-103,75,91,34
7250,-3,-231,-102,67,96,32
7255,-9,-236,-97,64,95,31
7260,-9,-236,-101,58,95,31
7265,-11,-235,-99,53,94,29
7270,-12,-235,-103,50,94,30
7275,-10,-235,-102,47,95,29
7280,-13,-236,-103,45,95,29
7285,-12,-234,-101,44,98,31
7290,-12,-239,-101,43,101,28
7295,-9,-235,-103,42,101,28
7300,-13,-235,-99,40,102,27
7305,-10,-235,-104,39,102,27
7310,-14,-237,-101,37,103,26
7315,-13,-236,-97,35,100,25
7320,-14,-234,-100,34,98,25
7325,-16,-234,-100,28,97,24
7330,-8,-238,-98,23,99,25
7335,-13,-232,-99,18,102,24
7340,-10,-237,-98,12,105,25
7345,-14,-236,-101,7,108,25
7350,-16,-234,-100,2,114,23
7355,-9,-233,-98,-3,118,22
7360,-18,-231,-107,-7,122,22
7365,-12,-233,-104,-11,127,19
7370,-14,-235,-100,-13,130,16
7375,-12,-235,-99,-15,131,17
7380,-13,-234,-101,-17,132,16
7385,-13,-236,-98,-19,134,14
7390,-10,-235,-98,-22,131,12
7395,-10,-235,-101,-25,133,11
7400,-13,-237,-99,-27,135,8
7405,-12,-237,-100,-28,135,6
7410,-13,-236,-98,-30,138,5
7415,-11,-237,-100,-30,138,4
7420,-11,-235,-99,-32,141,4
7425,-11,-236,-99,-36,141,3
7430,-12,-237,-99,-39,139,1
7435,-13,-238,-97,-43,140,0
7440,-12,-239,-96,-49,140,0
7445,-12,-238,-95,-53,139,0
7450,-11,-238,-102,-58,138,-1
7455,-12,-244,-99,-62,137,-3
7460,-16,-238,-102,-65,133,-4
7465,-15,-232,-100,-67,132,-5
7470,-15,-234,-99,-69,129,-7
7475,-14,-237,-98,-70,128,-11
7480,-13,-236,-103,-70,125,-12
7485,-13,-235,-102,-72,122,-15
7490,-16,-234,-97,-72,117,-15
7495,-12,-235,-104,-71,113,-17
7500,-14,-235,-102,-73,108,-16
7505,-17,-235,-103,-75,103,-16
7510,-15,-235,-105,-75,99,-18
7515,-15,-232,-100,-77,98,-16
7520,-12,-238,-99,-76,96,-16
7525,-14,-236,-99,-78,94,-17
7530,-15,-234,-103,-80,94,-17
7535,-12,-237,-102,-81,94,-19
7540,-13,-238,-100,-85,94,-18
7545,-14,-237,-105,-86,96,-18
7550,-9,-238,-102,-88,95,-20
7555,-10,-237,-102,-89,97,-21
7560,-11,-236,-100,-91,99,-24
7565,-10,-236,-103,-92,100,-27
7570,-12,-238,-105,-93,103,-30
7575,-10,-236,-105,-95,103,-31
7580,-9,-238,-103,-96,102,-32
7585,-10,-236,-103,-97,101,-35
7590,-13,-237,-104,-95,100,-36
7595,-11,-236,-100,-94,100,-36
7600,-10,-238,-103,-94,96,-34
7605,-12,-237,-100,-92,95,-33
7610,-11,-238,-102,-90,93,-33
7615,-11,-237,-102,-88,93,-31
7620,-14,-237,-102,-87,93,-28
7625,-14,-237,-100,-86,94,-24
7630,-14,-233,-99,-84,93,-22
7635,-10,-239,-104,-84,92,-20
7640,-14,-236,-102,-86,91,-19
7645,-17,-236,-98,-84,90,-16
7650,-16,-235,-102,-84,90,-15
7655,-13,-237,-105,-84,90,-14
7660,-16,-235,-101,-83,89,-12
7665,-17,-237,-106,-83,87,-14
7670,-16,-239,-101,-84,86,-12
7675,-16,-238,-104,-84,86,-11
7680,-16,-238,-103,-83,85,-11
7685,-15,-236,-96,-82,85,-11
7690,-12,-239,-100,-82,85,-9
7695,-18,-239,-104,-82,81,-8
7700,-17,-241,-103,-82,77,-8
7705,-14,-241,-104,-82,73,-6
7710,-19,-237,-98,-82,70,-5
7715,-17,-239,-101,-80,69,-4
7720,-15,-242,-103,-81,65,-2
7725,-17,-238,-100,-78,65,0
7730,-17,-239,-103,-76,63,-1
7735,-17,-239,-103,-70,63,0
7740,-19,-238,-100,-66,64,1
7745,-19,-236,-98,-62,64,2
7750,-15,-238,-102,-58,65,2
7755,-17,-238,-101,-56,67,2
7760,-15,-236,-100,-55,67,3
7765,-15,-239,-102,-56,70,3
7770,-16,-235,-100,-57,70,4
7775,-14,-236,-104,-61,70,5
7780,-12,-237,-102,-64,72,4
7785,-13,-233,-103,-68,74,4
7790,-12,-234,-103,-70,76,5
7795,-14,-234,-102,-72,79,4
7800,-13,-236,-104,-74,81,5
7805,-13,-233,-108,-77,85,5
7810,-9,-236,-106,-80,89,4
7815,-15,-232,-104,-83,92,2
7820,-11,-234,-105,-87,92,4
7825,-11,-233,-105,-95,94,3
7830,-13,-231,-105,-104,94,4
7835,-11,-234,-106,-110,97,5
7840,-15,-234,-106,-117,99,6
7845,-12,-235,-107,-121,101,5
7850,-14,-233,-106,-124,102,7
7855,-15,-235,-100,-127,103,8
7860,-13,-237,-103,-128,104,11
7865,-13,-236,-104,-128,104,13
7870,-14,-237,-103,-127,104,16
7875,-15,-239,-99,-126,102,18
7880,-12,-239,-101,-121,99,22
7885,-13,-242,-102,-117,97,25
7890,-14,-244,-103,-113,94,27
7895,-11,-241,-95,-107,90,30
7900,-18,-236,-99,-101,87,32
7905,-14,-240,-102,-96,85,33
7910,-14,-240,-100,-91,83,34
7915,-13,-241,-103,-86,81,32
7920,-14,-240,-102,-83,79,33
7925,-14,-239,-102,-81,78,32
7930,-12,-242,-105,-78,79,30
7935,-13,-242,-104,-73,80,29
7940,-15,-244,-103,-70,81,27
7945,-15,-244,-102,-67,82,27
7950,-13,-238,-101,-63,84,26
7955,-13,-239,-107,-61,85,23
7960,-15,-236,-105,-58,85,23
7965,-14,-236,-104,-56,88,20
7970,-13,-237,-105,-56,88,22
7975,-15,-240,-104,-54,89,21
7980,-14,-237,-102,-51,89,21
7985,-14,-236,-103,-49,87,20
7990,-14,-237,-101,-47,85,20
7995,-13,-238,-100,-43,83,19
8000,-14,-235,-104,-41,81,18
8005,-15,-241,-106,-38,78,17
8010,-12,-237,-94,-36,77,15
8015,-13,-239,-101,-34,74,16
8020,-13,-237,-105,-31,73,15
8025,-13,-242,-101,-29,74,14
8030,-12,-239,-102,-28,73,14
8035,-12,-240,-102,-24,75,14
8040,-12,-238,-101,-19,76,11
8045,-15,-241,-99,-14,76,11
8050,-11,-239,-106,-10,79,11
8055,-12,-239,-99,-4,82,10
8060,-12,-241,-103,2,81,9
8065,-13,-237,-102,7,82,9
8070,-12,-238,-105,12,83,9
8075,-15,-235,-101,13,81,12
8080,-13,-236,-104,14,80,11
8085,-11,-236,-107,13,81,11
8090,-16,-236,-107,10,79,11
8095,-13,-237,-108,5,77,12
8100,-13,-233,-109,3,74,14
8105,-12,-235,-109,0,72,16
8110,-14,-233,-107,-2,70,17
8115,-12,-236,-110,-3,69,18
8120,-16,-238,-111,-4,69,19
8125,-10,-232,-107,-6,66,20
8130,-14,-237,-104,-4,65,22
8135,-13,-232,-106,-3,64,20
8140,-12,-235,-107,-2,64,20
8145,-15,-231,-104,-1,61,20
8150,-12,-232,-109,-3,60,20
8155,-14,-229,-106,-3,60,21
8160,-11,-233,-102,-4,59,21
8165,-9,-233,-105,-5,59,21
8170,-10,-235,-106,-8,59,21
8175,-14,-235,-107,-8,58,21
8180,-11,-235,-104,-10,57,20
8185,-13,-231,-104,-13,58,19
8190,-13,-234,-106,-14,58,20
8195,-11,-236,-107,-16,59,18
8200,-13,-235,-105,-16,60,17
8205,-16,-235,-105,-18,61,16
8210,-14,-235,-106,-20,62,15
8215,-17,-237,-103,-19,63,15
8220,-15,-233,-105,-20,63,13
8225,-17,-237,-106,-19,66,12
8230,-15,-234,-104,-18,67,11
8235,-15,-237,-108,-17,67,8
8240,-11,-237,-107,-16,68,7
8245,-13,-239,-108,-15,67,6
8250,-13,-238,-103,-13,67,5
8255,-14,-235,-107,-14,68,3
8260,-14,-236,-106,-14,68,4
8265,-14,-235,-107,-15,67,1
8270,-16,-236,-106,-16,68,0
8275,-15,-234,-104,-17,67,0
8280,-14,-232,-107,-18,67,1
8285,-15,-236,-104,-18,67,0
8290,-17,-234,-104,-19,64,-2
8295,-14,-235,-103,-20,65,-2
8300,-16,-235,-106,-19,62,-2
8305,-18,-233,-106,-20,59,-4
8310,-15,-233,-106,-21,59,-4
8315,-15,-233,-104,-23,56,-6
8320,-15,-234,-107,-24,53,-6
8325,-16,-234,-102,-25,52,-7
8330,-15,-233,-105,-24,50,-8
8335,-17,-238,-105,-23,48,-6
8340,-12,-237,-106,-25,46,-9
8345,-16,-235,-103,-25,46,-8
8350,-13,-233,-104,-23,46,-8
8355,-17,-236,-103,-21,46,-9
8360,-16,-237,-105,-19,46,-9
8365,-17,-234,-107,-16,46,-9
8370,-17,-234,-104,-16,47,-9
8375,-16,-239,-104,-15,49,-9
8380,-15,-236,-103,-12,47,-9
8385,-16,-235,-107,-11,47,-9
8390,-15,-236,-104,-9,49,-9
8395,-15,-237,-104,-6,47,-8
8400,-19,-235,-105,-5,46,-7
8405,-17,-235,-109,-6,46,-7
8410,-17,-234,-105,-6,45,-7
8415,-18,-233,-110,-6,45,-9
8420,-16,-234,-104,-8,45,-8
8425,-20,-233,-105,-9,45,-8
8430,-18,-231,-104,-10,45,-9
8435,-18,-234,-107,-11,45,-11
8440,-16,-234,-110,-14,45,-11
8445,-13,-229,-100,-16,45,-10
8450,-17,-232,-107,-16,44,-10
8455,-20,-236,-110,-18,42,-11
8460,-18,-236,-106,-19,40,-11
8465,-17,-236,-109,-18,40,-10
8470,-17,-237,-107,-17,40,-11
8475,-17,-234,-104,-18,39,-11
8480,-17,-234,-103,-17,39,-11
8485,-18,-234,-107,-17,40,-11
8490,-14,-235,-109,-18,40,-11
8495,-16,-235,-102,-19,39,-11
8500,-16,-235,-103,-19,40,-11
8505,-16,-233,-105,-21,41,-9
8510,-18,-233,-104,-22,42,-9
8515,-16,-232,-103,-22,43,-9
8520,-17,-234,-104,-24,44,-9
8525,-17,-235,-106,-24,43,-9
8530,-16,-232,-104,-25,45,-8
8535,-17,-234,-104,-26,44,-7
8540,-15,-235,-107,-26,46,-8
8545,-16,-234,-103,-26,45,-9
8550,-17,-234,-106,-27,44,-7
8555,-11,-220,-120,-29,45,-8
8560,-15,-239,-108,-31,46,-11
8565,-14,-236,-107,-34,46,-10
8570,-16,-238,-108,-34,46,-11
8575,-16,-234,-103,-34,45,-10
8580,-18,-236,-103,-36,45,-10
8585,-15,-237,-102,-36,46,-10
8590,-16,-234,-107,-38,46,-8
8595,-14,-236,-105,-39,46,-8
8600,-18,-237,-107,-40,48,-9
8605,-16,-234,-108,-40,50,-9
8610,-19,-233,-107,-40,51,-10
8615,-18,-235,-104,-38,49,-13
8620,-19,-234,-109,-38,50,-14
8625,-21,-236,-104,-39,49,-16
8630,-21,-236,-103,-39,45,-18
8635,-19,-233,-104,-41,42,-19
8640,-19,-240,-104,-41,38,-21
8645,-16,-235,-103,-45,33,-22
8650,-16,-236,-103,-45,30,-20
8655,-16,-239,-104,-47,26,-21
8660,-19,-234,-105,-48,25,-21
8665,-23,-237,-97,-48,25,-20
8670,-16,-237,-102,-47,25,-20
8675,-14,-237,-107,-46,25,-21
8680,-14,-237,-108,-46,26,-22
8685,-16,-239,-106,-43,28,-22
8690,-13,-239,-107,-40,32,-21
8695,-15,-239,-104,-34,34,-20
8700,-17,-237,-105,-27,38,-20
8705,-13,-240,-105,-21,41,-19
8710,-12,-238,-104,-15,46,-18
8715,-15,-236,-102,-10,49,-18
8720,-10,-242,-103,-5,51,-20
8725,-16,-238,-103,-2,53,-20
8730,-15,-237,-100,-2,54,-22
8735,-12,-237,-101,-2,53,-20
8740,-15,-237,-107,-1,52,-21
8745,-16,-236,-104,-2,51,-21
8750,-14,-235,-104,-2,50,-22
8755,-11,-237,-103,-2,50,-22
8760,-13,-237,-103,-3,50,-19
8765,-16,-232,-103,-2,52,-19
8770,-14,-234,-108,-3,53,-17
8775,-12,-232,-105,-2,54,-16
8780,-14,-234,-107,-4,55,-15
8785,-12,-235,-104,-5,56,-14
8790,-15,-232,-105,-6,58,-14
8795,-13,-231,-110,-8,58,-12
8800,-14,-232,-107,-12,60,-11
8805,-15,-233,-108,-14,60,-12
8810,-16,-234,-108,-16,63,-10
8815,-17,-232,-106,-19,63,-11
8820,-14,-237,-107,-18,64,-11
8825,-13,-234,-108,-20,65,-12
8830,-16,-233,-105,-20,66,-13
8835,-12,-233,-110,-22,68,-13
8840,-13,-234,-109,-22,69,-13
8845,-14,-231,-106,-25,68,-11
8850,-12,-233,-107,-25,68,-12
8855,-14,-232,-103,-26,69,-10
8860,-14,-233,-108,-27,67,-11
8865,-16,-235,-106,-27,67,-11
8870,-15,-232,-110,-29,68,-10
8875,-15,-234,-109,-30,69,-9
8880,-13,-234,-105,-31,67,-8
8885,-22,-233,-106,-33,66,-9
8890,-17,-233,-108,-34,66,-9
8895,-15,-232,-111,-34,67,-8
8900,-15,-235,-106,-36,67,-6
8905,-14,-234,-105,-38,68,-7
8910,-13,-235,-105,-39,68,-6
8915,-14,-233,-109,-42,70,-6
8920,-16,-232,-103,-45,71,-6
8925,-16,-232,-107,-47,73,-4
8930,-13,-235,-104,-51,75,-5
8935,-13,-236,-108,-53,75,-4
8940,-14,-237,-105,-54,75,-4
8945,-15,-235,-106,-53,73,-3
8950,-17,-232,-106,-51,74,-3
8955,-14,-236,-104,-50,75,-2
8960,-15,-235,-107,-49,72,-3
8965,-18,-236,-109,-47,72,-2
8970,-15,-236,-106,-45,71,-3
8975,-16,-238,-105,-44,71,-2
8980,-17,-235,-109,-44,68,-2
8985,-14,-239,-105,-44,68,1
8990,-8,-229,-110,-43,67,2
8995,-19,-236,-109,-43,65,2
9000,-14,-238,-105,-41,65,3
9005,-16,-233,-108,-40,66,3
9010,-16,-235,-108,-38,66,0
9015,-14,-238,-107,-37,68,1
9020,-14,-236,-104,-35,70,0
9025,-15,-237,-111,-34,71,-2
9030,-16,-237,-104,-32,72,-3
9035,-17,-238,-109,-31,73,-3
9040,-13,-235,-110,-29,75,-3
9045,-15,-235,-106,-27,76,-4
9050,-17,-234,-107,-25,75,-2
9055,-14,-236,-104,-22,78,-3
9060,-14,-235,-105,-20,77,-3
9065,-15,-234,-106,-20,78,-4
9070,-13,-233,-106,-22,78,-2
9075,-12,-234,-108,-24,81,-2
9080,-14,-233,-104,-27,79,-3
9085,-12,-233,-107,-32,80,-4
9090,-15,-236,-106,-37,80,-5
9095,-18,-233,-106,-40,80,-5
9100,-14,-235,-111,-43,79,-5
9105,-16,-233,-107,-47,78,-5
9110,-14,-235,-104,-49,77,-6
9115,-15,-232,-105,-50,76,-4
9120,-14,-230,-107,-52,74,-4
9125,-15,-236,-108,-53,73,-6
9130,-16,-235,-107,-53,71,-5
9135,-14,-232,-109,-55,70,-2
9140,-16,-234,-107,-57,70,-4
9145,-17,-235,-107,-59,70,-3
9150,-16,-234,-109,-59,68,-2
9155,-16,-235,-109,-56,67,-1
9160,-16,-235,-110,-57,64,0
9165,-16,-234,-106,-57,66,0
9170,-15,-234,-109,-57,67,0
9175,-17,-234,-109,-57,66,-1
9180,-13,-235,-110,-57,67,0
9185,-17,-233,-109,-57,68,-2
9190,-15,-236,-108,-59,70,-2
9195,-16,-234,-111,-59,72,-1
9200,-15,-235,-108,-57,72,0
9205,-15,-233,-108,-56,74,-1
9210,-17,-228,-113,-53,77,0
9215,-17,-232,-109,-49,77,1
9220,-16,-233,-106,-44,77,1
9225,-14,-236,-108,-42,76,2
9230,-14,-233,-109,-38,75,1
9235,-15,-235,-109,-35,74,1
9240,-16,-233,-106,-36,74,0
9245,-13,-235,-108,-36,74,1
9250,-15,-233,-110,-35,73,-1
9255,-17,-234,-110,-37,73,-2
9260,-13,-235,-108,-38,73,-2
9265,-14,-236,-109,-39,72,-3
9270,-14,-233,-109,-39,73,-4
9275,-16,-231,-111,-38,73,-3
9280,-12,-233,-110,-38,75,-3
9285,-13,-233,-108,-38,73,-3
9290,-13,-233,-110,-38,74,-4
9295,-16,-233,-111,-38,74,-2
9300,-13,-232,-107,-39,74,-2
9305,-15,-233,-109,-40,73,-1
9310,-14,-235,-109,-41,75,0
9315,-16,-234,-108,-41,75,0
9320,-13,-236,-106,-43,76,3
9325,-15,-235,-113,-43,78,2
9330,-17,-236,-108,-43,79,2
9335,-15,-233,-108,-41,82,4
9340,-19,-235,-113,-39,83,3
9345,-16,-234,-109,-35,84,2
9350,-16,-235,-112,-32,86,1
9355,-16,-233,-110,-28,86,-3
9360,-16,-233,-110,-26,86,-3
9365,-16,-233,-111,-25,85,-4
9370,-12,-231,-109,-25,84,-4
9375,-14,-232,-107,-28,83,-3
9380,-13,-232,-110,-31,81,-4
9385,-13,-235,-110,-35,79,-2
9390,-17,-232,-110,-37,77,-3
9395,-16,-232,-110,-39,77,-3
9400,-14,-232,-112,-40,76,-2
9405,-14,-233,-109,-39,75,-3
9410,-17,-234,-109,-38,75,-3
9415,-14,-233,-107,-37,75,-3
9420,-15,-233,-111,-35,73,-2
9425,-19,-235,-114,-35,72,-3
9430,-18,-232,-111,-37,73,-5
9435,-16,-231,-109,-35,73,-4
9440,-17,-232,-112,-35,73,-5
9445,-17,-234,-113,-35,74,-5
9450,-15,-234,-110,-34,74,-2
9455,-14,-235,-113,-33,76,-3
9460,-13,-237,-112,-32,76,-2
9465,-15,-236,-112,-33,76,-2
9470,-20,-233,-115,-31,76,-1
9475,-18,-234,-115,-30,77,-1
9480,-17,-235,-109,-30,76,-2
9485,-14,-232,-114,-30,73,-2
9490,-16,-236,-109,-30,74,-2
9495,-15,-233,-111,-28,72,-2
9500,-15,-234,-109,-28,72,-2
9505,-14,-231,-109,-28,72,-2
9510,-16,-233,-114,-28,72,-2
9515,-14,-233,-111,-28,69,0
9520,-16,-230,-113,-29,68,-1
9525,-12,-232,-111,-29,65,0
9530,-14,-234,-110,-28,63,1
9535,-9,-233,-104,-27,61,0
9540,-18,-232,-106,-27,62,-1
9545,-15,-232,-109,-26,62,0
9550,-14,-232,-114,-25,62,-1
9555,-16,-234,-114,-25,61,1
9560,-15,-232,-110,-23,62,1
9565,-16,-231,-111,-21,62,-1
9570,-17,-235,-110,-20,63,1
9575,-16,-234,-109,-19,68,1
9580,-13,-232,-109,-19,68,1
9585,-14,-233,-112,-17,71,1
9590,-15,-234,-113,-17,74,0
9595,-17,-234,-110,-18,74,-1
9600,-12,-234,-109,-18,77,-2
9605,-14,-230,-112,-17,79,-3
9610,-16,-232,-107,-17,80,-4
9615,-12,-234,-113,-18,82,-4
9620,-15,-230,-112,-18,80,-4
9625,-14,-235,-112,-19,82,-3
9630,-13,-231,-108,-22,81,-4
9635,-16,-231,-113,-21,77,-4
9640,-11,-234,-111,-22,77,-4
9645,-17,-230,-113,-23,77,-4
9650,-14,-233,-112,-23,76,-4
9655,-15,-232,-113,-23,76,-3
9660,-13,-233,-114,-23,75,-3
9665,-14,-235,-112,-21,77,-2
9670,-15,-235,-110,-21,77,-1
9675,-14,-233,-110,-20,79,0
9680,-15,-232,-111,-19,79,0
9685,-15,-232,-112,-18,80,1
9690,-15,-233,-110,-18,82,1
9695,-13,-234,-115,-18,83,0
9700,-14,-234,-111,-18,83,1
9705,-15,-230,-113,-19,83,1
9710,-17,-228,-115,-18,82,0
9715,-15,-231,-111,-15,83,-1
9720,-15,-230,-111,-14,84,-1
9725,-13,-232,-116,-15,82,-2
9730,-14,-231,-114,-17,82,-1
9735,-17,-231,-113,-18,80,-1
9740,-13,-231,-111,-20,80,0
9745,-11,-229,-113,-21,78,2
9750,-14,-231,-115,-24,76,2
9755,-10,-228,-116,-25,74,1
9760,-17,-232,-113,-26,73,2
9765,-15,-233,-111,-28,72,2
9770,-15,-232,-111,-29,74,2
9775,-15,-230,-111,-30,74,2
9780,-16,-231,-114,-30,74,2
9785,-15,-231,-112,-30,72,1
9790,-11,-233,-114,-30,73,1
9795,-14,-232,-113,-31,74,-1
9800,-12,-234,-117,-31,73,0
9805,-13,-233,-110,-28,73,-1
9810,-15,-233,-115,-27,72,-1
9815,-15,-233,-114,-26,74,-2
9820,-16,-231,-112,-25,74,0
9825,-16,-230,-113,-26,75,-2
9830,-16,-232,-115,-24,75,-3
9835,-15,-233,-111,-25,76,-2
9840,-14,-231,-113,-25,77,-1
9845,-13,-231,-111,-26,76,-2
9850,-14,-230,-110,-24,75,-3
9855,-17,-231,-109,-23,73,-1
9860,-14,-232,-114,-23,73,-3
9865,-13,-233,-107,-21,73,-5
9870,-15,-232,-111,-20,72,-3
9875,-17,-233,-114,-20,71,-2
9880,-15,-233,-110,-18,71,-1
9885,-19,-229,-114,-17,72,-2
9890,-15,-233,-111,-15,72,-2
9895,-16,-232,-113,-15,72,-2
9900,-15,-234,-113,-14,73,-3
9905,-16,-232,-109,-13,71,-3
9910,-16,-229,-113,-13,72,-5
9915,-16,-229,-111,-13,72,-4
9920,-18,-229,-111,-14,72,-3
9925,-14,-235,-114,-16,72,-2
9930,-15,-231,-112,-16,69,-2
9935,-14,-233,-115,-17,69,-2
9940,-17,-230,-114,-16,68,-2
9945,-20,-228,-115,-19,68,-2
9950,-14,-230,-115,-17,68,-2
9955,-16,-230,-111,-16,68,-3
9960,-15,-233,-115,-15,68,-2
9965,-14,-234,-109,-14,66,-2
9970,-14,-228,-110,-15,68,-1
9975,-15,-233,-112,-14,69,-2
9980,-15,-233,-113,-15,69,-2
9985,-17,-231,-110,-12,70,-1
9990,-14,-236,-110,-13,71,0
9995,-16,-234,-114,-13,71,0
10000,-16,-231,-111,-12,70,-1
10005,-13,-231,-112,-11,72,0
10010,-14,-233,-111,-10,72,2
10015,-16,-235,-110,-10,73,0
10020,-14,-234,-108,-8,71,0
10025,-13,-234,-114,-8,72,0
10030,-15,-233,-111,-8,72,-2
10035,-14,-234,-112,-8,71,0
10040,-14,-233,-111,-6,69,-2
10045,-16,-231,-111,-6,69,-1
10050,-15,-231,-110,-7,69,-1
10055,-17,-232,-113,-7,68,0
10060,-15,-232,-113,-8,68,1
10065,-14,-230,-108,-9,68,1
10070,-15,-230,-113,-9,70,1
10075,-14,-231,-113,-11,71,2
10080,-18,-229,-109,-13,72,3
10085,-20,-231,-114,-13,77,2
10090,-16,-232,-112,-16,78,2
10095,-14,-235,-117,-15,79,1
10100,-18,-233,-115,-16,81,-3
10105,-14,-232,-113,-16,80,-3
10110,-15,-232,-114,-15,81,-6
10115,-14,-230,-117,-17,81,-6
10120,-15,-231,-111,-18,80,-5
10125,-13,-229,-112,-17,81,-5
10130,-12,-231,-115,-19,81,-5
10135,-14,-231,-108,-19,79,-6
10140,-14,-232,-115,-19,78,-4
10145,-14,-234,-111,-18,76,-5
10150,-12,-232,-114,-15,74,-5
10155,-13,-233,-116,-14,72,-6
10160,-13,-235,-112,-13,71,-6
10165,-16,-232,-111,-10,69,-6
10170,-14,-235,-111,-8,68,-8
10175,-13,-231,-115,-6,68,-9
10180,-14,-231,-114,-6,67,-10
10185,-15,-233,-110,-5,67,-9
10190,-14,-233,-113,-5,69,-8
10195,-13,-231,-111,-4,70,-6
10200,-14,-233,-116,-3,71,-5
10205,-16,-231,-114,-2,72,-4
10210,-15,-230,-111,-3,73,-4
10215,-15,-233,-115,-1,73,-3
10220,-13,-235,-114,-2,73,-3
10225,-13,-233,-114,-3,73,-3
10230,-15,-235,-113,-3,73,-4
10235,-16,-229,-115,-5,73,-5
10240,-12,-232,-112,-4,74,-5
10245,-13,-234,-112,-4,76,-7
10250,-17,-231,-115,-5,74,-8
10255,-15,-232,-112,-4,76,-7
10260,-10,-233,-114,-1,76,-9
10265,-15,-230,-115,0,78,-9
10270,-12,-229,-113,1,78,-9
10275,-15,-233,-114,1,79,-11
10280,-11,-232,-114,2,80,-11
10285,-12,-230,-111,2,79,-10
10290,-12,-233,-113,3,80,-9
10295,-14,-230,-115,2,80,-8
10300,-17,-230,-116,2,81,-7
10305,-17,-231,-111,3,81,-6
10310,-12,-232,-111,4,82,-6
10315,-12,-230,-116,5,81,-7
10320,-14,-231,-112,3,83,-6
10325,-14,-231,-114,2,81,-6
10330,-17,-234,-115,2,80,-7
10335,-14,-231,-109,0,82,-6
10340,-14,-230,-111,0,81,-6
10345,-14,-231,-115,0,80,-7
10350,-12,-232,-115,-1,79,-8
10355,-15,-230,-114,-3,79,-7
10360,-14,-233,-112,-1,78,-7
10365,-10,-234,-113,-3,78,-6
10370,-15,-233,-114,-3,79,-6
10375,-14,-232,-113,-4,79,-5
10380,-16,-231,-113,-4,79,-6
10385,-14,-234,-110,-4,79,-7
10390,-18,-230,-113,-4,79,-7
10395,-15,-232,-116,-4,78,-6
10400,-16,-233,-112,-4,78,-5
10405,-14,-233,-111,-3,78,-4
10410,-23,-237,-118,-4,80,-3
10415,-15,-232,-111,-5,80,-4
10420,-14,-234,-110,-5,79,-5
10425,-15,-234,-111,-6,78,-5
10430,-14,-233,-112,-7,77,-4
10435,-15,-233,-112,-7,78,-4
10440,-17,-234,-109,-8,76,-3
10445,-16,-231,-113,-7,75,-3
10450,-14,-232,-110,-8,74,-4
10455,-12,-233,-109,-7,73,-4
10460,-15,-233,-112,-5,73,-4
10465,-16,-233,-111,-6,72,-5
10470,-16,-229,-115,-6,73,-5
10475,-14,-232,-112,-5,72,-5
10480,-15,-232,-111,-6,71,-5
10485,-14,-229,-111,-7,73,-5
10490,-13,-235,-112,-7,72,-3
10495,-15,-233,-113,-7,70,-3
10500,-16,-234,-110,-6,69,-2
10505,-17,-232,-111,-3,68,-1
10510,-14,-233,-109,-2,66,0
10515,-13,-236,-115,0,67,1
10520,-14,-235,-113,1,65,0
10525,-15,-233,-107,3,65,1
10530,-16,-232,-113,4,63,1
10535,-12,-236,-109,5,66,0
10540,-13,-232,-110,5,65,-1
10545,-17,-234,-111,5,66,-2
10550,-13,-233,-106,5,67,-3
10555,-10,-235,-111,5,69,-3
10560,-13,-231,-112,6,70,-3
10565,-15,-233,-113,5,71,-4
10570,-13,-232,-115,5,72,-4
10575,-13,-232,-110,4,73,-3
10580,-14,-233,-111,2,72,-3
10585,-11,-230,-109,0,73,-3
10590,-13,-234,-110,0,74,-4
10595,-13,-233,-109,-3,74,-3
10600,-13,-232,-109,-4,75,-3
10605,-13,-234,-111,-4,76,-3
10610,-12,-232,-109,-4,75,-3
10615,-9,-234,-112,-3,74,-4
10620,-11,-232,-106,-2,74,-3
10625,-10,-233,-108,-2,73,-2
10630,-12,-235,-110,0,72,-3
10635,-11,-231,-110,0,72,-2
10640,-12,-233,-113,0,72,-1
10645,-16,-233,-112,2,72,-2
10650,-16,-232,-107,4,70,-2
10655,-15,-229,-112,2,70,-2
10660,-14,-234,-115,3,69,-3
10665,-15,-233,-107,2,71,0
10670,-12,-235,-113,1,71,-1
10675,-17,-232,-111,2,70,-1
10680,-15,-230,-111,0,70,-2
10685,-10,-229,-110,-2,71,-1
10690,-16,-232,-113,-3,72,-1
10695,-15,-231,-111,-4,73,0
10700,-14,-232,-109,-5,74,0
10705,-15,-234,-111,-4,75,-2
10710,-16,-233,-109,-3,74,-1
10715,-14,-233,-109,-3,75,-2
10720,-16,-230,-113,-4,76,-4
10725,-10,-233,-110,-5,77,-4
10730,-12,-235,-105,-5,78,-4
10735,-14,-234,-111,-5,79,-3
10740,-15,-230,-113,-7,80,-3
10745,-15,-233,-111,-8,79,-3
10750,-14,-234,-109,-9,78,-2
10755,-14,-235,-108,-8,79,-3
10760,-11,-234,-110,-7,79,-2
10765,-18,-234,-110,-5,78,-2
10770,-13,-236,-109,-4,77,0
10775,-14,-233,-112,-4,76,1
10780,-17,-234,-113,-3,75,-1
10785,-17,-232,-111,-2,74,-1
10790,-16,-234,-112,-3,75,-2
10795,-15,-233,-112,-3,74,0
10800,-14,-231,-108,-3,73,-1
10805,-16,-233,-107,-2,73,-1
10810,-14,-234,-112,-3,72,0
10815,-14,-231,-110,-4,71,0
10820,-14,-235,-111,-4,70,1
10825,-17,-233,-110,-5,68,0
10830,-15,-236,-108,-5,68,-1
10835,-13,-235,-110,-6,70,1
10840,-12,-233,-113,-5,71,1
10845,-12,-230,-111,-5,71,0
10850,-17,-237,-112,-4,73,1
10855,-17,-235,-109,-2,74,1
10860,-16,-235,-111,0,75,1
10865,-16,-240,-112,3,76,-1
10870,-16,-235,-108,4,76,0
10875,-16,-234,-109,6,74,0
10880,-17,-234,-108,6,73,-1
10885,-15,-234,-107,6,72,-2
10890,-15,-233,-106,4,70,-1
10895,-19,-233,-111,1,70,-2
10900,-15,-233,-110,-1,69,-4
10905,-15,-231,-107,-3,67,-3
10910,-13,-233,-105,-3,68,-3
10915,-14,-234,-111,-3,66,-3
10920,-15,-232,-106,-3,66,-2
10925,-15,-234,-110,-3,66,-3
10930,-15,-235,-110,-3,67,-4
10935,-15,-234,-110,-2,67,-2
10940,-15,-232,-110,0,67,-2
10945,-14,-233,-112,-1,68,-3
10950,-14,-227,-111,1,68,-3
10955,-16,-232,-111,0,69,-3
10960,-16,-233,-114,0,71,-2
10965,-10,-239,-108,1,71,-1
10970,-14,-231,-109,0,71,0
10975,-16,-233,-109,1,72,-1
10980,-12,-234,-111,0,72,0
10985,-11,-238,-109,1,71,-1
10990,-14,-237,-109,2,71,2
10995,-13,-235,-109,2,71,0
11000,-15,-233,-108,3,71,0
11005,-12,-233,-112,2,70,-2
11010,-14,-234,-108,3,70,0
11015,-13,-234,-106,2,70,-2
11020,-11,-233,-111,0,71,-4
11025,-14,-233,-111,-2,70,-6
11030,-14,-231,-108,-2,71,-6
11035,-12,-234,-111,-3,72,-5
11040,-17,-234,-108,-3,71,-4
11045,-14,-235,-108,-2,70,-4
11050,-15,-230,-114,-2,71,-4
11055,-14,-234,-109,-1,71,-5
11060,-21,-234,-114,-1,71,-4
11065,-16,-235,-110,1,70,-4
11070,-16,-236,-107,2,70,-4
11075,-14,-233,-108,3,73,-2
11080,-12,-236,-108,3,71,-3
11085,-13,-232,-110,4,71,-4
11090,-16,-230,-112,4,72,-3
11095,-14,-233,-113,3,72,-2
11100,-15,-236,-110,3,71,-2
11105,-14,-233,-107,0,71,-5
11110,-11,-232,-109,-2,70,-5
11115,-12,-233,-109,-5,70,-4
11120,-16,-236,-111,-8,68,-4
11125,-14,-233,-107,-9,68,-3
11130,-13,-234,-108,-10,69,-3
11135,-14,-232,-108,-10,70,-4
11140,-16,-235,-111,-10,70,-5
11145,-15,-233,-107,-9,69,-6
11150,-12,-232,-110,-8,67,-6
11155,-16,-233,-110,-6,66,-5
11160,-15,-235,-110,-5,66,-5
11165,-15,-236,-109,-4,65,-4
11170,-10,-231,-101,-3,65,-4
11175,-17,-234,-109,-2,66,-5
11180,-16,-233,-111,-4,67,-5
11185,-13,-231,-109,-6,69,-5
11190,-15,-231,-110,-8,68,-4
11195,-12,-235,-111,-10,67,-5
11200,-14,-232,-111,-11,68,-4
11205,-16,-233,-109,-14,69,-3
11210,-14,-234,-109,-16,68,-3
11215,-16,-234,-111,-15,66,-2
11220,-15,-237,-110,-15,66,-3
11225,-16,-234,-108,-13,64,-4
11230,-15,-232,-107,-13,65,-5
11235,-18,-233,-108,-11,64,-4
11240,-15,-232,-107,-10,64,-4
11245,-15,-234,-106,-9,65,-4
11250,-14,-232,-112,-8,63,-3
11255,-15,-229,-109,-8,63,-3
11260,-18,-233,-107,-9,61,-1
11265,-12,-235,-110,-8,62,-2
11270,-13,-235,-106,-9,59,0
11275,-15,-233,-107,-9,59,-1
11280,-16,-239,-114,-8,59,-2
11285,-13,-236,-109,-9,59,-1
11290,-12,-237,-106,-9,61,-2
11295,-17,-233,-108,-8,60,-2
11300,-14,-232,-107,-8,61,-2
11305,-16,-235,-110,-7,63,-2
11310,-14,-234,-110,-8,63,-3
11315,-15,-236,-114,-8,65,-3
11320,-16,-233,-110,-6,64,-3
11325,-16,-232,-109,-7,65,-4
11330,-15,-233,-107,-6,64,-4
11335,-17,-230,-107,-5,67,-4
11340,-16,-234,-111,-6,66,-4
11345,-13,-235,-111,-7,64,-2
11350,-13,-233,-112,-6,65,-2
11355,-13,-233,-108,-7,66,-3
11360,-15,-233,-107,-9,66,-3
11365,-15,-236,-107,-11,66,-3
11370,-16,-234,-105,-11,67,-2
11375,-12,-233,-106,-13,67,-4
11380,-14,-238,-110,-12,67,-2
11385,-15,-234,-110,-11,68,-3
11390,-15,-235,-106,-10,68,-3
11395,-13,-233,-105,-10,67,-3
11400,-15,-232,-109,-8,66,-3
11405,-13,-235,-108,-8,66,-3
11410,-13,-236,-111,-8,67,-3
11415,-13,-232,-104,-7,64,-3
11420,-13,-234,-109,-5,65,-5
11425,-14,-235,-106,-6,67,-4
11430,-13,-235,-107,-6,67,-3
11435,-17,-233,-108,-6,68,-4
11440,-17,-233,-107,-6,70,-3
11445,-13,-235,-108,-7,71,-2
11450,-15,-233,-107,-8,70,-2
11455,-14,-231,-107,-9,71,-2
11460,-15,-232,-109,-10,71,-2
11465,-13,-233,-104,-11,73,-2
11470,-14,-232,-109,-10,72,-1
11475,-13,-235,-109,-11,73,-1
11480,-14,-233,-109,-12,74,-1
11485,-16,-232,-107,-12,74,-1
11490,-16,-234,-110,-11,75,0
11495,-24,-229,-112,-10,77,-2
11500,-14,-234,-106,-11,76,-1
11505,-15,-234,-112,-11,75,-2
11510,-17,-234,-108,-13,76,-2
11515,-12,-234,-107,-13,75,-2
11520,-13,-234,-105,-12,74,0
11525,-14,-235,-108,-12,74,-2
11530,-13,-233,-105,-14,73,-2
11535,-15,-236,-109,-14,72,-3
11540,-15,-235,-106,-13,72,-3
11545,-14,-234,-107,-13,73,-3
11550,-14,-232,-108,-13,72,-4
11555,-15,-236,-107,-13,74,-4
11560,-14,-235,-107,-15,73,-3
11565,-17,-233,-110,-15,73,-4
11570,-14,-235,-110,-14,74,-3
11575,-13,-234,-107,-15,75,-2
11580,-14,-234,-102,-15,75,-2
11585,-15,-234,-110,-16,74,-2
11590,-16,-233,-107,-16,74,-3
11595,-15,-233,-106,-16,73,-4
11600,-15,-232,-105,-16,71,-3
11605,-24,-236,-105,-16,70,-5
11610,-12,-241,-110,-15,70,-5
11615,-16,-233,-108,-14,69,-4
11620,-13,-235,-109,-14,69,-5
11625,-14,-235,-108,-15,67,-4
11630,-15,-235,-107,-14,68,-5
11635,-15,-236,-108,-13,69,-4
11640,-14,-233,-108,-15,70,-4
11645,-12,-234,-112,-16,70,-3
11650,-17,-232,-107,-16,72,-2
11655,-16,-232,-105,-16,75,-2
11660,-15,-235,-109,-16,76,-3
11665,-17,-232,-107,-17,78,-3
11670,-15,-234,-107,-15,78,-2
11675,-17,-237,-105,-15,77,-2
11680,-15,-233,-108,-14,78,-5
11685,-17,-233,-106,-13,76,-5
11690,-15,-234,-108,-14,76,-6
11695,-17,-234,-110,-16,76,-5
11700,-11,-237,-107,-16,72,-7
11705,-13,-234,-109,-17,72,-6
11710,-16,-236,-110,-18,72,-6
11715,-12,-231,-111,-20,71,-6
11720,-15,-233,-105,-23,69,-6
11725,-14,-234,-107,-24,68,-5
11730,-13,-235,-109,-26,67,-5
11735,-15,-237,-109,-24,67,-5
11740,-15,-237,-109,-23,65,-7
11745,-14,-235,-109,-21,64,-6
11750,-13,-237,-108,-20,64,-6
11755,-12,-235,-110,-17,63,-6
11760,-14,-234,-108,-15,62,-6
11765,-13,-232,-111,-15,63,-6
11770,-14,-241,-105,-16,63,-5
11775,-14,-235,-111,-16,65,-5
11780,-15,-235,-108,-16,68,-4
11785,-13,-234,-108,-15,68,-3
11790,-13,-235,-108,-17,69,-1
11795,-13,-233,-106,-15,71,-2
11800,-16,-234,-108,-15,70,-3
11805,-12,-235,-108,-15,69,-2
11810,-12,-234,-107,-16,69,-4
11815,-12,-232,-107,-16,68,-3
11820,-14,-232,-106,-18,67,-3
11825,-14,-232,-107,-19,66,-4
11830,-15,-231,-107,-21,66,-3
11835,-18,-233,-109,-22,67,-4
11840,-11,-235,-107,-24,67,-6
11845,-14,-232,-108,-25,66,-6
11850,-13,-233,-107,-26,68,-4
11855,-15,-233,-110,-26,68,-5
11860,-15,-234,-106,-26,68,-3
11865,-14,-235,-110,-23,68,-4
11870,-13,-233,-108,-23,68,-4
11875,-12,-237,-107,-23,68,-4
11880,-12,-235,-110,-23,69,-5
11885,-13,-233,-109,-23,67,-4
11890,-15,-231,-110,-23,67,-5
11895,-13,-235,-110,-23,66,-5
11900,-13,-236,-107,-23,66,-5
11905,-13,-233,-108,-24,66,-5
11910,-11,-233,-106,-25,66,-3
11915,-13,-234,-108,-25,67,-4
11920,-13,-235,-105,-26,65,-5
11925,-15,-233,-108,-28,68,-5
11930,-12,-235,-107,-31,67,-6
11935,-17,-230,-107,-31,67,-5
11940,-12,-236,-109,-33,67,-6
11945,-14,-235,-110,-32,67,-6
11950,-15,-234,-109,-32,68,-6
11955,-14,-234,-107,-33,65,-6
11960,-13,-236,-111,-32,64,-7
11965,-16,-231,-112,-30,64,-7
11970,-16,-236,-111,-29,62,-7
11975,-12,-231,-108,-27,62,-8
11980,-17,-235,-110,-27,61,-7
11985,-14,-234,-111,-26,63,-7
11990,-13,-232,-110,-26,63,-5
11995,-14,-231,-111,-26,64,-5
