timestamp,acc_x,acc_y,acc_z,gyro_x,gyro_y,gyro_z
0,37,-257,-62,-24,19,-12
5,39,-259,-63,-27,19,-9
10,41,-261,-61,-28,19,-9
15,37,-258,-61,-33,20,-10
20,34,-257,-63,-39,20,-8
25,35,-257,-65,-45,22,-9
30,38,-261,-63,-54,23,-8
35,36,-259,-57,-57,23,-8
40,36,-261,-60,-59,23,-7
45,37,-259,-60,-61,23,-8
50,37,-259,-61,-60,23,-8
55,39,-261,-61,-62,22,-9
60,37,-264,-62,-61,21,-9
65,38,-263,-61,-58,19,-8
70,33,-258,-59,-58,16,-9
75,40,-260,-65,-55,15,-10
80,40,-260,-62,-51,14,-10
85,36,-258,-60,-53,14,-10
90,37,-261,-63,-50,13,-8
95,38,-261,-60,-50,14,-7
100,36,-260,-62,-51,14,-8
105,38,-259,-63,-51,15,-8
110,38,-260,-63,-50,14,-10
115,38,-258,-61,-50,16,-11
120,35,-263,-63,-48,15,-11
125,38,-263,-62,-49,15,-10
130,34,-261,-57,-50,15,-10
135,37,-261,-63,-48,16,-11
140,35,-257,-62,-46,18,-10
145,40,-260,-63,-41,18,-9
150,40,-261,-60,-39,18,-8
155,39,-259,-62,-39,17,-6
160,39,-262,-61,-39,14,-4
165,40,-261,-61,-40,10,-4
170,36,-258,-59,-41,6,-3
175,36,-263,-64,-42,4,-3
180,38,-261,-61,-39,4,-4
185,42,-261,-61,-37,3,-3
190,38,-258,-66,-36,2,-5
195,38,-258,-63,-35,4,-7
200,35,-258,-60,-37,7,-7
205,37,-258,-60,-37,9,-9
210,38,-257,-64,-43,10,-12
215,41,-259,-61,-49,14,-11
220,38,-262,-62,-55,16,-12
225,40,-262,-63,-62,17,-12
230,40,-261,-65,-70,18,-14
235,36,-263,-59,-75,17,-12
240,40,-261,-69,-76,19,-10
245,36,-264,-59,-74,21,-10
250,34,-266,-59,-71,20,-10
255,35,-262,-62,-66,23,-8
260,37,-264,-59,-59,25,-8
265,38,-263,-57,-49,25,-6
270,37,-262,-62,-40,25,-6
275,38,-261,-59,-32,22,-8
280,37,-264,-59,-27,24,-9
285,35,-260,-65,-22,21,-7
290,34,-254,-62,-21,18,-9
295,41,-265,-59,-23,18,-8
300,39,-258,-62,-24,16,-8
305,37,-260,-62,-27,18,-8
310,42,-258,-63,-32,17,-7
315,38,-259,-65,-37,18,-8
320,38,-259,-61,-38,17,-7
325,38,-260,-61,-41,18,-6
330,41,-262,-64,-43,19,-6
335,36,-260,-62,-44,18,-7
340,37,-259,-61,-43,16,-6
345,38,-259,-65,-43,14,-7
350,29,-262,-63,-44,12,-7
355,37,-261,-60,-41,9,-7
360,35,-261,-61,-40,9,-7
365,36,-259,-64,-37,7,-6
370,36,-260,-60,-35,8,-8
375,37,-260,-63,-33,10,-9
380,37,-260,-59,-33,9,-9
385,38,-260,-61,-29,9,-9
390,34,-259,-60,-30,10,-10
395,39,-257,-64,-32,11,-12
400,39,-260,-62,-32,13,-11
405,39,-260,-58,-33,12,-12
410,36,-260,-60,-38,13,-10
415,38,-258,-61,-42,15,-11
420,41,-261,-62,-43,17,-9
425,40,-261,-61,-48,17,-7
430,38,-260,-63,-50,19,-6
435,36,-260,-64,-52,19,-6
440,37,-258,-58,-54,21,-4
445,35,-261,-63,-53,20,-3
450,37,-259,-62,-54,24,-3
455,40,-260,-56,-54,22,-3
460,39,-261,-65,-53,25,-3
465,39,-260,-63,-52,25,-5
470,40,-260,-63,-51,26,-4
475,35,-258,-64,-52,26,-5
480,37,-259,-63,-52,27,-7
485,37,-261,-63,-52,25,-7
490,37,-260,-64,-52,25,-8
495,40,-258,-65,-52,24,-10
500,37,-262,-61,-51,24,-10
505,36,-260,-63,-50,24,-12
510,41,-259,-63,-50,24,-12
515,41,-262,-61,-44,24,-12
520,39,-262,-61,-42,23,-12
525,37,-259,-61,-37,23,-11
530,37,-258,-63,-34,23,-11
535,38,-260,-59,-31,25,-11
540,37,-262,-62,-29,24,-9
545,41,-263,-64,-29,23,-10
550,37,-260,-61,-32,22,-9
555,37,-258,-62,-35,22,-8
560,35,-259,-65,-39,21,-7
565,45,-255,-58,-41,22,-6
570,36,-257,-60,-46,21,-5
575,37,-261,-64,-50,20,-7
580,37,-260,-61,-52,20,-5
585,37,-259,-62,-55,20,-6
590,36,-261,-65,-59,18,-4
595,37,-257,-65,-64,17,-4
600,37,-258,-62,-67,14,-5
605,34,-259,-62,-70,12,-5
610,37,-261,-62,-71,8,-6
615,37,-261,-64,-72,6,-7
620,36,-264,-59,-70,3,-7
625,37,-262,-62,-71,1,-8
630,36,-262,-63,-72,0,-5
635,36,-261,-64,-72,0,-6
640,34,-261,-64,-72,-1,-8
645,34,-262,-63,-72,-1,-9
650,33,-261,-61,-66,0,-8
655,34,-260,-61,-62,-1,-11
660,35,-259,-59,-59,-1,-10
665,41,-259,-58,-53,0,-12
670,36,-259,-63,-50,0,-12
675,33,-266,-65,-45,1,-11
680,40,-262,-63,-42,1,-11
685,39,-259,-65,-39,1,-11
690,40,-258,-61,-37,1,-10
695,38,-258,-62,-36,0,-10
700,41,-258,-62,-39,-1,-9
705,41,-258,-63,-41,0,-9
710,43,-260,-58,-41,0,-7
715,41,-262,-61,-42,-1,-7
720,36,-259,-60,-41,0,-3
725,41,-258,-58,-38,3,-4
730,39,-258,-57,-37,8,-5
735,40,-258,-58,-38,11,-5
740,38,-258,-61,-41,16,-7
745,39,-262,-59,-45,21,-7
750,41,-263,-60,-53,27,-10
755,41,-259,-61,-60,29,-10
760,37,-257,-64,-66,31,-12
765,38,-262,-59,-76,34,-11
770,40,-263,-62,-83,35,-10
775,39,-261,-59,-88,36,-9
780,36,-263,-61,-89,36,-7
785,39,-260,-66,-86,34,-5
790,38,-266,-59,-79,34,-5
795,39,-267,-58,-71,33,-4
800,39,-263,-61,-60,31,-3
805,37,-263,-62,-49,29,-1
810,39,-262,-61,-39,29,-1
815,41,-261,-61,-30,28,-4
820,37,-259,-63,-27,28,-3
825,40,-261,-66,-23,28,-3
830,37,-259,-66,-27,27,-4
835,34,-262,-65,-30,30,-3
840,39,-258,-66,-41,28,-3
845,38,-258,-64,-52,27,-1
850,39,-256,-62,-64,24,-1
855,39,-259,-64,-74,22,-1
860,39,-262,-58,-81,20,-2
865,36,-259,-66,-87,20,-3
870,39,-262,-64,-88,20,-4
875,42,-264,-63,-86,21,-5
880,39,-264,-63,-80,22,-5
885,38,-267,-58,-72,21,-7
890,38,-269,-65,-61,19,-7
895,39,-263,-63,-52,14,-8
900,34,-260,-65,-41,7,-9
905,37,-264,-66,-34,3,-11
910,37,-261,-65,-26,-4,-11
915,37,-260,-67,-23,-5,-11
920,35,-257,-64,-25,-6,-9
925,38,-259,-65,-28,-7,-9
930,39,-258,-66,-29,-7,-7
935,39,-262,-60,-35,-7,-7
940,37,-257,-70,-40,-4,-6
945,36,-257,-68,-43,-1,-6
950,41,-261,-61,-48,1,-6
955,40,-259,-64,-53,4,-5
960,39,-259,-62,-56,9,-6
965,42,-260,-63,-59,12,-7
970,40,-260,-61,-59,16,-7
975,39,-263,-60,-58,20,-8
980,36,-261,-63,-55,23,-10
985,40,-262,-64,-52,24,-12
990,38,-261,-65,-50,25,-12
995,38,-262,-61,-46,26,-15
1000,43,-260,-57,-44,25,-17
1005,41,-262,-65,-43,25,-17
1010,36,-260,-64,-44,26,-18
1015,42,-259,-64,-46,26,-17
1020,38,-258,-60,-47,26,-17
1025,39,-260,-64,-49,27,-19
1030,39,-263,-60,-52,29,-20
1035,39,-262,-63,-53,31,-17
1040,41,-261,-63,-52,33,-17
1045,41,-259,-61,-51,36,-17
1050,36,-259,-60,-49,38,-16
1055,42,-264,-64,-46,40,-14
1060,38,-259,-61,-44,40,-13
1065,41,-258,-60,-43,40,-11
1070,39,-260,-63,-40,40,-10
1075,41,-264,-57,-36,39,-11
1080,40,-262,-60,-34,38,-10
1085,41,-260,-62,-31,37,-10
1090,38,-261,-59,-29,39,-10
1095,39,-261,-57,-27,39,-11
1100,40,-261,-60,-27,41,-11
1105,40,-259,-58,-27,43,-12
1110,39,-261,-64,-29,44,-13
1115,37,-261,-60,-31,44,-14
1120,41,-260,-64,-32,45,-15
1125,39,-259,-58,-33,46,-15
1130,40,-260,-61,-35,46,-16
1135,41,-264,-59,-37,45,-17
1140,40,-261,-59,-38,41,-16
1145,39,-263,-57,-38,39,-15
1150,35,-263,-55,-34,35,-14
1155,36,-261,-62,-31,32,-15
1160,38,-261,-66,-27,29,-15
1165,35,-263,-60,-22,29,-15
1170,35,-262,-64,-21,31,-15
1175,38,-259,-62,-19,32,-15
1180,35,-261,-63,-18,34,-15
1185,38,-262,-63,-20,37,-15
1190,36,-258,-62,-19,41,-17
1195,37,-258,-60,-19,44,-17
1200,37,-258,-61,-18,46,-19
1205,41,-258,-60,-21,47,-20
1210,41,-259,-63,-20,50,-20
1215,41,-262,-65,-21,52,-22
1220,40,-259,-63,-19,53,-22
1225,39,-260,-61,-19,53,-19
1230,41,-258,-60,-21,53,-20
1235,43,-258,-62,-23,51,-20
1240,40,-260,-64,-27,52,-21
1245,43,-262,-62,-33,50,-20
1250,40,-259,-63,-36,48,-20
1255,39,-261,-63,-41,49,-17
1260,38,-258,-66,-47,47,-16
1265,45,-265,-63,-49,46,-14
1270,48,-261,-63,-47,46,-13
1275,40,-261,-63,-43,47,-14
1280,41,-259,-62,-38,50,-15
1285,40,-260,-63,-36,54,-14
1290,40,-259,-62,-36,58,-15
1295,41,-261,-61,-41,60,-14
1300,37,-259,-60,-46,62,-14
1305,39,-261,-64,-51,65,-14
1310,40,-264,-58,-57,65,-13
1315,39,-261,-62,-61,65,-11
1320,39,-263,-60,-63,64,-11
1325,37,-264,-61,-62,64,-11
1330,40,-260,-59,-58,64,-7
1335,37,-261,-58,-52,65,-7
1340,39,-264,-62,-45,65,-5
1345,43,-258,-63,-40,67,-4
1350,40,-260,-63,-37,67,-5
1355,41,-258,-61,-36,70,-7
1360,39,-259,-65,-35,74,-7
1365,38,-258,-62,-36,78,-10
1370,43,-258,-57,-39,86,-11
1375,41,-259,-62,-41,92,-12
1380,44,-257,-56,-46,99,-12
1385,41,-256,-62,-49,105,-13
1390,42,-257,-62,-55,109,-12
1395,43,-258,-61,-61,111,-14
1400,44,-259,-62,-63,111,-14
1405,41,-255,-61,-68,112,-15
1410,40,-259,-63,-71,111,-15
1415,40,-259,-65,-76,110,-16
1420,41,-260,-65,-77,107,-16
1425,38,-261,-62,-78,104,-15
1430,41,-263,-64,-79,104,-15
1435,41,-262,-63,-76,103,-15
1440,41,-262,-63,-73,103,-14
1445,41,-261,-63,-70,105,-14
1450,40,-263,-62,-67,107,-13
1455,41,-259,-64,-62,108,-13
1460,40,-263,-63,-57,107,-12
1465,40,-262,-62,-52,110,-11
1470,39,-258,-62,-48,112,-8
1475,39,-261,-63,-45,113,-8
1480,43,-262,-60,-42,116,-7
1485,39,-261,-59,-40,118,-6
1490,40,-260,-61,-41,119,-6
1495,41,-260,-62,-43,122,-7
1500,35,-257,-63,-43,124,-6
1505,39,-259,-63,-45,126,-6
1510,40,-259,-64,-45,126,-8
1515,38,-259,-63,-48,126,-8
1520,37,-259,-61,-52,125,-9
1525,39,-259,-62,-53,125,-8
1530,38,-261,-65,-55,125,-12
1535,39,-261,-63,-55,124,-13
1540,38,-260,-57,-55,124,-14
1545,34,-256,-69,-56,125,-16
1550,36,-259,-59,-57,128,-17
1555,38,-261,-59,-59,129,-18
1560,37,-259,-61,-60,130,-17
1565,35,-258,-63,-62,131,-18
1570,36,-259,-62,-64,130,-17
1575,35,-257,-62,-64,130,-18
1580,39,-258,-61,-67,127,-19
1585,38,-261,-62,-70,123,-19
1590,39,-259,-60,-71,120,-18
1595,40,-265,-62,-71,116,-17
1600,39,-262,-63,-70,112,-17
1605,38,-261,-61,-66,108,-17
1610,42,-262,-64,-62,106,-16
1615,40,-262,-60,-57,101,-16
1620,39,-261,-63,-52,99,-16
1625,36,-260,-62,-50,98,-15
1630,42,-261,-60,-47,94,-17
1635,39,-262,-59,-44,94,-18
1640,35,-261,-64,-42,93,-18
1645,40,-261,-59,-43,92,-20
1650,33,-261,-63,-38,94,-19
1655,41,-259,-60,-38,95,-20
1660,37,-261,-60,-37,98,-20
1665,39,-257,-62,-36,97,-20
1670,39,-260,-64,-37,99,-19
1675,38,-257,-63,-39,98,-19
1680,39,-259,-61,-40,97,-19
1685,41,-262,-62,-42,97,-18
1690,39,-257,-56,-47,97,-18
1695,37,-260,-60,-50,94,-20
1700,38,-260,-61,-54,93,-19
1705,38,-261,-60,-54,93,-19
1710,39,-263,-60,-57,93,-18
1715,39,-262,-61,-56,93,-19
1720,38,-261,-61,-54,92,-19
1725,38,-261,-61,-53,93,-20
1730,36,-258,-57,-51,92,-20
1735,39,-262,-57,-47,90,-21
1740,38,-261,-58,-44,91,-23
1745,37,-258,-59,-41,90,-25
1750,41,-261,-63,-41,91,-25
1755,37,-256,-64,-41,91,-26
1760,40,-258,-59,-43,89,-25
1765,41,-256,-60,-46,88,-24
1770,38,-256,-61,-51,85,-25
1775,39,-258,-61,-55,81,-23
1780,39,-256,-62,-62,77,-23
1785,40,-259,-60,-68,72,-22
1790,38,-256,-60,-72,67,-18
1795,43,-258,-61,-74,62,-15
1800,40,-258,-62,-74,59,-14
1805,41,-257,-60,-72,57,-14
1810,40,-259,-60,-72,56,-14
1815,28,-257,-58,-70,54,-14
1820,48,-261,-61,-72,54,-13
1825,43,-260,-63,-78,54,-11
1830,43,-258,-60,-83,55,-10
1835,43,-260,-63,-85,54,-9
1840,43,-260,-65,-90,54,-7
1845,40,-263,-63,-92,55,-8
1850,43,-261,-63,-91,54,-8
1855,40,-265,-61,-90,57,-7
1860,41,-263,-64,-87,57,-7
1865,39,-261,-64,-81,60,-8
1870,42,-265,-63,-73,61,-9
1875,41,-261,-64,-66,64,-11
1880,40,-261,-63,-58,68,-10
1885,42,-258,-64,-50,70,-14
1890,45,-260,-62,-46,72,-13
1895,45,-259,-65,-43,74,-14
1900,42,-256,-62,-43,76,-14
1905,44,-256,-63,-45,76,-14
1910,44,-260,-60,-46,75,-14
1915,44,-254,-59,-50,75,-15
1920,48,-257,-60,-53,73,-12
1925,48,-257,-65,-58,70,-9
1930,41,-257,-61,-65,67,-8
1935,43,-258,-63,-72,66,-6
1940,42,-259,-62,-77,62,-5
1945,40,-257,-63,-83,59,-5
1950,42,-260,-61,-87,57,-4
1955,40,-258,-62,-88,54,-3
1960,39,-261,-63,-89,50,-3
1965,38,-261,-61,-89,46,-4
1970,38,-261,-58,-85,43,-7
1975,40,-261,-60,-82,40,-10
1980,35,-257,-61,-75,39,-12
1985,37,-264,-63,-69,38,-15
1990,40,-262,-62,-64,38,-15
1995,39,-260,-64,-58,37,-17
2000,41,-257,-61,-55,35,-18
2005,38,-258,-60,-53,34,-18
2010,37,-257,-62,-54,33,-18
2015,41,-259,-64,-58,31,-19
2020,39,-263,-65,-61,30,-16
2025,40,-260,-65,-64,29,-16
2030,41,-257,-66,-67,28,-15
2035,41,-256,-64,-69,26,-13
2040,41,-259,-61,-73,26,-13
2045,41,-258,-63,-74,24,-13
2050,42,-258,-62,-74,23,-13
2055,41,-259,-63,-75,21,-13
2060,43,-259,-64,-73,19,-13
2065,42,-260,-63,-69,17,-13
2070,42,-259,-59,-67,16,-14
2075,43,-258,-63,-65,14,-15
2080,43,-259,-63,-65,12,-17
2085,42,-261,-60,-63,11,-19
2090,45,-258,-64,-63,11,-19
2095,41,-256,-65,-67,10,-19
2100,43,-259,-63,-69,10,-19
2105,41,-259,-66,-73,9,-19
2110,40,-257,-65,-77,7,-18
2115,39,-259,-62,-80,6,-18
2120,39,-262,-65,-83,3,-15
2125,42,-259,-64,-81,0,-14
2130,41,-262,-69,-81,-2,-13
2135,43,-262,-59,-80,-4,-14
2140,38,-264,-59,-76,-7,-12
2145,44,-260,-62,-72,-8,-11
2150,43,-261,-64,-71,-7,-11
2155,43,-261,-65,-68,-7,-11
2160,42,-260,-65,-66,-6,-10
2165,42,-262,-65,-65,-4,-11
2170,41,-259,-65,-65,0,-11
2175,44,-259,-63,-66,3,-10
2180,42,-262,-62,-65,7,-11
2185,39,-259,-65,-65,11,-11
2190,43,-260,-63,-65,14,-12
2195,43,-261,-67,-62,15,-11
2200,44,-259,-61,-65,16,-12
2205,44,-256,-64,-67,16,-11
2210,41,-258,-64,-69,16,-10
2215,41,-256,-64,-74,15,-9
2220,42,-258,-65,-80,15,-8
2225,44,-260,-67,-85,11,-7
2230,40,-259,-66,-88,9,-6
2235,45,-261,-64,-91,8,-5
2240,42,-260,-64,-94,8,-5
2245,46,-255,-65,-100,6,-4
2250,44,-260,-69,-103,6,-5
2255,42,-262,-68,-107,7,-5
2260,44,-261,-66,-110,7,-6
2265,45,-259,-66,-113,9,-8
2270,47,-263,-65,-111,7,-7
2275,45,-262,-64,-110,7,-8
2280,43,-262,-66,-108,8,-10
2285,40,-262,-67,-101,9,-11
2290,43,-262,-68,-92,10,-11
2295,49,-265,-64,-83,11,-11
2300,47,-262,-69,-73,12,-12
2305,46,-262,-62,-65,9,-14
2310,45,-264,-67,-56,6,-16
2315,46,-263,-67,-48,2,-16
2320,42,-261,-67,-39,0,-18
2325,43,-263,-67,-32,-2,-19
2330,41,-261,-67,-24,-3,-19
2335,41,-259,-68,-20,-3,-20
2340,41,-262,-64,-16,-4,-21
2345,41,-257,-64,-14,-1,-20
2350,43,-259,-67,-15,0,-20
2355,43,-263,-71,-16,1,-20
2360,43,-260,-65,-21,3,-19
2365,44,-259,-64,-29,4,-20
2370,44,-258,-64,-37,6,-20
2375,41,-261,-65,-44,9,-17
2380,41,-257,-63,-51,10,-17
2385,44,-260,-64,-55,12,-16
2390,42,-259,-66,-59,12,-16
2395,40,-260,-64,-64,13,-13
2400,45,-260,-63,-66,13,-14
2405,43,-258,-66,-68,13,-12
2410,41,-259,-65,-68,16,-11
2415,46,-261,-63,-69,18,-10
2420,44,-258,-63,-69,18,-10
2425,44,-259,-64,-68,18,-11
2430,42,-258,-65,-70,15,-10
2435,44,-257,-68,-70,11,-9
2440,44,-258,-66,-74,8,-10
2445,45,-256,-68,-78,7,-10
2450,45,-258,-65,-81,4,-10
2455,45,-258,-65,-84,3,-10
2460,47,-257,-67,-85,3,-10
2465,41,-257,-63,-88,1,-10
2470,43,-260,-68,-90,1,-10
2475,42,-260,-71,-90,0,-9
2480,43,-260,-70,-88,2,-9
2485,40,-259,-65,-84,4,-9
2490,42,-260,-67,-80,5,-10
2495,40,-262,-66,-74,6,-10
2500,43,-262,-65,-69,6,-10
2505,43,-260,-71,-66,7,-12
2510,41,-260,-67,-67,8,-11
2515,43,-256,-63,-65,12,-12
2520,42,-259,-59,-64,14,-12
2525,40,-256,-68,-65,17,-11
2530,43,-259,-64,-70,19,-10
2535,44,-257,-66,-76,18,-10
2540,43,-259,-67,-83,21,-11
2545,45,-259,-66,-88,24,-12
2550,45,-260,-66,-89,25,-13
2555,45,-259,-69,-91,27,-14
2560,46,-261,-69,-93,28,-14
2565,46,-259,-67,-92,28,-14
2570,46,-259,-70,-91,29,-15
2575,39,-256,-78,-91,29,-14
2580,43,-257,-70,-90,29,-12
2585,45,-258,-68,-89,30,-13
2590,45,-260,-74,-85,30,-13
2595,46,-259,-69,-83,32,-11
2600,45,-260,-67,-79,34,-10
2605,44,-260,-69,-76,37,-10
2610,44,-257,-69,-71,40,-13
2615,43,-259,-70,-68,42,-11
2620,43,-259,-67,-67,44,-12
2625,39,-259,-71,-65,44,-14
2630,39,-264,-77,-69,44,-16
2635,42,-259,-68,-72,43,-16
2640,41,-257,-68,-77,43,-17
2645,41,-257,-66,-82,41,-17
2650,43,-257,-67,-86,39,-20
2655,46,-260,-67,-90,38,-20
2660,40,-258,-65,-94,36,-21
2665,44,-258,-70,-93,34,-23
2670,42,-258,-69,-92,32,-21
2675,43,-258,-69,-91,34,-22
2680,45,-262,-70,-87,33,-23
2685,42,-259,-61,-84,33,-24
2690,43,-259,-70,-79,35,-23
2695,45,-257,-66,-80,35,-23
2700,42,-258,-68,-79,35,-22
2705,39,-256,-70,-80,36,-22
2710,43,-257,-73,-83,36,-21
2715,40,-254,-70,-87,37,-19
2720,43,-256,-70,-93,37,-19
2725,46,-259,-70,-99,38,-19
2730,42,-257,-69,-103,38,-17
2735,46,-258,-71,-107,40,-17
2740,44,-264,-70,-108,40,-16
2745,43,-258,-75,-109,42,-16
2750,45,-259,-74,-106,40,-15
2755,43,-259,-72,-102,39,-17
2760,46,-262,-75,-97,37,-19
2765,45,-260,-68,-93,35,-20
2770,45,-262,-71,-88,35,-23
2775,43,-259,-70,-81,30,-23
2780,43,-264,-70,-79,28,-26
2785,45,-261,-73,-78,28,-28
2790,44,-259,-73,-77,28,-29
2795,39,-260,-71,-78,29,-30
2800,41,-259,-67,-79,31,-29
2805,44,-258,-72,-80,32,-29
2810,42,-260,-69,-82,34,-29
2815,44,-262,-72,-81,36,-28
2820,42,-258,-71,-82,38,-27
2825,42,-261,-72,-83,39,-27
2830,42,-258,-74,-84,40,-25
2835,42,-261,-73,-83,43,-25
2840,44,-262,-74,-78,43,-24
2845,44,-261,-77,-74,44,-25
2850,45,-263,-76,-69,45,-22
2855,44,-263,-70,-62,45,-23
2860,43,-261,-75,-57,42,-22
2865,44,-263,-72,-51,40,-23
2870,46,-262,-71,-44,37,-22
2875,47,-263,-72,-37,36,-21
2880,42,-262,-70,-28,35,-20
2885,44,-259,-73,-21,35,-18
2890,47,-261,-72,-15,37,-16
2895,45,-259,-74,-14,41,-13
2900,44,-261,-71,-11,42,-13
2905,45,-260,-70,-12,44,-11
2910,41,-258,-70,-16,44,-9
2915,44,-257,-70,-23,44,-7
2920,40,-257,-68,-31,44,-5
2925,42,-258,-73,-40,44,-6
2930,42,-256,-69,-49,45,-5
2935,44,-260,-71,-56,44,-4
2940,42,-258,-67,-63,43,-4
2945,45,-261,-68,-64,40,-4
2950,41,-259,-66,-64,38,-4
2955,45,-260,-64,-62,36,-5
2960,41,-257,-71,-59,33,-6
2965,41,-256,-69,-56,30,-7
2970,42,-259,-70,-51,29,-7
2975,42,-258,-72,-49,26,-8
2980,43,-259,-74,-42,24,-7
2985,45,-259,-71,-39,20,-6
2990,44,-263,-74,-35,18,-6
2995,42,-259,-71,-33,15,-5
3000,43,-259,-73,-30,12,-5
3005,45,-261,-73,-27,10,-3
3010,40,-262,-67,-26,9,-3
3015,43,-259,-75,-22,8,-1
3020,44,-261,-73,-16,9,-1
3025,47,-262,-71,-14,9,0
3030,45,-260,-72,-12,8,0
3035,44,-259,-72,-11,9,-1
3040,43,-260,-71,-8,12,-1
3045,42,-257,-70,-3,11,-4
3050,43,-257,-69,-3,12,-7
3055,44,-258,-70,-1,11,-10
3060,47,-256,-72,1,14,-12
3065,42,-256,-68,0,15,-16
3070,43,-256,-74,-2,16,-16
3075,47,-258,-69,-3,18,-16
3080,44,-257,-65,-7,17,-17
3085,46,-259,-71,-10,16,-17
3090,48,-254,-66,-18,13,-15
3095,42,-255,-70,-26,14,-16
3100,45,-254,-70,-37,14,-12
3105,46,-253,-70,-48,14,-8
3110,44,-250,-65,-58,13,-5
3115,45,-253,-68,-67,14,-2
3120,47,-257,-71,-75,12,0
3125,43,-258,-72,-81,12,2
3130,46,-256,-70,-80,14,2
3135,44,-261,-67,-78,14,3
3140,47,-261,-67,-74,14,1
3145,45,-260,-69,-67,12,0
3150,46,-260,-71,-61,12,-3
3155,44,-262,-68,-53,15,-3
3160,44,-257,-67,-48,17,-5
3165,43,-260,-71,-44,19,-6
3170,46,-258,-68,-41,21,-9
3175,45,-258,-69,-40,22,-10
3180,45,-255,-70,-37,23,-11
3185,46,-260,-71,-38,21,-12
3190,44,-256,-70,-41,21,-11
3195,44,-258,-69,-44,19,-10
3200,44,-257,-67,-47,19,-10
3205,45,-258,-66,-51,19,-10
3210,43,-259,-68,-58,18,-9
3215,44,-259,-70,-61,19,-10
3220,44,-258,-68,-64,20,-8
3225,44,-259,-72,-67,21,-8
3230,43,-263,-62,-69,21,-8
3235,46,-257,-69,-68,23,-8
3240,46,-259,-69,-66,24,-8
3245,43,-257,-70,-63,26,-9
3250,47,-260,-70,-63,26,-9
3255,44,-259,-69,-61,26,-8
3260,45,-259,-70,-59,26,-8
3265,46,-262,-72,-59,28,-8
3270,48,-261,-68,-58,26,-8
3275,48,-261,-66,-55,25,-8
3280,46,-261,-67,-52,24,-6
3285,54,-261,-70,-50,22,-8
3290,49,-266,-71,-43,20,-9
3295,48,-261,-73,-37,17,-9
3300,46,-261,-71,-30,17,-8
3305,45,-264,-71,-25,17,-6
3310,48,-261,-69,-19,15,-7
3315,44,-260,-68,-13,14,-8
3320,46,-263,-71,-11,13,-8
3325,47,-260,-69,-10,14,-11
3330,43,-255,-70,-11,16,-10
3335,43,-251,-71,-13,19,-11
3340,46,-257,-68,-19,21,-11
3345,44,-256,-67,-24,24,-9
3350,44,-257,-69,-31,24,-9
3355,45,-256,-65,-38,27,-10
3360,46,-256,-68,-45,30,-11
3365,45,-258,-67,-51,33,-12
3370,43,-257,-66,-56,36,-12
3375,45,-258,-68,-57,36,-13
3380,44,-257,-64,-54,38,-13
3385,43,-262,-69,-54,39,-14
3390,44,-260,-66,-49,39,-15
3395,45,-261,-70,-46,35,-14
3400,47,-260,-74,-44,32,-14
3405,44,-256,-67,-43,28,-14
3410,45,-260,-71,-41,21,-12
3415,43,-257,-70,-40,15,-13
3420,45,-259,-68,-42,11,-13
3425,43,-262,-68,-40,8,-10
3430,45,-261,-73,-38,5,-10
3435,45,-262,-72,-36,3,-9
3440,46,-263,-69,-35,6,-10
3445,51,-263,-72,-35,6,-12
3450,46,-261,-69,-35,9,-12
3455,45,-260,-71,-39,11,-13
3460,46,-258,-69,-41,14,-13
3465,48,-259,-71,-42,16,-12
3470,48,-261,-71,-45,18,-13
3475,45,-260,-69,-44,20,-13
3480,49,-262,-68,-47,21,-13
3485,48,-260,-69,-45,22,-13
3490,44,-262,-67,-42,22,-11
3495,46,-259,-67,-36,22,-10
3500,45,-260,-67,-30,20,-11
3505,43,-257,-65,-25,21,-11
3510,45,-258,-72,-21,23,-12
3515,45,-256,-67,-20,20,-11
3520,48,-258,-70,-21,20,-11
3525,43,-257,-68,-23,18,-11
3530,47,-256,-68,-28,17,-11
3535,44,-256,-69,-35,15,-12
3540,44,-257,-72,-42,14,-10
3545,43,-256,-72,-52,13,-10
3550,47,-257,-67,-58,11,-9
3555,44,-258,-76,-63,11,-7
3560,46,-261,-71,-65,9,-7
3565,43,-260,-67,-65,9,-7
3570,47,-259,-70,-63,8,-6
3575,46,-261,-72,-56,7,-7
3580,45,-261,-70,-51,6,-7
3585,45,-259,-69,-44,4,-9
3590,41,-261,-71,-36,4,-10
3595,45,-263,-71,-29,5,-11
3600,46,-261,-71,-23,3,-12
3605,42,-264,-67,-21,4,-13
3610,44,-260,-73,-16,5,-14
3615,45,-259,-69,-15,5,-14
3620,47,-262,-68,-15,6,-14
3625,47,-258,-70,-17,6,-14
3630,46,-258,-73,-22,7,-13
3635,44,-259,-71,-29,9,-12
3640,47,-259,-68,-35,10,-12
3645,45,-257,-69,-38,10,-12
3650,44,-257,-69,-40,10,-11
3655,47,-257,-68,-40,11,-10
3660,47,-259,-69,-41,12,-10
3665,43,-259,-66,-41,14,-10
3670,45,-259,-68,-38,16,-9
3675,48,-257,-74,-38,17,-10
3680,47,-258,-72,-38,18,-9
3685,47,-257,-69,-37,19,-10
3690,45,-257,-66,-37,19,-11
3695,49,-259,-67,-38,21,-11
3700,42,-257,-67,-39,19,-11
3705,44,-259,-66,-41,19,-13
3710,45,-259,-67,-41,18,-11
3715,47,-258,-71,-46,18,-12
3720,40,-256,-77,-49,17,-10
3725,43,-258,-71,-53,18,-10
3730,45,-260,-70,-52,17,-12
3735,44,-259,-71,-52,18,-10
3740,45,-259,-69,-52,19,-11
3745,43,-260,-68,-49,19,-11
3750,46,-261,-72,-46,18,-12
3755,43,-259,-71,-44,18,-10
3760,48,-260,-65,-40,16,-10
3765,44,-259,-71,-36,16,-10
3770,44,-259,-64,-33,16,-11
3775,45,-259,-69,-29,15,-11
3780,47,-262,-69,-27,17,-11
3785,46,-260,-71,-28,18,-12
3790,50,-258,-69,-31,22,-10
3795,51,-261,-69,-39,24,-9
3800,49,-257,-68,-51,28,-8
3805,47,-259,-69,-63,33,-6
3810,47,-259,-71,-80,37,-3
3815,49,-259,-69,-101,39,1
3820,50,-262,-73,-128,39,9
3825,48,-266,-71,-160,31,18
3830,41,-265,-71,-188,19,29
3835,42,-269,-75,-211,2,40
3840,44,-274,-74,-225,-21,49
3845,45,-275,-75,-217,-46,54
3850,45,-274,-79,-185,-72,52
3855,45,-281,-74,-131,-95,42
3860,45,-278,-81,-55,-118,28
3865,45,-280,-80,29,-143,13
3870,40,-278,-88,112,-169,-1
3875,46,-273,-86,183,-190,-11
3880,50,-267,-85,234,-199,-15
3885,44,-260,-82,262,-194,-18
3890,44,-255,-83,264,-172,-20
3895,46,-252,-79,241,-134,-16
3900,46,-250,-72,205,-92,-12
3905,47,-248,-70,162,-48,-7
3910,48,-252,-70,122,-6,-7
3915,47,-256,-67,89,30,-7
3920,48,-255,-64,64,60,-11
3925,46,-259,-64,52,80,-16
3930,51,-257,-61,49,90,-24
3935,48,-259,-64,55,89,-29
3940,47,-256,-60,66,78,-30
3945,47,-257,-62,81,59,-33
3950,45,-254,-58,89,38,-31
3955,41,-251,-66,91,17,-31
3960,42,-249,-67,82,0,-26
3965,41,-247,-71,62,-14,-23
3970,38,-245,-75,39,-27,-16
3975,40,-243,-79,8,-36,-11
3980,37,-246,-79,-24,-45,-6
3985,38,-248,-85,-55,-53,-6
3990,38,-244,-82,-77,-55,-1
3995,38,-244,-83,-105,-53,0
4000,40,-248,-89,-127,-50,3
4005,39,-248,-96,-147,-47,6
4010,41,-254,-99,-157,-48,8
4015,41,-255,-101,-163,-52,13
4020,40,-252,-105,-176,-59,15
4025,46,-253,-107,-199,-71,16
4030,43,-250,-106,-230,-92,16
4035,46,-249,-101,-260,-118,8
4040,49,-244,-97,-284,-146,-5
4045,47,-248,-91,-302,-168,-16
4050,47,-246,-95,-311,-182,-27
4055,48,-245,-94,-314,-186,-40
4060,45,-247,-99,-312,-189,-50
4065,41,-250,-101,-304,-193,-58
4070,42,-249,-108,-297,-200,-64
4075,38,-249,-113,-293,-207,-67
4080,42,-250,-114,-292,-214,-70
4085,38,-250,-117,-291,-222,-70
4090,35,-245,-119,-294,-230,-67
4095,38,-245,-121,-310,-238,-62
4100,41,-233,-116,-338,-245,-55
4105,39,-238,-109,-371,-251,-51
4110,41,-235,-103,-405,-251,-50
4115,40,-237,-100,-432,-249,-54
4120,34,-235,-100,-447,-247,-60
4125,35,-236,-103,-452,-241,-66
4130,31,-232,-102,-447,-240,-73
4135,32,-230,-102,-438,-244,-76
4140,30,-226,-105,-432,-251,-81
4145,30,-219,-109,-431,-261,-84
4150,34,-212,-117,-439,-273,-87
4155,30,-208,-113,-460,-282,-90
4160,28,-202,-114,-491,-290,-91
4165,31,-200,-116,-531,-299,-92
4170,30,-200,-117,-579,-304,-93
4175,30,-198,-124,-629,-310,-93
4180,30,-197,-125,-680,-317,-92
4185,30,-199,-125,-728,-324,-89
4190,30,-202,-126,-771,-332,-87
4195,31,-203,-127,-809,-340,-85
4200,31,-206,-125,-844,-346,-84
4205,36,-207,-129,-875,-348,-85
4210,34,-214,-128,-902,-353,-88
4215,30,-216,-126,-931,-362,-92
4220,28,-214,-120,-958,-377,-95
4225,27,-212,-119,-982,-396,-94
4230,28,-211,-124,-994,-414,-97
4235,28,-208,-129,-989,-431,-102
4240,30,-208,-133,-976,-450,-110
4245,29,-204,-141,-964,-466,-115
4250,31,-209,-146,-956,-487,-121
4255,31,-210,-151,-946,-505,-130
4260,29,-210,-153,-942,-516,-138
4265,35,-214,-149,-941,-522,-141
4270,36,-213,-146,-950,-521,-138
4275,41,-211,-142,-973,-512,-132
4280,41,-209,-139,-1005,-495,-124
4285,43,-203,-132,-1043,-473,-120
4290,45,-204,-126,-1082,-448,-118
4295,45,-202,-120,-1111,-425,-119
4300,43,-198,-117,-1128,-400,-123
4305,46,-199,-114,-1127,-375,-126
4310,46,-199,-113,-1113,-347,-126
4315,42,-195,-119,-1091,-324,-123
4320,43,-192,-120,-1071,-306,-115
4325,43,-189,-119,-1056,-298,-104
4330,45,-187,-123,-1050,-299,-89
4335,43,-184,-128,-1052,-307,-75
4340,37,-180,-128,-1062,-316,-58
4345,38,-181,-126,-1077,-328,-43
4350,39,-181,-133,-1096,-337,-31
4355,35,-177,-134,-1119,-340,-19
4360,30,-185,-137,-1146,-337,-10
4365,27,-186,-141,-1184,-329,-1
4370,28,-183,-137,-1231,-313,11
4375,26,-195,-138,-1277,-295,24
4380,29,-201,-140,-1318,-282,41
4385,35,-207,-134,-1343,-269,55
4390,41,-212,-129,-1349,-253,62
4395,42,-216,-128,-1333,-232,58
4400,45,-214,-129,-1297,-207,42
4405,51,-214,-128,-1254,-182,18
4410,57,-212,-131,-1213,-162,-13
4415,65,-209,-132,-1188,-152,-47
4420,69,-202,-137,-1166,-153,-82
4425,70,-202,-142,-1157,-165,-115
4430,74,-199,-150,-1150,-183,-142
4435,77,-203,-153,-1136,-203,-165
4440,81,-203,-164,-1112,-228,-182
4445,78,-206,-172,-1086,-251,-192
4450,78,-203,-178,-1064,-271,-197
4455,74,-202,-180,-1051,-281,-192
4460,73,-202,-177,-1049,-280,-180
4465,73,-200,-176,-1051,-265,-163
4470,64,-200,-172,-1055,-234,-140
4475,70,-204,-169,-1053,-185,-120
4480,67,-201,-161,-1044,-120,-100
4485,65,-204,-157,-1024,-46,-88
4490,61,-204,-154,-997,28,-72
4495,63,-206,-152,-971,93,-61
4500,59,-206,-152,-950,146,-51
4505,61,-212,-152,-931,180,-42
4510,60,-215,-153,-918,200,-36
4515,60,-218,-147,-910,204,-32
4520,61,-219,-144,-899,196,-32
4525,63,-226,-146,-884,179,-35
4530,66,-226,-147,-858,156,-42
4535,63,-230,-150,-817,134,-54
4540,66,-231,-153,-772,118,-68
4545,64,-231,-158,-728,106,-82
4550,67,-234,-163,-692,99,-97
4555,64,-230,-167,-665,98,-109
4560,66,-232,-170,-641,102,-121
4565,64,-234,-175,-617,109,-133
4570,58,-236,-179,-586,121,-145
4575,57,-235,-183,-546,139,-158
4580,54,-234,-186,-496,164,-171
4585,45,-234,-180,-440,195,-185
4590,41,-230,-188,-378,228,-194
4595,41,-223,-185,-320,260,-200
4600,37,-216,-186,-271,283,-196
4605,34,-210,-186,-228,303,-188
4610,35,-208,-184,-197,315,-174
4615,31,-203,-188,-177,322,-154
4620,31,-203,-189,-171,325,-132
4625,32,-206,-189,-175,324,-105
4630,25,-200,-188,-184,316,-77
4635,30,-208,-193,-193,298,-51
4640,34,-213,-187,-196,274,-28
4645,32,-215,-195,-195,246,-7
4650,40,-224,-192,-187,224,7
4655,48,-231,-191,-175,204,17
4660,55,-239,-190,-157,188,20
4665,59,-250,-192,-134,174,22
4670,63,-259,-190,-106,160,20
4675,68,-263,-190,-73,148,12
4680,73,-271,-192,-32,141,2
4685,76,-279,-189,15,139,-13
4690,77,-285,-186,68,144,-28
4695,81,-287,-184,127,155,-47
4700,74,-289,-193,192,166,-69
4705,72,-289,-194,254,177,-84
4710,70,-289,-197,319,190,-94
4715,66,-285,-197,378,201,-104
4720,63,-280,-196,437,209,-111
4725,57,-275,-199,488,215,-107
4730,52,-266,-206,532,217,-101
4735,53,-262,-207,569,215,-90
4740,55,-256,-208,601,211,-75
4745,54,-250,-214,625,204,-54
4750,52,-244,-213,640,195,-35
4755,56,-240,-216,646,185,-15
4760,57,-237,-222,638,177,6
4765,58,-235,-223,626,171,24
4770,57,-235,-222,611,167,40
4775,59,-232,-220,590,161,52
4780,63,-236,-215,569,154,58
4785,57,-230,-217,545,146,60
4790,63,-232,-210,515,139,58
4795,64,-231,-208,486,135,47
4800,61,-233,-203,457,132,35
4805,66,-235,-207,428,135,22
4810,63,-235,-205,408,136,-1
4815,64,-242,-201,398,133,-21
4820,60,-244,-202,397,126,-40
4825,60,-251,-201,408,111,-60
4830,56,-251,-203,425,92,-75
4835,56,-255,-202,448,67,-85
4840,53,-261,-202,471,44,-89
4845,57,-260,-204,495,28,-89
4850,49,-264,-208,519,18,-85
4855,56,-268,-204,545,14,-77
4860,57,-264,-208,574,22,-65
4865,59,-265,-206,598,39,-54
4870,64,-265,-205,620,65,-45
4875,65,-265,-204,647,96,-39
4880,65,-264,-202,672,127,-35
4885,64,-258,-205,692,153,-28
4890,65,-258,-203,707,168,-23
4895,66,-257,-200,713,178,-16
4900,69,-258,-194,720,181,-11
4905,68,-257,-193,728,175,-7
4910,69,-256,-192,738,158,-1
4915,64,-259,-188,750,128,6
4920,60,-257,-187,764,94,11
4925,61,-258,-183,787,55,15
4930,57,-260,-182,816,16,20
4935,54,-257,-182,850,-20,22
4940,56,-258,-179,887,-51,25
4945,57,-260,-174,921,-71,29
4950,60,-261,-173,955,-74,33
4955,52,-263,-168,990,-70,29
4960,52,-265,-170,1029,-53,31
4965,53,-261,-167,1064,-32,28
4970,42,-270,-164,1098,-16,26
4975,39,-265,-161,1123,-9,29
4980,40,-264,-158,1142,-10,33
4985,41,-264,-157,1160,-16,37
4990,43,-259,-157,1175,-21,41
4995,42,-260,-147,1193,-26,44
5000,44,-261,-144,1210,-29,48
5005,48,-261,-143,1230,-29,52
5010,51,-261,-134,1244,-28,60
5015,49,-261,-127,1257,-28,71
5020,50,-264,-128,1263,-30,82
5025,51,-260,-129,1264,-37,92
5030,54,-260,-123,1261,-49,102
5035,56,-256,-116,1253,-63,108
5040,60,-256,-120,1244,-80,110
5045,59,-255,-115,1236,-97,111
5050,56,-254,-118,1230,-116,107
5055,57,-256,-116,1226,-133,102
5060,60,-258,-116,1221,-146,97
5065,57,-258,-115,1216,-148,89
5070,60,-259,-117,1209,-144,80
5075,61,-259,-115,1200,-132,72
5080,60,-265,-115,1191,-115,63
5085,62,-266,-109,1182,-94,53
5090,59,-265,-110,1170,-70,41
5095,57,-271,-108,1160,-43,27
5100,55,-270,-103,1152,-19,15
5105,57,-277,-104,1142,6,2
5110,56,-276,-103,1135,23,-6
5115,58,-278,-92,1133,35,-10
5120,60,-280,-94,1126,39,-9
5125,61,-281,-92,1115,37,-8
5130,56,-283,-87,1104,24,-3
5135,59,-289,-83,1091,7,3
5140,56,-289,-82,1073,-12,12
5145,61,-292,-79,1052,-33,16
5150,58,-292,-74,1027,-52,19
5155,56,-295,-69,1002,-68,20
5160,53,-296,-63,977,-84,19
5165,51,-292,-57,951,-97,13
5170,45,-291,-58,928,-111,7
5175,48,-290,-47,904,-121,-4
5180,48,-287,-53,877,-125,-16
5185,50,-284,-50,849,-123,-29
5190,47,-285,-46,822,-117,-45
5195,47,-278,-43,792,-108,-58
5200,45,-274,-44,764,-97,-71
5205,47,-271,-42,736,-88,-82
5210,50,-268,-42,713,-77,-90
5215,46,-261,-41,696,-66,-98
5220,47,-259,-39,683,-55,-101
5225,46,-253,-36,675,-43,-103
5230,43,-250,-36,666,-35,-100
5235,46,-248,-37,660,-28,-95
5240,47,-243,-36,650,-26,-89
5245,50,-238,-38,644,-24,-80
5250,49,-234,-38,638,-25,-72
5255,50,-230,-36,627,-27,-62
5260,47,-229,-33,615,-29,-52
5265,46,-227,-33,600,-39,-41
5270,47,-223,-35,585,-52,-29
5275,47,-223,-31,565,-67,-19
5280,50,-222,-29,543,-80,-8
5285,47,-228,-34,517,-91,0
5290,61,-228,-31,490,-98,4
5295,58,-228,-32,463,-102,4
5300,59,-235,-36,436,-104,5
5305,58,-233,-34,407,-101,1
5310,62,-241,-36,379,-97,-1
5315,61,-245,-31,353,-94,-4
5320,64,-251,-34,327,-93,-7
5325,62,-254,-34,307,-90,-8
5330,67,-256,-30,289,-88,-9
5335,68,-257,-33,277,-85,-13
5340,68,-254,-43,272,-81,-17
5345,68,-264,-30,271,-72,-23
5350,68,-260,-33,276,-59,-29
5355,67,-262,-32,288,-43,-37
5360,69,-265,-26,302,-26,-47
5365,69,-262,-30,317,-8,-55
5370,66,-261,-22,332,10,-61
5375,66,-262,-17,346,27,-65
5380,64,-261,-20,355,38,-66
5385,65,-259,-18,364,44,-67
5390,62,-258,-23,366,43,-67
5395,65,-260,-14,364,40,-64
5400,64,-257,-16,363,34,-60
5405,64,-258,-20,355,27,-59
5410,61,-255,-17,347,17,-54
5415,63,-256,-21,335,6,-47
5420,62,-254,-16,324,-7,-44
5425,62,-255,-20,307,-19,-39
5430,63,-254,-22,291,-28,-34
5435,61,-253,-25,274,-39,-28
5440,60,-254,-23,263,-50,-23
5445,59,-256,-26,251,-59,-21
5450,57,-255,-25,237,-65,-17
5455,60,-251,-20,226,-69,-14
5460,62,-251,-23,215,-73,-12
5465,61,-252,-23,204,-71,-9
5470,63,-252,-21,195,-69,-8
5475,64,-252,-25,187,-61,-8
5480,65,-253,-23,181,-48,-11
5485,66,-254,-22,175,-32,-12
5490,66,-253,-25,167,-15,-13
5495,67,-252,-24,159,0,-15
5500,64,-250,-29,147,9,-13
5505,69,-251,-21,141,16,-13
5510,69,-255,-21,139,18,-11
5515,73,-255,-21,140,20,-10
5520,72,-255,-26,141,20,-8
5525,70,-255,-24,144,17,-5
5530,70,-252,-20,147,13,-1
5535,67,-252,-21,150,4,3
5540,69,-257,-21,154,-5,7
5545,68,-254,-21,155,-14,10
5550,65,-256,-21,154,-19,13
5555,65,-256,-23,153,-21,15
5560,61,-255,-21,151,-24,17
5565,60,-252,-19,145,-25,19
5570,57,-254,-23,139,-27,24
5575,60,-256,-24,134,-28,27
5580,60,-255,-25,126,-28,31
5585,58,-256,-27,120,-31,34
5590,58,-255,-28,114,-33,39
5595,61,-256,-27,108,-34,43
5600,60,-259,-31,100,-35,46
5605,61,-260,-29,94,-37,46
5610,67,-261,-24,89,-37,46
5615,60,-260,-24,88,-36,47
5620,60,-258,-29,87,-32,47
5625,59,-261,-29,87,-27,46
5630,59,-263,-25,87,-24,47
5635,60,-260,-25,87,-21,48
5640,59,-261,-26,87,-22,48
5645,58,-258,-18,87,-23,50
5650,57,-257,-22,88,-28,52
5655,55,-258,-19,90,-37,55
5660,54,-254,-24,89,-46,61
5665,57,-259,-22,87,-56,64
5670,51,-254,-24,81,-65,71
5675,49,-251,-20,73,-74,76
5680,46,-250,-19,59,-80,81
5685,47,-253,-22,44,-83,85
5690,48,-254,-21,27,-87,89
5695,51,-254,-20,11,-89,94
5700,54,-256,-22,-5,-89,97
5705,56,-260,-22,-17,-90,100
5710,54,-258,-17,-26,-89,103
5715,56,-259,-22,-31,-89,104
5720,58,-262,-17,-31,-89,105
5725,58,-262,-20,-26,-88,104
5730,59,-262,-22,-21,-85,101
5735,60,-263,-21,-13,-82,101
5740,61,-262,-22,-3,-77,100
5745,64,-262,-21,10,-72,98
5750,63,-261,-19,25,-68,94
5755,63,-260,-26,37,-59,89
5760,63,-258,-23,46,-47,84
5765,63,-257,-23,52,-35,81
5770,63,-258,-24,56,-24,76
5775,62,-258,-15,58,-14,72
5780,63,-255,-23,57,-7,71
5785,64,-256,-23,50,-1,69
5790,63,-256,-24,45,4,67
5795,62,-253,-26,34,7,66
5800,60,-254,-24,25,10,65
5805,60,-254,-28,15,10,64
5810,61,-253,-25,9,9,64
5815,58,-253,-24,1,9,64
5820,59,-255,-22,-1,8,65
5825,55,-256,-21,-7,6,65
5830,51,-255,-25,-13,7,67
5835,53,-257,-15,-14,7,69
5840,51,-256,-18,-19,11,70
5845,53,-260,-16,-21,15,70
5850,51,-258,-17,-20,18,68
5855,48,-257,-16,-18,23,67
5860,48,-262,-14,-15,28,66
5865,45,-262,-12,-12,35,62
5870,47,-258,-10,-10,41,62
5875,48,-260,-12,-9,45,59
5880,47,-256,-11,-7,50,56
5885,49,-267,-19,-8,53,54
5890,49,-258,-14,-9,54,54
5895,49,-255,-14,-13,55,53
5900,48,-255,-18,-17,57,53
5905,50,-255,-12,-19,57,52
5910,51,-255,-13,-23,60,50
5915,53,-256,-12,-25,63,51
5920,50,-256,-7,-28,65,49
5925,51,-253,-14,-30,69,49
5930,47,-251,-15,-33,72,50
5935,46,-253,-15,-37,73,51
5940,45,-254,-11,-44,77,52
5945,49,-254,-19,-56,79,54
5950,46,-254,-20,-70,81,58
5955,46,-257,-25,-89,81,62
5960,43,-256,-25,-109,82,68
5965,46,-257,-27,-131,76,75
5970,46,-256,-29,-149,69,82
5975,45,-258,-28,-163,58,89
5980,45,-260,-27,-173,48,97
5985,45,-263,-25,-175,39,100
5990,45,-267,-30,-171,33,101
5995,45,-257,-29,-164,30,100
6000,44,-266,-22,-154,28,98
6005,43,-263,-23,-139,25,94
6010,44,-265,-23,-123,25,90
6015,48,-267,-22,-103,23,85
6020,48,-268,-25,-85,20,80
6025,43,-266,-16,-64,15,76
6030,44,-267,-22,-45,11,70
6035,45,-265,-21,-27,3,65
6040,42,-263,-20,-11,-4,63
6045,47,-267,-18,2,-12,60
6050,45,-260,-16,15,-19,58
6055,42,-259,-21,20,-24,57
6060,47,-256,-19,25,-28,56
6065,42,-257,-17,22,-28,55
6070,43,-255,-20,19,-30,55
6075,44,-255,-24,15,-28,57
6080,45,-257,-23,4,-28,57
6085,47,-259,-20,-7,-27,60
6090,43,-257,-24,-21,-25,61
6095,42,-257,-24,-34,-24,66
6100,41,-257,-16,-48,-21,68
6105,42,-256,-22,-59,-18,70
6110,43,-257,-22,-66,-17,70
6115,41,-257,-21,-73,-15,71
6120,40,-259,-21,-74,-13,71
6125,41,-259,-21,-74,-12,72
6130,44,-262,-20,-72,-13,72
6135,42,-260,-23,-69,-12,70
6140,46,-261,-18,-63,-10,68
6145,46,-267,-24,-56,-10,66
6150,46,-263,-23,-52,-11,65
6155,42,-268,-21,-47,-13,65
6160,44,-264,-28,-44,-16,65
6165,45,-266,-23,-41,-21,64
6170,43,-265,-24,-38,-24,65
6175,45,-264,-27,-36,-29,64
6180,44,-262,-26,-37,-29,65
6185,41,-261,-24,-37,-30,64
6190,45,-263,-21,-37,-29,62
6195,42,-263,-26,-37,-29,63
6200,44,-264,-20,-38,-27,64
6205,42,-261,-21,-38,-26,62
6210,47,-259,-22,-40,-24,63
6215,46,-262,-19,-42,-21,61
6220,44,-263,-16,-43,-17,60
6225,45,-261,-19,-43,-16,58
6230,45,-261,-17,-41,-15,58
6235,44,-258,-17,-40,-13,56
6240,43,-259,-18,-40,-12,57
6245,43,-255,-16,-38,-13,57
6250,41,-257,-19,-38,-13,58
6255,39,-256,-19,-38,-19,58
6260,40,-257,-21,-43,-23,59
6265,43,-256,-21,-47,-27,62
6270,42,-256,-26,-53,-32,64
6275,43,-257,-24,-60,-35,65
6280,45,-258,-24,-67,-39,67
6285,42,-257,-24,-78,-41,67
6290,45,-256,-23,-89,-45,68
6295,47,-256,-26,-97,-45,69
6300,45,-257,-25,-104,-49,68
6305,45,-262,-27,-110,-49,68
6310,39,-260,-24,-111,-52,67
6315,39,-259,-26,-110,-51,64
6320,42,-264,-26,-106,-47,61
6325,43,-261,-24,-97,-43,59
6330,42,-264,-25,-85,-39,52
6335,43,-269,-24,-74,-33,48
6340,45,-266,-24,-54,-26,43
6345,45,-264,-24,-39,-18,36
6350,42,-263,-22,-22,-11,30
6355,43,-263,-23,-8,-6,25
6360,46,-265,-28,8,1,21
6365,39,-265,-20,21,6,17
6370,44,-268,-21,32,11,15
6375,40,-263,-17,40,15,13
6380,42,-260,-19,42,18,13
6385,40,-257,-19,42,21,12
6390,41,-256,-18,37,23,14
6395,40,-259,-20,31,26,15
6400,42,-257,-17,20,27,17
6405,41,-257,-21,5,31,22
6410,36,-256,-20,-8,34,24
6415,41,-257,-20,-25,34,28
6420,34,-251,-15,-39,33,30
6425,37,-258,-23,-50,31,33
6430,39,-257,-21,-56,27,36
6435,38,-258,-18,-58,22,36
6440,36,-257,-16,-58,16,37
6445,38,-260,-15,-56,12,37
6450,36,-257,-15,-50,8,35
6455,36,-260,-19,-46,8,35
6460,37,-259,-15,-41,8,34
6465,39,-260,-13,-35,8,32
6470,43,-259,-12,-28,10,28
6475,37,-262,-11,-23,11,22
6480,38,-260,-8,-18,12,18
6485,34,-259,-14,-14,13,15
6490,37,-260,-17,-15,16,13
6495,38,-260,-12,-19,16,11
6500,39,-258,-14,-26,17,12
6505,36,-257,-13,-29,16,13
6510,41,-258,-14,-34,16,14
6515,38,-259,-20,-38,15,16
6520,41,-260,-11,-40,13,18
6525,44,-258,-11,-39,12,21
6530,44,-264,-15,-35,11,24
6535,40,-264,-18,-32,9,25
6540,39,-259,-15,-30,7,27
6545,40,-260,-10,-27,7,29
6550,39,-261,-17,-25,7,30
6555,42,-263,-22,-24,6,31
6560,37,-260,-16,-28,5,33
6565,36,-261,-21,-29,4,35
6570,39,-264,-27,-32,2,37
6575,38,-263,-22,-35,-1,36
6580,34,-261,-22,-38,-4,38
6585,32,-263,-25,-39,-6,37
6590,37,-270,-23,-44,-6,35
6595,31,-262,-27,-43,-5,31
6600,31,-264,-26,-43,-2,28
6605,29,-264,-23,-39,1,24
6610,30,-266,-26,-33,7,20
6615,31,-267,-22,-25,9,19
6620,31,-264,-21,-14,14,16
6625,30,-267,-23,0,18,12
6630,28,-265,-20,17,20,11
6635,31,-266,-20,34,21,10
6640,31,-268,-17,49,21,9
6645,32,-261,-16,60,22,9
6650,32,-262,-16,68,22,6
6655,35,-261,-15,72,19,5
6660,32,-258,-17,71,16,4
6665,33,-258,-11,69,13,2
6670,34,-256,-15,63,8,3
6675,36,-259,-13,54,3,2
6680,34,-257,-15,47,-1,1
6685,39,-259,-14,34,-2,1
6690,37,-255,-13,22,-2,2
6695,39,-252,-16,8,1,4
6700,41,-256,-19,-4,3,4
6705,40,-259,-18,-15,5,4
6710,41,-256,-21,-28,7,4
6715,42,-258,-21,-39,8,4
6720,39,-258,-27,-51,14,4
6725,38,-256,-23,-65,16,3
6730,41,-262,-26,-79,17,3
6735,42,-264,-29,-92,13,3
6740,37,-260,-25,-104,6,5
6745,36,-268,-23,-116,-1,6
6750,34,-261,-24,-120,-8,10
6755,33,-263,-26,-124,-6,11
6760,37,-265,-18,-118,-4,12
6765,36,-266,-21,-110,1,8
6770,34,-266,-20,-100,3,5
6775,33,-264,-18,-91,7,4
6780,32,-263,-19,-83,13,2
6785,35,-264,-19,-76,19,-1
6790,36,-265,-19,-71,27,-3
6795,33,-266,-21,-68,37,-3
6800,36,-262,-21,-66,44,-5
6805,32,-258,-17,-67,51,-3
6810,37,-260,-19,-69,54,0
6815,35,-262,-19,-70,58,3
6820,39,-262,-17,-68,58,5
6825,38,-261,-20,-64,57,6
6830,36,-261,-22,-58,56,6
6835,38,-262,-22,-49,53,6
6840,38,-264,-24,-38,49,5
6845,40,-258,-21,-27,43,4
6850,36,-258,-25,-14,39,3
6855,37,-258,-34,-6,34,2
6860,36,-255,-20,-1,31,1
6865,34,-256,-25,3,27,0
6870,37,-257,-17,5,24,-2
6875,33,-256,-26,2,22,-4
6880,36,-256,-19,-4,19,-4
6885,32,-256,-18,-14,15,-3
6890,34,-256,-18,-26,12,-3
6895,34,-257,-16,-40,9,-2
6900,34,-256,-13,-53,9,-3
6905,33,-256,-15,-67,7,-2
6910,37,-258,-18,-77,4,-3
6915,34,-260,-10,-85,1,-2
6920,30,-261,-12,-90,1,-3
6925,32,-261,-12,-91,-2,-3
6930,38,-261,-13,-91,-3,-4
6935,34,-258,-19,-84,-4,-3
6940,34,-262,-12,-75,-4,-3
6945,32,-259,-17,-63,-5,-2
6950,33,-258,-23,-52,-5,-3
6955,38,-261,-18,-39,-3,-3
6960,35,-257,-17,-28,-1,-4
6965,37,-255,-19,-17,2,-5
6970,35,-256,-19,-11,5,-7
6975,33,-256,-19,-9,6,-7
6980,34,-256,-19,-8,9,-10
6985,34,-255,-16,-12,7,-11
6990,34,-255,-21,-19,7,-12
6995,33,-255,-18,-25,4,-14
7000,39,-260,-15,-34,0,-14
7005,35,-256,-17,-42,-5,-15
7010,35,-258,-14,-47,-9,-17
7015,39,-258,-20,-48,-13,-18
7020,36,-269,-17,-44,-18,-20
7025,36,-257,-15,-44,-24,-21
7030,37,-264,-20,-42,-28,-21
7035,39,-263,-19,-40,-30,-22
7040,40,-264,-23,-39,-33,-20
7045,37,-266,-19,-39,-34,-19
7050,38,-265,-19,-35,-32,-18
7055,37,-265,-17,-30,-30,-15
7060,43,-269,-17,-23,-28,-14
7065,39,-262,-18,-17,-30,-14
7070,39,-262,-15,-9,-28,-14
7075,45,-265,-19,-4,-28,-14
7080,39,-261,-16,-3,-28,-15
7085,37,-259,-16,-1,-27,-15
7090,38,-260,-16,-4,-24,-16
7095,41,-257,-14,-7,-23,-16
7100,39,-257,-13,-12,-21,-18
7105,38,-257,-14,-14,-20,-20
7110,39,-259,-11,-18,-19,-22
7115,37,-257,-10,-23,-18,-26
7120,37,-256,-13,-26,-15,-27
7125,38,-258,-14,-26,-12,-29
7130,30,-258,-17,-27,-8,-29
7135,36,-258,-14,-27,-5,-31
7140,38,-260,-14,-25,-2,-31
7145,39,-260,-17,-24,1,-30
7150,39,-258,-14,-21,1,-27
7155,38,-257,-19,-23,2,-25
7160,38,-260,-18,-17,3,-24
7165,37,-260,-22,-15,4,-23
7170,37,-258,-14,-11,5,-23
7175,39,-262,-18,-13,7,-23
7180,38,-265,-21,-15,9,-22
7185,38,-258,-22,-19,11,-23
7190,40,-259,-20,-21,13,-23
7195,39,-257,-18,-25,14,-23
7200,36,-258,-20,-28,16,-23
7205,39,-259,-18,-31,18,-23
7210,42,-262,-19,-34,17,-21
7215,40,-262,-17,-39,18,-19
7220,39,-259,-20,-41,17,-18
7225,38,-262,-20,-42,15,-16
7230,35,-262,-21,-41,14,-15
7235,43,-260,-26,-39,14,-13
7240,39,-261,-20,-38,13,-13
7245,35,-259,-23,-38,11,-14
7250,36,-257,-16,-37,11,-14
7255,37,-260,-23,-38,11,-17
7260,36,-261,-17,-37,9,-17
7265,37,-261,-20,-39,9,-19
7270,38,-264,-18,-39,5,-21
7275,37,-258,-17,-41,3,-21
7280,38,-261,-15,-41,-1,-19
7285,35,-260,-14,-41,-2,-19
7290,38,-263,-13,-39,-3,-18
7295,39,-261,-20,-36,-4,-17
7300,40,-261,-17,-33,-2,-15
7305,41,-262,-17,-25,1,-16
7310,42,-264,-14,-19,3,-15
7315,42,-265,-18,-11,7,-15
7320,42,-263,-15,-4,13,-15
7325,45,-261,-13,2,19,-15
7330,40,-260,-16,7,24,-13
7335,41,-260,-15,8,28,-15
7340,45,-260,-14,10,35,-14
7345,30,-255,-14,9,37,-16
7350,41,-257,-13,7,41,-19
7355,39,-254,-16,4,42,-19
7360,41,-257,-14,-2,42,-19
7365,38,-254,-14,-9,42,-20
7370,40,-256,-16,-16,39,-21
7375,40,-255,-13,-25,38,-21
7380,37,-254,-18,-33,36,-23
7385,40,-256,-16,-40,35,-23
7390,37,-257,-12,-50,30,-21
7395,35,-256,-15,-58,26,-21
7400,39,-260,-18,-61,19,-19
7405,38,-259,-16,-64,15,-16
7410,39,-260,-12,-65,10,-15
7415,39,-260,-16,-64,7,-13
7420,38,-260,-15,-62,4,-12
7425,37,-259,-17,-58,3,-15
7430,38,-259,-14,-55,4,-15
7435,38,-261,-18,-52,5,-16
7440,42,-264,-21,-51,8,-18
7445,41,-263,-21,-48,14,-19
7450,41,-263,-14,-46,18,-22
7455,38,-268,-13,-43,22,-24
7460,41,-263,-23,-38,27,-27
7465,42,-261,-16,-33,32,-28
7470,39,-262,-21,-31,37,-29
7475,37,-262,-20,-32,44,-30
7480,38,-263,-17,-33,49,-29
7485,38,-259,-21,-39,55,-28
7490,37,-260,-20,-45,62,-26
7495,40,-261,-23,-47,67,-24
7500,42,-261,-16,-45,75,-19
7505,43,-256,-21,-43,84,-16
7510,40,-257,-17,-43,97,-12
7515,41,-259,-18,-46,109,-9
7520,41,-257,-25,-55,122,-6
7525,36,-256,-21,-71,133,-2
7530,40,-257,-20,-95,143,2
7535,41,-259,-13,-118,151,7
7540,37,-257,-15,-139,157,10
7545,37,-257,-14,-154,160,15
7550,44,-262,-7,-162,160,18
7555,42,-258,-4,-169,158,21
7560,45,-257,-1,-169,156,24
7565,44,-257,0,-172,155,25
7570,46,-259,3,-175,156,28
7575,46,-257,-1,-182,158,31
7580,45,-256,-2,-187,162,35
7585,46,-256,-2,-192,167,42
7590,43,-254,-8,-196,171,47
7595,45,-255,-11,-197,167,50
7600,46,-251,-12,-195,157,50
7605,40,-249,-16,-188,145,44
7610,41,-246,-23,-186,131,31
7615,34,-245,-25,-185,119,15
7620,37,-247,-22,-191,106,-2
7625,37,-246,-30,-203,95,-17
7630,33,-243,-30,-215,84,-32
7635,32,-247,-28,-231,72,-43
7640,31,-246,-26,-248,58,-55
7645,29,-248,-22,-264,49,-66
7650,31,-248,-17,-276,39,-75
7655,28,-250,-23,-286,31,-81
7660,27,-251,-16,-292,27,-86
7665,27,-253,-12,-300,29,-89
7670,23,-252,-15,-306,33,-90
7675,30,-254,-7,-313,43,-87
7680,29,-256,-8,-319,53,-82
7685,31,-256,-1,-325,65,-75
7690,30,-256,-6,-328,78,-70
7695,31,-259,-2,-331,91,-65
7700,36,-256,-2,-335,105,-57
7705,37,-255,-1,-336,119,-50
7710,40,-256,-2,-337,133,-46
7715,44,-253,2,-340,144,-40
7720,43,-249,-2,-348,153,-37
7725,50,-248,-7,-357,161,-35
7730,47,-248,-4,-368,166,-32
7735,47,-245,-4,-386,170,-33
7740,47,-241,-5,-403,172,-33
7745,49,-241,-5,-423,176,-37
7750,51,-241,-12,-441,177,-40
7755,48,-235,-11,-458,180,-47
7760,50,-232,-13,-478,183,-54
7765,48,-234,-14,-497,187,-62
7770,48,-237,-16,-515,191,-70
7775,47,-236,-19,-535,192,-79
7780,44,-239,-18,-556,193,-87
7785,46,-241,-19,-582,195,-91
7790,45,-241,-22,-612,198,-91
7795,43,-242,-19,-647,201,-88
7800,39,-241,-21,-681,205,-87
7805,42,-243,-18,-714,208,-85
7810,42,-242,-16,-748,212,-84
7815,41,-244,-17,-780,212,-87
7820,40,-249,-18,-814,215,-80
7825,33,-249,-18,-840,217,-82
7830,37,-251,-13,-864,218,-81
7835,36,-253,-14,-886,219,-79
7840,31,-254,-18,-907,217,-82
7845,30,-254,-18,-926,213,-80
7850,30,-257,-12,-943,203,-81
7855,33,-256,-13,-956,189,-82
7860,32,-260,-14,-962,174,-87
7865,33,-264,-18,-961,161,-86
7870,40,-264,-14,-951,145,-85
7875,39,-261,-14,-934,125,-93
7880,41,-263,-16,-911,106,-98
7885,37,-260,-16,-890,91,-101
7890,38,-261,-18,-874,81,-101
7895,44,-257,-18,-861,76,-97
7900,41,-252,-21,-848,69,-101
7905,44,-256,-20,-839,60,-103
7910,44,-254,-23,-834,57,-100
7915,37,-256,-23,-830,56,-103
7920,38,-256,-24,-829,55,-103
7925,38,-258,-31,-829,47,-105
7930,37,-256,-31,-830,39,-109
7935,31,-255,-34,-835,31,-105
7940,36,-254,-32,-846,23,-98
7945,39,-254,-34,-855,12,-96
7950,33,-256,-36,-864,-5,-95
7955,43,-257,-40,-875,-20,-85
7960,39,-256,-37,-889,-30,-82
7965,42,-257,-44,-909,-32,-69
7970,46,-259,-49,-938,-26,-59
7975,51,-257,-51,-977,-19,-54
7980,54,-258,-52,-1030,-9,-51
7985,55,-257,-57,-1088,5,-47
7990,57,-256,-61,-1158,15,-43
7995,56,-253,-63,-1241,25,-34
8000,58,-253,-68,-1332,27,-27
8005,55,-254,-78,-1434,21,-19
8010,53,-255,-95,-1543,4,-9
8015,53,-254,-99,-1658,-19,-2
8020,50,-259,-117,-1753,-47,5
8025,45,-260,-130,-1870,-79,10
8030,42,-264,-145,-1981,-112,16
8035,39,-273,-158,-2087,-145,24
8040,40,-280,-168,-2190,-173,34
8045,37,-287,-185,-2284,-209,45
8050,44,-287,-195,-2367,-243,57
8055,44,-310,-193,-2425,-269,65
8060,50,-322,-206,-2450,-283,72
8065,58,-339,-206,-2436,-281,74
8070,61,-349,-207,-2386,-265,73
8075,65,-358,-217,-2309,-241,69
8080,68,-369,-220,-2212,-208,66
8085,66,-370,-225,-2097,-177,61
8090,69,-378,-235,-1973,-149,54
8095,65,-383,-236,-1838,-127,44
8100,74,-384,-227,-1691,-107,29
8105,65,-382,-235,-1538,-85,11
8110,61,-378,-234,-1380,-60,-13
8115,58,-369,-233,-1229,-35,-37
8120,55,-368,-222,-1082,-11,-60
8125,50,-361,-225,-947,6,-77
8130,51,-356,-210,-825,15,-91
8135,47,-351,-201,-716,25,-100
8140,44,-341,-193,-616,29,-104
8145,42,-335,-193,-537,32,-105
8150,37,-325,-193,-480,31,-99
8155,28,-314,-188,-441,28,-85
8160,25,-307,-183,-428,19,-66
8165,23,-301,-184,-428,4,-45
8170,21,-294,-185,-438,-11,-22
8175,21,-283,-183,-454,-27,0
8180,21,-279,-181,-470,-44,16
8185,17,-273,-185,-484,-64,30
8190,17,-267,-186,-496,-87,43
8195,19,-265,-184,-505,-113,50
8200,18,-265,-189,-509,-137,53
8205,21,-261,-187,-505,-159,53
8210,26,-259,-187,-495,-179,46
8215,26,-258,-189,-479,-196,39
8220,28,-257,-187,-462,-210,28
8225,31,-257,-190,-447,-221,15
8230,35,-258,-188,-435,-229,6
8235,33,-257,-190,-432,-231,1
8240,37,-256,-193,-437,-231,-3
8245,41,-260,-194,-449,-230,-5
8250,40,-259,-192,-462,-224,-5
8255,44,-264,-191,-477,-215,2
8260,47,-260,-194,-494,-204,11
8265,47,-267,-188,-505,-193,24
8270,50,-271,-184,-513,-182,39
8275,50,-274,-181,-513,-177,54
8280,51,-278,-182,-506,-172,66
8285,50,-282,-182,-492,-172,80
8290,48,-286,-178,-473,-176,97
8295,52,-289,-182,-444,-180,119
8300,52,-291,-182,-404,-183,136
8305,51,-293,-175,-343,-184,150
8310,50,-294,-179,-267,-183,163
8315,43,-293,-177,-180,-178,169
8320,50,-292,-171,-85,-171,169
8325,51,-288,-173,17,-163,164
8330,43,-286,-171,123,-154,157
8335,42,-282,-170,227,-140,149
8340,44,-280,-170,328,-121,143
8345,40,-274,-169,423,-99,134
8350,38,-266,-169,518,-74,122
8355,37,-262,-165,606,-54,106
8360,32,-254,-167,689,-36,89
8365,34,-246,-167,758,-19,75
8370,32,-236,-158,818,-9,60
8375,28,-236,-157,869,-2,46
8380,30,-228,-157,910,3,33
8385,28,-223,-161,937,7,24
8390,27,-218,-160,955,8,15
8395,24,-208,-160,962,4,11
8400,26,-209,-163,960,2,11
8405,26,-203,-160,952,-1,15
8410,25,-199,-160,938,-3,17
8415,23,-198,-163,922,-5,24
8420,28,-196,-160,905,-4,28
8425,21,-193,-161,886,-2,30
8430,20,-196,-165,866,2,32
8435,25,-194,-156,849,10,34
8440,24,-193,-161,831,20,35
8445,29,-193,-160,818,28,31
8450,27,-193,-157,806,37,20
8455,30,-192,-155,792,45,9
8460,32,-195,-158,780,54,2
8465,31,-194,-154,763,63,-8
8470,31,-195,-154,751,70,-16
8475,35,-195,-151,741,75,-24
8480,28,-194,-149,740,79,-32
8485,33,-202,-148,746,86,-38
8490,34,-201,-149,753,91,-41
8495,33,-204,-147,766,94,-44
8500,33,-202,-148,779,95,-49
8505,30,-201,-148,795,91,-47
8510,30,-198,-143,809,85,-47
8515,30,-200,-136,823,77,-45
8520,33,-203,-137,837,67,-43
8525,31,-202,-136,849,57,-38
8530,27,-201,-132,866,49,-34
8535,30,-197,-128,884,43,-32
8540,30,-194,-127,909,38,-31
8545,30,-195,-121,936,34,-30
8550,28,-193,-120,968,31,-32
8555,28,-190,-121,1002,27,-34
8560,24,-187,-117,1035,21,-35
8565,23,-179,-121,1057,16,-40
8570,24,-182,-121,1067,12,-41
8575,23,-176,-122,1068,8,-43
8580,20,-166,-121,1057,4,-46
8585,19,-162,-117,1041,2,-46
8590,22,-166,-111,1017,4,-46
8595,22,-160,-114,991,7,-48
8600,25,-159,-113,965,15,-51
8605,26,-159,-114,936,25,-52
8610,31,-156,-114,906,36,-55
8615,30,-156,-113,869,46,-56
8620,31,-151,-112,832,55,-55
8625,31,-156,-109,793,60,-52
8630,32,-157,-111,750,66,-50
8635,36,-160,-111,707,71,-48
8640,35,-159,-120,661,76,-41
8645,33,-164,-113,617,80,-37
8650,35,-170,-111,574,83,-28
8655,33,-174,-107,535,81,-18
8660,33,-181,-106,497,74,-7
8665,35,-183,-108,466,62,3
8670,37,-190,-109,441,43,17
8675,33,-192,-113,418,22,28
8680,35,-198,-114,403,-3,40
8685,35,-201,-107,395,-24,48
8690,31,-200,-106,393,-43,55
8695,33,-207,-107,400,-61,59
8700,35,-206,-110,414,-74,63
8705,33,-205,-109,430,-81,62
8710,32,-207,-110,444,-80,58
8715,33,-207,-111,458,-78,54
8720,34,-207,-109,470,-66,50
8725,34,-207,-109,475,-53,44
8730,32,-202,-111,473,-41,35
8735,35,-208,-109,466,-26,29
8740,34,-208,-114,449,-13,23
8745,32,-204,-109,425,0,16
8750,30,-214,-104,394,12,12
8755,37,-224,-108,359,19,10
8760,41,-218,-114,320,23,8
8765,37,-221,-114,277,25,11
8770,38,-227,-113,233,25,16
8775,40,-231,-115,192,22,21
8780,37,-236,-113,152,16,28
8785,38,-244,-116,116,10,37
8790,39,-248,-116,87,-1,46
8795,39,-251,-112,63,-11,56
8800,36,-258,-114,48,-23,66
8805,37,-262,-113,41,-33,74
8810,35,-265,-107,43,-44,81
8815,37,-268,-109,55,-53,86
8820,34,-269,-108,75,-60,90
8825,37,-273,-103,99,-68,91
8830,37,-274,-104,126,-73,87
8835,33,-273,-98,157,-76,80
8840,31,-274,-97,190,-75,71
8845,30,-267,-95,222,-72,61
8850,31,-269,-98,253,-67,52
8855,24,-264,-96,282,-59,40
8860,27,-264,-87,307,-50,29
8865,31,-261,-92,330,-42,17
8870,27,-258,-90,347,-34,7
8875,27,-253,-88,360,-30,-3
8880,26,-250,-84,369,-21,-9
8885,26,-248,-86,371,-16,-17
8890,29,-244,-82,365,-12,-20
8895,31,-241,-83,352,-9,-22
8900,31,-237,-81,331,-4,-21
8905,34,-235,-81,304,2,-20
8910,35,-232,-75,273,10,-18
8915,41,-239,-77,239,19,-16
8920,37,-235,-78,202,26,-13
8925,39,-233,-79,168,35,-9
8930,38,-232,-72,135,42,-6
8935,42,-240,-75,101,49,-4
8940,41,-239,-81,71,57,-2
8945,40,-241,-77,43,65,-2
8950,46,-241,-81,16,70,-4
8955,42,-244,-78,-2,75,-7
8960,42,-246,-81,-21,79,-11
8965,43,-244,-80,-37,82,-16
8970,47,-251,-84,-52,89,-21
8975,44,-251,-87,-67,99,-26
8980,47,-256,-85,-78,108,-32
8985,46,-256,-89,-88,119,-34
8990,47,-259,-87,-94,133,-38
8995,46,-260,-91,-98,145,-43
9000,45,-262,-91,-96,155,-45
9005,44,-266,-86,-91,165,-50
9010,39,-268,-88,-82,173,-53
9015,39,-271,-87,-71,180,-57
9020,40,-269,-87,-58,184,-60
9025,38,-272,-84,-41,187,-60
9030,39,-273,-79,-25,189,-58
9035,38,-274,-84,-7,191,-58
9040,35,-272,-77,9,193,-55
9045,32,-268,-80,26,194,-51
9050,31,-268,-79,42,195,-47
9055,32,-265,-81,54,193,-42
9060,31,-267,-75,65,192,-37
9065,29,-261,-75,71,188,-32
9070,31,-264,-72,75,184,-25
9075,32,-258,-75,78,178,-18
9080,28,-259,-69,80,173,-13
9085,31,-259,-72,85,170,-7
9090,29,-257,-71,87,165,-4
9095,30,-256,-67,90,163,-1
9100,31,-256,-70,92,161,5
9105,30,-255,-71,90,161,8
9110,29,-252,-69,86,165,12
9115,31,-251,-68,76,170,14
9120,32,-249,-68,65,176,14
9125,35,-249,-70,50,181,13
9130,36,-243,-67,32,190,9
9135,34,-249,-70,11,196,5
9140,36,-251,-70,-6,206,1
9145,34,-251,-69,-23,217,0
9150,37,-254,-75,-41,224,-5
9155,35,-255,-75,-56,232,-11
9160,35,-255,-74,-66,237,-15
9165,35,-257,-79,-73,240,-21
9170,32,-255,-73,-77,242,-28
9175,31,-257,-73,-77,244,-34
9180,32,-257,-75,-74,245,-41
9185,34,-262,-76,-70,245,-46
9190,28,-261,-74,-62,247,-49
9195,30,-259,-75,-56,246,-54
9200,28,-259,-73,-49,241,-56
9205,29,-263,-74,-41,236,-58
9210,29,-265,-71,-33,229,-59
9215,26,-264,-74,-25,221,-62
9220,30,-262,-75,-20,212,-63
9225,24,-259,-71,-14,202,-63
9230,27,-264,-71,-10,193,-64
9235,25,-259,-75,-10,184,-64
9240,28,-264,-70,-15,174,-62
9245,29,-262,-74,-23,168,-61
9250,30,-265,-75,-34,164,-57
9255,29,-263,-67,-48,161,-51
9260,33,-265,-72,-61,156,-46
9265,35,-268,-68,-73,154,-40
9270,37,-271,-67,-78,151,-33
9275,36,-269,-65,-76,148,-27
9280,39,-269,-65,-69,145,-21
9285,37,-268,-68,-55,144,-17
9290,44,-270,-65,-36,141,-14
9295,41,-271,-69,-10,140,-12
9300,41,-266,-69,16,139,-12
9305,41,-265,-67,41,139,-13
9310,42,-264,-66,68,140,-16
9315,41,-261,-68,88,146,-22
9320,41,-259,-64,104,154,-27
9325,38,-257,-65,114,164,-33
9330,38,-255,-68,118,176,-39
9335,34,-255,-65,114,187,-41
9340,35,-255,-66,101,196,-44
9345,27,-257,-66,86,199,-44
9350,36,-256,-64,68,197,-45
9355,36,-253,-65,53,193,-43
9360,36,-258,-66,39,187,-43
9365,35,-257,-65,29,180,-41
9370,33,-258,-65,21,175,-42
9375,32,-261,-64,15,173,-41
9380,29,-258,-69,13,171,-41
9385,32,-265,-65,16,170,-40
9390,28,-262,-64,17,166,-38
9395,30,-262,-72,18,162,-38
9400,39,-266,-71,12,159,-36
9405,31,-263,-69,2,153,-32
9410,28,-265,-69,-8,147,-27
9415,29,-266,-66,-13,140,-24
9420,28,-268,-65,-8,133,-20
9425,28,-268,-66,3,127,-21
9430,30,-267,-66,18,123,-20
9435,31,-268,-64,31,119,-20
9440,27,-263,-69,40,115,-19
9445,30,-266,-68,46,110,-16
9450,37,-268,-63,51,105,-11
9455,31,-262,-71,56,99,-8
9460,33,-265,-66,60,93,-7
9465,35,-263,-64,65,90,-6
9470,33,-260,-64,70,86,-5
9475,33,-263,-64,74,85,-5
9480,34,-258,-64,79,82,-4
9485,37,-260,-63,83,80,-3
9490,33,-259,-61,81,80,-5
9495,34,-255,-62,78,80,-6
9500,36,-255,-61,76,78,-7
9505,34,-257,-61,71,78,-9
9510,36,-255,-63,66,78,-11
9515,34,-255,-62,61,78,-14
9520,35,-256,-62,57,78,-14
9525,37,-256,-65,48,81,-13
9530,38,-258,-64,41,82,-13
9535,39,-256,-64,40,83,-12
9540,39,-257,-58,39,85,-11
9545,37,-259,-62,35,85,-8
9550,39,-259,-60,35,87,-5
9555,31,-257,-69,38,85,-3
9560,43,-261,-66,40,87,-2
9565,37,-257,-64,38,83,-3
9570,43,-260,-62,34,81,-3
9575,39,-263,-61,28,78,-4
9580,40,-261,-62,23,77,-6
9585,39,-264,-63,19,77,-8
9590,38,-265,-61,16,82,-7
9595,37,-267,-66,15,87,-9
9600,37,-262,-60,18,93,-9
9605,39,-268,-64,26,96,-9
9610,37,-268,-62,36,99,-10
9615,42,-266,-60,50,103,-15
9620,37,-264,-60,64,105,-19
9625,38,-267,-63,75,108,-20
9630,36,-266,-59,86,111,-22
9635,36,-263,-56,97,114,-25
9640,37,-261,-58,104,117,-26
9645,39,-262,-61,104,118,-26
9650,38,-257,-61,104,118,-23
9655,39,-256,-64,103,120,-19
9660,42,-256,-60,99,118,-17
9665,40,-255,-60,96,117,-17
9670,45,-259,-59,92,116,-19
9675,42,-253,-61,85,115,-20
9680,43,-256,-60,74,112,-21
9685,37,-255,-59,58,110,-21
9690,37,-256,-62,42,108,-19
9695,41,-257,-59,27,105,-16
9700,38,-256,-62,9,104,-15
9705,38,-257,-57,-2,103,-12
9710,37,-255,-56,-8,104,-9
9715,37,-263,-54,-11,110,-7
9720,37,-263,-58,-5,118,-6
9725,39,-266,-55,0,126,-6
9730,44,-266,-51,4,133,-5
9735,40,-262,-55,9,138,-4
9740,43,-265,-51,15,142,-2
9745,42,-267,-52,21,146,-1
9750,43,-265,-52,27,149,0
9755,42,-265,-50,34,152,1
9760,41,-263,-58,40,155,0
9765,39,-265,-53,44,157,0
9770,42,-260,-50,48,159,-1
9775,41,-259,-51,49,164,-4
9780,40,-259,-53,45,164,-7
9785,43,-256,-55,41,165,-12
9790,40,-257,-51,36,164,-15
9795,42,-257,-56,28,163,-19
9800,37,-256,-55,17,161,-19
9805,38,-256,-52,8,162,-17
9810,39,-257,-50,-1,160,-16
9815,38,-258,-52,-5,162,-13
9820,37,-256,-48,-7,165,-15
9825,43,-260,-50,-7,166,-15
9830,36,-258,-48,-7,169,-17
9835,35,-255,-55,-10,171,-19
9840,38,-259,-49,-11,173,-23
9845,33,-254,-49,-13,172,-25
9850,36,-260,-52,-15,170,-25
9855,37,-257,-53,-19,169,-24
9860,36,-257,-49,-22,167,-24
9865,35,-257,-49,-27,165,-24
9870,36,-258,-53,-30,162,-23
9875,35,-259,-52,-37,159,-22
9880,33,-257,-53,-42,158,-21
9885,35,-259,-50,-48,155,-18
9890,36,-256,-52,-53,150,-14
9895,37,-260,-53,-61,145,-12
9900,36,-258,-54,-68,140,-9
9905,38,-260,-51,-69,135,-7
9910,37,-263,-56,-69,130,-6
9915,37,-262,-53,-67,122,-6
9920,39,-260,-56,-63,115,-6
9925,35,-261,-54,-60,108,-7
9930,38,-265,-59,-55,103,-8
9935,39,-264,-58,-53,99,-6
9940,38,-262,-47,-55,95,-3
9945,37,-260,-53,-58,92,-1
9950,35,-263,-52,-63,88,-1
9955,35,-260,-51,-69,83,-1
9960,34,-262,-56,-75,79,0
9965,35,-263,-53,-82,75,-2
9970,36,-262,-50,-83,73,-6
9975,34,-260,-46,-81,72,-8
9980,37,-259,-49,-78,71,-10
9985,32,-260,-49,-76,70,-10
9990,36,-262,-50,-71,68,-11
9995,34,-260,-51,-68,68,-9
10000,38,-257,-53,-63,63,-10
10005,35,-259,-51,-61,63,-9
10010,35,-260,-52,-60,63,-6
10015,35,-260,-53,-60,61,-5
10020,37,-258,-49,-59,60,-5
10025,31,-257,-49,-61,58,-6
10030,36,-258,-54,-66,55,-7
10035,39,-255,-49,-69,53,-8
10040,37,-257,-54,-73,51,-6
10045,38,-260,-49,-76,48,-7
10050,38,-260,-53,-79,43,-7
10055,38,-258,-54,-83,39,-6
10060,38,-262,-51,-84,34,-6
10065,35,-261,-50,-82,29,-6
10070,35,-262,-51,-81,26,-5
10075,35,-265,-48,-79,23,-5
10080,35,-260,-54,-72,22,-4
10085,38,-259,-56,-67,18,-2
10090,35,-263,-52,-65,13,-1
10095,37,-259,-59,-60,11,-1
10100,35,-260,-55,-55,7,1
10105,34,-259,-55,-53,5,2
10110,40,-262,-56,-54,3,0
10115,37,-259,-51,-55,0,-1
10120,37,-259,-58,-57,0,-2
10125,37,-261,-55,-59,-1,-4
10130,39,-259,-58,-63,1,-5
10135,37,-257,-54,-67,2,-5
10140,39,-258,-55,-70,2,-7
10145,39,-257,-53,-73,3,-7
10150,39,-258,-52,-74,4,-7
10155,38,-261,-53,-79,4,-8
10160,38,-258,-53,-80,4,-8
10165,42,-261,-56,-82,1,-7
10170,39,-259,-58,-83,1,-8
10175,41,-262,-61,-79,0,-9
10180,40,-264,-60,-79,-2,-10
10185,40,-262,-52,-77,-3,-9
10190,39,-260,-59,-73,-3,-9
10195,37,-261,-53,-69,-3,-9
10200,43,-262,-59,-63,-2,-9
10205,42,-262,-52,-59,1,-11
10210,44,-264,-53,-57,3,-11
10215,45,-262,-56,-56,4,-11
10220,39,-261,-57,-60,4,-11
10225,42,-259,-60,-63,3,-11
10230,39,-258,-54,-71,1,-13
10235,39,-260,-54,-78,-1,-13
10240,37,-262,-55,-81,-2,-14
10245,37,-263,-54,-85,-3,-15
10250,38,-261,-53,-88,-2,-16
10255,38,-263,-59,-88,0,-15
10260,37,-261,-52,-87,1,-15
10265,40,-264,-54,-84,3,-12
10270,38,-263,-53,-78,2,-12
10275,38,-262,-55,-74,2,-11
10280,37,-264,-57,-68,1,-9
10285,39,-260,-56,-61,2,-9
10290,38,-260,-58,-57,1,-8
10295,37,-260,-57,-54,0,-9
10300,38,-261,-57,-53,1,-8
10305,42,-259,-57,-55,0,-9
10310,42,-260,-55,-57,-2,-9
10315,39,-261,-55,-61,-5,-7
10320,43,-266,-53,-61,-6,-7
10325,39,-262,-57,-62,-8,-5
10330,42,-263,-60,-62,-10,-5
10335,40,-260,-56,-59,-8,-5
10340,38,-257,-54,-56,-7,-2
10345,38,-259,-59,-53,-8,-2
10350,39,-260,-57,-50,-8,-2
10355,40,-262,-54,-52,-7,-2
10360,38,-259,-58,-53,-4,-3
10365,41,-263,-55,-55,-5,-5
10370,45,-256,-51,-60,-2,-5
10375,42,-262,-56,-63,-2,-5
10380,39,-263,-57,-66,-1,-6
10385,39,-264,-55,-65,1,-6
10390,39,-263,-57,-63,3,-6
10395,36,-264,-54,-60,4,-5
10400,39,-264,-54,-54,4,-5
10405,39,-263,-56,-50,6,-6
10410,43,-266,-55,-46,7,-6
10415,38,-263,-59,-42,7,-7
10420,40,-260,-58,-40,9,-7
10425,39,-259,-55,-37,10,-6
10430,37,-261,-57,-37,11,-4
10435,37,-258,-58,-40,10,-2
10440,38,-257,-52,-43,9,1
10445,39,-258,-59,-45,7,3
10450,38,-256,-59,-53,8,3
10455,37,-257,-61,-60,9,4
10460,36,-257,-58,-69,11,4
10465,35,-257,-62,-75,15,4
10470,40,-260,-61,-83,17,3
10475,38,-259,-57,-89,18,4
10480,40,-263,-60,-93,18,3
10485,38,-262,-57,-94,17,2
10490,39,-261,-55,-94,18,1
10495,41,-263,-54,-89,19,-1
10500,39,-261,-56,-83,22,-2
10505,38,-263,-57,-77,25,-4
10510,40,-262,-57,-67,27,-8
10515,38,-263,-58,-60,29,-9
10520,40,-263,-59,-53,31,-10
10525,39,-259,-58,-50,32,-12
10530,34,-257,-57,-47,32,-12
10535,39,-264,-58,-49,32,-14
10540,38,-258,-57,-49,33,-14
10545,39,-259,-58,-51,34,-12
10550,39,-260,-58,-51,34,-13
10555,37,-259,-61,-54,34,-15
10560,37,-260,-57,-54,33,-15
10565,36,-258,-57,-55,33,-16
10570,39,-263,-59,-58,30,-15
10575,41,-261,-59,-60,28,-15
10580,38,-262,-61,-64,25,-16
10585,34,-261,-59,-67,23,-17
10590,40,-262,-60,-69,18,-16
10595,35,-260,-61,-71,13,-17
10600,40,-261,-57,-72,9,-14
10605,36,-259,-61,-73,6,-16
10610,41,-263,-59,-73,2,-15
10615,38,-260,-58,-72,-2,-13
10620,38,-261,-58,-74,-4,-13
10625,40,-261,-60,-73,-6,-12
10630,41,-262,-61,-73,-7,-13
10635,43,-261,-60,-72,-9,-14
10640,36,-259,-63,-71,-8,-13
10645,42,-253,-58,-75,-7,-12
10650,40,-257,-59,-79,-3,-12
10655,42,-257,-61,-85,-1,-11
10660,40,-256,-59,-90,3,-9
10665,42,-260,-58,-95,3,-10
10670,42,-259,-62,-103,3,-9
10675,40,-257,-63,-109,5,-9
10680,42,-261,-64,-116,6,-8
10685,42,-261,-63,-122,6,-8
10690,41,-260,-66,-126,8,-7
10695,48,-260,-55,-127,11,-5
10700,42,-267,-63,-128,15,-4
10705,43,-266,-62,-125,21,-5
10710,45,-266,-60,-118,24,-5
10715,42,-266,-64,-112,27,-4
10720,42,-268,-60,-101,27,-5
10725,39,-267,-62,-86,28,-6
10730,40,-265,-62,-71,29,-7
10735,42,-264,-61,-56,29,-5
10740,42,-266,-62,-44,28,-7
10745,40,-261,-59,-34,28,-7
10750,45,-263,-67,-24,28,-8
10755,39,-261,-64,-19,29,-6
10760,42,-260,-63,-17,30,-7
10765,42,-259,-64,-20,32,-8
10770,41,-259,-64,-25,36,-8
10775,41,-258,-63,-32,37,-9
10780,42,-259,-56,-41,37,-9
10785,46,-258,-61,-46,38,-8
10790,40,-260,-59,-55,39,-7
10795,40,-257,-61,-64,41,-7
10800,39,-258,-59,-74,43,-6
10805,39,-257,-56,-80,47,-6
10810,39,-261,-55,-85,49,-5
10815,37,-259,-61,-87,52,-4
10820,39,-259,-55,-87,56,-4
10825,40,-260,-58,-87,57,-4
10830,37,-258,-57,-86,58,-2
10835,38,-261,-56,-83,55,-2
10840,36,-260,-58,-78,50,-2
10845,36,-259,-57,-74,47,-3
10850,37,-261,-56,-69,41,-2
10855,37,-262,-59,-67,35,-2
10860,33,-258,-63,-66,29,-5
10865,38,-258,-61,-65,25,-4
10870,35,-261,-64,-67,22,-4
10875,38,-259,-64,-67,21,-5
10880,38,-261,-62,-67,20,-6
10885,35,-260,-63,-69,19,-4
10890,36,-262,-63,-70,18,-7
10895,38,-263,-64,-70,19,-6
10900,37,-258,-66,-71,21,-7
10905,40,-259,-64,-70,22,-8
10910,40,-261,-61,-69,21,-9
10915,42,-262,-66,-68,22,-9
10920,38,-260,-60,-65,23,-10
10925,37,-260,-63,-61,26,-11
10930,40,-262,-61,-54,27,-12
10935,40,-263,-58,-48,30,-14
10940,40,-261,-57,-39,32,-12
10945,39,-259,-61,-32,35,-13
10950,39,-259,-56,-28,37,-14
10955,38,-259,-57,-28,37,-15
10960,41,-258,-58,-29,36,-16
10965,35,-260,-58,-34,35,-14
10970,40,-253,-62,-37,34,-13
10975,40,-257,-59,-43,34,-14
10980,41,-261,-57,-51,33,-12
10985,39,-258,-60,-59,28,-11
10990,39,-257,-62,-67,24,-10
10995,40,-259,-55,-71,19,-9
11000,41,-259,-61,-78,16,-8
11005,41,-260,-60,-81,13,-9
11010,42,-260,-62,-84,11,-9
11015,40,-262,-57,-85,8,-12
11020,39,-260,-59,-83,10,-15
11025,38,-263,-65,-80,12,-16
11030,36,-263,-61,-77,14,-17
11035,35,-259,-60,-75,17,-18
11040,35,-262,-64,-71,20,-20
11045,36,-261,-62,-71,21,-19
11050,37,-261,-60,-73,23,-20
11055,37,-263,-68,-72,23,-20
11060,36,-262,-60,-73,24,-20
11065,34,-261,-63,-71,24,-19
11070,37,-259,-60,-70,23,-18
11075,28,-261,-60,-68,22,-17
11080,37,-259,-64,-65,22,-17
11085,38,-258,-60,-63,21,-19
11090,40,-263,-62,-59,22,-18
11095,40,-261,-59,-57,24,-16
11100,41,-261,-59,-55,24,-17
11105,39,-259,-62,-54,24,-18
11110,40,-260,-60,-57,21,-17
11115,37,-259,-61,-59,19,-16
11120,39,-262,-58,-61,18,-15
11125,43,-263,-63,-61,15,-14
11130,48,-264,-63,-61,14,-14
11135,40,-260,-64,-59,13,-11
11140,41,-262,-63,-56,12,-12
11145,43,-263,-62,-49,10,-12
11150,40,-261,-61,-45,11,-11
11155,39,-260,-60,-39,11,-12
11160,37,-257,-61,-37,11,-13
11165,39,-257,-63,-37,15,-12
11170,41,-258,-57,-41,17,-14
11175,39,-256,-62,-46,19,-14
11180,37,-259,-62,-54,21,-13
11185,45,-258,-59,-62,23,-13
11190,39,-259,-63,-67,24,-13
11195,37,-259,-61,-72,26,-13
11200,42,-260,-61,-78,25,-11
11205,38,-260,-59,-79,23,-10
11210,36,-262,-56,-81,22,-8
11215,37,-262,-62,-83,21,-7
11220,40,-263,-61,-81,19,-6
11225,42,-264,-61,-77,19,-5
11230,36,-263,-64,-70,18,-3
11235,39,-264,-62,-66,16,-2
11240,41,-266,-64,-60,14,-2
11245,38,-262,-61,-53,11,0
11250,37,-261,-63,-50,8,-2
11255,37,-261,-63,-44,7,-3
11260,37,-261,-60,-43,6,-5
11265,35,-259,-62,-41,7,-6
11270,39,-262,-65,-43,8,-7
11275,40,-261,-63,-44,9,-7
11280,38,-258,-61,-45,9,-7
11285,41,-262,-64,-46,11,-9
11290,39,-259,-62,-46,11,-8
11295,35,-260,-65,-48,11,-10
11300,40,-259,-63,-47,10,-11
11305,37,-259,-65,-46,8,-13
11310,36,-259,-62,-43,7,-15
11315,36,-261,-60,-40,5,-16
11320,41,-263,-64,-35,5,-17
11325,40,-263,-60,-32,3,-16
11330,39,-259,-62,-31,3,-15
11335,42,-261,-60,-29,4,-13
11340,39,-260,-59,-30,7,-13
11345,41,-263,-60,-29,9,-13
11350,42,-260,-57,-32,9,-12
11355,39,-259,-62,-35,11,-13
11360,43,-262,-62,-38,10,-12
11365,41,-259,-63,-44,11,-11
11370,41,-262,-61,-45,11,-10
11375,42,-262,-62,-48,13,-9
11380,42,-261,-62,-47,15,-7
11385,41,-262,-54,-45,16,-7
11390,45,-261,-57,-40,18,-4
11395,43,-263,-59,-36,21,-3
11400,41,-260,-59,-30,21,-3
11405,40,-262,-60,-20,22,-2
11410,40,-259,-60,-10,21,-1
11415,44,-259,-60,-3,20,0
11420,40,-261,-61,-2,19,0
11425,41,-257,-63,-1,17,1
11430,40,-256,-62,-4,15,1
11435,43,-259,-60,-10,13,1
11440,43,-255,-63,-17,12,2
11445,41,-256,-61,-24,11,2
11450,42,-259,-63,-32,11,2
11455,41,-255,-65,-41,11,1
11460,42,-260,-59,-50,14,1
11465,41,-260,-64,-56,17,2
11470,40,-260,-65,-59,21,0
11475,42,-261,-62,-62,24,-2
11480,43,-260,-59,-65,27,-3
11485,40,-260,-63,-66,32,-3
11490,44,-261,-61,-68,34,-3
11495,43,-263,-60,-69,37,-3
11500,40,-260,-63,-70,39,-3
11505,37,-263,-64,-69,40,-5
11510,39,-260,-68,-67,41,-5
11515,38,-262,-63,-64,40,-8
11520,38,-262,-64,-59,40,-10
11525,39,-265,-64,-53,41,-12
11530,39,-262,-62,-45,43,-15
11535,41,-262,-64,-37,45,-17
11540,35,-261,-63,-30,45,-19
11545,39,-264,-62,-20,45,-20
11550,39,-262,-58,-16,42,-20
11555,38,-262,-59,-15,36,-20
11560,40,-260,-63,-12,32,-20
11565,37,-259,-63,-12,25,-19
11570,42,-259,-60,-12,21,-17
11575,38,-258,-61,-11,18,-14
11580,39,-256,-63,-14,15,-12
11585,38,-257,-57,-17,14,-10
11590,40,-258,-60,-24,17,-10
11595,40,-257,-59,-31,21,-7
11600,42,-258,-62,-39,24,-4
11605,38,-259,-62,-45,27,-2
11610,41,-259,-57,-51,29,-2
11615,41,-261,-59,-54,30,-1
11620,35,-258,-46,-56,32,-1
11625,40,-259,-61,-56,32,-2
11630,42,-260,-59,-54,29,-1
11635,39,-263,-63,-52,30,-3
11640,45,-264,-59,-51,30,-4
11645,41,-259,-63,-49,30,-4
11650,38,-260,-62,-50,30,-4
11655,41,-261,-61,-48,30,-4
11660,43,-263,-61,-44,28,-5
11665,41,-258,-63,-43,27,-4
11670,40,-263,-64,-41,27,-4
11675,42,-268,-62,-40,28,-3
11680,42,-260,-62,-42,29,-3
11685,39,-261,-60,-46,28,-3
11690,42,-261,-62,-49,28,-2
11695,38,-260,-60,-49,27,-3
11700,43,-262,-62,-49,27,-2
11705,37,-262,-63,-48,26,-3
11710,38,-262,-66,-48,26,-4
11715,39,-260,-63,-45,24,-4
11720,39,-261,-62,-42,21,-4
11725,38,-259,-58,-39,19,-5
11730,35,-260,-59,-35,17,-6
11735,35,-261,-63,-30,15,-9
11740,36,-262,-64,-26,16,-10
11745,36,-261,-62,-26,17,-10
11750,36,-261,-62,-24,15,-11
11755,37,-261,-63,-23,16,-11
11760,34,-259,-58,-22,18,-12
11765,37,-263,-60,-20,18,-11
11770,37,-259,-57,-18,18,-11
11775,37,-258,-62,-20,19,-10
11780,38,-260,-62,-21,18,-10
11785,39,-260,-60,-22,18,-9
11790,40,-259,-61,-19,17,-9
11795,38,-260,-60,-18,15,-8
11800,40,-259,-64,-17,14,-8
11805,41,-259,-59,-17,13,-9
11810,39,-261,-62,-18,11,-7
11815,41,-258,-60,-20,9,-7
11820,43,-260,-61,-19,8,-7
11825,41,-263,-60,-20,7,-6
11830,39,-266,-62,-21,7,-5
11835,38,-257,-64,-22,11,-5
11840,41,-259,-62,-22,14,-6
11845,39,-257,-62,-24,17,-8
11850,39,-261,-63,-23,21,-10
11855,37,-257,-56,-25,26,-11
11860,40,-259,-63,-30,29,-11
11865,42,-258,-59,-36,33,-12
11870,40,-258,-62,-42,33,-13
11875,41,-258,-61,-51,34,-11
11880,44,-260,-61,-56,33,-11
11885,39,-259,-63,-60,32,-10
11890,37,-259,-63,-62,30,-10
11895,39,-260,-57,-65,26,-10
11900,42,-262,-59,-64,23,-9
11905,38,-260,-59,-63,20,-7
11910,39,-260,-61,-61,13,-7
11915,40,-260,-61,-58,8,-6
11920,37,-262,-63,-54,3,-5
11925,35,-260,-63,-51,-1,-1
11930,38,-260,-60,-48,-4,-1
11935,42,-262,-62,-44,-4,0
11940,37,-259,-61,-38,-4,-1
11945,47,-259,-61,-35,-3,0
11950,41,-263,-63,-34,-1,-1
11955,42,-260,-60,-34,-1,1
11960,40,-261,-61,-33,-1,0
11965,41,-258,-64,-35,0,0
11970,43,-261,-63,-38,0,-2
11975,38,-259,-63,-40,1,-4
11980,39,-263,-61,-41,1,-5
11985,44,-263,-61,-45,5,-6
11990,44,-262,-54,-48,10,-6
11995,35,-260,-58,-49,14,-7
