timestamp,acc_x,acc_y,acc_z,gyro_x,gyro_y,gyro_z
0,0,-233,-112,95,151,24
5,-1,-230,-112,95,147,19
10,-2,-232,-112,92,142,15
15,-1,-231,-114,87,135,12
20,-3,-234,-112,83,129,8
25,-1,-232,-116,79,123,6
30,-6,-228,-112,74,119,7
35,-5,-229,-110,67,117,5
40,-7,-229,-115,61,114,4
45,-7,-230,-109,55,113,3
50,-4,-225,-107,48,112,3
55,-3,-228,-110,44,113,3
60,-5,-226,-110,42,114,4
65,-2,-227,-108,42,114,5
70,-8,-227,-111,43,115,6
75,-2,-228,-109,42,115,7
80,-2,-227,-109,40,115,10
85,-3,-228,-108,41,117,10
90,0,-232,-112,42,116,10
95,0,-232,-111,45,116,9
100,0,-230,-113,48,117,8
105,-1,-230,-113,50,113,7
110,1,-227,-112,52,112,5
115,0,-228,-110,53,110,3
120,1,-229,-110,52,107,2
125,1,-230,-112,50,106,0
130,4,-229,-102,46,104,0
135,1,-228,-111,40,102,-1
140,0,-225,-109,38,101,0
145,-2,-224,-107,33,102,3
150,-1,-226,-108,29,103,4
155,2,-228,-107,26,105,5
160,0,-228,-107,23,106,8
165,0,-231,-107,17,109,9
170,0,-231,-109,12,113,10
175,0,-231,-104,6,116,12
180,-1,-232,-108,3,118,14
185,-1,-232,-106,2,118,17
190,-2,-236,-113,2,116,17
195,0,-237,-108,4,114,17
200,-1,-236,-110,6,113,18
205,-3,-235,-105,11,110,18
210,-2,-234,-109,17,104,15
215,0,-235,-104,18,100,14
220,-3,-236,-108,19,97,14
225,-2,-233,-103,19,96,13
230,-4,-235,-105,19,94,12
235,0,-236,-106,19,91,12
240,-4,-224,-107,20,89,12
245,0,-232,-105,20,86,13
250,-2,-232,-108,21,82,12
255,-3,-233,-106,18,78,8
260,-4,-235,-105,15,72,4
265,-3,-234,-109,12,67,-1
270,-2,-235,-108,10,62,-4
275,-6,-237,-106,10,57,-9
280,-6,-237,-108,10,53,-11
285,-8,-235,-105,11,51,-14
290,-4,-236,-108,13,46,-15
295,-7,-236,-106,14,43,-17
300,-4,-238,-105,15,40,-17
305,-5,-238,-105,15,38,-19
310,-6,-235,-110,15,35,-20
315,-4,-236,-105,14,30,-19
320,-3,-237,-107,12,25,-19
325,-4,-235,-108,9,21,-21
330,-2,-234,-104,5,16,-20
335,0,-236,-104,4,12,-21
340,0,-238,-104,3,9,-21
345,-4,-233,-104,2,6,-22
350,1,-236,-110,2,7,-22
355,-1,-234,-104,4,7,-22
360,-1,-235,-102,6,7,-22
365,-1,-234,-105,11,9,-23
370,0,-235,-103,14,12,-23
375,0,-235,-103,16,13,-22
380,0,-237,-104,15,15,-24
385,0,-236,-99,12,16,-22
390,0,-238,-102,11,16,-23
395,0,-236,-104,9,16,-23
400,2,-234,-103,7,17,-26
405,-1,-236,-105,5,17,-27
410,-1,-237,-104,4,17,-28
415,-3,-235,-105,2,17,-31
420,0,-233,-102,3,18,-34
425,-2,-236,-102,4,18,-34
430,-3,-235,-103,6,20,-35
435,-4,-234,-102,6,20,-34
440,-1,-240,-104,6,20,-36
445,-1,-238,-97,6,20,-37
450,-2,-241,-103,4,20,-36
455,-4,-235,-105,2,20,-37
460,-1,-235,-108,1,21,-36
465,-7,-237,-99,2,22,-35
470,-6,-234,-101,1,22,-34
475,-3,-237,-104,2,23,-33
480,-4,-237,-105,4,23,-32
485,-7,-238,-102,9,23,-32
490,-3,-239,-103,11,24,-31
495,-6,-233,-101,13,23,-31
500,-8,-239,-106,13,24,-31
505,-8,-237,-102,12,24,-29
510,-8,-237,-104,9,23,-28
515,-5,-235,-102,6,22,-27
520,-6,-233,-103,2,20,-25
525,-6,-237,-105,-2,22,-25
530,-3,-236,-107,-5,22,-25
535,-5,-234,-105,-10,23,-24
540,-3,-235,-103,-12,22,-22
545,-6,-234,-105,-14,24,-22
550,-9,-233,-103,-16,24,-20
555,-2,-240,-99,-17,25,-19
560,-7,-236,-103,-16,26,-19
565,-10,-239,-96,-16,25,-20
570,-7,-236,-98,-15,24,-18
575,-4,-239,-103,-15,24,-17
580,-5,-236,-100,-13,24,-16
585,-8,-236,-98,-11,24,-16
590,-1,-239,-102,-10,25,-16
595,-5,-236,-102,-8,26,-16
600,-6,-240,-104,-6,29,-15
605,-7,-238,-103,-5,30,-15
610,-8,-237,-99,-4,31,-14
615,-7,-238,-98,-1,33,-12
620,-8,-235,-103,1,35,-11
625,-8,-235,-99,2,35,-11
630,-7,-237,-101,1,37,-10
635,-3,-237,-102,-1,37,-10
640,-6,-237,-103,-3,37,-8
645,-6,-235,-105,-6,38,-9
650,-7,-239,-103,-8,38,-6
655,-4,-240,-103,-11,39,-6
660,-2,-241,-101,-13,39,-5
665,-6,-236,-106,-13,41,-6
670,-2,-240,-105,-14,41,-5
675,-2,-237,-100,-13,43,-3
680,-2,-239,-100,-12,44,-3
685,-4,-235,-102,-11,46,-2
690,-5,-236,-101,-11,48,-2
695,-3,-235,-102,-11,51,0
700,-5,-234,-101,-10,53,-1
705,-6,-239,-101,-10,54,1
710,-2,-234,-102,-9,57,1
715,-5,-235,-103,-10,60,0
720,-4,-239,-99,-9,63,0
725,-2,-237,-103,-11,66,0
730,-4,-235,-106,-11,69,0
735,-2,-236,-101,-11,71,1
740,-6,-235,-101,-11,74,1
745,-5,-235,-100,-10,75,1
750,-4,-236,-101,-8,75,2
755,-7,-235,-100,-7,77,3
760,-7,-237,-102,-8,80,2
765,-6,-238,-99,-8,79,2
770,-6,-237,-100,-10,80,4
775,-3,-239,-100,-12,79,4
780,-7,-239,-100,-13,80,5
785,-12,-237,-104,-13,81,5
790,-3,-240,-101,-10,82,6
795,-8,-237,-101,-6,82,6
800,-7,-236,-103,-1,82,8
805,-4,-240,-103,4,83,8
810,-5,-236,-101,6,83,9
815,-7,-236,-100,9,82,9
820,-4,-238,-101,9,83,9
825,-6,-235,-102,9,81,10
830,-7,-236,-99,6,81,10
835,-2,-237,-99,4,82,9
840,-7,-237,-101,2,82,9
845,-9,-236,-102,1,83,7
850,-9,-238,-96,-1,83,8
855,-3,-241,-102,-2,82,8
860,-7,-239,-102,-1,84,7
865,-7,-236,-102,1,84,5
870,-3,-238,-103,4,83,5
875,-9,-236,-102,6,83,5
880,-7,-234,-101,8,83,4
885,-8,-233,-104,10,82,4
890,-7,-237,-101,10,81,5
895,-3,-228,-99,10,80,3
900,-9,-233,-102,10,79,4
905,-5,-236,-103,10,78,5
910,-9,-235,-100,8,77,5
915,-5,-236,-106,6,76,5
920,-7,-235,-106,5,77,4
925,-8,-232,-99,6,78,4
930,-3,-234,-104,4,80,3
935,-5,-235,-102,4,80,5
940,-4,-238,-105,3,82,5
945,-7,-235,-98,0,80,6
950,-4,-237,-105,-1,80,6
955,-3,-236,-104,-4,80,6
960,-8,-238,-102,-6,79,4
965,-7,-239,-103,-7,78,4
970,-7,-239,-103,-7,77,4
975,-5,-242,-100,-7,77,2
980,-5,-242,-104,-5,77,1
985,-3,-239,-102,-2,75,-1
990,-5,-237,-101,3,76,0
995,-6,-239,-101,8,75,-2
1000,-7,-239,-99,13,75,-2
1005,-6,-239,-98,19,75,-1
1010,-6,-239,-103,22,74,-3
1015,-7,-240,-97,26,74,-3
1020,-4,-238,-101,30,73,-3
1025,-6,-234,-100,34,73,-5
1030,-4,-236,-100,37,73,-6
1035,-5,-237,-101,38,74,-7
1040,-7,-234,-102,39,73,-6
1045,-5,-235,-104,39,74,-7
1050,-4,-236,-102,36,75,-6
1055,-5,-234,-101,32,74,-6
1060,-8,-234,-102,28,73,-6
1065,-8,-234,-98,26,72,-5
1070,-5,-233,-99,23,74,-4
1075,-5,-236,-101,19,76,-3
1080,-1,-238,-101,15,75,-3
1085,-3,-235,-104,13,75,-2
1090,-4,-239,-102,10,75,-2
1095,-6,-235,-101,8,76,-1
1100,-2,-238,-99,7,77,-3
1105,-7,-236,-100,5,77,-6
1110,-10,-239,-110,5,76,-5
1115,-3,-239,-100,5,76,-7
1120,-8,-239,-102,6,74,-8
1125,-2,-238,-102,7,73,-8
1130,-3,-237,-102,8,72,-8
1135,-3,-234,-104,9,73,-9
1140,-2,-237,-100,10,73,-11
1145,-7,-234,-99,11,72,-12
1150,-3,-236,-99,12,71,-12
1155,-3,-238,-100,11,69,-12
1160,-5,-238,-99,10,71,-12
1165,-7,-236,-99,7,70,-11
1170,-5,-238,-99,5,69,-11
1175,-6,-238,-101,4,70,-13
1180,-9,-236,-100,4,69,-12
1185,-2,-240,-103,5,69,-12
1190,-5,-238,-101,6,68,-13
1195,-4,-238,-98,7,67,-12
1200,-2,-236,-100,9,67,-14
1205,-4,-235,-100,9,66,-12
1210,-3,-237,-100,7,64,-11
1215,-11,-235,-95,6,62,-10
1220,-4,-233,-101,2,61,-11
1225,-2,-238,-103,0,60,-10
1230,-3,-238,-102,-4,61,-11
1235,-7,-237,-101,-9,60,-9
1240,-7,-236,-101,-12,60,-9
1245,-5,-237,-101,-14,59,-10
1250,-7,-237,-100,-17,60,-11
1255,-9,-237,-96,-17,59,-11
1260,-7,-237,-99,-17,59,-11
1265,-7,-238,-101,-17,60,-11
1270,-2,-240,-102,-17,60,-11
1275,-7,-236,-102,-15,58,-12
1280,-5,-238,-98,-14,60,-12
1285,-9,-234,-101,-15,59,-12
1290,-6,-238,-97,-16,59,-13
1295,-4,-239,-102,-16,57,-12
1300,-5,-236,-98,-19,57,-14
1305,-8,-235,-103,-20,56,-12
1310,-7,-239,-100,-21,55,-11
1315,-6,-238,-102,-24,54,-10
1320,-9,-234,-101,-26,53,-10
1325,-8,-235,-105,-28,54,-10
1330,-4,-234,-98,-31,54,-11
1335,-7,-237,-101,-30,54,-10
1340,-5,-238,-101,-29,54,-10
1345,-4,-239,-100,-27,54,-10
1350,-4,-240,-104,-25,53,-11
1355,-5,-237,-102,-24,52,-11
1360,-4,-236,-99,-22,50,-11
1365,-3,-238,-98,-20,53,-12
1370,-2,-238,-102,-18,53,-13
1375,-5,-236,-99,-17,52,-14
1380,-4,-236,-99,-16,53,-14
1385,-8,-235,-100,-14,53,-15
1390,-6,-235,-101,-14,53,-15
1395,-6,-236,-100,-13,54,-16
1400,-4,-236,-101,-13,53,-15
1405,-5,-237,-100,-14,55,-14
1410,-2,-237,-102,-15,55,-16
1415,-4,-236,-102,-17,54,-14
1420,-8,-236,-102,-19,56,-15
1425,-8,-237,-103,-20,57,-14
1430,-8,-235,-103,-22,56,-13
1435,-7,-234,-101,-21,57,-14
1440,-2,-231,-115,-21,56,-16
1445,-8,-236,-99,-20,55,-15
1450,-6,-236,-101,-20,55,-15
1455,-4,-234,-103,-20,55,-13
1460,-6,-235,-102,-22,54,-14
1465,-7,-235,-101,-23,53,-15
1470,-8,-236,-100,-23,53,-15
1475,-9,-233,-101,-24,53,-15
1480,-9,-236,-101,-25,53,-16
1485,-7,-237,-102,-26,51,-16
1490,-7,-236,-99,-27,51,-17
1495,-8,-235,-103,-27,53,-18
1500,-7,-237,-104,-26,51,-17
1505,-7,-235,-101,-27,53,-17
1510,-5,-239,-102,-29,53,-18
1515,-6,-235,-103,-28,54,-18
1520,-8,-238,-99,-27,55,-19
1525,-5,-240,-100,-25,54,-18
1530,-8,-235,-100,-25,54,-18
1535,-7,-235,-100,-22,54,-16
1540,-7,-234,-101,-21,52,-16
1545,-3,-234,-104,-22,52,-17
1550,-1,-228,-111,-23,50,-15
1555,-6,-236,-98,-25,50,-13
1560,-6,-235,-102,-28,50,-13
1565,-6,-236,-101,-33,50,-12
1570,-7,-234,-105,-36,51,-11
1575,-5,-235,-102,-39,50,-10
1580,-7,-234,-102,-42,50,-10
1585,-3,-240,-100,-44,51,-9
1590,-5,-237,-101,-45,51,-9
1595,-4,-239,-101,-48,52,-10
1600,-6,-237,-101,-48,52,-10
1605,-6,-237,-102,-48,49,-9
1610,-8,-240,-102,-48,49,-9
1615,-8,-235,-104,-48,49,-11
1620,-6,-237,-104,-47,49,-11
1625,-7,-238,-101,-47,49,-11
1630,-4,-236,-104,-46,50,-11
1635,-5,-234,-99,-47,50,-10
1640,-5,-238,-104,-45,51,-11
1645,-9,-235,-98,-46,51,-12
1650,-5,-239,-99,-46,50,-12
1655,-12,-234,-105,-47,49,-10
1660,-4,-235,-106,-46,48,-10
1665,-5,-234,-98,-46,47,-10
1670,-7,-234,-98,-48,49,-8
1675,-3,-235,-101,-48,50,-8
1680,-3,-236,-102,-47,48,-8
1685,-6,-234,-102,-45,50,-6
1690,-7,-234,-103,-46,51,-5
1695,-3,-236,-104,-46,51,-4
1700,-3,-237,-105,-46,54,-3
1705,-2,-238,-102,-50,55,-2
1710,-5,-237,-102,-53,57,-2
1715,-6,-235,-101,-55,57,-4
1720,-7,-238,-99,-57,57,-3
1725,-4,-240,-104,-58,58,-3
1730,-7,-238,-101,-60,59,-3
1735,-7,-238,-102,-60,60,-3
1740,-3,-239,-99,-60,59,-4
1745,-5,-239,-101,-61,60,-5
1750,-5,-237,-99,-60,61,-4
1755,-5,-239,-99,-59,61,-6
1760,-3,-236,-104,-56,59,-6
1765,-11,-234,-96,-52,58,-7
1770,-7,-235,-100,-48,57,-6
1775,-7,-235,-102,-45,59,-5
1780,-5,-236,-104,-41,60,-5
1785,-4,-239,-100,-37,58,-6
1790,-4,-236,-104,-36,58,-6
1795,-6,-236,-100,-32,57,-5
1800,-4,-237,-102,-30,56,-4
1805,-5,-239,-102,-31,55,-5
1810,-3,-236,-106,-30,54,-4
1815,-3,-236,-99,-29,55,-4
1820,-3,-233,-105,-30,56,-3
1825,-8,-233,-107,-30,57,-3
1830,-8,-234,-105,-31,55,-3
1835,-6,-234,-100,-31,57,-2
1840,-6,-233,-101,-33,56,-3
1845,-4,-235,-100,-34,56,-2
1850,-6,-234,-105,-36,58,-2
1855,-5,-236,-103,-37,60,-1
1860,-2,-235,-105,-39,60,-1
1865,-8,-235,-103,-39,60,-1
1870,-7,-236,-103,-40,59,-4
1875,-5,-236,-104,-40,59,-3
1880,-8,-233,-105,-38,57,-5
1885,-5,-239,-99,-36,59,-6
1890,-4,-234,-106,-32,58,-4
1895,-4,-235,-105,-29,59,-4
1900,-7,-234,-102,-27,58,-5
1905,-7,-235,-108,-25,58,-6
1910,-7,-236,-105,-24,58,-6
1915,-5,-236,-106,-25,59,-6
1920,-7,-234,-107,-25,57,-6
1925,-8,-234,-107,-26,56,-7
1930,-4,-235,-103,-27,58,-7
1935,-5,-233,-101,-29,57,-6
1940,-9,-233,-105,-29,57,-7
1945,-5,-235,-107,-30,58,-6
1950,-3,-238,-105,-30,58,-5
1955,-8,-233,-103,-28,58,-5
1960,-4,-235,-104,-29,60,-5
1965,-7,-236,-104,-30,61,-5
1970,-6,-237,-104,-28,60,-5
1975,-11,-232,-104,-28,61,-4
1980,-6,-234,-106,-28,60,-5
1985,-8,-236,-104,-27,60,-3
1990,-5,-236,-105,-27,59,-5
1995,-8,-236,-106,-28,59,-5
2000,-7,-235,-103,-28,59,-4
2005,-7,-235,-103,-28,58,-5
2010,-5,-237,-102,-28,58,-5
2015,-4,-237,-104,-28,60,-2
2020,-2,-236,-106,-27,62,-2
2025,-3,-237,-106,-25,61,-1
2030,-5,-235,-102,-24,61,-2
2035,-2,-237,-104,-25,62,-2
2040,-6,-231,-107,-27,63,-2
2045,-4,-235,-103,-27,62,0
2050,-8,-233,-105,-28,61,-1
2055,-5,-237,-105,-31,60,-2
2060,-5,-235,-104,-33,61,-2
2065,-7,-235,-107,-34,61,-2
2070,-2,-234,-103,-35,61,-4
2075,-6,-234,-106,-34,63,-4
2080,-4,-235,-106,-32,65,-2
2085,-8,-234,-104,-30,65,-5
2090,-8,-233,-104,-28,65,-4
2095,-7,-235,-105,-25,66,-3
2100,-8,-232,-110,-25,67,-3
2105,-4,-236,-104,-24,67,-4
2110,-8,-236,-110,-22,67,-4
2115,-5,-236,-104,-20,67,-6
2120,-6,-234,-110,-20,67,-5
2125,-3,-234,-103,-20,68,-5
2130,-5,-232,-106,-21,66,-4
2135,-4,-233,-109,-21,67,-5
2140,-5,-237,-110,-23,66,-5
2145,-8,-235,-107,-25,66,-7
2150,-10,-233,-108,-28,66,-5
2155,-8,-235,-104,-30,66,-5
2160,-4,-233,-108,-30,67,-4
2165,-4,-232,-107,-30,66,-5
2170,-7,-235,-104,-27,67,-5
2175,-7,-235,-107,-25,67,-5
2180,-8,-238,-107,-23,68,-5
2185,-7,-237,-103,-20,67,-6
2190,-5,-238,-107,-16,68,-5
2195,-6,-234,-107,-13,66,-5
2200,-4,-233,-109,-11,68,-7
2205,-3,-237,-104,-11,67,-5
2210,-6,-234,-107,-10,65,-6
2215,-7,-235,-103,-10,66,-6
2220,-8,-234,-107,-10,66,-7
2225,-9,-232,-104,-13,66,-7
2230,-8,-233,-105,-15,66,-5
2235,-8,-233,-105,-17,66,-7
2240,-4,-237,-108,-18,69,-6
2245,-4,-232,-105,-20,71,-6
2250,-8,-229,-109,-24,72,-5
2255,-8,-235,-110,-27,73,-5
2260,-5,-235,-109,-30,73,-3
2265,-4,-236,-110,-32,74,-3
2270,-6,-234,-110,-35,75,-2
2275,-6,-235,-109,-36,76,-2
2280,-7,-235,-112,-36,75,-2
2285,-7,-237,-114,-38,76,-2
2290,-7,-237,-114,-37,76,-1
2295,-9,-237,-115,-34,77,-1
2300,-5,-242,-115,-30,76,-2
2305,-8,-239,-118,-23,75,-2
2310,-8,-240,-120,-18,74,1
2315,-11,-239,-120,-11,74,2
2320,-12,-237,-120,-5,72,4
2325,-11,-237,-117,2,71,5
2330,-10,-238,-117,5,70,5
2335,-9,-235,-116,9,69,6
2340,-7,-236,-114,13,70,5
2345,-8,-232,-114,14,72,4
2350,-8,-231,-117,17,71,2
2355,-11,-231,-115,15,73,3
2360,-8,-227,-114,12,73,1
2365,-10,-225,-115,8,74,1
2370,-7,-223,-120,2,76,0
2375,-8,-224,-118,-6,77,2
2380,-11,-224,-117,-13,79,4
2385,-10,-227,-120,-21,81,4
2390,-10,-227,-120,-27,81,4
2395,-9,-229,-119,-32,84,6
2400,-9,-229,-121,-32,86,8
2405,-6,-231,-117,-30,86,8
2410,-9,-231,-115,-27,87,12
2415,-9,-232,-119,-21,87,11
2420,-7,-237,-111,-14,87,13
2425,-8,-230,-118,-9,88,15
2430,-8,-229,-116,-5,88,13
2435,-9,-227,-117,-3,86,11
2440,-9,-224,-119,-4,83,9
2445,-10,-220,-112,-6,83,8
2450,-7,-220,-121,-11,82,3
2455,-9,-221,-120,-15,81,2
2460,-6,-217,-119,-18,82,0
2465,-9,-217,-120,-23,86,1
2470,-7,-219,-124,-28,89,1
2475,-6,-218,-127,-37,94,5
2480,-6,-214,-132,-50,103,10
2485,-2,-216,-139,-76,117,17
2490,-1,-220,-147,-116,133,23
2495,-3,-217,-162,-172,155,28
2500,-3,-221,-175,-241,187,33
2505,0,-233,-183,-333,232,29
2510,-2,-248,-192,-421,288,15
2515,-1,-268,-197,-455,347,-22
2520,-5,-286,-196,-395,389,-82
2525,-9,-293,-192,-234,380,-149
2530,-14,-277,-187,-11,307,-203
2535,-14,-259,-190,213,192,-225
2540,-11,-239,-190,387,85,-224
2545,-8,-215,-195,490,10,-216
2550,-12,-187,-202,512,-39,-207
2555,-15,-168,-205,465,-70,-200
2560,-21,-148,-209,377,-90,-195
2565,-24,-136,-214,268,-101,-175
2570,-34,-124,-214,146,-102,-152
2575,-41,-110,-212,30,-98,-115
2580,-45,-102,-215,-67,-83,-70
2585,-45,-91,-214,-146,-59,-18
2590,-54,-80,-213,-211,-25,29
2595,-53,-67,-201,-265,9,85
2600,-57,-57,-192,-311,38,144
2605,-57,-45,-183,-365,63,198
2610,-54,-35,-172,-430,88,250
2615,-52,-32,-158,-503,112,299
2620,-45,-23,-145,-581,135,345
2625,-38,-18,-130,-663,155,390
2630,-35,-18,-114,-745,161,427
2635,-22,-18,-92,-809,154,469
2640,-18,-7,-86,-860,142,512
2645,-13,2,-79,-916,128,549
2650,-2,12,-64,-1002,110,589
2655,-2,23,-57,-1107,94,618
2660,3,28,-40,-1222,80,639
2665,3,28,-27,-1330,76,651
2670,-2,28,-15,-1427,86,655
2675,-7,16,-4,-1534,88,654
2680,-9,2,3,-1645,99,645
2685,-5,-14,4,-1745,131,638
2690,-6,-33,16,-1840,166,631
2695,-11,-58,19,-1927,187,619
2700,-15,-73,24,-1987,189,608
2705,-25,-98,25,-2015,186,599
2710,-1,-127,11,-2013,170,603
2715,6,-150,2,-1988,191,591
2720,5,-175,-24,-1923,234,579
2725,5,-196,-55,-1831,272,576
2730,0,-216,-82,-1720,313,578
2735,0,-236,-106,-1591,333,584
2740,4,-252,-124,-1448,320,591
2745,1,-262,-135,-1289,279,597
2750,0,-273,-131,-1094,237,579
2755,1,-279,-137,-835,203,538
2760,-15,-270,-136,-543,180,482
2765,-18,-256,-146,-265,155,421
2770,-24,-232,-150,-50,141,350
2775,-36,-210,-155,85,147,285
2780,-58,-192,-171,128,140,235
2785,-64,-174,-189,76,117,214
2790,-70,-156,-220,-62,95,222
2795,-69,-169,-253,-248,95,238
2800,-64,-189,-267,-487,123,251
2805,-67,-198,-272,-767,166,265
2810,-62,-221,-262,-1032,187,287
2815,-61,-248,-252,-1212,191,312
2820,-63,-273,-222,-1289,179,337
2825,-62,-297,-188,-1269,148,371
2830,-59,-319,-156,-1162,90,423
2835,-52,-339,-133,-973,17,469
2840,-45,-351,-105,-718,-64,515
2845,-27,-357,-90,-430,-145,540
2850,-34,-359,-69,-144,-207,531
2855,-35,-299,-104,109,-272,521
2860,-36,-295,-128,251,-309,507
2865,-38,-260,-158,262,-325,496
2870,-52,-234,-176,149,-308,508
2875,-37,-222,-196,-28,-288,502
2880,-32,-211,-201,-220,-231,436
2885,-21,-205,-195,-379,-176,349
2890,-17,-203,-188,-453,-129,280
2895,-21,-213,-178,-411,-90,240
2900,-4,-212,-178,-275,-46,207
2905,0,-212,-181,-130,15,170
2910,-10,-223,-190,81,64,139
2915,-9,-218,-193,279,88,105
2920,-8,-207,-195,423,86,79
2925,-9,-202,-198,495,66,58
2930,-4,-202,-188,505,42,45
2935,-6,-211,-171,473,20,34
2940,-13,-220,-158,424,11,23
2945,-15,-235,-151,379,25,12
2950,-22,-235,-161,338,57,-8
2955,-31,-235,-167,297,92,-29
2960,-35,-239,-179,270,129,-53
2965,-47,-230,-177,262,163,-80
2970,-50,-230,-175,253,170,-96
2975,-44,-233,-179,242,167,-98
2980,-44,-236,-174,232,168,-98
2985,-36,-240,-168,235,179,-95
2990,-34,-242,-164,270,196,-100
2995,-26,-248,-165,340,218,-108
3000,-25,-253,-161,435,246,-122
3005,-16,-252,-165,544,275,-139
3010,-15,-244,-158,663,314,-169
3015,-22,-239,-162,798,349,-209
3020,-38,-240,-166,916,377,-248
3025,-57,-249,-163,1009,391,-277
3030,-67,-257,-168,1090,386,-287
3035,-68,-259,-160,1166,359,-281
3040,-63,-265,-157,1232,316,-265
3045,-42,-260,-151,1289,266,-245
3050,-27,-255,-141,1329,223,-216
3055,-18,-251,-137,1343,198,-189
3060,-16,-243,-135,1333,176,-170
3065,-23,-241,-140,1308,142,-155
3070,-34,-236,-141,1285,117,-148
3075,-34,-237,-140,1279,109,-154
3080,-43,-242,-137,1311,119,-175
3085,-47,-247,-132,1380,136,-203
3090,-49,-253,-128,1474,153,-241
3095,-45,-257,-126,1573,164,-279
3100,-40,-263,-117,1658,170,-310
3105,-31,-278,-106,1727,173,-329
3110,-23,-283,-102,1781,171,-343
3115,-14,-301,-92,1825,164,-357
3120,-14,-335,-65,1882,156,-373
3125,-19,-427,-4,2013,154,-373
3130,-30,-511,-1,2330,134,-352
3135,-42,-544,-46,2829,109,-344
3140,-42,-580,-47,3423,90,-341
3145,-28,-593,-59,4094,87,-360
3150,-27,-656,-15,4867,102,-402
3155,-31,-637,-50,5822,138,-458
3160,-22,-583,-125,6786,204,-491
3165,-23,-470,-229,7463,295,-512
3170,-38,-330,-328,7603,386,-525
3175,-28,-231,-404,7112,415,-506
3180,-35,-144,-420,6327,389,-483
3185,-39,-96,-385,5028,326,-458
3190,-57,-89,-301,3591,235,-428
3195,-67,-118,-191,2249,144,-393
3200,-72,-167,-83,1207,27,-358
3205,-68,-209,-15,541,-61,-332
3210,-59,-250,29,189,-109,-309
3215,-44,-290,51,72,-122,-289
3220,-45,-321,60,108,-121,-273
3225,-48,-332,50,216,-127,-256
3230,-42,-338,29,352,-124,-237
3235,-44,-331,13,492,-99,-206
3240,-35,-324,-2,603,-63,-164
3245,-32,-327,-14,655,-30,-125
3250,-24,-308,-18,672,-18,-108
3255,-26,-304,-8,662,-24,-98
3260,-15,-291,1,649,-50,-110
3265,-13,-271,17,631,-83,-133
3270,-11,-258,31,619,-109,-152
3275,-9,-238,45,607,-127,-170
3280,-8,-231,55,575,-131,-177
3285,-4,-232,51,534,-122,-173
3290,1,-226,69,498,-103,-168
3295,3,-228,76,471,-82,-165
3300,6,-228,76,455,-65,-168
3305,12,-232,71,450,-47,-176
3310,14,-234,70,457,-27,-188
3315,20,-234,65,470,-7,-206
3320,26,-239,63,488,17,-226
3325,25,-242,55,504,39,-248
3330,25,-247,50,516,59,-265
3335,24,-247,42,519,73,-277
3340,22,-251,36,510,88,-282
3345,21,-254,29,483,99,-283
3350,21,-258,24,442,110,-279
3355,16,-255,25,393,121,-269
3360,20,-259,25,338,126,-258
3365,14,-262,23,283,129,-240
3370,15,-264,20,232,131,-221
3375,14,-265,22,192,130,-203
3380,13,-266,22,166,122,-183
3385,16,-265,18,153,109,-160
3390,27,-261,21,152,94,-144
3395,21,-261,11,163,78,-129
3400,27,-264,7,182,63,-123
3405,29,-262,5,212,49,-126
3410,33,-256,1,239,38,-137
3415,32,-253,1,258,29,-154
3420,30,-250,1,266,23,-177
3425,27,-251,0,264,22,-202
3430,21,-249,-5,260,19,-228
3435,25,-249,0,249,19,-246
3440,20,-250,1,235,23,-260
3445,20,-249,1,221,29,-272
3450,15,-250,3,211,38,-277
3455,10,-253,4,207,49,-276
3460,5,-252,5,208,63,-270
3465,8,-257,4,214,79,-260
3470,6,-257,9,223,94,-247
3475,0,-256,1,231,108,-233
3480,0,-254,1,241,116,-217
3485,-2,-256,12,249,126,-198
3490,-2,-259,9,255,132,-185
3495,-5,-259,12,260,138,-170
3500,-15,-265,11,260,143,-157
3505,-6,-261,11,256,142,-144
3510,-13,-261,13,248,141,-132
3515,-11,-262,16,241,140,-124
3520,-14,-262,19,235,140,-116
3525,-14,-262,18,234,138,-108
3530,-15,-258,22,236,140,-103
3535,-16,-261,19,237,137,-96
3540,-19,-256,19,236,137,-92
3545,-21,-258,25,238,136,-87
3550,-22,-256,28,237,137,-88
3555,-22,-256,26,235,135,-89
3560,-23,-257,32,232,132,-89
3565,-21,-259,31,230,131,-87
3570,-18,-258,34,229,131,-84
3575,-16,-260,32,233,133,-79
3580,-14,-259,33,237,132,-77
3585,-13,-260,36,241,132,-75
3590,-12,-259,35,247,134,-69
3595,-4,-259,33,254,134,-65
3600,-5,-261,37,262,135,-63
3605,0,-263,38,273,141,-62
3610,-4,-263,47,287,143,-59
3615,1,-262,34,304,141,-59
3620,3,-263,33,319,139,-55
3625,6,-261,34,326,137,-53
3630,7,-262,32,327,132,-53
3635,14,-260,30,324,129,-54
3640,16,-260,30,316,125,-58
3645,12,-262,30,306,124,-63
3650,15,-259,31,299,127,-70
3655,12,-257,32,291,126,-76
3660,12,-256,29,283,122,-81
3665,12,-257,28,272,122,-83
3670,9,-256,27,261,121,-82
3675,11,-257,28,248,118,-80
3680,10,-251,24,231,115,-79
3685,11,-254,29,211,108,-74
3690,11,-256,30,186,103,-68
3695,12,-255,30,163,101,-61
3700,10,-256,29,139,100,-54
3705,12,-256,29,116,99,-46
3710,11,-256,30,94,101,-40
3715,13,-260,42,72,102,-35
3720,13,-259,32,51,106,-33
3725,16,-260,36,33,107,-30
3730,18,-260,37,19,108,-31
3735,19,-261,36,14,112,-34
3740,22,-262,40,11,121,-38
3745,19,-266,42,16,121,-40
3750,21,-267,44,31,122,-39
3755,18,-270,43,54,126,-32
3760,17,-268,47,76,125,-29
3765,19,-264,42,103,122,-28
3770,18,-264,46,127,119,-27
3775,13,-261,47,151,114,-29
3780,14,-262,45,172,111,-31
3785,12,-261,41,193,103,-31
3790,12,-261,39,217,97,-29
3795,11,-256,40,240,93,-24
3800,10,-254,36,258,90,-22
3805,8,-250,34,265,87,-22
3810,7,-247,35,256,79,-24
3815,4,-240,28,228,65,-32
3820,2,-240,20,173,48,-36
3825,7,-240,28,96,32,-36
3830,-1,-246,26,6,18,-33
3835,2,-247,31,-83,8,-20
3840,4,-250,33,-158,8,-5
3845,5,-258,41,-211,15,12
3850,12,-263,41,-234,24,32
3855,10,-271,51,-224,38,47
3860,15,-272,50,-192,51,56
3865,13,-275,53,-144,59,62
3870,14,-276,53,-84,66,63
3875,16,-277,55,-17,72,57
3880,14,-280,54,57,76,49
3885,19,-277,53,134,78,39
3890,16,-276,53,204,82,23
3895,13,-274,49,259,81,10
3900,15,-274,46,294,80,0
3905,11,-268,43,311,77,-6
3910,12,-265,39,309,73,-8
3915,12,-261,36,293,71,-8
3920,12,-264,30,264,71,-6
3925,11,-263,30,228,71,-5
3930,9,-258,28,190,70,-3
3935,10,-254,26,152,71,-1
3940,6,-255,25,121,74,0
3945,5,-254,27,97,74,3
3950,8,-257,29,81,76,5
3955,6,-252,28,71,80,7
3960,6,-254,30,68,84,10
3965,8,-256,29,69,88,12
3970,5,-253,36,73,89,15
3975,8,-256,36,77,90,15
3980,4,-256,33,85,88,19
3985,5,-259,35,90,86,20
3990,6,-258,33,98,82,21
3995,8,-262,34,109,77,22
4000,4,-260,36,113,72,22
4005,8,-264,35,117,66,21
4010,8,-264,30,121,62,23
4015,7,-266,34,121,59,25
4020,6,-264,35,120,55,26
4025,4,-263,33,119,51,27
4030,5,-264,34,116,49,29
4035,5,-266,30,108,49,29
4040,2,-260,26,100,48,32
4045,1,-264,31,91,48,34
4050,3,-266,33,81,49,36
4055,4,-265,30,71,49,36
4060,2,-263,34,61,52,34
4065,4,-267,32,53,53,32
4070,4,-265,32,48,55,32
4075,5,-264,32,42,59,31
4080,7,-265,33,40,61,29
4085,7,-266,31,35,60,27
4090,12,-265,32,32,59,24
4095,5,-263,33,28,59,21
4100,11,-262,34,28,59,16
4105,10,-265,37,29,63,13
4110,10,-264,36,32,66,8
4115,9,-261,35,34,68,3
4120,10,-264,34,33,69,1
4125,7,-263,40,30,72,-1
4130,12,-267,39,28,79,2
4135,9,-265,35,27,83,4
4140,10,-266,37,27,88,7
4145,6,-266,36,31,90,12
4150,13,-264,44,33,94,15
4155,7,-266,34,37,97,18
4160,10,-270,40,40,99,20
4165,9,-266,41,44,99,23
4170,6,-263,41,46,98,24
4175,9,-265,43,48,97,23
4180,9,-265,42,50,98,23
4185,9,-266,42,51,99,21
4190,10,-265,45,52,97,19
4195,9,-265,50,52,97,16
4200,8,-264,48,54,95,13
4205,6,-261,48,56,92,11
4210,6,-262,46,57,90,10
4215,8,-260,47,57,89,10
4220,3,-261,48,57,87,10
4225,4,-262,49,57,85,10
4230,4,-263,47,56,82,11
4235,3,-262,48,54,80,12
4240,2,-261,47,53,78,12
4245,5,-258,48,52,78,14
4250,4,-261,51,48,79,14
4255,1,-260,44,46,80,17
4260,5,-260,50,44,81,19
4265,5,-262,47,41,83,17
4270,5,-263,48,39,84,17
4275,2,-260,48,36,86,17
4280,7,-263,46,33,87,18
4285,5,-261,49,29,89,17
4290,5,-260,47,25,89,14
4295,6,-260,45,23,90,13
4300,6,-264,45,18,90,13
4305,11,-263,44,17,88,9
4310,6,-262,48,16,88,8
4315,8,-262,43,17,85,3
4320,8,-261,43,17,82,2
4325,8,-259,41,18,81,0
4330,5,-259,40,17,78,1
4335,8,-263,46,16,78,0
4340,8,-263,43,13,76,0
4345,7,-264,44,9,73,-1
4350,5,-263,43,4,72,-1
4355,7,-260,42,-2,68,1
4360,10,-264,40,-8,65,-2
4365,7,-261,46,-15,62,-3
4370,4,-259,46,-22,59,-3
4375,5,-262,46,-26,56,-3
4380,5,-258,44,-30,54,-4
4385,5,-261,45,-35,52,-4
4390,6,-258,48,-38,50,-3
4395,5,-259,44,-41,49,-4
4400,4,-259,45,-45,49,-3
4405,6,-262,46,-49,48,-3
4410,7,-260,42,-52,47,-3
4415,7,-263,44,-54,47,-1
4420,3,-259,51,-55,45,-1
4425,10,-260,50,-54,42,1
4430,6,-259,45,-52,40,0
4435,5,-262,48,-51,36,0
4440,4,-263,43,-48,34,-1
4445,7,-262,45,-44,34,-2
4450,7,-263,45,-39,34,-4
4455,3,-262,46,-35,34,-5
4460,4,-265,49,-29,37,-6
4465,5,-263,45,-23,41,-9
4470,4,-264,47,-19,46,-12
4475,-5,-262,37,-16,52,-15
4480,4,-266,42,-15,56,-18
4485,1,-264,42,-12,62,-18
4490,2,-265,41,-8,67,-19
4495,6,-268,37,-7,70,-20
4500,2,-263,41,-6,74,-20
4505,2,-265,43,-8,78,-21
4510,2,-268,40,-10,77,-19
4515,2,-265,43,-10,76,-17
4520,7,-267,43,-10,73,-15
4525,5,-264,40,-6,68,-14
4530,4,-266,42,-4,64,-13
4535,4,-267,45,-1,60,-10
4540,4,-267,42,1,55,-8
4545,4,-264,42,1,49,-7
4550,6,-264,42,0,46,-7
4555,5,-263,44,1,42,-6
4560,8,-264,43,1,38,-4
4565,6,-262,45,2,37,-2
4570,8,-261,45,3,35,-1
4575,7,-262,46,7,33,-3
4580,9,-262,51,8,31,-4
4585,5,-264,47,10,32,-4
4590,10,-263,44,11,31,-3
4595,7,-262,49,12,31,-5
4600,5,-259,44,12,32,-6
4605,6,-263,44,11,33,-7
4610,7,-260,44,11,34,-5
4615,7,-263,44,11,37,-6
4620,5,-262,46,8,39,-7
4625,8,-261,46,5,41,-6
4630,6,-261,46,5,43,-8
4635,7,-262,45,3,47,-10
4640,8,-262,43,3,48,-11
4645,6,-259,46,2,49,-14
4650,4,-260,45,1,49,-15
4655,8,-263,46,0,49,-15
4660,6,-258,43,-1,49,-17
4665,8,-262,45,-2,49,-19
4670,7,-262,46,-2,51,-18
4675,6,-263,45,-3,52,-20
4680,6,-264,44,-5,52,-20
4685,3,-262,45,-6,52,-20
4690,11,-262,46,-8,52,-20
4695,4,-262,47,-10,52,-18
4700,6,-262,46,-11,51,-18
4705,5,-260,47,-15,52,-16
4710,5,-260,45,-17,52,-15
4715,4,-263,44,-19,54,-11
4720,5,-261,42,-21,56,-9
4725,6,-263,42,-21,56,-8
4730,7,-265,44,-23,57,-5
4735,7,-265,45,-25,58,-6
4740,8,-262,47,-28,56,-4
4745,7,-261,43,-31,56,-4
4750,3,-264,44,-34,54,-4
4755,6,-264,45,-36,53,-4
4760,7,-260,43,-38,52,-5
4765,7,-263,45,-39,51,-6
4770,7,-264,40,-37,52,-4
4775,9,-263,44,-35,52,-6
4780,6,-259,47,-33,54,-6
4785,8,-263,44,-32,54,-6
4790,11,-265,44,-29,53,-8
4795,11,-259,36,-29,56,-8
4800,10,-261,43,-27,57,-6
4805,11,-261,44,-27,57,-8
4810,8,-262,43,-25,57,-8
4815,8,-262,42,-25,60,-10
4820,9,-264,40,-25,61,-11
4825,7,-263,42,-26,63,-11
4830,8,-265,43,-26,63,-12
4835,7,-261,43,-27,63,-12
4840,8,-262,43,-28,62,-14
4845,5,-262,48,-28,60,-15
4850,8,-264,45,-27,61,-13
4855,8,-265,43,-25,60,-13
4860,6,-261,49,-22,61,-14
4865,5,-263,46,-18,61,-14
4870,4,-260,44,-16,61,-13
4875,5,-261,47,-15,61,-12
4880,5,-263,42,-12,62,-11
4885,7,-265,46,-12,64,-10
4890,7,-263,40,-12,65,-9
4895,10,-261,49,-10,64,-7
4900,7,-263,46,-11,64,-6
4905,4,-264,42,-14,63,-7
4910,7,-264,43,-17,63,-7
4915,7,-261,42,-19,63,-6
4920,6,-262,48,-20,63,-4
4925,7,-262,44,-22,62,-4
4930,5,-260,42,-23,61,-2
4935,4,-265,45,-23,61,-2
4940,7,-259,44,-22,60,-4
4945,9,-262,47,-22,62,-4
4950,9,-261,42,-20,61,-4
4955,6,-263,41,-20,61,-3
4960,5,-264,41,-21,61,-4
4965,9,-263,37,-21,60,-5
4970,11,-264,45,-22,61,-5
4975,7,-264,44,-20,60,-4
4980,9,-265,42,-19,62,-3
4985,8,-262,45,-19,65,-4
4990,7,-264,43,-17,67,-3
4995,10,-262,46,-16,69,-3
5000,5,-261,42,-14,70,-3
5005,11,-264,43,-11,73,-1
5010,11,-260,46,-11,73,-1
5015,9,-260,44,-10,73,0
5020,9,-262,45,-9,73,1
5025,5,-264,44,-10,72,1
5030,7,-265,43,-8,72,-1
5035,10,-262,44,-8,70,1
5040,8,-265,43,-7,69,0
5045,7,-262,43,-5,70,0
5050,6,-265,46,-6,69,-1
5055,9,-262,46,-5,68,0
5060,6,-263,43,-4,68,-1
5065,5,-263,45,-1,68,0
5070,9,-263,42,1,70,0
5075,9,-264,41,2,70,0
5080,7,-262,42,3,71,-2
5085,8,-264,42,4,70,-2
5090,8,-262,46,3,71,-3
5095,7,-261,43,3,70,-3
5100,8,-264,39,3,70,-3
5105,6,-263,43,4,68,-5
5110,9,-264,42,6,68,-5
5115,8,-262,40,7,68,-6
5120,11,-263,41,8,69,-6
5125,9,-261,43,10,66,-7
5130,9,-261,43,12,68,-9
5135,5,-263,45,14,68,-9
5140,9,-262,41,16,69,-8
5145,9,-262,44,17,68,-7
5150,6,-261,41,18,68,-6
5155,6,-260,43,17,69,-6
5160,7,-261,43,18,70,-6
5165,7,-263,43,17,70,-7
5170,7,-262,42,17,70,-6
5175,7,-258,42,16,71,-7
5180,4,-259,48,15,73,-8
5185,8,-263,46,16,73,-9
5190,7,-262,44,15,74,-9
5195,8,-263,47,15,74,-10
5200,4,-261,46,15,74,-11
5205,6,-262,47,17,74,-11
5210,5,-262,43,17,75,-12
5215,9,-260,44,17,76,-11
5220,6,-265,51,18,75,-12
5225,6,-262,45,18,75,-11
5230,8,-262,44,18,75,-12
5235,8,-265,47,19,73,-11
5240,7,-262,48,18,73,-12
5245,9,-263,43,17,74,-12
5250,7,-261,45,16,73,-13
5255,10,-263,45,16,72,-11
5260,8,-263,46,16,72,-10
5265,9,-260,47,14,73,-10
5270,7,-258,50,15,74,-11
5275,8,-265,48,15,72,-10
5280,7,-258,50,14,70,-9
5285,6,-262,50,13,71,-8
5290,5,-259,46,11,71,-7
5295,7,-262,49,9,70,-6
5300,6,-263,46,9,70,-5
5305,8,-262,48,8,71,-4
5310,8,-263,48,8,71,-4
5315,8,-262,47,7,71,-3
5320,9,-263,47,7,72,-4
5325,8,-261,44,7,72,-1
5330,5,-263,49,6,73,-3
5335,8,-261,45,4,72,-3
5340,7,-263,48,3,73,-3
5345,8,-263,49,2,74,-5
5350,8,-263,46,0,72,-6
5355,7,-263,48,0,72,-4
5360,7,-261,43,-2,71,-6
5365,6,-261,45,-4,70,-5
5370,4,-261,48,-4,70,-4
5375,7,-263,47,-4,71,-2
5380,9,-262,44,-5,70,-2
5385,8,-262,49,-6,70,-1
5390,9,-262,46,-6,71,-1
5395,6,-263,46,-6,73,0
5400,6,-260,47,-8,74,1
5405,7,-262,44,-11,74,1
5410,9,-263,47,-11,76,2
5415,7,-265,46,-12,78,3
5420,8,-264,46,-11,77,3
5425,8,-264,51,-10,77,2
5430,7,-263,46,-6,77,0
5435,10,-260,46,-3,75,0
5440,10,-265,46,-1,75,-2
5445,9,-265,40,2,72,-4
5450,9,-263,47,5,73,-4
5455,9,-260,46,6,72,-4
5460,6,-258,42,6,73,-4
5465,9,-260,45,5,73,-4
5470,10,-261,48,4,71,-3
5475,8,-261,44,2,71,-2
5480,7,-265,46,1,70,-3
5485,7,-263,46,0,71,-1
5490,8,-262,49,-2,70,-1
5495,7,-262,46,-2,70,-1
5500,7,-262,44,-1,70,-1
5505,7,-260,50,1,70,0
5510,5,-261,45,5,69,-1
5515,8,-264,46,7,70,-2
5520,7,-261,48,9,71,-1
5525,6,-264,44,11,73,-3
5530,8,-261,47,14,74,-4
5535,11,-262,44,14,73,-3
5540,8,-259,48,13,76,-3
5545,8,-259,48,13,76,-3
5550,3,-258,58,11,76,-1
5555,9,-264,48,10,75,-3
5560,10,-261,48,8,75,-2
5565,8,-262,47,5,75,0
5570,6,-260,48,5,74,0
5575,6,-259,50,5,75,0
5580,6,-258,47,3,76,-1
5585,5,-259,46,3,76,0
5590,7,-263,49,1,74,1
5595,9,-263,50,1,72,0
5600,9,-260,47,1,71,0
5605,7,-261,49,0,73,-1
5610,7,-262,45,-1,73,0
5615,4,-259,46,-1,72,0
5620,8,-262,45,0,72,-1
5625,9,-262,50,-1,73,-1
5630,5,-262,47,0,73,-1
5635,8,-261,48,0,73,-3
5640,11,-260,49,0,73,-4
5645,9,-265,51,1,74,-4
5650,8,-262,48,1,73,-4
5655,9,-262,46,1,74,-4
5660,13,-259,56,1,75,-4
5665,6,-264,50,2,75,-5
5670,9,-265,47,4,74,-5
5675,4,-259,50,4,73,-6
5680,8,-262,50,5,72,-7
5685,5,-260,45,5,73,-7
5690,7,-263,45,3,72,-6
5695,8,-263,45,3,72,-7
5700,11,-263,47,4,73,-6
5705,10,-260,48,3,73,-6
5710,5,-264,52,3,72,-7
5715,7,-260,50,3,72,-6
5720,4,-260,50,2,72,-6
5725,8,-262,49,2,72,-7
5730,6,-260,53,2,72,-6
5735,9,-262,47,1,72,-7
5740,9,-258,50,1,73,-7
5745,3,-261,47,1,74,-6
5750,10,-263,48,2,75,-6
5755,6,-263,46,2,77,-8
5760,6,-262,46,3,77,-8
5765,7,-264,50,3,74,-9
5770,8,-264,49,3,75,-8
5775,8,-262,46,2,75,-10
5780,10,-263,48,2,73,-10
5785,8,-260,52,4,72,-11
5790,7,-261,48,4,72,-12
5795,6,-260,48,6,72,-12
5800,7,-264,49,8,72,-12
5805,4,-260,48,7,72,-13
5810,6,-261,48,7,71,-12
5815,7,-263,46,8,70,-13
5820,10,-260,51,6,69,-11
5825,7,-262,51,6,67,-12
5830,7,-260,48,5,68,-12
5835,8,-261,49,5,68,-11
5840,8,-262,49,5,68,-11
5845,6,-260,47,5,68,-11
5850,6,-262,48,4,68,-10
5855,6,-263,48,1,68,-9
5860,7,-260,49,0,68,-9
5865,6,-263,47,-1,68,-6
5870,6,-258,48,-3,67,-6
5875,7,-261,51,-3,69,-7
5880,4,-263,53,-2,68,-6
5885,5,-261,45,-4,68,-6
5890,7,-260,46,-4,68,-8
5895,6,-262,48,-4,67,-9
5900,7,-263,46,-5,66,-9
5905,7,-262,50,-6,66,-8
5910,6,-263,45,-4,67,-9
5915,8,-262,47,-3,67,-8
5920,5,-260,50,0,66,-8
5925,8,-263,49,1,66,-10
5930,7,-261,50,2,67,-9
5935,8,-262,45,3,67,-11
5940,8,-265,50,5,67,-11
5945,8,-260,53,6,69,-11
5950,10,-260,51,6,68,-9
5955,7,-261,51,5,67,-9
5960,10,-260,52,5,67,-9
5965,9,-260,50,5,68,-8
5970,8,-259,48,3,67,-9
5975,7,-263,51,4,66,-8
5980,9,-265,51,3,65,-7
5985,10,-264,51,3,64,-8
5990,8,-261,52,3,63,-8
5995,7,-261,49,1,62,-11
6000,7,-264,48,3,62,-11
6005,9,-258,50,4,62,-11
6010,8,-260,49,4,62,-11
6015,9,-264,50,4,63,-10
6020,7,-261,47,5,63,-11
6025,8,-258,49,5,64,-11
6030,10,-261,46,5,66,-11
6035,8,-261,53,5,66,-12
6040,7,-259,48,5,67,-10
6045,8,-259,47,5,67,-12
6050,6,-263,49,5,67,-13
6055,8,-263,53,6,67,-13
6060,11,-260,49,7,68,-12
6065,10,-262,48,7,67,-14
6070,8,-262,49,9,68,-15
6075,8,-260,49,9,68,-15
6080,8,-260,50,9,68,-15
6085,8,-259,50,9,68,-14
6090,9,-261,49,9,68,-13
6095,11,-256,47,6,69,-12
6100,10,-263,48,5,69,-11
6105,6,-259,48,4,69,-11
6110,5,-262,49,1,69,-10
6115,9,-263,50,-2,69,-10
6120,5,-263,49,-5,71,-9
6125,9,-262,51,-6,71,-9
6130,9,-262,53,-8,73,-9
6135,7,-261,49,-9,73,-7
6140,10,-262,50,-9,72,-6
6145,9,-265,49,-9,73,-7
6150,9,-259,46,-8,74,-8
6155,8,-262,51,-6,73,-9
6160,5,-259,44,-6,73,-8
6165,10,-261,46,-7,72,-7
6170,8,-260,49,-7,70,-6
6175,9,-261,49,-6,70,-6
6180,9,-260,44,-6,69,-5
6185,12,-262,49,-7,70,-6
6190,8,-264,52,-9,70,-4
6195,10,-264,47,-10,70,-6
6200,15,-259,53,-9,69,-5
6205,9,-264,55,-10,70,-7
6210,8,-262,51,-9,70,-8
6215,7,-262,50,-6,70,-6
6220,10,-263,52,-4,72,-6
6225,7,-261,48,-2,73,-7
6230,8,-263,51,0,73,-8
6235,7,-257,51,2,74,-5
6240,8,-258,49,4,74,-4
6245,10,-260,49,4,74,-5
6250,8,-259,47,4,73,-5
6255,5,-262,52,4,71,-5
6260,10,-264,52,1,71,-4
6265,6,-261,51,-1,71,-4
6270,8,-259,50,-4,72,-4
6275,8,-260,51,-7,70,-4
6280,11,-262,49,-11,70,-3
6285,11,-264,51,-14,70,-2
6290,9,-261,49,-14,71,-2
6295,11,-264,49,-16,69,-2
6300,5,-258,50,-16,69,-3
6305,8,-262,47,-16,70,-2
6310,4,-258,47,-15,70,-2
6315,11,-262,52,-15,71,-3
6320,9,-259,50,-15,73,-3
6325,7,-262,51,-15,72,-1
6330,9,-260,52,-15,73,-2
6335,10,-262,49,-16,71,-2
6340,8,-262,51,-16,72,-4
6345,6,-262,49,-15,71,-3
6350,10,-264,49,-17,71,-5
6355,7,-263,49,-17,71,-4
6360,8,-261,49,-18,72,-3
6365,9,-264,47,-17,72,-2
6370,11,-259,44,-16,73,-2
6375,9,-263,49,-17,74,-1
6380,8,-261,45,-18,73,-1
6385,6,-260,50,-18,73,-3
6390,5,-259,49,-20,72,-2
6395,9,-261,46,-21,74,-3
6400,8,-260,51,-21,75,-3
6405,9,-263,49,-21,76,-2
6410,7,-259,49,-19,77,-3
6415,7,-260,49,-21,76,-2
6420,9,-265,53,-22,75,-3
6425,9,-263,50,-21,75,-2
6430,11,-262,50,-24,72,-2
6435,8,-261,49,-25,71,-1
6440,7,-261,52,-26,71,-2
6445,9,-261,48,-26,70,-1
6450,7,-259,49,-25,70,-2
6455,9,-264,52,-26,70,-1
6460,6,-261,49,-25,72,-2
6465,9,-260,52,-23,72,-1
6470,7,-262,51,-22,72,0
6475,7,-262,49,-21,73,-1
6480,7,-259,48,-20,73,-1
6485,6,-259,47,-21,74,0
6490,7,-261,49,-21,74,1
6495,7,-263,51,-20,75,1
6500,7,-259,53,-20,74,1
6505,7,-263,50,-20,75,1
6510,10,-261,48,-20,74,3
6515,9,-261,50,-18,73,5
6520,8,-264,51,-18,74,5
6525,6,-259,53,-16,74,5
6530,12,-259,52,-16,72,3
6535,10,-259,52,-16,72,3
6540,8,-260,51,-15,72,4
6545,11,-261,50,-16,71,2
6550,9,-263,51,-14,71,0
6555,8,-260,49,-14,71,2
6560,4,-260,51,-15,70,1
6565,9,-262,48,-16,72,1
6570,11,-259,54,-18,72,-1
6575,11,-260,49,-19,71,0
6580,12,-262,51,-20,72,-1
6585,9,-261,49,-21,72,-2
6590,7,-262,50,-23,73,-1
6595,10,-261,50,-23,74,-1
6600,6,-260,50,-24,74,-1
6605,8,-260,51,-25,74,-2
6610,11,-262,49,-25,74,-3
6615,6,-263,48,-24,74,-2
6620,6,-262,50,-24,73,-2
6625,6,-263,47,-23,73,-1
6630,4,-259,51,-23,73,1
6635,7,-270,50,-23,73,0
6640,8,-263,52,-24,72,0
6645,4,-261,45,-24,73,0
6650,7,-259,52,-24,72,0
6655,9,-260,53,-27,72,0
6660,7,-261,49,-28,72,0
6665,10,-264,45,-29,71,0
6670,6,-259,46,-29,72,0
6675,8,-262,47,-29,71,-3
6680,8,-260,49,-27,71,-3
6685,7,-262,49,-27,72,-3
6690,9,-261,48,-26,73,-5
6695,9,-261,52,-24,73,-4
6700,7,-259,49,-22,74,-4
6705,8,-262,48,-23,74,-4
6710,6,-263,50,-24,75,-2
6715,9,-264,51,-23,76,-1
6720,9,-261,48,-23,77,-2
6725,9,-261,46,-22,77,-2
6730,10,-262,48,-22,76,-3
6735,9,-261,49,-22,77,-1
6740,8,-264,48,-24,75,-2
6745,10,-259,46,-24,75,-2
6750,7,-259,51,-23,73,-1
6755,5,-260,49,-23,73,-3
6760,8,-262,52,-21,72,-3
6765,8,-263,50,-21,70,-2
6770,8,-259,47,-19,70,-2
6775,8,-261,50,-17,71,-1
6780,7,-261,54,-15,71,-3
6785,7,-257,52,-14,72,-3
6790,8,-261,48,-13,73,-3
6795,9,-265,51,-14,71,-3
6800,10,-260,47,-15,73,-4
6805,5,-261,51,-17,72,-2
6810,10,-262,49,-16,73,-3
6815,11,-260,50,-17,72,-3
6820,8,-263,50,-18,72,-2
6825,9,-261,51,-20,74,-2
6830,6,-259,49,-20,73,-1
6835,6,-262,51,-20,75,-2
6840,7,-260,49,-21,75,-2
6845,8,-260,48,-22,76,-1
6850,5,-261,48,-24,75,-3
6855,12,-258,48,-24,75,-3
6860,7,-263,46,-25,75,-3
6865,9,-261,47,-27,74,-3
6870,8,-263,46,-26,72,-3
6875,8,-263,48,-26,71,-3
6880,6,-262,48,-26,70,-2
6885,7,-259,47,-26,70,-2
6890,6,-263,48,-27,71,-1
6895,8,-262,49,-26,71,-1
6900,8,-261,52,-26,72,0
6905,11,-264,50,-22,73,0
6910,7,-259,44,-21,72,1
6915,7,-260,47,-18,73,1
6920,9,-262,45,-18,73,1
6925,6,-262,46,-19,73,2
6930,7,-262,45,-20,72,2
6935,6,-263,49,-25,73,2
6940,7,-265,43,-29,73,3
6945,7,-264,47,-34,73,3
6950,5,-261,44,-38,74,3
6955,2,-262,45,-43,72,4
6960,4,-263,48,-45,73,6
6965,4,-258,46,-46,72,9
6970,3,-262,43,-48,72,14
6975,5,-264,42,-52,76,23
6980,5,-264,42,-59,78,34
6985,5,-260,44,-67,83,47
6990,5,-263,43,-79,87,59
6995,5,-260,40,-91,90,73
7000,5,-261,36,-107,89,84
7005,4,-260,34,-131,85,92
7010,2,-260,36,-171,83,103
7015,3,-261,32,-225,80,112
7020,1,-261,30,-287,83,124
7025,1,-261,32,-352,82,136
7030,1,-265,37,-411,81,146
7035,4,-262,32,-464,77,153
7040,1,-264,40,-508,73,158
7045,1,-262,38,-541,67,162
7050,7,-259,37,-565,59,169
7055,12,-258,31,-584,54,173
7060,7,-254,38,-615,42,172
7065,4,-252,52,-658,14,168
7070,6,-251,52,-698,-19,155
7075,7,-246,58,-733,-63,136
7080,5,-250,55,-758,-94,123
7085,6,-244,52,-768,-106,113
7090,9,-247,53,-771,-109,110
7095,13,-248,49,-777,-111,115
7100,8,-254,49,-784,-111,118
7105,8,-256,45,-785,-109,118
7110,2,-267,37,-779,-102,108
7115,2,-270,30,-761,-90,94
7120,0,-272,27,-734,-82,82
7125,-1,-272,26,-694,-71,70
7130,0,-266,27,-643,-60,63
7135,-4,-266,28,-589,-52,59
7140,0,-265,24,-542,-50,57
7145,-2,-267,28,-507,-45,51
7150,0,-269,25,-480,-38,46
7155,0,-262,29,-460,-32,42
7160,-2,-259,26,-452,-31,42
7165,-2,-259,33,-451,-35,47
7170,0,-256,29,-451,-36,57
7175,-2,-257,26,-445,-39,69
7180,0,-257,28,-435,-41,79
7185,0,-254,24,-422,-40,88
7190,-2,-256,23,-408,-40,97
7195,-3,-255,20,-392,-44,105
7200,1,-253,18,-375,-47,116
7205,-1,-253,17,-357,-46,125
7210,0,-254,17,-342,-47,138
7215,2,-254,13,-329,-47,150
7220,1,-254,10,-319,-45,162
7225,3,-256,9,-310,-41,173
7230,1,-251,17,-301,-39,185
7235,5,-249,10,-290,-37,196
7240,4,-249,14,-281,-31,201
7245,5,-248,12,-268,-26,210
7250,8,-251,15,-259,-19,214
7255,6,-244,14,-253,-11,218
7260,10,-248,18,-256,-1,223
7265,5,-244,17,-262,9,227
7270,9,-245,18,-274,15,232
7275,4,-243,12,-292,22,238
7280,6,-244,19,-314,34,243
7285,4,-241,21,-340,44,244
7290,3,-244,25,-363,57,248
7295,3,-248,25,-383,69,253
7300,0,-249,25,-401,84,258
7305,1,-253,27,-418,100,261
7310,-3,-256,27,-434,117,262
7315,-4,-260,31,-446,135,259
7320,-9,-263,30,-455,154,252
7325,-8,-263,34,-456,176,242
7330,-10,-265,44,-455,194,226
7335,-12,-268,43,-454,208,212
7340,-11,-272,45,-466,224,197
7345,-15,-273,51,-499,237,182
7350,-14,-272,56,-547,241,173
7355,-10,-276,66,-612,237,163
7360,-10,-285,68,-681,233,154
7365,-11,-286,78,-736,226,146
7370,-6,-294,82,-797,222,140
7375,-4,-299,80,-846,226,137
7380,2,-301,80,-883,229,139
7385,6,-306,82,-909,230,144
7390,10,-307,80,-935,228,148
7395,19,-305,74,-971,228,149
7400,16,-317,74,-1022,227,149
7405,21,-320,64,-1077,226,146
7410,23,-310,50,-1143,221,146
7415,25,-299,42,-1226,212,138
7420,22,-281,33,-1339,205,123
7425,21,-265,19,-1487,202,103
7430,23,-248,1,-1687,204,77
7435,19,-237,-17,-1942,207,52
7440,14,-224,-34,-2237,202,40
7445,6,-220,-54,-2555,177,45
7450,0,-217,-82,-2876,128,73
7455,-3,-230,-99,-3189,58,113
7460,-9,-243,-115,-3496,-29,136
7465,-18,-263,-117,-3775,-118,135
7470,-23,-289,-119,-4001,-194,133
7475,-25,-316,-120,-4150,-255,146
7480,-18,-344,-121,-4213,-310,158
7485,-16,-370,-100,-4188,-355,167
7490,-7,-406,-89,-4076,-381,170
7495,-9,-447,-66,-3878,-376,174
7500,-17,-495,-59,-3599,-351,191
7505,-12,-519,-51,-3265,-317,220
7510,-19,-535,-72,-2898,-282,240
7515,-27,-525,-112,-2553,-239,232
7520,-43,-507,-151,-2229,-193,176
7525,-42,-475,-190,-1922,-120,95
7530,-43,-455,-209,-1618,-20,26
7535,-44,-440,-221,-1316,75,-41
7540,-42,-421,-221,-1030,149,-96
7545,-47,-421,-212,-766,203,-135
7550,-50,-411,-204,-519,237,-172
7555,-46,-406,-192,-301,245,-206
7560,-53,-391,-185,-107,231,-231
7565,-41,-382,-184,48,190,-242
7570,-39,-358,-184,163,138,-237
7575,-33,-344,-174,223,92,-221
7580,-29,-327,-184,245,55,-196
7585,-24,-308,-185,245,29,-175
7590,-30,-287,-180,237,16,-163
7595,-20,-275,-179,232,9,-145
7600,-19,-262,-170,240,16,-126
7605,-15,-255,-163,253,23,-109
7610,-12,-254,-154,266,36,-90
7615,-6,-255,-148,293,55,-78
7620,-2,-258,-138,328,83,-72
7625,1,-264,-130,372,116,-78
7630,2,-272,-129,417,151,-90
7635,5,-278,-126,454,189,-111
7640,9,-279,-121,479,223,-146
7645,5,-283,-121,489,251,-185
7650,2,-285,-119,482,269,-225
7655,2,-286,-122,462,279,-261
7660,0,-288,-127,433,285,-295
7665,0,-293,-128,389,292,-324
7670,1,-298,-128,333,298,-345
7675,3,-299,-128,275,296,-369
7680,1,-302,-127,209,290,-394
7685,-3,-304,-128,140,277,-416
7690,-1,-303,-127,75,257,-438
7695,-3,-301,-119,31,236,-456
7700,-1,-293,-122,-16,218,-471
7705,0,-287,-116,-55,207,-477
7710,3,-278,-106,-90,195,-472
7715,3,-262,-99,-117,183,-463
7720,0,-255,-91,-137,169,-449
7725,1,-240,-85,-154,154,-418
7730,0,-229,-78,-164,148,-371
7735,1,-223,-68,-154,137,-315
7740,4,-208,-70,-125,134,-264
7745,7,-191,-63,-97,140,-219
7750,9,-179,-50,-74,147,-193
7755,7,-167,-44,-64,159,-176
7760,7,-161,-41,-56,166,-153
7765,15,-153,-35,-43,181,-136
7770,17,-149,-32,-24,201,-142
7775,16,-143,-29,5,226,-156
7780,14,-133,-29,48,263,-169
7785,14,-132,-30,110,302,-169
7790,13,-127,-33,185,337,-165
7795,10,-120,-28,260,362,-166
7800,10,-118,-33,336,379,-162
7805,7,-112,-29,418,383,-142
7810,11,-108,-28,494,382,-126
7815,3,-101,-30,563,377,-119
7820,3,-94,-31,620,368,-114
7825,-4,-91,-34,664,355,-98
7830,6,-88,-39,700,335,-85
7835,7,-79,-40,711,313,-87
7840,8,-75,-48,704,288,-96
7845,-4,-68,-53,692,260,-114
7850,0,-68,-60,664,238,-125
7855,-7,-69,-63,621,224,-134
7860,-12,-69,-64,577,223,-138
7865,-16,-69,-68,549,218,-127
7870,-22,-66,-80,532,205,-103
7875,-17,-64,-89,509,204,-80
7880,-21,-61,-99,484,214,-70
7885,-17,-70,-99,456,233,-69
7890,-26,-64,-100,446,240,-85
7895,-30,-65,-106,465,231,-72
7900,-22,-65,-111,481,235,-40
7905,-16,-68,-114,492,245,-15
7910,-16,-66,-115,496,255,-2
7915,-16,-72,-118,491,252,8
7920,-11,-84,-117,473,232,23
7925,-7,-91,-115,439,201,40
7930,-3,-103,-111,396,160,54
7935,-5,-120,-109,351,114,64
7940,-8,-137,-108,313,62,73
7945,-11,-154,-108,282,14,76
7950,-19,-172,-103,259,-35,70
7955,-18,-193,-100,253,-81,66
7960,-21,-213,-97,258,-113,63
7965,-9,-237,-104,289,-118,59
7970,-13,-255,-104,317,-98,41
7975,-13,-268,-110,340,-73,27
7980,-10,-287,-113,352,-44,17
7985,-8,-296,-119,366,-11,11
7990,-2,-308,-126,377,25,13
7995,5,-315,-133,383,60,19
8000,5,-317,-139,391,86,25
8005,19,-314,-147,396,106,31
8010,20,-306,-157,397,118,31
8015,29,-303,-150,390,125,28
8020,30,-288,-147,374,123,24
8025,25,-272,-139,347,112,20
8030,18,-257,-137,316,88,19
8035,13,-245,-127,281,51,16
8040,9,-222,-121,242,6,18
8045,2,-209,-114,198,-40,24
8050,0,-201,-111,148,-82,32
8055,-3,-193,-104,89,-117,38
8060,-14,-183,-104,22,-141,45
8065,-14,-182,-96,-53,-155,47
8070,-21,-179,-90,-120,-164,50
8075,-23,-177,-88,-184,-168,54
8080,-22,-182,-86,-239,-164,55
8085,-21,-178,-90,-284,-155,53
8090,-18,-188,-86,-319,-141,48
8095,-14,-191,-89,-342,-126,45
8100,-13,-194,-89,-355,-110,39
8105,-5,-204,-90,-364,-91,33
8110,-4,-206,-93,-368,-73,26
8115,0,-208,-95,-372,-57,21
8120,0,-213,-101,-377,-39,18
8125,1,-221,-103,-381,-25,14
8130,3,-228,-101,-388,-13,14
8135,0,-234,-102,-394,-3,16
8140,3,-237,-108,-399,3,22
8145,2,-242,-102,-397,8,29
8150,9,-254,-104,-388,13,36
8155,4,-254,-107,-375,19,44
8160,3,-255,-101,-356,24,50
8165,2,-256,-104,-335,26,53
8170,6,-258,-106,-312,28,52
8175,4,-260,-104,-290,30,51
8180,6,-257,-104,-267,32,46
8185,7,-256,-105,-244,32,41
8190,3,-253,-102,-222,31,33
8195,3,-251,-103,-201,31,24
8200,3,-244,-101,-182,28,13
8205,2,-243,-105,-164,26,7
8210,2,-243,-100,-149,25,3
8215,0,-239,-101,-137,23,2
8220,2,-236,-98,-128,24,2
8225,1,-235,-101,-119,26,3
8230,0,-233,-102,-110,30,8
8235,-1,-236,-93,-100,37,11
8240,-2,-232,-96,-89,45,15
8245,0,-237,-98,-73,53,21
8250,-1,-233,-95,-54,62,26
8255,1,-234,-101,-39,72,32
8260,-4,-231,-100,-36,86,38
8265,-3,-232,-98,-44,97,41
8270,-7,-232,-102,-63,104,44
8275,-4,-233,-99,-85,105,45
8280,-5,-236,-101,-106,104,41
8285,-8,-235,-103,-123,102,34
8290,-10,-238,-101,-144,100,29
8295,-11,-242,-108,-167,97,25
8300,-8,-244,-97,-188,86,20
8305,-10,-241,-98,-191,67,11
8310,-8,-244,-103,-182,50,2
8315,-6,-239,-99,-179,38,-1
8320,-7,-244,-99,-181,27,-7
8325,-6,-241,-95,-178,20,-14
8330,-8,-240,-100,-177,15,-19
8335,-11,-240,-102,-178,11,-19
8340,-11,-245,-100,-176,7,-18
8345,-10,-247,-98,-171,-2,-15
8350,-9,-247,-104,-163,-15,-11
8355,-11,-245,-101,-157,-24,-8
8360,-11,-243,-105,-148,-31,-8
8365,-12,-244,-96,-146,-38,-1
8370,-8,-237,-104,-148,-46,4
8375,-8,-238,-107,-156,-56,8
8380,-4,-240,-103,-165,-64,14
8385,-5,-236,-105,-178,-70,19
8390,-6,-237,-102,-191,-72,21
8395,-5,-239,-107,-196,-74,27
8400,-6,-239,-103,-190,-77,33
8405,0,-241,-100,-181,-77,40
8410,0,-237,-104,-169,-79,44
8415,-2,-234,-105,-156,-80,44
8420,0,-235,-103,-145,-79,40
8425,-1,-236,-102,-133,-80,37
8430,0,-235,-99,-123,-82,35
8435,1,-235,-105,-118,-82,30
8440,0,-230,-104,-115,-81,25
8445,4,-234,-104,-111,-79,17
8450,0,-230,-101,-108,-77,13
8455,4,-231,-103,-108,-75,9
8460,2,-234,-105,-108,-74,5
8465,3,-233,-106,-110,-71,0
8470,4,-237,-103,-109,-67,-4
8475,6,-238,-113,-109,-60,-7
8480,4,-233,-106,-109,-54,-10
8485,6,-237,-106,-110,-49,-12
8490,3,-240,-107,-109,-44,-13
8495,2,-242,-105,-106,-42,-12
8500,3,-241,-108,-102,-37,-13
8505,3,-240,-109,-99,-37,-12
8510,2,-240,-111,-97,-37,-11
8515,1,-240,-106,-94,-32,-10
8520,1,-235,-108,-89,-29,-8
8525,1,-238,-102,-87,-30,-6
8530,3,-236,-106,-83,-28,-5
8535,3,-234,-104,-81,-26,-3
8540,1,-237,-103,-79,-26,-1
8545,0,-233,-106,-77,-25,0
8550,1,-235,-98,-77,-23,1
8555,2,-232,-103,-77,-20,3
8560,2,-233,-100,-79,-16,3
8565,2,-236,-101,-79,-13,4
8570,4,-236,-104,-80,-12,5
8575,5,-233,-102,-82,-5,5
8580,3,-234,-104,-83,-1,4
8585,1,-229,-103,-83,6,2
8590,1,-235,-105,-81,10,2
8595,4,-238,-103,-77,15,1
8600,4,-236,-102,-74,19,-1
8605,3,-237,-106,-72,21,-3
8610,3,-234,-106,-72,26,-3
8615,5,-237,-104,-73,27,-4
8620,2,-233,-104,-76,30,-3
8625,1,-235,-103,-81,31,-3
8630,3,-236,-100,-89,33,-4
8635,5,-236,-104,-94,36,-2
8640,3,-236,-102,-97,40,-2
8645,5,-235,-105,-101,45,-3
8650,3,-236,-105,-101,50,-4
8655,1,-240,-105,-99,53,-4
8660,2,-239,-105,-96,56,-3
8665,0,-239,-102,-92,57,-3
8670,0,-240,-105,-89,60,0
8675,1,-240,-105,-85,62,1
8680,-1,-238,-106,-82,64,1
8685,-3,-239,-108,-77,65,2
8690,-2,-240,-104,-72,67,3
8695,0,-235,-113,-65,70,4
8700,-1,-238,-104,-60,70,6
8705,0,-242,-106,-56,70,7
8710,0,-240,-105,-53,71,8
8715,-3,-240,-104,-51,69,8
8720,-2,-238,-104,-48,67,6
8725,-5,-237,-105,-45,63,5
8730,-5,-238,-102,-44,62,3
8735,-2,-235,-105,-44,58,0
8740,-7,-233,-104,-43,55,-2
8745,-2,-236,-102,-42,51,-3
8750,-4,-233,-102,-41,47,-5
8755,-5,-236,-102,-38,44,-8
8760,-7,-234,-104,-35,41,-9
8765,-5,-233,-103,-31,38,-10
8770,-6,-234,-105,-27,35,-10
8775,-5,-232,-103,-23,35,-9
8780,-6,-237,-107,-18,33,-7
8785,-7,-234,-105,-15,32,-8
8790,-6,-234,-102,-13,32,-6
8795,-2,-234,-102,-12,31,-4
8800,-13,-238,-103,-11,30,-3
8805,-4,-234,-102,-11,27,-1
8810,-3,-236,-106,-10,25,-2
8815,-6,-237,-106,-10,23,-1
8820,-2,-237,-107,-9,20,-1
8825,-6,-236,-105,-7,20,-1
8830,-6,-240,-104,-6,18,-4
8835,-6,-238,-105,-4,16,-4
8840,-3,-233,-106,0,14,-5
8845,-2,-237,-107,4,13,-7
8850,-3,-235,-107,7,13,-8
8855,-5,-234,-106,8,11,-10
8860,-6,-235,-105,8,10,-10
8865,-2,-230,-108,6,9,-9
8870,-6,-231,-110,1,10,-10
8875,-2,-232,-108,-5,10,-10
8880,-2,-232,-107,-13,11,-9
8885,-6,-234,-106,-22,12,-10
8890,-7,-232,-109,-27,14,-9
8895,-3,-233,-104,-32,15,-9
8900,-8,-234,-104,-36,18,-8
8905,-6,-234,-108,-36,17,-9
8910,-4,-231,-115,-37,18,-9
8915,-6,-236,-109,-36,18,-10
8920,-5,-237,-106,-34,19,-11
8925,-9,-237,-105,-30,16,-11
8930,-4,-235,-111,-27,14,-12
8935,-2,-234,-110,-25,11,-13
8940,-8,-233,-105,-24,8,-14
8945,-7,-233,-105,-26,4,-15
8950,-7,-234,-108,-26,2,-15
8955,-6,-235,-105,-27,-1,-14
8960,-4,-234,-104,-29,-4,-17
8965,-6,-233,-104,-32,-6,-17
8970,-8,-231,-106,-31,-7,-18
8975,-5,-232,-104,-32,-7,-19
8980,-6,-232,-102,-33,-7,-20
8985,-6,-230,-108,-34,-6,-21
8990,-5,-231,-106,-35,-7,-22
8995,-7,-230,-107,-37,-8,-21
9000,-7,-232,-104,-38,-9,-23
9005,-7,-233,-103,-38,-9,-21
9010,-11,-231,-105,-38,-11,-21
9015,-4,-230,-109,-40,-13,-23
9020,-8,-232,-105,-41,-16,-23
9025,-6,-231,-104,-40,-19,-25
9030,-11,-233,-103,-43,-24,-26
9035,-8,-234,-107,-45,-28,-29
9040,-9,-231,-106,-49,-32,-30
9045,-11,-229,-107,-54,-35,-31
9050,-6,-233,-105,-57,-37,-33
9055,-9,-234,-109,-63,-40,-34
9060,-8,-233,-107,-67,-43,-35
9065,-9,-234,-106,-69,-45,-38
9070,-9,-233,-105,-71,-47,-40
9075,-10,-234,-108,-72,-48,-39
9080,-7,-236,-107,-71,-51,-42
9085,-5,-233,-106,-69,-53,-42
9090,-8,-235,-102,-67,-53,-42
9095,-7,-234,-104,-65,-53,-43
9100,-9,-236,-103,-63,-53,-43
9105,-4,-239,-106,-60,-54,-45
9110,-5,-237,-107,-54,-56,-47
9115,-2,-238,-103,-48,-57,-48
9120,-3,-237,-106,-43,-59,-50
9125,-4,-237,-103,-40,-57,-53
9130,-5,-240,-101,-39,-58,-54
9135,-3,-234,-107,-36,-59,-54
9140,-6,-234,-104,-34,-60,-54
9145,-1,-232,-101,-31,-61,-57
9150,-6,-232,-101,-28,-62,-58
9155,-5,-232,-107,-26,-62,-58
9160,-4,-231,-109,-27,-64,-61
9165,-6,-226,-104,-28,-64,-62
9170,-5,-228,-105,-30,-66,-63
9175,-3,-233,-107,-32,-66,-63
9180,-7,-230,-107,-32,-65,-62
9185,-6,-235,-108,-31,-65,-62
9190,-5,-231,-108,-29,-66,-62
9195,-4,-238,-107,-28,-65,-61
9200,-3,-236,-108,-23,-65,-62
9205,-3,-241,-107,-17,-65,-61
9210,0,-242,-112,-11,-64,-60
9215,-3,-237,-111,-5,-63,-61
9220,-1,-239,-109,2,-61,-62
9225,-4,-237,-110,5,-59,-61
9230,0,-238,-109,7,-57,-62
9235,-2,-236,-113,12,-53,-62
9240,-2,-235,-103,14,-50,-62
9245,0,-236,-107,15,-49,-61
9250,-1,-234,-110,17,-49,-60
9255,0,-235,-113,20,-47,-59
9260,-2,-231,-112,22,-44,-58
9265,-3,-234,-111,23,-42,-58
9270,0,-233,-109,24,-39,-55
9275,0,-236,-110,24,-37,-54
9280,-3,-233,-108,23,-34,-52
9285,0,-233,-106,23,-31,-51
9290,0,-235,-107,22,-29,-49
9295,0,-236,-111,21,-24,-50
9300,-3,-238,-111,20,-22,-47
9305,-1,-235,-109,18,-20,-45
9310,-4,-234,-108,19,-17,-44
9315,-1,-233,-108,19,-14,-42
9320,-1,-236,-108,19,-12,-42
9325,-2,-236,-107,20,-9,-41
9330,0,-234,-106,20,-5,-40
9335,0,-233,-107,21,-3,-37
9340,-1,-233,-108,21,0,-35
9345,-4,-231,-107,23,2,-34
9350,-4,-236,-106,24,5,-32
9355,-3,-232,-106,26,7,-29
9360,-5,-232,-105,30,11,-27
9365,-1,-232,-104,34,15,-25
9370,-2,-234,-109,38,17,-22
9375,-3,-234,-106,40,23,-22
9380,-5,-230,-106,44,26,-19
9385,-2,-227,-107,47,30,-17
9390,-2,-229,-110,46,33,-15
9395,-7,-227,-109,46,38,-13
9400,-4,-233,-110,44,41,-12
9405,-3,-233,-109,42,44,-10
9410,-1,-233,-110,36,48,-9
9415,-3,-229,-111,32,51,-6
9420,-4,-230,-109,27,54,-4
9425,-2,-230,-112,22,57,-2
9430,-5,-227,-112,19,60,0
9435,-3,-229,-107,14,64,3
9440,-3,-229,-105,12,67,4
9445,-1,-225,-104,8,67,7
9450,-1,-223,-105,3,70,8
9455,0,-224,-104,-1,72,8
9460,-4,-231,-102,-4,74,9
9465,-2,-228,-105,-9,78,9
9470,-5,-231,-107,-13,80,11
9475,-5,-233,-111,-16,82,10
9480,-5,-234,-108,-18,86,9
9485,-7,-236,-108,-18,88,11
9490,-7,-236,-108,-16,91,10
9495,-2,-240,-111,-10,94,9
9500,-5,-242,-104,-3,99,10
9505,-7,-240,-107,4,101,12
9510,-4,-245,-108,12,103,13
9515,-5,-242,-107,20,104,13
9520,-4,-239,-110,24,105,16
9525,-5,-238,-105,30,106,18
9530,-7,-237,-103,33,105,17
9535,-6,-238,-107,36,103,17
9540,-9,-236,-105,39,100,19
9545,-4,-235,-108,42,99,19
9550,-7,-234,-107,44,96,21
9555,-5,-234,-106,47,97,23
9560,-8,-231,-106,50,99,24
9565,-2,-233,-112,50,100,24
9570,-6,-231,-103,51,102,25
9575,-4,-232,-107,51,105,24
9580,-5,-234,-106,50,108,25
9585,-8,-232,-105,49,111,25
9590,-6,-233,-105,45,114,25
9595,-3,-235,-103,43,114,26
9600,-6,-232,-102,40,113,24
9605,-5,-233,-103,32,114,25
9610,-8,-233,-108,26,113,23
9615,-8,-234,-107,20,113,22
9620,-10,-237,-111,13,113,22
9625,-4,-233,-106,7,112,20
9630,-5,-235,-104,-1,111,21
9635,-4,-234,-102,-5,109,20
9640,-10,-235,-104,-10,108,20
9645,-7,-233,-101,-13,107,18
9650,-9,-234,-105,-15,108,18
9655,-5,-236,-100,-16,105,17
9660,-7,-238,-102,-15,106,17
9665,-8,-234,-105,-14,104,16
9670,-8,-239,-100,-12,104,15
9675,-8,-238,-104,-12,103,15
9680,-5,-238,-105,-11,101,13
9685,-10,-238,-102,-10,101,11
9690,-10,-240,-105,-9,99,12
9695,-8,-239,-103,-9,96,12
9700,-9,-236,-104,-9,96,11
9705,-8,-235,-105,-8,93,11
9710,-8,-238,-105,-8,92,10
9715,-9,-237,-105,-8,89,9
9720,-7,-234,-105,-8,88,9
9725,-8,-235,-105,-8,88,9
9730,-12,-223,-100,-9,87,7
9735,-10,-230,-97,-9,85,7
9740,-5,-231,-105,-9,85,6
9745,-6,-224,-107,-9,84,5
9750,-6,-233,-96,-10,82,4
9755,-5,-231,-99,-9,81,2
9760,-13,-234,-99,-8,80,2
9765,-8,-236,-99,-8,79,1
9770,-15,-236,-107,-10,78,1
9775,-8,-230,-90,-10,78,1
9780,-6,-235,-100,-12,78,0
9785,-9,-234,-103,-15,75,-2
9790,-7,-233,-101,-17,74,-1
9795,-10,-235,-103,-20,73,-1
9800,-8,-238,-101,-21,70,-2
9805,-5,-237,-104,-24,69,-2
9810,-5,-224,-104,-26,67,-3
9815,-1,-242,-93,-27,64,-4
9820,-8,-235,-98,-28,63,-4
9825,-12,-228,-95,-28,63,-6
9830,0,-237,-124,-27,63,-4
9835,-8,-228,-103,-26,62,-6
9840,-11,-237,-112,-25,60,-5
9845,-10,-242,-107,-24,58,-6
9850,-11,-234,-106,-22,55,-6
9855,-7,-244,-108,-21,53,-8
9860,-9,-245,-98,-20,54,-9
9865,-10,-239,-101,-18,51,-10
9870,-9,-238,-103,-18,48,-10
9875,-9,-236,-104,-18,48,-11
9880,-9,-238,-95,-19,46,-12
9885,-10,-243,-98,-20,45,-13
9890,-8,-243,-95,-21,44,-12
9895,-9,-233,-106,-21,42,-12
9900,2,-235,-98,-20,40,-13
9905,-1,-242,-87,-19,39,-13
9910,1,-234,-87,-18,39,-13
9915,-6,-233,-103,-17,38,-15
9920,-5,-232,-103,-17,37,-16
9925,-8,-239,-104,-20,34,-17
9930,-3,-238,-113,-21,31,-16
9935,-5,-236,-103,-24,29,-18
9940,-10,-233,-103,-25,28,-20
9945,-9,-238,-101,-27,26,-20
9950,-5,-235,-97,-29,25,-21
9955,-14,-254,-105,-29,21,-22
9960,-5,-238,-98,-29,19,-22
9965,-8,-238,-102,-28,18,-23
9970,-5,-238,-104,-28,18,-24
9975,-12,-236,-101,-26,17,-24
9980,-2,-236,-105,-25,15,-25
9985,-9,-234,-106,-25,14,-27
9990,-8,-235,-102,-23,13,-27
9995,-14,-232,-111,-23,12,-27
10000,-14,-238,-98,-23,12,-27
10005,-8,-235,-85,-22,11,-27
10010,-8,-237,-106,-23,11,-28
10015,-3,-237,-105,-25,12,-26
10020,-1,-240,-100,-24,11,-26
10025,-6,-238,-102,-24,12,-26
10030,-6,-236,-103,-24,12,-25
10035,-3,-237,-106,-25,12,-25
10040,-16,-237,-80,-24,13,-24
10045,-13,-234,-91,-24,13,-24
10050,-8,-243,-111,-24,13,-24
10055,1,-234,-91,-21,14,-26
10060,-2,-234,-99,-21,14,-26
10065,-3,-239,-97,-21,14,-27
10070,-8,-234,-112,-22,16,-27
10075,-3,-236,-102,-22,17,-27
10080,-9,-231,-101,-23,19,-28
10085,0,-237,-100,-24,21,-27
10090,-4,-236,-101,-23,23,-27
10095,-4,-238,-107,-23,25,-26
10100,-6,-238,-105,-22,27,-25
10105,-8,-235,-101,-22,28,-26
10110,-9,-243,-104,-22,29,-28
10115,-9,-238,-102,-19,31,-27
10120,-9,-233,-101,-18,31,-27
10125,-8,-242,-101,-17,31,-28
10130,-4,-237,-100,-16,31,-27
10135,-6,-238,-106,-16,32,-27
10140,-9,-234,-99,-17,32,-29
10145,-10,-233,-95,-18,31,-31
10150,-6,-235,-111,-19,33,-33
10155,-8,-227,-101,-19,32,-32
10160,-13,-234,-97,-20,33,-33
10165,-8,-237,-102,-18,34,-33
10170,-8,-237,-104,-16,34,-35
10175,-9,-238,-104,-15,34,-34
10180,-9,-236,-101,-13,34,-35
10185,-12,-235,-101,-12,33,-35
10190,-12,-239,-105,-11,31,-34
10195,-14,-237,-103,-10,30,-35
10200,-17,-237,-108,-10,31,-37
10205,-10,-232,-105,-9,28,-37
10210,-10,-237,-107,-8,25,-37
10215,-9,-244,-110,-8,23,-36
10220,-16,-233,-99,-5,20,-37
10225,-6,-233,-108,-3,18,-36
10230,-11,-236,-104,-1,15,-37
10235,-7,-234,-105,0,13,-38
10240,-8,-235,-106,0,10,-37
10245,-6,-233,-104,0,9,-36
10250,-10,-233,-102,0,9,-33
10255,-9,-233,-103,-1,8,-32
10260,-6,-234,-104,-2,8,-31
10265,-7,-233,-109,-4,7,-30
10270,-6,-241,-115,-6,7,-28
10275,-9,-233,-105,-6,6,-28
10280,-6,-237,-106,-6,7,-27
10285,-1,-238,-109,-7,6,-26
10290,-2,-239,-103,-5,6,-26
10295,3,-253,-87,-3,8,-25
10300,-7,-235,-107,0,9,-25
10305,-2,-237,-103,3,12,-25
10310,-2,-237,-108,7,15,-25
10315,-3,-238,-103,12,19,-25
10320,-2,-234,-105,15,22,-28
10325,-2,-238,-107,17,23,-26
10330,-2,-236,-108,19,28,-26
10335,-2,-234,-104,21,31,-27
10340,-6,-232,-105,21,32,-27
10345,0,-236,-105,23,34,-25
10350,-2,-234,-103,23,36,-24
10355,-4,-231,-105,25,39,-24
10360,-4,-237,-107,25,42,-23
10365,-4,-231,-106,23,42,-23
10370,-4,-233,-106,23,43,-21
10375,-7,-233,-107,20,45,-21
10380,-4,-231,-104,14,46,-19
10385,-1,-231,-106,8,43,-19
10390,-6,-231,-105,1,43,-17
10395,-1,-233,-104,-7,43,-14
10400,-4,-233,-106,-18,44,-13
10405,-4,-234,-106,-29,43,-10
10410,-7,-232,-107,-41,45,-5
10415,-2,-235,-104,-53,45,1
10420,0,-236,-108,-61,47,4
10425,-4,-237,-105,-63,50,7
10430,-2,-240,-106,-60,52,9
10435,-5,-236,-103,-56,56,13
10440,-7,-235,-103,-48,61,13
10445,-7,-236,-100,-38,64,13
10450,-4,-237,-107,-28,68,14
10455,-3,-237,-102,-19,71,14
10460,-1,-238,-102,-12,74,13
10465,-4,-239,-102,-2,77,13
10470,-6,-237,-103,4,79,11
10475,-4,-233,-98,8,79,10
10480,-5,-234,-102,13,81,8
10485,-4,-234,-103,13,82,7
10490,-7,-231,-107,12,84,5
10495,-8,-233,-105,9,85,6
10500,-8,-234,-103,7,86,5
10505,-7,-235,-106,3,87,6
10510,-3,-234,-106,1,89,4
10515,-8,-234,-104,-3,88,3
10520,-9,-236,-103,-7,88,3
10525,-8,-239,-104,-9,86,3
10530,-5,-233,-103,-11,84,2
10535,-10,-233,-105,-11,84,2
10540,-9,-233,-100,-9,81,3
10545,-5,-232,-103,-8,79,4
10550,-11,-234,-105,-6,79,4
10555,-10,-233,-103,-5,77,5
10560,-8,-233,-102,-4,76,4
10565,-10,-232,-101,-3,77,4
10570,-10,-234,-99,-2,75,5
10575,-9,-235,-105,-1,76,6
10580,-9,-232,-104,-1,76,5
10585,-10,-234,-106,0,75,6
10590,-10,-234,-107,-2,74,7
10595,-9,-232,-104,-3,74,7
10600,-16,-238,-109,-7,70,6
10605,-14,-233,-101,-10,68,6
10610,-9,-238,-105,-10,66,4
10615,-9,-234,-97,-7,64,3
10620,-10,-235,-104,-7,65,3
10625,-10,-234,-102,-9,67,2
10630,-9,-235,-103,-10,67,4
10635,-5,-235,-102,-11,65,3
10640,-10,-234,-102,-13,66,2
10645,-11,-235,-99,-13,67,2
10650,-7,-233,-105,-12,68,1
10655,-13,-237,-100,-11,70,0
10660,-7,-234,-104,-10,71,1
10665,-6,-230,-103,-8,71,1
10670,-8,-234,-101,-6,74,-1
10675,-9,-232,-104,-6,73,0
10680,-8,-233,-104,-6,72,-1
10685,-6,-236,-103,-6,71,-3
10690,-7,-235,-102,-8,70,-4
10695,-8,-236,-109,-8,70,-4
10700,-8,-233,-103,-9,69,-5
10705,-11,-234,-101,-10,69,-6
10710,-9,-240,-104,-9,70,-7
10715,-9,-238,-105,-8,68,-9
10720,-10,-237,-101,-8,69,-11
10725,-9,-238,-102,-5,69,-11
10730,-10,-235,-103,-2,69,-11
10735,-9,-234,-101,0,69,-10
10740,-11,-236,-107,0,68,-12
10745,-8,-236,-103,2,68,-12
10750,-7,-236,-101,3,65,-13
10755,-11,-233,-104,3,63,-12
10760,-11,-234,-107,3,63,-10
10765,-8,-229,-109,5,64,-11
10770,-5,-233,-105,4,64,-14
10775,-10,-234,-101,6,62,-15
10780,-8,-232,-104,7,60,-16
10785,-9,-235,-99,5,57,-15
10790,-9,-236,-103,4,56,-16
10795,-9,-236,-104,2,53,-16
10800,-9,-234,-103,0,51,-16
10805,-8,-238,-104,-2,49,-15
10810,-9,-237,-105,-4,46,-16
10815,-9,-236,-102,-6,44,-17
10820,-9,-236,-102,-6,42,-16
10825,-8,-238,-100,-7,41,-16
10830,-9,-236,-104,-6,41,-17
10835,-9,-236,-102,-5,39,-16
10840,-9,-235,-104,-3,39,-17
10845,-4,-237,-106,-3,39,-16
10850,-10,-235,-102,-2,39,-17
10855,-10,-236,-104,-1,38,-16
10860,-11,-233,-101,1,39,-14
10865,-10,-234,-103,3,40,-14
10870,-11,-234,-103,3,41,-13
10875,-7,-237,-104,3,42,-12
10880,-7,-237,-101,2,42,-14
10885,-6,-233,-101,2,42,-11
10890,-2,-238,-104,0,43,-11
10895,-4,-235,-104,-2,44,-10
10900,-6,-237,-102,-3,44,-8
10905,-5,-237,-108,-1,45,-8
10910,-5,-237,-103,-2,45,-8
10915,-4,-236,-103,-1,45,-9
10920,-5,-237,-104,0,45,-9
10925,-5,-237,-107,2,45,-7
10930,-5,-238,-100,3,47,-8
10935,-4,-237,-101,4,47,-8
10940,-5,-237,-104,4,51,-8
10945,-5,-234,-102,2,52,-8
10950,-5,-237,-103,3,54,-7
10955,-4,-235,-104,2,55,-7
10960,-5,-236,-101,2,56,-6
10965,-6,-235,-105,2,56,-5
10970,-7,-235,-101,2,57,-5
10975,-7,-238,-102,1,59,-5
10980,-4,-236,-96,2,60,-5
10985,-8,-236,-101,0,62,-3
10990,-3,-234,-99,0,61,-4
10995,-7,-236,-98,1,61,-4
11000,-3,-235,-98,2,63,-3
11005,-6,-235,-100,1,63,-2
11010,-7,-234,-99,3,65,-1
11015,-3,-235,-100,3,67,-2
11020,-5,-233,-105,4,68,-1
11025,-5,-233,-102,5,70,-2
11030,-3,-239,-103,4,72,0
11035,-7,-234,-99,4,75,0
11040,-4,-235,-103,4,77,1
11045,-5,-236,-103,2,78,2
11050,-4,-235,-100,0,81,3
11055,-2,-236,-102,-3,83,4
11060,-5,-235,-103,-3,85,5
11065,-6,-238,-99,-3,87,5
11070,-5,-234,-103,-5,88,5
11075,-6,-235,-100,-3,90,7
11080,-6,-237,-103,-3,92,6
11085,-4,-235,-100,-3,94,7
11090,-5,-239,-92,-1,95,8
11095,-5,-236,-103,-1,96,8
11100,-3,-238,-104,-2,99,9
11105,-8,-236,-101,-3,101,10
11110,-7,-236,-96,-5,103,11
11115,-6,-236,-102,-6,106,12
11120,-6,-238,-103,-6,108,14
11125,-5,-240,-99,-6,109,15
11130,-4,-239,-99,-6,111,15
11135,-7,-237,-104,-7,113,16
11140,-7,-234,-105,-7,115,16
11145,-6,-236,-101,-7,116,17
11150,-6,-237,-102,-7,117,16
11155,-7,-236,-102,-5,119,17
11160,-6,-239,-103,-5,121,18
11165,-7,-238,-101,-4,123,19
11170,-2,-239,-102,-6,125,19
11175,-7,-234,-104,-7,125,18
11180,-11,-231,-103,-7,123,19
11185,-8,-233,-103,-6,123,21
11190,-6,-235,-100,-9,124,19
11195,-7,-237,-99,-11,124,20
11200,-9,-235,-102,-11,123,20
11205,-9,-237,-100,-11,122,21
11210,-8,-235,-100,-10,123,20
11215,-10,-237,-100,-12,123,20
11220,-5,-239,-101,-13,125,21
11225,-8,-239,-99,-15,125,21
11230,-10,-236,-102,-15,126,20
11235,-7,-235,-100,-15,126,20
11240,-8,-238,-102,-17,126,20
11245,-7,-237,-98,-17,125,19
11250,-8,-239,-105,-16,126,20
11255,-8,-240,-104,-16,125,21
11260,-8,-238,-103,-14,124,21
11265,-10,-236,-100,-13,124,19
11270,-8,-237,-101,-11,122,18
11275,-8,-238,-101,-10,123,18
11280,-10,-235,-103,-8,121,18
11285,-8,-235,-101,-7,121,18
11290,-7,-237,-102,-5,121,17
11295,-8,-234,-102,-4,122,18
11300,-3,-234,-102,-5,122,17
11305,-7,-233,-98,-5,123,17
11310,-6,-239,-102,-5,122,17
11315,-7,-232,-100,-6,123,15
11320,-7,-234,-101,-8,123,15
11325,-8,-233,-99,-10,123,17
11330,-7,-236,-103,-12,122,17
11335,-9,-233,-98,-15,122,18
11340,-7,-236,-99,-16,121,18
11345,-7,-238,-103,-16,121,17
11350,-9,-238,-103,-17,119,18
11355,-6,-236,-100,-18,118,18
11360,-7,-239,-99,-17,115,19
11365,-8,-236,-97,-17,115,17
11370,-5,-238,-101,-18,114,16
11375,-7,-239,-100,-17,113,16
11380,-5,-238,-103,-16,114,17
11385,-6,-238,-101,-16,112,16
11390,-8,-239,-103,-14,113,15
11395,-8,-236,-102,-12,113,14
11400,-8,-239,-98,-11,113,13
11405,-7,-237,-101,-9,112,13
11410,-6,-236,-101,-9,112,13
11415,-4,-244,-105,-6,111,12
11420,-5,-240,-102,-4,111,12
11425,-8,-237,-98,-6,110,11
11430,-8,-239,-100,-4,110,9
11435,-9,-241,-99,-6,109,8
11440,-9,-238,-97,-7,107,10
11445,-6,-235,-101,-9,106,10
11450,-10,-235,-102,-8,106,9
11455,-8,-235,-102,-10,105,9
11460,-6,-235,-102,-9,105,9
11465,-5,-236,-100,-9,104,8
11470,-7,-239,-102,-8,105,7
11475,-7,-237,-102,-6,105,6
11480,-8,-238,-99,-6,106,6
11485,-3,-236,-104,-4,106,6
11490,-8,-236,-101,-1,105,6
11495,-5,-239,-99,0,106,3
11500,-5,-236,-102,3,107,3
11505,-7,-237,-104,4,106,2
11510,-5,-236,-103,7,107,2
11515,-5,-233,-100,7,107,2
11520,-3,-235,-103,6,109,3
11525,-10,-239,-100,7,109,4
11530,-4,-238,-101,7,110,3
11535,-4,-236,-101,6,109,3
11540,-8,-238,-100,5,108,3
11545,-7,-234,-100,5,108,4
11550,-6,-236,-100,3,108,3
11555,-6,-239,-104,2,108,3
11560,-9,-235,-100,1,107,4
11565,-6,-235,-97,0,107,4
11570,-6,-237,-102,-1,109,5
11575,-5,-239,-102,-2,109,6
11580,-8,-236,-102,-3,109,6
11585,-5,-238,-99,-2,110,6
11590,-8,-233,-101,-3,111,6
11595,-6,-236,-103,-2,112,7
11600,-3,-240,-102,-4,111,8
11605,-6,-237,-102,-4,112,7
11610,-5,-238,-101,-3,113,7
11615,-6,-234,-100,-3,114,7
11620,-3,-236,-102,-3,113,8
11625,-4,-237,-103,-1,113,8
11630,-8,-234,-100,0,114,9
11635,-7,-239,-98,1,115,8
11640,-5,-237,-105,1,117,8
11645,-7,-239,-99,2,116,9
11650,-7,-233,-101,2,117,9
11655,-4,-237,-101,4,118,9
11660,-7,-235,-100,3,120,10
11665,-5,-236,-102,5,120,10
11670,-5,-237,-103,4,120,10
11675,-7,-235,-99,2,121,11
11680,-7,-238,-103,2,121,11
11685,-6,-238,-99,2,121,12
11690,-3,-239,-100,0,122,13
11695,-3,-237,-105,-1,121,13
11700,-4,-237,-101,1,122,13
11705,-9,-236,-103,1,123,13
11710,-7,-236,-102,1,122,13
11715,-4,-236,-101,3,123,13
11720,-6,-239,-100,5,124,13
11725,-5,-235,-101,5,124,13
11730,-7,-236,-106,4,124,14
11735,-6,-237,-103,4,126,15
11740,-6,-236,-105,1,125,16
11745,-5,-238,-99,1,123,19
11750,-5,-235,-104,0,125,18
11755,-5,-237,-102,-2,124,18
11760,-7,-238,-99,-4,124,19
11765,-8,-237,-102,-5,123,19
11770,-7,-238,-99,-7,123,20
11775,-6,-234,-100,-8,123,18
11780,-11,-236,-100,-7,124,18
11785,-3,-238,-106,-9,124,19
11790,-5,-239,-101,-10,126,20
11795,-7,-234,-101,-10,126,20
11800,-4,-233,-103,-12,126,20
11805,-5,-237,-100,-12,127,20
11810,-3,-238,-98,-13,127,20
11815,-4,-237,-103,-14,128,21
11820,-7,-235,-102,-14,129,22
11825,-4,-237,-100,-15,130,20
11830,-4,-237,-103,-16,130,21
11835,-3,-234,-101,-16,128,21
11840,-2,-234,-100,-17,129,20
11845,-4,-237,-103,-19,129,20
11850,-6,-231,-100,-21,127,19
11855,-8,-235,-102,-25,128,19
11860,-5,-236,-99,-27,128,18
11865,-6,-236,-101,-28,128,17
11870,-3,-236,-106,-30,127,18
11875,-4,-236,-102,-31,127,19
11880,-4,-237,-101,-30,128,19
11885,-6,-237,-102,-31,128,18
11890,-3,-238,-100,-28,127,19
11895,-4,-239,-98,-26,127,18
11900,-5,-237,-101,-23,128,18
11905,-5,-240,-102,-21,127,15
11910,-4,-239,-101,-19,126,15
11915,-5,-240,-102,-17,125,16
11920,-7,-238,-101,-16,124,18
11925,-5,-238,-101,-16,125,15
11930,-4,-238,-100,-15,125,15
11935,-8,-234,-104,-15,123,16
11940,-5,-236,-99,-15,123,16
11945,-8,-233,-101,-15,123,16
11950,-8,-234,-101,-17,123,15
11955,-6,-236,-98,-18,125,17
11960,-1,-232,-104,-21,128,17
11965,-4,-237,-100,-22,129,16
11970,0,-238,-101,-23,130,16
11975,-8,-238,-102,-23,129,18
11980,-1,-239,-102,-24,129,17
11985,-4,-236,-105,-24,131,18
11990,-2,-240,-98,-23,132,18
11995,-7,-237,-102,-22,131,18
