timestamp,acc_x,acc_y,acc_z,gyro_x,gyro_y,gyro_z
0,2,-238,-149,-35,20,-5
5,4,-239,-150,-36,19,-6
10,5,-238,-147,-36,18,-6
15,4,-236,-145,-37,17,-6
20,2,-239,-149,-37,16,-6
25,1,-237,-148,-38,15,-5
30,3,-239,-148,-40,14,-6
35,2,-238,-151,-41,14,-5
40,2,-236,-148,-45,14,-6
45,3,-240,-148,-48,11,-5
50,4,-238,-150,-48,11,-5
55,6,-238,-151,-51,10,-6
60,5,-240,-151,-52,10,-6
65,4,-241,-149,-53,9,-5
70,5,-240,-149,-50,10,-7
75,6,-240,-152,-48,10,-7
80,6,-241,-151,-46,10,-8
85,4,-239,-147,-44,11,-6
90,6,-237,-148,-42,11,-7
95,6,-240,-146,-39,11,-8
100,1,-236,-149,-38,11,-8
105,3,-237,-147,-34,11,-8
110,5,-237,-148,-33,11,-8
115,5,-241,-146,-34,10,-8
120,4,-236,-152,-35,10,-9
125,4,-241,-149,-35,9,-10
130,3,-238,-150,-38,8,-10
135,4,-241,-149,-37,9,-9
140,5,-241,-150,-36,9,-11
145,4,-240,-149,-35,10,-11
150,6,-242,-147,-39,8,-10
155,2,-240,-148,-40,10,-11
160,5,-241,-147,-42,12,-13
165,2,-240,-148,-39,14,-15
170,4,-239,-147,-34,15,-14
175,4,-238,-148,-32,16,-15
180,6,-239,-143,-28,17,-15
185,3,-237,-152,-26,19,-15
190,6,-238,-150,-25,20,-15
195,4,-236,-151,-26,22,-14
200,6,-235,-144,-31,22,-14
205,3,-233,-146,-32,22,-12
210,4,-233,-148,-35,23,-12
215,6,-235,-149,-39,19,-13
220,4,-236,-149,-42,19,-12
225,3,-237,-150,-45,18,-13
230,10,-241,-152,-47,16,-13
235,6,-240,-147,-49,13,-13
240,4,-241,-151,-50,12,-14
245,4,-238,-147,-50,11,-15
250,6,-237,-150,-49,11,-16
255,6,-239,-149,-46,13,-17
260,5,-238,-150,-44,13,-17
265,7,-239,-152,-42,13,-17
270,6,-238,-151,-42,15,-15
275,6,-239,-151,-43,17,-14
280,5,-237,-143,-41,18,-14
285,5,-237,-150,-42,20,-13
290,6,-255,-144,-42,21,-13
295,7,-239,-150,-42,20,-13
300,7,-241,-147,-41,21,-14
305,5,-241,-150,-40,20,-14
310,6,-241,-145,-38,18,-14
315,9,-242,-146,-34,16,-15
320,4,-240,-147,-31,15,-15
325,4,-240,-144,-26,14,-16
330,5,-241,-146,-24,14,-16
335,3,-237,-150,-23,15,-16
340,6,-236,-149,-22,17,-16
345,3,-248,-135,-23,18,-16
350,6,-236,-148,-24,17,-16
355,6,-239,-150,-26,16,-16
360,5,-236,-149,-27,18,-15
365,9,-239,-147,-29,18,-15
370,6,-238,-145,-30,19,-15
375,6,-240,-149,-30,22,-13
380,6,-242,-149,-33,21,-12
385,6,-236,-145,-34,22,-13
390,3,-238,-151,-37,21,-11
395,4,-242,-146,-38,23,-10
400,5,-241,-150,-36,25,-10
405,3,-241,-149,-36,25,-9
410,5,-241,-153,-34,25,-9
415,5,-240,-146,-33,26,-7
420,3,-237,-143,-32,26,-6
425,5,-239,-148,-34,27,-7
430,5,-239,-141,-34,27,-6
435,7,-240,-145,-35,26,-7
440,7,-237,-147,-33,28,-7
445,7,-239,-150,-30,28,-7
450,5,-239,-148,-31,26,-6
455,5,-240,-149,-29,26,-7
460,4,-239,-150,-30,26,-8
465,4,-236,-144,-31,25,-8
470,6,-239,-147,-33,23,-9
475,4,-240,-147,-35,23,-9
480,12,-242,-148,-37,25,-11
485,6,-241,-148,-36,24,-11
490,4,-238,-148,-37,23,-11
495,4,-235,-149,-37,21,-11
500,6,-236,-148,-38,21,-11
505,7,-240,-144,-38,20,-11
510,5,-238,-146,-38,20,-10
515,6,-240,-147,-41,20,-7
520,5,-236,-148,-42,19,-6
525,5,-241,-147,-44,21,-7
530,4,-238,-148,-44,23,-5
535,5,-238,-146,-43,26,-4
540,5,-236,-144,-41,28,-5
545,5,-239,-149,-41,31,-3
550,4,-238,-145,-41,34,-2
555,4,-237,-144,-42,34,0
560,5,-235,-145,-43,37,1
565,4,-238,-150,-44,37,2
570,6,-237,-146,-47,36,2
575,6,-238,-148,-48,35,2
580,4,-239,-148,-49,31,2
585,4,-238,-148,-49,29,1
590,4,-239,-151,-49,27,1
595,4,-238,-145,-48,25,0
600,2,-237,-147,-48,24,1
605,5,-237,-147,-47,23,0
610,6,-237,-147,-47,21,-2
615,5,-240,-143,-47,24,-2
620,4,-241,-149,-45,23,-1
625,3,-232,-147,-46,23,-1
630,2,-236,-146,-46,23,-3
635,7,-240,-143,-47,24,-2
640,1,-237,-145,-48,23,-3
645,4,-237,-147,-47,22,-3
650,3,-235,-145,-50,21,-3
655,2,-235,-145,-51,22,-1
660,4,-235,-145,-52,21,-1
665,6,-236,-141,-55,23,-1
670,3,-235,-147,-54,25,0
675,3,-238,-148,-58,24,-1
680,4,-238,-145,-60,23,0
685,5,-238,-150,-63,24,2
690,6,-238,-147,-63,24,2
695,2,-237,-150,-63,21,3
700,4,-237,-146,-63,20,4
705,5,-236,-148,-62,20,4
710,4,-238,-150,-64,19,4
715,4,-237,-148,-66,19,6
720,6,-240,-144,-67,19,5
725,4,-240,-144,-66,18,6
730,5,-240,-148,-61,18,4
735,7,-241,-147,-58,19,3
740,4,-236,-147,-50,21,1
745,6,-234,-150,-42,22,0
750,4,-235,-148,-36,23,0
755,2,-233,-147,-33,26,1
760,5,-233,-147,-33,25,3
765,3,-234,-151,-38,24,3
770,3,-235,-148,-46,21,5
775,3,-237,-145,-52,21,5
780,6,-238,-148,-57,19,7
785,8,-235,-151,-59,19,8
790,5,-236,-146,-60,17,7
795,4,-235,-148,-62,16,9
800,8,-238,-146,-64,16,10
805,6,-238,-146,-67,15,9
810,8,-239,-150,-72,15,11
815,2,-239,-149,-75,14,9
820,5,-239,-145,-77,14,9
825,4,-244,-146,-78,14,8
830,4,-242,-146,-74,14,8
835,5,-242,-149,-69,15,6
840,5,-241,-150,-66,15,6
845,3,-241,-149,-62,17,6
850,5,-242,-147,-57,16,4
855,3,-241,-150,-55,16,2
860,5,-241,-147,-52,15,1
865,3,-238,-148,-49,14,0
870,5,-236,-148,-49,13,-2
875,3,-236,-148,-48,13,-1
880,3,-238,-149,-49,13,-3
885,6,-238,-151,-50,14,-1
890,4,-236,-148,-49,14,-1
895,8,-238,-151,-49,14,-2
900,5,-235,-148,-50,14,-1
905,7,-238,-145,-50,15,-2
910,6,-238,-148,-50,17,-2
915,3,-235,-145,-51,17,-3
920,7,-238,-152,-52,18,-2
925,3,-237,-150,-52,17,-3
930,4,-237,-151,-53,19,-4
935,5,-235,-151,-52,21,-1
940,6,-235,-147,-54,21,-2
945,3,-233,-146,-55,21,-1
950,4,-237,-151,-56,21,0
955,5,-240,-147,-56,20,0
960,5,-237,-146,-57,21,1
965,5,-237,-154,-60,20,0
970,9,-239,-145,-62,20,1
975,8,-237,-148,-65,20,1
980,4,-239,-150,-64,20,0
985,7,-242,-150,-63,20,0
990,6,-241,-150,-60,18,-1
995,5,-236,-153,-58,19,-2
1000,4,-237,-149,-51,18,-3
1005,8,-240,-151,-48,16,-6
1010,6,-239,-149,-46,15,-5
1015,3,-235,-154,-43,15,-4
1020,6,-242,-154,-46,14,-8
1025,7,-235,-150,-46,14,-8
1030,5,-236,-154,-52,13,-7
1035,7,-239,-149,-54,14,-7
1040,6,-241,-148,-57,12,-7
1045,6,-240,-150,-59,13,-8
1050,8,-240,-151,-59,15,-7
1055,11,-236,-147,-57,16,-8
1060,6,-240,-146,-57,17,-7
1065,4,-239,-148,-56,18,-7
1070,5,-238,-150,-55,18,-6
1075,6,-238,-148,-53,18,-7
1080,5,-240,-151,-52,19,-7
1085,3,-242,-147,-52,18,-6
1090,2,-238,-148,-49,18,-7
1095,3,-239,-148,-48,18,-6
1100,5,-238,-148,-47,19,-7
1105,6,-242,-153,-48,20,-6
1110,2,-241,-150,-48,21,-7
1115,6,-242,-147,-48,22,-7
1120,4,-236,-149,-47,23,-9
1125,2,-238,-149,-48,24,-9
1130,2,-240,-147,-46,24,-8
1135,2,-236,-148,-45,24,-9
1140,3,-237,-149,-44,22,-8
1145,4,-240,-144,-42,23,-8
1150,5,-241,-147,-43,19,-8
1155,6,-238,-149,-38,20,-8
1160,3,-225,-163,-40,19,-8
1165,4,-237,-150,-41,18,-9
1170,5,-238,-148,-42,17,-10
1175,5,-240,-150,-41,16,-10
1180,5,-239,-151,-42,14,-9
1185,5,-242,-152,-41,14,-10
1190,3,-235,-146,-39,14,-12
1195,4,-236,-149,-39,14,-11
1200,8,-239,-147,-36,14,-12
1205,6,-239,-149,-34,15,-11
1210,4,-238,-151,-32,14,-12
1215,6,-238,-150,-31,13,-11
1220,5,-237,-146,-30,14,-11
1225,3,-237,-150,-30,13,-11
1230,3,-237,-151,-31,12,-10
1235,3,-237,-145,-33,12,-10
1240,6,-239,-150,-33,13,-10
1245,4,-234,-152,-36,14,-8
1250,5,-237,-147,-38,14,-9
1255,2,-234,-149,-39,13,-7
1260,4,-236,-150,-39,13,-9
1265,4,-235,-148,-40,13,-6
1270,5,-237,-145,-42,14,-6
1275,6,-238,-149,-42,14,-7
1280,3,-237,-150,-44,13,-8
1285,2,-237,-147,-45,12,-9
1290,1,-237,-149,-47,10,-9
1295,1,-238,-148,-44,11,-9
1300,3,-241,-146,-44,11,-7
1305,5,-240,-147,-40,11,-8
1310,3,-237,-148,-39,11,-7
1315,4,-236,-149,-37,12,-6
1320,1,-236,-148,-35,11,-6
1325,3,-239,-148,-35,11,-6
1330,2,-235,-148,-34,12,-7
1335,6,-239,-144,-36,13,-6
1340,4,-239,-150,-38,13,-5
1345,2,-238,-152,-38,14,-4
1350,4,-240,-145,-39,15,-2
1355,5,-241,-150,-41,17,-3
1360,2,-241,-146,-40,17,-3
1365,5,-242,-149,-40,16,-2
1370,3,-241,-146,-41,17,-2
1375,4,-241,-150,-38,15,-2
1380,3,-240,-149,-36,14,-4
1385,2,-238,-143,-33,14,-3
1390,5,-244,-146,-31,13,-3
1395,3,-242,-151,-28,11,-5
1400,5,-243,-149,-23,10,-5
1405,1,-239,-147,-20,9,-6
1410,6,-239,-145,-17,10,-6
1415,3,-235,-147,-17,9,-6
1420,4,-235,-145,-19,9,-6
1425,5,-236,-148,-21,8,-4
1430,3,-235,-149,-24,8,-4
1435,4,-238,-147,-26,9,-4
1440,3,-235,-148,-28,6,-5
1445,3,-235,-146,-28,7,-5
1450,3,-235,-148,-32,7,-4
1455,3,-236,-148,-36,8,-5
1460,5,-241,-146,-39,8,-5
1465,2,-237,-146,-41,8,-3
1470,5,-242,-147,-42,10,-3
1475,4,-239,-148,-43,11,-2
1480,2,-241,-148,-43,15,0
1485,6,-238,-149,-43,17,1
1490,5,-239,-148,-39,21,1
1495,6,-236,-148,-37,23,2
1500,7,-239,-146,-33,24,3
1505,3,-241,-148,-32,27,3
1510,3,-239,-148,-29,28,5
1515,5,-237,-150,-27,30,5
1520,6,-240,-146,-30,30,4
1525,4,-235,-143,-32,30,4
1530,5,-239,-145,-32,29,3
1535,4,-240,-146,-35,27,2
1540,5,-238,-145,-35,24,-2
1545,5,-241,-149,-35,23,-3
1550,4,-239,-148,-31,20,-5
1555,5,-237,-149,-29,17,-7
1560,4,-236,-148,-26,16,-8
1565,5,-235,-150,-26,12,-9
1570,4,-237,-150,-28,9,-10
1575,3,-237,-143,-32,6,-9
1580,4,-234,-148,-35,6,-8
1585,4,-237,-149,-39,7,-8
1590,7,-236,-145,-43,10,-8
1595,5,-235,-147,-46,10,-7
1600,4,-237,-146,-48,12,-5
1605,6,-238,-147,-52,13,-4
1610,6,-238,-147,-54,15,-4
1615,3,-237,-148,-57,19,-1
1620,4,-240,-150,-58,21,0
1625,6,-241,-149,-56,23,1
1630,9,-239,-146,-57,23,2
1635,5,-239,-150,-57,24,1
1640,5,-241,-145,-56,27,1
1645,5,-241,-146,-52,26,1
1650,7,-242,-146,-51,27,1
1655,5,-239,-147,-48,27,-1
1660,9,-243,-146,-46,27,0
1665,4,-240,-145,-42,28,-3
1670,5,-239,-142,-39,26,-4
1675,6,-239,-147,-39,24,-5
1680,3,-238,-146,-38,22,-6
1685,3,-239,-143,-36,21,-4
1690,7,-240,-147,-37,20,-6
1695,5,-240,-146,-38,18,-5
1700,3,-237,-148,-38,16,-6
1705,3,-237,-149,-38,14,-6
1710,4,-239,-146,-40,12,-6
1715,3,-240,-148,-41,12,-5
1720,2,-236,-149,-43,11,-6
1725,5,-237,-148,-46,10,-5
1730,4,-237,-145,-50,12,-6
1735,3,-244,-147,-53,12,-7
1740,2,-238,-148,-54,14,-5
1745,4,-239,-145,-54,16,-6
1750,5,-240,-145,-53,18,-7
1755,5,-237,-146,-53,20,-6
1760,3,-238,-144,-50,21,-6
1765,4,-242,-147,-49,22,-6
1770,5,-239,-145,-47,25,-7
1775,3,-238,-145,-48,26,-6
1780,4,-238,-145,-46,28,-6
1785,4,-239,-148,-47,30,-6
1790,5,-238,-140,-47,29,-6
1795,6,-236,-143,-48,30,-6
1800,4,-239,-147,-47,28,-5
1805,4,-239,-148,-45,25,-6
1810,1,-240,-146,-46,25,-5
1815,0,-238,-146,-44,22,-4
1820,5,-241,-147,-45,19,-7
1825,1,-242,-148,-47,19,-6
1830,2,-240,-147,-49,16,-8
1835,2,-241,-148,-50,14,-8
1840,6,-241,-145,-50,13,-9
1845,5,-240,-148,-51,11,-10
1850,4,-237,-148,-49,11,-11
1855,6,-238,-146,-49,11,-11
1860,4,-238,-149,-47,9,-12
1865,3,-241,-146,-47,9,-12
1870,4,-238,-149,-47,10,-11
1875,3,-238,-152,-48,10,-11
1880,4,-241,-151,-46,11,-11
1885,6,-240,-148,-47,12,-10
1890,8,-239,-149,-46,12,-10
1895,4,-240,-151,-44,14,-10
1900,3,-236,-145,-42,17,-10
1905,6,-241,-144,-41,17,-9
1910,4,-239,-150,-41,18,-10
1915,6,-240,-148,-42,19,-10
1920,7,-239,-145,-41,19,-10
1925,5,-238,-149,-38,20,-10
1930,5,-238,-148,-37,19,-10
1935,6,-239,-148,-38,19,-11
1940,4,-235,-148,-38,19,-10
1945,5,-239,-149,-38,18,-10
1950,2,-238,-147,-40,18,-9
1955,4,-238,-145,-41,17,-10
1960,3,-236,-150,-42,16,-10
1965,3,-236,-147,-45,16,-9
1970,4,-237,-144,-45,17,-9
1975,1,-237,-146,-45,16,-10
1980,-2,-239,-165,-43,17,-10
1985,3,-241,-150,-43,16,-10
1990,4,-237,-147,-42,16,-11
1995,4,-241,-149,-42,15,-11
2000,3,-239,-151,-40,14,-11
2005,3,-242,-148,-37,14,-12
2010,3,-240,-147,-37,14,-12
2015,2,-239,-147,-35,13,-13
2020,3,-239,-144,-35,12,-13
2025,5,-240,-145,-34,10,-12
2030,5,-243,-152,-34,10,-13
2035,3,-243,-141,-36,10,-13
2040,7,-242,-146,-37,10,-13
2045,6,-240,-148,-37,10,-12
2050,6,-239,-148,-38,10,-12
2055,7,-239,-150,-38,11,-11
2060,3,-238,-149,-39,11,-13
2065,5,-239,-146,-38,12,-12
2070,6,-239,-146,-37,13,-10
2075,5,-240,-149,-37,14,-10
2080,3,-238,-149,-35,16,-10
2085,7,-235,-158,-35,16,-10
2090,7,-240,-150,-35,17,-9
2095,4,-238,-148,-34,19,-10
2100,6,-238,-150,-35,21,-9
2105,4,-240,-144,-34,21,-9
2110,2,-239,-147,-32,21,-8
2115,4,-240,-151,-33,21,-9
2120,4,-242,-150,-36,22,-9
2125,6,-240,-147,-37,23,-9
2130,8,-245,-145,-34,23,-10
2135,6,-243,-151,-32,23,-9
2140,5,-241,-147,-31,22,-11
2145,4,-240,-150,-26,24,-10
2150,5,-240,-146,-21,25,-9
2155,7,-238,-147,-18,26,-9
2160,4,-235,-151,-16,27,-9
2165,3,-241,-143,-15,27,-11
2170,6,-238,-147,-16,28,-10
2175,3,-236,-148,-18,27,-10
2180,6,-237,-147,-20,26,-10
2185,6,-238,-144,-23,25,-10
2190,2,-236,-147,-26,23,-9
2195,3,-238,-150,-29,21,-10
2200,3,-236,-146,-32,20,-12
2205,4,-237,-145,-35,18,-13
2210,6,-239,-146,-33,16,-13
2215,3,-234,-144,-34,15,-16
2220,5,-238,-148,-33,15,-14
2225,4,-238,-149,-34,16,-14
2230,2,-233,-148,-34,18,-12
2235,3,-236,-148,-38,19,-12
2240,7,-234,-150,-41,20,-12
2245,6,-235,-145,-44,20,-9
2250,5,-237,-147,-47,22,-9
2255,7,-237,-151,-48,22,-9
2260,4,-237,-143,-49,23,-7
2265,7,-240,-147,-47,24,-7
2270,7,-240,-148,-45,26,-6
2275,6,-238,-147,-41,27,-6
2280,5,-238,-144,-43,27,-5
2285,5,-241,-151,-40,27,-5
2290,8,-241,-144,-39,26,-5
2295,6,-241,-147,-38,26,-3
2300,3,-241,-145,-36,24,-5
2305,6,-241,-146,-35,25,-6
2310,9,-241,-149,-33,23,-6
2315,6,-244,-144,-29,22,-8
2320,4,-239,-145,-26,22,-8
2325,6,-241,-144,-24,21,-9
2330,5,-239,-146,-23,20,-9
2335,5,-241,-146,-22,21,-10
2340,6,-241,-144,-20,22,-12
2345,7,-242,-147,-21,19,-11
2350,6,-241,-146,-21,16,-12
2355,3,-239,-144,-22,17,-12
2360,4,-239,-149,-24,16,-11
2365,8,-241,-142,-26,16,-13
2370,4,-240,-142,-27,16,-11
2375,3,-237,-144,-28,17,-10
2380,3,-241,-148,-27,18,-11
2385,4,-239,-145,-27,20,-10
2390,4,-243,-145,-27,20,-9
2395,4,-239,-144,-28,21,-9
2400,5,-238,-146,-29,22,-9
2405,5,-238,-145,-31,22,-9
2410,4,-242,-147,-30,22,-9
2415,4,-240,-142,-31,22,-8
2420,6,-238,-142,-31,23,-8
2425,3,-237,-144,-29,24,-11
2430,2,-239,-141,-28,24,-11
2435,6,-242,-143,-28,23,-10
2440,5,-239,-148,-31,22,-11
2445,2,-237,-143,-33,22,-11
2450,3,-236,-147,-37,21,-10
2455,4,-239,-144,-39,22,-9
2460,4,-239,-146,-40,22,-10
2465,7,-239,-148,-42,22,-9
2470,10,-243,-143,-44,20,-7
2475,6,-240,-146,-45,20,-9
2480,2,-238,-146,-45,21,-8
2485,4,-235,-145,-44,21,-9
2490,4,-239,-148,-43,22,-9
2495,7,-241,-147,-42,22,-8
2500,5,-238,-143,-40,23,-8
2505,8,-240,-143,-40,22,-9
2510,8,-243,-145,-41,22,-8
2515,8,-241,-147,-41,22,-9
2520,7,-240,-145,-41,21,-9
2525,6,-241,-146,-41,20,-11
2530,3,-240,-146,-41,18,-10
2535,6,-242,-146,-39,19,-12
2540,6,-241,-144,-37,19,-12
2545,9,-245,-146,-37,19,-11
2550,6,-243,-144,-35,19,-11
2555,6,-242,-145,-35,19,-11
2560,5,-240,-149,-34,19,-13
2565,5,-242,-146,-34,19,-13
2570,4,-242,-145,-33,18,-12
2575,8,-240,-142,-33,17,-12
2580,6,-243,-145,-35,18,-13
2585,5,-241,-145,-37,17,-13
2590,6,-240,-148,-38,16,-12
2595,8,-240,-144,-38,16,-12
2600,5,-241,-142,-41,16,-13
2605,4,-243,-146,-41,16,-13
2610,8,-240,-145,-40,18,-13
2615,4,-241,-147,-40,19,-12
2620,4,-241,-145,-39,19,-12
2625,6,-242,-145,-36,21,-12
2630,4,-237,-147,-33,21,-13
2635,10,-238,-142,-29,23,-12
2640,6,-241,-145,-26,24,-12
2645,5,-237,-148,-24,23,-13
2650,7,-240,-147,-25,23,-13
2655,6,-239,-145,-25,23,-14
2660,8,-240,-143,-26,21,-15
2665,7,-239,-146,-27,22,-16
2670,6,-240,-145,-25,22,-15
2675,7,-240,-144,-24,22,-16
2680,4,-236,-147,-23,22,-17
2685,7,-238,-148,-25,22,-17
2690,8,-239,-145,-27,21,-16
2695,9,-238,-145,-32,21,-17
2700,5,-238,-143,-36,19,-14
2705,5,-240,-144,-40,17,-16
2710,9,-241,-147,-42,16,-13
2715,5,-239,-144,-46,17,-13
2720,7,-241,-144,-46,16,-12
2725,8,-240,-143,-41,17,-12
2730,5,-239,-146,-36,19,-11
2735,9,-240,-145,-32,20,-11
2740,6,-239,-142,-29,20,-11
2745,10,-241,-156,-28,21,-10
2750,10,-239,-143,-28,23,-10
2755,2,-238,-144,-29,24,-8
2760,5,-240,-144,-30,26,-7
2765,5,-235,-146,-31,26,-4
2770,6,-240,-147,-33,28,-5
2775,5,-238,-144,-34,30,-3
2780,3,-240,-145,-36,31,-3
2785,5,-240,-141,-36,32,-3
2790,3,-241,-144,-35,31,-3
2795,8,-244,-141,-33,29,-3
2800,7,-243,-154,-32,30,-4
2805,9,-239,-140,-30,26,-5
2810,13,-245,-145,-29,26,-6
2815,6,-238,-144,-29,25,-8
2820,10,-237,-143,-28,23,-7
2825,8,-236,-146,-29,21,-8
2830,7,-238,-148,-32,20,-7
2835,5,-235,-149,-34,20,-7
2840,7,-233,-144,-37,20,-6
2845,6,-238,-145,-40,20,-6
2850,4,-237,-143,-45,21,-7
2855,7,-236,-149,-50,21,-6
2860,7,-243,-148,-54,22,-5
2865,6,-238,-145,-59,22,-5
2870,6,-238,-144,-61,21,-6
2875,8,-237,-144,-62,20,-5
2880,10,-240,-144,-59,20,-4
2885,4,-240,-146,-57,19,-5
2890,4,-239,-148,-54,17,-5
2895,6,-239,-145,-51,18,-5
2900,6,-240,-149,-50,17,-5
2905,5,-236,-142,-50,16,-5
2910,6,-238,-146,-51,18,-4
2915,4,-237,-145,-52,19,-2
2920,4,-240,-142,-53,19,0
2925,7,-239,-142,-52,20,0
2930,5,-240,-145,-47,20,-1
2935,5,-240,-142,-47,20,-2
2940,7,-239,-144,-44,19,0
2945,7,-240,-142,-41,18,-2
2950,6,-237,-147,-41,18,-2
2955,3,-235,-144,-42,18,-3
2960,6,-236,-146,-44,20,0
2965,7,-238,-148,-44,18,0
2970,6,-238,-147,-46,18,0
2975,7,-235,-146,-46,19,0
2980,6,-235,-146,-47,19,2
2985,5,-240,-150,-51,19,2
2990,4,-235,-147,-57,18,4
2995,6,-238,-144,-61,17,3
3000,5,-240,-143,-63,16,5
3005,6,-241,-145,-64,17,4
3010,4,-239,-146,-63,19,3
3015,9,-241,-147,-61,19,3
3020,7,-239,-147,-59,17,5
3025,6,-241,-145,-57,17,4
3030,5,-239,-147,-51,18,5
3035,6,-238,-147,-51,18,4
3040,4,-241,-142,-50,17,3
3045,6,-240,-146,-51,19,2
3050,4,-240,-149,-50,18,3
3055,4,-237,-146,-53,18,3
3060,5,-237,-145,-55,16,2
3065,5,-236,-150,-56,15,1
3070,6,-240,-144,-57,14,2
3075,6,-239,-148,-59,14,3
3080,4,-241,-148,-59,13,1
3085,7,-239,-143,-59,14,1
3090,9,-240,-146,-60,16,2
3095,5,-236,-146,-60,16,3
3100,5,-240,-144,-61,18,3
3105,6,-239,-144,-66,19,3
3110,7,-240,-143,-66,19,2
3115,7,-242,-144,-67,18,3
3120,7,-242,-142,-67,19,2
3125,4,-242,-150,-64,18,2
3130,3,-241,-142,-60,19,1
3135,7,-243,-145,-54,19,2
3140,5,-242,-145,-51,18,0
3145,6,-239,-145,-47,17,1
3150,3,-237,-141,-46,17,-1
3155,7,-241,-146,-48,16,-2
3160,4,-237,-148,-48,17,-1
3165,2,-237,-146,-51,15,0
3170,5,-239,-148,-52,15,-2
3175,5,-236,-145,-53,16,-3
3180,4,-237,-146,-55,16,-2
3185,7,-237,-143,-56,14,-1
3190,4,-240,-144,-60,14,-1
3195,7,-237,-146,-61,14,0
3200,8,-241,-147,-63,16,1
3205,7,-242,-147,-66,17,1
3210,4,-238,-143,-65,17,2
3215,7,-238,-150,-67,16,1
3220,6,-240,-147,-64,19,2
3225,5,-242,-147,-66,18,1
3230,6,-238,-147,-65,17,0
3235,6,-243,-143,-62,17,0
3240,6,-239,-145,-60,18,-1
3245,4,-239,-147,-58,18,-1
3250,5,-242,-146,-58,18,-2
3255,5,-240,-149,-56,19,-2
3260,4,-241,-148,-55,19,-2
3265,3,-238,-145,-56,19,-2
3270,5,-241,-145,-54,20,-3
3275,6,-241,-145,-53,20,-3
3280,7,-238,-145,-53,19,-4
3285,7,-241,-141,-51,19,-3
3290,7,-238,-146,-51,17,-3
3295,6,-241,-148,-52,18,-5
3300,7,-240,-147,-54,16,-6
3305,5,-242,-145,-55,15,-5
3310,6,-242,-146,-56,15,-5
3315,5,-238,-146,-58,13,-5
3320,5,-239,-145,-59,14,-5
3325,9,-241,-143,-58,14,-6
3330,6,-242,-145,-58,14,-7
3335,7,-239,-143,-57,14,-7
3340,8,-240,-142,-56,15,-8
3345,6,-242,-145,-53,14,-9
3350,6,-237,-150,-51,14,-7
3355,6,-242,-145,-50,15,-8
3360,5,-237,-147,-49,15,-7
3365,6,-239,-145,-49,17,-9
3370,7,-241,-146,-49,16,-7
3375,8,-238,-148,-48,16,-7
3380,6,-239,-143,-47,16,-7
3385,3,-238,-145,-48,16,-7
3390,2,-237,-150,-49,18,-6
3395,5,-239,-142,-50,17,-8
3400,6,-238,-148,-53,15,-7
3405,3,-239,-146,-55,13,-7
3410,4,-240,-147,-56,13,-4
3415,3,-242,-148,-59,12,-5
3420,4,-236,-145,-63,11,-6
3425,3,-241,-148,-69,10,-4
3430,5,-244,-150,-72,9,-6
3435,5,-244,-149,-77,7,-5
3440,6,-242,-151,-81,4,-4
3445,4,-243,-153,-85,2,-5
3450,2,-241,-154,-92,1,-5
3455,7,-243,-157,-97,1,-6
3460,6,-243,-159,-106,0,-6
3465,5,-248,-156,-112,-1,-7
3470,1,-246,-156,-120,-1,-7
3475,2,-247,-154,-126,-1,-7
3480,4,-245,-160,-131,3,-6
3485,6,-245,-156,-134,10,-8
3490,4,-241,-160,-138,18,-8
3495,4,-237,-160,-149,28,-10
3500,7,-235,-163,-163,36,-11
3505,1,-230,-166,-177,42,-13
3510,1,-226,-168,-195,46,-15
3515,1,-223,-168,-213,49,-17
3520,2,-221,-169,-229,49,-16
3525,2,-216,-172,-241,49,-16
3530,3,-211,-175,-252,51,-15
3535,1,-205,-178,-263,54,-13
3540,2,-203,-179,-267,64,-11
3545,1,-198,-179,-270,69,-8
3550,3,-194,-178,-274,71,-4
3555,2,-191,-179,-276,69,0
3560,0,-185,-179,-280,64,4
3565,0,-175,-180,-288,54,6
3570,-2,-172,-180,-299,42,11
3575,0,-164,-187,-318,28,15
3580,-2,-159,-183,-340,12,20
3585,-4,-157,-186,-367,-5,26
3590,-3,-155,-181,-395,-22,31
3595,-7,-147,-183,-423,-37,36
3600,0,-148,-186,-450,-54,42
3605,-4,-141,-188,-474,-69,47
3610,-3,-142,-182,-498,-84,51
3615,-2,-138,-183,-518,-95,53
3620,0,-135,-179,-534,-105,57
3625,1,-134,-172,-545,-114,62
3630,0,-128,-172,-549,-118,62
3635,2,-128,-166,-550,-120,66
3640,2,-119,-162,-550,-120,69
3645,1,-118,-160,-545,-118,73
3650,5,-116,-161,-544,-114,76
3655,2,-109,-164,-550,-110,80
3660,1,-108,-163,-565,-109,85
3665,-8,-105,-166,-590,-109,92
3670,-4,-111,-175,-622,-113,100
3675,-5,-113,-174,-663,-121,110
3680,-3,-114,-179,-707,-131,119
3685,-6,-118,-175,-751,-139,128
3690,-7,-120,-175,-787,-146,136
3695,-1,-123,-178,-819,-154,147
3700,-1,-128,-179,-843,-161,160
3705,0,-130,-178,-862,-163,171
3710,1,-133,-175,-875,-161,181
3715,0,-139,-175,-880,-156,187
3720,0,-136,-180,-881,-150,191
3725,2,-139,-170,-877,-143,193
3730,0,-141,-176,-870,-140,190
3735,-2,-143,-170,-861,-143,185
3740,0,-140,-171,-858,-150,176
3745,0,-144,-171,-857,-157,166
3750,0,-140,-173,-863,-167,150
3755,-2,-144,-169,-872,-174,130
3760,-1,-142,-169,-883,-180,109
3765,1,-148,-165,-890,-187,85
3770,5,-148,-160,-896,-193,61
3775,6,-147,-157,-896,-195,35
3780,13,-150,-158,-891,-195,7
3785,14,-143,-156,-882,-191,-18
3790,13,-145,-156,-869,-182,-42
3795,13,-147,-162,-857,-170,-63
3800,10,-146,-166,-844,-161,-81
3805,4,-146,-170,-834,-154,-97
3810,3,-149,-173,-829,-150,-109
3815,3,-154,-182,-826,-148,-115
3820,0,-160,-187,-825,-146,-114
3825,1,-174,-192,-829,-141,-106
3830,0,-182,-193,-837,-132,-91
3835,2,-195,-195,-845,-120,-71
3840,0,-211,-197,-849,-101,-47
3845,0,-227,-198,-839,-77,-19
3850,-3,-241,-195,-811,-51,12
3855,-2,-255,-192,-766,-27,44
3860,-4,-268,-182,-702,-4,78
3865,-4,-274,-184,-624,17,108
3870,-4,-283,-176,-531,37,133
3875,-2,-285,-172,-426,56,151
3880,-4,-287,-167,-307,73,162
3885,-6,-285,-164,-178,89,167
3890,0,-287,-158,-44,103,164
3895,2,-282,-152,100,118,154
3900,4,-278,-155,253,137,135
3905,8,-271,-152,412,156,113
3910,9,-259,-153,574,174,94
3915,14,-253,-156,728,192,72
3920,12,-240,-165,873,208,59
3925,13,-228,-167,1002,219,56
3930,16,-221,-176,1114,228,64
3935,17,-208,-185,1203,235,69
3940,19,-205,-193,1263,237,73
3945,13,-199,-199,1286,234,85
3950,14,-196,-206,1265,223,101
3955,13,-200,-206,1208,207,119
3960,8,-206,-212,1123,192,125
3965,9,-216,-216,1020,179,122
3970,3,-224,-213,907,165,103
3975,0,-237,-205,799,147,94
3980,-1,-253,-197,699,125,83
3985,-4,-262,-192,622,107,76
3990,-2,-279,-186,565,101,70
3995,-12,-291,-177,555,100,46
4000,-17,-301,-171,594,102,31
4005,-21,-307,-174,673,109,19
4010,-24,-308,-168,778,121,21
4015,-25,-306,-171,888,142,27
4020,-32,-304,-177,999,159,26
4025,-38,-297,-180,1087,171,20
4030,-45,-289,-187,1144,172,23
4035,-48,-285,-193,1170,171,43
4040,-39,-275,-200,1164,161,77
4045,-34,-271,-204,1132,154,96
4050,-23,-269,-206,1070,146,85
4055,-26,-266,-208,987,144,66
4060,-29,-262,-209,899,140,52
4065,-19,-265,-208,815,127,55
4070,-7,-267,-197,734,115,49
4075,-1,-274,-196,670,100,26
4080,0,-275,-191,622,95,-15
4085,0,-279,-188,593,93,-57
4090,-5,-280,-186,586,98,-85
4095,-1,-280,-186,603,100,-94
4100,0,-279,-184,626,92,-101
4105,7,-281,-180,655,85,-112
4110,2,-284,-174,679,76,-136
4115,-3,-282,-168,708,65,-158
4120,-4,-284,-171,735,48,-169
4125,-1,-289,-173,777,24,-175
4130,0,-292,-166,820,15,-187
4135,-10,-294,-167,867,19,-216
4140,-11,-297,-162,928,34,-225
4145,-20,-301,-158,996,48,-213
4150,-20,-311,-152,1071,59,-188
4155,-13,-321,-142,1152,67,-173
4160,-15,-342,-129,1248,75,-180
4165,-11,-361,-114,1355,88,-184
4170,-13,-386,-104,1500,98,-202
4175,-5,-418,-99,1685,111,-222
4180,2,-442,-95,1893,129,-251
4185,16,-463,-100,2152,155,-293
4190,12,-475,-125,2434,199,-347
4195,12,-458,-154,2684,250,-427
4200,2,-440,-193,2886,307,-496
4205,-9,-399,-235,2958,358,-508
4210,-12,-358,-259,2883,366,-501
4215,-4,-321,-261,2672,348,-480
4220,-32,-298,-254,2368,322,-453
4225,-21,-286,-228,2012,293,-375
4230,-8,-295,-192,1656,231,-312
4235,-1,-318,-156,1354,161,-276
4240,8,-341,-123,1142,92,-264
4245,10,-343,-99,1013,29,-264
4250,16,-339,-89,946,-31,-263
4255,21,-330,-79,916,-86,-258
4260,24,-315,-72,886,-151,-248
4265,24,-305,-73,831,-198,-232
4270,29,-296,-74,749,-235,-209
4275,26,-291,-80,649,-263,-179
4280,24,-284,-77,545,-279,-149
4285,21,-278,-83,454,-285,-124
4290,15,-277,-84,388,-282,-110
4295,12,-272,-83,346,-275,-105
4300,12,-267,-83,330,-268,-106
4305,14,-258,-77,338,-259,-110
4310,15,-250,-71,364,-243,-115
4315,15,-240,-65,404,-225,-111
4320,16,-227,-62,453,-200,-100
4325,17,-217,-54,507,-170,-84
4330,20,-206,-45,559,-135,-67
4335,20,-200,-37,604,-100,-50
4340,24,-193,-31,640,-68,-36
4345,21,-189,-28,664,-42,-26
4350,21,-186,-22,673,-23,-18
4355,24,-186,-17,665,-10,-11
4360,25,-187,-12,641,-1,-4
4365,27,-195,-12,604,2,4
4370,25,-199,-2,554,4,12
4375,26,-213,2,503,0,19
4380,25,-228,9,448,-3,22
4385,26,-243,13,420,-7,22
4390,24,-259,14,413,-13,17
4395,24,-274,11,434,-19,11
4400,24,-284,9,479,-25,2
4405,22,-294,1,544,-28,-7
4410,25,-302,-10,619,-26,-21
4415,27,-301,-18,690,-21,-38
4420,28,-300,-20,749,-14,-61
4425,29,-296,-32,792,-3,-84
4430,29,-293,-36,820,12,-113
4435,28,-283,-42,830,26,-144
4440,30,-277,-42,824,43,-174
4445,29,-269,-39,806,57,-202
4450,30,-259,-38,779,71,-226
4455,30,-251,-34,741,82,-243
4460,29,-243,-28,695,88,-256
4465,27,-236,-22,641,90,-260
4470,27,-230,-19,581,89,-254
4475,21,-227,-15,518,84,-241
4480,24,-226,-16,453,74,-225
4485,21,-225,-12,389,66,-205
4490,24,-227,-12,328,61,-181
4495,25,-233,-10,276,59,-157
4500,20,-235,-11,227,54,-136
4505,20,-240,-12,188,53,-113
4510,16,-240,-18,156,52,-91
4515,15,-246,-17,132,52,-72
4520,13,-251,-21,110,51,-56
4525,14,-255,-25,93,48,-42
4530,15,-246,-33,75,44,-28
4535,13,-259,-31,62,39,-15
4540,11,-260,-32,50,33,0
4545,16,-260,-41,41,25,12
4550,17,-262,-36,36,19,18
4555,16,-263,-43,31,16,24
4560,16,-263,-45,25,13,24
4565,17,-265,-46,24,13,27
4570,19,-259,-50,20,11,26
4575,20,-261,-48,11,12,22
4580,22,-259,-52,1,12,17
4585,28,-262,-39,-9,13,10
4590,21,-259,-52,-19,15,2
4595,21,-256,-51,-30,21,-4
4600,15,-256,-51,-41,27,-9
4605,18,-256,-46,-51,39,-13
4610,15,-256,-42,-60,51,-16
4615,14,-254,-41,-67,64,-23
4620,12,-252,-39,-69,74,-27
4625,12,-253,-32,-71,83,-30
4630,11,-251,-32,-72,92,-29
4635,11,-250,-28,-72,98,-26
4640,13,-250,-39,-69,103,-21
4645,10,-249,-25,-66,104,-16
4650,8,-250,-25,-62,103,-10
4655,9,-253,-26,-52,100,-4
4660,9,-249,-21,-41,95,3
4665,8,-248,-25,-26,88,8
4670,8,-248,-20,-8,77,14
4675,9,-251,-21,8,63,19
4680,10,-252,-22,23,51,22
4685,12,-251,-27,32,39,29
4690,12,-250,-26,40,29,34
4695,12,-251,-25,43,22,38
4700,10,-254,-27,45,18,43
4705,15,-250,-28,43,18,47
4710,14,-253,-29,43,20,48
4715,13,-254,-29,43,20,52
4720,14,-255,-29,40,19,54
4725,17,-260,-32,40,18,55
4730,19,-261,-34,43,16,56
4735,20,-260,-30,49,15,57
4740,23,-261,-29,59,16,56
4745,25,-266,-28,73,15,54
4750,22,-260,-32,82,13,47
4755,21,-261,-31,90,14,42
4760,29,-261,-28,99,12,36
4765,25,-264,-28,107,12,29
4770,27,-260,-26,119,13,19
4775,26,-263,-29,129,15,10
4780,23,-260,-26,137,20,2
4785,26,-259,-31,147,28,-6
4790,25,-258,-27,149,34,-14
4795,23,-257,-30,145,44,-19
4800,21,-255,-28,132,52,-25
4805,23,-254,-27,115,58,-29
4810,23,-254,-25,91,62,-30
4815,20,-255,-27,65,65,-30
4820,18,-256,-30,39,66,-27
4825,18,-256,-28,17,62,-25
4830,17,-257,-26,-7,60,-22
4835,20,-264,-28,-28,54,-22
4840,16,-262,-27,-45,50,-21
4845,14,-262,-27,-54,45,-18
4850,12,-260,-25,-59,40,-14
4855,10,-263,-29,-58,40,-9
4860,14,-263,-31,-58,37,-5
4865,9,-261,-25,-55,36,1
4870,13,-260,-28,-53,36,6
4875,11,-263,-29,-52,39,12
4880,9,-258,-29,-53,39,16
4885,10,-260,-30,-53,41,19
4890,9,-263,-32,-55,42,22
4895,13,-262,-27,-55,42,25
4900,11,-263,-29,-50,43,28
4905,12,-263,-31,-46,43,29
4910,7,-260,-26,-40,44,30
4915,10,-267,-27,-27,42,30
4920,11,-264,-27,-10,41,32
4925,11,-261,-28,11,44,32
4930,13,-264,-30,31,48,30
4935,10,-265,-28,47,53,32
4940,13,-264,-30,58,55,32
4945,14,-261,-29,64,59,31
4950,16,-259,-29,67,59,29
4955,14,-266,-29,68,60,28
4960,12,-260,-30,66,60,27
4965,13,-258,-30,70,59,25
4970,14,-263,-31,74,59,23
4975,18,-261,-29,82,58,20
4980,12,-257,-32,86,57,19
4985,13,-259,-30,89,57,17
4990,16,-256,-28,89,58,15
4995,18,-256,-32,83,59,13
5000,16,-253,-32,70,59,13
5005,17,-252,-33,49,57,12
5010,15,-254,-33,24,54,9
5015,16,-255,-32,-4,51,7
5020,16,-258,-27,-28,46,5
5025,15,-257,-31,-46,41,5
5030,18,-263,-33,-58,39,4
5035,16,-264,-31,-66,38,4
5040,13,-263,-32,-71,37,4
5045,12,-265,-31,-74,37,4
5050,16,-263,-31,-75,39,4
5055,16,-263,-34,-75,39,5
5060,16,-267,-32,-70,40,6
5065,12,-265,-37,-66,39,8
5070,14,-264,-32,-61,38,8
5075,14,-265,-32,-54,37,8
5080,14,-264,-35,-42,34,8
5085,10,-264,-33,-33,33,7
5090,12,-263,-34,-21,30,5
5095,9,-262,-36,-11,26,3
5100,16,-262,-33,-1,23,2
5105,10,-262,-34,6,20,3
5110,11,-260,-33,12,19,1
5115,13,-261,-34,19,17,-1
5120,11,-260,-34,22,15,-2
5125,13,-261,-37,25,12,-3
5130,13,-258,-31,25,12,-2
5135,17,-265,-32,28,10,-1
5140,15,-263,-29,33,11,-2
5145,16,-264,-33,35,13,-4
5150,13,-262,-29,36,15,-3
5155,12,-262,-30,40,17,-6
5160,13,-265,-29,45,18,-6
5165,14,-261,-28,48,21,-6
5170,15,-262,-30,50,22,-6
5175,14,-266,-29,53,24,-7
5180,15,-265,-32,54,23,-7
5185,14,-262,-30,52,23,-7
5190,15,-264,-28,51,24,-7
5195,13,-264,-27,50,23,-9
5200,15,-263,-31,49,24,-10
5205,14,-262,-30,47,22,-11
5210,16,-259,-27,46,22,-11
5215,14,-261,-26,44,19,-11
5220,14,-262,-24,43,17,-12
5225,14,-258,-28,42,16,-12
5230,17,-264,-26,44,14,-12
5235,10,-259,-24,45,11,-13
5240,14,-257,-22,45,9,-15
5245,15,-259,-29,46,7,-13
5250,16,-261,-23,45,6,-12
5255,16,-259,-22,45,4,-11
5260,15,-258,-25,42,5,-9
5265,17,-260,-24,41,4,-10
5270,16,-259,-22,39,3,-9
5275,18,-259,-23,37,3,-6
5280,19,-263,-24,35,3,-6
5285,15,-259,-26,35,3,-4
5290,16,-258,-23,34,3,-5
5295,18,-262,-20,34,3,-4
5300,15,-263,-25,35,4,-3
5305,15,-261,-25,35,4,-3
5310,14,-262,-18,37,2,-3
5315,14,-263,-20,38,3,-4
5320,14,-261,-23,39,1,-5
5325,17,-261,-23,41,3,-6
5330,15,-263,-24,42,2,-7
5335,16,-262,-20,43,2,-9
5340,19,-258,-26,43,2,-7
5345,14,-261,-21,41,3,-10
5350,13,-260,-22,40,4,-10
5355,15,-261,-22,38,4,-10
5360,15,-262,-20,37,4,-12
5365,15,-261,-22,36,6,-12
5370,14,-260,-23,36,4,-12
5375,15,-260,-24,33,5,-11
5380,14,-260,-18,30,5,-11
5385,13,-258,-16,29,5,-10
5390,24,-260,-13,26,7,-9
5395,14,-260,-18,25,9,-8
5400,13,-259,-16,21,10,-8
5405,15,-261,-21,19,11,-5
5410,13,-260,-17,20,14,-6
5415,15,-259,-16,20,16,-6
5420,14,-258,-23,20,17,-5
5425,16,-260,-13,21,16,-6
5430,13,-259,-21,20,17,-8
5435,11,-259,-18,20,19,-8
5440,17,-260,-16,19,19,-10
5445,20,-246,-38,18,19,-8
5450,16,-261,-22,13,22,-10
5455,17,-258,-18,11,23,-10
5460,19,-259,-21,9,22,-11
5465,16,-258,-15,5,22,-11
5470,17,-260,-16,1,21,-12
5475,15,-261,-18,-1,19,-13
5480,17,-260,-21,-3,18,-12
5485,14,-263,-18,-1,17,-14
5490,17,-263,-16,0,16,-13
5495,15,-262,-20,4,14,-13
5500,15,-262,-17,8,13,-15
5505,14,-256,-26,12,13,-14
5510,16,-260,-18,16,14,-15
5515,15,-260,-21,20,13,-15
5520,14,-261,-18,21,14,-16
5525,13,-260,-19,20,16,-18
5530,16,-259,-21,19,18,-18
5535,17,-258,-16,19,19,-19
5540,17,-259,-23,16,20,-21
5545,14,-259,-17,15,20,-21
5550,13,-258,-17,12,20,-22
5555,15,-259,-18,10,21,-22
5560,17,-259,-15,7,22,-21
5565,15,-259,-18,4,23,-19
5570,16,-259,-21,1,23,-19
5575,17,-257,-15,0,23,-18
5580,12,-257,-11,-3,23,-18
5585,17,-259,-15,-4,24,-16
5590,16,-258,-20,-5,24,-15
5595,17,-259,-17,-7,24,-15
5600,17,-257,-15,-6,26,-15
5605,16,-261,-17,-5,26,-15
5610,15,-260,-15,-5,27,-15
5615,14,-261,-15,-4,25,-17
5620,17,-259,-15,-2,24,-18
5625,13,-259,-17,-3,25,-18
5630,17,-259,-14,-4,25,-17
5635,14,-261,-17,-4,25,-18
5640,15,-259,-15,-5,25,-17
5645,16,-261,-16,-5,26,-18
5650,15,-261,-19,-7,26,-19
5655,16,-260,-17,-7,27,-18
5660,15,-261,-17,-8,28,-19
5665,15,-256,-19,-9,26,-18
5670,18,-259,-13,-10,26,-18
5675,12,-258,-14,-12,27,-18
5680,15,-260,-12,-13,27,-17
5685,16,-258,-12,-12,27,-17
5690,17,-257,-20,-13,27,-19
5695,17,-258,-16,-16,27,-19
5700,14,-261,-14,-17,27,-19
5705,16,-257,-15,-16,28,-20
5710,14,-258,-11,-16,29,-21
5715,17,-261,-9,-17,30,-21
5720,14,-259,-14,-20,30,-22
5725,13,-257,-16,-20,29,-23
5730,16,-259,-12,-21,28,-22
5735,18,-259,-13,-24,29,-24
5740,15,-261,-13,-25,29,-21
5745,16,-257,-10,-24,27,-22
5750,16,-261,-19,-25,26,-21
5755,15,-258,-16,-24,26,-19
5760,13,-262,-11,-24,26,-20
5765,15,-258,-14,-23,24,-19
5770,15,-262,-11,-21,23,-19
5775,15,-259,-13,-21,22,-17
5780,17,-264,-18,-23,20,-16
5785,18,-262,-14,-26,17,-16
5790,15,-257,-15,-29,17,-15
5795,18,-259,-14,-31,15,-16
5800,19,-265,-14,-34,14,-16
5805,16,-259,-14,-34,14,-14
5810,16,-260,-10,-33,12,-16
5815,16,-260,-11,-34,13,-16
5820,14,-258,-12,-34,12,-18
5825,14,-258,-12,-34,12,-18
5830,13,-260,-11,-34,9,-17
5835,15,-262,-18,-32,9,-16
5840,17,-261,-14,-33,8,-19
5845,15,-260,-15,-31,8,-18
5850,14,-260,-15,-28,7,-19
5855,16,-258,-19,-26,7,-18
5860,15,-258,-10,-26,9,-20
5865,15,-261,-14,-27,9,-19
5870,16,-259,-14,-27,8,-18
5875,14,-257,-14,-27,8,-17
5880,15,-258,-14,-30,7,-16
5885,16,-260,-13,-31,6,-16
5890,16,-258,-17,-32,6,-15
5895,16,-258,-9,-34,6,-13
5900,18,-260,-12,-34,5,-14
5905,17,-258,-14,-33,5,-12
5910,19,-260,-13,-34,6,-12
5915,20,-259,-16,-32,5,-12
5920,14,-258,-16,-35,6,-13
5925,17,-259,-15,-35,5,-14
5930,21,-260,-20,-36,4,-13
5935,18,-259,-12,-38,4,-13
5940,20,-262,-14,-39,3,-14
5945,20,-261,-11,-38,0,-15
5950,16,-258,-18,-38,1,-15
5955,18,-260,-15,-38,0,-14
5960,17,-258,-16,-39,0,-15
5965,17,-260,-17,-38,1,-14
5970,16,-259,-14,-38,0,-14
5975,22,-260,-15,-37,1,-15
5980,19,-261,-13,-36,3,-15
5985,21,-263,-12,-37,4,-16
5990,18,-260,-15,-36,6,-16
5995,18,-261,-11,-37,8,-15
6000,14,-261,-12,-36,9,-15
6005,19,-259,-14,-35,11,-16
6010,17,-258,-15,-36,12,-17
6015,17,-258,-16,-36,14,-17
6020,19,-261,-18,-38,14,-16
6025,18,-261,-10,-41,15,-16
6030,18,-260,-18,-42,15,-15
6035,20,-262,-13,-42,15,-16
6040,17,-260,-13,-42,14,-16
6045,17,-259,-16,-40,14,-15
6050,20,-260,-15,-36,11,-15
6055,17,-260,-17,-34,11,-13
6060,17,-258,-17,-34,11,-13
6065,17,-262,-14,-36,11,-14
6070,18,-259,-12,-36,10,-14
6075,19,-258,-15,-35,10,-13
6080,19,-260,-11,-36,11,-15
6085,17,-259,-14,-37,9,-16
6090,19,-262,-13,-38,9,-15
6095,19,-259,-13,-39,9,-14
6100,18,-260,-15,-39,8,-15
6105,21,-255,-10,-40,6,-16
6110,17,-257,-12,-42,7,-16
6115,17,-260,-12,-43,6,-15
6120,16,-260,-14,-42,4,-17
6125,19,-262,-14,-40,5,-16
6130,18,-260,-13,-37,5,-17
6135,18,-264,-13,-34,6,-17
6140,16,-261,-14,-31,7,-18
6145,17,-260,-14,-29,6,-17
6150,18,-258,-14,-26,9,-18
6155,19,-261,-17,-26,9,-18
6160,18,-261,-14,-26,11,-17
6165,18,-256,-16,-27,13,-17
6170,21,-259,-13,-27,14,-16
6175,16,-260,-13,-28,16,-16
6180,18,-258,-10,-30,19,-14
6185,18,-259,-14,-27,21,-14
6190,15,-259,-14,-27,21,-13
6195,20,-260,-12,-26,23,-13
6200,17,-256,-18,-26,23,-10
6205,7,-255,-14,-25,23,-9
6210,22,-259,-13,-27,24,-9
6215,22,-259,-8,-29,22,-8
6220,20,-259,-13,-32,21,-8
6225,22,-258,-21,-34,18,-8
6230,19,-259,-14,-35,14,-8
6235,19,-260,-11,-36,12,-8
6240,17,-259,-14,-37,10,-8
6245,19,-262,-15,-40,7,-9
6250,20,-259,-15,-39,5,-9
6255,17,-261,-14,-39,4,-9
6260,27,-259,-15,-36,4,-10
6265,19,-261,-17,-33,6,-11
6270,16,-258,-15,-35,5,-11
6275,21,-262,-16,-35,7,-10
6280,20,-260,-13,-34,9,-11
6285,17,-259,-14,-33,10,-9
6290,19,-261,-16,-33,12,-10
6295,20,-262,-18,-32,13,-11
6300,18,-259,-15,-30,15,-10
6305,16,-257,-13,-27,17,-9
6310,18,-259,-14,-26,17,-8
6315,19,-261,-24,-24,20,-8
6320,20,-261,-16,-24,21,-8
6325,18,-257,-16,-26,19,-10
6330,17,-259,-12,-28,20,-10
6335,19,-260,-13,-29,22,-9
6340,20,-257,-14,-33,21,-9
6345,17,-261,-17,-36,21,-10
6350,18,-258,-9,-40,20,-11
6355,19,-261,-14,-43,22,-12
6360,16,-260,-12,-44,23,-12
6365,20,-262,-12,-44,24,-11
6370,19,-260,-13,-44,24,-12
6375,21,-262,-11,-42,23,-13
6380,19,-259,-12,-42,22,-13
6385,19,-261,-11,-41,23,-12
6390,19,-259,-9,-41,22,-11
6395,21,-259,-11,-43,20,-12
6400,17,-259,-9,-45,20,-11
6405,19,-256,-10,-46,19,-10
6410,20,-259,-13,-48,21,-9
6415,19,-260,-14,-50,20,-7
6420,17,-258,-11,-51,19,-6
6425,19,-259,-11,-52,19,-6
6430,19,-257,-8,-53,18,-4
6435,19,-260,-11,-54,18,-5
6440,19,-258,-10,-56,19,-5
6445,20,-261,-14,-56,17,-4
6450,20,-259,-8,-54,17,-5
6455,18,-259,-11,-53,18,-5
6460,20,-259,-16,-52,18,-5
6465,22,-260,-11,-52,17,-6
6470,17,-260,-14,-53,18,-6
6475,21,-260,-13,-54,18,-6
6480,20,-260,-11,-54,17,-7
6485,18,-259,-15,-58,17,-8
6490,17,-258,-15,-57,16,-9
6495,21,-259,-16,-57,17,-9
6500,18,-260,-14,-58,17,-9
6505,20,-261,-17,-57,17,-9
6510,18,-257,-17,-55,17,-8
6515,20,-261,-8,-55,19,-10
6520,19,-261,-11,-53,20,-8
6525,17,-258,-14,-53,21,-8
6530,18,-261,-11,-53,20,-9
6535,19,-260,-11,-53,21,-8
6540,20,-260,-14,-54,21,-6
6545,20,-261,-14,-57,21,-6
6550,20,-259,-10,-56,21,-5
6555,20,-257,-15,-57,21,-5
6560,18,-262,-15,-55,20,-6
6565,20,-258,-10,-57,21,-5
6570,19,-259,-15,-57,20,-3
6575,19,-261,-12,-58,21,-2
6580,17,-259,-11,-58,21,-1
6585,22,-259,-13,-57,23,0
6590,19,-261,-10,-57,23,-2
6595,21,-261,-12,-57,23,-1
6600,20,-260,-15,-59,22,-2
6605,18,-259,-12,-60,21,-1
6610,21,-263,-14,-59,20,-3
6615,20,-261,-15,-59,20,-3
6620,18,-260,-14,-56,21,-3
6625,18,-259,-11,-52,22,-4
6630,21,-261,-17,-51,22,-5
6635,19,-260,-16,-48,23,-7
6640,18,-261,-17,-46,23,-8
6645,15,-261,-18,-45,22,-9
6650,19,-260,-18,-46,21,-10
6655,18,-259,-16,-53,21,-10
6660,19,-260,-16,-57,20,-11
6665,19,-257,-11,-64,19,-10
6670,19,-260,-14,-68,19,-10
6675,20,-257,-13,-73,21,-9
6680,19,-263,-17,-76,20,-9
6685,19,-260,-12,-76,20,-10
6690,16,-259,-15,-78,21,-8
6695,21,-259,-13,-81,20,-10
6700,24,-257,-18,-90,19,-12
6705,22,-256,-19,-108,14,-15
6710,22,-257,-19,-136,8,-17
6715,20,-255,-21,-175,3,-21
6720,17,-253,-20,-217,0,-25
6725,19,-254,-22,-261,1,-31
6730,15,-253,-20,-307,7,-39
6735,15,-254,-17,-341,20,-47
6740,15,-252,-20,-369,36,-55
6745,15,-253,-17,-389,53,-62
6750,13,-254,-17,-403,72,-68
6755,10,-255,-16,-407,86,-68
6760,14,-257,-17,-402,97,-66
6765,10,-258,-18,-390,104,-61
6770,12,-259,-18,-368,109,-55
6775,14,-260,-20,-340,117,-49
6780,13,-258,-18,-309,124,-44
6785,15,-261,-15,-275,131,-40
6790,15,-265,-14,-238,133,-39
6795,16,-260,-14,-202,131,-37
6800,14,-261,-16,-171,126,-36
6805,15,-259,-19,-146,117,-34
6810,18,-256,-20,-129,104,-33
6815,19,-257,-16,-122,89,-32
6820,19,-258,-19,-121,73,-31
6825,24,-258,-19,-124,59,-31
6830,29,-259,-19,-132,45,-31
6835,27,-261,-21,-140,34,-30
6840,27,-259,-18,-147,21,-31
6845,28,-261,-16,-149,10,-30
6850,28,-260,-18,-150,-2,-29
6855,27,-259,-16,-153,-12,-29
6860,26,-258,-13,-157,-20,-26
6865,29,-259,-19,-164,-28,-22
6870,28,-257,-15,-180,-33,-17
6875,26,-254,-15,-204,-34,-13
6880,29,-256,-18,-229,-35,-6
6885,23,-255,-15,-252,-31,-1
6890,26,-256,-11,-265,-25,4
6895,23,-256,-12,-271,-16,10
6900,23,-257,-14,-270,-9,15
6905,23,-256,-17,-268,-3,18
6910,22,-256,-18,-267,2,21
6915,23,-256,-16,-270,8,23
6920,24,-256,-19,-273,13,25
6925,24,-258,-21,-278,17,27
6930,18,-254,-23,-283,20,27
6935,20,-256,-25,-284,22,27
6940,18,-258,-27,-280,23,30
6945,20,-256,-26,-277,22,32
6950,20,-257,-27,-273,22,33
6955,18,-257,-28,-266,20,33
6960,18,-258,-25,-258,18,34
6965,22,-258,-31,-251,18,33
6970,22,-260,-25,-239,18,33
6975,19,-261,-32,-225,18,32
6980,19,-262,-29,-204,15,28
6985,19,-263,-34,-176,13,23
6990,20,-265,-29,-146,9,17
6995,25,-258,-36,-120,4,9
7000,17,-266,-33,-98,-2,6
7005,20,-261,-29,-87,-5,5
7010,18,-259,-30,-85,-6,6
7015,18,-256,-35,-90,-7,6
7020,18,-256,-33,-105,-7,9
7025,15,-255,-31,-127,-7,17
7030,16,-256,-28,-148,-7,21
7035,20,-256,-27,-169,-6,28
7040,19,-256,-31,-187,-6,36
7045,20,-259,-31,-200,-3,42
7050,18,-259,-30,-210,-2,47
7055,19,-258,-30,-219,-1,51
7060,21,-262,-19,-228,0,56
7065,20,-256,-33,-240,1,59
7070,17,-256,-30,-254,-1,59
7075,17,-255,-35,-269,-3,58
7080,17,-252,-33,-280,-4,56
7085,17,-253,-31,-288,-9,55
7090,19,-254,-37,-291,-16,50
7095,18,-255,-35,-287,-24,45
7100,14,-254,-43,-280,-28,40
7105,16,-261,-43,-268,-31,36
7110,16,-255,-37,-254,-31,34
7115,17,-256,-40,-245,-26,32
7120,17,-253,-38,-243,-19,30
7125,26,-265,-13,-246,-12,28
7130,16,-252,-38,-262,-5,27
7135,20,-254,-36,-289,2,25
7140,16,-254,-40,-322,9,21
7145,17,-255,-37,-355,21,17
7150,22,-258,-32,-383,34,9
7155,12,-256,-39,-401,49,-1
7160,13,-255,-40,-411,65,-9
7165,12,-256,-34,-418,78,-16
7170,13,-252,-37,-422,89,-23
7175,9,-251,-42,-427,97,-25
7180,12,-255,-40,-433,104,-24
7185,13,-252,-41,-439,109,-23
7190,10,-252,-39,-447,111,-21
7195,7,-241,-67,-451,110,-18
7200,13,-253,-48,-454,110,-13
7205,13,-254,-47,-454,110,-10
7210,16,-253,-48,-456,105,-3
7215,13,-256,-52,-454,100,3
7220,14,-257,-55,-456,95,7
7225,18,-258,-52,-456,91,11
7230,18,-258,-53,-453,87,15
7235,17,-258,-51,-448,83,20
7240,21,-259,-46,-443,81,22
7245,20,-258,-51,-442,77,24
7250,23,-257,-48,-444,79,27
7255,26,-258,-52,-446,82,30
7260,24,-255,-45,-446,87,34
7265,24,-254,-43,-444,93,37
7270,28,-254,-44,-441,96,41
7275,28,-248,-41,-441,102,44
7280,25,-247,-46,-443,107,50
7285,29,-250,-46,-449,110,55
7290,26,-252,-44,-455,112,59
7295,23,-245,-43,-462,114,59
7300,24,-247,-44,-473,118,60
7305,21,-248,-40,-483,122,61
7310,21,-249,-42,-498,129,62
7315,21,-245,-41,-512,136,63
7320,19,-244,-41,-532,144,64
7325,17,-240,-39,-555,153,68
7330,18,-236,-47,-585,162,72
7335,19,-239,-39,-616,171,77
7340,19,-241,-44,-642,179,85
7345,23,-243,-42,-661,186,95
7350,27,-247,-46,-677,189,105
7355,24,-246,-46,-697,188,114
7360,30,-253,-51,-727,185,121
7365,31,-256,-46,-775,177,125
7370,31,-258,-51,-836,167,128
7375,31,-260,-50,-907,150,127
7380,35,-265,-48,-987,136,127
7385,36,-264,-43,-1069,125,125
7390,34,-272,-33,-1138,116,121
7395,32,-279,-30,-1192,115,118
7400,31,-287,-29,-1226,120,113
7405,30,-289,-32,-1240,127,109
7410,26,-293,-36,-1238,140,105
7415,19,-291,-54,-1235,154,98
7420,6,-282,-68,-1249,168,100
7425,3,-276,-84,-1292,177,109
7430,-5,-264,-98,-1375,181,132
7435,-14,-262,-120,-1495,172,160
7440,-18,-262,-132,-1642,148,187
7445,-11,-267,-147,-1806,109,210
7450,-12,-270,-155,-1974,62,226
7455,-11,-278,-154,-2146,14,239
7460,-15,-297,-150,-2303,-39,254
7465,-12,-316,-143,-2425,-95,273
7470,-8,-331,-139,-2504,-150,294
7475,-12,-346,-138,-2535,-203,321
7480,-1,-360,-140,-2529,-250,348
7485,-2,-369,-136,-2493,-290,376
7490,1,-382,-138,-2432,-324,402
7495,-2,-407,-143,-2353,-348,412
7500,0,-413,-146,-2253,-365,412
7505,-1,-435,-149,-2135,-374,392
7510,-3,-449,-157,-2005,-373,355
7515,-10,-462,-171,-1856,-358,304
7520,-6,-476,-194,-1693,-334,258
7525,-14,-467,-204,-1511,-302,211
7530,-10,-466,-218,-1312,-268,179
7535,-10,-457,-226,-1102,-237,143
7540,-11,-444,-232,-886,-212,112
7545,-9,-428,-241,-678,-192,74
7550,-6,-408,-242,-498,-170,36
7555,-1,-389,-239,-350,-151,5
7560,-2,-373,-235,-246,-133,-24
7565,0,-355,-235,-176,-113,-47
7570,-1,-333,-223,-140,-87,-66
7575,0,-320,-218,-131,-60,-89
7580,0,-302,-209,-137,-34,-106
7585,1,-289,-206,-153,-15,-114
7590,0,-276,-198,-180,-4,-118
7595,-1,-263,-193,-211,0,-127
7600,0,-255,-187,-253,-1,-128
7605,2,-247,-188,-305,-10,-118
7610,1,-241,-181,-365,-25,-107
7615,5,-233,-179,-429,-45,-103
7620,10,-230,-173,-499,-67,-91
7625,11,-224,-169,-567,-90,-75
7630,12,-215,-171,-635,-115,-49
7635,17,-218,-172,-709,-133,-13
7640,17,-221,-170,-780,-144,8
7645,16,-220,-174,-841,-159,27
7650,25,-224,-172,-892,-170,40
7655,19,-224,-164,-925,-176,32
7660,16,-228,-167,-953,-176,36
7665,15,-233,-162,-974,-171,43
7670,17,-235,-161,-985,-163,38
7675,9,-240,-161,-998,-156,29
7680,8,-241,-158,-1010,-143,36
7685,9,-246,-158,-1019,-132,40
7690,1,-247,-160,-1027,-123,33
7695,3,-247,-157,-1033,-110,43
7700,0,-254,-162,-1028,-97,36
7705,-2,-259,-161,-1021,-89,18
7710,-7,-259,-160,-1007,-85,17
7715,-12,-265,-168,-988,-85,27
7720,-16,-264,-167,-970,-89,43
7725,-12,-267,-171,-940,-94,53
7730,-16,-269,-173,-895,-100,38
7735,-13,-266,-171,-848,-99,31
7740,-17,-267,-169,-797,-101,26
7745,-28,-266,-173,-743,-101,31
7750,-14,-267,-172,-689,-105,56
7755,-15,-258,-178,-627,-110,46
7760,-16,-256,-172,-563,-111,16
7765,-17,-253,-168,-494,-113,-2
7770,-15,-248,-166,-425,-121,-2
7775,-14,-247,-170,-367,-131,-1
7780,-14,-233,-166,-319,-141,-9
7785,-13,-229,-156,-266,-152,-18
7790,-11,-226,-161,-211,-159,-26
7795,-9,-220,-158,-159,-163,-27
7800,0,-219,-155,-107,-170,-31
7805,-10,-211,-161,-56,-175,-39
7810,1,-210,-156,-9,-185,-24
7815,0,-203,-157,49,-189,-36
7820,0,-199,-158,110,-185,-58
7825,4,-195,-156,168,-178,-85
7830,1,-187,-154,234,-171,-107
7835,1,-182,-155,306,-166,-110
7840,1,-178,-156,372,-162,-109
7845,2,-173,-153,433,-162,-108
7850,4,-163,-151,493,-158,-117
7855,3,-158,-148,552,-147,-145
7860,2,-148,-151,604,-141,-167
7865,0,-142,-151,651,-136,-176
7870,0,-135,-149,687,-130,-183
7875,0,-129,-151,715,-126,-185
7880,-1,-125,-151,730,-126,-187
7885,-4,-125,-150,732,-129,-185
7890,-4,-116,-147,721,-133,-181
7895,-1,-118,-147,702,-133,-180
7900,-2,-119,-149,681,-124,-177
7905,0,-119,-148,663,-115,-174
7910,2,-117,-145,643,-99,-177
7915,-3,-117,-143,623,-82,-180
7920,0,-119,-142,610,-72,-167
7925,0,-120,-147,598,-58,-159
7930,1,-121,-148,588,-42,-154
7935,1,-121,-146,580,-25,-152
7940,0,-114,-149,573,-6,-150
7945,0,-122,-143,569,8,-148
7950,-3,-121,-145,564,25,-143
7955,3,-119,-147,553,36,-122
7960,5,-120,-147,552,56,-115
7965,6,-121,-146,560,83,-120
7970,7,-119,-143,575,106,-124
7975,3,-117,-150,591,124,-123
7980,4,-117,-154,600,134,-120
7985,0,-113,-158,593,137,-112
7990,1,-117,-162,566,136,-104
7995,3,-103,-193,524,131,-102
8000,1,-122,-168,466,126,-101
8005,1,-127,-179,398,120,-101
8010,1,-133,-177,322,116,-103
8015,0,-142,-178,242,113,-103
8020,-6,-146,-174,164,107,-100
8025,-10,-160,-178,95,97,-94
8030,-9,-167,-178,37,84,-89
8035,-12,-178,-185,-13,70,-82
8040,-16,-189,-187,-54,58,-75
8045,-26,-201,-180,-85,54,-70
8050,-20,-211,-187,-99,47,-66
8055,-22,-221,-189,-95,43,-65
8060,-28,-228,-188,-79,36,-67
8065,-27,-236,-186,-49,26,-69
8070,-31,-242,-183,-11,18,-71
8075,-28,-246,-181,36,12,-74
8080,-26,-245,-180,89,4,-76
8085,-26,-243,-175,147,-7,-78
8090,-23,-241,-173,202,-20,-79
8095,-24,-238,-175,245,-33,-78
8100,-26,-234,-168,272,-48,-76
8105,-21,-229,-170,284,-64,-71
8110,-21,-227,-168,278,-75,-68
8115,-17,-227,-165,264,-86,-66
8120,-16,-227,-166,245,-93,-61
8125,-13,-227,-161,226,-99,-60
8130,-12,-226,-167,210,-101,-57
8135,-7,-222,-165,199,-98,-52
8140,-3,-227,-164,189,-91,-46
8145,-2,-226,-163,185,-80,-41
8150,1,-226,-160,184,-65,-37
8155,3,-225,-167,185,-50,-31
8160,4,-227,-162,191,-30,-26
8165,8,-225,-161,200,-14,-23
8170,10,-222,-160,210,1,-20
8175,12,-219,-157,220,18,-18
8180,13,-220,-158,224,30,-15
8185,16,-216,-155,225,43,-17
8190,9,-213,-156,222,53,-17
8195,13,-209,-158,215,60,-19
8200,11,-212,-157,202,64,-21
8205,7,-214,-156,181,63,-23
8210,6,-213,-158,160,60,-26
8215,1,-214,-154,138,55,-29
8220,4,-217,-161,119,48,-33
8225,1,-216,-159,104,42,-33
8230,1,-217,-160,89,37,-34
8235,1,-221,-161,75,34,-32
8240,-1,-217,-158,65,31,-31
8245,0,-220,-157,56,29,-30
8250,0,-221,-156,49,25,-28
8255,-1,-222,-155,42,22,-24
8260,-2,-222,-156,38,16,-21
8265,-1,-224,-157,33,11,-16
8270,-1,-229,-159,30,5,-14
8275,0,-227,-154,29,3,-11
8280,0,-228,-158,25,-1,-6
8285,0,-232,-157,20,0,-2
8290,0,-234,-160,15,3,1
8295,0,-235,-160,12,5,4
8300,1,-237,-162,12,7,7
8305,2,-239,-160,15,8,9
8310,0,-242,-156,21,10,11
8315,3,-239,-157,24,14,13
8320,0,-237,-163,30,16,14
8325,3,-237,-153,37,17,15
8330,2,-240,-158,46,22,14
8335,4,-237,-159,53,26,13
8340,4,-235,-157,60,31,13
8345,4,-237,-156,62,36,13
8350,4,-234,-158,60,41,14
8355,1,-231,-155,56,45,12
8360,2,-231,-158,52,51,10
8365,4,-233,-150,46,55,8
8370,4,-229,-158,41,60,7
8375,3,-230,-154,36,66,6
8380,3,-225,-151,34,72,7
8385,4,-229,-152,26,79,4
8390,3,-226,-152,18,86,5
8395,3,-226,-154,8,89,6
8400,1,-222,-151,-7,92,6
8405,5,-226,-153,-20,94,8
8410,2,-226,-151,-35,97,9
8415,4,-228,-155,-52,100,13
8420,3,-229,-153,-64,100,15
8425,2,-230,-156,-76,101,15
8430,4,-233,-154,-86,103,16
8435,1,-233,-153,-95,104,17
8440,4,-236,-160,-102,105,17
8445,0,-237,-161,-105,103,18
8450,1,-239,-154,-107,102,18
8455,0,-241,-152,-105,101,16
8460,2,-242,-150,-99,100,14
8465,2,-240,-150,-93,100,12
8470,-1,-241,-147,-83,100,11
8475,2,-242,-145,-74,99,10
8480,1,-239,-147,-64,100,9
8485,0,-237,-147,-57,101,8
8490,0,-236,-147,-51,101,8
8495,2,-236,-145,-47,103,8
8500,1,-237,-150,-46,103,11
8505,0,-236,-149,-44,104,11
8510,2,-234,-151,-44,103,13
8515,1,-237,-150,-47,104,15
8520,3,-236,-147,-49,105,16
8525,5,-238,-152,-52,104,18
8530,2,-233,-150,-59,105,20
8535,2,-236,-145,-63,107,20
8540,3,-239,-146,-69,108,22
8545,7,-238,-148,-70,108,21
8550,3,-236,-148,-74,109,20
8555,4,-237,-150,-77,107,21
8560,4,-238,-150,-74,105,20
8565,3,-237,-148,-73,103,20
8570,4,-238,-150,-75,101,16
8575,4,-237,-153,-74,95,12
8580,3,-239,-152,-72,93,9
8585,1,-237,-151,-73,92,6
8590,1,-238,-153,-70,90,3
8595,-1,-237,-152,-70,88,0
8600,0,-235,-149,-72,85,-1
8605,0,-234,-153,-75,82,-2
8610,1,-237,-150,-78,81,-1
8615,1,-237,-147,-82,79,-2
8620,0,-238,-148,-82,78,-1
8625,1,-235,-146,-84,79,0
8630,0,-239,-144,-85,79,-1
8635,0,-241,-145,-84,79,1
8640,1,-237,-145,-84,81,3
8645,1,-240,-144,-81,82,4
8650,1,-234,-148,-79,84,7
8655,0,-235,-148,-77,89,7
8660,1,-237,-145,-74,92,9
8665,7,-237,-146,-72,94,11
8670,4,-236,-145,-73,97,10
8675,3,-236,-151,-76,98,13
8680,6,-237,-150,-80,100,14
8685,2,-236,-145,-85,103,15
8690,7,-239,-147,-90,103,14
8695,7,-241,-147,-98,104,16
8700,5,-240,-147,-107,104,16
8705,6,-240,-148,-111,101,15
8710,5,-243,-148,-111,98,13
8715,6,-247,-149,-105,95,12
8720,6,-247,-152,-93,90,11
8725,1,-244,-153,-76,88,9
8730,6,-244,-149,-59,84,6
8735,4,-240,-155,-42,79,1
8740,5,-241,-150,-30,75,-1
8745,4,-241,-153,-22,73,-4
8750,3,-238,-152,-21,68,-7
8755,3,-237,-153,-22,63,-7
8760,3,-236,-155,-27,59,-8
8765,0,-235,-153,-33,58,-9
8770,1,-237,-152,-38,57,-10
8775,1,-236,-147,-46,57,-9
8780,1,-236,-152,-51,59,-8
8785,2,-235,-149,-59,60,-5
8790,3,-239,-146,-69,61,-4
8795,2,-236,-150,-79,61,0
8800,2,-235,-151,-84,61,4
8805,2,-241,-149,-87,60,5
8810,15,-239,-165,-86,60,7
8815,4,-238,-152,-81,58,8
8820,5,-239,-153,-73,58,8
8825,4,-237,-152,-68,58,8
8830,4,-236,-148,-68,57,8
8835,4,-237,-152,-68,57,8
8840,3,-241,-152,-73,57,9
8845,5,-239,-149,-76,57,9
8850,5,-239,-152,-76,59,10
8855,7,-241,-153,-70,58,11
8860,6,-237,-153,-60,56,11
8865,5,-241,-140,-46,53,8
8870,7,-236,-152,-30,50,2
8875,6,-236,-152,-19,46,-1
8880,5,-231,-154,-10,43,-4
8885,8,-232,-156,-7,41,-7
8890,13,-237,-156,-9,39,-9
8895,7,-231,-152,-14,39,-13
8900,6,-229,-150,-20,41,-15
8905,8,-232,-154,-28,42,-14
8910,6,-234,-150,-37,45,-15
8915,7,-231,-154,-43,48,-14
8920,11,-240,-144,-49,52,-12
8925,7,-232,-151,-54,55,-12
8930,9,-236,-153,-56,58,-11
8935,8,-232,-147,-57,59,-9
8940,8,-234,-150,-59,60,-7
8945,9,-236,-149,-59,59,-7
8950,5,-235,-154,-60,59,-6
8955,6,-233,-148,-60,58,-5
8960,8,-238,-151,-58,59,-4
8965,7,-234,-150,-57,58,-5
8970,8,-235,-154,-55,56,-3
8975,9,-235,-151,-51,54,-5
8980,4,-232,-153,-47,53,-5
8985,4,-230,-150,-45,52,-5
8990,4,-231,-150,-45,49,-7
8995,8,-234,-154,-47,49,-7
9000,5,-232,-155,-54,49,-7
9005,3,-234,-152,-62,50,-4
9010,3,-236,-151,-73,49,-2
9015,8,-238,-150,-82,51,-1
9020,5,-239,-149,-91,51,0
9025,7,-242,-150,-93,54,2
9030,4,-240,-151,-95,56,4
9035,9,-247,-155,-90,56,5
9040,4,-243,-149,-82,56,5
9045,6,-244,-154,-72,57,5
9050,5,-245,-151,-63,56,4
9055,8,-245,-151,-55,57,6
9060,4,-244,-150,-50,56,6
9065,5,-240,-147,-43,55,6
9070,7,-242,-148,-36,54,5
9075,5,-240,-147,-31,52,3
9080,4,-239,-151,-26,47,3
9085,5,-238,-144,-22,43,2
9090,5,-241,-150,-21,38,0
9095,4,-234,-147,-22,33,-2
9100,2,-231,-155,-21,27,-2
9105,2,-234,-148,-22,21,-2
9110,4,-236,-150,-25,15,-5
9115,2,-236,-150,-26,12,-6
9120,4,-233,-150,-29,8,-6
9125,5,-233,-149,-37,3,-7
9130,8,-235,-147,-42,2,-8
9135,5,-234,-149,-46,-1,-8
9140,3,-236,-151,-51,1,-7
9145,6,-236,-147,-55,2,-7
9150,6,-235,-152,-58,4,-6
9155,5,-234,-149,-61,7,-5
9160,6,-234,-147,-63,12,-5
9165,6,-238,-152,-65,16,-2
9170,5,-236,-148,-64,20,-2
9175,8,-237,-154,-65,22,1
9180,6,-240,-153,-66,27,1
9185,5,-240,-153,-66,28,2
9190,6,-236,-151,-65,30,3
9195,5,-239,-149,-64,32,3
9200,9,-242,-152,-61,32,2
9205,4,-244,-153,-55,31,0
9210,7,-241,-153,-46,30,-2
9215,3,-237,-151,-36,30,-2
9220,5,-240,-148,-31,28,-4
9225,3,-237,-149,-30,26,-5
9230,2,-230,-152,-29,25,-7
9235,4,-232,-149,-33,23,-7
9240,5,-236,-154,-36,21,-7
9245,4,-234,-148,-42,20,-7
9250,5,-236,-151,-43,18,-6
9255,4,-236,-153,-46,15,-7
9260,5,-237,-147,-48,13,-7
9265,7,-238,-147,-49,12,-9
9270,4,-238,-151,-51,10,-9
9275,6,-235,-148,-52,7,-9
9280,5,-236,-149,-55,6,-9
9285,3,-234,-152,-59,5,-10
9290,4,-235,-148,-61,2,-11
9295,3,-236,-152,-64,2,-10
9300,6,-237,-150,-65,2,-9
9305,6,-237,-151,-66,2,-8
9310,5,-240,-150,-64,1,-9
9315,4,-238,-151,-62,2,-9
9320,5,-240,-149,-59,5,-9
9325,7,-242,-151,-55,6,-11
9330,6,-242,-153,-51,9,-11
9335,7,-240,-153,-47,12,-12
9340,6,-239,-152,-44,14,-12
9345,7,-238,-148,-43,16,-11
9350,3,-238,-149,-41,19,-12
9355,9,-240,-148,-39,20,-11
9360,7,-236,-147,-37,21,-11
9365,8,-239,-149,-35,24,-10
9370,5,-232,-150,-38,25,-10
9375,5,-237,-151,-39,24,-9
9380,9,-236,-153,-43,25,-8
9385,5,-237,-149,-48,23,-7
9390,10,-238,-153,-51,21,-6
9395,7,-236,-155,-53,20,-7
9400,6,-236,-153,-56,17,-7
9405,7,-240,-151,-58,16,-6
9410,7,-237,-152,-57,17,-7
9415,3,-237,-148,-58,17,-8
9420,4,-236,-151,-53,17,-9
9425,8,-237,-154,-49,19,-8
9430,5,-233,-150,-46,20,-8
9435,5,-233,-152,-43,21,-8
9440,6,-235,-147,-41,20,-8
9445,5,-235,-149,-39,20,-8
9450,-2,-264,-164,-39,20,-6
9455,12,-243,-154,-39,20,-6
9460,8,-241,-160,-39,20,-5
9465,3,-236,-151,-40,20,-5
9470,7,-237,-157,-39,20,-6
9475,6,-235,-151,-40,21,-6
9480,4,-237,-152,-41,21,-6
9485,6,-238,-150,-40,22,-6
9490,4,-236,-153,-43,23,-7
9495,7,-238,-153,-46,24,-8
9500,8,-238,-154,-48,23,-7
9505,6,-238,-150,-48,24,-8
9510,2,-237,-151,-49,21,-6
9515,3,-238,-150,-49,23,-6
9520,5,-243,-149,-50,22,-5
9525,5,-241,-155,-48,23,-4
9530,4,-240,-152,-42,23,-3
9535,7,-240,-149,-40,23,-2
9540,6,-241,-153,-36,22,-1
9545,7,-243,-151,-32,23,-3
9550,4,-239,-153,-30,22,-3
9555,3,-238,-152,-28,24,-3
9560,6,-236,-153,-23,25,-4
9565,5,-237,-149,-21,26,-4
9570,4,-234,-152,-17,27,-4
9575,6,-237,-152,-18,27,-4
9580,5,-235,-153,-17,27,-5
9585,5,-234,-153,-20,28,-6
9590,4,-234,-154,-22,26,-5
9595,5,-237,-152,-23,26,-4
9600,4,-231,-150,-23,25,-6
9605,5,-235,-146,-22,26,-5
9610,6,-237,-151,-23,26,-6
9615,5,-234,-151,-23,25,-6
9620,7,-236,-147,-22,24,-6
9625,5,-234,-151,-23,23,-5
9630,5,-236,-150,-25,24,-4
9635,6,-234,-149,-26,24,-3
9640,4,-236,-150,-26,23,-4
9645,7,-236,-149,-29,24,-4
9650,3,-236,-150,-29,23,-3
9655,3,-238,-153,-29,22,-4
9660,6,-238,-151,-29,21,-3
9665,7,-236,-152,-31,21,-2
9670,8,-239,-151,-31,20,0
9675,5,-239,-148,-30,22,0
9680,0,-244,-141,-29,23,-1
9685,7,-240,-147,-27,24,0
9690,7,-239,-150,-26,26,-1
9695,6,-239,-151,-22,27,-1
9700,4,-237,-148,-21,27,0
9705,5,-237,-149,-19,29,2
9710,3,-239,-152,-18,28,2
9715,4,-239,-153,-17,28,1
9720,5,-236,-149,-15,30,2
9725,5,-238,-154,-13,28,3
9730,5,-237,-148,-12,27,0
9735,13,-241,-134,-10,24,0
9740,6,-234,-150,-10,23,-1
9745,4,-237,-149,-9,23,-2
9750,4,-236,-148,-13,19,-1
9755,5,-238,-151,-14,18,-3
9760,4,-237,-151,-14,17,-2
9765,5,-237,-150,-16,17,-3
9770,5,-239,-150,-15,15,-2
9775,6,-235,-152,-17,16,0
9780,2,-235,-152,-18,16,0
9785,8,-237,-153,-18,18,1
9790,17,-228,-157,-18,19,4
9795,4,-236,-152,-19,22,4
9800,3,-236,-144,-21,22,3
9805,3,-233,-149,-21,23,3
9810,9,-238,-147,-21,26,3
9815,7,-240,-152,-24,26,4
9820,2,-240,-150,-21,27,5
9825,4,-239,-152,-23,28,5
9830,6,-236,-146,-22,30,5
9835,2,-237,-150,-19,32,5
9840,4,-238,-151,-18,32,6
9845,5,-236,-148,-14,33,6
9850,5,-233,-149,-13,34,6
9855,4,-236,-150,-12,34,8
9860,6,-233,-151,-13,35,9
9865,4,-233,-154,-17,36,10
9870,3,-233,-150,-20,37,11
9875,6,-234,-151,-25,36,12
9880,3,-234,-146,-27,37,11
9885,5,-236,-148,-32,36,11
9890,2,-235,-148,-35,36,9
9895,4,-234,-148,-38,35,8
9900,4,-235,-150,-43,32,8
9905,3,-236,-148,-47,30,7
9910,3,-238,-151,-49,29,6
9915,4,-234,-150,-51,27,4
9920,3,-235,-152,-52,26,2
9925,4,-238,-147,-54,25,4
9930,2,-233,-154,-56,22,2
9935,1,-236,-149,-59,22,2
9940,1,-238,-145,-59,22,2
9945,1,-234,-150,-61,22,2
9950,2,-236,-150,-59,22,2
9955,7,-240,-151,-61,23,3
9960,3,-239,-152,-59,25,4
9965,2,-238,-150,-57,26,4
9970,2,-242,-150,-54,26,6
9975,7,-243,-149,-53,27,8
9980,4,-240,-148,-52,27,9
9985,4,-238,-145,-50,28,9
9990,4,-239,-148,-46,28,10
9995,6,-241,-149,-42,28,9
10000,5,-238,-144,-43,28,10
10005,5,-241,-148,-43,28,9
10010,1,-238,-143,-43,29,8
10015,4,-238,-145,-45,27,7
10020,4,-239,-148,-46,26,6
10025,4,-239,-143,-46,24,5
10030,3,-237,-144,-47,21,4
10035,4,-238,-147,-48,17,4
10040,5,-237,-147,-49,15,4
10045,3,-238,-148,-49,16,2
10050,2,-238,-151,-50,15,1
10055,3,-238,-147,-51,16,2
10060,4,-237,-148,-51,14,2
10065,4,-236,-146,-51,15,0
10070,4,-242,-148,-50,17,1
10075,6,-240,-153,-51,17,1
10080,3,-239,-150,-51,19,2
10085,3,-238,-147,-50,22,2
10090,3,-237,-150,-50,23,4
10095,3,-240,-149,-50,24,4
10100,3,-237,-148,-48,26,4
10105,5,-238,-147,-43,27,3
10110,2,-237,-152,-41,28,3
10115,3,-233,-148,-39,27,3
10120,6,-236,-147,-38,26,3
10125,4,-236,-149,-39,28,2
10130,3,-237,-145,-41,28,2
10135,3,-236,-145,-44,28,0
10140,5,-237,-148,-44,30,-1
10145,4,-237,-145,-46,30,0
10150,1,-235,-146,-44,28,-1
10155,2,-237,-147,-41,27,-2
10160,2,-235,-148,-42,25,-2
10165,2,-236,-148,-45,23,-2
10170,0,-234,-149,-48,22,-3
10175,1,-235,-151,-54,20,-3
10180,2,-235,-149,-59,19,-3
10185,3,-240,-150,-66,19,-3
10190,3,-240,-150,-69,18,-3
10195,3,-241,-147,-69,20,-2
10200,3,-242,-150,-68,19,-4
10205,6,-240,-150,-65,19,-5
10210,4,-242,-149,-60,19,-5
10215,5,-241,-149,-53,21,-4
10220,2,-240,-149,-51,21,-4
10225,1,-240,-148,-47,21,-5
10230,5,-243,-154,-42,20,-6
10235,3,-241,-153,-41,20,-4
10240,4,-240,-148,-38,20,-6
10245,2,-236,-148,-34,21,-6
10250,6,-236,-146,-32,21,-7
10255,2,-238,-146,-29,22,-7
10260,1,-234,-149,-29,22,-8
10265,2,-235,-150,-27,20,-10
10270,3,-233,-148,-28,20,-9
10275,1,-234,-148,-29,19,-8
10280,3,-234,-150,-32,17,-9
10285,3,-235,-148,-34,16,-9
10290,1,-236,-146,-37,14,-9
10295,1,-236,-149,-42,13,-10
10300,4,-235,-149,-45,13,-8
10305,4,-237,-149,-47,13,-8
10310,4,-235,-146,-50,14,-9
10315,2,-237,-150,-51,14,-7
10320,2,-239,-147,-53,14,-8
10325,3,-239,-148,-56,15,-8
10330,4,-238,-150,-55,14,-7
10335,4,-236,-151,-58,16,-6
10340,5,-237,-150,-60,16,-5
10345,4,-240,-146,-59,16,-5
10350,4,-238,-147,-60,15,-5
10355,4,-239,-148,-60,16,-5
10360,7,-240,-149,-60,15,-7
10365,4,-240,-148,-60,13,-7
10370,4,-236,-147,-60,14,-9
10375,4,-239,-148,-57,14,-9
10380,6,-242,-151,-55,14,-10
10385,4,-240,-152,-52,15,-10
10390,7,-242,-148,-49,14,-10
10395,5,-239,-147,-47,13,-12
10400,7,-241,-150,-46,13,-11
10405,6,-239,-154,-47,13,-11
10410,3,-239,-148,-45,12,-10
10415,6,-239,-147,-46,14,-9
10420,8,-238,-151,-45,15,-11
10425,8,-241,-148,-46,17,-9
10430,4,-238,-149,-46,18,-8
10435,6,-237,-145,-46,18,-8
10440,3,-238,-148,-45,22,-7
10445,4,-239,-148,-45,21,-7
10450,5,-238,-151,-46,23,-6
10455,4,-238,-144,-44,24,-5
10460,5,-238,-150,-45,23,-5
10465,4,-240,-150,-42,24,-5
10470,2,-239,-148,-37,24,-5
10475,4,-240,-151,-34,24,-5
10480,5,-239,-150,-32,24,-5
10485,4,-237,-151,-31,26,-5
10490,4,-235,-150,-30,25,-5
10495,4,-240,-151,-35,26,-5
10500,9,-248,-156,-40,26,-4
10505,3,-238,-149,-41,25,-5
10510,2,-238,-148,-45,24,-6
10515,1,-237,-148,-49,23,-5
10520,7,-240,-147,-52,22,-8
10525,3,-240,-149,-53,20,-8
10530,4,-242,-148,-54,18,-9
10535,4,-241,-149,-52,16,-10
10540,3,-237,-149,-50,13,-11
10545,6,-239,-146,-47,13,-11
10550,6,-240,-150,-43,13,-12
10555,10,-243,-155,-41,13,-10
10560,3,-235,-152,-41,14,-10
10565,7,-235,-148,-43,13,-12
10570,5,-236,-151,-47,15,-10
10575,4,-237,-152,-48,16,-9
10580,6,-237,-151,-52,17,-10
10585,3,-238,-150,-55,21,-9
10590,6,-237,-150,-53,20,-7
10595,4,-238,-150,-54,23,-7
10600,6,-239,-151,-55,25,-6
10605,4,-234,-148,-57,26,-4
10610,6,-241,-151,-54,25,-4
10615,6,-240,-145,-52,25,-5
10620,3,-242,-147,-53,24,-6
10625,6,-240,-149,-53,23,-6
10630,6,-242,-144,-52,20,-5
10635,5,-242,-145,-48,18,-5
10640,5,-240,-148,-46,17,-6
10645,6,-242,-149,-42,18,-9
10650,5,-243,-147,-42,15,-9
10655,6,-240,-146,-38,14,-8
10660,4,-237,-148,-38,13,-10
10665,7,-241,-148,-38,14,-11
10670,8,-241,-150,-35,15,-10
10675,3,-237,-149,-33,17,-11
10680,5,-236,-148,-33,17,-10
10685,4,-239,-152,-31,17,-10
10690,7,-237,-151,-31,20,-9
10695,5,-236,-147,-33,23,-8
10700,4,-237,-150,-31,24,-8
10705,3,-235,-149,-32,25,-8
10710,3,-240,-149,-34,26,-8
10715,2,-238,-147,-33,27,-7
10720,8,-240,-151,-35,28,-7
10725,3,-237,-151,-41,28,-6
10730,3,-236,-149,-40,29,-7
10735,3,-238,-146,-41,28,-8
10740,3,-237,-149,-44,29,-6
10745,6,-240,-146,-45,30,-7
10750,5,-242,-147,-46,29,-6
10755,3,-240,-150,-45,28,-6
10760,4,-238,-147,-45,28,-6
10765,6,-241,-151,-45,27,-8
10770,5,-241,-147,-44,28,-9
10775,6,-241,-147,-40,27,-8
10780,4,-238,-150,-37,29,-7
10785,3,-242,-147,-32,30,-7
10790,5,-243,-150,-27,30,-6
10795,7,-240,-145,-26,31,-7
10800,7,-242,-148,-26,31,-7
10805,5,-240,-148,-29,29,-8
10810,5,-237,-147,-28,29,-9
10815,3,-239,-145,-30,27,-8
10820,5,-240,-147,-29,25,-11
10825,4,-239,-148,-27,23,-11
10830,9,-240,-145,-24,21,-11
10835,3,-237,-145,-24,21,-12
10840,3,-237,-147,-24,21,-11
10845,8,-242,-146,-24,19,-12
10850,5,-237,-148,-25,19,-11
10855,5,-236,-149,-27,20,-10
10860,2,-235,-149,-28,19,-11
10865,6,-239,-149,-29,19,-10
10870,7,-241,-146,-30,20,-10
10875,5,-238,-149,-31,22,-12
10880,7,-239,-147,-29,22,-12
10885,5,-240,-149,-27,23,-11
10890,4,-237,-148,-24,25,-12
10895,4,-237,-149,-19,25,-12
10900,5,-238,-148,-17,25,-13
10905,3,-237,-150,-17,27,-12
10910,5,-240,-147,-17,26,-11
10915,5,-234,-150,-19,26,-11
10920,5,-235,-150,-19,27,-12
10925,6,-237,-147,-24,27,-11
10930,6,-235,-145,-26,27,-10
10935,5,-234,-147,-30,25,-11
10940,5,-238,-147,-35,25,-10
10945,5,-236,-145,-38,23,-11
10950,3,-238,-146,-42,23,-12
10955,3,-236,-148,-43,21,-13
10960,5,-238,-146,-45,21,-12
10965,4,-241,-148,-47,18,-13
10970,4,-241,-147,-48,18,-13
10975,4,-240,-148,-48,15,-11
10980,1,-240,-150,-47,14,-11
10985,6,-241,-151,-44,14,-11
10990,4,-243,-146,-43,14,-12
10995,2,-240,-143,-39,13,-10
11000,6,-242,-145,-35,13,-10
11005,7,-241,-149,-31,15,-9
11010,7,-240,-146,-28,16,-10
11015,5,-240,-148,-25,16,-8
11020,5,-238,-147,-22,17,-9
11025,6,-238,-146,-21,19,-9
11030,7,-240,-145,-19,18,-9
11035,5,-241,-144,-15,17,-10
11040,4,-237,-145,-16,18,-9
11045,4,-235,-147,-15,18,-9
11050,8,-237,-147,-17,16,-9
11055,2,-235,-145,-18,15,-9
11060,5,-236,-144,-22,15,-9
11065,7,-235,-145,-22,14,-10
11070,2,-233,-147,-26,14,-9
11075,8,-237,-147,-30,15,-9
11080,8,-239,-150,-31,17,-8
11085,4,-236,-144,-35,18,-8
11090,5,-239,-146,-40,19,-8
11095,8,-237,-142,-39,19,-9
11100,6,-236,-149,-40,20,-9
11105,4,-237,-148,-37,19,-9
11110,7,-241,-147,-35,18,-10
11115,5,-236,-150,-33,17,-8
11120,5,-236,-150,-33,18,-10
11125,4,-235,-151,-34,19,-9
11130,5,-235,-152,-34,19,-9
11135,7,-235,-147,-37,21,-9
11140,4,-238,-150,-41,21,-7
11145,5,-237,-149,-43,20,-5
11150,5,-240,-151,-48,22,-5
11155,4,-238,-151,-53,22,-5
11160,4,-235,-151,-57,20,-5
11165,6,-237,-147,-59,19,-6
11170,5,-237,-146,-60,18,-7
11175,6,-240,-149,-62,15,-8
11180,4,-240,-146,-62,14,-9
11185,5,-238,-148,-58,14,-9
11190,5,-237,-145,-52,15,-10
11195,7,-239,-147,-51,15,-9
11200,5,-235,-143,-50,15,-9
11205,5,-236,-147,-51,16,-9
11210,7,-237,-149,-51,16,-10
11215,6,-239,-148,-52,17,-9
11220,6,-234,-147,-54,19,-8
11225,6,-241,-148,-56,19,-6
11230,6,-241,-146,-61,19,-6
11235,7,-240,-149,-62,19,-7
11240,5,-239,-146,-63,18,-5
11245,4,-239,-150,-62,17,-6
11250,3,-237,-146,-59,17,-5
11255,5,-240,-149,-56,16,-7
11260,3,-240,-144,-49,15,-5
11265,5,-238,-143,-47,16,-3
11270,5,-236,-150,-38,15,-5
11275,5,-239,-148,-35,16,-7
11280,5,-240,-148,-35,15,-6
11285,6,-240,-151,-34,14,-6
11290,3,-237,-146,-35,13,-7
11295,6,-237,-146,-37,12,-6
11300,4,-237,-145,-39,12,-8
11305,4,-235,-146,-40,11,-8
11310,7,-237,-146,-42,10,-8
11315,4,-237,-147,-45,9,-7
11320,4,-238,-149,-45,8,-6
11325,1,-238,-143,-47,9,-8
11330,4,-238,-145,-49,9,-8
11335,3,-235,-148,-50,9,-7
11340,6,-238,-150,-51,9,-7
11345,5,-235,-147,-52,10,-5
11350,4,-235,-147,-55,11,-4
11355,6,-239,-148,-55,13,-4
11360,5,-236,-147,-58,13,-3
11365,4,-235,-150,-61,13,-3
11370,4,-245,-153,-60,15,-2
11375,4,-237,-151,-63,15,-2
11380,6,-238,-145,-65,14,-1
11385,5,-239,-149,-66,14,-3
11390,8,-241,-153,-66,15,-3
11395,3,-240,-151,-64,13,0
11400,9,-242,-146,-63,11,-1
11405,5,-240,-149,-59,12,-3
11410,2,-242,-150,-53,14,-2
11415,5,-237,-151,-50,14,-2
11420,9,-239,-148,-48,15,-4
11425,11,-228,-169,-45,14,-4
11430,5,-238,-151,-45,13,-3
11435,6,-237,-149,-46,11,-4
11440,5,-236,-145,-46,10,-5
11445,5,-237,-146,-45,10,-6
11450,6,-237,-144,-47,9,-6
11455,5,-238,-148,-46,10,-7
11460,4,-235,-148,-48,7,-7
11465,5,-235,-146,-50,8,-6
11470,3,-236,-145,-53,8,-6
11475,7,-237,-153,-58,6,-5
11480,10,-239,-150,-61,6,-6
11485,6,-234,-144,-66,5,-7
11490,6,-238,-149,-67,5,-6
11495,8,-238,-149,-69,6,-7
11500,8,-239,-149,-70,6,-4
11505,5,-240,-151,-69,7,-4
11510,5,-239,-150,-70,8,-4
11515,8,-239,-147,-69,9,-3
11520,6,-240,-151,-69,10,-3
11525,6,-238,-148,-66,13,-3
11530,5,-238,-150,-63,12,-3
11535,6,-238,-136,-61,13,-2
11540,8,-240,-150,-60,13,-3
11545,7,-239,-148,-57,13,-2
11550,8,-236,-148,-55,14,-4
11555,4,-236,-149,-55,13,-3
11560,3,-237,-147,-52,14,-3
11565,4,-237,-151,-54,14,-3
11570,4,-237,-145,-52,13,-2
11575,5,-235,-147,-52,14,-3
11580,5,-237,-151,-55,13,-2
11585,5,-238,-146,-55,12,-4
11590,4,-238,-150,-57,10,-4
11595,6,-237,-148,-57,10,-5
11600,2,-235,-150,-59,10,-5
11605,4,-238,-146,-60,11,-4
11610,5,-238,-146,-61,11,-6
11615,6,-238,-148,-63,10,-6
11620,3,-239,-151,-63,7,-6
11625,5,-237,-147,-64,8,-5
11630,6,-241,-150,-60,7,-6
11635,6,-239,-148,-58,6,-6
11640,4,-239,-152,-57,7,-4
11645,7,-239,-147,-54,7,-4
11650,4,-238,-148,-50,9,-4
11655,5,-239,-151,-48,11,-5
11660,7,-239,-149,-46,11,-5
11665,6,-239,-151,-46,12,-5
11670,5,-237,-148,-45,12,-4
11675,7,-239,-151,-46,14,-3
11680,8,-238,-149,-47,15,-3
11685,6,-237,-146,-48,15,-4
11690,4,-236,-151,-50,17,-2
11695,5,-239,-145,-51,17,-2
11700,5,-239,-150,-52,17,-1
11705,5,-240,-150,-52,19,-3
11710,4,-238,-144,-52,17,-2
11715,3,-238,-150,-53,17,-1
11720,3,-238,-151,-54,18,-2
11725,3,-236,-148,-57,16,-2
11730,2,-239,-149,-57,17,-1
11735,6,-240,-147,-56,19,-3
11740,5,-241,-147,-52,19,-2
11745,5,-239,-147,-49,20,-4
11750,4,-237,-148,-45,21,-3
11755,3,-238,-151,-42,21,-1
11760,5,-236,-146,-42,21,-2
11765,4,-238,-155,-43,21,-2
11770,5,-235,-148,-46,21,-1
11775,4,-235,-147,-50,21,-1
11780,6,-236,-148,-53,21,1
11785,5,-234,-149,-56,20,2
11790,6,-235,-147,-59,18,-2
11795,4,-238,-149,-60,17,-2
11800,8,-240,-149,-62,15,-3
11805,5,-237,-152,-63,15,-4
11810,4,-234,-144,-64,13,-6
11815,3,-236,-150,-66,11,-6
11820,4,-237,-149,-63,10,-7
11825,2,-237,-150,-65,10,-8
11830,5,-238,-147,-63,9,-7
11835,6,-240,-149,-61,8,-7
11840,6,-244,-151,-60,6,-6
11845,3,-238,-151,-61,6,-7
11850,7,-240,-149,-60,7,-8
11855,6,-239,-148,-59,7,-7
11860,5,-239,-152,-59,10,-6
11865,5,-239,-147,-56,11,-6
11870,5,-238,-149,-55,13,-5
11875,4,-241,-148,-53,14,-3
11880,1,-238,-149,-53,16,-3
11885,3,-239,-145,-52,18,-3
11890,6,-243,-149,-53,19,-2
11895,6,-240,-150,-54,19,-1
11900,4,-239,-148,-54,18,-2
11905,6,-241,-150,-55,18,-2
11910,5,-238,-148,-54,16,-3
11915,5,-242,-150,-55,14,-3
11920,2,-239,-153,-54,12,-3
11925,4,-238,-145,-51,11,-3
11930,6,-243,-149,-49,10,-4
11935,5,-238,-145,-50,8,-5
11940,6,-237,-145,-48,8,-5
11945,3,-235,-143,-48,7,-5
11950,5,-238,-148,-47,9,-5
11955,6,-237,-148,-47,8,-6
11960,3,-235,-147,-46,10,-5
11965,3,-234,-147,-47,11,-6
11970,4,-236,-148,-49,14,-5
11975,6,-237,-148,-50,16,-5
11980,4,-235,-150,-52,18,-4
11985,2,-236,-151,-52,19,-4
11990,3,-238,-148,-55,19,-3
11995,1,-234,-153,-57,19,-3
