timestamp,acc_x,acc_y,acc_z,gyro_x,gyro_y,gyro_z
0,40,-258,-64,-57,21,-14
5,38,-256,-63,-68,25,-15
10,36,-255,-65,-78,30,-15
15,38,-257,-63,-86,33,-14
20,41,-260,-60,-91,37,-16
25,33,-260,-70,-94,39,-15
30,39,-261,-63,-95,43,-15
35,36,-262,-62,-93,44,-14
40,38,-262,-65,-86,44,-13
45,36,-260,-65,-81,43,-12
50,34,-263,-58,-69,39,-12
55,39,-264,-63,-58,36,-11
60,39,-261,-63,-49,33,-11
65,35,-260,-61,-37,30,-12
70,39,-263,-65,-30,28,-12
75,42,-265,-63,-27,27,-14
80,35,-261,-62,-24,24,-14
85,37,-262,-61,-25,22,-13
90,35,-262,-64,-25,21,-12
95,37,-260,-63,-28,20,-11
100,37,-262,-62,-30,21,-11
105,37,-262,-65,-28,22,-10
110,38,-264,-63,-27,23,-10
115,37,-261,-66,-27,23,-12
120,37,-261,-59,-26,24,-11
125,34,-259,-62,-28,22,-13
130,39,-261,-63,-30,23,-14
135,36,-261,-62,-31,23,-15
140,32,-257,-64,-32,23,-15
145,34,-258,-65,-33,23,-13
150,33,-259,-65,-35,22,-15
155,36,-258,-62,-36,20,-15
160,38,-259,-65,-38,17,-14
165,38,-259,-64,-40,14,-15
170,38,-257,-66,-45,12,-14
175,37,-257,-66,-46,9,-12
180,34,-257,-66,-50,8,-10
185,40,-254,-63,-53,7,-10
190,38,-260,-67,-58,6,-9
195,34,-258,-65,-61,5,-6
200,38,-259,-62,-65,6,-5
205,36,-261,-65,-66,5,-3
210,35,-260,-63,-65,5,-2
215,35,-259,-63,-64,4,-1
220,37,-262,-61,-61,5,-1
225,36,-260,-65,-58,4,-3
230,37,-259,-61,-54,6,-3
235,33,-263,-66,-51,7,-4
240,36,-262,-62,-48,9,-6
245,37,-262,-66,-46,11,-7
250,36,-261,-64,-43,13,-10
255,37,-260,-65,-41,16,-12
260,36,-261,-63,-39,16,-13
265,35,-259,-65,-38,18,-14
270,37,-262,-62,-39,19,-16
275,37,-259,-64,-37,18,-18
280,36,-259,-66,-35,20,-18
285,39,-262,-61,-36,22,-17
290,34,-257,-65,-34,22,-18
295,35,-260,-60,-31,23,-16
300,37,-258,-65,-29,22,-17
305,38,-260,-64,-28,21,-16
310,38,-259,-62,-28,17,-15
315,35,-260,-66,-29,15,-15
320,36,-257,-65,-31,13,-14
325,35,-258,-64,-34,11,-11
330,35,-257,-63,-38,10,-9
335,36,-257,-64,-42,10,-8
340,34,-258,-61,-45,10,-7
345,34,-259,-63,-49,10,-6
350,38,-260,-66,-50,10,-5
355,35,-260,-67,-54,13,-6
360,38,-258,-66,-56,14,-7
365,36,-260,-62,-58,14,-6
370,37,-258,-63,-61,14,-5
375,37,-259,-65,-63,14,-6
380,36,-258,-63,-63,12,-6
385,39,-261,-61,-65,12,-6
390,38,-259,-68,-64,11,-5
395,38,-262,-62,-66,9,-7
400,35,-260,-64,-64,8,-8
405,38,-261,-64,-63,6,-9
410,33,-263,-65,-63,6,-10
415,33,-260,-66,-65,6,-11
420,35,-264,-63,-65,8,-10
425,34,-262,-64,-64,8,-9
430,33,-261,-63,-66,10,-9
435,36,-260,-64,-64,11,-8
440,34,-260,-64,-61,12,-7
445,37,-264,-68,-57,12,-6
450,35,-260,-64,-52,13,-7
455,43,-261,-67,-45,12,-8
460,37,-262,-65,-40,12,-10
465,39,-258,-66,-33,11,-9
470,38,-259,-64,-28,12,-10
475,43,-258,-63,-25,11,-9
480,42,-259,-66,-28,9,-9
485,39,-258,-65,-28,9,-8
490,37,-260,-65,-29,7,-8
495,36,-257,-66,-32,7,-7
500,37,-257,-66,-34,8,-6
505,37,-260,-69,-37,10,-6
510,38,-261,-63,-39,13,-7
515,37,-259,-65,-40,17,-10
520,37,-259,-65,-44,21,-13
525,35,-257,-65,-47,24,-12
530,38,-259,-64,-49,24,-13
535,40,-258,-63,-54,26,-14
540,36,-258,-66,-58,25,-15
545,39,-259,-62,-61,25,-15
550,39,-258,-68,-66,24,-13
555,35,-261,-68,-67,24,-12
560,37,-262,-65,-66,25,-10
565,33,-258,-67,-66,24,-9
570,36,-264,-65,-63,25,-8
575,36,-264,-67,-58,24,-6
580,38,-263,-64,-53,25,-7
585,32,-261,-65,-47,24,-7
590,36,-262,-66,-39,23,-6
595,35,-263,-64,-37,21,-5
600,33,-260,-65,-31,20,-6
605,40,-262,-63,-26,20,-7
610,37,-261,-64,-23,19,-6
615,38,-262,-62,-22,18,-7
620,38,-263,-63,-21,22,-7
625,37,-260,-66,-22,25,-7
630,37,-256,-63,-23,26,-6
635,39,-259,-65,-26,28,-5
640,34,-261,-62,-29,30,-6
645,35,-257,-66,-31,33,-6
650,35,-258,-66,-33,34,-6
655,38,-259,-60,-34,34,-6
660,33,-259,-63,-38,34,-6
665,34,-261,-65,-38,34,-5
670,37,-262,-64,-42,32,-7
675,27,-265,-63,-44,27,-7
680,33,-260,-65,-43,24,-8
685,36,-259,-64,-45,21,-9
690,30,-259,-66,-45,19,-9
695,37,-260,-65,-43,18,-8
700,34,-258,-63,-43,14,-8
705,35,-262,-62,-42,12,-7
710,33,-262,-62,-42,10,-5
715,36,-259,-63,-44,10,-7
720,35,-261,-62,-44,11,-5
725,36,-259,-65,-46,9,-7
730,39,-256,-68,-49,9,-6
735,38,-261,-68,-52,11,-5
740,38,-260,-67,-54,11,-6
745,39,-258,-66,-53,12,-7
750,39,-260,-65,-52,14,-7
755,36,-261,-68,-51,16,-8
760,38,-263,-66,-50,18,-9
765,39,-262,-64,-46,18,-11
770,37,-260,-68,-42,21,-11
775,39,-262,-63,-37,24,-11
780,40,-266,-65,-32,25,-12
785,38,-264,-65,-26,26,-12
790,36,-264,-65,-22,27,-11
795,39,-264,-66,-17,29,-12
800,41,-261,-65,-16,30,-11
805,37,-262,-67,-14,30,-12
810,38,-261,-64,-12,31,-11
815,33,-260,-62,-11,33,-12
820,37,-261,-65,-8,35,-12
825,34,-261,-63,-7,38,-14
830,36,-258,-64,-4,40,-15
835,41,-260,-60,-2,41,-15
840,41,-259,-64,0,42,-16
845,36,-258,-64,1,42,-16
850,37,-258,-65,-3,43,-17
855,39,-257,-62,-7,41,-17
860,36,-257,-65,-10,41,-17
865,40,-258,-65,-13,43,-16
870,39,-258,-64,-19,44,-14
875,38,-258,-64,-23,46,-13
880,37,-258,-66,-29,48,-12
885,37,-259,-65,-32,48,-11
890,34,-264,-63,-36,46,-11
895,37,-261,-64,-38,41,-8
900,38,-265,-65,-37,35,-7
905,35,-260,-66,-37,28,-4
910,35,-259,-64,-38,22,-2
915,37,-266,-65,-40,21,-2
920,36,-263,-62,-43,18,-2
925,33,-261,-66,-41,16,0
930,37,-263,-65,-37,13,0
935,38,-262,-64,-32,12,-2
940,35,-262,-65,-27,10,-2
945,38,-258,-68,-19,10,-3
950,37,-262,-62,-13,10,-5
955,39,-260,-63,-10,10,-5
960,38,-259,-62,-9,14,-7
965,36,-258,-61,-7,20,-8
970,35,-257,-62,-8,23,-10
975,38,-257,-63,-12,26,-10
980,40,-256,-63,-14,31,-11
985,41,-258,-63,-18,34,-13
990,40,-257,-64,-25,38,-13
995,39,-258,-61,-31,40,-14
1000,41,-255,-63,-37,41,-15
1005,41,-257,-66,-42,43,-15
1010,41,-257,-61,-44,45,-14
1015,41,-262,-60,-43,49,-13
1020,42,-260,-62,-42,51,-12
1025,40,-258,-61,-40,52,-11
1030,38,-258,-56,-38,52,-9
1035,44,-259,-62,-36,51,-9
1040,42,-258,-62,-35,49,-9
1045,39,-262,-65,-35,52,-9
1050,36,-260,-60,-38,54,-10
1055,34,-263,-60,-38,55,-11
1060,38,-261,-61,-38,53,-9
1065,33,-257,-66,-37,51,-8
1070,35,-259,-62,-36,47,-7
1075,37,-259,-63,-36,46,-8
1080,36,-261,-59,-36,49,-8
1085,32,-259,-65,-37,52,-10
1090,34,-264,-64,-41,56,-12
1095,38,-260,-64,-43,59,-13
1100,36,-258,-64,-46,60,-14
1105,38,-269,-60,-50,59,-14
1110,37,-262,-64,-53,58,-14
1115,35,-260,-62,-58,57,-13
1120,37,-261,-65,-61,56,-9
1125,36,-259,-63,-64,54,-9
1130,37,-262,-64,-65,52,-5
1135,34,-260,-64,-64,51,-1
1140,39,-261,-61,-62,46,0
1145,36,-259,-60,-57,44,3
1150,38,-262,-61,-50,40,4
1155,40,-261,-65,-43,37,6
1160,39,-258,-65,-40,35,4
1165,40,-260,-68,-37,32,5
1170,38,-259,-62,-38,30,5
1175,37,-261,-66,-37,28,3
1180,39,-258,-64,-38,28,2
1185,38,-259,-62,-39,26,0
1190,40,-258,-65,-41,26,-1
1195,42,-258,-61,-41,26,-2
1200,41,-260,-63,-40,27,-3
1205,39,-260,-63,-41,28,-4
1210,33,-262,-60,-40,28,-3
1215,37,-258,-72,-36,29,-3
1220,38,-261,-62,-36,30,-4
1225,37,-262,-62,-34,31,-3
1230,38,-260,-65,-34,29,-1
1235,35,-259,-62,-33,30,-2
1240,36,-259,-62,-34,28,-3
1245,36,-260,-64,-36,29,-2
1250,41,-260,-61,-35,30,-2
1255,39,-258,-62,-36,33,-3
1260,35,-259,-62,-37,34,-2
1265,43,-263,-65,-39,38,-3
1270,38,-260,-62,-39,42,-4
1275,39,-258,-62,-35,44,-6
1280,42,-263,-61,-34,45,-9
1285,42,-263,-61,-32,47,-9
1290,40,-261,-63,-29,47,-11
1295,42,-262,-60,-27,46,-12
1300,39,-263,-65,-26,44,-10
1305,36,-264,-62,-25,42,-8
1310,38,-259,-62,-26,41,-9
1315,40,-265,-63,-26,40,-8
1320,37,-260,-65,-25,41,-8
1325,33,-259,-65,-27,40,-6
1330,38,-262,-62,-27,36,-5
1335,38,-263,-62,-26,34,-3
1340,38,-263,-64,-27,32,-3
1345,38,-258,-63,-26,31,-3
1350,38,-261,-64,-29,32,-3
1355,38,-256,-60,-29,33,-4
1360,39,-259,-60,-30,33,-4
1365,36,-258,-62,-32,35,-5
1370,38,-260,-64,-32,35,-5
1375,38,-262,-61,-30,34,-7
1380,39,-256,-65,-32,34,-7
1385,39,-258,-61,-32,32,-7
1390,38,-259,-62,-32,31,-6
1395,32,-256,-64,-31,32,-6
1400,39,-259,-60,-31,35,-9
1405,40,-259,-60,-32,36,-8
1410,37,-261,-63,-31,35,-8
1415,40,-259,-59,-35,35,-9
1420,37,-258,-64,-35,35,-7
1425,39,-260,-59,-39,36,-7
1430,37,-260,-64,-42,36,-8
1435,35,-267,-61,-44,34,-9
1440,37,-259,-64,-47,33,-9
1445,38,-260,-63,-49,30,-10
1450,37,-260,-62,-52,28,-10
1455,39,-262,-64,-52,25,-9
1460,39,-261,-62,-49,25,-8
1465,41,-260,-57,-45,25,-9
1470,39,-262,-64,-40,27,-10
1475,39,-264,-63,-38,27,-10
1480,39,-265,-62,-33,28,-12
1485,28,-261,-61,-28,28,-13
1490,38,-260,-61,-26,27,-13
1495,36,-258,-63,-24,28,-13
1500,36,-256,-59,-24,29,-13
1505,36,-260,-61,-28,32,-11
1510,40,-257,-63,-34,32,-9
1515,34,-257,-62,-38,35,-8
1520,38,-258,-60,-45,36,-8
1525,39,-259,-63,-50,38,-7
1530,39,-259,-59,-52,39,-8
1535,38,-261,-63,-55,41,-9
1540,37,-260,-61,-54,42,-11
1545,37,-257,-63,-51,40,-13
1550,38,-260,-65,-51,40,-13
1555,38,-261,-64,-52,40,-13
1560,40,-259,-60,-54,42,-13
1565,40,-260,-63,-57,44,-12
1570,42,-260,-62,-60,45,-11
1575,36,-261,-61,-61,49,-12
1580,40,-262,-63,-59,52,-12
1585,39,-264,-61,-57,54,-16
1590,39,-259,-61,-53,55,-16
1595,38,-261,-64,-47,55,-18
1600,36,-262,-61,-44,52,-17
1605,37,-264,-61,-42,50,-17
1610,37,-262,-61,-40,47,-15
1615,39,-259,-64,-39,42,-11
1620,36,-260,-62,-37,37,-9
1625,38,-260,-63,-38,31,-9
1630,36,-261,-60,-40,28,-7
1635,39,-260,-65,-40,28,-4
1640,35,-262,-68,-38,26,-3
1645,37,-266,-65,-38,23,0
1650,32,-263,-62,-40,22,3
1655,37,-260,-64,-41,21,3
1660,36,-261,-63,-42,22,1
1665,37,-263,-64,-42,21,2
1670,36,-262,-62,-40,21,2
1675,37,-261,-60,-36,19,1
1680,35,-260,-62,-35,15,0
1685,34,-258,-60,-30,14,-2
1690,35,-261,-64,-27,12,-1
1695,39,-259,-65,-25,8,-4
1700,37,-262,-59,-28,6,-4
1705,37,-255,-64,-32,6,-6
1710,38,-259,-60,-36,7,-5
1715,35,-260,-59,-40,7,-6
1720,39,-259,-61,-43,7,-6
1725,39,-259,-60,-44,8,-4
1730,36,-257,-61,-46,8,-4
1735,37,-258,-60,-46,8,-4
1740,34,-256,-61,-48,8,-3
1745,33,-258,-62,-49,7,-3
1750,37,-261,-61,-51,6,-3
1755,38,-259,-64,-50,4,-3
1760,40,-262,-58,-49,3,-5
1765,32,-259,-64,-48,1,-5
1770,37,-261,-63,-46,-1,-7
1775,35,-258,-62,-43,-2,-8
1780,36,-261,-63,-40,-5,-9
1785,38,-259,-61,-38,-3,-9
1790,38,-258,-59,-36,0,-9
1795,37,-258,-63,-36,2,-10
1800,36,-259,-59,-39,3,-10
1805,36,-258,-57,-40,6,-10
1810,40,-260,-61,-46,10,-10
1815,42,-269,-63,-49,11,-9
1820,38,-255,-64,-51,12,-10
1825,40,-258,-62,-54,13,-9
1830,36,-262,-63,-55,12,-8
1835,40,-261,-61,-57,13,-7
1840,40,-258,-61,-58,14,-9
1845,41,-259,-62,-57,13,-8
1850,34,-259,-63,-55,12,-7
1855,37,-258,-62,-53,11,-7
1860,39,-262,-61,-53,9,-8
1865,33,-260,-63,-53,9,-9
1870,36,-259,-66,-52,6,-9
1875,38,-259,-62,-52,4,-10
1880,38,-260,-63,-52,3,-10
1885,35,-260,-63,-52,1,-11
1890,37,-259,-60,-53,-2,-10
1895,37,-262,-64,-54,-4,-10
1900,35,-260,-61,-55,-5,-10
1905,35,-261,-61,-58,-6,-11
1910,38,-260,-62,-56,-7,-11
1915,39,-261,-62,-53,-8,-9
1920,40,-259,-63,-53,-7,-10
1925,39,-262,-60,-54,-8,-9
1930,39,-261,-63,-53,-9,-8
1935,41,-260,-60,-51,-7,-7
1940,39,-261,-63,-48,-7,-6
1945,38,-261,-63,-46,-5,-6
1950,38,-261,-63,-46,-3,-6
1955,37,-261,-63,-47,0,-8
1960,41,-262,-62,-44,3,-7
1965,42,-264,-64,-46,4,-7
1970,39,-258,-62,-46,5,-8
1975,46,-259,-64,-48,7,-8
1980,40,-260,-62,-48,6,-8
1985,41,-261,-64,-48,8,-8
1990,40,-261,-63,-48,9,-7
1995,42,-261,-61,-51,10,-9
2000,38,-260,-67,-54,9,-7
2005,36,-258,-64,-55,10,-5
2010,40,-263,-63,-57,9,-5
2015,37,-260,-64,-57,9,-5
2020,35,-258,-62,-57,9,-4
2025,38,-259,-63,-55,9,-5
2030,37,-265,-68,-54,9,-6
2035,35,-261,-64,-52,9,-6
2040,36,-257,-62,-52,8,-5
2045,36,-259,-59,-51,8,-6
2050,36,-262,-61,-54,6,-4
2055,35,-258,-63,-56,6,-5
2060,35,-260,-62,-58,7,-6
2065,40,-262,-62,-60,6,-6
2070,39,-257,-61,-58,6,-7
2075,35,-259,-62,-59,6,-9
2080,35,-262,-62,-57,3,-9
2085,35,-261,-66,-57,3,-9
2090,37,-258,-63,-54,2,-10
2095,37,-259,-62,-53,1,-9
2100,40,-262,-62,-52,-2,-9
2105,38,-263,-62,-51,-2,-9
2110,37,-263,-60,-49,-3,-8
2115,38,-260,-61,-46,-5,-9
2120,40,-263,-63,-42,-7,-8
2125,40,-260,-62,-41,-9,-8
2130,37,-260,-64,-39,-10,-7
2135,37,-262,-62,-40,-13,-6
2140,40,-259,-60,-41,-13,-5
2145,35,-256,-61,-42,-14,-6
2150,37,-259,-59,-46,-11,-6
2155,38,-258,-63,-52,-11,-7
2160,40,-259,-63,-58,-10,-6
2165,39,-257,-63,-64,-7,-7
2170,37,-258,-63,-69,-7,-6
2175,39,-257,-62,-71,-6,-7
2180,39,-261,-61,-75,-5,-6
2185,37,-259,-60,-77,-2,-7
2190,37,-261,-63,-78,-2,-5
2195,36,-265,-56,-79,-1,-5
2200,38,-264,-63,-79,0,-5
2205,38,-260,-63,-74,1,-4
2210,36,-262,-61,-70,2,-5
2215,37,-263,-62,-67,2,-7
2220,34,-259,-62,-60,4,-7
2225,37,-259,-63,-59,2,-9
2230,38,-259,-63,-59,3,-10
2235,38,-260,-65,-58,3,-10
2240,35,-258,-66,-57,3,-11
2245,33,-259,-63,-60,1,-11
2250,34,-257,-63,-60,1,-12
2255,37,-261,-65,-59,-3,-12
2260,40,-262,-63,-61,-7,-12
2265,39,-262,-64,-63,-9,-11
2270,38,-259,-62,-62,-13,-10
2275,41,-260,-63,-63,-18,-9
2280,39,-261,-65,-63,-19,-7
2285,39,-261,-64,-62,-21,-6
2290,38,-261,-64,-60,-22,-5
2295,39,-262,-62,-58,-23,-3
2300,39,-262,-62,-54,-25,-3
2305,40,-271,-66,-49,-26,0
2310,40,-262,-62,-46,-26,0
2315,37,-257,-64,-41,-27,1
2320,39,-261,-63,-40,-26,3
2325,41,-261,-63,-39,-24,1
2330,38,-259,-64,-39,-23,0
2335,40,-256,-62,-43,-21,0
2340,39,-258,-64,-44,-20,-1
2345,39,-257,-65,-52,-20,-1
2350,37,-256,-65,-60,-19,-1
2355,42,-257,-65,-70,-18,-1
2360,38,-258,-64,-78,-18,-1
2365,37,-262,-58,-84,-18,0
2370,37,-257,-59,-89,-17,-1
2375,36,-259,-62,-93,-15,0
2380,38,-261,-62,-92,-14,-1
2385,37,-261,-60,-89,-11,-2
2390,36,-260,-64,-83,-9,-3
2395,36,-261,-59,-78,-7,-4
2400,34,-263,-61,-72,-5,-6
2405,37,-263,-63,-68,-4,-6
2410,33,-264,-57,-65,-1,-7
2415,37,-262,-64,-60,1,-8
2420,38,-261,-63,-56,4,-8
2425,34,-259,-68,-53,7,-10
2430,34,-261,-62,-51,8,-11
2435,34,-261,-64,-49,8,-13
2440,37,-261,-65,-49,7,-12
2445,36,-260,-68,-51,6,-12
2450,37,-261,-63,-52,5,-13
2455,37,-260,-62,-54,2,-11
2460,38,-259,-62,-50,-1,-11
2465,41,-258,-63,-49,-3,-11
2470,36,-259,-62,-47,-4,-11
2475,37,-258,-64,-42,-4,-11
2480,38,-257,-63,-40,-5,-10
2485,38,-261,-65,-40,-5,-10
2490,42,-261,-63,-38,-4,-10
2495,43,-262,-63,-39,-2,-7
2500,40,-260,-64,-39,-1,-9
2505,42,-259,-60,-42,0,-7
2510,41,-262,-62,-45,1,-6
2515,39,-261,-60,-48,2,-4
2520,35,-259,-69,-52,2,-3
2525,37,-260,-63,-54,1,-4
2530,32,-256,-61,-57,3,-4
2535,38,-257,-63,-59,4,-5
2540,35,-259,-64,-60,5,-6
2545,36,-258,-64,-58,6,-7
2550,37,-262,-64,-59,6,-7
2555,35,-261,-71,-61,4,-7
2560,37,-263,-67,-64,2,-6
2565,38,-259,-65,-62,-2,-9
2570,35,-260,-63,-62,-3,-10
2575,35,-262,-63,-63,-5,-11
2580,38,-261,-64,-62,-4,-11
2585,38,-260,-66,-62,-4,-11
2590,36,-260,-65,-62,-3,-12
2595,39,-260,-64,-59,-2,-12
2600,39,-262,-66,-56,0,-11
2605,39,-263,-64,-54,1,-10
2610,35,-259,-65,-51,4,-9
2615,37,-262,-69,-48,6,-8
2620,37,-262,-64,-43,7,-8
2625,40,-263,-64,-39,9,-7
2630,29,-262,-59,-36,11,-8
2635,39,-261,-63,-31,12,-6
2640,39,-260,-65,-26,12,-7
2645,38,-260,-64,-24,12,-8
2650,40,-260,-65,-20,10,-8
2655,39,-259,-62,-20,10,-8
2660,40,-259,-65,-20,9,-9
2665,36,-258,-64,-22,7,-9
2670,37,-258,-64,-22,5,-10
2675,35,-259,-68,-23,6,-11
2680,36,-257,-62,-23,6,-11
2685,35,-254,-64,-26,6,-12
2690,37,-257,-64,-29,8,-14
2695,35,-256,-64,-32,11,-13
2700,37,-257,-64,-39,13,-15
2705,36,-256,-65,-48,16,-13
2710,37,-258,-65,-57,17,-13
2715,39,-260,-64,-67,19,-11
2720,38,-259,-68,-75,21,-11
2725,38,-260,-64,-81,23,-9
2730,36,-260,-67,-85,23,-7
2735,36,-261,-65,-86,23,-4
2740,38,-263,-64,-82,20,-4
2745,37,-266,-64,-75,19,-3
2750,38,-264,-65,-72,15,-5
2755,35,-263,-65,-66,13,-6
2760,38,-263,-63,-59,12,-6
2765,39,-263,-63,-51,11,-8
2770,40,-262,-64,-47,11,-6
2775,42,-262,-60,-42,10,-7
2780,34,-261,-65,-40,10,-7
2785,39,-263,-63,-37,6,-9
2790,32,-259,-65,-36,7,-8
2795,39,-260,-63,-34,7,-6
2800,41,-262,-67,-36,7,-6
2805,37,-257,-65,-36,6,-5
2810,39,-258,-64,-33,8,-5
2815,37,-259,-63,-32,9,-4
2820,39,-260,-67,-29,11,-4
2825,39,-259,-65,-28,13,-6
2830,38,-259,-64,-27,15,-6
2835,38,-257,-66,-26,16,-6
2840,38,-259,-59,-25,15,-7
2845,38,-256,-70,-28,18,-9
2850,35,-256,-65,-30,19,-8
2855,42,-257,-65,-34,20,-9
2860,37,-257,-64,-39,21,-9
2865,41,-260,-63,-42,20,-9
2870,35,-256,-64,-47,18,-9
2875,37,-261,-64,-52,17,-9
2880,35,-259,-64,-57,14,-9
2885,39,-258,-62,-62,12,-9
2890,37,-259,-64,-65,10,-7
2895,38,-259,-68,-67,8,-6
2900,37,-257,-66,-69,10,-5
2905,35,-260,-66,-69,11,-4
2910,40,-263,-68,-70,13,-3
2915,37,-263,-64,-65,15,-3
2920,35,-259,-66,-63,17,-2
2925,40,-263,-64,-58,17,-2
2930,39,-262,-66,-52,19,-3
2935,40,-263,-65,-48,19,-4
2940,36,-264,-65,-46,18,-3
2945,37,-261,-64,-42,18,-4
2950,40,-264,-64,-38,19,-4
2955,41,-262,-61,-37,21,-5
2960,38,-261,-63,-35,23,-6
2965,39,-260,-63,-34,25,-8
2970,36,-258,-63,-34,27,-8
2975,37,-261,-62,-36,26,-9
2980,38,-258,-65,-39,26,-9
2985,39,-259,-64,-41,25,-9
2990,40,-258,-63,-43,22,-8
2995,38,-263,-67,-44,22,-9
3000,33,-257,-63,-47,20,-8
3005,40,-258,-64,-49,18,-7
3010,41,-259,-64,-51,16,-6
3015,40,-259,-65,-53,17,-7
3020,42,-260,-65,-54,17,-6
3025,40,-259,-67,-57,17,-6
3030,37,-257,-65,-55,19,-4
3035,42,-262,-63,-52,20,-4
3040,39,-260,-67,-50,21,-5
3045,38,-262,-64,-47,20,-3
3050,38,-261,-67,-44,21,-3
3055,36,-262,-64,-40,18,-2
3060,37,-262,-64,-37,18,-1
3065,32,-262,-58,-34,15,0
3070,37,-262,-66,-30,15,1
3075,37,-260,-68,-25,15,1
3080,37,-261,-67,-23,15,0
3085,36,-258,-63,-21,15,-2
3090,38,-259,-63,-19,14,-1
3095,33,-258,-65,-18,16,-5
3100,36,-257,-65,-16,14,-6
3105,38,-259,-66,-19,15,-7
3110,36,-260,-65,-23,16,-10
3115,35,-258,-64,-27,17,-11
3120,33,-257,-68,-34,17,-10
3125,37,-257,-65,-42,19,-11
3130,39,-257,-66,-48,20,-10
3135,40,-260,-65,-55,20,-11
3140,37,-260,-68,-58,22,-11
3145,38,-259,-65,-57,23,-10
3150,38,-260,-67,-55,23,-9
3155,40,-260,-68,-52,21,-11
3160,38,-260,-63,-48,23,-11
3165,37,-258,-67,-40,23,-9
3170,39,-256,-66,-35,24,-10
3175,39,-260,-67,-29,22,-9
3180,36,-258,-63,-26,20,-9
3185,36,-260,-64,-21,17,-9
3190,37,-262,-63,-20,12,-9
3195,37,-264,-66,-18,7,-9
3200,36,-259,-65,-18,3,-10
3205,35,-259,-64,-18,1,-9
3210,35,-261,-66,-17,0,-10
3215,36,-261,-65,-14,1,-11
3220,36,-257,-65,-12,5,-11
3225,32,-263,-58,-13,7,-10
3230,35,-258,-64,-12,8,-10
3235,38,-259,-66,-15,11,-13
3240,38,-260,-64,-18,13,-13
3245,38,-258,-64,-23,14,-12
3250,38,-260,-59,-30,15,-11
3255,40,-261,-66,-34,14,-8
3260,36,-262,-63,-38,14,-9
3265,38,-261,-64,-41,16,-10
3270,40,-264,-67,-42,14,-9
3275,39,-257,-63,-40,15,-6
3280,42,-267,-57,-36,16,-8
3285,39,-262,-64,-30,16,-9
3290,40,-260,-67,-25,16,-11
3295,40,-261,-65,-19,16,-11
3300,38,-258,-65,-13,17,-12
3305,40,-261,-65,-12,18,-14
3310,41,-259,-66,-11,19,-13
3315,38,-260,-66,-13,20,-12
3320,39,-259,-68,-16,22,-11
3325,38,-259,-66,-21,25,-10
3330,44,-263,-67,-26,26,-9
3335,41,-263,-69,-32,29,-6
3340,39,-262,-68,-40,33,-5
3345,38,-263,-72,-45,37,-6
3350,39,-262,-73,-49,41,-7
3355,41,-262,-77,-51,44,-7
3360,40,-262,-72,-53,45,-9
3365,40,-265,-77,-55,44,-10
3370,40,-262,-76,-60,42,-12
3375,39,-264,-80,-65,38,-13
3380,36,-260,-82,-72,34,-15
3385,37,-264,-81,-81,32,-16
3390,35,-262,-81,-87,28,-19
3395,39,-262,-82,-91,26,-20
3400,37,-259,-80,-94,25,-22
3405,36,-260,-79,-96,25,-25
3410,37,-258,-82,-97,24,-25
3415,37,-256,-84,-97,25,-26
3420,36,-255,-84,-98,23,-25
3425,33,-253,-84,-99,21,-24
3430,35,-250,-87,-101,18,-25
3435,31,-250,-85,-104,15,-23
3440,36,-247,-86,-107,10,-21
3445,31,-241,-90,-119,6,-20
3450,35,-242,-89,-130,3,-20
3455,35,-239,-91,-145,3,-19
3460,36,-234,-92,-164,2,-22
3465,37,-235,-92,-186,-1,-22
3470,38,-234,-90,-211,-3,-26
3475,39,-232,-93,-238,-5,-28
3480,39,-231,-97,-266,-9,-30
3485,37,-231,-93,-294,-13,-33
3490,38,-233,-94,-321,-17,-37
3495,36,-230,-92,-347,-22,-40
3500,38,-231,-93,-372,-27,-47
3505,39,-231,-95,-392,-31,-53
3510,41,-234,-95,-414,-32,-58
3515,41,-233,-97,-436,-30,-63
3520,36,-233,-97,-460,-26,-66
3525,37,-234,-102,-478,-18,-68
3530,38,-229,-102,-500,-11,-69
3535,38,-233,-112,-522,-1,-71
3540,37,-231,-115,-543,4,-74
3545,37,-230,-117,-567,11,-77
3550,39,-229,-118,-592,12,-77
3555,35,-226,-115,-616,12,-81
3560,41,-227,-114,-638,7,-89
3565,39,-225,-115,-661,3,-96
3570,40,-227,-115,-682,-1,-103
3575,38,-226,-117,-702,-3,-112
3580,37,-223,-121,-722,-1,-118
3585,37,-222,-123,-739,7,-126
3590,34,-219,-120,-756,17,-134
3595,38,-218,-125,-770,26,-142
3600,38,-216,-124,-778,33,-153
3605,39,-210,-118,-789,38,-162
3610,36,-208,-122,-803,39,-171
3615,35,-208,-123,-819,41,-179
3620,41,-204,-126,-842,42,-188
3625,37,-200,-128,-865,39,-194
3630,39,-197,-126,-890,34,-200
3635,42,-199,-127,-914,26,-208
3640,44,-196,-129,-936,17,-215
3645,41,-191,-129,-956,6,-220
3650,43,-193,-131,-978,-3,-227
3655,41,-187,-131,-1001,-16,-235
3660,39,-186,-134,-1027,-27,-239
3665,38,-181,-139,-1056,-37,-243
3670,41,-180,-141,-1089,-44,-248
3675,37,-180,-143,-1124,-50,-253
3680,38,-181,-138,-1156,-57,-253
3685,40,-177,-138,-1187,-69,-250
3690,38,-176,-133,-1220,-87,-244
3695,38,-181,-136,-1252,-107,-232
3700,41,-182,-136,-1282,-124,-218
3705,40,-181,-131,-1313,-138,-201
3710,40,-182,-130,-1342,-151,-186
3715,37,-188,-134,-1372,-164,-172
3720,39,-190,-131,-1396,-176,-155
3725,34,-190,-133,-1413,-186,-140
3730,36,-193,-136,-1423,-195,-125
3735,32,-193,-136,-1427,-199,-112
3740,27,-192,-138,-1427,-202,-103
3745,31,-194,-133,-1418,-206,-97
3750,30,-191,-131,-1406,-213,-95
3755,32,-193,-131,-1394,-222,-95
3760,34,-193,-128,-1386,-228,-96
3765,34,-195,-128,-1381,-232,-99
3770,40,-199,-126,-1379,-235,-99
3775,39,-198,-127,-1381,-239,-97
3780,36,-202,-128,-1385,-240,-92
3785,38,-206,-130,-1383,-238,-87
3790,39,-211,-135,-1378,-232,-81
3795,43,-215,-136,-1365,-225,-72
3800,47,-223,-134,-1349,-219,-66
3805,47,-227,-143,-1320,-210,-58
3810,53,-231,-137,-1284,-202,-54
3815,56,-232,-144,-1246,-196,-51
3820,58,-234,-142,-1201,-191,-49
3825,59,-236,-155,-1159,-190,-48
3830,64,-236,-152,-1111,-191,-50
3835,66,-234,-149,-1059,-195,-58
3840,68,-230,-154,-1005,-199,-68
3845,69,-225,-148,-955,-201,-74
3850,71,-221,-148,-913,-196,-79
3855,72,-219,-149,-883,-184,-79
3860,69,-214,-146,-866,-164,-72
3865,67,-207,-142,-860,-138,-60
3870,67,-201,-146,-866,-102,-45
3875,63,-199,-152,-884,-62,-27
3880,60,-198,-143,-910,-20,-11
3885,59,-199,-142,-942,22,4
3890,54,-198,-141,-978,61,16
3895,52,-201,-141,-1000,98,28
3900,48,-205,-139,-1019,131,36
3905,47,-211,-139,-1021,153,41
3910,43,-214,-141,-1007,170,41
3915,46,-217,-145,-978,177,39
3920,45,-220,-148,-939,180,33
3925,43,-219,-152,-892,175,24
3930,43,-220,-161,-838,161,13
3935,37,-222,-164,-786,141,3
3940,35,-222,-170,-742,115,-2
3945,34,-221,-172,-710,85,-7
3950,31,-225,-177,-689,50,-6
3955,33,-225,-180,-676,17,1
3960,37,-224,-178,-663,-12,8
3965,34,-221,-180,-647,-34,13
3970,34,-226,-180,-625,-50,17
3975,37,-221,-182,-597,-61,20
3980,34,-217,-189,-562,-67,23
3985,36,-217,-184,-520,-69,23
3990,31,-215,-189,-473,-66,26
3995,30,-210,-190,-427,-60,30
4000,30,-210,-189,-396,-50,36
4005,29,-207,-193,-376,-35,45
4010,29,-213,-194,-366,-15,57
4015,29,-211,-198,-360,8,72
4020,29,-215,-194,-357,35,85
4025,31,-219,-192,-346,57,96
4030,31,-222,-193,-329,74,107
4035,32,-233,-194,-304,87,112
4040,39,-231,-194,-267,95,116
4045,39,-239,-195,-218,96,115
4050,43,-239,-196,-163,90,109
4055,47,-242,-197,-102,79,102
4060,52,-244,-201,-42,60,95
4065,53,-247,-201,14,36,89
4070,55,-248,-205,59,12,82
4075,59,-251,-205,97,-8,75
4080,60,-254,-205,129,-24,68
4085,61,-249,-199,154,-33,63
4090,64,-242,-201,176,-32,60
4095,65,-251,-199,195,-22,60
4100,66,-250,-199,217,-2,62
4105,65,-252,-196,251,22,62
4110,65,-249,-198,293,45,64
4115,64,-249,-199,340,68,67
4120,64,-251,-201,391,96,67
4125,63,-248,-200,440,122,70
4130,65,-250,-201,484,146,71
4135,65,-242,-210,521,166,75
4140,63,-246,-215,548,182,79
4145,71,-244,-221,569,196,85
4150,64,-247,-226,582,207,91
4155,63,-248,-226,588,214,92
4160,63,-248,-228,587,213,88
4165,60,-249,-224,581,211,82
4170,57,-246,-227,579,208,76
4175,53,-248,-225,575,202,69
4180,49,-249,-224,569,192,60
4185,50,-247,-220,565,183,52
4190,47,-251,-220,560,177,50
4195,41,-249,-227,560,173,50
4200,47,-253,-219,568,177,53
4205,44,-256,-220,583,178,55
4210,44,-259,-216,603,183,58
4215,44,-260,-215,629,185,64
4220,42,-259,-211,658,181,69
4225,40,-260,-216,685,177,79
4230,45,-260,-214,709,172,88
4235,45,-259,-212,731,165,92
4240,51,-261,-212,750,157,95
4245,53,-261,-212,764,147,92
4250,54,-264,-211,771,135,82
4255,63,-265,-208,774,123,78
4260,59,-269,-208,771,107,66
4265,59,-273,-203,767,88,54
4270,58,-280,-199,765,74,43
4275,55,-282,-199,765,67,32
4280,62,-286,-197,769,68,27
4285,58,-290,-193,775,70,18
4290,51,-296,-193,787,66,8
4295,51,-298,-189,798,57,-2
4300,43,-300,-182,816,44,-14
4305,39,-305,-171,840,35,-15
4310,31,-306,-166,869,26,-12
4315,29,-310,-168,905,7,-12
4320,26,-312,-165,950,-19,-5
4325,23,-311,-164,1003,-53,2
4330,18,-304,-159,1056,-89,11
4335,23,-305,-158,1106,-123,22
4340,30,-297,-153,1151,-157,33
4345,30,-291,-149,1196,-185,39
4350,36,-291,-147,1227,-202,43
4355,38,-289,-143,1264,-214,47
4360,39,-291,-140,1297,-218,49
4365,34,-280,-141,1316,-217,54
4370,32,-273,-146,1328,-213,61
4375,35,-264,-142,1329,-210,66
4380,34,-263,-141,1320,-202,70
4385,36,-254,-144,1299,-195,74
4390,39,-255,-141,1271,-184,79
4395,38,-253,-143,1236,-171,81
4400,39,-252,-139,1197,-159,84
4405,42,-252,-134,1162,-146,87
4410,42,-254,-137,1128,-137,92
4415,40,-255,-129,1098,-132,99
4420,41,-255,-126,1078,-133,104
4425,38,-256,-126,1064,-138,107
4430,38,-257,-120,1058,-146,110
4435,37,-261,-125,1055,-155,111
4440,38,-257,-122,1052,-162,114
4445,35,-263,-120,1047,-170,117
4450,37,-267,-119,1041,-175,120
4455,32,-272,-118,1034,-176,126
4460,36,-276,-113,1026,-173,128
4465,36,-280,-114,1021,-165,130
4470,32,-281,-109,1019,-155,131
4475,34,-282,-104,1018,-142,131
4480,32,-283,-101,1015,-127,131
4485,31,-284,-103,1009,-115,129
4490,31,-283,-96,1004,-104,130
4495,33,-282,-92,995,-95,127
4500,29,-281,-92,981,-84,124
4505,33,-282,-85,965,-73,120
4510,33,-275,-84,948,-62,119
4515,37,-278,-87,932,-50,116
4520,38,-277,-75,917,-41,115
4525,36,-272,-68,904,-38,112
4530,36,-272,-73,893,-36,112
4535,34,-272,-73,879,-33,108
4540,34,-267,-70,865,-29,104
4545,37,-263,-68,851,-26,100
4550,37,-259,-64,833,-22,94
4555,35,-255,-68,812,-17,88
4560,38,-253,-63,791,-15,80
4565,44,-254,-63,767,-11,71
4570,38,-247,-61,747,-3,63
4575,35,-246,-68,728,1,54
4580,36,-245,-58,712,5,45
4585,38,-246,-55,694,8,35
4590,38,-242,-53,677,9,30
4595,37,-243,-53,660,8,26
4600,40,-242,-53,646,4,26
4605,40,-242,-51,629,-1,23
4610,40,-238,-47,612,-9,22
4615,39,-241,-50,593,-16,22
4620,42,-239,-45,577,-24,19
4625,40,-240,-45,562,-33,14
4630,41,-237,-38,550,-39,9
4635,45,-241,-42,537,-40,4
4640,42,-244,-42,525,-36,-2
4645,42,-243,-44,512,-29,-5
4650,45,-247,-40,500,-18,-10
4655,44,-251,-46,488,-6,-14
4660,41,-249,-41,476,4,-17
4665,42,-249,-41,462,15,-19
4670,41,-250,-44,451,25,-24
4675,39,-249,-43,439,36,-29
4680,41,-250,-39,429,45,-32
4685,39,-253,-42,419,54,-36
4690,42,-255,-40,408,62,-39
4695,39,-256,-40,396,74,-41
4700,37,-257,-39,381,84,-43
4705,37,-259,-35,366,92,-41
4710,35,-261,-36,353,100,-38
4715,36,-262,-37,344,108,-35
4720,38,-267,-36,339,112,-31
4725,35,-267,-34,335,117,-29
4730,40,-270,-38,335,120,-25
4735,36,-270,-32,339,124,-23
4740,38,-271,-34,348,127,-22
4745,37,-267,-36,357,130,-20
4750,37,-270,-34,364,132,-20
4755,34,-268,-38,369,131,-21
4760,35,-266,-35,376,125,-24
4765,32,-267,-37,378,116,-25
4770,31,-262,-36,376,106,-27
4775,28,-261,-40,370,96,-29
4780,26,-256,-32,360,89,-31
4785,29,-256,-36,350,81,-34
4790,33,-259,-37,338,73,-35
4795,30,-257,-38,325,63,-35
4800,34,-255,-37,313,53,-35
4805,32,-250,-37,297,43,-34
4810,32,-253,-36,280,32,-33
4815,34,-251,-36,265,20,-32
4820,34,-248,-36,249,8,-33
4825,37,-250,-37,232,-1,-31
4830,36,-249,-36,211,-13,-28
4835,36,-252,-32,189,-25,-25
4840,38,-252,-28,168,-37,-21
4845,36,-253,-31,148,-50,-19
4850,37,-251,-23,128,-64,-16
4855,37,-255,-29,111,-74,-13
4860,38,-257,-28,97,-79,-11
4865,39,-258,-26,84,-82,-8
4870,37,-258,-29,77,-83,-10
4875,37,-259,-29,71,-84,-11
4880,38,-259,-26,69,-85,-10
4885,37,-263,-25,71,-84,-12
4890,35,-267,-29,76,-85,-15
4895,35,-263,-29,82,-86,-17
4900,34,-267,-32,88,-86,-18
4905,33,-268,-28,98,-89,-18
4910,34,-266,-32,110,-92,-19
4915,36,-267,-31,122,-94,-20
4920,36,-269,-31,135,-97,-19
4925,34,-267,-28,146,-100,-20
4930,38,-265,-30,161,-103,-21
4935,36,-265,-33,174,-104,-22
4940,37,-264,-28,187,-104,-24
4945,38,-261,-32,195,-103,-24
4950,36,-261,-28,203,-106,-22
4955,34,-259,-30,206,-108,-22
4960,38,-257,-29,207,-113,-21
4965,36,-255,-27,207,-117,-20
4970,38,-253,-27,203,-119,-18
4975,37,-252,-29,196,-122,-19
4980,35,-251,-25,187,-124,-18
4985,32,-249,-22,173,-124,-16
4990,35,-253,-26,156,-123,-14
4995,34,-250,-24,140,-120,-13
5000,35,-248,-23,124,-119,-10
5005,31,-247,-24,111,-116,-9
5010,37,-247,-28,100,-115,-7
5015,34,-252,-24,91,-114,-2
5020,33,-254,-24,81,-113,1
5025,35,-253,-23,71,-114,4
5030,37,-255,-24,64,-114,7
5035,36,-255,-22,55,-115,9
5040,37,-255,-22,48,-118,8
5045,38,-257,-20,38,-121,7
5050,39,-255,-24,30,-123,5
5055,39,-257,-19,24,-124,0
5060,42,-259,-22,16,-122,-4
5065,45,-261,-24,12,-120,-9
5070,41,-262,-23,9,-117,-15
5075,42,-261,-29,11,-115,-21
5080,38,-260,-28,12,-110,-27
5085,40,-261,-29,19,-107,-32
5090,41,-263,-30,24,-103,-35
5095,43,-262,-33,30,-99,-38
5100,41,-261,-31,36,-94,-37
5105,44,-264,-35,44,-90,-35
5110,42,-262,-31,54,-83,-33
5115,46,-262,-33,61,-76,-29
5120,42,-262,-34,64,-71,-22
5125,44,-262,-35,62,-66,-15
5130,43,-260,-35,56,-63,-7
5135,39,-258,-37,50,-63,2
5140,40,-259,-39,42,-65,10
5145,39,-259,-29,31,-66,17
5150,40,-258,-32,19,-68,23
5155,38,-257,-31,9,-71,27
5160,39,-258,-29,0,-72,32
5165,41,-260,-30,-8,-76,33
5170,35,-258,-27,-11,-77,32
5175,37,-261,-19,-14,-77,30
5180,39,-256,-25,-17,-74,27
5185,37,-257,-22,-15,-68,23
5190,38,-258,-23,-13,-64,18
5195,40,-260,-23,-9,-58,14
5200,40,-258,-21,-6,-53,6
5205,41,-260,-21,-2,-47,0
5210,38,-261,-20,3,-43,-4
5215,40,-260,-21,5,-37,-9
5220,39,-258,-23,6,-29,-12
5225,42,-264,-27,4,-23,-16
5230,36,-257,-23,1,-19,-17
5235,39,-262,-28,-2,-16,-15
5240,40,-260,-29,-7,-15,-12
5245,37,-257,-24,-9,-16,-10
5250,40,-258,-26,-11,-15,-7
5255,40,-259,-26,-9,-14,-3
5260,37,-262,-27,-6,-13,-1
5265,37,-260,-25,-4,-13,1
5270,36,-260,-26,-1,-14,4
5275,36,-259,-25,1,-15,7
5280,35,-259,-26,4,-16,11
5285,33,-260,-27,4,-16,11
5290,32,-259,-25,3,-18,13
5295,32,-258,-22,0,-20,15
5300,32,-258,-17,0,-24,16
5305,35,-256,-24,-2,-30,16
5310,33,-257,-22,-4,-33,17
5315,39,-258,-18,-9,-35,15
5320,34,-256,-24,-13,-37,16
5325,39,-256,-21,-20,-39,16
5330,34,-256,-26,-26,-40,15
5335,37,-256,-21,-37,-40,13
5340,39,-259,-22,-40,-38,11
5345,38,-258,-27,-46,-35,9
5350,37,-256,-21,-49,-29,6
5355,37,-256,-21,-51,-24,3
5360,38,-256,-21,-55,-19,-2
5365,35,-257,-23,-56,-13,-4
5370,40,-257,-19,-58,-6,-7
5375,35,-255,-25,-64,2,-9
5380,33,-256,-24,-69,9,-9
5385,35,-259,-23,-74,14,-11
5390,35,-256,-18,-77,18,-8
5395,38,-264,-21,-80,21,-7
5400,36,-264,-22,-85,23,-4
5405,37,-263,-24,-84,23,-1
5410,41,-266,-24,-82,24,3
5415,37,-262,-23,-77,25,3
5420,38,-266,-24,-70,27,3
5425,36,-265,-22,-62,28,4
5430,38,-263,-21,-52,29,3
5435,37,-265,-24,-43,31,2
5440,37,-263,-21,-34,32,-1
5445,34,-270,-25,-24,33,-3
5450,35,-261,-26,-17,34,-7
5455,36,-265,-21,-9,35,-9
5460,38,-263,-23,-4,36,-13
5465,36,-262,-24,-1,38,-16
5470,35,-263,-23,0,41,-17
5475,37,-259,-25,0,43,-20
5480,37,-259,-23,0,44,-22
5485,35,-261,-26,0,44,-23
5490,36,-259,-25,-2,43,-24
5495,33,-256,-23,-5,39,-22
5500,37,-258,-28,-7,38,-20
5505,34,-259,-25,-11,36,-20
5510,35,-257,-27,-17,35,-17
5515,36,-255,-25,-22,33,-17
5520,34,-256,-27,-30,29,-16
5525,36,-256,-25,-39,27,-13
5530,38,-257,-24,-48,26,-12
5535,39,-260,-22,-55,25,-11
5540,37,-259,-25,-64,25,-9
5545,37,-257,-23,-73,24,-8
5550,37,-262,-26,-80,27,-7
5555,38,-262,-23,-85,30,-7
5560,38,-261,-21,-86,34,-7
5565,37,-259,-20,-84,39,-7
5570,37,-264,-23,-80,45,-9
5575,37,-261,-22,-74,49,-8
5580,38,-264,-18,-66,55,-11
5585,36,-262,-22,-57,61,-13
5590,35,-260,-21,-50,66,-15
5595,35,-260,-23,-41,71,-17
5600,35,-260,-23,-32,77,-19
5605,37,-258,-25,-25,84,-22
5610,38,-259,-25,-19,91,-27
5615,37,-258,-22,-13,98,-31
5620,37,-256,-22,-6,105,-34
5625,37,-258,-24,-2,110,-38
5630,37,-259,-23,4,118,-40
5635,39,-259,-25,6,123,-41
5640,36,-258,-23,9,128,-40
5645,39,-259,-22,10,131,-41
5650,35,-256,-30,11,131,-39
5655,36,-260,-26,4,124,-36
5660,31,-256,-28,-5,118,-32
5665,34,-258,-30,-19,108,-29
5670,34,-256,-32,-35,100,-26
5675,37,-260,-30,-52,95,-22
5680,39,-262,-32,-66,86,-19
5685,33,-265,-30,-79,76,-16
5690,37,-267,-27,-90,64,-15
5695,36,-270,-33,-95,55,-13
5700,37,-270,-28,-98,47,-12
5705,36,-271,-29,-93,43,-10
5710,39,-273,-33,-81,39,-10
5715,35,-273,-25,-67,39,-10
5720,38,-272,-25,-45,41,-10
5725,36,-269,-28,-26,42,-10
5730,35,-266,-29,-6,42,-11
5735,34,-264,-27,14,43,-14
5740,36,-264,-22,27,46,-14
5745,35,-260,-21,40,53,-17
5750,35,-261,-20,45,60,-18
5755,35,-260,-23,43,69,-20
5760,36,-257,-19,42,76,-22
5765,40,-249,-26,35,79,-24
5770,35,-256,-26,26,80,-27
5775,36,-257,-25,14,77,-27
5780,36,-257,-24,0,70,-28
5785,34,-256,-29,-10,65,-26
5790,36,-254,-19,-26,59,-23
5795,37,-258,-24,-39,54,-20
5800,37,-256,-23,-48,47,-17
5805,35,-257,-22,-56,43,-14
5810,38,-260,-20,-60,40,-11
5815,40,-262,-22,-60,37,-11
5820,40,-263,-20,-59,35,-9
5825,38,-258,-17,-58,33,-10
5830,39,-258,-19,-56,31,-9
5835,37,-262,-17,-56,29,-8
5840,38,-261,-22,-57,27,-7
5845,37,-262,-18,-55,25,-7
5850,37,-262,-21,-54,27,-7
5855,39,-265,-18,-55,27,-5
5860,34,-260,-25,-53,28,-4
5865,37,-262,-20,-54,29,-2
5870,40,-262,-23,-54,31,0
5875,39,-257,-26,-54,33,3
5880,36,-262,-23,-50,34,3
5885,34,-265,-24,-44,34,6
5890,38,-266,-24,-41,33,7
5895,35,-264,-19,-33,33,6
5900,36,-261,-23,-28,32,7
5905,34,-261,-29,-24,31,8
5910,35,-259,-24,-20,29,6
5915,33,-258,-21,-19,28,7
5920,31,-257,-22,-21,26,6
5925,32,-256,-20,-27,25,6
5930,31,-258,-24,-34,23,7
5935,37,-257,-21,-43,22,6
5940,31,-258,-20,-52,19,7
5945,33,-257,-18,-58,19,7
5950,35,-258,-19,-64,15,9
5955,32,-257,-15,-67,15,9
5960,34,-261,-21,-67,15,10
5965,32,-263,-17,-64,16,12
5970,37,-264,-25,-59,17,11
5975,38,-262,-22,-57,19,13
5980,33,-258,-26,-57,19,13
5985,49,-259,-28,-58,20,14
5990,38,-258,-28,-59,20,12
5995,41,-259,-28,-65,19,10
6000,39,-261,-28,-70,16,8
6005,42,-261,-31,-75,18,8
6010,42,-260,-31,-83,16,5
6015,37,-263,-26,-90,17,4
6020,43,-263,-27,-97,18,1
6025,40,-263,-28,-100,18,-1
6030,39,-265,-23,-98,20,-4
6035,40,-263,-28,-95,22,-7
6040,34,-264,-23,-87,23,-9
6045,37,-265,-22,-76,24,-11
6050,38,-264,-22,-64,22,-12
6055,36,-265,-28,-50,24,-14
6060,35,-264,-24,-36,24,-14
6065,38,-267,-24,-24,23,-14
6070,39,-265,-26,-13,23,-14
6075,34,-263,-29,-4,22,-13
6080,37,-262,-23,2,20,-13
6085,35,-262,-29,7,18,-13
6090,30,-266,-24,10,17,-11
6095,35,-260,-26,9,14,-8
6100,32,-256,-25,6,12,-6
6105,35,-256,-23,-1,10,-4
6110,35,-258,-27,-6,9,-3
6115,34,-256,-29,-12,9,-2
6120,35,-257,-24,-17,9,-1
6125,38,-256,-19,-23,11,2
6130,38,-256,-24,-29,14,2
6135,40,-255,-19,-32,17,1
6140,37,-257,-24,-37,20,3
6145,32,-261,-27,-41,21,4
6150,35,-257,-22,-44,20,3
6155,36,-258,-21,-47,20,2
6160,35,-260,-19,-46,21,0
6165,40,-262,-20,-46,20,-1
6170,34,-261,-24,-41,21,-5
6175,36,-264,-27,-36,22,-7
6180,37,-263,-19,-34,19,-8
6185,35,-265,-22,-30,17,-11
6190,38,-263,-20,-26,18,-13
6195,38,-264,-24,-20,16,-14
6200,37,-260,-23,-14,16,-14
6205,39,-265,-24,-13,16,-13
6210,35,-261,-23,-8,15,-13
6215,36,-260,-21,-8,16,-11
6220,37,-263,-20,-6,15,-11
6225,38,-261,-20,-4,18,-10
6230,38,-259,-22,-6,20,-11
6235,38,-263,-22,-4,24,-9
6240,38,-262,-20,-3,28,-9
6245,36,-259,-22,-2,32,-9
6250,38,-261,-22,-2,38,-8
6255,39,-261,-22,-3,42,-9
6260,37,-258,-17,-2,46,-9
6265,40,-257,-22,-6,50,-8
6270,37,-257,-22,-6,52,-9
6275,39,-257,-23,-9,56,-10
6280,37,-257,-19,-12,57,-13
6285,40,-258,-27,-16,56,-12
6290,36,-260,-23,-23,54,-12
6295,38,-260,-21,-29,51,-9
6300,39,-263,-19,-36,48,-8
6305,36,-259,-17,-39,45,-9
6310,40,-263,-16,-41,41,-8
6315,37,-259,-21,-40,37,-9
6320,35,-260,-18,-37,32,-10
6325,36,-260,-20,-36,29,-12
6330,34,-260,-22,-36,24,-12
6335,33,-260,-15,-37,21,-13
6340,33,-262,-20,-40,19,-12
6345,37,-259,-21,-41,17,-11
6350,31,-260,-19,-45,17,-9
6355,34,-259,-19,-47,16,-7
6360,32,-262,-18,-46,17,-5
6365,35,-260,-20,-44,18,-4
6370,34,-259,-22,-44,22,-3
6375,35,-259,-23,-41,24,-5
6380,34,-258,-21,-38,25,-4
6385,33,-258,-20,-39,26,-5
6390,33,-256,-25,-39,26,-6
6395,38,-259,-17,-42,27,-7
6400,38,-258,-22,-46,28,-9
6405,37,-256,-21,-51,31,-11
6410,35,-256,-20,-55,31,-13
6415,34,-260,-16,-60,30,-13
6420,39,-260,-22,-63,28,-14
6425,33,-260,-23,-65,27,-15
6430,35,-258,-20,-65,25,-15
6435,39,-258,-21,-65,23,-15
6440,36,-260,-21,-63,23,-15
6445,38,-260,-16,-61,23,-14
6450,36,-258,-23,-61,22,-14
6455,36,-260,-18,-57,23,-12
6460,37,-258,-22,-56,25,-10
6465,32,-260,-17,-54,24,-8
6470,36,-261,-22,-51,26,-9
6475,34,-261,-18,-53,26,-6
6480,37,-259,-22,-53,28,-5
6485,36,-262,-24,-54,28,-6
6490,36,-260,-21,-59,28,-7
6495,35,-257,-21,-62,27,-7
6500,36,-258,-22,-65,28,-8
6505,37,-259,-25,-64,28,-10
6510,35,-263,-17,-67,27,-13
6515,35,-259,-18,-69,26,-14
6520,35,-261,-29,-70,28,-15
6525,38,-260,-26,-70,30,-16
6530,38,-259,-19,-68,31,-15
6535,37,-258,-25,-64,32,-17
6540,37,-259,-22,-58,33,-18
6545,36,-259,-19,-52,33,-18
6550,37,-259,-22,-45,33,-18
6555,36,-259,-22,-38,32,-19
6560,37,-261,-22,-32,29,-16
6565,34,-262,-22,-32,28,-17
6570,39,-263,-23,-31,26,-15
6575,36,-260,-24,-33,22,-14
6580,35,-256,-24,-37,19,-11
6585,37,-263,-22,-41,17,-11
6590,34,-263,-26,-45,16,-12
6595,38,-261,-24,-47,14,-12
6600,35,-260,-23,-47,14,-10
6605,36,-263,-22,-46,16,-11
6610,36,-264,-24,-42,14,-12
6615,34,-266,-27,-40,13,-11
6620,32,-259,-23,-36,12,-11
6625,38,-263,-25,-31,8,-10
6630,37,-262,-19,-26,6,-10
6635,38,-263,-15,-22,6,-11
6640,39,-258,-27,-21,3,-10
6645,33,-258,-25,-21,1,-10
6650,40,-263,-22,-22,2,-10
6655,38,-261,-23,-24,4,-9
6660,38,-258,-26,-27,2,-10
6665,39,-261,-25,-30,3,-8
6670,37,-262,-20,-31,2,-8
6675,38,-260,-22,-35,3,-8
6680,36,-257,-25,-37,4,-8
6685,38,-264,-18,-37,3,-7
6690,40,-260,-20,-39,5,-8
6695,38,-263,-22,-38,5,-8
6700,37,-258,-23,-39,8,-7
6705,40,-260,-23,-38,9,-6
6710,35,-261,-22,-41,10,-6
6715,39,-261,-23,-42,10,-5
6720,39,-262,-25,-46,12,-4
6725,38,-258,-21,-51,13,-2
6730,37,-259,-23,-54,13,-1
6735,39,-262,-23,-58,16,-2
6740,38,-259,-27,-62,17,0
6745,37,-262,-22,-67,16,0
6750,37,-260,-22,-69,16,-1
6755,37,-265,-23,-70,16,-2
6760,35,-261,-21,-67,15,-5
6765,38,-259,-21,-65,15,-7
6770,36,-259,-21,-61,15,-11
6775,41,-260,-20,-57,13,-13
6780,38,-258,-18,-51,11,-16
6785,35,-258,-23,-49,12,-18
6790,39,-258,-20,-47,9,-20
6795,37,-261,-25,-49,6,-20
6800,36,-259,-24,-50,3,-19
6805,35,-261,-27,-53,-2,-16
6810,34,-260,-25,-56,-5,-13
6815,38,-263,-24,-56,-8,-12
6820,37,-265,-25,-54,-9,-11
6825,37,-261,-22,-51,-11,-10
6830,41,-260,-19,-45,-11,-9
6835,35,-261,-16,-40,-11,-10
6840,38,-262,-21,-33,-11,-10
6845,39,-260,-19,-31,-9,-11
6850,33,-260,-17,-29,-10,-11
6855,39,-262,-19,-29,-10,-11
6860,38,-263,-19,-30,-10,-11
6865,35,-260,-19,-27,-9,-11
6870,39,-263,-22,-27,-8,-11
6875,36,-258,-20,-27,-5,-11
6880,37,-258,-19,-26,-2,-10
6885,39,-259,-16,-24,0,-10
6890,38,-259,-23,-21,4,-10
6895,36,-259,-21,-20,8,-9
6900,37,-260,-21,-18,12,-7
6905,37,-259,-21,-19,19,-9
6910,38,-257,-22,-17,23,-10
6915,39,-257,-20,-20,27,-13
6920,39,-260,-21,-24,29,-13
6925,38,-257,-21,-27,30,-13
6930,38,-261,-19,-31,31,-13
6935,37,-260,-23,-33,29,-16
6940,35,-259,-23,-37,25,-17
6945,39,-260,-25,-37,23,-17
6950,35,-259,-23,-40,19,-17
6955,37,-261,-20,-42,15,-17
6960,37,-260,-21,-43,11,-18
6965,38,-261,-23,-43,9,-17
6970,36,-261,-22,-40,5,-17
6975,35,-259,-19,-38,2,-17
6980,35,-262,-22,-36,2,-18
6985,38,-260,-23,-35,3,-17
6990,35,-259,-20,-36,5,-17
6995,38,-262,-21,-36,6,-17
7000,38,-259,-26,-39,7,-16
7005,39,-262,-23,-43,7,-13
7010,39,-260,-19,-46,7,-11
7015,33,-268,-24,-50,9,-10
7020,37,-266,-23,-51,7,-8
7025,38,-260,-20,-51,4,-7
7030,34,-261,-21,-48,3,-5
7035,38,-264,-20,-45,2,-5
7040,37,-257,-20,-43,0,-5
7045,34,-260,-26,-41,-2,-5
7050,39,-261,-20,-38,0,-3
7055,36,-261,-14,-36,1,-3
7060,39,-258,-25,-33,3,-4
7065,42,-260,-19,-32,5,-4
7070,36,-258,-20,-32,6,-5
7075,38,-262,-17,-30,6,-7
7080,38,-262,-21,-33,7,-9
7085,38,-257,-17,-33,6,-10
7090,39,-261,-18,-35,7,-11
7095,39,-260,-20,-38,7,-12
7100,36,-260,-18,-41,7,-13
7105,39,-264,-22,-39,7,-12
7110,38,-260,-23,-38,6,-13
7115,35,-263,-20,-37,7,-13
7120,32,-265,-14,-34,6,-13
7125,37,-260,-19,-33,6,-10
7130,37,-262,-20,-32,6,-9
7135,39,-262,-21,-31,6,-9
7140,37,-260,-16,-33,8,-8
7145,38,-257,-24,-36,9,-9
7150,36,-257,-23,-37,7,-9
7155,39,-260,-28,-39,7,-8
7160,39,-258,-23,-41,6,-8
7165,40,-259,-18,-42,7,-8
7170,41,-261,-25,-43,6,-10
7175,34,-261,-33,-45,6,-9
7180,40,-261,-22,-45,5,-8
7185,39,-260,-22,-46,3,-8
7190,39,-261,-20,-46,2,-6
7195,38,-260,-25,-47,-1,-6
7200,39,-261,-20,-47,0,-5
7205,37,-258,-19,-47,-3,-2
7210,36,-262,-16,-47,-3,-2
7215,39,-260,-18,-46,-6,-2
7220,42,-260,-18,-45,-7,-2
7225,41,-261,-14,-43,-8,-1
7230,40,-261,-17,-41,-9,-2
7235,40,-258,-19,-40,-8,-2
7240,43,-261,-22,-38,-6,-2
7245,39,-260,-19,-38,-4,-3
7250,38,-259,-24,-38,0,-4
7255,39,-261,-23,-39,3,-5
7260,39,-260,-21,-36,6,-6
7265,38,-261,-18,-36,8,-7
7270,39,-262,-20,-37,10,-8
7275,36,-260,-21,-36,13,-9
7280,37,-258,-17,-36,17,-9
7285,33,-251,-18,-34,23,-8
7290,36,-258,-17,-34,25,-10
7295,39,-259,-21,-31,28,-9
7300,41,-258,-23,-30,32,-9
7305,38,-259,-26,-28,33,-8
7310,35,-257,-21,-28,34,-9
7315,37,-259,-26,-27,33,-9
7320,37,-260,-19,-26,31,-9
7325,35,-262,-24,-25,29,-8
7330,38,-261,-21,-24,24,-7
7335,39,-265,-21,-23,20,-7
7340,35,-260,-22,-20,17,-6
7345,37,-261,-20,-16,13,-7
7350,40,-258,-21,-16,10,-7
7355,39,-257,-23,-16,6,-9
7360,40,-260,-21,-18,4,-10
7365,39,-259,-20,-23,3,-8
7370,38,-262,-21,-28,0,-7
7375,38,-260,-23,-34,-5,-7
7380,39,-261,-23,-43,-7,-5
7385,40,-261,-24,-50,-10,-4
7390,36,-261,-20,-59,-9,-3
7395,46,-261,-15,-64,-7,-3
7400,39,-262,-17,-66,-4,-4
7405,39,-257,-19,-65,2,-5
7410,39,-260,-16,-63,6,-7
7415,36,-259,-17,-59,11,-9
7420,40,-259,-20,-54,17,-9
7425,39,-259,-17,-50,23,-11
7430,38,-258,-18,-47,27,-11
7435,36,-258,-21,-45,31,-13
7440,37,-258,-21,-44,32,-13
7445,32,-259,-12,-43,31,-15
7450,38,-259,-20,-44,30,-15
7455,41,-260,-24,-46,27,-12
7460,37,-260,-22,-47,23,-12
7465,37,-259,-23,-50,18,-13
7470,35,-261,-21,-50,14,-11
7475,35,-262,-21,-49,11,-9
7480,37,-262,-21,-49,9,-8
7485,37,-261,-23,-45,7,-8
7490,35,-260,-21,-43,6,-6
7495,38,-259,-18,-38,6,-6
7500,42,-263,-24,-35,6,-4
7505,38,-263,-24,-33,6,-5
7510,36,-263,-21,-29,6,-5
7515,40,-260,-24,-28,7,-4
7520,39,-260,-21,-26,7,-3
7525,37,-258,-24,-26,7,-4
7530,38,-257,-23,-25,8,-6
7535,41,-262,-19,-26,8,-5
7540,37,-259,-24,-25,9,-7
7545,39,-258,-22,-24,11,-7
7550,36,-258,-24,-22,13,-7
7555,35,-259,-17,-21,15,-6
7560,38,-259,-16,-21,16,-6
7565,42,-262,-19,-19,18,-6
7570,41,-261,-16,-18,21,-5
7575,39,-261,-18,-16,24,-7
7580,39,-257,-17,-14,26,-7
7585,41,-260,-18,-16,27,-6
7590,39,-258,-19,-17,27,-6
7595,40,-257,-20,-20,26,-5
7600,34,-257,-16,-24,24,-5
7605,40,-259,-18,-30,22,-5
7610,40,-257,-23,-35,20,-4
7615,38,-261,-22,-43,19,-6
7620,36,-260,-16,-51,19,-6
7625,37,-260,-23,-57,20,-7
7630,39,-261,-20,-62,21,-7
7635,36,-264,-18,-66,21,-7
7640,35,-261,-24,-68,24,-9
7645,40,-261,-16,-68,22,-9
7650,37,-261,-22,-65,24,-8
7655,38,-263,-19,-60,23,-8
7660,37,-259,-16,-54,25,-8
7665,40,-262,-14,-48,25,-8
7670,39,-260,-21,-45,27,-8
7675,36,-261,-19,-40,26,-8
7680,39,-261,-20,-36,25,-8
7685,37,-259,-22,-35,25,-9
7690,37,-258,-18,-34,25,-8
7695,37,-259,-22,-33,25,-8
7700,38,-259,-21,-34,24,-8
7705,36,-261,-22,-33,24,-9
7710,37,-257,-25,-36,23,-9
7715,40,-264,-21,-36,25,-10
7720,34,-256,-29,-37,25,-9
7725,38,-262,-21,-38,27,-7
7730,37,-259,-19,-41,26,-5
7735,38,-261,-22,-42,26,-4
7740,38,-258,-20,-45,25,-2
7745,40,-263,-24,-47,23,-2
7750,37,-259,-20,-51,23,0
7755,38,-261,-23,-53,19,3
7760,40,-262,-21,-56,17,1
7765,41,-259,-21,-60,16,3
7770,40,-258,-18,-65,13,1
7775,35,-263,-24,-68,12,0
7780,38,-257,-22,-69,11,-1
7785,37,-260,-23,-70,13,-3
7790,38,-257,-24,-71,15,-3
7795,37,-258,-19,-72,19,-3
7800,39,-257,-21,-71,23,-4
7805,42,-258,-21,-72,28,-4
7810,39,-259,-24,-74,35,-3
7815,35,-258,-18,-80,43,0
7820,37,-259,-18,-82,48,2
7825,43,-264,-15,-87,54,4
7830,37,-260,-17,-90,57,7
7835,40,-263,-21,-88,60,9
7840,38,-260,-22,-86,60,14
7845,39,-264,-20,-81,59,18
7850,40,-266,-17,-71,56,17
7855,42,-265,-14,-61,52,20
7860,39,-264,-11,-50,47,20
7865,40,-259,-13,-38,42,19
7870,39,-260,-10,-26,37,18
7875,41,-262,-18,-15,33,16
7880,36,-260,-14,-6,28,13
7885,36,-258,-16,2,24,11
7890,35,-258,-14,4,19,10
7895,34,-256,-16,3,16,10
7900,30,-256,-15,-3,12,12
7905,31,-255,-13,-12,11,12
7910,30,-254,-16,-24,8,15
7915,31,-257,-12,-37,6,15
7920,28,-255,-21,-50,4,18
7925,28,-251,-14,-64,3,22
7930,28,-254,-16,-75,4,23
7935,27,-255,-15,-84,8,23
7940,28,-254,-10,-92,14,23
7945,27,-252,-17,-97,22,23
7950,30,-251,-16,-100,29,21
7955,32,-255,-17,-103,37,18
7960,31,-255,-20,-106,45,12
7965,37,-253,-20,-108,52,9
7970,37,-256,-20,-112,58,4
7975,41,-255,-20,-115,62,1
7980,38,-253,-17,-119,64,-3
7985,40,-255,-18,-125,67,-9
7990,51,-260,-18,-131,67,-12
7995,48,-257,-19,-140,68,-16
8000,48,-256,-20,-152,68,-22
8005,48,-256,-19,-167,68,-28
8010,45,-255,-21,-185,71,-31
8015,44,-257,-19,-202,73,-35
8020,47,-256,-19,-219,76,-38
8025,43,-260,-24,-239,80,-38
8030,47,-257,-23,-257,83,-40
8035,43,-256,-24,-274,88,-40
8040,41,-256,-25,-290,94,-39
8045,40,-258,-31,-306,101,-39
8050,39,-256,-22,-323,108,-39
8055,39,-254,-22,-340,113,-39
8060,38,-254,-25,-358,120,-39
8065,36,-255,-21,-375,126,-38
8070,37,-251,-21,-391,133,-39
8075,36,-255,-23,-403,140,-39
8080,38,-249,-16,-412,146,-40
8085,33,-251,-20,-415,151,-41
8090,37,-249,-20,-411,157,-43
8095,36,-249,-17,-407,162,-47
8100,39,-247,-16,-399,166,-51
8105,36,-250,-14,-391,168,-54
8110,40,-252,-14,-383,171,-59
8115,40,-248,-16,-375,173,-62
8120,39,-247,-16,-367,177,-68
8125,41,-247,-15,-361,180,-74
8130,41,-247,-17,-356,183,-81
8135,40,-247,-18,-359,186,-88
8140,46,-250,-18,-364,188,-95
8145,45,-249,-20,-374,188,-97
8150,43,-249,-20,-389,188,-100
8155,39,-243,-22,-406,182,-100
8160,45,-248,-22,-425,177,-99
8165,48,-248,-19,-448,172,-96
8170,46,-251,-24,-471,166,-93
8175,50,-251,-22,-491,161,-91
8180,51,-251,-23,-510,158,-90
8185,47,-253,-20,-525,156,-89
8190,44,-255,-21,-533,155,-90
8195,48,-257,-17,-537,155,-89
8200,52,-257,-15,-535,158,-91
8205,53,-253,-20,-529,160,-92
8210,49,-254,-16,-520,162,-94
8215,47,-253,-17,-512,165,-95
8220,45,-254,-24,-507,169,-98
8225,42,-253,-22,-505,173,-96
8230,45,-251,-20,-508,179,-92
8235,38,-251,-18,-515,175,-93
8240,36,-247,-19,-525,171,-89
8245,39,-246,-21,-539,164,-83
8250,38,-244,-16,-556,156,-80
8255,34,-244,-20,-573,148,-77
8260,36,-246,-21,-595,139,-73
8265,31,-243,-19,-620,131,-68
8270,28,-240,-22,-645,129,-60
8275,33,-239,-17,-673,122,-60
8280,31,-240,-21,-704,114,-64
8285,29,-243,-23,-737,106,-64
8290,35,-245,-22,-774,100,-60
8295,29,-247,-25,-808,92,-61
8300,34,-253,-24,-835,84,-59
8305,36,-256,-27,-857,74,-59
8310,32,-256,-31,-876,64,-59
8315,31,-262,-28,-888,54,-60
8320,37,-259,-31,-900,40,-66
8325,36,-260,-30,-908,22,-71
8330,37,-261,-34,-915,-1,-77
8335,35,-262,-31,-925,-17,-70
8340,36,-262,-37,-943,-33,-61
8345,36,-261,-38,-967,-50,-49
8350,36,-260,-38,-993,-70,-32
8355,35,-259,-42,-1021,-89,-14
8360,37,-257,-42,-1060,-108,5
8365,44,-257,-46,-1104,-128,22
8370,39,-255,-53,-1152,-150,34
8375,41,-248,-53,-1214,-177,45
8380,38,-244,-57,-1295,-209,58
8385,40,-242,-60,-1390,-244,67
8390,41,-244,-57,-1488,-280,76
8395,38,-242,-61,-1583,-315,83
8400,39,-240,-64,-1671,-351,85
8405,36,-242,-63,-1756,-391,81
8410,32,-240,-69,-1840,-432,75
8415,38,-242,-76,-1915,-472,66
8420,35,-240,-87,-1981,-507,53
8425,36,-246,-105,-2043,-539,40
8430,36,-251,-110,-2103,-560,28
8435,35,-251,-116,-2163,-566,17
8440,37,-256,-131,-2222,-557,12
8445,32,-261,-144,-2282,-532,16
8450,35,-273,-160,-2337,-496,21
8455,37,-285,-164,-2378,-454,30
8460,38,-296,-177,-2401,-408,37
8465,44,-311,-187,-2415,-353,47
8470,45,-325,-197,-2412,-289,59
8475,52,-334,-207,-2393,-219,73
8480,53,-348,-209,-2357,-150,92
8485,53,-354,-217,-2305,-86,108
8490,55,-356,-232,-2233,-33,122
8495,58,-364,-235,-2150,12,138
8500,56,-366,-243,-2053,49,157
8505,53,-367,-247,-1945,88,173
8510,53,-367,-249,-1823,122,188
8515,51,-365,-245,-1685,151,195
8520,45,-369,-244,-1532,168,192
8525,50,-371,-235,-1363,172,182
8530,45,-363,-230,-1189,167,164
8535,47,-357,-223,-1017,156,139
8540,43,-351,-221,-858,137,109
8545,42,-342,-217,-718,113,80
8550,39,-331,-214,-600,90,52
8555,36,-320,-207,-505,69,27
8560,32,-305,-208,-437,46,4
8565,29,-292,-202,-395,26,-14
8570,26,-284,-195,-381,6,-22
8575,24,-273,-195,-387,-17,-29
8580,16,-266,-196,-406,-39,-28
8585,18,-259,-187,-439,-62,-23
8590,18,-254,-191,-485,-82,-13
8595,19,-247,-190,-533,-99,-4
8600,15,-247,-192,-584,-110,8
8605,16,-244,-189,-634,-114,22
8610,16,-245,-196,-679,-112,34
8615,15,-246,-192,-716,-110,43
8620,14,-248,-192,-748,-107,53
8625,11,-244,-191,-772,-107,62
8630,13,-251,-194,-791,-113,64
8635,14,-242,-188,-801,-119,65
8640,17,-252,-194,-803,-126,75
8645,18,-249,-193,-806,-132,85
8650,22,-254,-197,-805,-134,93
8655,20,-253,-198,-799,-136,101
8660,25,-255,-196,-790,-135,119
8665,33,-256,-196,-779,-137,134
8670,35,-256,-197,-763,-144,139
8675,33,-259,-202,-735,-157,144
8680,34,-257,-198,-706,-169,154
8685,34,-263,-200,-676,-181,165
8690,38,-265,-200,-646,-191,178
8695,41,-263,-199,-613,-199,186
8700,43,-269,-201,-567,-208,181
8705,37,-268,-199,-505,-217,173
8710,33,-273,-198,-436,-225,169
8715,33,-272,-196,-360,-233,165
8720,30,-272,-198,-279,-235,162
8725,33,-273,-196,-197,-235,157
8730,32,-271,-196,-108,-235,139
8735,35,-271,-194,-16,-232,116
8740,34,-263,-192,72,-223,92
8745,28,-259,-198,151,-207,69
8750,30,-257,-192,220,-183,52
8755,36,-250,-194,278,-155,38
8760,31,-244,-192,327,-129,25
8765,33,-243,-189,369,-104,20
8770,33,-238,-188,410,-87,13
8775,31,-233,-189,445,-73,5
8780,30,-231,-190,472,-59,-1
8785,29,-231,-188,497,-47,-9
8790,31,-226,-183,517,-37,-12
8795,28,-224,-184,537,-32,-12
8800,29,-217,-183,554,-33,-8
8805,28,-219,-185,571,-40,-3
8810,28,-216,-184,584,-53,5
8815,28,-217,-185,593,-70,11
8820,24,-211,-184,597,-85,18
8825,25,-208,-185,597,-98,26
8830,25,-209,-180,595,-109,30
8835,25,-210,-184,590,-121,35
8840,22,-206,-181,589,-130,39
8845,23,-206,-186,588,-136,42
8850,24,-209,-178,590,-134,44
8855,19,-203,-177,594,-133,42
8860,21,-208,-178,598,-123,36
8865,20,-205,-183,600,-106,30
8870,19,-206,-181,608,-83,23
8875,17,-207,-179,616,-55,13
8880,19,-207,-180,634,-28,8
8885,18,-208,-181,653,-3,2
8890,19,-204,-178,676,18,-5
8895,18,-200,-179,699,36,-13
8900,23,-200,-179,718,53,-18
8905,24,-196,-177,735,70,-23
8910,28,-196,-168,747,86,-30
8915,25,-195,-174,754,98,-34
8920,28,-195,-175,756,104,-41
8925,32,-193,-175,753,106,-45
8930,31,-192,-175,746,104,-50
8935,32,-194,-174,738,100,-50
8940,33,-193,-174,732,94,-51
8945,32,-194,-171,726,87,-49
8950,32,-195,-163,725,81,-44
8955,30,-193,-165,728,78,-39
8960,27,-195,-160,736,77,-36
8965,24,-194,-157,748,78,-31
8970,25,-195,-153,761,80,-27
8975,21,-196,-156,775,84,-26
8980,22,-197,-151,790,85,-25
8985,19,-196,-154,804,85,-26
8990,17,-194,-150,813,84,-28
8995,15,-195,-152,816,84,-29
9000,14,-196,-151,821,78,-28
9005,13,-192,-155,822,72,-28
9010,14,-191,-150,820,60,-26
9015,18,-194,-152,813,48,-26
9020,13,-188,-151,807,39,-26
9025,10,-188,-146,801,38,-30
9030,12,-188,-143,796,41,-33
9035,8,-185,-146,789,46,-34
9040,12,-186,-144,780,51,-34
9045,11,-185,-145,772,57,-33
9050,12,-187,-144,762,60,-29
9055,11,-185,-143,751,63,-25
9060,13,-189,-142,740,65,-21
9065,16,-185,-137,731,65,-20
9070,20,-191,-137,725,65,-17
9075,22,-191,-132,725,62,-15
9080,22,-191,-132,728,63,-14
9085,22,-190,-133,728,63,-14
9090,25,-190,-134,731,61,-12
9095,25,-191,-133,729,59,-12
9100,29,-190,-134,724,54,-11
9105,30,-187,-138,715,49,-13
9110,29,-189,-132,707,46,-15
9115,30,-190,-128,699,41,-20
9120,24,-187,-134,689,39,-23
9125,24,-190,-133,679,40,-27
9130,28,-188,-126,667,42,-29
9135,27,-191,-130,656,52,-32
9140,28,-193,-128,641,60,-38
9145,25,-194,-128,627,72,-41
9150,27,-197,-127,612,82,-45
9155,25,-196,-125,598,93,-47
9160,25,-197,-125,586,103,-49
9165,28,-201,-126,574,115,-50
9170,25,-202,-129,562,126,-50
9175,25,-202,-126,551,136,-48
9180,22,-207,-131,539,141,-46
9185,28,-208,-127,529,142,-43
9190,25,-203,-127,524,139,-39
9195,24,-207,-124,514,136,-40
9200,24,-205,-125,506,135,-38
9205,24,-206,-120,496,136,-35
9210,26,-211,-126,479,139,-31
9215,24,-207,-121,460,144,-26
9220,24,-210,-122,440,147,-22
9225,23,-213,-116,419,150,-20
9230,22,-215,-115,401,149,-19
9235,26,-221,-116,382,149,-19
9240,21,-216,-119,365,149,-18
9245,15,-220,-115,351,149,-18
9250,16,-223,-116,336,149,-16
9255,16,-228,-117,323,144,-14
9260,14,-229,-116,310,136,-11
9265,16,-234,-112,301,126,-9
9270,15,-236,-119,295,113,-7
9275,16,-238,-115,289,98,-8
9280,17,-237,-119,288,81,-8
9285,17,-239,-119,287,65,-9
9290,20,-239,-114,287,49,-9
9295,20,-242,-115,286,33,-10
9300,18,-243,-118,283,19,-12
9305,19,-241,-118,278,7,-14
9310,23,-242,-113,272,-8,-15
9315,22,-240,-116,265,-21,-17
9320,22,-240,-112,255,-27,-16
9325,20,-237,-114,248,-29,-15
9330,23,-242,-115,244,-29,-15
9335,22,-239,-117,241,-26,-16
9340,24,-239,-114,237,-21,-15
9345,30,-240,-108,233,-14,-14
9350,30,-239,-107,230,-9,-13
9355,32,-238,-107,228,-5,-12
9360,30,-240,-107,227,-2,-10
9365,32,-240,-102,224,-1,-9
9370,31,-240,-103,220,-1,-8
9375,32,-238,-102,217,0,-5
9380,34,-241,-98,213,1,-5
9385,37,-242,-97,205,2,-2
9390,39,-241,-98,195,2,1
9395,39,-247,-100,188,4,5
9400,35,-241,-97,179,3,8
9405,36,-247,-98,170,4,10
9410,35,-248,-94,160,5,11
9415,37,-251,-98,151,7,10
9420,37,-254,-93,142,8,11
9425,36,-253,-96,136,10,9
9430,33,-253,-92,130,11,11
9435,33,-255,-98,124,16,10
9440,36,-253,-92,118,21,8
9445,37,-258,-95,113,28,9
9450,37,-255,-91,109,36,9
9455,30,-255,-90,104,46,12
9460,30,-255,-96,95,53,13
9465,30,-255,-93,87,58,14
9470,29,-256,-93,72,62,18
9475,24,-255,-96,60,64,21
9480,27,-255,-94,44,65,22
9485,27,-257,-91,28,64,29
9490,27,-259,-88,14,61,34
9495,25,-258,-93,5,60,39
9500,25,-255,-94,-1,57,44
9505,24,-255,-88,-5,57,49
9510,22,-254,-88,-7,56,52
9515,23,-256,-96,-6,54,56
9520,20,-256,-91,-3,57,58
9525,22,-255,-93,3,60,60
9530,23,-256,-95,6,67,60
9535,23,-255,-94,8,72,61
9540,22,-255,-93,7,76,63
9545,28,-254,-94,5,79,63
9550,26,-253,-98,2,82,64
9555,25,-255,-98,-4,84,61
9560,36,-252,-89,-8,85,61
9565,27,-256,-100,-17,86,63
9570,26,-255,-97,-25,85,65
9575,29,-256,-97,-33,86,62
9580,28,-257,-95,-41,83,62
9585,31,-257,-95,-51,81,61
9590,29,-257,-94,-59,81,59
9595,30,-258,-90,-66,81,56
9600,30,-260,-91,-66,86,53
9605,28,-258,-88,-64,94,49
9610,28,-258,-87,-60,101,44
9615,24,-260,-89,-53,108,43
9620,25,-257,-86,-49,113,43
9625,23,-258,-88,-49,117,41
9630,21,-257,-89,-49,115,40
9635,19,-258,-86,-49,114,37
9640,16,-257,-83,-50,111,33
9645,19,-259,-83,-50,106,29
9650,14,-257,-84,-48,103,26
9655,14,-257,-87,-48,102,24
9660,15,-256,-85,-46,99,23
9665,15,-258,-83,-45,97,21
9670,15,-257,-85,-41,94,24
9675,15,-257,-87,-36,94,24
9680,15,-256,-86,-32,94,25
9685,16,-256,-87,-24,95,27
9690,13,-255,-83,-17,99,31
9695,14,-254,-83,-11,101,34
9700,21,-255,-83,-6,101,34
9705,21,-256,-85,-6,100,38
9710,20,-255,-83,-12,101,42
9715,17,-255,-81,-18,100,46
9720,20,-256,-82,-24,98,48
9725,18,-256,-77,-29,94,49
9730,20,-259,-86,-35,90,48
9735,18,-257,-95,-40,82,49
9740,19,-257,-92,-43,73,46
9745,21,-260,-90,-46,66,44
9750,23,-262,-95,-49,56,37
9755,23,-262,-92,-49,46,27
9760,22,-263,-91,-41,39,18
9765,21,-259,-94,-36,36,8
9770,20,-262,-92,-28,33,0
9775,18,-259,-93,-23,31,-7
9780,17,-257,-92,-15,31,-13
9785,22,-257,-94,-10,34,-16
9790,17,-254,-88,-5,35,-18
9795,19,-256,-90,-4,35,-24
9800,20,-254,-86,-4,35,-29
9805,19,-253,-87,-7,34,-34
9810,21,-255,-85,-9,33,-38
9815,18,-254,-87,-10,34,-41
9820,22,-254,-81,-10,37,-46
9825,26,-256,-83,-10,43,-52
9830,24,-254,-85,-11,51,-55
9835,19,-251,-85,-14,61,-57
9840,25,-257,-78,-18,70,-60
9845,22,-256,-78,-22,74,-59
9850,23,-256,-78,-29,75,-57
9855,18,-259,-82,-37,74,-54
9860,22,-260,-80,-40,68,-49
9865,23,-262,-85,-44,63,-46
9870,22,-263,-81,-44,58,-41
9875,22,-266,-79,-43,51,-36
9880,22,-265,-78,-41,46,-32
9885,23,-269,-77,-37,41,-30
9890,22,-266,-76,-33,39,-28
9895,24,-270,-80,-27,41,-25
9900,24,-266,-79,-23,42,-22
9905,21,-266,-78,-15,43,-19
9910,25,-268,-81,-6,43,-18
9915,25,-268,-81,7,43,-19
9920,24,-264,-79,25,44,-19
9925,27,-262,-81,41,45,-21
9930,30,-262,-81,54,48,-24
9935,30,-262,-77,66,49,-26
9940,25,-258,-83,72,51,-26
9945,26,-256,-79,70,52,-25
9950,26,-256,-82,69,52,-24
9955,23,-256,-84,59,55,-24
9960,24,-256,-86,46,56,-25
9965,22,-256,-82,32,55,-24
9970,24,-256,-86,18,54,-23
9975,24,-254,-83,5,52,-23
9980,21,-257,-79,0,48,-23
9985,21,-260,-83,-1,44,-21
9990,19,-257,-87,5,41,-22
9995,19,-267,-82,15,38,-23
10000,20,-260,-86,29,36,-25
10005,20,-262,-81,44,32,-29
10010,18,-259,-84,56,26,-29
10015,20,-260,-84,61,21,-28
10020,21,-259,-84,60,19,-25
10025,22,-259,-86,55,17,-22
10030,23,-258,-82,47,18,-17
10035,22,-258,-80,38,21,-14
10040,23,-257,-84,32,22,-11
10045,25,-258,-83,23,20,-11
10050,27,-262,-74,18,20,-11
10055,25,-258,-76,15,22,-14
10060,26,-261,-79,13,27,-17
10065,27,-256,-78,14,29,-21
10070,27,-257,-79,16,30,-25
10075,24,-258,-79,19,31,-28
10080,27,-259,-76,20,31,-30
10085,30,-258,-82,23,31,-32
10090,23,-257,-80,25,30,-32
10095,24,-258,-82,26,26,-31
10100,28,-259,-79,29,21,-33
10105,27,-251,-83,31,18,-32
10110,28,-257,-83,31,15,-33
10115,26,-256,-81,28,14,-32
10120,26,-258,-79,21,15,-29
10125,29,-260,-82,13,16,-26
10130,28,-258,-78,4,20,-25
10135,26,-260,-78,-7,21,-22
10140,28,-262,-74,-14,25,-21
10145,25,-262,-75,-18,28,-19
10150,26,-263,-74,-19,33,-18
10155,24,-263,-72,-14,38,-16
10160,29,-265,-76,-3,42,-15
10165,25,-263,-77,9,46,-14
10170,27,-263,-79,21,48,-14
10175,25,-260,-80,31,51,-14
10180,26,-263,-80,40,52,-12
10185,26,-261,-79,48,49,-11
10190,27,-263,-76,54,48,-8
10195,23,-262,-72,58,46,-6
10200,29,-260,-77,57,46,-3
10205,27,-261,-74,56,45,1
10210,28,-261,-72,55,47,4
10215,26,-260,-73,57,49,5
10220,28,-258,-73,56,52,6
10225,24,-258,-70,62,55,6
10230,27,-258,-75,65,59,6
10235,27,-257,-72,72,64,3
10240,24,-257,-67,79,68,4
10245,25,-258,-69,84,73,1
10250,26,-258,-68,86,75,1
10255,24,-259,-68,88,73,-1
10260,22,-257,-76,90,71,-2
10265,23,-253,-74,87,67,-4
10270,21,-255,-73,85,61,-5
10275,21,-257,-73,84,57,-7
10280,22,-252,-70,83,54,-11
10285,24,-254,-75,83,54,-13
10290,25,-252,-70,80,55,-13
10295,23,-253,-75,76,52,-11
10300,24,-250,-73,67,49,-9
10305,24,-254,-71,51,46,-3
10310,27,-255,-73,28,44,3
10315,26,-253,-78,1,42,11
10320,25,-254,-76,-26,40,17
10325,24,-256,-79,-55,39,26
10330,25,-259,-75,-81,37,35
10335,24,-259,-74,-97,34,38
10340,23,-261,-77,-110,30,42
10345,25,-263,-76,-114,23,44
10350,25,-264,-73,-111,14,45
10355,24,-270,-76,-103,8,46
10360,24,-268,-76,-90,3,42
10365,26,-265,-72,-72,1,39
10370,24,-266,-75,-54,0,34
10375,26,-267,-79,-39,-3,29
10380,23,-264,-78,-28,-6,25
10385,22,-259,-77,-17,-10,20
10390,22,-260,-76,-11,-13,18
10395,26,-261,-75,-8,-15,13
10400,24,-257,-75,-2,-15,10
10405,27,-257,-71,2,-14,8
10410,23,-259,-74,7,-13,8
10415,26,-259,-72,13,-12,7
10420,27,-262,-71,18,-11,9
10425,28,-254,-70,21,-11,11
10430,28,-257,-68,25,-13,13
10435,28,-257,-69,25,-13,13
10440,27,-259,-70,26,-14,15
10445,27,-257,-71,21,-18,18
10450,28,-256,-68,16,-19,21
10455,27,-256,-69,9,-22,22
10460,29,-259,-68,1,-25,24
10465,28,-256,-68,-8,-27,23
10470,28,-258,-69,-15,-25,24
10475,31,-256,-65,-22,-25,26
10480,26,-256,-70,-26,-24,28
10485,32,-265,-69,-33,-22,29
10490,26,-258,-73,-38,-20,28
10495,25,-256,-66,-39,-17,29
10500,28,-257,-65,-38,-16,31
10505,27,-258,-66,-41,-14,30
10510,24,-257,-72,-41,-11,31
10515,28,-257,-69,-42,-6,30
10520,26,-256,-69,-41,-3,29
10525,24,-255,-69,-44,-2,27
10530,28,-255,-68,-47,0,25
10535,26,-253,-73,-54,4,22
10540,24,-260,-61,-61,6,19
10545,26,-255,-68,-71,11,16
10550,28,-256,-70,-81,19,12
10555,26,-255,-68,-94,24,12
10560,27,-255,-68,-106,29,13
10565,26,-255,-67,-119,33,14
10570,25,-257,-69,-129,38,13
10575,27,-260,-68,-135,42,12
10580,27,-258,-69,-138,47,11
10585,27,-258,-71,-140,53,11
10590,31,-260,-70,-143,59,8
10595,31,-265,-74,-141,67,7
10600,27,-260,-70,-137,73,6
10605,27,-262,-69,-133,77,7
10610,27,-265,-71,-128,82,6
10615,23,-263,-71,-119,86,7
10620,24,-268,-72,-112,89,8
10625,25,-267,-75,-108,90,9
10630,28,-261,-70,-102,89,8
10635,23,-262,-72,-100,84,10
10640,24,-262,-72,-96,78,11
10645,27,-260,-71,-93,70,13
10650,22,-260,-74,-95,61,16
10655,22,-262,-72,-93,50,16
10660,20,-259,-72,-92,43,18
10665,20,-258,-76,-92,35,18
10670,19,-260,-79,-96,32,17
10675,18,-257,-75,-99,31,17
10680,20,-256,-76,-102,34,14
10685,25,-259,-73,-102,41,12
10690,22,-256,-74,-104,48,10
10695,24,-256,-75,-104,52,8
10700,23,-259,-74,-105,56,7
10705,22,-257,-76,-108,55,4
10710,24,-257,-75,-113,52,1
10715,25,-259,-73,-121,49,-1
10720,20,-261,-74,-129,47,-2
10725,24,-257,-73,-135,44,-5
10730,22,-259,-73,-141,44,-6
10735,19,-259,-76,-143,44,-6
10740,24,-262,-71,-142,44,-7
10745,22,-262,-74,-139,47,-5
10750,22,-267,-77,-134,50,-4
10755,29,-267,-70,-125,53,0
10760,21,-267,-80,-117,55,2
10765,21,-267,-76,-107,53,6
10770,20,-266,-76,-98,52,9
10775,24,-269,-77,-90,49,12
10780,23,-265,-79,-82,45,12
10785,23,-268,-81,-76,41,13
10790,21,-265,-78,-71,39,13
10795,22,-263,-79,-69,38,13
10800,20,-265,-75,-65,37,11
10805,22,-262,-68,-59,38,9
10810,24,-265,-77,-50,39,6
10815,21,-261,-76,-43,40,2
10820,25,-258,-73,-37,44,0
10825,24,-260,-75,-33,46,-2
10830,22,-255,-70,-30,49,-3
10835,25,-256,-72,-27,51,-2
10840,25,-256,-72,-26,53,-2
10845,26,-254,-78,-26,56,-2
10850,29,-257,-77,-28,62,0
10855,24,-253,-72,-32,66,-1
10860,31,-258,-75,-38,71,1
10865,26,-264,-69,-43,75,2
10870,29,-259,-75,-52,79,3
10875,29,-260,-77,-61,83,5
10880,27,-263,-75,-67,84,4
10885,24,-263,-75,-72,83,4
10890,22,-263,-76,-78,80,3
10895,23,-263,-76,-77,78,2
10900,23,-265,-78,-71,78,0
10905,19,-261,-73,-65,79,-3
10910,17,-258,-77,-53,77,-6
10915,11,-265,-73,-42,75,-7
10920,19,-262,-76,-29,71,-12
10925,18,-259,-71,-18,69,-12
10930,19,-256,-75,-8,69,-16
10935,21,-256,-70,-4,70,-18
10940,21,-258,-75,-2,71,-21
10945,21,-256,-75,-5,70,-22
10950,23,-255,-77,-10,70,-21
10955,19,-255,-76,-18,71,-22
10960,21,-257,-73,-28,72,-21
10965,23,-257,-77,-34,71,-19
10970,23,-259,-85,-42,73,-21
10975,21,-261,-74,-46,74,-22
10980,20,-260,-70,-49,74,-22
10985,21,-260,-75,-49,75,-21
10990,20,-259,-73,-50,74,-19
10995,22,-262,-74,-49,71,-18
11000,20,-257,-73,-48,70,-16
11005,22,-260,-72,-46,68,-15
11010,24,-262,-72,-43,66,-16
11015,19,-259,-71,-39,64,-17
11020,21,-260,-73,-36,62,-16
11025,23,-259,-74,-34,57,-17
11030,25,-261,-73,-34,52,-18
11035,24,-261,-75,-34,47,-19
11040,23,-260,-71,-36,43,-22
11045,21,-257,-74,-40,39,-23
11050,21,-257,-75,-42,37,-23
11055,22,-261,-74,-47,36,-22
11060,21,-260,-71,-51,33,-22
11065,20,-262,-74,-53,31,-19
11070,22,-263,-73,-52,30,-19
11075,17,-261,-69,-49,28,-20
11080,18,-262,-75,-44,25,-20
11085,19,-264,-73,-39,23,-20
11090,17,-262,-70,-31,19,-19
11095,19,-261,-76,-25,16,-19
11100,18,-262,-77,-19,13,-19
11105,19,-261,-76,-12,11,-19
11110,18,-261,-73,-10,11,-19
11115,23,-261,-73,-12,10,-17
11120,21,-261,-76,-14,7,-14
11125,20,-258,-76,-15,4,-11
11130,17,-260,-72,-19,1,-9
11135,21,-261,-74,-23,-2,-6
11140,19,-256,-73,-29,-4,-5
11145,19,-255,-77,-33,-6,-3
11150,22,-256,-73,-37,-10,0
11155,20,-256,-74,-43,-11,3
11160,23,-255,-78,-48,-12,5
11165,23,-257,-76,-53,-14,5
11170,19,-258,-71,-60,-16,7
11175,21,-258,-77,-64,-14,6
11180,21,-258,-73,-67,-13,5
11185,23,-258,-75,-69,-12,3
11190,13,-262,-76,-67,-11,2
11195,22,-260,-80,-65,-11,0
11200,21,-258,-75,-61,-8,-1
11205,22,-261,-75,-61,-8,-3
11210,21,-259,-77,-59,-8,-3
11215,19,-260,-77,-58,-9,-6
11220,20,-260,-81,-54,-9,-8
11225,23,-261,-78,-49,-12,-9
11230,18,-260,-80,-44,-13,-12
11235,21,-262,-78,-37,-15,-13
11240,21,-262,-77,-30,-17,-14
11245,13,-258,-79,-23,-19,-13
11250,22,-260,-77,-16,-21,-13
11255,22,-261,-78,-10,-23,-15
11260,22,-260,-80,-4,-23,-16
11265,24,-259,-71,3,-22,-18
11270,22,-259,-78,5,-23,-20
11275,26,-259,-76,3,-21,-20
11280,26,-257,-79,-4,-20,-20
11285,24,-258,-78,-12,-18,-19
11290,28,-258,-76,-21,-19,-19
11295,26,-260,-76,-32,-18,-20
11300,24,-260,-76,-40,-18,-20
11305,25,-258,-71,-46,-16,-22
11310,24,-263,-73,-47,-14,-20
11315,25,-260,-71,-46,-9,-19
11320,27,-262,-71,-39,-4,-20
11325,24,-261,-72,-29,1,-19
11330,27,-262,-71,-21,5,-21
11335,20,-257,-71,-15,10,-20
11340,23,-260,-71,-10,12,-20
11345,24,-257,-71,-8,13,-20
11350,19,-258,-71,-8,10,-20
11355,25,-256,-75,-11,9,-21
11360,23,-256,-74,-17,7,-19
11365,23,-256,-74,-23,2,-20
11370,21,-256,-76,-31,-1,-18
11375,25,-258,-73,-36,-4,-17
11380,20,-257,-75,-39,-5,-14
11385,24,-261,-78,-42,-6,-14
11390,20,-256,-79,-43,-3,-13
11395,22,-258,-81,-41,1,-12
11400,22,-260,-80,-41,5,-11
11405,21,-256,-78,-40,12,-11
11410,22,-262,-71,-38,21,-11
11415,21,-263,-76,-36,26,-10
11420,23,-261,-77,-33,31,-8
11425,24,-261,-77,-30,31,-8
11430,25,-263,-74,-26,29,-8
11435,25,-265,-75,-25,26,-7
11440,22,-262,-75,-22,22,-8
11445,24,-264,-75,-21,18,-8
11450,24,-262,-73,-20,13,-7
11455,22,-260,-72,-19,10,-7
11460,16,-262,-78,-22,5,-7
11465,22,-259,-73,-26,-4,-7
11470,21,-259,-72,-27,-8,-6
11475,21,-257,-78,-30,-13,-6
11480,19,-256,-73,-33,-16,-9
11485,20,-257,-73,-31,-14,-8
11490,21,-257,-76,-33,-16,-8
11495,21,-256,-74,-37,-15,-9
11500,20,-261,-77,-40,-17,-9
11505,17,-256,-78,-44,-19,-10
11510,22,-258,-73,-48,-22,-8
11515,25,-256,-74,-51,-24,-9
11520,19,-257,-78,-55,-26,-9
11525,18,-257,-75,-62,-29,-8
11530,22,-260,-78,-67,-31,-5
11535,19,-259,-77,-70,-33,-4
11540,17,-260,-76,-72,-35,-4
11545,17,-259,-77,-74,-38,-4
11550,19,-260,-76,-72,-40,-1
11555,18,-262,-77,-70,-41,0
11560,19,-265,-76,-67,-42,0
11565,16,-263,-77,-61,-43,1
11570,20,-261,-86,-56,-44,3
11575,20,-261,-79,-48,-46,3
11580,24,-263,-74,-40,-46,2
11585,24,-261,-75,-34,-47,1
11590,24,-260,-75,-27,-46,-1
11595,23,-259,-78,-22,-44,-2
11600,23,-259,-75,-18,-42,-2
11605,26,-259,-71,-17,-40,-4
11610,24,-258,-73,-19,-38,-4
11615,27,-258,-71,-21,-39,-4
11620,25,-256,-77,-18,-37,-7
11625,28,-257,-74,-18,-36,-9
11630,25,-255,-75,-16,-36,-11
11635,26,-257,-72,-17,-35,-13
11640,26,-256,-75,-20,-33,-14
11645,25,-257,-75,-23,-33,-13
11650,26,-255,-78,-29,-34,-12
11655,26,-256,-73,-34,-32,-9
11660,24,-255,-80,-37,-31,-8
11665,23,-254,-77,-40,-29,-8
11670,24,-258,-74,-45,-27,-5
11675,25,-258,-77,-48,-29,-3
11680,25,-262,-74,-51,-29,-3
11685,24,-260,-78,-56,-30,-2
11690,23,-259,-74,-58,-30,-2
11695,23,-261,-75,-62,-29,-1
11700,21,-258,-76,-63,-26,-1
11705,21,-261,-77,-65,-23,1
11710,23,-262,-78,-66,-22,0
11715,23,-257,-73,-65,-22,0
11720,21,-260,-71,-64,-20,-1
11725,22,-261,-74,-59,-16,-3
11730,21,-266,-72,-56,-16,-5
11735,20,-258,-71,-55,-15,-7
11740,18,-260,-71,-54,-16,-8
11745,20,-257,-75,-53,-18,-9
11750,20,-256,-74,-50,-16,-10
11755,22,-258,-73,-50,-18,-11
11760,21,-259,-75,-50,-21,-12
11765,21,-259,-75,-49,-24,-11
11770,21,-261,-73,-49,-26,-11
11775,20,-256,-73,-49,-29,-11
11780,24,-259,-70,-53,-33,-10
11785,22,-257,-67,-54,-37,-10
11790,24,-258,-73,-57,-39,-9
11795,22,-257,-74,-60,-39,-6
11800,19,-256,-70,-61,-42,-6
11805,19,-257,-74,-61,-44,-6
11810,20,-257,-70,-58,-46,-6
11815,22,-259,-71,-55,-48,-4
11820,18,-259,-70,-53,-52,-6
11825,21,-257,-75,-52,-55,-5
11830,19,-256,-74,-49,-59,-5
11835,22,-258,-76,-51,-60,-5
11840,24,-259,-70,-52,-61,-6
11845,22,-257,-73,-57,-60,-5
11850,20,-255,-75,-62,-57,-7
11855,25,-258,-74,-66,-54,-6
11860,24,-258,-72,-70,-50,-6
11865,22,-256,-72,-75,-48,-6
11870,23,-256,-75,-81,-47,-7
11875,21,-258,-72,-86,-47,-7
11880,23,-260,-72,-89,-48,-7
11885,26,-261,-73,-92,-46,-8
11890,24,-261,-69,-96,-47,-6
11895,20,-263,-77,-97,-44,-5
11900,25,-263,-72,-95,-43,-5
11905,23,-266,-68,-90,-40,-4
11910,24,-262,-68,-85,-37,-2
11915,24,-261,-73,-79,-35,-2
11920,26,-262,-71,-71,-32,0
11925,23,-259,-73,-66,-29,2
11930,21,-258,-74,-63,-27,2
11935,23,-261,-70,-62,-25,4
11940,26,-259,-70,-59,-23,4
11945,21,-259,-73,-57,-21,5
11950,25,-261,-69,-57,-18,5
11955,22,-259,-77,-58,-17,7
11960,25,-260,-77,-60,-16,7
11965,23,-261,-72,-63,-15,6
11970,26,-262,-69,-66,-14,5
11975,23,-259,-71,-68,-11,3
11980,23,-263,-75,-66,-9,1
11985,26,-263,-73,-67,-8,0
11990,29,-262,-71,-65,-5,-1
11995,26,-260,-74,-63,-4,-2
