timestamp,acc_x,acc_y,acc_z,gyro_x,gyro_y,gyro_z
0,-14,-250,-57,-41,74,-2
5,-17,-251,-55,-40,74,-1
10,-14,-252,-58,-36,75,1
15,-15,-251,-60,-32,75,1
20,-14,-246,-56,-29,74,0
25,-17,-250,-57,-29,73,2
30,-17,-250,-59,-27,71,1
35,-15,-250,-56,-28,68,1
40,-17,-249,-59,-30,68,-1
45,-18,-251,-58,-30,66,-1
50,-19,-250,-62,-31,65,1
55,-17,-250,-60,-29,66,0
60,-14,-252,-59,-31,66,0
65,-19,-250,-57,-30,66,-1
70,-16,-249,-62,-33,67,-3
75,-14,-246,-55,-34,69,-3
80,-17,-249,-59,-33,69,-4
85,-16,-252,-62,-32,69,-3
90,-16,-249,-64,-33,70,-2
95,-17,-251,-57,-30,72,-1
100,-15,-249,-58,-27,72,-3
105,-16,-250,-59,-23,71,-2
110,-17,-250,-59,-20,72,-3
115,-17,-249,-60,-19,72,-1
120,-16,-249,-65,-19,72,-1
125,-19,-249,-59,-21,71,0
130,-16,-250,-62,-22,70,1
135,-16,-247,-57,-22,68,0
140,-16,-251,-58,-21,67,0
145,-16,-250,-57,-17,68,1
150,-18,-249,-56,-16,68,2
155,-16,-248,-58,-16,66,0
160,-19,-248,-60,-16,66,0
165,-15,-252,-57,-17,68,-2
170,-11,-252,-63,-19,66,-1
175,-17,-250,-59,-21,66,-2
180,-17,-260,-54,-24,67,-3
185,-17,-250,-60,-24,67,-3
190,-16,-251,-61,-23,66,-3
195,-13,-251,-60,-19,66,-3
200,-16,-254,-62,-14,67,-1
205,-16,-250,-62,-10,67,-2
210,-17,-252,-59,-7,67,0
215,-17,-248,-63,-5,68,-1
220,-17,-248,-54,-6,67,0
225,-17,-249,-57,-7,67,1
230,-18,-249,-61,-13,66,2
235,-15,-251,-59,-15,66,2
240,-16,-251,-57,-18,65,2
245,-17,-248,-59,-20,66,1
250,-17,-251,-60,-18,65,1
255,-14,-252,-56,-16,68,1
260,-16,-250,-55,-11,70,2
265,-16,-249,-58,-8,71,0
270,-17,-252,-57,-6,69,-2
275,-16,-250,-59,-6,69,-1
280,-16,-250,-58,-6,68,-2
285,-17,-252,-58,-4,67,-3
290,-13,-249,-57,-1,66,-3
295,-16,-246,-57,1,66,-2
300,-13,-251,-56,3,69,-1
305,-15,-250,-58,2,70,-1
310,-16,-248,-60,1,70,0
315,-18,-251,-59,1,73,1
320,-15,-249,-60,1,73,1
325,-15,-248,-56,-2,74,0
330,-15,-252,-61,-3,72,0
335,-17,-249,-58,-6,71,-1
340,-16,-251,-62,-8,70,-1
345,-16,-253,-60,-6,71,-1
350,-16,-253,-59,-7,71,-2
355,-16,-252,-59,-5,71,-2
360,-18,-251,-60,-4,72,-2
365,-15,-252,-59,-2,71,-3
370,-17,-248,-57,1,70,-4
375,-18,-247,-61,4,70,-5
380,-18,-249,-55,6,70,-5
385,-17,-247,-56,7,69,-5
390,-19,-247,-58,4,70,-5
395,-18,-248,-58,3,71,-5
400,-18,-250,-61,2,72,-4
405,-15,-251,-58,1,72,-5
410,-16,-248,-56,2,74,-5
415,-16,-251,-55,1,71,-5
420,-17,-252,-59,1,70,-3
425,-18,-249,-60,0,67,-3
430,-15,-248,-60,0,66,-3
435,-18,-248,-59,-1,66,-3
440,-17,-249,-58,-1,64,-3
445,-14,-249,-61,-2,65,-2
450,-14,-247,-59,-5,66,-4
455,-16,-249,-59,-8,67,-3
460,-15,-249,-59,-9,68,-2
465,-15,-249,-55,-11,69,-3
470,-17,-250,-57,-13,70,-3
475,-15,-250,-57,-13,68,-4
480,-17,-250,-55,-13,67,-4
485,-14,-250,-56,-12,66,-5
490,-18,-250,-61,-11,66,-5
495,-20,-251,-56,-10,64,-6
500,-16,-250,-57,-12,65,-5
505,-18,-253,-62,-12,66,-6
510,-16,-250,-58,-13,67,-7
515,-14,-253,-61,-15,68,-8
520,-15,-248,-59,-18,67,-6
525,-15,-252,-62,-17,67,-6
530,-15,-250,-57,-16,68,-5
535,-17,-254,-60,-14,71,-6
540,-17,-253,-60,-11,70,-6
545,-14,-252,-57,-5,73,-5
550,-17,-250,-54,-2,75,-5
555,-15,-249,-57,0,77,-5
560,-17,-249,-58,0,78,-5
565,-16,-250,-57,-2,79,-5
570,-19,-251,-57,-3,79,-5
575,-13,-252,-59,-3,79,-6
580,-16,-252,-63,-3,76,-6
585,-15,-250,-59,-3,74,-7
590,-17,-250,-57,-3,73,-7
595,-15,-249,-57,-3,70,-6
600,-15,-249,-58,-4,70,-6
605,-16,-250,-58,-4,71,-6
610,-18,-251,-55,-5,71,-5
615,-16,-250,-56,-6,72,-5
620,-24,-258,-49,-5,75,-2
625,-17,-249,-58,-4,76,-4
630,-17,-250,-56,-4,75,-3
635,-16,-248,-58,-4,73,-3
640,-19,-249,-56,-2,73,-3
645,-13,-252,-56,-3,71,-2
650,-16,-253,-51,-7,72,-2
655,-17,-250,-57,-7,72,-3
660,-18,-249,-56,-8,72,-2
665,-16,-252,-57,-5,72,-4
670,-18,-250,-59,-1,71,-2
675,-17,-250,-57,1,70,-3
680,-17,-251,-56,3,71,-3
685,-17,-248,-64,4,72,-3
690,-16,-250,-61,4,74,-4
695,-18,-248,-61,3,76,-3
700,-14,-250,-59,2,73,-4
705,-18,-249,-58,1,76,-2
710,-17,-252,-57,0,76,-3
715,-19,-249,-60,-1,76,-3
720,-16,-250,-60,-2,75,-3
725,-15,-248,-55,-4,75,-2
730,-16,-250,-54,-5,75,-1
735,-15,-251,-59,-10,72,-3
740,-17,-249,-58,-10,72,-3
745,-16,-253,-60,-11,70,-3
750,-17,-252,-58,-9,70,-4
755,-18,-250,-59,-6,69,-2
760,-16,-250,-62,-3,68,-2
765,-16,-248,-61,1,69,-3
770,-15,-250,-55,1,69,-3
775,-17,-250,-59,1,67,-3
780,-15,-250,-59,-2,66,-4
785,-13,-248,-59,-5,68,-4
790,-17,-251,-57,-9,68,-4
795,-16,-249,-62,-11,68,-3
800,-15,-250,-56,-12,69,-3
805,-18,-249,-59,-12,71,-2
810,-18,-251,-60,-13,74,-1
815,-19,-249,-57,-13,72,1
820,-15,-251,-59,-13,73,-2
825,-18,-250,-59,-11,73,0
830,-17,-249,-60,-10,72,-1
835,-19,-248,-59,-11,71,-2
840,-16,-249,-60,-11,71,-3
845,-17,-253,-58,-11,70,-1
850,-18,-248,-55,-12,69,-1
855,-14,-250,-59,-12,71,0
860,-17,-251,-57,-10,71,1
865,-16,-250,-61,-9,72,0
870,-14,-251,-62,-7,72,-1
875,-16,-250,-58,-4,73,-2
880,-14,-248,-60,-2,72,-2
885,-17,-249,-60,-2,73,-4
890,-19,-251,-59,-3,72,-4
895,-18,-249,-58,-4,70,-3
900,-18,-250,-53,-5,68,-4
905,-17,-251,-61,-7,67,-4
910,-18,-249,-59,-8,67,-4
915,-19,-251,-59,-6,66,-3
920,-20,-251,-64,-3,66,-3
925,-14,-253,-59,-1,65,-1
930,-17,-248,-57,-2,67,-1
935,-16,-252,-56,-3,66,0
940,-17,-248,-60,-4,65,0
945,-15,-254,-60,-6,63,2
950,-11,-255,-56,-6,63,2
955,-12,-252,-59,-6,64,1
960,-17,-249,-61,-6,64,-1
965,-17,-249,-56,-7,66,0
970,-16,-253,-61,-9,67,0
975,-17,-250,-58,-13,68,-1
980,-16,-250,-54,-14,69,-2
985,-17,-250,-54,-15,68,-1
990,-17,-249,-57,-14,67,-1
995,-13,-251,-56,-12,67,-2
1000,-17,-249,-56,-10,67,-2
1005,-16,-253,-59,-9,65,-3
1010,-15,-250,-55,-8,62,-2
1015,-17,-252,-59,-9,60,-4
1020,-17,-252,-58,-9,59,-4
1025,-18,-248,-58,-11,61,-3
1030,-16,-251,-56,-14,62,-1
1035,-16,-251,-55,-15,63,-1
1040,-18,-251,-60,-15,63,0
1045,-15,-251,-56,-13,63,1
1050,-16,-252,-57,-13,63,1
1055,-14,-251,-57,-13,65,1
1060,-16,-249,-57,-15,64,1
1065,-15,-250,-57,-15,64,1
1070,-18,-249,-58,-17,64,1
1075,-15,-250,-58,-17,64,2
1080,-14,-251,-57,-16,65,0
1085,-18,-251,-58,-13,64,-1
1090,-17,-250,-58,-10,63,-3
1095,-14,-250,-58,-7,62,0
1100,-16,-249,-60,-5,64,-2
1105,-17,-248,-58,-5,66,-3
1110,-16,-252,-64,-3,63,-3
1115,-15,-249,-60,-6,61,-1
1120,-15,-250,-59,-10,61,-1
1125,-17,-250,-63,-15,61,-2
1130,-13,-250,-62,-16,63,-2
1135,-17,-255,-64,-15,64,-2
1140,-15,-251,-61,-13,64,-1
1145,-18,-251,-59,-8,61,-1
1150,-18,-248,-57,-6,60,-3
1155,-20,-249,-58,-3,59,-3
1160,-16,-248,-59,-3,57,-2
1165,-17,-249,-57,-4,57,-3
1170,-17,-248,-58,-5,56,-3
1175,-15,-250,-57,-8,60,-1
1180,-19,-252,-55,-11,63,-1
1185,-16,-250,-56,-13,64,1
1190,-18,-248,-59,-14,65,0
1195,-17,-249,-58,-13,64,-1
1200,-20,-249,-57,-12,63,0
1205,-17,-249,-57,-10,63,1
1210,-17,-248,-61,-10,62,-1
1215,-15,-249,-57,-9,61,0
1220,-14,-253,-57,-10,61,-1
1225,-14,-251,-58,-12,61,-1
1230,-14,-251,-54,-14,61,-1
1235,-17,-251,-58,-13,62,-2
1240,-12,-254,-56,-12,62,0
1245,-19,-253,-58,-12,63,-2
1250,-16,-252,-57,-12,62,-3
1255,-18,-252,-56,-10,63,-6
1260,-15,-252,-56,-9,65,-5
1265,-17,-252,-59,-9,64,-4
1270,-14,-250,-63,-8,65,-5
1275,-26,-249,-71,-7,66,-6
1280,-16,-251,-57,-7,66,-6
1285,-16,-250,-61,-9,65,-6
1290,-14,-251,-57,-9,65,-3
1295,-16,-252,-59,-9,65,-4
1300,-16,-248,-61,-9,66,-3
1305,-18,-250,-59,-6,66,-3
1310,-17,-249,-62,-4,64,-1
1315,-18,-250,-60,-6,62,-1
1320,-18,-249,-60,-7,61,-1
1325,-15,-250,-63,-10,61,0
1330,-18,-251,-53,-14,63,0
1335,-17,-248,-58,-15,63,1
1340,-19,-249,-54,-16,64,0
1345,-17,-248,-60,-16,65,-3
1350,-18,-250,-57,-17,64,-2
1355,-16,-251,-59,-15,64,-2
1360,-19,-250,-58,-15,64,-3
1365,-16,-251,-60,-14,63,-3
1370,-15,-253,-55,-11,62,-4
1375,-17,-250,-60,-11,62,-2
1380,-17,-252,-58,-10,63,0
1385,-14,-248,-59,-11,64,-1
1390,-18,-248,-57,-9,66,0
1395,-16,-252,-62,-8,65,0
1400,-17,-252,-61,-7,65,-1
1405,-17,-251,-63,-5,64,-1
1410,-15,-249,-61,-4,64,0
1415,-16,-250,-58,-6,64,1
1420,-15,-250,-58,-6,65,1
1425,-25,-249,-56,-6,66,1
1430,-22,-248,-60,-8,66,0
1435,-11,-253,-58,-10,64,0
1440,-13,-247,-58,-12,63,-1
1445,-15,-249,-60,-13,64,0
1450,-19,-250,-57,-13,64,0
1455,-28,-246,-55,-12,66,0
1460,-22,-251,-53,-13,66,-1
1465,-19,-250,-56,-12,65,-2
1470,-8,-253,-59,-9,65,-3
1475,-13,-251,-61,-7,64,-3
1480,-14,-255,-59,-2,65,-4
1485,-18,-253,-57,-1,67,-5
1490,-25,-247,-56,1,67,-5
1495,-19,-247,-56,1,69,-5
1500,-17,-251,-59,1,69,-5
1505,-9,-254,-59,2,70,-4
1510,-9,-255,-59,1,70,-4
1515,-18,-248,-62,-1,70,-3
1520,-24,-253,-55,-1,69,-4
1525,-23,-249,-57,-1,69,-5
1530,-20,-248,-50,-1,68,-4
1535,-11,-253,-59,-3,69,-5
1540,-6,-255,-58,-2,69,-5
1545,-13,-250,-58,-5,69,-7
1550,-21,-247,-62,-7,71,-7
1555,-22,-248,-55,-10,72,-5
1560,-29,-247,-55,-11,73,-5
1565,-19,-251,-54,-10,73,-7
1570,-17,-254,-58,-6,72,-4
1575,-8,-255,-58,-2,72,-3
1580,-8,-256,-58,0,71,-4
1585,-11,-253,-59,2,71,-4
1590,-7,-252,-62,3,71,-3
1595,-12,-251,-55,2,73,-3
1600,-17,-249,-60,3,71,-3
1605,-21,-249,-58,1,71,-3
1610,-18,-251,-58,-2,72,-2
1615,-20,-249,-57,-5,70,-4
1620,-24,-248,-58,-7,68,-5
1625,-24,-247,-57,-8,68,-6
1630,-18,-250,-56,-5,68,-7
1635,-12,-251,-57,-3,68,-6
1640,-14,-253,-61,-1,70,-6
1645,-12,-253,-60,2,69,-6
1650,-12,-256,-59,4,69,-7
1655,-13,-253,-53,5,69,-5
1660,-22,-251,-55,6,67,-4
1665,-18,-251,-59,6,67,-5
1670,-21,-250,-57,5,66,-4
1675,-25,-249,-56,5,67,-3
1680,-24,-251,-57,3,66,-5
1685,-21,-250,-58,1,69,-4
1690,-18,-251,-56,1,71,-5
1695,-17,-251,-57,-1,72,-5
1700,-17,-253,-59,-2,74,-5
1705,-14,-250,-55,-2,75,-4
1710,-14,-254,-58,0,77,-4
1715,-15,-250,-56,0,78,-5
1720,-13,-252,-58,0,77,-5
1725,-11,-257,-54,0,77,-4
1730,-8,-249,-54,-1,76,-7
1735,-13,-252,-56,0,74,-6
1740,-6,-254,-55,-3,73,-7
1745,-8,-250,-56,-5,73,-8
1750,-11,-250,-59,-6,74,-7
1755,-9,-252,-56,-5,74,-6
1760,-7,-252,-55,-4,74,-6
1765,-7,-253,-57,-3,75,-6
1770,-7,-257,-58,-3,75,-6
1775,-9,-254,-55,-3,76,-7
1780,-17,-249,-57,-4,79,-5
1785,-8,-254,-56,-4,81,-5
1790,-12,-252,-57,-3,81,-6
1795,-10,-251,-56,-1,81,-6
1800,-8,-255,-57,2,80,-5
1805,-10,-253,-52,5,80,-5
1810,-7,-253,-59,7,82,-7
1815,-15,-251,-54,7,83,-6
1820,-12,-251,-56,6,83,-7
1825,-14,-250,-60,7,83,-7
1830,-13,-254,-58,4,83,-8
1835,-12,-252,-56,3,83,-6
1840,-13,-251,-55,3,84,-7
1845,-17,-253,-56,1,85,-7
1850,-20,-249,-58,1,85,-5
1855,-17,-251,-55,4,84,-5
1860,-15,-251,-55,5,83,-5
1865,-15,-252,-52,4,85,-4
1870,-17,-253,-54,2,86,-4
1875,-14,-253,-56,1,88,-3
1880,-18,-251,-54,-3,87,-6
1885,-19,-251,-59,-5,88,-9
1890,-17,-250,-58,-7,88,-9
1895,-16,-253,-57,-8,90,-9
1900,-10,-255,-57,-9,90,-9
1905,-11,-254,-57,-9,92,-11
1910,-14,-253,-56,-7,94,-10
1915,-13,-253,-55,-5,94,-8
1920,-18,-249,-60,-5,92,-9
1925,-20,-249,-57,-6,92,-8
1930,-19,-251,-57,-6,92,-6
1935,-14,-253,-53,-6,92,-7
1940,-13,-251,-55,-6,92,-6
1945,-14,-253,-51,-7,92,-6
1950,-16,-250,-53,-7,90,-6
1955,-11,-250,-54,-6,90,-6
1960,-12,-250,-57,-6,90,-5
1965,-15,-249,-57,-8,91,-4
1970,-13,-251,-57,-8,91,-5
1975,-9,-255,-58,-7,91,-5
1980,-11,-251,-58,-4,90,-5
1985,-12,-255,-58,-2,88,-8
1990,-14,-252,-59,-1,88,-7
1995,-17,-250,-55,1,88,-10
2000,-13,-250,-59,0,88,-8
2005,-10,-254,-58,-1,87,-7
2010,-17,-249,-56,-2,86,-7
2015,-13,-252,-59,-3,86,-7
2020,-9,-253,-58,-1,87,-6
2025,-13,-248,-56,0,86,-4
2030,-20,-252,-55,0,86,-4
2035,-25,-244,-57,-1,86,-3
2040,-19,-250,-54,0,86,-4
2045,-17,-250,-55,1,86,-2
2050,-18,-249,-58,1,87,-1
2055,-17,-247,-54,-3,87,-1
2060,-9,-250,-55,-6,86,0
2065,-11,-250,-59,-11,85,-2
2070,-14,-250,-55,-13,84,-2
2075,-14,-252,-57,-15,82,-2
2080,-19,-250,-57,-17,81,-4
2085,-24,-247,-55,-18,80,-4
2090,-19,-249,-53,-17,78,-4
2095,-18,-249,-54,-16,77,-4
2100,-15,-249,-57,-14,73,-5
2105,-16,-251,-58,-13,74,-6
2110,-14,-251,-57,-12,73,-5
2115,-17,-252,-59,-11,73,-4
2120,-16,-250,-57,-11,73,-5
2125,-17,-251,-58,-14,73,-5
2130,-22,-247,-53,-15,74,-5
2135,-21,-249,-54,-16,74,-5
2140,-13,-250,-55,-17,72,-6
2145,-15,-252,-53,-16,71,-5
2150,-17,-251,-53,-15,71,-4
2155,-17,-249,-57,-15,72,-4
2160,-17,-251,-54,-14,72,-4
2165,-17,-251,-56,-13,71,-2
2170,-18,-252,-58,-13,71,-2
2175,-16,-252,-57,-14,69,-2
2180,-14,-247,-54,-13,68,-3
2185,-21,-247,-56,-15,65,-5
2190,-19,-251,-60,-16,63,-3
2195,-23,-246,-57,-19,62,-3
2200,-19,-249,-54,-18,61,-3
2205,-16,-250,-56,-17,58,-4
2210,-14,-253,-54,-15,56,-2
2215,-17,-250,-57,-13,56,-2
2220,-17,-251,-60,-12,55,-4
2225,-20,-249,-56,-10,54,-4
2230,-16,-250,-61,-10,55,-4
2235,-16,-251,-57,-11,54,-3
2240,-14,-252,-59,-11,54,-3
2245,-16,-250,-59,-12,55,-3
2250,-15,-249,-55,-13,54,-5
2255,-16,-251,-58,-14,55,-6
2260,-20,-249,-59,-15,55,-6
2265,-17,-248,-57,-17,53,-5
2270,-14,-248,-58,-18,51,-4
2275,-16,-249,-55,-19,51,-4
2280,-16,-249,-56,-19,51,-2
2285,-16,-250,-55,-21,51,-2
2290,-21,-249,-51,-21,49,-2
2295,-20,-251,-55,-22,47,-2
2300,-13,-254,-59,-20,49,0
2305,-18,-252,-56,-20,47,0
2310,-14,-251,-57,-19,46,-1
2315,-16,-251,-55,-16,45,0
2320,-19,-247,-50,-14,45,0
2325,-16,-252,-58,-10,45,-2
2330,-17,-250,-56,-7,44,-3
2335,-18,-249,-54,-8,45,-6
2340,-16,-253,-55,-11,44,-5
2345,-14,-250,-56,-15,42,-5
2350,-14,-251,-56,-19,41,-3
2355,-18,-251,-57,-20,41,-2
2360,-19,-251,-55,-19,39,-3
2365,-19,-254,-57,-13,37,-1
2370,-15,-254,-57,-8,35,0
2375,-18,-254,-55,-5,34,-1
2380,-17,-253,-59,-3,36,-1
2385,-17,-250,-60,-4,37,-2
2390,-14,-253,-55,-3,40,0
2395,-15,-254,-57,-6,40,0
2400,-17,-253,-60,-8,43,-1
2405,-18,-253,-55,-11,43,0
2410,-16,-251,-52,-14,42,-2
2415,-16,-251,-59,-16,43,-2
2420,-14,-251,-55,-15,41,-3
2425,-15,-251,-57,-15,42,-4
2430,-15,-250,-56,-14,43,-4
2435,-19,-250,-54,-14,44,-3
2440,-20,-250,-54,-13,47,-4
2445,-17,-249,-55,-16,47,-3
2450,-16,-250,-54,-17,49,-5
2455,-13,-250,-56,-18,50,-4
2460,-17,-248,-53,-20,48,-4
2465,-16,-249,-51,-20,47,-5
2470,-15,-250,-54,-21,47,-4
2475,-10,-250,-46,-23,47,-4
2480,-16,-252,-55,-25,47,-2
2485,-16,-253,-59,-27,49,-2
2490,-13,-251,-56,-27,50,-1
2495,-15,-254,-55,-24,51,-1
2500,-18,-249,-59,-22,53,-2
2505,-16,-249,-57,-21,53,-4
2510,-17,-251,-59,-22,55,-3
2515,-18,-251,-54,-24,55,-2
2520,-15,-253,-55,-25,56,-4
2525,-15,-256,-58,-24,55,-2
2530,-15,-250,-53,-24,55,-4
2535,-18,-250,-56,-23,57,-4
2540,-18,-251,-58,-21,56,-4
2545,-19,-248,-57,-21,57,-3
2550,-19,-253,-55,-22,58,-3
2555,-14,-250,-59,-23,58,-3
2560,-17,-252,-61,-24,57,-2
2565,-15,-251,-55,-23,58,-2
2570,-18,-252,-58,-21,58,0
2575,-14,-250,-56,-22,59,0
2580,-16,-250,-54,-24,59,-1
2585,-13,-247,-57,-26,58,-2
2590,-12,-251,-58,-28,59,-2
2595,-19,-249,-54,-29,60,-3
2600,-17,-252,-60,-30,61,-3
2605,-13,-254,-62,-31,62,-4
2610,-16,-252,-59,-31,62,-3
2615,-15,-252,-58,-31,63,-3
2620,-14,-252,-59,-32,65,-3
2625,-19,-250,-55,-30,66,-4
2630,-15,-251,-59,-28,66,-4
2635,-16,-253,-58,-27,67,-2
2640,-15,-250,-59,-29,66,-2
2645,-14,-250,-59,-30,66,-3
2650,-16,-251,-54,-33,65,-3
2655,-12,-252,-54,-34,65,-5
2660,-17,-251,-58,-36,64,-3
2665,-14,-253,-55,-37,64,-2
2670,-16,-252,-55,-34,63,-3
2675,-18,-249,-55,-33,63,-3
2680,-19,-252,-57,-31,64,-3
2685,-15,-249,-59,-31,66,-2
2690,-17,-253,-54,-33,67,-2
2695,-16,-249,-58,-35,69,-2
2700,-17,-251,-58,-36,70,-1
2705,-17,-248,-57,-36,72,-1
2710,-15,-251,-60,-35,72,-3
2715,-18,-251,-59,-34,72,-3
2720,-16,-251,-56,-33,71,-2
2725,-15,-250,-58,-32,69,-2
2730,-16,-250,-56,-32,69,-4
2735,-17,-251,-57,-31,69,-2
2740,-16,-250,-57,-31,69,-1
2745,-16,-253,-60,-31,68,-1
2750,-19,-250,-61,-29,69,-3
2755,-16,-250,-61,-30,69,-1
2760,-14,-253,-59,-31,69,-2
2765,-16,-250,-58,-32,70,-1
2770,-16,-251,-55,-33,70,-2
2775,-19,-249,-58,-35,72,-1
2780,-20,-249,-55,-35,72,-1
2785,-17,-252,-55,-33,72,-4
2790,-17,-249,-52,-31,73,-3
2795,-15,-247,-55,-28,71,-3
2800,-18,-250,-58,-27,70,-2
2805,-19,-250,-58,-28,67,-1
2810,-15,-250,-58,-28,66,-2
2815,-16,-249,-57,-28,65,-2
2820,-17,-250,-57,-29,65,-2
2825,-14,-251,-63,-32,66,-3
2830,-15,-251,-59,-35,66,-4
2835,-19,-249,-60,-37,67,-4
2840,-17,-251,-57,-39,65,-4
2845,-16,-252,-56,-41,65,-3
2850,-19,-251,-58,-40,64,-3
2855,-17,-251,-63,-44,64,-3
2860,-19,-253,-62,-46,62,-3
2865,-15,-256,-60,-49,62,-2
2870,-17,-254,-60,-53,61,-1
2875,-18,-256,-63,-59,61,-1
2880,-15,-259,-64,-60,60,0
2885,-15,-260,-66,-61,58,0
2890,-19,-256,-66,-55,55,2
2895,-17,-256,-66,-51,54,4
2900,-18,-255,-66,-47,54,4
2905,-16,-251,-69,-45,56,3
2910,-16,-253,-69,-47,59,2
2915,-17,-249,-72,-52,62,2
2920,-17,-252,-70,-58,62,2
2925,-17,-251,-71,-63,60,4
2930,-17,-253,-76,-70,60,6
2935,-22,-249,-73,-79,60,11
2940,-23,-244,-75,-91,61,14
2945,-21,-246,-70,-108,61,16
2950,-20,-243,-73,-133,59,15
2955,-17,-238,-81,-161,57,12
2960,-15,-234,-84,-193,53,9
2965,-19,-227,-90,-233,53,6
2970,-19,-225,-96,-284,56,1
2975,-18,-220,-104,-343,58,-2
2980,-18,-217,-104,-406,63,-6
2985,-22,-214,-112,-472,63,-9
2990,-24,-214,-120,-541,60,-7
2995,-25,-210,-130,-614,52,0
3000,-24,-214,-135,-675,39,7
3005,-24,-211,-135,-722,22,13
3010,-26,-213,-140,-756,6,21
3015,-30,-212,-142,-775,-5,28
3020,-32,-206,-146,-786,-15,35
3025,-34,-208,-145,-801,-19,42
3030,-34,-201,-150,-828,-23,47
3035,-34,-199,-149,-865,-28,57
3040,-37,-197,-150,-912,-33,63
3045,-37,-192,-149,-963,-37,69
3050,-36,-191,-150,-1011,-40,76
3055,-37,-186,-150,-1053,-43,79
3060,-37,-187,-153,-1093,-53,83
3065,-34,-179,-157,-1134,-63,86
3070,-33,-174,-156,-1180,-76,89
3075,-32,-162,-158,-1233,-84,92
3080,-30,-151,-163,-1294,-89,93
3085,-33,-140,-162,-1360,-95,96
3090,-32,-129,-163,-1434,-106,97
3095,-30,-121,-159,-1516,-119,102
3100,-28,-112,-157,-1601,-127,107
3105,-24,-106,-150,-1684,-130,111
3110,-28,-96,-145,-1771,-133,116
3115,-27,-83,-137,-1857,-134,120
3120,-23,-82,-125,-1942,-134,127
3125,-20,-79,-118,-2018,-137,134
3130,-22,-79,-106,-2082,-138,143
3135,-23,-72,-98,-2130,-135,152
3140,-25,-72,-86,-2164,-132,159
3145,-22,-71,-77,-2183,-134,168
3150,-19,-73,-67,-2193,-141,175
3155,-19,-73,-63,-2195,-151,181
3160,-12,-81,-48,-2179,-164,187
3165,-5,-85,-33,-2139,-170,191
3170,0,-94,-26,-2066,-170,195
3175,6,-96,-18,-1970,-164,197
3180,4,-100,-12,-1861,-152,192
3185,9,-104,-7,-1748,-137,191
3190,5,-101,-8,-1639,-127,183
3195,4,-106,-14,-1537,-124,168
3200,10,-109,-23,-1434,-127,150
3205,7,-106,-29,-1340,-129,128
3210,10,-104,-49,-1258,-128,108
3215,13,-107,-62,-1214,-126,98
3220,11,-103,-82,-1197,-128,90
3225,10,-102,-109,-1207,-130,87
3230,2,-105,-127,-1238,-122,85
3235,-2,-100,-144,-1287,-95,81
3240,-9,-93,-160,-1334,-61,81
3245,-16,-92,-174,-1385,-23,84
3250,-28,-85,-186,-1428,12,83
3255,-28,-80,-195,-1473,32,96
3260,-27,-79,-206,-1530,41,113
3265,-16,-86,-212,-1583,58,122
3270,-12,-100,-200,-1622,101,126
3275,-7,-112,-185,-1630,154,121
3280,-5,-132,-163,-1604,198,103
3285,-6,-150,-139,-1556,233,85
3290,0,-171,-120,-1492,254,68
3295,6,-195,-100,-1407,265,51
3300,2,-217,-96,-1296,275,35
3305,-2,-234,-91,-1174,286,20
3310,-11,-250,-99,-1044,282,20
3315,-13,-268,-112,-929,270,13
3320,-13,-277,-123,-811,255,-1
3325,-22,-270,-148,-699,242,-3
3330,-28,-272,-160,-644,233,21
3335,-43,-259,-179,-626,212,59
3340,-40,-263,-189,-647,156,108
3345,-49,-268,-203,-670,102,136
3350,-44,-260,-207,-602,68,150
3355,-51,-217,-247,-542,65,145
3360,-64,-181,-243,-635,78,156
3365,-66,-164,-242,-776,67,194
3370,-69,-147,-244,-955,47,229
3375,-68,-157,-224,-1128,41,268
3380,-63,-189,-204,-1225,32,313
3385,-61,-221,-193,-1240,31,352
3390,-59,-247,-195,-1210,32,386
3395,-56,-266,-193,-1151,22,413
3400,-46,-278,-204,-1082,-5,432
3405,-39,-269,-214,-1015,-36,425
3410,-34,-248,-226,-965,-56,392
3415,-41,-229,-237,-951,-51,347
3420,-42,-202,-240,-975,-37,308
3425,-41,-185,-245,-1009,-44,288
3430,-45,-177,-248,-1049,-43,277
3435,-47,-177,-246,-1093,-28,270
3440,-53,-183,-252,-1127,-10,265
3445,-66,-190,-248,-1153,-5,256
3450,-64,-195,-256,-1158,-14,238
3455,-67,-194,-250,-1139,-3,225
3460,-62,-195,-258,-1082,-33,220
3465,-61,-200,-259,-1032,-55,210
3470,-50,-199,-264,-974,-77,193
3475,-45,-198,-271,-925,-94,193
3480,-28,-193,-275,-886,-104,195
3485,-29,-194,-280,-860,-107,187
3490,-34,-195,-277,-855,-129,165
3495,-29,-192,-280,-838,-151,130
3500,-29,-186,-281,-807,-142,107
3505,-32,-182,-291,-770,-119,104
3510,-49,-183,-285,-734,-84,99
3515,-36,-182,-319,-664,-123,155
3520,-43,-195,-310,-638,-104,140
3525,-72,-183,-301,-628,-42,103
3530,-79,-199,-298,-599,-20,94
3535,-82,-212,-295,-548,-11,88
3540,-85,-220,-298,-471,-8,80
3545,-77,-226,-291,-378,-3,69
3550,-74,-221,-292,-273,2,55
3555,-71,-220,-292,-172,3,44
3560,-65,-217,-291,-83,10,33
3565,-66,-213,-277,0,16,23
3570,-59,-211,-273,79,21,18
3575,-49,-213,-267,164,31,8
3580,-46,-210,-261,255,44,-4
3585,-42,-206,-254,343,58,-19
3590,-43,-198,-255,417,71,-30
3595,-38,-194,-261,476,83,-38
3600,-50,-193,-257,521,91,-44
3605,-50,-191,-257,553,99,-47
3610,-54,-192,-256,574,106,-44
3615,-58,-193,-256,587,112,-42
3620,-58,-197,-256,600,121,-41
3625,-60,-197,-250,617,128,-46
3630,-61,-199,-253,638,132,-52
3635,-62,-200,-251,664,135,-62
3640,-57,-200,-250,694,135,-69
3645,-60,-200,-250,733,135,-79
3650,-56,-199,-247,771,132,-87
3655,-50,-203,-245,814,131,-97
3660,-55,-200,-239,862,128,-107
3665,-51,-203,-230,913,125,-118
3670,-47,-200,-230,967,119,-132
3675,-45,-196,-218,1022,116,-144
3680,-43,-196,-210,1072,116,-154
3685,-44,-190,-212,1110,115,-162
3690,-39,-187,-211,1143,112,-170
3695,-39,-184,-209,1169,115,-180
3700,-35,-184,-209,1194,116,-196
3705,-37,-183,-205,1219,123,-211
3710,-39,-184,-199,1241,133,-227
3715,-36,-192,-194,1260,146,-241
3720,-33,-195,-192,1278,157,-250
3725,-35,-197,-189,1299,171,-261
3730,-35,-204,-191,1321,181,-269
3735,-38,-209,-195,1354,192,-274
3740,-32,-210,-191,1390,204,-276
3745,-36,-214,-193,1429,216,-281
3750,-35,-213,-194,1463,226,-288
3755,-35,-213,-200,1485,239,-290
3760,-33,-211,-195,1487,249,-289
3765,-36,-211,-196,1487,249,-289
3770,-37,-210,-198,1484,249,-292
3775,-41,-207,-196,1483,245,-293
3780,-41,-205,-198,1482,236,-293
3785,-39,-199,-196,1484,227,-289
3790,-40,-197,-186,1479,215,-276
3795,-46,-195,-184,1473,200,-267
3800,-41,-192,-176,1456,183,-252
3805,-41,-198,-178,1432,164,-235
3810,-39,-191,-177,1406,141,-215
3815,-36,-193,-172,1370,125,-196
3820,-35,-201,-176,1327,113,-185
3825,-37,-201,-173,1287,107,-176
3830,-37,-209,-169,1261,103,-165
3835,-31,-209,-166,1245,106,-149
3840,-32,-210,-160,1214,114,-143
3845,-34,-214,-152,1181,117,-143
3850,-30,-217,-152,1150,111,-137
3855,-32,-212,-144,1116,102,-134
3860,-30,-212,-141,1079,90,-135
3865,-24,-211,-130,1040,80,-136
3870,-22,-212,-132,990,67,-136
3875,-16,-217,-122,942,63,-132
3880,-20,-215,-118,905,59,-127
3885,-18,-222,-114,876,51,-130
3890,-16,-223,-111,854,44,-134
3895,-18,-223,-107,835,38,-141
3900,-19,-219,-107,819,35,-144
3905,-20,-219,-108,803,34,-146
3910,-15,-224,-106,786,35,-146
3915,-17,-224,-110,767,39,-145
3920,-21,-223,-108,753,48,-147
3925,-19,-220,-113,746,58,-145
3930,-18,-221,-116,743,65,-142
3935,-17,-217,-120,739,73,-139
3940,-19,-213,-119,728,79,-134
3945,-17,-215,-116,713,83,-127
3950,-20,-216,-118,692,85,-122
3955,-21,-215,-119,669,80,-114
3960,-25,-217,-119,646,74,-107
3965,-24,-218,-122,613,67,-98
3970,-24,-219,-120,574,57,-89
3975,-25,-218,-122,533,53,-78
3980,-25,-223,-119,491,49,-67
3985,-19,-221,-129,451,50,-57
3990,-24,-221,-126,413,51,-49
3995,-26,-219,-124,375,56,-41
4000,-25,-220,-128,344,58,-32
4005,-21,-223,-128,313,62,-26
4010,-22,-220,-125,285,62,-22
4015,-19,-221,-125,255,62,-21
4020,-18,-220,-121,225,62,-21
4025,-18,-222,-122,201,59,-23
4030,-18,-220,-123,181,57,-28
4035,-18,-219,-125,160,57,-31
4040,-18,-222,-123,141,58,-36
4045,-19,-219,-122,124,58,-38
4050,-18,-220,-127,110,58,-40
4055,-17,-224,-126,97,62,-39
4060,-17,-223,-129,88,66,-34
4065,-16,-227,-129,86,70,-31
4070,-19,-224,-132,88,72,-26
4075,-20,-225,-124,93,73,-25
4080,-20,-224,-129,96,71,-25
4085,-21,-227,-127,100,65,-23
4090,-20,-229,-126,103,63,-21
4095,-22,-236,-120,104,63,-21
4100,-20,-227,-126,105,65,-21
4105,-20,-227,-126,104,69,-19
4110,-20,-227,-124,102,70,-20
4115,-19,-228,-125,99,75,-17
4120,-17,-228,-124,96,82,-13
4125,-18,-229,-128,94,87,-6
4130,-20,-229,-127,97,93,1
4135,-23,-232,-121,101,97,9
4140,-19,-231,-122,106,100,18
4145,-14,-230,-128,115,104,25
4150,-21,-231,-125,123,106,32
4155,-19,-231,-120,130,107,37
4160,-21,-231,-123,138,107,41
4165,-15,-230,-125,146,107,47
4170,-17,-228,-125,150,109,53
4175,-14,-226,-125,148,111,58
4180,-16,-225,-124,141,113,62
4185,-13,-228,-123,133,111,62
4190,-18,-224,-125,121,108,62
4195,-19,-227,-123,110,102,60
4200,-19,-228,-122,102,95,56
4205,-19,-226,-120,98,89,53
4210,-22,-223,-122,96,86,53
4215,-25,-225,-121,92,85,55
4220,-26,-224,-124,88,83,54
4225,-24,-225,-120,83,78,53
4230,-25,-223,-120,78,80,53
4235,-24,-227,-117,73,82,57
4240,-27,-226,-121,68,84,58
4245,-26,-224,-117,60,87,59
4250,-26,-230,-121,56,89,60
4255,-21,-228,-119,55,92,58
4260,-25,-224,-123,58,97,54
4265,-24,-225,-119,64,100,52
4270,-22,-225,-120,68,103,47
4275,-21,-227,-124,72,109,43
4280,-21,-225,-122,76,114,38
4285,-23,-222,-122,76,120,32
4290,-25,-222,-124,78,124,27
4295,-24,-224,-120,79,129,24
4300,-26,-223,-123,79,133,23
4305,-28,-223,-121,75,135,25
4310,-28,-225,-122,72,138,29
4315,-26,-226,-125,68,139,37
4320,-30,-226,-119,67,142,43
4325,-29,-226,-118,68,142,49
4330,-27,-229,-117,67,145,53
4335,-32,-230,-117,65,144,56
4340,-30,-229,-119,64,143,57
4345,-32,-225,-117,63,142,59
4350,-29,-232,-114,65,141,57
4355,-30,-227,-114,64,141,57
4360,-27,-227,-120,62,141,54
4365,-36,-224,-114,59,141,54
4370,-31,-224,-115,53,141,55
4375,-34,-222,-115,47,141,57
4380,-37,-222,-116,40,137,57
4385,-34,-221,-115,33,134,61
4390,-38,-222,-116,23,131,64
4395,-33,-221,-122,11,126,65
4400,-39,-223,-117,-3,123,67
4405,-35,-223,-117,-13,120,67
4410,-37,-222,-121,-22,117,65
4415,-36,-224,-120,-28,114,66
4420,-41,-228,-127,-31,111,65
4425,-35,-226,-122,-27,112,63
4430,-32,-220,-127,-23,113,61
4435,-28,-225,-128,-20,114,61
4440,-32,-222,-128,-18,116,57
4445,-30,-224,-129,-22,118,57
4450,-31,-226,-131,-22,119,53
4455,-30,-224,-131,-24,119,50
4460,-35,-225,-128,-25,117,47
4465,-30,-227,-127,-27,116,42
4470,-28,-226,-127,-28,113,39
4475,-26,-227,-125,-29,114,37
4480,-29,-226,-125,-32,112,36
4485,-31,-228,-126,-34,110,36
4490,-27,-231,-122,-35,109,36
4495,-30,-226,-120,-36,108,37
4500,-30,-223,-121,-36,106,36
4505,-31,-225,-120,-37,103,37
4510,-31,-225,-121,-35,100,36
4515,-29,-225,-121,-38,97,35
4520,-27,-226,-123,-39,95,29
4525,-29,-223,-124,-40,93,28
4530,-27,-232,-119,-44,93,23
4535,-29,-224,-120,-47,91,18
4540,-31,-220,-122,-49,90,13
4545,-30,-224,-123,-55,91,8
4550,-29,-227,-125,-60,90,6
4555,-28,-225,-119,-62,91,2
4560,-30,-224,-118,-64,91,1
4565,-29,-224,-118,-66,91,-3
4570,-31,-227,-119,-67,90,-4
4575,-29,-227,-115,-69,90,-5
4580,-28,-228,-121,-71,87,-6
4585,-29,-228,-118,-73,84,-6
4590,-30,-229,-116,-75,82,-7
4595,-31,-228,-116,-73,79,-6
4600,-32,-227,-117,-70,77,-5
4605,-27,-233,-119,-65,72,-4
4610,-32,-231,-119,-60,68,-4
4615,-30,-228,-121,-55,63,-4
4620,-32,-229,-120,-51,60,-7
4625,-30,-230,-120,-47,57,-8
4630,-32,-229,-124,-40,54,-10
4635,-33,-233,-125,-36,54,-12
4640,-34,-227,-129,-32,54,-13
4645,-31,-231,-123,-29,52,-14
4650,-30,-232,-123,-26,51,-17
4655,-34,-229,-124,-25,50,-18
4660,-33,-226,-124,-23,50,-21
4665,-34,-229,-124,-23,48,-24
4670,-31,-229,-119,-24,47,-26
4675,-31,-226,-121,-23,48,-27
4680,-34,-227,-120,-23,47,-29
4685,-31,-227,-119,-22,46,-31
4690,-31,-227,-120,-21,44,-30
4695,-32,-225,-122,-23,43,-32
4700,-28,-228,-118,-23,41,-31
4705,-31,-223,-121,-26,38,-32
4710,-28,-224,-121,-29,39,-32
4715,-27,-228,-120,-32,38,-33
4720,-27,-225,-122,-36,35,-33
4725,-28,-227,-125,-38,36,-34
4730,-26,-228,-121,-40,35,-36
4735,-28,-227,-122,-39,33,-36
4740,-26,-228,-113,-36,35,-37
4745,-31,-226,-122,-34,33,-38
4750,-26,-228,-120,-30,34,-41
4755,-27,-226,-125,-29,32,-42
4760,-28,-228,-123,-27,33,-43
4765,-27,-229,-121,-25,33,-45
4770,-27,-230,-123,-24,34,-48
4775,-28,-230,-124,-21,34,-47
4780,-27,-227,-124,-17,35,-47
4785,-27,-225,-123,-17,33,-48
4790,-25,-227,-119,-17,33,-49
4795,-23,-226,-122,-18,34,-49
4800,-29,-223,-121,-23,35,-50
4805,-24,-223,-120,-30,36,-53
4810,-22,-224,-119,-37,37,-53
4815,-22,-222,-120,-45,39,-52
4820,-23,-223,-119,-55,42,-52
4825,-22,-222,-115,-64,45,-51
4830,-22,-221,-122,-75,48,-50
4835,-25,-218,-119,-87,49,-50
4840,-22,-221,-118,-101,49,-49
4845,-25,-223,-117,-113,51,-49
4850,-23,-227,-118,-124,52,-50
4855,-30,-234,-129,-134,53,-52
4860,-24,-226,-115,-142,54,-52
4865,-29,-229,-121,-144,56,-51
4870,-26,-229,-121,-140,60,-50
4875,-29,-230,-123,-131,61,-49
4880,-26,-231,-123,-121,63,-49
4885,-25,-230,-125,-108,68,-49
4890,-26,-233,-126,-94,70,-50
4895,-25,-230,-126,-80,72,-50
4900,-25,-229,-126,-66,73,-51
4905,-25,-230,-127,-54,74,-50
4910,-27,-225,-130,-42,74,-49
4915,-24,-226,-129,-32,72,-49
4920,-26,-224,-129,-25,71,-48
4925,-22,-225,-130,-24,69,-47
4930,-21,-222,-131,-23,68,-45
4935,-22,-221,-130,-26,66,-43
4940,-23,-220,-128,-34,64,-41
4945,-25,-217,-128,-43,62,-40
4950,-19,-221,-131,-54,61,-38
4955,-23,-222,-127,-63,60,-37
4960,-24,-221,-124,-72,58,-36
4965,-26,-217,-128,-82,58,-35
4970,-23,-221,-121,-91,57,-33
4975,-24,-223,-121,-100,57,-35
4980,-24,-222,-120,-110,59,-35
4985,-24,-221,-119,-123,61,-36
4990,-24,-223,-125,-133,62,-37
4995,-25,-227,-123,-141,65,-37
5000,-23,-228,-123,-143,70,-38
5005,-26,-228,-125,-138,74,-38
5010,-24,-230,-127,-129,76,-38
5015,-25,-230,-129,-114,76,-37
5020,-26,-231,-133,-95,76,-36
5025,-22,-231,-133,-76,74,-36
5030,-23,-228,-131,-59,72,-36
5035,-21,-227,-134,-45,68,-34
5040,-22,-227,-131,-32,64,-34
5045,-23,-229,-134,-22,61,-34
5050,-23,-226,-129,-14,60,-31
5055,-23,-227,-129,-8,58,-29
5060,-24,-222,-131,-4,57,-29
5065,-25,-224,-129,-3,58,-29
5070,-29,-220,-126,-3,57,-28
5075,-23,-226,-130,-5,58,-29
5080,-22,-223,-124,-8,60,-30
5085,-25,-223,-123,-12,60,-28
5090,-25,-222,-128,-17,61,-28
5095,-23,-219,-125,-21,62,-29
5100,-23,-221,-121,-26,64,-29
5105,-24,-228,-125,-31,65,-31
5110,-26,-223,-124,-36,65,-31
5115,-25,-227,-124,-41,68,-31
5120,-27,-224,-124,-43,69,-32
5125,-23,-226,-126,-44,69,-34
5130,-25,-226,-124,-42,69,-33
5135,-25,-228,-125,-38,68,-34
5140,-26,-226,-126,-35,68,-34
5145,-23,-229,-126,-29,67,-35
5150,-25,-226,-126,-24,65,-34
5155,-21,-228,-127,-17,65,-34
5160,-24,-228,-130,-7,64,-35
5165,-22,-226,-128,2,64,-33
5170,-26,-223,-129,11,65,-34
5175,-25,-225,-131,16,68,-32
5180,-23,-223,-126,19,69,-31
5185,-26,-223,-137,18,68,-29
5190,-22,-224,-126,14,67,-27
5195,-23,-226,-129,12,65,-24
5200,-24,-227,-128,12,64,-23
5205,-23,-224,-127,13,59,-24
5210,-25,-223,-130,13,55,-22
5215,-21,-225,-125,13,53,-22
5220,-24,-226,-127,10,51,-23
5225,-23,-223,-130,9,49,-21
5230,-22,-222,-132,7,50,-21
5235,-22,-223,-128,3,50,-22
5240,-23,-222,-123,2,52,-20
5245,-22,-227,-129,-2,54,-19
5250,-20,-222,-127,-5,56,-18
5255,-24,-225,-127,-6,60,-18
5260,-24,-227,-123,-6,63,-18
5265,-21,-228,-126,-7,65,-19
5270,-21,-230,-124,-4,67,-18
5275,-20,-227,-127,-1,67,-18
5280,-21,-229,-128,0,68,-16
5285,-22,-227,-125,3,68,-16
5290,-27,-219,-129,5,66,-16
5295,-20,-227,-126,6,64,-15
5300,-21,-224,-126,9,63,-14
5305,-24,-224,-125,9,62,-14
5310,-24,-226,-123,11,62,-13
5315,-23,-225,-128,13,62,-11
5320,-24,-228,-124,14,62,-9
5325,-22,-224,-127,14,65,-8
5330,-20,-225,-125,14,66,-8
5335,-20,-223,-127,13,65,-6
5340,-19,-226,-122,11,65,-6
5345,-25,-224,-129,10,65,-6
5350,-18,-227,-122,10,65,-7
5355,-21,-225,-125,10,65,-5
5360,-23,-226,-127,9,66,-2
5365,-22,-224,-128,9,64,-3
5370,-20,-225,-123,10,64,0
5375,-19,-226,-125,8,64,1
5380,-21,-224,-128,9,64,1
5385,-25,-226,-123,8,64,1
5390,-22,-228,-126,7,63,1
5395,-21,-224,-129,8,64,0
5400,-23,-224,-126,8,66,2
5405,-22,-227,-129,10,65,1
5410,-21,-224,-125,11,68,2
5415,-20,-225,-126,12,70,2
5420,-23,-227,-126,14,71,2
5425,-23,-225,-125,15,72,3
5430,-21,-222,-125,15,72,3
5435,-23,-226,-126,16,73,4
5440,-21,-223,-128,16,73,6
5445,-23,-224,-126,17,76,5
5450,-18,-226,-130,20,75,6
5455,-25,-225,-126,21,75,6
5460,-23,-224,-127,24,74,6
5465,-24,-222,-127,26,72,8
5470,-24,-224,-129,27,67,7
5475,-24,-225,-127,27,64,6
5480,-24,-223,-123,28,61,7
5485,-22,-226,-126,27,62,6
5490,-21,-226,-123,27,62,6
5495,-23,-225,-123,27,61,6
5500,-23,-227,-124,27,63,7
5505,-25,-228,-125,31,62,7
5510,-21,-225,-123,33,63,6
5515,-24,-230,-126,36,63,6
5520,-19,-233,-124,38,63,5
5525,-25,-224,-122,40,64,3
5530,-25,-228,-123,41,65,3
5535,-24,-224,-124,40,64,2
5540,-23,-224,-125,43,64,0
5545,-20,-227,-122,45,64,-1
5550,-25,-226,-121,47,65,-2
5555,-23,-225,-124,47,65,-1
5560,-23,-225,-121,47,65,-2
5565,-26,-225,-121,47,65,-3
5570,-21,-230,-125,47,64,-5
5575,-25,-227,-123,47,66,-3
5580,-26,-228,-124,46,65,-4
5585,-27,-227,-124,48,67,-3
5590,-24,-228,-122,48,65,-1
5595,-23,-228,-121,50,65,0
5600,-24,-224,-127,51,64,-2
5605,-26,-229,-125,54,64,-1
5610,-24,-227,-126,57,63,-2
5615,-24,-227,-125,60,61,-1
5620,-21,-224,-124,62,59,-3
5625,-26,-224,-125,63,58,-3
5630,-25,-226,-124,63,58,-5
5635,-24,-229,-123,62,57,-6
5640,-22,-227,-123,61,58,-6
5645,-22,-229,-120,59,57,-8
5650,-27,-228,-122,59,58,-8
5655,-25,-227,-120,56,57,-10
5660,-24,-229,-121,56,57,-10
5665,-28,-227,-122,56,56,-10
5670,-24,-230,-119,55,58,-12
5675,-25,-227,-122,54,56,-11
5680,-25,-228,-122,54,56,-11
5685,-24,-226,-121,53,56,-14
5690,-23,-229,-117,53,55,-14
5695,-26,-227,-125,52,56,-14
5700,-24,-229,-118,51,56,-14
5705,-23,-228,-121,50,57,-14
5710,-26,-228,-120,48,59,-13
5715,-25,-229,-120,49,60,-14
5720,-24,-228,-119,49,60,-12
5725,-26,-225,-116,48,60,-12
5730,-24,-228,-114,45,61,-11
5735,-20,-228,-120,47,61,-9
5740,-24,-228,-122,48,59,-10
5745,-22,-226,-118,53,58,-10
5750,-24,-229,-119,54,56,-11
5755,-21,-228,-120,56,54,-10
5760,-24,-224,-119,56,52,-11
5765,-22,-230,-117,57,51,-11
5770,-21,-229,-124,59,49,-10
5775,-22,-229,-120,59,47,-11
5780,-21,-226,-120,55,47,-10
5785,-20,-228,-121,53,47,-9
5790,-24,-227,-119,50,50,-8
5795,-23,-229,-119,45,49,-9
5800,-25,-227,-117,43,52,-9
5805,-26,-226,-117,42,55,-10
5810,-24,-229,-119,40,57,-9
5815,-24,-227,-119,40,60,-9
5820,-21,-227,-118,39,62,-12
5825,-22,-229,-117,37,64,-12
5830,-23,-226,-120,37,66,-13
5835,-22,-229,-116,37,66,-12
5840,-24,-225,-121,35,67,-12
5845,-21,-225,-118,32,67,-12
5850,-22,-228,-120,30,67,-10
5855,-18,-229,-122,30,65,-10
5860,-23,-231,-118,27,66,-10
5865,-22,-230,-115,26,64,-8
5870,-22,-230,-114,24,62,-7
5875,-22,-228,-117,24,61,-6
5880,-22,-232,-117,24,61,-5
5885,-25,-231,-118,27,61,-4
5890,-22,-229,-118,33,58,-5
5895,-22,-236,-118,36,58,-5
5900,-20,-232,-117,41,58,-5
5905,-18,-232,-121,46,56,-7
5910,-20,-230,-118,49,56,-6
5915,-21,-229,-120,51,55,-7
5920,-21,-227,-118,51,55,-8
5925,-23,-230,-120,50,56,-8
5930,-21,-227,-119,52,58,-9
5935,-22,-231,-117,50,59,-9
5940,-22,-225,-120,51,60,-9
5945,-22,-228,-116,50,60,-7
5950,-22,-228,-120,48,61,-8
5955,-20,-229,-115,45,64,-7
5960,-21,-228,-118,41,67,-7
5965,-23,-230,-115,39,65,-6
5970,-24,-229,-117,37,68,-6
5975,-24,-228,-119,36,70,-5
5980,-24,-227,-113,35,68,-4
5985,-24,-229,-117,33,69,-4
5990,-26,-226,-116,33,69,-6
5995,-25,-232,-117,33,67,-5
6000,-24,-229,-117,33,66,-5
6005,-23,-230,-114,31,66,-4
6010,-22,-230,-117,31,65,-5
6015,-21,-228,-117,29,66,-3
6020,-22,-232,-111,28,65,-3
6025,-24,-226,-115,27,65,-3
6030,-25,-231,-116,27,66,-2
6035,-21,-231,-115,24,65,-2
6040,-23,-230,-116,23,65,-1
6045,-27,-230,-120,23,65,0
6050,-23,-230,-117,21,66,1
6055,-16,-229,-118,23,66,1
6060,-20,-230,-115,21,66,2
6065,-22,-231,-119,18,66,1
6070,-23,-230,-118,18,65,0
6075,-23,-229,-119,16,68,0
6080,-24,-232,-116,15,69,0
6085,-22,-233,-113,13,70,0
6090,-25,-231,-116,14,70,0
6095,-22,-231,-117,14,71,-1
6100,-22,-228,-116,13,70,-2
6105,-25,-232,-109,12,72,-2
6110,-21,-228,-117,11,72,-3
6115,-21,-236,-113,9,70,-2
6120,-23,-232,-117,10,69,-2
6125,-25,-234,-117,12,66,-3
6130,-21,-234,-117,18,65,-2
6135,-25,-232,-119,23,64,-1
6140,-25,-231,-115,25,65,-4
6145,-24,-232,-117,27,64,-4
6150,-25,-232,-117,27,64,-4
6155,-20,-230,-119,26,63,-5
6160,-26,-230,-114,24,64,-6
6165,-26,-228,-112,22,63,-6
6170,-24,-236,-113,21,65,-6
6175,-25,-232,-114,23,63,-7
6180,-22,-232,-112,23,63,-7
6185,-24,-235,-110,24,63,-7
6190,-26,-230,-112,22,64,-6
6195,-24,-229,-112,22,64,-7
6200,-26,-231,-110,20,62,-7
6205,-26,-230,-109,17,63,-8
6210,-22,-234,-112,15,63,-8
6215,-23,-232,-110,12,63,-9
6220,-24,-236,-114,9,64,-9
6225,-25,-233,-116,9,64,-8
6230,-21,-233,-111,9,63,-10
6235,-22,-230,-118,10,63,-11
6240,-26,-228,-113,12,64,-10
6245,-25,-232,-110,12,63,-9
6250,-23,-230,-117,14,62,-10
6255,-26,-231,-116,16,62,-10
6260,-23,-231,-112,16,62,-10
6265,-24,-230,-115,16,64,-11
6270,-22,-231,-115,17,63,-9
6275,-23,-231,-116,17,64,-10
6280,-23,-233,-116,16,65,-10
6285,-22,-230,-117,16,67,-11
6290,-24,-231,-112,15,67,-11
6295,-24,-231,-119,13,68,-10
6300,-24,-228,-115,11,67,-12
6305,-23,-232,-114,10,67,-10
6310,-23,-231,-115,10,66,-9
6315,-23,-228,-114,9,65,-8
6320,-22,-232,-114,7,63,-10
6325,-23,-233,-110,8,64,-11
6330,-24,-231,-110,7,62,-9
6335,-24,-231,-116,8,64,-10
6340,-25,-230,-115,8,65,-10
6345,-24,-234,-115,7,65,-10
6350,-20,-230,-113,8,67,-9
6355,-24,-235,-112,6,66,-7
6360,-22,-231,-110,6,67,-6
6365,-22,-230,-113,7,67,-8
6370,-21,-232,-117,7,66,-8
6375,-23,-232,-116,7,66,-8
6380,-22,-233,-114,7,68,-8
6385,-20,-232,-114,7,69,-9
6390,-26,-230,-116,6,68,-8
6395,-20,-233,-113,5,67,-8
6400,-19,-231,-114,3,68,-7
6405,-22,-232,-114,1,69,-8
6410,-25,-232,-115,1,69,-8
6415,-24,-230,-113,0,70,-8
6420,-22,-233,-111,0,72,-9
6425,-22,-235,-113,0,71,-8
6430,-20,-232,-113,0,70,-10
6435,-23,-231,-117,0,68,-8
6440,-23,-231,-116,0,67,-8
6445,-22,-234,-113,-1,64,-8
6450,-24,-231,-110,-1,63,-8
6455,-23,-231,-112,-3,61,-8
6460,-23,-229,-112,-5,60,-8
6465,-23,-231,-113,-6,59,-7
6470,-26,-232,-110,-9,59,-7
6475,-23,-233,-115,-9,61,-7
6480,-24,-233,-109,-9,62,-7
6485,-23,-232,-113,-8,62,-7
6490,-32,-237,-112,-7,65,-6
6495,-24,-230,-114,-5,69,-6
6500,-23,-231,-114,-5,70,-5
6505,-22,-232,-110,-4,71,-5
6510,-26,-232,-112,-4,72,-6
6515,-24,-232,-116,-4,72,-7
6520,-21,-230,-114,-4,71,-6
6525,-21,-232,-113,-5,70,-7
6530,-22,-233,-112,-5,69,-7
6535,-24,-231,-113,-5,70,-8
6540,-22,-230,-114,-6,68,-8
6545,-24,-228,-115,-6,68,-7
6550,-22,-232,-116,-9,67,-6
6555,-23,-230,-112,-11,70,-4
6560,-24,-232,-114,-12,68,-2
6565,-23,-232,-112,-11,66,0
6570,-23,-229,-115,-9,66,1
6575,-24,-230,-114,-6,65,1
6580,-22,-232,-117,-5,64,0
6585,-20,-229,-122,-4,63,-1
6590,-22,-230,-121,-3,64,0
6595,-22,-229,-117,-8,65,-2
6600,-22,-231,-123,-13,65,-3
6605,-22,-231,-117,-18,65,-4
6610,-18,-234,-120,-24,68,-9
6615,-19,-232,-115,-29,70,-14
6620,-21,-230,-118,-36,70,-23
6625,-21,-232,-117,-43,71,-30
6630,-21,-230,-123,-49,72,-35
6635,-21,-226,-118,-54,73,-39
6640,-19,-222,-122,-52,77,-35
6645,-23,-219,-125,-56,89,-27
6650,-24,-220,-124,-93,110,-8
6655,-30,-223,-118,-162,139,17
6660,-33,-224,-123,-250,167,45
6665,-31,-225,-128,-316,191,69
6670,-28,-200,-140,-319,201,84
6675,-23,-180,-147,-276,189,84
6680,-26,-162,-152,-255,153,81
6685,-19,-168,-138,-330,108,112
6690,-9,-169,-135,-496,53,164
6695,-22,-153,-157,-663,-24,161
6700,-53,-136,-171,-771,-114,88
6705,-63,-119,-181,-843,-162,21
6710,-62,-136,-180,-927,-155,-7
6715,-58,-159,-178,-1058,-113,-5
6720,-42,-184,-176,-1230,-82,25
6725,-38,-195,-168,-1358,-56,49
6730,-39,-214,-169,-1393,-34,51
6735,-28,-235,-165,-1407,-18,75
6740,-23,-251,-152,-1399,19,114
6745,-17,-254,-148,-1351,65,128
6750,-15,-261,-146,-1265,97,116
6755,-15,-263,-137,-1168,111,99
6760,-17,-272,-137,-1077,109,93
6765,-20,-277,-132,-984,98,103
6770,-16,-284,-119,-885,89,125
6775,-12,-283,-107,-769,90,140
6780,-14,-278,-91,-646,95,142
6785,-14,-272,-83,-545,94,138
6790,-10,-269,-73,-496,91,138
6795,-3,-266,-64,-511,85,145
6800,-9,-270,-67,-586,72,149
6805,-13,-275,-60,-714,48,155
6810,-13,-291,-54,-874,5,166
6815,-15,-288,-48,-1041,-43,176
6820,-18,-299,-55,-1195,-99,186
6825,-18,-297,-71,-1333,-139,184
6830,-29,-292,-86,-1455,-165,184
6835,-37,-287,-105,-1550,-184,188
6840,-43,-288,-132,-1612,-198,191
6845,-48,-296,-148,-1652,-204,201
6850,-42,-302,-158,-1674,-203,207
6855,-41,-305,-170,-1674,-204,203
6860,-42,-314,-172,-1656,-208,205
6865,-33,-325,-166,-1606,-220,216
6870,-31,-339,-164,-1509,-232,224
6875,-35,-351,-170,-1371,-242,217
6880,-40,-348,-183,-1213,-261,196
6885,-43,-337,-195,-1053,-286,174
6890,-40,-322,-208,-901,-307,163
6895,-39,-313,-216,-776,-314,158
6900,-40,-307,-228,-699,-317,156
6905,-48,-300,-234,-671,-316,148
6910,-52,-289,-244,-663,-308,133
6915,-52,-289,-249,-647,-286,107
6920,-50,-292,-250,-608,-251,78
6925,-54,-285,-262,-543,-208,53
6930,-56,-289,-261,-454,-158,34
6935,-55,-283,-265,-348,-112,21
6940,-54,-281,-265,-247,-66,8
6945,-55,-279,-266,-154,-19,8
6950,-54,-277,-263,-70,24,6
6955,-59,-279,-258,5,55,-3
6960,-60,-277,-262,79,77,-11
6965,-63,-270,-257,143,99,-24
6970,-58,-266,-262,188,117,-35
6975,-58,-260,-256,206,134,-49
6980,-58,-262,-257,210,143,-63
6985,-57,-254,-256,204,146,-84
6990,-61,-256,-252,191,140,-103
6995,-60,-251,-249,187,129,-121
7000,-62,-253,-248,193,114,-135
7005,-60,-248,-237,210,97,-149
7010,-59,-250,-229,234,73,-164
7015,-61,-246,-224,269,48,-182
7020,-58,-242,-221,306,29,-203
7025,-53,-237,-215,330,24,-221
7030,-52,-233,-214,339,29,-235
7035,-51,-230,-209,332,41,-243
7040,-51,-226,-199,315,51,-243
7045,-50,-227,-199,299,50,-237
7050,-44,-225,-192,284,50,-233
7055,-43,-227,-189,268,47,-220
7060,-39,-228,-185,255,42,-199
7065,-40,-227,-179,245,42,-180
7070,-37,-228,-177,241,47,-158
7075,-37,-227,-177,241,60,-140
7080,-38,-235,-179,245,74,-126
7085,-35,-234,-185,253,80,-111
7090,-36,-235,-181,270,79,-101
7095,-37,-233,-181,299,74,-94
7100,-32,-234,-178,334,69,-88
7105,-31,-231,-174,374,65,-83
7110,-26,-227,-169,416,61,-85
7115,-28,-228,-170,455,61,-93
7120,-26,-231,-161,489,65,-99
7125,-27,-232,-157,521,78,-104
7130,-27,-228,-150,551,93,-113
7135,-23,-239,-150,584,111,-124
7140,-24,-225,-145,619,130,-133
7145,-23,-222,-145,658,155,-135
7150,-25,-216,-147,691,180,-136
7155,-23,-212,-144,717,205,-137
7160,-25,-203,-141,742,230,-136
7165,-25,-194,-142,765,248,-136
7170,-23,-189,-137,783,263,-135
7175,-19,-184,-131,798,277,-135
7180,-24,-177,-125,809,292,-130
7185,-20,-175,-120,817,301,-123
7190,-18,-172,-117,820,297,-119
7195,-19,-169,-119,825,286,-116
7200,-17,-164,-119,837,265,-116
7205,-19,-160,-113,857,239,-119
7210,-17,-153,-116,882,215,-124
7215,-17,-148,-118,908,197,-124
7220,-24,-140,-118,928,186,-121
7225,-20,-136,-120,933,176,-115
7230,-21,-133,-119,933,170,-108
7235,-19,-129,-120,935,170,-100
7240,-21,-132,-116,944,175,-100
7245,-22,-132,-115,958,181,-102
7250,-24,-133,-113,971,187,-104
7255,-17,-131,-112,987,195,-102
7260,-19,-129,-111,997,200,-99
7265,-15,-127,-109,992,205,-105
7270,-16,-129,-104,981,209,-112
7275,-22,-129,-98,966,206,-117
7280,-20,-125,-94,947,198,-121
7285,-18,-126,-92,934,191,-126
7290,-17,-125,-88,926,188,-134
7295,-19,-122,-86,925,187,-142
7300,-16,-122,-85,925,184,-154
7305,-19,-120,-82,927,185,-160
7310,-21,-118,-76,925,186,-164
7315,-19,-112,-82,926,187,-166
7320,-23,-106,-81,914,191,-162
7325,-24,-101,-84,901,187,-158
7330,-25,-102,-85,874,183,-151
7335,-28,-100,-89,840,175,-145
7340,-22,-101,-87,806,169,-137
7345,-21,-103,-89,775,161,-128
7350,-24,-107,-98,746,159,-120
7355,-23,-108,-101,721,163,-107
7360,-28,-112,-97,701,170,-94
7365,-25,-116,-103,683,175,-79
7370,-28,-119,-108,668,175,-64
7375,-28,-121,-109,648,169,-49
7380,-32,-125,-112,626,157,-40
7385,-26,-133,-110,602,144,-31
7390,-29,-138,-113,580,135,-24
7395,-26,-145,-113,565,128,-22
7400,-23,-150,-110,548,131,-16
7405,-23,-155,-108,523,140,-4
7410,-19,-161,-109,502,154,5
7415,-18,-165,-107,486,175,14
7420,-14,-173,-101,473,195,17
7425,-11,-177,-101,465,215,15
7430,-10,-183,-103,457,229,13
7435,-9,-186,-103,450,237,8
7440,-11,-186,-101,445,241,6
7445,-7,-194,-100,443,237,0
7450,-6,-197,-106,440,231,-8
7455,-4,-199,-103,428,226,-13
7460,-5,-205,-103,415,215,-16
7465,-7,-208,-104,400,206,-15
7470,-4,-213,-100,389,191,-17
7475,-7,-219,-99,385,178,-17
7480,-9,-225,-99,382,164,-17
7485,-13,-226,-100,382,152,-19
7490,-16,-234,-103,384,142,-21
7495,-19,-236,-103,388,131,-24
7500,-23,-241,-108,391,126,-24
7505,-29,-240,-112,394,122,-25
7510,-31,-239,-112,392,119,-25
7515,-30,-243,-113,384,119,-22
7520,-35,-247,-116,369,118,-21
7525,-32,-247,-113,349,116,-19
7530,-36,-245,-112,332,113,-20
7535,-35,-245,-114,317,112,-23
7540,-34,-248,-114,304,109,-28
7545,-31,-249,-110,295,104,-30
7550,-25,-251,-111,289,95,-33
7555,-26,-250,-107,280,85,-37
7560,-25,-252,-103,266,72,-40
7565,-25,-251,-97,258,59,-43
7570,-12,-248,-82,254,47,-49
7575,-20,-250,-92,257,40,-56
7580,-17,-244,-86,265,40,-58
7585,-15,-246,-84,269,44,-61
7590,-18,-238,-80,270,47,-61
7595,-13,-239,-76,273,49,-62
7600,-9,-240,-82,277,48,-60
7605,-11,-237,-75,279,47,-59
7610,-7,-239,-78,277,44,-55
7615,-9,-238,-79,274,38,-48
7620,-8,-237,-80,272,28,-44
7625,-10,-236,-82,273,17,-37
7630,-14,-236,-88,271,7,-29
7635,-13,-235,-90,265,0,-20
7640,-13,-235,-93,256,-9,-13
7645,-18,-236,-90,248,-15,-8
7650,-20,-233,-93,239,-16,-6
7655,-14,-233,-88,235,-15,-3
7660,-18,-229,-91,233,-10,-1
7665,-20,-229,-93,228,-4,2
7670,-20,-227,-88,220,2,-1
7675,-18,-230,-88,210,7,-4
7680,-17,-228,-90,198,10,-9
7685,-16,-232,-86,186,15,-15
7690,-16,-230,-83,178,23,-22
7695,-16,-229,-83,173,26,-24
7700,-11,-230,-80,171,29,-27
7705,-12,-232,-79,173,32,-29
7710,-10,-232,-80,176,34,-30
7715,-7,-229,-81,181,31,-31
7720,-6,-234,-80,188,29,-27
7725,-9,-233,-77,193,27,-24
7730,-7,-233,-79,199,22,-25
7735,-3,-236,-78,202,16,-22
7740,-6,-236,-80,199,14,-21
7745,-8,-236,-79,197,15,-18
7750,-9,-241,-79,195,18,-13
7755,-9,-242,-79,195,23,-10
7760,-12,-244,-78,196,29,-10
7765,-15,-244,-83,195,28,-8
7770,-16,-245,-91,190,28,-6
7775,-18,-244,-90,178,29,-4
7780,-15,-246,-98,160,33,-2
7785,-18,-247,-92,142,37,1
7790,-15,-248,-89,126,39,5
7795,-15,-247,-89,116,42,7
7800,-19,-249,-86,108,46,10
7805,-15,-249,-84,103,51,13
7810,-14,-250,-84,99,56,15
7815,-15,-248,-85,100,61,17
7820,-15,-244,-83,100,65,18
7825,-16,-246,-83,98,70,18
7830,-17,-246,-82,97,73,18
7835,-17,-242,-78,97,75,15
7840,-17,-244,-73,98,75,16
7845,-17,-242,-71,98,75,14
7850,-18,-244,-71,100,73,10
7855,-19,-243,-69,103,72,6
7860,-16,-243,-72,109,72,1
7865,-19,-241,-73,110,72,-4
7870,-20,-243,-76,107,68,-9
7875,-19,-244,-73,100,63,-12
7880,-22,-245,-77,93,59,-15
7885,-17,-244,-81,86,56,-17
7890,-15,-247,-80,80,55,-15
7895,-17,-249,-70,73,54,-11
7900,-20,-251,-77,72,53,-7
7905,-19,-250,-75,75,52,-4
7910,-16,-250,-76,78,51,1
7915,-19,-251,-77,80,53,5
7920,-20,-248,-75,82,54,6
7925,-17,-249,-76,81,57,7
7930,-18,-248,-73,79,57,6
7935,-21,-247,-73,74,58,6
7940,-20,-248,-75,71,58,5
7945,-20,-248,-74,69,53,3
7950,-23,-246,-77,69,51,-1
7955,-24,-246,-82,69,49,-3
7960,-21,-246,-77,67,50,-5
7965,-23,-244,-80,65,52,-6
7970,-23,-246,-78,64,57,-7
7975,-21,-245,-81,62,58,-8
7980,-22,-244,-76,62,55,-8
7985,-20,-247,-73,66,52,-10
7990,-20,-241,-75,70,49,-12
7995,-22,-247,-72,71,44,-15
8000,-21,-244,-71,68,42,-16
8005,-27,-244,-65,65,40,-17
8010,-18,-250,-73,64,41,-17
8015,-17,-249,-71,63,43,-18
8020,-17,-248,-73,62,46,-19
8025,-17,-249,-72,61,48,-18
8030,-17,-252,-67,58,51,-18
8035,-17,-248,-68,59,51,-18
8040,-18,-249,-69,61,47,-19
8045,-18,-250,-70,64,44,-17
8050,-20,-249,-68,67,39,-15
8055,-20,-246,-74,71,36,-16
8060,-14,-252,-70,72,31,-16
8065,-20,-245,-70,70,25,-17
8070,-17,-243,-72,67,24,-18
8075,-21,-245,-72,62,22,-18
8080,-16,-245,-71,55,19,-18
8085,-21,-244,-75,48,21,-20
8090,-25,-244,-76,37,21,-24
8095,-23,-246,-74,23,20,-24
8100,-26,-246,-71,8,17,-25
8105,-21,-246,-70,-7,16,-26
8110,-26,-245,-70,-19,16,-24
8115,-34,-247,-69,-25,14,-23
8120,-33,-249,-59,-25,7,-24
8125,-34,-247,-68,-18,1,-24
8130,-15,-247,-71,-12,-5,-24
8135,-19,-240,-72,-4,-6,-26
8140,-33,-251,-69,2,-5,-26
8145,-23,-259,-78,4,-3,-24
8150,-32,-245,-81,5,-3,-24
8155,-22,-247,-85,1,0,-23
8160,-23,-247,-71,-5,4,-21
8165,-26,-252,-77,-9,5,-22
8170,-22,-247,-68,-9,2,-19
8175,-20,-248,-68,-6,-3,-17
8180,-19,-248,-68,-4,-9,-17
8185,-23,-247,-70,-4,-14,-18
8190,-23,-250,-60,-2,-22,-18
8195,-35,-247,-80,-6,-25,-15
8200,-21,-225,-72,-13,-27,-14
8205,-21,-243,-56,-21,-29,-13
8210,-27,-241,-76,-29,-31,-13
8215,-20,-245,-77,-35,-34,-13
8220,-20,-242,-68,-40,-33,-12
8225,-21,-246,-65,-43,-32,-10
8230,-22,-249,-65,-44,-35,-12
8235,-19,-247,-75,-43,-38,-14
8240,-31,-242,-53,-42,-41,-11
8245,-27,-249,-71,-37,-44,-9
8250,-23,-250,-74,-36,-45,-5
8255,-25,-249,-71,-36,-45,-5
8260,-26,-249,-72,-35,-49,-5
8265,-29,-251,-66,-34,-53,-5
8270,-38,-249,-65,-34,-56,-5
8275,-32,-251,-73,-33,-59,-2
8280,-22,-253,-78,-31,-63,-3
8285,-39,-256,-62,-25,-66,-2
8290,-17,-243,-59,-16,-68,-3
8295,-17,-245,-69,-6,-67,-4
8300,-33,-253,-69,4,-65,-3
8305,-19,-250,-74,10,-62,-1
8310,-18,-253,-71,14,-58,-1
8315,-16,-232,-79,13,-54,-3
8320,-21,-246,-73,13,-50,-6
8325,-19,-248,-74,13,-47,-5
8330,-19,-241,-75,12,-45,-7
8335,-19,-245,-75,9,-45,-6
8340,-18,-242,-74,6,-47,-5
8345,-22,-248,-67,0,-48,-7
8350,-19,-247,-77,-6,-49,-5
8355,-16,-236,-67,-13,-49,-5
8360,-7,-242,-73,-17,-49,-5
8365,-22,-245,-70,-19,-49,-3
8370,-25,-251,-66,-22,-47,-2
8375,-16,-248,-72,-23,-45,-4
8380,-20,-246,-69,-22,-46,-3
8385,-16,-250,-60,-20,-45,-3
8390,-20,-243,-67,-17,-42,-3
8395,-12,-246,-62,-13,-39,-4
8400,-20,-247,-67,-11,-33,-6
8405,-20,-245,-65,-9,-29,-7
8410,-19,-247,-65,-5,-26,-8
8415,-16,-253,-68,-4,-23,-8
8420,-20,-250,-70,-3,-21,-9
8425,-26,-248,-50,-2,-19,-10
8430,-32,-248,-74,2,-15,-10
8435,-33,-248,-65,8,-14,-10
8440,-22,-252,-62,13,-11,-6
8445,-26,-250,-83,17,-10,-4
8450,-9,-260,-70,22,-7,-3
8455,-27,-255,-74,26,-5,-3
8460,-19,-255,-75,31,-3,-4
8465,-18,-258,-67,36,2,-2
8470,-25,-249,-63,39,4,-1
8475,-17,-251,-69,43,8,-1
8480,-20,-248,-71,49,12,1
8485,-18,-247,-72,55,16,0
8490,-15,-248,-71,60,24,0
8495,-24,-254,-58,63,31,0
8500,-17,-241,-64,61,39,-1
8505,-12,-242,-72,56,46,-1
8510,-20,-241,-68,53,49,-1
8515,-21,-255,-72,51,54,0
8520,-23,-251,-66,47,60,4
8525,-6,-263,-74,43,65,7
8530,-16,-246,-73,43,72,8
8535,-23,-249,-81,42,76,10
8540,-10,-257,-49,44,75,10
8545,-31,-243,-58,43,78,12
8550,-23,-243,-79,41,78,11
8555,-20,-248,-70,39,83,10
8560,-18,-250,-65,38,86,9
8565,-19,-248,-70,42,91,6
8570,-23,-249,-69,45,95,4
8575,-18,-247,-63,49,99,3
8580,-23,-246,-68,50,100,1
8585,-14,-244,-71,50,101,2
8590,-21,-251,-69,48,100,2
8595,-30,-257,-60,43,97,2
8600,-23,-249,-67,40,93,3
8605,-24,-248,-68,37,87,4
8610,-20,-248,-69,35,85,6
8615,-23,-248,-71,33,82,8
8620,-19,-251,-69,28,80,12
8625,-20,-249,-68,20,83,12
8630,-19,-250,-66,14,83,14
8635,-21,-249,-63,14,81,19
8640,-20,-248,-59,17,78,18
8645,-20,-247,-68,20,76,19
8650,-22,-246,-65,18,74,17
8655,-24,-246,-64,15,75,14
8660,-26,-246,-67,8,73,12
8665,-22,-245,-65,1,71,11
8670,-22,-243,-66,-9,70,10
8675,-27,-244,-66,-20,69,9
8680,-27,-245,-64,-32,64,8
8685,-25,-244,-65,-42,61,7
8690,-26,-244,-59,-53,59,7
8695,-21,-247,-63,-61,60,8
8700,-25,-248,-66,-67,60,9
8705,-21,-249,-63,-70,58,11
8710,-26,-250,-61,-64,56,11
8715,-25,-248,-62,-55,51,14
8720,-22,-249,-64,-45,48,15
8725,-24,-248,-61,-36,41,13
8730,-25,-245,-64,-33,38,12
8735,-24,-247,-65,-34,37,11
8740,-26,-246,-65,-39,37,8
8745,-28,-246,-68,-43,35,4
8750,-25,-246,-72,-48,33,1
8755,-22,-249,-74,-55,35,1
8760,-26,-247,-69,-64,39,0
8765,-28,-248,-67,-73,41,2
8770,-32,-241,-67,-76,40,2
8775,-24,-251,-69,-73,39,4
8780,-25,-250,-68,-69,36,7
8785,-23,-251,-67,-65,32,11
8790,-25,-250,-69,-60,28,14
8795,-19,-250,-67,-57,25,18
8800,-19,-249,-64,-56,24,20
8805,-22,-248,-64,-61,22,21
8810,-22,-249,-67,-66,19,21
8815,-23,-247,-68,-70,17,22
8820,-21,-248,-66,-75,17,21
8825,-22,-244,-70,-78,18,22
8830,-21,-245,-71,-85,22,20
8835,-19,-243,-73,-97,27,19
8840,-22,-243,-73,-109,32,16
8845,-20,-245,-72,-123,41,17
8850,-16,-246,-66,-135,50,17
8855,-16,-247,-69,-141,58,15
8860,-14,-248,-67,-142,65,15
8865,-16,-248,-69,-141,70,14
8870,-18,-247,-69,-142,73,14
8875,-14,-245,-72,-143,76,13
8880,-10,-248,-69,-148,77,13
8885,-8,-246,-70,-157,82,9
8890,-11,-246,-70,-171,90,6
8895,-9,-248,-71,-187,100,0
8900,-7,-250,-73,-200,112,-9
8905,-7,-255,-78,-206,128,-20
8910,-5,-259,-73,-206,144,-34
8915,-9,-260,-75,-205,160,-45
8920,-5,-260,-72,-204,173,-60
8925,-4,-260,-78,-204,190,-74
8930,-3,-261,-77,-204,210,-86
8935,-4,-260,-74,-203,230,-97
8940,-8,-257,-69,-197,245,-106
8945,-11,-256,-68,-188,249,-113
8950,-14,-257,-68,-181,247,-117
8955,-16,-255,-64,-177,241,-119
8960,-19,-255,-61,-173,228,-117
8965,-19,-251,-58,-168,220,-113
8970,-17,-251,-66,-161,214,-104
8975,-22,-250,-65,-152,215,-95
8980,-17,-248,-69,-145,222,-81
8985,-16,-247,-67,-136,230,-67
8990,-17,-243,-69,-129,239,-51
8995,-13,-243,-68,-124,247,-35
9000,-13,-241,-67,-119,254,-20
9005,-10,-241,-71,-120,258,-6
9010,-5,-238,-72,-124,261,6
9015,-5,-236,-70,-129,264,16
9020,-4,-236,-72,-133,268,29
9025,-4,-240,-68,-138,271,37
9030,0,-240,-70,-139,272,47
9035,3,-237,-71,-136,276,56
9040,2,-239,-71,-130,280,63
9045,2,-238,-71,-126,288,69
9050,1,-237,-71,-123,292,76
9055,4,-241,-74,-123,295,81
9060,2,-245,-73,-126,294,87
9065,-1,-248,-73,-125,289,91
9070,0,-251,-72,-120,283,91
9075,-4,-255,-75,-115,275,90
9080,-4,-258,-75,-107,274,90
9085,-9,-258,-81,-97,281,89
9090,-10,-261,-82,-85,291,87
9095,-10,-265,-89,-73,302,85
9100,-16,-261,-84,-64,310,83
9105,-16,-263,-82,-58,315,82
9110,-22,-258,-82,-57,317,80
9115,-22,-256,-83,-59,311,79
9120,-24,-257,-80,-59,305,80
9125,-29,-257,-78,-53,296,81
9130,-27,-256,-74,-41,286,86
9135,-26,-256,-76,-26,277,90
9140,-28,-253,-72,-11,270,92
9145,-28,-251,-76,-1,263,97
9150,-25,-248,-75,4,256,106
9155,-26,-244,-80,3,248,114
9160,-21,-245,-77,-4,240,123
9165,-24,-247,-74,-12,232,130
9170,-24,-246,-81,-19,223,136
9175,-26,-247,-82,-26,214,135
9180,-25,-247,-75,-29,202,132
9185,-21,-247,-81,-35,184,128
9190,-24,-248,-75,-41,166,122
9195,-26,-250,-81,-48,153,113
9200,-23,-246,-77,-51,140,105
9205,-26,-247,-79,-51,131,94
9210,-26,-247,-79,-48,127,83
9215,-25,-247,-80,-43,124,72
9220,-28,-244,-78,-39,124,59
9225,-24,-246,-78,-36,125,49
9230,-28,-244,-79,-31,123,39
9235,-25,-241,-81,-27,119,30
9240,-28,-238,-75,-20,114,22
9245,-29,-235,-82,-13,109,12
9250,-31,-229,-81,-7,104,4
9255,-34,-233,-81,-1,96,-3
9260,-29,-235,-79,4,90,-11
9265,-31,-232,-81,8,81,-20
9270,-33,-231,-79,14,74,-26
9275,-32,-227,-80,19,72,-33
9280,-32,-227,-82,21,72,-40
9285,-29,-233,-80,20,73,-45
9290,-29,-232,-76,16,75,-51
9295,-27,-234,-80,15,77,-56
9300,-28,-239,-81,16,79,-60
9305,-26,-240,-75,14,78,-62
9310,-29,-241,-77,18,76,-65
9315,-23,-246,-78,24,72,-67
9320,-26,-246,-81,28,67,-68
9325,-24,-247,-80,33,62,-65
9330,-25,-247,-81,37,58,-62
9335,-23,-248,-81,38,55,-61
9340,-25,-251,-78,37,53,-59
9345,-24,-249,-80,36,49,-59
9350,-29,-253,-81,36,45,-56
9355,-23,-257,-81,40,43,-56
9360,-25,-257,-78,46,41,-55
9365,-30,-261,-80,55,40,-54
9370,-27,-260,-79,68,42,-52
9375,-30,-261,-79,86,42,-50
9380,-29,-258,-72,103,45,-49
9385,-27,-257,-74,121,51,-45
9390,-27,-255,-72,136,58,-44
9395,-24,-252,-72,146,65,-40
9400,-25,-250,-68,149,72,-39
9405,-26,-246,-71,148,73,-37
9410,-25,-243,-75,142,73,-37
9415,-22,-245,-72,132,69,-35
9420,-24,-241,-69,122,67,-34
9425,-23,-243,-70,112,68,-31
9430,-21,-236,-77,104,67,-30
9435,-23,-237,-74,95,65,-24
9440,-22,-241,-76,86,68,-20
9445,-24,-241,-75,80,70,-17
9450,-26,-238,-75,74,71,-13
9455,-21,-243,-73,66,71,-8
9460,-24,-243,-75,57,72,-5
9465,-22,-244,-79,48,75,-3
9470,-21,-244,-75,38,79,1
9475,-21,-246,-73,34,80,0
9480,-23,-245,-72,32,81,1
9485,-24,-247,-74,32,82,-1
9490,-24,-248,-71,31,80,-2
9495,-24,-249,-73,31,80,-7
9500,-23,-250,-72,35,80,-9
9505,-21,-250,-74,39,76,-15
9510,-25,-250,-71,48,76,-18
9515,-21,-249,-74,57,74,-22
9520,-21,-250,-73,63,78,-24
9525,-22,-248,-76,68,85,-27
9530,-29,-244,-73,71,93,-27
9535,-22,-248,-72,71,96,-25
9540,-24,-248,-69,72,97,-22
9545,-23,-248,-72,72,95,-20
9550,-23,-246,-75,73,90,-18
9555,-24,-245,-71,75,85,-16
9560,-25,-247,-71,77,81,-15
9565,-23,-246,-72,78,77,-12
9570,-21,-247,-69,78,72,-10
9575,-19,-248,-74,79,68,-9
9580,-21,-245,-73,80,66,-7
9585,-18,-243,-73,73,62,-6
9590,-13,-246,-71,65,63,-3
9595,-18,-247,-72,54,63,0
9600,-17,-246,-75,45,63,0
9605,-18,-246,-73,38,65,-1
9610,-18,-248,-78,35,67,-1
9615,-18,-248,-70,30,68,-3
9620,-17,-248,-74,28,69,-2
9625,-18,-247,-70,28,69,-2
9630,-18,-248,-70,29,69,-5
9635,-16,-248,-71,33,66,-6
9640,-17,-242,-73,37,62,-8
9645,-22,-248,-65,42,61,-10
9650,-21,-251,-67,48,57,-12
9655,-20,-247,-68,52,54,-15
9660,-21,-248,-68,54,51,-14
9665,-21,-246,-68,52,48,-15
9670,-20,-248,-74,52,44,-18
9675,-21,-247,-71,51,41,-20
9680,-23,-245,-69,53,41,-22
9685,-22,-244,-72,51,43,-24
9690,-19,-245,-69,45,42,-24
9695,-21,-247,-73,38,43,-23
9700,-18,-248,-70,33,42,-23
9705,-23,-249,-68,32,42,-20
9710,-22,-251,-67,35,40,-20
9715,-23,-253,-68,41,35,-20
9720,-24,-252,-71,53,30,-19
9725,-18,-251,-68,64,24,-17
9730,-22,-252,-70,71,19,-15
9735,-21,-249,-70,71,16,-15
9740,-23,-246,-69,69,14,-13
9745,-24,-249,-69,65,12,-12
9750,-21,-248,-65,59,11,-12
9755,-21,-247,-70,53,10,-12
9760,-22,-248,-69,48,8,-14
9765,-22,-246,-65,42,7,-15
9770,-23,-247,-64,40,9,-15
9775,-21,-249,-71,36,12,-17
9780,-21,-248,-66,35,14,-18
9785,-21,-248,-67,36,14,-17
9790,-16,-248,-67,35,14,-19
9795,-18,-248,-69,37,17,-19
9800,-20,-248,-66,39,15,-19
9805,-17,-249,-66,41,13,-19
9810,-20,-248,-68,45,10,-19
9815,-22,-246,-63,48,7,-20
9820,-23,-246,-68,51,3,-20
9825,-20,-247,-67,53,-1,-20
9830,-20,-245,-64,52,-2,-19
9835,-19,-248,-68,50,-2,-18
9840,-18,-247,-66,44,-2,-17
9845,-21,-248,-68,36,-1,-16
9850,-23,-247,-71,28,-4,-14
9855,-17,-247,-64,20,-7,-14
9860,-21,-250,-68,16,-9,-10
9865,-21,-249,-70,13,-11,-9
9870,-21,-250,-68,16,-12,-8
9875,-20,-250,-68,21,-12,-6
9880,-20,-252,-63,25,-12,-6
9885,-20,-248,-65,29,-11,-3
9890,-18,-248,-69,33,-10,-3
9895,-17,-250,-69,35,-10,-2
9900,-22,-244,-69,37,-9,-3
9905,-17,-249,-67,37,-7,-4
9910,-19,-249,-64,37,-8,-5
9915,-19,-250,-63,37,-8,-6
9920,-19,-249,-66,38,-10,-6
9925,-20,-250,-66,39,-10,-8
9930,-22,-247,-65,35,-10,-9
9935,-19,-247,-73,29,-8,-8
9940,-22,-248,-67,23,-4,-6
9945,-21,-247,-71,15,-1,-5
9950,-20,-247,-66,10,1,-2
9955,-18,-249,-72,6,1,-1
9960,-19,-249,-71,3,2,-1
9965,-13,-250,-70,5,2,-1
9970,-17,-249,-69,8,1,-2
9975,-19,-251,-68,12,1,-1
9980,-20,-250,-68,17,0,-3
9985,-21,-249,-69,20,-2,-5
9990,-22,-252,-65,21,-3,-7
9995,-21,-252,-68,22,-4,-10
10000,-18,-251,-70,23,-2,-10
10005,-20,-252,-71,25,2,-10
10010,-23,-251,-70,25,4,-7
10015,-25,-249,-66,24,5,-4
10020,-21,-247,-72,19,7,0
10025,-22,-248,-72,13,8,3
10030,-19,-246,-76,6,6,7
10035,-23,-244,-73,-1,5,11
10040,-18,-247,-71,-3,5,15
10045,-19,-247,-68,0,5,17
10050,-18,-248,-69,3,4,18
10055,-18,-245,-69,2,2,18
10060,-17,-245,-71,0,2,19
10065,-19,-245,-72,-3,4,17
10070,-16,-248,-65,-4,7,16
10075,-14,-243,-70,-9,9,16
10080,-18,-248,-66,-12,10,14
10085,-20,-249,-66,-17,9,14
10090,-18,-248,-62,-17,9,13
10095,-16,-251,-67,-14,9,10
10100,-19,-248,-63,-8,13,9
10105,-16,-248,-69,-5,16,9
10110,-17,-249,-69,-5,21,8
10115,-18,-247,-68,-4,23,9
10120,-16,-248,-70,-7,29,8
10125,-17,-246,-71,-10,32,7
10130,-14,-246,-70,-14,35,9
10135,-17,-248,-71,-21,39,11
10140,-15,-248,-67,-27,43,12
10145,-17,-248,-70,-31,44,12
10150,-15,-250,-69,-27,45,11
10155,-19,-249,-67,-21,45,10
10160,-20,-248,-70,-11,46,11
10165,-20,-249,-67,-2,46,11
10170,-16,-248,-69,4,48,10
10175,-17,-248,-68,5,52,9
10180,-16,-248,-68,4,55,9
10185,-18,-252,-74,-1,58,9
10190,-17,-249,-64,-4,60,8
10195,-17,-249,-71,-10,60,7
10200,-18,-249,-69,-10,62,4
10205,-19,-250,-72,-10,64,3
10210,-19,-247,-71,-10,66,4
10215,-20,-245,-73,-12,66,3
10220,-19,-248,-71,-14,70,2
10225,-19,-248,-74,-16,73,2
10230,-17,-245,-71,-19,73,2
10235,-15,-245,-65,-19,76,4
10240,-20,-247,-68,-17,74,5
10245,-18,-246,-69,-13,72,4
10250,-17,-247,-68,-9,67,4
10255,-18,-244,-69,-8,63,3
10260,-16,-249,-67,-9,61,3
10265,-18,-248,-72,-12,63,2
10270,-19,-248,-68,-18,65,1
10275,-19,-248,-67,-22,70,-1
10280,-18,-246,-66,-25,76,-1
10285,-19,-248,-69,-29,80,2
10290,-16,-249,-63,-31,84,2
10295,-18,-248,-68,-29,88,3
10300,-19,-249,-67,-27,89,3
10305,-18,-248,-70,-24,88,5
10310,-18,-249,-68,-21,88,4
10315,-18,-249,-66,-20,85,4
10320,-17,-249,-64,-20,85,2
10325,-16,-251,-64,-21,89,3
10330,-14,-247,-64,-20,92,3
10335,-16,-250,-66,-17,94,2
10340,-15,-247,-65,-16,95,4
10345,-16,-247,-66,-16,97,4
10350,-14,-250,-67,-18,101,3
10355,-15,-249,-66,-21,102,0
10360,-15,-249,-64,-23,104,-2
10365,-17,-249,-64,-24,105,-4
10370,-15,-250,-65,-28,107,-5
10375,-15,-251,-64,-30,111,-7
10380,-18,-253,-69,-29,111,-5
10385,-19,-251,-71,-26,115,-7
10390,-20,-252,-64,-21,113,-7
10395,-19,-249,-67,-17,113,-8
10400,-19,-242,-68,-15,112,-6
10405,-20,-250,-66,-15,112,-6
10410,-17,-248,-65,-16,111,-6
10415,-17,-250,-65,-16,110,-4
10420,-20,-250,-65,-16,111,-4
10425,-19,-247,-67,-17,112,-2
10430,-17,-248,-61,-18,115,-3
10435,-19,-247,-64,-22,118,-2
10440,-17,-248,-64,-23,120,-2
10445,-21,-249,-66,-24,122,-1
10450,-17,-248,-66,-24,125,0
10455,-19,-248,-63,-21,127,0
10460,-20,-248,-64,-14,123,-1
10465,-17,-248,-59,-9,118,-2
10470,-20,-247,-63,-8,113,-1
10475,-19,-247,-63,-11,109,-2
10480,-18,-252,-66,-14,106,-4
10485,-19,-252,-66,-16,102,-7
10490,-24,-252,-65,-16,101,-7
10495,-23,-250,-67,-13,103,-9
10500,-20,-251,-63,-10,104,-9
10505,-19,-253,-66,-6,107,-9
10510,-21,-248,-65,-4,110,-9
10515,-21,-248,-65,0,110,-9
10520,-22,-250,-63,3,108,-9
10525,-18,-248,-64,4,104,-9
10530,-20,-249,-65,4,100,-8
10535,-20,-248,-62,3,95,-8
10540,-23,-249,-65,1,91,-9
10545,-21,-248,-68,0,86,-9
10550,-22,-248,-67,3,83,-8
10555,-23,-248,-66,6,83,-7
10560,-20,-247,-65,10,86,-8
10565,-21,-247,-61,17,88,-8
10570,-19,-246,-58,22,89,-8
10575,-17,-249,-60,23,89,-8
10580,-21,-248,-60,19,88,-7
10585,-20,-249,-62,12,87,-8
10590,-21,-250,-62,5,86,-10
10595,-18,-250,-65,0,86,-11
10600,-18,-255,-64,-4,87,-11
10605,-20,-253,-67,-7,88,-12
10610,-20,-254,-64,-3,87,-14
10615,-17,-257,-58,4,90,-16
10620,-21,-249,-69,12,88,-16
10625,-24,-248,-66,18,89,-15
10630,-19,-249,-67,19,89,-14
10635,-19,-246,-65,17,89,-14
10640,-20,-247,-62,11,88,-13
10645,-21,-247,-61,2,88,-12
10650,-20,-247,-65,-3,87,-12
10655,-18,-247,-64,-4,85,-12
10660,-18,-248,-62,-6,81,-12
10665,-22,-248,-60,-9,78,-11
10670,-21,-248,-66,-16,74,-11
10675,-24,-246,-67,-21,72,-10
10680,-24,-249,-63,-24,68,-10
10685,-24,-250,-67,-24,61,-11
10690,-22,-249,-67,-19,59,-11
10695,-21,-250,-67,-14,57,-9
10700,-23,-252,-66,-7,59,-8
10705,-20,-254,-65,-3,62,-8
10710,-22,-249,-66,1,65,-7
10715,-17,-252,-65,0,67,-6
10720,-19,-250,-68,-2,69,-5
10725,-23,-243,-69,-6,69,-4
10730,-21,-250,-67,-9,69,-2
10735,-19,-250,-67,-8,71,-2
10740,-18,-247,-64,-6,73,-3
10745,-20,-249,-64,0,74,-1
10750,-20,-249,-65,8,75,-2
10755,-20,-249,-65,14,73,-4
10760,-23,-247,-62,18,70,-3
10765,-18,-248,-64,17,67,-6
10770,-23,-247,-60,11,66,-6
10775,-19,-248,-60,5,62,-7
10780,-20,-248,-62,1,63,-8
10785,-21,-245,-60,-7,62,-8
10790,-23,-248,-59,-12,62,-7
10795,-20,-247,-57,-17,62,-7
10800,-20,-249,-60,-18,59,-6
10805,-20,-252,-60,-17,58,-4
10810,-19,-250,-60,-18,56,-3
10815,-21,-252,-66,-17,57,-2
10820,-24,-248,-63,-18,54,-2
10825,-23,-248,-61,-19,53,-1
10830,-19,-249,-64,-18,51,0
10835,-22,-249,-69,-18,49,1
10840,-20,-251,-67,-17,47,1
10845,-20,-248,-65,-16,48,3
10850,-24,-247,-66,-14,50,4
10855,-22,-249,-68,-13,51,4
10860,-23,-249,-68,-11,53,5
10865,-22,-250,-63,-11,52,6
10870,-22,-250,-66,-10,50,6
10875,-22,-249,-65,-8,47,6
10880,-20,-249,-63,-9,44,7
10885,-20,-248,-61,-13,42,8
10890,-19,-247,-65,-17,41,7
10895,-22,-247,-62,-20,40,7
10900,-20,-248,-62,-23,37,5
10905,-24,-247,-63,-25,38,5
10910,-23,-249,-63,-24,40,4
10915,-23,-249,-60,-24,41,3
10920,-23,-247,-61,-23,43,4
10925,-21,-247,-64,-21,45,3
10930,-21,-249,-60,-21,47,2
10935,-20,-248,-64,-24,45,2
10940,-21,-248,-68,-26,45,1
10945,-22,-248,-61,-28,45,1
10950,-21,-251,-60,-32,44,0
10955,-21,-250,-67,-32,42,1
10960,-20,-250,-64,-30,41,0
10965,-21,-250,-63,-27,40,2
10970,-19,-249,-64,-24,40,2
10975,-19,-250,-66,-22,40,4
10980,-23,-251,-65,-21,39,5
10985,-21,-248,-69,-20,39,5
10990,-23,-248,-67,-22,41,5
10995,-18,-248,-67,-26,42,5
11000,-22,-248,-68,-30,43,4
11005,-21,-249,-70,-31,41,3
11010,-25,-248,-64,-30,41,3
11015,-18,-251,-64,-25,39,3
11020,-23,-249,-63,-19,38,2
11025,-24,-250,-65,-13,39,2
11030,-18,-249,-66,-8,38,1
11035,-21,-250,-68,-5,39,0
11040,-20,-249,-65,-7,39,-2
11045,-22,-248,-65,-8,43,-2
11050,-21,-248,-64,-11,45,-3
11055,-25,-251,-61,-15,47,-2
11060,-20,-248,-65,-17,49,-2
11065,-17,-248,-66,-22,48,-1
11070,-22,-250,-66,-25,47,1
11075,-21,-247,-64,-30,47,0
11080,-22,-249,-67,-32,49,0
11085,-22,-247,-65,-31,49,1
11090,-23,-248,-66,-31,51,3
11095,-19,-251,-64,-31,52,4
11100,-21,-247,-69,-28,54,4
11105,-21,-247,-66,-22,56,5
11110,-20,-248,-66,-17,55,7
11115,-20,-247,-66,-16,54,8
11120,-21,-247,-66,-16,55,8
11125,-19,-244,-68,-18,55,10
11130,-21,-247,-64,-21,55,10
11135,-22,-247,-67,-22,55,8
11140,-22,-245,-65,-24,52,5
11145,-20,-249,-63,-25,52,4
11150,-23,-247,-67,-26,52,0
11155,-20,-249,-61,-23,52,0
11160,-20,-249,-63,-22,55,-3
11165,-17,-251,-60,-19,56,-4
11170,-22,-248,-65,-17,57,-6
11175,-21,-249,-65,-16,58,-6
11180,-19,-249,-64,-16,59,-7
11185,-19,-251,-67,-16,60,-7
11190,-17,-252,-65,-14,62,-8
11195,-20,-250,-65,-13,65,-7
11200,-20,-245,-62,-12,67,-7
11205,-20,-247,-66,-13,69,-5
11210,-18,-248,-65,-15,74,-4
11215,-19,-248,-68,-16,75,-1
11220,-20,-248,-65,-17,76,-1
11225,-22,-246,-66,-18,76,0
11230,-20,-248,-66,-19,75,0
11235,-20,-249,-68,-23,73,0
11240,-21,-250,-70,-26,72,-1
11245,-22,-249,-65,-29,71,-2
11250,-23,-249,-63,-29,71,-1
11255,-22,-251,-62,-27,71,-3
11260,-21,-249,-67,-23,72,-4
11265,-20,-251,-63,-19,72,-4
11270,-17,-249,-64,-16,76,-4
11275,-19,-248,-69,-16,80,-3
11280,-19,-250,-63,-16,85,-4
11285,-21,-248,-66,-18,86,-2
11290,-22,-248,-65,-19,91,-1
11295,-19,-249,-64,-19,91,-1
11300,-19,-248,-66,-16,91,-3
11305,-16,-249,-65,-15,89,-2
11310,-19,-249,-67,-14,90,-3
11315,-19,-248,-65,-14,92,-2
11320,-19,-251,-70,-15,92,-2
11325,-21,-248,-70,-19,93,-2
11330,-21,-247,-69,-23,94,-1
11335,-20,-246,-61,-26,93,-1
11340,-20,-248,-65,-28,92,0
11345,-21,-248,-68,-29,90,0
11350,-23,-247,-67,-29,86,0
11355,-20,-247,-67,-30,82,0
11360,-20,-246,-62,-33,78,1
11365,-21,-247,-66,-38,78,3
11370,-18,-247,-63,-40,77,2
11375,-22,-248,-64,-39,77,1
11380,-24,-248,-64,-36,77,3
11385,-19,-248,-68,-34,77,4
11390,-20,-249,-65,-33,78,5
11395,-20,-251,-70,-34,80,6
11400,-21,-249,-67,-35,79,7
11405,-16,-253,-69,-36,81,6
11410,-18,-249,-67,-36,81,5
11415,-18,-252,-66,-35,81,6
11420,-21,-249,-64,-35,81,7
11425,-18,-251,-63,-33,81,6
11430,-21,-251,-63,-32,81,6
11435,-21,-250,-68,-30,79,3
11440,-20,-250,-65,-24,78,2
11445,-21,-249,-62,-19,78,1
11450,-19,-250,-61,-13,79,1
11455,-19,-250,-65,-10,80,0
11460,-20,-249,-64,-7,81,-2
11465,-20,-248,-67,-8,81,-1
11470,-19,-247,-60,-10,82,-1
11475,-17,-248,-68,-14,82,0
11480,-18,-251,-66,-20,82,1
11485,-21,-249,-64,-24,80,-1
11490,-21,-248,-66,-30,78,-2
11495,-20,-250,-65,-33,79,-1
11500,-21,-248,-64,-36,78,0
11505,-18,-250,-68,-38,80,-2
11510,-21,-249,-67,-39,79,-3
11515,-20,-248,-66,-38,79,-2
11520,-17,-250,-66,-37,80,-2
11525,-20,-250,-64,-36,81,-4
11530,-20,-248,-62,-34,81,-4
11535,-20,-252,-68,-31,79,-3
11540,-22,-248,-62,-29,77,-2
11545,-20,-248,-63,-28,75,-2
11550,-18,-249,-65,-26,74,0
11555,-19,-252,-65,-25,74,-1
11560,-21,-249,-61,-24,75,0
11565,-19,-248,-67,-21,76,0
11570,-22,-248,-66,-19,75,0
11575,-21,-248,-67,-19,76,0
11580,-20,-248,-68,-17,77,-1
11585,-19,-247,-70,-18,77,-2
11590,-20,-249,-67,-20,78,-2
11595,-21,-248,-62,-24,81,-1
11600,-18,-254,-65,-26,81,0
11605,-20,-249,-68,-29,80,-2
11610,-19,-248,-62,-30,78,-2
11615,-17,-247,-66,-29,80,-2
11620,-20,-250,-67,-28,78,-2
11625,-20,-247,-68,-28,78,-2
11630,-20,-249,-69,-28,78,-3
11635,-22,-247,-67,-29,79,-2
11640,-20,-249,-66,-29,78,-2
11645,-21,-250,-67,-31,80,0
11650,-20,-248,-66,-32,79,2
11655,-22,-249,-69,-33,77,1
11660,-22,-251,-70,-34,76,1
11665,-18,-247,-69,-35,75,2
11670,-20,-248,-68,-34,75,3
11675,-22,-246,-66,-34,74,3
11680,-21,-249,-68,-34,76,2
11685,-19,-249,-66,-34,76,1
11690,-22,-248,-71,-35,78,1
11695,-21,-247,-66,-34,78,0
11700,-22,-248,-67,-34,77,1
11705,-22,-249,-65,-36,75,-1
11710,-19,-252,-63,-37,72,-2
11715,-21,-251,-69,-37,72,-3
11720,-18,-250,-69,-35,70,-3
11725,-22,-250,-65,-34,70,-2
11730,-21,-249,-65,-32,70,-2
11735,-19,-250,-68,-29,70,-1
11740,-19,-248,-68,-27,71,-1
11745,-22,-248,-70,-26,74,-1
11750,-20,-248,-70,-27,75,0
11755,-20,-247,-67,-30,74,0
11760,-20,-249,-73,-33,75,1
11765,-22,-249,-72,-37,75,1
11770,-18,-247,-70,-38,75,0
11775,-23,-249,-69,-39,73,2
11780,-23,-248,-66,-37,70,3
11785,-22,-247,-66,-34,69,3
11790,-21,-247,-68,-32,69,4
11795,-24,-248,-71,-32,68,4
11800,-20,-248,-69,-30,68,6
11805,-17,-249,-69,-30,69,8
11810,-21,-247,-75,-31,68,8
11815,-19,-247,-71,-32,69,6
11820,-19,-249,-70,-34,70,5
11825,-21,-247,-66,-33,67,5
11830,-21,-247,-68,-35,64,3
11835,-23,-246,-71,-38,62,1
11840,-20,-248,-66,-40,62,-1
11845,-20,-246,-68,-45,62,-1
11850,-21,-248,-65,-48,63,-3
11855,-19,-246,-67,-47,66,-2
11860,-20,-247,-66,-44,68,0
11865,-22,-249,-69,-41,69,0
11870,-22,-249,-67,-36,70,3
11875,-21,-248,-73,-33,71,3
11880,-20,-248,-72,-33,73,5
11885,-22,-248,-69,-33,73,4
11890,-22,-250,-70,-33,75,5
11895,-20,-248,-69,-33,76,5
11900,-23,-249,-70,-33,76,5
11905,-22,-249,-69,-31,74,5
11910,-22,-250,-73,-29,73,5
11915,-20,-249,-68,-27,73,4
11920,-23,-248,-71,-26,73,4
11925,-26,-240,-75,-26,75,6
11930,-21,-249,-69,-26,73,4
11935,-20,-248,-71,-27,71,4
11940,-20,-248,-72,-31,68,4
11945,-20,-248,-71,-32,66,4
11950,-20,-248,-74,-33,64,4
11955,-21,-247,-69,-30,64,4
11960,-19,-247,-71,-28,63,6
11965,-19,-249,-69,-25,64,6
11970,-22,-248,-69,-23,63,6
11975,-21,-246,-67,-25,64,6
11980,-19,-250,-69,-27,65,6
11985,-22,-248,-67,-27,66,6
11990,-19,-249,-66,-27,68,4
11995,-21,-246,-70,-26,67,3
