timestamp,acc_x,acc_y,acc_z,gyro_x,gyro_y,gyro_z
0,9,-247,-79,-34,60,-4
5,8,-244,-79,-37,61,-2
10,11,-245,-79,-37,59,-4
15,10,-249,-78,-33,62,-3
20,9,-245,-79,-29,64,-5
25,10,-246,-79,-24,67,-2
30,9,-244,-80,-21,71,-4
35,9,-246,-82,-18,71,-3
40,9,-247,-77,-17,71,-4
45,11,-245,-77,-20,72,-1
50,8,-246,-77,-21,69,-4
55,7,-246,-76,-23,68,-2
60,11,-245,-79,-23,65,-5
65,11,-242,-79,-26,63,-4
70,7,-244,-81,-31,63,-5
75,10,-247,-82,-33,63,-3
80,10,-246,-78,-39,64,-7
85,9,-246,-85,-44,64,-6
90,11,-246,-81,-46,64,-7
95,10,-247,-82,-46,63,-4
100,13,-249,-80,-45,66,-5
105,9,-247,-83,-41,68,-4
110,13,-246,-83,-36,70,-5
115,8,-247,-78,-32,71,-4
120,10,-248,-83,-28,73,-4
125,11,-247,-79,-23,76,-4
130,12,-246,-81,-19,76,-3
135,9,-247,-75,-15,79,-2
140,7,-244,-78,-12,80,-2
145,11,-246,-78,-8,81,-1
150,9,-242,-79,-5,80,-2
155,10,-243,-79,-4,79,-2
160,8,-245,-81,-3,77,-1
165,8,-244,-76,-2,75,-1
170,10,-248,-76,-1,73,-3
175,7,-244,-79,-1,72,-3
180,11,-246,-80,-2,70,-2
185,8,-246,-82,-3,72,-4
190,8,-247,-81,-4,70,-3
195,10,-249,-82,-8,70,-3
200,11,-244,-82,-11,72,-5
205,9,-246,-77,-11,72,-5
210,6,-245,-78,-14,71,-5
215,10,-246,-78,-17,70,-5
220,9,-243,-79,-18,67,-4
225,9,-245,-79,-18,67,-4
230,8,-247,-81,-17,64,-2
235,11,-247,-81,-17,61,-2
240,11,-245,-73,-14,59,0
245,10,-248,-79,-13,59,-1
250,8,-247,-75,-10,59,2
255,11,-250,-75,-9,58,1
260,11,-249,-78,-8,58,1
265,7,-246,-77,-8,59,-1
270,9,-248,-81,-8,58,0
275,8,-248,-79,-10,59,-1
280,11,-246,-81,-13,60,-1
285,12,-247,-81,-14,64,-5
290,7,-246,-81,-14,66,-4
295,11,-245,-79,-16,69,-6
300,8,-242,-77,-15,71,-5
305,10,-245,-83,-15,73,-7
310,10,-244,-79,-17,72,-5
315,10,-245,-81,-19,70,-6
320,9,-245,-79,-22,71,-4
325,10,-243,-78,-22,68,-6
330,12,-246,-76,-24,66,-5
335,8,-246,-82,-26,65,-5
340,12,-247,-79,-27,64,-3
345,11,-248,-80,-27,62,-6
350,8,-245,-78,-25,60,-5
355,11,-248,-82,-23,58,-7
360,9,-246,-79,-19,56,-3
365,9,-247,-82,-16,55,-6
370,8,-243,-81,-14,55,-5
375,9,-244,-80,-11,55,-6
380,7,-246,-77,-8,56,-3
385,6,-245,-75,-6,58,-5
390,10,-245,-78,-7,58,-1
395,7,-245,-76,-8,57,-4
400,7,-249,-78,-9,56,-2
405,11,-247,-79,-10,55,-5
410,9,-248,-81,-13,53,-3
415,10,-248,-81,-14,52,-7
420,13,-248,-79,-14,51,-4
425,9,-248,-80,-15,51,-8
430,10,-245,-80,-17,51,-6
435,10,-247,-80,-18,52,-8
440,10,-247,-81,-18,53,-6
445,12,-245,-83,-20,54,-7
450,12,-247,-80,-20,55,-6
455,12,-247,-79,-18,56,-9
460,11,-246,-84,-17,55,-5
465,13,-246,-78,-15,55,-5
470,13,-246,-78,-15,56,-2
475,10,-244,-77,-15,54,-5
480,12,-245,-76,-14,54,-3
485,11,-245,-76,-14,55,-3
490,12,-244,-75,-16,54,0
495,10,-247,-79,-15,54,-2
500,7,-246,-79,-17,54,-1
505,8,-246,-75,-17,55,-3
510,12,-247,-78,-16,57,-1
515,12,-247,-76,-17,58,-4
520,10,-246,-75,-17,58,-3
525,8,-247,-80,-16,58,-5
530,8,-245,-82,-17,60,-4
535,9,-248,-79,-20,61,-6
540,11,-247,-80,-21,60,-6
545,10,-246,-78,-22,62,-6
550,11,-246,-83,-23,61,-5
555,11,-246,-80,-21,61,-6
560,10,-244,-83,-22,59,-4
565,10,-245,-81,-22,59,-5
570,12,-249,-77,-20,56,-3
575,8,-245,-77,-21,54,-4
580,11,-245,-79,-19,54,-3
585,10,-244,-80,-17,52,-2
590,10,-246,-78,-16,52,-2
595,9,-244,-78,-15,51,-2
600,10,-246,-76,-16,51,-2
605,9,-246,-80,-16,52,-2
610,9,-248,-78,-18,53,-1
615,8,-248,-81,-18,52,-5
620,12,-248,-85,-18,53,-3
625,12,-249,-77,-16,55,-4
630,9,-246,-79,-15,56,-6
635,10,-246,-75,-15,58,-7
640,12,-247,-82,-15,59,-7
645,9,-244,-80,-18,61,-8
650,12,-246,-77,-19,62,-9
655,11,-247,-79,-21,64,-9
660,12,-248,-77,-23,65,-7
665,12,-245,-82,-22,66,-7
670,12,-244,-83,-22,66,-7
675,11,-243,-82,-23,67,-4
680,11,-245,-79,-26,67,-5
685,8,-243,-81,-30,65,-3
690,13,-242,-82,-33,63,-3
695,11,-244,-82,-33,62,-2
700,13,-244,-79,-34,59,-2
705,10,-246,-80,-34,58,-1
710,8,-249,-79,-30,59,-1
715,9,-244,-77,-27,59,-2
720,10,-247,-75,-25,60,-1
725,9,-245,-80,-23,60,-1
730,12,-245,-75,-21,62,-3
735,9,-248,-78,-19,62,-2
740,12,-248,-77,-20,61,-4
745,14,-246,-76,-18,62,-3
750,9,-247,-80,-15,62,-5
755,10,-246,-77,-14,63,-3
760,9,-249,-82,-13,64,-4
765,9,-249,-77,-12,66,-4
770,11,-246,-82,-11,66,-4
775,10,-247,-77,-11,67,-3
780,9,-243,-79,-14,66,-4
785,10,-247,-78,-15,67,-3
790,10,-244,-81,-20,66,-5
795,10,-245,-77,-21,65,-3
800,9,-246,-82,-21,65,-5
805,11,-245,-83,-22,65,-3
810,10,-246,-78,-20,66,-4
815,11,-248,-81,-20,66,-2
820,11,-249,-81,-18,66,-3
825,10,-246,-83,-16,68,-1
830,9,-248,-80,-14,70,-1
835,7,-243,-83,-12,72,1
840,10,-246,-80,-9,73,-1
845,11,-248,-80,-9,75,1
850,9,-245,-80,-10,75,-2
855,13,-247,-83,-11,76,-1
860,11,-245,-78,-14,75,-4
865,10,-245,-82,-16,73,-2
870,11,-244,-77,-16,70,-3
875,9,-245,-79,-15,68,-2
880,10,-248,-76,-13,67,-4
885,10,-244,-81,-11,65,-3
890,10,-244,-81,-8,66,-3
895,9,-243,-80,-9,65,-2
900,7,-245,-81,-10,65,-4
905,10,-242,-77,-11,65,-2
910,7,-245,-79,-17,65,-4
915,10,-243,-79,-20,64,-1
920,7,-244,-76,-22,62,-3
925,10,-248,-79,-26,61,-1
930,10,-249,-81,-27,61,-5
935,11,-251,-79,-28,58,-3
940,10,-249,-80,-29,57,-6
945,11,-246,-80,-30,56,-3
950,11,-249,-78,-27,56,-6
955,10,-248,-78,-25,56,-4
960,9,-246,-82,-24,58,-7
965,12,-247,-80,-20,58,-4
970,8,-245,-81,-17,59,-6
975,11,-248,-81,-16,60,-4
980,9,-246,-81,-13,62,-6
985,8,-246,-79,-12,62,-3
990,11,-245,-79,-13,64,-6
995,9,-245,-79,-14,63,-3
1000,12,-246,-77,-14,62,-5
1005,11,-245,-80,-14,62,-4
1010,10,-245,-78,-12,59,-6
1015,12,-247,-78,-14,57,-3
1020,11,-247,-81,-13,57,-6
1025,11,-245,-76,-12,55,-4
1030,11,-244,-78,-14,58,-6
1035,13,-245,-80,-17,58,-5
1040,12,-245,-81,-20,61,-6
1045,11,-246,-79,-23,60,-6
1050,9,-241,-81,-25,61,-7
1055,12,-247,-80,-28,63,-6
1060,12,-244,-81,-28,64,-6
1065,8,-244,-78,-28,66,-4
1070,9,-244,-79,-27,67,-6
1075,9,-243,-81,-26,67,-5
1080,10,-245,-80,-21,70,-6
1085,10,-245,-83,-19,68,-5
1090,9,-245,-80,-17,70,-5
1095,11,-247,-80,-16,69,-3
1100,10,-245,-82,-17,65,-4
1105,10,-243,-81,-15,66,-5
1110,9,-246,-81,-17,65,-5
1115,9,-244,-81,-15,64,-6
1120,10,-247,-80,-16,62,-6
1125,11,-244,-81,-15,62,-5
1130,11,-245,-80,-15,62,-6
1135,10,-248,-79,-17,60,-6
1140,12,-247,-80,-17,58,-5
1145,10,-245,-83,-16,57,-5
1150,11,-248,-75,-16,56,-7
1155,9,-248,-80,-14,55,-7
1160,9,-246,-81,-12,54,-5
1165,11,-248,-78,-11,56,-5
1170,9,-244,-81,-10,58,-6
1175,9,-246,-79,-9,57,-4
1180,9,-245,-84,-10,57,-3
1185,11,-247,-78,-11,57,-3
1190,9,-241,-82,-10,58,-2
1195,10,-247,-79,-11,55,-2
1200,8,-245,-78,-10,54,-2
1205,12,-248,-80,-9,51,-3
1210,10,-247,-75,-8,49,-3
1215,7,-247,-78,-7,48,-3
1220,10,-245,-83,-6,47,-2
1225,11,-244,-79,-5,49,-3
1230,12,-246,-79,-5,51,-2
1235,10,-246,-81,-5,52,-3
1240,8,-241,-81,-7,51,-2
1245,10,-243,-78,-6,51,-2
1250,9,-244,-82,-6,51,-3
1255,9,-244,-72,-6,51,-4
1260,8,-242,-76,-7,51,-2
1265,13,-243,-80,-9,50,-3
1270,11,-244,-79,-13,49,-2
1275,11,-242,-79,-17,46,-5
1280,10,-243,-77,-24,45,-3
1285,11,-245,-76,-26,45,-4
1290,14,-247,-82,-29,43,-3
1295,12,-248,-82,-32,42,-4
1300,9,-247,-78,-31,41,-1
1305,11,-251,-78,-30,41,-3
1310,10,-249,-80,-30,42,0
1315,12,-249,-83,-27,43,-3
1320,9,-247,-80,-26,43,0
1325,12,-248,-79,-23,46,-3
1330,10,-249,-79,-19,46,-3
1335,9,-246,-82,-18,47,-4
1340,12,-247,-78,-13,49,0
1345,10,-247,-86,-12,51,-2
1350,8,-244,-82,-8,51,1
1355,10,-245,-79,-4,54,-1
1360,12,-245,-81,-2,56,2
1365,7,-244,-79,-2,56,0
1370,10,-245,-78,-2,57,2
1375,8,-245,-75,-3,58,-1
1380,10,-244,-82,-3,58,1
1385,10,-247,-80,-4,58,-2
1390,10,-246,-78,-5,57,1
1395,9,-247,-78,-5,55,0
1400,10,-243,-76,-5,55,2
1405,11,-245,-77,-8,56,-1
1410,10,-245,-76,-9,56,1
1415,8,-245,-77,-12,55,-4
1420,10,-248,-83,-14,53,-3
1425,11,-247,-81,-18,50,-4
1430,12,-246,-79,-19,50,-2
1435,14,-246,-78,-19,49,-5
1440,11,-244,-79,-20,48,-3
1445,10,-246,-77,-22,48,-5
1450,10,-245,-78,-21,48,-1
1455,12,-247,-82,-20,48,-3
1460,8,-248,-81,-18,48,-1
1465,9,-246,-78,-18,51,-3
1470,11,-249,-77,-17,52,2
1475,11,-248,-79,-13,56,-1
1480,11,-247,-79,-9,58,2
1485,12,-249,-85,-7,58,1
1490,10,-246,-78,-5,58,2
1495,10,-248,-83,-6,59,0
1500,8,-242,-79,-6,59,2
1505,10,-245,-79,-8,59,0
1510,10,-244,-81,-9,59,0
1515,10,-246,-79,-12,60,-2
1520,10,-244,-78,-14,62,-1
1525,9,-244,-78,-18,62,-5
1530,9,-245,-83,-21,60,-1
1535,11,-245,-78,-22,62,-3
1540,10,-245,-81,-22,61,-1
1545,11,-245,-79,-23,60,-4
1550,11,-244,-77,-21,61,-1
1555,15,-240,-79,-20,61,-3
1560,20,-248,-72,-18,62,-1
1565,5,-249,-80,-17,62,-2
1570,7,-238,-71,-15,62,-1
1575,8,-250,-82,-16,65,0
1580,4,-245,-85,-15,66,2
1585,9,-241,-69,-14,65,1
1590,15,-251,-81,-14,67,2
1595,15,-244,-87,-11,67,1
1600,11,-248,-81,-11,68,3
1605,7,-246,-80,-9,67,1
1610,8,-245,-78,-7,67,3
1615,9,-245,-78,-6,65,4
1620,2,-255,-75,-6,63,4
1625,11,-247,-76,-5,62,2
1630,8,-246,-78,-5,62,2
1635,9,-247,-82,-6,62,1
1640,11,-246,-81,-7,62,2
1645,9,-244,-77,-10,65,-1
1650,10,-244,-79,-12,65,-1
1655,10,-246,-83,-14,66,-2
1660,10,-246,-78,-14,67,0
1665,7,-245,-80,-13,69,-2
1670,11,-246,-82,-13,69,-2
1675,10,-245,-77,-12,71,-1
1680,10,-245,-77,-11,71,0
1685,10,-241,-80,-11,70,0
1690,11,-246,-78,-10,70,2
1695,10,-248,-75,-7,71,1
1700,9,-250,-81,-7,71,2
1705,10,-245,-80,-7,71,4
1710,7,-247,-81,-7,71,2
1715,9,-247,-83,-8,71,3
1720,11,-248,-81,-10,70,1
1725,8,-244,-79,-10,71,0
1730,14,-248,-80,-10,71,0
1735,11,-247,-84,-11,71,0
1740,13,-247,-82,-10,72,-1
1745,7,-249,-83,-9,73,0
1750,12,-247,-84,-8,72,-1
1755,8,-244,-84,-7,72,1
1760,8,-239,-79,-7,73,1
1765,9,-245,-82,-8,75,0
1770,9,-247,-77,-7,76,-1
1775,11,-245,-79,-7,74,2
1780,12,-245,-76,-8,74,0
1785,7,-243,-78,-7,73,0
1790,6,-244,-79,-6,72,0
1795,9,-245,-81,-7,69,0
1800,11,-249,-81,-8,67,0
1805,9,-247,-76,-6,66,2
1810,10,-246,-77,-5,66,0
1815,8,-247,-78,-3,64,3
1820,6,-247,-77,-1,62,0
1825,8,-246,-80,1,62,3
1830,10,-245,-77,2,62,0
1835,10,-248,-79,1,62,1
1840,9,-247,-76,1,62,0
1845,10,-246,-79,0,62,0
1850,7,-244,-84,-1,62,-2
1855,8,-245,-79,-3,64,0
1860,11,-249,-83,-3,65,-2
1865,9,-246,-80,-4,66,-1
1870,8,-247,-81,-5,66,-5
1875,9,-244,-78,-7,68,-3
1880,10,-246,-79,-7,66,-4
1885,7,-245,-78,-9,65,-3
1890,9,-243,-76,-11,63,-3
1895,10,-247,-76,-13,57,-1
1900,9,-248,-80,-12,55,-2
1905,11,-248,-78,-11,53,0
1910,11,-246,-86,-11,53,-3
1915,8,-246,-83,-12,52,0
1920,12,-248,-78,-8,50,-3
1925,10,-252,-78,-7,51,-1
1930,13,-248,-81,-7,51,-1
1935,12,-247,-81,-3,54,1
1940,7,-247,-78,0,53,-1
1945,10,-248,-77,4,54,1
1950,11,-249,-78,4,56,-2
1955,10,-244,-78,5,56,-1
1960,10,-244,-77,6,56,-2
1965,7,-243,-81,7,55,0
1970,11,-245,-76,7,56,-3
1975,9,-244,-80,7,56,-3
1980,11,-245,-79,5,56,-5
1985,9,-244,-81,1,58,-2
1990,8,-248,-85,-3,59,-4
1995,10,-242,-77,-6,60,-2
2000,10,-246,-81,-9,62,-4
2005,7,-243,-80,-13,61,-2
2010,10,-244,-83,-15,62,-5
2015,9,-247,-84,-17,62,-2
2020,7,-243,-82,-18,62,-3
2025,11,-248,-78,-18,63,-1
2030,9,-244,-83,-17,62,-5
2035,9,-248,-83,-16,61,-2
2040,8,-247,-78,-13,61,-5
2045,10,-245,-79,-10,59,-3
2050,9,-246,-79,-7,57,-6
2055,12,-246,-78,-4,57,-3
2060,8,-244,-80,-2,56,-5
2065,7,-246,-78,-2,54,-1
2070,9,-246,-82,-2,54,-3
2075,6,-249,-79,0,54,-1
2080,7,-244,-80,1,52,-4
2085,8,-247,-77,3,51,-1
2090,8,-246,-80,5,51,-4
2095,9,-245,-76,7,51,-2
2100,7,-244,-78,7,50,-4
2105,9,-243,-81,5,50,-2
2110,9,-246,-81,4,49,-4
2115,12,-247,-79,3,49,-2
2120,11,-247,-78,0,49,-4
2125,10,-249,-76,-1,49,-3
2130,8,-246,-77,-4,50,-4
2135,8,-244,-79,-5,49,-4
2140,11,-244,-74,-10,51,-5
2145,12,-249,-79,-12,52,-4
2150,9,-245,-79,-13,52,-6
2155,9,-244,-79,-14,51,-4
2160,10,-246,-78,-15,51,-7
2165,8,-244,-80,-14,49,-4
2170,9,-245,-84,-12,51,-5
2175,9,-247,-78,-11,51,-4
2180,11,-248,-83,-11,51,-4
2185,9,-243,-76,-8,52,-2
2190,10,-248,-77,-7,53,-3
2195,12,-247,-79,-6,56,-2
2200,8,-248,-79,-4,56,-4
2205,9,-246,-80,-2,55,-1
2210,9,-245,-80,0,58,-2
2215,11,-245,-80,1,57,-1
2220,12,-246,-80,1,57,-2
2225,8,-247,-76,1,57,-3
2230,8,-247,-79,0,56,-3
2235,9,-251,-77,-1,57,-3
2240,11,-246,-80,-2,57,-3
2245,11,-244,-80,-1,58,-3
2250,9,-247,-81,-3,59,-4
2255,9,-247,-75,-4,58,-4
2260,9,-246,-77,-7,60,-3
2265,12,-247,-74,-7,62,-4
2270,8,-245,-84,-7,64,-3
2275,9,-245,-78,-6,64,-4
2280,9,-247,-80,-6,64,-3
2285,12,-246,-78,-4,64,-2
2290,8,-243,-79,-4,64,-3
2295,9,-248,-80,-4,63,-2
2300,8,-249,-82,-4,62,-1
2305,13,-247,-80,-3,62,-2
2310,7,-244,-77,-3,62,-1
2315,8,-246,-79,-3,62,-1
2320,9,-251,-79,-2,62,-1
2325,7,-247,-77,-3,63,-3
2330,10,-247,-79,-2,62,-3
2335,10,-245,-76,-2,62,-3
2340,8,-246,-81,-3,63,-3
2345,9,-246,-77,-2,63,-3
2350,13,-244,-73,-2,63,-2
2355,8,-246,-78,0,65,-2
2360,9,-248,-73,-1,66,-1
2365,7,-244,-77,0,67,-2
2370,10,-247,-77,-1,64,-1
2375,10,-247,-78,-2,66,-3
2380,9,-246,-78,-4,67,-2
2385,11,-249,-78,-4,68,-3
2390,6,-245,-79,-3,67,-1
2395,10,-249,-77,-4,67,-2
2400,10,-246,-81,-6,66,0
2405,7,-245,-80,-6,64,-1
2410,11,-246,-79,-8,64,-1
2415,8,-245,-83,-8,63,-1
2420,7,-245,-75,-8,63,0
2425,9,-249,-79,-6,64,-2
2430,9,-247,-77,-6,64,0
2435,8,-248,-80,-6,66,-3
2440,9,-247,-80,-5,67,-1
2445,7,-245,-80,-6,70,-4
2450,11,-248,-80,-5,73,-1
2455,12,-245,-79,-4,73,-4
2460,7,-243,-77,-3,74,-2
2465,11,-247,-81,-5,75,-4
2470,9,-245,-81,-5,76,-4
2475,9,-249,-80,-6,74,-5
2480,8,-243,-79,-11,73,-3
2485,8,-244,-80,-13,72,-5
2490,10,-248,-79,-16,72,-2
2495,9,-247,-79,-17,68,-3
2500,10,-246,-76,-17,68,0
2505,11,-248,-76,-18,66,-3
2510,9,-247,-77,-18,65,0
2515,11,-248,-76,-15,63,-3
2520,10,-246,-80,-14,62,0
2525,10,-246,-79,-11,62,-4
2530,12,-249,-79,-9,59,-1
2535,6,-246,-77,-7,61,-2
2540,10,-248,-79,-3,61,0
2545,9,-244,-79,0,63,-2
2550,9,-248,-81,2,65,1
2555,8,-247,-81,3,66,-2
2560,12,-247,-78,4,67,-1
2565,6,-247,-74,2,68,-3
2570,9,-246,-76,1,67,-2
2575,9,-249,-76,-2,69,-3
2580,14,-248,-81,-4,68,-1
2585,11,-250,-82,-8,68,-4
2590,10,-247,-79,-9,69,-3
2595,10,-246,-79,-9,70,-5
2600,9,-246,-81,-10,70,-1
2605,9,-247,-80,-11,71,-4
2610,8,-245,-81,-11,71,-2
2615,11,-245,-78,-11,74,-4
2620,10,-244,-81,-9,74,-1
2625,12,-247,-81,-8,75,-3
2630,10,-246,-79,-5,76,-1
2635,7,-247,-81,-2,74,-3
2640,8,-246,-78,0,72,-1
2645,11,-246,-78,1,72,-2
2650,9,-247,-79,4,71,1
2655,11,-246,-81,6,67,-1
2660,9,-245,-77,5,66,0
2665,9,-244,-81,5,65,-1
2670,10,-246,-80,5,64,0
2675,10,-245,-78,3,63,0
2680,9,-246,-76,3,64,0
2685,11,-247,-76,5,63,-1
2690,11,-247,-77,5,64,-2
2695,7,-247,-76,7,64,-3
2700,9,-244,-78,7,65,-3
2705,7,-243,-78,6,65,-4
2710,8,-244,-74,3,64,-2
2715,10,-244,-77,-1,64,-3
2720,9,-246,-78,-5,64,-2
2725,8,-246,-78,-8,62,-4
2730,6,-246,-79,-11,62,-3
2735,7,-246,-84,-16,60,-4
2740,11,-246,-80,-17,57,-3
2745,9,-249,-85,-19,55,-1
2750,11,-250,-83,-21,54,0
2755,12,-253,-87,-22,55,0
2760,11,-253,-83,-20,56,3
2765,13,-255,-84,-18,56,2
2770,15,-257,-82,-13,55,2
2775,15,-259,-90,-5,53,0
2780,16,-258,-92,9,51,-1
2785,19,-255,-96,24,47,-6
2790,22,-256,-98,40,40,-14
2795,23,-250,-110,45,29,-22
2800,24,-244,-117,41,12,-33
2805,17,-235,-124,20,2,-44
2810,17,-227,-130,-15,-7,-50
2815,16,-223,-129,-67,-14,-55
2820,17,-219,-128,-133,-14,-55
2825,13,-212,-132,-208,-9,-58
2830,10,-206,-137,-291,-4,-60
2835,8,-205,-135,-376,6,-62
2840,7,-202,-133,-459,14,-65
2845,4,-202,-132,-537,25,-66
2850,6,-201,-129,-603,34,-69
2855,6,-201,-128,-661,46,-69
2860,7,-198,-130,-693,56,-68
2865,10,-197,-130,-713,68,-67
2870,14,-197,-130,-719,78,-70
2875,20,-198,-134,-713,91,-70
2880,20,-188,-134,-703,108,-71
2885,26,-186,-138,-693,126,-70
2890,27,-179,-144,-690,145,-72
2895,32,-174,-150,-699,166,-74
2900,31,-168,-150,-714,184,-80
2905,33,-160,-154,-732,207,-80
2910,29,-154,-149,-750,219,-79
2915,27,-154,-141,-763,219,-72
2920,22,-151,-137,-776,208,-64
2925,18,-150,-129,-786,183,-52
2930,16,-152,-122,-790,149,-40
2935,12,-153,-113,-784,107,-24
2940,5,-153,-109,-773,62,-11
2945,3,-154,-105,-756,16,7
2950,2,-152,-97,-738,-27,20
2955,0,-153,-97,-722,-77,36
2960,-3,-153,-94,-715,-116,40
2965,-3,-151,-88,-714,-154,43
2970,-7,-153,-89,-721,-193,39
2975,-8,-152,-90,-734,-234,34
2980,-10,-154,-91,-756,-278,14
2985,-12,-152,-97,-782,-321,-7
2990,-13,-155,-101,-819,-361,-36
2995,-19,-157,-105,-861,-396,-66
3000,-23,-156,-108,-910,-424,-103
3005,-26,-156,-111,-961,-445,-144
3010,-23,-161,-112,-1014,-452,-182
3015,-21,-166,-118,-1058,-442,-216
3020,-18,-172,-117,-1099,-417,-256
3025,-15,-175,-124,-1134,-374,-289
3030,-8,-182,-129,-1171,-315,-318
3035,-2,-189,-133,-1204,-243,-337
3040,7,-190,-136,-1232,-163,-353
3045,17,-196,-138,-1257,-77,-354
3050,27,-198,-152,-1277,17,-353
3055,38,-200,-162,-1297,122,-338
3060,52,-206,-160,-1321,251,-321
3065,64,-210,-169,-1334,359,-295
3070,70,-210,-169,-1337,462,-270
3075,80,-206,-168,-1324,553,-236
3080,82,-202,-170,-1302,629,-202
3085,83,-197,-165,-1275,690,-164
3090,88,-195,-162,-1244,734,-133
3095,81,-187,-159,-1208,759,-97
3100,73,-178,-145,-1168,769,-66
3105,63,-171,-129,-1120,755,-29
3110,53,-163,-117,-1053,703,-5
3115,44,-153,-94,-984,627,19
3120,29,-146,-77,-896,528,30
3125,17,-140,-63,-800,409,40
3130,3,-130,-53,-712,276,43
3135,-12,-118,-42,-623,132,43
3140,-23,-109,-31,-527,-19,38
3145,-36,-96,-31,-435,-169,35
3150,-38,-78,-36,-366,-307,25
3155,-41,-68,-49,-327,-424,8
3160,-39,-55,-60,-326,-523,-24
3165,-35,-37,-83,-365,-569,-54
3170,-28,-24,-100,-440,-586,-92
3175,-23,-9,-121,-558,-564,-126
3180,-12,-1,-143,-715,-510,-169
3185,-12,3,-160,-918,-431,-204
3190,-15,-9,-175,-1170,-344,-238
3195,-11,-13,-188,-1472,-275,-263
3200,-10,-23,-198,-1752,-215,-289
3205,-11,-50,-187,-2015,-186,-305
3210,-12,-73,-184,-2209,-193,-313
3215,-19,-105,-178,-2351,-226,-294
3220,-22,-144,-170,-2398,-277,-265
3225,-26,-184,-151,-2367,-335,-226
3230,-36,-216,-140,-2253,-394,-184
3235,-37,-252,-125,-2072,-457,-135
3240,-41,-272,-120,-1842,-517,-88
3245,-39,-293,-120,-1584,-575,-36
3250,-34,-312,-125,-1322,-635,17
3255,-20,-324,-140,-1078,-676,69
3260,-10,-328,-152,-858,-691,115
3265,3,-336,-163,-620,-676,141
3270,17,-338,-179,-437,-641,145
3275,31,-339,-190,-264,-594,137
3280,46,-339,-197,-97,-538,112
3285,56,-333,-213,65,-473,77
3290,68,-325,-223,209,-401,29
3295,71,-316,-224,328,-331,-29
3300,75,-300,-219,431,-265,-90
3305,75,-280,-215,531,-209,-150
3310,71,-257,-218,622,-154,-217
3315,70,-236,-214,686,-115,-254
3320,59,-210,-215,695,-86,-279
3325,53,-185,-213,673,-75,-286
3330,42,-166,-218,627,-76,-281
3335,33,-149,-217,561,-84,-264
3340,23,-139,-217,484,-102,-236
3345,13,-135,-215,407,-123,-190
3350,6,-144,-213,338,-143,-133
3355,3,-157,-213,287,-154,-63
3360,3,-171,-216,259,-149,30
3365,3,-195,-213,263,-128,111
3370,10,-218,-214,301,-108,182
3375,15,-241,-214,372,-93,242
3380,20,-265,-215,467,-86,289
3385,25,-282,-214,577,-94,314
3390,28,-296,-215,692,-119,320
3395,28,-305,-208,802,-156,306
3400,24,-314,-204,908,-205,283
3405,25,-324,-201,1010,-251,252
3410,28,-330,-200,1118,-280,215
3415,21,-335,-194,1260,-283,181
3420,14,-341,-175,1389,-263,146
3425,5,-345,-150,1528,-251,112
3430,0,-344,-140,1670,-253,78
3435,-8,-359,-122,1815,-277,47
3440,-16,-383,-99,1963,-326,17
3445,-22,-426,-75,2122,-410,-24
3450,-21,-496,-59,2295,-522,-64
3455,-42,-632,11,2472,-649,-122
3460,-36,-742,-15,2721,-825,-177
3465,-14,-732,-148,2942,-1120,-348
3470,-18,-718,-237,2990,-1378,-593
3475,-24,-668,-351,3028,-1566,-817
3480,-34,-535,-478,3104,-1690,-1026
3485,-70,-311,-566,3111,-1693,-1162
3490,-84,-96,-670,2966,-1502,-1088
3495,-87,-2,-726,2490,-1028,-753
3500,-67,-56,-647,1693,-404,-267
3505,-45,-177,-397,769,132,182
3510,-17,-274,-274,89,377,467
3515,3,-363,-166,-188,458,568
3520,7,-401,-88,-195,427,496
3525,11,-410,-36,-66,366,369
3530,13,-397,-3,140,305,238
3535,10,-370,16,372,243,111
3540,12,-329,25,601,184,7
3545,9,-270,16,790,133,-82
3550,0,-235,11,888,96,-136
3555,-6,-189,13,863,95,-151
3560,-8,-145,17,727,120,-138
3565,-13,-114,18,522,153,-123
3570,-16,-95,21,225,176,-97
3575,-21,-93,22,-37,196,-70
3580,-19,-101,20,-307,195,-47
3585,-15,-115,17,-530,186,-32
3590,-12,-133,10,-667,193,-13
3595,-10,-159,-3,-725,210,-2
3600,-8,-179,-9,-726,237,10
3605,-8,-206,-24,-672,256,10
3610,9,-222,-34,-587,263,6
3615,-7,-239,-39,-478,264,-9
3620,7,-246,-48,-320,252,-20
3625,-7,-268,-49,-187,233,-41
3630,-9,-266,-60,-58,212,-55
3635,-3,-282,-53,65,189,-75
3640,-7,-289,-76,185,166,-86
3645,-8,-300,-78,310,142,-96
3650,-7,-291,-92,433,123,-103
3655,-6,-292,-106,547,110,-111
3660,7,-281,-125,640,98,-113
3665,1,-284,-98,709,91,-118
3670,-8,-284,-135,762,88,-117
3675,-8,-280,-145,784,89,-118
3680,-11,-277,-155,792,93,-111
3685,-10,-271,-158,788,97,-109
3690,-8,-271,-159,774,99,-101
3695,-9,-266,-160,754,100,-101
3700,-4,-262,-161,724,103,-96
3705,-4,-255,-154,696,110,-98
3710,3,-255,-155,668,122,-93
3715,8,-245,-147,641,139,-97
3720,9,-239,-143,606,166,-97
3725,13,-235,-139,576,185,-101
3730,12,-225,-135,542,199,-97
3735,17,-221,-138,507,213,-98
3740,17,-217,-127,474,225,-91
3745,25,-213,-136,447,235,-87
3750,28,-210,-133,424,248,-81
3755,34,-208,-129,402,259,-80
3760,33,-203,-127,382,265,-75
3765,37,-207,-126,366,271,-75
3770,37,-204,-121,343,276,-72
3775,37,-202,-118,320,281,-75
3780,36,-205,-113,302,281,-73
3785,33,-203,-109,279,282,-80
3790,32,-204,-106,255,282,-83
3795,26,-205,-101,235,282,-88
3800,24,-211,-98,214,279,-89
3805,18,-215,-96,197,278,-96
3810,11,-214,-90,184,275,-99
3815,10,-220,-84,179,269,-103
3820,8,-217,-82,183,261,-107
3825,1,-222,-81,193,252,-113
3830,0,-224,-79,206,239,-115
3835,-6,-224,-77,224,230,-122
3840,-6,-232,-79,246,224,-121
3845,-8,-233,-81,269,220,-122
3850,-6,-237,-85,289,221,-118
3855,-7,-235,-91,304,228,-115
3860,-7,-238,-91,316,236,-109
3865,-3,-242,-93,328,247,-104
3870,-2,-247,-90,335,258,-99
3875,-2,-250,-94,343,266,-98
3880,2,-252,-94,346,270,-96
3885,1,-255,-94,349,272,-97
3890,10,-256,-90,351,274,-95
3895,8,-257,-94,349,272,-98
3900,8,-256,-91,346,270,-101
3905,12,-259,-89,343,264,-106
3910,13,-258,-83,338,256,-108
3915,16,-259,-85,334,246,-111
3920,11,-258,-82,331,236,-111
3925,15,-258,-81,328,229,-112
3930,12,-256,-81,329,224,-112
3935,12,-258,-82,328,219,-111
3940,11,-251,-80,326,214,-109
3945,12,-249,-74,324,209,-107
3950,10,-248,-76,323,207,-103
3955,13,-250,-72,321,205,-99
3960,12,-242,-71,317,205,-96
3965,12,-242,-70,311,207,-90
3970,11,-240,-65,307,210,-83
3975,16,-239,-61,298,213,-77
3980,15,-239,-55,291,215,-68
3985,14,-235,-62,281,217,-62
3990,18,-232,-58,270,219,-55
3995,16,-234,-58,255,220,-48
4000,21,-236,-54,240,218,-43
4005,17,-234,-55,225,214,-41
4010,18,-236,-55,211,208,-41
4015,17,-236,-53,199,202,-40
4020,20,-239,-57,185,195,-39
4025,19,-237,-57,167,189,-40
4030,18,-238,-61,151,184,-41
4035,18,-245,-60,134,176,-42
4040,18,-244,-64,118,169,-43
4045,14,-244,-67,103,163,-45
4050,15,-247,-72,88,156,-48
4055,17,-246,-70,77,149,-49
4060,13,-248,-71,67,141,-51
4065,12,-248,-72,62,136,-50
4070,12,-248,-72,58,131,-52
4075,12,-250,-76,56,125,-52
4080,10,-253,-70,59,123,-53
4085,12,-249,-74,62,121,-53
4090,12,-253,-78,67,117,-55
4095,12,-251,-72,74,113,-54
4100,10,-249,-76,80,109,-57
4105,13,-247,-73,86,106,-55
4110,12,-246,-75,90,102,-55
4115,11,-246,-78,93,94,-52
4120,13,-243,-74,93,89,-52
4125,12,-241,-78,90,79,-48
4130,13,-240,-76,84,72,-48
4135,14,-242,-72,78,65,-41
4140,12,-242,-77,74,59,-39
4145,14,-242,-76,71,56,-32
4150,16,-240,-76,65,57,-28
4155,14,-242,-77,59,60,-21
4160,16,-238,-78,54,66,-18
4165,20,-241,-77,47,75,-13
4170,19,-239,-71,41,81,-9
4175,18,-241,-76,33,87,-4
4180,19,-243,-77,26,92,-3
4185,16,-240,-75,23,96,0
4190,18,-240,-75,18,98,-2
4195,17,-241,-73,15,99,-1
4200,18,-243,-72,10,99,-3
4205,17,-241,-71,3,97,-2
4210,17,-242,-74,-2,93,-8
4215,17,-246,-73,-6,90,-7
4220,17,-246,-72,-10,89,-13
4225,16,-246,-74,-10,87,-13
4230,17,-246,-76,-8,84,-19
4235,17,-247,-76,-4,81,-17
4240,20,-246,-74,-1,82,-21
4245,17,-246,-74,3,83,-21
4250,20,-249,-74,6,81,-24
4255,18,-250,-76,6,80,-20
4260,22,-251,-74,10,78,-21
4265,21,-254,-77,16,77,-17
4270,21,-248,-74,16,76,-18
4275,25,-249,-78,18,77,-14
4280,24,-249,-77,19,78,-15
4285,24,-245,-75,18,77,-10
4290,25,-247,-74,18,76,-8
4295,28,-248,-75,16,72,-2
4300,32,-248,-69,15,69,-1
4305,26,-247,-74,13,64,4
4310,27,-247,-67,12,63,6
4315,26,-247,-70,10,59,12
4320,27,-247,-71,11,56,12
4325,24,-244,-69,10,52,17
4330,22,-244,-71,11,51,15
4335,19,-246,-67,10,50,18
4340,23,-246,-68,10,48,16
4345,22,-246,-68,7,48,19
4350,18,-243,-70,4,48,16
4355,18,-245,-67,0,50,19
4360,19,-246,-66,-5,51,17
4365,16,-247,-68,-8,51,20
4370,15,-246,-66,-15,52,18
4375,15,-244,-67,-17,56,20
4380,13,-247,-69,-18,59,20
4385,13,-251,-64,-19,61,22
4390,12,-249,-69,-19,66,21
4395,14,-249,-72,-19,70,24
4400,16,-250,-69,-19,73,22
4405,16,-249,-69,-20,74,25
4410,16,-246,-73,-23,77,24
4415,14,-247,-71,-27,77,26
4420,16,-248,-76,-28,75,25
4425,19,-249,-74,-29,75,26
4430,18,-246,-70,-29,75,24
4435,20,-248,-68,-27,72,26
4440,15,-246,-70,-29,70,24
4445,18,-246,-69,-29,69,27
4450,17,-248,-68,-29,66,26
4455,18,-246,-70,-29,67,27
4460,15,-244,-70,-29,68,27
4465,17,-247,-70,-28,66,28
4470,17,-245,-71,-28,68,31
4475,19,-247,-73,-26,68,34
4480,18,-252,-70,-26,71,33
4485,17,-247,-65,-25,75,34
4490,14,-248,-69,-26,77,32
4495,13,-248,-68,-24,78,32
4500,17,-248,-70,-26,80,31
4505,15,-248,-69,-27,80,30
4510,18,-251,-65,-26,80,29
4515,14,-249,-71,-27,80,29
4520,13,-249,-70,-27,79,29
4525,11,-250,-65,-27,79,27
4530,15,-249,-65,-28,79,26
4535,11,-249,-73,-28,77,25
4540,14,-250,-69,-26,79,22
4545,14,-249,-68,-24,79,21
4550,12,-247,-70,-25,78,20
4555,15,-246,-68,-27,78,18
4560,15,-246,-67,-31,79,18
4565,15,-247,-72,-36,77,16
4570,14,-247,-71,-39,74,18
4575,14,-247,-70,-42,73,15
4580,13,-246,-72,-47,71,16
4585,12,-250,-74,-47,73,17
4590,12,-248,-72,-46,73,18
4595,13,-247,-70,-43,73,17
4600,17,-247,-70,-39,75,20
4605,14,-248,-74,-37,75,19
4610,14,-249,-74,-34,76,21
4615,17,-245,-70,-30,79,22
4620,16,-245,-73,-29,82,22
4625,14,-249,-73,-27,83,21
4630,15,-248,-74,-26,83,20
4635,16,-248,-74,-25,86,18
4640,14,-246,-74,-24,88,19
4645,14,-247,-77,-24,89,17
4650,15,-248,-73,-24,92,17
4655,18,-250,-73,-23,92,16
4660,16,-248,-75,-24,94,15
4665,14,-249,-70,-24,94,14
4670,16,-249,-71,-22,95,15
4675,10,-245,-70,-21,95,13
4680,15,-247,-73,-19,94,14
4685,18,-250,-75,-16,92,13
4690,14,-250,-73,-15,92,16
4695,16,-248,-71,-15,90,13
4700,16,-252,-71,-16,89,16
4705,17,-250,-74,-15,87,14
4710,19,-246,-73,-16,87,16
4715,15,-248,-73,-18,85,13
4720,13,-244,-72,-17,85,15
4725,15,-244,-71,-18,81,13
4730,18,-246,-74,-17,78,15
4735,15,-246,-77,-16,77,13
4740,13,-245,-69,-16,77,14
4745,15,-247,-76,-16,78,13
4750,17,-246,-76,-16,76,14
4755,12,-247,-72,-16,76,13
4760,14,-246,-73,-15,75,15
4765,17,-247,-70,-16,74,14
4770,12,-244,-74,-14,73,18
4775,15,-247,-70,-15,73,16
4780,15,-248,-78,-16,73,17
4785,12,-245,-74,-17,73,17
4790,11,-244,-73,-19,74,19
4795,13,-250,-76,-18,73,15
4800,13,-251,-72,-18,72,16
4805,14,-248,-72,-16,71,13
4810,13,-251,-76,-15,71,14
4815,14,-250,-73,-11,71,12
4820,13,-247,-77,-10,74,13
4825,15,-248,-72,-7,75,11
4830,14,-248,-74,-5,76,11
4835,17,-249,-75,-3,78,9
4840,14,-246,-77,-2,81,10
4845,15,-245,-73,-1,80,5
4850,15,-249,-76,1,79,6
4855,12,-246,-75,-2,76,2
4860,14,-247,-77,-3,73,3
4865,14,-247,-79,-5,71,1
4870,14,-247,-78,-9,68,3
4875,13,-246,-77,-12,64,2
4880,13,-244,-76,-12,63,6
4885,13,-245,-70,-12,62,4
4890,16,-248,-71,-11,63,11
4895,13,-245,-69,-9,64,10
4900,16,-250,-70,-8,63,13
4905,15,-250,-69,-5,64,14
4910,13,-251,-72,-3,64,16
4915,12,-248,-71,-1,62,15
4920,12,-247,-71,2,60,18
4925,14,-250,-69,4,59,16
4930,10,-246,-67,7,58,15
4935,17,-249,-65,10,56,11
4940,13,-247,-70,11,56,12
4945,11,-246,-70,9,56,10
4950,12,-248,-72,8,57,10
4955,14,-248,-76,5,59,5
4960,14,-248,-75,3,58,6
4965,12,-248,-72,0,60,4
4970,11,-249,-74,-4,61,4
4975,15,-251,-71,-7,60,3
4980,13,-247,-70,-10,59,3
4985,13,-246,-78,-12,61,1
4990,12,-249,-72,-12,60,3
4995,14,-247,-75,-14,61,0
5000,14,-249,-76,-13,61,3
5005,12,-248,-72,-12,61,2
5010,15,-250,-70,-11,62,3
5015,14,-248,-74,-9,62,3
5020,14,-249,-72,-7,61,4
5025,14,-250,-71,-4,61,4
5030,15,-248,-73,0,60,6
5035,14,-249,-73,3,58,4
5040,12,-251,-72,4,60,7
5045,13,-246,-75,7,61,6
5050,15,-248,-72,6,61,8
5055,15,-248,-73,7,61,6
5060,17,-247,-72,7,60,8
5065,14,-246,-70,6,61,7
5070,14,-249,-74,5,61,7
5075,11,-247,-71,2,61,6
5080,14,-247,-70,2,60,6
5085,13,-247,-72,-1,59,4
5090,14,-246,-71,-2,59,4
5095,15,-249,-71,-1,59,3
5100,12,-249,-70,0,58,3
5105,13,-249,-70,1,57,1
5110,16,-249,-71,2,58,0
5115,12,-247,-69,1,58,-3
5120,14,-248,-71,0,57,-4
5125,12,-247,-73,-1,57,-3
5130,15,-248,-71,0,56,-2
5135,13,-245,-73,-3,55,-3
5140,15,-252,-73,-4,54,-3
5145,15,-247,-72,-6,55,-3
5150,12,-245,-74,-6,56,-5
5155,15,-248,-73,-9,57,-4
5160,15,-249,-73,-7,57,-3
5165,16,-249,-73,-8,56,-3
5170,15,-245,-73,-8,57,-4
5175,15,-247,-73,-7,58,-3
5180,15,-248,-68,-11,58,-5
5185,14,-247,-72,-10,58,-7
5190,13,-249,-74,-10,56,-6
5195,12,-246,-69,-9,56,-6
5200,13,-250,-75,-7,55,-6
5205,12,-249,-68,-5,57,-5
5210,14,-247,-70,-5,57,-7
5215,12,-249,-73,-4,56,-5
5220,11,-247,-72,-3,55,-8
5225,14,-250,-70,-1,56,-6
5230,14,-248,-71,0,57,-6
5235,12,-249,-70,0,59,-6
5240,12,-247,-69,1,60,-7
5245,13,-246,-71,1,61,-6
5250,15,-249,-69,0,61,-9
5255,13,-247,-68,-1,61,-6
5260,14,-251,-67,-3,62,-8
5265,13,-248,-74,-5,63,-7
5270,13,-249,-69,-6,62,-8
5275,13,-247,-67,-7,63,-7
5280,15,-251,-68,-8,62,-8
5285,16,-250,-69,-11,62,-7
5290,14,-247,-67,-12,61,-9
5295,16,-249,-70,-12,59,-7
5300,14,-248,-72,-12,59,-9
5305,15,-247,-70,-11,60,-6
5310,16,-249,-69,-12,57,-8
5315,13,-250,-66,-11,56,-4
5320,15,-249,-73,-9,56,-7
5325,12,-246,-68,-10,54,-4
5330,14,-249,-71,-8,54,-7
5335,14,-247,-73,-5,52,-5
5340,16,-249,-74,-4,53,-8
5345,13,-247,-67,-6,53,-6
5350,17,-248,-71,-6,54,-7
5355,16,-251,-72,-7,53,-6
5360,16,-246,-74,-7,54,-8
5365,16,-248,-73,-6,53,-5
5370,17,-245,-74,-8,54,-8
5375,15,-250,-75,-9,53,-4
5380,11,-245,-71,-9,54,-6
5385,15,-249,-64,-9,54,-3
5390,14,-252,-69,-9,56,-5
5395,16,-248,-68,-9,57,-2
5400,12,-247,-71,-7,58,-5
5405,13,-247,-68,-5,59,-3
5410,15,-252,-66,-4,61,-5
5415,15,-246,-68,-4,63,-2
5420,15,-249,-66,-5,64,-5
5425,14,-251,-67,-5,65,-2
5430,13,-248,-71,-4,65,-6
5435,14,-248,-73,-4,64,-5
5440,15,-248,-71,-4,63,-7
5445,13,-246,-68,-4,64,-2
5450,17,-245,-73,-4,65,-5
5455,14,-246,-69,-4,64,-4
5460,14,-248,-71,-6,62,-7
5465,11,-246,-71,-9,62,-4
5470,12,-248,-70,-9,60,-5
5475,13,-247,-69,-11,60,-3
5480,12,-246,-72,-12,61,-5
5485,14,-246,-69,-14,58,-1
5490,16,-247,-68,-16,56,-2
5495,14,-248,-67,-19,56,0
5500,12,-249,-64,-18,54,-1
5505,16,-250,-69,-20,53,2
5510,14,-251,-68,-17,53,-1
5515,14,-250,-66,-18,53,2
5520,16,-251,-66,-18,54,0
5525,12,-249,-68,-15,54,1
5530,12,-245,-72,-15,53,-3
5535,12,-250,-71,-14,53,-2
5540,15,-249,-68,-13,52,-6
5545,16,-249,-69,-10,53,-5
5550,15,-252,-75,-9,55,-8
5555,12,-246,-73,-8,55,-6
5560,15,-249,-75,-7,56,-7
5565,14,-246,-71,-7,56,-6
5570,14,-247,-71,-8,56,-9
5575,13,-246,-73,-9,58,-8
5580,12,-245,-67,-9,58,-9
5585,14,-242,-75,-12,60,-6
5590,12,-248,-80,-16,61,-9
5595,11,-250,-68,-18,62,-8
5600,16,-255,-56,-19,61,-8
5605,13,-246,-86,-20,62,-7
5610,16,-245,-75,-22,63,-9
5615,20,-251,-79,-22,65,-7
5620,8,-254,-67,-21,63,-9
5625,2,-255,-72,-18,65,-7
5630,13,-253,-60,-15,63,-11
5635,18,-255,-63,-13,61,-7
5640,7,-250,-69,-12,59,-9
5645,15,-248,-66,-11,57,-5
5650,12,-251,-71,-11,55,-7
5655,14,-243,-71,-9,52,-5
5660,27,-247,-59,-10,53,-4
5665,5,-247,-88,-8,53,-4
5670,10,-247,-72,-10,52,-2
5675,21,-248,-66,-10,52,-3
5680,16,-249,-69,-11,54,-4
5685,17,-244,-72,-10,56,-2
5690,18,-253,-68,-11,54,-2
5695,12,-248,-69,-10,55,-3
5700,13,-247,-69,-10,55,-4
5705,14,-247,-68,-8,55,-3
5710,12,-247,-68,-9,56,-4
5715,9,-250,-78,-8,55,-4
5720,37,-251,-62,-6,55,-4
5725,18,-254,-57,-6,56,-3
5730,10,-246,-71,-6,57,-3
5735,21,-249,-80,-7,55,-3
5740,8,-238,-78,-8,55,-4
5745,9,-244,-76,-8,53,-4
5750,26,-246,-76,-10,52,-5
5755,17,-250,-72,-13,53,-4
5760,18,-256,-74,-15,54,-4
5765,16,-251,-72,-16,54,-5
5770,14,-261,-73,-16,55,-3
5775,17,-248,-69,-17,55,-4
5780,15,-251,-66,-17,55,-5
5785,19,-238,-76,-16,54,-5
5790,17,-258,-54,-13,54,-6
5795,16,-246,-67,-9,54,-6
5800,12,-249,-63,-7,53,-6
5805,20,-248,-66,-3,52,-6
5810,10,-247,-71,-1,53,-5
5815,16,-252,-71,0,54,-6
5820,14,-250,-77,2,56,-4
5825,5,-246,-72,4,54,-5
5830,19,-253,-66,3,55,-4
5835,8,-241,-75,3,55,-3
5840,19,-243,-73,0,55,-1
5845,19,-247,-71,-1,56,-3
5850,15,-245,-73,-2,54,-1
5855,15,-250,-75,-3,53,-1
5860,16,-249,-71,-7,53,-1
5865,16,-248,-69,-7,52,-2
5870,14,-257,-66,-9,50,-1
5875,13,-260,-80,-9,50,-2
5880,10,-250,-77,-11,49,0
5885,22,-246,-67,-13,49,-2
5890,11,-249,-77,-13,51,0
5895,25,-249,-69,-14,51,-1
5900,12,-244,-48,-16,50,0
5905,9,-254,-66,-18,52,-1
5910,4,-247,-78,-19,52,0
5915,19,-250,-73,-20,54,-1
5920,10,-252,-72,-21,54,0
5925,25,-252,-69,-23,55,-3
5930,15,-246,-72,-24,53,0
5935,12,-242,-76,-26,52,-2
5940,10,-250,-71,-26,52,0
5945,15,-251,-65,-26,53,-1
5950,16,-251,-75,-25,52,0
5955,10,-243,-68,-21,52,-3
5960,8,-234,-74,-19,53,1
5965,12,-250,-72,-17,55,0
5970,16,-245,-74,-16,55,3
5975,7,-248,-66,-15,57,2
5980,7,-242,-77,-14,57,3
5985,11,-251,-64,-15,57,2
5990,28,-245,-60,-16,59,3
5995,15,-254,-69,-16,58,2
6000,4,-243,-74,-18,59,5
6005,17,-248,-67,-18,57,3
6010,14,-247,-70,-17,57,3
6015,12,-250,-72,-18,58,0
6020,12,-248,-73,-17,56,2
6025,13,-249,-72,-18,57,0
6030,22,-254,-70,-15,56,2
6035,15,-245,-79,-13,57,-1
6040,19,-249,-80,-13,57,-1
6045,13,-247,-84,-12,58,-3
6050,9,-247,-68,-11,58,-2
6055,13,-249,-75,-12,58,-6
6060,10,-241,-68,-12,56,-3
6065,12,-249,-76,-11,55,-3
6070,23,-238,-74,-10,53,0
6075,17,-245,-64,-10,52,-2
6080,10,-247,-76,-10,52,1
6085,14,-250,-70,-9,52,0
6090,18,-243,-79,-10,53,2
6095,13,-247,-78,-10,53,0
6100,12,-251,-58,-10,51,2
6105,14,-243,-55,-11,51,0
6110,11,-247,-77,-11,50,4
6115,12,-249,-67,-12,49,2
6120,19,-248,-71,-12,49,4
6125,10,-246,-67,-10,49,1
6130,14,-256,-63,-10,51,4
6135,10,-255,-60,-11,52,2
6140,13,-241,-67,-8,53,3
6145,12,-240,-78,-6,54,0
6150,9,-244,-76,-5,56,2
6155,3,-242,-74,-4,56,0
6160,20,-243,-73,-4,57,1
6165,22,-241,-65,-3,57,-2
6170,16,-247,-75,-5,59,0
6175,15,-247,-70,-5,60,-3
6180,16,-249,-75,-5,58,0
6185,14,-249,-71,-5,59,-2
6190,11,-246,-73,-6,57,0
6195,14,-244,-67,-5,57,-3
6200,13,-253,-68,-5,58,-2
6205,0,-246,-73,-3,57,-5
6210,7,-255,-66,-5,55,-4
6215,21,-247,-76,-5,54,-5
6220,11,-248,-69,-6,53,-3
6225,14,-246,-78,-7,52,-6
6230,16,-253,-58,-7,53,-3
6235,14,-243,-68,-8,54,-6
6240,18,-249,-68,-8,53,-4
6245,18,-246,-73,-8,51,-5
6250,8,-246,-76,-9,52,-5
6255,15,-257,-74,-9,51,-5
6260,11,-246,-70,-9,51,-3
6265,27,-249,-73,-5,53,-4
6270,20,-249,-62,-3,56,-3
6275,20,-255,-66,2,58,-3
6280,12,-250,-64,5,63,0
6285,12,-246,-70,12,66,0
6290,13,-243,-76,17,67,1
6295,11,-253,-66,22,69,-1
6300,11,-244,-84,27,68,2
6305,5,-243,-76,28,67,-1
6310,12,-240,-82,27,62,-2
6315,11,-251,-78,21,57,-6
6320,11,-239,-79,13,51,-9
6325,14,-245,-71,5,48,-12
6330,12,-243,-67,-2,47,-14
6335,11,-246,-71,-9,46,-15
6340,8,-243,-70,-12,49,-12
6345,12,-243,-68,-13,52,-11
6350,17,-245,-78,-10,57,-10
6355,15,-240,-82,-7,62,-14
6360,17,-244,-73,-3,65,-19
6365,15,-243,-80,-5,63,-22
6370,14,-244,-82,-10,61,-23
6375,19,-240,-81,-20,58,-25
6380,16,-247,-60,-32,54,-28
6385,23,-230,-64,-46,44,-35
6390,11,-234,-69,-63,33,-41
6395,23,-234,-68,-78,19,-50
6400,18,-241,-72,-89,6,-59
6405,16,-243,-65,-100,-6,-70
6410,16,-231,-68,-108,-15,-82
6415,19,-241,-64,-115,-21,-97
6420,23,-237,-75,-126,-28,-110
6425,13,-239,-62,-143,-27,-118
6430,23,-247,-71,-161,-24,-125
6435,20,-232,-69,-183,-14,-128
6440,24,-238,-70,-207,-4,-127
6445,18,-237,-63,-224,3,-124
6450,16,-247,-66,-240,11,-119
6455,14,-239,-66,-254,15,-114
6460,5,-239,-69,-263,16,-110
6465,15,-242,-80,-271,14,-105
6470,7,-239,-80,-278,9,-101
6475,8,-235,-79,-280,6,-92
6480,7,-241,-68,-279,4,-86
6485,8,-241,-71,-275,7,-77
6490,6,-241,-65,-267,8,-70
6495,8,-243,-69,-260,11,-64
6500,3,-248,-72,-252,9,-61
6505,4,-246,-67,-244,4,-57
6510,1,-248,-67,-240,-4,-58
6515,4,-252,-65,-234,-11,-55
6520,8,-253,-61,-228,-15,-61
6525,1,-254,-60,-225,-17,-64
6530,2,-249,-57,-220,-19,-72
6535,3,-250,-57,-219,-22,-78
6540,5,-251,-55,-207,-25,-83
6545,2,-248,-55,-199,-26,-86
6550,6,-245,-57,-195,-24,-89
6555,8,-241,-59,-199,-23,-87
6560,11,-241,-60,-207,-19,-87
6565,12,-238,-57,-225,-16,-81
6570,14,-234,-63,-251,-12,-80
6575,16,-235,-60,-285,-11,-70
6580,15,-234,-61,-322,-10,-63
6585,22,-234,-61,-360,-7,-51
6590,22,-237,-58,-403,-3,-47
6595,29,-240,-59,-432,2,-42
6600,27,-242,-56,-457,1,-46
6605,29,-244,-55,-477,-3,-50
6610,28,-245,-57,-492,-8,-62
6615,25,-248,-61,-506,-13,-72
6620,22,-238,-55,-519,-14,-85
6625,17,-251,-66,-528,-14,-93
6630,20,-257,-63,-544,-14,-104
6635,17,-258,-66,-565,-16,-110
6640,17,-261,-74,-576,-23,-114
6645,22,-266,-82,-580,-29,-114
6650,22,-266,-91,-581,-34,-116
6655,22,-260,-113,-589,-33,-112
6660,24,-246,-133,-614,-29,-107
6665,30,-216,-155,-667,-14,-96
6670,25,-208,-183,-760,9,-85
6675,28,-193,-196,-913,36,-63
6680,27,-181,-209,-1134,54,-42
6685,21,-178,-219,-1485,62,-3
6690,27,-189,-216,-1815,67,31
6695,22,-209,-211,-2144,68,71
6700,22,-238,-196,-2444,66,107
6705,21,-269,-179,-2698,49,142
6710,25,-303,-163,-2899,19,163
6715,29,-330,-147,-3047,-20,185
6720,38,-374,-127,-3136,-55,197
6725,47,-422,-100,-3157,-70,211
6730,53,-461,-84,-3098,-63,214
6735,68,-499,-95,-2913,-30,205
6740,68,-515,-82,-2671,12,172
6745,72,-520,-98,-2369,50,129
6750,66,-513,-118,-2028,69,72
6755,61,-502,-139,-1679,70,19
6760,58,-463,-165,-1355,63,-35
6765,48,-452,-181,-1063,56,-76
6770,40,-431,-188,-812,60,-119
6775,28,-407,-194,-599,67,-155
6780,22,-388,-190,-427,78,-194
6785,18,-370,-186,-277,98,-230
6790,14,-355,-181,-194,113,-253
6795,14,-337,-175,-152,139,-267
6800,10,-324,-165,-137,170,-276
6805,8,-311,-155,-132,208,-279
6810,8,-295,-143,-130,237,-280
6815,2,-286,-135,-131,254,-278
6820,4,-274,-133,-127,256,-273
6825,4,-261,-136,-113,247,-263
6830,6,-256,-135,-98,227,-253
6835,13,-252,-129,-78,202,-235
6840,19,-235,-151,-65,186,-222
6845,26,-227,-155,-58,178,-204
6850,31,-222,-163,-64,174,-195
6855,36,-215,-166,-79,169,-185
6860,42,-213,-168,-102,157,-179
6865,41,-216,-169,-126,137,-168
6870,41,-217,-173,-151,112,-158
6875,42,-221,-173,-175,86,-144
6880,41,-223,-171,-188,62,-127
6885,28,-225,-174,-193,40,-103
6890,41,-235,-168,-182,31,-87
6895,40,-242,-161,-155,24,-69
6900,39,-248,-157,-119,20,-59
6905,36,-249,-150,-72,12,-45
6910,33,-238,-150,-18,2,-34
6915,29,-259,-152,40,-9,-25
6920,23,-258,-144,95,-26,-20
6925,21,-260,-143,153,-40,-15
6930,19,-262,-141,208,-53,-10
6935,18,-260,-144,268,-65,-3
6940,19,-260,-150,310,-71,1
6945,19,-260,-148,344,-73,9
6950,21,-258,-157,369,-71,16
6955,18,-258,-164,380,-68,21
6960,21,-259,-165,385,-66,25
6965,20,-258,-169,383,-58,29
6970,21,-258,-175,378,-47,31
6975,21,-261,-171,371,-39,32
6980,21,-260,-170,369,-27,29
6985,27,-264,-164,374,-15,29
6990,26,-258,-166,389,-5,31
6995,28,-259,-161,410,8,34
7000,31,-258,-158,442,22,37
7005,28,-250,-158,477,43,47
7010,31,-246,-150,516,64,63
7015,30,-242,-153,556,89,77
7020,28,-235,-148,598,110,90
7025,27,-230,-143,641,135,96
7030,26,-221,-139,685,155,103
7035,24,-215,-143,735,181,109
7040,27,-210,-141,771,203,110
7045,21,-202,-132,806,227,114
7050,20,-198,-128,838,247,119
7055,19,-192,-132,852,265,125
7060,19,-193,-126,850,276,132
7065,18,-192,-126,845,285,135
7070,16,-191,-125,839,291,138
7075,16,-183,-124,831,291,139
7080,16,-185,-121,823,289,141
7085,16,-185,-121,809,287,138
7090,16,-183,-115,800,283,139
7095,15,-181,-111,797,274,138
7100,19,-183,-112,805,266,146
7105,19,-181,-108,821,262,151
7110,18,-180,-106,843,258,160
7115,24,-176,-106,878,258,170
7120,26,-173,-104,914,261,182
7125,22,-169,-98,952,269,186
7130,23,-163,-94,994,278,196
7135,23,-155,-94,1051,296,205
7140,24,-148,-94,1091,312,215
7145,25,-142,-90,1120,326,214
7150,21,-132,-83,1155,349,217
7155,21,-123,-72,1214,386,220
7160,18,-117,-68,1294,428,224
7165,15,-98,-61,1382,466,218
7170,14,-81,-59,1458,495,226
7175,15,-68,-65,1526,508,235
7180,13,-62,-69,1558,509,251
7185,10,-49,-69,1526,486,244
7190,5,-41,-64,1451,451,228
7195,5,-33,-72,1366,416,205
7200,4,-26,-75,1271,387,179
7205,4,-28,-79,1163,368,153
7210,1,-33,-82,1049,360,135
7215,1,-36,-84,931,355,112
7220,1,-40,-90,822,348,92
7225,-1,-43,-93,737,343,71
7230,1,-50,-99,672,345,65
7235,9,-56,-103,621,350,62
7240,10,-61,-109,592,358,67
7245,14,-68,-113,570,366,64
7250,14,-76,-115,542,366,58
7255,16,-84,-113,504,361,43
7260,16,-97,-111,464,350,29
7265,18,-113,-109,419,332,8
7270,18,-131,-108,372,311,-4
7275,21,-150,-116,325,290,-17
7280,22,-172,-116,284,271,-23
7285,27,-195,-120,248,256,-36
7290,28,-215,-129,205,246,-46
7295,32,-234,-134,164,242,-64
7300,35,-254,-142,127,238,-73
7305,33,-278,-150,99,230,-79
7310,30,-298,-153,80,219,-68
7315,29,-320,-156,75,208,-52
7320,25,-338,-150,82,202,-20
7325,20,-357,-149,103,200,14
7330,15,-368,-145,145,200,54
7335,10,-372,-146,203,200,101
7340,5,-371,-138,285,207,146
7345,-3,-353,-129,354,215,185
7350,-1,-331,-116,408,218,227
7355,9,-312,-109,449,223,257
7360,12,-292,-104,479,232,281
7365,16,-268,-94,505,246,287
7370,21,-257,-88,527,260,291
7375,25,-235,-85,543,272,285
7380,29,-223,-71,555,286,275
7385,35,-209,-58,562,296,258
7390,39,-197,-53,564,303,245
7395,45,-192,-48,558,311,225
7400,51,-184,-49,538,312,205
7405,52,-175,-43,497,314,178
7410,52,-169,-44,436,315,154
7415,52,-161,-48,351,318,124
7420,53,-160,-51,245,322,101
7425,50,-157,-59,122,332,76
7430,44,-164,-64,-11,346,60
7435,38,-170,-63,-148,366,42
7440,30,-176,-68,-301,385,37
7445,21,-193,-65,-410,405,33
7450,16,-202,-69,-489,430,40
7455,8,-215,-75,-547,445,39
7460,4,-229,-76,-582,457,46
7465,3,-245,-89,-597,460,48
7470,0,-254,-98,-604,457,52
7475,0,-267,-109,-596,447,57
7480,-2,-280,-116,-574,434,66
7485,-7,-286,-120,-534,412,76
7490,-4,-294,-125,-455,391,90
7495,-2,-301,-123,-366,365,101
7500,-1,-303,-124,-261,336,113
7505,1,-301,-122,-150,302,118
7510,0,-291,-122,-37,262,122
7515,4,-283,-119,62,221,122
7520,6,-273,-112,139,180,115
7525,12,-266,-105,192,141,104
7530,11,-260,-105,230,106,94
7535,14,-253,-100,250,77,80
7540,18,-248,-93,256,64,70
7545,17,-242,-85,253,63,58
7550,18,-237,-81,245,74,49
7555,20,-233,-77,235,92,44
7560,17,-228,-75,223,114,43
7565,17,-223,-74,211,137,44
7570,17,-224,-70,192,158,48
7575,12,-217,-66,172,173,54
7580,13,-218,-61,150,183,59
7585,12,-218,-61,127,183,65
7590,14,-220,-56,100,174,70
7595,13,-221,-56,77,158,72
7600,12,-227,-57,53,141,73
7605,14,-230,-54,30,122,73
7610,15,-235,-53,9,105,71
7615,20,-243,-56,-4,94,71
7620,19,-246,-57,-13,90,70
7625,20,-249,-58,-17,91,70
7630,19,-252,-55,-20,95,70
7635,20,-255,-60,-21,99,70
7640,23,-255,-59,-25,99,67
7645,21,-256,-64,-27,98,64
7650,23,-255,-66,-33,96,58
7655,21,-254,-68,-38,92,54
7660,18,-253,-71,-44,88,50
7665,16,-252,-66,-48,87,47
7670,15,-251,-68,-51,80,40
7675,11,-248,-70,-54,72,38
7680,12,-250,-76,-57,62,37
7685,11,-246,-72,-58,50,40
7690,9,-247,-71,-59,40,41
7695,10,-248,-81,-59,32,46
7700,7,-246,-81,-60,25,48
7705,6,-247,-84,-64,16,53
7710,3,-245,-83,-70,10,52
7715,4,-247,-86,-79,3,53
7720,5,-247,-85,-89,-1,51
7725,5,-251,-89,-99,-4,52
7730,6,-251,-88,-104,-6,47
7735,6,-249,-85,-106,-10,45
7740,6,-251,-83,-101,-11,42
7745,9,-253,-80,-91,-14,39
7750,7,-253,-81,-80,-12,34
7755,10,-250,-81,-69,-13,33
7760,11,-252,-82,-60,-8,28
7765,11,-250,-81,-60,-3,26
7770,10,-249,-79,-60,1,23
7775,14,-246,-79,-62,5,22
7780,14,-250,-78,-61,5,19
7785,15,-248,-76,-59,6,15
7790,12,-245,-77,-52,5,13
7795,15,-244,-75,-45,6,14
7800,14,-246,-70,-36,5,12
7805,15,-245,-74,-27,7,12
7810,14,-243,-72,-18,7,11
7815,16,-243,-67,-14,8,12
7820,16,-240,-74,-16,6,10
7825,17,-241,-75,-26,4,16
7830,14,-238,-76,-42,1,12
7835,13,-241,-76,-62,-6,13
7840,14,-242,-81,-85,-10,7
7845,17,-242,-80,-103,-9,7
7850,16,-242,-79,-119,-8,2
7855,15,-243,-78,-131,-3,1
7860,18,-243,-84,-144,1,-5
7865,16,-244,-84,-151,6,-6
7870,18,-241,-85,-161,16,-11
7875,19,-243,-87,-165,26,-13
7880,14,-240,-87,-169,38,-19
7885,13,-238,-83,-168,50,-20
7890,14,-241,-87,-166,59,-27
7895,12,-242,-84,-164,66,-27
7900,13,-245,-83,-158,69,-30
7905,13,-248,-80,-151,69,-31
7910,15,-252,-82,-141,72,-36
7915,15,-251,-81,-135,74,-36
7920,18,-254,-84,-131,79,-40
7925,19,-252,-83,-131,84,-39
7930,15,-253,-84,-134,90,-42
7935,14,-256,-86,-137,94,-39
7940,16,-254,-85,-137,99,-42
7945,15,-253,-81,-138,103,-40
7950,12,-251,-88,-133,107,-43
7955,11,-248,-85,-129,110,-40
7960,14,-248,-85,-123,112,-42
7965,16,-246,-81,-120,115,-39
7970,15,-246,-83,-114,116,-40
7975,15,-248,-83,-111,116,-38
7980,18,-245,-86,-109,116,-38
7985,12,-245,-83,-109,115,-35
7990,18,-240,-86,-108,114,-37
7995,12,-242,-82,-109,112,-33
8000,11,-240,-85,-109,109,-33
8005,13,-240,-82,-106,105,-29
8010,14,-240,-78,-102,97,-30
8015,16,-242,-79,-99,91,-23
8020,16,-240,-78,-94,85,-21
8025,12,-240,-77,-90,83,-15
8030,15,-242,-74,-85,80,-14
8035,15,-241,-80,-83,78,-8
8040,11,-244,-75,-86,73,-8
8045,13,-246,-77,-87,68,-4
8050,10,-244,-79,-91,64,-8
8055,11,-244,-77,-94,60,-7
8060,11,-246,-74,-98,62,-12
8065,9,-244,-78,-99,68,-11
8070,11,-246,-72,-101,74,-13
8075,8,-248,-76,-99,81,-14
8080,13,-252,-75,-97,88,-16
8085,13,-251,-76,-96,94,-16
8090,13,-251,-71,-94,98,-18
8095,9,-250,-77,-96,99,-17
8100,11,-253,-73,-99,97,-20
8105,12,-251,-78,-102,95,-18
8110,14,-254,-81,-107,92,-18
8115,11,-253,-81,-110,87,-17
8120,11,-252,-79,-113,83,-17
8125,11,-251,-81,-114,80,-18
8130,10,-253,-84,-109,80,-18
8135,9,-248,-84,-105,83,-18
8140,11,-247,-83,-97,85,-19
8145,13,-244,-80,-92,87,-16
8150,9,-246,-85,-89,89,-16
8155,11,-243,-83,-86,88,-14
8160,11,-243,-88,-87,85,-15
8165,11,-239,-82,-91,82,-15
8170,12,-241,-82,-94,79,-15
8175,9,-244,-83,-99,72,-13
8180,9,-241,-84,-101,66,-12
8185,10,-242,-81,-102,59,-9
8190,12,-242,-79,-101,52,-10
8195,10,-243,-81,-100,52,-8
8200,12,-245,-80,-97,47,-6
8205,12,-244,-81,-97,43,-6
8210,13,-246,-78,-98,38,-4
8215,13,-248,-83,-101,37,-3
8220,12,-247,-76,-106,36,-2
8225,15,-251,-76,-107,37,-4
8230,16,-252,-77,-105,41,-3
8235,13,-250,-81,-100,48,-4
8240,17,-251,-78,-90,56,-4
8245,15,-254,-80,-83,64,-2
8250,16,-252,-82,-77,69,1
8255,15,-250,-82,-69,71,2
8260,13,-251,-81,-60,74,4
8265,13,-251,-78,-51,75,3
8270,12,-250,-80,-40,76,6
8275,14,-250,-81,-33,78,6
8280,14,-251,-80,-25,81,8
8285,11,-247,-83,-20,83,7
8290,11,-245,-80,-18,84,10
8295,7,-243,-79,-18,83,8
8300,8,-246,-82,-19,82,8
8305,9,-242,-82,-20,76,7
8310,9,-245,-82,-19,71,7
8315,6,-243,-81,-19,68,6
8320,10,-246,-82,-20,64,8
8325,10,-244,-78,-21,62,8
8330,10,-245,-80,-22,62,9
8335,7,-244,-82,-24,63,9
8340,6,-243,-82,-24,64,11
8345,12,-247,-79,-26,65,10
8350,9,-244,-80,-29,65,12
8355,7,-246,-82,-33,65,11
8360,8,-244,-84,-34,65,13
8365,8,-247,-85,-34,64,11
8370,8,-246,-85,-33,62,13
8375,10,-247,-84,-28,61,9
8380,11,-246,-84,-24,60,11
8385,11,-244,-82,-21,56,9
8390,10,-245,-85,-21,51,10
8395,10,-244,-82,-19,46,6
8400,12,-246,-82,-21,42,7
8405,11,-247,-80,-20,35,5
8410,10,-247,-86,-20,30,5
8415,10,-244,-86,-17,28,2
8420,10,-245,-84,-13,24,7
8425,10,-247,-81,-12,25,5
8430,11,-245,-82,-9,26,9
8435,8,-244,-84,-5,28,8
8440,12,-247,-82,-7,32,11
8445,12,-248,-82,-8,31,11
8450,11,-245,-81,-8,33,12
8455,12,-246,-83,-7,35,11
8460,12,-249,-84,-6,37,12
8465,13,-247,-84,-5,38,9
8470,12,-243,-84,-1,42,13
8475,12,-244,-84,2,44,10
8480,13,-242,-86,2,45,13
8485,12,-241,-85,0,44,10
8490,16,-242,-86,-1,43,12
8495,11,-238,-87,-3,40,8
8500,11,-236,-89,-5,37,12
8505,14,-239,-84,-9,34,9
8510,13,-236,-84,-13,31,11
8515,11,-242,-85,-21,26,9
8520,13,-243,-81,-27,25,10
8525,12,-241,-84,-33,22,8
8530,13,-241,-83,-38,22,9
8535,14,-243,-80,-45,24,8
8540,11,-245,-85,-49,25,9
8545,14,-246,-82,-50,25,7
8550,14,-248,-88,-48,22,9
8555,12,-247,-83,-44,17,7
8560,11,-247,-82,-39,13,10
8565,11,-247,-82,-31,9,7
8570,11,-247,-89,-20,7,10
8575,8,-244,-87,-9,8,9
8580,12,-246,-85,4,12,12
8585,12,-246,-87,20,18,11
8590,12,-244,-85,27,24,14
8595,13,-245,-86,33,30,12
8600,11,-242,-89,35,34,15
8605,13,-243,-87,31,36,12
8610,12,-245,-88,23,34,13
8615,11,-242,-89,15,29,8
8620,12,-244,-86,6,22,9
8625,14,-246,-89,1,15,7
8630,14,-245,-85,-5,7,7
8635,13,-245,-86,-8,2,3
8640,11,-244,-87,-8,0,5
8645,12,-245,-87,-10,3,2
8650,13,-245,-83,-10,6,5
8655,14,-246,-85,-12,8,3
8660,10,-242,-85,-16,10,5
8665,14,-243,-89,-18,12,5
8670,13,-239,-85,-20,16,7
8675,12,-241,-83,-22,16,7
8680,9,-240,-87,-24,16,8
8685,13,-244,-82,-23,14,6
8690,12,-243,-86,-22,15,8
8695,11,-243,-82,-23,15,6
8700,11,-244,-89,-25,15,8
8705,11,-239,-87,-28,15,4
8710,14,-244,-82,-33,14,4
8715,16,-244,-85,-36,14,2
8720,10,-243,-84,-40,12,1
8725,11,-245,-86,-41,11,-1
8730,13,-245,-85,-42,10,-1
8735,13,-245,-88,-43,11,-4
8740,13,-244,-88,-43,11,-2
8745,12,-244,-90,-43,12,-4
8750,13,-245,-89,-41,14,-2
8755,12,-244,-90,-39,17,-2
8760,13,-244,-90,-38,20,-2
8765,13,-243,-83,-37,22,-3
8770,16,-244,-89,-40,26,-1
8775,14,-242,-89,-43,27,-2
8780,16,-244,-90,-46,26,-1
8785,13,-242,-88,-46,26,-2
8790,15,-243,-86,-47,23,-1
8795,13,-244,-86,-48,23,0
8800,13,-244,-91,-48,21,1
8805,12,-244,-89,-48,18,2
8810,12,-245,-90,-45,19,2
8815,12,-244,-86,-41,19,4
8820,13,-241,-89,-38,19,4
8825,14,-243,-86,-33,21,4
8830,11,-243,-89,-32,23,6
8835,12,-241,-91,-31,25,4
8840,11,-243,-87,-31,26,3
8845,10,-242,-85,-32,27,3
8850,13,-240,-87,-33,28,2
8855,11,-242,-84,-35,28,2
8860,10,-242,-87,-39,29,-1
8865,9,-242,-94,-41,28,-1
8870,13,-243,-88,-45,29,-4
8875,15,-242,-85,-48,28,-4
8880,10,-241,-89,-49,30,-4
8885,18,-238,-91,-52,30,-3
8890,13,-241,-86,-53,31,-4
8895,12,-243,-89,-54,30,-4
8900,9,-243,-89,-54,29,-4
8905,13,-242,-87,-53,31,-5
8910,12,-242,-88,-50,31,-5
8915,14,-245,-84,-50,31,-2
8920,13,-246,-90,-52,33,-2
8925,13,-244,-88,-52,33,-1
8930,11,-240,-87,-52,32,-2
8935,14,-243,-88,-52,30,0
8940,11,-244,-89,-51,25,-1
8945,11,-244,-88,-48,25,-1
8950,13,-244,-85,-47,23,-1
8955,14,-247,-88,-44,22,0
8960,11,-245,-87,-43,23,-1
8965,10,-244,-88,-42,24,0
8970,10,-244,-87,-39,30,-1
8975,11,-242,-93,-39,36,1
8980,12,-242,-88,-39,42,0
8985,12,-243,-91,-39,47,3
8990,12,-244,-86,-39,51,2
8995,12,-243,-90,-39,50,2
9000,13,-242,-89,-41,52,2
9005,14,-244,-88,-44,55,3
9010,13,-242,-87,-45,51,1
9015,13,-245,-90,-46,52,3
9020,15,-245,-87,-46,48,1
9025,11,-242,-91,-43,48,2
9030,13,-243,-87,-41,50,-1
9035,13,-244,-86,-38,51,1
9040,11,-244,-88,-36,52,1
9045,10,-244,-89,-36,55,2
9050,9,-245,-87,-36,56,-1
9055,9,-246,-86,-36,57,3
9060,10,-246,-87,-33,58,2
9065,11,-246,-90,-34,58,5
9070,12,-245,-91,-36,63,2
9075,10,-246,-93,-36,65,5
9080,12,-244,-90,-37,67,3
9085,11,-244,-93,-38,69,4
9090,12,-243,-92,-37,71,-1
9095,12,-245,-90,-34,71,0
9100,10,-242,-87,-32,70,-1
9105,12,-239,-90,-31,69,-1
9110,10,-238,-89,-31,69,-3
9115,9,-239,-93,-32,69,-1
9120,11,-236,-89,-31,68,-3
9125,11,-238,-90,-34,65,-1
9130,10,-238,-88,-36,64,-3
9135,10,-239,-88,-39,64,-2
9140,11,-240,-88,-43,63,-3
9145,12,-243,-87,-47,61,0
9150,12,-244,-84,-49,66,-1
9155,12,-241,-90,-51,68,1
9160,12,-246,-91,-52,72,0
9165,12,-248,-94,-50,77,3
9170,13,-247,-94,-47,78,-1
9175,9,-248,-94,-42,81,1
9180,9,-248,-92,-37,83,-2
9185,11,-246,-95,-32,85,0
9190,10,-241,-93,-28,86,-3
9195,9,-245,-89,-25,87,0
9200,11,-241,-93,-23,90,-4
9205,12,-243,-92,-20,90,-1
9210,12,-241,-89,-19,91,-2
9215,11,-241,-91,-17,92,1
9220,9,-235,-90,-18,92,0
9225,12,-240,-89,-19,92,2
9230,9,-240,-90,-19,91,1
9235,8,-238,-88,-22,90,4
9240,11,-241,-93,-23,90,2
9245,8,-243,-89,-26,86,4
9250,11,-240,-90,-31,83,4
9255,12,-243,-89,-35,81,4
9260,9,-243,-91,-38,82,2
9265,9,-241,-96,-39,81,3
9270,11,-240,-95,-41,80,1
9275,11,-242,-93,-39,78,3
9280,13,-245,-93,-38,79,2
9285,8,-244,-97,-36,78,3
9290,12,-244,-91,-32,81,0
9295,12,-243,-93,-29,80,2
9300,11,-242,-94,-28,80,-1
9305,12,-244,-92,-25,79,-1
9310,11,-242,-91,-24,81,-2
9315,11,-242,-91,-22,82,-1
9320,11,-243,-92,-19,84,-3
9325,9,-243,-89,-19,85,0
9330,10,-243,-92,-20,85,-2
9335,10,-243,-89,-21,86,1
9340,11,-245,-93,-19,86,-1
9345,11,-246,-93,-18,86,0
9350,10,-244,-89,-17,86,-1
9355,11,-244,-93,-15,85,-1
9360,9,-242,-93,-17,86,-1
9365,10,-240,-92,-17,89,-2
9370,13,-241,-89,-18,90,-2
9375,11,-241,-91,-20,92,-2
9380,10,-240,-91,-20,93,-2
9385,12,-239,-93,-23,93,-1
9390,8,-238,-95,-24,94,-3
9395,9,-241,-90,-26,92,-2
9400,12,-240,-92,-26,89,-3
9405,7,-241,-94,-28,89,-3
9410,8,-241,-92,-30,85,0
9415,10,-244,-93,-29,82,-2
9420,10,-241,-94,-31,78,-3
9425,9,-242,-90,-31,75,-1
9430,8,-243,-89,-31,72,-2
9435,12,-244,-92,-29,70,-3
9440,7,-241,-91,-24,68,-3
9445,7,-244,-91,-21,68,-4
9450,9,-242,-91,-18,69,-2
9455,9,-241,-91,-14,70,-4
9460,10,-242,-92,-9,71,-3
9465,5,-241,-88,-8,73,-3
9470,7,-240,-92,-8,73,-2
9475,8,-241,-86,-7,73,-3
9480,9,-239,-91,-7,73,-3
9485,9,-242,-92,-9,74,-3
9490,9,-243,-90,-10,72,-3
9495,7,-241,-91,-11,71,-3
9500,7,-242,-91,-13,68,-2
9505,9,-241,-91,-14,67,-1
9510,8,-244,-92,-16,67,-2
9515,11,-245,-89,-14,66,-4
9520,10,-243,-95,-13,66,-4
9525,13,-244,-92,-14,67,-6
9530,8,-244,-92,-13,66,-6
9535,7,-242,-94,-14,66,-7
9540,7,-241,-88,-15,67,-6
9545,8,-240,-94,-15,67,-7
9550,7,-241,-95,-15,63,-7
9555,9,-243,-90,-13,62,-7
9560,6,-241,-88,-9,58,-5
9565,6,-240,-91,-8,54,-6
9570,6,-243,-86,-5,48,-4
9575,6,-241,-86,-5,43,-4
9580,10,-243,-86,-5,39,-2
9585,7,-243,-90,-7,36,-5
9590,8,-244,-90,-8,34,-3
9595,7,-246,-88,-11,33,-6
9600,8,-245,-89,-15,33,-4
9605,6,-245,-92,-20,34,-7
9610,9,-247,-96,-22,35,-6
9615,8,-246,-91,-21,36,-9
9620,11,-243,-92,-19,37,-7
9625,11,-244,-91,-17,39,-8
9630,9,-242,-91,-15,39,-6
9635,12,-245,-87,-13,39,-8
9640,11,-242,-91,-11,41,-5
9645,12,-243,-87,-10,44,-6
9650,11,-242,-92,-9,45,-4
9655,13,-240,-92,-7,46,-6
9660,11,-241,-93,-5,46,-3
9665,11,-240,-90,-4,45,-5
9670,13,-241,-89,-2,45,-3
9675,11,-243,-91,-2,44,-6
9680,11,-243,-88,-1,43,-3
9685,13,-242,-87,-2,44,-5
9690,8,-238,-88,-1,45,-3
9695,11,-242,-93,-5,44,-6
9700,11,-244,-88,-7,44,-3
9705,9,-245,-90,-8,45,-6
9710,12,-244,-91,-8,46,-4
9715,7,-244,-88,-7,49,-8
9720,7,-243,-86,-6,51,-7
9725,10,-241,-87,-6,52,-10
9730,10,-241,-91,-5,55,-8
9735,10,-241,-91,-7,56,-11
9740,12,-241,-85,-9,55,-8
9745,10,-240,-87,-10,53,-10
9750,11,-238,-88,-12,52,-8
9755,9,-239,-89,-14,49,-11
9760,11,-239,-88,-19,47,-8
9765,8,-240,-89,-24,45,-9
9770,11,-241,-90,-31,42,-6
9775,12,-240,-91,-35,41,-9
9780,11,-243,-92,-37,40,-5
9785,9,-245,-89,-37,40,-7
9790,11,-246,-89,-37,41,-3
9795,10,-245,-88,-33,42,-5
9800,10,-246,-89,-28,42,-3
9805,10,-244,-94,-25,44,-4
9810,12,-243,-93,-20,43,-2
9815,12,-246,-89,-18,43,-5
9820,10,-242,-91,-12,45,-1
9825,12,-244,-89,-8,47,-5
9830,12,-242,-94,-6,48,-1
9835,11,-242,-91,-2,49,-6
9840,11,-242,-91,-2,48,-3
9845,8,-242,-87,0,51,-6
9850,12,-243,-89,2,54,-3
9855,13,-243,-90,2,55,-5
9860,14,-242,-85,1,57,-2
9865,10,-242,-87,-3,59,-4
9870,11,-243,-90,-5,62,-1
9875,13,-242,-89,-7,64,-3
9880,11,-244,-89,-10,66,-1
9885,11,-244,-88,-14,65,-3
9890,12,-243,-88,-17,68,-1
9895,12,-245,-93,-17,70,-3
9900,10,-245,-88,-20,70,0
9905,11,-241,-93,-20,70,-3
9910,10,-245,-92,-21,69,-2
9915,13,-244,-92,-21,69,-2
9920,8,-242,-95,-18,69,-1
9925,10,-243,-94,-18,68,-1
9930,12,-242,-90,-16,69,1
9935,14,-244,-87,-15,68,1
9940,12,-244,-92,-14,68,3
9945,8,-245,-91,-12,68,1
9950,8,-242,-93,-11,67,3
9955,8,-241,-93,-9,69,2
9960,12,-243,-92,-7,69,3
9965,11,-241,-93,-5,70,3
9970,9,-239,-91,-4,70,5
9975,11,-244,-92,-3,73,3
9980,11,-240,-90,-1,72,4
9985,12,-240,-89,2,72,3
9990,10,-241,-89,1,72,2
9995,10,-241,-87,1,72,1
10000,12,-242,-87,1,74,1
10005,11,-242,-88,-2,75,0
10010,12,-241,-90,-2,74,1
10015,10,-243,-91,-4,76,1
10020,7,-241,-90,-7,76,1
10025,7,-241,-91,-9,76,-1
10030,9,-245,-89,-9,76,0
10035,11,-244,-94,-10,74,-1
10040,8,-244,-89,-10,72,0
10045,12,-243,-91,-10,72,-2
10050,10,-243,-90,-11,69,-2
10055,9,-243,-93,-10,67,-1
10060,10,-244,-92,-12,65,-1
10065,8,-247,-92,-13,64,-1
10070,11,-243,-93,-12,64,1
10075,11,-244,-91,-10,64,1
10080,12,-247,-90,-7,62,1
10085,11,-243,-91,-5,64,2
10090,12,-245,-94,0,64,1
10095,12,-244,-90,5,65,3
10100,11,-244,-90,8,65,2
10105,6,-242,-89,10,66,4
10110,10,-242,-86,12,67,2
10115,9,-240,-87,14,69,3
10120,11,-241,-90,11,69,2
10125,11,-242,-84,9,71,3
10130,10,-242,-89,6,75,2
10135,12,-244,-90,2,77,3
10140,9,-243,-92,-1,82,0
10145,9,-241,-89,-3,82,1
10150,11,-242,-90,-4,84,0
10155,9,-243,-89,-3,85,1
10160,9,-242,-89,-4,83,-1
10165,12,-242,-91,-3,84,0
10170,11,-245,-91,-2,84,-1
10175,10,-241,-88,-1,80,0
10180,8,-242,-90,0,78,-1
10185,8,-243,-93,2,76,0
10190,9,-241,-94,0,73,-1
10195,9,-246,-89,-1,71,1
10200,11,-244,-87,0,70,-3
10205,8,-241,-91,-1,68,0
10210,8,-245,-87,1,66,-1
10215,10,-246,-88,2,65,2
10220,10,-246,-92,4,67,-1
10225,10,-241,-87,5,68,0
10230,10,-245,-92,4,70,-3
10235,7,-241,-93,3,71,-1
10240,10,-243,-91,2,71,-2
10245,9,-242,-85,1,70,0
10250,10,-243,-88,0,69,-4
10255,11,-242,-91,1,65,-2
10260,10,-240,-93,3,65,-4
10265,10,-241,-95,4,62,-2
10270,9,-243,-89,4,60,-5
10275,10,-241,-91,4,57,-4
10280,10,-240,-88,4,56,-7
10285,8,-242,-91,3,54,-5
10290,10,-246,-87,3,55,-7
10295,7,-239,-90,2,56,-3
10300,7,-237,-90,0,54,-6
10305,9,-241,-88,-1,53,-5
10310,7,-243,-88,-1,54,-7
10315,7,-242,-90,-1,54,-5
10320,10,-242,-88,-1,53,-7
10325,10,-244,-89,0,52,-4
10330,10,-245,-86,1,52,-7
10335,10,-246,-85,2,53,-4
10340,8,-246,-93,3,51,-9
10345,11,-245,-91,4,53,-5
10350,10,-244,-91,8,55,-6
10355,12,-246,-87,10,55,-4
10360,10,-245,-85,10,55,-8
10365,13,-245,-90,9,56,-5
10370,12,-245,-87,8,57,-8
10375,12,-241,-91,7,56,-6
10380,13,-241,-93,6,59,-9
10385,13,-240,-94,3,60,-8
10390,10,-240,-90,1,62,-10
10395,12,-242,-88,-3,61,-8
10400,10,-242,-87,-6,59,-9
10405,10,-241,-89,-8,56,-5
10410,14,-244,-88,-10,56,-7
10415,13,-243,-87,-10,52,-5
10420,8,-242,-87,-8,51,-6
10425,7,-245,-90,-7,50,-3
10430,12,-246,-91,-6,50,-5
10435,12,-245,-91,-4,48,-1
10440,12,-246,-88,-1,48,-4
10445,13,-244,-91,2,46,-2
10450,10,-244,-92,3,47,-3
10455,10,-242,-88,7,49,-1
10460,10,-244,-88,9,49,-4
10465,9,-243,-90,12,49,-2
10470,9,-241,-92,14,51,-4
10475,8,-242,-87,15,52,-4
10480,10,-242,-86,16,54,-6
10485,9,-240,-84,17,54,-4
10490,10,-242,-89,13,54,-7
10495,12,-242,-87,11,56,-7
10500,11,-240,-89,9,56,-8
10505,15,-242,-90,6,56,-6
10510,9,-244,-91,3,56,-8
10515,9,-243,-89,3,55,-6
10520,10,-244,-86,1,54,-9
10525,10,-242,-83,0,54,-6
10530,11,-244,-92,-1,55,-8
10535,12,-244,-88,0,57,-7
10540,10,-246,-89,0,57,-7
10545,10,-248,-87,-1,58,-6
10550,8,-244,-87,-1,58,-7
10555,10,-244,-89,-1,58,-7
10560,10,-244,-88,0,56,-9
10565,11,-243,-86,1,56,-8
10570,11,-244,-90,0,54,-10
10575,11,-244,-89,2,53,-8
10580,11,-245,-90,5,52,-10
10585,11,-242,-90,4,51,-7
10590,10,-243,-89,5,52,-8
10595,11,-243,-88,4,54,-6
10600,10,-243,-88,6,53,-6
10605,11,-246,-86,7,55,-7
10610,8,-244,-90,10,54,-8
10615,11,-244,-88,14,55,-6
10620,12,-245,-87,15,54,-6
10625,11,-242,-86,16,55,-6
10630,13,-243,-83,16,58,-8
10635,12,-240,-85,13,56,-9
10640,13,-242,-86,11,54,-9
10645,11,-244,-92,8,54,-10
10650,13,-244,-86,7,53,-10
10655,10,-243,-87,5,52,-12
10660,12,-242,-84,6,51,-12
10665,11,-243,-86,6,49,-10
10670,10,-243,-84,7,48,-11
10675,10,-244,-84,9,50,-12
10680,10,-243,-86,11,48,-11
10685,10,-247,-83,13,49,-10
10690,12,-244,-82,13,49,-8
10695,8,-246,-86,15,48,-7
10700,9,-243,-83,15,46,-8
10705,10,-246,-83,16,41,-8
10710,12,-244,-84,16,40,-6
10715,11,-245,-86,18,37,-8
10720,11,-246,-82,17,39,-7
10725,12,-244,-86,18,40,-7
10730,12,-246,-81,15,39,-7
10735,13,-245,-84,16,42,-8
10740,11,-243,-86,15,41,-7
10745,10,-246,-85,13,42,-8
10750,13,-244,-88,11,43,-6
10755,9,-243,-86,7,47,-8
10760,13,-243,-85,4,47,-7
10765,11,-245,-85,0,50,-7
10770,10,-243,-88,-3,53,-8
10775,12,-245,-88,-6,55,-9
10780,10,-245,-86,-7,56,-7
10785,14,-246,-85,-7,59,-10
10790,12,-245,-85,-6,60,-7
10795,13,-243,-85,-4,61,-9
10800,14,-244,-84,0,61,-7
10805,11,-245,-88,2,61,-9
10810,10,-245,-86,4,64,-7
10815,13,-242,-88,5,64,-7
10820,12,-243,-84,6,63,-6
10825,10,-243,-85,6,64,-7
10830,12,-244,-83,7,64,-7
10835,11,-242,-82,7,64,-8
10840,11,-244,-84,7,61,-6
10845,13,-246,-87,8,59,-8
10850,9,-241,-86,9,58,-5
10855,11,-245,-83,9,57,-8
10860,11,-245,-89,7,57,-4
10865,9,-243,-85,4,59,-5
10870,12,-245,-84,3,60,-4
10875,9,-241,-87,2,61,-6
10880,11,-246,-89,0,62,-5
10885,11,-243,-82,-2,63,-7
10890,9,-245,-83,-3,64,-4
10895,13,-245,-82,-3,65,-6
10900,8,-243,-83,-2,65,-4
10905,8,-243,-83,-3,63,-6
10910,11,-243,-83,-3,62,-3
10915,10,-244,-82,-4,60,-5
10920,10,-245,-86,-6,60,-3
10925,9,-245,-84,-9,57,-3
10930,8,-243,-84,-9,55,-2
10935,10,-245,-84,-12,55,-3
10940,10,-244,-84,-13,52,-2
10945,8,-246,-83,-13,54,-4
10950,12,-243,-85,-16,54,0
10955,13,-245,-86,-17,54,-3
10960,13,-246,-91,-17,56,-1
10965,12,-246,-85,-18,56,-4
10970,11,-248,-84,-17,58,-1
10975,8,-244,-84,-14,60,-5
10980,11,-244,-84,-12,61,-2
10985,11,-246,-82,-9,63,-4
10990,12,-243,-86,-4,63,-1
10995,7,-244,-84,-3,65,-3
11000,11,-245,-80,-2,64,-2
11005,14,-243,-82,-3,63,-3
11010,13,-246,-85,-4,62,-1
11015,10,-242,-85,-6,63,-3
11020,10,-242,-85,-9,64,-2
11025,11,-241,-86,-12,62,-4
11030,10,-245,-85,-17,62,-1
11035,12,-244,-86,-23,59,-4
11040,11,-244,-89,-27,58,-2
11045,11,-244,-86,-28,58,-3
11050,12,-243,-86,-28,58,-1
11055,16,-241,-75,-27,58,-2
11060,11,-252,-83,-25,60,1
11065,5,-246,-80,-20,61,-2
11070,13,-250,-85,-18,60,1
11075,12,-246,-84,-14,61,0
11080,9,-243,-84,-12,61,2
11085,12,-245,-81,-10,60,0
11090,8,-243,-84,-8,61,2
11095,11,-244,-84,-6,62,0
11100,10,-246,-85,-4,63,1
11105,12,-247,-87,-3,63,-1
11110,11,-243,-81,-4,65,-1
11115,11,-244,-85,-5,65,-2
11120,13,-244,-87,-5,66,-1
11125,12,-246,-83,-7,67,-3
11130,10,-245,-83,-11,68,-2
11135,10,-244,-87,-14,67,-4
11140,12,-245,-83,-16,67,-4
11145,9,-246,-85,-18,69,-5
11150,9,-243,-84,-19,70,-6
11155,12,-244,-87,-21,69,-5
11160,12,-244,-83,-19,70,-3
11165,10,-242,-89,-18,69,-4
11170,10,-244,-85,-13,68,-2
11175,8,-245,-88,-11,67,-3
11180,11,-242,-89,-9,66,-1
11185,13,-247,-87,-7,66,-3
11190,9,-243,-88,-8,66,-2
11195,11,-244,-88,-9,65,-2
11200,13,-245,-85,-8,65,-1
11205,8,-243,-86,-8,66,0
11210,10,-246,-85,-6,64,2
11215,12,-245,-86,-4,65,0
11220,10,-244,-84,-1,67,2
11225,11,-241,-85,2,65,2
11230,11,-243,-85,4,65,2
11235,13,-242,-86,6,65,1
11240,10,-241,-85,8,62,2
11245,9,-240,-86,6,63,1
11250,11,-240,-85,1,61,0
11255,11,-244,-83,-2,61,0
11260,11,-243,-82,-6,61,-1
11265,11,-244,-86,-10,61,-2
11270,11,-245,-85,-11,61,-1
11275,11,-243,-86,-12,60,-3
11280,11,-244,-88,-14,60,-3
11285,12,-244,-86,-16,59,-4
11290,11,-245,-83,-18,59,-4
11295,8,-246,-85,-19,58,-3
11300,10,-243,-88,-18,57,-5
11305,10,-247,-87,-18,57,-3
11310,11,-247,-84,-16,56,-5
11315,10,-243,-86,-15,57,-2
11320,11,-248,-84,-12,57,-3
11325,10,-242,-86,-9,55,0
11330,11,-244,-85,-6,55,-1
11335,13,-244,-84,-4,52,1
11340,12,-243,-86,-2,51,-1
11345,8,-245,-86,0,51,-1
11350,8,-244,-88,1,52,-2
11355,10,-244,-86,1,50,-1
11360,11,-243,-87,1,51,-1
11365,10,-242,-88,2,51,-3
11370,10,-244,-87,0,52,-3
11375,8,-244,-87,-2,54,-3
11380,12,-246,-84,-4,57,-6
11385,9,-242,-87,-7,58,-5
11390,11,-243,-86,-8,58,-7
11395,11,-242,-88,-9,59,-7
11400,8,-243,-85,-9,61,-8
11405,12,-244,-81,-9,62,-6
11410,9,-244,-81,-9,61,-8
11415,8,-240,-83,-7,59,-6
11420,12,-243,-89,-7,57,-7
11425,14,-243,-86,-8,57,-5
11430,10,-245,-80,-9,55,-7
11435,10,-244,-82,-9,54,-4
11440,13,-244,-87,-8,55,-8
11445,9,-248,-81,-9,55,-4
11450,11,-245,-81,-8,56,-5
11455,12,-247,-83,-7,55,-4
11460,13,-246,-81,-5,55,-4
11465,10,-247,-81,-5,55,-2
11470,8,-244,-84,-4,53,-4
11475,9,-245,-85,-3,51,-2
11480,11,-248,-84,-2,52,-5
11485,10,-245,-86,-3,51,-3
11490,10,-244,-84,-2,51,-5
11495,10,-240,-82,-4,51,-3
11500,8,-242,-83,-5,51,-5
11505,10,-244,-84,-6,51,-3
11510,10,-245,-87,-8,51,-5
11515,9,-245,-84,-9,52,-4
11520,10,-246,-83,-11,51,-6
11525,9,-245,-83,-10,49,-4
11530,10,-244,-85,-13,49,-5
11535,10,-245,-85,-16,49,-2
11540,12,-243,-83,-19,48,-4
11545,10,-246,-85,-22,51,-3
11550,11,-246,-85,-25,49,-6
11555,13,-245,-83,-27,50,-4
11560,14,-246,-86,-25,51,-5
11565,9,-245,-81,-22,50,-3
11570,12,-247,-88,-17,51,-5
11575,13,-246,-85,-11,52,-3
11580,10,-247,-84,-7,53,-4
11585,11,-248,-83,-4,54,-1
11590,10,-243,-85,0,53,-2
11595,11,-241,-86,-4,54,-1
11600,10,-243,-86,-5,53,-3
11605,12,-243,-85,-8,49,-3
11610,11,-244,-82,-9,49,-4
11615,12,-244,-83,-10,48,-3
11620,10,-244,-86,-9,48,-6
11625,9,-245,-82,-8,47,-2
11630,13,-245,-84,-8,48,-5
11635,9,-245,-87,-9,48,-3
11640,11,-243,-86,-9,51,-4
11645,9,-243,-84,-10,54,-3
11650,13,-246,-87,-9,56,-5
11655,14,-243,-83,-10,58,-3
11660,10,-240,-84,-10,59,-5
11665,11,-244,-87,-8,58,-2
11670,10,-241,-82,-9,59,-4
11675,12,-242,-86,-13,56,-2
11680,9,-242,-90,-15,57,-4
11685,10,-245,-89,-17,56,-2
11690,12,-242,-86,-17,55,-5
11695,10,-243,-84,-18,55,-2
11700,10,-243,-84,-15,54,-1
11705,11,-245,-85,-12,53,2
11710,12,-247,-87,-10,53,1
11715,11,-246,-81,-7,51,3
11720,10,-247,-79,-3,53,1
11725,12,-246,-86,0,51,2
11730,13,-248,-87,3,53,0
11735,9,-246,-85,5,52,3
11740,8,-244,-82,5,53,0
11745,9,-245,-85,5,53,0
11750,9,-244,-86,6,56,-1
11755,9,-245,-86,4,56,-1
11760,12,-244,-86,5,57,-2
11765,9,-244,-85,3,59,-1
11770,9,-243,-84,3,60,-3
11775,10,-243,-88,1,61,-2
11780,9,-244,-85,-1,62,-4
11785,11,-243,-81,-3,62,-3
11790,9,-245,-87,-5,63,-2
11795,11,-243,-83,-6,62,-1
11800,9,-243,-87,-5,61,-2
11805,11,-244,-87,-3,62,0
11810,13,-245,-86,-1,63,0
11815,10,-244,-85,1,63,2
11820,8,-243,-85,2,62,2
11825,11,-243,-84,5,62,4
11830,11,-244,-85,5,59,3
11835,8,-241,-84,4,58,4
11840,11,-244,-86,2,56,5
11845,11,-247,-87,0,55,5
11850,7,-246,-83,3,53,6
11855,11,-247,-80,5,51,5
11860,10,-248,-82,9,52,4
11865,10,-247,-84,14,53,5
11870,8,-244,-82,15,52,3
11875,8,-241,-80,15,53,4
11880,9,-243,-82,14,54,4
11885,9,-245,-86,10,54,2
11890,9,-245,-85,6,54,2
11895,10,-244,-83,2,55,1
11900,9,-243,-81,0,55,2
11905,7,-246,-78,-4,55,1
11910,11,-244,-79,-4,53,1
11915,9,-249,-82,-3,52,0
11920,9,-246,-84,-1,50,0
11925,9,-250,-79,1,46,-2
11930,6,-246,-81,1,42,-2
11935,13,-247,-85,5,41,-2
11940,6,-247,-81,6,38,-2
11945,7,-248,-83,4,37,-4
11950,9,-246,-82,7,35,-3
11955,8,-246,-82,6,35,-4
11960,8,-246,-83,6,35,-2
11965,7,-245,-80,8,36,-2
11970,10,-245,-83,10,39,-2
11975,9,-243,-85,11,42,-2
11980,11,-243,-83,11,45,-2
11985,10,-242,-83,9,48,-2
11990,13,-243,-84,9,48,0
11995,13,-245,-81,7,50,-2
