timestamp,acc_x,acc_y,acc_z,gyro_x,gyro_y,gyro_z
0,2,-234,-87,73,7,-13
5,2,-237,-85,73,7,-13
10,4,-232,-81,75,6,-12
15,1,-233,-87,75,6,-13
20,5,-233,-87,74,7,-13
25,4,-239,-81,73,6,-10
30,3,-233,-85,71,3,-11
35,4,-231,-87,70,4,-12
40,3,-235,-86,70,3,-11
45,3,-239,-84,69,2,-11
50,2,-233,-85,69,2,-10
55,4,-237,-86,72,3,-10
60,3,-233,-87,73,3,-11
65,6,-233,-87,74,3,-9
70,2,-234,-85,77,3,-10
75,2,-235,-91,80,3,-12
80,3,-238,-83,81,4,-12
85,4,-231,-83,81,3,-12
90,2,-233,-83,80,4,-12
95,4,-233,-83,77,3,-12
100,5,-231,-83,73,2,-10
105,3,-233,-82,70,2,-13
110,7,-231,-81,66,2,-11
115,2,-232,-83,61,3,-11
120,4,-229,-81,55,2,-10
125,1,-233,-84,52,3,-9
130,2,-229,-86,47,5,-9
135,5,-234,-84,45,5,-9
140,3,-233,-80,41,7,-10
145,3,-232,-85,36,8,-11
150,2,-231,-83,33,8,-11
155,5,-234,-84,32,11,-9
160,2,-236,-83,34,12,-9
165,4,-231,-87,33,13,-8
170,4,-234,-90,34,13,-9
175,3,-234,-88,35,14,-9
180,1,-232,-87,35,16,-9
185,5,-237,-85,33,16,-11
190,4,-234,-83,33,19,-10
195,2,-236,-86,34,19,-11
200,9,-233,-83,36,20,-9
205,1,-235,-89,39,19,-8
210,3,-233,-85,44,19,-9
215,2,-236,-85,46,19,-9
220,5,-234,-83,47,19,-9
225,5,-235,-84,50,18,-9
230,1,-236,-86,51,18,-8
235,2,-235,-82,52,20,-10
240,2,-230,-84,52,19,-8
245,2,-232,-84,53,19,-10
250,2,-237,-82,55,17,-11
255,2,-233,-80,57,16,-12
260,3,-234,-83,61,15,-11
265,3,-233,-83,63,14,-11
270,0,-234,-83,65,13,-13
275,3,-234,-88,67,13,-13
280,3,-233,-84,67,13,-11
285,1,-230,-85,66,15,-10
290,7,-236,-82,61,17,-9
295,3,-235,-87,58,19,-8
300,3,-233,-80,54,20,-10
305,3,-232,-81,48,21,-10
310,5,-234,-82,45,21,-9
315,2,-234,-82,41,21,-10
320,3,-234,-80,38,19,-10
325,3,-233,-85,38,17,-10
330,6,-236,-84,37,17,-8
335,1,-236,-86,38,16,-8
340,3,-237,-83,39,17,-6
345,1,-235,-80,43,18,-5
350,4,-232,-82,48,19,-5
355,1,-231,-85,52,19,-4
360,5,-234,-80,54,20,-5
365,2,-235,-86,55,22,-5
370,3,-230,-86,55,24,-5
375,2,-232,-84,51,22,-5
380,3,-234,-83,47,23,-6
385,1,-231,-85,41,24,-7
390,4,-230,-83,37,23,-7
395,2,-235,-85,32,23,-7
400,4,-231,-84,27,23,-7
405,2,-234,-79,22,22,-9
410,5,-236,-84,18,21,-7
415,4,-233,-87,16,20,-9
420,4,-234,-86,16,20,-7
425,2,-235,-87,16,19,-7
430,2,-235,-85,17,20,-8
435,2,-236,-84,20,19,-7
440,2,-235,-82,24,18,-7
445,1,-233,-88,30,17,-7
450,-1,-235,-86,36,18,-5
455,4,-238,-89,42,18,-5
460,4,-235,-82,48,18,-7
465,1,-232,-83,52,18,-8
470,1,-234,-85,55,17,-7
475,2,-235,-86,58,15,-9
480,3,-237,-82,61,15,-10
485,3,-236,-85,61,14,-11
490,3,-232,-82,61,15,-11
495,2,-234,-87,63,14,-11
500,1,-230,-90,62,13,-11
505,3,-231,-83,62,12,-12
510,2,-235,-82,60,11,-12
515,3,-232,-81,57,9,-12
520,4,-233,-82,53,8,-12
525,1,-232,-85,50,7,-11
530,3,-232,-85,47,6,-12
535,4,-234,-81,45,4,-13
540,1,-233,-83,43,4,-13
545,4,-234,-85,43,2,-13
550,2,-232,-81,44,4,-14
555,2,-232,-88,44,3,-13
560,2,-232,-88,47,2,-12
565,3,-232,-88,48,2,-11
570,3,-232,-88,47,4,-11
575,5,-236,-88,49,5,-12
580,2,-235,-84,50,6,-11
585,4,-234,-88,54,8,-13
590,3,-236,-85,56,9,-11
595,3,-234,-86,60,11,-11
600,6,-235,-84,60,10,-10
605,8,-236,-85,61,10,-10
610,6,-239,-86,61,9,-11
615,1,-232,-83,59,9,-12
620,0,-227,-88,57,8,-11
625,4,-234,-87,57,8,-11
630,5,-232,-84,55,7,-11
635,4,-233,-86,54,8,-10
640,2,-233,-82,55,7,-11
645,2,-231,-82,55,7,-12
650,2,-234,-84,55,7,-11
655,5,-235,-84,56,8,-12
660,4,-235,-86,55,8,-13
665,3,-235,-81,57,8,-11
670,4,-233,-85,58,8,-13
675,2,-234,-88,57,9,-12
680,3,-229,-84,56,9,-11
685,4,-233,-83,54,10,-10
690,1,-234,-87,54,11,-10
695,2,-234,-85,52,10,-11
700,4,-233,-81,52,10,-10
705,3,-233,-86,52,11,-9
710,3,-234,-79,53,10,-9
715,8,-233,-85,55,12,-10
720,4,-233,-85,54,13,-9
725,2,-237,-83,55,13,-12
730,2,-237,-90,54,12,-10
735,2,-238,-84,52,12,-10
740,3,-234,-83,54,11,-10
745,0,-234,-87,54,13,-10
750,2,-234,-86,54,12,-9
755,1,-233,-82,56,12,-10
760,2,-233,-81,57,12,-10
765,2,-236,-85,57,11,-9
770,1,-235,-84,58,10,-10
775,2,-234,-85,59,10,-9
780,3,-234,-86,60,10,-7
785,0,-233,-85,62,10,-9
790,3,-233,-85,63,8,-9
795,5,-234,-81,65,9,-9
800,2,-236,-84,65,9,-10
805,2,-233,-82,65,9,-9
810,3,-231,-82,65,8,-11
815,4,-237,-85,63,7,-12
820,3,-235,-82,63,6,-14
825,1,-234,-84,64,7,-14
830,1,-236,-87,65,4,-13
835,2,-232,-82,66,4,-13
840,0,-236,-87,67,5,-13
845,0,-234,-85,69,4,-11
850,1,-234,-84,71,4,-13
855,0,-232,-82,74,6,-13
860,2,-237,-83,76,6,-13
865,3,-237,-86,78,7,-12
870,4,-233,-88,80,6,-11
875,4,-233,-84,83,6,-12
880,3,-237,-83,83,5,-12
885,3,-232,-85,82,5,-11
890,2,-234,-83,79,4,-12
895,0,-227,-88,79,5,-10
900,2,-233,-86,75,5,-12
905,1,-232,-81,74,5,-10
910,6,-236,-82,73,4,-10
915,3,-237,-82,72,3,-11
920,2,-237,-81,73,1,-11
925,0,-233,-85,78,1,-11
930,5,-237,-83,79,0,-12
935,5,-235,-83,82,-2,-13
940,4,-235,-83,85,-3,-12
945,3,-234,-85,87,-3,-13
950,4,-229,-85,86,-1,-13
955,4,-234,-81,86,-1,-13
960,3,-230,-84,83,-3,-14
965,4,-235,-83,81,-1,-12
970,2,-231,-83,79,-1,-14
975,3,-236,-83,77,-2,-13
980,1,-233,-80,75,-1,-13
985,6,-236,-81,72,-2,-14
990,2,-234,-84,71,-2,-11
995,3,-232,-82,69,0,-11
1000,6,-234,-80,68,0,-11
1005,7,-232,-83,66,1,-10
1010,3,-231,-83,65,3,-9
1015,2,-233,-80,64,5,-9
1020,2,-233,-84,65,6,-9
1025,1,-233,-84,64,7,-10
1030,1,-236,-81,65,10,-10
1035,4,-237,-80,66,10,-10
1040,3,-232,-85,66,10,-11
1045,4,-233,-84,63,9,-12
1050,0,-232,-83,60,10,-11
1055,0,-234,-82,59,11,-12
1060,2,-234,-84,58,11,-11
1065,2,-234,-86,59,10,-12
1070,1,-232,-86,58,12,-13
1075,3,-233,-84,57,12,-13
1080,3,-234,-87,56,14,-13
1085,6,-235,-83,53,15,-11
1090,4,-235,-82,53,14,-11
1095,2,-234,-81,54,14,-11
1100,5,-235,-86,54,15,-11
1105,2,-233,-85,53,17,-10
1110,3,-234,-84,51,17,-9
1115,0,-233,-85,51,15,-9
1120,1,-233,-85,51,16,-9
1125,0,-233,-84,50,15,-7
1130,1,-231,-86,50,15,-8
1135,4,-236,-80,52,15,-9
1140,2,-234,-85,52,14,-9
1145,7,-237,-84,54,14,-9
1150,2,-234,-82,56,14,-9
1155,1,-234,-83,57,14,-11
1160,0,-234,-84,58,15,-10
1165,3,-238,-84,59,16,-10
1170,0,-236,-81,59,18,-9
1175,1,-231,-82,59,18,-8
1180,4,-232,-86,57,18,-9
1185,1,-233,-83,54,18,-9
1190,2,-234,-84,52,18,-9
1195,1,-233,-83,49,18,-9
1200,3,-234,-87,48,17,-8
1205,3,-235,-83,46,18,-8
1210,1,-234,-80,44,18,-7
1215,6,-234,-83,44,18,-4
1220,1,-240,-87,45,19,-4
1225,4,-232,-82,43,20,-6
1230,4,-238,-85,42,23,-4
1235,3,-232,-83,42,24,-2
1240,5,-233,-82,42,24,-2
1245,3,-236,-85,42,24,-2
1250,3,-236,-83,40,24,-3
1255,3,-232,-87,38,24,-4
1260,0,-232,-86,37,23,-3
1265,2,-232,-80,37,23,-3
1270,3,-234,-82,38,22,-5
1275,2,-238,-88,38,20,-5
1280,2,-231,-86,39,20,-5
1285,2,-234,-84,39,17,-7
1290,5,-237,-85,40,16,-7
1295,2,-235,-85,41,16,-6
1300,2,-237,-85,42,16,-6
1305,1,-236,-83,45,15,-6
1310,4,-236,-84,47,15,-7
1315,2,-234,-84,50,17,-8
1320,2,-234,-85,53,15,-6
1325,1,-232,-84,55,15,-7
1330,1,-232,-79,56,14,-6
1335,1,-232,-84,57,14,-7
1340,3,-234,-87,56,16,-7
1345,5,-236,-80,55,15,-8
1350,1,-230,-87,55,15,-9
1355,2,-236,-82,53,14,-8
1360,2,-231,-86,52,14,-8
1365,3,-234,-78,51,13,-9
1370,7,-236,-83,50,14,-8
1375,1,-232,-83,51,16,-8
1380,4,-236,-80,50,17,-8
1385,7,-236,-76,50,15,-9
1390,4,-233,-82,49,16,-8
1395,2,-235,-83,50,18,-10
1400,4,-235,-80,50,17,-5
1405,3,-236,-82,53,17,-7
1410,3,-238,-80,54,18,-8
1415,2,-234,-83,56,19,-7
1420,3,-238,-84,57,20,-7
1425,2,-234,-85,57,19,-7
1430,5,-232,-83,57,18,-8
1435,2,-232,-82,59,18,-8
1440,4,-236,-85,59,18,-8
1445,3,-235,-85,58,16,-7
1450,3,-232,-81,58,16,-7
1455,1,-233,-83,58,16,-7
1460,4,-232,-82,58,16,-7
1465,4,-235,-84,56,14,-10
1470,3,-233,-81,56,13,-8
1475,1,-235,-82,56,13,-7
1480,-1,-234,-81,54,13,-9
1485,2,-235,-78,54,13,-8
1490,2,-236,-82,54,12,-9
1495,-1,-234,-80,54,11,-8
1500,2,-233,-85,55,11,-10
1505,-2,-231,-81,56,12,-10
1510,4,-233,-82,57,13,-11
1515,3,-234,-82,59,13,-10
1520,2,-233,-82,59,14,-11
1525,1,-233,-82,59,15,-10
1530,2,-233,-82,60,17,-9
1535,0,-232,-87,60,17,-9
1540,1,-235,-82,60,16,-9
1545,4,-235,-84,59,15,-10
1550,5,-237,-77,59,13,-10
1555,4,-237,-85,59,12,-10
1560,3,-235,-82,58,11,-9
1565,4,-236,-81,59,10,-11
1570,3,-235,-85,59,9,-12
1575,1,-231,-81,61,9,-11
1580,3,-235,-81,63,9,-11
1585,1,-235,-85,64,9,-12
1590,6,-237,-78,68,8,-13
1595,7,-231,-88,74,7,-15
1600,1,-234,-86,79,7,-14
1605,2,-231,-85,81,8,-13
1610,2,-235,-84,82,9,-13
1615,1,-229,-86,82,9,-14
1620,1,-234,-83,78,8,-14
1625,0,-233,-85,77,9,-13
1630,2,-234,-84,75,9,-15
1635,4,-238,-82,71,10,-15
1640,4,-238,-83,70,9,-14
1645,2,-233,-82,70,7,-14
1650,5,-236,-83,70,6,-13
1655,3,-238,-86,71,5,-11
1660,3,-234,-79,73,4,-11
1665,2,-234,-81,77,5,-12
1670,4,-237,-83,79,4,-12
1675,4,-234,-81,82,6,-13
1680,1,-239,-87,84,7,-13
1685,3,-237,-81,87,7,-13
1690,3,-237,-78,91,8,-14
1695,1,-233,-79,93,6,-12
1700,1,-236,-84,96,7,-14
1705,1,-233,-84,99,6,-16
1710,1,-234,-83,98,6,-17
1715,2,-233,-83,96,4,-18
1720,5,-236,-83,92,5,-17
1725,2,-233,-84,90,3,-17
1730,3,-234,-81,88,3,-17
1735,4,-234,-86,85,3,-17
1740,4,-235,-86,84,2,-18
1745,5,-233,-81,85,1,-17
1750,2,-231,-83,86,2,-17
1755,2,-234,-88,85,3,-16
1760,2,-231,-82,84,3,-16
1765,0,-228,-80,83,3,-17
1770,4,-233,-82,79,3,-18
1775,2,-232,-84,74,1,-17
1780,3,-238,-87,68,3,-18
1785,5,-236,-80,62,4,-17
1790,2,-233,-82,57,6,-14
1795,2,-238,-84,56,6,-16
1800,1,-233,-85,56,7,-18
1805,3,-237,-86,59,8,-17
1810,2,-233,-85,65,9,-14
1815,2,-234,-87,69,11,-17
1820,2,-235,-73,72,11,-16
1825,10,-239,-89,73,8,-16
1830,3,-234,-84,72,9,-16
1835,5,-237,-83,72,9,-16
1840,3,-235,-85,71,9,-17
1845,4,-235,-84,70,12,-14
1850,4,-236,-84,69,13,-13
1855,6,-236,-86,68,14,-14
1860,1,-231,-86,69,15,-12
1865,3,-233,-82,70,16,-13
1870,2,-232,-86,69,17,-12
1875,11,-235,-89,66,18,-13
1880,-1,-227,-86,62,18,-12
1885,6,-234,-89,58,18,-12
1890,4,-234,-89,55,19,-11
1895,0,-229,-86,50,22,-12
1900,3,-233,-90,45,24,-11
1905,2,-234,-87,41,26,-11
1910,2,-233,-88,39,27,-12
1915,4,-230,-89,38,29,-11
1920,5,-235,-87,40,30,-10
1925,3,-234,-89,39,33,-13
1930,7,-234,-84,39,35,-11
1935,2,-236,-89,43,37,-11
1940,5,-230,-87,43,40,-12
1945,3,-233,-86,44,42,-12
1950,7,-233,-86,45,42,-13
1955,6,-232,-85,46,44,-12
1960,5,-233,-88,46,45,-12
1965,4,-231,-86,45,45,-10
1970,2,-234,-88,45,45,-10
1975,5,-231,-89,42,43,-10
1980,5,-229,-87,42,43,-9
1985,1,-227,-91,41,42,-8
1990,5,-230,-92,38,41,-6
1995,2,-228,-88,36,43,-5
2000,2,-229,-91,33,44,-5
2005,2,-230,-85,28,44,-6
2010,4,-229,-90,24,44,-7
2015,3,-228,-90,20,44,-6
2020,4,-230,-92,16,46,-7
2025,6,-230,-89,15,45,-9
2030,4,-230,-85,12,45,-9
2035,4,-229,-92,11,45,-10
2040,3,-224,-91,10,48,-10
2045,1,-228,-89,8,49,-11
2050,3,-227,-90,5,49,-13
2055,3,-226,-91,2,51,-12
2060,3,-227,-88,-2,53,-13
2065,4,-226,-90,-7,52,-11
2070,5,-226,-88,-10,51,-13
2075,2,-230,-86,-14,50,-13
2080,6,-230,-86,-14,49,-13
2085,4,-228,-89,-14,46,-14
2090,1,-231,-91,-12,45,-13
2095,5,-234,-90,-12,44,-12
2100,4,-231,-88,-12,41,-12
2105,4,-233,-88,-11,41,-13
2110,2,-232,-90,-10,40,-11
2115,2,-235,-90,-9,39,-10
2120,6,-235,-89,-6,39,-10
2125,3,-237,-86,-4,38,-10
2130,2,-232,-91,-1,37,-11
2135,2,-233,-90,2,38,-11
2140,2,-237,-88,8,36,-11
2145,5,-236,-92,12,33,-11
2150,2,-233,-88,16,30,-11
2155,2,-232,-88,18,28,-9
2160,3,-231,-86,20,27,-10
2165,0,-233,-87,20,26,-8
2170,1,-231,-80,19,25,-9
2175,3,-233,-85,20,23,-8
2180,1,-233,-82,20,20,-6
2185,3,-232,-80,19,18,-5
2190,3,-233,-88,18,19,-2
2195,2,-231,-84,18,19,-1
2200,1,-231,-78,18,17,-2
2205,2,-235,-83,18,15,-1
2210,3,-235,-80,21,12,-1
2215,1,-238,-86,26,9,-1
2220,0,-235,-82,31,6,-1
2225,0,-240,-82,40,2,-3
2230,0,-241,-81,51,-4,-3
2235,-2,-246,-83,66,-10,-7
2240,-2,-250,-77,86,-16,-10
2245,-3,-251,-80,111,-16,-8
2250,-2,-253,-84,135,-17,-7
2255,-5,-251,-90,156,-15,-8
2260,-6,-247,-84,173,-16,-11
2265,-6,-250,-86,185,-19,-15
2270,-5,-251,-77,199,-21,-13
2275,-6,-260,-75,218,-19,-6
2280,-5,-254,-87,233,-16,2
2285,-4,-243,-100,223,-12,6
2290,-10,-235,-104,170,-6,12
2295,-8,-225,-111,77,-2,26
2300,-9,-204,-142,-60,-10,47
2305,-11,-175,-182,-281,-32,69
2310,-19,-152,-207,-582,-44,89
2315,-17,-153,-203,-899,-48,123
2320,-23,-173,-177,-1137,-55,152
2325,-23,-189,-150,-1236,-75,159
2330,-27,-190,-139,-1200,-98,160
2335,-24,-178,-142,-1087,-131,158
2340,-20,-162,-155,-964,-169,152
2345,-14,-128,-186,-879,-200,143
2350,-6,-92,-208,-866,-223,146
2355,2,-66,-218,-915,-233,161
2360,14,-37,-226,-1004,-234,176
2365,28,-18,-205,-1103,-224,192
2370,29,-8,-194,-1198,-199,204
2375,36,4,-172,-1281,-159,219
2380,37,16,-153,-1358,-117,231
2385,34,29,-140,-1442,-84,238
2390,33,32,-134,-1531,-59,247
2395,29,45,-125,-1628,-33,261
2400,20,50,-120,-1716,-5,288
2405,7,49,-109,-1791,18,318
2410,1,47,-100,-1849,19,346
2415,-9,41,-92,-1881,-5,357
2420,-18,34,-84,-1886,-53,360
2425,-26,25,-80,-1869,-115,348
2430,-37,4,-78,-1834,-186,319
2435,-39,-7,-74,-1781,-255,275
2440,-37,-26,-80,-1716,-315,232
2445,-27,-41,-86,-1655,-356,191
2450,-12,-56,-91,-1616,-376,156
2455,-1,-71,-89,-1593,-382,128
2460,4,-89,-94,-1567,-372,108
2465,6,-103,-95,-1533,-351,92
2470,12,-122,-105,-1496,-326,84
2475,6,-128,-108,-1477,-309,80
2480,3,-141,-120,-1474,-299,85
2485,4,-142,-129,-1485,-296,97
2490,4,-155,-148,-1513,-299,103
2495,0,-159,-163,-1550,-301,99
2500,-3,-154,-188,-1601,-298,93
2505,-5,-154,-209,-1672,-292,94
2510,-14,-147,-228,-1760,-287,105
2515,-6,-155,-245,-1863,-287,114
2520,-2,-153,-259,-1970,-273,123
2525,5,-160,-254,-2064,-246,131
2530,14,-173,-246,-2135,-214,141
2535,18,-190,-225,-2163,-179,153
2540,15,-211,-197,-2145,-145,158
2545,2,-235,-185,-2082,-117,158
2550,-8,-257,-183,-1985,-98,141
2555,-11,-276,-190,-1872,-76,102
2560,-20,-301,-199,-1746,-44,49
2565,-32,-318,-200,-1602,-9,0
2570,-34,-331,-192,-1424,14,-51
2575,-38,-335,-188,-1213,15,-86
2580,-35,-338,-179,-982,-11,-117
2585,-27,-332,-179,-767,-52,-146
2590,-24,-325,-182,-590,-93,-180
2595,-25,-314,-183,-464,-138,-216
2600,-14,-303,-195,-368,-164,-249
2605,-9,-294,-197,-311,-140,-283
2610,-3,-277,-203,-288,-96,-296
2615,0,-260,-202,-264,-53,-296
2620,3,-232,-201,-215,-17,-284
2625,1,-195,-201,-133,1,-234
2630,-4,-180,-199,-70,2,-170
2635,-10,-158,-200,-30,-5,-99
2640,-21,-153,-200,-23,-26,-40
2645,-26,-163,-198,-55,-49,8
2650,-35,-182,-197,-89,-70,38
2655,-41,-196,-198,-108,-99,52
2660,-41,-213,-198,-112,-111,44
2665,-48,-231,-193,-98,-107,24
2670,-55,-243,-183,-52,-102,-10
2675,-51,-248,-183,10,-101,-44
2680,-47,-255,-177,66,-98,-73
2685,-30,-254,-181,114,-96,-86
2690,-14,-256,-176,165,-85,-88
2695,-4,-246,-181,221,-72,-90
2700,1,-238,-184,270,-57,-99
2705,0,-225,-192,306,-43,-121
2710,-7,-211,-200,329,-32,-155
2715,-16,-200,-215,349,-28,-187
2720,-23,-196,-226,380,-18,-209
2725,-33,-194,-231,421,-18,-224
2730,-41,-201,-239,469,-30,-235
2735,-49,-212,-249,524,-50,-238
2740,-54,-211,-238,583,-67,-233
2745,-58,-218,-237,649,-94,-222
2750,-61,-218,-239,717,-121,-218
2755,-62,-228,-233,783,-142,-208
2760,-61,-232,-232,840,-153,-203
2765,-51,-240,-231,896,-163,-198
2770,-48,-243,-234,951,-160,-192
2775,-35,-252,-227,1004,-144,-190
2780,-21,-255,-225,1062,-121,-180
2785,-18,-257,-221,1123,-94,-170
2790,-4,-259,-222,1186,-68,-167
2795,0,-257,-226,1254,-37,-169
2800,0,-255,-225,1323,-12,-172
2805,1,-252,-223,1390,7,-177
2810,2,-252,-220,1452,23,-183
2815,2,-249,-219,1504,34,-190
2820,2,-245,-216,1543,45,-200
2825,1,-240,-204,1563,54,-209
2830,3,-240,-201,1567,63,-215
2835,0,-242,-194,1562,71,-216
2840,5,-244,-191,1555,79,-224
2845,-1,-244,-184,1557,88,-226
2850,1,-243,-181,1567,91,-221
2855,0,-241,-180,1595,97,-221
2860,-4,-244,-167,1638,102,-218
2865,-8,-251,-161,1687,99,-216
2870,-8,-247,-162,1741,92,-218
2875,-16,-240,-156,1792,85,-218
2880,-17,-241,-160,1834,82,-215
2885,-19,-233,-157,1866,82,-218
2890,-16,-235,-160,1886,90,-212
2895,-11,-233,-151,1892,97,-211
2900,-14,-240,-139,1893,110,-208
2905,-11,-235,-130,1893,121,-210
2910,0,-239,-126,1891,127,-218
2915,-7,-243,-119,1892,144,-228
2920,-3,-244,-118,1887,163,-241
2925,-6,-238,-115,1875,184,-245
2930,-3,-237,-118,1830,203,-246
2935,0,-238,-114,1744,213,-239
2940,-2,-239,-114,1631,213,-231
2945,1,-244,-106,1511,204,-220
2950,1,-250,-91,1400,191,-213
2955,3,-249,-85,1315,175,-209
2960,7,-256,-81,1268,160,-202
2965,2,-254,-75,1251,143,-196
2970,-2,-251,-73,1257,123,-189
2975,2,-249,-72,1269,104,-183
2980,-2,-242,-77,1276,90,-173
2985,-1,-238,-73,1267,81,-169
2990,0,-243,-70,1250,81,-161
2995,-3,-238,-70,1235,85,-165
3000,-9,-233,-68,1213,94,-167
3005,-4,-233,-66,1173,104,-169
3010,-3,-230,-65,1128,117,-168
3015,-2,-237,-63,1079,126,-167
3020,0,-235,-65,1026,135,-169
3025,-4,-240,-63,979,145,-165
3030,2,-240,-64,945,151,-164
3035,2,-237,-68,912,156,-157
3040,3,-242,-63,872,154,-153
3045,4,-247,-59,855,145,-145
3050,5,-247,-63,848,136,-138
3055,10,-251,-59,847,123,-132
3060,6,-245,-64,852,106,-125
3065,7,-248,-61,856,88,-120
3070,6,-245,-60,853,76,-108
3075,8,-244,-61,840,63,-102
3080,10,-244,-57,826,52,-100
3085,9,-239,-63,816,42,-98
3090,5,-240,-55,811,33,-99
3095,4,-240,-57,813,26,-100
3100,4,-238,-58,817,21,-99
3105,6,-234,-57,815,20,-100
3110,6,-235,-55,808,25,-100
3115,0,-233,-54,803,26,-97
3120,5,-231,-58,801,27,-95
3125,3,-234,-54,788,28,-95
3130,3,-235,-58,774,28,-90
3135,7,-233,-60,759,25,-86
3140,3,-234,-57,739,25,-80
3145,1,-235,-60,720,24,-79
3150,4,-237,-60,702,22,-81
3155,7,-229,-60,683,21,-82
3160,6,-235,-59,662,22,-84
3165,7,-235,-58,640,24,-87
3170,3,-233,-55,622,23,-90
3175,8,-234,-55,603,23,-88
3180,5,-234,-54,585,24,-86
3185,7,-234,-54,566,21,-83
3190,9,-232,-56,545,19,-79
3195,9,-233,-59,522,16,-71
3200,9,-232,-57,501,13,-64
3205,9,-236,-57,483,5,-56
3210,9,-233,-49,469,0,-52
3215,11,-236,-51,453,-1,-48
3220,9,-236,-57,439,-1,-47
3225,8,-241,-54,426,-1,-48
3230,11,-237,-53,413,0,-49
3235,7,-238,-52,400,-1,-49
3240,7,-236,-55,386,-2,-49
3245,9,-238,-54,372,-3,-49
3250,9,-237,-55,355,-5,-47
3255,6,-233,-56,334,-5,-43
3260,6,-237,-55,316,-6,-43
3265,11,-236,-55,297,-8,-41
3270,5,-238,-55,276,-8,-38
3275,6,-240,-62,256,-8,-36
3280,9,-243,-50,239,-7,-35
3285,3,-239,-56,223,-3,-33
3290,4,-240,-60,207,1,-30
3295,5,-240,-56,197,4,-27
3300,4,-242,-54,191,6,-25
3305,6,-240,-58,187,7,-25
3310,4,-242,-55,183,12,-20
3315,5,-238,-55,181,14,-18
3320,3,-235,-54,178,16,-14
3325,8,-240,-50,178,19,-11
3330,4,-238,-49,178,22,-9
3335,1,-236,-48,180,20,-6
3340,2,-236,-50,179,20,-8
3345,5,-238,-46,176,19,-4
3350,4,-237,-48,171,19,-2
3355,3,-237,-48,162,21,-3
3360,2,-236,-49,150,23,-7
3365,5,-241,-49,137,25,-3
3370,5,-238,-46,125,26,-5
3375,6,-236,-49,111,28,-8
3380,5,-241,-49,99,30,-9
3385,1,-238,-45,89,33,-12
3390,1,-245,-40,83,35,-12
3395,2,-244,-46,76,36,-12
3400,3,-244,-42,72,39,-9
3405,1,-243,-45,69,41,-7
3410,2,-246,-44,67,46,-5
3415,2,-245,-47,62,51,-1
3420,1,-244,-45,58,54,2
3425,4,-244,-40,55,56,4
3430,4,-246,-46,48,57,8
3435,4,-247,-41,45,59,10
3440,0,-246,-43,45,59,11
3445,1,-246,-46,45,58,13
3450,0,-247,-42,46,55,12
3455,0,-246,-43,47,52,11
3460,0,-249,-45,51,49,10
3465,0,-246,-44,52,43,9
3470,2,-246,-49,52,40,8
3475,1,-247,-49,51,36,8
3480,0,-248,-51,46,31,7
3485,0,-247,-50,42,27,7
3490,2,-249,-51,38,25,6
3495,2,-244,-51,30,23,7
3500,5,-249,-52,24,20,7
3505,4,-245,-52,19,19,7
3510,3,-242,-49,15,14,6
3515,4,-243,-49,14,12,8
3520,6,-244,-48,12,10,8
3525,6,-244,-49,12,7,9
3530,7,-244,-53,8,6,13
3535,6,-240,-48,1,3,13
3540,8,-240,-51,-9,4,13
3545,7,-242,-50,-23,2,14
3550,11,-242,-51,-33,5,15
3555,8,-240,-56,-39,6,16
3560,7,-243,-54,-43,9,16
3565,8,-242,-54,-42,11,16
3570,8,-244,-57,-36,13,16
3575,8,-245,-56,-31,17,15
3580,8,-245,-58,-25,20,13
3585,6,-246,-60,-21,26,10
3590,8,-248,-56,-17,30,9
3595,8,-244,-62,-14,36,8
3600,5,-246,-58,-12,41,7
3605,10,-247,-56,-8,43,5
3610,6,-244,-56,-3,47,5
3615,2,-245,-56,2,49,0
3620,6,-243,-56,7,48,-1
3625,5,-246,-58,11,49,6
3630,5,-242,-59,10,46,5
3635,4,-245,-58,11,40,8
3640,7,-246,-58,7,34,11
3645,4,-245,-58,5,28,11
3650,3,-242,-60,7,23,14
3655,0,-246,-57,9,17,16
3660,1,-244,-59,12,12,17
3665,1,-244,-57,13,9,18
3670,1,-243,-55,11,6,17
3675,0,-240,-60,8,6,15
3680,1,-241,-57,3,4,16
3685,3,-247,-56,0,4,15
3690,1,-242,-56,6,6,16
3695,0,-244,-55,20,8,14
3700,0,-240,-61,36,10,14
3705,3,-242,-54,53,14,12
3710,4,-244,-60,67,15,13
3715,1,-243,-59,72,17,14
3720,3,-243,-61,73,17,11
3725,3,-242,-59,68,17,10
3730,3,-242,-59,61,16,9
3735,0,-242,-62,52,14,8
3740,2,-244,-58,46,13,8
3745,5,-241,-59,39,13,8
3750,2,-241,-60,35,14,9
3755,1,-241,-58,35,14,9
3760,3,-241,-55,38,14,9
3765,2,-236,-59,42,15,9
3770,2,-240,-58,47,13,7
3775,1,-241,-58,48,13,3
3780,2,-242,-56,50,14,6
3785,1,-243,-56,46,14,4
3790,0,-244,-56,41,15,4
3795,2,-243,-58,35,16,5
3800,5,-240,-54,29,16,6
3805,2,-241,-54,25,15,5
3810,1,-246,-53,22,14,5
3815,1,-244,-56,18,14,5
3820,4,-247,-57,18,15,6
3825,0,-242,-55,19,13,4
3830,1,-244,-56,22,11,3
3835,3,-242,-55,24,10,3
3840,3,-242,-52,25,8,3
3845,0,-243,-54,22,5,2
3850,2,-243,-53,18,4,2
3855,4,-242,-58,15,3,1
3860,5,-242,-51,10,1,3
3865,1,-240,-51,5,0,4
3870,1,-236,-56,1,-2,4
3875,6,-247,-60,-3,-2,3
3880,7,-245,-59,-5,-2,4
3885,1,-241,-59,-3,-2,5
3890,2,-246,-56,0,-2,4
3895,1,-242,-58,7,-1,4
3900,2,-245,-59,14,1,3
3905,4,-243,-58,20,1,4
3910,2,-247,-58,25,4,5
3915,4,-246,-57,30,4,6
3920,0,-246,-62,34,6,6
3925,2,-245,-56,37,6,5
3930,3,-245,-58,41,8,4
3935,2,-247,-57,42,10,2
3940,2,-243,-54,44,8,2
3945,4,-244,-56,46,9,3
3950,1,-243,-59,47,8,3
3955,0,-244,-58,48,8,2
3960,1,-243,-58,49,7,3
3965,-1,-242,-58,51,6,2
3970,2,-241,-53,50,5,2
3975,1,-238,-59,50,4,3
3980,0,-242,-57,50,4,1
3985,8,-244,-57,48,4,-1
3990,1,-243,-58,47,4,0
3995,1,-239,-60,45,4,0
4000,0,-240,-55,44,3,1
4005,1,-241,-58,44,2,1
4010,0,-242,-57,44,5,-1
4015,0,-246,-58,44,6,-1
4020,1,-242,-56,44,6,-1
4025,2,-244,-58,45,8,-2
4030,1,-247,-61,46,9,-1
4035,2,-246,-55,48,10,-3
4040,0,-240,-54,49,12,0
4045,3,-245,-53,53,12,-1
4050,2,-244,-53,55,12,-2
4055,4,-244,-55,57,12,0
4060,0,-241,-55,56,12,0
4065,0,-244,-52,58,11,-3
4070,1,-243,-54,60,13,-2
4075,0,-242,-59,60,15,-2
4080,2,-242,-60,60,15,-1
4085,0,-239,-59,59,15,-1
4090,3,-249,-54,57,16,-2
4095,1,-243,-55,55,14,-2
4100,2,-245,-57,53,16,-4
4105,3,-245,-57,55,15,-4
4110,3,-244,-54,57,13,-6
4115,1,-244,-54,60,12,-7
4120,0,-243,-55,62,10,-8
4125,0,-243,-59,64,9,-10
4130,1,-240,-59,65,9,-8
4135,3,-242,-54,64,10,-9
4140,0,-242,-56,62,12,-8
4145,0,-239,-53,61,12,-8
4150,1,-242,-57,58,12,-8
4155,1,-240,-54,56,14,-6
4160,1,-242,-51,52,15,-7
4165,2,-241,-56,51,14,-4
4170,0,-239,-53,49,15,-4
4175,3,-241,-56,47,13,-2
4180,0,-240,-55,46,13,-4
4185,1,-241,-52,46,13,-6
4190,1,-240,-55,48,13,-7
4195,3,-244,-55,48,13,-7
4200,3,-241,-57,49,12,-8
4205,0,-241,-52,50,11,-7
4210,5,-243,-57,49,13,-7
4215,3,-243,-54,49,13,-8
4220,1,-242,-53,47,15,-7
4225,1,-242,-56,46,15,-5
4230,3,-245,-55,46,16,-7
4235,0,-240,-53,46,17,-6
4240,4,-242,-55,46,17,-6
4245,1,-239,-57,46,19,-6
4250,1,-244,-59,46,19,-5
4255,1,-246,-59,48,19,-4
4260,1,-245,-59,49,17,-5
4265,3,-243,-60,47,16,-4
4270,2,-244,-60,48,15,-7
4275,3,-242,-53,46,14,-6
4280,2,-246,-59,45,15,-6
4285,2,-240,-55,44,13,-8
4290,3,-244,-55,43,12,-7
4295,2,-243,-56,44,12,-9
4300,3,-240,-58,46,13,-8
4305,1,-244,-56,46,12,-7
4310,3,-250,-53,47,13,-8
4315,1,-243,-53,49,13,-11
4320,4,-242,-57,50,13,-10
4325,3,-245,-56,52,13,-10
4330,-2,-243,-58,55,12,-11
4335,0,-243,-56,57,13,-11
4340,1,-244,-59,58,13,-11
4345,-1,-244,-61,58,12,-12
4350,1,-243,-58,58,11,-12
4355,1,-244,-55,58,11,-10
4360,1,-245,-56,60,10,-12
4365,3,-247,-53,57,9,-11
4370,1,-241,-55,58,8,-10
4375,2,-242,-57,60,6,-12
4380,2,-244,-60,62,6,-12
4385,0,-243,-57,65,5,-12
4390,0,-239,-58,70,6,-10
4395,3,-241,-58,70,5,-9
4400,1,-244,-57,70,3,-11
4405,2,-243,-58,69,5,-8
4410,1,-242,-59,68,5,-8
4415,0,-241,-54,67,4,-8
4420,5,-244,-59,66,7,-10
4425,2,-241,-55,63,6,-9
4430,0,-241,-55,62,7,-9
4435,1,-240,-51,61,7,-8
4440,2,-243,-55,62,8,-10
4445,3,-242,-57,63,8,-12
4450,0,-236,-58,62,7,-11
4455,1,-242,-59,59,5,-13
4460,4,-245,-55,54,5,-13
4465,1,-242,-55,47,6,-14
4470,2,-245,-53,43,7,-15
4475,0,-242,-54,38,8,-14
4480,2,-244,-53,36,9,-16
4485,1,-240,-53,36,11,-14
4490,1,-242,-54,35,13,-12
4495,2,-244,-54,36,13,-13
4500,3,-242,-54,38,14,-12
4505,1,-240,-54,39,15,-12
4510,1,-245,-53,41,16,-12
4515,1,-242,-55,42,15,-12
4520,2,-242,-55,41,15,-14
4525,-1,-245,-58,38,13,-15
4530,1,-244,-51,36,14,-16
4535,1,-244,-55,37,14,-15
4540,1,-243,-54,37,14,-16
4545,0,-240,-56,37,14,-15
4550,1,-246,-56,36,15,-16
4555,0,-243,-57,34,15,-14
4560,1,-244,-54,34,16,-15
4565,2,-247,-50,35,16,-16
4570,1,-241,-56,39,16,-16
4575,0,-241,-60,42,16,-16
4580,2,-239,-62,46,19,-18
4585,0,-241,-54,50,19,-14
4590,0,-243,-59,54,18,-16
4595,1,-245,-56,57,21,-14
4600,5,-243,-58,59,22,-12
4605,0,-241,-57,61,21,-14
4610,1,-239,-62,64,20,-13
4615,1,-240,-52,64,20,-13
4620,1,-241,-54,64,20,-15
4625,2,-244,-51,63,19,-15
4630,1,-239,-57,65,19,-16
4635,4,-245,-60,64,19,-17
4640,3,-244,-57,63,19,-17
4645,1,-245,-56,64,18,-16
4650,2,-242,-56,62,19,-17
4655,0,-241,-56,62,18,-19
4660,-1,-240,-55,62,19,-15
4665,2,-243,-55,61,20,-14
4670,0,-243,-54,60,19,-16
4675,1,-241,-58,58,20,-16
4680,2,-245,-60,58,20,-15
4685,2,-238,-52,57,21,-14
4690,0,-245,-57,57,21,-15
4695,1,-242,-58,60,20,-16
4700,0,-244,-61,63,18,-18
4705,2,-244,-59,64,17,-17
4710,2,-244,-61,66,15,-19
4715,1,-242,-55,68,15,-20
4720,2,-239,-57,69,13,-19
4725,-1,-244,-59,70,11,-19
4730,4,-245,-59,69,10,-19
4735,3,-242,-52,68,10,-20
4740,2,-238,-57,67,10,-20
4745,-1,-244,-57,65,12,-19
4750,2,-243,-56,64,10,-18
4755,2,-241,-58,63,12,-17
4760,3,-244,-53,63,14,-18
4765,2,-242,-56,61,14,-16
4770,2,-242,-58,63,15,-15
4775,3,-242,-53,62,15,-17
4780,2,-245,-49,64,15,-17
4785,4,-242,-53,63,15,-15
4790,2,-243,-55,65,15,-17
4795,2,-245,-56,66,15,-17
4800,-1,-242,-54,65,15,-15
4805,3,-243,-53,64,14,-13
4810,1,-242,-55,64,13,-16
4815,2,-241,-56,63,13,-15
4820,1,-245,-54,64,13,-15
4825,0,-244,-55,64,14,-16
4830,0,-245,-56,66,14,-15
4835,2,-242,-57,69,14,-14
4840,-1,-242,-59,73,13,-13
4845,1,-242,-56,76,13,-14
4850,3,-242,-57,78,14,-13
4855,1,-241,-53,80,14,-14
4860,1,-242,-59,80,14,-13
4865,3,-243,-55,81,15,-14
4870,2,-241,-53,80,14,-15
4875,3,-243,-54,80,14,-14
4880,1,-241,-54,78,13,-14
4885,2,-244,-51,77,12,-14
4890,2,-243,-53,76,13,-13
4895,0,-240,-56,75,14,-13
4900,3,-244,-58,73,13,-15
4905,5,-242,-48,72,13,-15
4910,0,-243,-57,70,14,-14
4915,3,-242,-54,68,13,-13
4920,1,-241,-54,67,14,-13
4925,1,-242,-53,67,15,-14
4930,2,-243,-58,70,15,-13
4935,2,-243,-54,71,15,-11
4940,2,-243,-55,72,14,-13
4945,2,-241,-55,70,15,-13
4950,3,-240,-52,69,14,-13
4955,3,-242,-50,69,15,-14
4960,-3,-236,-54,70,13,-12
4965,0,-244,-57,69,11,-13
4970,0,-243,-53,69,10,-14
4975,2,-241,-53,69,11,-15
4980,0,-243,-53,69,10,-15
4985,3,-245,-55,69,9,-15
4990,2,-243,-49,68,10,-14
4995,3,-244,-50,67,11,-16
5000,3,-241,-50,63,11,-15
5005,0,-237,-53,59,13,-14
5010,1,-243,-54,56,14,-13
5015,1,-242,-49,53,15,-13
5020,3,-245,-51,54,17,-12
5025,3,-246,-53,55,16,-14
5030,3,-245,-55,58,17,-14
5035,3,-247,-53,60,17,-14
5040,0,-244,-51,63,18,-13
5045,1,-245,-54,66,16,-13
5050,2,-245,-53,67,16,-14
5055,2,-241,-53,66,15,-15
5060,3,-249,-53,63,14,-15
5065,3,-243,-55,61,15,-15
5070,5,-243,-56,58,15,-15
5075,0,-246,-51,58,16,-15
5080,2,-243,-54,56,16,-15
5085,2,-241,-53,58,15,-13
5090,3,-247,-54,60,14,-13
5095,1,-243,-50,63,14,-13
5100,3,-245,-57,65,15,-12
5105,0,-242,-54,69,15,-14
5110,1,-244,-50,71,13,-13
5115,1,-243,-52,71,14,-11
5120,0,-245,-58,72,13,-13
5125,3,-246,-50,70,13,-12
5130,1,-243,-52,68,14,-12
5135,1,-241,-55,67,14,-12
5140,1,-242,-54,65,14,-11
5145,1,-239,-51,63,14,-14
5150,1,-241,-57,62,15,-12
5155,1,-243,-56,59,14,-12
5160,2,-242,-56,60,15,-13
5165,3,-245,-53,61,15,-12
5170,4,-243,-50,62,14,-12
5175,0,-244,-54,64,14,-13
5180,4,-247,-47,66,14,-13
5185,2,-242,-55,67,15,-13
5190,3,-242,-55,68,15,-14
5195,3,-243,-53,67,16,-12
5200,4,-243,-55,66,15,-11
5205,2,-244,-52,67,14,-11
5210,2,-243,-55,66,15,-12
5215,3,-244,-55,65,17,-11
5220,2,-244,-53,65,16,-12
5225,3,-239,-55,64,15,-11
5230,2,-243,-52,63,16,-10
5235,3,-242,-52,62,14,-11
5240,1,-240,-57,62,14,-11
5245,3,-244,-55,65,14,-9
5250,1,-243,-56,66,13,-8
5255,1,-243,-51,67,13,-10
5260,1,-246,-57,68,12,-11
5265,1,-241,-55,68,13,-10
5270,6,-246,-54,68,13,-9
5275,2,-240,-52,67,13,-9
5280,0,-240,-49,67,14,-9
5285,4,-239,-60,68,14,-11
5290,-1,-247,-58,69,16,-12
5295,5,-244,-54,72,16,-12
5300,0,-241,-54,75,15,-12
5305,1,-243,-53,76,15,-13
5310,1,-240,-51,78,13,-10
5315,3,-241,-56,78,13,-11
5320,1,-243,-55,78,13,-11
5325,3,-243,-55,76,10,-13
5330,2,-240,-49,74,10,-11
5335,4,-245,-54,72,9,-11
5340,2,-245,-56,71,9,-11
5345,3,-242,-52,70,9,-12
5350,1,-243,-52,69,11,-11
5355,3,-244,-52,69,11,-11
5360,3,-246,-51,70,13,-11
5365,0,-242,-50,70,15,-11
5370,3,-246,-51,70,15,-10
5375,4,-244,-51,69,16,-13
5380,2,-244,-52,69,16,-14
5385,1,-244,-50,67,17,-10
5390,0,-244,-52,65,17,-10
5395,1,-244,-46,61,16,-11
5400,2,-243,-52,60,16,-10
5405,0,-243,-52,58,15,-8
5410,1,-242,-52,55,15,-8
5415,2,-246,-53,55,14,-10
5420,4,-246,-53,57,14,-8
5425,4,-244,-51,58,15,-10
5430,5,-246,-53,58,14,-11
5435,3,-244,-49,59,15,-10
5440,1,-243,-53,60,14,-9
5445,2,-241,-53,61,16,-10
5450,0,-242,-50,63,15,-10
5455,4,-242,-51,65,14,-9
5460,2,-243,-55,67,14,-10
5465,1,-243,-50,68,15,-8
5470,3,-241,-49,69,16,-9
5475,1,-242,-52,69,15,-9
5480,3,-240,-52,68,16,-9
5485,4,-246,-46,68,16,-10
5490,3,-243,-53,66,17,-11
5495,5,-244,-51,66,16,-10
5500,2,-247,-54,65,15,-13
5505,6,-240,-56,64,17,-13
5510,1,-243,-52,63,17,-11
5515,1,-243,-52,64,17,-12
5520,2,-245,-57,63,18,-13
5525,2,-242,-52,64,19,-11
5530,2,-246,-57,65,18,-11
5535,0,-243,-55,67,18,-10
5540,2,-244,-49,68,19,-10
5545,4,-239,-53,69,17,-10
5550,2,-247,-48,65,17,-11
5555,2,-237,-49,64,17,-12
5560,2,-243,-51,61,15,-12
5565,3,-244,-53,59,15,-13
5570,1,-243,-53,60,15,-15
5575,2,-242,-53,60,15,-13
5580,2,-242,-51,62,12,-13
5585,0,-240,-55,62,12,-13
5590,0,-240,-50,60,12,-13
5595,0,-244,-54,60,11,-15
5600,2,-246,-50,60,12,-16
5605,2,-242,-53,58,12,-15
5610,-2,-239,-50,58,12,-14
5615,0,-242,-53,58,13,-14
5620,1,-242,-51,59,12,-14
5625,0,-244,-55,59,13,-14
5630,4,-243,-51,61,12,-16
5635,1,-242,-54,60,9,-16
5640,0,-243,-49,59,6,-16
5645,1,-243,-51,58,5,-18
5650,1,-242,-54,57,4,-19
5655,1,-242,-54,57,2,-18
5660,3,-239,-52,55,3,-19
5665,2,-240,-47,54,5,-17
5670,1,-241,-54,52,7,-15
5675,2,-238,-53,46,9,-15
5680,4,-241,-51,38,10,-13
5685,4,-242,-55,32,11,-14
5690,0,-240,-55,28,13,-14
5695,4,-241,-56,26,16,-14
5700,3,-242,-60,28,16,-15
5705,3,-243,-52,29,16,-16
5710,3,-242,-54,29,18,-17
5715,1,-242,-56,30,16,-20
5720,1,-242,-56,27,15,-21
5725,1,-239,-55,20,15,-24
5730,1,-238,-53,9,12,-26
5735,4,-238,-56,-4,8,-26
5740,2,-240,-53,-21,5,-26
5745,1,-236,-53,-40,3,-24
5750,5,-237,-51,-57,2,-20
5755,2,-238,-57,-70,3,-15
5760,1,-239,-57,-80,6,-8
5765,2,-238,-56,-88,13,-5
5770,0,-242,-55,-95,20,-3
5775,0,-240,-60,-104,27,-2
5780,2,-240,-56,-113,31,-1
5785,3,-241,-57,-124,36,-2
5790,5,-240,-58,-137,39,0
5795,3,-243,-54,-151,41,0
5800,3,-245,-56,-171,43,2
5805,3,-246,-57,-191,41,8
5810,5,-241,-58,-218,38,14
5815,2,-241,-60,-250,33,20
5820,6,-241,-58,-288,27,28
5825,4,-239,-57,-332,25,31
5830,8,-235,-66,-378,24,27
5835,5,-235,-66,-421,23,18
5840,7,-233,-66,-461,22,3
5845,5,-230,-71,-501,24,-7
5850,9,-230,-70,-548,32,-5
5855,14,-227,-67,-598,41,11
5860,13,-230,-63,-649,44,26
5865,10,-229,-57,-695,43,30
5870,5,-226,-57,-731,39,22
5875,5,-231,-59,-760,38,10
5880,3,-230,-60,-780,45,-12
5885,0,-223,-64,-784,56,-42
5890,0,-222,-67,-779,64,-65
5895,-2,-223,-70,-769,69,-76
5900,-7,-226,-71,-762,71,-78
5905,0,-227,-69,-763,73,-69
5910,-2,-230,-70,-766,72,-53
5915,-4,-231,-68,-766,67,-34
5920,-2,-232,-66,-766,60,-19
5925,-5,-231,-65,-765,50,-7
5930,-11,-235,-68,-764,35,5
5935,-14,-232,-71,-762,23,9
5940,-9,-231,-63,-745,18,17
5945,-9,-227,-65,-724,9,28
5950,-4,-225,-70,-707,2,35
5955,-3,-216,-68,-706,-8,39
5960,-7,-217,-66,-718,-23,55
5965,-2,-222,-68,-738,-39,72
5970,-8,-221,-65,-765,-50,75
5975,-4,-224,-67,-789,-64,82
5980,-1,-228,-65,-810,-79,94
5985,-4,-226,-67,-834,-91,103
5990,0,-227,-81,-866,-108,114
5995,1,-229,-75,-900,-118,121
6000,1,-226,-77,-937,-124,126
6005,8,-232,-79,-982,-125,136
6010,6,-230,-72,-1037,-123,143
6015,7,-235,-72,-1095,-114,147
6020,14,-232,-75,-1154,-106,159
6025,12,-237,-72,-1209,-98,163
6030,12,-240,-77,-1268,-93,160
6035,13,-237,-76,-1329,-88,158
6040,17,-242,-81,-1392,-82,160
6045,13,-242,-73,-1462,-72,157
6050,18,-244,-75,-1510,-58,152
6055,17,-244,-83,-1549,-46,149
6060,20,-249,-93,-1582,-34,147
6065,23,-251,-97,-1603,-26,143
6070,19,-258,-93,-1616,-18,136
6075,17,-256,-101,-1626,-15,118
6080,23,-259,-99,-1632,-12,104
6085,17,-263,-97,-1632,-15,92
6090,17,-263,-98,-1640,-19,77
6095,16,-266,-100,-1655,-24,64
6100,12,-270,-92,-1676,-25,52
6105,14,-274,-85,-1697,-25,44
6110,15,-276,-80,-1719,-27,43
6115,8,-280,-74,-1738,-30,51
6120,6,-287,-69,-1744,-37,67
6125,6,-290,-68,-1733,-48,100
6130,6,-287,-77,-1695,-60,133
6135,0,-281,-80,-1646,-68,157
6140,2,-282,-91,-1597,-70,174
6145,13,-281,-100,-1570,-57,189
6150,5,-286,-116,-1575,-33,207
6155,7,-286,-124,-1614,-9,220
6160,8,-290,-138,-1664,18,232
6165,11,-299,-158,-1700,49,245
6170,7,-301,-183,-1711,79,249
6175,9,-304,-208,-1688,103,235
6180,1,-300,-221,-1618,109,218
6185,-8,-299,-248,-1502,82,205
6190,-9,-305,-262,-1367,35,184
6195,-17,-307,-269,-1245,-21,147
6200,-27,-308,-266,-1141,-78,96
6205,-32,-309,-260,-1045,-129,31
6210,-27,-307,-259,-963,-164,-44
6215,-34,-301,-267,-885,-186,-119
6220,-37,-288,-276,-808,-192,-184
6225,-37,-277,-285,-727,-189,-215
6230,-35,-282,-296,-647,-178,-215
6235,-35,-292,-293,-573,-165,-193
6240,-37,-292,-290,-497,-164,-162
6245,-44,-293,-293,-418,-181,-130
6250,-37,-293,-292,-336,-208,-96
6255,-35,-291,-274,-246,-234,-66
6260,-33,-284,-282,-152,-248,-41
6265,-31,-277,-282,-57,-246,-25
6270,-33,-264,-274,38,-231,-19
6275,-31,-258,-271,130,-211,-14
6280,-21,-244,-262,215,-191,-12
6285,-14,-229,-252,289,-169,-7
6290,-15,-221,-234,342,-150,7
6295,-13,-216,-225,379,-137,22
6300,-6,-208,-217,395,-122,36
6305,-3,-204,-205,393,-107,44
6310,-5,-197,-203,382,-86,45
6315,0,-192,-199,377,-59,43
6320,-3,-181,-197,382,-28,38
6325,-7,-177,-191,393,3,36
6330,-14,-174,-191,407,30,36
6335,-16,-169,-191,418,48,33
6340,-18,-169,-191,425,59,29
6345,-20,-171,-188,427,73,27
6350,-19,-177,-181,423,83,29
6355,-20,-184,-172,420,93,33
6360,-21,-189,-174,417,100,40
6365,-12,-197,-167,421,104,46
6370,-16,-196,-157,432,107,55
6375,-9,-199,-156,454,111,65
6380,-10,-200,-156,486,116,76
6385,-11,-203,-154,526,124,88
6390,-6,-210,-149,572,134,96
6395,-8,-208,-143,630,145,98
6400,-15,-204,-144,697,152,93
6405,-10,-204,-140,774,155,83
6410,-12,-203,-134,855,152,70
6415,-14,-199,-136,933,146,56
6420,-12,-195,-130,1006,136,42
6425,-18,-191,-125,1073,121,28
6430,-17,-184,-125,1134,98,14
6435,-21,-180,-125,1180,81,1
6440,-23,-172,-116,1215,63,-5
6445,-23,-170,-120,1246,41,-10
6450,-21,-162,-118,1262,20,-14
6455,-20,-155,-113,1267,1,-20
6460,-21,-152,-115,1262,-16,-29
6465,-22,-145,-122,1246,-34,-36
6470,-28,-144,-120,1221,-54,-40
6475,-25,-139,-117,1188,-69,-48
6480,-26,-136,-111,1154,-89,-53
6485,-28,-132,-112,1120,-105,-63
6490,-26,-130,-109,1079,-114,-73
6495,-25,-128,-112,1035,-120,-84
6500,-25,-125,-114,987,-115,-94
6505,-22,-125,-115,946,-108,-105
6510,-21,-115,-111,908,-100,-114
6515,-22,-114,-117,878,-94,-122
6520,-19,-107,-116,847,-89,-127
6525,-26,-100,-121,812,-85,-132
6530,-22,-100,-115,774,-85,-134
6535,-21,-100,-114,741,-87,-136
6540,-20,-103,-109,715,-91,-144
6545,-19,-99,-111,696,-94,-149
6550,-17,-96,-107,683,-100,-155
6555,-13,-100,-106,670,-105,-157
6560,-12,-97,-107,665,-111,-161
6565,-11,-96,-110,665,-117,-156
6570,-7,-94,-109,664,-126,-154
6575,1,-96,-105,668,-135,-152
6580,-2,-96,-117,674,-142,-154
6585,0,-93,-117,681,-150,-153
6590,0,-94,-112,680,-154,-153
6595,-4,-90,-115,681,-155,-150
6600,2,-95,-116,683,-155,-151
6605,0,-96,-126,679,-151,-151
6610,0,-97,-126,672,-150,-155
6615,2,-101,-124,666,-145,-158
6620,0,-105,-126,662,-139,-165
6625,-1,-111,-124,662,-135,-171
6630,0,-113,-131,668,-129,-178
6635,-3,-118,-128,669,-125,-183
6640,1,-125,-136,666,-122,-186
6645,0,-128,-139,655,-120,-186
6650,-1,-131,-142,637,-116,-180
6655,-3,-139,-148,609,-115,-168
6660,-5,-141,-151,573,-110,-155
6665,-6,-148,-153,533,-101,-146
6670,-2,-157,-155,490,-86,-135
6675,1,-167,-153,449,-64,-129
6680,0,-171,-150,410,-44,-123
6685,0,-178,-151,372,-25,-114
6690,-3,-188,-150,330,-10,-107
6695,0,-193,-148,290,-1,-97
6700,0,-201,-148,247,9,-88
6705,0,-209,-149,215,21,-76
6710,2,-214,-148,191,36,-64
6715,3,-221,-146,172,55,-54
6720,5,-227,-149,162,77,-44
6725,1,-227,-149,161,101,-35
6730,3,-227,-151,160,123,-23
6735,5,-230,-147,167,144,-11
6740,6,-230,-148,179,164,-3
6745,7,-231,-145,197,185,7
6750,3,-233,-139,225,200,13
6755,4,-230,-139,258,212,21
6760,4,-227,-132,296,225,27
6765,1,-221,-138,333,236,34
6770,1,-217,-130,366,245,38
6775,-1,-215,-123,390,250,44
6780,0,-212,-120,400,253,48
6785,0,-203,-120,397,253,50
6790,-3,-200,-120,381,250,53
6795,-3,-198,-125,355,245,55
6800,-5,-195,-119,317,242,59
6805,-4,-193,-113,275,238,58
6810,-8,-192,-115,236,234,53
6815,-4,-196,-114,198,228,49
6820,-4,-196,-113,164,221,45
6825,-7,-197,-117,135,211,41
6830,-12,-196,-110,111,202,36
6835,-11,-196,-116,94,197,32
6840,-11,-203,-122,82,189,26
6845,-9,-200,-121,78,183,21
6850,-7,-210,-122,78,180,14
6855,-10,-210,-121,81,175,9
6860,-8,-206,-123,85,169,8
6865,-12,-206,-121,90,161,3
6870,-9,-208,-124,95,156,1
6875,-8,-209,-125,98,152,0
6880,-7,-210,-124,99,145,-3
6885,-7,-208,-120,97,142,-5
6890,-5,-209,-127,92,139,-8
6895,-2,-209,-127,86,132,-10
6900,-5,-210,-124,79,124,-12
6905,-4,-213,-123,71,115,-16
6910,-2,-216,-126,62,108,-18
6915,-3,-214,-122,55,102,-19
6920,-1,-214,-127,53,95,-19
6925,-1,-216,-126,52,88,-21
6930,-2,-215,-124,50,81,-20
6935,1,-217,-121,51,72,-16
6940,0,-216,-126,52,67,-15
6945,1,-218,-122,54,62,-11
6950,-1,-219,-121,62,55,-11
6955,0,-221,-118,67,49,-8
6960,2,-219,-119,75,43,-6
6965,0,-218,-120,86,38,-2
6970,0,-219,-119,95,34,-1
6975,0,-219,-119,101,33,3
6980,2,-216,-120,107,34,6
6985,1,-218,-121,112,34,9
6990,1,-218,-121,114,34,11
6995,-1,-218,-112,117,36,14
7000,1,-221,-118,121,38,12
7005,0,-223,-113,126,41,14
7010,0,-222,-115,129,47,12
7015,-2,-220,-117,132,53,11
7020,-1,-219,-120,132,60,10
7025,1,-218,-115,128,64,11
7030,1,-218,-112,121,70,10
7035,0,-219,-112,113,74,10
7040,-2,-220,-113,107,75,9
7045,-1,-225,-110,104,73,8
7050,-3,-224,-113,103,72,7
7055,-1,-221,-107,104,71,7
7060,1,-223,-110,105,69,9
7065,1,-225,-107,105,66,9
7070,-6,-220,-112,104,67,11
7075,-3,-223,-111,104,69,11
7080,0,-222,-111,104,73,10
7085,0,-227,-110,103,74,10
7090,1,-227,-107,105,74,9
7095,-2,-224,-110,110,78,9
7100,-1,-221,-107,115,82,7
7105,-3,-220,-112,117,82,7
7110,-1,-220,-112,113,79,5
7115,-2,-224,-118,108,77,5
7120,-2,-217,-114,101,77,6
7125,1,-212,-116,93,78,7
7130,0,-217,-109,84,78,6
7135,1,-217,-114,73,78,5
7140,0,-218,-112,67,78,4
7145,-1,-219,-113,62,77,5
7150,0,-220,-112,60,75,7
7155,0,-221,-113,61,73,6
7160,0,-220,-110,63,73,6
7165,-4,-220,-112,65,73,7
7170,-6,-220,-110,66,73,9
7175,-2,-222,-113,65,71,8
7180,-2,-227,-108,63,68,11
7185,-1,-224,-113,62,65,10
7190,-4,-222,-108,62,65,6
7195,-3,-227,-111,65,63,6
7200,-7,-223,-111,69,62,6
7205,-7,-224,-110,73,60,4
7210,-5,-221,-111,77,54,1
7215,-3,-225,-107,82,53,1
7220,-4,-222,-110,84,52,0
7225,-2,-221,-109,83,49,0
7230,-3,-222,-108,82,49,0
7235,-8,-222,-113,77,49,-3
7240,-2,-224,-111,75,48,-1
7245,-3,-225,-111,70,45,-3
7250,-4,-225,-109,69,44,-3
7255,-2,-225,-107,70,43,-5
7260,-1,-223,-112,71,42,-7
7265,0,-225,-111,77,41,-8
7270,0,-230,-112,83,40,-9
7275,0,-225,-110,91,41,-9
7280,0,-224,-110,97,43,-7
7285,1,-224,-111,103,45,-8
7290,-1,-222,-109,107,48,-9
7295,0,-224,-107,108,52,-8
7300,0,-226,-107,109,54,-6
7305,0,-224,-108,107,57,-6
7310,0,-227,-106,106,59,-7
7315,-1,-226,-106,107,62,-7
7320,-3,-226,-108,109,63,-8
7325,-3,-228,-103,110,64,-8
7330,1,-227,-106,110,63,-8
7335,0,-225,-110,114,66,-7
7340,4,-218,-113,117,67,-7
7345,-1,-224,-111,119,66,-6
7350,0,-221,-109,120,66,-7
7355,-3,-223,-106,120,69,-7
7360,-3,-222,-108,118,69,-5
7365,-5,-223,-108,118,70,-6
7370,-1,-224,-107,116,70,-7
7375,-2,-222,-107,115,71,-7
7380,-1,-226,-104,114,71,-6
7385,-1,-223,-101,114,73,-4
7390,0,-223,-103,113,75,-6
7395,-3,-220,-108,113,75,-5
7400,0,-224,-107,111,76,-6
7405,0,-221,-105,108,78,-7
7410,0,-227,-105,110,77,-6
7415,0,-225,-107,112,76,-6
7420,-1,-223,-108,116,76,-7
7425,0,-223,-103,122,76,-6
7430,-2,-226,-109,126,74,-6
7435,0,-227,-108,128,72,-6
7440,1,-225,-103,130,71,-4
7445,0,-224,-108,129,71,-5
7450,2,-230,-104,130,72,-5
7455,-3,-225,-107,131,72,-6
7460,-1,-225,-105,133,70,-4
7465,0,-226,-107,135,70,-5
7470,-4,-225,-103,135,69,-6
7475,-5,-224,-107,137,66,-5
7480,-4,-224,-110,138,64,-5
7485,-3,-224,-107,139,61,-5
7490,-4,-225,-108,137,56,-2
7495,-4,-223,-105,135,54,-3
7500,-3,-224,-107,132,50,-3
7505,-7,-223,-103,133,48,-4
7510,-4,-224,-106,132,48,-2
7515,-2,-228,-103,134,47,-1
7520,-2,-225,-106,136,44,-2
7525,-3,-225,-106,138,43,-1
7530,-2,-222,-105,139,41,-1
7535,-3,-223,-105,137,41,-2
7540,-2,-219,-105,137,39,-2
7545,-3,-224,-106,137,37,-1
7550,-2,-228,-102,138,37,0
7555,-5,-222,-107,141,34,0
7560,-1,-225,-99,141,33,-2
7565,-3,-225,-102,141,32,-2
7570,-4,-222,-101,141,31,-3
7575,-2,-224,-105,139,30,-1
7580,-2,-224,-103,136,26,-3
7585,-3,-224,-101,131,24,-3
7590,0,-224,-104,127,22,-3
7595,-1,-224,-105,124,20,-5
7600,0,-224,-104,121,22,-7
7605,-10,-221,-97,120,21,-7
7610,-1,-228,-99,117,19,-7
7615,-8,-230,-105,115,18,-8
7620,-1,-228,-102,114,15,-7
7625,-4,-227,-103,115,11,-8
7630,-2,-226,-101,118,9,-9
7635,-4,-224,-99,122,6,-9
7640,-7,-224,-101,124,1,-9
7645,-3,-223,-107,123,-2,-10
7650,-2,-222,-103,119,-4,-8
7655,-2,-223,-102,113,-6,-11
7660,-4,-224,-111,106,-9,-11
7665,-3,-223,-108,99,-10,-11
7670,-4,-227,-102,94,-10,-9
7675,-2,-228,-103,88,-7,-10
7680,0,-226,-101,84,-5,-9
7685,-4,-228,-99,80,-4,-11
7690,-2,-225,-100,81,-5,-12
7695,0,-227,-103,84,-4,-14
7700,-3,-224,-98,86,-5,-15
7705,0,-225,-102,89,-5,-15
7710,0,-225,-102,91,-3,-13
7715,-4,-222,-102,87,-1,-13
7720,-2,-222,-103,80,1,-15
7725,2,-231,-96,69,2,-16
7730,0,-228,-105,60,4,-14
7735,-3,-225,-96,53,5,-14
7740,1,-230,-98,50,6,-14
7745,0,-227,-97,52,7,-12
7750,-2,-229,-99,56,7,-13
7755,-4,-227,-99,61,6,-12
7760,-2,-231,-100,67,6,-10
7765,0,-228,-97,71,8,-11
7770,-2,-227,-97,74,9,-12
7775,-1,-227,-98,77,10,-11
7780,0,-227,-100,80,13,-12
7785,-2,-228,-101,82,15,-12
7790,-6,-226,-100,82,17,-14
7795,0,-227,-101,82,18,-12
7800,-1,-228,-99,81,20,-14
7805,-2,-227,-99,80,20,-16
7810,0,-231,-103,77,20,-14
7815,0,-224,-98,74,19,-13
7820,-5,-223,-99,72,18,-13
7825,0,-228,-103,70,18,-13
7830,0,-227,-96,66,16,-12
7835,0,-226,-98,63,17,-12
7840,0,-226,-101,61,17,-10
7845,-4,-226,-98,59,17,-10
7850,0,-229,-100,56,16,-10
7855,-4,-226,-99,56,17,-10
7860,-1,-226,-99,54,16,-8
7865,-3,-227,-102,52,17,-8
7870,-1,-228,-100,48,17,-8
7875,-4,-226,-99,49,19,-6
7880,-1,-226,-96,49,18,-7
7885,-3,-225,-106,48,18,-7
7890,-2,-225,-99,49,20,-6
7895,-3,-227,-101,48,21,-7
7900,-2,-229,-100,49,21,-6
7905,-3,-227,-98,50,22,-8
7910,-2,-229,-97,52,24,-7
7915,0,-229,-98,54,23,-8
7920,-1,-225,-92,56,22,-8
7925,-1,-229,-97,58,24,-8
7930,-4,-229,-95,59,23,-9
7935,-3,-229,-98,58,24,-9
7940,-3,-231,-89,58,25,-10
7945,-1,-227,-98,57,24,-9
7950,-1,-225,-95,58,24,-10
7955,1,-227,-98,57,23,-7
7960,-1,-228,-98,57,22,-6
7965,-1,-228,-95,58,22,-7
7970,-2,-226,-96,56,22,-8
7975,-2,-226,-96,54,24,-8
7980,-5,-225,-97,50,23,-9
7985,-1,-227,-98,47,23,-9
7990,-2,-225,-96,44,22,-8
7995,-1,-227,-96,39,22,-9
8000,0,-225,-96,36,22,-8
8005,0,-226,-97,33,22,-7
8010,-3,-229,-97,31,21,-8
8015,-1,-230,-98,31,21,-8
8020,0,-229,-99,30,20,-7
8025,-4,-229,-99,30,19,-7
8030,-3,-230,-95,31,17,-9
8035,0,-229,-96,32,15,-9
8040,-1,-229,-98,34,15,-8
8045,0,-229,-98,35,12,-6
8050,-3,-229,-104,36,10,-6
8055,-1,-227,-97,38,7,-7
8060,-2,-232,-95,38,5,-8
8065,-5,-229,-98,37,6,-8
8070,-1,-228,-99,37,5,-7
8075,0,-230,-100,37,5,-7
8080,0,-228,-98,37,5,-6
8085,0,-229,-93,38,4,-7
8090,0,-233,-97,41,2,-7
8095,2,-230,-92,43,1,-8
8100,-1,-228,-94,46,1,-6
8105,-1,-230,-99,48,0,-6
8110,-3,-232,-96,51,0,-7
8115,-3,-236,-89,53,-1,-8
8120,-6,-221,-99,54,-1,-9
8125,7,-232,-98,57,-1,-8
8130,-2,-227,-95,58,-3,-9
8135,1,-225,-92,59,-4,-9
8140,-8,-225,-101,61,-5,-10
8145,3,-227,-94,66,-8,-9
8150,-6,-231,-92,68,-11,-9
8155,-4,-226,-96,71,-11,-8
8160,-5,-224,-103,75,-13,-8
8165,-1,-229,-92,78,-14,-8
8170,-1,-231,-96,80,-12,-7
8175,-3,-231,-98,81,-12,-8
8180,4,-230,-103,84,-10,-9
8185,-1,-227,-98,84,-9,-12
8190,2,-227,-103,86,-6,-13
8195,-2,-230,-95,94,-5,-13
8200,2,-232,-97,96,-2,-15
8205,1,-231,-98,97,0,-15
8210,0,-225,-97,96,-1,-15
8215,4,-230,-90,94,-1,-14
8220,1,-227,-102,92,-2,-15
8225,2,-223,-96,92,-3,-15
8230,2,-232,-101,93,-3,-15
8235,3,-231,-92,95,-5,-16
8240,-1,-229,-98,95,-6,-15
8245,-2,-228,-96,95,-6,-16
8250,1,-223,-99,92,-7,-15
8255,-2,-228,-98,89,-7,-16
8260,-1,-231,-99,85,-7,-16
8265,2,-233,-95,81,-6,-17
8270,0,-229,-95,80,-4,-15
8275,3,-234,-101,81,-6,-16
8280,-1,-232,-91,83,-5,-18
8285,0,-233,-91,86,-7,-17
8290,-1,-230,-97,88,-8,-18
8295,-3,-233,-94,90,-9,-16
8300,-1,-225,-107,94,-10,-17
8305,-2,-227,-97,96,-9,-18
8310,-3,-224,-99,95,-10,-17
8315,0,-226,-100,93,-9,-17
8320,0,-227,-97,88,-9,-18
8325,-1,-226,-96,82,-4,-18
8330,-2,-228,-92,77,-2,-18
8335,1,-229,-94,72,-1,-18
8340,-4,-226,-96,69,0,-19
8345,5,-227,-97,66,2,-17
8350,2,-230,-92,66,4,-16
8355,0,-232,-96,63,6,-14
8360,0,-230,-96,63,9,-13
8365,1,-230,-98,61,9,-13
8370,1,-229,-94,59,8,-14
8375,2,-229,-96,59,9,-15
8380,0,-231,-95,58,9,-16
8385,-1,-232,-97,59,9,-13
8390,1,-232,-92,60,7,-14
8395,0,-229,-93,61,8,-13
8400,1,-232,-92,62,7,-13
8405,0,-230,-93,64,5,-13
8410,-1,-234,-92,63,5,-14
8415,-1,-227,-99,63,4,-14
8420,-1,-231,-93,63,6,-14
8425,0,-228,-91,63,6,-12
8430,0,-230,-93,62,7,-14
8435,0,-229,-91,60,8,-12
8440,0,-231,-94,61,9,-13
8445,0,-232,-95,61,10,-13
8450,1,-230,-94,60,13,-12
8455,0,-232,-95,59,13,-11
8460,0,-230,-92,58,14,-11
8465,0,-232,-95,56,17,-11
8470,-4,-233,-92,57,16,-11
8475,-2,-232,-95,59,17,-9
8480,2,-231,-92,61,18,-9
8485,1,-230,-94,64,18,-9
8490,-1,-229,-95,68,18,-7
8495,0,-230,-92,69,19,-6
8500,-2,-232,-97,72,20,-5
8505,-1,-230,-95,74,22,-4
8510,-2,-229,-97,75,22,-5
8515,-1,-228,-93,76,21,-6
8520,1,-231,-93,76,20,-7
8525,-1,-230,-96,76,19,-7
8530,0,-232,-100,75,19,-9
8535,-4,-229,-98,75,19,-7
8540,-2,-230,-97,76,20,-9
8545,-2,-229,-92,75,18,-10
8550,0,-231,-97,75,17,-12
8555,-4,-229,-97,71,17,-12
8560,0,-230,-94,72,17,-12
8565,-5,-229,-94,72,17,-12
8570,-5,-227,-95,73,16,-13
8575,-5,-228,-90,75,14,-14
8580,-1,-231,-94,76,12,-13
8585,-2,-228,-97,75,12,-14
8590,-3,-228,-95,72,10,-14
8595,-1,-231,-96,69,6,-16
8600,0,-228,-93,67,5,-19
8605,-4,-229,-94,66,4,-17
8610,-3,-229,-96,66,2,-18
8615,-1,-229,-97,67,0,-18
8620,-2,-232,-92,70,-3,-18
8625,-2,-231,-93,73,-2,-18
8630,-1,-228,-93,78,-5,-18
8635,-5,-233,-97,82,-6,-19
8640,-3,-229,-94,86,-10,-21
8645,-1,-230,-92,87,-12,-22
8650,-4,-228,-85,88,-12,-22
8655,-4,-226,-95,86,-11,-21
8660,-6,-227,-93,85,-13,-21
8665,-2,-228,-97,85,-12,-20
8670,0,-229,-94,85,-11,-18
8675,0,-230,-94,85,-11,-19
8680,1,-230,-92,86,-11,-20
8685,0,-227,-99,85,-10,-20
8690,-1,-232,-95,84,-9,-19
8695,0,-232,-99,82,-9,-19
8700,0,-232,-92,79,-7,-19
8705,0,-227,-94,79,-6,-20
8710,0,-232,-95,78,-4,-19
8715,0,-229,-99,77,-1,-17
8720,0,-228,-96,77,2,-17
8725,0,-227,-98,74,4,-15
8730,0,-231,-94,72,4,-18
8735,0,-226,-94,73,5,-17
8740,1,-227,-93,73,5,-16
8745,2,-232,-94,72,7,-18
8750,-2,-226,-97,71,7,-17
8755,1,-231,-95,70,8,-17
8760,-2,-236,-90,71,10,-16
8765,5,-231,-93,70,9,-16
8770,0,-229,-95,72,11,-14
8775,-2,-227,-94,71,10,-16
8780,-1,-225,-97,70,10,-16
8785,0,-229,-95,68,9,-16
8790,1,-231,-98,67,8,-15
8795,-2,-231,-94,65,8,-16
8800,-5,-228,-97,66,8,-16
8805,-1,-232,-93,66,9,-15
8810,-1,-232,-96,66,9,-16
8815,-4,-228,-96,67,10,-16
8820,-2,-230,-98,66,12,-18
8825,-1,-232,-95,68,13,-18
8830,-1,-232,-95,67,14,-18
8835,0,-231,-94,68,15,-17
8840,-1,-230,-96,68,16,-18
8845,0,-230,-95,67,18,-19
8850,-2,-228,-95,67,18,-17
8855,0,-227,-96,66,17,-17
8860,3,-227,-93,64,17,-17
8865,-1,-223,-99,62,16,-15
8870,0,-231,-93,61,13,-14
8875,0,-230,-91,61,13,-13
8880,0,-228,-91,61,11,-14
8885,1,-230,-91,60,9,-14
8890,-3,-229,-92,62,6,-15
8895,0,-228,-94,63,4,-15
8900,1,-227,-97,61,3,-14
8905,0,-228,-96,59,3,-14
8910,-1,-227,-95,57,4,-13
8915,0,-226,-97,51,6,-11
8920,-5,-223,-94,45,8,-12
8925,-1,-230,-94,39,9,-10
8930,0,-227,-94,35,11,-11
8935,-2,-232,-98,32,9,-12
8940,0,-230,-94,31,10,-13
8945,1,-230,-97,32,9,-13
8950,0,-229,-97,35,13,-11
8955,1,-229,-92,37,13,-9
8960,0,-230,-98,40,14,-10
8965,0,-233,-94,43,16,-8
8970,0,-226,-96,47,19,-9
8975,5,-233,-86,49,20,-9
8980,-2,-232,-94,53,21,-9
8985,1,-231,-93,56,24,-8
8990,0,-230,-93,58,24,-8
8995,-2,-230,-91,60,25,-9
9000,0,-229,-96,60,26,-9
9005,-1,-228,-93,57,25,-9
9010,0,-227,-95,53,25,-11
9015,0,-228,-91,48,23,-11
9020,1,-231,-94,43,22,-10
9025,-4,-229,-92,40,21,-8
9030,-1,-230,-89,37,21,-7
9035,-2,-228,-95,34,20,-9
9040,-3,-230,-97,32,20,-6
9045,-3,-232,-96,31,20,-6
9050,0,-233,-93,31,19,-6
9055,-2,-229,-94,35,21,-7
9060,0,-228,-97,39,24,-7
9065,0,-232,-98,43,25,-7
9070,0,-229,-97,49,26,-6
9075,0,-232,-100,56,26,-6
9080,0,-230,-99,62,26,-7
9085,-2,-229,-95,63,26,-6
9090,-1,-229,-93,66,25,-7
9095,-2,-229,-96,68,25,-5
9100,0,-231,-93,66,24,-7
9105,0,-230,-94,65,25,-6
9110,0,-228,-94,64,24,-6
9115,-1,-228,-95,60,24,-7
9120,-1,-231,-97,57,23,-7
9125,0,-231,-93,55,23,-9
9130,-2,-229,-93,57,21,-8
9135,1,-227,-96,58,21,-9
9140,-4,-227,-100,60,21,-7
9145,-5,-227,-95,61,21,-7
9150,-1,-229,-97,62,22,-7
9155,-1,-230,-98,63,20,-6
9160,0,-232,-93,65,20,-7
9165,0,-227,-96,67,19,-7
9170,-2,-227,-97,69,19,-7
9175,-3,-226,-98,72,19,-8
9180,1,-230,-94,71,18,-7
9185,1,-232,-93,73,18,-6
9190,0,-230,-97,71,17,-8
9195,-6,-232,-97,69,17,-8
9200,-1,-225,-96,67,16,-9
9205,-3,-231,-97,67,14,-9
9210,0,-232,-96,64,15,-7
9215,0,-229,-92,66,13,-8
9220,0,-229,-94,67,12,-9
9225,0,-230,-95,68,11,-7
9230,0,-233,-96,71,12,-9
9235,-1,-228,-95,72,13,-7
9240,0,-229,-95,72,14,-7
9245,-4,-235,-95,72,15,-9
9250,-4,-229,-95,73,16,-8
9255,0,-231,-95,72,16,-8
9260,0,-227,-94,71,18,-8
9265,0,-229,-95,68,18,-9
9270,-1,-230,-91,69,17,-9
9275,0,-228,-93,68,16,-9
9280,0,-229,-95,69,17,-8
9285,-1,-228,-94,69,15,-9
9290,-2,-230,-94,68,15,-9
9295,-1,-227,-95,66,13,-8
9300,2,-230,-92,61,13,-8
9305,2,-229,-94,57,14,-8
9310,1,-228,-91,54,16,-9
9315,-3,-230,-91,53,17,-9
9320,0,-231,-92,53,16,-10
9325,0,-229,-97,53,18,-8
9330,0,-229,-91,54,16,-9
9335,0,-228,-97,55,17,-7
9340,-1,-229,-98,54,16,-8
9345,0,-228,-96,55,15,-7
9350,-1,-230,-96,55,13,-9
9355,4,-231,-103,55,13,-10
9360,0,-232,-94,53,13,-10
9365,1,-233,-94,52,14,-9
9370,1,-233,-96,53,15,-10
9375,0,-231,-92,56,15,-9
9380,0,-229,-93,58,16,-9
9385,0,-229,-93,62,16,-8
9390,-1,-231,-94,64,17,-9
9395,-2,-229,-96,65,15,-8
9400,-1,-229,-93,67,15,-9
9405,1,-232,-92,69,15,-9
9410,-5,-232,-92,70,16,-11
9415,0,-228,-94,69,17,-10
9420,-1,-231,-95,69,19,-10
9425,-3,-225,-96,69,19,-10
9430,-2,-227,-92,70,19,-9
9435,0,-231,-93,65,19,-8
9440,0,-228,-91,65,19,-12
9445,0,-226,-93,65,20,-12
9450,0,-229,-91,69,18,-13
9455,0,-226,-95,72,17,-12
9460,0,-232,-92,72,17,-12
9465,-1,-232,-96,72,16,-11
9470,0,-228,-95,70,14,-11
9475,0,-231,-93,69,15,-11
9480,-3,-229,-94,68,15,-10
9485,0,-229,-91,67,16,-12
9490,-2,-228,-91,69,14,-11
9495,0,-229,-92,72,13,-11
9500,0,-232,-86,74,8,-12
9505,-3,-233,-94,75,6,-13
9510,-2,-233,-92,74,5,-14
9515,-1,-229,-92,73,2,-14
9520,-3,-228,-95,72,3,-14
9525,0,-228,-97,69,5,-13
9530,-2,-228,-90,68,8,-12
9535,-1,-228,-89,65,11,-10
9540,-2,-230,-98,63,15,-9
9545,0,-227,-94,60,16,-7
9550,0,-228,-93,56,15,-7
9555,2,-232,-87,52,15,-5
9560,-1,-231,-92,50,14,-4
9565,1,-232,-90,50,14,-2
9570,0,-233,-91,51,12,-2
9575,-1,-237,-82,54,13,-2
9580,-3,-232,-93,58,13,-2
9585,-4,-232,-89,63,16,-1
9590,-2,-232,-91,68,17,-3
9595,0,-232,-88,73,15,-2
9600,0,-233,-93,76,14,-2
9605,-2,-229,-92,81,9,-1
9610,0,-232,-89,83,4,-3
9615,-1,-232,-93,84,0,-5
9620,-1,-230,-92,81,-2,-4
9625,0,-229,-92,79,-6,-5
9630,-7,-234,-97,77,-6,-4
9635,-1,-229,-93,74,-8,-4
9640,0,-230,-94,72,-7,-5
9645,0,-232,-92,70,-7,-4
9650,1,-233,-94,68,-3,-5
9655,0,-229,-94,64,-2,-5
9660,0,-233,-94,61,1,-5
9665,-1,-230,-89,58,2,-5
9670,0,-232,-96,58,2,-4
9675,1,-230,-91,57,3,-5
9680,0,-229,-95,58,6,-5
9685,0,-228,-94,58,6,-8
9690,0,-229,-93,57,6,-8
9695,0,-234,-89,56,7,-6
9700,2,-233,-88,56,7,-6
9705,1,-231,-88,56,7,-7
9710,0,-230,-91,56,9,-5
9715,0,-231,-90,57,9,-6
9720,-3,-232,-88,58,9,-6
9725,0,-231,-86,57,11,-6
9730,1,-230,-89,56,10,-7
9735,0,-229,-89,56,10,-7
9740,-1,-237,-89,57,11,-8
9745,1,-230,-87,56,11,-11
9750,0,-236,-90,56,12,-10
9755,0,-229,-93,56,10,-12
9760,0,-230,-88,57,10,-13
9765,0,-233,-92,56,10,-13
9770,0,-232,-92,56,8,-12
9775,-2,-233,-94,54,6,-15
9780,-1,-226,-89,54,4,-14
9785,-2,-232,-85,55,3,-13
9790,-2,-231,-96,55,0,-12
9795,0,-234,-93,56,-2,-13
9800,0,-231,-88,55,-1,-12
9805,1,-233,-90,55,-3,-12
9810,0,-229,-91,54,-4,-13
9815,-1,-232,-92,53,-4,-13
9820,0,-230,-91,53,-5,-12
9825,2,-232,-89,54,-6,-13
9830,-6,-226,-90,56,-6,-13
9835,1,-232,-92,57,-5,-14
9840,1,-230,-95,57,-6,-15
9845,2,-232,-94,57,-5,-13
9850,-4,-231,-88,56,-3,-15
9855,0,-229,-93,58,-2,-14
9860,1,-235,-90,58,-1,-14
9865,0,-231,-88,59,-1,-14
9870,0,-231,-89,57,-1,-15
9875,1,-231,-89,55,-1,-14
9880,1,-231,-90,53,0,-17
9885,-2,-229,-91,53,2,-18
9890,0,-228,-92,52,3,-18
9895,0,-230,-92,49,2,-18
9900,0,-232,-87,49,2,-18
9905,-1,-230,-91,48,3,-18
9910,0,-230,-89,48,4,-16
9915,0,-229,-91,47,3,-16
9920,0,-231,-88,45,4,-18
9925,0,-229,-88,41,4,-19
9930,1,-230,-88,38,5,-20
9935,0,-235,-90,37,5,-22
9940,0,-234,-89,35,7,-21
9945,0,-229,-88,33,5,-21
9950,0,-231,-89,31,7,-23
9955,0,-232,-92,31,8,-22
9960,0,-231,-91,28,8,-22
9965,-1,-228,-87,26,6,-21
9970,0,-231,-89,25,7,-23
9975,1,-232,-93,24,7,-22
9980,-1,-231,-92,24,7,-20
9985,-1,-229,-88,22,6,-20
9990,-4,-227,-86,21,7,-20
9995,0,-230,-87,21,8,-19
10000,1,-227,-93,19,8,-19
10005,-1,-231,-91,19,8,-19
10010,0,-232,-92,17,9,-19
10015,0,-229,-88,18,10,-18
10020,0,-231,-89,18,9,-18
10025,0,-232,-91,18,9,-17
10030,-2,-232,-92,19,9,-17
10035,-1,-232,-89,21,8,-17
10040,-1,-234,-89,22,7,-16
10045,1,-233,-90,21,7,-17
10050,-1,-230,-92,20,8,-18
10055,-2,-232,-91,20,7,-16
10060,1,-232,-86,20,7,-19
10065,-4,-232,-102,21,7,-19
10070,-1,-232,-90,21,7,-19
10075,1,-232,-88,21,7,-18
10080,1,-232,-93,22,5,-19
10085,-1,-232,-94,22,4,-19
10090,0,-233,-89,21,3,-18
10095,-1,-228,-89,19,1,-17
10100,1,-230,-86,17,0,-17
10105,-1,-228,-91,14,-1,-16
10110,-1,-230,-92,14,-1,-16
10115,0,-232,-89,14,-2,-17
10120,0,-232,-92,16,-3,-17
10125,0,-233,-89,17,-3,-17
10130,-1,-233,-94,16,-3,-17
10135,-4,-231,-90,18,-3,-19
10140,-4,-231,-92,19,-4,-21
10145,-3,-229,-97,20,-4,-20
10150,0,-233,-93,21,-3,-20
10155,-1,-226,-96,18,-2,-22
10160,-2,-226,-94,16,-1,-21
10165,-6,-225,-92,12,1,-20
10170,0,-231,-92,9,2,-20
10175,-2,-235,-93,5,3,-19
10180,0,-231,-91,2,0,-21
10185,0,-233,-87,1,0,-20
10190,1,-235,-93,2,-2,-21
10195,-1,-232,-91,4,-1,-19
10200,-2,-234,-92,4,-1,-18
10205,0,-232,-89,5,-1,-17
10210,-1,-233,-93,8,1,-16
10215,-2,-233,-86,11,2,-15
10220,0,-232,-87,15,3,-15
10225,0,-231,-96,20,4,-15
10230,-1,-235,-88,23,6,-14
10235,0,-235,-93,28,5,-14
10240,0,-232,-91,30,6,-14
10245,0,-230,-94,32,7,-14
10250,-2,-227,-95,33,7,-14
10255,0,-232,-91,35,8,-15
10260,0,-231,-93,33,6,-15
10265,0,-231,-94,34,8,-14
10270,0,-229,-93,33,7,-15
10275,-1,-229,-92,33,8,-12
10280,-5,-228,-98,30,7,-11
10285,4,-232,-91,29,8,-12
10290,-2,-230,-92,26,8,-13
10295,-1,-229,-94,25,10,-12
10300,0,-227,-92,24,10,-11
10305,-1,-229,-91,24,9,-11
10310,0,-227,-92,26,10,-10
10315,-1,-230,-94,28,10,-10
10320,0,-230,-98,31,12,-11
10325,0,-231,-93,32,13,-10
10330,1,-228,-91,32,14,-10
10335,-2,-230,-90,36,15,-9
10340,-1,-234,-96,37,15,-9
10345,0,-227,-97,39,15,-9
10350,-1,-228,-92,39,16,-7
10355,0,-232,-93,40,15,-5
10360,0,-233,-95,41,16,-7
10365,-2,-231,-91,43,14,-10
10370,-3,-234,-91,44,13,-8
10375,-3,-229,-90,47,13,-8
10380,0,-231,-97,49,13,-10
10385,-3,-226,-94,51,12,-12
10390,-2,-231,-95,53,11,-10
10395,-1,-231,-96,53,10,-10
10400,0,-230,-94,53,11,-10
10405,-2,-227,-97,53,12,-11
10410,-1,-232,-92,55,11,-11
10415,-1,-229,-95,56,11,-12
10420,-1,-230,-94,55,11,-11
10425,-2,-225,-94,56,12,-10
10430,0,-223,-93,54,11,-10
10435,0,-228,-94,54,13,-11
10440,0,-232,-93,52,13,-11
10445,0,-231,-94,50,12,-9
10450,-2,-229,-94,49,11,-9
10455,1,-229,-96,46,10,-10
10460,-2,-228,-97,43,10,-11
10465,-4,-230,-90,41,10,-13
10470,-2,-230,-93,40,8,-9
10475,-1,-230,-97,42,11,-8
10480,0,-233,-94,42,10,-10
10485,-1,-231,-97,45,9,-11
10490,0,-227,-98,50,11,-10
10495,1,-227,-94,52,11,-11
10500,-1,-233,-100,54,14,-13
10505,-2,-231,-96,56,14,-11
10510,-4,-227,-95,56,14,-10
10515,-1,-229,-92,58,14,-10
10520,1,-232,-93,58,15,-12
10525,-1,-229,-96,58,14,-11
10530,-3,-228,-95,57,14,-10
10535,-1,-231,-99,56,15,-8
10540,-1,-232,-94,56,14,-9
10545,1,-233,-93,55,14,-9
10550,-2,-229,-96,56,15,-9
10555,-1,-233,-100,57,16,-9
10560,2,-231,-97,59,17,-9
10565,0,-230,-93,60,18,-10
10570,0,-230,-95,61,16,-9
10575,-4,-228,-96,60,15,-9
10580,0,-230,-98,60,15,-8
10585,1,-228,-98,59,14,-7
10590,-2,-232,-101,58,15,-6
10595,2,-232,-94,56,15,-8
10600,-2,-228,-97,55,15,-7
10605,-2,-228,-93,53,17,-8
10610,-5,-239,-97,54,16,-7
10615,0,-230,-95,55,15,-7
10620,-3,-229,-93,57,14,-6
10625,-1,-228,-97,56,13,-5
10630,0,-233,-94,57,13,-7
10635,-4,-230,-96,58,14,-6
10640,-1,-231,-94,60,14,-7
10645,-2,-233,-94,63,14,-7
10650,-2,-225,-95,65,15,-6
10655,-4,-229,-98,68,17,-6
10660,0,-227,-89,70,17,-6
10665,-2,-231,-100,72,17,-5
10670,-1,-229,-98,71,16,-6
10675,0,-228,-93,70,16,-6
10680,0,-231,-96,69,14,-7
10685,-1,-231,-96,71,15,-7
10690,0,-232,-93,68,14,-8
10695,-1,-232,-89,66,14,-7
10700,-2,-233,-93,67,14,-7
10705,1,-230,-97,68,17,-9
10710,1,-233,-95,69,17,-8
10715,1,-228,-92,70,18,-7
10720,4,-227,-89,71,19,-6
10725,-1,-232,-90,71,19,-4
10730,-1,-232,-93,71,21,-6
10735,0,-231,-97,72,22,-4
10740,0,-230,-90,73,24,-5
10745,0,-231,-97,76,23,-3
10750,1,-229,-92,78,23,-4
10755,1,-230,-94,77,23,-3
10760,-1,-232,-94,79,22,-4
10765,0,-232,-91,78,21,-5
10770,2,-230,-91,81,21,-6
10775,-1,-225,-91,83,20,-6
10780,0,-229,-94,87,20,-7
10785,-2,-229,-97,90,21,-5
10790,0,-226,-94,90,21,-5
10795,-2,-228,-93,90,22,-7
10800,0,-225,-94,87,25,-6
10805,-2,-227,-93,84,26,-6
10810,0,-229,-92,79,28,-7
10815,0,-228,-94,76,29,-8
10820,1,-231,-94,72,31,-10
10825,3,-233,-93,69,31,-10
10830,0,-229,-97,70,32,-11
10835,0,-230,-94,70,34,-10
10840,0,-230,-97,71,36,-9
10845,2,-231,-96,72,37,-8
10850,1,-231,-96,75,38,-7
10855,1,-231,-95,76,38,-8
10860,0,-230,-91,81,41,-6
10865,-1,-231,-91,84,40,-7
10870,0,-230,-93,86,39,-6
10875,1,-233,-93,86,39,-6
10880,1,-229,-94,85,38,-8
10885,-2,-225,-96,84,37,-9
10890,-2,-226,-91,82,34,-6
10895,0,-229,-94,78,34,-9
10900,0,-230,-93,74,33,-8
10905,-2,-230,-94,70,32,-8
10910,0,-229,-93,68,33,-10
10915,0,-233,-93,66,34,-9
10920,0,-228,-94,66,35,-10
10925,-2,-230,-96,63,35,-9
10930,-6,-225,-89,61,35,-9
10935,-2,-235,-91,60,35,-7
10940,0,-230,-94,58,35,-10
10945,0,-229,-95,57,37,-9
10950,0,-231,-96,57,37,-7
10955,-2,-230,-96,58,36,-8
10960,0,-231,-92,60,35,-6
10965,-2,-231,-92,64,35,-7
10970,0,-229,-93,70,35,-6
10975,-1,-235,-93,75,33,-6
10980,-3,-230,-96,78,32,-6
10985,0,-230,-91,80,30,-7
10990,1,-231,-87,81,29,-9
10995,-2,-229,-92,81,27,-11
11000,0,-229,-94,80,28,-11
11005,-2,-230,-91,79,27,-11
11010,0,-232,-93,75,26,-11
11015,-2,-231,-94,74,28,-11
11020,0,-229,-96,73,28,-10
11025,0,-233,-93,71,27,-10
11030,0,-231,-93,71,26,-11
11035,-1,-228,-91,71,24,-8
11040,-1,-229,-93,69,24,-10
11045,-5,-230,-95,68,23,-11
11050,-4,-231,-94,68,21,-10
11055,-1,-231,-97,69,21,-10
11060,0,-229,-92,71,19,-10
11065,1,-230,-91,70,20,-12
11070,0,-231,-94,70,19,-11
11075,0,-232,-91,69,19,-11
11080,-2,-232,-93,69,18,-10
11085,-1,-230,-93,71,19,-11
11090,1,-229,-91,70,20,-11
11095,1,-230,-95,71,19,-10
11100,-1,-236,-93,72,21,-9
11105,0,-230,-92,74,21,-9
11110,0,-234,-92,75,21,-8
11115,-3,-231,-93,75,22,-7
11120,0,-233,-93,74,22,-7
11125,0,-231,-90,73,25,-8
11130,1,-232,-95,73,24,-9
11135,0,-230,-91,71,23,-8
11140,-3,-228,-91,69,22,-10
11145,0,-232,-91,68,23,-9
11150,1,-228,-90,66,23,-10
11155,0,-227,-90,65,23,-8
11160,1,-233,-94,63,22,-8
11165,0,-230,-94,62,24,-7
11170,1,-229,-93,63,25,-6
11175,0,-228,-94,64,25,-7
11180,0,-232,-86,64,26,-5
11185,0,-230,-93,64,24,-7
11190,0,-232,-94,62,24,-8
11195,-1,-227,-88,60,24,-7
11200,0,-231,-96,57,24,-7
11205,-1,-231,-86,56,23,-8
11210,0,-227,-95,52,23,-9
11215,-2,-231,-93,51,24,-10
11220,-1,-229,-94,50,23,-10
11225,0,-232,-90,49,23,-10
11230,0,-230,-93,47,23,-12
11235,0,-230,-91,47,23,-10
11240,-1,-232,-92,48,21,-8
11245,-3,-233,-93,46,22,-7
11250,1,-230,-90,47,20,-7
11255,-2,-230,-92,48,18,-8
11260,0,-231,-96,48,19,-6
11265,0,-226,-92,46,19,-6
11270,-3,-232,-95,45,19,-6
11275,-1,-227,-95,44,18,-8
11280,0,-229,-85,43,18,-8
11285,0,-232,-93,42,18,-7
11290,2,-230,-93,42,18,-6
11295,0,-232,-93,43,19,-7
11300,0,-231,-94,43,19,-6
11305,0,-228,-91,43,18,-6
11310,0,-232,-93,43,16,-6
11315,-1,-229,-88,44,18,-5
11320,1,-233,-94,44,17,-6
11325,0,-232,-92,45,15,-6
11330,0,-230,-91,45,16,-7
11335,-1,-231,-93,44,15,-6
11340,0,-229,-94,42,13,-7
11345,1,-231,-93,42,13,-8
11350,-1,-231,-92,41,13,-9
11355,0,-231,-93,41,13,-8
11360,-4,-230,-92,39,12,-9
11365,-1,-231,-98,42,12,-9
11370,0,-231,-87,44,12,-8
11375,0,-229,-89,46,14,-8
11380,-1,-230,-92,48,13,-8
11385,-4,-232,-93,50,13,-9
11390,-3,-232,-93,51,11,-7
11395,0,-227,-91,53,9,-8
11400,-2,-231,-90,52,10,-8
11405,-2,-231,-96,52,10,-9
11410,-1,-229,-89,52,7,-11
11415,-2,-235,-91,52,4,-10
11420,-4,-229,-96,53,1,-11
11425,-1,-230,-83,54,-2,-13
11430,0,-234,-89,58,-3,-13
11435,-1,-230,-92,60,-5,-15
11440,-4,-227,-89,61,-6,-14
11445,-2,-229,-94,61,-4,-12
11450,0,-228,-92,60,-5,-12
11455,-1,-229,-92,55,-2,-12
11460,1,-231,-96,52,-2,-13
11465,1,-229,-90,48,0,-14
11470,0,-226,-95,44,1,-14
11475,1,-228,-93,41,0,-13
11480,1,-232,-92,41,-1,-13
11485,-2,-231,-93,38,1,-13
11490,0,-230,-90,37,1,-11
11495,1,-232,-90,38,2,-11
11500,0,-232,-90,41,3,-12
11505,1,-230,-94,44,5,-11
11510,0,-233,-90,48,8,-11
11515,0,-230,-91,52,9,-8
11520,1,-231,-93,56,10,-10
11525,1,-231,-93,59,10,-11
11530,-1,-230,-96,60,9,-10
11535,2,-230,-90,61,9,-9
11540,2,-231,-87,61,9,-11
11545,1,-230,-95,60,9,-11
11550,0,-231,-95,59,8,-12
11555,0,-230,-91,57,7,-10
11560,0,-232,-93,54,7,-11
11565,1,-231,-94,52,7,-11
11570,0,-232,-92,49,9,-10
11575,-1,-229,-92,49,9,-10
11580,0,-232,-93,48,11,-10
11585,-1,-230,-90,47,13,-9
11590,-5,-235,-95,47,13,-8
11595,-1,-232,-94,49,14,-8
11600,-1,-231,-94,49,14,-8
11605,0,-227,-90,51,17,-8
11610,-2,-227,-92,53,16,-8
11615,1,-232,-93,54,16,-8
11620,0,-231,-89,56,16,-8
11625,0,-229,-92,56,14,-8
11630,0,-233,-91,56,14,-7
11635,-2,-227,-90,56,13,-8
11640,-4,-227,-96,57,12,-8
11645,0,-228,-93,57,11,-10
11650,-1,-231,-92,56,11,-10
11655,0,-230,-91,56,12,-9
11660,0,-231,-96,56,13,-10
11665,0,-234,-95,57,14,-10
11670,-1,-229,-91,55,14,-12
11675,0,-232,-93,56,15,-11
11680,-2,-228,-92,58,14,-13
11685,0,-233,-94,58,13,-13
11690,-2,-231,-95,60,12,-11
11695,1,-232,-94,60,10,-10
11700,1,-232,-92,60,8,-10
11705,0,-234,-95,59,7,-11
11710,-3,-228,-91,56,7,-11
11715,0,-233,-94,57,5,-11
11720,-2,-231,-93,55,2,-12
11725,0,-231,-89,55,2,-11
11730,0,-229,-92,52,2,-11
11735,-2,-230,-91,53,3,-11
11740,-1,-231,-92,55,5,-10
11745,-2,-229,-89,55,6,-10
11750,0,-234,-89,55,7,-12
11755,-1,-233,-92,57,7,-12
11760,0,-229,-87,58,9,-10
11765,0,-230,-91,61,10,-10
11770,0,-227,-96,61,11,-10
11775,1,-230,-93,61,11,-11
11780,0,-229,-89,60,10,-9
11785,0,-228,-92,57,10,-10
11790,0,-232,-95,53,11,-10
11795,-2,-230,-94,51,11,-9
11800,0,-232,-91,48,10,-10
11805,0,-229,-88,47,11,-10
11810,-1,-227,-88,46,10,-9
11815,-1,-231,-91,45,7,-9
11820,1,-228,-89,45,6,-8
11825,1,-231,-93,46,3,-9
11830,0,-230,-90,45,3,-10
11835,-1,-230,-89,48,0,-8
11840,0,-228,-90,53,0,-9
11845,-2,-230,-90,54,0,-8
11850,-2,-228,-91,55,0,-6
11855,-1,-228,-93,53,1,-7
11860,0,-233,-92,51,2,-6
11865,-4,-237,-91,48,3,-7
11870,0,-230,-92,44,4,-6
11875,1,-231,-93,43,5,-8
11880,0,-231,-91,40,7,-9
11885,0,-228,-92,36,9,-9
11890,-2,-230,-90,33,13,-8
11895,0,-234,-92,31,14,-8
11900,0,-232,-91,29,17,-7
11905,-1,-227,-95,26,17,-7
11910,0,-233,-92,24,19,-7
11915,-2,-232,-93,23,19,-7
11920,0,-232,-91,25,20,-8
11925,-2,-232,-90,25,20,-9
11930,0,-233,-89,26,19,-8
11935,-1,-230,-91,29,19,-10
11940,0,-231,-93,30,18,-9
11945,0,-228,-92,32,17,-9
11950,-1,-231,-89,31,16,-10
11955,-2,-229,-91,32,16,-10
11960,-1,-232,-90,35,14,-10
11965,0,-231,-91,36,14,-12
11970,0,-232,-95,39,13,-11
11975,0,-232,-92,42,13,-9
11980,0,-230,-94,43,12,-9
11985,-1,-233,-89,44,12,-10
11990,-2,-231,-89,42,11,-12
11995,-2,-231,-90,42,11,-10
