timestamp,acc_x,acc_y,acc_z,gyro_x,gyro_y,gyro_z
0,9,-219,-126,57,-14,-7
5,9,-218,-128,56,-17,-7
10,5,-214,-120,53,-21,-4
15,8,-216,-124,48,-20,-3
20,12,-216,-124,40,-17,-3
25,5,-217,-126,38,-15,-3
30,12,-216,-127,36,-15,-3
35,10,-211,-124,36,-15,-6
40,8,-217,-128,36,-14,-7
45,7,-215,-124,40,-14,-8
50,13,-213,-121,45,-14,-9
55,13,-216,-127,57,-19,-6
60,14,-212,-124,63,-20,-6
65,10,-217,-122,57,-14,-16
70,11,-216,-122,57,-14,-18
75,10,-216,-117,63,-16,-24
80,9,-214,-124,66,-20,-28
85,11,-216,-118,64,-19,-31
90,8,-214,-125,66,-18,-35
95,10,-217,-120,66,-19,-36
100,7,-216,-124,67,-21,-39
105,7,-217,-123,73,-21,-39
110,9,-219,-124,82,-19,-39
115,6,-216,-125,91,-19,-39
120,6,-219,-121,98,-17,-36
125,7,-220,-120,105,-14,-34
130,7,-219,-115,110,-10,-32
135,7,-214,-121,114,-5,-31
140,5,-217,-124,117,0,-30
145,5,-215,-123,115,4,-24
150,7,-217,-123,112,7,-22
155,8,-215,-124,109,8,-24
160,9,-215,-120,105,10,-20
165,5,-217,-122,101,11,-19
170,5,-217,-122,100,11,-21
175,6,-217,-125,102,10,-19
180,5,-219,-119,104,10,-18
185,2,-219,-117,105,10,-16
190,6,-218,-117,106,6,-16
195,8,-220,-121,106,3,-15
200,5,-219,-119,105,0,-17
205,4,-217,-118,107,-4,-17
210,7,-215,-117,111,-9,-18
215,4,-217,-119,115,-12,-20
220,8,-215,-121,118,-16,-23
225,6,-217,-117,119,-21,-24
230,4,-210,-120,115,-23,-25
235,7,-217,-124,110,-29,-29
240,7,-209,-119,103,-33,-32
245,8,-216,-122,96,-36,-32
250,7,-214,-120,93,-39,-35
255,6,-218,-123,87,-41,-36
260,8,-213,-120,84,-43,-36
265,10,-214,-123,84,-44,-35
270,5,-216,-121,88,-46,-35
275,6,-214,-126,92,-46,-34
280,8,-216,-123,96,-47,-33
285,6,-215,-119,101,-46,-35
290,10,-218,-120,106,-46,-34
295,7,-216,-123,113,-45,-34
300,9,-213,-123,119,-45,-33
305,6,-215,-120,124,-47,-34
310,5,-214,-120,128,-47,-34
315,7,-212,-122,127,-48,-35
320,8,-212,-123,122,-47,-31
325,7,-204,-135,103,-41,-24
330,10,-206,-126,30,-16,-18
335,9,-211,-118,-28,7,-18
340,6,-215,-112,-30,-2,-20
345,5,-207,-112,16,-31,-23
350,2,-212,-124,60,-61,-28
355,6,-210,-125,80,-80,-33
360,6,-209,-126,83,-89,-35
365,4,-205,-128,85,-93,-37
370,3,-205,-124,89,-94,-36
375,5,-202,-126,88,-94,-34
380,5,-205,-130,82,-91,-34
385,2,-205,-124,66,-85,-31
390,5,-207,-127,47,-80,-30
395,3,-206,-132,32,-75,-30
400,4,-208,-126,16,-70,-30
405,1,-212,-130,-1,-69,-29
410,6,-212,-126,-16,-69,-29
415,2,-210,-129,-32,-70,-28
420,5,-211,-130,-55,-68,-25
425,3,-211,-131,-76,-69,-27
430,3,-213,-127,-96,-66,-25
435,2,-213,-127,-110,-65,-25
440,2,-215,-124,-115,-66,-28
445,4,-211,-125,-113,-64,-29
450,6,-217,-122,-108,-62,-28
455,3,-216,-128,-97,-58,-28
460,3,-216,-125,-68,-55,-33
465,9,-215,-112,-26,-50,-41
470,4,-219,-126,13,-45,-46
475,4,-215,-124,47,-38,-47
480,5,-215,-123,70,-33,-47
485,11,-214,-124,79,-29,-44
490,5,-210,-119,76,-27,-44
495,6,-209,-124,71,-31,-45
500,7,-211,-120,69,-34,-44
505,7,-212,-120,61,-39,-45
510,10,-212,-122,56,-41,-52
515,8,-215,-124,53,-39,-54
520,6,-211,-124,45,-40,-55
525,7,-214,-125,37,-40,-55
530,5,-216,-128,34,-39,-55
535,11,-215,-127,31,-43,-54
540,10,-216,-125,35,-47,-53
545,11,-221,-126,37,-55,-53
550,8,-219,-124,45,-60,-53
555,8,-221,-124,63,-62,-54
560,9,-219,-123,84,-65,-55
565,10,-215,-124,90,-70,-52
570,11,-214,-123,86,-75,-51
575,9,-214,-124,74,-79,-48
580,8,-215,-121,59,-78,-50
585,6,-215,-123,44,-76,-51
590,10,-217,-122,27,-74,-51
595,9,-216,-126,15,-69,-50
600,6,-215,-118,6,-64,-48
605,5,-214,-127,3,-60,-48
610,3,-216,-125,7,-58,-47
615,8,-221,-126,14,-54,-43
620,11,-216,-115,23,-54,-42
625,4,-214,-121,30,-53,-39
630,5,-216,-120,37,-51,-37
635,7,-215,-121,39,-51,-33
640,3,-215,-124,37,-50,-33
645,3,-209,-120,34,-50,-32
650,7,-215,-123,27,-48,-33
655,7,-216,-117,18,-47,-32
660,6,-216,-124,8,-47,-30
665,8,-218,-125,-3,-46,-30
670,5,-219,-124,-13,-46,-32
675,15,-218,-119,-22,-46,-30
680,8,-219,-127,-28,-49,-32
685,8,-219,-125,-31,-52,-33
690,7,-218,-123,-29,-56,-35
695,10,-220,-124,-24,-56,-36
700,7,-217,-122,-15,-58,-37
705,9,-220,-120,-6,-60,-38
710,4,-216,-123,2,-58,-38
715,8,-211,-124,10,-62,-40
720,5,-216,-120,15,-62,-39
725,8,-217,-121,21,-63,-39
730,9,-217,-121,25,-63,-40
735,6,-216,-121,25,-62,-39
740,6,-216,-123,26,-61,-39
745,4,-212,-124,26,-61,-42
750,9,-213,-120,26,-60,-41
755,8,-217,-122,28,-61,-41
760,4,-215,-119,31,-58,-40
765,5,-213,-124,34,-55,-41
770,7,-220,-120,36,-52,-40
775,9,-217,-124,41,-48,-40
780,7,-214,-118,43,-45,-38
785,6,-213,-122,41,-40,-38
790,7,-213,-123,35,-37,-36
795,7,-213,-122,27,-34,-35
800,8,-212,-125,21,-34,-35
805,11,-217,-128,16,-31,-36
810,12,-210,-125,11,-29,-35
815,10,-212,-127,2,-25,-33
820,14,-211,-126,-2,-22,-31
825,12,-210,-129,-9,-19,-31
830,10,-206,-128,-16,-13,-29
835,11,-205,-128,-24,-9,-27
840,11,-202,-132,-35,-3,-27
845,12,-197,-129,-49,4,-27
850,9,-191,-130,-64,8,-26
855,12,-191,-131,-83,13,-24
860,14,-184,-131,-104,17,-25
865,12,-177,-131,-126,21,-23
870,14,-173,-132,-151,28,-23
875,13,-168,-133,-178,35,-22
880,16,-163,-133,-206,43,-23
885,14,-154,-135,-236,51,-21
890,9,-145,-136,-270,58,-22
895,12,-140,-133,-307,67,-20
900,15,-138,-137,-347,76,-20
905,12,-132,-134,-386,86,-20
910,15,-128,-135,-424,97,-17
915,15,-122,-133,-461,109,-14
920,15,-116,-135,-492,118,-10
925,11,-115,-131,-521,129,-4
930,13,-104,-131,-547,136,1
935,9,-104,-125,-565,142,7
940,12,-98,-123,-581,143,14
945,13,-98,-120,-594,144,23
950,10,-87,-118,-606,142,27
955,12,-84,-118,-617,145,29
960,12,-83,-115,-631,149,29
965,15,-82,-113,-641,153,31
970,12,-77,-114,-650,163,28
975,12,-75,-112,-659,170,22
980,12,-76,-115,-670,179,18
985,15,-74,-113,-685,187,16
990,16,-77,-116,-709,202,13
995,22,-75,-114,-740,217,12
1000,25,-77,-114,-776,236,8
1005,23,-83,-111,-810,261,3
1010,22,-80,-121,-846,290,-4
1015,24,-87,-123,-882,323,-10
1020,25,-90,-127,-919,360,-16
1025,20,-95,-128,-956,396,-20
1030,21,-101,-132,-991,428,-25
1035,15,-108,-136,-1020,453,-34
1040,13,-115,-144,-1046,461,-46
1045,10,-126,-150,-1068,454,-55
1050,10,-130,-151,-1087,436,-63
1055,16,-134,-160,-1105,408,-66
1060,15,-142,-170,-1127,376,-63
1065,15,-147,-179,-1158,344,-59
1070,20,-154,-189,-1201,313,-54
1075,14,-157,-201,-1256,280,-50
1080,15,-168,-209,-1323,245,-45
1085,15,-176,-221,-1385,203,-36
1090,18,-189,-225,-1436,157,-36
1095,11,-197,-232,-1470,115,-37
1100,10,-202,-238,-1483,84,-36
1105,9,-208,-236,-1473,69,-38
1110,9,-202,-234,-1436,69,-45
1115,4,-205,-235,-1381,82,-45
1120,5,-200,-232,-1315,106,-40
1125,2,-195,-224,-1264,133,-26
1130,4,-195,-219,-1231,163,-8
1135,4,-190,-210,-1224,194,13
1140,8,-190,-204,-1235,220,36
1145,10,-190,-201,-1255,240,58
1150,10,-192,-191,-1277,252,82
1155,11,-191,-185,-1290,259,103
1160,16,-193,-183,-1294,262,122
1165,21,-199,-179,-1284,262,139
1170,17,-193,-174,-1253,259,152
1175,19,-193,-172,-1199,250,163
1180,20,-193,-171,-1124,236,173
1185,23,-192,-166,-1038,217,187
1190,23,-185,-170,-933,200,196
1195,20,-180,-168,-820,183,197
1200,23,-175,-171,-716,165,193
1205,19,-163,-182,-636,147,191
1210,12,-163,-186,-578,129,186
1215,12,-160,-189,-544,109,180
1220,3,-153,-189,-528,92,170
1225,3,-157,-197,-525,74,158
1230,0,-157,-200,-536,62,140
1235,0,-161,-203,-557,56,123
1240,-2,-163,-210,-587,52,101
1245,-3,-170,-210,-625,48,86
1250,-3,-170,-222,-660,38,68
1255,-12,-177,-220,-685,25,49
1260,-7,-187,-230,-694,4,30
1265,-6,-189,-238,-690,-20,17
1270,-5,-196,-245,-675,-43,9
1275,-2,-195,-243,-640,-66,5
1280,-1,-195,-244,-584,-88,8
1285,0,-194,-246,-500,-111,13
1290,2,-192,-249,-389,-132,15
1295,4,-185,-250,-255,-153,14
1300,6,-180,-244,-112,-170,9
1305,6,-168,-246,30,-184,-1
1310,7,-158,-244,157,-191,-13
1315,11,-154,-238,263,-195,-28
1320,11,-143,-228,351,-197,-44
1325,7,-140,-233,421,-200,-58
1330,10,-135,-223,471,-203,-72
1335,9,-132,-217,507,-208,-87
1340,12,-133,-215,530,-217,-101
1345,9,-131,-208,542,-227,-112
1350,3,-129,-206,543,-236,-123
1355,7,-128,-203,535,-242,-130
1360,8,-123,-202,517,-250,-139
1365,5,-124,-206,491,-254,-145
1370,7,-124,-205,456,-256,-150
1375,5,-125,-202,408,-257,-154
1380,6,-126,-202,351,-259,-154
1385,7,-123,-205,288,-264,-148
1390,9,-125,-206,222,-268,-147
1395,11,-130,-206,156,-277,-142
1400,12,-136,-209,92,-285,-134
1405,15,-146,-216,33,-294,-130
1410,18,-153,-210,-22,-304,-130
1415,17,-166,-221,-68,-316,-132
1420,18,-178,-228,-100,-328,-135
1425,15,-188,-232,-116,-336,-141
1430,20,-200,-241,-122,-343,-150
1435,22,-205,-253,-126,-343,-161
1440,19,-220,-258,-129,-338,-170
1445,26,-227,-267,-133,-333,-180
1450,20,-227,-280,-142,-323,-187
1455,21,-223,-291,-157,-309,-185
1460,16,-223,-300,-183,-291,-191
1465,15,-215,-304,-201,-275,-214
1470,11,-204,-313,-196,-260,-247
1475,3,-193,-315,-150,-247,-296
1480,5,-182,-317,-79,-234,-331
1485,-2,-178,-317,2,-210,-339
1490,-1,-176,-315,89,-180,-321
1495,-10,-167,-307,158,-155,-303
1500,-3,-174,-307,205,-133,-274
1505,-5,-171,-305,221,-115,-261
1510,4,-169,-297,207,-109,-244
1515,-4,-164,-293,174,-99,-248
1520,5,-166,-285,131,-95,-218
1525,8,-168,-276,93,-92,-191
1530,4,-163,-260,55,-85,-173
1535,18,-171,-254,53,-80,-139
1540,20,-181,-244,67,-62,-85
1545,12,-178,-239,74,-35,-60
1550,19,-180,-234,109,-13,-10
1555,18,-179,-230,169,14,29
1560,20,-175,-227,241,46,60
1565,22,-176,-221,317,75,87
1570,24,-172,-213,387,105,123
1575,28,-170,-206,449,139,155
1580,21,-169,-202,506,169,186
1585,21,-166,-197,556,196,211
1590,28,-167,-186,597,213,232
1595,23,-170,-187,631,223,250
1600,24,-171,-170,657,226,258
1605,20,-171,-170,673,223,262
1610,22,-178,-155,685,216,257
1615,17,-180,-153,695,206,249
1620,15,-179,-145,707,187,238
1625,13,-184,-146,722,164,221
1630,9,-184,-140,740,140,203
1635,8,-188,-130,764,118,183
1640,10,-188,-132,794,98,164
1645,9,-190,-128,827,75,145
1650,3,-189,-129,863,53,123
1655,6,-190,-126,905,34,104
1660,0,-191,-128,948,16,87
1665,-4,-187,-126,990,-1,73
1670,-2,-187,-128,1028,-12,62
1675,-5,-185,-128,1057,-20,49
1680,-7,-182,-133,1080,-29,40
1685,-8,-182,-133,1092,-37,33
1690,-5,-177,-142,1092,-41,23
1695,-10,-171,-146,1080,-43,17
1700,-9,-170,-152,1059,-42,10
1705,-6,-168,-163,1037,-41,1
1710,-1,-163,-163,1014,-38,-8
1715,1,-158,-165,994,-36,-18
1720,0,-155,-170,970,-29,-25
1725,-1,-155,-171,945,-24,-31
1730,2,-151,-174,921,-15,-38
1735,2,-150,-185,897,-7,-43
1740,6,-148,-183,870,3,-45
1745,6,-149,-190,844,17,-42
1750,13,-152,-193,817,34,-36
1755,10,-154,-192,787,56,-27
1760,11,-154,-194,757,77,-17
1765,12,-157,-193,726,98,-5
1770,14,-160,-193,694,115,8
1775,17,-161,-195,661,128,21
1780,19,-167,-194,628,139,33
1785,22,-171,-194,601,143,48
1790,24,-175,-192,575,144,64
1795,22,-177,-190,555,141,76
1800,20,-177,-185,536,136,87
1805,25,-183,-190,519,130,94
1810,22,-184,-187,507,125,99
1815,19,-184,-180,499,119,101
1820,35,-193,-177,495,110,102
1825,20,-185,-176,499,101,102
1830,20,-186,-169,509,96,105
1835,19,-186,-164,523,90,106
1840,20,-187,-155,538,84,111
1845,16,-191,-154,550,80,107
1850,20,-193,-148,557,76,104
1855,16,-190,-143,554,69,95
1860,14,-189,-138,543,63,85
1865,16,-190,-138,519,58,78
1870,19,-191,-134,484,51,68
1875,17,-193,-135,442,42,59
1880,18,-191,-126,391,34,48
1885,17,-192,-130,335,22,35
1890,17,-191,-127,273,6,22
1895,16,-189,-130,203,-8,12
1900,11,-189,-132,129,-22,-4
1905,13,-188,-133,56,-33,-22
1910,6,-189,-136,-15,-44,-39
1915,8,-193,-141,-83,-49,-55
1920,6,-193,-138,-146,-50,-71
1925,3,-190,-144,-203,-46,-86
1930,4,-193,-149,-247,-42,-95
1935,3,-196,-147,-275,-35,-105
1940,1,-195,-153,-283,-29,-110
1945,1,-197,-156,-271,-29,-112
1950,2,-198,-160,-237,-27,-108
1955,2,-199,-160,-187,-26,-97
1960,1,-197,-158,-124,-28,-85
1965,1,-194,-161,-52,-31,-68
1970,4,-191,-160,21,-34,-47
1975,0,-191,-162,87,-35,-28
1980,6,-190,-158,139,-33,-10
1985,8,-186,-163,175,-32,7
1990,11,-186,-161,194,-33,18
1995,12,-182,-159,198,-32,23
2000,16,-183,-162,185,-32,22
2005,14,-183,-164,160,-30,15
2010,17,-186,-162,125,-29,3
2015,17,-181,-165,85,-28,-10
2020,22,-179,-167,47,-26,-19
2025,24,-188,-166,13,-23,-29
2030,16,-188,-172,-13,-18,-35
2035,20,-187,-166,-31,-12,-41
2040,17,-188,-167,-38,-8,-43
2045,16,-192,-165,-35,0,-41
2050,12,-189,-169,-23,8,-37
2055,9,-195,-165,-2,19,-31
2060,11,-192,-172,27,30,-23
2065,6,-190,-166,59,44,-15
2070,5,-192,-167,93,56,-5
2075,7,-191,-161,123,72,2
2080,4,-188,-163,149,82,9
2085,4,-184,-162,169,89,15
2090,1,-187,-156,181,92,17
2095,0,-182,-154,181,95,21
2100,0,-186,-158,171,95,23
2105,-2,-183,-151,159,95,21
2110,-5,-183,-153,144,94,21
2115,-4,-188,-157,134,93,17
2120,-3,-183,-153,128,93,14
2125,-6,-185,-152,129,92,13
2130,-7,-188,-151,137,92,12
2135,-2,-189,-155,151,92,10
2140,-7,-187,-157,174,90,10
2145,-1,-190,-155,199,88,10
2150,0,-189,-154,228,88,12
2155,0,-188,-151,254,87,15
2160,0,-190,-151,283,85,17
2165,-1,-190,-151,313,82,20
2170,2,-193,-151,341,78,23
2175,3,-193,-153,369,74,26
2180,1,-190,-146,390,68,30
2185,4,-193,-148,400,66,34
2190,0,-192,-146,400,63,37
2195,1,-198,-149,393,64,38
2200,6,-192,-148,379,65,40
2205,5,-194,-146,360,64,38
2210,5,-193,-147,338,62,36
2215,6,-194,-147,320,57,32
2220,6,-195,-145,303,51,32
2225,4,-192,-156,293,47,29
2230,4,-195,-151,291,41,24
2235,11,-193,-151,292,35,20
2240,8,-194,-153,300,30,16
2245,3,-192,-152,307,24,9
2250,9,-192,-145,314,15,5
2255,7,-195,-151,318,7,-1
2260,6,-195,-149,321,0,-7
2265,7,-197,-147,322,-5,-10
2270,3,-195,-150,319,-6,-11
2275,3,-196,-146,318,-7,-9
2280,6,-200,-146,316,-6,-8
2285,4,-199,-143,311,-4,-7
2290,4,-194,-149,308,-2,-3
2295,4,-195,-143,308,-3,1
2300,2,-194,-153,306,-5,3
2305,7,-201,-147,307,-6,5
2310,6,-200,-144,309,-9,6
2315,7,-200,-147,313,-12,8
2320,4,-200,-149,318,-14,10
2325,5,-198,-147,322,-16,8
2330,2,-198,-144,328,-17,9
2335,3,-197,-146,334,-22,8
2340,3,-198,-146,338,-26,6
2345,6,-199,-143,346,-31,3
2350,2,-201,-141,355,-39,3
2355,1,-197,-135,366,-48,3
2360,6,-202,-133,380,-55,1
2365,0,-196,-135,394,-64,1
2370,0,-199,-140,407,-68,2
2375,1,-201,-138,413,-74,6
2380,1,-202,-136,412,-77,10
2385,2,-202,-135,404,-79,7
2390,1,-195,-134,390,-78,6
2395,3,-199,-136,370,-78,2
2400,4,-196,-140,340,-73,0
2405,4,-196,-133,305,-69,-6
2410,5,-198,-140,265,-64,-14
2415,3,-201,-142,223,-57,-24
2420,4,-198,-144,188,-51,-35
2425,6,-198,-144,158,-45,-44
2430,6,-201,-145,137,-39,-49
2435,5,-202,-146,122,-34,-54
2440,8,-202,-148,111,-27,-56
2445,7,-200,-150,106,-20,-55
2450,6,-202,-147,101,-14,-56
2455,7,-199,-144,99,-9,-54
2460,6,-198,-145,94,-5,-48
2465,7,-197,-146,87,-2,-43
2470,6,-199,-147,80,-1,-36
2475,8,-199,-140,74,2,-32
2480,5,-198,-145,65,2,-28
2485,10,-200,-142,58,4,-27
2490,8,-200,-139,53,6,-25
2495,6,-198,-144,45,5,-28
2500,9,-201,-141,37,4,-27
2505,6,-200,-138,28,2,-29
2510,8,-204,-134,20,-1,-34
2515,4,-203,-136,16,-4,-35
2520,5,-204,-137,15,-5,-37
2525,4,-205,-133,19,-8,-38
2530,1,-207,-141,27,-9,-42
2535,4,-206,-138,35,-11,-42
2540,2,-203,-136,43,-11,-45
2545,3,-204,-134,50,-12,-46
2550,5,-206,-135,56,-10,-47
2555,7,-203,-135,60,-10,-49
2560,3,-199,-141,64,-10,-52
2565,0,-198,-138,67,-10,-53
2570,8,-200,-140,73,-11,-56
2575,2,-208,-145,82,-12,-59
2580,6,-202,-139,94,-16,-61
2585,3,-199,-142,111,-20,-61
2590,6,-201,-142,127,-23,-59
2595,10,-199,-140,139,-24,-56
2600,8,-200,-143,147,-23,-54
2605,7,-201,-141,147,-21,-52
2610,6,-199,-140,139,-18,-49
2615,5,-204,-143,127,-16,-50
2620,8,-205,-143,111,-13,-49
2625,5,-201,-138,90,-11,-47
2630,4,-204,-141,75,-10,-50
2635,7,-205,-140,60,-7,-49
2640,7,-204,-140,50,-5,-50
2645,4,-203,-141,38,-1,-48
2650,9,-203,-137,34,0,-46
2655,4,-201,-138,31,5,-47
2660,6,-201,-142,31,8,-47
2665,4,-203,-134,32,8,-45
2670,4,-200,-140,32,7,-44
2675,5,-201,-139,34,6,-43
2680,6,-201,-139,34,6,-40
2685,7,-197,-133,34,7,-37
2690,6,-204,-139,33,6,-35
2695,5,-198,-137,33,10,-34
2700,8,-197,-139,29,14,-31
2705,5,-195,-137,22,17,-29
2710,4,-193,-136,11,20,-30
2715,4,-196,-137,-4,23,-28
2720,6,-199,-137,-16,26,-26
2725,3,-192,-139,-29,29,-26
2730,5,-198,-141,-37,31,-26
2735,5,-198,-141,-40,33,-29
2740,5,-201,-139,-43,37,-28
2745,5,-199,-144,-42,40,-29
2750,5,-198,-143,-41,46,-28
2755,7,-202,-145,-38,51,-26
2760,6,-198,-145,-34,55,-25
2765,6,-199,-143,-32,61,-22
2770,6,-196,-139,-33,65,-24
2775,6,-198,-139,-37,69,-23
2780,10,-199,-141,-41,72,-23
2785,8,-202,-146,-44,70,-23
2790,9,-197,-142,-50,68,-25
2795,7,-203,-143,-52,66,-27
2800,9,-201,-142,-54,63,-28
2805,8,-202,-140,-51,58,-29
2810,8,-203,-143,-47,55,-31
2815,8,-208,-138,-39,54,-31
2820,8,-204,-142,-29,53,-30
2825,8,-202,-141,-19,50,-29
2830,10,-201,-143,-9,52,-26
2835,6,-200,-150,1,51,-25
2840,9,-203,-142,12,50,-25
2845,7,-197,-146,20,49,-24
2850,6,-200,-147,27,48,-25
2855,7,-202,-143,32,48,-23
2860,8,-199,-143,33,48,-25
2865,7,-201,-141,34,48,-23
2870,12,-201,-148,30,49,-23
2875,10,-201,-146,24,50,-23
2880,11,-198,-146,19,52,-21
2885,9,-199,-145,12,52,-21
2890,11,-198,-145,3,56,-19
2895,11,-195,-147,-4,59,-17
2900,10,-196,-147,-11,60,-16
2905,8,-199,-135,-16,61,-16
2910,11,-200,-144,-19,63,-13
2915,11,-201,-149,-22,62,-12
2920,11,-200,-149,-24,61,-11
2925,13,-203,-151,-22,58,-12
2930,7,-199,-149,-17,55,-14
2935,9,-200,-145,-9,53,-14
2940,9,-198,-149,2,50,-16
2945,5,-198,-146,12,48,-18
2950,14,-198,-148,21,48,-19
2955,7,-197,-149,26,47,-20
2960,8,-197,-147,26,47,-20
2965,10,-199,-139,23,48,-21
2970,8,-198,-140,18,47,-22
2975,9,-200,-139,14,48,-23
2980,7,-198,-138,6,45,-23
2985,9,-199,-142,1,46,-24
2990,4,-200,-146,-3,45,-23
2995,13,-201,-141,-6,43,-22
3000,8,-203,-145,-8,42,-18
3005,7,-200,-147,-9,43,-18
3010,9,-201,-151,-5,43,-16
3015,9,-199,-148,-1,45,-13
3020,10,-201,-146,5,49,-11
3025,11,-199,-150,12,52,-10
3030,8,-195,-148,19,55,-9
3035,9,-196,-155,25,58,-7
3040,9,-196,-152,30,59,-7
3045,9,-197,-154,35,58,-9
3050,12,-194,-151,39,56,-10
3055,10,-196,-155,43,51,-14
3060,10,-191,-157,47,49,-20
3065,9,-199,-146,47,46,-25
3070,15,-199,-149,48,45,-27
3075,9,-197,-149,46,46,-27
3080,10,-197,-150,48,50,-27
3085,12,-199,-147,47,57,-24
3090,14,-200,-143,46,61,-25
3095,11,-201,-146,45,66,-22
3100,12,-202,-140,44,69,-19
3105,13,-198,-139,42,72,-16
3110,16,-200,-140,40,71,-17
3115,17,-202,-143,35,70,-18
3120,14,-200,-140,31,69,-17
3125,10,-200,-140,27,65,-18
3130,12,-200,-144,25,63,-18
3135,12,-197,-143,24,57,-20
3140,13,-194,-145,23,52,-24
3145,11,-196,-148,23,47,-26
3150,11,-196,-147,25,44,-27
3155,13,-200,-152,26,42,-30
3160,9,-197,-154,29,41,-29
3165,7,-196,-151,34,41,-30
3170,10,-197,-149,36,41,-29
3175,10,-196,-145,40,41,-28
3180,10,-195,-148,43,45,-26
3185,5,-196,-147,44,46,-27
3190,8,-195,-147,47,46,-25
3195,13,-199,-151,49,47,-27
3200,11,-204,-147,50,48,-27
3205,11,-195,-145,52,47,-27
3210,6,-198,-150,55,49,-28
3215,10,-199,-147,57,50,-27
3220,10,-199,-146,60,49,-27
3225,9,-198,-146,65,49,-27
3230,8,-195,-144,67,50,-27
3235,11,-198,-148,68,51,-27
3240,11,-195,-146,70,50,-26
3245,11,-194,-143,71,47,-27
3250,14,-198,-146,71,45,-26
3255,13,-200,-148,72,42,-25
3260,12,-198,-147,70,39,-22
3265,10,-197,-147,69,37,-21
3270,10,-196,-148,68,35,-20
3275,10,-196,-145,68,34,-18
3280,9,-197,-142,71,34,-17
3285,10,-200,-138,76,34,-16
3290,11,-201,-148,83,36,-15
3295,9,-199,-146,91,40,-13
3300,11,-199,-151,99,45,-11
3305,13,-197,-148,109,51,-10
3310,12,-200,-146,119,55,-6
3315,13,-200,-150,126,59,-2
3320,14,-197,-148,136,63,-2
3325,14,-200,-149,143,64,1
3330,14,-203,-146,147,65,4
3335,16,-196,-150,150,66,7
3340,12,-199,-148,154,68,8
3345,14,-196,-144,153,67,12
3350,16,-199,-149,151,68,13
3355,14,-199,-146,147,70,15
3360,17,-201,-145,144,72,15
3365,16,-200,-143,140,72,16
3370,13,-199,-143,139,71,19
3375,16,-199,-144,138,70,19
3380,14,-201,-145,140,70,20
3385,13,-198,-146,141,67,19
3390,11,-194,-148,143,67,22
3395,13,-200,-139,148,65,22
3400,14,-200,-138,151,62,22
3405,12,-199,-145,154,59,19
3410,11,-202,-142,157,54,19
3415,12,-198,-140,156,50,17
3420,12,-201,-141,152,47,13
3425,9,-200,-138,147,44,11
3430,9,-202,-139,137,42,6
3435,15,-207,-136,127,41,5
3440,10,-202,-142,116,38,1
3445,12,-203,-145,103,37,-2
3450,14,-203,-135,91,35,-3
3455,10,-198,-141,81,36,-7
3460,12,-199,-142,74,36,-8
3465,11,-202,-139,71,38,-7
3470,14,-203,-142,72,39,-8
3475,13,-199,-144,76,41,-8
3480,10,-201,-147,84,43,-6
3485,14,-200,-140,94,45,-4
3490,11,-202,-149,104,48,-3
3495,13,-204,-141,112,46,-2
3500,11,-200,-144,119,46,-1
3505,13,-201,-145,123,45,0
3510,14,-200,-145,126,44,1
3515,14,-200,-143,125,42,0
3520,12,-202,-143,123,42,-1
3525,13,-196,-143,121,39,-1
3530,12,-201,-144,116,37,-1
3535,16,-199,-142,115,35,-1
3540,17,-204,-142,112,31,-2
3545,16,-201,-140,111,26,-5
3550,15,-205,-145,108,20,-5
3555,13,-204,-135,109,16,-8
3560,8,-199,-145,108,12,-6
3565,15,-202,-141,107,9,-7
3570,14,-201,-140,105,7,-7
3575,14,-198,-140,104,6,-7
3580,14,-201,-141,103,6,-6
3585,16,-205,-141,103,7,-5
3590,13,-207,-140,105,10,-5
3595,15,-200,-144,105,10,-7
3600,10,-205,-142,109,10,-7
3605,12,-203,-145,111,11,-6
3610,21,-206,-145,113,12,-8
3615,16,-204,-143,113,13,-7
3620,13,-201,-141,117,15,-7
3625,15,-201,-138,117,14,-4
3630,12,-200,-143,118,14,-1
3635,13,-202,-143,121,14,4
3640,14,-202,-138,124,15,6
3645,14,-204,-141,128,18,12
3650,13,-205,-143,132,19,12
3655,14,-201,-140,134,17,13
3660,16,-205,-136,135,16,14
3665,14,-202,-136,136,15,15
3670,15,-201,-141,136,15,16
3675,12,-201,-136,135,14,17
3680,13,-202,-142,131,11,14
3685,14,-206,-141,127,8,14
3690,13,-203,-139,123,7,11
3695,15,-203,-136,120,4,10
3700,16,-205,-136,116,2,8
3705,15,-204,-137,114,1,6
3710,15,-205,-139,111,2,2
3715,15,-206,-136,109,3,0
3720,9,-203,-140,108,6,-1
3725,15,-204,-140,108,10,-3
3730,14,-203,-135,106,12,-2
3735,14,-202,-137,107,16,-4
3740,14,-203,-139,105,20,-4
3745,14,-201,-137,103,25,-4
3750,11,-200,-140,98,27,-5
3755,13,-203,-134,91,28,-6
3760,12,-200,-138,86,29,-7
3765,16,-205,-137,81,30,-9
3770,14,-207,-136,76,28,-9
3775,9,-207,-136,73,26,-9
3780,13,-206,-138,73,24,-9
3785,12,-203,-135,75,22,-7
3790,10,-207,-138,76,21,-8
3795,10,-204,-136,79,21,-9
3800,11,-206,-133,80,18,-7
3805,11,-204,-134,81,20,-9
3810,11,-203,-131,82,18,-7
3815,10,-205,-138,80,18,-8
3820,10,-199,-136,77,19,-10
3825,9,-200,-135,72,19,-11
3830,5,-212,-132,67,20,-12
3835,9,-204,-132,62,19,-14
3840,12,-207,-134,59,21,-16
3845,12,-206,-133,55,21,-16
3850,11,-203,-134,53,21,-15
3855,8,-204,-135,54,20,-16
3860,11,-204,-134,55,20,-14
3865,9,-206,-131,56,22,-13
3870,13,-207,-135,58,21,-10
3875,13,-205,-135,61,22,-9
3880,12,-202,-138,63,24,-7
3885,13,-207,-135,64,23,-5
3890,12,-205,-135,65,24,-6
3895,12,-202,-134,65,25,-6
3900,10,-203,-137,63,27,-5
3905,8,-204,-141,62,29,-4
3910,13,-206,-138,60,32,-6
3915,11,-204,-139,60,32,-7
3920,8,-205,-131,59,34,-7
3925,8,-204,-132,58,35,-6
3930,11,-208,-133,60,34,-9
3935,16,-207,-136,62,36,-7
3940,15,-207,-130,67,35,-9
3945,14,-208,-138,70,34,-9
3950,11,-204,-135,75,33,-10
3955,12,-205,-138,79,33,-12
3960,15,-206,-136,84,32,-13
3965,12,-204,-138,86,33,-13
3970,13,-205,-138,89,32,-15
3975,12,-206,-140,88,29,-13
3980,13,-200,-136,88,29,-14
3985,13,-205,-134,88,25,-14
3990,15,-208,-137,86,22,-13
3995,10,-201,-136,85,20,-15
4000,13,-205,-136,83,17,-16
4005,14,-208,-134,80,15,-16
4010,12,-209,-132,79,13,-16
4015,14,-205,-135,79,10,-17
4020,14,-203,-136,78,9,-17
4025,16,-210,-138,78,10,-21
4030,15,-205,-137,78,10,-21
4035,15,-208,-134,78,9,-25
4040,18,-207,-134,80,7,-25
4045,12,-205,-134,80,5,-30
4050,15,-205,-135,78,1,-34
4055,13,-203,-139,78,-1,-37
4060,18,-207,-138,77,-5,-42
4065,14,-206,-137,73,-9,-44
4070,14,-205,-135,70,-12,-49
4075,14,-207,-134,66,-14,-52
4080,13,-207,-133,62,-16,-52
4085,12,-201,-136,60,-15,-54
4090,13,-201,-137,59,-13,-52
4095,16,-207,-134,60,-11,-51
4100,16,-210,-127,62,-6,-48
4105,12,-203,-138,63,-2,-42
4110,14,-207,-140,63,4,-38
4115,14,-203,-136,60,5,-34
4120,17,-204,-133,57,9,-30
4125,16,-204,-136,51,10,-27
4130,14,-205,-137,43,10,-23
4135,17,-206,-137,35,8,-20
4140,11,-205,-136,27,8,-16
4145,14,-204,-136,19,6,-14
4150,16,-205,-133,13,6,-13
4155,14,-209,-135,9,5,-11
4160,14,-202,-136,7,5,-10
4165,15,-205,-139,5,5,-10
4170,15,-207,-137,3,5,-10
4175,16,-209,-135,4,6,-10
4180,17,-209,-137,4,4,-12
4185,14,-206,-137,8,4,-13
4190,14,-208,-130,12,5,-15
4195,16,-205,-133,16,5,-16
4200,14,-203,-140,20,4,-17
4205,13,-207,-140,26,3,-19
4210,14,-207,-135,31,1,-18
4215,16,-204,-138,38,0,-16
4220,16,-203,-135,39,-1,-15
4225,14,-205,-137,42,-2,-15
4230,13,-203,-135,43,-4,-14
4235,17,-204,-135,43,-8,-13
4240,11,-204,-138,41,-11,-12
4245,15,-203,-133,42,-15,-14
4250,16,-206,-137,42,-19,-14
4255,16,-208,-137,42,-22,-14
4260,14,-202,-136,43,-27,-14
4265,13,-203,-129,41,-29,-16
4270,13,-203,-137,40,-29,-16
4275,14,-204,-135,39,-30,-18
4280,13,-205,-140,39,-30,-15
4285,10,-206,-138,38,-30,-16
4290,13,-206,-141,39,-28,-17
4295,13,-202,-138,41,-27,-15
4300,8,-202,-145,42,-25,-15
4305,16,-207,-140,48,-24,-10
4310,16,-204,-143,54,-21,-10
4315,13,-204,-139,64,-20,-7
4320,15,-208,-140,74,-18,-5
4325,11,-203,-138,87,-16,-2
4330,14,-206,-138,99,-17,1
4335,15,-207,-138,112,-17,3
4340,16,-206,-142,125,-18,5
4345,13,-203,-136,138,-18,8
4350,14,-205,-137,148,-19,9
4355,15,-210,-137,158,-20,12
4360,15,-207,-136,166,-21,13
4365,16,-206,-134,173,-22,15
4370,18,-208,-137,174,-21,14
4375,12,-201,-140,171,-22,12
4380,13,-202,-139,161,-20,10
4385,13,-202,-137,150,-18,5
4390,15,-203,-138,132,-15,3
4395,14,-205,-142,114,-10,-4
4400,11,-201,-143,96,-6,-10
4405,11,-204,-137,79,-2,-17
4410,15,-206,-142,63,2,-25
4415,12,-207,-139,53,5,-30
4420,9,-205,-137,47,7,-34
4425,12,-209,-135,48,8,-40
4430,13,-209,-142,53,7,-38
4435,10,-206,-137,61,4,-35
4440,12,-206,-133,68,2,-32
4445,12,-207,-135,73,0,-29
4450,10,-206,-132,79,-2,-24
4455,12,-207,-132,81,-4,-19
4460,8,-206,-134,83,-4,-16
4465,13,-206,-135,81,-3,-9
4470,12,-208,-135,78,-1,-6
4475,13,-206,-133,70,0,-4
4480,14,-206,-133,62,2,-1
4485,6,-205,-128,54,3,-1
4490,12,-204,-130,45,5,0
4495,12,-208,-132,37,3,-2
4500,10,-207,-133,29,4,-5
4505,13,-208,-133,21,4,-8
4510,12,-206,-133,17,6,-10
4515,10,-210,-135,15,5,-12
4520,13,-209,-131,17,6,-12
4525,16,-211,-135,20,5,-13
4530,13,-206,-140,28,5,-15
4535,13,-205,-136,36,4,-15
4540,14,-209,-135,43,2,-15
4545,11,-206,-131,49,1,-15
4550,10,-208,-134,53,-1,-16
4555,12,-203,-132,53,-2,-15
4560,13,-205,-131,51,-4,-18
4565,15,-204,-135,44,-6,-18
4570,13,-202,-135,34,-7,-19
4575,10,-200,-134,23,-11,-19
4580,12,-203,-137,11,-10,-21
4585,13,-203,-135,-1,-10,-22
4590,10,-208,-139,-12,-11,-23
4595,13,-203,-135,-23,-14,-24
4600,10,-202,-138,-29,-15,-24
4605,12,-205,-138,-30,-19,-25
4610,13,-206,-135,-27,-20,-26
4615,10,-206,-139,-17,-22,-25
4620,13,-208,-138,-3,-21,-25
4625,10,-207,-138,15,-21,-23
4630,10,-206,-141,35,-20,-22
4635,12,-206,-146,57,-18,-20
4640,11,-209,-136,77,-19,-15
4645,8,-202,-144,95,-19,-12
4650,13,-205,-140,111,-21,-9
4655,14,-207,-138,121,-23,-7
4660,12,-205,-137,128,-26,-5
4665,15,-207,-139,129,-30,-4
4670,12,-205,-137,131,-33,-3
4675,12,-206,-137,130,-34,-5
4680,11,-205,-141,130,-35,-6
4685,13,-206,-136,130,-36,-6
4690,9,-206,-135,129,-37,-6
4695,13,-208,-138,129,-37,-8
4700,8,-201,-137,131,-37,-8
4705,12,-206,-137,135,-37,-10
4710,17,-208,-134,140,-36,-8
4715,12,-202,-133,143,-34,-9
4720,11,-206,-133,148,-33,-10
4725,13,-207,-133,150,-31,-11
4730,12,-203,-135,151,-29,-11
4735,15,-203,-133,147,-26,-11
4740,12,-204,-135,141,-23,-8
4745,15,-204,-135,130,-24,-7
4750,14,-205,-142,118,-22,-7
4755,10,-202,-136,102,-19,-8
4760,11,-203,-136,81,-18,-7
4765,15,-204,-135,61,-15,-9
4770,9,-204,-132,44,-13,-11
4775,12,-207,-133,28,-10,-13
4780,11,-206,-134,18,-9,-14
4785,9,-209,-136,12,-9,-14
4790,12,-211,-135,12,-7,-14
4795,9,-207,-134,15,-8,-13
4800,12,-205,-135,22,-10,-12
4805,10,-206,-131,30,-8,-11
4810,10,-210,-134,38,-8,-9
4815,12,-207,-133,47,-7,-7
4820,10,-205,-131,53,-7,-6
4825,10,-205,-134,58,-4,-3
4830,14,-204,-131,60,-4,-1
4835,10,-203,-132,59,-2,-2
4840,11,-204,-134,55,1,-2
4845,10,-204,-134,49,1,-4
4850,9,-201,-136,41,1,-6
4855,14,-204,-135,34,1,-10
4860,12,-200,-134,24,0,-11
4865,10,-203,-130,16,-3,-11
4870,12,-205,-135,9,-4,-14
4875,9,-205,-134,3,-2,-15
4880,13,-207,-134,0,0,-17
4885,10,-208,-131,-2,2,-18
4890,12,-210,-134,0,3,-21
4895,11,-207,-136,2,4,-22
4900,10,-205,-136,8,5,-21
4905,13,-208,-135,14,3,-22
4910,8,-206,-133,22,4,-24
4915,9,-208,-133,31,4,-24
4920,12,-203,-137,39,2,-24
4925,11,-208,-135,47,0,-24
4930,11,-208,-135,53,-1,-24
4935,13,-206,-135,58,-1,-24
4940,11,-203,-132,62,0,-25
4945,7,-204,-134,65,0,-26
4950,13,-203,-135,68,-1,-25
4955,11,-204,-131,68,0,-24
4960,9,-204,-136,64,0,-22
4965,6,-203,-135,60,1,-23
4970,8,-203,-138,54,3,-24
4975,12,-203,-135,47,3,-23
4980,13,-205,-139,41,4,-23
4985,8,-206,-133,35,4,-22
4990,10,-202,-137,28,4,-21
4995,11,-204,-136,25,4,-19
5000,10,-208,-131,23,6,-21
5005,10,-208,-139,22,5,-21
5010,11,-207,-137,24,6,-19
5015,9,-208,-136,27,9,-20
5020,13,-204,-134,31,9,-19
5025,11,-207,-139,35,11,-18
5030,14,-207,-135,38,11,-18
5035,11,-205,-136,39,14,-18
5040,13,-206,-131,40,15,-18
5045,12,-205,-137,38,16,-16
5050,10,-206,-135,38,16,-15
5055,12,-207,-139,36,16,-14
5060,7,-203,-140,36,17,-14
5065,10,-202,-139,34,17,-13
5070,11,-205,-133,35,17,-12
5075,8,-206,-138,36,16,-12
5080,6,-203,-138,36,16,-13
5085,13,-205,-135,38,17,-14
5090,9,-205,-138,40,16,-12
5095,11,-206,-135,44,18,-14
5100,12,-206,-137,46,19,-14
5105,10,-205,-140,50,18,-14
5110,12,-206,-138,51,21,-14
5115,11,-205,-137,51,22,-16
5120,10,-201,-132,48,22,-16
5125,10,-203,-136,45,23,-16
5130,13,-209,-138,41,26,-18
5135,12,-205,-139,38,26,-18
5140,11,-207,-137,35,28,-17
5145,13,-206,-138,32,31,-18
5150,11,-204,-134,31,33,-17
5155,13,-209,-135,32,33,-16
5160,14,-207,-135,33,34,-14
5165,15,-208,-137,36,35,-13
5170,15,-205,-133,38,34,-10
5175,10,-205,-134,41,33,-10
5180,16,-205,-134,42,33,-10
5185,12,-205,-134,42,31,-7
5190,10,-206,-134,39,31,-7
5195,13,-205,-135,38,30,-6
5200,12,-203,-139,35,30,-4
5205,15,-206,-137,31,29,-4
5210,14,-205,-136,30,29,-4
5215,12,-206,-134,30,29,-5
5220,11,-204,-135,29,30,-5
5225,14,-207,-132,31,32,-6
5230,11,-204,-144,35,34,-8
5235,13,-203,-136,36,36,-9
5240,11,-206,-139,41,37,-12
5245,13,-207,-138,45,39,-13
5250,13,-208,-134,47,39,-14
5255,14,-206,-137,49,39,-13
5260,11,-205,-138,51,39,-12
5265,11,-204,-136,51,37,-11
5270,11,-203,-136,52,36,-13
5275,14,-204,-134,51,36,-14
5280,13,-202,-133,49,34,-14
5285,15,-204,-138,45,32,-14
5290,12,-203,-132,41,32,-14
5295,10,-207,-136,35,32,-14
5300,14,-202,-133,32,32,-15
5305,11,-204,-138,28,31,-15
5310,10,-205,-134,25,32,-14
5315,11,-203,-134,25,31,-15
5320,11,-206,-137,27,31,-16
5325,13,-208,-139,32,30,-16
5330,11,-204,-140,36,27,-15
5335,10,-207,-141,40,26,-16
5340,15,-206,-135,45,24,-14
5345,9,-205,-140,47,25,-14
5350,12,-207,-144,48,25,-13
5355,14,-201,-139,48,26,-11
5360,16,-206,-138,48,29,-11
5365,12,-205,-134,47,28,-9
5370,11,-203,-133,44,29,-8
5375,14,-206,-134,44,30,-9
5380,13,-204,-137,45,31,-8
5385,13,-209,-137,45,30,-6
5390,9,-204,-133,49,32,-5
5395,14,-204,-137,55,32,-6
5400,12,-205,-135,60,32,-4
5405,12,-205,-134,66,30,-6
5410,18,-212,-140,74,32,-5
5415,13,-206,-136,80,31,-4
5420,14,-206,-140,87,31,-4
5425,12,-205,-140,91,32,-2
5430,12,-203,-135,93,31,-2
5435,12,-206,-135,94,28,0
5440,11,-202,-136,91,28,-3
5445,11,-204,-136,87,28,-5
5450,6,-205,-134,81,26,-4
5455,13,-205,-137,74,28,-6
5460,16,-207,-134,65,27,-8
5465,11,-208,-143,54,29,-10
5470,13,-208,-140,46,32,-9
5475,10,-203,-137,38,36,-10
5480,14,-206,-138,33,39,-10
5485,12,-206,-139,29,43,-10
5490,14,-205,-140,27,44,-10
5495,11,-201,-139,27,46,-8
5500,14,-204,-142,30,47,-8
5505,16,-207,-134,33,46,-6
5510,15,-205,-138,38,43,-4
5515,13,-207,-140,41,41,-4
5520,13,-201,-146,43,37,-3
5525,14,-208,-141,45,35,-2
5530,12,-204,-138,44,32,-1
5535,14,-206,-140,42,31,-1
5540,14,-204,-140,37,29,1
5545,12,-201,-135,32,28,2
5550,14,-205,-138,26,30,1
5555,12,-203,-137,22,31,0
5560,9,-205,-142,18,32,0
5565,17,-202,-138,16,32,1
5570,12,-202,-131,15,32,0
5575,12,-204,-138,17,33,-3
5580,15,-206,-139,20,34,-2
5585,17,-202,-137,24,32,-3
5590,13,-202,-139,30,32,-3
5595,13,-204,-137,35,29,-3
5600,15,-203,-139,40,27,-2
5605,16,-206,-135,46,24,-1
5610,15,-206,-134,51,22,-3
5615,14,-205,-136,54,20,-2
5620,16,-203,-138,54,21,1
5625,13,-204,-138,53,20,0
5630,12,-204,-138,53,20,-1
5635,12,-204,-137,49,21,1
5640,12,-205,-139,46,23,0
5645,12,-204,-137,44,25,-1
5650,13,-203,-137,42,26,-1
5655,11,-207,-138,43,27,-1
5660,12,-205,-135,43,28,-3
5665,13,-204,-140,43,29,-2
5670,17,-205,-138,43,31,-3
5675,10,-203,-138,43,31,-4
5680,9,-198,-136,43,32,-4
5685,15,-203,-136,42,33,-3
5690,12,-206,-135,42,34,-3
5695,10,-204,-138,42,35,-1
5700,12,-203,-138,43,34,0
5705,14,-202,-139,45,33,1
5710,13,-203,-136,46,33,3
5715,13,-202,-140,47,32,4
5720,13,-204,-138,51,31,4
5725,12,-199,-138,53,30,7
5730,16,-208,-139,54,29,8
5735,18,-211,-134,53,29,11
5740,12,-203,-135,53,27,9
5745,11,-207,-137,48,25,9
5750,15,-205,-138,46,24,8
5755,12,-206,-135,44,23,5
5760,11,-203,-132,42,21,4
5765,13,-205,-136,38,21,2
5770,13,-207,-132,38,22,2
5775,13,-206,-139,38,24,2
5780,13,-204,-138,37,24,1
5785,16,-208,-141,38,25,-1
5790,12,-208,-130,40,25,-1
5795,11,-205,-134,42,24,-3
5800,12,-204,-135,45,22,-3
5805,10,-202,-134,47,22,-4
5810,13,-204,-137,48,21,-5
5815,11,-205,-135,50,21,-4
5820,13,-205,-134,52,20,-4
5825,10,-205,-136,52,20,-3
5830,14,-204,-138,54,19,-1
5835,9,-201,-138,56,20,-2
5840,12,-199,-140,56,19,2
5845,9,-203,-140,56,21,1
5850,14,-200,-137,56,22,3
5855,13,-202,-140,56,24,3
5860,10,-204,-138,57,24,3
5865,10,-202,-139,57,23,3
5870,12,-204,-136,54,21,4
5875,13,-202,-135,50,20,0
5880,13,-205,-139,47,19,0
5885,12,-206,-138,44,18,-1
5890,13,-205,-144,43,14,-4
5895,12,-203,-141,44,13,-3
5900,10,-206,-146,47,11,-2
5905,13,-204,-137,50,10,-2
5910,12,-205,-138,53,11,-3
5915,13,-203,-137,57,12,-3
5920,10,-202,-135,61,12,-2
5925,14,-203,-137,64,13,-2
5930,12,-205,-136,66,15,-2
5935,14,-207,-139,68,16,-1
5940,13,-204,-139,69,20,0
5945,10,-204,-135,70,21,1
5950,9,-204,-136,71,22,2
5955,5,-203,-136,74,23,2
5960,15,-207,-135,76,22,3
5965,14,-204,-136,77,22,3
5970,15,-210,-133,79,21,3
5975,15,-208,-133,84,19,4
5980,11,-205,-131,85,17,3
5985,11,-205,-132,88,16,1
5990,12,-208,-135,91,14,-1
5995,11,-206,-131,93,11,0
6000,13,-202,-136,95,9,0
6005,10,-204,-134,97,5,0
6010,13,-212,-132,96,2,0
6015,14,-205,-133,96,0,-1
6020,12,-206,-137,94,-1,-4
6025,13,-204,-137,94,-4,-5
6030,10,-204,-137,95,-4,-8
6035,10,-206,-137,97,-6,-8
6040,13,-204,-139,98,-5,-8
6045,11,-206,-135,101,-2,-10
6050,9,-202,-139,102,1,-10
6055,13,-203,-141,103,3,-9
6060,15,-202,-137,105,7,-8
6065,10,-202,-138,104,9,-6
6070,10,-203,-135,103,13,-5
6075,11,-203,-138,101,17,-5
6080,11,-204,-137,98,20,-2
6085,8,-202,-137,96,22,-2
6090,11,-203,-138,94,26,-1
6095,11,-202,-139,92,29,2
6100,13,-206,-138,90,32,2
6105,14,-204,-137,88,34,5
6110,10,-204,-135,85,36,6
6115,8,-207,-135,81,35,8
6120,10,-205,-135,77,36,7
6125,13,-206,-132,73,37,7
6130,12,-207,-134,69,36,9
6135,10,-208,-132,67,34,5
6140,12,-205,-134,65,34,2
6145,12,-207,-135,65,32,0
6150,10,-206,-136,66,30,-1
6155,12,-210,-134,67,29,-5
6160,12,-207,-136,68,27,-8
6165,12,-205,-134,70,24,-9
6170,8,-207,-134,73,21,-12
6175,11,-208,-135,76,20,-13
6180,11,-206,-133,78,17,-13
6185,14,-207,-132,80,15,-16
6190,10,-203,-136,81,15,-16
6195,12,-209,-133,78,15,-16
6200,13,-206,-131,76,17,-18
6205,13,-206,-130,72,18,-19
6210,12,-208,-131,68,20,-19
6215,11,-208,-135,64,20,-18
6220,14,-202,-127,60,22,-20
6225,11,-204,-132,56,22,-19
6230,14,-203,-133,54,24,-21
6235,11,-204,-137,51,25,-20
6240,12,-202,-132,47,25,-19
6245,10,-208,-136,41,26,-19
6250,12,-204,-134,36,27,-19
6255,11,-206,-138,31,30,-19
6260,15,-205,-135,24,30,-19
6265,13,-206,-135,14,29,-19
6270,11,-203,-134,6,29,-20
6275,16,-207,-138,-3,27,-20
6280,18,-206,-137,-12,25,-22
6285,16,-203,-134,-24,21,-24
6290,14,-204,-141,-36,20,-26
6295,15,-206,-135,-49,17,-29
6300,15,-204,-137,-63,16,-31
6305,13,-199,-136,-80,14,-32
6310,18,-202,-138,-97,13,-34
6315,17,-204,-134,-116,15,-37
6320,15,-199,-135,-135,16,-41
6325,16,-206,-138,-154,21,-42
6330,15,-203,-138,-172,25,-47
6335,12,-202,-134,-190,26,-50
6340,16,-201,-139,-207,29,-52
6345,14,-203,-139,-220,31,-55
6350,17,-205,-140,-237,31,-56
6355,19,-201,-139,-254,31,-57
6360,19,-200,-142,-273,30,-60
6365,19,-200,-142,-298,28,-59
6370,15,-198,-140,-332,26,-59
6375,20,-200,-142,-375,29,-57
6380,13,-198,-143,-424,29,-58
6385,14,-193,-148,-480,31,-57
6390,20,-196,-151,-539,32,-56
6395,18,-196,-153,-598,33,-58
6400,18,-191,-160,-653,36,-60
6405,18,-193,-162,-704,37,-61
6410,19,-191,-163,-753,39,-60
6415,16,-190,-160,-795,40,-57
6420,17,-187,-164,-828,44,-55
6425,15,-181,-171,-849,45,-54
6430,16,-188,-168,-864,44,-51
6435,15,-187,-168,-872,41,-47
6440,18,-184,-163,-871,36,-44
6445,13,-183,-163,-868,30,-37
6450,11,-183,-162,-860,24,-33
6455,12,-180,-160,-847,19,-29
6460,13,-183,-161,-831,12,-28
6465,10,-180,-162,-816,7,-26
6470,8,-178,-157,-806,2,-26
6475,9,-177,-150,-802,0,-26
6480,8,-176,-149,-804,-2,-30
6485,7,-176,-147,-811,-3,-37
6490,9,-177,-145,-824,-4,-47
6495,9,-178,-143,-845,-8,-61
6500,4,-175,-140,-875,-9,-73
6505,7,-178,-142,-912,-11,-84
6510,6,-172,-139,-958,-10,-96
6515,7,-174,-142,-1005,-7,-104
6520,9,-177,-144,-1054,-2,-113
6525,12,-177,-145,-1097,5,-122
6530,13,-183,-143,-1131,14,-128
6535,11,-177,-147,-1154,20,-136
6540,16,-179,-148,-1159,24,-138
6545,13,-182,-143,-1149,23,-141
6550,11,-177,-146,-1129,20,-144
6555,14,-181,-152,-1102,14,-146
6560,16,-180,-156,-1065,6,-147
6565,16,-178,-160,-1018,-4,-142
6570,23,-179,-167,-960,-10,-138
6575,23,-178,-170,-903,-8,-116
6580,21,-176,-177,-847,-7,-110
6585,25,-171,-176,-814,-4,-96
6590,28,-169,-174,-796,2,-69
6595,24,-158,-169,-810,11,-51
6600,24,-159,-167,-835,11,-58
6605,23,-158,-172,-843,-5,-75
6610,26,-162,-174,-855,-24,-89
6615,22,-161,-171,-885,-37,-128
6620,30,-166,-177,-905,-53,-115
6625,21,-167,-180,-913,-53,-83
6630,16,-175,-175,-892,-52,-78
6635,14,-190,-183,-840,-54,-86
6640,20,-174,-172,-792,-50,-80
6645,15,-177,-181,-690,-48,-51
6650,13,-179,-172,-595,-46,-33
6655,19,-187,-171,-511,-41,-15
6660,20,-183,-169,-456,-35,26
6665,6,-182,-167,-400,-32,17
6670,9,-182,-166,-351,-34,-6
6675,2,-169,-162,-336,-36,-60
6680,20,-170,-169,-337,-42,-57
6685,15,-172,-172,-307,-42,-32
6690,13,-170,-174,-295,-37,-6
6695,1,-165,-179,-302,-32,15
6700,3,-164,-179,-291,-41,-6
6705,6,-165,-181,-276,-52,-18
6710,6,-166,-179,-261,-58,-18
6715,4,-161,-185,-245,-58,-10
6720,7,-165,-180,-226,-53,-7
6725,4,-160,-185,-206,-47,-5
6730,6,-160,-188,-183,-40,-6
6735,7,-162,-188,-159,-35,-7
6740,9,-163,-189,-132,-29,-6
6745,8,-158,-190,-108,-25,-9
6750,10,-156,-192,-81,-20,-11
6755,12,-154,-196,-57,-19,-10
6760,8,-152,-191,-40,-18,-8
6765,17,-150,-191,-33,-15,-5
6770,15,-150,-189,-33,-12,-3
6775,15,-148,-187,-37,-10,-5
6780,16,-150,-189,-42,-9,-9
6785,18,-150,-186,-46,-10,-17
6790,19,-150,-186,-47,-9,-24
6795,19,-146,-187,-49,-11,-33
6800,25,-149,-184,-54,-14,-43
6805,22,-149,-187,-66,-20,-51
6810,27,-146,-189,-88,-26,-59
6815,30,-149,-192,-118,-35,-66
6820,33,-146,-191,-153,-49,-71
6825,31,-146,-176,-193,-67,-79
6830,32,-147,-189,-231,-87,-85
6835,27,-146,-193,-260,-106,-85
6840,26,-144,-194,-282,-120,-79
6845,23,-145,-196,-300,-126,-70
6850,21,-143,-199,-318,-124,-55
6855,23,-140,-195,-344,-114,-36
6860,23,-138,-192,-385,-94,-14
6865,20,-132,-196,-435,-69,4
6870,17,-138,-190,-491,-41,19
6875,15,-145,-198,-541,-14,33
6880,7,-151,-197,-587,13,48
6885,13,-167,-205,-629,32,64
6890,7,-169,-216,-668,47,75
6895,6,-175,-223,-702,53,81
6900,6,-173,-236,-724,51,82
6905,7,-176,-248,-728,42,75
6910,10,-171,-257,-708,31,63
6915,12,-169,-269,-657,23,51
6920,15,-166,-277,-575,21,39
6925,18,-165,-280,-470,28,32
6930,19,-159,-298,-354,43,29
6935,17,-158,-305,-239,67,33
6940,20,-147,-310,-128,101,42
6945,17,-145,-316,-24,142,64
6950,13,-151,-320,74,187,101
6955,13,-160,-320,165,230,151
6960,18,-179,-322,245,267,222
6965,12,-191,-326,303,290,285
6970,6,-202,-319,348,299,327
6975,6,-218,-315,400,299,360
6980,2,-233,-302,455,286,355
6985,0,-244,-301,506,266,327
6990,-1,-244,-294,538,243,288
6995,-5,-241,-289,530,219,238
7000,-1,-232,-290,468,192,182
7005,2,-222,-291,353,157,110
7010,5,-214,-286,208,119,52
7015,12,-206,-283,42,70,3
7020,24,-201,-287,-125,7,-46
7025,24,-191,-296,-276,-67,-94
7030,27,-192,-298,-402,-143,-134
7035,33,-187,-301,-492,-216,-160
7040,29,-188,-304,-539,-281,-181
7045,35,-190,-304,-524,-329,-188
7050,39,-186,-306,-451,-364,-185
7055,41,-186,-303,-320,-381,-177
7060,39,-183,-297,-142,-385,-170
7065,43,-179,-292,74,-375,-160
7070,40,-173,-287,305,-348,-144
7075,39,-170,-276,536,-306,-106
7080,40,-170,-277,753,-264,-91
7085,40,-166,-270,939,-216,-91
7090,35,-160,-263,1118,-164,-95
7095,31,-162,-254,1241,-113,-94
7100,36,-160,-248,1347,-64,-90
7105,34,-167,-246,1437,-18,-70
7110,29,-165,-241,1482,19,-84
7115,24,-167,-230,1492,58,-98
7120,25,-166,-218,1473,93,-71
7125,21,-163,-209,1447,125,-21
7130,14,-168,-197,1429,142,29
7135,14,-164,-195,1383,138,18
7140,5,-163,-186,1322,125,-12
7145,-3,-157,-177,1264,103,-37
7150,-11,-152,-173,1216,74,-42
7155,-6,-162,-173,1178,44,-44
7160,-30,-150,-161,1149,16,-63
7165,-21,-160,-159,1152,-2,-51
7170,-19,-161,-158,1150,-22,-80
7175,-28,-156,-159,1143,-35,-135
7180,-35,-160,-148,1148,-39,-174
7185,-36,-152,-156,1170,-38,-190
7190,-31,-156,-159,1198,-38,-210
7195,-31,-153,-165,1224,-32,-244
7200,-35,-151,-166,1239,-21,-280
7205,-35,-148,-166,1233,-8,-301
7210,-27,-148,-174,1216,7,-303
7215,-22,-148,-166,1191,17,-309
7220,-16,-145,-169,1173,18,-312
7225,-14,-146,-170,1157,13,-313
7230,-7,-148,-176,1143,4,-307
7235,-3,-148,-174,1132,-8,-286
7240,1,-149,-175,1133,-23,-258
7245,8,-145,-172,1142,-40,-233
7250,7,-148,-173,1163,-63,-215
7255,13,-139,-171,1187,-89,-205
7260,19,-150,-169,1209,-109,-188
7265,23,-150,-165,1222,-132,-161
7270,26,-149,-161,1234,-155,-136
7275,31,-142,-155,1248,-177,-115
7280,30,-152,-159,1269,-197,-72
7285,30,-149,-154,1271,-220,-59
7290,27,-141,-147,1262,-238,-58
7295,30,-137,-145,1251,-248,-53
7300,28,-134,-134,1239,-253,-46
7305,27,-130,-129,1229,-256,-41
7310,24,-128,-126,1220,-255,-36
7315,26,-126,-123,1209,-253,-30
7320,26,-122,-121,1194,-250,-25
7325,23,-120,-118,1173,-247,-20
7330,26,-118,-115,1147,-243,-18
7335,24,-116,-110,1118,-238,-18
7340,27,-111,-109,1086,-235,-17
7345,22,-107,-113,1059,-229,-20
7350,23,-106,-110,1036,-223,-26
7355,27,-102,-112,1018,-216,-30
7360,22,-105,-111,1001,-209,-35
7365,20,-101,-111,988,-199,-40
7370,18,-101,-108,978,-189,-42
7375,16,-101,-112,968,-181,-49
7380,12,-103,-110,956,-178,-50
7385,12,-100,-112,946,-175,-50
7390,10,-102,-113,931,-176,-50
7395,6,-99,-113,916,-181,-47
7400,8,-96,-118,896,-188,-42
7405,8,-102,-119,871,-195,-36
7410,4,-102,-119,843,-200,-29
7415,10,-104,-121,810,-203,-21
7420,1,-100,-126,775,-207,-11
7425,8,-110,-129,740,-208,-7
7430,9,-114,-129,703,-209,-1
7435,11,-121,-134,663,-209,3
7440,15,-124,-135,619,-208,3
7445,15,-131,-142,572,-201,4
7450,18,-137,-141,522,-189,1
7455,17,-148,-144,469,-174,1
7460,24,-155,-150,417,-159,-5
7465,29,-165,-147,368,-144,-11
7470,27,-173,-150,326,-125,-18
7475,32,-183,-157,291,-107,-25
7480,36,-192,-156,266,-91,-34
7485,36,-199,-158,254,-75,-42
7490,35,-208,-156,252,-64,-48
7495,35,-214,-160,255,-53,-50
7500,34,-218,-158,261,-46,-53
7505,36,-224,-159,268,-36,-52
7510,33,-222,-155,277,-24,-50
7515,30,-226,-157,287,-8,-47
7520,31,-229,-153,292,11,-43
7525,29,-228,-156,291,31,-36
7530,21,-217,-148,288,56,-29
7535,24,-220,-147,282,78,-25
7540,23,-220,-142,275,101,-20
7545,17,-218,-136,268,122,-17
7550,14,-214,-133,260,140,-14
7555,15,-212,-129,254,156,-10
7560,11,-210,-129,249,170,-10
7565,11,-208,-125,246,182,-9
7570,9,-204,-126,245,191,-7
7575,11,-205,-122,245,198,-6
7580,11,-203,-123,249,203,-7
7585,7,-201,-121,255,204,-7
7590,6,-200,-117,266,205,-8
7595,6,-198,-116,280,203,-8
7600,5,-196,-114,295,200,-8
7605,2,-197,-112,311,193,-8
7610,3,-194,-109,325,184,-9
7615,6,-193,-116,334,175,-12
7620,7,-193,-113,336,165,-13
7625,10,-192,-111,332,158,-16
7630,7,-189,-117,319,149,-16
7635,6,-191,-116,302,143,-18
7640,8,-189,-117,283,134,-19
7645,10,-192,-117,261,127,-17
7650,12,-194,-120,240,122,-12
7655,13,-193,-119,220,119,-1
7660,15,-196,-121,203,120,10
7665,11,-196,-123,188,118,18
7670,14,-193,-123,173,117,22
7675,16,-196,-128,159,116,27
7680,13,-197,-125,144,113,33
7685,19,-197,-127,127,109,40
7690,16,-205,-121,110,107,45
7695,19,-202,-129,93,104,50
7700,19,-207,-127,78,100,52
7705,19,-209,-131,61,97,52
7710,17,-207,-125,52,96,59
7715,19,-218,-130,48,96,69
7720,16,-217,-128,32,94,53
7725,17,-216,-124,21,92,50
7730,20,-220,-128,14,93,48
7735,19,-219,-127,10,99,47
7740,18,-221,-125,10,104,45
7745,15,-220,-130,11,113,43
7750,15,-220,-126,14,122,46
7755,13,-223,-124,19,129,47
7760,10,-217,-123,26,136,48
7765,10,-221,-122,37,143,48
7770,14,-220,-121,51,147,49
7775,9,-216,-117,65,151,51
7780,5,-219,-116,79,152,53
7785,7,-220,-116,94,151,51
7790,5,-214,-117,103,148,50
7795,5,-215,-118,113,146,49
7800,3,-214,-118,118,143,48
7805,7,-213,-117,121,143,50
7810,5,-213,-120,122,145,50
7815,4,-211,-120,122,148,50
7820,5,-212,-121,121,150,50
7825,5,-211,-119,119,154,51
7830,6,-210,-120,118,156,54
7835,10,-208,-118,114,157,55
7840,6,-209,-121,110,159,55
7845,11,-215,-124,104,160,53
7850,10,-209,-119,96,159,51
7855,7,-211,-124,90,158,47
7860,12,-215,-122,82,155,40
7865,7,-213,-123,82,147,30
7870,13,-218,-122,86,133,16
7875,17,-218,-124,84,119,7
7880,15,-220,-126,81,114,6
7885,16,-224,-121,83,115,9
7890,15,-223,-120,89,117,9
7895,12,-221,-118,95,117,12
7900,14,-220,-121,95,115,16
7905,11,-220,-123,93,116,16
7910,16,-223,-125,88,116,18
7915,12,-218,-120,78,116,18
7920,13,-219,-120,68,118,18
7925,12,-218,-119,59,122,18
7930,13,-216,-125,50,126,17
7935,16,-219,-123,40,131,16
7940,12,-215,-126,33,134,17
7945,15,-216,-119,26,137,17
7950,15,-212,-124,24,139,19
7955,15,-213,-122,24,141,19
7960,15,-211,-123,26,140,20
7965,13,-215,-119,30,139,19
7970,14,-213,-121,34,136,20
7975,12,-211,-120,40,132,22
7980,12,-215,-121,44,128,22
7985,11,-213,-117,48,121,23
7990,11,-216,-119,51,115,24
7995,15,-216,-119,54,108,24
8000,12,-219,-119,55,101,26
8005,8,-217,-114,54,94,26
8010,9,-216,-120,53,89,25
8015,10,-219,-117,55,86,27
8020,11,-225,-109,61,77,24
8025,13,-223,-114,69,69,21
8030,11,-225,-118,77,60,21
8035,11,-222,-117,84,55,22
8040,7,-222,-117,88,52,24
8045,11,-222,-115,91,52,26
8050,7,-219,-120,97,53,25
8055,9,-223,-111,101,54,26
8060,11,-220,-115,104,56,27
8065,11,-221,-113,105,60,28
8070,14,-221,-114,101,61,28
8075,14,-220,-117,96,64,29
8080,10,-219,-117,89,65,31
8085,11,-220,-116,81,66,33
8090,12,-219,-120,74,67,32
8095,11,-221,-118,66,65,33
8100,11,-218,-117,60,61,34
8105,12,-219,-115,58,56,33
8110,13,-221,-116,59,49,32
8115,14,-223,-115,64,47,32
8120,12,-220,-117,71,40,30
8125,17,-224,-114,81,36,29
8130,11,-224,-120,92,31,28
8135,14,-225,-119,102,24,29
8140,13,-232,-105,112,18,27
8145,8,-225,-120,121,14,28
8150,13,-231,-109,130,12,25
8155,7,-214,-125,140,10,24
8160,17,-225,-112,146,9,22
8165,12,-220,-112,151,8,20
8170,6,-217,-112,153,8,20
8175,13,-216,-103,154,7,21
8180,11,-219,-107,151,8,20
8185,11,-222,-106,148,11,19
8190,11,-218,-118,142,13,19
8195,4,-219,-114,133,14,20
8200,8,-220,-117,124,14,20
8205,8,-218,-117,111,13,22
8210,12,-219,-111,102,12,22
8215,8,-219,-113,96,11,24
8220,11,-221,-115,92,9,22
8225,13,-212,-116,91,7,23
8230,14,-214,-110,93,4,22
8235,4,-217,-118,99,2,21
8240,4,-218,-111,105,0,19
8245,14,-217,-117,109,1,16
8250,9,-219,-119,114,-1,15
8255,3,-215,-116,114,-2,13
8260,7,-214,-119,112,-4,11
8265,8,-217,-117,110,-6,11
8270,13,-224,-120,106,-8,11
8275,6,-221,-112,102,-6,11
8280,7,-213,-109,99,-7,11
8285,6,-213,-119,98,-7,10
8290,8,-214,-108,98,-9,10
8295,11,-220,-111,97,-11,10
8300,9,-218,-107,97,-13,8
8305,10,-216,-110,96,-15,8
8310,7,-221,-109,97,-16,7
8315,11,-220,-111,96,-16,8
8320,11,-215,-114,99,-15,4
8325,7,-222,-113,100,-12,2
8330,8,-223,-108,102,-10,2
8335,8,-222,-108,105,-7,3
8340,7,-223,-111,109,-3,3
8345,11,-223,-111,113,2,0
8350,8,-223,-112,117,7,0
8355,9,-225,-116,120,12,1
8360,10,-222,-114,121,17,-1
8365,15,-228,-107,120,20,0
8370,12,-223,-109,121,21,-1
8375,9,-224,-110,121,22,-2
8380,11,-222,-114,122,22,-1
8385,11,-222,-111,121,22,-1
8390,13,-224,-118,125,23,0
8395,13,-221,-109,125,22,-1
8400,11,-217,-116,126,22,-3
8405,12,-220,-113,126,21,-2
8410,9,-217,-113,123,21,-3
8415,11,-220,-109,119,18,-3
8420,9,-219,-112,115,16,-4
8425,10,-217,-112,110,13,-7
8430,10,-215,-112,102,10,-7
8435,8,-215,-110,94,9,-8
8440,8,-218,-107,85,5,-9
8445,12,-219,-112,77,3,-7
8450,7,-216,-112,70,1,-10
8455,2,-219,-117,64,-2,-9
8460,11,-217,-109,60,-4,-10
8465,8,-216,-109,54,-7,-9
8470,9,-220,-111,47,-9,-8
8475,8,-219,-106,40,-11,-8
8480,6,-218,-108,34,-10,-6
8485,9,-221,-106,29,-10,-5
8490,14,-219,-106,21,-10,-3
8495,9,-219,-107,16,-10,-2
8500,11,-217,-112,13,-9,0
8505,9,-220,-111,9,-7,1
8510,13,-220,-113,7,-7,2
8515,11,-220,-112,7,-6,2
8520,9,-221,-109,5,-5,-1
8525,7,-218,-109,9,-4,1
8530,7,-224,-109,15,-2,1
8535,8,-223,-111,23,0,1
8540,9,-227,-112,33,2,1
8545,12,-227,-113,44,5,4
8550,9,-225,-115,56,6,3
8555,9,-228,-111,67,8,1
8560,5,-226,-112,74,9,1
8565,13,-226,-108,80,10,1
8570,10,-225,-112,84,12,0
8575,11,-223,-107,84,11,-1
8580,8,-222,-113,85,8,0
8585,11,-222,-110,83,7,0
8590,11,-224,-109,82,3,0
8595,10,-227,-108,82,0,0
8600,10,-225,-111,84,-1,-2
8605,10,-225,-110,86,-6,-2
8610,8,-225,-108,90,-10,-4
8615,12,-218,-106,94,-11,-4
8620,7,-222,-112,98,-11,-6
8625,10,-226,-109,101,-12,-7
8630,11,-225,-112,103,-12,-9
8635,8,-225,-108,105,-11,-7
8640,11,-226,-110,104,-12,-8
8645,10,-225,-110,103,-11,-10
8650,9,-224,-106,103,-8,-11
8655,11,-224,-109,102,-9,-12
8660,7,-220,-108,104,-8,-11
8665,10,-222,-112,107,-10,-13
8670,4,-221,-104,112,-9,-15
8675,10,-224,-111,119,-12,-17
8680,11,-227,-109,125,-13,-17
8685,9,-223,-104,133,-15,-20
8690,7,-223,-106,140,-18,-21
8695,7,-222,-107,148,-21,-23
8700,6,-224,-104,156,-25,-23
8705,8,-224,-102,164,-29,-24
8710,11,-222,-107,170,-34,-25
8715,10,-227,-99,177,-38,-26
8720,10,-226,-101,182,-43,-27
8725,11,-225,-104,186,-46,-25
8730,9,-224,-102,187,-49,-24
8735,11,-225,-106,180,-50,-23
8740,11,-225,-99,170,-51,-20
8745,13,-225,-106,159,-46,-17
8750,8,-225,-107,147,-44,-17
8755,12,-227,-105,135,-41,-16
8760,9,-224,-105,124,-38,-13
8765,9,-229,-106,119,-33,-13
8770,10,-227,-106,116,-31,-12
8775,11,-232,-109,118,-27,-12
8780,13,-231,-111,124,-24,-12
8785,7,-228,-109,132,-24,-10
8790,10,-230,-110,143,-24,-10
8795,9,-227,-105,153,-24,-9
8800,8,-229,-108,160,-24,-9
8805,12,-228,-103,163,-24,-10
8810,15,-225,-106,163,-23,-13
8815,11,-228,-105,161,-24,-15
8820,9,-225,-104,159,-26,-15
8825,12,-227,-100,158,-28,-17
8830,13,-223,-103,154,-28,-19
8835,17,-226,-102,153,-32,-21
8840,11,-224,-102,152,-35,-23
8845,9,-221,-102,152,-38,-24
8850,12,-223,-102,151,-41,-26
8855,10,-222,-104,155,-41,-29
8860,7,-222,-104,159,-43,-30
8865,12,-221,-98,165,-45,-30
8870,10,-220,-103,169,-46,-31
8875,9,-223,-104,174,-48,-31
8880,11,-224,-98,178,-50,-31
8885,7,-221,-103,179,-50,-31
8890,14,-226,-101,181,-50,-28
8895,9,-222,-102,179,-51,-29
8900,10,-223,-99,176,-52,-30
8905,9,-223,-99,172,-51,-30
8910,10,-225,-99,162,-50,-31
8915,8,-223,-102,153,-50,-30
8920,10,-226,-107,143,-49,-30
8925,9,-225,-102,132,-46,-30
8930,10,-222,-104,122,-45,-30
8935,12,-225,-101,114,-43,-29
8940,11,-222,-104,104,-39,-26
8945,8,-226,-105,96,-36,-25
8950,14,-224,-108,88,-32,-23
8955,11,-227,-105,82,-30,-22
8960,9,-224,-107,74,-29,-21
8965,11,-225,-104,66,-29,-22
8970,10,-223,-103,62,-30,-22
8975,8,-224,-104,59,-30,-24
8980,10,-224,-101,58,-32,-23
8985,8,-227,-105,57,-31,-23
8990,13,-229,-100,59,-31,-22
8995,10,-222,-105,62,-31,-23
9000,8,-227,-107,65,-31,-25
9005,10,-224,-104,68,-31,-23
9010,11,-223,-100,72,-31,-24
9015,13,-224,-101,73,-30,-25
9020,11,-222,-101,76,-29,-23
9025,8,-223,-101,78,-28,-22
9030,11,-227,-98,78,-28,-21
9035,9,-221,-96,77,-27,-22
9040,10,-223,-96,75,-25,-21
9045,8,-220,-99,72,-24,-22
9050,7,-220,-95,66,-23,-23
9055,6,-223,-95,58,-22,-23
9060,7,-220,-97,51,-23,-25
9065,7,-220,-95,42,-23,-24
9070,7,-221,-99,28,-22,-24
9075,8,-219,-98,16,-22,-24
9080,7,-221,-99,3,-23,-24
9085,8,-225,-97,-9,-23,-27
9090,8,-222,-103,-19,-23,-27
9095,11,-220,-100,-28,-23,-30
9100,10,-226,-102,-34,-25,-30
9105,4,-223,-104,-34,-28,-31
9110,9,-225,-101,-34,-30,-32
9115,8,-225,-103,-31,-30,-34
9120,8,-224,-104,-26,-32,-33
9125,10,-224,-107,-22,-33,-34
9130,9,-227,-102,-17,-32,-32
9135,7,-224,-103,-11,-31,-33
9140,7,-223,-104,-5,-29,-32
9145,11,-230,-100,0,-28,-31
9150,8,-226,-102,5,-26,-30
9155,9,-223,-106,9,-24,-31
9160,8,-226,-101,10,-21,-29
9165,10,-222,-102,12,-19,-29
9170,11,-224,-102,9,-18,-32
9175,9,-225,-101,7,-18,-32
9180,11,-224,-99,6,-14,-31
9185,11,-225,-100,5,-14,-33
9190,9,-224,-101,6,-12,-32
9195,13,-225,-102,6,-9,-34
9200,12,-225,-100,7,-8,-34
9205,10,-226,-98,6,-6,-36
9210,12,-226,-103,6,-6,-38
9215,10,-223,-97,3,-6,-38
9220,9,-222,-103,-1,-5,-38
9225,8,-225,-99,-7,-6,-40
9230,8,-223,-104,-14,-7,-40
9235,11,-223,-103,-18,-7,-40
9240,9,-223,-104,-22,-9,-40
9245,10,-225,-103,-24,-9,-41
9250,8,-223,-104,-24,-8,-39
9255,8,-224,-106,-23,-7,-38
9260,9,-224,-105,-21,-9,-38
9265,12,-227,-102,-17,-11,-39
9270,3,-224,-108,-13,-10,-37
9275,7,-230,-103,-8,-10,-36
9280,8,-227,-103,-4,-9,-37
9285,9,-225,-102,0,-10,-33
9290,10,-223,-105,3,-6,-32
9295,8,-226,-106,2,-2,-30
9300,9,-227,-104,0,3,-29
9305,12,-228,-107,-2,5,-27
9310,11,-229,-109,-6,7,-26
9315,7,-227,-99,-9,9,-23
9320,8,-227,-107,-11,9,-23
9325,8,-229,-98,-10,9,-23
9330,11,-225,-105,-9,8,-21
9335,13,-224,-102,-7,8,-21
9340,13,-221,-106,-5,8,-22
9345,10,-222,-105,-5,9,-22
9350,13,-226,-105,-6,10,-21
9355,14,-222,-106,-8,9,-20
9360,10,-222,-105,-11,8,-21
9365,14,-225,-101,-15,9,-21
9370,9,-225,-106,-19,8,-20
9375,11,-220,-104,-21,5,-21
9380,8,-228,-104,-24,5,-21
9385,13,-226,-104,-27,2,-21
9390,9,-223,-107,-27,3,-20
9395,13,-224,-105,-25,3,-20
9400,12,-226,-106,-20,3,-19
9405,12,-224,-107,-17,4,-18
9410,12,-223,-109,-14,5,-18
9415,13,-224,-105,-12,9,-19
9420,8,-221,-109,-12,11,-19
9425,12,-223,-107,-11,14,-18
9430,11,-222,-110,-12,16,-20
9435,11,-224,-113,-11,18,-20
9440,12,-223,-107,-10,19,-19
9445,10,-221,-109,-9,21,-21
9450,13,-223,-108,-9,23,-18
9455,9,-220,-106,-9,24,-20
9460,13,-222,-109,-13,27,-19
9465,12,-221,-110,-16,31,-18
9470,8,-223,-107,-19,36,-17
9475,9,-221,-110,-21,39,-17
9480,16,-226,-107,-20,40,-16
9485,10,-224,-107,-20,44,-14
9490,10,-227,-108,-20,47,-14
9495,9,-224,-107,-20,49,-14
9500,13,-221,-112,-19,51,-12
9505,11,-224,-106,-19,53,-8
9510,11,-222,-112,-20,54,-7
9515,13,-222,-110,-20,52,-8
9520,11,-224,-105,-21,52,-7
9525,8,-219,-111,-20,52,-8
9530,14,-227,-109,-20,51,-7
9535,14,-226,-112,-17,51,-6
9540,12,-221,-105,-16,48,-6
9545,12,-227,-105,-15,47,-3
9550,13,-223,-107,-13,48,-6
9555,16,-225,-108,-15,48,-4
9560,12,-222,-110,-15,47,-5
9565,12,-220,-111,-13,45,-5
9570,9,-221,-109,-11,46,-6
9575,12,-220,-109,-7,47,-4
9580,10,-223,-111,-5,46,-6
9585,12,-220,-113,-2,47,-5
9590,13,-225,-108,1,46,-6
9595,10,-221,-115,5,47,-5
9600,9,-221,-112,7,47,-5
9605,11,-221,-110,8,46,-4
9610,11,-221,-112,7,47,-2
9615,10,-221,-113,4,46,0
9620,11,-223,-109,4,46,1
9625,11,-222,-113,3,47,2
9630,9,-221,-108,4,48,3
9635,15,-223,-109,4,49,1
9640,11,-219,-113,5,50,4
9645,10,-218,-108,5,50,3
9650,8,-218,-114,2,47,3
9655,11,-221,-111,1,46,1
9660,9,-218,-112,-4,44,-1
9665,10,-221,-108,-6,43,-3
9670,10,-214,-114,-9,41,-3
9675,8,-216,-112,-11,39,-4
9680,11,-220,-112,-14,40,-7
9685,13,-217,-114,-19,39,-9
9690,11,-220,-113,-23,37,-10
9695,14,-220,-110,-29,37,-12
9700,9,-213,-109,-35,36,-13
9705,10,-209,-114,-42,35,-12
9710,10,-216,-115,-52,37,-13
9715,11,-220,-112,-59,34,-10
9720,12,-217,-116,-66,35,-7
9725,12,-217,-111,-68,35,-6
9730,14,-224,-112,-69,34,-5
9735,14,-224,-116,-68,33,-5
9740,8,-218,-109,-64,33,-3
9745,13,-220,-112,-59,33,-4
9750,11,-226,-117,-53,33,-4
9755,11,-223,-113,-45,33,-4
9760,16,-229,-112,-35,31,-4
9765,15,-225,-115,-23,29,-7
9770,12,-224,-113,-15,28,-9
9775,7,-220,-115,-5,27,-9
9780,11,-222,-107,3,25,-13
9785,12,-224,-110,9,24,-13
9790,11,-225,-112,13,24,-13
9795,11,-222,-109,15,23,-14
9800,10,-222,-109,15,25,-15
9805,11,-220,-113,15,26,-16
9810,11,-221,-113,13,26,-16
9815,9,-217,-122,11,26,-16
9820,9,-219,-115,8,24,-16
9825,13,-218,-116,6,25,-16
9830,11,-217,-114,3,27,-15
9835,14,-221,-114,-1,26,-16
9840,12,-216,-114,-3,27,-15
9845,10,-219,-114,-6,29,-13
9850,15,-220,-112,-6,31,-12
9855,14,-219,-113,-5,33,-13
9860,14,-223,-111,-3,32,-12
9865,17,-221,-115,-1,30,-11
9870,13,-222,-116,-2,29,-12
9875,7,-219,-115,-1,28,-14
9880,12,-220,-116,0,28,-12
9885,11,-219,-115,1,25,-13
9890,12,-219,-115,4,25,-11
9895,10,-219,-116,8,25,-11
9900,12,-220,-116,14,25,-10
9905,12,-221,-115,17,24,-13
9910,11,-222,-116,19,23,-12
9915,8,-218,-115,21,21,-14
9920,11,-220,-116,22,19,-14
9925,9,-220,-116,25,18,-16
9930,11,-219,-117,27,13,-14
9935,11,-222,-117,29,11,-16
9940,12,-224,-116,31,10,-15
9945,13,-222,-118,32,9,-13
9950,9,-220,-116,33,9,-13
9955,9,-218,-114,35,9,-13
9960,13,-219,-117,35,9,-12
9965,8,-216,-119,34,8,-13
9970,12,-220,-114,34,8,-14
9975,11,-218,-118,32,7,-13
9980,14,-219,-112,32,7,-14
9985,12,-221,-118,30,9,-14
9990,10,-218,-115,29,8,-14
9995,10,-216,-117,31,8,-13
10000,10,-220,-115,34,8,-14
10005,11,-218,-115,37,9,-13
10010,12,-219,-116,40,11,-13
10015,15,-220,-115,43,11,-13
10020,12,-218,-119,45,12,-12
10025,13,-221,-115,47,12,-13
10030,9,-221,-116,51,13,-14
10035,13,-221,-114,54,13,-12
10040,11,-221,-115,54,12,-15
10045,13,-216,-115,56,14,-13
10050,9,-219,-120,56,16,-13
10055,11,-220,-116,55,17,-11
10060,13,-222,-116,53,20,-12
10065,14,-221,-117,51,23,-9
10070,9,-219,-117,50,24,-9
10075,11,-225,-111,49,25,-10
10080,11,-219,-114,50,23,-10
10085,10,-221,-116,53,22,-12
10090,13,-219,-117,59,21,-11
10095,13,-220,-113,61,20,-12
10100,12,-220,-114,63,18,-13
10105,9,-220,-111,66,15,-12
10110,14,-220,-114,68,11,-14
10115,11,-220,-116,69,10,-13
10120,10,-218,-113,70,6,-15
10125,14,-218,-112,72,5,-15
10130,14,-219,-114,74,4,-16
10135,12,-217,-116,74,6,-15
10140,12,-221,-119,77,8,-13
10145,12,-221,-113,78,10,-14
10150,12,-220,-117,81,11,-13
10155,11,-220,-115,85,13,-12
10160,14,-219,-116,87,14,-13
10165,12,-220,-115,92,17,-15
10170,10,-216,-113,94,18,-14
10175,8,-215,-113,94,20,-16
10180,11,-219,-119,94,20,-18
10185,10,-216,-114,91,21,-16
10190,7,-217,-119,85,20,-18
10195,13,-221,-115,80,20,-18
10200,11,-221,-118,76,17,-18
10205,9,-216,-113,73,16,-19
10210,9,-215,-113,68,15,-17
10215,12,-220,-114,63,16,-16
10220,13,-217,-115,60,16,-16
10225,14,-219,-113,57,16,-14
10230,14,-217,-116,55,17,-13
10235,12,-218,-117,56,18,-12
10240,15,-219,-117,57,18,-14
10245,16,-220,-114,58,18,-15
10250,12,-220,-113,59,21,-15
10255,14,-220,-117,59,23,-13
10260,11,-217,-117,59,25,-13
10265,15,-220,-118,57,30,-13
10270,11,-217,-115,58,31,-11
10275,13,-219,-117,56,32,-11
10280,13,-216,-117,55,32,-10
10285,12,-218,-120,53,31,-9
10290,9,-216,-115,50,30,-8
10295,12,-221,-117,47,31,-9
10300,11,-217,-118,47,30,-6
10305,10,-216,-120,47,29,-7
10310,15,-220,-119,49,28,-7
10315,16,-222,-112,49,27,-7
10320,10,-223,-116,54,27,-8
10325,15,-219,-117,59,27,-8
10330,10,-218,-113,66,26,-8
10335,11,-222,-111,74,27,-11
10340,11,-220,-112,80,24,-10
10345,9,-216,-115,88,23,-11
10350,13,-221,-116,95,24,-14
10355,14,-223,-119,101,22,-15
10360,12,-225,-109,104,22,-12
10365,15,-220,-113,103,26,-10
10370,14,-219,-113,102,29,-9
10375,10,-217,-114,100,30,-7
10380,11,-220,-113,99,33,-5
10385,15,-219,-109,98,34,-5
10390,12,-218,-111,96,33,-6
10395,13,-221,-111,95,34,-4
10400,11,-218,-113,90,34,-6
10405,12,-217,-112,86,32,-5
10410,12,-218,-112,80,32,-7
10415,8,-223,-119,73,30,-6
10420,12,-217,-115,67,28,-7
10425,13,-220,-119,63,28,-7
10430,13,-219,-114,62,27,-7
10435,15,-218,-117,63,27,-6
10440,12,-216,-120,64,30,-5
10445,16,-221,-114,66,30,-6
10450,11,-219,-113,69,32,-5
10455,13,-218,-120,73,31,-6
10460,16,-223,-114,74,34,-4
10465,15,-219,-115,76,33,-1
10470,14,-220,-114,79,32,-2
10475,13,-217,-111,81,33,-2
10480,12,-219,-110,82,34,-1
10485,13,-218,-115,88,32,-5
10490,14,-220,-113,97,25,-11
10495,15,-221,-111,102,22,-6
10500,11,-222,-112,104,27,-2
10505,12,-219,-112,105,33,0
10510,10,-220,-107,105,36,1
10515,10,-221,-109,103,34,2
10520,14,-221,-111,99,34,-1
10525,7,-221,-109,94,32,0
10530,11,-221,-106,90,30,1
10535,9,-219,-111,86,28,0
10540,12,-223,-115,83,29,1
10545,12,-221,-112,78,29,1
10550,12,-218,-112,74,29,1
10555,15,-221,-115,73,30,3
10560,14,-221,-111,73,31,2
10565,11,-218,-113,73,32,2
10570,13,-222,-112,74,32,2
10575,15,-218,-113,76,32,2
10580,11,-219,-109,80,33,3
10585,14,-218,-113,82,31,3
10590,14,-219,-114,84,31,1
10595,13,-220,-113,87,29,1
10600,15,-219,-115,89,27,3
10605,15,-218,-116,89,28,2
10610,15,-222,-109,87,27,1
10615,16,-220,-117,84,26,1
10620,13,-218,-114,79,27,3
10625,16,-221,-110,74,28,5
10630,12,-218,-117,71,29,5
10635,12,-218,-116,67,32,7
10640,12,-221,-115,67,33,6
10645,11,-220,-118,67,34,7
10650,11,-221,-116,67,35,8
10655,13,-220,-112,69,37,6
10660,11,-219,-113,69,38,6
10665,12,-219,-115,70,38,7
10670,11,-220,-113,71,38,7
10675,9,-218,-112,73,38,7
10680,11,-219,-109,73,38,5
10685,13,-221,-109,75,38,3
10690,12,-222,-114,73,37,-2
10695,11,-220,-112,74,34,-2
10700,14,-224,-111,73,31,-3
10705,10,-223,-111,74,30,-6
10710,10,-222,-114,76,29,-7
10715,12,-221,-115,78,29,-7
10720,9,-221,-111,82,29,-8
10725,14,-225,-114,87,26,-6
10730,12,-223,-110,94,26,-4
10735,12,-218,-116,99,25,-4
10740,11,-223,-118,105,26,-5
10745,9,-224,-112,110,28,-5
10750,6,-217,-114,114,29,-8
10755,12,-220,-115,118,29,-5
10760,9,-218,-111,119,32,-6
10765,13,-221,-113,121,33,-6
10770,14,-222,-112,121,34,-7
10775,12,-220,-114,119,33,-6
10780,12,-220,-112,118,30,-6
10785,14,-222,-107,116,27,-8
10790,11,-221,-110,115,24,-9
10795,16,-221,-103,114,21,-7
10800,11,-221,-109,114,18,-8
10805,7,-222,-111,114,15,-7
10810,11,-222,-107,115,12,-8
10815,14,-223,-109,117,10,-7
10820,12,-224,-112,119,10,-7
10825,12,-224,-111,120,9,-8
10830,12,-223,-110,123,9,-9
10835,11,-224,-112,123,11,-9
10840,10,-221,-113,123,10,-11
10845,15,-223,-112,122,13,-12
10850,14,-219,-108,122,14,-13
10855,10,-220,-110,122,16,-15
10860,12,-222,-109,123,16,-14
10865,14,-221,-112,120,16,-14
10870,14,-223,-109,119,16,-15
10875,12,-222,-112,119,16,-15
10880,13,-223,-110,118,14,-16
10885,12,-220,-106,117,11,-15
10890,14,-222,-110,118,9,-15
10895,11,-219,-108,118,6,-16
10900,9,-222,-109,120,6,-17
10905,8,-232,-106,120,4,-17
10910,9,-223,-106,123,2,-18
10915,10,-224,-110,122,3,-18
10920,12,-223,-105,121,1,-18
10925,11,-223,-106,120,2,-18
10930,13,-221,-106,120,4,-17
10935,11,-222,-105,122,2,-17
10940,16,-225,-110,124,3,-17
10945,13,-223,-104,124,3,-17
10950,12,-224,-110,125,4,-16
10955,15,-221,-111,125,4,-16
10960,14,-225,-105,122,5,-18
10965,13,-221,-106,118,4,-18
10970,11,-221,-104,115,4,-19
10975,13,-224,-106,109,4,-21
10980,14,-226,-108,105,4,-21
10985,13,-223,-105,101,6,-22
10990,13,-224,-111,97,4,-22
10995,11,-222,-108,94,3,-22
11000,9,-221,-112,95,3,-22
11005,12,-223,-107,94,2,-21
11010,13,-227,-107,92,1,-23
11015,8,-223,-112,93,-2,-23
11020,10,-222,-109,91,-2,-23
11025,12,-223,-105,91,-4,-25
11030,14,-223,-106,88,-7,-24
11035,13,-221,-106,85,-9,-24
11040,12,-222,-108,83,-11,-24
11045,14,-223,-104,80,-12,-28
11050,14,-222,-104,78,-14,-28
11055,13,-222,-104,77,-17,-31
11060,12,-225,-103,77,-19,-32
11065,11,-225,-107,75,-19,-30
11070,12,-224,-97,77,-20,-31
11075,13,-220,-104,79,-21,-29
11080,11,-225,-105,82,-21,-30
11085,13,-227,-105,86,-23,-28
11090,10,-223,-106,89,-26,-26
11095,14,-224,-106,96,-29,-25
11100,10,-223,-104,102,-31,-25
11105,13,-223,-103,107,-32,-22
11110,10,-224,-105,113,-32,-22
11115,15,-224,-102,116,-34,-20
11120,10,-221,-104,119,-34,-17
11125,17,-226,-105,120,-33,-16
11130,13,-221,-103,117,-34,-16
11135,12,-224,-107,115,-33,-14
11140,15,-223,-102,114,-33,-15
11145,14,-220,-103,112,-32,-16
11150,14,-222,-106,110,-32,-17
11155,10,-223,-99,104,-30,-16
11160,11,-223,-102,100,-28,-14
11165,9,-222,-99,91,-27,-14
11170,14,-223,-103,83,-27,-15
11175,11,-223,-106,75,-27,-16
11180,11,-221,-103,66,-27,-17
11185,11,-224,-103,59,-28,-16
11190,11,-223,-107,55,-26,-15
11195,12,-222,-104,55,-24,-14
11200,13,-225,-104,58,-23,-15
11205,11,-225,-105,62,-21,-15
11210,13,-227,-104,68,-21,-15
11215,13,-223,-106,74,-20,-18
11220,11,-220,-103,77,-20,-17
11225,16,-227,-103,76,-20,-18
11230,12,-223,-100,75,-19,-18
11235,12,-223,-104,71,-20,-19
11240,11,-221,-106,64,-19,-20
11245,13,-221,-104,54,-17,-17
11250,12,-220,-105,44,-14,-17
11255,13,-225,-108,37,-14,-18
11260,11,-223,-107,32,-10,-17
11265,16,-224,-102,29,-9,-17
11270,14,-222,-105,29,-7,-17
11275,12,-223,-106,29,-6,-14
11280,13,-228,-102,30,-6,-14
11285,12,-220,-110,31,-7,-13
11290,11,-222,-106,34,-6,-13
11295,10,-223,-103,35,-6,-10
11300,10,-226,-106,34,-5,-9
11305,12,-220,-104,34,-4,-11
11310,12,-222,-105,30,-3,-11
11315,15,-221,-105,27,-2,-13
11320,14,-223,-106,22,-2,-12
11325,15,-220,-103,20,-1,-9
11330,12,-221,-105,19,0,-9
11335,12,-222,-105,18,2,-11
11340,12,-225,-105,18,4,-11
11345,14,-224,-106,18,6,-12
11350,13,-223,-106,21,7,-12
11355,9,-223,-108,20,8,-11
11360,11,-221,-112,19,7,-13
11365,13,-224,-109,21,7,-14
11370,10,-221,-106,22,7,-16
11375,12,-221,-112,23,8,-15
11380,13,-224,-106,24,10,-16
11385,14,-227,-108,26,11,-15
11390,18,-226,-105,25,16,-16
11395,12,-220,-106,25,19,-16
11400,13,-222,-105,25,21,-15
11405,12,-223,-107,24,23,-17
11410,16,-222,-105,23,25,-15
11415,13,-221,-104,22,27,-16
11420,13,-220,-107,19,28,-15
11425,12,-220,-105,17,29,-15
11430,11,-222,-104,15,29,-15
11435,13,-221,-104,14,27,-15
11440,10,-219,-105,13,29,-17
11445,12,-223,-103,12,29,-16
11450,14,-218,-108,9,29,-17
11455,12,-219,-101,6,28,-16
11460,12,-221,-108,3,27,-16
11465,12,-221,-106,0,25,-17
11470,9,-219,-106,-4,26,-18
11475,11,-223,-106,-7,24,-19
11480,11,-221,-105,-11,23,-17
11485,11,-222,-108,-13,21,-17
11490,9,-226,-107,-14,22,-18
11495,10,-222,-109,-15,17,-20
11500,15,-220,-111,-15,17,-20
11505,11,-220,-109,-15,17,-21
11510,12,-223,-109,-13,17,-21
11515,11,-223,-105,-11,16,-21
11520,14,-223,-108,-11,15,-20
11525,9,-222,-109,-9,13,-20
11530,12,-222,-110,-8,13,-21
11535,13,-223,-107,-9,13,-19
11540,11,-223,-109,-6,16,-20
11545,12,-223,-110,-3,16,-21
11550,9,-223,-110,-4,15,-20
11555,13,-222,-112,-4,16,-19
11560,14,-225,-114,-2,16,-20
11565,10,-222,-106,-1,18,-19
11570,12,-222,-111,-1,20,-20
11575,12,-222,-111,-2,21,-18
11580,13,-222,-110,-2,20,-18
11585,13,-222,-108,-2,20,-19
11590,14,-225,-109,0,19,-18
11595,13,-223,-107,-1,19,-19
11600,9,-218,-110,-1,18,-19
11605,13,-222,-107,1,16,-20
11610,14,-222,-110,1,14,-20
11615,10,-217,-110,1,13,-20
11620,14,-220,-109,0,10,-22
11625,11,-222,-112,-1,9,-20
11630,10,-221,-108,-1,6,-19
11635,14,-221,-113,-4,6,-21
11640,13,-220,-111,-6,3,-20
11645,15,-221,-109,-7,4,-19
11650,12,-223,-109,-7,4,-19
11655,10,-223,-103,-8,5,-20
11660,11,-219,-112,-7,4,-18
11665,10,-223,-111,-9,7,-19
11670,12,-220,-109,-8,9,-17
11675,13,-223,-111,-7,11,-15
11680,14,-222,-114,-7,13,-16
11685,12,-222,-109,-6,16,-16
11690,12,-220,-111,-7,17,-15
11695,11,-222,-113,-9,19,-13
11700,14,-221,-114,-10,19,-15
11705,13,-219,-111,-10,20,-15
11710,15,-223,-113,-11,20,-14
11715,15,-220,-116,-12,21,-15
11720,10,-217,-108,-12,20,-15
11725,15,-225,-110,-13,20,-14
11730,15,-220,-117,-15,18,-16
11735,11,-220,-114,-16,16,-14
11740,13,-217,-115,-18,15,-13
11745,13,-223,-116,-20,14,-11
11750,12,-223,-110,-19,13,-9
11755,11,-223,-112,-18,11,-7
11760,15,-221,-110,-15,11,-5
11765,14,-221,-106,-13,13,-5
11770,14,-221,-111,-7,13,-4
11775,8,-218,-110,-5,14,-5
11780,12,-221,-109,-1,13,-3
11785,15,-223,-112,1,13,-3
11790,13,-223,-110,1,12,-3
11795,14,-223,-109,0,11,-4
11800,14,-224,-110,-1,11,-4
11805,14,-223,-112,-2,11,-5
11810,14,-223,-112,-4,10,-4
11815,11,-222,-113,-6,10,-6
11820,12,-223,-115,-6,14,-7
11825,15,-222,-113,-5,16,-8
11830,14,-222,-117,-5,16,-9
11835,13,-219,-112,-5,17,-8
11840,14,-224,-115,-7,19,-10
11845,13,-223,-115,-9,18,-10
11850,16,-223,-111,-6,18,-8
11855,11,-219,-112,-6,20,-8
11860,13,-222,-115,-4,18,-7
11865,12,-223,-114,-1,19,-8
11870,14,-219,-114,1,17,-7
11875,18,-222,-112,4,17,-6
11880,13,-218,-116,9,16,-6
11885,9,-223,-113,15,15,-4
11890,16,-219,-116,19,15,-3
11895,13,-221,-114,22,16,-4
11900,15,-220,-113,24,17,-2
11905,14,-221,-114,27,18,-3
11910,14,-219,-114,31,18,-3
11915,14,-216,-115,32,19,-3
11920,13,-217,-113,32,19,-4
11925,10,-215,-112,33,18,-4
11930,11,-219,-115,32,18,-4
11935,10,-218,-112,31,18,-4
11940,9,-222,-113,29,19,-4
11945,14,-218,-111,28,20,-3
11950,14,-221,-118,28,24,-5
11955,14,-223,-113,26,25,-4
11960,14,-219,-113,24,25,-6
11965,13,-219,-111,19,27,-7
11970,12,-217,-116,16,28,-8
11975,13,-214,-114,12,28,-10
11980,13,-215,-110,9,27,-12
11985,12,-216,-117,4,27,-10
11990,14,-219,-115,0,29,-9
11995,15,-216,-122,-4,29,-9
