timestamp,acc_x,acc_y,acc_z,gyro_x,gyro_y,gyro_z
0,10,-257,17,-63,24,-9
5,11,-256,17,-63,26,-7
10,11,-257,14,-60,25,-10
15,10,-254,16,-56,26,-9
20,13,-257,18,-54,27,-8
25,13,-256,14,-51,27,-8
30,12,-255,16,-49,28,-8
35,9,-256,16,-45,28,-9
40,9,-256,13,-45,29,-9
45,11,-256,15,-46,26,-8
50,8,-253,15,-47,24,-7
55,9,-255,11,-48,23,-7
60,10,-256,11,-51,22,-7
65,9,-255,12,-54,20,-7
70,12,-255,14,-55,18,-7
75,10,-257,16,-56,18,-7
80,10,-255,13,-56,18,-6
85,12,-255,13,-56,17,-5
90,10,-257,15,-56,18,-6
95,9,-255,14,-55,16,-7
100,12,-255,14,-53,16,-7
105,8,-256,14,-53,16,-7
110,10,-254,16,-52,14,-7
115,11,-257,13,-53,15,-7
120,11,-258,15,-53,14,-7
125,25,-257,-2,-51,14,-7
130,12,-256,13,-48,16,-7
135,11,-256,15,-48,14,-7
140,8,-257,14,-45,13,-6
145,11,-258,16,-45,13,-6
150,11,-257,12,-43,13,-7
155,6,-256,12,-39,13,-7
160,12,-254,15,-37,14,-7
165,11,-253,17,-39,14,-8
170,11,-254,15,-38,14,-7
175,8,-256,15,-37,13,-7
180,10,-263,19,-39,12,-7
185,9,-255,17,-42,11,-7
190,8,-255,22,-43,13,-6
195,10,-255,17,-44,13,-5
200,9,-254,17,-43,12,-4
205,9,-254,18,-43,14,-4
210,11,-256,16,-45,11,-4
215,13,-254,17,-43,10,-4
220,12,-257,14,-45,9,-3
225,12,-257,10,-45,8,-2
230,12,-254,15,-46,8,-3
235,13,-256,12,-45,9,-4
240,10,-256,14,-47,11,-4
245,12,-254,12,-50,13,-4
250,11,-256,15,-52,14,-4
255,12,-255,14,-53,14,-4
260,12,-254,13,-54,16,-3
265,12,-254,14,-57,16,-4
270,12,-256,15,-56,17,-4
275,10,-256,15,-56,17,-4
280,10,-255,19,-53,16,-5
285,10,-256,16,-54,16,-6
290,10,-257,15,-51,16,-6
295,11,-257,13,-48,18,-6
300,11,-257,13,-47,18,-5
305,10,-255,11,-45,18,-7
310,9,-256,16,-43,19,-7
315,10,-256,15,-41,21,-7
320,13,-257,18,-41,21,-7
325,9,-254,13,-39,21,-5
330,10,-255,18,-35,19,-6
335,14,-255,15,-36,19,-8
340,11,-253,14,-36,19,-6
345,12,-255,14,-34,19,-6
350,13,-258,14,-34,18,-6
355,13,-251,16,-33,17,-5
360,14,-256,16,-36,15,-5
365,11,-256,13,-37,14,-5
370,13,-257,18,-38,14,-5
375,10,-255,13,-40,14,-3
380,12,-255,13,-41,14,-3
385,8,-253,18,-42,14,-5
390,9,-254,12,-43,14,-3
395,10,-256,17,-44,15,-4
400,12,-258,14,-45,16,-3
405,13,-257,14,-48,16,-3
410,12,-256,13,-45,17,-3
415,11,-258,15,-45,18,-3
420,11,-257,13,-45,18,-4
425,11,-255,10,-44,18,-5
430,13,-257,9,-44,21,-4
435,11,-257,14,-44,19,-4
440,11,-255,13,-42,21,-4
445,12,-256,14,-40,20,-4
450,9,-256,13,-41,18,-5
455,12,-257,15,-41,19,-3
460,11,-254,12,-40,18,-3
465,9,-253,14,-40,17,-3
470,12,-257,15,-40,17,-4
475,10,-256,16,-39,15,-4
480,11,-255,12,-39,16,-5
485,9,-256,16,-39,16,-3
490,13,-256,11,-41,15,-4
495,12,-255,14,-43,16,-5
500,9,-256,18,-44,16,-6
505,9,-256,15,-45,17,-4
510,11,-255,13,-47,17,-5
515,12,-256,16,-48,16,-6
520,16,-257,11,-48,19,-5
525,13,-256,16,-50,18,-5
530,10,-256,14,-50,19,-5
535,13,-256,15,-50,18,-5
540,11,-255,13,-46,19,-6
545,11,-256,9,-47,20,-7
550,10,-256,15,-44,22,-8
555,13,-257,18,-41,23,-6
560,10,-257,12,-38,25,-6
565,9,-255,22,-36,24,-7
570,11,-256,14,-36,25,-8
575,8,-255,11,-36,24,-9
580,11,-257,14,-37,23,-9
585,8,-254,13,-37,21,-9
590,13,-254,19,-38,20,-8
595,13,-254,18,-39,19,-7
600,11,-254,13,-40,20,-10
605,10,-255,14,-42,19,-8
610,14,-255,15,-44,18,-9
615,13,-254,22,-44,17,-9
620,10,-256,12,-44,16,-7
625,10,-254,13,-48,16,-5
630,10,-257,16,-50,17,-6
635,10,-253,14,-51,16,-5
640,12,-256,16,-52,17,-6
645,14,-254,13,-53,16,-7
650,12,-256,12,-50,15,-7
655,10,-255,15,-48,16,-8
660,12,-256,13,-50,16,-8
665,16,-255,12,-48,18,-8
670,12,-256,11,-51,19,-8
675,13,-257,13,-53,19,-8
680,12,-256,14,-56,22,-10
685,10,-255,13,-57,26,-8
690,13,-256,15,-59,26,-9
695,9,-255,16,-58,26,-7
700,10,-257,18,-54,25,-9
705,14,-255,16,-51,24,-9
710,14,-256,18,-48,23,-9
715,12,-255,17,-43,23,-7
720,11,-256,14,-38,23,-8
725,17,-247,1,-36,23,-8
730,8,-255,16,-34,24,-7
735,13,-257,16,-32,25,-7
740,13,-260,16,-33,24,-7
745,10,-256,15,-34,23,-7
750,13,-256,15,-36,23,-6
755,11,-256,13,-37,23,-6
760,12,-256,13,-38,24,-6
765,13,-257,14,-38,25,-8
770,12,-253,17,-38,24,-7
775,8,-254,20,-37,23,-7
780,9,-265,24,-37,23,-7
785,13,-255,16,-38,24,-9
790,12,-256,15,-39,24,-7
795,10,-253,16,-41,23,-7
800,9,-255,15,-43,25,-7
805,11,-255,15,-45,24,-7
810,11,-256,15,-46,23,-7
815,9,-255,16,-46,23,-8
820,11,-254,17,-46,22,-7
825,10,-258,14,-42,23,-8
830,12,-257,14,-41,23,-8
835,9,-256,18,-40,22,-9
840,9,-254,14,-40,22,-7
845,8,-256,14,-38,23,-8
850,10,-254,13,-39,23,-9
855,11,-254,15,-40,23,-7
860,11,-255,11,-41,22,-7
865,12,-255,13,-42,23,-7
870,12,-257,14,-44,22,-7
875,11,-256,17,-44,22,-7
880,14,-255,16,-44,20,-8
885,12,-255,15,-42,21,-6
890,9,-254,16,-39,20,-7
895,9,-256,15,-39,19,-5
900,9,-255,14,-38,19,-5
905,8,-257,14,-39,18,-6
910,13,-258,16,-39,17,-6
915,11,-255,21,-40,16,-5
920,13,-256,12,-41,16,-6
925,13,-256,16,-42,13,-6
930,12,-255,13,-43,14,-5
935,9,-254,14,-43,13,-4
940,10,-254,13,-44,13,-4
945,11,-255,11,-44,15,-5
950,12,-257,13,-44,15,-3
955,11,-258,14,-46,16,-4
960,12,-255,12,-47,15,-4
965,11,-255,15,-46,15,-3
970,11,-255,19,-48,16,-3
975,9,-256,17,-49,16,-3
980,12,-254,12,-48,15,-4
985,11,-257,13,-49,15,-4
990,11,-255,11,-48,15,-6
995,9,-256,16,-47,15,-6
1000,8,-256,18,-47,14,-6
1005,9,-254,14,-48,15,-6
1010,13,-256,17,-46,14,-7
1015,9,-256,15,-46,16,-9
1020,9,-255,14,-46,16,-6
1025,14,-255,15,-47,18,-7
1030,11,-253,14,-48,17,-7
1035,9,-254,14,-48,16,-7
1040,10,-255,17,-48,17,-6
1045,11,-255,16,-48,17,-4
1050,12,-257,15,-48,16,-3
1055,11,-257,13,-48,15,-3
1060,11,-255,14,-49,15,-3
1065,9,-255,16,-48,14,-4
1070,13,-259,12,-49,14,-4
1075,11,-255,15,-49,12,-2
1080,11,-254,15,-49,12,-1
1085,11,-256,16,-49,12,-2
1090,12,-256,16,-48,11,-3
1095,11,-254,14,-48,10,-1
1100,13,-256,14,-47,11,-1
1105,11,-255,15,-46,11,-3
1110,11,-257,15,-46,12,-4
1115,9,-257,12,-45,13,-4
1120,11,-255,14,-45,13,-5
1125,8,-255,15,-44,14,-3
1130,11,-256,19,-45,15,-4
1135,12,-256,14,-45,15,-3
1140,10,-255,13,-44,15,-3
1145,14,-257,17,-44,17,-2
1150,12,-258,16,-44,15,-2
1155,10,-254,15,-44,16,-3
1160,9,-256,14,-43,16,-2
1165,9,-255,14,-41,15,0
1170,11,-255,14,-42,14,-3
1175,11,-256,16,-42,13,-2
1180,12,-256,17,-41,13,-2
1185,13,-255,11,-43,13,-2
1190,10,-254,15,-44,14,-3
1195,8,-254,17,-45,16,-3
1200,13,-257,18,-46,14,-3
1205,12,-254,17,-48,14,-3
1210,14,-256,17,-49,15,-2
1215,10,-255,18,-49,15,-2
1220,10,-255,17,-51,16,-3
1225,11,-257,20,-49,17,-2
1230,9,-253,13,-46,17,-2
1235,10,-253,15,-46,17,-3
1240,12,-256,12,-45,17,-2
1245,12,-257,14,-44,18,-1
1250,9,-257,14,-42,18,-1
1255,10,-256,16,-39,18,-3
1260,12,-256,14,-39,19,-2
1265,10,-255,14,-40,19,-2
1270,11,-256,16,-40,19,-4
1275,13,-256,14,-41,18,-3
1280,11,-256,16,-41,18,-1
1285,12,-256,16,-43,18,-1
1290,10,-256,14,-42,17,-1
1295,12,-255,10,-41,17,-2
1300,12,-255,15,-43,15,-2
1305,14,-256,13,-42,15,-1
1310,10,-255,12,-44,14,-1
1315,13,-256,20,-44,13,0
1320,10,-256,16,-45,14,0
1325,2,-265,20,-45,15,0
1330,10,-254,16,-46,14,-1
1335,10,-256,18,-45,14,-1
1340,10,-256,15,-46,15,0
1345,10,-257,10,-45,13,-1
1350,12,-256,15,-43,13,-1
1355,11,-255,15,-44,14,-1
1360,15,-255,16,-43,12,-1
1365,14,-255,16,-41,11,-1
1370,11,-255,15,-41,11,-3
1375,9,-255,13,-41,11,-3
1380,7,-251,8,-43,12,-3
1385,10,-256,16,-46,14,-2
1390,13,-256,12,-50,16,-1
1395,13,-255,17,-54,18,-1
1400,12,-254,17,-57,20,-2
1405,10,-255,14,-60,21,-3
1410,12,-257,16,-61,23,-3
1415,9,-256,15,-55,22,-5
1420,8,-257,18,-52,22,-4
1425,13,-256,19,-46,22,-4
1430,10,-256,15,-43,22,-4
1435,12,-256,13,-38,22,-5
1440,11,-254,15,-36,22,-5
1445,12,-255,18,-35,23,-4
1450,11,-256,15,-36,22,-3
1455,12,-256,18,-37,22,-4
1460,13,-255,18,-39,22,-4
1465,11,-253,11,-40,23,-3
1470,13,-254,15,-39,21,-3
1475,12,-257,15,-39,20,-3
1480,13,-257,14,-38,20,-4
1485,9,-254,11,-38,21,-4
1490,11,-256,14,-36,21,-5
1495,12,-256,17,-37,22,-4
1500,8,-256,16,-37,22,-5
1505,6,-254,13,-39,22,-6
1510,12,-257,14,-42,23,-6
1515,9,-256,16,-44,23,-5
1520,11,-257,15,-43,25,-6
1525,10,-256,17,-44,24,-6
1530,10,-254,17,-44,25,-7
1535,13,-256,15,-44,26,-7
1540,12,-253,14,-46,24,-6
1545,12,-255,14,-46,25,-6
1550,11,-252,12,-45,24,-7
1555,14,-257,13,-44,25,-6
1560,12,-257,16,-45,23,-5
1565,10,-256,17,-45,26,-7
1570,12,-254,15,-46,23,-5
1575,11,-255,17,-45,23,-6
1580,12,-256,20,-45,22,-6
1585,11,-256,19,-44,23,-6
1590,12,-257,14,-44,23,-5
1595,12,-258,14,-42,24,-5
1600,12,-257,14,-40,27,-5
1605,13,-255,19,-40,26,-6
1610,9,-255,18,-41,25,-7
1615,8,-256,16,-40,24,-5
1620,8,-255,19,-41,25,-6
1625,11,-256,19,-42,25,-7
1630,12,-256,14,-42,25,-8
1635,10,-256,15,-42,25,-6
1640,12,-257,16,-41,23,-7
1645,12,-254,11,-44,23,-7
1650,11,-256,14,-44,23,-6
1655,11,-255,13,-45,23,-5
1660,8,-254,21,-47,22,-5
1665,13,-256,14,-48,22,-5
1670,12,-254,13,-51,22,-4
1675,11,-256,15,-54,21,-4
1680,12,-254,16,-56,21,-4
1685,8,-256,19,-57,20,-4
1690,7,-254,13,-59,19,-4
1695,10,-255,12,-58,19,-4
1700,8,-256,17,-57,18,-4
1705,11,-257,16,-55,18,-4
1710,12,-258,15,-53,17,-5
1715,8,-255,15,-50,18,-6
1720,11,-255,11,-48,20,-5
1725,10,-255,11,-48,22,-5
1730,9,-257,16,-45,24,-6
1735,11,-256,13,-44,24,-6
1740,10,-256,14,-43,23,-5
1745,8,-256,13,-42,22,-6
1750,8,-257,17,-41,22,-6
1755,10,-253,16,-41,23,-6
1760,9,-254,19,-42,19,-6
1765,12,-256,16,-43,19,-6
1770,12,-255,14,-43,16,-3
1775,12,-256,16,-42,16,-4
1780,12,-255,16,-44,14,-3
1785,11,-255,12,-45,15,-3
1790,11,-256,19,-44,14,-2
1795,13,-255,17,-45,14,-3
1800,12,-257,12,-46,14,-3
1805,8,-255,13,-46,15,-4
1810,9,-254,14,-47,15,-2
1815,10,-254,16,-47,16,-1
1820,11,-253,12,-48,17,-3
1825,10,-256,16,-47,17,-4
1830,8,-255,13,-46,17,-4
1835,9,-255,12,-44,17,-4
1840,12,-258,17,-45,17,-4
1845,12,-256,18,-45,16,-6
1850,9,-255,17,-45,15,-4
1855,11,-255,17,-47,15,-5
1860,13,-256,17,-46,16,-4
1865,11,-257,14,-45,15,-3
1870,9,-253,15,-46,14,-4
1875,10,-256,11,-43,14,-3
1880,9,-256,17,-43,12,-4
1885,10,-262,17,-43,12,-3
1890,7,-255,12,-42,15,-3
1895,10,-256,15,-44,16,-1
1900,12,-256,17,-45,15,-2
1905,11,-256,17,-45,16,-2
1910,8,-254,16,-46,16,-2
1915,10,-254,14,-45,17,-4
1920,11,-254,12,-45,16,-3
1925,20,-249,14,-47,16,-4
1930,10,-255,10,-49,16,-5
1935,9,-254,15,-49,15,-5
1940,10,-254,17,-49,15,-4
1945,8,-255,15,-48,14,-2
1950,7,-255,18,-48,16,-2
1955,11,-257,19,-47,14,-2
1960,9,-255,13,-46,14,-1
1965,9,-255,13,-45,14,-2
1970,9,-255,13,-46,14,-2
1975,10,-255,13,-47,14,-3
1980,-2,-259,20,-48,14,-2
1985,10,-255,14,-46,15,-1
1990,10,-255,17,-47,16,-2
1995,8,-256,14,-47,18,-3
2000,11,-258,18,-46,17,-3
2005,9,-256,16,-43,18,-3
2010,11,-256,14,-43,19,-3
2015,8,-256,16,-43,19,-4
2020,11,-254,15,-41,19,-3
2025,11,-256,14,-41,17,-4
2030,11,-255,12,-43,17,-5
2035,11,-247,14,-44,16,-4
2040,12,-255,16,-47,16,-4
2045,8,-255,17,-47,15,-3
2050,9,-254,17,-48,12,-2
2055,11,-256,14,-52,13,0
2060,9,-254,14,-54,13,1
2065,12,-256,19,-56,12,0
2070,10,-255,14,-56,11,0
2075,10,-253,17,-57,10,-1
2080,10,-255,16,-56,11,-2
2085,10,-255,15,-53,10,-2
2090,10,-256,10,-51,10,-3
2095,10,-255,13,-50,12,-3
2100,9,-255,18,-51,12,-2
2105,11,-255,14,-50,14,-2
2110,12,-256,14,-54,15,-3
2115,7,-256,14,-55,16,-3
2120,11,-258,16,-58,18,-2
2125,11,-257,15,-57,18,-2
2130,10,-256,16,-56,18,-3
2135,13,-256,16,-54,17,-3
2140,9,-257,16,-50,18,-3
2145,8,-257,16,-44,18,-3
2150,12,-256,16,-39,20,-3
2155,13,-256,16,-37,19,-3
2160,11,-257,17,-34,20,-2
2165,10,-255,16,-34,20,-2
2170,11,-258,16,-36,20,-3
2175,8,-254,18,-36,20,-3
2180,10,-256,16,-40,19,-2
2185,10,-256,21,-42,18,-3
2190,10,-256,12,-42,18,-2
2195,9,-256,15,-43,18,-2
2200,10,-256,19,-43,17,-3
2205,10,-256,11,-43,17,-3
2210,8,-253,14,-44,18,-2
2215,9,-255,15,-46,20,-4
2220,12,-256,14,-47,21,-3
2225,10,-255,16,-47,22,-4
2230,11,-258,14,-50,23,-4
2235,12,-256,12,-49,23,-4
2240,11,-257,15,-52,23,-4
2245,14,-256,12,-52,23,-5
2250,11,-253,17,-53,22,-5
2255,9,-255,18,-52,22,-4
2260,9,-254,16,-51,21,-3
2265,10,-254,17,-51,21,-4
2270,10,-254,13,-50,21,-4
2275,14,-257,18,-48,22,-5
2280,8,-258,17,-48,23,-4
2285,9,-256,16,-47,25,-4
2290,7,-257,14,-44,27,-6
2295,8,-257,15,-42,28,-7
2300,10,-259,16,-43,29,-8
2305,13,-261,19,-44,30,-6
2310,7,-261,14,-45,31,-4
2315,8,-260,11,-49,31,-4
2320,7,-266,12,-54,32,-1
2325,9,-266,13,-60,30,2
2330,5,-269,10,-66,31,5
2335,8,-269,10,-74,29,9
2340,9,-271,8,-79,30,14
2345,9,-272,6,-84,29,18
2350,8,-274,6,-89,28,21
2355,6,-275,4,-92,26,26
2360,11,-271,2,-95,22,30
2365,6,-280,4,-97,18,35
2370,9,-284,5,-95,13,38
2375,6,-289,4,-92,1,42
2380,5,-292,3,-85,-19,49
2385,2,-295,2,-75,-47,57
2390,1,-295,1,-67,-87,68
2395,2,-298,-3,-58,-138,81
2400,1,-297,-16,-52,-196,91
2405,6,-297,-29,-60,-260,100
2410,1,-286,-45,-79,-319,105
2415,4,-276,-64,-120,-363,111
2420,2,-271,-77,-186,-388,113
2425,1,-258,-90,-279,-399,116
2430,2,-252,-96,-393,-396,121
2435,-4,-242,-92,-518,-381,128
2440,-7,-238,-86,-636,-361,140
2445,-13,-235,-88,-743,-343,154
2450,-13,-232,-76,-844,-327,165
2455,-14,-231,-79,-937,-307,180
2460,-21,-226,-78,-1025,-283,192
2465,-20,-229,-81,-1105,-251,205
2470,-24,-230,-76,-1178,-220,215
2475,-30,-229,-70,-1239,-191,221
2480,-25,-231,-73,-1290,-168,228
2485,-30,-230,-74,-1324,-154,235
2490,-31,-228,-72,-1345,-148,238
2495,-30,-227,-70,-1350,-146,239
2500,-27,-224,-73,-1336,-149,236
2505,-22,-215,-77,-1308,-152,229
2510,-15,-213,-76,-1268,-151,219
2515,-10,-206,-79,-1225,-144,206
2520,-7,-196,-83,-1184,-130,188
2525,-2,-189,-83,-1150,-110,167
2530,3,-179,-87,-1129,-84,145
2535,9,-166,-92,-1118,-53,125
2540,14,-154,-92,-1129,-19,103
2545,17,-145,-100,-1153,14,84
2550,19,-137,-94,-1192,42,67
2555,21,-124,-95,-1250,68,52
2560,23,-119,-97,-1319,89,41
2565,21,-112,-95,-1401,108,31
2570,25,-106,-92,-1490,124,25
2575,33,-102,-91,-1579,142,24
2580,23,-97,-97,-1668,162,24
2585,24,-93,-100,-1751,184,24
2590,23,-93,-99,-1826,204,28
2595,23,-92,-103,-1888,229,33
2600,23,-94,-103,-1939,254,36
2605,25,-93,-104,-1972,286,39
2610,23,-94,-104,-1989,325,42
2615,24,-99,-108,-1989,378,40
2620,21,-106,-114,-1971,446,34
2625,18,-109,-109,-1935,532,28
2630,9,-123,-117,-1888,632,26
2635,2,-129,-119,-1842,739,26
2640,-4,-133,-126,-1800,848,26
2645,-11,-142,-129,-1764,941,27
2650,-14,-151,-131,-1742,1008,31
2655,-12,-168,-128,-1737,1047,33
2660,-11,-186,-115,-1753,1066,38
2665,-3,-202,-104,-1780,1076,42
2670,-2,-225,-83,-1803,1084,47
2675,-3,-248,-63,-1815,1085,48
2680,1,-270,-52,-1800,1073,54
2685,-2,-296,-45,-1743,1045,60
2690,-5,-319,-50,-1632,1005,67
2695,-4,-337,-58,-1468,959,71
2700,-9,-360,-72,-1269,906,71
2705,-12,-379,-101,-1063,849,66
2710,-21,-393,-113,-882,778,54
2715,-26,-415,-122,-732,696,39
2720,-40,-423,-126,-631,593,22
2725,-51,-419,-116,-546,475,16
2730,-41,-405,-111,-449,349,22
2735,-26,-388,-108,-326,241,30
2740,-4,-366,-98,-184,169,24
2745,4,-336,-90,-41,141,6
2750,9,-309,-74,104,149,-24
2755,5,-283,-62,243,167,-55
2760,-2,-254,-55,381,189,-75
2765,-4,-227,-55,499,205,-75
2770,-9,-197,-64,575,221,-59
2775,-15,-179,-75,586,236,-24
2780,-17,-163,-89,523,249,27
2785,-19,-160,-99,389,258,95
2790,-20,-159,-104,205,261,171
2795,-22,-169,-103,-8,255,249
2800,-19,-185,-96,-213,239,322
2805,-13,-205,-86,-378,212,390
2810,-9,-220,-75,-476,175,449
2815,-6,-243,-62,-493,128,499
2820,-6,-257,-49,-420,73,533
2825,-2,-275,-45,-271,15,550
2830,5,-289,-44,-65,-45,542
2835,10,-300,-42,168,-101,507
2840,15,-313,-44,403,-152,440
2845,16,-322,-43,622,-198,342
2850,12,-324,-46,811,-240,227
2855,11,-328,-57,961,-276,113
2860,10,-322,-65,1067,-304,5
2865,11,-318,-74,1138,-316,-90
2870,10,-313,-80,1179,-307,-165
2875,10,-308,-81,1194,-281,-224
2880,15,-305,-82,1178,-243,-271
2885,14,-300,-84,1135,-196,-296
2890,12,-304,-80,1075,-150,-304
2895,13,-310,-79,1006,-112,-295
2900,13,-314,-80,949,-81,-266
2905,14,-323,-82,923,-49,-221
2910,12,-328,-85,929,-11,-163
2915,14,-336,-93,967,31,-97
2920,13,-336,-96,1033,82,-30
2925,12,-333,-101,1118,132,38
2930,10,-324,-99,1212,179,92
2935,10,-320,-98,1315,223,135
2940,6,-303,-98,1416,257,161
2945,7,-291,-91,1510,286,168
2950,8,-278,-83,1588,305,159
2955,7,-271,-82,1643,315,136
2960,2,-265,-72,1673,311,104
2965,-2,-263,-64,1674,292,64
2970,-3,-274,-57,1661,264,20
2975,-8,-290,-46,1645,231,-21
2980,-7,-316,-30,1643,196,-51
2985,-9,-352,-2,1675,171,-67
2990,-7,-397,20,1767,161,-62
2995,-4,-452,60,1938,171,-39
3000,-5,-518,105,2214,204,8
3005,2,-591,158,2621,250,74
3010,9,-680,214,3171,287,138
3015,20,-744,224,3861,300,170
3020,43,-768,142,4536,266,152
3025,41,-713,13,5004,217,75
3030,38,-587,-113,5157,237,4
3035,38,-411,-238,4932,338,-20
3040,19,-278,-332,4255,459,-34
3045,-10,-207,-398,3094,554,-55
3050,-38,-151,-356,1631,607,-83
3055,-43,-141,-262,282,591,-105
3060,-28,-169,-163,-709,511,-121
3065,-17,-216,-71,-1328,373,-135
3070,-3,-269,1,-1617,212,-138
3075,1,-315,59,-1633,59,-137
3080,8,-343,96,-1441,-72,-142
3085,8,-351,128,-1115,-167,-172
3090,13,-343,143,-696,-237,-220
3095,14,-332,155,-240,-281,-287
3100,12,-304,170,212,-302,-356
3105,11,-277,162,634,-302,-392
3110,10,-252,157,987,-277,-411
3115,7,-218,152,1233,-234,-407
3120,1,-188,142,1346,-201,-372
3125,0,-164,134,1322,-192,-313
3130,-1,-143,113,1155,-215,-251
3135,-5,-129,94,872,-256,-189
3140,-10,-126,77,499,-310,-128
3145,-14,-132,63,92,-373,-71
3150,-16,-151,52,-298,-432,-15
3155,-24,-174,50,-622,-481,36
3160,-33,-206,54,-846,-517,80
3165,-16,-222,45,-955,-540,111
3170,-13,-245,47,-933,-548,129
3175,-9,-262,53,-787,-541,137
3180,-1,-279,58,-533,-519,135
3185,0,-295,66,-196,-488,127
3190,4,-295,67,196,-440,111
3195,8,-296,69,611,-385,92
3200,13,-290,74,1013,-320,74
3205,18,-280,66,1371,-250,59
3210,27,-267,64,1660,-180,50
3215,28,-246,62,1862,-118,44
3220,32,-240,61,1977,-66,40
3225,34,-227,60,2011,-28,39
3230,33,-220,53,1969,-9,39
3235,31,-214,54,1861,-6,42
3240,27,-209,48,1696,-24,45
3245,24,-212,48,1487,-59,53
3250,20,-214,37,1249,-96,57
3255,15,-212,34,1000,-140,61
3260,13,-223,30,753,-178,64
3265,11,-227,22,527,-201,63
3270,13,-237,18,347,-208,65
3275,6,-244,9,225,-198,60
3280,3,-251,8,162,-174,43
3285,4,-256,7,148,-143,27
3290,-1,-265,6,175,-102,11
3295,-3,-269,7,224,-60,-8
3300,-10,-272,9,293,-25,-32
3305,-10,-277,12,362,1,-59
3310,-14,-278,12,420,20,-81
3315,-13,-275,16,464,25,-102
3320,-15,-269,22,486,22,-119
3325,-14,-259,31,488,15,-128
3330,-9,-256,40,478,1,-132
3335,-4,-251,45,454,-15,-134
3340,0,-236,49,419,-33,-132
3345,0,-230,51,381,-53,-126
3350,5,-231,64,347,-72,-120
3355,8,-223,65,324,-84,-112
3360,10,-217,75,315,-89,-102
3365,18,-215,76,317,-88,-92
3370,17,-208,81,326,-82,-82
3375,21,-208,83,346,-71,-75
3380,22,-205,88,370,-55,-66
3385,24,-203,90,395,-38,-62
3390,26,-201,90,415,-21,-59
3395,25,-201,88,429,-5,-59
3400,25,-200,90,434,7,-63
3405,28,-204,91,431,13,-67
3410,27,-201,88,417,16,-72
3415,25,-202,84,394,14,-76
3420,24,-206,85,367,9,-80
3425,23,-207,84,338,3,-84
3430,23,-214,81,311,0,-86
3435,24,-217,79,288,0,-86
3440,20,-221,84,268,2,-84
3445,18,-225,81,258,2,-84
3450,20,-231,80,257,4,-84
3455,19,-235,76,261,6,-83
3460,14,-235,82,273,9,-86
3465,15,-237,83,290,7,-84
3470,13,-234,78,307,8,-83
3475,10,-235,80,323,6,-83
3480,7,-233,78,333,0,-86
3485,6,-230,79,340,-6,-84
3490,6,-232,77,339,-13,-83
3495,5,-226,77,334,-21,-84
3500,7,-228,79,323,-28,-82
3505,6,-229,80,308,-32,-81
3510,3,-226,83,289,-34,-79
3515,7,-226,77,266,-35,-77
3520,8,-227,81,235,-37,-73
3525,9,-226,80,194,-39,-71
3530,13,-228,76,151,-39,-68
3535,12,-227,81,101,-39,-66
3540,12,-224,76,53,-36,-66
3545,14,-227,77,10,-33,-67
3550,15,-230,78,-24,-30,-69
3555,16,-226,78,-49,-24,-71
3560,18,-232,73,-64,-20,-74
3565,20,-228,76,-70,-14,-78
3570,21,-225,82,-68,-8,-81
3575,18,-225,73,-60,-4,-82
3580,20,-226,77,-47,-4,-85
3585,20,-226,82,-32,-4,-85
3590,20,-220,76,-20,-3,-83
3595,25,-221,82,-10,-3,-79
3600,21,-214,81,-6,-1,-75
3605,20,-216,77,-11,2,-70
3610,18,-215,77,-21,2,-65
3615,18,-214,79,-33,2,-59
3620,20,-213,72,-47,1,-54
3625,17,-212,78,-64,1,-48
3630,18,-220,75,-75,-2,-42
3635,15,-222,75,-85,-5,-38
3640,14,-221,75,-92,-5,-36
3645,13,-222,79,-92,-4,-33
3650,15,-227,77,-87,-1,-33
3655,16,-229,79,-74,1,-30
3660,17,-232,79,-58,7,-30
3665,16,-232,77,-42,9,-31
3670,18,-235,80,-25,11,-32
3675,21,-236,78,-11,9,-31
3680,23,-233,76,-1,8,-30
3685,20,-231,75,4,3,-29
3690,21,-234,73,7,-1,-28
3695,22,-235,72,1,-6,-30
3700,24,-232,69,-5,-10,-28
3705,23,-232,72,-12,-16,-31
3710,14,-239,75,-19,-18,-32
3715,17,-226,66,-26,-19,-30
3720,19,-231,71,-33,-19,-33
3725,17,-230,75,-37,-19,-34
3730,18,-232,74,-40,-18,-36
3735,20,-235,80,-41,-18,-37
3740,17,-234,77,-40,-17,-39
3745,18,-234,79,-40,-17,-37
3750,16,-231,78,-37,-14,-36
3755,15,-231,78,-37,-13,-34
3760,22,-224,63,-40,-10,-33
3765,18,-227,77,-47,-4,-28
3770,12,-233,67,-54,3,-27
3775,21,-231,74,-64,9,-23
3780,26,-228,73,-75,18,-18
3785,18,-226,77,-84,27,-14
3790,22,-230,75,-91,32,-14
3795,22,-228,77,-100,38,-14
3800,23,-228,76,-103,44,-16
3805,22,-232,78,-107,49,-17
3810,18,-230,75,-109,52,-19
3815,16,-237,88,-110,60,-17
3820,18,-231,75,-107,62,-20
3825,22,-235,76,-104,67,-23
3830,22,-234,75,-98,71,-24
3835,23,-236,75,-88,75,-25
3840,22,-237,75,-77,77,-25
3845,27,-235,77,-65,81,-28
3850,21,-238,74,-54,87,-31
3855,21,-236,76,-46,91,-34
3860,21,-233,72,-43,96,-36
3865,24,-233,69,-42,103,-38
3870,22,-233,72,-48,109,-41
3875,21,-232,71,-56,113,-42
3880,21,-231,69,-64,120,-44
3885,20,-231,73,-73,125,-44
3890,21,-232,74,-77,129,-43
3895,19,-232,69,-78,132,-45
3900,20,-233,71,-76,133,-46
3905,16,-234,69,-75,132,-45
3910,17,-234,73,-73,130,-45
3915,14,-232,69,-71,124,-44
3920,14,-233,71,-73,119,-42
3925,13,-231,68,-78,114,-38
3930,14,-233,66,-85,106,-35
3935,11,-233,66,-93,101,-31
3940,10,-232,69,-101,94,-27
3945,12,-235,64,-110,88,-23
3950,13,-237,68,-119,83,-19
3955,11,-234,67,-125,76,-15
3960,11,-239,65,-132,71,-13
3965,13,-241,64,-136,66,-11
3970,12,-240,64,-136,62,-11
3975,13,-242,64,-136,58,-9
3980,16,-242,65,-132,51,-9
3985,16,-241,63,-128,49,-7
3990,15,-237,63,-124,45,-6
3995,14,-240,66,-119,41,-4
4000,12,-240,63,-113,42,-3
4005,12,-238,65,-106,40,-2
4010,13,-239,66,-96,41,-1
4015,11,-237,66,-85,39,0
4020,13,-239,66,-79,36,1
4025,13,-237,66,-68,32,2
4030,12,-235,66,-60,27,4
4035,7,-233,64,-53,20,8
4040,12,-237,69,-41,12,9
4045,12,-234,69,-30,4,10
4050,11,-235,64,-21,-3,10
4055,12,-232,63,-15,-9,11
4060,12,-231,66,-11,-13,10
4065,14,-233,68,-9,-17,8
4070,14,-231,67,-7,-20,3
4075,17,-233,72,-5,-20,2
4080,15,-233,72,0,-18,-3
4085,13,-236,72,5,-13,-6
4090,14,-233,77,9,-13,-10
4095,10,-232,71,10,-10,-14
4100,12,-235,73,11,-7,-18
4105,13,-235,74,9,-5,-21
4110,14,-236,73,6,-4,-24
4115,15,-236,76,0,-2,-24
4120,13,-236,75,-3,-3,-25
4125,14,-235,78,-9,-4,-23
4130,13,-239,74,-15,-5,-22
4135,16,-236,76,-22,-7,-19
4140,15,-239,72,-29,-9,-16
4145,13,-232,74,-34,-11,-11
4150,16,-238,76,-39,-15,-6
4155,10,-233,74,-46,-22,-2
4160,16,-234,71,-57,-31,0
4165,14,-233,74,-69,-39,3
4170,14,-229,72,-80,-46,6
4175,17,-238,72,-89,-48,8
4180,16,-233,71,-93,-47,12
4185,16,-234,69,-95,-43,11
4190,19,-236,69,-96,-36,11
4195,21,-236,70,-97,-29,9
4200,20,-234,70,-101,-23,8
4205,22,-233,70,-106,-18,5
4210,21,-234,73,-112,-10,6
4215,23,-233,70,-121,-6,4
4220,22,-237,68,-131,-2,3
4225,22,-236,68,-136,1,1
4230,23,-236,67,-142,3,1
4235,23,-237,68,-142,0,-1
4240,21,-237,71,-140,-1,-5
4245,22,-235,66,-140,-2,-5
4250,23,-236,69,-136,-2,-7
4255,17,-232,61,-132,0,-9
4260,23,-237,68,-128,2,-11
4265,22,-236,65,-119,4,-12
4270,21,-236,72,-112,7,-14
4275,19,-236,64,-110,10,-15
4280,20,-235,66,-107,13,-16
4285,19,-235,65,-104,13,-17
4290,21,-234,68,-108,17,-24
4295,22,-233,70,-109,17,-19
4300,20,-232,66,-113,18,-17
4305,19,-234,64,-118,18,-14
4310,20,-234,66,-123,17,-16
4315,20,-235,69,-127,18,-15
4320,19,-239,66,-133,18,-16
4325,17,-234,63,-132,19,-15
4330,18,-237,69,-135,19,-13
4335,18,-239,65,-135,18,-13
4340,18,-242,64,-132,19,-12
4345,18,-236,65,-129,22,-19
4350,18,-240,64,-122,23,-17
4355,21,-233,53,-118,25,-13
4360,18,-242,66,-109,27,-12
4365,17,-241,65,-101,30,-13
4370,14,-240,63,-92,32,-13
4375,16,-237,65,-83,36,-14
4380,17,-238,66,-75,41,-13
4385,17,-238,66,-68,44,-15
4390,18,-241,64,-62,47,-15
4395,18,-237,64,-62,49,-15
4400,17,-239,64,-62,49,-15
4405,17,-237,61,-64,49,-16
4410,17,-243,65,-66,49,-15
4415,16,-234,67,-70,49,-14
4420,17,-238,66,-74,47,-14
4425,16,-235,66,-79,45,-12
4430,14,-235,67,-81,42,-10
4435,15,-235,66,-81,38,-8
4440,17,-234,70,-80,34,-9
4445,19,-237,73,-77,30,-7
4450,17,-236,72,-72,27,-6
4455,17,-233,71,-68,24,-6
4460,19,-239,70,-65,19,-6
4465,16,-236,65,-64,17,-5
4470,17,-234,67,-64,15,-5
4475,16,-234,66,-67,16,-6
4480,19,-237,65,-70,16,-6
4485,18,-237,65,-73,18,-8
4490,19,-236,65,-76,17,-8
4495,17,-235,66,-77,17,-9
4500,15,-235,64,-79,17,-8
4505,18,-236,66,-80,16,-7
4510,16,-238,68,-78,17,-5
4515,16,-236,64,-74,15,-4
4520,18,-238,65,-74,11,-5
4525,18,-238,66,-71,8,-4
4530,18,-242,66,-69,7,-2
4535,18,-237,66,-67,4,1
4540,18,-239,68,-64,2,2
4545,16,-240,66,-62,0,4
4550,18,-238,66,-63,-3,5
4555,16,-236,65,-62,-5,5
4560,16,-235,66,-66,-8,5
4565,16,-239,62,-70,-8,5
4570,19,-235,65,-77,-7,0
4575,21,-237,62,-83,-7,5
4580,21,-238,62,-87,-5,6
4585,20,-239,66,-89,-5,5
4590,19,-235,66,-89,-4,3
4595,18,-241,64,-87,0,2
4600,20,-239,66,-82,2,3
4605,18,-240,64,-79,3,3
4610,19,-240,63,-77,6,1
4615,20,-239,65,-76,7,2
4620,19,-238,65,-73,8,0
4625,17,-240,64,-72,9,-1
4630,15,-241,64,-70,8,-1
4635,17,-240,65,-70,5,-1
4640,18,-237,62,-72,4,-2
4645,20,-238,66,-74,2,-2
4650,16,-237,64,-73,2,-1
4655,18,-242,65,-70,3,-3
4660,16,-238,66,-69,4,-7
4665,16,-237,65,-67,5,-5
4670,17,-237,65,-65,6,-4
4675,20,-241,66,-64,7,-3
4680,18,-237,65,-60,7,-3
4685,18,-238,65,-58,10,-4
4690,25,-246,61,-57,12,-5
4695,17,-237,68,-53,15,-5
4700,16,-237,66,-50,18,-6
4705,16,-236,65,-48,19,-7
4710,17,-239,67,-49,22,-7
4715,17,-236,64,-49,22,-7
4720,21,-241,64,-52,21,-8
4725,18,-239,62,-54,22,-8
4730,16,-237,65,-56,20,-8
4735,19,-240,64,-56,19,-9
4740,18,-236,71,-56,20,-8
4745,16,-236,67,-58,22,-9
4750,18,-237,66,-57,22,-8
4755,18,-238,69,-57,21,-9
4760,19,-238,63,-61,21,-9
4765,18,-238,65,-64,21,-8
4770,18,-238,65,-68,19,-9
4775,14,-238,66,-73,18,-12
4780,18,-235,64,-76,19,-13
4785,20,-237,64,-76,19,-9
4790,21,-238,63,-77,19,-7
4795,17,-237,64,-74,19,-7
4800,17,-246,60,-71,17,-7
4805,15,-238,64,-69,15,-6
4810,18,-240,60,-68,13,-5
4815,17,-240,61,-68,11,-5
4820,15,-241,64,-65,9,-4
4825,18,-240,64,-64,9,-3
4830,18,-240,61,-64,10,-4
4835,19,-240,65,-61,9,-4
4840,18,-237,62,-59,9,-3
4845,17,-242,62,-57,11,-3
4850,21,-239,63,-56,9,-4
4855,19,-237,63,-54,9,-2
4860,19,-238,64,-54,8,-2
4865,19,-238,63,-52,8,-1
4870,17,-232,60,-49,8,-2
4875,16,-238,62,-48,9,-7
4880,19,-236,63,-49,13,-7
4885,19,-237,64,-50,14,-4
4890,18,-241,64,-49,16,-4
4895,18,-235,64,-47,18,-4
4900,23,-243,63,-46,21,-4
4905,18,-239,63,-43,23,-3
4910,19,-239,66,-41,22,-3
4915,19,-238,69,-40,23,-2
4920,17,-236,65,-38,22,-4
4925,16,-240,61,-37,19,-2
4930,18,-237,64,-37,17,-3
4935,17,-238,66,-37,16,-5
4940,16,-240,63,-36,15,-5
4945,18,-241,65,-37,16,-5
4950,17,-238,67,-41,15,-5
4955,27,-238,68,-43,16,-5
4960,17,-235,67,-46,17,-6
4965,19,-237,64,-50,18,-6
4970,15,-238,64,-53,19,-6
4975,19,-240,65,-52,21,-8
4980,18,-236,65,-52,23,-7
4985,20,-242,64,-53,26,-7
4990,18,-238,63,-54,27,-6
4995,19,-237,64,-54,29,-4
5000,15,-239,64,-53,30,-2
5005,15,-235,64,-55,30,-2
5010,17,-237,63,-55,28,0
5015,19,-238,66,-57,26,0
5020,18,-242,65,-59,24,-1
5025,15,-237,60,-59,21,-1
5030,17,-237,63,-62,18,0
5035,20,-238,64,-64,17,1
5040,17,-236,64,-65,18,0
5045,17,-240,65,-65,18,-1
5050,18,-238,65,-63,18,-1
5055,20,-240,64,-59,19,-1
5060,19,-239,66,-55,18,-3
5065,17,-238,62,-51,20,-3
5070,19,-238,61,-50,20,-4
5075,20,-238,65,-50,21,-3
5080,19,-237,67,-45,21,-3
5085,16,-240,67,-43,18,-4
5090,17,-236,63,-44,20,-7
5095,19,-238,64,-44,18,-5
5100,18,-239,63,-45,16,-5
5105,17,-234,64,-47,16,-5
5110,19,-237,64,-46,17,-5
5115,19,-236,64,-45,16,-3
5120,17,-237,63,-45,17,-1
5125,17,-237,62,-42,18,-2
5130,19,-240,61,-40,19,1
5135,18,-240,61,-37,19,1
5140,19,-240,65,-36,18,4
5145,19,-237,65,-33,18,3
5150,20,-240,66,-32,17,2
5155,18,-238,63,-28,14,3
5160,21,-237,66,-28,12,1
5165,19,-239,64,-26,11,-2
5170,18,-242,63,-26,11,-1
5175,20,-239,64,-27,11,-2
5180,20,-238,62,-29,12,-2
5185,17,-235,64,-32,13,-3
5190,17,-238,62,-33,14,-4
5195,16,-239,64,-36,18,-4
5200,18,-238,64,-37,20,-4
5205,20,-235,65,-36,20,-4
5210,16,-239,64,-37,23,-4
5215,17,-238,66,-37,28,-5
5220,18,-238,64,-39,28,-4
5225,14,-237,65,-40,29,-4
5230,16,-241,64,-40,28,-5
5235,20,-239,64,-40,26,-5
5240,15,-238,64,-38,25,-4
5245,18,-238,66,-38,23,-6
5250,21,-241,65,-35,22,-6
5255,16,-237,65,-35,21,-6
5260,19,-242,65,-35,22,-5
5265,17,-235,67,-32,22,-5
5270,17,-239,65,-32,22,-6
5275,15,-237,66,-34,23,-5
5280,17,-238,65,-34,24,-6
5285,16,-239,66,-34,24,-4
5290,22,-241,64,-37,24,-6
5295,17,-238,64,-37,24,-5
5300,18,-237,66,-37,24,-5
5305,17,-236,66,-37,23,-7
5310,17,-235,67,-37,22,-7
5315,18,-237,61,-37,23,-8
5320,19,-240,67,-36,22,-8
5325,18,-237,64,-36,21,-8
5330,19,-237,64,-34,22,-8
5335,19,-239,68,-34,21,-10
5340,18,-237,64,-33,20,-9
5345,16,-242,61,-33,19,-8
5350,18,-241,63,-34,17,-8
5355,17,-236,62,-35,17,-9
5360,16,-238,64,-36,17,-9
5365,17,-239,65,-39,15,-10
5370,16,-240,66,-37,16,-9
5375,17,-236,67,-37,17,-9
5380,18,-237,63,-35,17,-9
5385,17,-237,66,-34,19,-9
5390,19,-239,64,-35,20,-9
5395,19,-238,68,-34,21,-10
5400,15,-236,67,-33,23,-9
5405,15,-236,63,-33,23,-9
5410,19,-240,66,-34,22,-9
5415,17,-236,66,-33,22,-11
5420,17,-236,67,-34,21,-12
5425,16,-236,64,-33,20,-12
5430,18,-237,66,-34,19,-12
5435,18,-239,66,-34,20,-12
5440,18,-240,65,-32,22,-12
5445,21,-239,64,-31,23,-13
5450,19,-241,66,-30,25,-11
5455,16,-236,64,-31,25,-12
5460,19,-234,64,-31,27,-12
5465,17,-238,64,-32,27,-13
5470,20,-238,63,-34,27,-11
5475,19,-240,64,-36,26,-11
5480,17,-239,66,-38,26,-10
5485,20,-237,62,-39,25,-11
5490,17,-236,64,-41,23,-12
5495,21,-237,63,-45,19,-11
5500,10,-242,76,-49,18,-11
5505,19,-238,65,-50,16,-10
5510,18,-237,63,-52,14,-10
5515,16,-240,67,-52,13,-10
5520,17,-238,66,-49,14,-10
5525,17,-238,65,-43,13,-11
5530,18,-238,68,-37,13,-11
5535,19,-239,64,-31,13,-10
5540,18,-240,65,-27,13,-9
5545,17,-237,66,-23,12,-10
5550,15,-236,65,-21,10,-9
5555,15,-237,55,-20,8,-7
5560,16,-239,70,-21,6,-7
5565,17,-237,65,-21,4,-9
5570,17,-237,62,-23,3,-9
5575,18,-235,64,-25,3,-9
5580,18,-237,67,-26,6,-10
5585,18,-238,64,-27,6,-10
5590,18,-239,64,-29,8,-12
5595,17,-235,64,-30,10,-11
5600,20,-237,63,-33,12,-10
5605,16,-236,70,-36,14,-10
5610,17,-238,65,-37,17,-9
5615,21,-237,68,-36,18,-10
5620,20,-238,65,-35,19,-10
5625,20,-238,66,-32,18,-12
5630,15,-238,67,-28,16,-11
5635,22,-238,70,-25,14,-11
5640,19,-239,64,-23,12,-12
5645,18,-237,63,-20,12,-11
5650,19,-238,66,-17,9,-11
5655,19,-238,69,-17,8,-11
5660,19,-238,66,-16,7,-11
5665,16,-236,65,-17,6,-11
5670,18,-239,66,-18,5,-11
5675,19,-239,63,-19,6,-10
5680,18,-237,68,-20,6,-11
5685,21,-238,65,-23,8,-11
5690,20,-238,65,-22,8,-13
5695,18,-238,65,-24,9,-12
5700,15,-237,66,-23,9,-13
5705,20,-241,65,-21,13,-12
5710,18,-235,64,-24,13,-12
5715,20,-238,63,-24,13,-11
5720,22,-239,64,-25,14,-11
5725,20,-239,64,-27,13,-13
5730,17,-237,66,-28,14,-13
5735,19,-238,66,-28,15,-13
5740,19,-238,64,-31,16,-12
5745,17,-236,66,-30,18,-12
5750,16,-239,67,-31,19,-15
5755,18,-237,66,-30,20,-15
5760,18,-238,63,-33,20,-15
5765,17,-239,65,-34,20,-15
5770,19,-238,66,-32,18,-13
5775,18,-235,65,-32,18,-13
5780,21,-236,70,-34,17,-13
5785,19,-238,67,-34,17,-12
5790,16,-234,64,-34,17,-13
5795,17,-234,68,-34,17,-13
5800,19,-237,65,-32,18,-14
5805,18,-236,67,-30,21,-13
5810,15,-233,67,-26,23,-14
5815,18,-234,64,-25,26,-13
5820,19,-236,64,-23,28,-12
5825,16,-234,65,-23,29,-12
5830,18,-234,65,-22,30,-11
5835,20,-236,65,-21,31,-8
5840,18,-237,68,-22,32,-7
5845,17,-233,66,-20,34,-4
5850,18,-235,67,-17,38,-3
5855,18,-235,64,-17,43,-4
5860,17,-235,65,-15,46,0
5865,16,-236,66,-16,48,-3
5870,17,-234,66,-17,50,-5
5875,17,-236,64,-20,50,-7
5880,15,-234,68,-24,50,-7
5885,16,-235,68,-32,49,-7
5890,23,-236,74,-39,45,-7
5895,17,-235,68,-46,41,-6
5900,17,-234,66,-53,36,-2
5905,17,-235,69,-65,27,1
5910,15,-231,73,-81,14,3
5915,17,-231,70,-99,-2,7
5920,16,-230,69,-120,-18,10
5925,10,-231,65,-143,-29,12
5930,10,-230,62,-169,-34,14
5935,9,-228,59,-205,-31,8
5940,11,-227,58,-258,-15,3
5945,7,-229,56,-328,7,-7
5950,6,-228,56,-406,33,-20
5955,8,-233,53,-476,57,-33
5960,10,-233,56,-527,70,-47
5965,11,-235,56,-561,71,-59
5970,16,-243,54,-578,61,-67
5975,21,-244,55,-577,44,-68
5980,23,-246,57,-560,21,-65
5985,25,-248,55,-523,-2,-58
5990,25,-249,55,-477,-31,-48
5995,31,-246,50,-422,-63,-35
6000,24,-245,53,-366,-94,-22
6005,26,-244,51,-309,-118,-10
6010,26,-245,54,-259,-133,-1
6015,30,-244,56,-212,-141,5
6020,29,-241,55,-171,-141,7
6025,28,-245,58,-136,-134,5
6030,20,-234,56,-105,-121,2
6035,23,-235,55,-86,-106,1
6040,21,-234,54,-76,-91,-2
6045,30,-233,53,-72,-77,-5
6050,19,-231,45,-75,-66,-8
6055,21,-237,49,-81,-56,-13
6060,21,-236,50,-87,-46,-16
6065,21,-235,54,-90,-37,-18
6070,24,-235,58,-92,-31,-16
6075,20,-237,54,-91,-26,-17
6080,23,-236,60,-85,-21,-14
6085,26,-238,61,-73,-14,-13
6090,27,-235,67,-57,-11,-13
6095,29,-234,66,-34,-6,-14
6100,17,-234,73,-10,-3,-15
6105,27,-235,66,13,-5,-14
6110,25,-233,66,35,-10,-13
6115,26,-230,66,50,-17,-10
6120,25,-229,68,54,-22,-7
6125,23,-229,66,53,-29,-3
6130,23,-228,68,48,-35,1
6135,22,-225,71,40,-38,5
6140,23,-224,73,29,-38,9
6145,19,-224,72,23,-36,14
6150,20,-223,70,17,-31,19
6155,22,-222,63,10,-28,24
6160,18,-223,74,1,-24,30
6165,20,-221,78,-6,-20,39
6170,19,-221,72,-14,-14,44
6175,17,-219,75,-18,-10,49
6180,20,-221,80,-26,-7,56
6185,21,-219,79,-32,-6,59
6190,26,-223,73,-40,-3,65
6195,23,-225,76,-51,-4,68
6200,25,-221,70,-64,-3,73
6205,23,-220,76,-78,-2,78
6210,19,-220,75,-96,-2,83
6215,17,-219,75,-112,-4,89
6220,23,-223,77,-134,-5,95
6225,20,-221,70,-159,-2,101
6230,18,-225,70,-188,1,105
6235,17,-225,71,-217,4,108
6240,16,-220,70,-248,7,116
6245,13,-218,71,-275,7,123
6250,17,-222,71,-307,5,129
6255,17,-218,70,-337,2,132
6260,17,-220,69,-367,-1,135
6265,17,-218,68,-397,-3,140
6270,20,-217,66,-423,-2,145
6275,17,-218,66,-450,4,146
6280,20,-222,66,-477,8,148
6285,20,-218,68,-503,14,151
6290,22,-218,67,-528,21,152
6295,22,-219,65,-554,27,151
6300,20,-219,69,-579,34,150
6305,21,-221,71,-606,42,149
6310,21,-220,72,-631,50,150
6315,21,-219,72,-657,58,149
6320,25,-223,72,-685,65,149
6325,24,-222,76,-712,73,146
6330,24,-223,74,-736,81,141
6335,20,-222,71,-760,92,136
6340,19,-224,77,-786,104,130
6345,21,-226,81,-814,116,124
6350,19,-229,84,-847,128,119
6355,15,-232,79,-881,136,114
6360,15,-231,86,-917,143,112
6365,17,-236,84,-951,148,108
6370,18,-238,91,-978,156,108
6375,18,-237,91,-998,169,102
6380,19,-235,91,-1012,183,94
6385,19,-236,91,-1022,202,83
6390,16,-237,87,-1029,220,72
6395,15,-235,86,-1034,246,62
6400,12,-237,91,-1038,271,50
6405,9,-239,91,-1033,297,41
6410,7,-241,91,-1017,321,31
6415,6,-249,98,-993,343,21
6420,8,-256,100,-957,362,17
6425,7,-261,109,-911,382,17
6430,10,-275,107,-862,400,21
6435,7,-276,95,-817,418,26
6440,8,-270,80,-799,433,34
6445,4,-267,62,-838,442,44
6450,5,-260,37,-958,436,57
6455,8,-252,9,-1174,412,74
6460,9,-252,-13,-1470,375,92
6465,8,-253,-28,-1820,328,110
6470,12,-260,-37,-2184,273,125
6475,11,-271,-38,-2532,220,142
6480,13,-284,-44,-2833,173,156
6485,13,-301,-51,-3076,134,170
6490,13,-311,-55,-3257,108,181
6495,16,-328,-51,-3378,94,189
6500,13,-351,-46,-3436,81,195
6505,9,-361,-35,-3431,72,198
6510,7,-382,-21,-3369,62,204
6515,14,-398,-10,-3258,51,210
6520,15,-417,-1,-3100,44,214
6525,15,-431,-1,-2907,40,211
6530,17,-441,-4,-2693,36,204
6535,20,-449,-18,-2470,34,196
6540,22,-450,-35,-2253,45,186
6545,30,-450,-57,-2046,78,175
6550,30,-448,-74,-1851,138,160
6555,32,-443,-100,-1681,219,145
6560,26,-435,-118,-1545,308,136
6565,23,-426,-138,-1438,397,132
6570,10,-416,-148,-1355,480,135
6575,4,-410,-156,-1292,549,139
6580,3,-404,-158,-1237,601,136
6585,-1,-396,-154,-1184,636,131
6590,-4,-393,-147,-1117,651,122
6595,-6,-392,-150,-1031,646,105
6600,-12,-383,-138,-924,622,88
6605,-12,-378,-130,-799,581,80
6610,-16,-375,-121,-663,526,69
6615,-18,-369,-115,-517,462,57
6620,-20,-361,-110,-370,389,51
6625,-27,-355,-104,-231,313,47
6630,-27,-345,-99,-112,238,44
6635,-37,-337,-106,-17,170,42
6640,-23,-326,-86,53,111,43
6645,-21,-320,-82,101,63,55
6650,-19,-315,-77,133,26,73
6655,-15,-304,-69,154,-1,91
6660,-13,-304,-63,170,-17,108
6665,-11,-299,-59,184,-24,126
6670,-9,-295,-58,195,-21,143
6675,-4,-294,-58,205,-14,161
6680,-7,-293,-57,214,-2,175
6685,-8,-290,-60,223,13,188
6690,-17,-295,-47,228,27,195
6695,-2,-288,-61,233,43,196
6700,-5,-289,-65,239,60,189
6705,-5,-283,-69,250,75,181
6710,-2,-287,-69,265,89,168
6715,-2,-287,-70,291,99,153
6720,0,-287,-74,328,106,137
6725,1,-285,-76,374,111,119
6730,0,-283,-77,432,113,99
6735,5,-281,-75,500,117,79
6740,3,-280,-71,581,119,60
6745,3,-274,-57,672,123,41
6750,2,-269,-69,770,121,22
6755,4,-260,-70,875,113,6
6760,4,-255,-64,984,98,-10
6765,6,-249,-61,1092,78,-26
6770,6,-244,-61,1199,52,-43
6775,9,-234,-56,1296,23,-63
6780,9,-226,-54,1386,-5,-79
6785,9,-216,-56,1461,-33,-93
6790,10,-204,-56,1521,-58,-105
6795,5,-192,-56,1564,-84,-116
6800,9,-184,-56,1592,-108,-125
6805,9,-175,-60,1598,-126,-132
6810,10,-170,-57,1585,-137,-142
6815,12,-162,-61,1550,-140,-150
6820,10,-155,-57,1501,-138,-157
6825,9,-152,-58,1439,-131,-161
6830,9,-151,-60,1362,-123,-164
6835,7,-148,-59,1274,-114,-164
6840,2,-149,-57,1178,-108,-164
6845,3,-149,-56,1082,-105,-163
6850,1,-157,-49,989,-104,-159
6855,0,-163,-54,907,-103,-156
6860,0,-166,-45,831,-105,-152
6865,2,-170,-48,757,-105,-148
6870,0,-175,-44,689,-104,-141
6875,0,-179,-38,640,-103,-135
6880,-1,-183,-33,606,-99,-128
6885,0,-183,-34,584,-96,-123
6890,0,-184,-37,577,-91,-121
6895,1,-190,-34,575,-85,-124
6900,0,-190,-38,582,-81,-129
6905,3,-193,-39,592,-77,-132
6910,4,-191,-44,601,-79,-141
6915,0,-190,-44,608,-78,-148
6920,5,-186,-45,618,-81,-154
6925,8,-183,-51,636,-85,-158
6930,7,-178,-54,656,-88,-166
6935,7,-173,-58,673,-90,-172
6940,10,-168,-59,690,-88,-177
6945,13,-161,-60,699,-82,-183
6950,12,-156,-63,698,-73,-190
6955,13,-147,-65,689,-61,-194
6960,13,-142,-64,667,-48,-194
6965,13,-138,-71,632,-37,-195
6970,14,-132,-71,582,-27,-192
6975,15,-131,-69,516,-20,-186
6980,12,-131,-68,427,-18,-176
6985,8,-135,-72,317,-18,-164
6990,7,-144,-68,191,-19,-151
6995,5,-156,-65,59,-19,-137
7000,3,-171,-64,-81,-20,-124
7005,0,-188,-64,-218,-20,-114
7010,-1,-201,-57,-345,-20,-105
7015,-8,-220,-49,-450,-22,-101
7020,-10,-239,-48,-516,-26,-100
7025,-9,-259,-39,-540,-26,-99
7030,-11,-281,-37,-521,-28,-99
7035,-8,-294,-35,-471,-30,-99
7040,-10,-312,-35,-389,-29,-97
7045,-9,-320,-33,-283,-26,-96
7050,-10,-328,-37,-163,-22,-92
7055,0,-336,-35,-27,-19,-91
7060,0,-338,-38,123,-18,-86
7065,2,-342,-38,275,-19,-84
7070,5,-336,-36,420,-20,-83
7075,6,-327,-32,554,-23,-83
7080,13,-326,-34,669,-29,-83
7085,15,-310,-26,761,-41,-84
7090,16,-303,-25,845,-56,-83
7095,19,-286,-19,918,-74,-85
7100,16,-276,-16,973,-97,-89
7105,20,-263,-14,1006,-123,-90
7110,20,-252,-17,1015,-152,-92
7115,19,-241,-15,1006,-182,-93
7120,15,-227,-18,976,-213,-97
7125,15,-218,-20,917,-242,-98
7130,12,-212,-26,836,-269,-98
7135,13,-209,-31,716,-293,-90
7140,11,-201,-29,574,-313,-83
7145,4,-192,-24,449,-323,-78
7150,7,-190,-22,337,-324,-68
7155,12,-196,-28,218,-321,-50
7160,10,-206,-30,74,-320,-28
7165,9,-202,-14,-95,-320,6
7170,6,-205,-15,-190,-303,10
7175,3,-214,-16,-247,-282,24
7180,8,-232,-18,-320,-260,51
7185,11,-246,-24,-406,-238,71
7190,11,-256,-22,-481,-219,90
7195,9,-273,-24,-536,-206,107
7200,10,-290,-24,-555,-194,123
7205,9,-303,-21,-526,-183,134
7210,9,-313,-22,-452,-177,140
7215,9,-314,-18,-339,-177,143
7220,13,-317,-21,-201,-183,143
7225,12,-315,-17,-51,-194,142
7230,15,-307,-20,95,-202,137
7235,17,-299,-23,226,-209,129
7240,12,-286,-15,337,-211,119
7245,11,-277,-11,423,-205,107
7250,11,-268,-10,484,-192,94
7255,11,-253,-4,514,-173,78
7260,10,-244,-1,515,-147,61
7265,8,-240,-2,493,-119,47
7270,7,-234,8,451,-89,34
7275,11,-229,14,394,-58,25
7280,9,-226,17,330,-33,18
7285,10,-232,0,262,-12,13
7290,5,-230,23,173,7,2
7295,12,-223,33,112,10,2
7300,14,-232,31,92,-2,18
7305,13,-229,27,80,-10,27
7310,16,-233,28,54,-19,39
7315,13,-233,26,20,-31,52
7320,11,-238,18,-22,-42,64
7325,11,-240,16,-68,-47,73
7330,13,-247,16,-110,-50,82
7335,12,-250,13,-148,-51,90
7340,10,-255,5,-178,-48,97
7345,10,-259,5,-196,-43,102
7350,10,-264,1,-203,-39,102
7355,6,-271,4,-200,-34,100
7360,7,-268,0,-186,-33,97
7365,7,-274,0,-168,-33,96
7370,7,-271,-2,-145,-31,94
7375,8,-272,-4,-117,-32,92
7380,4,-271,-4,-91,-33,88
7385,3,-266,0,-63,-33,86
7390,6,-267,1,-41,-32,85
7395,2,-261,1,-22,-34,82
7400,7,-261,-2,-10,-36,76
7405,4,-256,2,-9,-40,74
7410,3,-255,6,-9,-42,70
7415,2,-254,3,-15,-47,66
7420,3,-250,9,-28,-53,61
7425,3,-250,11,-40,-56,56
7430,3,-249,9,-57,-57,51
7435,4,-252,9,-74,-56,47
7440,3,-247,10,-90,-54,44
7445,3,-254,12,-108,-52,41
7450,4,-249,9,-124,-48,40
7455,4,-251,4,-140,-44,38
7460,8,-254,2,-151,-40,36
7465,3,-254,4,-160,-37,37
7470,5,-252,0,-168,-34,37
7475,4,-256,-1,-170,-34,38
7480,5,-255,-2,-171,-33,39
7485,6,-256,-4,-167,-32,39
7490,9,-259,0,-160,-31,38
7495,6,-256,-3,-153,-31,38
7500,9,-255,2,-140,-30,37
7505,10,-253,1,-128,-30,35
7510,14,-254,1,-121,-31,32
7515,13,-255,1,-111,-32,31
7520,16,-254,1,-107,-35,28
7525,13,-255,1,-105,-36,25
7530,13,-253,4,-104,-36,21
7535,15,-257,1,-103,-34,16
7540,17,-258,2,-101,-32,11
7545,15,-256,3,-96,-27,6
7550,13,-257,2,-90,-21,2
7555,13,-258,2,-83,-15,-2
7560,12,-260,1,-73,-8,-5
7565,10,-259,2,-64,0,-6
7570,11,-261,1,-55,5,-7
7575,11,-262,1,-48,11,-8
7580,8,-263,2,-40,14,-6
7585,8,-262,0,-36,15,-3
7590,8,-262,2,-31,15,1
7595,9,-264,4,-28,13,3
7600,10,-262,3,-21,9,4
7605,12,-264,6,-14,5,8
7610,9,-258,1,-3,2,9
7615,13,-258,11,9,-3,10
7620,13,-258,2,20,-6,10
7625,13,-257,6,30,-10,12
7630,14,-258,4,35,-13,9
7635,13,-256,8,39,-14,6
7640,11,-255,5,35,-13,1
7645,13,-249,4,32,-11,-4
7650,13,-254,5,24,-6,-9
7655,13,-252,4,12,-2,-15
7660,12,-251,3,0,6,-21
7665,12,-252,5,-13,12,-27
7670,14,-249,6,-26,17,-29
7675,11,-251,8,-41,22,-32
7680,13,-250,8,-58,28,-35
7685,13,-251,8,-71,31,-36
7690,12,-254,6,-84,33,-37
7695,9,-253,5,-92,36,-36
7700,8,-256,9,-97,38,-37
7705,8,-255,5,-101,36,-36
7710,5,-254,6,-101,33,-37
7715,3,-255,7,-102,28,-36
7720,5,-256,5,-102,21,-35
7725,5,-261,8,-101,13,-35
7730,4,-256,8,-96,5,-34
7735,3,-255,8,-97,-1,-37
7740,4,-254,6,-94,-9,-37
7745,3,-255,4,-93,-17,-38
7750,4,-254,9,-92,-21,-38
7755,1,-251,6,-89,-26,-40
7760,2,-254,6,-87,-28,-42
7765,2,-256,3,-83,-29,-45
7770,2,-256,5,-79,-30,-48
7775,3,-255,2,-76,-28,-50
7780,3,-256,2,-74,-26,-52
7785,6,-257,3,-71,-24,-52
7790,4,-256,3,-70,-23,-55
7795,5,-256,6,-73,-22,-56
7800,2,-259,3,-78,-21,-56
7805,3,-261,0,-83,-21,-55
7810,7,-263,2,-90,-21,-52
7815,5,-265,-3,-96,-22,-50
7820,8,-271,0,-100,-22,-47
7825,13,-264,-11,-104,-21,-42
7830,6,-273,0,-100,-21,-37
7835,11,-277,1,-92,-19,-34
7840,14,-276,0,-80,-17,-29
7845,10,-273,2,-63,-15,-25
7850,13,-274,1,-40,-14,-20
7855,13,-273,1,-19,-11,-16
7860,16,-271,-1,1,-10,-14
7865,14,-269,1,21,-10,-10
7870,18,-269,3,36,-9,-7
7875,16,-265,2,48,-9,-6
7880,14,-253,20,60,-8,-3
7885,20,-262,2,70,-6,-2
7890,21,-258,6,78,-5,-2
7895,19,-258,5,83,-2,-1
7900,16,-255,9,89,1,0
7905,21,-257,6,89,3,1
7910,21,-254,9,87,7,-1
7915,19,-254,8,87,9,-1
7920,18,-252,10,80,14,-2
7925,17,-249,13,70,18,-4
7930,20,-252,12,61,24,-4
7935,16,-248,14,49,28,-6
7940,15,-250,17,37,35,-8
7945,16,-249,17,21,41,-13
7950,13,-249,20,8,51,-16
7955,14,-252,16,-4,60,-19
7960,13,-252,15,-17,71,-24
7965,12,-251,16,-24,83,-30
7970,12,-254,12,-32,94,-35
7975,9,-255,11,-34,105,-40
7980,12,-253,14,-37,116,-45
7985,14,-254,10,-35,125,-50
7990,11,-254,12,-33,133,-52
7995,12,-255,12,-30,140,-55
8000,9,-253,12,-27,144,-57
8005,7,-253,7,-23,147,-58
8010,9,-255,9,-22,147,-59
8015,10,-254,9,-21,146,-61
8020,9,-253,8,-22,145,-63
8025,8,-255,12,-22,143,-62
8030,7,-255,13,-23,138,-62
8035,9,-255,10,-23,135,-62
8040,8,-255,14,-23,129,-62
8045,6,-252,12,-22,127,-62
8050,7,-253,8,-17,122,-61
8055,5,-254,12,-14,118,-60
8060,6,-254,9,-11,112,-61
8065,5,-254,10,-12,106,-61
8070,8,-251,8,-14,100,-59
8075,5,-250,12,-15,93,-57
8080,6,-256,8,-18,88,-57
8085,6,-253,11,-21,83,-56
8090,9,-254,9,-28,79,-56
8095,6,-253,10,-29,74,-56
8100,6,-256,10,-34,73,-55
8105,9,-257,8,-39,72,-54
8110,8,-256,11,-44,70,-53
8115,7,-256,9,-48,70,-53
8120,10,-257,9,-51,69,-51
8125,9,-256,8,-53,69,-49
8130,7,-256,8,-57,66,-47
8135,8,-255,9,-58,62,-47
8140,12,-258,12,-61,59,-43
8145,8,-257,8,-61,56,-40
8150,8,-257,6,-61,53,-37
8155,16,-257,12,-59,50,-34
8160,9,-257,7,-56,45,-31
8165,10,-258,9,-51,41,-27
8170,8,-257,7,-50,38,-23
8175,11,-259,11,-48,33,-21
8180,9,-255,7,-48,29,-15
8185,13,-258,9,-48,24,-12
8190,10,-257,7,-48,19,-11
8195,13,-257,8,-51,14,-9
8200,12,-257,7,-56,10,-7
8205,10,-256,8,-58,7,-5
8210,15,-257,9,-64,3,-3
8215,12,-257,9,-68,3,0
8220,14,-258,13,-69,4,0
8225,17,-258,13,-68,5,0
8230,12,-258,6,-65,7,1
8235,16,-256,5,-61,9,2
8240,15,-257,11,-57,12,1
8245,12,-256,9,-51,14,2
8250,15,-258,11,-44,18,2
8255,16,-258,8,-40,21,2
8260,16,-257,9,-36,23,2
8265,14,-252,5,-33,25,3
8270,15,-258,7,-30,26,4
8275,18,-258,11,-28,25,7
8280,16,-255,9,-25,26,7
8285,14,-259,13,-24,25,11
8290,12,-255,11,-24,22,13
8295,15,-257,16,-22,22,15
8300,15,-257,9,-24,21,14
8305,13,-256,12,-23,21,15
8310,15,-255,14,-20,21,14
8315,14,-255,11,-18,20,15
8320,13,-255,14,-18,19,13
8325,12,-256,16,-14,18,14
8330,14,-257,13,-13,19,14
8335,14,-258,10,-12,17,12
8340,13,-256,12,-10,16,12
8345,13,-256,12,-10,16,10
8350,14,-256,15,-13,16,9
8355,14,-257,9,-13,16,7
8360,12,-256,9,-14,14,7
8365,14,-255,11,-15,12,4
8370,14,-255,14,-19,12,6
8375,22,-257,12,-19,13,5
8380,13,-256,8,-21,14,6
8385,11,-254,13,-22,14,5
8390,15,-257,14,-25,16,7
8395,12,-255,11,-26,17,8
8400,16,-256,13,-25,18,10
8405,14,-257,13,-27,18,9
8410,14,-258,11,-23,16,9
8415,12,-258,16,-21,15,7
8420,11,-258,17,-17,14,7
8425,15,-242,7,-13,14,7
8430,14,-256,15,-9,11,5
8435,12,-256,15,-4,10,5
8440,14,-257,10,-3,9,4
8445,11,-256,13,2,6,3
8450,14,-255,10,4,7,0
8455,12,-256,11,5,5,1
8460,11,-257,8,6,4,0
8465,14,-257,12,7,4,-1
8470,13,-256,11,9,3,-2
8475,14,-256,16,9,1,-1
8480,22,-256,20,10,2,-2
8485,14,-256,13,9,2,-2
8490,12,-256,16,9,2,-2
8495,13,-255,15,8,1,-2
8500,11,-255,17,8,1,-3
8505,13,-255,14,9,2,-3
8510,13,-255,14,7,2,-4
8515,11,-256,13,4,2,-5
8520,13,-255,17,3,2,-5
8525,14,-256,14,0,4,-7
8530,17,-256,19,-1,6,-7
8535,12,-256,18,-3,8,-7
8540,13,-256,19,-3,8,-7
8545,15,-254,18,-3,10,-6
8550,14,-255,15,-4,10,-7
8555,14,-256,13,-2,11,-7
8560,14,-255,17,-4,9,-6
8565,13,-257,14,-2,10,-7
8570,13,-256,16,0,9,-6
8575,17,-256,14,3,8,-6
8580,13,-256,15,5,8,-5
8585,15,-254,18,7,10,-5
8590,13,-253,12,9,10,-4
8595,16,-255,18,10,12,-3
8600,14,-255,11,14,13,-5
8605,12,-255,16,15,15,-5
8610,13,-254,19,16,14,-5
8615,14,-256,16,15,16,-6
8620,10,-254,17,16,17,-6
8625,12,-253,19,14,16,-5
8630,15,-255,18,11,17,-5
8635,14,-255,18,11,17,-6
8640,13,-256,16,9,17,-5
8645,9,-255,20,8,16,-4
8650,11,-254,19,7,16,-5
8655,10,-255,14,7,18,-5
8660,9,-255,18,8,18,-5
8665,12,-254,17,6,19,-5
8670,12,-255,14,8,20,-5
8675,11,-256,14,5,20,-4
8680,11,-256,16,5,21,-5
8685,14,-254,14,5,20,-3
8690,11,-254,15,4,22,-3
8695,11,-252,16,4,21,-4
8700,15,-257,15,3,23,-4
8705,13,-254,16,1,24,-4
8710,13,-256,17,2,25,-6
8715,11,-257,17,1,26,-8
8720,13,-255,16,4,28,-10
8725,13,-255,17,4,28,-12
8730,13,-255,20,4,29,-13
8735,14,-253,16,6,30,-14
8740,12,-256,18,3,30,-17
8745,11,-253,16,3,30,-19
8750,9,-252,19,-2,31,-19
8755,13,-255,16,-5,33,-22
8760,13,-253,16,-10,35,-22
8765,12,-254,15,-16,38,-22
8770,12,-255,17,-19,41,-23
8775,11,-254,15,-20,47,-25
8780,15,-256,14,-19,49,-26
8785,13,-255,16,-17,52,-26
8790,15,-256,15,-14,53,-25
8795,12,-257,14,-14,54,-23
8800,10,-255,16,-11,53,-21
8805,10,-253,15,-13,50,-19
8810,8,-246,16,-14,48,-18
8815,14,-253,17,-16,44,-16
8820,13,-256,16,-18,42,-14
8825,12,-254,15,-22,38,-12
8830,8,-254,17,-23,34,-11
8835,14,-256,15,-25,33,-10
8840,12,-255,15,-24,29,-10
8845,13,-255,12,-25,26,-10
8850,15,-257,21,-23,27,-11
8855,12,-255,18,-22,26,-11
8860,13,-255,17,-21,26,-10
8865,12,-256,18,-17,27,-10
8870,11,-256,16,-15,28,-10
8875,13,-256,21,-12,30,-11
8880,10,-257,19,-10,32,-11
8885,11,-255,18,-8,33,-12
8890,12,-255,19,-9,34,-11
8895,13,-255,18,-9,35,-11
8900,12,-254,19,-9,35,-11
8905,15,-256,20,-11,35,-11
8910,9,-253,23,-11,34,-10
8915,11,-253,13,-12,33,-10
8920,11,-255,14,-15,32,-10
8925,9,-253,18,-17,30,-10
8930,9,-253,21,-19,29,-9
8935,9,-251,17,-21,28,-8
8940,12,-252,16,-25,30,-10
8945,15,-253,20,-27,27,-10
8950,8,-255,15,-32,25,-10
8955,10,-255,21,-33,23,-11
8960,8,-254,21,-35,21,-10
8965,14,-255,23,-37,20,-10
8970,10,-245,12,-37,17,-10
8975,9,-254,21,-35,14,-10
8980,11,-256,22,-33,11,-10
8985,8,-254,19,-33,9,-9
8990,12,-253,24,-34,7,-9
8995,9,-254,19,-33,4,-9
9000,11,-254,21,-34,3,-8
9005,11,-256,16,-34,2,-9
9010,9,-254,15,-33,1,-8
9015,9,-253,21,-31,-1,-9
9020,10,-256,19,-31,0,-9
9025,11,-265,28,-28,0,-8
9030,13,-254,22,-25,0,-9
9035,12,-255,19,-24,-1,-9
9040,13,-254,15,-22,-2,-10
9045,14,-254,19,-21,-2,-9
9050,11,-254,18,-20,-4,-10
9055,12,-251,19,-21,-7,-10
9060,14,-253,16,-22,-8,-7
9065,15,-255,18,-24,-10,-5
9070,16,-255,19,-26,-10,-3
9075,15,-255,22,-31,-12,-4
9080,13,-252,18,-34,-13,-4
9085,13,-253,19,-35,-14,-3
9090,13,-252,16,-34,-15,-2
9095,16,-256,18,-33,-15,-1
9100,15,-255,19,-30,-15,0
9105,11,-256,19,-31,-14,0
9110,14,-256,20,-26,-12,0
9115,12,-254,19,-26,-8,0
9120,12,-256,21,-28,-6,0
9125,14,-256,19,-30,-2,-2
9130,13,-255,20,-33,1,-4
9135,10,-254,20,-36,2,-4
9140,13,-252,16,-37,3,-3
9145,12,-253,20,-38,5,-4
9150,12,-255,23,-38,6,-5
9155,7,-254,22,-37,5,-6
9160,14,-256,22,-38,7,-6
9165,12,-255,19,-39,6,-6
9170,14,-255,19,-36,7,-5
9175,13,-252,18,-37,7,-5
9180,15,-255,22,-41,8,-5
9185,13,-252,23,-40,7,-4
9190,16,-255,18,-43,9,-6
9195,13,-254,19,-45,7,-5
9200,13,-255,16,-46,7,-5
9205,12,-250,18,-47,5,-5
9210,13,-255,21,-49,5,-4
9215,15,-252,24,-49,4,-2
9220,13,-251,22,-50,3,-3
9225,13,-255,22,-52,3,-4
9230,15,-251,22,-53,4,-2
9235,13,-252,19,-57,3,-2
9240,13,-254,16,-59,2,-3
9245,13,-254,20,-63,2,-4
9250,9,-250,18,-66,1,-4
9255,9,-249,19,-71,1,-3
9260,11,-251,21,-75,0,-3
9265,10,-252,20,-79,-1,-4
9270,9,-250,22,-84,-1,-4
9275,12,-253,20,-86,-3,-2
9280,11,-254,17,-90,-4,-1
9285,9,-254,20,-93,-4,0
9290,13,-256,18,-95,-4,0
9295,11,-256,19,-94,-3,0
9300,13,-253,16,-98,-3,0
9305,12,-253,22,-96,-3,1
9310,12,-255,14,-98,-2,2
9315,11,-255,20,-98,-2,2
9320,11,-254,16,-97,0,3
9325,14,-255,14,-99,-1,3
9330,13,-258,15,-96,1,1
9335,13,-255,16,-93,0,2
9340,12,-257,14,-92,1,1
9345,12,-255,20,-89,0,0
9350,13,-255,17,-85,-1,1
9355,9,-254,19,-84,0,2
9360,15,-255,17,-80,-2,2
9365,8,-255,16,-80,-3,2
9370,14,-255,19,-79,-4,4
9375,14,-256,18,-80,-6,3
9380,10,-253,15,-81,-10,5
9385,10,-252,16,-83,-11,6
9390,15,-254,20,-88,-12,7
9395,14,-252,18,-93,-16,7
9400,14,-253,15,-99,-17,7
9405,13,-253,16,-104,-19,10
9410,17,-255,16,-108,-20,11
9415,6,-254,16,-113,-20,11
9420,11,-253,15,-119,-18,12
9425,12,-255,16,-122,-19,12
9430,13,-255,13,-128,-19,13
9435,13,-253,15,-128,-17,13
9440,14,-255,17,-130,-15,12
9445,12,-256,17,-130,-13,10
9450,12,-259,15,-130,-11,8
9455,11,-256,17,-129,-9,6
9460,16,-257,12,-126,-6,4
9465,11,-260,13,-123,-3,2
9470,10,-258,15,-117,-2,1
9475,14,-257,13,-114,0,-2
9480,11,-257,13,-106,5,-2
9485,14,-257,9,-103,6,-5
9490,12,-258,15,-100,5,-8
9495,8,-257,10,-96,6,-8
9500,12,-255,12,-95,5,-8
9505,13,-256,11,-90,3,-10
9510,16,-258,14,-87,3,-12
9515,12,-257,12,-83,4,-11
9520,11,-255,13,-81,3,-11
9525,13,-254,14,-79,2,-12
9530,14,-256,14,-80,-1,-12
9535,9,-253,13,-80,-1,-11
9540,13,-254,18,-83,-2,-11
9545,13,-256,18,-88,-4,-10
9550,13,-255,10,-89,-3,-10
9555,13,-252,17,-94,-5,-12
9560,14,-255,13,-97,-3,-12
9565,14,-254,15,-101,-3,-12
9570,9,-264,25,-105,-1,-13
9575,12,-255,12,-108,0,-12
9580,10,-255,13,-112,0,-14
9585,13,-256,10,-115,0,-13
9590,14,-257,15,-117,1,-13
9595,14,-257,10,-116,4,-12
9600,13,-252,12,-114,4,-13
9605,13,-257,14,-112,6,-13
9610,15,-256,13,-108,8,-13
9615,12,-256,15,-107,8,-14
9620,16,-256,13,-102,9,-13
9625,15,-259,12,-100,10,-13
9630,15,-257,9,-96,8,-13
9635,14,-257,13,-93,8,-11
9640,14,-256,13,-91,8,-10
9645,14,-258,13,-91,7,-10
9650,11,-255,14,-90,4,-10
9655,13,-256,9,-93,6,-10
9660,15,-257,10,-93,5,-8
9665,15,-254,13,-92,7,-8
9670,11,-255,17,-95,6,-9
9675,11,-257,11,-95,8,-8
9680,14,-256,12,-96,8,-8
9685,15,-256,10,-98,9,-8
9690,13,-257,12,-97,9,-8
9695,13,-256,12,-96,11,-9
9700,12,-256,16,-95,11,-9
9705,12,-254,16,-93,8,-9
9710,11,-255,15,-94,8,-9
9715,13,-257,13,-93,8,-6
9720,14,-260,12,-93,7,-8
9725,14,-256,13,-93,7,-8
9730,12,-256,11,-93,8,-9
9735,16,-259,11,-92,11,-8
9740,15,-258,10,-89,14,-9
9745,13,-258,11,-87,16,-10
9750,15,-256,10,-84,16,-10
9755,15,-257,10,-82,19,-11
9760,14,-257,11,-75,21,-13
9765,15,-258,11,-74,21,-11
9770,14,-256,13,-70,22,-10
9775,14,-256,14,-70,21,-12
9780,15,-256,12,-67,21,-13
9785,15,-256,13,-64,20,-13
9790,14,-258,17,-64,19,-13
9795,14,-255,10,-65,15,-11
9800,11,-256,13,-65,14,-12
9805,13,-257,9,-66,13,-10
9810,12,-255,13,-66,11,-11
9815,13,-257,13,-63,11,-10
9820,12,-254,7,-63,11,-12
9825,13,-254,10,-62,10,-11
9830,13,-255,13,-61,11,-10
9835,17,-253,8,-58,10,-10
9840,14,-254,8,-59,9,-10
9845,14,-257,9,-62,12,-9
9850,12,-256,12,-66,14,-8
9855,13,-256,12,-68,15,-9
9860,12,-256,12,-69,17,-11
9865,16,-256,9,-71,18,-10
9870,14,-257,12,-74,19,-11
9875,12,-255,15,-71,17,-10
9880,13,-257,10,-70,17,-11
9885,10,-257,14,-68,17,-10
9890,12,-257,11,-63,16,-11
9895,12,-256,13,-60,14,-10
9900,13,-258,11,-57,15,-9
9905,10,-256,12,-53,17,-8
9910,13,-259,7,-48,16,-7
9915,12,-257,11,-44,17,-5
9920,12,-257,12,-41,15,-4
9925,14,-261,7,-38,16,-4
9930,13,-258,11,-32,14,-4
9935,10,-258,7,-30,14,-4
9940,16,-259,12,-27,13,-2
9945,13,-259,8,-26,12,-3
9950,14,-257,9,-25,12,-4
9955,14,-256,11,-23,11,-6
9960,13,-257,10,-24,13,-6
9965,10,-255,11,-25,13,-8
9970,14,-257,9,-25,16,-9
9975,14,-257,13,-28,18,-10
9980,14,-258,12,-28,20,-12
9985,14,-256,14,-31,22,-14
9990,11,-254,12,-33,24,-15
9995,12,-255,10,-35,26,-15
10000,12,-255,14,-35,25,-16
10005,12,-254,10,-36,25,-16
10010,7,-255,6,-35,24,-16
10015,10,-256,12,-33,24,-14
10020,15,-257,10,-31,23,-15
10025,10,-257,10,-30,22,-13
10030,10,-261,11,-28,20,-13
10035,12,-256,12,-27,18,-13
10040,12,-257,12,-25,16,-12
10045,14,-258,6,-24,16,-11
10050,15,-259,10,-24,14,-10
10055,14,-260,13,-22,13,-9
10060,13,-256,11,-20,11,-10
10065,11,-258,11,-18,11,-10
10070,12,-256,13,-17,10,-10
10075,14,-256,8,-16,10,-11
10080,17,-256,13,-17,8,-10
10085,12,-257,18,-16,8,-10
10090,12,-257,9,-20,8,-10
10095,14,-257,11,-20,7,-9
10100,12,-255,13,-20,9,-9
10105,15,-256,9,-20,7,-10
10110,13,-256,13,-20,6,-11
10115,22,-251,1,-21,6,-11
10120,14,-252,11,-23,5,-11
10125,12,-255,11,-25,3,-11
10130,15,-255,9,-26,2,-8
10135,16,-253,11,-29,2,-9
10140,14,-256,12,-33,3,-9
10145,15,-256,12,-37,6,-10
10150,14,-254,9,-39,7,-10
10155,11,-257,15,-43,7,-9
10160,12,-257,12,-44,6,-8
10165,12,-254,10,-47,7,-10
10170,23,-255,19,-48,7,-9
10175,14,-255,11,-48,7,-9
10180,13,-258,10,-49,7,-9
10185,13,-258,8,-49,6,-9
10190,14,-257,8,-48,7,-10
10195,16,-257,11,-46,7,-10
10200,14,-257,12,-44,7,-10
10205,15,-260,10,-39,7,-12
10210,15,-258,11,-37,8,-12
10215,14,-256,11,-34,8,-12
10220,17,-258,11,-33,6,-11
10225,14,-259,7,-28,8,-12
10230,14,-255,10,-27,8,-12
10235,15,-256,9,-25,9,-12
10240,16,-256,9,-26,9,-12
10245,15,-255,10,-23,11,-10
10250,15,-256,7,-24,11,-13
10255,13,-257,11,-26,14,-13
10260,14,-254,12,-28,16,-13
10265,13,-255,16,-31,17,-16
10270,14,-257,10,-32,19,-16
10275,13,-257,11,-33,20,-18
10280,13,-256,13,-35,19,-17
10285,14,-257,10,-35,20,-17
10290,14,-258,12,-34,21,-17
10295,14,-255,11,-33,19,-17
10300,16,-256,12,-30,17,-16
10305,15,-256,12,-27,18,-14
10310,18,-256,10,-23,15,-13
10315,13,-255,12,-19,15,-13
10320,11,-256,12,-16,14,-12
10325,14,-255,14,-13,14,-10
10330,16,-255,8,-12,13,-9
10335,13,-258,8,-13,13,-7
10340,16,-253,8,-14,13,-8
10345,13,-257,17,-14,12,-7
10350,15,-256,17,-17,12,-7
10355,15,-256,11,-20,11,-4
10360,14,-254,13,-22,12,-6
10365,17,-254,12,-24,12,-6
10370,15,-253,14,-25,12,-5
10375,15,-255,12,-28,14,-7
10380,17,-257,14,-29,15,-5
10385,14,-253,14,-31,14,-6
10390,16,-254,16,-32,16,-7
10395,14,-257,15,-32,17,-7
10400,12,-253,16,-33,18,-9
10405,17,-255,14,-32,17,-9
10410,12,-255,15,-32,18,-10
10415,14,-255,14,-32,19,-11
10420,13,-256,15,-32,20,-12
10425,13,-255,19,-31,20,-13
10430,16,-255,14,-32,22,-13
10435,13,-257,15,-30,22,-15
10440,13,-254,13,-33,23,-15
10445,16,-256,14,-33,23,-14
10450,14,-253,14,-35,23,-13
10455,10,-255,10,-37,24,-11
10460,10,-255,9,-40,26,-11
10465,14,-254,13,-44,27,-11
10470,13,-256,12,-48,26,-11
10475,17,-256,11,-51,29,-10
10480,16,-258,14,-53,29,-9
10485,13,-256,14,-53,28,-9
10490,13,-256,15,-52,28,-9
10495,17,-261,10,-51,28,-9
10500,15,-260,15,-47,28,-10
10505,17,-259,12,-41,28,-9
10510,14,-259,11,-35,26,-8
10515,11,-257,14,-28,25,-7
10520,16,-257,10,-23,24,-9
10525,13,-255,13,-18,23,-10
10530,16,-255,7,-17,22,-11
10535,13,-257,10,-14,21,-10
10540,17,-257,10,-12,21,-11
10545,16,-252,11,-12,19,-11
10550,14,-254,12,-11,18,-12
10555,18,-254,13,-11,19,-12
10560,14,-255,16,-9,19,-11
10565,16,-253,13,-13,21,-12
10570,15,-251,14,-16,23,-13
10575,16,-254,12,-21,26,-12
10580,14,-255,20,-27,27,-13
10585,14,-255,15,-29,28,-14
10590,14,-255,17,-33,30,-16
10595,13,-254,17,-34,28,-17
10600,16,-256,15,-36,27,-17
10605,12,-256,17,-36,27,-17
10610,14,-255,21,-37,24,-18
10615,14,-255,14,-35,23,-18
10620,16,-257,16,-35,23,-17
10625,12,-258,17,-34,25,-17
10630,12,-256,15,-30,23,-15
10635,15,-260,13,-28,22,-13
10640,14,-257,14,-24,22,-13
10645,16,-258,13,-23,19,-13
10650,14,-256,8,-21,17,-11
10655,18,-257,7,-20,16,-10
10660,17,-256,13,-19,15,-10
10665,11,-255,13,-18,15,-10
10670,11,-254,8,-18,13,-10
10675,20,-257,13,-18,12,-9
10680,16,-255,14,-19,12,-8
10685,17,-255,13,-17,12,-8
10690,16,-255,15,-18,13,-9
10695,17,-257,16,-18,15,-11
10700,14,-256,17,-18,15,-13
10705,19,-257,13,-18,17,-13
10710,13,-243,5,-19,18,-14
10715,18,-256,14,-20,19,-15
10720,17,-256,17,-21,19,-16
10725,16,-256,16,-21,18,-15
10730,14,-255,15,-20,18,-14
10735,16,-259,14,-21,17,-14
10740,15,-257,15,-20,16,-14
10745,13,-257,15,-19,14,-12
10750,15,-256,14,-20,14,-13
10755,14,-256,10,-19,13,-12
10760,14,-256,15,-16,14,-12
10765,15,-257,9,-14,14,-12
10770,15,-258,14,-13,15,-11
10775,15,-260,17,-13,17,-12
10780,15,-256,14,-13,21,-13
10785,16,-256,13,-16,22,-14
10790,18,-256,18,-15,25,-16
10795,15,-256,14,-17,27,-17
10800,14,-254,13,-19,28,-18
10805,15,-255,14,-19,29,-19
10810,17,-255,14,-21,30,-18
10815,13,-255,15,-22,31,-19
10820,17,-255,15,-22,28,-20
10825,13,-254,15,-19,25,-17
10830,15,-255,13,-18,21,-17
10835,16,-256,13,-15,16,-14
10840,15,-255,12,-15,13,-13
10845,15,-255,13,-13,10,-12
10850,17,-255,14,-13,7,-9
10855,12,-255,14,-10,6,-7
10860,13,-253,18,-8,5,-5
10865,15,-254,15,-8,3,-4
10870,15,-252,12,-10,3,-3
10875,16,-253,14,-12,2,-1
10880,14,-255,14,-13,1,-3
10885,15,-255,18,-18,0,-3
10890,17,-256,18,-18,0,-5
10895,16,-254,16,-18,0,-5
10900,15,-253,17,-18,1,-7
10905,16,-254,14,-18,1,-8
10910,13,-251,18,-20,3,-10
10915,14,-256,19,-23,4,-11
10920,18,-255,17,-24,5,-14
10925,16,-257,16,-27,5,-12
10930,15,-253,15,-31,5,-12
10935,16,-254,18,-34,3,-12
10940,15,-256,15,-36,3,-11
10945,15,-258,19,-38,1,-9
10950,15,-256,21,-37,-1,-9
10955,15,-256,16,-36,-1,-7
10960,16,-258,16,-34,-6,-3
10965,13,-258,10,-29,-6,-3
10970,14,-255,16,-26,-8,-2
10975,14,-254,13,-24,-10,-1
10980,14,-255,19,-22,-10,1
10985,16,-255,16,-20,-11,1
10990,19,-256,16,-20,-10,2
10995,14,-254,15,-20,-10,2
11000,15,-256,15,-19,-11,2
11005,16,-255,15,-21,-12,3
11010,14,-255,17,-21,-12,3
11015,16,-254,17,-21,-12,2
11020,16,-256,21,-21,-12,1
11025,16,-257,17,-22,-13,2
11030,13,-254,18,-24,-14,2
11035,16,-254,15,-24,-13,1
11040,12,-255,18,-22,-13,1
11045,14,-256,18,-21,-13,2
11050,16,-254,22,-20,-13,2
11055,17,-257,16,-18,-14,1
11060,17,-254,17,-19,-14,3
11065,16,-257,18,-14,-12,3
11070,16,-256,20,-11,-11,4
11075,14,-256,18,-10,-10,4
11080,14,-255,21,-7,-10,3
11085,19,-257,20,-4,-9,3
11090,17,-257,18,-2,-9,3
11095,12,-256,20,-2,-11,4
11100,17,-256,19,1,-12,5
11105,13,-253,19,1,-12,4
11110,15,-254,20,1,-12,4
11115,14,-254,14,0,-12,3
11120,15,-254,19,1,-13,2
11125,18,-256,15,-3,-11,1
11130,13,-256,17,-3,-9,0
11135,18,-254,19,-7,-7,-1
11140,17,-256,24,-7,-6,-4
11145,14,-255,22,-9,-6,-3
11150,15,-256,24,-9,-4,-4
11155,13,-256,18,-9,-5,-4
11160,18,-256,16,-8,-6,-6
11165,17,-255,20,-6,-6,-5
11170,13,-256,22,-4,-8,-5
11175,16,-256,19,-2,-10,-4
11180,19,-257,19,0,-12,-4
11185,14,-256,23,2,-12,-4
11190,13,-257,22,4,-14,-5
11195,15,-257,20,6,-16,-4
11200,15,-256,24,8,-18,-4
11205,14,-256,19,8,-19,-4
11210,12,-255,18,7,-19,-3
11215,14,-256,18,9,-20,-3
11220,14,-257,15,9,-20,-1
11225,15,-256,18,10,-21,-2
11230,13,-254,21,11,-20,-1
11235,13,-254,20,13,-21,0
11240,14,-253,22,13,-24,0
11245,15,-254,24,13,-25,2
11250,14,-252,18,8,-29,2
11255,13,-251,20,3,-32,6
11260,13,-251,17,-4,-34,6
11265,18,-255,18,-9,-37,9
11270,16,-254,22,-15,-41,9
11275,14,-254,19,-19,-45,11
11280,18,-254,17,-21,-47,14
11285,17,-252,17,-19,-50,15
11290,17,-251,15,-15,-52,16
11295,14,-253,22,-13,-51,17
11300,16,-253,14,-15,-52,17
11305,17,-257,20,-16,-51,15
11310,29,-256,23,-19,-51,16
11315,13,-256,19,-19,-50,12
11320,16,-258,19,-20,-51,11
11325,15,-258,16,-19,-54,9
11330,19,-261,20,-18,-58,7
11335,17,-256,22,-16,-60,6
11340,20,-259,22,-11,-62,4
11345,17,-257,24,-5,-64,3
11350,14,-253,20,1,-62,1
11355,15,-253,19,3,-61,-1
11360,15,-255,22,5,-58,-2
11365,18,-255,17,8,-54,-3
11370,17,-254,22,7,-52,-6
11375,13,-252,23,2,-48,-5
11380,17,-253,21,-3,-43,-7
11385,18,-253,19,-10,-37,-10
11390,15,-254,17,-15,-27,-11
11395,19,-253,19,-21,-16,-13
11400,15,-251,14,-27,-3,-16
11405,18,-251,22,-32,11,-19
11410,19,-253,19,-33,25,-22
11415,16,-251,18,-35,33,-24
11420,21,-253,19,-35,41,-26
11425,19,-251,27,-34,44,-29
11430,22,-256,22,-32,45,-30
11435,22,-253,21,-33,42,-30
11440,19,-251,22,-33,37,-29
11445,24,-254,21,-36,31,-27
11450,20,-253,24,-39,22,-26
11455,17,-253,24,-38,14,-23
11460,17,-253,24,-36,4,-21
11465,17,-254,26,-30,-5,-16
11470,15,-253,26,-22,-15,-10
11475,15,-251,22,-15,-23,-6
11480,16,-247,27,-8,-29,0
11485,15,-248,24,-4,-33,4
11490,16,-252,26,-2,-35,8
11495,15,-250,27,0,-37,12
11500,13,-249,27,-4,-35,13
11505,15,-246,28,-9,-33,15
11510,15,-245,29,-19,-30,17
11515,15,-248,22,-26,-26,17
11520,17,-251,21,-36,-22,15
11525,16,-247,30,-45,-20,15
11530,17,-251,24,-53,-17,13
11535,15,-252,26,-58,-16,11
11540,19,-253,24,-62,-15,9
11545,17,-253,26,-65,-14,8
11550,18,-255,19,-64,-16,7
11555,19,-256,23,-61,-18,7
11560,21,-258,24,-57,-20,6
11565,19,-255,25,-52,-24,7
11570,19,-255,24,-48,-26,5
11575,19,-253,24,-40,-28,6
11580,20,-253,24,-37,-29,5
11585,19,-253,22,-36,-30,6
11590,21,-254,20,-38,-29,6
11595,19,-253,24,-41,-29,7
11600,16,-253,24,-45,-28,8
11605,18,-256,18,-48,-26,7
11610,19,-255,23,-52,-25,7
11615,19,-254,25,-52,-26,9
11620,18,-256,22,-53,-27,8
11625,18,-255,24,-49,-27,10
11630,21,-256,28,-45,-28,12
11635,16,-255,24,-41,-29,14
11640,15,-256,26,-37,-31,14
11645,16,-255,24,-34,-33,14
11650,15,-254,27,-32,-34,14
11655,16,-255,24,-32,-35,14
11660,13,-251,20,-33,-38,15
11665,13,-253,23,-36,-39,15
11670,16,-252,28,-39,-41,15
11675,13,-253,25,-42,-42,16
11680,14,-251,27,-45,-46,19
11685,12,-249,26,-47,-49,20
11690,11,-251,27,-50,-51,24
11695,14,-250,26,-52,-54,25
11700,13,-249,26,-57,-58,28
11705,15,-251,27,-61,-63,29
11710,13,-246,25,-65,-70,33
11715,16,-248,27,-71,-75,35
11720,15,-250,24,-78,-78,37
11725,15,-250,23,-82,-84,37
11730,13,-250,21,-89,-88,39
11735,13,-251,26,-96,-91,39
11740,14,-252,24,-101,-93,39
11745,19,-255,26,-107,-96,40
11750,20,-254,24,-109,-97,39
11755,16,-254,20,-110,-96,37
11760,14,-255,19,-110,-98,37
11765,16,-256,22,-106,-97,36
11770,13,-255,21,-100,-97,36
11775,20,-256,20,-94,-97,36
11780,14,-256,24,-87,-95,34
11785,17,-255,21,-79,-94,33
11790,16,-256,21,-72,-93,31
11795,16,-255,20,-63,-91,31
11800,17,-255,21,-55,-89,30
11805,16,-261,20,-49,-88,30
11810,14,-255,23,-45,-85,31
11815,16,-256,22,-43,-83,32
11820,13,-253,21,-41,-82,31
11825,14,-253,22,-41,-80,31
11830,14,-253,25,-42,-81,32
11835,15,-252,22,-44,-82,32
11840,16,-252,26,-44,-80,32
11845,16,-254,20,-47,-83,32
11850,16,-251,21,-49,-84,34
11855,21,-249,28,-51,-84,35
11860,18,-255,24,-55,-86,35
11865,19,-253,23,-60,-84,36
11870,17,-252,22,-65,-84,36
11875,16,-253,21,-70,-84,35
11880,17,-253,24,-75,-85,35
11885,21,-253,22,-78,-84,35
11890,20,-255,26,-79,-84,36
11895,19,-253,20,-79,-82,33
11900,17,-256,20,-78,-80,31
11905,16,-257,22,-75,-76,30
11910,23,-256,31,-72,-71,30
11915,16,-256,20,-65,-68,30
11920,18,-255,23,-59,-64,29
11925,17,-256,25,-54,-59,30
11930,17,-255,20,-51,-57,29
11935,16,-253,27,-48,-55,30
11940,19,-254,26,-46,-50,30
11945,18,-255,26,-45,-48,31
11950,15,-253,21,-45,-48,31
11955,19,-253,21,-46,-47,31
11960,16,-254,26,-47,-45,32
11965,17,-252,23,-46,-45,30
11970,19,-253,21,-49,-40,31
11975,19,-253,21,-49,-39,31
11980,20,-254,22,-52,-35,28
11985,14,-253,26,-52,-33,29
11990,16,-254,23,-55,-31,29
11995,16,-255,20,-59,-29,27
