timestamp,acc_x,acc_y,acc_z,gyro_x,gyro_y,gyro_z
0,31,-246,29,29,0,-12
5,30,-243,30,29,-1,-10
10,30,-248,28,29,-2,-7
15,27,-245,31,29,-1,-6
20,30,-243,29,30,-1,-6
25,29,-245,29,33,-2,-4
30,29,-246,29,35,-3,-7
35,29,-245,30,36,-4,-6
40,29,-244,30,38,-3,-8
45,30,-247,31,39,-2,-6
50,28,-246,32,40,-3,-6
55,30,-245,32,39,-3,-7
60,30,-245,28,39,-2,-7
65,30,-245,27,38,-4,-9
70,31,-245,30,38,-4,-9
75,21,-238,27,38,-5,-7
80,31,-244,31,37,-6,-7
85,31,-240,32,39,-6,-7
90,31,-245,26,40,-9,-5
95,30,-242,28,40,-9,-5
100,34,-244,29,40,-9,-5
105,30,-245,27,40,-8,-5
110,31,-246,28,39,-8,-5
115,30,-243,28,36,-6,-4
120,27,-246,31,33,-4,-6
125,26,-245,28,31,-3,-7
130,30,-247,33,31,-1,-8
135,32,-247,25,33,0,-8
140,29,-247,28,37,1,-11
145,30,-243,29,43,3,-12
150,30,-246,28,49,6,-11
155,32,-243,26,53,6,-12
160,33,-245,30,54,8,-11
165,27,-245,33,54,7,-13
170,29,-244,28,50,6,-13
175,30,-246,28,48,5,-12
180,32,-247,30,45,3,-12
185,31,-245,24,44,1,-12
190,30,-246,28,45,1,-12
195,30,-243,26,48,2,-10
200,28,-242,30,51,4,-12
205,32,-246,30,54,6,-12
210,32,-244,28,58,8,-12
215,28,-242,31,59,9,-13
220,32,-247,31,60,9,-13
225,31,-248,30,59,8,-12
230,30,-242,29,54,8,-13
235,31,-247,28,49,7,-13
240,31,-244,26,45,4,-14
245,30,-246,25,39,3,-14
250,33,-244,28,34,2,-13
255,31,-246,28,31,2,-12
260,30,-246,28,28,1,-11
265,32,-249,28,28,1,-9
270,31,-246,28,31,2,-9
275,32,-247,28,38,4,-11
280,28,-246,29,44,6,-12
285,29,-250,27,52,10,-12
290,32,-246,30,59,12,-13
295,29,-251,25,66,14,-11
300,32,-245,29,72,14,-13
305,31,-246,28,76,16,-14
310,29,-242,26,77,19,-14
315,29,-246,27,78,18,-12
320,32,-244,29,75,17,-14
325,31,-244,31,72,17,-14
330,30,-244,31,68,14,-14
335,33,-246,26,64,11,-13
340,33,-247,34,58,8,-12
345,30,-244,27,53,8,-10
350,30,-244,30,48,7,-11
355,28,-244,28,44,7,-10
360,29,-248,27,41,7,-11
365,29,-249,31,40,9,-10
370,27,-247,29,42,8,-9
375,31,-247,32,42,9,-10
380,30,-246,31,46,10,-9
385,29,-247,31,48,10,-11
390,31,-247,27,52,12,-11
395,30,-249,26,54,12,-11
400,29,-246,31,56,14,-13
405,29,-246,26,57,15,-13
410,30,-246,25,57,15,-11
415,29,-244,29,59,16,-11
420,30,-244,26,58,16,-12
425,31,-245,29,57,16,-12
430,29,-245,29,57,13,-12
435,28,-246,30,56,14,-12
440,30,-247,28,55,14,-11
445,28,-242,29,52,12,-12
450,30,-246,30,53,11,-12
455,28,-247,28,53,9,-11
460,28,-245,30,55,10,-12
465,29,-246,34,59,10,-13
470,31,-245,27,64,10,-11
475,31,-247,27,69,10,-12
480,32,-242,29,73,12,-12
485,30,-246,29,74,12,-13
490,28,-244,27,74,10,-12
495,28,-246,30,71,9,-13
500,31,-243,26,66,8,-12
505,25,-247,27,61,6,-12
510,32,-246,25,54,4,-11
515,30,-247,24,47,4,-11
520,30,-240,25,42,4,-11
525,31,-246,28,37,2,-10
530,28,-242,24,36,2,-10
535,31,-246,29,35,1,-11
540,30,-246,30,37,1,-12
545,31,-243,32,42,2,-10
550,31,-246,28,46,3,-10
555,31,-246,31,52,3,-11
560,28,-244,32,57,4,-11
565,28,-247,25,61,7,-13
570,31,-247,29,64,8,-12
575,32,-247,28,67,9,-14
580,31,-246,28,67,10,-13
585,34,-248,26,66,10,-13
590,34,-244,28,65,11,-14
595,31,-244,30,63,11,-12
600,30,-244,29,60,10,-13
605,31,-242,28,59,9,-14
610,26,-245,24,56,8,-11
615,34,-243,31,53,7,-12
620,31,-242,32,53,6,-11
625,31,-245,31,51,6,-11
630,31,-245,31,52,5,-12
635,27,-242,28,53,5,-12
640,31,-242,30,54,7,-12
645,26,-246,29,55,7,-12
650,32,-242,26,57,8,-12
655,31,-245,28,59,8,-14
660,29,-244,26,59,9,-14
665,32,-245,29,60,9,-13
670,30,-241,31,60,11,-12
675,27,-243,27,59,13,-13
680,30,-247,26,59,13,-13
685,29,-244,28,56,15,-13
690,34,-248,26,55,15,-14
695,35,-247,28,55,14,-14
700,28,-246,31,56,15,-13
705,30,-244,28,59,16,-13
710,31,-245,27,59,16,-14
715,27,-250,20,60,15,-14
720,33,-246,29,61,15,-12
725,31,-247,32,63,15,-11
730,30,-244,29,64,15,-13
735,33,-245,28,64,16,-13
740,28,-242,27,64,17,-15
745,31,-245,31,63,16,-14
750,31,-244,29,61,17,-14
755,28,-244,26,62,18,-15
760,33,-245,28,63,17,-15
765,31,-245,29,62,18,-16
770,30,-247,30,62,17,-16
775,31,-250,29,64,18,-16
780,29,-245,29,65,18,-15
785,29,-246,29,67,18,-15
790,30,-242,30,69,18,-15
795,31,-247,27,70,19,-14
800,30,-246,29,70,19,-15
805,32,-245,33,70,20,-15
810,31,-245,25,69,18,-15
815,30,-246,29,67,18,-16
820,29,-242,28,67,17,-16
825,31,-245,26,64,16,-14
830,32,-247,28,61,16,-15
835,31,-243,31,58,16,-13
840,28,-244,27,57,14,-12
845,29,-246,28,56,15,-12
850,30,-246,30,56,14,-13
855,31,-243,29,55,15,-12
860,30,-248,30,53,15,-12
865,27,-246,25,52,15,-13
870,31,-248,26,51,16,-13
875,29,-245,33,51,16,-14
880,30,-244,31,52,16,-13
885,31,-244,32,52,16,-13
890,32,-245,32,51,14,-12
895,32,-245,30,55,12,-12
900,30,-245,30,57,13,-14
905,29,-245,31,58,13,-13
910,30,-246,27,62,11,-13
915,32,-249,27,64,10,-12
920,32,-244,29,65,10,-13
925,29,-245,33,67,10,-12
930,30,-249,29,66,12,-11
935,39,-246,42,67,12,-12
940,30,-246,20,67,13,-12
945,34,-235,25,67,15,-11
950,30,-246,27,68,16,-13
955,28,-244,31,69,14,-14
960,31,-246,31,70,15,-13
965,33,-248,31,70,15,-13
970,28,-244,27,69,15,-15
975,34,-246,31,72,15,-14
980,46,-251,36,73,13,-13
985,31,-245,31,75,13,-13
990,33,-244,29,77,12,-14
995,30,-243,30,78,13,-13
1000,32,-246,30,77,12,-13
1005,30,-244,29,76,10,-12
1010,31,-244,31,75,10,-11
1015,31,-245,31,74,10,-12
1020,30,-246,32,73,11,-12
1025,30,-247,31,69,12,-12
1030,30,-235,33,68,14,-11
1035,28,-242,24,69,15,-12
1040,31,-247,31,71,15,-13
1045,30,-246,32,74,16,-12
1050,32,-247,31,78,17,-13
1055,34,-246,29,82,17,-15
1060,30,-245,30,84,18,-13
1065,31,-245,27,85,19,-12
1070,29,-245,28,85,18,-12
1075,33,-248,28,84,17,-11
1080,31,-244,29,82,16,-11
1085,29,-245,31,81,15,-12
1090,33,-247,31,79,12,-13
1095,31,-244,29,78,10,-11
1100,31,-245,35,79,11,-11
1105,33,-244,31,80,10,-10
1110,30,-242,29,80,10,-11
1115,29,-243,32,81,12,-12
1120,30,-243,29,83,13,-11
1125,30,-245,33,85,15,-15
1130,31,-244,30,84,15,-13
1135,34,-247,31,83,16,-14
1140,30,-246,31,81,15,-13
1145,28,-248,22,76,14,-15
1150,31,-245,28,72,11,-13
1155,33,-245,31,68,11,-14
1160,32,-244,32,63,9,-14
1165,31,-243,25,60,7,-14
1170,32,-245,31,59,8,-12
1175,35,-247,31,57,7,-11
1180,32,-247,28,59,7,-12
1185,29,-248,27,63,8,-12
1190,32,-247,34,67,9,-12
1195,30,-246,29,70,11,-15
1200,32,-246,29,74,15,-14
1205,26,-250,29,80,18,-16
1210,28,-246,31,84,20,-18
1215,34,-246,31,89,23,-17
1220,30,-245,31,93,25,-18
1225,30,-243,31,94,27,-19
1230,33,-243,31,95,28,-18
1235,31,-245,29,95,26,-17
1240,28,-241,33,95,25,-15
1245,29,-242,33,94,21,-15
1250,35,-248,36,93,20,-13
1255,29,-243,31,92,16,-13
1260,31,-245,35,89,14,-12
1265,31,-243,30,87,12,-10
1270,29,-244,31,84,11,-10
1275,30,-247,29,82,10,-9
1280,28,-242,32,81,9,-10
1285,31,-247,30,80,10,-8
1290,30,-248,31,78,11,-10
1295,27,-245,29,78,13,-11
1300,28,-245,32,78,14,-11
1305,30,-245,32,77,14,-13
1310,30,-247,34,77,15,-13
1315,27,-243,30,77,16,-12
1320,29,-247,30,77,18,-14
1325,34,-244,27,75,18,-14
1330,31,-247,33,74,18,-14
1335,32,-245,31,72,18,-16
1340,29,-246,29,68,19,-15
1345,35,-245,37,65,19,-14
1350,31,-246,33,60,19,-13
1355,31,-241,36,57,18,-14
1360,31,-245,31,55,16,-14
1365,31,-245,31,54,14,-13
1370,30,-242,34,56,12,-13
1375,31,-245,34,60,11,-12
1380,31,-245,35,65,10,-11
1385,30,-245,36,69,8,-12
1390,29,-245,33,75,7,-11
1395,31,-244,33,79,7,-12
1400,31,-242,31,83,7,-11
1405,31,-243,32,84,7,-13
1410,31,-246,30,84,7,-14
1415,30,-242,27,82,7,-14
1420,30,-245,32,77,7,-13
1425,32,-244,32,73,8,-13
1430,33,-245,30,68,7,-13
1435,29,-243,31,63,7,-15
1440,29,-244,27,59,7,-14
1445,29,-244,30,56,7,-13
1450,32,-245,33,57,7,-13
1455,28,-245,30,57,8,-11
1460,28,-242,38,58,8,-11
1465,36,-246,26,60,9,-13
1470,30,-244,32,63,10,-12
1475,32,-247,36,65,10,-12
1480,29,-245,33,68,11,-12
1485,29,-245,29,70,11,-13
1490,32,-244,34,73,11,-14
1495,32,-248,29,77,12,-13
1500,32,-245,35,79,12,-14
1505,29,-244,32,81,12,-13
1510,31,-243,37,82,11,-15
1515,33,-243,31,81,11,-13
1520,31,-246,35,81,11,-12
1525,31,-245,33,80,9,-14
1530,33,-243,34,77,8,-13
1535,30,-245,33,73,7,-12
1540,30,-241,34,70,6,-11
1545,33,-245,31,67,7,-12
1550,31,-239,34,64,7,-10
1555,30,-244,35,62,8,-10
1560,30,-246,32,61,9,-12
1565,33,-244,33,61,9,-11
1570,39,-244,40,62,10,-11
1575,31,-244,32,63,12,-10
1580,31,-247,34,65,12,-11
1585,30,-245,35,67,12,-10
1590,32,-245,29,66,14,-11
1595,32,-248,32,66,14,-9
1600,27,-241,32,65,15,-10
1605,33,-244,29,64,15,-13
1610,30,-246,36,63,15,-12
1615,32,-248,35,63,17,-10
1620,30,-245,35,62,15,-11
1625,29,-244,33,61,13,-12
1630,32,-244,35,61,14,-12
1635,32,-244,33,62,14,-12
1640,30,-244,33,62,14,-10
1645,27,-245,30,63,14,-10
1650,29,-243,33,64,14,-10
1655,32,-244,37,64,14,-10
1660,30,-245,30,65,13,-9
1665,33,-247,37,66,14,-10
1670,28,-245,37,64,13,-7
1675,31,-245,34,65,13,-9
1680,31,-245,37,65,13,-12
1685,31,-245,37,64,13,-11
1690,32,-241,37,65,14,-10
1695,30,-245,33,64,13,-11
1700,30,-245,34,65,13,-13
1705,31,-242,35,64,13,-12
1710,30,-243,36,64,14,-12
1715,31,-243,35,66,15,-13
1720,26,-247,37,65,13,-12
1725,29,-246,32,64,13,-12
1730,30,-243,35,63,13,-13
1735,32,-244,33,62,13,-13
1740,32,-243,35,63,12,-13
1745,30,-246,39,62,12,-11
1750,29,-245,32,63,11,-13
1755,33,-246,32,64,10,-12
1760,29,-246,34,64,10,-11
1765,34,-243,35,64,11,-12
1770,29,-244,38,63,11,-13
1775,30,-245,34,65,12,-12
1780,31,-247,33,65,12,-12
1785,28,-248,28,66,14,-11
1790,32,-248,32,67,14,-12
1795,28,-244,33,67,14,-12
1800,28,-245,33,68,16,-11
1805,29,-244,36,69,17,-12
1810,29,-242,34,70,17,-13
1815,29,-245,33,72,16,-12
1820,29,-244,39,75,16,-13
1825,31,-247,32,76,16,-13
1830,30,-245,37,78,15,-11
1835,32,-246,32,79,14,-10
1840,29,-244,35,79,14,-13
1845,30,-246,32,79,13,-13
1850,29,-242,31,78,13,-11
1855,30,-242,35,79,14,-11
1860,30,-242,36,78,14,-13
1865,32,-247,38,78,14,-12
1870,27,-243,34,79,15,-11
1875,32,-246,36,79,15,-11
1880,30,-246,40,79,15,-11
1885,29,-245,36,77,14,-12
1890,27,-243,32,76,13,-12
1895,29,-239,34,74,12,-12
1900,32,-245,32,71,14,-12
1905,32,-241,34,71,15,-13
1910,32,-246,35,68,13,-13
1915,33,-246,36,65,13,-11
1920,31,-243,39,64,14,-13
1925,33,-244,35,62,14,-12
1930,31,-247,32,60,14,-12
1935,30,-246,36,58,14,-11
1940,28,-243,35,54,13,-11
1945,33,-245,32,55,13,-12
1950,33,-246,35,55,13,-12
1955,31,-241,33,54,15,-10
1960,31,-244,37,55,16,-12
1965,31,-244,35,55,18,-12
1970,32,-242,33,55,19,-13
1975,30,-247,40,58,19,-13
1980,31,-247,33,59,18,-15
1985,31,-243,34,59,18,-15
1990,32,-245,38,58,19,-15
1995,28,-238,34,56,18,-14
2000,37,-253,45,54,17,-13
2005,31,-243,40,52,17,-15
2010,30,-245,33,52,17,-15
2015,31,-245,32,52,18,-15
2020,30,-247,37,52,18,-15
2025,29,-243,35,51,19,-16
2030,31,-243,34,52,17,-15
2035,33,-248,34,53,17,-15
2040,28,-245,32,56,17,-15
2045,31,-244,38,61,18,-14
2050,30,-244,37,65,18,-13
2055,32,-245,36,68,16,-13
2060,31,-243,36,73,16,-12
2065,29,-247,35,75,14,-14
2070,31,-239,35,74,13,-13
2075,31,-242,33,72,11,-12
2080,31,-244,34,68,10,-14
2085,30,-243,29,65,9,-14
2090,28,-244,36,62,9,-14
2095,32,-241,36,60,8,-14
2100,30,-245,34,59,7,-14
2105,30,-242,32,58,8,-12
2110,31,-249,35,59,8,-11
2115,29,-250,33,60,8,-9
2120,31,-253,33,61,8,-10
2125,31,-252,31,61,9,-9
2130,33,-254,35,62,9,-11
2135,31,-251,32,62,11,-11
2140,32,-254,25,62,16,-12
2145,33,-254,30,66,18,-14
2150,33,-256,27,71,23,-15
2155,31,-256,24,77,25,-15
2160,36,-255,22,86,26,-14
2165,31,-255,23,98,27,-13
2170,34,-255,25,108,28,-10
2175,37,-255,21,117,28,-6
2180,35,-255,16,125,27,1
2185,35,-258,18,127,25,5
2190,38,-253,12,127,25,9
2195,37,-254,11,125,25,14
2200,36,-255,16,121,28,17
2205,37,-258,17,118,31,22
2210,39,-255,13,113,32,24
2215,33,-257,21,112,35,27
2220,32,-253,15,113,38,29
2225,30,-252,15,116,38,34
2230,32,-249,16,118,37,37
2235,30,-247,18,121,35,42
2240,29,-246,16,126,33,43
2245,22,-244,18,130,33,46
2250,23,-247,19,133,34,46
2255,25,-237,20,134,34,51
2260,27,-242,21,135,34,52
2265,21,-236,22,133,33,55
2270,24,-236,17,129,32,57
2275,22,-237,17,124,30,59
2280,25,-233,17,114,29,59
2285,25,-231,14,100,26,61
2290,24,-229,14,80,24,61
2295,24,-225,7,50,19,62
2300,25,-223,4,14,14,64
2305,26,-223,-1,-30,10,63
2310,25,-218,-5,-82,6,63
2315,30,-222,-4,-139,4,63
2320,26,-215,-10,-206,0,60
2325,31,-213,-7,-277,-2,57
2330,28,-215,-6,-350,-2,52
2335,31,-218,-4,-419,-2,50
2340,32,-221,-9,-481,-5,48
2345,33,-223,-14,-539,-12,47
2350,33,-223,-23,-593,-23,48
2355,29,-226,-28,-639,-38,50
2360,28,-225,-33,-683,-53,57
2365,33,-230,-41,-723,-66,62
2370,30,-226,-49,-756,-80,71
2375,29,-227,-52,-788,-91,81
2380,29,-223,-55,-815,-99,92
2385,27,-225,-61,-843,-105,103
2390,26,-220,-63,-875,-107,113
2395,23,-216,-67,-909,-111,121
2400,25,-215,-66,-943,-110,126
2405,23,-210,-66,-977,-109,129
2410,21,-209,-68,-1007,-107,128
2415,19,-202,-69,-1033,-102,131
2420,18,-196,-67,-1055,-98,136
2425,20,-196,-56,-1069,-95,144
2430,9,-195,-64,-1078,-97,155
2435,12,-184,-53,-1082,-101,164
2440,7,-175,-47,-1083,-112,174
2445,6,-171,-42,-1079,-129,186
2450,1,-164,-36,-1072,-150,198
2455,4,-162,-31,-1064,-175,209
2460,1,-155,-28,-1057,-199,216
2465,1,-152,-18,-1051,-222,223
2470,-1,-150,-16,-1045,-242,226
2475,2,-152,-12,-1039,-254,225
2480,9,-155,-6,-1030,-255,221
2485,14,-153,-13,-1022,-246,209
2490,19,-156,-11,-1015,-227,193
2495,26,-156,-9,-1010,-202,169
2500,29,-158,-7,-1005,-173,140
2505,37,-166,-9,-994,-140,103
2510,43,-166,-14,-973,-101,62
2515,52,-174,-21,-946,-61,11
2520,56,-173,-22,-910,-17,-43
2525,59,-175,-25,-869,34,-97
2530,64,-174,-33,-834,88,-149
2535,79,-182,-36,-808,149,-195
2540,73,-171,-46,-802,211,-234
2545,73,-169,-50,-824,270,-266
2550,72,-168,-55,-872,327,-286
2555,66,-168,-60,-947,376,-295
2560,61,-162,-64,-1047,416,-295
2565,56,-165,-66,-1164,439,-288
2570,49,-168,-67,-1292,448,-274
2575,42,-171,-66,-1419,441,-254
2580,36,-177,-65,-1539,419,-227
2585,28,-182,-57,-1639,383,-192
2590,20,-186,-54,-1713,335,-156
2595,13,-191,-56,-1756,276,-119
2600,5,-197,-52,-1769,213,-83
2605,1,-204,-57,-1753,146,-46
2610,-5,-210,-54,-1716,79,-9
2615,-13,-218,-54,-1660,15,22
2620,-18,-224,-57,-1591,-39,48
2625,-21,-231,-63,-1515,-88,71
2630,-25,-233,-66,-1438,-126,88
2635,-25,-239,-72,-1361,-157,101
2640,-24,-243,-71,-1285,-184,104
2645,-34,-249,-73,-1209,-201,100
2650,-22,-252,-76,-1143,-208,92
2655,-19,-254,-78,-1091,-210,82
2660,-14,-258,-78,-1051,-205,68
2665,-10,-259,-74,-1017,-193,52
2670,-2,-255,-70,-996,-175,40
2675,1,-257,-66,-981,-154,30
2680,9,-253,-62,-969,-131,22
2685,13,-249,-68,-972,-112,21
2690,25,-244,-57,-986,-93,23
2695,30,-236,-55,-998,-73,27
2700,33,-234,-53,-1017,-57,30
2705,42,-226,-48,-1042,-43,32
2710,48,-226,-51,-1060,-31,31
2715,52,-222,-51,-1072,-23,24
2720,52,-216,-51,-1073,-17,20
2725,55,-214,-52,-1055,-12,12
2730,56,-210,-60,-1034,-6,14
2735,59,-209,-62,-1014,0,24
2740,57,-204,-68,-986,11,31
2745,54,-207,-75,-956,19,33
2750,50,-208,-81,-941,24,36
2755,52,-208,-91,-942,27,34
2760,46,-208,-95,-948,30,30
2765,40,-212,-97,-945,37,19
2770,30,-216,-110,-957,39,10
2775,29,-227,-111,-992,37,10
2780,24,-231,-115,-1036,33,12
2785,18,-240,-124,-1077,31,15
2790,15,-245,-126,-1121,31,17
2795,7,-250,-130,-1161,37,10
2800,0,-254,-131,-1199,36,8
2805,-2,-265,-136,-1228,31,12
2810,-6,-265,-143,-1243,30,16
2815,-5,-267,-147,-1273,27,29
2820,-2,-270,-138,-1296,24,38
2825,-4,-276,-147,-1292,33,35
2830,-7,-274,-157,-1310,32,42
2835,-4,-274,-150,-1352,21,61
2840,1,-270,-151,-1357,16,64
2845,-1,-275,-156,-1341,15,60
2850,1,-271,-152,-1334,12,72
2855,7,-271,-150,-1308,9,81
2860,6,-278,-163,-1262,-3,78
2865,14,-266,-154,-1210,-20,68
2870,20,-262,-153,-1152,-34,58
2875,29,-257,-151,-1089,-45,38
2880,30,-250,-163,-1011,-54,12
2885,24,-248,-182,-953,-64,-12
2890,26,-244,-188,-956,-79,-24
2895,33,-249,-185,-1002,-92,-24
2900,36,-254,-189,-1045,-92,-21
2905,36,-250,-181,-1057,-79,-12
2910,36,-254,-181,-1013,-58,-5
2915,29,-248,-187,-930,-26,0
2920,27,-249,-184,-831,-1,1
2925,18,-249,-186,-722,18,7
2930,18,-252,-189,-607,22,3
2935,18,-254,-192,-493,12,4
2940,14,-257,-195,-383,-3,7
2945,14,-257,-195,-273,-20,12
2950,18,-263,-195,-158,-28,20
2955,16,-263,-198,-44,-33,20
2960,12,-262,-196,56,-38,19
2965,5,-262,-199,153,-37,23
2970,12,-263,-199,247,-33,33
2975,12,-262,-198,334,-30,42
2980,13,-261,-197,426,-26,46
2985,13,-261,-196,512,-18,57
2990,13,-261,-198,593,-10,61
2995,14,-263,-196,671,-5,62
3000,15,-259,-196,753,-2,60
3005,17,-256,-193,853,8,58
3010,20,-258,-190,963,17,56
3015,19,-255,-187,1076,25,55
3020,23,-252,-185,1191,28,56
3025,25,-249,-186,1298,32,57
3030,24,-246,-189,1388,31,57
3035,27,-245,-190,1452,23,65
3040,22,-241,-189,1502,15,74
3045,23,-241,-191,1527,7,86
3050,25,-248,-192,1539,-4,94
3055,22,-252,-188,1546,-13,100
3060,22,-255,-188,1563,-15,101
3065,20,-260,-179,1593,-8,98
3070,11,-262,-179,1651,10,97
3075,18,-261,-168,1727,33,93
3080,15,-260,-158,1814,60,85
3085,14,-257,-152,1898,87,78
3090,10,-256,-145,1966,106,70
3095,10,-256,-133,2021,117,64
3100,12,-255,-124,2068,122,57
3105,10,-252,-117,2105,120,49
3110,10,-254,-107,2127,116,40
3115,9,-255,-106,2133,107,32
3120,10,-251,-100,2116,97,25
3125,6,-254,-94,2078,86,25
3130,11,-256,-93,2030,68,25
3135,7,-256,-93,1971,54,29
3140,12,-261,-94,1899,44,36
3145,7,-264,-88,1819,32,39
3150,9,-271,-84,1740,24,37
3155,14,-270,-79,1664,24,35
3160,14,-276,-72,1597,33,32
3165,11,-285,-72,1549,50,26
3170,11,-286,-63,1526,69,18
3175,16,-292,-57,1524,87,11
3180,14,-287,-53,1541,103,4
3185,15,-285,-44,1568,124,-1
3190,15,-283,-41,1600,141,-6
3195,19,-278,-32,1632,156,-11
3200,26,-274,-22,1665,168,-13
3205,26,-267,-21,1693,182,-13
3210,26,-260,-20,1715,191,-10
3215,26,-250,-12,1731,199,-5
3220,32,-251,-12,1741,205,6
3225,29,-240,-8,1742,208,18
3230,29,-231,-9,1729,212,29
3235,31,-223,-5,1707,212,40
3240,29,-219,-4,1670,208,45
3245,29,-214,0,1623,196,44
3250,30,-210,5,1568,184,41
3255,24,-202,4,1513,169,28
3260,27,-201,16,1457,161,12
3265,22,-200,13,1400,156,-4
3270,24,-200,15,1342,158,-18
3275,24,-203,20,1280,167,-29
3280,22,-204,17,1220,180,-36
3285,21,-207,17,1162,197,-48
3290,24,-207,14,1106,213,-59
3295,23,-211,13,1060,220,-70
3300,20,-216,17,1023,218,-85
3305,20,-222,14,990,206,-100
3310,19,-226,11,972,193,-113
3315,20,-230,11,960,172,-125
3320,22,-231,7,950,149,-136
3325,20,-238,6,950,128,-145
3330,21,-239,9,960,106,-152
3335,35,-241,4,979,87,-153
3340,20,-247,6,1004,70,-155
3345,18,-249,8,1030,56,-157
3350,20,-249,9,1049,44,-160
3355,20,-254,9,1064,32,-163
3360,16,-248,9,1075,23,-166
3365,18,-249,9,1079,15,-171
3370,19,-249,11,1078,10,-173
3375,17,-248,9,1067,4,-176
3380,18,-246,8,1048,-1,-175
3385,16,-239,7,1023,-5,-173
3390,18,-242,8,997,-6,-169
3395,23,-249,5,969,-5,-164
3400,17,-246,9,939,2,-158
3405,17,-248,12,911,8,-154
3410,23,-249,13,883,17,-147
3415,22,-249,14,858,30,-139
3420,21,-245,16,834,41,-132
3425,25,-248,13,812,55,-122
3430,28,-248,14,796,68,-110
3435,29,-248,14,780,81,-96
3440,29,-245,19,766,95,-80
3445,31,-243,23,749,109,-65
3450,32,-242,21,733,119,-52
3455,37,-240,25,716,131,-38
3460,36,-239,25,697,142,-28
3465,36,-235,27,681,156,-21
3470,33,-235,26,658,168,-17
3475,33,-233,30,630,181,-9
3480,31,-234,36,600,192,-6
3485,30,-228,34,565,202,0
3490,35,-230,34,531,210,5
3495,33,-230,37,493,216,8
3500,34,-226,33,456,219,14
3505,32,-228,34,420,222,19
3510,34,-231,37,385,223,21
3515,30,-232,36,351,222,28
3520,33,-232,31,320,219,30
3525,28,-232,33,291,214,31
3530,30,-234,34,265,209,31
3535,24,-238,32,245,200,28
3540,27,-239,40,229,192,22
3545,25,-236,40,218,181,18
3550,24,-241,39,208,170,10
3555,26,-240,42,199,158,1
3560,25,-240,42,190,145,-7
3565,23,-240,38,183,130,-12
3570,16,-236,44,170,116,-16
3575,21,-240,44,154,103,-14
3580,17,-239,43,139,89,-12
3585,17,-238,44,123,75,-8
3590,16,-237,44,108,60,-2
3595,19,-239,41,94,48,5
3600,19,-243,44,80,34,7
3605,17,-242,42,67,23,7
3610,16,-240,44,55,13,6
3615,20,-241,41,44,4,5
3620,20,-242,39,38,-6,5
3625,19,-243,42,32,-15,9
3630,18,-240,39,28,-24,13
3635,18,-243,35,23,-31,18
3640,19,-242,41,19,-38,23
3645,22,-240,36,15,-45,30
3650,22,-241,37,6,-51,33
3655,19,-242,36,-5,-53,39
3660,19,-236,36,-18,-56,45
3665,22,-241,30,-33,-58,51
3670,22,-238,34,-50,-59,56
3675,21,-238,30,-67,-62,61
3680,20,-237,28,-82,-62,66
3685,22,-240,33,-96,-63,70
3690,20,-242,28,-107,-62,74
3695,21,-243,31,-116,-60,75
3700,23,-244,29,-118,-59,76
3705,21,-241,31,-116,-59,78
3710,21,-249,25,-109,-57,79
3715,26,-251,28,-98,-55,81
3720,23,-245,25,-86,-52,79
3725,18,-246,27,-72,-52,79
3730,23,-249,26,-54,-51,77
3735,24,-250,24,-36,-50,73
3740,23,-250,27,-21,-52,71
3745,19,-251,27,-3,-53,68
3750,24,-253,26,16,-57,63
3755,24,-254,26,36,-59,60
3760,25,-252,26,54,-61,56
3765,19,-254,24,71,-62,50
3770,24,-254,24,81,-59,41
3775,25,-252,24,89,-56,35
3780,46,-256,18,91,-55,29
3785,27,-254,23,79,-67,1
3790,23,-252,29,76,-64,-10
3795,16,-248,24,76,-54,-8
3800,17,-251,25,79,-46,0
3805,17,-249,25,83,-41,4
3810,17,-250,23,83,-40,8
3815,16,-248,21,85,-42,9
3820,14,-246,17,88,-41,11
3825,9,-242,13,91,-42,15
3830,15,-249,20,98,-42,13
3835,16,-243,17,101,-43,16
3840,13,-242,18,105,-46,14
3845,15,-244,19,107,-53,10
3850,15,-244,17,107,-60,5
3855,14,-240,18,104,-66,-1
3860,13,-239,23,100,-70,-4
3865,13,-242,19,93,-75,-7
3870,15,-239,20,83,-75,-9
3875,16,-242,21,70,-75,-13
3880,15,-242,18,58,-75,-14
3885,18,-242,23,44,-73,-15
3890,14,-244,21,29,-70,-18
3895,13,-242,20,14,-65,-19
3900,20,-241,22,-1,-60,-21
3905,15,-245,20,-15,-55,-22
3910,12,-243,21,-28,-51,-21
3915,16,-246,23,-37,-45,-21
3920,18,-247,22,-45,-40,-22
3925,17,-249,18,-52,-35,-22
3930,8,-253,17,-59,-30,-22
3935,16,-251,23,-63,-28,-23
3940,19,-253,22,-68,-24,-23
3945,16,-253,26,-73,-22,-25
3950,17,-253,24,-76,-20,-27
3955,16,-251,24,-78,-18,-30
3960,20,-255,22,-77,-17,-33
3965,20,-252,21,-75,-13,-35
3970,22,-253,23,-71,-11,-38
3975,19,-253,24,-62,-10,-40
3980,20,-254,24,-55,-7,-44
3985,22,-249,20,-50,-5,-43
3990,21,-251,18,-45,-3,-45
3995,22,-251,21,-39,1,-46
4000,22,-247,19,-36,6,-47
4005,24,-248,20,-33,9,-48
4010,23,-247,22,-30,12,-50
4015,22,-248,20,-26,16,-50
4020,23,-249,19,-21,18,-49
4025,20,-246,22,-15,17,-51
4030,23,-247,20,-10,18,-52
4035,22,-244,22,-1,18,-54
4040,18,-246,23,7,17,-55
4045,27,-250,20,17,16,-58
4050,20,-247,22,27,12,-59
4055,22,-248,19,34,11,-62
4060,19,-246,23,39,12,-64
4065,24,-249,17,44,13,-66
4070,18,-248,19,47,16,-67
4075,23,-245,16,50,19,-70
4080,22,-245,18,50,23,-69
4085,21,-245,20,50,26,-70
4090,21,-249,21,48,30,-72
4095,21,-247,22,46,32,-71
4100,20,-246,22,45,35,-70
4105,22,-248,18,43,34,-72
4110,24,-247,18,41,34,-70
4115,22,-247,21,38,33,-69
4120,20,-247,25,33,33,-68
4125,21,-246,20,28,33,-68
4130,23,-247,20,21,32,-67
4135,23,-247,19,16,35,-65
4140,24,-247,18,9,35,-64
4145,23,-248,19,2,36,-64
4150,24,-247,19,-5,38,-63
4155,23,-247,15,-13,39,-61
4160,25,-249,19,-19,40,-60
4165,27,-252,20,-23,41,-59
4170,25,-248,14,-25,43,-55
4175,22,-250,16,-25,44,-54
4180,24,-249,19,-22,45,-54
4185,23,-249,14,-18,44,-53
4190,22,-247,18,-12,44,-50
4195,23,-245,23,-6,43,-49
4200,24,-248,17,2,41,-47
4205,22,-247,22,8,39,-46
4210,21,-245,16,16,36,-42
4215,24,-245,15,19,34,-42
4220,26,-247,18,23,32,-41
4225,24,-248,16,25,31,-42
4230,25,-250,20,28,29,-42
4235,24,-247,20,29,24,-42
4240,22,-245,16,31,20,-41
4245,23,-244,31,31,19,-41
4250,23,-234,16,33,18,-42
4255,24,-246,20,34,18,-43
4260,23,-244,21,35,17,-41
4265,23,-246,21,37,18,-39
4270,27,-246,25,40,17,-37
4275,27,-248,20,40,17,-34
4280,29,-248,16,41,17,-34
4285,27,-248,17,42,17,-33
4290,26,-245,16,42,16,-31
4295,24,-245,18,44,16,-28
4300,22,-248,17,46,14,-27
4305,27,-250,21,47,10,-25
4310,25,-248,18,48,7,-26
4315,28,-248,15,49,6,-23
4320,27,-250,18,49,3,-23
4325,23,-247,20,51,2,-22
4330,29,-252,15,52,-1,-23
4335,28,-250,20,54,-1,-22
4340,29,-245,21,58,-1,-20
4345,25,-250,24,63,-1,-18
4350,23,-248,14,68,-1,-17
4355,24,-251,18,75,-2,-15
4360,25,-248,19,82,-2,-12
4365,26,-248,20,89,-3,-13
4370,26,-247,19,96,-5,-9
4375,23,-246,19,99,-4,-9
4380,27,-247,16,100,-5,-6
4385,27,-248,18,98,-4,-7
4390,24,-246,22,93,-5,-4
4395,25,-247,19,89,-2,-3
4400,26,-249,17,87,-2,-3
4405,26,-248,19,85,-2,-3
4410,24,-248,20,83,-2,-3
4415,25,-246,16,83,-3,-3
4420,24,-246,17,86,-3,-2
4425,24,-249,17,89,-2,-4
4430,26,-247,18,90,-2,-3
4435,25,-247,16,92,-2,-3
4440,23,-246,20,92,1,-2
4445,23,-246,19,92,2,-1
4450,23,-244,16,90,5,1
4455,22,-246,20,90,7,2
4460,24,-243,17,88,6,1
4465,19,-251,19,88,8,3
4470,25,-247,19,88,7,2
4475,23,-245,22,87,5,4
4480,25,-250,21,87,5,5
4485,24,-244,23,85,3,6
4490,23,-246,25,84,2,6
4495,21,-247,19,82,1,6
4500,25,-246,20,82,-1,6
4505,23,-247,23,83,-1,7
4510,23,-245,20,85,0,6
4515,22,-247,19,87,0,7
4520,25,-247,21,90,1,6
4525,26,-248,20,92,3,8
4530,22,-245,20,93,4,9
4535,22,-246,20,94,7,10
4540,24,-250,20,92,7,10
4545,25,-248,19,91,9,11
4550,23,-249,19,91,9,13
4555,24,-248,24,91,9,12
4560,25,-248,20,93,8,13
4565,26,-250,18,95,8,14
4570,26,-251,20,102,6,14
4575,25,-249,24,110,2,12
4580,22,-250,21,116,4,12
4585,26,-249,18,122,5,11
4590,25,-247,24,129,7,10
4595,25,-249,19,135,9,13
4600,24,-247,17,140,12,12
4605,26,-248,24,146,14,15
4610,27,-249,24,149,15,14
4615,23,-248,22,155,17,11
4620,21,-246,20,160,17,10
4625,25,-249,22,165,18,10
4630,24,-247,22,167,18,8
4635,26,-245,20,168,18,7
4640,24,-246,22,166,16,7
4645,21,-245,25,159,13,6
4650,23,-244,23,150,12,6
4655,24,-243,25,141,11,2
4660,24,-244,26,130,11,-1
4665,22,-245,22,120,13,-2
4670,24,-246,27,111,15,-4
4675,21,-244,26,101,16,-5
4680,24,-236,28,93,17,-6
4685,23,-247,24,86,18,-8
4690,20,-247,23,82,17,-7
4695,23,-245,25,79,17,-7
4700,19,-247,23,82,16,-10
4705,20,-250,20,85,15,-8
4710,22,-253,26,92,13,-8
4715,21,-246,24,99,13,-8
4720,21,-248,27,106,11,-8
4725,18,-246,25,112,9,-10
4730,21,-245,25,117,6,-10
4735,19,-246,25,120,2,-11
4740,23,-247,23,120,1,-10
4745,21,-244,25,118,0,-11
4750,21,-246,26,114,1,-12
4755,23,-246,24,109,1,-12
4760,22,-246,24,103,3,-11
4765,20,-244,23,95,4,-12
4770,19,-245,28,85,7,-13
4775,22,-244,26,75,8,-13
4780,20,-259,18,66,10,-14
4785,16,-240,10,59,12,-13
4790,21,-245,26,53,13,-13
4795,23,-248,22,51,13,-13
4800,23,-249,26,52,14,-12
4805,23,-247,20,54,13,-11
4810,25,-245,23,58,10,-13
4815,23,-247,21,62,9,-14
4820,23,-249,22,66,7,-12
4825,24,-247,25,68,6,-12
4830,22,-246,26,67,3,-13
4835,26,-248,24,66,2,-15
4840,23,-248,25,64,2,-16
4845,24,-246,26,64,1,-15
4850,22,-244,23,61,1,-16
4855,25,-249,23,59,2,-16
4860,23,-246,27,57,4,-15
4865,22,-247,24,57,6,-15
4870,20,-248,26,56,8,-13
4875,25,-248,23,56,10,-12
4880,22,-248,25,57,10,-13
4885,26,-248,22,56,11,-14
4890,21,-241,22,55,12,-14
4895,23,-246,23,54,13,-13
4900,25,-246,22,56,13,-10
4905,21,-246,24,59,13,-10
4910,25,-246,24,61,13,-8
4915,24,-248,23,62,13,-9
4920,20,-244,26,65,14,-8
4925,20,-244,22,68,14,-8
4930,23,-247,25,71,14,-8
4935,22,-247,25,73,15,-8
4940,24,-248,20,73,15,-8
4945,24,-247,22,73,14,-9
4950,23,-249,24,74,14,-9
4955,25,-248,27,75,13,-9
4960,22,-250,25,77,13,-8
4965,23,-245,26,78,16,-9
4970,23,-246,27,78,17,-8
4975,21,-246,26,78,20,-7
4980,25,-248,26,78,22,-10
4985,23,-247,26,77,25,-8
4990,24,-247,28,74,26,-9
4995,19,-246,25,72,26,-9
5000,21,-242,25,71,24,-10
5005,23,-243,22,71,22,-9
5010,22,-244,23,71,20,-7
5015,24,-246,27,73,19,-11
5020,25,-248,28,75,17,-12
5025,23,-248,25,79,13,-13
5030,21,-245,29,81,11,-12
5035,21,-246,28,82,8,-13
5040,23,-245,31,80,8,-11
5045,20,-246,26,77,6,-10
5050,22,-244,26,73,6,-12
5055,23,-243,28,68,7,-12
5060,21,-245,26,62,9,-13
5065,21,-245,28,58,11,-15
5070,23,-244,27,55,11,-14
5075,20,-248,31,51,12,-15
5080,22,-247,32,48,12,-19
5085,23,-248,31,46,14,-19
5090,22,-246,30,46,15,-20
5095,23,-249,27,47,15,-19
5100,22,-246,30,48,16,-21
5105,21,-246,28,51,17,-23
5110,22,-248,29,52,18,-24
5115,24,-244,27,53,19,-25
5120,23,-246,24,50,18,-26
5125,22,-245,27,48,18,-27
5130,25,-245,25,45,17,-25
5135,25,-245,28,41,18,-26
5140,24,-247,28,35,16,-23
5145,24,-246,30,29,16,-25
5150,23,-245,27,26,14,-25
5155,21,-248,25,20,12,-24
5160,20,-246,27,18,9,-22
5165,23,-249,23,21,8,-21
5170,20,-248,24,25,4,-23
5175,23,-250,23,33,1,-24
5180,24,-249,29,43,-2,-26
5185,22,-251,23,53,-4,-25
5190,22,-246,22,62,-5,-27
5195,22,-249,24,71,-4,-29
5200,21,-246,23,79,-3,-30
5205,23,-248,20,86,-3,-32
5210,22,-244,26,91,-2,-31
5215,24,-246,26,95,0,-30
5220,22,-247,23,97,1,-31
5225,22,-245,24,96,1,-31
5230,26,-248,25,93,4,-32
5235,25,-242,27,89,3,-30
5240,23,-244,27,82,4,-28
5245,21,-243,27,75,2,-27
5250,23,-244,29,70,2,-26
5255,23,-242,21,65,2,-23
5260,24,-245,31,63,0,-20
5265,23,-245,29,60,-1,-18
5270,24,-246,24,59,-1,-16
5275,22,-245,25,57,-2,-16
5280,21,-244,26,58,-3,-15
5285,22,-246,27,59,-3,-17
5290,23,-247,29,58,-5,-18
5295,25,-246,26,59,-7,-19
5300,24,-243,26,59,-6,-19
5305,25,-246,27,61,-8,-19
5310,26,-244,29,61,-7,-21
5315,23,-245,30,61,-8,-22
5320,28,-249,25,61,-7,-24
5325,28,-242,28,58,-5,-22
5330,26,-245,27,57,-6,-21
5335,23,-244,30,56,-3,-22
5340,26,-246,28,55,-3,-22
5345,26,-246,25,54,-2,-21
5350,25,-244,29,55,-2,-22
5355,26,-246,29,54,-1,-22
5360,26,-244,27,55,-2,-22
5365,27,-245,29,56,-2,-22
5370,27,-249,32,57,-2,-22
5375,27,-247,27,57,-2,-21
5380,27,-248,28,58,1,-21
5385,25,-248,26,56,4,-22
5390,22,-245,27,57,5,-21
5395,26,-247,25,55,6,-18
5400,25,-246,27,55,5,-19
5405,25,-247,28,55,5,-17
5410,23,-245,28,54,4,-17
5415,24,-246,27,54,4,-14
5420,25,-244,27,54,4,-15
5425,31,-245,25,52,3,-14
5430,24,-246,27,51,4,-14
5435,24,-250,25,51,3,-12
5440,25,-243,24,51,2,-12
5445,23,-246,26,52,2,-10
5450,25,-248,24,53,3,-11
5455,24,-244,30,53,5,-14
5460,24,-244,25,51,7,-14
5465,23,-244,24,49,10,-15
5470,24,-245,26,46,11,-16
5475,22,-245,25,44,13,-15
5480,23,-246,28,42,14,-15
5485,22,-243,26,40,14,-16
5490,24,-243,24,38,15,-17
5495,28,-249,27,36,14,-17
5500,25,-246,29,33,13,-14
5505,25,-244,25,31,11,-15
5510,27,-250,27,28,10,-14
5515,26,-246,25,25,8,-12
5520,25,-243,27,21,5,-12
5525,27,-247,26,20,4,-11
5530,24,-250,29,20,4,-11
5535,28,-247,24,18,4,-11
5540,25,-246,23,17,3,-12
5545,23,-244,24,14,4,-12
5550,26,-245,24,15,4,-11
5555,22,-248,26,17,4,-12
5560,27,-250,28,19,3,-11
5565,22,-245,28,22,2,-12
5570,23,-246,24,25,1,-12
5575,24,-249,26,27,1,-14
5580,23,-245,24,27,0,-13
5585,22,-246,24,26,1,-11
5590,21,-247,22,25,0,-13
5595,22,-245,24,22,-1,-12
5600,24,-247,26,17,-1,-13
5605,22,-242,26,13,0,-12
5610,21,-245,25,7,0,-12
5615,24,-245,25,2,0,-12
5620,21,-244,21,-1,3,-12
5625,24,-246,22,-2,4,-13
5630,23,-249,28,0,7,-13
5635,23,-248,26,7,7,-12
5640,22,-247,27,14,8,-12
5645,25,-249,25,24,10,-13
5650,22,-252,24,35,10,-13
5655,27,-249,25,46,9,-12
5660,26,-247,23,58,9,-14
5665,24,-248,27,69,7,-14
5670,26,-247,26,81,6,-14
5675,27,-247,23,89,6,-13
5680,26,-249,26,96,5,-13
5685,26,-246,23,102,3,-11
5690,31,-249,21,105,3,-12
5695,26,-244,22,105,2,-13
5700,24,-247,21,95,4,-10
5705,30,-247,30,83,5,-7
5710,24,-243,26,92,6,-10
5715,24,-245,27,96,7,-11
5720,30,-246,25,94,8,-11
5725,25,-246,25,90,9,-12
5730,26,-247,26,90,8,-13
5735,23,-247,23,88,8,-14
5740,24,-238,22,86,10,-13
5745,20,-250,29,86,11,-15
5750,25,-247,25,88,12,-15
5755,22,-245,26,88,12,-14
5760,24,-247,25,86,12,-16
5765,26,-249,24,89,12,-15
5770,21,-248,24,89,12,-15
5775,24,-245,24,90,13,-15
5780,24,-250,25,90,16,-14
5785,27,-245,25,90,15,-12
5790,24,-247,27,90,17,-13
5795,24,-246,27,89,17,-12
5800,23,-243,24,91,18,-10
5805,25,-249,26,92,18,-9
5810,24,-245,27,92,18,-9
5815,27,-245,23,93,16,-9
5820,26,-247,26,93,16,-9
5825,23,-244,28,95,16,-11
5830,22,-247,25,88,15,-11
5835,26,-244,25,79,14,-10
5840,26,-246,26,84,14,-12
5845,26,-244,32,91,15,-13
5850,29,-250,28,90,16,-15
5855,22,-244,25,89,16,-16
5860,23,-246,24,86,15,-15
5865,26,-245,22,81,15,-14
5870,24,-247,25,80,15,-13
5875,24,-247,25,79,14,-14
5880,27,-244,23,78,16,-13
5885,25,-246,24,79,17,-12
5890,25,-244,24,79,18,-12
5895,25,-248,25,76,19,-13
5900,22,-245,26,70,22,-13
5905,26,-247,21,64,27,-10
5910,24,-246,23,56,34,-11
5915,26,-251,27,44,42,-9
5920,22,-248,25,32,51,-9
5925,25,-249,25,16,61,-3
5930,23,-247,26,-1,71,-1
5935,27,-247,24,-20,77,1
5940,20,-249,25,-35,81,2
5945,22,-246,32,-44,82,1
5950,26,-248,32,-50,78,0
5955,26,-245,32,-51,73,2
5960,21,-247,29,-49,60,4
5965,32,-245,41,-53,43,7
5970,25,-242,52,-80,16,-5
5975,20,-242,53,-70,10,1
5980,20,-246,60,-51,7,13
5985,26,-247,63,-45,2,18
5990,26,-248,59,-53,4,14
5995,25,-254,52,-74,7,4
6000,27,-256,47,-107,13,-10
6005,26,-253,34,-132,25,-27
6010,20,-252,24,-157,32,-46
6015,18,-249,14,-173,41,-58
6020,14,-242,5,-183,47,-64
6025,10,-240,-2,-181,53,-66
6030,11,-235,-10,-172,50,-64
6035,7,-225,-7,-165,38,-61
6040,8,-224,-6,-158,22,-55
6045,11,-219,-5,-157,8,-50
6050,13,-220,-7,-165,-1,-43
6055,16,-219,-7,-183,-13,-40
6060,26,-225,-4,-214,-26,-39
6065,22,-224,4,-256,-37,-40
6070,25,-228,10,-295,-41,-39
6075,28,-231,14,-325,-48,-36
6080,31,-238,22,-342,-56,-28
6085,31,-241,25,-345,-66,-20
6090,29,-240,30,-341,-83,-10
6095,29,-242,25,-336,-96,-1
6100,30,-245,22,-335,-104,6
6105,29,-242,24,-341,-101,13
6110,28,-239,21,-362,-93,19
6115,25,-237,19,-394,-90,21
6120,21,-233,20,-436,-91,26
6125,22,-228,17,-479,-95,28
6130,19,-228,13,-525,-101,28
6135,21,-228,14,-567,-108,31
6140,20,-222,15,-604,-115,31
6145,22,-229,18,-632,-119,30
6150,19,-225,20,-660,-127,33
6155,24,-225,15,-682,-130,33
6160,23,-226,11,-704,-130,36
6165,24,-228,20,-729,-131,35
6170,30,-229,29,-743,-124,35
6175,29,-221,14,-760,-121,36
6180,30,-227,18,-772,-115,35
6185,27,-229,22,-788,-108,35
6190,32,-230,16,-809,-100,35
6195,30,-226,15,-837,-95,36
6200,33,-228,16,-867,-91,36
6205,34,-228,16,-900,-85,39
6210,30,-225,8,-937,-77,44
6215,30,-227,8,-973,-68,51
6220,31,-231,10,-1012,-60,60
6225,31,-227,11,-1053,-54,68
6230,28,-227,10,-1097,-50,75
6235,28,-229,6,-1133,-48,81
6240,25,-224,10,-1169,-46,91
6245,25,-227,8,-1206,-46,96
6250,25,-230,10,-1241,-48,100
6255,21,-226,9,-1281,-52,104
6260,22,-232,11,-1321,-50,104
6265,22,-226,5,-1365,-46,100
6270,24,-227,4,-1412,-40,101
6275,22,-226,8,-1463,-31,102
6280,23,-230,8,-1516,-26,103
6285,24,-230,7,-1569,-20,102
6290,26,-229,7,-1619,-12,100
6295,25,-230,7,-1662,-6,96
6300,29,-234,12,-1700,-2,96
6305,29,-238,8,-1732,0,95
6310,32,-238,9,-1765,3,93
6315,36,-242,11,-1800,6,94
6320,35,-241,11,-1836,9,91
6325,33,-249,10,-1867,10,91
6330,35,-248,4,-1893,14,88
6335,33,-252,1,-1910,18,81
6340,36,-255,0,-1920,22,71
6345,31,-255,-9,-1925,26,60
6350,33,-257,-12,-1924,28,44
6355,30,-257,-14,-1913,33,29
6360,32,-261,-27,-1895,39,12
6365,29,-261,-32,-1869,44,-3
6370,27,-260,-49,-1841,49,-18
6375,25,-265,-62,-1824,46,-37
6380,21,-263,-70,-1824,35,-56
6385,17,-270,-86,-1839,20,-77
6390,11,-280,-105,-1873,-5,-102
6395,12,-289,-128,-1919,-33,-128
6400,10,-296,-150,-1980,-66,-152
6405,7,-302,-161,-2053,-100,-174
6410,13,-308,-185,-2120,-127,-196
6415,13,-311,-189,-2174,-146,-220
6420,23,-324,-192,-2202,-152,-239
6425,28,-332,-182,-2192,-144,-259
6430,32,-338,-184,-2146,-128,-269
6435,32,-342,-170,-2065,-108,-273
6440,31,-342,-165,-1957,-87,-270
6445,29,-341,-160,-1824,-71,-253
6450,24,-336,-155,-1669,-64,-225
6455,17,-332,-154,-1507,-67,-198
6460,11,-323,-163,-1340,-79,-173
6465,8,-317,-168,-1175,-97,-155
6470,6,-306,-174,-1017,-116,-140
6475,5,-292,-180,-875,-135,-126
6480,7,-286,-189,-751,-152,-110
6485,2,-279,-187,-649,-164,-93
6490,3,-272,-190,-572,-179,-78
6495,4,-267,-197,-515,-189,-65
6500,2,-264,-189,-473,-199,-59
6505,0,-266,-187,-437,-204,-52
6510,6,-264,-186,-395,-200,-42
6515,12,-269,-185,-348,-190,-39
6520,14,-272,-185,-293,-175,-42
6525,19,-275,-180,-235,-156,-50
6530,23,-277,-184,-171,-132,-57
6535,32,-279,-178,-107,-110,-64
6540,33,-281,-175,-41,-89,-64
6545,36,-281,-167,27,-71,-60
6550,40,-279,-172,94,-57,-55
6555,42,-279,-167,157,-45,-53
6560,39,-275,-169,214,-33,-55
6565,42,-274,-172,265,-22,-51
6570,36,-273,-167,312,-12,-44
6575,40,-270,-166,359,0,-34
6580,38,-276,-168,407,4,-28
6585,38,-275,-162,459,8,-26
6590,36,-276,-158,520,11,-25
6595,33,-280,-156,587,11,-25
6600,29,-286,-151,662,10,-25
6605,29,-289,-150,749,11,-24
6610,27,-295,-142,850,8,-23
6615,28,-300,-137,958,5,-22
6620,26,-302,-135,1071,4,-20
6625,27,-307,-135,1184,5,-17
6630,26,-310,-130,1298,12,-15
6635,26,-310,-130,1411,21,-15
6640,28,-304,-127,1520,36,-13
6645,29,-307,-118,1623,52,-11
6650,31,-304,-117,1722,69,-12
6655,32,-301,-110,1821,91,-16
6660,30,-295,-108,1914,117,-24
6665,31,-287,-106,1988,145,-29
6670,34,-279,-111,2026,169,-32
6675,32,-271,-103,2015,183,-37
6680,35,-264,-91,2000,196,-47
6685,28,-257,-98,1991,209,-55
6690,32,-253,-88,1941,215,-53
6695,31,-248,-104,1892,218,-57
6700,31,-239,-87,1800,210,-55
6705,29,-237,-112,1726,210,-55
6710,26,-228,-81,1639,210,-50
6715,22,-223,-95,1592,217,-42
6720,23,-218,-72,1534,220,-23
6725,24,-222,-72,1523,227,-10
6730,20,-220,-71,1519,233,6
6735,26,-222,-68,1506,238,27
6740,18,-219,-67,1502,242,38
6745,17,-223,-69,1499,251,53
6750,26,-220,-67,1485,259,67
6755,26,-224,-67,1480,265,74
6760,27,-225,-65,1473,268,78
6765,20,-224,-66,1476,274,76
6770,22,-226,-66,1475,282,81
6775,25,-223,-60,1472,286,83
6780,24,-223,-60,1477,288,77
6785,25,-225,-55,1489,292,70
6790,25,-227,-55,1500,293,64
6795,25,-223,-52,1500,296,63
6800,26,-228,-55,1514,302,59
6805,20,-224,-54,1511,305,59
6810,27,-227,-54,1497,307,56
6815,23,-216,-51,1481,311,51
6820,24,-219,-56,1462,314,48
6825,25,-219,-52,1429,314,47
6830,23,-215,-48,1400,318,40
6835,25,-213,-48,1372,321,35
6840,26,-208,-45,1347,330,29
6845,21,-200,-48,1324,338,26
6850,24,-204,-42,1284,341,28
6855,25,-197,-46,1248,341,25
6860,24,-192,-47,1211,342,19
6865,25,-189,-47,1177,340,12
6870,24,-183,-49,1135,332,2
6875,24,-175,-47,1084,320,-7
6880,21,-171,-38,1044,314,-14
6885,20,-166,-34,1032,319,-19
6890,19,-165,-32,1044,330,-20
6895,18,-160,-30,1069,342,-26
6900,16,-154,-28,1102,351,-32
6905,16,-150,-28,1136,348,-31
6910,16,-150,-33,1167,341,-31
6915,17,-141,-29,1187,324,-27
6920,10,-138,-33,1208,310,-22
6925,16,-136,-32,1219,295,-13
6930,11,-137,-35,1217,275,0
6935,10,-134,-30,1210,258,8
6940,5,-135,-35,1194,235,11
6945,6,-136,-43,1170,210,17
6950,6,-133,-40,1137,181,22
6955,4,-133,-40,1099,154,25
6960,4,-132,-39,1065,130,28
6965,1,-135,-37,1024,106,26
6970,4,-134,-41,985,82,26
6975,2,-132,-36,945,57,31
6980,1,-139,-34,904,35,37
6985,0,-139,-33,862,18,42
6990,0,-147,-31,821,0,45
6995,0,-147,-30,782,-16,46
7000,-2,-155,-30,742,-32,49
7005,5,-161,-30,702,-49,51
7010,1,-164,-29,668,-66,48
7015,3,-171,-27,641,-80,41
7020,10,-176,-24,615,-88,38
7025,7,-183,-23,599,-92,38
7030,11,-193,-25,595,-94,36
7035,13,-194,-27,592,-98,36
7040,16,-200,-25,592,-105,35
7045,17,-203,-28,593,-113,33
7050,24,-205,-24,594,-118,27
7055,25,-212,-26,598,-119,22
7060,29,-220,-24,600,-118,16
7065,28,-224,-24,603,-118,11
7070,34,-228,-24,598,-119,10
7075,36,-238,-22,586,-123,10
7080,38,-241,-22,570,-129,10
7085,37,-246,-19,558,-132,11
7090,41,-250,-17,549,-134,13
7095,36,-247,-14,542,-135,12
7100,38,-245,-17,541,-133,7
7105,31,-247,-13,541,-127,8
7110,30,-245,-12,541,-117,7
7115,27,-243,-12,541,-107,8
7120,28,-245,-9,541,-97,5
7125,25,-240,-5,545,-88,-2
7130,16,-235,-7,555,-81,-9
7135,15,-229,-2,567,-75,-18
7140,22,-231,-4,578,-73,-28
7145,7,-227,-1,587,-74,-34
7150,7,-227,1,585,-74,-35
7155,6,-221,1,577,-78,-37
7160,4,-223,4,565,-87,-45
7165,1,-221,3,552,-99,-56
7170,4,-217,8,535,-115,-63
7175,3,-224,8,509,-135,-67
7180,8,-227,13,475,-158,-70
7185,12,-230,16,435,-180,-67
7190,12,-231,17,393,-201,-66
7195,20,-240,18,352,-217,-65
7200,24,-244,18,309,-230,-61
7205,27,-247,18,267,-238,-57
7210,29,-251,17,228,-239,-50
7215,33,-251,19,192,-237,-40
7220,40,-255,17,160,-230,-30
7225,41,-254,16,134,-219,-23
7230,43,-255,16,116,-201,-16
7235,47,-256,15,103,-177,-6
7240,50,-257,18,93,-152,-2
7245,49,-257,15,85,-133,2
7250,44,-253,11,78,-121,9
7255,50,-261,14,68,-121,16
7260,51,-260,18,56,-125,27
7265,51,-263,13,39,-132,43
7270,52,-263,11,22,-141,60
7275,51,-260,13,8,-150,76
7280,53,-264,17,1,-160,90
7285,51,-263,17,2,-170,99
7290,43,-262,18,12,-178,102
7295,46,-260,20,27,-180,97
7300,43,-254,21,45,-173,89
7305,41,-252,18,65,-157,78
7310,35,-246,25,81,-130,61
7315,32,-247,22,93,-97,42
7320,32,-245,23,100,-62,20
7325,29,-237,27,101,-25,-4
7330,25,-236,32,100,11,-31
7335,26,-233,33,96,44,-59
7340,23,-232,30,91,71,-84
7345,22,-231,31,85,90,-102
7350,26,-231,36,82,102,-115
7355,25,-231,34,80,107,-122
7360,24,-235,38,81,106,-121
7365,24,-234,34,84,101,-115
7370,23,-236,34,88,92,-106
7375,23,-240,30,90,83,-94
7380,27,-239,34,94,69,-83
7385,26,-239,29,97,56,-72
7390,26,-243,29,98,43,-60
7395,21,-242,30,96,32,-53
7400,21,-244,32,91,20,-46
7405,25,-246,36,87,15,-41
7410,25,-248,37,83,12,-37
7415,24,-249,42,82,9,-34
7420,22,-248,44,82,9,-31
7425,21,-246,42,83,6,-31
7430,21,-248,46,83,4,-32
7435,19,-247,43,82,2,-31
7440,21,-248,41,79,0,-29
7445,19,-247,42,73,-2,-25
7450,15,-247,41,65,-7,-21
7455,17,-248,39,56,-9,-19
7460,17,-245,35,46,-14,-13
7465,16,-241,36,34,-17,-5
7470,23,-238,23,21,-20,-1
7475,15,-247,37,11,-24,2
7480,20,-248,19,0,-26,5
7485,20,-246,37,-9,-30,5
7490,20,-250,37,-18,-34,5
7495,26,-245,37,-25,-37,5
7500,24,-250,35,-30,-42,6
7505,27,-250,36,-34,-46,3
7510,28,-250,37,-36,-50,-1
7515,25,-251,43,-36,-53,-6
7520,32,-250,36,-36,-56,-8
7525,31,-250,40,-34,-56,-13
7530,32,-250,38,-26,-54,-18
7535,34,-249,40,-16,-52,-22
7540,34,-250,41,-3,-50,-26
7545,31,-246,37,13,-48,-28
7550,30,-247,42,30,-47,-30
7555,32,-245,39,47,-48,-31
7560,32,-248,43,65,-49,-33
7565,31,-249,42,81,-52,-34
7570,36,-245,38,92,-56,-35
7575,29,-246,39,98,-60,-34
7580,27,-248,37,99,-62,-33
7585,28,-244,36,99,-65,-33
7590,25,-246,39,95,-66,-31
7595,25,-243,37,90,-69,-26
7600,25,-244,31,83,-70,-24
7605,27,-244,33,76,-68,-21
7610,25,-244,35,68,-66,-18
7615,23,-245,39,61,-63,-16
7620,21,-245,39,53,-61,-13
7625,24,-246,41,47,-60,-14
7630,28,-247,42,42,-60,-11
7635,25,-246,40,35,-61,-11
7640,28,-246,37,29,-64,-9
7645,27,-243,42,23,-67,-8
7650,27,-245,40,17,-68,-5
7655,30,-242,42,14,-69,-6
7660,31,-245,38,12,-69,-4
7665,29,-243,38,9,-68,-4
7670,30,-244,42,5,-65,-4
7675,32,-245,33,0,-64,-5
7680,32,-244,46,-4,-60,-5
7685,31,-244,35,-11,-58,-6
7690,32,-245,40,-18,-55,-9
7695,32,-244,39,-25,-55,-11
7700,32,-245,39,-32,-55,-11
7705,31,-246,37,-36,-55,-13
7710,30,-244,37,-36,-55,-13
7715,30,-246,35,-33,-55,-16
7720,33,-247,35,-28,-56,-17
7725,29,-248,36,-22,-56,-17
7730,28,-246,33,-17,-54,-17
7735,29,-246,32,-11,-53,-15
7740,29,-247,30,-4,-51,-17
7745,29,-245,35,3,-47,-18
7750,26,-247,31,9,-42,-17
7755,29,-245,33,17,-39,-17
7760,26,-244,35,23,-35,-18
7765,24,-248,31,29,-34,-18
7770,29,-246,36,30,-32,-19
7775,27,-245,34,31,-31,-19
7780,27,-242,32,31,-31,-18
7785,26,-241,22,30,-32,-17
7790,23,-245,31,26,-34,-16
7795,25,-243,35,24,-36,-14
7800,27,-241,33,20,-38,-14
7805,27,-245,35,16,-39,-10
7810,29,-244,32,12,-39,-7
7815,30,-243,32,7,-41,-4
7820,29,-243,33,5,-42,-3
7825,29,-245,31,3,-43,-1
7830,29,-243,31,0,-42,0
7835,32,-242,36,1,-43,2
7840,26,-245,34,3,-41,4
7845,29,-248,36,7,-43,5
7850,30,-243,33,12,-43,6
7855,30,-246,33,17,-41,7
7860,29,-246,34,20,-40,11
7865,29,-245,40,22,-38,13
7870,30,-248,32,23,-38,12
7875,26,-245,34,22,-37,11
7880,30,-246,30,22,-36,11
7885,28,-245,32,20,-36,12
7890,26,-248,29,18,-36,14
7895,28,-243,30,17,-36,13
7900,28,-246,29,15,-35,13
7905,25,-243,32,15,-33,11
7910,24,-244,33,14,-31,11
7915,30,-244,37,14,-30,8
7920,29,-244,33,12,-31,7
7925,30,-248,29,13,-31,6
7930,28,-247,30,13,-32,5
7935,30,-250,31,12,-30,5
7940,28,-247,30,15,-28,3
7945,28,-244,30,19,-27,2
7950,30,-248,30,23,-24,1
7955,27,-244,32,29,-22,-2
7960,30,-246,30,31,-20,0
7965,30,-245,30,33,-16,-1
7970,33,-246,30,36,-13,1
7975,30,-246,33,37,-12,-2
7980,31,-249,32,39,-10,0
7985,29,-245,32,39,-7,0
7990,29,-242,34,41,-5,0
7995,32,-249,31,41,-4,-3
8000,26,-242,40,39,-2,-2
8005,30,-243,32,39,0,-2
8010,28,-245,33,36,3,-4
8015,32,-246,34,34,5,-7
8020,28,-247,33,27,5,-7
8025,30,-244,34,22,3,-8
8030,28,-243,34,17,3,-10
8035,29,-246,32,14,4,-12
8040,30,-240,30,12,1,-12
8045,31,-233,28,13,0,-12
8050,29,-243,30,18,0,-14
8055,30,-244,31,22,1,-15
8060,28,-244,28,28,4,-15
8065,28,-242,34,32,5,-13
8070,27,-245,35,36,7,-15
8075,30,-242,31,38,8,-18
8080,22,-244,30,41,8,-17
8085,27,-243,31,41,7,-18
8090,25,-244,31,40,8,-21
8095,26,-244,32,40,8,-20
8100,27,-245,28,36,7,-20
8105,25,-246,43,32,6,-20
8110,30,-246,32,25,4,-20
8115,28,-245,32,18,3,-22
8120,25,-246,32,15,1,-19
8125,24,-247,32,13,1,-21
8130,27,-251,35,16,1,-19
8135,26,-248,34,20,2,-18
8140,26,-247,29,28,3,-17
8145,27,-249,34,36,3,-15
8150,25,-248,35,45,1,-15
8155,29,-246,36,52,2,-15
8160,25,-245,34,59,1,-13
8165,26,-245,36,64,1,-13
8170,23,-242,30,68,-1,-12
8175,27,-242,33,68,-1,-10
8180,24,-241,32,67,-1,-12
8185,24,-241,34,64,-2,-11
8190,23,-239,37,59,0,-12
8195,28,-244,35,57,-1,-12
8200,26,-239,34,53,-4,-17
8205,23,-242,32,56,-16,-22
8210,25,-247,40,47,-15,-21
8215,29,-247,32,38,-9,-18
8220,27,-242,35,32,-4,-17
8225,28,-244,36,26,0,-16
8230,27,-245,35,22,5,-16
8235,28,-243,34,20,7,-17
8240,26,-243,32,20,6,-17
8245,26,-240,29,21,7,-18
8250,26,-244,31,20,7,-18
8255,27,-245,33,18,6,-19
8260,27,-244,34,17,3,-18
8265,27,-248,30,18,3,-16
8270,27,-245,31,21,2,-17
8275,26,-248,36,25,-1,-15
8280,26,-245,35,28,-1,-14
8285,26,-247,34,32,-4,-14
8290,26,-246,33,34,-5,-12
8295,24,-245,33,37,-5,-12
8300,28,-246,34,39,-6,-12
8305,29,-249,27,41,-7,-14
8310,26,-248,32,44,-5,-14
8315,26,-248,31,45,-5,-13
8320,24,-246,32,45,-5,-11
8325,27,-246,28,47,-5,-10
8330,25,-248,32,45,-6,-9
8335,27,-249,31,45,-5,-8
8340,27,-248,30,40,-6,-8
8345,26,-245,35,37,-8,-7
8350,29,-247,31,35,-7,-6
8355,26,-245,30,35,-7,-8
8360,26,-246,33,35,-7,-9
8365,26,-244,39,37,-6,-9
8370,26,-247,31,40,-6,-9
8375,27,-245,35,44,-6,-7
8380,27,-246,32,50,-6,-9
8385,26,-243,31,56,-7,-11
8390,24,-243,32,59,-8,-10
8395,24,-241,33,59,-10,-11
8400,29,-243,30,58,-11,-9
8405,25,-246,34,54,-14,-9
8410,28,-246,34,50,-16,-9
8415,26,-244,31,40,-17,-10
8420,27,-245,29,35,-17,-10
8425,25,-244,32,27,-16,-9
8430,27,-245,33,24,-15,-10
8435,27,-246,33,24,-16,-10
8440,27,-245,36,26,-15,-10
8445,26,-247,33,28,-15,-11
8450,27,-246,31,31,-15,-12
8455,28,-246,35,37,-15,-13
8460,27,-248,32,42,-14,-12
8465,25,-246,32,47,-13,-14
8470,29,-242,32,52,-13,-12
8475,35,-250,43,55,-13,-14
8480,26,-244,31,57,-14,-13
8485,29,-240,31,56,-16,-11
8490,29,-244,32,55,-17,-10
8495,25,-246,28,52,-20,-11
8500,28,-244,30,49,-21,-11
8505,28,-246,30,44,-23,-11
8510,29,-244,35,41,-25,-10
8515,24,-246,33,39,-26,-9
8520,27,-245,31,39,-28,-6
8525,26,-244,33,38,-28,-7
8530,28,-246,32,40,-29,-5
8535,15,-246,16,43,-29,-3
8540,28,-247,35,47,-27,-5
8545,28,-245,29,51,-27,-3
8550,30,-245,32,55,-27,-3
8555,27,-244,32,59,-27,-4
8560,28,-246,33,60,-27,-5
8565,30,-246,34,60,-27,-5
8570,28,-247,32,60,-26,-2
8575,29,-248,32,59,-27,-4
8580,29,-245,33,58,-27,-3
8585,26,-247,30,55,-28,-1
8590,26,-244,33,55,-28,-2
8595,28,-242,37,57,-29,-2
8600,25,-244,33,57,-31,-2
8605,28,-245,34,58,-31,-3
8610,26,-242,32,58,-30,-3
8615,28,-245,31,59,-31,-3
8620,32,-243,45,60,-31,-2
8625,26,-242,33,59,-31,-1
8630,27,-243,32,59,-31,-3
8635,27,-245,29,57,-31,-3
8640,24,-245,31,56,-30,-4
8645,33,-247,34,55,-28,-6
8650,26,-242,35,54,-27,-7
8655,28,-243,31,54,-26,-7
8660,27,-244,34,54,-27,-7
8665,31,-246,37,53,-27,-9
8670,28,-242,31,54,-25,-8
8675,25,-244,36,53,-28,-8
8680,26,-245,30,54,-30,-9
8685,27,-246,34,55,-30,-8
8690,27,-244,35,55,-31,-8
8695,27,-244,33,55,-31,-9
8700,27,-242,32,55,-30,-8
8705,31,-244,30,54,-30,-7
8710,29,-246,35,52,-31,-8
8715,29,-245,33,51,-31,-6
8720,27,-241,34,47,-29,-9
8725,28,-245,28,44,-29,-9
8730,26,-244,27,41,-28,-9
8735,26,-243,31,38,-27,-8
8740,27,-243,29,37,-29,-9
8745,28,-245,33,36,-30,-8
8750,28,-244,29,37,-30,-8
8755,31,-245,26,37,-30,-9
8760,30,-245,31,40,-30,-8
8765,26,-243,28,42,-31,-8
8770,29,-245,34,43,-31,-6
8775,31,-246,30,44,-29,-8
8780,30,-247,30,43,-29,-7
8785,28,-246,28,42,-26,-6
8790,27,-246,31,40,-23,-8
8795,33,-247,32,40,-22,-7
8800,29,-249,34,40,-19,-6
8805,31,-244,32,40,-16,-7
8810,28,-248,31,41,-16,-7
8815,32,-246,32,42,-15,-6
8820,30,-248,28,42,-14,-6
8825,29,-244,30,42,-15,-7
8830,27,-244,32,41,-16,-6
8835,30,-243,30,42,-16,-7
8840,29,-248,33,43,-17,-5
8845,30,-245,32,44,-19,-5
8850,26,-246,34,45,-20,-5
8855,29,-242,35,48,-20,-4
8860,28,-243,28,51,-20,-6
8865,29,-245,32,53,-18,-5
8870,29,-244,33,53,-16,-6
8875,31,-243,29,53,-14,-7
8880,30,-248,30,51,-10,-9
8885,29,-245,34,49,-6,-8
8890,26,-245,32,48,-4,-9
8895,26,-245,32,47,0,-11
8900,30,-243,33,46,1,-10
8905,31,-245,32,46,2,-11
8910,27,-241,31,45,2,-11
8915,28,-239,32,43,1,-10
8920,27,-244,31,40,0,-12
8925,32,-247,33,35,-4,-11
8930,29,-243,29,32,-6,-12
8935,28,-246,31,28,-9,-10
8940,31,-245,30,26,-10,-11
8945,28,-247,27,27,-10,-11
8950,32,-245,31,29,-8,-10
8955,32,-247,34,31,-7,-10
8960,26,-248,29,35,-4,-10
8965,29,-248,32,41,1,-10
8970,29,-246,37,49,3,-11
8975,28,-248,27,55,5,-11
8980,28,-248,30,62,7,-13
8985,29,-245,31,68,8,-13
8990,31,-246,32,71,10,-14
8995,30,-246,31,72,11,-13
9000,28,-246,30,71,13,-17
9005,30,-246,27,68,12,-17
9010,30,-244,28,64,13,-16
9015,28,-242,28,60,14,-17
9020,32,-244,27,55,14,-18
9025,31,-243,29,52,14,-18
9030,29,-244,25,49,15,-18
9035,28,-245,30,45,16,-16
9040,32,-248,29,44,16,-16
9045,31,-247,33,46,15,-16
9050,31,-248,31,47,15,-18
9055,32,-248,33,50,16,-17
9060,33,-248,35,51,15,-15
9065,29,-249,32,57,16,-16
9070,29,-246,31,61,16,-14
9075,34,-250,36,67,16,-14
9080,30,-249,33,71,17,-16
9085,29,-248,30,74,20,-16
9090,28,-241,36,78,21,-17
9095,26,-243,31,80,23,-17
9100,28,-247,36,83,26,-15
9105,31,-246,35,84,26,-15
9110,28,-245,35,84,27,-17
9115,27,-246,33,84,26,-18
9120,29,-242,33,84,26,-19
9125,31,-242,34,83,25,-19
9130,26,-240,30,82,25,-19
9135,27,-243,31,81,25,-17
9140,29,-242,33,81,23,-17
9145,27,-242,31,80,24,-17
9150,26,-247,32,81,24,-16
9155,28,-243,33,80,24,-15
9160,30,-245,31,79,23,-16
9165,27,-243,29,77,25,-17
9170,28,-248,34,77,25,-16
9175,28,-245,31,76,25,-15
9180,27,-250,31,75,26,-16
9185,23,-245,30,76,26,-15
9190,29,-245,33,77,29,-15
9195,27,-247,30,80,28,-13
9200,29,-246,30,86,28,-13
9205,29,-247,34,91,26,-12
9210,28,-247,37,98,26,-13
9215,26,-245,36,103,25,-12
9220,25,-246,33,107,22,-13
9225,29,-244,33,109,20,-12
9230,29,-240,33,109,18,-10
9235,27,-244,32,105,18,-10
9240,29,-244,32,101,17,-9
9245,29,-246,31,95,18,-10
9250,31,-248,32,89,17,-10
9255,31,-244,31,82,17,-10
9260,29,-247,34,73,17,-10
9265,30,-247,36,67,17,-13
9270,28,-245,35,64,17,-13
9275,28,-246,32,61,18,-15
9280,27,-244,36,64,21,-16
9285,26,-245,30,66,22,-17
9290,26,-244,32,69,23,-18
9295,28,-245,33,73,25,-20
9300,29,-243,38,78,27,-18
9305,28,-242,35,83,28,-20
9310,30,-247,35,87,28,-19
9315,28,-244,34,90,29,-20
9320,27,-246,33,89,27,-19
9325,27,-243,32,87,23,-18
9330,30,-245,35,83,22,-18
9335,26,-241,31,78,20,-17
9340,29,-245,29,74,16,-17
9345,31,-244,34,68,15,-14
9350,29,-246,31,64,12,-14
9355,28,-243,31,61,11,-14
9360,30,-242,33,59,9,-13
9365,29,-248,29,59,8,-13
9370,27,-247,33,61,8,-12
9375,28,-249,34,64,8,-12
9380,27,-247,30,69,9,-14
9385,26,-248,32,73,11,-14
9390,26,-244,32,78,11,-15
9395,28,-247,26,79,11,-13
9400,28,-247,31,82,11,-13
9405,30,-246,31,83,12,-15
9410,29,-244,30,82,10,-15
9415,26,-244,29,83,10,-13
9420,25,-247,34,84,9,-14
9425,27,-245,29,83,6,-13
9430,28,-245,33,82,6,-13
9435,29,-246,31,83,4,-10
9440,27,-248,34,84,2,-11
9445,28,-245,37,88,2,-8
9450,25,-244,34,88,-1,-6
9455,26,-245,34,91,-3,-7
9460,26,-243,32,92,-5,-5
9465,25,-243,31,93,-7,-5
9470,24,-245,34,94,-7,-4
9475,24,-243,37,94,-8,-3
9480,27,-242,31,93,-8,-4
9485,25,-242,31,92,-9,-2
9490,25,-242,38,89,-10,-1
9495,25,-244,34,86,-9,-1
9500,23,-240,31,84,-9,0
9505,26,-247,32,81,-7,0
9510,27,-245,35,77,-10,-2
9515,27,-242,33,74,-8,-2
9520,24,-246,34,72,-9,-3
9525,28,-244,30,70,-10,-2
9530,26,-246,34,70,-10,-2
9535,24,-240,35,71,-12,-1
9540,24,-246,37,73,-13,-3
9545,28,-247,34,74,-13,-3
9550,29,-244,34,77,-15,-3
9555,28,-244,31,76,-15,-3
9560,25,-244,37,77,-17,-2
9565,27,-246,36,76,-18,-2
9570,29,-243,37,73,-19,-1
9575,25,-243,32,71,-19,-1
9580,26,-245,29,70,-19,-1
9585,29,-245,34,68,-19,-3
9590,28,-247,38,66,-19,-2
9595,28,-244,32,64,-17,-1
9600,29,-243,32,63,-19,-2
9605,29,-245,29,63,-18,-3
9610,28,-247,33,63,-17,-3
9615,26,-244,32,62,-17,-4
9620,30,-247,34,63,-17,-4
9625,29,-244,33,63,-16,-4
9630,27,-245,32,65,-17,-3
9635,28,-247,32,65,-16,-4
9640,25,-243,37,67,-14,-5
9645,27,-245,37,70,-14,-6
9650,27,-246,36,73,-14,-6
9655,29,-247,37,74,-14,-6
9660,30,-246,35,75,-12,-6
9665,29,-246,35,75,-11,-7
9670,30,-245,32,75,-9,-8
9675,26,-240,35,74,-5,-10
9680,29,-245,35,73,-3,-10
9685,27,-244,38,72,-3,-10
9690,26,-245,33,71,-1,-12
9695,28,-245,34,68,-1,-13
9700,26,-244,35,66,-1,-12
9705,28,-243,36,64,-1,-14
9710,28,-244,35,62,-2,-12
9715,27,-244,34,62,-2,-14
9720,28,-245,38,60,-3,-13
9725,28,-242,32,58,-3,-14
9730,27,-246,38,56,-3,-12
9735,29,-243,37,56,-3,-13
9740,28,-246,36,55,-2,-10
9745,28,-245,36,56,-1,-12
9750,29,-245,36,57,-1,-11
9755,29,-245,34,56,0,-12
9760,26,-245,37,56,0,-10
9765,29,-244,34,55,1,-12
9770,28,-241,35,54,2,-11
9775,25,-244,35,53,3,-11
9780,29,-240,31,50,4,-11
9785,27,-242,35,48,3,-11
9790,31,-245,36,44,3,-12
9795,31,-245,30,39,4,-13
9800,29,-244,31,35,5,-14
9805,28,-244,32,30,5,-12
9810,30,-245,33,25,6,-11
9815,30,-245,33,23,7,-10
9820,29,-245,36,23,9,-12
9825,31,-247,38,24,12,-12
9830,30,-245,35,27,15,-12
9835,29,-245,34,31,17,-13
9840,29,-248,36,37,20,-13
9845,30,-247,36,45,22,-13
9850,29,-247,35,51,23,-14
9855,30,-246,36,58,23,-15
9860,30,-245,38,63,23,-14
9865,28,-245,45,67,22,-14
9870,28,-245,33,70,22,-14
9875,31,-245,35,70,19,-13
9880,28,-245,38,70,18,-12
9885,29,-244,30,68,17,-12
9890,27,-243,36,67,18,-13
9895,28,-244,35,65,19,-14
9900,34,-244,30,64,20,-13
9905,29,-247,35,62,22,-14
9910,28,-243,33,62,24,-15
9915,27,-244,36,61,25,-14
9920,29,-248,37,61,28,-14
9925,27,-244,36,61,29,-15
9930,28,-243,35,62,29,-14
9935,29,-242,40,62,30,-14
9940,29,-243,37,61,28,-16
9945,26,-243,36,61,29,-16
9950,29,-245,34,60,29,-17
9955,30,-246,33,59,29,-17
9960,24,-245,35,60,29,-14
9965,29,-245,33,61,28,-15
9970,26,-244,36,62,29,-16
9975,28,-242,37,63,28,-16
9980,26,-239,37,64,28,-17
9985,29,-242,37,64,29,-18
9990,30,-243,34,62,29,-18
9995,27,-244,34,64,28,-17
10000,30,-248,40,62,28,-18
10005,30,-246,37,62,27,-16
10010,28,-245,37,62,26,-16
10015,26,-242,34,62,26,-15
10020,29,-244,36,62,24,-15
10025,28,-246,35,62,24,-14
10030,28,-245,33,61,23,-13
10035,31,-244,36,60,21,-13
10040,26,-248,34,61,21,-11
10045,29,-247,34,62,21,-13
10050,28,-247,35,64,22,-10
10055,28,-242,39,66,22,-10
10060,28,-245,38,68,24,-11
10065,29,-245,40,69,23,-11
10070,26,-246,36,70,24,-11
10075,27,-246,30,70,22,-11
10080,25,-244,32,70,22,-10
10085,28,-245,36,67,19,-11
10090,29,-245,34,64,17,-9
10095,32,-244,33,59,15,-11
10100,26,-246,37,58,13,-10
10105,25,-242,36,55,11,-9
10110,29,-240,34,55,11,-7
10115,26,-244,34,53,9,-6
10120,29,-247,38,53,9,-4
10125,25,-248,38,54,9,-5
10130,26,-246,37,56,7,-6
10135,27,-245,33,60,8,-7
10140,22,-247,34,66,9,-6
10145,29,-248,37,70,12,-9
10150,26,-242,38,76,14,-8
10155,28,-250,39,81,15,-8
10160,30,-245,36,86,17,-8
10165,25,-243,38,91,18,-9
10170,25,-243,36,96,17,-9
10175,26,-245,34,97,16,-10
10180,27,-245,40,94,16,-9
10185,28,-245,35,93,16,-11
10190,28,-246,37,90,15,-11
10195,26,-241,37,88,11,-11
10200,30,-244,38,84,12,-10
10205,28,-239,36,79,10,-10
10210,27,-245,35,75,9,-10
10215,25,-241,35,72,6,-8
10220,28,-246,35,71,6,-9
10225,25,-243,41,69,5,-9
10230,28,-246,34,67,4,-10
10235,29,-245,36,67,3,-8
10240,29,-246,38,67,3,-9
10245,28,-245,35,67,1,-8
10250,29,-245,34,69,3,-8
10255,31,-248,36,69,4,-8
10260,29,-243,38,72,5,-12
10265,28,-243,37,72,5,-11
10270,30,-245,40,74,5,-12
10275,29,-246,38,74,7,-12
10280,33,-247,37,73,7,-12
10285,27,-242,31,72,6,-12
10290,29,-244,35,71,8,-11
10295,27,-244,35,68,8,-11
10300,27,-246,35,66,8,-13
10305,30,-246,39,64,9,-13
10310,29,-246,37,62,11,-13
10315,25,-243,39,61,10,-11
10320,28,-243,38,60,10,-11
10325,30,-245,34,60,12,-10
10330,30,-244,36,59,13,-11
10335,29,-249,32,60,12,-10
10340,27,-245,37,62,11,-12
10345,35,-234,42,62,11,-11
10350,28,-244,35,65,9,-10
10355,29,-243,35,65,9,-11
10360,32,-245,34,68,9,-11
10365,31,-247,36,72,9,-11
10370,30,-247,41,74,7,-11
10375,30,-246,35,77,7,-11
10380,29,-243,39,77,7,-10
10385,30,-242,37,78,6,-11
10390,30,-243,37,78,5,-12
10395,29,-245,37,79,5,-10
10400,29,-243,33,79,4,-10
10405,29,-247,37,80,5,-10
10410,28,-245,36,79,6,-12
10415,28,-242,37,79,7,-12
10420,28,-243,34,79,7,-14
10425,28,-243,35,79,9,-13
10430,27,-248,37,77,10,-13
10435,25,-242,35,77,13,-16
10440,27,-243,37,76,14,-16
10445,27,-243,40,76,16,-16
10450,28,-244,37,75,18,-17
10455,27,-246,39,75,18,-17
10460,29,-243,37,74,18,-16
10465,29,-246,37,72,18,-18
10470,30,-244,36,73,16,-18
10475,29,-242,36,73,16,-16
10480,29,-244,38,73,13,-16
10485,30,-244,38,73,11,-17
10490,27,-243,41,75,10,-15
10495,30,-245,36,74,8,-15
10500,27,-245,37,75,8,-14
10505,31,-241,34,76,9,-14
10510,28,-245,38,76,8,-13
10515,28,-241,35,76,9,-12
10520,29,-244,37,75,8,-14
10525,27,-244,36,74,8,-13
10530,27,-243,39,74,10,-12
10535,32,-245,37,73,10,-10
10540,27,-242,37,71,12,-9
10545,30,-244,37,68,14,-8
10550,29,-244,37,64,18,-10
10555,26,-243,37,60,19,-11
10560,28,-240,38,56,21,-12
10565,27,-244,38,53,25,-14
10570,30,-245,37,48,27,-18
10575,27,-241,41,44,31,-18
10580,27,-245,37,41,34,-18
10585,29,-243,36,36,34,-19
10590,29,-243,40,35,34,-20
10595,28,-242,36,33,34,-18
10600,30,-246,38,32,34,-19
10605,29,-245,36,31,30,-15
10610,27,-246,35,30,26,-15
10615,30,-243,37,29,21,-14
10620,31,-246,36,28,16,-12
10625,29,-245,39,28,11,-9
10630,28,-245,40,29,9,-7
10635,27,-244,36,32,8,-7
10640,28,-245,36,34,7,-6
10645,26,-241,41,35,7,-7
10650,28,-243,36,37,9,-6
10655,29,-243,36,37,10,-8
10660,29,-243,34,35,10,-10
10665,27,-246,34,30,11,-13
10670,29,-243,34,23,10,-14
10675,28,-242,40,15,10,-16
10680,30,-246,36,6,9,-16
10685,27,-244,38,-2,10,-16
10690,28,-243,35,-9,10,-16
10695,28,-246,34,-15,10,-18
10700,28,-250,40,-18,11,-17
10705,26,-247,38,-16,12,-18
10710,25,-244,41,-10,13,-17
10715,29,-247,38,-3,14,-18
10720,26,-249,42,7,14,-18
10725,24,-245,37,17,14,-16
10730,27,-245,36,26,13,-15
10735,27,-244,41,35,12,-15
10740,28,-244,35,40,10,-13
10745,29,-242,39,44,8,-12
10750,29,-244,39,46,6,-12
10755,29,-244,34,45,3,-10
10760,29,-241,32,43,3,-7
10765,28,-246,40,38,1,-7
10770,30,-243,37,32,-1,-8
10775,32,-239,27,27,-2,-6
10780,27,-244,34,20,-1,-5
10785,29,-244,39,16,-2,-6
10790,27,-242,35,14,-1,-7
10795,30,-247,39,15,0,-6
10800,28,-245,34,19,1,-7
10805,27,-246,34,23,2,-6
10810,30,-248,35,27,3,-6
10815,28,-244,36,33,6,-8
10820,29,-246,32,38,8,-8
10825,32,-240,33,42,9,-9
10830,29,-248,33,45,11,-10
10835,28,-244,32,47,11,-10
10840,28,-244,34,47,12,-9
10845,29,-243,34,45,11,-10
10850,28,-246,36,41,10,-10
10855,27,-245,35,39,10,-10
10860,30,-245,33,35,9,-8
10865,25,-242,37,32,9,-7
10870,30,-244,37,28,8,-7
10875,29,-243,38,26,8,-8
10880,29,-245,38,24,9,-8
10885,30,-244,39,23,11,-8
10890,27,-243,38,22,12,-8
10895,27,-244,37,23,12,-11
10900,27,-243,37,23,11,-11
10905,27,-244,34,23,10,-10
10910,28,-242,35,24,11,-11
10915,30,-243,39,22,11,-13
10920,26,-242,39,19,10,-12
10925,29,-241,36,18,9,-12
10930,27,-243,39,13,8,-10
10935,29,-245,37,10,8,-11
10940,29,-244,35,5,7,-10
10945,26,-244,34,3,4,-9
10950,28,-243,30,1,3,-8
10955,28,-245,34,2,2,-7
10960,31,-245,35,5,0,-6
10965,28,-243,36,9,-2,-6
10970,30,-248,34,12,-1,-4
10975,28,-246,33,14,-3,-5
10980,28,-249,33,16,-3,-5
10985,31,-245,33,17,-3,-5
10990,29,-245,35,17,-2,-5
10995,25,-244,32,15,-2,-5
11000,28,-241,31,13,-1,-5
11005,27,-243,30,11,-1,-5
11010,27,-242,34,8,-1,-4
11015,29,-248,35,7,1,-6
11020,27,-244,31,6,1,-8
11025,28,-247,30,9,3,-6
11030,29,-247,33,12,4,-8
11035,28,-248,32,16,4,-8
11040,25,-247,36,20,6,-10
11045,26,-244,36,25,5,-9
11050,28,-245,33,29,6,-11
11055,26,-243,31,32,8,-11
11060,26,-245,34,34,8,-12
11065,25,-244,32,33,9,-14
11070,30,-245,33,30,10,-12
11075,30,-240,33,27,8,-14
11080,28,-243,30,23,7,-11
11085,28,-242,30,21,7,-10
11090,29,-244,32,18,6,-10
11095,27,-243,31,19,6,-11
11100,29,-243,29,18,8,-10
11105,30,-242,32,18,6,-11
11110,30,-246,29,22,7,-10
11115,32,-245,32,26,6,-11
11120,28,-248,29,28,7,-10
11125,28,-245,32,32,8,-10
11130,32,-244,33,36,6,-9
11135,28,-247,30,38,7,-10
11140,29,-244,32,38,8,-12
11145,28,-245,32,37,8,-13
11150,26,-248,33,37,10,-12
11155,26,-245,32,36,10,-14
11160,27,-244,27,34,9,-13
11165,28,-246,30,33,8,-13
11170,32,-243,32,35,8,-13
11175,31,-247,33,33,8,-11
11180,27,-243,28,34,7,-12
11185,21,-245,24,35,7,-13
11190,28,-245,30,37,5,-13
11195,29,-244,30,36,4,-11
11200,29,-244,30,37,4,-11
11205,28,-245,32,35,3,-11
11210,27,-247,32,36,3,-11
11215,29,-247,31,37,2,-11
11220,28,-247,32,37,3,-10
11225,28,-248,32,39,6,-12
11230,25,-242,30,41,7,-11
11235,31,-245,34,43,8,-11
11240,28,-243,35,46,10,-11
11245,29,-246,34,47,11,-11
11250,29,-246,30,50,13,-11
11255,28,-247,39,51,14,-12
11260,29,-246,29,53,14,-13
11265,31,-249,32,53,15,-15
11270,26,-245,27,52,15,-13
11275,28,-244,32,52,15,-13
11280,32,-248,26,51,15,-14
11285,28,-244,30,51,15,-13
11290,31,-244,31,51,15,-13
11295,29,-246,32,50,14,-13
11300,30,-247,31,50,14,-12
11305,26,-247,35,48,15,-12
11310,28,-247,32,47,14,-12
11315,28,-244,29,49,15,-13
11320,25,-247,32,47,14,-13
11325,29,-244,34,48,15,-12
11330,31,-245,32,49,13,-10
11335,26,-241,28,49,13,-10
11340,28,-248,35,49,13,-11
11345,26,-243,30,49,13,-11
11350,28,-247,33,49,13,-11
11355,29,-244,29,49,13,-12
11360,29,-243,35,49,13,-13
11365,27,-245,31,49,13,-11
11370,27,-243,33,51,13,-12
11375,29,-245,34,52,14,-12
11380,29,-245,33,52,13,-14
11385,27,-244,32,52,12,-14
11390,29,-245,33,51,11,-13
11395,27,-244,31,51,11,-12
11400,29,-246,31,52,10,-11
11405,30,-247,32,52,7,-11
11410,29,-244,29,53,6,-11
11415,25,-244,29,53,7,-11
11420,29,-245,33,53,8,-10
11425,32,-245,27,54,8,-10
11430,28,-247,33,52,9,-11
11435,28,-246,27,50,11,-12
11440,29,-246,29,48,12,-13
11445,30,-246,31,48,13,-12
11450,29,-247,31,47,14,-13
11455,30,-246,32,49,16,-15
11460,27,-246,26,50,15,-16
11465,25,-244,33,53,18,-18
11470,29,-245,30,53,20,-17
11475,27,-246,33,55,17,-16
11480,28,-246,29,56,16,-15
11485,28,-245,26,57,14,-14
11490,28,-242,29,58,11,-12
11495,32,-247,30,59,9,-13
11500,27,-246,32,60,8,-13
11505,28,-244,32,61,7,-12
11510,25,-241,32,64,7,-12
11515,26,-241,29,66,9,-12
11520,24,-243,31,68,9,-12
11525,26,-244,29,69,9,-14
11530,26,-245,31,68,10,-13
11535,28,-248,32,65,8,-13
11540,26,-245,35,60,8,-13
11545,27,-242,29,54,9,-12
11550,30,-247,31,48,7,-14
11555,29,-244,33,42,6,-12
11560,27,-243,32,39,5,-10
11565,28,-247,34,35,5,-11
11570,31,-246,32,36,5,-11
11575,28,-249,31,36,5,-10
11580,30,-247,27,40,7,-11
11585,30,-249,30,46,7,-9
11590,27,-248,34,53,9,-10
11595,27,-245,32,61,8,-11
11600,25,-243,28,70,10,-11
11605,28,-244,31,76,9,-11
11610,26,-244,32,81,9,-12
11615,29,-247,28,84,9,-11
11620,28,-244,33,84,8,-13
11625,28,-245,28,82,8,-11
11630,29,-244,30,78,8,-12
11635,29,-244,32,71,8,-14
11640,29,-246,31,64,7,-13
11645,30,-247,30,59,6,-13
11650,29,-246,31,53,6,-13
11655,29,-247,29,51,5,-12
11660,34,-246,33,49,6,-12
11665,28,-248,25,51,6,-13
11670,29,-248,31,54,7,-11
11675,27,-248,31,56,9,-13
11680,27,-248,32,62,7,-12
11685,29,-244,31,65,9,-15
11690,27,-247,31,69,10,-16
11695,28,-246,33,72,10,-15
11700,29,-249,29,73,10,-14
11705,26,-243,28,74,12,-14
11710,25,-245,33,75,12,-13
11715,30,-243,34,77,12,-14
11720,28,-243,34,76,12,-14
11725,28,-243,32,75,11,-14
11730,30,-246,34,72,8,-14
11735,31,-249,31,71,8,-13
11740,26,-243,34,69,8,-12
11745,25,-241,30,65,6,-11
11750,29,-246,31,65,6,-12
11755,28,-246,32,61,7,-12
11760,27,-245,31,61,7,-12
11765,32,-244,31,59,6,-13
11770,27,-244,33,57,8,-12
11775,30,-244,34,57,8,-12
11780,28,-245,32,56,10,-12
11785,29,-245,32,56,11,-15
11790,28,-246,33,58,13,-13
11795,29,-245,30,61,14,-13
11800,30,-249,36,64,14,-13
11805,29,-248,35,69,15,-13
11810,28,-246,33,75,15,-12
11815,26,-244,33,80,15,-13
11820,27,-242,33,83,14,-12
11825,27,-244,34,85,12,-10
11830,27,-243,28,82,12,-10
11835,31,-243,32,79,10,-10
11840,31,-244,36,73,10,-8
11845,28,-243,32,67,8,-9
11850,28,-244,31,61,5,-11
11855,31,-245,29,56,3,-9
11860,29,-246,31,50,2,-9
11865,30,-246,34,48,1,-10
11870,30,-245,31,47,0,-10
11875,25,-244,30,50,0,-9
11880,25,-243,30,51,2,-9
11885,28,-243,36,53,3,-9
11890,27,-247,32,56,5,-9
11895,29,-248,33,59,5,-10
11900,25,-245,35,61,7,-11
11905,26,-240,31,61,9,-11
11910,27,-244,30,63,11,-11
11915,26,-248,31,64,11,-13
11920,27,-241,30,63,12,-14
11925,26,-243,33,64,14,-15
11930,27,-246,34,64,14,-16
11935,28,-243,34,62,14,-15
11940,26,-247,33,63,12,-17
11945,27,-244,31,62,11,-15
11950,28,-247,33,62,9,-14
11955,27,-244,32,60,6,-14
11960,28,-247,31,59,5,-13
11965,32,-245,32,57,2,-11
11970,29,-246,29,55,1,-10
11975,28,-247,30,52,-1,-10
11980,28,-245,32,51,-2,-9
11985,28,-247,32,50,-1,-11
11990,30,-248,33,49,-1,-10
11995,26,-244,34,49,-1,-9
