timestamp,acc_x,acc_y,acc_z,gyro_x,gyro_y,gyro_z
0,9,-246,-69,-42,81,-7
5,8,-248,-68,-37,81,-7
10,6,-248,-73,-34,80,-5
15,8,-247,-66,-32,80,-5
20,9,-247,-70,-34,78,-2
25,8,-248,-75,-34,76,-5
30,9,-248,-71,-36,74,-1
35,7,-245,-73,-40,74,-3
40,9,-249,-71,-44,70,0
45,10,-249,-68,-47,70,-4
50,10,-246,-70,-50,70,-2
55,8,-249,-73,-52,70,-5
60,10,-249,-74,-53,70,-3
65,11,-248,-71,-54,71,-7
70,9,-249,-70,-51,73,-5
75,9,-246,-70,-49,74,-6
80,10,-249,-71,-46,75,-5
85,8,-246,-73,-44,77,-7
90,10,-247,-71,-42,78,-5
95,8,-250,-70,-41,77,-8
100,10,-247,-74,-40,76,-5
105,10,-251,-71,-38,78,-7
110,9,-250,-72,-36,77,-5
115,10,-248,-76,-33,79,-8
120,9,-248,-72,-31,81,-6
125,10,-251,-72,-30,81,-9
130,8,-249,-74,-30,83,-8
135,6,-248,-73,-28,84,-8
140,11,-249,-72,-30,83,-7
145,11,-247,-74,-31,83,-8
150,10,-248,-68,-30,83,-8
155,7,-246,-75,-30,81,-9
160,7,-248,-73,-30,82,-6
165,8,-246,-74,-32,81,-9
170,10,-249,-69,-33,80,-6
175,9,-246,-73,-36,81,-7
180,8,-249,-69,-38,79,-7
185,7,-245,-71,-36,78,-8
190,9,-252,-69,-36,77,-8
195,8,-248,-72,-34,77,-7
200,8,-247,-71,-32,77,-6
205,7,-251,-72,-30,77,-5
210,7,-248,-69,-27,77,-6
215,6,-246,-71,-27,77,-7
220,9,-246,-69,-24,74,-6
225,8,-248,-70,-22,74,-6
230,7,-245,-70,-23,74,-5
235,11,-248,-71,-20,76,-7
240,7,-248,-73,-19,74,-7
245,11,-247,-72,-19,75,-6
250,9,-246,-72,-20,71,-6
255,8,-249,-75,-23,70,-7
260,10,-247,-72,-25,70,-8
265,10,-248,-74,-26,70,-7
270,8,-245,-72,-31,70,-8
275,10,-248,-70,-36,70,-7
280,9,-250,-70,-35,69,-7
285,11,-249,-74,-35,69,-5
290,9,-247,-72,-36,70,-5
295,8,-249,-73,-37,72,-5
300,9,-250,-72,-37,73,-7
305,12,-251,-72,-34,73,-6
310,12,-250,-74,-33,72,-5
315,12,-249,-73,-31,72,-4
320,10,-248,-77,-30,72,-6
325,10,-249,-73,-26,71,-5
330,9,-249,-74,-23,71,-5
335,9,-246,-75,-22,73,-3
340,9,-248,-76,-21,73,-4
345,7,-247,-71,-19,74,-3
350,10,-247,-69,-18,73,-6
355,7,-246,-71,-19,72,-4
360,8,-249,-73,-21,72,-6
365,9,-246,-74,-23,73,-4
370,8,-246,-75,-22,72,-4
375,11,-247,-72,-23,71,-4
380,10,-246,-73,-23,68,-5
385,8,-249,-71,-22,68,-4
390,12,-252,-72,-22,65,-5
395,10,-249,-70,-23,64,-2
400,9,-247,-75,-20,64,-4
405,11,-249,-70,-20,62,-1
410,9,-249,-77,-19,61,-4
415,9,-248,-75,-17,60,-1
420,9,-247,-74,-17,59,-2
425,10,-249,-73,-19,58,-1
430,11,-248,-72,-18,59,-2
435,11,-248,-75,-20,57,1
440,7,-247,-72,-21,56,-2
445,10,-252,-75,-22,54,0
450,9,-247,-69,-23,52,-3
455,9,-248,-68,-23,51,-1
460,8,-250,-68,-21,50,-4
465,7,-247,-71,-20,50,-2
470,8,-248,-73,-19,47,-5
475,9,-248,-72,-18,47,-3
480,11,-247,-72,-15,46,-5
485,9,-244,-74,-14,47,-3
490,9,-248,-74,-16,46,-6
495,10,-248,-71,-17,48,-5
500,10,-247,-71,-21,48,-7
505,9,-245,-70,-22,48,-4
510,12,-247,-73,-24,51,-7
515,11,-249,-72,-24,53,-5
520,10,-247,-74,-25,57,-8
525,11,-246,-73,-26,59,-7
530,12,-249,-72,-25,63,-8
535,11,-247,-75,-25,63,-6
540,12,-246,-76,-25,64,-7
545,12,-246,-73,-26,63,-4
550,13,-247,-72,-28,63,-7
555,13,-245,-73,-31,63,-5
560,10,-247,-73,-33,61,-7
565,11,-247,-71,-33,60,-4
570,11,-244,-71,-33,59,-7
575,9,-249,-74,-32,60,-5
580,11,-248,-70,-30,63,-7
585,10,-249,-73,-27,62,-3
590,5,-247,-71,-23,61,-5
595,11,-251,-70,-18,61,-2
600,10,-251,-71,-16,58,-3
605,8,-246,-73,-13,57,-1
610,8,-247,-72,-12,57,-3
615,8,-249,-71,-9,56,0
620,6,-246,-72,-10,54,-3
625,8,-248,-72,-9,54,-3
630,9,-250,-70,-8,54,-6
635,10,-250,-72,-8,56,-3
640,11,-251,-73,-9,58,-5
645,9,-246,-73,-11,60,-4
650,9,-246,-72,-12,60,-6
655,11,-248,-70,-14,64,-5
660,11,-248,-71,-15,65,-6
665,12,-247,-71,-15,65,-5
670,12,-251,-72,-16,67,-7
675,12,-246,-73,-18,67,-5
680,10,-246,-71,-19,69,-6
685,11,-249,-73,-23,68,-4
690,11,-247,-75,-25,68,-4
695,8,-245,-72,-26,68,-2
700,12,-247,-72,-27,67,-4
705,13,-249,-72,-25,65,-3
710,12,-248,-74,-26,63,-3
715,11,-248,-73,-23,64,-3
720,8,-246,-70,-20,63,-1
725,11,-249,-74,-16,62,-1
730,12,-246,-71,-14,62,0
735,12,-250,-72,-10,62,1
740,9,-249,-71,-5,63,1
745,11,-249,-73,0,62,1
750,7,-248,-71,2,62,2
755,9,-249,-72,4,62,1
760,11,-248,-69,3,62,2
765,11,-247,-76,2,60,0
770,9,-249,-69,-1,59,-1
775,8,-247,-69,-5,58,-2
780,8,-248,-70,-9,56,-2
785,8,-247,-72,-10,57,-3
790,11,-245,-71,-13,57,-3
795,6,-248,-73,-12,56,-3
800,8,-247,-73,-13,56,-2
805,7,-246,-72,-11,57,-3
810,11,-246,-75,-10,58,-1
815,11,-248,-75,-9,58,-2
820,10,-247,-75,-9,60,0
825,10,-247,-74,-10,60,-1
830,9,-247,-76,-9,60,1
835,9,-246,-76,-9,58,-1
840,9,-247,-71,-10,56,-1
845,9,-249,-75,-10,57,-1
850,14,-250,-73,-10,57,0
855,12,-249,-67,-10,58,-3
860,11,-247,-71,-7,59,1
865,6,-245,-74,-6,60,-2
870,10,-248,-73,-3,60,1
875,9,-243,-74,-4,62,-1
880,11,-247,-73,-6,61,2
885,10,-246,-74,-5,61,0
890,8,-246,-73,-7,59,1
895,10,-243,-74,-8,59,-1
900,11,-246,-70,-9,58,1
905,10,-249,-70,-11,58,-1
910,10,-245,-75,-13,59,1
915,9,-246,-72,-14,58,-2
920,8,-245,-74,-17,58,0
925,11,-249,-76,-18,59,-4
930,13,-246,-75,-18,59,-1
935,8,-251,-70,-20,57,-2
940,10,-248,-73,-19,56,-1
945,10,-249,-75,-17,57,-2
950,12,-247,-71,-16,58,1
955,11,-250,-72,-14,57,-1
960,10,-251,-75,-11,58,3
965,9,-250,-77,-7,60,-1
970,9,-250,-73,-5,60,3
975,10,-249,-73,-1,61,0
980,7,-247,-70,0,61,3
985,6,-247,-71,1,61,0
990,10,-248,-68,1,59,1
995,10,-249,-73,-1,58,-2
1000,10,-249,-70,-2,57,1
1005,9,-249,-73,-4,57,-2
1010,10,-248,-66,-5,56,0
1015,9,-247,-75,-5,57,0
1020,9,-246,-73,-5,55,3
1025,10,-247,-68,-7,56,0
1030,9,-246,-72,-8,56,2
1035,9,-247,-71,-11,56,-1
1040,7,-247,-71,-14,56,2
1045,8,-245,-69,-16,55,0
1050,9,-247,-71,-20,54,1
1055,5,-248,-73,-22,54,-2
1060,9,-249,-71,-24,55,-1
1065,9,-249,-70,-26,56,-4
1070,10,-251,-73,-25,57,-1
1075,10,-253,-73,-25,54,-4
1080,10,-251,-73,-25,53,-2
1085,9,-249,-74,-24,50,-5
1090,12,-250,-72,-24,50,-4
1095,10,-246,-69,-21,52,-5
1100,7,-249,-70,-19,53,-2
1105,9,-249,-71,-18,52,-5
1110,9,-250,-74,-17,53,-2
1115,8,-246,-72,-16,54,-5
1120,6,-247,-68,-16,55,-2
1125,9,-245,-77,-15,55,-2
1130,7,-247,-76,-15,55,-3
1135,8,-247,-72,-13,55,-2
1140,9,-247,-74,-13,55,-3
1145,11,-246,-72,-11,54,-5
1150,10,-245,-73,-12,55,-4
1155,10,-246,-72,-14,55,-4
1160,9,-246,-74,-18,54,-3
1165,11,-246,-72,-21,53,-4
1170,12,-247,-72,-25,54,-4
1175,12,-246,-72,-26,55,-4
1180,8,-251,-73,-28,56,-1
1185,12,-253,-75,-27,58,-1
1190,12,-249,-75,-24,61,0
1195,9,-250,-73,-23,62,0
1200,9,-248,-77,-16,64,2
1205,10,-247,-73,-13,66,1
1210,12,-248,-70,-13,67,2
1215,7,-247,-69,-13,65,1
1220,10,-246,-70,-11,63,2
1225,10,-248,-72,-10,62,3
1230,10,-247,-69,-10,60,2
1235,10,-247,-66,-10,61,1
1240,7,-247,-72,-13,60,0
1245,11,-246,-68,-15,59,0
1250,9,-248,-70,-18,60,0
1255,7,-245,-70,-20,59,-1
1260,7,-249,-72,-22,61,-1
1265,7,-249,-77,-22,62,-2
1270,11,-249,-74,-22,63,-4
1275,9,-251,-74,-20,61,-2
1280,9,-250,-68,-23,63,-4
1285,8,-249,-73,-25,63,-4
1290,10,-251,-74,-26,66,-7
1295,8,-249,-74,-28,68,-4
1300,9,-248,-75,-28,68,-4
1305,10,-247,-72,-27,67,-3
1310,9,-248,-70,-26,68,-3
1315,9,-246,-71,-25,68,0
1320,10,-244,-72,-23,69,0
1325,9,-243,-74,-24,67,2
1330,10,-246,-76,-24,68,-1
1335,10,-244,-74,-26,67,1
1340,11,-245,-76,-28,69,0
1345,12,-246,-78,-28,70,1
1350,11,-246,-74,-30,71,1
1355,9,-247,-75,-31,72,2
1360,13,-248,-75,-31,73,1
1365,8,-246,-76,-29,77,3
1370,12,-249,-75,-28,79,1
1375,12,-249,-71,-27,78,4
1380,8,-247,-74,-25,79,2
1385,9,-250,-74,-21,79,2
1390,10,-249,-70,-19,80,0
1395,7,-247,-77,-18,79,3
1400,8,-245,-76,-17,80,-1
1405,9,-245,-71,-17,80,0
1410,8,-246,-73,-19,80,-3
1415,8,-248,-71,-21,80,1
1420,7,-247,-75,-25,79,-1
1425,4,-247,-71,-28,78,1
1430,8,-249,-74,-29,76,-3
1435,7,-248,-73,-30,73,-1
1440,7,-250,-73,-29,72,-2
1445,6,-250,-72,-28,70,0
1450,8,-250,-73,-25,69,-2
1455,8,-249,-75,-22,69,0
1460,11,-250,-73,-16,67,-1
1465,6,-251,-74,-11,65,2
1470,7,-249,-72,-8,64,0
1475,6,-248,-74,-4,64,2
1480,9,-247,-70,-3,65,0
1485,9,-249,-72,-3,66,3
1490,7,-245,-75,-3,67,0
1495,10,-247,-72,-4,69,1
1500,7,-245,-71,-5,68,0
1505,8,-246,-72,-7,71,0
1510,8,-247,-70,-8,71,-2
1515,10,-248,-71,-7,72,-1
1520,8,-247,-73,-7,74,-2
1525,10,-247,-68,-7,74,-2
1530,12,-247,-72,-7,74,-5
1535,9,-246,-69,-9,74,-1
1540,11,-247,-76,-10,75,-4
1545,9,-249,-70,-9,76,-1
1550,9,-247,-71,-8,75,-4
1555,9,-247,-72,-12,73,-1
1560,8,-246,-72,-12,71,-4
1565,11,-251,-69,-13,70,-3
1570,9,-247,-77,-14,68,-5
1575,10,-248,-74,-12,66,-1
1580,5,-247,-73,-12,65,-4
1585,7,-246,-70,-12,67,-3
1590,10,-248,-71,-12,68,-4
1595,10,-251,-73,-13,68,-2
1600,9,-247,-74,-11,68,-3
1605,6,-249,-73,-10,69,-2
1610,9,-248,-73,-8,69,-4
1615,8,-247,-72,-7,68,-2
1620,7,-246,-72,-3,67,-5
1625,9,-247,-74,-1,67,-1
1630,11,-250,-71,0,66,-2
1635,8,-248,-71,3,65,-1
1640,8,-247,-71,6,64,-2
1645,8,-248,-76,8,62,1
1650,8,-249,-74,8,61,-2
1655,8,-248,-71,9,60,0
1660,8,-246,-74,8,60,-3
1665,7,-247,-76,5,61,-3
1670,8,-248,-71,1,63,-4
1675,11,-249,-72,-2,64,-2
1680,9,-246,-74,-6,65,-2
1685,9,-243,-73,-8,66,-2
1690,9,-250,-75,-7,65,-2
1695,8,-250,-72,-8,63,-2
1700,9,-250,-74,-9,63,-3
1705,7,-247,-71,-9,61,-2
1710,6,-246,-74,-7,61,-3
1715,7,-248,-72,-5,60,0
1720,9,-248,-72,-6,60,-3
1725,7,-248,-69,-4,58,-2
1730,8,-247,-74,-5,58,-1
1735,9,-246,-71,-4,58,-1
1740,7,-246,-71,-5,57,-1
1745,8,-247,-75,-6,56,-3
1750,9,-247,-72,-8,56,-2
1755,10,-248,-75,-7,56,-2
1760,11,-247,-74,-8,57,-3
1765,10,-244,-69,-10,59,-2
1770,10,-249,-73,-11,58,-1
1775,9,-247,-73,-13,58,-1
1780,8,-248,-72,-15,55,-1
1785,9,-247,-72,-19,51,-3
1790,10,-246,-74,-22,49,-2
1795,9,-249,-68,-24,48,-4
1800,8,-248,-75,-26,46,-4
1805,8,-247,-73,-28,43,-4
1810,11,-254,-72,-29,42,-4
1815,7,-249,-74,-29,42,-6
1820,8,-247,-72,-28,42,-6
1825,7,-251,-74,-26,41,-7
1830,10,-251,-73,-24,40,-5
1835,9,-252,-70,-18,42,-7
1840,9,-250,-73,-16,44,-5
1845,7,-249,-71,-12,47,-5
1850,6,-248,-73,-10,51,-3
1855,10,-249,-71,-9,51,-6
1860,11,-245,-70,-8,53,-5
1865,9,-249,-71,-8,54,-5
1870,12,-247,-74,-8,53,-4
1875,8,-246,-68,-9,53,-6
1880,11,-247,-73,-9,53,-5
1885,11,-249,-72,-11,52,-7
1890,10,-249,-73,-12,52,-5
1895,9,-246,-73,-13,51,-6
1900,10,-250,-72,-14,50,-3
1905,10,-248,-72,-15,50,-4
1910,12,-247,-68,-16,49,-3
1915,8,-247,-72,-18,47,-6
1920,9,-247,-71,-19,47,-2
1925,12,-248,-69,-20,47,-4
1930,9,-246,-72,-20,48,-1
1935,10,-249,-72,-23,47,-3
1940,9,-247,-72,-22,47,-2
1945,10,-248,-72,-23,45,-4
1950,12,-249,-76,-23,46,-2
1955,7,-249,-71,-24,47,-5
1960,11,-250,-72,-23,47,-2
1965,8,-251,-71,-21,48,-5
1970,9,-248,-74,-21,50,-2
1975,10,-250,-74,-20,53,-5
1980,9,-248,-74,-20,54,-2
1985,9,-249,-72,-20,56,-6
1990,11,-248,-75,-19,57,-3
1995,7,-246,-74,-17,57,-6
2000,12,-252,-71,-16,57,-3
2005,12,-249,-72,-16,58,-7
2010,9,-250,-74,-16,60,-4
2015,11,-248,-74,-13,61,-7
2020,9,-247,-70,-13,60,-4
2025,12,-250,-74,-12,60,-7
2030,10,-247,-73,-13,60,-4
2035,8,-247,-75,-12,60,-5
2040,10,-247,-74,-13,59,-4
2045,11,-246,-71,-15,59,-6
2050,11,-249,-73,-15,59,-4
2055,9,-251,-75,-16,58,-6
2060,9,-247,-72,-16,58,-3
2065,9,-248,-75,-16,58,-6
2070,9,-248,-73,-13,59,-4
2075,12,-251,-72,-12,61,-5
2080,9,-246,-76,-8,60,-2
2085,11,-249,-73,-8,62,-4
2090,11,-248,-75,-6,64,-1
2095,7,-242,-72,-6,63,-3
2100,12,-248,-74,-7,65,-1
2105,13,-247,-73,-7,64,-3
2110,7,-246,-76,-10,65,-1
2115,9,-247,-74,-12,65,-4
2120,10,-246,-77,-15,65,-2
2125,7,-247,-71,-17,66,-4
2130,10,-247,-72,-19,69,-2
2135,7,-245,-70,-23,70,-4
2140,10,-245,-73,-26,71,-3
2145,9,-248,-73,-28,73,-4
2150,9,-247,-75,-29,74,-2
2155,9,-248,-74,-30,75,-4
2160,8,-247,-69,-31,75,-3
2165,9,-248,-73,-30,76,-3
2170,8,-250,-72,-27,75,0
2175,7,-249,-74,-27,76,-2
2180,8,-249,-72,-26,77,-1
2185,7,-250,-73,-23,76,-2
2190,9,-250,-75,-19,76,-1
2195,10,-249,-70,-19,75,-2
2200,7,-250,-73,-16,74,0
2205,7,-249,-75,-16,74,-2
2210,8,-247,-71,-15,74,-1
2215,9,-249,-73,-14,72,-3
2220,7,-248,-75,-12,69,-2
2225,6,-246,-72,-10,71,-2
2230,8,-249,-75,-10,71,-1
2235,7,-249,-72,-7,70,-3
2240,8,-246,-75,-7,68,-2
2245,8,-248,-70,-5,68,-3
2250,9,-248,-77,-6,69,-3
2255,9,-244,-71,-6,68,-2
2260,8,-247,-72,-6,70,-2
2265,8,-246,-73,-10,71,-3
2270,5,-247,-76,-11,72,-3
2275,8,-247,-74,-15,75,-3
2280,8,-250,-78,-18,77,-2
2285,6,-248,-76,-23,78,-3
2290,7,-248,-76,-29,80,-1
2295,10,-252,-78,-34,80,-1
2300,7,-252,-77,-36,81,1
2305,9,-257,-82,-36,80,2
2310,10,-252,-91,-28,81,2
2315,9,-261,-81,-19,81,6
2320,18,-261,-75,-9,82,8
2325,9,-251,-93,0,81,10
2330,17,-234,-96,3,77,9
2335,7,-244,-95,5,71,9
2340,19,-256,-85,4,63,9
2345,10,-248,-101,5,54,10
2350,9,-237,-77,8,45,9
2355,8,-249,-78,13,39,9
2360,11,-254,-80,24,35,7
2365,8,-250,-79,34,27,7
2370,14,-252,-84,38,13,3
2375,14,-251,-89,32,-2,0
2380,13,-249,-92,14,-20,-6
2385,14,-245,-103,-16,-38,-8
2390,15,-243,-106,-56,-52,-13
2395,12,-242,-114,-102,-61,-13
2400,13,-239,-114,-152,-66,-16
2405,13,-240,-113,-193,-66,-14
2410,9,-241,-108,-225,-64,-15
2415,10,-238,-106,-243,-60,-12
2420,7,-241,-99,-251,-54,-12
2425,8,-246,-101,-241,-50,-10
2430,9,-245,-103,-219,-45,-11
2435,11,-248,-100,-186,-41,-7
2440,10,-244,-102,-150,-36,-9
2445,9,-240,-104,-117,-27,-7
2450,11,-232,-110,-87,-15,-13
2455,11,-229,-115,-66,-4,-13
2460,11,-223,-116,-55,5,-18
2465,12,-219,-116,-54,14,-16
2470,11,-215,-115,-58,23,-17
2475,12,-216,-111,-70,26,-14
2480,13,-217,-105,-80,29,-17
2485,15,-220,-98,-89,29,-15
2490,16,-221,-101,-96,25,-18
2495,18,-219,-94,-101,19,-19
2500,17,-220,-88,-104,7,-27
2505,12,-221,-86,-109,-7,-29
2510,15,-222,-77,-122,-29,-38
2515,14,-220,-88,-147,-56,-45
2520,18,-218,-100,-187,-92,-65
2525,16,-212,-114,-262,-116,-79
2530,12,-204,-133,-349,-134,-98
2535,13,-200,-134,-445,-144,-113
2540,9,-196,-131,-544,-148,-132
2545,7,-195,-134,-648,-149,-146
2550,9,-187,-138,-752,-149,-164
2555,9,-182,-149,-858,-152,-175
2560,6,-173,-159,-966,-153,-192
2565,7,-166,-174,-1080,-153,-204
2570,4,-158,-183,-1195,-148,-213
2575,0,-150,-187,-1308,-135,-209
2580,2,-142,-189,-1372,-121,-204
2585,1,-135,-194,-1407,-113,-193
2590,5,-126,-195,-1426,-105,-189
2595,6,-111,-197,-1450,-97,-187
2600,11,-101,-196,-1485,-90,-192
2605,15,-86,-197,-1529,-79,-201
2610,17,-77,-196,-1582,-56,-217
2615,18,-67,-187,-1637,-24,-226
2620,17,-54,-182,-1692,15,-236
2625,14,-44,-171,-1748,62,-236
2630,19,-29,-164,-1781,98,-242
2635,9,-19,-144,-1804,123,-241
2640,8,-8,-125,-1817,137,-244
2645,6,-3,-110,-1817,138,-241
2650,3,8,-91,-1809,127,-238
2655,-2,13,-69,-1791,105,-229
2660,-5,23,-55,-1765,73,-222
2665,-10,28,-39,-1728,37,-210
2670,-11,27,-21,-1684,1,-194
2675,-18,30,-6,-1629,-43,-178
2680,-17,22,-3,-1583,-83,-166
2685,-12,13,10,-1538,-125,-156
2690,-12,-1,8,-1494,-171,-154
2695,-6,-18,-2,-1467,-224,-154
2700,5,-32,-10,-1468,-273,-169
2705,8,-51,-29,-1499,-312,-187
2710,10,-66,-49,-1552,-344,-204
2715,14,-84,-57,-1619,-363,-212
2720,11,-95,-76,-1688,-371,-210
2725,13,-103,-93,-1741,-353,-183
2730,18,-113,-113,-1781,-315,-150
2735,30,-121,-138,-1803,-260,-101
2740,45,-121,-164,-1819,-191,-58
2745,63,-127,-183,-1826,-125,-26
2750,69,-123,-209,-1810,-74,-16
2755,73,-119,-226,-1794,-41,-24
2760,64,-122,-240,-1779,-6,-41
2765,53,-127,-243,-1768,36,-53
2770,34,-133,-229,-1765,75,-60
2775,11,-147,-207,-1772,94,-59
2780,-1,-169,-175,-1781,79,-59
2785,-12,-192,-140,-1751,46,-59
2790,-27,-217,-114,-1662,2,-53
2795,-33,-238,-90,-1524,-51,-35
2800,-33,-260,-78,-1350,-105,-8
2805,-32,-265,-78,-1144,-154,23
2810,-21,-277,-82,-934,-192,53
2815,-5,-275,-108,-752,-216,67
2820,4,-272,-132,-628,-228,66
2825,14,-263,-160,-579,-226,46
2830,21,-265,-180,-596,-211,25
2835,30,-263,-183,-645,-197,3
2840,31,-263,-184,-701,-197,-14
2845,32,-275,-183,-739,-207,-29
2850,29,-290,-181,-725,-234,-43
2855,23,-311,-172,-663,-278,-47
2860,9,-314,-174,-536,-324,-29
2865,-1,-299,-177,-352,-373,-14
2870,-12,-279,-183,-175,-413,18
2875,-17,-271,-193,-28,-419,91
2880,-20,-264,-202,110,-395,154
2885,-21,-264,-203,190,-361,200
2890,-26,-264,-211,227,-327,234
2895,-28,-276,-213,236,-308,272
2900,-29,-291,-208,245,-327,315
2905,-25,-312,-214,278,-380,364
2910,-21,-333,-230,352,-452,424
2915,-1,-347,-242,483,-516,489
2920,1,-351,-257,658,-549,539
2925,5,-360,-260,852,-543,575
2930,39,-362,-256,1088,-522,582
2935,43,-348,-256,1231,-489,537
2940,43,-337,-250,1282,-445,479
2945,35,-336,-246,1268,-387,419
2950,34,-336,-244,1234,-322,365
2955,15,-354,-231,1221,-262,325
2960,11,-367,-232,1256,-217,288
2965,-1,-390,-228,1321,-186,223
2970,-11,-420,-226,1415,-197,130
2975,-24,-467,-211,1515,-232,-13
2980,-37,-525,-218,1636,-308,-153
2985,-56,-587,-222,1753,-385,-306
2990,-48,-675,-225,1905,-486,-462
2995,-54,-732,-231,2094,-574,-633
3000,-43,-741,-261,2363,-667,-795
3005,-40,-698,-370,2656,-772,-961
3010,-57,-537,-487,2895,-823,-1101
3015,-51,-347,-603,3041,-847,-1224
3020,-40,-162,-667,3079,-786,-1215
3025,-34,-16,-678,2992,-517,-919
3030,-50,-3,-521,2450,-115,-539
3035,-44,-68,-334,1534,-2,-254
3040,-31,-141,-243,743,-5,-42
3045,-12,-218,-164,333,-13,106
3050,-5,-268,-111,160,-15,198
3055,4,-293,-81,67,-20,249
3060,20,-308,-56,-20,-24,285
3065,27,-308,-27,-126,-27,296
3070,32,-294,-11,-232,-39,291
3075,34,-280,5,-326,-48,257
3080,28,-260,9,-402,-43,217
3085,24,-245,15,-446,-34,173
3090,20,-231,22,-483,-8,140
3095,15,-223,25,-509,29,92
3100,4,-215,22,-514,50,41
3105,-4,-207,9,-499,65,-12
3110,-7,-201,0,-480,84,-53
3115,-10,-198,-7,-446,105,-85
3120,-7,-199,-24,-401,135,-104
3125,-11,-200,-34,-355,172,-118
3130,-8,-203,-50,-262,217,-118
3135,-10,-213,-54,-177,259,-125
3140,-11,-219,-59,-101,281,-137
3145,-11,-230,-60,-37,288,-159
3150,-11,-238,-64,54,286,-173
3155,-12,-244,-65,135,266,-195
3160,-12,-252,-73,219,241,-211
3165,-12,-257,-81,316,214,-227
3170,-19,-260,-92,419,187,-235
3175,-19,-263,-105,523,162,-245
3180,-21,-260,-117,643,138,-242
3185,-15,-256,-128,730,124,-238
3190,-12,-256,-144,799,123,-225
3195,-12,-253,-152,849,132,-212
3200,-9,-247,-170,873,146,-190
3205,-7,-241,-178,871,166,-174
3210,-7,-234,-184,843,185,-155
3215,-1,-231,-192,798,199,-141
3220,-2,-230,-193,744,214,-131
3225,2,-226,-200,683,224,-126
3230,2,-226,-201,612,234,-126
3235,0,-225,-195,558,243,-130
3240,4,-221,-197,508,250,-135
3245,1,-220,-196,461,262,-139
3250,-1,-216,-194,421,273,-139
3255,0,-213,-185,385,283,-138
3260,0,-208,-178,360,289,-125
3265,4,-204,-168,337,295,-112
3270,5,-202,-169,310,297,-99
3275,8,-202,-155,289,299,-87
3280,6,-198,-147,270,300,-67
3285,8,-198,-139,253,302,-48
3290,12,-198,-138,247,310,-30
3295,14,-197,-136,234,323,-19
3300,18,-198,-129,215,345,-11
3305,20,-197,-128,182,363,-10
3310,22,-199,-125,137,383,-11
3315,22,-199,-127,96,406,-14
3320,27,-203,-122,63,432,-13
3325,27,-204,-124,30,460,-14
3330,27,-208,-120,1,491,-16
3335,26,-211,-118,-24,507,-20
3340,26,-214,-119,-32,519,-20
3345,19,-214,-116,-31,528,-22
3350,17,-217,-114,-19,530,-24
3355,20,-220,-113,9,528,-25
3360,15,-221,-113,49,517,-28
3365,12,-225,-112,94,506,-33
3370,9,-224,-113,146,491,-38
3375,6,-225,-116,203,474,-40
3380,4,-226,-118,262,453,-44
3385,2,-229,-121,333,435,-46
3390,-1,-216,-125,387,419,-47
3395,-2,-224,-124,432,402,-47
3400,-2,-226,-129,473,387,-48
3405,-1,-224,-133,505,377,-50
3410,1,-221,-136,528,366,-55
3415,2,-219,-135,546,356,-60
3420,3,-221,-141,557,347,-68
3425,5,-216,-143,558,339,-73
3430,4,-215,-145,553,326,-80
3435,6,-211,-144,540,313,-84
3440,8,-209,-152,527,301,-88
3445,6,-213,-147,509,286,-88
3450,10,-211,-148,489,271,-87
3455,10,-213,-145,467,256,-85
3460,12,-213,-144,445,242,-83
3465,13,-218,-142,419,231,-75
3470,15,-220,-136,392,220,-70
3475,17,-221,-134,365,209,-60
3480,17,-225,-130,339,198,-49
3485,18,-227,-128,306,190,-41
3490,17,-233,-123,276,182,-35
3495,18,-233,-121,248,175,-29
3500,19,-242,-118,223,168,-26
3505,21,-242,-112,200,162,-22
3510,22,-245,-112,183,158,-23
3515,23,-243,-107,171,156,-20
3520,20,-248,-103,166,156,-19
3525,25,-251,-99,170,160,-16
3530,24,-248,-98,174,168,-13
3535,24,-246,-95,182,174,-8
3540,22,-245,-97,190,178,-8
3545,22,-241,-96,197,180,-5
3550,22,-243,-94,206,179,-7
3555,21,-241,-95,212,174,-5
3560,18,-237,-94,218,168,-8
3565,17,-234,-97,222,156,-6
3570,12,-229,-95,225,143,-9
3575,13,-229,-93,226,128,-9
3580,12,-231,-92,223,116,-13
3585,11,-231,-94,220,106,-12
3590,6,-227,-95,214,99,-14
3595,7,-230,-94,205,93,-9
3600,3,-226,-90,198,86,-7
3605,3,-230,-95,187,80,0
3610,3,-234,-94,179,75,2
3615,5,-233,-87,172,69,9
3620,2,-232,-96,165,61,11
3625,4,-238,-91,161,58,16
3630,6,-242,-95,161,55,16
3635,4,-242,-90,158,53,19
3640,9,-242,-94,158,51,16
3645,9,-246,-95,155,49,15
3650,14,-246,-97,153,47,9
3655,15,-249,-96,152,42,7
3660,17,-248,-96,149,38,-3
3665,21,-249,-94,145,35,-6
3670,23,-248,-95,142,33,-16
3675,26,-247,-95,138,29,-21
3680,24,-245,-94,133,29,-33
3685,28,-246,-94,128,32,-36
3690,26,-246,-89,125,39,-41
3695,28,-247,-94,119,46,-40
3700,28,-247,-94,114,54,-44
3705,29,-243,-94,109,62,-41
3710,29,-244,-96,107,72,-43
3715,26,-240,-94,106,79,-37
3720,21,-237,-97,104,88,-36
3725,21,-238,-94,105,93,-28
3730,17,-237,-93,107,96,-21
3735,17,-233,-94,108,98,-13
3740,13,-234,-96,110,99,-9
3745,15,-232,-93,108,98,-2
3750,12,-234,-95,107,99,2
3755,11,-230,-95,105,99,7
3760,11,-233,-91,102,98,10
3765,9,-232,-92,98,98,14
3770,11,-235,-90,95,96,15
3775,7,-231,-89,91,92,18
3780,8,-235,-90,86,87,19
3785,9,-236,-87,83,79,22
3790,11,-236,-85,78,71,20
3795,10,-238,-92,73,62,23
3800,12,-237,-91,67,57,21
3805,13,-237,-94,60,50,22
3810,15,-240,-92,56,44,19
3815,18,-240,-93,51,40,19
3820,18,-243,-92,44,38,14
3825,16,-240,-96,37,39,11
3830,18,-242,-96,32,39,5
3835,18,-241,-95,28,41,2
3840,20,-241,-95,22,43,-2
3845,20,-240,-95,19,46,-3
3850,20,-243,-91,16,50,-8
3855,22,-243,-94,14,52,-8
3860,18,-242,-95,13,53,-11
3865,22,-244,-94,14,56,-11
3870,19,-245,-95,16,58,-13
3875,20,-243,-95,21,61,-11
3880,21,-243,-90,24,63,-12
3885,22,-243,-93,27,68,-9
3890,22,-241,-91,29,70,-7
3895,21,-242,-93,31,72,-4
3900,19,-243,-94,31,73,-3
3905,18,-240,-96,29,72,0
3910,18,-242,-94,30,74,0
3915,17,-241,-94,31,71,3
3920,15,-243,-94,31,72,4
3925,18,-240,-92,31,75,7
3930,18,-241,-91,32,77,7
3935,16,-240,-94,34,80,9
3940,18,-238,-92,36,80,8
3945,18,-241,-92,35,79,10
3950,15,-239,-93,34,78,9
3955,15,-239,-92,35,75,10
3960,15,-236,-93,33,73,12
3965,14,-239,-99,31,70,10
3970,16,-236,-94,29,67,9
3975,17,-242,-100,26,67,9
3980,17,-238,-95,22,64,9
3985,14,-241,-95,18,63,9
3990,16,-240,-98,16,62,9
3995,14,-239,-96,14,61,10
4000,13,-243,-95,14,60,11
4005,17,-240,-99,17,60,12
4010,16,-240,-92,20,62,13
4015,15,-242,-94,25,61,16
4020,15,-242,-90,32,62,20
4025,14,-240,-95,37,62,21
4030,15,-243,-94,41,60,25
4035,16,-242,-92,47,60,26
4040,15,-240,-96,53,58,28
4045,16,-240,-94,58,60,30
4050,13,-241,-101,59,59,32
4055,14,-242,-99,60,59,34
4060,18,-238,-99,59,61,37
4065,14,-239,-99,59,63,38
4070,15,-239,-96,59,65,38
4075,17,-238,-99,60,65,34
4080,15,-238,-96,60,64,36
4085,17,-237,-97,59,64,34
4090,16,-239,-92,54,63,35
4095,16,-238,-98,50,59,33
4100,17,-239,-94,45,58,32
4105,14,-242,-91,42,56,31
4110,16,-238,-93,38,55,33
4115,11,-240,-91,35,55,29
4120,11,-241,-92,33,57,31
4125,14,-242,-93,33,59,27
4130,10,-241,-91,35,61,29
4135,13,-244,-92,37,62,26
4140,13,-244,-90,39,64,27
4145,13,-243,-94,40,65,26
4150,12,-242,-94,41,66,28
4155,14,-243,-92,42,67,28
4160,15,-239,-89,43,66,31
4165,14,-242,-89,42,65,28
4170,13,-238,-93,44,65,31
4175,12,-239,-86,43,63,26
4180,15,-241,-94,40,59,28
4185,17,-241,-87,39,56,26
4190,16,-241,-92,36,50,27
4195,13,-239,-89,33,49,25
4200,11,-240,-91,29,49,29
4205,16,-242,-90,27,50,26
4210,16,-242,-88,23,51,30
4215,16,-243,-87,22,53,28
4220,14,-240,-85,21,53,31
4225,13,-245,-85,19,55,30
4230,14,-243,-85,21,55,31
4235,16,-244,-79,21,52,29
4240,11,-247,-85,23,51,29
4245,14,-246,-84,24,50,27
4250,13,-246,-84,24,48,29
4255,12,-240,-84,22,46,25
4260,14,-244,-83,21,44,26
4265,12,-242,-86,17,42,23
4270,14,-241,-87,16,43,26
4275,13,-243,-84,11,42,23
4280,14,-242,-86,7,43,25
4285,13,-239,-86,5,43,22
4290,13,-239,-85,2,41,24
4295,10,-242,-87,-1,41,20
4300,15,-241,-85,-4,40,21
4305,12,-241,-86,-6,39,16
4310,12,-245,-90,-6,39,17
4315,11,-245,-88,-7,38,14
4320,11,-241,-86,-7,39,13
4325,13,-245,-89,-7,40,10
4330,13,-244,-88,-7,43,12
4335,13,-246,-88,-10,45,11
4340,13,-245,-88,-10,48,13
4345,10,-245,-92,-13,51,12
4350,13,-246,-89,-10,52,14
4355,12,-244,-89,-8,54,12
4360,11,-244,-95,-7,58,16
4365,10,-245,-92,-4,61,15
4370,9,-245,-88,0,62,19
4375,10,-244,-91,1,63,17
4380,12,-243,-88,2,64,20
4385,11,-240,-89,4,63,19
4390,11,-243,-87,6,63,20
4395,10,-241,-87,5,60,18
4400,11,-243,-91,6,58,17
4405,11,-242,-90,5,57,16
4410,9,-240,-91,5,57,17
4415,12,-239,-90,4,55,15
4420,10,-241,-85,4,56,16
4425,10,-241,-91,5,58,15
4430,13,-242,-89,3,60,17
4435,11,-243,-88,1,62,15
4440,12,-240,-87,2,63,13
4445,10,-244,-89,0,65,10
4450,15,-243,-90,-1,65,10
4455,12,-239,-87,-1,65,7
4460,12,-241,-92,-2,67,6
4465,14,-241,-90,-4,71,5
4470,14,-246,-88,-6,70,4
4475,11,-243,-87,-8,71,2
4480,12,-243,-90,-10,71,-1
4485,11,-243,-89,-14,69,-3
4490,13,-240,-91,-15,68,-4
4495,11,-241,-91,-17,66,-6
4500,15,-241,-89,-18,65,-6
4505,13,-244,-88,-18,62,-8
4510,15,-245,-89,-20,58,-8
4515,11,-240,-88,-21,56,-8
4520,10,-243,-87,-22,52,-8
4525,9,-241,-96,-22,50,-8
4530,13,-241,-93,-23,49,-9
4535,10,-244,-91,-23,47,-9
4540,9,-242,-97,-22,46,-10
4545,11,-243,-88,-19,45,-11
4550,8,-244,-89,-17,46,-9
4555,10,-245,-90,-15,47,-9
4560,13,-243,-90,-11,49,-8
4565,6,-243,-89,-9,49,-8
4570,11,-243,-92,-7,53,-8
4575,11,-245,-90,-6,56,-7
4580,10,-244,-93,-5,58,-6
4585,11,-245,-90,-3,60,-6
4590,9,-241,-89,-3,60,-5
4595,10,-246,-88,-3,58,-4
4600,11,-244,-85,-4,58,-2
4605,11,-247,-87,-4,58,-3
4610,11,-242,-84,-5,57,-4
4615,11,-241,-84,-7,56,-2
4620,13,-243,-83,-7,55,-3
4625,15,-245,-83,-9,50,-3
4630,14,-243,-86,-10,49,-6
4635,12,-242,-85,-10,47,-6
4640,14,-242,-82,-11,46,-10
4645,16,-243,-84,-12,45,-11
4650,13,-242,-87,-12,46,-14
4655,15,-243,-80,-12,45,-14
4660,15,-244,-85,-14,48,-18
4665,14,-244,-86,-14,50,-17
4670,14,-243,-85,-14,50,-21
4675,12,-240,-88,-15,52,-20
4680,14,-241,-87,-17,52,-24
4685,14,-238,-89,-18,52,-23
4690,13,-242,-87,-18,54,-25
4695,11,-250,-88,-17,55,-23
4700,6,-248,-78,-15,55,-25
4705,13,-243,-84,-10,57,-24
4710,9,-266,-77,-6,59,-26
4715,7,-247,-82,-3,61,-23
4720,18,-241,-83,0,62,-24
4725,18,-253,-79,0,63,-21
4730,9,-240,-103,0,62,-21
4735,12,-248,-87,1,61,-17
4740,9,-243,-86,-1,63,-18
4745,11,-245,-91,-1,62,-15
4750,8,-243,-91,-3,63,-17
4755,8,-241,-90,-7,61,-14
4760,7,-245,-90,-10,59,-16
4765,11,-243,-91,-15,57,-12
4770,13,-240,-90,-18,58,-16
4775,14,-241,-89,-20,57,-11
4780,13,-242,-89,-22,57,-11
4785,12,-240,-86,-22,56,-9
4790,14,-240,-87,-21,55,-11
4795,13,-241,-87,-23,52,-7
4800,11,-241,-88,-26,50,-8
4805,13,-242,-89,-27,47,-4
4810,10,-245,-88,-28,45,-7
4815,12,-244,-88,-31,43,-1
4820,14,-244,-87,-31,41,-2
4825,11,-244,-90,-31,41,0
4830,14,-246,-86,-29,41,-2
4835,13,-245,-88,-27,42,1
4840,11,-246,-86,-24,44,-2
4845,12,-242,-84,-23,46,-1
4850,12,-243,-87,-22,47,-4
4855,11,-239,-85,-23,48,-4
4860,11,-242,-89,-24,48,-9
4865,11,-243,-87,-26,49,-8
4870,9,-240,-88,-28,48,-10
4875,12,-244,-88,-30,49,-8
4880,12,-245,-86,-30,49,-10
4885,7,-240,-88,-31,51,-8
4890,12,-242,-84,-33,53,-10
4895,11,-240,-91,-33,52,-7
4900,11,-240,-87,-34,55,-9
4905,14,-242,-85,-39,56,-5
4910,10,-244,-90,-39,59,-7
4915,9,-244,-90,-40,63,-3
4920,14,-246,-92,-40,65,-4
4925,14,-243,-92,-40,68,1
4930,13,-246,-90,-39,69,0
4935,12,-244,-86,-36,71,1
4940,16,-247,-91,-34,72,0
4945,15,-244,-88,-31,69,1
4950,17,-245,-92,-28,65,0
4955,15,-245,-88,-26,64,2
4960,15,-246,-91,-22,61,0
4965,16,-244,-91,-22,59,2
4970,17,-243,-92,-20,57,2
4975,14,-242,-87,-21,54,2
4980,17,-244,-87,-20,53,1
4985,15,-241,-89,-19,54,1
4990,14,-242,-84,-20,54,-1
4995,12,-241,-91,-19,54,-1
5000,15,-244,-86,-20,56,-7
5005,14,-241,-86,-19,56,-6
5010,13,-243,-89,-18,56,-8
5015,11,-244,-86,-18,57,-7
5020,16,-243,-89,-17,59,-9
5025,14,-245,-88,-16,59,-8
5030,11,-243,-90,-12,57,-10
5035,12,-241,-94,-11,59,-9
5040,11,-241,-90,-9,61,-10
5045,13,-243,-91,-8,62,-9
5050,12,-240,-92,-6,65,-8
5055,13,-244,-90,-6,69,-6
5060,12,-241,-91,-5,71,-6
5065,12,-239,-90,-6,72,-4
5070,15,-239,-92,-7,71,-4
5075,13,-242,-94,-7,70,-2
5080,12,-242,-90,-10,69,-3
5085,15,-243,-88,-11,67,-2
5090,15,-242,-90,-11,65,-3
5095,14,-243,-89,-14,65,-3
5100,13,-243,-90,-14,62,-3
5105,12,-244,-88,-15,59,-2
5110,11,-243,-88,-15,58,-1
5115,13,-242,-85,-14,59,-2
5120,14,-244,-91,-12,61,-1
5125,15,-245,-91,-10,61,0
5130,11,-245,-88,-9,64,0
5135,14,-244,-91,-8,64,-1
5140,14,-244,-87,-7,64,0
5145,15,-243,-89,-6,63,1
5150,13,-243,-88,-5,62,2
5155,10,-242,-89,-5,58,3
5160,14,-244,-87,-6,56,4
5165,13,-244,-88,-5,55,5
5170,13,-242,-91,-7,55,5
5175,13,-244,-93,-6,54,4
5180,12,-245,-91,-9,55,5
5185,12,-243,-91,-11,53,3
5190,8,-241,-91,-11,53,4
5195,12,-244,-89,-13,52,2
5200,13,-241,-86,-12,51,3
5205,13,-244,-87,-13,50,1
5210,10,-242,-89,-11,50,4
5215,11,-239,-92,-12,50,4
5220,12,-244,-88,-13,49,6
5225,12,-241,-85,-12,50,5
5230,10,-241,-87,-13,48,7
5235,15,-240,-87,-11,49,6
5240,11,-242,-90,-10,49,8
5245,16,-245,-87,-12,49,7
5250,14,-243,-88,-12,48,7
5255,13,-244,-87,-12,47,6
5260,14,-243,-90,-12,46,8
5265,12,-243,-88,-12,45,7
5270,12,-245,-88,-11,47,8
5275,13,-246,-88,-12,49,6
5280,13,-241,-91,-11,51,6
5285,13,-243,-86,-11,53,6
5290,12,-242,-88,-9,55,7
5295,15,-245,-89,-9,57,4
5300,11,-245,-93,-8,58,7
5305,11,-245,-91,-9,57,5
5310,12,-243,-87,-9,59,7
5315,11,-244,-88,-9,61,4
5320,13,-244,-87,-8,61,6
5325,10,-246,-87,-8,63,4
5330,10,-242,-90,-6,63,4
5335,14,-244,-89,-6,62,1
5340,11,-242,-87,-5,61,2
5345,12,-245,-84,-5,60,-1
5350,9,-245,-92,-4,59,1
5355,13,-243,-88,-5,60,-1
5360,12,-245,-95,-4,60,0
5365,11,-242,-91,-3,61,-3
5370,10,-243,-91,-3,60,0
5375,13,-244,-89,-1,62,-3
5380,9,-244,-92,2,61,-1
5385,11,-244,-92,5,63,-4
5390,10,-246,-89,5,65,1
5395,14,-244,-86,3,66,-1
5400,12,-245,-88,4,66,3
5405,14,-246,-86,3,64,2
5410,11,-243,-86,2,65,5
5415,10,-244,-85,1,62,3
5420,11,-245,-82,0,62,6
5425,14,-246,-83,-2,60,4
5430,11,-245,-85,-3,59,7
5435,9,-240,-85,-1,60,4
5440,11,-244,-87,0,59,5
5445,12,-241,-83,0,60,3
5450,12,-240,-89,2,61,4
5455,12,-246,-88,4,62,1
5460,10,-241,-92,5,62,2
5465,13,-241,-90,6,60,-1
5470,11,-245,-90,6,60,1
5475,13,-243,-88,6,60,-2
5480,13,-244,-90,7,59,0
5485,12,-242,-90,6,60,-3
5490,9,-242,-89,8,60,-3
5495,12,-242,-88,6,56,-7
5500,13,-242,-90,5,56,-5
5505,11,-243,-92,3,55,-6
5510,12,-243,-90,2,56,-4
5515,10,-240,-89,-3,57,-6
5520,13,-244,-89,-3,59,-4
5525,12,-244,-93,-4,59,-5
5530,11,-245,-91,-2,60,-3
5535,15,-245,-89,3,61,-5
5540,12,-243,-90,6,63,-2
5545,11,-245,-91,5,65,-2
5550,9,-242,-93,5,65,0
5555,11,-244,-88,4,66,-2
5560,13,-242,-85,4,64,1
5565,12,-244,-85,4,62,-1
5570,16,-243,-88,1,61,-1
5575,12,-244,-88,-1,60,-3
5580,13,-245,-87,-2,57,-2
5585,8,-239,-88,-1,58,-5
5590,9,-240,-87,-2,58,-4
5595,11,-242,-85,-3,57,-5
5600,12,-244,-89,-3,59,-5
5605,10,-245,-87,-1,58,-6
5610,12,-242,-88,0,58,-6
5615,13,-244,-86,-1,59,-7
5620,11,-244,-87,1,59,-4
5625,9,-243,-87,2,60,-5
5630,11,-242,-90,3,63,-3
5635,10,-242,-89,3,65,-3
5640,12,-243,-89,5,65,-2
5645,13,-241,-86,5,64,-3
5650,12,-243,-87,4,64,-2
5655,12,-242,-88,6,63,-3
5660,11,-240,-88,6,64,-3
5665,12,-242,-86,5,65,-4
5670,10,-243,-88,3,66,-3
5675,10,-242,-89,2,66,-4
5680,12,-245,-88,1,67,-2
5685,12,-245,-91,-1,66,-6
5690,12,-243,-90,-4,67,-6
5695,12,-242,-84,-6,64,-6
5700,13,-242,-91,-6,66,-6
5705,9,-242,-89,-7,64,-5
5710,12,-245,-87,-6,64,-5
5715,14,-246,-84,-4,62,-4
5720,13,-246,-84,-1,62,-4
5725,10,-245,-86,2,61,-3
5730,14,-243,-83,3,61,-3
5735,10,-243,-88,4,60,-4
5740,11,-242,-85,7,58,-4
5745,13,-244,-87,7,57,-5
5750,12,-245,-85,8,58,-4
5755,10,-244,-85,8,57,-4
5760,10,-240,-88,9,57,-4
5765,10,-242,-87,8,56,-5
5770,10,-243,-85,3,55,-5
5775,10,-241,-88,1,56,-5
5780,12,-242,-84,-1,54,-6
5785,12,-245,-89,-6,53,-8
5790,10,-244,-89,-7,53,-9
5795,11,-244,-85,-9,50,-8
5800,9,-244,-89,-11,51,-9
5805,9,-242,-86,-12,51,-9
5810,14,-245,-87,-11,52,-8
5815,12,-245,-86,-9,54,-6
5820,10,-246,-90,-4,55,-7
5825,10,-244,-89,1,60,-6
5830,14,-245,-88,5,61,-7
5835,14,-244,-89,5,63,-5
5840,13,-242,-88,5,66,-6
5845,13,-243,-87,5,66,-4
5850,13,-241,-83,5,65,-7
5855,11,-243,-86,2,62,-5
5860,11,-242,-85,0,61,-8
5865,11,-241,-88,-3,60,-5
5870,13,-242,-85,-7,59,-5
5875,13,-244,-85,-10,60,-5
5880,14,-244,-85,-13,60,-5
5885,13,-241,-84,-15,58,-3
5890,10,-243,-89,-14,59,-8
5895,10,-243,-86,-13,61,-5
5900,9,-246,-88,-10,61,-8
5905,10,-243,-87,-6,63,-4
5910,10,-246,-83,-4,65,-6
5915,10,-245,-87,-2,66,-5
5920,10,-245,-91,0,69,-8
5925,11,-243,-87,3,71,-6
5930,14,-244,-84,5,72,-8
5935,12,-244,-88,5,72,-5
5940,12,-243,-86,3,72,-9
5945,9,-243,-88,1,72,-7
5950,13,-241,-88,-1,71,-10
5955,12,-241,-89,-4,70,-7
5960,11,-240,-89,-4,71,-10
5965,13,-243,-89,-6,68,-7
5970,12,-243,-87,-6,68,-11
5975,13,-244,-86,-6,68,-9
5980,15,-242,-89,-8,66,-11
5985,11,-243,-88,-5,67,-9
5990,14,-245,-89,-4,67,-11
5995,11,-241,-88,-3,68,-8
6000,15,-244,-86,-1,68,-10
6005,12,-244,-86,0,69,-5
6010,14,-248,-83,2,72,-7
6015,12,-245,-83,1,73,-4
6020,11,-244,-87,3,72,-7
6025,10,-244,-86,3,73,-2
6030,11,-242,-84,1,73,-6
6035,12,-243,-85,-1,71,-3
6040,14,-246,-86,-1,69,-6
6045,9,-243,-87,-3,69,-5
6050,14,-245,-84,-6,67,-6
6055,12,-243,-87,-6,64,-5
6060,13,-242,-86,-6,64,-8
6065,12,-245,-84,-7,63,-5
6070,14,-245,-86,-6,62,-8
6075,13,-245,-85,-7,64,-5
6080,14,-240,-87,-6,64,-7
6085,12,-245,-87,-7,65,-4
6090,12,-243,-84,-6,67,-8
6095,13,-243,-86,-6,69,-6
6100,15,-245,-86,-6,70,-8
6105,13,-246,-85,-7,71,-7
6110,13,-243,-90,-6,71,-9
6115,13,-245,-91,-8,69,-6
6120,13,-245,-84,-10,70,-10
6125,12,-242,-88,-11,71,-6
6130,14,-243,-91,-10,70,-8
6135,12,-245,-87,-11,70,-6
6140,12,-244,-84,-11,71,-8
6145,14,-241,-88,-12,69,-7
6150,13,-244,-85,-11,69,-8
6155,11,-241,-82,-11,68,-7
6160,11,-242,-89,-10,68,-9
6165,15,-245,-85,-8,68,-7
6170,16,-245,-85,-6,67,-9
6175,13,-244,-88,-3,68,-7
6180,13,-243,-89,-1,68,-10
6185,12,-244,-85,-1,71,-8
6190,13,-242,-84,-1,71,-11
6195,12,-243,-89,1,73,-11
6200,12,-246,-85,1,72,-12
6205,13,-243,-85,2,72,-11
6210,11,-245,-86,1,72,-11
6215,12,-242,-84,1,72,-9
6220,11,-244,-87,-1,72,-10
6225,16,-247,-85,-2,71,-7
6230,11,-242,-85,-1,69,-9
6235,11,-243,-83,-1,69,-6
6240,10,-243,-83,-1,69,-4
6245,12,-242,-81,-3,67,-2
6250,14,-245,-84,-5,67,-1
6255,14,-246,-85,-6,67,0
6260,13,-244,-88,-8,66,1
6265,15,-243,-82,-9,67,0
6270,12,-242,-83,-10,65,1
6275,13,-244,-87,-10,64,1
6280,14,-241,-82,-11,61,-1
6285,11,-239,-85,-11,60,0
6290,13,-246,-86,-10,60,-2
6295,13,-243,-87,-12,59,-2
6300,15,-242,-82,-12,60,-3
6305,15,-244,-88,-11,61,-4
6310,12,-245,-87,-10,61,-5
6315,13,-244,-87,-7,62,-5
6320,13,-242,-82,-7,62,-4
6325,12,-246,-84,-5,63,-3
6330,14,-244,-85,-3,65,-2
6335,13,-245,-85,-1,67,-2
6340,16,-245,-85,0,69,-1
6345,14,-244,-85,2,70,0
6350,11,-246,-84,3,73,2
6355,11,-243,-82,4,73,1
6360,14,-242,-85,7,74,2
6365,14,-244,-84,5,75,0
6370,12,-242,-87,3,74,-1
6375,15,-244,-88,2,72,-2
6380,13,-245,-88,-2,69,-2
6385,11,-240,-87,-2,70,-3
6390,11,-244,-87,-5,66,-3
6395,12,-241,-87,-7,65,-5
6400,13,-245,-86,-7,64,-4
6405,11,-245,-84,-8,63,-5
6410,9,-242,-86,-7,62,-3
6415,11,-246,-84,-6,61,-5
6420,12,-247,-86,-5,62,0
6425,13,-245,-84,-4,64,-1
6430,12,-244,-87,-2,66,0
6435,14,-245,-85,0,68,1
6440,14,-246,-85,0,69,2
6445,13,-246,-88,0,69,0
6450,12,-246,-85,2,71,1
6455,13,-245,-85,3,70,0
6460,13,-244,-88,4,70,2
6465,13,-242,-83,3,70,1
6470,12,-245,-85,4,69,3
6475,12,-244,-85,3,71,1
6480,13,-245,-86,5,70,2
6485,12,-246,-87,5,70,1
6490,14,-245,-85,5,71,3
6495,15,-244,-87,4,70,0
6500,11,-244,-84,4,70,3
6505,15,-246,-86,2,69,-1
6510,12,-246,-86,-1,68,2
6515,12,-247,-83,-3,68,0
6520,14,-243,-84,-5,66,1
6525,10,-245,-81,-6,66,-1
6530,11,-247,-81,-6,67,1
6535,11,-243,-81,-7,67,-2
6540,11,-243,-86,-8,67,-1
6545,12,-243,-83,-7,68,-4
6550,12,-244,-83,-7,67,-2
6555,15,-242,-84,-6,66,-4
6560,14,-246,-80,-7,65,-2
6565,12,-244,-82,-4,66,-4
6570,9,-244,-86,-3,65,-2
6575,14,-245,-82,-2,65,-5
6580,10,-244,-87,-2,66,-3
6585,13,-244,-88,-4,66,-6
6590,11,-241,-89,-4,65,-3
6595,11,-245,-85,-6,63,-7
6600,13,-244,-89,-6,66,-4
6605,13,-245,-92,-5,64,-6
6610,13,-246,-89,-3,64,-5
6615,14,-246,-83,-1,64,-7
6620,13,-246,-87,0,64,-5
6625,13,-245,-85,1,66,-6
6630,12,-249,-81,4,65,-2
6635,12,-243,-84,5,66,-4
6640,15,-249,-82,6,65,0
6645,13,-245,-82,8,65,-3
6650,13,-245,-87,9,66,2
6655,9,-243,-83,9,65,-1
6660,10,-243,-79,11,67,1
6665,11,-245,-85,12,65,-1
6670,11,-243,-83,11,65,0
6675,12,-244,-80,11,65,-3
6680,14,-245,-75,9,63,-1
6685,12,-242,-81,6,62,-4
6690,15,-244,-86,4,60,-3
6695,12,-239,-83,1,59,-7
6700,14,-241,-85,-1,60,-7
6705,11,-244,-84,-5,60,-9
6710,12,-244,-85,-6,61,-8
6715,13,-242,-84,-8,59,-9
6720,13,-245,-84,-11,60,-7
6725,13,-245,-84,-11,61,-10
6730,12,-247,-81,-8,61,-5
6735,9,-245,-84,-10,64,-7
6740,12,-246,-84,-7,65,-4
6745,14,-245,-82,-3,66,-5
6750,12,-246,-85,-2,66,-2
6755,16,-243,-86,-1,66,-4
6760,12,-243,-83,0,66,-2
6765,11,-244,-81,1,65,-4
6770,13,-244,-82,1,61,-3
6775,13,-244,-80,-1,60,-4
6780,15,-245,-85,-1,56,-3
6785,15,-244,-84,-3,56,-7
6790,12,-243,-86,-4,53,-7
6795,14,-243,-86,-4,52,-8
6800,14,-245,-84,-4,53,-7
6805,12,-246,-83,-5,55,-9
6810,9,-244,-84,-5,55,-7
6815,13,-243,-80,-4,58,-8
6820,11,-246,-84,-3,60,-7
6825,13,-245,-81,-3,63,-6
6830,10,-245,-84,-1,64,-5
6835,12,-247,-79,1,67,-5
6840,13,-244,-86,0,68,-3
6845,11,-245,-83,0,67,-4
6850,14,-246,-81,-1,66,-2
6855,12,-244,-87,-2,65,-2
6860,11,-242,-82,-2,64,-1
6865,13,-245,-82,-4,63,-2
6870,13,-244,-82,-5,59,-3
6875,15,-243,-84,-9,58,-3
6880,12,-241,-87,-12,57,-4
6885,14,-244,-87,-15,56,-5
6890,14,-243,-83,-18,55,-5
6895,15,-246,-84,-19,56,-5
6900,13,-246,-85,-21,54,-4
6905,15,-247,-81,-21,54,-4
6910,15,-244,-81,-19,56,-3
6915,12,-243,-83,-19,57,-3
6920,12,-245,-87,-16,58,-3
6925,13,-245,-81,-13,60,-1
6930,12,-245,-86,-11,61,0
6935,13,-245,-79,-7,58,-1
6940,14,-246,-84,-6,57,-1
6945,11,-244,-83,-6,57,-1
6950,13,-247,-80,-6,57,-1
6955,14,-246,-80,-6,58,-1
6960,11,-245,-83,-7,57,-2
6965,13,-245,-82,-8,57,-1
6970,13,-243,-81,-9,56,-3
6975,13,-245,-82,-8,57,-2
6980,13,-244,-80,-8,56,-2
6985,12,-245,-83,-9,58,-2
6990,16,-243,-80,-10,57,-2
6995,11,-245,-83,-11,57,-2
7000,14,-243,-84,-13,58,-3
7005,14,-243,-83,-15,58,-4
7010,12,-242,-82,-16,59,-4
7015,11,-241,-80,-17,58,-3
7020,12,-247,-84,-18,58,-5
7025,14,-244,-84,-17,57,-1
7030,10,-243,-81,-18,59,-2
7035,12,-246,-85,-16,59,-1
7040,8,-243,-82,-16,61,-2
7045,11,-246,-84,-14,61,1
7050,15,-247,-82,-13,62,0
7055,17,-235,-95,-14,63,1
7060,6,-239,-94,-11,64,-1
7065,15,-238,-68,-10,63,1
7070,12,-245,-91,-8,64,-1
7075,12,-228,-98,-9,64,1
7080,11,-245,-86,-9,65,0
7085,11,-243,-81,-7,65,0
7090,13,-246,-86,-7,65,0
7095,12,-244,-83,-6,66,2
7100,8,-240,-85,-6,64,0
7105,12,-243,-83,-5,63,2
7110,13,-242,-84,-6,62,1
7115,12,-243,-85,-9,60,3
7120,15,-247,-84,-12,60,1
7125,13,-245,-82,-12,60,2
7130,16,-241,-80,-15,59,-1
7135,13,-243,-85,-18,59,1
7140,12,-245,-85,-20,59,-1
7145,12,-243,-81,-22,60,0
7150,12,-245,-81,-21,61,-3
7155,14,-246,-84,-22,63,0
7160,13,-246,-83,-21,62,-2
7165,12,-245,-84,-20,63,1
7170,12,-245,-84,-18,62,-1
7175,9,-242,-85,-17,63,2
7180,11,-243,-84,-16,65,0
7185,10,-243,-84,-13,63,2
7190,14,-246,-83,-11,64,-2
7195,12,-244,-87,-11,64,1
7200,9,-241,-85,-10,64,-3
7205,13,-245,-84,-10,64,-2
7210,15,-244,-88,-11,63,-5
7215,12,-244,-85,-13,62,-3
7220,14,-245,-85,-14,60,-7
7225,12,-243,-85,-14,59,-5
7230,13,-245,-81,-13,57,-5
7235,11,-246,-88,-12,58,-2
7240,12,-246,-84,-12,59,-3
7245,8,-244,-86,-9,60,0
7250,10,-245,-81,-8,61,-1
7255,14,-248,-82,-5,64,3
7260,11,-250,-85,-3,62,2
7265,12,-247,-81,-1,64,4
7270,13,-243,-82,-1,64,1
7275,13,-247,-84,1,62,4
7280,12,-244,-80,1,62,2
7285,12,-243,-78,2,62,2
7290,12,-244,-81,0,61,-2
7295,12,-243,-79,0,61,-2
7300,12,-241,-83,-1,59,-6
7305,12,-244,-83,-5,61,-4
7310,13,-245,-81,-6,60,-7
7315,10,-242,-85,-8,60,-5
7320,12,-242,-83,-11,59,-8
7325,14,-241,-85,-15,59,-5
7330,13,-244,-82,-18,58,-6
7335,13,-244,-85,-19,58,-3
7340,12,-244,-83,-21,60,-5
7345,12,-248,-84,-21,60,-2
7350,12,-246,-83,-20,60,-3
7355,11,-246,-87,-20,59,1
7360,11,-243,-85,-18,57,0
7365,11,-248,-84,-14,59,3
7370,14,-248,-82,-13,57,3
7375,13,-248,-85,-11,55,6
7380,14,-246,-86,-8,55,7
7385,13,-247,-85,-7,53,8
7390,11,-247,-81,-5,50,8
7395,15,-251,-80,0,46,13
7400,18,-253,-83,6,43,16
7405,19,-254,-82,20,44,24
7410,24,-252,-80,36,46,27
7415,24,-253,-88,42,41,28
7420,27,-248,-86,42,28,21
7425,21,-243,-90,37,13,14
7430,20,-238,-94,18,-2,12
7435,18,-232,-90,-10,-15,18
7440,17,-233,-93,-53,-25,19
7445,12,-228,-93,-89,-33,18
7450,12,-232,-88,-124,-40,12
7455,12,-227,-86,-154,-46,5
7460,13,-231,-80,-176,-50,-5
7465,10,-230,-81,-188,-51,-14
7470,7,-232,-79,-191,-51,-24
7475,8,-229,-83,-194,-49,-31
7480,7,-231,-84,-196,-43,-38
7485,5,-227,-86,-203,-38,-43
7490,6,-225,-90,-222,-34,-50
7495,5,-226,-94,-252,-35,-49
7500,8,-225,-97,-291,-36,-49
7505,5,-223,-99,-333,-33,-50
7510,9,-223,-98,-372,-30,-52
7515,11,-227,-101,-404,-27,-55
7520,13,-229,-99,-426,-20,-56
7525,12,-228,-93,-440,-13,-59
7530,11,-232,-96,-446,-6,-60
7535,11,-231,-94,-443,-3,-63
7540,11,-229,-100,-430,-2,-69
7545,13,-234,-100,-412,-1,-78
7550,9,-232,-99,-389,0,-88
7555,7,-231,-105,-367,4,-94
7560,6,-229,-96,-347,6,-103
7565,6,-229,-101,-337,0,-114
7570,10,-226,-106,-341,-15,-121
7575,9,-225,-106,-356,-36,-133
7580,13,-225,-109,-373,-65,-144
7585,10,-214,-118,-390,-91,-151
7590,12,-227,-114,-401,-116,-154
7595,12,-229,-115,-405,-123,-152
7600,13,-232,-117,-397,-120,-144
7605,15,-231,-120,-386,-116,-135
7610,15,-241,-121,-367,-109,-122
7615,11,-242,-120,-343,-100,-108
7620,12,-247,-119,-319,-90,-92
7625,16,-250,-117,-294,-78,-78
7630,19,-248,-113,-269,-61,-66
7635,20,-245,-106,-245,-44,-61
7640,26,-252,-103,-223,-20,-55
7645,26,-249,-100,-199,7,-56
7650,20,-252,-99,-177,40,-57
7655,18,-252,-98,-160,74,-63
7660,13,-251,-104,-153,104,-65
7665,9,-244,-101,-161,126,-67
7670,0,-235,-109,-196,135,-63
7675,-12,-222,-116,-274,131,-55
7680,-20,-215,-126,-408,113,-36
7685,-26,-215,-137,-600,78,-13
7690,-29,-218,-145,-834,14,20
7695,-26,-225,-151,-1153,-44,40
7700,-26,-235,-151,-1433,-86,62
7705,-15,-252,-148,-1716,-112,79
7710,-7,-269,-148,-1988,-116,99
7715,11,-297,-147,-2249,-100,113
7720,22,-328,-141,-2485,-65,126
7725,39,-365,-127,-2687,-15,127
7730,49,-399,-116,-2840,40,127
7735,57,-448,-88,-2932,96,122
7740,72,-497,-65,-2946,155,108
7745,82,-533,-54,-2839,193,75
7750,94,-556,-59,-2628,222,27
7755,97,-557,-76,-2318,247,-44
7760,88,-540,-103,-1951,272,-114
7765,82,-518,-127,-1567,301,-176
7770,65,-482,-156,-1210,329,-216
7775,51,-454,-169,-898,354,-245
7780,40,-430,-179,-641,373,-258
7785,25,-404,-181,-425,384,-265
7790,18,-381,-173,-258,393,-258
7795,13,-363,-164,-124,396,-244
7800,6,-348,-150,-67,387,-222
7805,4,-335,-144,-34,367,-195
7810,6,-326,-126,-11,334,-156
7815,5,-319,-120,6,285,-129
7820,6,-310,-118,20,216,-104
7825,6,-300,-118,26,137,-94
7830,6,-291,-124,21,54,-86
7835,14,-280,-129,7,-26,-85
7840,14,-273,-134,-8,-95,-81
7845,18,-271,-141,-27,-161,-85
7850,22,-269,-149,-34,-196,-86
7855,26,-268,-162,-36,-215,-96
7860,26,-265,-170,-37,-218,-101
7865,31,-267,-183,-34,-208,-109
7870,32,-266,-187,-30,-184,-111
7875,36,-267,-192,-21,-150,-110
7880,33,-266,-189,-2,-108,-103
7885,34,-266,-189,23,-64,-95
7890,35,-267,-186,58,-21,-76
7895,34,-267,-179,107,19,-62
7900,34,-269,-172,150,40,-47
7905,37,-271,-170,191,50,-38
7910,34,-271,-164,228,48,-28
7915,33,-271,-158,258,30,-26
7920,34,-272,-160,284,3,-23
7925,36,-273,-159,302,-30,-25
7930,34,-272,-157,317,-58,-23
7935,33,-273,-156,328,-82,-21
7940,33,-274,-160,332,-99,-12
7945,30,-276,-156,340,-109,-5
7950,26,-278,-152,357,-111,10
7955,40,-291,-148,385,-105,21
7960,27,-291,-141,437,-81,25
7965,22,-283,-143,528,-53,33
7970,19,-273,-149,595,-26,49
7975,21,-270,-148,639,6,58
7980,22,-264,-150,660,33,62
7985,25,-261,-149,670,55,57
7990,27,-253,-151,675,72,48
7995,29,-249,-141,667,89,34
8000,33,-240,-150,651,108,23
8005,32,-231,-142,627,130,6
8010,37,-227,-138,598,157,-4
8015,35,-219,-133,571,192,-15
8020,35,-215,-121,550,229,-23
8025,33,-212,-113,541,266,-30
8030,29,-210,-106,551,292,-29
8035,28,-205,-98,585,308,-26
8040,27,-202,-97,633,318,-18
8045,28,-200,-97,681,336,-19
8050,23,-193,-94,713,355,-24
8055,16,-188,-92,751,372,-32
8060,12,-181,-90,804,386,-33
8065,7,-178,-89,864,404,-32
8070,7,-180,-88,932,426,-30
8075,0,-174,-87,1002,445,-29
8080,-2,-172,-85,1080,463,-25
8085,0,-164,-77,1170,483,-20
8090,2,-154,-79,1265,501,-11
8095,4,-140,-82,1353,518,-7
8100,3,-131,-77,1398,533,1
8105,-2,-118,-70,1432,548,9
8110,-9,-105,-58,1475,553,31
8115,-9,-93,-57,1547,544,63
8120,-14,-74,-55,1621,514,98
8125,-12,-64,-59,1674,468,131
8130,-13,-45,-61,1682,413,158
8135,-11,-31,-63,1641,365,176
8140,-10,-19,-63,1583,323,188
8145,-11,-4,-64,1498,271,184
8150,-12,7,-66,1411,230,183
8155,-10,16,-71,1303,199,173
8160,-10,23,-74,1168,184,160
8165,-9,29,-77,1008,188,155
8170,-8,30,-82,829,202,147
8175,1,25,-78,648,218,144
8180,3,22,-78,492,233,143
8185,12,13,-79,383,242,144
8190,17,8,-86,297,253,144
8195,25,1,-92,200,266,141
8200,26,-7,-97,111,278,128
8205,27,-18,-106,4,279,106
8210,28,-32,-113,-117,265,75
8215,25,-48,-122,-242,233,44
8220,25,-67,-126,-363,184,13
8225,24,-93,-134,-464,116,-16
8230,23,-111,-143,-532,40,-43
8235,24,-137,-149,-570,-39,-64
8240,29,-166,-162,-572,-103,-84
8245,29,-197,-174,-537,-163,-89
8250,34,-227,-180,-476,-194,-87
8255,34,-256,-185,-396,-208,-76
8260,34,-282,-184,-294,-201,-60
8265,31,-309,-182,-175,-174,-37
8270,23,-322,-171,-38,-136,-11
8275,18,-345,-157,120,-98,22
8280,11,-362,-142,296,-69,50
8285,16,-370,-135,489,-53,77
8290,23,-373,-139,672,-36,96
8295,31,-363,-154,828,17,119
8300,43,-355,-159,874,98,139
8305,44,-341,-163,845,207,161
8310,48,-327,-164,764,319,167
8315,50,-311,-154,661,404,169
8320,39,-295,-138,563,452,160
8325,31,-284,-119,490,451,155
8330,21,-277,-106,459,408,146
8335,19,-264,-93,479,342,139
8340,14,-250,-87,547,277,129
8345,14,-236,-83,633,213,130
8350,20,-212,-82,719,175,132
8355,17,-190,-77,747,152,139
8360,20,-173,-69,730,146,144
8365,20,-161,-60,671,147,153
8370,19,-156,-54,579,147,153
8375,18,-154,-55,473,145,155
8380,26,-162,-51,361,144,145
8385,27,-167,-45,249,150,137
8390,28,-173,-48,141,167,121
8395,31,-183,-47,46,197,109
8400,29,-190,-56,-59,226,99
8405,30,-197,-62,-138,251,100
8410,25,-203,-69,-210,271,98
8415,25,-214,-76,-276,284,102
8420,19,-220,-84,-334,289,103
8425,18,-225,-90,-384,288,108
8430,17,-232,-104,-422,285,107
8435,19,-241,-109,-450,278,109
8440,14,-243,-116,-466,275,104
8445,13,-250,-122,-474,268,98
8450,9,-255,-129,-470,259,91
8455,6,-260,-132,-449,249,87
8460,4,-263,-139,-417,235,78
8465,5,-268,-139,-370,222,78
8470,5,-269,-141,-310,216,73
8475,3,-267,-138,-245,211,76
8480,4,-266,-132,-178,214,71
8485,7,-266,-129,-115,217,73
8490,6,-263,-122,-61,223,70
8495,7,-261,-119,-15,234,73
8500,10,-259,-110,28,241,71
8505,16,-258,-104,58,246,74
8510,12,-249,-98,84,251,73
8515,15,-251,-94,109,254,78
8520,18,-246,-84,133,255,80
8525,14,-241,-79,151,256,84
8530,19,-237,-71,165,256,82
8535,16,-233,-72,174,254,82
8540,18,-232,-68,177,252,77
8545,20,-232,-69,173,251,72
8550,19,-230,-61,159,249,64
8555,19,-233,-62,140,252,64
8560,24,-238,-59,120,253,61
8565,19,-241,-58,96,252,63
8570,21,-243,-58,72,251,62
8575,19,-247,-53,52,249,63
8580,18,-251,-56,34,248,60
8585,18,-253,-57,19,248,59
8590,18,-257,-56,6,249,56
8595,16,-257,-59,-3,250,58
8600,14,-259,-58,-8,250,56
8605,14,-260,-62,-9,248,59
8610,11,-259,-62,-7,244,58
8615,11,-257,-66,-4,245,60
8620,7,-256,-65,0,244,61
8625,6,-251,-70,3,247,63
8630,6,-253,-72,1,249,61
8635,8,-253,-78,-5,252,62
8640,3,-246,-81,-11,255,58
8645,7,-246,-79,-23,256,58
8650,0,-245,-78,-38,254,55
8655,-1,-241,-85,-47,253,56
8660,1,-240,-82,-56,249,55
8665,2,-238,-83,-63,245,58
8670,-1,-234,-84,-69,241,60
8675,0,-230,-88,-75,237,65
8680,-2,-228,-84,-83,232,67
8685,1,-227,-82,-91,227,69
8690,-4,-225,-83,-99,220,71
8695,-3,-230,-84,-107,211,73
8700,0,-229,-86,-117,191,71
8705,-3,-228,-86,-125,177,68
8710,1,-235,-89,-134,164,64
8715,0,-240,-90,-140,154,60
8720,0,-244,-97,-142,145,56
8725,2,-249,-97,-143,143,51
8730,5,-253,-100,-138,145,47
8735,6,-260,-96,-132,149,44
8740,4,-258,-95,-124,152,42
8745,5,-262,-95,-114,153,38
8750,-1,-259,-97,-100,148,35
8755,2,-262,-99,-88,139,33
8760,2,-260,-95,-76,128,28
8765,0,-260,-89,-61,113,26
8770,2,-261,-90,-46,97,23
8775,3,-259,-88,-28,81,21
8780,1,-256,-84,-13,64,19
8785,-3,-258,-77,5,46,17
8790,-3,-253,-73,25,30,17
8795,1,-253,-77,47,15,16
8800,0,-248,-72,70,3,17
8805,1,-247,-71,84,-2,18
8810,1,-245,-66,93,-4,18
8815,4,-245,-72,96,-1,20
8820,6,-243,-69,93,1,22
8825,9,-239,-69,87,4,22
8830,9,-236,-71,73,7,22
8835,14,-237,-67,61,8,21
8840,12,-237,-69,45,9,22
8845,15,-236,-75,28,9,19
8850,13,-236,-75,6,9,16
8855,11,-235,-75,-13,7,14
8860,12,-236,-75,-31,6,13
8865,15,-238,-77,-46,5,9
8870,13,-241,-75,-57,6,8
8875,13,-244,-81,-67,9,3
8880,11,-244,-85,-74,7,1
8885,11,-246,-82,-77,4,-3
8890,13,-248,-85,-80,1,-5
8895,10,-250,-91,-78,-3,-13
8900,12,-253,-89,-75,-7,-15
8905,11,-252,-95,-72,-11,-19
8910,12,-254,-95,-68,-14,-21
8915,10,-251,-95,-64,-15,-27
8920,10,-252,-97,-58,-13,-27
8925,12,-254,-94,-54,-10,-31
8930,10,-253,-94,-46,-5,-30
8935,11,-250,-94,-38,-2,-33
8940,14,-249,-93,-28,0,-33
8945,12,-246,-91,-18,1,-36
8950,11,-245,-89,-8,-1,-36
8955,13,-243,-90,1,-4,-40
8960,10,-238,-90,9,-9,-40
8965,12,-239,-90,15,-16,-42
8970,12,-235,-92,20,-23,-41
8975,12,-235,-87,22,-28,-43
8980,13,-236,-85,23,-33,-41
8985,14,-239,-89,21,-37,-43
8990,13,-237,-87,20,-39,-39
8995,14,-236,-88,17,-40,-39
9000,18,-244,-86,11,-40,-38
9005,14,-236,-88,7,-41,-41
9010,18,-241,-82,0,-41,-40
9015,18,-241,-84,-5,-42,-43
9020,17,-245,-85,-9,-40,-41
9025,15,-241,-84,-12,-42,-43
9030,20,-245,-83,-15,-42,-42
9035,20,-245,-78,-14,-40,-42
9040,18,-243,-81,-13,-40,-40
9045,19,-242,-84,-8,-39,-43
9050,16,-245,-79,-2,-40,-39
9055,19,-246,-86,0,-38,-41
9060,20,-245,-86,3,-34,-39
9065,19,-245,-82,1,-31,-42
9070,20,-249,-85,-2,-26,-38
9075,20,-245,-90,-7,-19,-39
9080,19,-246,-87,-11,-12,-37
9085,18,-244,-85,-16,-4,-38
9090,17,-247,-89,-20,2,-34
9095,18,-246,-89,-21,7,-33
9100,17,-244,-89,-20,11,-29
9105,18,-244,-87,-18,15,-30
9110,13,-244,-87,-15,20,-26
9115,17,-245,-89,-10,21,-26
9120,15,-243,-87,-6,23,-21
9125,15,-246,-87,-5,25,-23
9130,13,-243,-86,-6,28,-19
9135,15,-243,-86,-8,33,-18
9140,14,-243,-86,-11,40,-12
9145,16,-244,-84,-16,46,-11
9150,15,-242,-83,-21,53,-7
9155,16,-245,-80,-22,57,-9
9160,16,-245,-81,-23,58,-6
9165,15,-244,-82,-21,59,-7
9170,15,-246,-81,-18,59,-5
9175,12,-245,-82,-16,58,-7
9180,14,-245,-80,-15,57,-4
9185,12,-244,-79,-12,55,-6
9190,16,-246,-78,-9,54,-3
9195,12,-246,-80,-7,54,-5
9200,13,-248,-77,-3,54,-4
9205,16,-251,-79,3,56,-6
9210,15,-250,-79,9,61,-4
9215,14,-250,-77,12,65,-4
9220,15,-250,-78,16,70,-1
9225,16,-248,-82,16,74,-3
9230,15,-248,-76,13,76,-2
9235,12,-248,-76,13,75,-3
9240,14,-247,-77,14,72,0
9245,13,-246,-73,17,65,-2
9250,14,-247,-79,20,60,0
9255,10,-246,-74,24,53,-1
9260,14,-248,-79,27,47,1
9265,10,-245,-78,28,43,0
9270,13,-247,-76,28,39,2
9275,12,-245,-76,29,34,1
9280,11,-246,-81,29,32,3
9285,11,-246,-77,27,28,2
9290,11,-245,-76,26,25,2
9295,13,-247,-74,24,21,0
9300,11,-250,-78,22,20,0
9305,11,-248,-77,23,20,0
9310,13,-250,-82,25,25,2
9315,14,-252,-76,27,27,2
9320,2,-249,-73,32,29,3
9325,16,-249,-61,38,33,4
9330,4,-249,-74,45,37,6
9335,14,-236,-74,51,39,8
9340,16,-248,-72,54,42,9
9345,18,-247,-83,58,48,10
9350,13,-240,-82,60,56,14
9355,16,-247,-60,60,63,16
9360,22,-247,-71,61,73,17
9365,23,-249,-75,59,80,17
9370,26,-248,-71,55,88,17
9375,24,-251,-73,49,93,17
9380,25,-251,-78,47,97,14
9385,25,-250,-74,43,100,14
9390,26,-251,-74,38,104,12
9395,25,-250,-73,36,110,9
9400,24,-248,-74,38,117,9
9405,21,-251,-73,40,125,10
9410,20,-250,-70,46,134,10
9415,22,-249,-73,51,140,9
9420,20,-245,-70,53,147,9
9425,17,-243,-69,55,148,9
9430,17,-245,-71,55,149,8
9435,18,-243,-73,54,147,9
9440,18,-246,-72,52,145,8
9445,14,-242,-74,50,141,11
9450,13,-244,-76,47,139,14
9455,11,-246,-78,43,138,18
9460,10,-247,-76,38,139,21
9465,10,-250,-77,30,137,26
9470,10,-251,-74,23,135,28
9475,10,-253,-73,16,130,31
9480,11,-256,-76,12,125,30
9485,6,-253,-77,9,121,29
9490,9,-255,-73,8,117,23
9495,6,-253,-75,11,112,19
9500,6,-253,-74,15,107,13
9505,4,-251,-75,21,102,10
9510,4,-250,-67,30,99,6
9515,8,-249,-71,39,94,4
9520,7,-248,-73,47,90,0
9525,9,-247,-74,51,87,1
9530,10,-244,-73,52,85,-2
9535,7,-239,-70,49,78,0
9540,12,-242,-72,47,71,-1
9545,12,-239,-71,42,64,1
9550,13,-241,-74,39,54,1
9555,12,-237,-69,35,49,2
9560,12,-240,-70,32,45,1
9565,17,-242,-68,30,46,3
9570,14,-241,-67,28,47,3
9575,17,-243,-65,28,49,5
9580,18,-246,-66,25,52,4
9585,19,-248,-69,20,56,8
9590,17,-251,-72,11,61,7
9595,19,-249,-72,0,65,11
9600,23,-250,-71,-13,71,9
9605,20,-251,-70,-23,75,8
9610,22,-251,-72,-32,80,4
9615,22,-250,-70,-37,83,3
9620,17,-249,-69,-39,86,-2
9625,19,-251,-72,-36,92,-1
9630,16,-248,-69,-32,95,-3
9635,20,-251,-72,-25,101,0
9640,18,-247,-68,-17,106,-1
9645,17,-246,-68,-9,112,3
9650,17,-243,-68,-2,115,3
9655,18,-240,-67,0,117,7
9660,15,-240,-66,1,118,7
9665,15,-242,-71,-1,116,10
9670,14,-240,-67,-2,112,11
9675,15,-240,-66,-5,107,13
9680,15,-240,-69,-9,102,11
9685,15,-244,-68,-11,99,13
9690,14,-242,-68,-17,98,11
9695,15,-246,-67,-22,100,12
9700,15,-245,-70,-34,103,10
9705,16,-244,-75,-44,108,11
9710,17,-247,-72,-54,111,7
9715,16,-243,-69,-61,118,8
9720,14,-242,-70,-64,126,5
9725,15,-245,-70,-62,133,8
9730,18,-248,-70,-54,138,7
9735,17,-249,-67,-42,140,12
9740,18,-253,-68,-33,137,9
9745,16,-251,-68,-34,130,6
9750,13,-256,-73,-41,117,-1
9755,13,-256,-74,-53,106,-2
9760,14,-257,-73,-65,97,-7
9765,12,-257,-78,-74,91,-5
9770,12,-257,-74,-76,88,-8
9775,9,-255,-71,-72,83,-6
9780,8,-257,-75,-63,78,-9
9785,7,-257,-71,-46,71,-7
9790,8,-253,-75,-25,64,-9
9795,7,-250,-73,-2,57,-6
9800,6,-247,-74,20,51,-7
9805,6,-245,-73,34,50,-2
9810,8,-246,-70,39,51,-2
9815,11,-244,-72,41,50,3
9820,9,-245,-68,38,51,3
9825,12,-244,-67,35,50,5
9830,12,-244,-64,30,49,5
9835,14,-244,-62,24,48,7
9840,11,-242,-68,18,46,7
9845,12,-245,-65,13,44,8
9850,14,-244,-67,4,44,6
9855,18,-245,-65,-2,44,8
9860,16,-243,-65,-12,46,4
9865,17,-245,-67,-21,49,3
9870,14,-245,-69,-31,52,1
9875,15,-245,-68,-40,56,0
9880,18,-248,-69,-51,59,-5
9885,18,-249,-66,-59,62,-7
9890,18,-246,-74,-64,66,-10
9895,17,-247,-75,-69,68,-12
9900,17,-249,-76,-71,69,-15
9905,15,-248,-75,-72,70,-16
9910,17,-247,-75,-71,72,-17
9915,16,-247,-79,-68,73,-17
9920,18,-250,-78,-64,74,-18
9925,17,-248,-77,-61,76,-17
9930,17,-250,-77,-56,78,-18
9935,15,-250,-77,-49,80,-16
9940,18,-250,-81,-44,79,-16
9945,14,-248,-83,-40,82,-15
9950,13,-248,-81,-38,84,-18
9955,12,-246,-78,-33,83,-15
9960,13,-248,-83,-28,83,-15
9965,15,-246,-82,-25,83,-14
9970,12,-247,-79,-21,84,-16
9975,13,-245,-82,-17,83,-14
9980,12,-249,-81,-13,82,-12
9985,10,-242,-78,-9,80,-12
9990,9,-247,-77,-4,79,-10
9995,14,-244,-78,-1,76,-10
10000,12,-245,-79,-1,71,-8
10005,13,-245,-77,-1,66,-7
10010,14,-244,-79,-3,61,-6
10015,10,-245,-76,-5,57,-7
10020,11,-244,-74,-7,51,-7
10025,10,-247,-79,-11,46,-7
10030,13,-247,-77,-13,42,-8
10035,12,-246,-78,-16,40,-10
10040,14,-245,-80,-18,39,-11
10045,13,-244,-77,-21,38,-13
10050,11,-248,-78,-24,39,-12
10055,16,-249,-77,-27,43,-13
10060,16,-245,-75,-29,46,-12
10065,13,-247,-77,-30,48,-12
10070,11,-246,-76,-30,50,-12
10075,13,-244,-79,-28,52,-13
10080,13,-243,-77,-27,52,-13
10085,12,-244,-79,-26,52,-11
10090,12,-247,-79,-25,50,-8
10095,12,-249,-75,-24,50,-9
10100,12,-244,-79,-22,49,-6
10105,11,-245,-78,-25,49,-6
10110,13,-242,-78,-27,47,-5
10115,12,-243,-80,-27,46,-5
10120,11,-242,-79,-32,43,-2
10125,9,-244,-75,-34,42,-2
10130,9,-244,-77,-36,39,-1
10135,11,-246,-75,-38,37,-3
10140,10,-249,-73,-40,34,1
10145,8,-248,-73,-39,32,-2
10150,9,-248,-75,-41,30,0
10155,9,-247,-75,-42,28,-3
10160,11,-249,-75,-41,27,-2
10165,11,-248,-74,-40,24,-4
10170,10,-249,-76,-40,22,-4
10175,14,-251,-74,-37,19,-6
10180,8,-247,-75,-35,18,-5
10185,11,-250,-75,-31,17,-9
10190,9,-249,-76,-27,18,-4
10195,8,-247,-76,-22,18,-7
10200,9,-247,-73,-20,17,-5
10205,11,-245,-74,-19,18,-7
10210,10,-246,-77,-20,18,-6
10215,13,-247,-73,-21,18,-7
10220,13,-246,-75,-22,18,-5
10225,12,-246,-77,-23,19,-7
10230,10,-251,-80,-25,20,-5
10235,13,-247,-75,-25,22,-7
10240,13,-245,-73,-24,22,-5
10245,14,-247,-77,-23,25,-8
10250,14,-247,-74,-22,27,-6
10255,15,-248,-77,-19,28,-9
10260,16,-248,-71,-19,28,-6
10265,12,-247,-78,-17,30,-8
10270,15,-247,-72,-16,29,-6
10275,14,-246,-76,-18,29,-7
10280,13,-246,-73,-19,29,-5
10285,12,-246,-72,-23,25,-7
10290,11,-246,-77,-28,21,-4
10295,11,-247,-73,-31,20,-6
10300,11,-246,-77,-32,15,-4
10305,11,-247,-74,-34,13,-6
10310,11,-249,-79,-33,10,-3
10315,10,-249,-77,-31,8,-5
10320,9,-248,-78,-30,9,-3
10325,11,-248,-76,-29,8,-6
10330,10,-249,-77,-26,7,-3
10335,13,-247,-71,-26,7,-6
10340,11,-246,-79,-23,8,-3
10345,12,-248,-75,-22,10,-5
10350,16,-248,-80,-22,13,-2
10355,14,-243,-76,-22,16,-4
10360,13,-242,-80,-23,20,0
10365,13,-245,-78,-23,23,-3
10370,19,-241,-78,-25,28,0
10375,16,-241,-75,-30,29,-2
10380,18,-242,-77,-35,31,1
10385,17,-244,-81,-39,35,-1
10390,16,-244,-80,-41,38,1
10395,19,-246,-82,-41,43,0
10400,16,-248,-79,-42,46,2
10405,16,-246,-77,-41,49,0
10410,17,-249,-80,-37,54,3
10415,15,-250,-78,-34,54,3
10420,14,-247,-75,-30,56,4
10425,14,-249,-80,-27,55,2
10430,17,-250,-78,-24,53,4
10435,13,-248,-80,-20,51,1
10440,11,-249,-78,-18,50,3
10445,13,-249,-76,-19,49,1
10450,12,-249,-75,-18,52,3
10455,13,-247,-74,-16,52,2
10460,10,-246,-77,-17,54,3
10465,11,-246,-76,-17,55,0
10470,11,-244,-77,-18,55,2
10475,12,-241,-77,-17,57,-1
10480,9,-241,-79,-21,58,1
10485,11,-242,-79,-24,57,1
10490,12,-245,-81,-29,58,2
10495,12,-240,-80,-31,62,1
10500,10,-242,-81,-37,63,3
10505,9,-242,-82,-41,63,2
10510,15,-248,-81,-46,58,5
10515,11,-247,-79,-48,57,3
10520,15,-246,-81,-53,54,3
10525,14,-249,-77,-56,48,3
10530,9,-248,-78,-57,46,5
10535,14,-247,-76,-57,42,3
10540,11,-250,-74,-56,39,5
10545,10,-248,-74,-53,37,4
10550,14,-250,-77,-49,36,5
10555,13,-250,-80,-45,34,4
10560,11,-249,-77,-42,32,5
10565,10,-246,-73,-38,31,3
10570,9,-245,-76,-38,29,4
10575,11,-246,-78,-36,26,2
10580,13,-248,-77,-36,28,1
10585,14,-247,-76,-36,29,1
10590,9,-248,-76,-36,29,-2
10595,12,-246,-78,-37,31,-2
10600,13,-246,-78,-38,33,-1
10605,12,-246,-78,-36,34,-2
10610,16,-247,-78,-34,42,-1
10615,14,-247,-81,-33,46,-2
10620,15,-248,-77,-33,49,-2
10625,16,-248,-80,-34,53,-1
10630,14,-246,-81,-37,56,-2
10635,16,-246,-77,-41,59,-3
10640,15,-246,-75,-41,60,-5
10645,11,-243,-78,-40,60,-4
10650,13,-245,-75,-40,60,-5
10655,16,-244,-77,-40,58,-6
10660,15,-245,-74,-40,57,-7
10665,11,-245,-78,-39,55,-7
10670,12,-245,-79,-40,52,-6
10675,12,-245,-73,-40,48,-7
10680,12,-247,-76,-40,46,-8
10685,12,-248,-77,-40,44,-8
10690,11,-247,-78,-38,43,-9
10695,10,-250,-81,-37,41,-9
10700,10,-245,-80,-36,42,-10
10705,11,-246,-78,-35,42,-8
10710,12,-250,-75,-33,43,-9
10715,13,-246,-77,-31,45,-7
10720,9,-249,-77,-27,46,-8
10725,12,-251,-76,-21,46,-7
10730,11,-248,-78,-14,44,-7
10735,12,-249,-75,-10,41,-7
10740,11,-245,-75,-7,39,-8
10745,10,-245,-74,-5,37,-6
10750,10,-246,-76,-7,33,-8
10755,11,-245,-76,-13,29,-7
10760,11,-248,-77,-17,23,-10
10765,11,-246,-77,-22,22,-9
10770,11,-247,-80,-24,21,-10
10775,12,-246,-79,-26,18,-10
10780,11,-247,-77,-28,20,-11
10785,11,-248,-76,-27,18,-9
10790,14,-249,-74,-27,16,-13
10795,12,-248,-73,-21,15,-11
10800,13,-253,-80,-15,15,-14
10805,13,-249,-81,-10,15,-12
10810,14,-250,-83,-6,16,-14
10815,14,-252,-82,-1,17,-12
10820,14,-246,-83,1,19,-14
10825,12,-247,-81,2,18,-10
10830,13,-246,-83,3,20,-13
10835,14,-248,-80,7,21,-11
10840,10,-245,-80,10,21,-12
10845,9,-245,-76,14,22,-9
10850,11,-247,-76,17,21,-11
10855,13,-246,-76,18,21,-8
10860,12,-246,-77,17,19,-11
10865,8,-240,-75,16,17,-8
10870,9,-243,-81,14,16,-10
10875,10,-247,-77,11,14,-6
10880,10,-245,-76,9,14,-8
10885,12,-245,-81,8,15,-5
10890,9,-246,-79,7,16,-6
10895,10,-248,-75,9,17,-4
10900,12,-247,-77,13,19,-6
10905,8,-245,-77,16,22,-4
10910,9,-244,-80,17,25,-6
10915,8,-245,-82,16,26,-6
10920,9,-246,-83,13,28,-7
10925,8,-243,-77,11,27,-6
10930,12,-244,-84,6,26,-9
10935,8,-246,-79,1,23,-8
10940,10,-245,-80,-2,20,-10
10945,13,-245,-73,-6,19,-8
10950,11,-246,-75,-8,18,-10
10955,11,-245,-76,-7,18,-8
10960,12,-246,-73,-6,16,-11
10965,14,-247,-76,-6,14,-9
10970,9,-246,-75,-8,14,-11
10975,11,-243,-77,-12,13,-8
10980,12,-246,-79,-15,12,-11
10985,11,-245,-78,-14,7,-8
10990,12,-247,-79,-12,4,-10
10995,10,-248,-79,-9,3,-9
11000,13,-247,-81,-5,0,-12
11005,11,-243,-80,-4,-2,-9
11010,13,-244,-82,-5,-3,-11
11015,15,-241,-83,-11,-3,-7
11020,14,-245,-80,-16,-2,-8
11025,11,-245,-80,-19,1,-5
11030,11,-247,-76,-21,5,-6
11035,13,-246,-81,-20,12,-3
11040,10,-246,-79,-13,15,-5
11045,9,-244,-79,-10,20,-3
11050,12,-246,-79,-6,23,-4
11055,11,-247,-80,-4,23,-2
11060,12,-246,-77,-2,22,-5
11065,12,-246,-78,-1,23,-2
11070,13,-246,-79,-3,23,-7
11075,10,-245,-76,-4,24,-6
11080,12,-246,-79,-4,26,-8
11085,13,-246,-81,-5,28,-8
11090,13,-248,-81,-7,31,-11
11095,11,-243,-79,-8,32,-10
11100,9,-246,-77,-9,34,-12
11105,12,-249,-79,-9,36,-11
11110,10,-247,-78,-8,35,-13
11115,11,-247,-79,-7,33,-11
11120,13,-247,-84,-4,32,-12
11125,13,-246,-83,-4,30,-11
11130,13,-246,-81,0,29,-11
11135,13,-247,-78,1,28,-9
11140,13,-247,-78,3,28,-9
11145,14,-244,-79,1,26,-7
11150,12,-247,-77,0,25,-4
11155,10,-247,-83,1,24,-3
11160,9,-246,-81,1,24,-3
11165,11,-245,-78,1,25,-1
11170,11,-248,-76,-2,25,-1
11175,9,-246,-79,-3,25,0
11180,11,-247,-82,-5,24,-1
11185,13,-244,-74,-5,24,1
11190,11,-245,-76,-5,24,0
11195,13,-248,-78,-6,24,-2
11200,11,-244,-80,-8,24,-2
11205,14,-245,-77,-10,25,-3
11210,10,-243,-78,-10,26,-4
11215,11,-245,-79,-14,26,-3
11220,14,-246,-81,-17,26,-3
11225,13,-242,-77,-19,28,-1
11230,14,-244,-81,-21,31,-2
11235,14,-245,-77,-21,35,-2
11240,13,-244,-78,-19,36,-2
11245,13,-246,-77,-17,37,-1
11250,13,-244,-77,-17,36,-2
11255,14,-243,-81,-18,35,-4
11260,10,-244,-82,-20,34,-4
11265,12,-245,-79,-23,35,-4
11270,11,-245,-81,-26,35,-5
11275,13,-245,-80,-27,35,-4
11280,12,-246,-81,-29,38,-4
11285,13,-246,-78,-27,39,-5
11290,14,-249,-79,-26,41,-4
11295,13,-247,-79,-26,42,-4
11300,13,-250,-81,-23,44,-2
11305,14,-247,-79,-23,49,-3
11310,10,-245,-80,-22,50,-2
11315,7,-245,-77,-24,51,-2
11320,11,-246,-80,-25,53,-2
11325,10,-244,-76,-27,55,-2
11330,10,-245,-80,-29,56,-1
11335,11,-246,-76,-31,55,-3
11340,12,-247,-79,-33,55,-3
11345,11,-247,-78,-34,54,-5
11350,7,-247,-80,-33,56,-5
11355,9,-244,-82,-30,57,-6
11360,9,-245,-82,-29,58,-4
11365,13,-248,-77,-29,58,-5
11370,13,-246,-80,-29,56,-5
11375,11,-246,-82,-31,54,-6
11380,11,-246,-79,-34,53,-4
11385,12,-242,-78,-35,51,-6
11390,11,-244,-82,-36,49,-6
11395,11,-248,-81,-35,47,-8
11400,13,-246,-82,-33,46,-5
11405,11,-250,-80,-30,45,-5
11410,11,-245,-82,-26,44,-2
11415,11,-247,-77,-24,44,-5
11420,11,-245,-79,-21,45,-3
11425,12,-247,-80,-21,45,-4
11430,9,-244,-79,-20,45,-2
11435,12,-248,-77,-22,45,-5
11440,11,-248,-80,-22,45,-2
11445,12,-247,-83,-20,46,-5
11450,11,-245,-78,-17,48,-2
11455,13,-245,-79,-14,49,-5
11460,11,-246,-80,-13,51,-2
11465,12,-243,-80,-12,53,-4
11470,11,-246,-78,-15,56,-3
11475,12,-247,-78,-14,58,-4
11480,9,-246,-81,-17,59,-2
11485,14,-247,-78,-20,60,-4
11490,10,-249,-76,-21,61,-2
11495,6,-247,-84,-20,62,-4
11500,13,-252,-66,-20,61,-2
11505,5,-245,-72,-21,63,-4
11510,8,-252,-76,-21,63,0
11515,12,-252,-79,-20,63,-4
11520,9,-242,-76,-23,63,-3
11525,12,-244,-78,-25,65,-3
11530,10,-241,-84,-28,67,-2
11535,9,-243,-83,-30,68,-5
11540,9,-244,-83,-30,71,-2
11545,11,-245,-84,-31,71,-5
11550,12,-243,-86,-33,71,-3
11555,11,-244,-79,-35,73,-5
11560,11,-245,-76,-36,74,-3
11565,10,-246,-79,-36,74,-4
11570,9,-244,-81,-34,73,-2
11575,9,-248,-79,-29,73,-5
11580,14,-247,-79,-25,72,-2
11585,12,-245,-77,-20,72,-3
11590,8,-245,-81,-17,74,-2
11595,10,-247,-80,-15,72,-6
11600,9,-246,-79,-16,72,-4
11605,11,-246,-78,-17,72,-6
11610,10,-244,-79,-22,72,-4
11615,10,-247,-82,-26,70,-7
11620,11,-245,-77,-29,69,-4
11625,10,-244,-84,-31,68,-7
11630,12,-245,-82,-34,68,-4
11635,10,-243,-81,-34,65,-6
11640,11,-245,-79,-39,64,-5
11645,11,-241,-80,-41,62,-7
11650,14,-248,-80,-42,61,-5
11655,11,-248,-80,-41,61,-7
11660,11,-244,-81,-40,61,-5
11665,13,-248,-77,-36,61,-6
11670,11,-248,-78,-33,64,-3
11675,11,-249,-81,-31,64,-6
11680,10,-249,-80,-31,65,-4
11685,11,-247,-79,-27,65,-6
11690,11,-246,-78,-23,64,-4
11695,11,-246,-80,-21,65,-6
11700,9,-245,-82,-21,65,-5
11705,11,-244,-76,-19,66,-5
11710,11,-248,-83,-19,67,-5
11715,11,-246,-82,-21,70,-5
11720,10,-243,-82,-23,74,-4
11725,14,-246,-78,-25,73,-5
11730,11,-245,-82,-25,74,-2
11735,11,-245,-80,-26,74,-5
11740,12,-245,-78,-24,75,-3
11745,12,-245,-79,-24,75,-6
11750,11,-248,-81,-27,76,-5
11755,12,-245,-77,-28,75,-5
11760,13,-248,-79,-31,74,-3
11765,13,-250,-80,-33,73,-5
11770,15,-249,-70,-36,72,-5
11775,13,-247,-80,-38,72,-6
11780,13,-247,-79,-36,70,-5
11785,13,-249,-83,-36,71,-4
11790,11,-248,-79,-33,72,-4
11795,10,-244,-82,-31,73,-4
11800,9,-245,-84,-30,74,-3
11805,13,-246,-83,-30,75,-4
11810,8,-247,-75,-27,76,-2
11815,12,-249,-80,-25,77,-3
11820,11,-245,-78,-23,79,-2
11825,12,-246,-78,-19,78,-3
11830,11,-246,-78,-15,78,-1
11835,8,-245,-81,-12,79,-2
11840,11,-244,-82,-10,77,-2
11845,10,-243,-77,-8,79,-3
11850,10,-244,-79,-7,79,-3
11855,9,-244,-77,-10,77,-4
11860,12,-244,-82,-12,77,-6
11865,9,-243,-84,-19,75,-5
11870,12,-242,-81,-27,76,-7
11875,11,-243,-82,-35,77,-8
11880,13,-246,-82,-38,75,-8
11885,10,-244,-81,-42,74,-10
11890,12,-246,-80,-42,75,-9
11895,9,-248,-79,-38,75,-9
11900,11,-247,-80,-33,75,-8
11905,9,-247,-81,-30,75,-7
11910,11,-246,-82,-26,76,-7
11915,10,-245,-82,-22,77,-6
11920,11,-246,-74,-16,75,-7
11925,12,-244,-79,-14,75,-5
11930,11,-246,-82,-12,74,-5
11935,10,-246,-83,-8,72,-3
11940,10,-246,-82,-8,71,-4
11945,14,-246,-78,-4,72,-4
11950,10,-244,-85,-2,72,-4
11955,11,-245,-83,-1,73,-2
11960,11,-243,-83,-1,73,-4
11965,11,-244,-80,-2,72,-3
11970,11,-243,-81,-5,72,-5
11975,11,-245,-82,-9,72,-5
11980,9,-242,-77,-10,69,-6
11985,11,-245,-81,-13,68,-4
11990,9,-245,-80,-17,66,-5
11995,13,-247,-78,-18,66,-5
