timestamp,acc_x,acc_y,acc_z,gyro_x,gyro_y,gyro_z
0,-1,-240,-64,6,2,-9
5,1,-242,-61,5,3,-7
10,2,-241,-61,2,4,-7
15,3,-241,-61,0,6,-6
20,-1,-236,-62,-1,7,-5
25,2,-245,-55,-1,7,-5
30,0,-241,-59,0,8,-6
35,1,-243,-59,3,8,-7
40,1,-243,-64,5,11,-6
45,2,-238,-63,5,12,-6
50,0,-239,-58,5,12,-7
55,2,-243,-63,3,11,-7
60,2,-240,-62,2,12,-6
65,0,-241,-62,4,11,-6
70,2,-242,-57,5,12,-7
75,4,-242,-60,5,11,-8
80,0,-243,-52,5,11,-6
85,0,-239,-61,4,12,-6
90,1,-238,-59,4,12,-8
95,1,-240,-63,3,12,-9
100,0,-242,-61,3,11,-7
105,3,-238,-60,3,11,-6
110,1,-241,-62,4,9,-7
115,1,-242,-60,6,6,-6
120,2,-242,-66,8,6,-7
125,1,-242,-61,10,4,-7
130,1,-246,-63,12,6,-7
135,1,-241,-63,14,8,-6
140,1,-241,-61,15,9,-5
145,1,-239,-62,16,10,-5
150,0,-245,-61,17,14,-5
155,0,-240,-63,19,14,-5
160,2,-240,-57,18,13,-6
165,0,-239,-59,20,13,-6
170,1,-240,-63,22,12,-9
175,0,-242,-64,24,11,-11
180,1,-241,-64,26,11,-10
185,0,-239,-68,26,11,-11
190,0,-238,-63,26,13,-12
195,1,-241,-63,26,13,-12
200,0,-239,-64,25,14,-13
205,1,-241,-64,25,14,-12
210,3,-241,-64,24,13,-12
215,1,-240,-63,24,13,-13
220,3,-241,-62,22,12,-13
225,3,-239,-62,20,10,-12
230,0,-238,-64,20,10,-12
235,-2,-240,-63,19,9,-11
240,-3,-238,-66,21,9,-11
245,1,-238,-63,24,10,-12
250,0,-240,-63,29,11,-12
255,2,-241,-64,32,12,-12
260,1,-240,-66,33,14,-11
265,1,-239,-63,35,15,-12
270,2,-239,-64,35,15,-11
275,1,-241,-64,36,14,-13
280,0,-239,-64,35,13,-12
285,-1,-238,-63,35,12,-11
290,1,-237,-64,37,12,-12
295,4,-240,-62,36,12,-11
300,0,-239,-65,35,10,-13
305,-2,-234,-62,35,10,-13
310,1,-239,-63,35,12,-13
315,0,-241,-62,35,15,-11
320,0,-241,-64,32,16,-12
325,1,-240,-63,32,17,-13
330,3,-244,-61,30,19,-13
335,0,-242,-62,30,20,-16
340,2,-245,-63,31,21,-16
345,0,-239,-62,32,22,-15
350,-1,-237,-67,33,24,-14
355,1,-240,-64,35,23,-15
360,1,-243,-64,36,21,-16
365,0,-242,-66,38,20,-16
370,2,-241,-65,39,20,-16
375,0,-239,-63,42,19,-13
380,1,-245,-65,45,19,-15
385,1,-241,-64,51,18,-17
390,1,-241,-62,54,19,-18
395,1,-241,-63,58,20,-16
400,2,-241,-63,59,21,-14
405,1,-241,-64,59,22,-15
410,0,-238,-64,59,21,-17
415,1,-239,-64,57,21,-16
420,1,-240,-64,56,22,-15
425,0,-242,-63,55,21,-16
430,0,-240,-62,57,21,-16
435,1,-241,-64,59,19,-14
440,2,-241,-61,62,18,-15
445,0,-243,-63,65,18,-15
450,-1,-239,-66,68,17,-16
455,1,-240,-63,68,16,-17
460,-3,-238,-65,69,15,-17
465,-1,-241,-67,71,15,-17
470,1,-239,-64,74,16,-18
475,0,-237,-62,76,18,-18
480,2,-241,-65,79,20,-17
485,2,-242,-63,79,19,-15
490,2,-241,-63,79,20,-18
495,2,-240,-63,80,20,-17
500,4,-241,-66,79,18,-17
505,1,-242,-63,78,17,-17
510,1,-240,-65,78,16,-16
515,2,-247,-64,76,15,-18
520,2,-239,-60,74,12,-16
525,2,-241,-63,73,12,-15
530,-1,-237,-62,74,12,-14
535,1,-239,-61,77,13,-14
540,2,-238,-63,80,13,-16
545,0,-241,-63,85,13,-16
550,2,-241,-63,91,13,-14
555,0,-241,-65,95,14,-15
560,2,-239,-65,97,15,-16
565,-2,-247,-63,98,16,-16
570,0,-241,-64,96,15,-14
575,1,-238,-64,94,16,-12
580,0,-240,-60,88,15,-13
585,0,-238,-63,85,14,-13
590,1,-242,-61,82,12,-11
595,2,-240,-58,81,13,-10
600,1,-243,-61,81,13,-11
605,1,-242,-62,81,13,-10
610,1,-241,-64,83,13,-10
615,-1,-241,-56,85,16,-10
620,1,-250,-62,87,17,-11
625,1,-243,-64,88,16,-11
630,0,-238,-63,89,17,-10
635,1,-241,-63,89,18,-10
640,1,-242,-63,89,18,-12
645,0,-242,-64,88,20,-11
650,1,-242,-63,89,18,-11
655,0,-242,-64,89,18,-10
660,4,-242,-58,89,16,-11
665,0,-235,-67,88,17,-11
670,1,-239,-63,87,17,-10
675,-3,-233,-61,86,17,-12
680,0,-239,-62,84,18,-11
685,0,-242,-60,85,17,-9
690,2,-239,-63,85,17,-10
695,2,-241,-63,85,18,-11
700,1,-239,-61,85,19,-11
705,1,-240,-63,87,20,-10
710,1,-241,-64,87,23,-11
715,1,-239,-66,85,23,-11
720,1,-237,-64,85,23,-11
725,2,-237,-65,82,22,-12
730,3,-246,-59,80,22,-11
735,4,-242,-63,77,21,-13
740,3,-242,-63,74,21,-13
745,0,-239,-66,72,21,-13
750,2,-242,-63,71,22,-13
755,0,-241,-64,69,23,-13
760,0,-240,-63,67,22,-15
765,1,-241,-65,66,22,-14
770,2,-241,-63,65,22,-17
775,1,-237,-64,63,20,-16
780,1,-240,-62,60,18,-17
785,2,-244,-70,58,17,-18
790,1,-238,-63,56,14,-19
795,4,-241,-65,54,14,-20
800,0,-238,-62,52,12,-22
805,0,-241,-65,52,9,-21
810,1,-242,-60,49,5,-24
815,-2,-239,-61,47,1,-26
820,0,-240,-65,45,-3,-26
825,-1,-241,-63,44,-7,-25
830,2,-243,-61,46,-10,-25
835,1,-241,-64,48,-12,-28
840,-1,-237,-65,51,-12,-28
845,1,-239,-63,53,-13,-31
850,2,-242,-63,54,-14,-31
855,-1,-241,-64,56,-15,-30
860,-2,-241,-64,56,-16,-30
865,1,-240,-63,55,-18,-30
870,0,-239,-61,55,-22,-28
875,0,-241,-60,55,-25,-29
880,3,-244,-64,58,-27,-29
885,2,-240,-65,59,-28,-28
890,5,-245,-65,62,-30,-30
895,2,-241,-66,62,-30,-29
900,1,-244,-64,62,-30,-28
905,2,-241,-65,63,-29,-26
910,1,-242,-61,62,-27,-27
915,2,-240,-62,62,-25,-27
920,2,-241,-62,64,-25,-28
925,2,-240,-61,65,-25,-28
930,1,-242,-60,66,-26,-30
935,0,-240,-63,68,-26,-29
940,4,-240,-63,70,-27,-30
945,3,-241,-62,72,-28,-30
950,2,-242,-70,73,-30,-31
955,5,-239,-66,73,-32,-32
960,2,-239,-65,72,-33,-32
965,2,-237,-65,70,-34,-33
970,0,-236,-64,66,-35,-33
975,0,-238,-64,60,-39,-31
980,0,-237,-62,55,-38,-31
985,2,-239,-64,53,-37,-31
990,1,-239,-64,51,-37,-33
995,1,-239,-62,50,-37,-33
1000,3,-245,-63,49,-36,-33
1005,-1,-241,-64,46,-36,-35
1010,0,-236,-62,43,-37,-34
1015,1,-238,-61,39,-37,-34
1020,2,-238,-62,35,-37,-33
1025,3,-240,-63,34,-37,-33
1030,2,-241,-64,32,-36,-32
1035,7,-240,-65,30,-34,-32
1040,3,-239,-65,29,-32,-35
1045,2,-240,-65,27,-32,-34
1050,5,-241,-63,24,-30,-34
1055,-1,-240,-69,21,-29,-33
1060,5,-245,-65,19,-28,-35
1065,2,-242,-61,19,-27,-35
1070,2,-242,-61,18,-28,-36
1075,-1,-240,-59,20,-27,-36
1080,5,-242,-62,21,-28,-37
1085,3,-239,-64,20,-29,-36
1090,1,-239,-64,19,-30,-37
1095,4,-238,-63,18,-29,-38
1100,5,-239,-61,17,-31,-37
1105,1,-236,-66,16,-31,-37
1110,9,-239,-69,13,-31,-37
1115,3,-236,-66,9,-31,-38
1120,3,-235,-68,4,-30,-37
1125,3,-234,-68,-1,-28,-38
1130,2,-237,-64,-7,-26,-39
1135,3,-233,-66,-11,-22,-41
1140,3,-234,-70,-15,-20,-40
1145,4,-237,-67,-20,-17,-42
1150,2,-235,-65,-27,-15,-41
1155,6,-234,-64,-34,-12,-40
1160,3,-234,-67,-43,-10,-41
1165,0,-236,-65,-52,-9,-42
1170,3,-233,-66,-62,-7,-43
1175,4,-233,-65,-69,-5,-44
1180,4,-235,-65,-74,-4,-45
1185,4,-235,-65,-79,-4,-46
1190,5,-235,-65,-82,-2,-44
1195,6,-237,-66,-86,-2,-46
1200,5,-236,-64,-88,-1,-46
1205,3,-238,-66,-90,-1,-44
1210,5,-239,-69,-92,0,-46
1215,4,-237,-65,-95,0,-46
1220,2,-236,-62,-96,2,-45
1225,5,-237,-64,-97,3,-46
1230,3,-238,-63,-99,4,-46
1235,6,-239,-67,-98,6,-45
1240,4,-238,-67,-100,7,-43
1245,5,-238,-66,-101,7,-45
1250,3,-237,-68,-104,7,-40
1255,4,-243,-64,-107,5,-41
1260,5,-242,-67,-107,2,-40
1265,4,-241,-65,-106,-2,-40
1270,-2,-242,-65,-103,-8,-41
1275,3,-249,-64,-99,-13,-41
1280,2,-242,-64,-95,-17,-39
1285,0,-243,-67,-92,-21,-41
1290,0,-240,-68,-89,-25,-41
1295,2,-242,-73,-87,-27,-42
1300,1,-240,-71,-82,-30,-41
1305,-1,-238,-70,-78,-32,-43
1310,-2,-238,-68,-76,-34,-43
1315,-4,-239,-71,-79,-36,-41
1320,0,-238,-71,-78,-41,-44
1325,0,-236,-65,-80,-46,-44
1330,-2,-237,-69,-81,-48,-43
1335,1,-240,-68,-81,-49,-44
1340,1,-239,-65,-80,-50,-45
1345,1,-240,-69,-80,-49,-49
1350,5,-238,-67,-79,-49,-52
1355,3,-237,-69,-80,-45,-54
1360,5,-237,-68,-81,-42,-55
1365,5,-238,-76,-83,-39,-55
1370,6,-235,-72,-85,-37,-56
1375,6,-238,-71,-85,-34,-59
1380,9,-235,-73,-85,-35,-58
1385,5,-234,-64,-85,-35,-58
1390,4,-235,-74,-88,-36,-58
1395,7,-236,-74,-91,-40,-60
1400,7,-236,-73,-96,-43,-61
1405,6,-234,-77,-101,-45,-62
1410,5,-234,-73,-105,-46,-61
1415,4,-234,-75,-106,-47,-60
1420,4,-232,-76,-105,-46,-60
1425,3,-235,-76,-105,-45,-61
1430,4,-236,-77,-105,-43,-60
1435,5,-233,-79,-107,-39,-59
1440,9,-233,-76,-110,-35,-59
1445,4,-231,-80,-114,-32,-58
1450,4,-233,-79,-119,-28,-56
1455,6,-232,-78,-124,-24,-53
1460,10,-232,-79,-128,-20,-53
1465,10,-231,-79,-129,-15,-52
1470,11,-231,-78,-131,-7,-51
1475,12,-232,-75,-130,0,-52
1480,11,-228,-79,-130,8,-54
1485,16,-233,-74,-132,16,-55
1490,11,-230,-76,-135,21,-56
1495,11,-229,-83,-142,27,-58
1500,10,-231,-76,-151,32,-58
1505,12,-229,-78,-157,34,-57
1510,12,-231,-79,-164,37,-57
1515,9,-231,-78,-171,37,-54
1520,9,-231,-80,-176,39,-51
1525,6,-231,-79,-181,41,-48
1530,6,-229,-83,-183,45,-45
1535,8,-233,-81,-182,49,-40
1540,6,-236,-86,-181,53,-42
1545,7,-232,-82,-178,57,-37
1550,5,-230,-85,-179,60,-35
1555,6,-232,-86,-179,64,-34
1560,8,-234,-86,-183,67,-31
1565,9,-234,-88,-188,68,-27
1570,4,-235,-87,-195,69,-25
1575,6,-234,-86,-201,69,-23
1580,3,-233,-81,-208,72,-19
1585,2,-235,-85,-212,71,-13
1590,0,-236,-83,-215,67,-12
1595,1,-232,-78,-216,62,-8
1600,2,-238,-80,-220,54,-5
1605,-2,-231,-82,-227,47,-2
1610,0,-235,-78,-233,40,-1
1615,0,-231,-81,-238,35,0
1620,1,-234,-80,-237,33,1
1625,-1,-229,-79,-234,32,2
1630,2,-231,-83,-230,30,2
1635,0,-232,-83,-226,29,1
1640,0,-230,-81,-225,26,4
1645,0,-232,-87,-225,21,4
1650,-1,-233,-84,-224,16,5
1655,-3,-230,-83,-226,14,7
1660,-2,-233,-91,-227,11,7
1665,1,-236,-89,-227,10,6
1670,2,-237,-90,-226,8,5
1675,0,-235,-92,-222,8,4
1680,2,-238,-85,-218,10,6
1685,1,-237,-89,-212,8,8
1690,2,-238,-86,-206,6,7
1695,2,-239,-88,-203,4,9
1700,4,-241,-85,-202,4,9
1705,4,-232,-85,-203,5,10
1710,5,-240,-87,-204,6,11
1715,6,-242,-85,-200,8,11
1720,9,-240,-89,-197,10,11
1725,8,-239,-92,-192,15,11
1730,7,-238,-90,-187,20,12
1735,6,-237,-90,-180,24,13
1740,6,-234,-89,-174,25,16
1745,4,-234,-95,-168,29,17
1750,7,-236,-88,-163,31,17
1755,1,-231,-92,-158,33,17
1760,9,-233,-92,-153,33,20
1765,8,-235,-93,-149,36,19
1770,2,-230,-92,-148,35,18
1775,7,-232,-91,-145,37,19
1780,3,-230,-94,-144,36,17
1785,4,-230,-93,-141,37,17
1790,2,-231,-96,-136,36,15
1795,2,-230,-93,-130,33,15
1800,4,-231,-98,-126,31,16
1805,2,-228,-98,-124,29,15
1810,1,-229,-98,-127,29,16
1815,0,-226,-98,-132,31,16
1820,5,-227,-103,-138,30,15
1825,2,-230,-98,-143,31,14
1830,0,-224,-104,-146,31,13
1835,1,-226,-99,-150,31,9
1840,4,-222,-100,-151,30,9
1845,0,-221,-103,-153,31,10
1850,2,-222,-101,-155,32,7
1855,1,-223,-99,-157,31,7
1860,4,-223,-104,-158,33,5
1865,3,-221,-106,-159,35,3
1870,5,-216,-108,-162,37,-1
1875,5,-214,-114,-164,36,-1
1880,10,-215,-106,-169,38,-1
1885,7,-215,-112,-176,38,1
1890,7,-212,-112,-187,38,1
1895,10,-214,-109,-198,37,3
1900,10,-213,-111,-206,38,4
1905,5,-209,-109,-214,38,7
1910,8,-210,-113,-222,36,8
1915,12,-208,-113,-233,35,9
1920,6,-209,-107,-246,35,12
1925,8,-211,-115,-260,37,14
1930,17,-213,-118,-275,37,15
1935,7,-208,-117,-285,38,17
1940,9,-210,-120,-295,38,23
1945,8,-206,-122,-302,43,24
1950,5,-206,-121,-309,46,26
1955,4,-205,-125,-314,50,28
1960,4,-204,-124,-322,55,28
1965,4,-205,-125,-333,57,29
1970,7,-202,-122,-345,61,27
1975,4,-206,-122,-360,63,27
1980,3,-203,-121,-375,63,29
1985,0,-204,-113,-390,60,28
1990,0,-202,-125,-404,55,32
1995,1,-201,-121,-417,47,36
2000,3,-203,-120,-433,37,36
2005,3,-199,-122,-447,30,40
2010,1,-200,-128,-463,28,43
2015,1,-200,-124,-478,29,46
2020,2,-196,-129,-490,30,51
2025,3,-202,-125,-492,34,57
2030,6,-201,-127,-489,37,59
2035,1,-199,-127,-482,40,65
2040,3,-197,-126,-474,41,68
2045,3,-196,-126,-468,43,71
2050,2,-194,-125,-463,39,74
2055,2,-193,-119,-460,35,75
2060,1,-193,-121,-458,26,75
2065,3,-192,-119,-463,18,76
2070,1,-194,-122,-476,11,74
2075,1,-194,-121,-496,5,72
2080,0,-192,-124,-516,-1,72
2085,-2,-196,-120,-534,-6,71
2090,-1,-198,-121,-544,-14,70
2095,0,-197,-127,-547,-22,68
2100,1,-200,-126,-545,-27,67
2105,-1,-195,-131,-541,-28,66
2110,-2,-200,-133,-535,-30,65
2115,1,-197,-132,-530,-30,64
2120,-2,-200,-133,-521,-31,64
2125,-1,-199,-129,-510,-36,60
2130,0,-202,-133,-503,-42,60
2135,1,-197,-133,-501,-48,59
2140,5,-199,-133,-508,-55,60
2145,1,-199,-127,-518,-60,61
2150,2,-202,-129,-526,-65,61
2155,2,-203,-130,-529,-72,60
2160,3,-204,-129,-527,-76,60
2165,7,-210,-129,-519,-77,58
2170,1,-210,-135,-509,-72,55
2175,6,-212,-134,-501,-61,53
2180,5,-208,-138,-494,-50,48
2185,7,-211,-141,-487,-37,43
2190,6,-207,-143,-481,-20,35
2195,7,-209,-143,-478,-3,30
2200,12,-211,-139,-472,6,24
2205,3,-204,-139,-464,12,19
2210,6,-203,-138,-459,16,17
2215,1,-200,-140,-459,17,17
2220,1,-198,-144,-468,17,18
2225,2,-199,-144,-480,19,21
2230,1,-198,-140,-496,18,27
2235,3,-200,-142,-508,17,35
2240,5,-200,-144,-510,11,41
2245,3,-203,-138,-505,6,49
2250,2,-200,-140,-496,4,54
2255,-1,-206,-142,-487,1,57
2260,7,-200,-142,-482,4,64
2265,6,-200,-138,-475,6,66
2270,7,-200,-143,-461,8,66
2275,2,-199,-140,-446,13,67
2280,3,-199,-143,-431,18,64
2285,1,-194,-144,-419,24,62
2290,3,-193,-145,-410,30,59
2295,1,-191,-144,-406,33,56
2300,1,-187,-148,-408,33,55
2305,1,-189,-149,-412,27,53
2310,-2,-188,-145,-415,18,57
2315,-2,-189,-149,-417,8,62
2320,-1,-189,-149,-420,-1,68
2325,0,-194,-147,-421,-6,75
2330,-3,-190,-146,-423,-7,84
2335,0,-191,-148,-425,-7,91
2340,0,-192,-152,-425,-6,100
2345,-1,-191,-145,-417,-4,107
2350,0,-192,-150,-402,-4,113
2355,1,-192,-153,-386,-5,120
2360,1,-191,-149,-369,-5,124
2365,-1,-181,-157,-349,-6,127
2370,1,-191,-156,-335,-5,126
2375,3,-188,-155,-328,-2,124
2380,2,-188,-157,-323,2,120
2385,1,-186,-157,-323,8,115
2390,2,-185,-155,-320,15,108
2395,1,-184,-158,-321,19,101
2400,-2,-183,-156,-321,20,93
2405,-1,-187,-152,-320,17,87
2410,3,-187,-157,-313,10,80
2415,-1,-184,-159,-305,2,73
2420,2,-178,-169,-302,-6,71
2425,-2,-181,-161,-305,-13,75
2430,-3,-182,-162,-312,-20,80
2435,-3,-187,-164,-315,-31,85
2440,-1,-184,-164,-314,-42,89
2445,-3,-181,-164,-308,-52,91
2450,0,-183,-164,-304,-60,91
2455,-1,-179,-162,-302,-64,88
2460,1,-181,-162,-303,-62,81
2465,0,-183,-169,-305,-58,74
2470,-3,-180,-159,-308,-49,65
2475,-1,-186,-167,-308,-40,56
2480,0,-180,-166,-305,-29,46
2485,0,-180,-164,-304,-16,33
2490,0,-181,-164,-302,-2,23
2495,0,-183,-165,-301,8,15
2500,-2,-183,-164,-296,12,11
2505,-2,-181,-162,-290,6,8
2510,-5,-185,-164,-277,-5,4
2515,-2,-189,-168,-260,-17,2
2520,-5,-183,-169,-244,-31,-2
2525,-4,-188,-173,-233,-39,-5
2530,0,-187,-175,-224,-45,-8
2535,-1,-188,-172,-220,-48,-13
2540,-5,-180,-170,-217,-50,-16
2545,-3,-181,-170,-215,-52,-14
2550,-3,-185,-166,-209,-55,-13
2555,-3,-181,-167,-205,-63,-11
2560,-2,-185,-165,-201,-73,-6
2565,-2,-181,-172,-195,-88,-5
2570,-2,-185,-167,-194,-101,-14
2575,-1,-184,-174,-193,-110,-21
2580,-2,-185,-175,-197,-114,-28
2585,-5,-183,-181,-197,-113,-39
2590,-6,-183,-178,-194,-104,-51
2595,-1,-181,-175,-185,-99,-56
2600,-1,-184,-178,-170,-96,-60
2605,-5,-180,-180,-154,-96,-66
2610,0,-181,-179,-138,-98,-65
2615,1,-184,-178,-125,-96,-65
2620,0,-182,-186,-118,-96,-64
2625,-2,-180,-182,-110,-98,-61
2630,-7,-178,-184,-103,-97,-61
2635,1,-176,-186,-99,-99,-54
2640,0,-175,-180,-100,-99,-46
2645,-6,-173,-183,-104,-100,-38
2650,-7,-176,-178,-110,-106,-31
2655,-7,-177,-178,-113,-117,-29
2660,-7,-177,-173,-114,-125,-29
2665,-5,-176,-178,-116,-131,-29
2670,-10,-176,-175,-122,-136,-29
2675,-10,-174,-173,-129,-138,-33
2680,-9,-178,-174,-129,-140,-34
2685,-7,-178,-173,-124,-146,-33
2690,-9,-169,-178,-111,-148,-33
2695,-2,-175,-174,-91,-144,-31
2700,-5,-171,-173,-74,-134,-30
2705,0,-173,-176,-55,-128,-27
2710,0,-173,-175,-38,-119,-25
2715,1,-175,-175,-22,-109,-21
2720,2,-172,-180,-5,-96,-19
2725,1,-170,-180,7,-83,-18
2730,2,-171,-175,11,-69,-19
2735,1,-171,-178,14,-58,-20
2740,-1,-174,-171,12,-52,-19
2745,-2,-175,-174,7,-50,-22
2750,0,-173,-176,3,-50,-25
2755,-2,-173,-174,1,-50,-32
2760,-8,-179,-173,5,-56,-38
2765,-9,-173,-178,19,-67,-43
2770,-10,-176,-179,34,-73,-51
2775,-12,-176,-181,48,-78,-58
2780,-13,-174,-178,60,-84,-63
2785,-9,-175,-177,72,-92,-67
2790,-15,-170,-185,84,-103,-68
2795,-11,-167,-179,93,-111,-72
2800,-15,-165,-179,102,-119,-75
2805,-13,-165,-174,108,-130,-76
2810,-16,-165,-174,110,-139,-75
2815,-17,-166,-177,112,-144,-75
2820,-17,-160,-178,109,-151,-74
2825,-16,-163,-180,105,-148,-73
2830,-14,-166,-179,102,-138,-74
2835,-14,-164,-180,97,-135,-70
2840,-14,-165,-181,91,-131,-68
2845,-12,-165,-179,82,-126,-65
2850,-9,-165,-176,81,-121,-65
2855,-13,-165,-179,80,-115,-67
2860,-10,-161,-175,79,-105,-73
2865,-7,-167,-175,81,-94,-78
2870,-5,-165,-178,84,-93,-78
2875,-4,-165,-176,89,-93,-78
2880,-2,-166,-174,94,-91,-81
2885,-6,-162,-174,100,-83,-86
2890,0,-165,-171,101,-80,-89
2895,-5,-165,-176,102,-82,-93
2900,-3,-169,-172,102,-85,-97
2905,-8,-163,-179,101,-90,-100
2910,-6,-165,-180,101,-97,-105
2915,-6,-163,-170,98,-103,-106
2920,-13,-158,-174,99,-110,-105
2925,-9,-162,-171,100,-114,-103
2930,-8,-161,-174,100,-121,-95
2935,-13,-158,-174,99,-125,-87
2940,-10,-158,-175,99,-132,-75
2945,-10,-157,-169,97,-138,-64
2950,-13,-158,-176,98,-143,-55
2955,-7,-161,-171,97,-143,-48
2960,-9,-159,-173,94,-137,-48
2965,-7,-160,-175,92,-129,-47
2970,-7,-162,-180,93,-115,-47
2975,-6,-159,-178,91,-101,-51
2980,-5,-159,-175,92,-84,-51
2985,-6,-157,-177,87,-70,-45
2990,-7,-156,-174,83,-59,-36
2995,-9,-157,-172,79,-50,-26
3000,-9,-154,-170,73,-46,-15
3005,-5,-161,-176,70,-43,-5
3010,-9,-163,-172,68,-42,-4
3015,-6,-163,-173,70,-41,-5
3020,-9,-167,-177,72,-41,-9
3025,-7,-162,-169,76,-40,-14
3030,-3,-164,-171,83,-37,-21
3035,0,-163,-171,98,-30,-30
3040,2,-159,-172,117,-18,-37
3045,-2,-161,-174,139,-5,-41
3050,0,-163,-170,163,4,-41
3055,-5,-165,-170,184,13,-40
3060,-9,-166,-174,203,16,-42
3065,-13,-167,-173,214,16,-45
3070,-13,-173,-172,214,10,-49
3075,-13,-166,-178,206,4,-56
3080,-22,-168,-175,189,-3,-63
3085,-25,-169,-175,165,-11,-67
3090,-23,-174,-177,145,-22,-69
3095,-23,-169,-176,130,-31,-64
3100,-21,-172,-184,120,-39,-61
3105,-25,-170,-178,114,-42,-57
3110,-22,-171,-184,116,-48,-54
3115,-24,-172,-186,126,-56,-48
3120,-24,-171,-184,141,-65,-44
3125,-20,-171,-182,158,-75,-36
3130,-19,-168,-182,172,-81,-31
3135,-21,-165,-179,181,-92,-23
3140,-20,-166,-184,181,-101,-19
3145,-13,-168,-182,178,-111,-16
3150,-16,-171,-178,168,-116,-17
3155,-15,-171,-179,159,-121,-21
3160,-16,-174,-177,150,-121,-27
3165,-16,-172,-176,142,-121,-32
3170,-13,-176,-176,135,-116,-35
3175,-14,-177,-170,133,-108,-37
3180,-19,-179,-172,140,-101,-43
3185,-14,-178,-167,153,-97,-52
3190,-15,-176,-170,167,-91,-64
3195,-14,-179,-168,180,-81,-78
3200,-12,-180,-165,192,-70,-93
3205,-15,-177,-174,202,-58,-106
3210,-13,-181,-169,211,-44,-111
3215,-12,-182,-169,217,-31,-110
3220,-12,-185,-167,223,-19,-104
3225,-21,-184,-171,232,-10,-91
3230,-17,-186,-171,242,-6,-76
3235,-19,-185,-168,250,-4,-62
3240,-18,-183,-171,259,-5,-48
3245,-16,-185,-171,270,-10,-42
3250,-20,-182,-169,287,-15,-40
3255,-18,-184,-167,306,-21,-40
3260,-20,-186,-171,323,-23,-45
3265,-20,-187,-171,342,-22,-49
3270,-18,-186,-169,358,-14,-47
3275,-18,-185,-169,371,-5,-43
3280,-21,-182,-163,384,6,-36
3285,-19,-182,-173,397,17,-24
3290,-22,-181,-160,408,24,-15
3295,-21,-180,-160,417,28,-6
3300,-22,-184,-158,424,28,1
3305,-23,-186,-158,430,25,-1
3310,-23,-187,-156,437,22,-6
3315,-21,-188,-158,448,17,-14
3320,-25,-182,-156,462,13,-17
3325,-23,-182,-157,477,11,-18
3330,-19,-184,-163,496,12,-14
3335,-16,-186,-161,513,16,-6
3340,-17,-183,-165,526,20,-1
3345,-20,-190,-169,534,23,4
3350,-20,-180,-166,541,24,7
3355,-17,-182,-161,545,20,4
3360,-20,-181,-161,547,15,-1
3365,-21,-180,-154,549,8,-8
3370,-15,-183,-155,547,2,-15
3375,-17,-184,-150,544,1,-20
3380,-18,-181,-149,543,0,-22
3385,-22,-180,-148,546,-1,-21
3390,-17,-179,-149,552,-1,-17
3395,-19,-182,-152,562,3,-11
3400,-18,-185,-156,575,6,-5
3405,-16,-186,-152,590,8,0
3410,-17,-188,-153,601,8,7
3415,-22,-184,-151,612,6,16
3420,-18,-188,-148,618,5,22
3425,-18,-188,-153,624,-2,27
3430,-18,-186,-148,627,-8,26
3435,-18,-188,-151,628,-13,22
3440,-18,-190,-151,628,-16,19
3445,-16,-187,-147,629,-15,20
3450,-18,-186,-156,634,-12,21
3455,-7,-191,-149,638,-8,22
3460,-15,-190,-150,642,-5,23
3465,-12,-191,-153,647,-2,21
3470,-16,-193,-147,652,-1,22
3475,-14,-194,-150,658,-1,18
3480,-14,-189,-150,663,0,14
3485,-16,-188,-152,666,0,11
3490,-17,-191,-153,664,2,7
3495,-17,-193,-146,663,3,5
3500,-16,-192,-150,661,5,7
3505,-13,-194,-145,665,9,9
3510,-18,-194,-142,673,14,15
3515,-18,-196,-142,685,21,21
3520,-22,-198,-141,700,26,24
3525,-19,-201,-139,712,32,29
3530,-19,-200,-135,725,34,29
3535,-20,-200,-137,738,33,26
3540,-21,-199,-143,749,29,21
3545,-20,-201,-142,761,24,18
3550,-18,-198,-144,771,22,14
3555,-16,-199,-144,786,25,14
3560,-16,-201,-142,798,30,16
3565,-17,-195,-146,811,37,21
3570,-13,-202,-139,822,45,26
3575,-12,-207,-141,831,53,31
3580,-12,-205,-142,840,58,33
3585,-11,-208,-139,846,61,33
3590,-10,-209,-144,849,66,27
3595,-12,-209,-141,848,72,19
3600,-10,-206,-142,843,78,14
3605,-12,-211,-133,836,87,11
3610,-15,-212,-139,836,96,14
3615,-14,-208,-145,836,104,18
3620,-16,-209,-137,838,109,25
3625,-10,-210,-134,838,110,29
3630,-16,-210,-134,837,106,32
3635,-13,-213,-134,833,101,34
3640,-17,-211,-128,829,94,32
3645,-18,-211,-128,822,84,32
3650,-15,-214,-128,818,76,32
3655,-12,-217,-126,814,67,32
3660,-14,-218,-126,811,59,32
3665,-14,-216,-134,813,51,32
3670,-14,-217,-127,817,43,30
3675,-12,-220,-122,825,36,31
3680,-16,-216,-116,833,30,27
3685,-12,-219,-116,838,27,24
3690,-16,-222,-116,840,29,20
3695,-12,-223,-113,838,31,18
3700,-10,-226,-109,839,33,16
3705,-5,-230,-106,843,36,20
3710,-8,-231,-109,853,38,26
3715,-9,-236,-106,867,37,33
3720,-14,-231,-109,887,35,41
3725,-8,-226,-107,902,31,37
3730,-10,-231,-106,912,23,34
3735,-15,-229,-108,923,14,34
3740,-13,-231,-108,929,4,23
3745,-15,-233,-107,928,-3,14
3750,-17,-235,-103,925,-6,7
3755,-19,-236,-96,923,-4,2
3760,-17,-234,-98,931,1,1
3765,-18,-240,-97,949,7,5
3770,-18,-237,-96,974,10,1
3775,-21,-239,-91,1000,10,-3
3780,-20,-236,-97,1024,10,-1
3785,-16,-240,-97,1042,6,-1
3790,-18,-240,-98,1046,3,1
3795,-13,-240,-96,1039,0,1
3800,-9,-248,-98,1032,-1,2
3805,-17,-252,-96,1028,-1,-1
3810,-19,-254,-97,1020,1,-4
3815,-13,-256,-94,1015,5,-6
3820,-14,-255,-86,1018,12,-13
3825,-17,-252,-85,1028,20,-19
3830,-17,-255,-88,1047,27,-23
3835,-19,-253,-88,1070,32,-23
3840,-16,-251,-82,1087,39,-11
3845,-19,-256,-79,1097,37,-5
3850,-19,-258,-75,1102,33,-1
3855,-19,-261,-73,1102,28,-2
3860,-15,-262,-69,1107,22,-9
3865,-17,-263,-69,1109,17,-10
3870,-17,-259,-72,1110,15,-2
3875,-11,-264,-73,1101,10,1
3880,-17,-266,-69,1086,8,4
3885,-15,-264,-69,1073,7,8
3890,-16,-260,-70,1066,9,6
3895,-15,-261,-64,1069,7,-1
3900,-14,-263,-62,1079,6,-3
3905,-18,-268,-56,1089,1,0
3910,-17,-275,-55,1102,-7,9
3915,-18,-274,-54,1114,-17,14
3920,-17,-274,-55,1121,-29,15
3925,-13,-269,-55,1104,-38,20
3930,-13,-269,-51,1081,-45,18
3935,-10,-267,-50,1055,-50,11
3940,-15,-264,-53,1032,-49,11
3945,-13,-266,-47,1007,-47,15
3950,-16,-267,-44,991,-44,19
3955,-18,-270,-40,982,-38,19
3960,-15,-268,-41,981,-34,18
3965,-19,-267,-37,989,-34,17
3970,-14,-266,-42,996,-37,22
3975,-16,-257,-39,999,-46,31
3980,-14,-262,-40,999,-53,43
3985,-11,-262,-41,997,-58,50
3990,-11,-268,-38,995,-58,49
3995,-13,-267,-44,992,-54,40
4000,-17,-264,-33,994,-48,27
4005,-19,-264,-36,999,-39,15
4010,-24,-268,-30,1003,-33,8
4015,-31,-271,-26,1012,-31,13
4020,-37,-281,-23,1028,-31,22
4025,-40,-284,-18,1050,-34,35
4030,-50,-297,-17,1094,-45,33
4035,-50,-304,-6,1140,-54,52
4040,-48,-312,-5,1185,-62,61
4045,-50,-319,-1,1234,-72,64
4050,-66,-333,7,1286,-87,59
4055,-59,-339,3,1329,-97,74
4060,-58,-335,8,1349,-98,105
4065,-54,-344,6,1359,-97,138
4070,-45,-337,10,1327,-101,161
4075,-53,-341,-4,1281,-114,165
4080,-42,-326,1,1189,-112,194
4085,-40,-316,-5,1067,-109,220
4090,-34,-289,-7,931,-104,242
4095,-23,-268,-11,785,-94,259
4100,-25,-255,-7,636,-80,269
4105,-22,-238,-4,493,-65,275
4110,-17,-224,-9,361,-46,271
4115,-18,-214,-10,243,-26,257
4120,-16,-205,-10,145,-5,238
4125,-17,-197,-21,73,16,217
4130,-18,-196,-26,23,38,196
4135,-22,-201,-27,-5,56,179
4140,-17,-202,-31,-13,71,163
4145,-17,-206,-28,-9,77,148
4150,-23,-209,-36,1,77,132
4155,-24,-205,-28,18,69,121
4160,-21,-212,-20,34,59,107
4165,-21,-211,-19,51,48,96
4170,-17,-214,-12,67,34,91
4175,-18,-215,-4,87,19,87
4180,-24,-221,0,112,3,83
4185,-24,-226,8,143,-8,77
4190,-25,-232,13,185,-17,75
4195,-29,-235,18,235,-25,71
4200,-33,-242,26,291,-30,66
4205,-35,-249,29,345,-35,59
4210,-37,-254,38,387,-42,55
4215,-36,-256,34,415,-50,50
4220,-39,-263,36,433,-59,49
4225,-38,-265,34,442,-70,51
4230,-37,-269,35,448,-80,56
4235,-40,-269,33,448,-86,63
4240,-38,-267,38,446,-90,69
4245,-36,-261,34,442,-94,74
4250,-35,-256,37,438,-99,75
4255,-34,-250,36,436,-105,76
4260,-36,-249,41,431,-108,78
4265,-37,-250,40,419,-109,79
4270,-28,-247,39,401,-106,78
4275,-31,-244,37,379,-99,75
4280,-27,-242,42,351,-92,67
4285,-27,-243,37,317,-83,57
4290,-25,-240,36,276,-70,43
4295,-23,-237,31,233,-54,27
4300,-24,-235,32,187,-38,12
4305,-27,-229,38,141,-28,-1
4310,-28,-230,35,100,-19,-13
4315,-30,-223,40,67,-15,-22
4320,-31,-229,39,41,-9,-30
4325,-33,-233,43,21,-3,-38
4330,-31,-234,41,6,1,-45
4335,-29,-234,47,-2,5,-46
4340,-32,-238,50,0,6,-46
4345,-29,-237,48,14,5,-48
4350,-30,-243,49,35,2,-49
4355,-35,-239,49,58,-3,-52
4360,-34,-244,55,77,-8,-58
4365,-39,-245,53,91,-13,-66
4370,-33,-244,56,100,-15,-83
4375,-35,-242,62,110,-15,-99
4380,-31,-242,59,123,-9,-114
4385,-33,-243,60,134,-3,-122
4390,-34,-244,58,143,6,-129
4395,-37,-245,55,151,13,-134
4400,-37,-249,57,163,15,-137
4405,-37,-250,60,187,12,-144
4410,-39,-252,63,224,5,-151
4415,-41,-246,63,271,-5,-160
4420,-45,-239,65,320,-17,-173
4425,-42,-239,68,367,-29,-180
4430,-48,-235,66,405,-40,-188
4435,-47,-236,67,432,-50,-191
4440,-43,-235,65,449,-57,-191
4445,-40,-234,69,455,-58,-186
4450,-43,-231,70,451,-54,-172
4455,-40,-233,69,434,-52,-160
4460,-37,-227,71,408,-49,-145
4465,-35,-233,69,377,-46,-135
4470,-35,-235,66,343,-45,-127
4475,-38,-235,75,314,-47,-124
4480,-36,-243,63,298,-51,-121
4485,-39,-232,67,289,-55,-120
4490,-40,-231,63,289,-62,-115
4495,-38,-229,60,292,-69,-110
4500,-38,-227,63,300,-75,-109
4505,-38,-233,61,311,-81,-108
4510,-32,-235,61,328,-89,-112
4515,-33,-244,58,353,-97,-122
4520,-27,-245,58,383,-107,-135
4525,-26,-245,54,416,-110,-152
4530,-23,-246,53,442,-110,-171
4535,-18,-248,55,457,-104,-184
4540,-15,-239,44,447,-94,-201
4545,-14,-239,40,418,-85,-213
4550,-12,-236,40,375,-76,-226
4555,-13,-233,41,324,-67,-233
4560,-13,-237,37,274,-59,-241
4565,-12,-236,38,230,-52,-248
4570,-14,-234,34,196,-50,-251
4575,-16,-237,40,172,-45,-257
4580,-14,-230,39,160,-41,-259
4585,-10,-241,36,161,-33,-261
4590,-8,-239,33,173,-28,-259
4595,-8,-240,37,192,-22,-256
4600,-8,-242,34,212,-12,-253
4605,-5,-244,35,233,2,-252
4610,-9,-248,32,252,13,-254
4615,-13,-248,33,265,21,-253
4620,-11,-247,34,272,30,-250
4625,-15,-244,33,272,35,-250
4630,-17,-247,34,270,36,-254
4635,-14,-245,35,266,37,-259
4640,-18,-246,32,259,31,-262
4645,-20,-242,33,254,19,-265
4650,-18,-243,35,252,6,-264
4655,-21,-246,33,248,-8,-264
4660,-17,-246,30,248,-21,-260
4665,-22,-243,31,244,-32,-253
4670,-17,-241,32,241,-45,-245
4675,-17,-241,34,237,-58,-240
4680,-17,-245,31,231,-74,-237
4685,-15,-247,36,225,-87,-233
4690,-15,-248,35,221,-98,-228
4695,-23,-244,35,222,-106,-217
4700,-15,-254,39,225,-113,-207
4705,-14,-251,43,228,-118,-194
4710,-14,-257,38,229,-127,-181
4715,-19,-258,35,226,-138,-169
4720,-16,-256,36,224,-150,-156
4725,-14,-257,35,224,-160,-148
4730,-17,-257,39,227,-169,-141
4735,-14,-254,31,227,-175,-130
4740,-6,-253,32,223,-178,-122
4745,-8,-253,32,223,-178,-118
4750,-13,-251,25,218,-179,-111
4755,-5,-251,31,209,-180,-105
4760,-1,-250,32,204,-179,-101
4765,-5,-252,34,199,-174,-99
4770,2,-249,37,193,-165,-103
4775,4,-246,41,186,-154,-102
4780,1,-246,44,177,-142,-102
4785,8,-248,48,169,-132,-101
4790,12,-245,47,163,-126,-102
4795,9,-245,45,160,-119,-105
4800,11,-246,51,157,-114,-109
4805,14,-245,45,156,-111,-112
4810,11,-242,52,158,-107,-121
4815,13,-240,55,161,-103,-129
4820,14,-240,58,163,-100,-134
4825,15,-237,62,166,-95,-141
4830,16,-238,61,175,-89,-146
4835,15,-239,63,180,-80,-148
4840,17,-240,66,188,-73,-152
4845,18,-240,67,194,-64,-152
4850,18,-238,69,200,-55,-150
4855,14,-238,71,204,-47,-147
4860,15,-237,74,204,-37,-145
4865,16,-238,71,206,-29,-141
4870,16,-238,76,207,-26,-136
4875,13,-238,75,214,-25,-132
4880,12,-237,73,216,-26,-132
4885,12,-237,71,220,-28,-130
4890,9,-229,70,222,-32,-129
4895,9,-237,70,222,-36,-130
4900,12,-236,66,219,-41,-128
4905,6,-234,64,218,-44,-127
4910,5,-231,68,214,-46,-124
4915,6,-230,63,211,-48,-122
4920,4,-233,61,205,-50,-118
4925,3,-231,64,197,-50,-116
4930,3,-236,65,192,-48,-113
4935,4,-233,62,188,-43,-109
4940,4,-236,59,185,-36,-108
4945,3,-236,58,182,-28,-104
4950,2,-237,59,182,-24,-101
4955,4,-239,58,184,-19,-101
4960,3,-245,56,186,-14,-100
4965,7,-243,49,187,-7,-99
4970,1,-239,53,187,-2,-100
4975,1,-241,56,187,3,-100
4980,3,-241,55,188,8,-98
4985,0,-243,53,187,13,-96
4990,3,-245,56,188,15,-92
4995,2,-243,57,189,20,-89
5000,0,-243,57,193,24,-86
5005,1,-243,54,198,27,-82
5010,2,-245,58,204,27,-81
5015,1,-247,58,207,28,-77
5020,-1,-247,57,205,27,-75
5025,0,-243,55,200,24,-72
5030,0,-242,56,192,22,-72
5035,2,-241,54,181,19,-77
5040,0,-240,51,171,17,-77
5045,1,-240,57,161,15,-78
5050,0,-241,56,153,14,-76
5055,3,-237,56,144,13,-76
5060,2,-239,59,136,13,-76
5065,6,-236,57,126,14,-75
5070,11,-239,62,117,16,-72
5075,1,-235,58,109,19,-73
5080,4,-239,61,98,21,-73
5085,2,-237,63,88,23,-70
5090,2,-237,58,79,24,-70
5095,5,-241,63,72,26,-67
5100,4,-237,61,64,27,-64
5105,5,-239,59,60,31,-62
5110,9,-240,63,56,33,-59
5115,6,-243,61,55,37,-57
5120,8,-242,59,55,38,-55
5125,4,-238,62,55,40,-54
5130,6,-237,65,56,38,-52
5135,4,-238,64,57,37,-51
5140,3,-240,63,58,34,-49
5145,4,-240,62,58,31,-47
5150,3,-239,65,58,28,-48
5155,3,-240,64,57,26,-47
5160,0,-239,65,56,20,-46
5165,5,-242,60,53,16,-46
5170,1,-240,64,56,14,-46
5175,1,-238,63,58,11,-43
5180,3,-242,62,61,7,-43
5185,3,-245,65,65,8,-40
5190,2,-242,64,72,6,-38
5195,3,-242,65,77,6,-35
5200,4,-240,63,81,5,-33
5205,6,-240,62,82,2,-32
5210,2,-239,62,85,0,-28
5215,1,-240,62,84,-1,-28
5220,3,-241,61,83,-4,-26
5225,2,-240,61,81,-6,-24
5230,4,-237,62,77,-4,-25
5235,4,-238,61,74,-2,-25
5240,5,-236,63,69,-1,-25
5245,6,-238,62,65,4,-25
5250,5,-240,62,62,9,-23
5255,8,-240,60,58,12,-21
5260,6,-237,63,57,16,-19
5265,9,-242,62,56,17,-18
5270,7,-241,57,52,18,-16
5275,7,-242,61,48,19,-17
5280,7,-240,62,45,19,-16
5285,8,-238,58,41,17,-14
5290,2,-238,51,39,16,-16
5295,7,-244,59,36,13,-18
5300,6,-239,61,36,14,-18
5305,8,-242,60,36,15,-18
5310,5,-239,62,37,15,-19
5315,5,-241,61,39,16,-20
5320,5,-244,60,37,15,-20
5325,5,-242,62,37,17,-18
5330,8,-246,62,36,17,-16
5335,6,-242,62,34,17,-15
5340,5,-241,64,33,17,-12
5345,5,-241,63,32,17,-12
5350,6,-242,61,32,15,-11
5355,5,-243,60,33,16,-7
5360,5,-240,57,34,13,-6
5365,4,-241,59,38,11,-8
5370,3,-241,59,40,10,-6
5375,6,-238,62,43,12,-6
5380,4,-242,61,44,13,-7
5385,6,-240,63,47,12,-7
5390,3,-240,65,48,13,-9
5395,4,-242,64,51,15,-9
5400,7,-241,67,51,18,-8
5405,3,-237,64,48,21,-13
5410,5,-241,61,46,24,-12
5415,7,-241,63,46,28,-13
5420,5,-239,60,47,30,-11
5425,5,-241,62,48,31,-12
5430,6,-239,64,53,33,-12
5435,2,-242,63,57,33,-11
5440,3,-241,62,60,34,-10
5445,3,-239,64,64,31,-11
5450,4,-238,60,63,29,-11
5455,11,-245,55,66,26,-10
5460,2,-238,62,66,25,-11
5465,4,-239,61,66,23,-13
5470,5,-240,61,66,21,-11
5475,1,-240,63,64,19,-13
5480,3,-244,64,65,18,-14
5485,3,-240,60,64,17,-12
5490,1,-236,61,64,16,-9
5495,3,-238,60,63,18,-9
5500,3,-238,63,63,19,-8
5505,4,-241,65,63,22,-9
5510,3,-244,69,63,25,-8
5515,5,-238,62,62,27,-8
5520,2,-239,64,62,27,-8
5525,1,-237,64,63,27,-8
5530,6,-241,63,61,27,-9
5535,6,-239,65,60,27,-7
5540,3,-238,66,57,23,-6
5545,5,-240,63,53,21,-4
5550,4,-238,63,48,17,-3
5555,5,-237,64,43,15,0
5560,5,-240,65,38,12,1
5565,8,-241,71,32,10,1
5570,2,-240,65,29,9,1
5575,7,-243,64,26,8,1
5580,3,-241,66,25,9,1
5585,7,-242,64,27,11,-2
5590,8,-242,64,32,12,-2
5595,6,-240,63,38,13,-4
5600,7,-241,61,45,16,-5
5605,5,-244,59,52,16,-6
5610,6,-241,58,57,17,-8
5615,8,-241,61,62,18,-9
5620,1,-245,60,65,17,-9
5625,7,-242,59,64,15,-11
5630,8,-239,59,65,14,-11
5635,5,-236,62,62,12,-12
5640,6,-238,63,60,12,-14
5645,4,-237,63,59,13,-15
5650,7,-238,63,58,12,-15
5655,4,-240,60,59,12,-14
5660,6,-241,60,59,14,-13
5665,1,-237,69,59,15,-15
5670,3,-242,60,56,18,-14
5675,5,-236,67,52,20,-13
5680,3,-238,63,47,19,-13
5685,5,-237,66,39,20,-13
5690,4,-240,64,31,20,-9
5695,2,-241,64,26,19,-8
5700,1,-239,62,20,16,-6
5705,5,-240,65,16,14,-6
5710,5,-241,63,13,13,-4
5715,3,-241,64,10,10,-1
5720,5,-240,64,9,7,-2
5725,6,-243,65,9,5,-3
5730,5,-241,64,10,2,-2
5735,4,-243,61,13,0,-2
5740,1,-240,65,18,0,-3
5745,4,-240,63,23,-1,-6
5750,5,-243,61,26,0,-6
5755,2,-242,62,31,1,-5
5760,4,-239,64,35,2,-6
5765,5,-241,61,39,4,-7
5770,5,-241,60,41,3,-7
5775,8,-241,60,41,5,-7
5780,3,-243,60,40,7,-5
5785,6,-238,64,40,7,-4
5790,5,-239,63,38,8,-4
5795,5,-237,61,36,8,-2
5800,3,-239,57,33,9,-3
5805,5,-238,62,30,9,-3
5810,4,-236,62,26,9,-2
5815,6,-239,63,23,9,-3
5820,5,-237,61,20,11,-3
5825,2,-238,63,16,10,-1
5830,5,-242,62,14,11,0
5835,2,-242,56,12,12,0
5840,4,-242,63,11,13,1
5845,5,-244,62,10,14,3
5850,4,-242,59,10,15,4
5855,6,-241,62,8,16,2
5860,6,-240,59,6,16,1
5865,3,-242,61,4,15,-1
5870,3,-242,60,2,13,-3
5875,3,-241,62,-1,10,-6
5880,5,-241,62,-3,7,-9
5885,5,-236,62,-4,6,-11
5890,0,-231,65,-4,5,-13
5895,0,-241,64,-5,4,-15
5900,2,-240,61,-6,5,-17
5905,1,-237,63,-8,4,-15
5910,2,-240,62,-7,5,-14
5915,5,-240,60,-8,5,-13
5920,5,-240,64,-6,5,-13
5925,4,-239,61,-5,4,-10
5930,3,-241,63,-5,3,-10
5935,5,-240,60,-6,4,-9
5940,2,-239,60,-6,4,-8
5945,3,-235,62,-3,5,-8
5950,4,-242,58,2,4,-7
5955,1,-242,63,7,4,-7
5960,4,-242,58,13,4,-7
5965,6,-243,61,17,5,-7
5970,6,-242,60,19,5,-7
5975,7,-240,55,18,5,-9
5980,3,-241,59,16,5,-11
5985,7,-240,61,13,3,-12
5990,5,-237,58,8,3,-13
5995,4,-237,58,5,3,-14
6000,5,-241,55,1,2,-15
6005,6,-240,59,-1,2,-15
6010,7,-239,63,-2,3,-13
6015,6,-240,58,0,5,-14
6020,6,-239,60,3,7,-15
6025,3,-240,59,5,7,-16
6030,5,-243,59,8,7,-16
6035,5,-242,62,13,7,-15
6040,3,-240,58,18,6,-14
6045,7,-240,58,22,5,-16
6050,5,-242,60,26,5,-16
6055,1,-245,69,30,4,-15
6060,6,-242,60,31,4,-14
6065,4,-244,57,31,4,-13
6070,3,-239,57,30,5,-10
6075,4,-240,56,29,6,-10
6080,4,-241,58,27,6,-10
6085,4,-241,62,28,6,-10
6090,2,-242,64,29,5,-11
6095,3,-240,59,29,5,-13
6100,6,-243,59,30,4,-14
6105,5,-242,57,30,5,-15
6110,3,-240,56,29,5,-16
6115,3,-240,57,29,4,-16
6120,6,-242,58,30,3,-17
6125,6,-242,59,29,3,-15
6130,5,-241,58,31,3,-14
6135,8,-245,57,34,2,-13
6140,4,-240,55,34,2,-11
6145,6,-239,53,36,1,-10
6150,6,-241,58,38,2,-8
6155,4,-242,60,40,2,-7
6160,5,-240,56,41,3,-7
6165,4,-240,60,46,2,-6
6170,3,-239,58,49,5,-7
6175,7,-242,60,53,6,-7
6180,7,-245,56,57,8,-5
6185,5,-244,57,60,9,-6
6190,5,-245,57,65,8,-5
6195,5,-241,55,66,9,-4
6200,6,-242,57,68,9,-3
6205,5,-241,57,69,10,-3
6210,7,-241,50,67,9,-5
6215,5,-238,57,62,8,-8
6220,5,-237,56,59,8,-12
6225,4,-238,59,54,7,-12
6230,5,-241,59,52,7,-12
6235,5,-241,59,53,8,-11
6240,4,-238,56,53,8,-11
6245,2,-238,62,54,8,-10
6250,4,-239,58,56,12,-9
6255,3,-243,59,59,13,-9
6260,4,-244,60,61,14,-8
6265,6,-247,60,63,13,-8
6270,2,-233,59,63,14,-9
6275,4,-241,58,64,14,-10
6280,5,-243,56,65,13,-10
6285,4,-240,60,66,13,-8
6290,5,-240,58,64,12,-7
6295,4,-244,58,63,11,-8
6300,6,-240,56,62,10,-9
6305,5,-241,56,62,9,-10
6310,4,-241,53,63,9,-10
6315,6,-242,56,64,10,-11
6320,5,-240,60,65,11,-11
6325,4,-240,59,67,12,-12
6330,6,-241,58,70,14,-12
6335,4,-242,57,72,16,-11
6340,5,-240,58,73,17,-12
6345,6,-242,59,73,19,-12
6350,6,-238,55,73,19,-11
6355,4,-242,58,71,21,-12
6360,5,-241,58,69,19,-10
6365,8,-240,62,67,19,-10
6370,7,-242,57,65,20,-11
6375,7,-240,59,63,18,-12
6380,8,-241,51,60,17,-14
6385,4,-242,59,59,16,-13
6390,3,-239,59,56,15,-13
6395,6,-243,57,53,15,-15
6400,3,-239,58,51,16,-14
6405,3,-242,56,46,16,-14
6410,2,-241,61,40,17,-13
6415,2,-242,56,32,18,-11
6420,4,-242,61,24,18,-8
6425,4,-245,57,15,18,-4
6430,9,-246,60,9,17,0
6435,6,-246,58,3,16,3
6440,4,-245,54,-3,14,7
6445,3,-248,56,-7,11,9
6450,4,-245,54,-11,9,10
6455,4,-247,56,-15,7,12
6460,4,-244,53,-17,5,11
6465,2,-244,55,-18,1,10
6470,2,-245,54,-20,-3,9
6475,1,-245,50,-29,-8,5
6480,1,-248,52,-44,-12,-1
6485,-2,-249,52,-67,-16,-12
6490,-1,-254,56,-95,-18,-28
6495,-7,-250,53,-117,-18,-46
6500,-5,-247,52,-131,-12,-58
6505,-6,-242,50,-130,0,-64
6510,0,-241,45,-118,21,-55
6515,-1,-241,42,-108,40,-40
6520,-7,-241,49,-113,51,-30
6525,-11,-241,52,-137,53,-23
6530,-4,-237,54,-160,51,-18
6535,-1,-243,47,-168,53,-12
6540,0,-243,43,-159,60,2
6545,0,-244,50,-143,62,13
6550,2,-246,50,-135,60,21
6555,1,-245,51,-136,48,21
6560,0,-246,49,-144,34,19
6565,2,-242,53,-145,27,21
6570,3,-242,50,-143,22,25
6575,3,-241,49,-142,18,32
6580,4,-239,57,-136,17,40
6585,7,-241,57,-129,18,50
6590,13,-241,57,-123,19,54
6595,11,-240,56,-118,23,57
6600,14,-238,62,-109,27,57
6605,14,-234,60,-105,33,59
6610,13,-229,61,-107,38,63
6615,13,-229,61,-114,44,69
6620,12,-231,61,-125,46,74
6625,12,-230,64,-134,47,78
6630,11,-233,62,-137,46,81
6635,8,-229,63,-139,41,79
6640,10,-232,62,-140,38,77
6645,13,-230,64,-146,36,70
6650,15,-231,66,-158,34,64
6655,13,-229,62,-174,35,59
6660,18,-229,61,-191,35,53
6665,11,-226,60,-207,37,45
6670,19,-226,62,-218,38,42
6675,18,-225,60,-229,37,39
6680,16,-220,64,-237,36,36
6685,16,-226,62,-243,35,32
6690,13,-225,63,-243,31,29
6695,8,-226,65,-240,27,25
6700,12,-227,61,-240,25,22
6705,7,-233,56,-237,24,18
6710,3,-230,62,-236,27,17
6715,-2,-234,60,-240,34,20
6720,-2,-236,52,-247,42,25
6725,-3,-241,50,-263,50,32
6730,3,-241,47,-287,62,42
6735,1,-242,50,-317,73,51
6740,-3,-244,44,-355,80,63
6745,0,-246,41,-398,86,78
6750,2,-251,43,-441,90,88
6755,0,-250,43,-485,90,103
6760,0,-253,44,-523,85,120
6765,3,-253,44,-549,77,128
6770,4,-256,44,-566,67,133
6775,3,-254,42,-572,54,138
6780,4,-255,41,-571,43,139
6785,6,-254,34,-569,35,143
6790,11,-252,36,-569,29,147
6795,4,-252,30,-576,26,149
6800,6,-250,24,-592,22,154
6805,7,-248,25,-614,18,161
6810,3,-240,23,-639,13,163
6815,2,-242,24,-662,9,169
6820,1,-244,23,-680,6,172
6825,0,-241,29,-696,3,175
6830,1,-243,29,-710,-1,178
6835,-1,-243,32,-723,-8,183
6840,3,-243,30,-734,-10,182
6845,5,-246,31,-736,-14,183
6850,7,-242,36,-725,-15,179
6855,18,-249,29,-703,-9,173
6860,12,-248,28,-670,3,160
6865,13,-246,24,-627,21,143
6870,10,-246,23,-584,47,123
6875,2,-241,21,-545,80,103
6880,2,-239,12,-514,115,89
6885,-1,-239,9,-497,147,79
6890,-3,-240,8,-495,172,82
6895,-7,-243,5,-502,190,86
6900,-9,-237,0,-515,195,100
6905,-10,-235,3,-534,189,124
6910,-9,-229,2,-560,173,147
6915,-11,-230,4,-592,147,171
6920,-13,-229,3,-625,118,193
6925,-9,-238,3,-656,85,209
6930,-3,-240,5,-684,55,218
6935,-2,-243,11,-703,29,220
6940,0,-250,6,-715,8,212
6945,0,-254,9,-715,-4,201
6950,4,-255,7,-703,-1,192
6955,1,-258,7,-685,15,193
6960,2,-255,5,-667,38,194
6965,1,-256,1,-654,65,200
6970,1,-254,6,-645,90,205
6975,0,-254,6,-632,109,205
6980,0,-254,5,-612,124,208
6985,0,-255,12,-586,133,213
6990,-2,-253,9,-556,139,216
6995,-1,-254,9,-531,139,213
7000,-1,-254,11,-515,139,211
7005,-3,-251,13,-507,140,212
7010,-5,-250,13,-511,146,209
7015,-5,-253,14,-518,156,205
7020,-5,-255,18,-525,170,199
7025,-5,-254,8,-535,190,191
7030,-8,-250,18,-546,206,187
7035,-11,-255,15,-551,218,181
7040,-16,-252,20,-546,229,181
7045,-18,-253,18,-523,241,181
7050,-19,-251,19,-494,257,182
7055,-16,-248,18,-462,281,173
7060,-19,-247,11,-432,313,166
7065,-14,-248,9,-413,350,156
7070,-15,-244,2,-401,395,141
7075,-8,-250,2,-392,444,122
7080,-16,-252,0,-389,495,97
7085,-15,-256,-6,-394,543,64
7090,-19,-259,-4,-401,589,28
7095,-20,-258,-9,-403,630,-9
7100,-22,-258,-17,-400,669,-30
7105,-23,-257,-20,-395,706,-38
7110,-21,-258,-24,-395,736,-42
7115,-19,-259,-27,-405,753,-47
7120,-25,-256,-28,-416,752,-51
7125,-29,-260,-35,-422,740,-55
7130,-39,-259,-36,-432,723,-61
7135,-36,-263,-40,-445,703,-77
7140,-49,-257,-42,-462,681,-95
7145,-50,-261,-37,-472,654,-110
7150,-46,-262,-39,-475,630,-118
7155,-43,-265,-44,-474,605,-117
7160,-36,-265,-40,-468,581,-102
7165,-31,-262,-44,-461,552,-74
7170,-35,-262,-43,-457,522,-46
7175,-22,-271,-47,-464,492,-28
7180,-18,-277,-42,-475,468,-20
7185,-13,-286,-42,-475,456,-27
7190,-6,-292,-41,-469,461,-43
7195,-5,-291,-42,-448,475,-63
7200,-5,-292,-39,-420,492,-76
7205,-11,-286,-40,-393,500,-79
7210,-16,-285,-44,-383,500,-72
7215,-25,-280,-42,-396,493,-61
7220,-31,-277,-42,-428,483,-54
7225,-35,-278,-43,-461,471,-48
7230,-41,-281,-47,-485,455,-45
7235,-39,-279,-49,-491,436,-41
7240,-41,-279,-58,-489,416,-33
7245,-38,-283,-56,-484,394,-14
7250,-33,-286,-58,-482,370,10
7255,-35,-282,-64,-480,349,33
7260,-34,-285,-70,-483,338,52
7265,-25,-282,-76,-495,333,63
7270,-26,-280,-82,-514,334,79
7275,-25,-281,-87,-539,337,90
7280,-24,-281,-97,-567,338,97
7285,-18,-281,-100,-596,339,101
7290,-17,-279,-97,-622,334,102
7295,-20,-278,-99,-645,326,99
7300,-16,-277,-101,-670,318,93
7305,-11,-278,-104,-691,311,87
7310,-16,-271,-106,-710,305,80
7315,-14,-270,-105,-730,304,77
7320,-9,-264,-108,-754,310,77
7325,-9,-266,-110,-774,320,82
7330,-2,-267,-108,-792,336,86
7335,-5,-261,-109,-810,353,88
7340,-8,-262,-113,-829,370,83
7345,-3,-263,-105,-846,385,74
7350,-3,-261,-113,-859,393,57
7355,-10,-262,-115,-863,401,40
7360,-5,-266,-110,-866,402,25
7365,-7,-266,-108,-862,397,10
7370,-6,-263,-110,-850,388,-2
7375,-6,-259,-114,-834,376,-7
7380,-5,-258,-114,-819,364,-8
7385,-6,-252,-112,-804,351,-11
7390,-2,-249,-115,-793,340,-15
7395,-1,-249,-119,-784,329,-18
7400,2,-249,-124,-779,321,-23
7405,1,-244,-121,-777,313,-26
7410,3,-246,-119,-778,306,-28
7415,2,-245,-118,-782,300,-27
7420,2,-240,-119,-786,292,-27
7425,0,-242,-119,-793,282,-30
7430,-2,-239,-117,-798,271,-35
7435,-4,-236,-115,-803,256,-40
7440,-6,-237,-119,-802,241,-43
7445,-1,-234,-115,-794,225,-46
7450,2,-235,-119,-782,210,-47
7455,0,-238,-110,-770,196,-49
7460,0,-233,-115,-760,181,-51
7465,0,-234,-115,-753,167,-52
7470,0,-234,-118,-746,151,-49
7475,0,-232,-121,-745,138,-47
7480,0,-233,-126,-746,123,-50
7485,0,-229,-125,-747,107,-54
7490,-1,-230,-121,-750,91,-62
7495,-1,-228,-125,-755,76,-73
7500,-1,-224,-123,-759,60,-87
7505,-1,-220,-122,-763,43,-93
7510,-1,-220,-125,-763,31,-95
7515,1,-223,-121,-761,19,-94
7520,0,-224,-125,-759,7,-90
7525,2,-224,-122,-752,-7,-85
7530,2,-224,-122,-742,-22,-80
7535,1,-217,-123,-732,-35,-78
7540,3,-221,-124,-722,-48,-79
7545,6,-218,-127,-713,-56,-86
7550,5,-212,-125,-705,-62,-95
7555,7,-213,-123,-699,-68,-99
7560,5,-209,-125,-697,-75,-96
7565,5,-211,-128,-697,-84,-94
7570,4,-202,-125,-698,-93,-92
7575,5,-208,-124,-704,-103,-93
7580,1,-208,-125,-712,-114,-92
7585,0,-216,-126,-720,-127,-93
7590,1,-215,-124,-722,-140,-94
7595,1,-216,-122,-717,-151,-94
7600,0,-218,-122,-707,-157,-91
7605,4,-217,-116,-691,-163,-82
7610,3,-218,-119,-673,-169,-72
7615,5,-219,-115,-649,-172,-59
7620,4,-208,-126,-624,-174,-50
7625,5,-211,-124,-596,-170,-43
7630,4,-207,-127,-571,-166,-38
7635,5,-208,-126,-550,-164,-36
7640,2,-200,-131,-534,-163,-38
7645,3,-201,-129,-523,-164,-43
7650,2,-199,-132,-515,-166,-49
7655,1,-202,-130,-508,-168,-57
7660,0,-200,-137,-502,-170,-63
7665,-1,-198,-132,-500,-172,-71
7670,1,-204,-138,-501,-173,-74
7675,0,-199,-131,-504,-171,-73
7680,1,-204,-130,-509,-169,-73
7685,2,-205,-129,-514,-165,-66
7690,-1,-203,-131,-513,-165,-64
7695,-1,-201,-131,-511,-168,-60
7700,-4,-198,-136,-510,-171,-58
7705,-6,-196,-136,-509,-175,-59
7710,-2,-194,-135,-510,-178,-57
7715,-6,-195,-141,-511,-180,-56
7720,-6,-195,-136,-511,-182,-52
7725,-4,-196,-133,-512,-182,-46
7730,-5,-194,-140,-513,-179,-43
7735,-3,-193,-142,-518,-176,-37
7740,-2,-193,-142,-524,-174,-31
7745,-5,-194,-140,-529,-173,-27
7750,-4,-193,-144,-533,-171,-25
7755,-5,-192,-144,-537,-174,-24
7760,-12,-192,-138,-538,-176,-24
7765,-5,-190,-141,-534,-179,-27
7770,-7,-190,-141,-527,-181,-29
7775,-13,-191,-146,-518,-183,-33
7780,-12,-191,-146,-508,-182,-37
7785,-10,-187,-149,-497,-180,-43
7790,-12,-187,-150,-488,-181,-45
7795,-14,-183,-147,-482,-180,-47
7800,-11,-184,-147,-476,-181,-49
7805,-12,-184,-158,-472,-180,-47
7810,-11,-183,-152,-467,-181,-43
7815,-16,-175,-160,-463,-183,-40
7820,-14,-179,-157,-459,-186,-38
7825,-11,-181,-158,-459,-189,-36
7830,-13,-179,-159,-457,-193,-33
7835,-8,-180,-166,-455,-197,-29
7840,-10,-183,-163,-451,-199,-28
7845,-8,-179,-163,-446,-201,-28
7850,-8,-182,-162,-439,-202,-28
7855,-11,-179,-165,-430,-205,-32
7860,-11,-180,-162,-420,-208,-38
7865,-10,-178,-160,-405,-211,-46
7870,-14,-174,-160,-389,-211,-51
7875,-12,-173,-161,-373,-208,-55
7880,-13,-170,-158,-354,-202,-53
7885,-13,-174,-161,-337,-193,-52
7890,-15,-173,-163,-319,-183,-49
7895,-15,-167,-162,-301,-174,-47
7900,-11,-170,-161,-283,-166,-44
7905,-11,-169,-158,-267,-157,-45
7910,-15,-175,-159,-251,-152,-47
7915,-12,-169,-157,-239,-149,-50
7920,-15,-169,-160,-227,-147,-53
7925,-14,-168,-160,-215,-146,-54
7930,-17,-168,-162,-209,-143,-51
7935,-13,-169,-161,-206,-142,-52
7940,-15,-168,-160,-203,-141,-50
7945,-16,-166,-161,-200,-137,-48
7950,-16,-171,-161,-194,-133,-46
7955,-11,-171,-160,-185,-134,-46
7960,-15,-170,-162,-174,-134,-44
7965,-12,-171,-164,-161,-133,-43
7970,-13,-173,-161,-146,-131,-43
7975,-14,-175,-167,-132,-127,-39
7980,-15,-177,-167,-120,-122,-38
7985,-13,-177,-164,-108,-114,-37
7990,-13,-177,-164,-98,-106,-41
7995,-15,-176,-159,-88,-98,-46
8000,-10,-176,-169,-77,-90,-49
8005,-17,-176,-163,-67,-85,-51
8010,-17,-177,-163,-57,-84,-56
8015,-16,-176,-172,-45,-85,-57
8020,-17,-174,-168,-28,-89,-58
8025,-15,-177,-170,-10,-95,-57
8030,-15,-174,-166,2,-102,-54
8035,-17,-173,-167,17,-111,-52
8040,-18,-173,-170,27,-117,-46
8045,-17,-170,-168,31,-123,-41
8050,-16,-170,-168,32,-128,-33
8055,-9,-172,-171,29,-129,-28
8060,-15,-166,-169,24,-127,-24
8065,-20,-164,-169,21,-126,-19
8070,-18,-164,-170,15,-120,-17
8075,-17,-165,-168,12,-114,-19
8080,-14,-165,-169,7,-107,-20
8085,-21,-162,-169,6,-99,-22
8090,-20,-160,-169,5,-90,-24
8095,-20,-165,-168,5,-82,-27
8100,-20,-168,-169,3,-73,-30
8105,-17,-168,-163,4,-64,-28
8110,-16,-174,-164,3,-53,-26
8115,-19,-171,-166,0,-43,-24
8120,-16,-172,-169,1,-38,-19
8125,-15,-174,-164,2,-33,-17
8130,-14,-178,-163,4,-29,-11
8135,-16,-176,-167,7,-28,-10
8140,-17,-178,-163,13,-28,-5
8145,-19,-175,-168,21,-29,-3
8150,-17,-175,-167,29,-31,-1
8155,-19,-173,-170,36,-31,1
8160,-18,-177,-170,41,-30,1
8165,-22,-173,-168,48,-30,3
8170,-20,-176,-170,57,-30,6
8175,-21,-175,-167,67,-32,5
8180,-23,-176,-172,78,-33,5
8185,-21,-177,-172,93,-36,8
8190,-17,-179,-172,111,-38,8
8195,-20,-178,-171,129,-39,8
8200,-19,-181,-168,144,-40,9
8205,-17,-177,-171,156,-41,11
8210,-22,-179,-173,163,-45,13
8215,-24,-179,-172,170,-46,16
8220,-24,-176,-167,176,-45,19
8225,-22,-172,-170,179,-45,22
8230,-18,-174,-171,180,-43,24
8235,-20,-172,-171,180,-43,24
8240,-22,-171,-166,179,-41,26
8245,-22,-174,-167,179,-39,24
8250,-20,-171,-166,185,-38,27
8255,-18,-174,-163,188,-39,28
8260,-17,-174,-166,193,-38,29
8265,-20,-171,-168,195,-35,30
8270,-25,-171,-164,195,-33,28
8275,-20,-170,-167,199,-28,29
8280,-19,-173,-170,200,-24,30
8285,-18,-174,-169,197,-21,28
8290,-20,-173,-167,198,-18,29
8295,-20,-169,-167,199,-15,29
8300,-17,-167,-164,201,-14,32
8305,-21,-171,-168,204,-14,33
8310,-20,-173,-168,204,-14,36
8315,-18,-171,-166,204,-16,35
8320,-23,-169,-169,205,-19,34
8325,-25,-173,-171,204,-22,29
8330,-20,-172,-163,205,-24,26
8335,-24,-171,-166,203,-25,25
8340,-20,-177,-166,202,-24,22
8345,-24,-173,-166,198,-20,20
8350,-21,-173,-168,196,-19,20
8355,-18,-175,-165,198,-16,21
8360,-21,-175,-163,200,-13,23
8365,-19,-175,-162,205,-12,24
8370,-20,-176,-166,207,-9,27
8375,-20,-176,-161,211,-9,27
8380,-21,-173,-163,216,-9,26
8385,-22,-175,-167,221,-9,25
8390,-18,-178,-165,223,-9,22
8395,-20,-179,-165,227,-10,19
8400,-20,-179,-161,230,-8,17
8405,-19,-181,-164,234,-3,14
8410,-19,-181,-165,241,1,11
8415,-19,-186,-157,246,4,10
8420,-19,-182,-164,251,10,10
8425,-15,-184,-166,251,16,8
8430,-17,-183,-161,252,20,8
8435,-22,-175,-162,253,22,8
8440,-17,-179,-160,256,22,10
8445,-18,-178,-159,258,21,10
8450,-20,-182,-157,261,19,10
8455,-22,-182,-160,266,16,10
8460,-17,-180,-164,266,9,8
8465,-18,-180,-157,264,8,10
8470,-19,-180,-155,264,6,7
8475,-22,-182,-161,265,3,2
8480,-21,-179,-157,268,-2,0
8485,-19,-180,-160,272,-3,-3
8490,-23,-181,-152,275,-5,-6
8495,-25,-183,-162,280,-9,-7
8500,-22,-185,-159,284,-12,-8
8505,-20,-187,-158,294,-12,-8
8510,-25,-187,-159,304,-11,-7
8515,-24,-187,-154,313,-13,-6
8520,-21,-188,-152,319,-13,-4
8525,-22,-192,-154,322,-14,-6
8530,-20,-193,-154,325,-13,-6
8535,-20,-189,-154,326,-14,-7
8540,-17,-188,-158,331,-15,-10
8545,-19,-189,-158,335,-15,-13
8550,-21,-190,-153,339,-16,-16
8555,-18,-190,-154,344,-17,-19
8560,-21,-188,-153,350,-16,-23
8565,-23,-190,-157,356,-17,-25
8570,-21,-191,-154,362,-17,-27
8575,-24,-191,-151,370,-22,-28
8580,-26,-190,-152,377,-26,-31
8585,-20,-196,-154,382,-31,-35
8590,-22,-190,-152,389,-35,-40
8595,-23,-188,-156,393,-39,-40
8600,-25,-199,-152,395,-41,-45
8605,-22,-191,-155,398,-44,-46
8610,-22,-191,-150,401,-45,-48
8615,-20,-194,-145,402,-46,-51
8620,-19,-195,-148,405,-45,-53
8625,-24,-193,-146,407,-47,-56
8630,-23,-198,-150,410,-51,-59
8635,-24,-195,-151,414,-53,-58
8640,-21,-195,-151,418,-55,-57
8645,-22,-199,-151,420,-58,-56
8650,-23,-197,-158,426,-62,-56
8655,-25,-195,-154,434,-67,-55
8660,-25,-197,-157,443,-72,-56
8665,-26,-194,-156,450,-77,-56
8670,-24,-195,-156,454,-81,-53
8675,-24,-196,-154,456,-80,-55
8680,-23,-197,-154,454,-78,-56
8685,-21,-198,-150,452,-75,-54
8690,-25,-196,-147,447,-70,-54
8695,-17,-203,-148,441,-70,-56
8700,-17,-201,-142,432,-67,-58
8705,-17,-196,-143,424,-65,-59
8710,-17,-198,-143,421,-60,-60
8715,-21,-195,-144,420,-56,-59
8720,-18,-201,-145,422,-55,-57
8725,-17,-199,-144,425,-54,-55
8730,-19,-197,-142,431,-53,-56
8735,-22,-202,-140,438,-51,-56
8740,-19,-202,-142,447,-50,-58
8745,-20,-201,-143,455,-48,-61
8750,-23,-202,-140,465,-43,-62
8755,-22,-200,-145,472,-42,-65
8760,-19,-202,-142,479,-43,-62
8765,-17,-202,-133,488,-44,-60
8770,-19,-204,-139,493,-43,-57
8775,-21,-206,-135,497,-41,-58
8780,-25,-204,-139,497,-38,-56
8785,-26,-205,-137,497,-37,-53
8790,-23,-206,-134,495,-39,-49
8795,-18,-212,-141,495,-39,-49
8800,-19,-211,-133,498,-34,-49
8805,-24,-209,-133,501,-32,-48
8810,-25,-209,-133,504,-31,-45
8815,-24,-212,-136,505,-29,-44
8820,-22,-212,-135,511,-26,-43
8825,-27,-215,-132,516,-22,-44
8830,-24,-213,-130,522,-19,-42
8835,-24,-211,-133,530,-17,-43
8840,-25,-213,-136,538,-13,-43
8845,-22,-214,-128,549,-8,-46
8850,-26,-215,-133,556,-2,-46
8855,-21,-212,-129,561,9,-45
8860,-22,-215,-130,562,18,-47
8865,-18,-216,-128,565,28,-46
8870,-26,-213,-135,566,35,-42
8875,-23,-212,-123,568,37,-39
8880,-16,-211,-128,569,40,-38
8885,-19,-209,-125,570,42,-36
8890,-18,-212,-126,568,46,-35
8895,-17,-212,-121,566,49,-37
8900,-22,-212,-120,562,57,-42
8905,-17,-213,-120,561,64,-49
8910,-15,-212,-119,563,66,-50
8915,-22,-213,-123,564,69,-49
8920,-22,-206,-126,564,67,-51
8925,-23,-208,-125,565,67,-49
8930,-24,-208,-125,567,67,-47
8935,-20,-208,-123,568,67,-46
8940,-22,-202,-123,568,65,-42
8945,-24,-208,-119,569,70,-40
8950,-24,-206,-115,566,70,-39
8955,-17,-208,-110,555,76,-29
8960,-21,-211,-114,545,86,-20
8965,-21,-206,-117,544,87,-34
8970,-19,-211,-115,544,92,-40
8975,-15,-212,-115,542,99,-43
8980,-15,-206,-113,539,108,-46
8985,-19,-208,-117,538,116,-47
8990,-18,-209,-116,534,124,-48
8995,-17,-211,-117,534,128,-46
9000,-16,-210,-116,533,129,-44
9005,-17,-208,-112,532,127,-44
9010,-17,-210,-111,529,123,-40
9015,-20,-213,-108,526,117,-38
9020,-23,-214,-108,525,111,-37
9025,-20,-217,-108,525,103,-36
9030,-23,-211,-108,521,96,-35
9035,-25,-213,-99,517,88,-32
9040,-26,-211,-106,513,84,-29
9045,-24,-213,-104,508,84,-26
9050,-25,-213,-106,507,85,-26
9055,-23,-213,-110,502,86,-22
9060,-24,-212,-107,496,90,-22
9065,-25,-211,-104,490,96,-22
9070,-23,-213,-103,487,101,-22
9075,-21,-213,-100,488,104,-21
9080,-23,-215,-101,491,106,-20
9085,-19,-217,-101,497,109,-23
9090,-24,-217,-102,502,109,-27
9095,-17,-217,-97,503,109,-27
9100,-15,-219,-99,517,120,-31
9105,-17,-219,-101,520,121,-35
9110,-15,-216,-103,511,120,-36
9115,-15,-217,-102,493,116,-36
9120,-16,-215,-102,475,116,-37
9125,-16,-222,-104,465,121,-37
9130,-14,-218,-97,450,125,-35
9135,-15,-219,-96,437,123,-34
9140,-16,-224,-96,430,119,-32
9145,-13,-224,-99,430,115,-33
9150,-14,-225,-94,432,113,-33
9155,-14,-225,-94,439,111,-35
9160,-15,-229,-92,446,110,-35
9165,-18,-228,-92,454,109,-37
9170,-17,-224,-93,458,109,-38
9175,-23,-225,-92,459,110,-37
9180,-21,-226,-86,462,109,-35
9185,-21,-225,-91,467,105,-35
9190,-18,-226,-90,467,102,-35
9195,-22,-226,-91,464,100,-39
9200,-21,-228,-83,464,100,-45
9205,-23,-227,-85,466,99,-50
9210,-20,-227,-82,469,100,-52
9215,-20,-226,-87,471,98,-57
9220,-17,-228,-92,468,98,-60
9225,-17,-230,-87,467,96,-65
9230,-15,-227,-90,462,95,-66
9235,-19,-224,-85,457,95,-68
9240,-16,-224,-91,449,92,-69
9245,-18,-224,-91,441,90,-66
9250,-18,-225,-89,434,89,-65
9255,-17,-225,-81,426,82,-65
9260,-17,-226,-85,421,76,-63
9265,-18,-225,-82,412,67,-65
9270,-15,-224,-81,407,58,-67
9275,-15,-225,-81,400,55,-64
9280,-18,-224,-79,389,53,-65
9285,-15,-225,-82,380,51,-66
9290,-21,-225,-79,372,51,-69
9295,-15,-227,-79,365,49,-70
9300,-18,-225,-77,364,47,-71
9305,-21,-230,-79,363,45,-74
9310,-7,-231,-76,361,44,-74
9315,-19,-228,-77,348,58,-57
9320,-19,-227,-73,351,45,-75
9325,-14,-229,-73,360,33,-81
9330,-11,-226,-74,371,30,-86
9335,-12,-228,-75,372,31,-89
9340,-16,-233,-68,367,33,-91
9345,-18,-227,-72,359,29,-92
9350,-12,-235,-68,353,23,-95
9355,-14,-231,-71,345,16,-96
9360,-9,-236,-72,340,15,-97
9365,-11,-236,-72,335,17,-102
9370,-8,-237,-66,327,21,-105
9375,-13,-234,-68,323,25,-104
9380,-13,-239,-70,318,27,-106
9385,-10,-238,-67,310,31,-107
9390,-9,-238,-68,307,36,-107
9395,-12,-238,-68,303,40,-109
9400,-7,-241,-69,304,43,-111
9405,-12,-236,-71,309,45,-113
9410,-6,-240,-69,308,47,-114
9415,-4,-235,-69,300,49,-114
9420,-11,-236,-66,295,51,-113
9425,-10,-238,-66,296,52,-110
9430,-10,-238,-64,295,55,-110
9435,-9,-239,-62,294,56,-108
9440,-9,-242,-64,294,56,-104
9445,-8,-237,-65,297,54,-102
9450,-6,-239,-63,299,55,-100
9455,-7,-235,-68,301,54,-101
9460,-9,-237,-63,299,55,-100
9465,-6,-238,-65,297,52,-97
9470,-8,-234,-62,298,50,-96
9475,-8,-237,-62,301,47,-95
9480,-10,-235,-60,302,44,-94
9485,-12,-236,-59,308,41,-92
9490,-9,-238,-59,316,35,-86
9495,-11,-236,-61,318,31,-83
9500,-12,-236,-62,316,26,-83
9505,-12,-240,-61,315,24,-81
9510,-9,-238,-59,314,26,-79
9515,-16,-234,-64,308,30,-79
9520,-10,-240,-62,300,31,-76
9525,-13,-238,-65,300,32,-75
9530,-9,-240,-60,304,31,-75
9535,-11,-240,-58,307,31,-77
9540,-7,-237,-54,307,31,-75
9545,-9,-238,-59,308,31,-74
9550,-8,-238,-58,307,34,-74
9555,-6,-238,-59,309,36,-73
9560,-5,-241,-60,307,36,-72
9565,-5,-243,-58,307,34,-72
9570,-8,-238,-54,306,30,-68
9575,-5,-242,-52,306,26,-68
9580,-7,-241,-58,309,23,-66
9585,-5,-236,-56,310,22,-64
9590,-1,-242,-52,312,20,-62
9595,-1,-242,-55,313,19,-60
9600,-3,-239,-54,310,19,-59
9605,-4,-242,-58,304,18,-57
9610,-3,-241,-51,299,17,-54
9615,-4,-237,-59,293,17,-52
9620,0,-242,-52,284,20,-53
9625,-5,-243,-52,278,24,-51
9630,-4,-242,-50,282,26,-48
9635,-4,-245,-52,285,29,-46
9640,1,-243,-50,288,32,-44
9645,1,-241,-52,295,36,-43
9650,0,-244,-55,302,41,-44
9655,1,-243,-56,303,46,-41
9660,0,-244,-52,299,49,-42
9665,-2,-241,-54,293,50,-44
9670,-4,-241,-49,287,51,-44
9675,-1,-243,-55,279,53,-42
9680,-1,-242,-55,275,54,-42
9685,-3,-242,-55,268,58,-44
9690,2,-245,-51,259,60,-43
9695,-1,-244,-51,260,62,-41
9700,0,-244,-51,262,63,-41
9705,0,-240,-53,258,67,-39
9710,-2,-239,-50,258,68,-38
9715,0,-238,-54,258,68,-38
9720,0,-240,-49,256,70,-38
9725,0,-237,-47,247,70,-37
9730,0,-239,-54,240,70,-38
9735,0,-236,-50,231,69,-37
9740,-2,-233,-48,226,68,-36
9745,0,-238,-50,225,67,-36
9750,1,-241,-51,226,67,-35
9755,0,-240,-48,228,66,-35
9760,0,-238,-48,226,65,-36
9765,-1,-238,-47,221,64,-36
9770,-1,-236,-49,216,63,-36
9775,0,-236,-43,210,62,-36
9780,-3,-240,-47,210,57,-32
9785,-4,-241,-48,208,55,-32
9790,0,-238,-46,208,52,-32
9795,2,-237,-53,201,50,-31
9800,0,-240,-48,193,48,-32
9805,-2,-240,-43,186,46,-32
9810,-4,-243,-54,182,45,-33
9815,0,-241,-51,172,42,-35
9820,-2,-245,-48,168,40,-37
9825,-1,-241,-51,168,39,-37
9830,-5,-238,-50,170,38,-39
9835,-7,-243,-49,170,39,-37
9840,-1,-243,-46,165,36,-32
9845,-3,-245,-49,163,30,-28
9850,-5,-241,-50,159,28,-29
9855,-4,-241,-47,150,26,-27
9860,-4,-241,-43,150,25,-25
9865,-6,-242,-47,154,24,-23
9870,-1,-240,-47,151,24,-20
9875,0,-241,-47,147,23,-18
9880,-8,-240,-42,141,19,-16
9885,-6,-240,-47,134,16,-15
9890,-9,-243,-48,125,11,-15
9895,-4,-242,-46,115,7,-12
9900,-2,-246,-43,108,5,-13
9905,-6,-244,-49,106,5,-14
9910,-2,-242,-48,103,7,-13
9915,-5,-241,-47,102,8,-13
9920,-4,-240,-43,99,8,-11
9925,-4,-241,-44,98,10,-13
9930,-5,-242,-42,98,10,-10
9935,-3,-245,-48,96,8,-8
9940,-5,-244,-46,94,6,-6
9945,0,-241,-46,91,3,-7
9950,-4,-244,-42,91,4,-8
9955,-6,-243,-49,94,4,-7
9960,-1,-243,-39,99,2,-7
9965,-6,-245,-47,102,1,-8
9970,-2,-243,-45,99,1,-6
9975,-3,-242,-46,99,2,-5
9980,0,-242,-45,103,3,-5
9985,0,-243,-44,101,4,-3
9990,0,-241,-43,98,5,-2
9995,-3,-245,-45,95,5,-2
10000,1,-243,-41,87,5,-4
10005,1,-245,-40,82,6,-4
10010,2,-245,-43,75,10,-5
10015,1,-249,-48,69,14,-7
10020,0,-245,-43,63,20,-9
10025,1,-246,-43,65,22,-7
10030,-2,-243,-38,65,24,-9
10035,-1,-246,-44,64,26,-9
10040,0,-244,-37,61,27,-11
10045,1,-243,-45,56,29,-12
10050,1,-246,-39,52,28,-11
10055,2,-246,-43,47,27,-11
10060,-3,-246,-40,44,25,-12
10065,-4,-243,-45,41,23,-9
10070,0,-243,-41,38,21,-10
10075,-1,-246,-39,35,20,-10
10080,0,-243,-37,32,19,-8
10085,0,-246,-38,28,18,-7
10090,0,-246,-37,24,17,-9
10095,0,-247,-40,24,19,-8
10100,-1,-249,-41,23,20,-9
10105,0,-246,-39,24,21,-10
10110,1,-250,-39,26,25,-10
10115,-1,-245,-45,26,25,-7
10120,2,-244,-40,28,29,-9
10125,0,-245,-39,27,30,-9
10130,0,-244,-41,27,30,-9
10135,-3,-244,-37,26,31,-11
10140,-4,-247,-39,28,28,-10
10145,-3,-246,-39,27,26,-11
10150,-4,-248,-40,25,24,-13
10155,-5,-247,-38,24,22,-12
10160,-6,-245,-42,23,22,-12
10165,-3,-246,-38,24,21,-14
10170,-3,-244,-41,27,20,-13
10175,2,-241,-42,29,19,-13
10180,-7,-243,-41,31,17,-13
10185,-4,-244,-36,32,14,-12
10190,-5,-247,-37,31,9,-12
10195,-2,-246,-43,26,8,-11
10200,-3,-247,-35,21,7,-13
10205,-4,-244,-42,17,4,-14
10210,-4,-247,-41,14,-2,-16
10215,-1,-245,-40,11,-3,-17
10220,-1,-244,-45,12,-4,-18
10225,-3,-249,-38,12,-4,-17
10230,-2,-249,-40,14,-3,-17
10235,0,-248,-39,16,-4,-16
10240,-2,-246,-37,18,-4,-17
10245,-1,-249,-37,21,-5,-15
10250,-2,-248,-41,24,-6,-15
10255,-1,-247,-33,28,-6,-14
10260,0,-242,-36,30,-6,-16
10265,-4,-248,-39,32,-6,-16
10270,0,-247,-42,34,-5,-15
10275,-5,-247,-40,31,-3,-15
10280,-2,-246,-40,27,-1,-17
10285,-4,-245,-41,34,0,-14
10290,1,-246,-44,40,2,-15
10295,-4,-245,-42,41,3,-15
10300,0,-246,-39,42,2,-17
10305,-2,-247,-40,39,4,-17
10310,-2,-243,-40,41,6,-18
10315,-2,-247,-42,42,6,-18
10320,-3,-244,-41,42,8,-18
10325,-2,-249,-40,43,9,-17
10330,-1,-248,-33,42,9,-18
10335,-4,-247,-45,42,11,-17
10340,-1,-246,-38,45,12,-15
10345,-2,-246,-38,47,12,-14
10350,-5,-245,-36,50,13,-14
10355,0,-248,-36,53,13,-14
10360,-1,-245,-35,56,12,-14
10365,-1,-248,-38,56,10,-12
10370,-4,-245,-40,57,10,-13
10375,-3,-246,-40,57,9,-13
10380,-3,-246,-42,56,11,-14
10385,-3,-244,-38,58,10,-14
10390,-7,-252,-43,58,12,-14
10395,-2,-245,-39,58,14,-13
10400,-4,-243,-39,57,14,-12
10405,-6,-244,-41,58,14,-13
10410,-3,-246,-37,58,15,-14
10415,-2,-245,-43,58,16,-13
10420,-5,-244,-42,57,15,-12
10425,-4,-247,-40,56,16,-12
10430,-5,-245,-40,55,15,-11
10435,-4,-247,-42,53,15,-11
10440,-4,-244,-38,52,14,-11
10445,-2,-246,-40,52,13,-13
10450,-1,-247,-36,53,13,-13
10455,-6,-244,-38,54,12,-12
10460,-2,-248,-38,56,13,-11
10465,-2,-248,-39,57,14,-11
10470,0,-245,-40,59,15,-12
10475,-2,-243,-34,57,15,-11
10480,1,-244,-42,55,17,-13
10485,-3,-243,-37,55,16,-12
10490,-5,-244,-38,55,15,-12
10495,-4,-250,-42,53,15,-12
10500,-7,-247,-36,50,13,-13
10505,-2,-245,-36,49,11,-12
10510,-7,-247,-39,47,11,-12
10515,-6,-245,-38,47,13,-12
10520,-4,-244,-37,47,14,-13
10525,-6,-242,-39,45,14,-10
10530,-4,-242,-40,43,14,-12
10535,-3,-243,-36,41,14,-12
10540,-1,-246,-35,41,13,-10
10545,0,-241,-38,39,12,-11
10550,-2,-247,-37,38,13,-9
10555,-4,-244,-41,37,12,-11
10560,-1,-244,-34,36,13,-13
10565,-2,-248,-34,38,12,-12
10570,-2,-246,-39,39,12,-12
10575,-5,-243,-35,41,12,-11
10580,-3,-246,-36,40,11,-11
10585,-5,-245,-32,40,8,-12
10590,-4,-247,-37,40,6,-9
10595,-4,-249,-35,42,5,-8
10600,-6,-245,-41,45,3,-8
10605,-2,-246,-38,49,3,-8
10610,-3,-243,-38,51,3,-7
10615,-2,-245,-41,53,3,-8
10620,0,-246,-39,54,5,-7
10625,0,-245,-35,51,5,-6
10630,-2,-243,-36,47,5,-6
10635,-1,-242,-40,44,5,-5
10640,0,-247,-36,39,5,-6
10645,1,-246,-34,35,5,-6
10650,-2,-245,-35,32,6,-7
10655,-1,-245,-32,32,6,-4
10660,-8,-241,-29,31,6,-6
10665,-6,-245,-39,34,8,-4
10670,-6,-245,-37,36,9,-3
10675,-3,-248,-35,37,11,-4
10680,-3,-247,-33,40,11,-5
10685,-1,-248,-38,41,13,-4
10690,-4,-246,-37,42,11,-4
10695,-3,-245,-40,44,10,-5
10700,-6,-248,-43,44,9,-5
10705,-1,-249,-37,47,9,-6
10710,-1,-247,-38,47,8,-6
10715,-1,-246,-39,47,8,-5
10720,-1,-248,-35,47,8,-5
10725,-3,-245,-40,47,8,-5
10730,-2,-245,-37,47,8,-3
10735,-1,-245,-37,47,9,-3
10740,-3,-244,-40,48,11,-3
10745,-1,-243,-38,49,11,-3
10750,0,-249,-41,48,14,0
10755,-1,-241,-41,48,16,0
10760,0,-249,-37,48,18,0
10765,-1,-246,-39,50,20,1
10770,-2,-248,-39,54,22,0
10775,-3,-245,-39,58,21,1
10780,3,-250,-40,59,21,1
10785,-7,-243,-39,59,23,2
10790,-2,-251,-34,58,22,0
10795,-3,-250,-44,59,21,-1
10800,-1,-240,-40,60,23,0
10805,-6,-243,-35,62,23,-2
10810,-2,-245,-37,61,22,-2
10815,2,-241,-35,62,23,-3
10820,-4,-244,-43,63,23,-3
10825,-6,-239,-48,65,22,-5
10830,-9,-246,-37,66,21,-5
10835,-7,-242,-41,69,21,-7
10840,-4,-242,-41,71,21,-6
10845,-3,-248,-35,74,20,-6
10850,-4,-244,-39,77,19,-6
10855,-7,-248,-38,82,19,-7
10860,-8,-238,-46,83,17,-8
10865,-7,-240,-38,84,16,-9
10870,-4,-247,-34,84,16,-6
10875,-7,-247,-35,83,13,-7
10880,-3,-244,-41,82,12,-7
10885,-6,-242,-42,79,11,-7
10890,-3,-248,-34,78,11,-9
10895,-4,-241,-44,76,11,-9
10900,-2,-244,-43,74,12,-8
10905,-3,-244,-40,73,11,-9
10910,-3,-245,-44,73,11,-9
10915,-6,-243,-41,74,10,-11
10920,-1,-248,-40,75,9,-11
10925,-5,-250,-53,79,10,-10
10930,0,-245,-36,81,10,-9
10935,-3,-247,-40,82,9,-10
10940,-4,-242,-43,81,8,-11
10945,-2,-245,-38,78,7,-9
10950,-2,-248,-45,77,6,-8
10955,-4,-244,-42,76,5,-10
10960,-5,-243,-41,78,4,-10
10965,-3,-247,-45,78,4,-10
10970,-8,-246,-32,78,3,-10
10975,-3,-248,-39,77,4,-9
10980,-2,-248,-41,76,5,-10
10985,-5,-244,-40,75,4,-10
10990,-4,-245,-41,74,4,-10
10995,-4,-250,-40,75,3,-12
11000,-7,-247,-39,73,4,-12
11005,0,-243,-40,74,5,-11
11010,-4,-239,-45,71,5,-11
11015,-6,-242,-39,70,7,-13
11020,-5,-241,-43,68,9,-11
11025,0,-244,-37,66,10,-11
11030,2,-247,-37,63,9,-11
11035,0,-246,-39,62,9,-11
11040,0,-247,-41,60,10,-10
11045,0,-246,-41,60,10,-9
11050,0,-247,-39,58,12,-8
11055,-1,-247,-39,58,12,-8
11060,-3,-244,-41,57,12,-8
11065,0,-246,-40,57,12,-9
11070,0,-245,-36,55,13,-9
11075,-3,-243,-39,55,12,-8
11080,1,-243,-36,54,11,-9
11085,-1,-244,-39,53,11,-9
11090,-3,-245,-39,52,11,-10
11095,-2,-243,-40,52,11,-11
11100,-1,-245,-37,51,11,-11
11105,-1,-247,-41,50,11,-12
11110,-5,-244,-41,48,12,-11
11115,-1,-244,-39,46,11,-11
11120,0,-246,-36,45,12,-13
11125,0,-247,-41,45,12,-12
11130,-1,-244,-39,47,11,-11
11135,-3,-244,-42,47,13,-13
11140,-2,-245,-39,47,15,-13
11145,0,-246,-39,47,15,-12
11150,-1,-246,-37,46,16,-14
11155,-4,-244,-37,46,15,-13
11160,0,-245,-37,45,16,-15
11165,-1,-245,-39,44,17,-16
11170,0,-243,-35,42,19,-17
11175,-1,-247,-38,42,18,-15
11180,-3,-248,-44,43,18,-16
11185,-3,-246,-37,47,18,-17
11190,-2,-249,-40,48,18,-15
11195,-8,-244,-38,49,17,-14
11200,-4,-245,-39,49,17,-15
11205,0,-245,-40,49,18,-15
11210,-2,-246,-36,47,18,-15
11215,-4,-245,-36,43,16,-15
11220,-3,-244,-31,39,14,-15
11225,-1,-250,-36,38,13,-14
11230,-8,-248,-38,38,10,-14
11235,-7,-244,-33,40,8,-17
11240,-11,-246,-41,46,6,-17
11245,-3,-243,-43,52,5,-15
11250,0,-248,-41,56,3,-13
11255,-1,-247,-42,57,5,-15
11260,-3,-246,-40,55,6,-16
11265,-5,-244,-40,53,8,-16
11270,0,-247,-41,50,10,-16
11275,0,-246,-40,47,11,-16
11280,-2,-249,-35,46,10,-16
11285,-1,-249,-35,45,11,-17
11290,-3,-245,-38,46,11,-17
11295,1,-249,-33,49,12,-16
11300,0,-249,-36,53,14,-16
11305,0,-249,-37,54,17,-15
11310,-3,-247,-36,56,18,-14
11315,-4,-245,-37,59,19,-12
11320,-3,-243,-34,62,20,-13
11325,-5,-247,-33,63,21,-13
11330,-6,-245,-38,64,21,-17
11335,0,-249,-42,65,19,-15
11340,-2,-246,-35,63,17,-16
11345,-1,-243,-36,61,15,-15
11350,-6,-244,-39,58,15,-16
11355,-1,-246,-36,57,14,-15
11360,-5,-244,-35,54,13,-15
11365,-4,-245,-37,52,12,-16
11370,-3,-245,-36,52,13,-15
11375,-2,-244,-37,50,12,-14
11380,-5,-241,-40,49,12,-14
11385,-3,-246,-45,49,14,-13
11390,-2,-244,-38,49,14,-13
11395,-2,-246,-44,49,16,-13
11400,-3,-245,-42,49,17,-13
11405,-3,-245,-38,50,18,-12
11410,-1,-246,-41,49,20,-12
11415,-5,-245,-39,52,21,-12
11420,-4,-244,-41,54,23,-12
11425,-4,-245,-38,54,22,-12
11430,-3,-248,-41,56,21,-12
11435,-3,-245,-43,56,21,-14
11440,-2,-246,-36,55,22,-14
11445,-4,-242,-38,57,22,-14
11450,-2,-246,-41,54,23,-13
11455,-3,-245,-41,52,21,-14
11460,-2,-244,-39,52,22,-16
11465,0,-246,-39,52,21,-16
11470,-1,-243,-39,53,21,-17
11475,-1,-244,-41,52,21,-17
11480,-2,-243,-38,52,20,-15
11485,-5,-244,-39,52,19,-15
11490,-2,-246,-38,53,18,-15
11495,-3,-243,-38,53,15,-17
11500,-4,-246,-40,53,16,-15
11505,-3,-246,-41,50,14,-14
11510,0,-244,-41,48,13,-15
11515,0,-247,-37,45,13,-13
11520,-1,-246,-40,43,14,-15
11525,0,-246,-44,43,15,-12
11530,-2,-244,-37,42,15,-11
11535,-1,-246,-33,42,15,-13
11540,-2,-245,-40,45,15,-12
11545,0,-248,-39,45,15,-13
11550,-2,-247,-31,48,16,-12
11555,-1,-246,-41,48,17,-13
11560,-3,-248,-39,48,18,-12
11565,0,-248,-34,47,20,-15
11570,0,-248,-38,46,21,-14
11575,-1,-247,-38,45,21,-16
11580,-1,-241,-38,44,22,-16
11585,-2,-246,-40,45,23,-15
11590,-4,-246,-39,45,22,-14
11595,-4,-243,-34,43,19,-15
11600,-2,-247,-39,42,18,-13
11605,-2,-243,-34,43,18,-13
11610,-1,-247,-40,44,18,-13
11615,-2,-247,-41,46,16,-11
11620,0,-249,-36,48,17,-14
11625,-2,-246,-38,50,17,-14
11630,-3,-245,-36,51,16,-14
11635,-1,-247,-36,49,16,-16
11640,-4,-246,-36,49,16,-15
11645,-2,-248,-38,47,17,-13
11650,-1,-247,-43,45,16,-14
11655,0,-244,-41,43,17,-15
11660,-4,-243,-38,43,16,-15
11665,0,-250,-41,41,16,-15
11670,-4,-241,-44,40,17,-18
11675,0,-245,-41,38,18,-17
11680,0,-247,-40,38,18,-17
11685,0,-245,-39,37,19,-16
11690,-3,-243,-34,38,20,-16
11695,-3,-245,-38,38,20,-17
11700,-1,-244,-32,39,20,-18
11705,-2,-246,-34,39,19,-17
11710,0,-248,-36,39,17,-17
11715,-1,-245,-40,40,18,-17
11720,2,-244,-42,39,16,-17
11725,-1,-243,-39,37,14,-17
11730,-3,-246,-37,36,15,-16
11735,-4,-247,-37,37,14,-16
11740,-1,-248,-43,38,14,-17
11745,0,-248,-40,42,15,-16
11750,-2,-247,-38,44,15,-17
11755,0,-247,-36,44,15,-16
11760,1,-249,-36,45,17,-18
11765,-3,-248,-35,45,16,-17
11770,-2,-248,-33,46,16,-16
11775,-3,-242,-43,46,16,-17
11780,-3,-245,-37,47,16,-18
11785,0,-246,-39,52,16,-16
11790,-3,-244,-42,54,17,-18
11795,-3,-243,-41,56,18,-16
11800,-3,-244,-37,57,19,-15
11805,-3,-245,-38,56,20,-14
11810,0,-244,-42,53,21,-13
11815,-2,-247,-35,54,20,-14
11820,-3,-241,-38,51,19,-12
11825,0,-247,-42,51,19,-12
11830,2,-249,-35,51,19,-12
11835,-3,-245,-38,51,16,-10
11840,-2,-245,-40,50,16,-11
11845,-3,-247,-40,46,15,-11
11850,-6,-245,-36,44,15,-10
11855,-2,-244,-38,43,14,-10
11860,-3,-244,-36,42,12,-10
11865,-2,-244,-38,43,10,-11
11870,-3,-246,-35,46,8,-10
11875,-4,-246,-44,50,8,-10
11880,-6,-235,-40,56,7,-11
11885,-2,-244,-44,62,6,-11
11890,0,-245,-42,67,6,-12
11895,0,-244,-44,68,8,-12
11900,-1,-245,-39,65,9,-12
11905,-2,-245,-39,61,10,-12
11910,0,-243,-44,55,11,-12
11915,-3,-245,-35,48,11,-11
11920,0,-246,-34,43,13,-11
11925,0,-244,-40,39,13,-12
11930,1,-248,-37,38,13,-10
11935,2,-244,-40,39,15,-10
11940,1,-250,-37,41,18,-11
11945,-1,-247,-42,44,21,-10
11950,-3,-247,-42,47,23,-11
11955,-2,-245,-38,50,24,-10
11960,-1,-246,-42,51,26,-11
11965,-3,-244,-39,51,27,-12
11970,-2,-246,-38,52,27,-12
11975,0,-247,-40,50,27,-12
11980,-6,-244,-37,50,27,-12
11985,1,-247,-34,49,27,-11
11990,-1,-246,-44,50,24,-12
11995,0,-244,-41,47,23,-11
