timestamp,acc_x,acc_y,acc_z,gyro_x,gyro_y,gyro_z
0,29,-244,-83,-84,70,-10
5,25,-245,-88,-79,70,-13
10,28,-242,-88,-70,69,-13
15,25,-241,-86,-62,69,-14
20,27,-246,-84,-50,69,-14
25,29,-238,-93,-42,69,-14
30,26,-245,-88,-32,69,-11
35,25,-241,-86,-23,70,-12
40,24,-243,-85,-14,70,-10
45,24,-241,-86,-8,71,-11
50,26,-244,-85,-4,69,-8
55,26,-241,-84,-1,69,-9
60,27,-243,-83,-1,69,-9
65,26,-241,-78,-3,68,-11
70,21,-240,-85,-7,68,-9
75,22,-239,-79,-13,68,-10
80,28,-241,-82,-19,69,-8
85,29,-243,-83,-26,69,-10
90,26,-243,-82,-32,68,-7
95,24,-237,-82,-37,67,-9
100,25,-239,-88,-41,67,-7
105,24,-238,-85,-44,67,-8
110,29,-243,-86,-45,66,-7
115,17,-234,-84,-46,66,-9
120,25,-243,-84,-47,66,-8
125,23,-238,-86,-49,65,-9
130,25,-243,-89,-52,64,-8
135,29,-239,-68,-56,65,-8
140,18,-246,-89,-61,64,-9
145,26,-234,-88,-68,63,-9
150,18,-241,-88,-74,63,-8
155,31,-239,-88,-79,61,-7
160,29,-235,-79,-86,62,-7
165,21,-241,-90,-93,62,-8
170,27,-238,-97,-100,62,-7
175,33,-221,-76,-107,61,-7
180,26,-246,-87,-113,60,-7
185,29,-238,-80,-116,59,-6
190,33,-238,-80,-114,60,-4
195,13,-272,-101,-112,58,-5
200,22,-243,-85,-107,58,-4
205,21,-245,-86,-101,57,-3
210,25,-246,-86,-97,56,-3
215,24,-243,-86,-92,53,-1
220,26,-244,-88,-87,52,0
225,23,-244,-86,-80,49,0
230,25,-245,-85,-73,49,-1
235,25,-244,-87,-67,49,1
240,27,-244,-87,-60,48,1
245,22,-244,-87,-53,48,3
250,29,-244,-84,-50,47,1
255,27,-246,-84,-47,46,2
260,28,-243,-81,-46,49,3
265,27,-242,-89,-43,50,2
270,29,-244,-88,-40,51,2
275,27,-242,-89,-41,51,2
280,25,-243,-88,-38,51,1
285,27,-238,-85,-35,53,0
290,26,-241,-86,-33,54,0
295,24,-242,-88,-31,53,-1
300,26,-241,-89,-30,53,-2
305,25,-238,-88,-31,52,0
310,25,-239,-90,-35,51,-2
315,26,-238,-89,-39,50,-1
320,26,-242,-88,-43,49,0
325,25,-238,-84,-46,47,1
330,22,-241,-87,-46,47,1
335,27,-241,-95,-43,46,0
340,22,-242,-92,-40,48,-2
345,25,-243,-87,-36,49,-1
350,27,-241,-91,-31,49,-2
355,26,-241,-88,-22,47,-1
360,25,-242,-88,-17,46,-5
365,26,-242,-88,-10,46,-5
370,25,-242,-88,-2,44,-4
375,23,-241,-88,4,44,-3
380,25,-243,-90,9,45,-6
385,21,-239,-86,11,44,-6
390,23,-243,-91,14,43,-7
395,24,-242,-88,18,42,-7
400,22,-242,-88,21,43,-10
405,26,-242,-89,23,44,-8
410,23,-244,-85,23,44,-11
415,27,-241,-94,24,45,-9
420,27,-245,-85,24,46,-10
425,26,-244,-86,24,47,-7
430,27,-243,-89,26,49,-7
435,28,-243,-87,28,50,-4
440,28,-243,-87,35,49,-5
445,26,-243,-86,40,51,-2
450,27,-242,-87,45,51,-3
455,28,-243,-89,51,52,-1
460,28,-243,-90,56,51,-4
465,28,-241,-87,61,49,-1
470,26,-242,-88,69,50,-5
475,28,-244,-87,74,51,-4
480,24,-242,-88,78,49,-3
485,23,-242,-87,85,51,-3
490,23,-240,-90,87,53,-3
495,25,-241,-88,91,54,-3
500,24,-242,-84,92,55,-4
505,23,-240,-89,89,55,-3
510,25,-241,-85,88,56,-4
515,24,-242,-89,84,56,-4
520,26,-239,-84,78,55,-6
525,26,-242,-85,73,54,-5
530,23,-240,-85,71,52,-6
535,26,-243,-90,70,51,-5
540,24,-244,-86,69,51,-8
545,23,-243,-84,72,49,-6
550,24,-240,-85,74,48,-9
555,22,-241,-89,75,49,-8
560,24,-243,-85,77,48,-8
565,25,-243,-83,78,47,-6
570,26,-240,-88,79,47,-9
575,24,-240,-86,80,48,-6
580,27,-243,-85,80,50,-9
585,25,-241,-86,80,51,-7
590,26,-245,-85,79,52,-9
595,26,-243,-84,79,53,-8
600,25,-244,-81,76,54,-11
605,26,-242,-85,75,54,-8
610,24,-243,-84,73,53,-10
615,26,-242,-85,70,55,-7
620,24,-240,-83,67,54,-8
625,26,-237,-84,63,54,-6
630,25,-240,-82,60,54,-8
635,24,-243,-81,59,53,-6
640,24,-244,-84,59,53,-7
645,24,-243,-82,59,53,-5
650,25,-243,-84,60,53,-7
655,27,-245,-82,62,54,-5
660,24,-244,-85,63,55,-7
665,27,-243,-79,63,58,-5
670,27,-238,-81,62,57,-7
675,27,-243,-84,60,59,-5
680,26,-243,-85,59,61,-8
685,25,-242,-83,57,61,-5
690,25,-243,-81,55,63,-8
695,29,-243,-80,54,63,-6
700,26,-241,-80,53,61,-7
705,28,-244,-82,51,63,-5
710,25,-241,-81,52,63,-7
715,29,-243,-80,54,63,-4
720,26,-240,-77,55,63,-6
725,28,-242,-82,57,63,-2
730,25,-239,-79,57,64,-4
735,24,-240,-79,56,64,-1
740,25,-243,-79,54,63,-5
745,23,-243,-81,51,64,-5
750,22,-240,-81,44,65,-7
755,24,-243,-81,38,65,-4
760,24,-239,-79,32,64,-7
765,23,-243,-82,25,64,-3
770,24,-244,-77,20,64,-4
775,24,-241,-81,17,62,-3
780,24,-242,-75,15,61,-5
785,25,-243,-84,12,60,-4
790,22,-243,-76,9,59,-4
795,25,-244,-76,6,57,-3
800,23,-242,-78,5,57,-3
805,25,-242,-78,4,55,-1
810,28,-248,-74,2,53,-5
815,25,-247,-79,3,51,-3
820,24,-242,-79,4,50,-5
825,25,-244,-80,8,48,-2
830,22,-244,-80,9,49,-4
835,25,-246,-81,10,49,0
840,25,-245,-77,10,48,-3
845,24,-243,-80,13,49,0
850,24,-245,-80,12,49,-1
855,24,-246,-77,13,47,2
860,25,-246,-77,15,47,0
865,26,-244,-76,13,47,2
870,25,-244,-78,11,45,0
875,24,-244,-80,9,47,2
880,20,-247,-77,5,47,0
885,23,-245,-79,3,48,2
890,24,-248,-79,5,46,-2
895,24,-244,-82,5,44,0
900,24,-244,-81,6,45,-4
905,27,-246,-77,9,42,-1
910,25,-246,-79,11,42,-3
915,23,-243,-75,13,39,-1
920,24,-243,-77,18,39,-4
925,21,-243,-79,20,37,-2
930,24,-243,-78,23,38,-4
935,19,-244,-77,24,38,-2
940,26,-245,-77,24,36,-3
945,25,-243,-78,21,36,-2
950,22,-242,-82,18,37,-4
955,23,-241,-80,15,38,-1
960,24,-242,-77,12,39,-4
965,24,-242,-77,8,40,0
970,24,-243,-77,2,41,-1
975,25,-243,-72,-4,40,1
980,26,-242,-76,-10,41,-1
985,24,-242,-79,-14,43,0
990,24,-243,-80,-20,42,0
995,22,-242,-78,-27,43,1
1000,24,-239,-78,-31,42,-1
1005,25,-241,-81,-36,44,-1
1010,24,-243,-78,-39,44,-2
1015,25,-245,-81,-41,45,0
1020,23,-241,-81,-41,47,-2
1025,25,-246,-82,-39,49,0
1030,24,-247,-77,-39,49,-2
1035,23,-244,-79,-39,50,-1
1040,25,-245,-78,-37,50,-3
1045,24,-242,-79,-38,50,-1
1050,23,-243,-78,-37,50,-4
1055,23,-245,-76,-37,49,0
1060,26,-246,-80,-35,50,-2
1065,23,-244,-79,-33,49,1
1070,24,-245,-79,-33,48,0
1075,25,-244,-76,-27,48,1
1080,21,-242,-80,-25,48,-2
1085,21,-243,-78,-21,50,0
1090,25,-247,-79,-19,50,-2
1095,26,-243,-77,-18,52,0
1100,26,-242,-82,-18,53,-1
1105,24,-243,-80,-21,52,0
1110,27,-243,-81,-23,53,-3
1115,26,-243,-79,-26,52,-1
1120,25,-244,-81,-29,55,-2
1125,24,-240,-81,-33,54,-2
1130,27,-241,-79,-35,55,-3
1135,27,-241,-76,-39,56,-1
1140,26,-241,-79,-42,55,-2
1145,29,-244,-78,-44,55,0
1150,23,-243,-79,-49,56,-1
1155,25,-243,-81,-53,56,1
1160,26,-243,-82,-55,57,-2
1165,26,-246,-78,-59,58,0
1170,27,-243,-79,-59,59,-5
1175,26,-242,-79,-59,59,-3
1180,24,-247,-80,-58,56,-3
1185,26,-245,-82,-57,55,-1
1190,23,-242,-79,-56,53,-2
1195,26,-243,-80,-57,51,0
1200,24,-241,-77,-57,49,-1
1205,23,-244,-77,-56,49,-1
1210,22,-244,-81,-57,50,-1
1215,24,-244,-75,-57,49,2
1220,24,-247,-75,-59,50,0
1225,23,-241,-77,-59,51,4
1230,22,-242,-81,-58,51,2
1235,23,-244,-79,-60,50,4
1240,23,-245,-77,-59,45,4
1245,20,-246,-81,-61,43,5
1250,22,-242,-76,-61,41,4
1255,22,-242,-76,-63,37,6
1260,24,-243,-77,-64,34,6
1265,21,-241,-78,-66,30,7
1270,21,-241,-79,-68,27,6
1275,20,-243,-81,-69,27,8
1280,27,-245,-80,-68,27,6
1285,24,-246,-82,-69,27,8
1290,19,-243,-73,-70,29,5
1295,24,-245,-82,-70,31,5
1300,23,-246,-74,-70,31,3
1305,23,-244,-82,-70,31,4
1310,25,-246,-79,-69,29,2
1315,22,-243,-81,-67,29,1
1320,22,-243,-80,-64,28,-1
1325,25,-246,-80,-61,26,-1
1330,26,-245,-83,-55,25,-3
1335,24,-242,-80,-53,24,-3
1340,26,-239,-80,-50,24,-3
1345,22,-241,-81,-46,24,-1
1350,25,-244,-81,-44,25,1
1355,24,-245,-81,-41,28,0
1360,24,-248,-78,-37,29,-1
1365,25,-243,-80,-33,30,-1
1370,23,-244,-84,-30,33,-2
1375,25,-244,-77,-26,34,-3
1380,23,-240,-78,-22,37,-6
1385,23,-244,-74,-21,36,-4
1390,26,-243,-79,-20,38,-6
1395,24,-245,-82,-18,41,-6
1400,23,-245,-82,-15,43,-7
1405,25,-242,-81,-12,46,-7
1410,24,-244,-81,-9,48,-8
1415,23,-241,-79,-8,50,-8
1420,25,-241,-83,-9,53,-9
1425,24,-240,-86,-11,55,-11
1430,27,-240,-80,-13,57,-12
1435,25,-239,-79,-14,57,-12
1440,25,-243,-83,-18,61,-11
1445,25,-241,-85,-23,61,-9
1450,25,-242,-80,-27,63,-10
1455,25,-243,-82,-29,65,-9
1460,25,-241,-77,-32,70,-10
1465,23,-246,-79,-35,75,-11
1470,27,-242,-80,-38,81,-8
1475,26,-245,-78,-43,86,-8
1480,24,-243,-80,-45,91,-7
1485,27,-247,-82,-49,96,-7
1490,28,-243,-84,-53,98,-6
1495,28,-246,-80,-59,99,-4
1500,30,-246,-82,-61,98,-1
1505,28,-241,-85,-65,98,0
1510,28,-244,-83,-64,96,0
1515,25,-244,-82,-60,94,1
1520,24,-245,-83,-56,92,3
1525,28,-246,-82,-49,91,3
1530,22,-244,-77,-38,90,2
1535,24,-244,-81,-25,88,0
1540,21,-243,-85,-12,89,0
1545,21,-241,-80,-3,89,-1
1550,21,-242,-80,6,92,-2
1555,23,-243,-84,10,91,-3
1560,21,-239,-85,12,90,-2
1565,18,-238,-84,9,89,-2
1570,19,-239,-82,4,86,1
1575,20,-240,-85,-5,83,-2
1580,23,-238,-82,-14,83,0
1585,21,-241,-83,-27,80,1
1590,21,-240,-83,-39,77,3
1595,20,-242,-84,-50,74,3
1600,22,-240,-80,-59,72,4
1605,23,-243,-85,-67,69,4
1610,25,-242,-80,-71,66,5
1615,21,-246,-83,-71,64,4
1620,22,-245,-85,-71,63,4
1625,24,-244,-84,-69,64,2
1630,24,-242,-87,-64,63,1
1635,21,-242,-83,-59,62,0
1640,24,-242,-83,-56,62,0
1645,25,-242,-82,-53,61,-1
1650,26,-240,-84,-50,63,0
1655,25,-241,-84,-49,64,-3
1660,25,-242,-88,-48,65,-2
1665,23,-243,-86,-49,66,-3
1670,25,-244,-85,-52,67,-2
1675,29,-244,-82,-56,70,-3
1680,27,-241,-83,-58,71,-1
1685,24,-241,-86,-59,72,-4
1690,24,-243,-84,-58,75,-2
1695,23,-245,-83,-57,76,-4
1700,27,-242,-84,-55,78,-1
1705,22,-244,-85,-54,80,-4
1710,25,-240,-83,-53,82,-3
1715,23,-240,-83,-52,83,-5
1720,25,-240,-86,-52,86,-4
1725,24,-239,-83,-52,85,-5
1730,22,-242,-86,-50,85,-4
1735,22,-240,-83,-49,87,-6
1740,23,-242,-85,-47,86,-5
1745,24,-241,-87,-45,88,-7
1750,22,-241,-88,-44,88,-6
1755,25,-241,-83,-42,88,-9
1760,23,-242,-85,-41,90,-8
1765,20,-237,-86,-39,91,-10
1770,23,-240,-86,-42,92,-8
1775,25,-241,-81,-44,92,-11
1780,24,-240,-88,-50,91,-8
1785,22,-241,-85,-55,90,-11
1790,22,-239,-84,-60,88,-9
1795,23,-238,-82,-65,88,-11
1800,22,-243,-83,-70,87,-7
1805,24,-240,-80,-76,86,-9
1810,25,-241,-86,-80,86,-7
1815,26,-239,-90,-87,84,-9
1820,23,-242,-85,-90,85,-4
1825,28,-244,-84,-91,86,-5
1830,24,-245,-84,-90,83,-3
1835,23,-246,-86,-84,82,-3
1840,23,-243,-83,-76,80,-2
1845,22,-244,-85,-67,79,-4
1850,26,-244,-83,-58,79,-3
1855,21,-242,-81,-50,76,-6
1860,21,-241,-88,-42,75,-4
1865,23,-241,-87,-36,74,-5
1870,24,-241,-88,-31,71,-1
1875,21,-240,-88,-29,70,-1
1880,22,-240,-88,-29,68,-1
1885,23,-240,-89,-30,66,-1
1890,21,-242,-85,-31,65,3
1895,23,-240,-83,-31,64,0
1900,22,-243,-87,-32,63,2
1905,22,-238,-84,-32,64,-1
1910,17,-239,-99,-33,64,0
1915,24,-240,-85,-35,63,-2
1920,21,-237,-83,-39,63,-1
1925,22,-241,-85,-45,63,-5
1930,25,-241,-88,-52,61,-4
1935,24,-239,-85,-58,61,-4
1940,24,-241,-85,-63,59,-1
1945,22,-238,-89,-66,59,-2
1950,23,-242,-85,-68,60,1
1955,23,-241,-86,-69,62,-2
1960,24,-239,-84,-69,63,1
1965,22,-241,-85,-66,61,-1
1970,24,-243,-86,-63,61,1
1975,25,-240,-78,-61,62,-1
1980,24,-240,-82,-60,62,0
1985,23,-239,-86,-59,62,-3
1990,22,-241,-85,-59,62,0
1995,25,-240,-85,-56,63,-3
2000,24,-239,-88,-55,62,-1
2005,22,-242,-86,-53,63,-2
2010,25,-241,-86,-52,62,1
2015,22,-238,-87,-50,61,-3
2020,24,-243,-85,-50,61,0
2025,25,-242,-89,-48,61,-1
2030,25,-242,-84,-45,62,2
2035,21,-239,-87,-42,63,0
2040,23,-239,-87,-39,63,2
2045,26,-243,-87,-35,63,-1
2050,24,-241,-87,-31,63,0
2055,23,-243,-85,-28,64,-2
2060,23,-244,-88,-24,64,1
2065,24,-243,-90,-22,62,-2
2070,24,-243,-88,-17,61,1
2075,23,-240,-87,-16,63,-1
2080,22,-239,-85,-13,63,0
2085,20,-240,-87,-14,62,-2
2090,24,-241,-88,-12,62,0
2095,23,-242,-86,-11,63,-3
2100,24,-242,-84,-11,60,-1
2105,23,-240,-88,-7,62,-3
2110,23,-239,-87,-6,62,-1
2115,23,-239,-87,-3,61,-4
2120,25,-243,-85,0,62,-2
2125,22,-240,-89,2,62,-5
2130,26,-240,-88,6,61,-2
2135,21,-239,-86,9,60,-5
2140,23,-239,-93,12,57,-2
2145,26,-237,-88,15,56,-5
2150,24,-240,-86,17,55,-4
2155,23,-239,-89,17,57,-6
2160,28,-239,-87,16,56,-5
2165,24,-238,-89,13,58,-6
2170,26,-239,-84,10,59,-5
2175,24,-240,-88,7,60,-7
2180,25,-241,-90,3,60,-3
2185,23,-241,-90,1,61,-5
2190,24,-237,-92,-1,59,-2
2195,23,-241,-89,-3,60,-5
2200,23,-240,-90,-3,60,-4
2205,29,-243,-88,-1,59,-7
2210,26,-242,-91,4,58,-4
2215,25,-243,-88,12,58,-8
2220,26,-242,-86,18,60,-6
2225,27,-244,-89,26,61,-8
2230,23,-242,-88,34,64,-5
2235,26,-242,-85,40,62,-8
2240,23,-241,-88,46,62,-8
2245,25,-245,-84,51,62,-10
2250,23,-241,-86,53,63,-8
2255,23,-240,-86,56,62,-10
2260,26,-241,-87,60,62,-10
2265,25,-241,-89,63,62,-10
2270,26,-241,-86,66,60,-9
2275,25,-238,-86,67,60,-11
2280,24,-240,-86,69,60,-9
2285,23,-240,-86,69,61,-12
2290,24,-242,-87,69,61,-9
2295,25,-238,-87,65,60,-12
2300,24,-239,-81,62,60,-9
2305,23,-241,-79,59,60,-12
2310,25,-240,-86,55,60,-9
2315,24,-242,-83,51,60,-12
2320,22,-240,-88,49,58,-10
2325,27,-245,-86,45,56,-13
2330,21,-242,-81,45,55,-11
2335,22,-241,-85,44,54,-14
2340,25,-241,-88,44,54,-11
2345,25,-241,-84,44,55,-13
2350,27,-242,-85,44,56,-11
2355,27,-243,-81,42,58,-14
2360,27,-242,-88,45,57,-12
2365,25,-245,-85,48,58,-13
2370,25,-243,-85,51,59,-10
2375,26,-242,-85,54,61,-11
2380,25,-243,-86,56,62,-9
2385,27,-241,-84,59,63,-10
2390,25,-244,-82,61,61,-8
2395,28,-242,-84,62,61,-10
2400,26,-238,-85,63,61,-8
2405,28,-241,-82,61,60,-10
2410,25,-243,-84,58,61,-8
2415,28,-243,-81,55,60,-9
2420,25,-242,-81,49,60,-7
2425,24,-241,-87,45,60,-9
2430,25,-245,-84,39,61,-7
2435,25,-246,-81,34,60,-8
2440,25,-242,-83,30,60,-7
2445,25,-240,-82,24,60,-10
2450,26,-240,-84,21,61,-8
2455,27,-242,-82,19,61,-9
2460,26,-241,-85,17,61,-8
2465,26,-242,-81,17,61,-9
2470,25,-243,-78,15,61,-8
2475,23,-243,-80,16,61,-9
2480,24,-242,-82,18,60,-8
2485,27,-240,-85,19,58,-11
2490,23,-241,-85,19,59,-9
2495,26,-243,-86,17,58,-12
2500,22,-240,-83,14,57,-10
2505,25,-242,-81,10,55,-11
2510,23,-237,-81,7,54,-9
2515,26,-243,-85,3,51,-8
2520,24,-240,-83,2,50,-9
2525,24,-241,-84,0,50,-8
2530,26,-243,-83,1,50,-9
2535,25,-246,-79,2,48,-9
2540,26,-240,-80,2,48,-7
2545,26,-243,-81,1,49,-7
2550,26,-241,-82,-3,49,-7
2555,25,-240,-81,-5,51,-8
2560,26,-242,-84,-8,52,-5
2565,26,-242,-81,-7,53,-5
2570,31,-245,-81,-6,54,-4
2575,28,-242,-78,-3,56,-5
2580,26,-242,-81,1,54,-4
2585,24,-245,-83,6,56,-5
2590,27,-246,-84,10,56,-5
2595,29,-244,-84,11,56,-6
2600,23,-242,-85,12,58,-5
2605,26,-240,-80,11,59,-5
2610,27,-242,-81,8,58,-3
2615,23,-241,-83,2,59,-4
2620,24,-243,-80,-5,58,-2
2625,23,-242,-79,-12,59,-3
2630,28,-241,-79,-17,58,-3
2635,23,-241,-85,-22,58,-3
2640,24,-239,-81,-27,59,-2
2645,24,-240,-86,-31,60,-3
2650,25,-241,-87,-33,62,-3
2655,25,-240,-84,-34,63,-4
2660,25,-243,-77,-37,62,-2
2665,23,-240,-81,-36,63,-4
2670,24,-240,-84,-38,64,-3
2675,28,-242,-83,-40,63,-5
2680,27,-238,-84,-44,63,-4
2685,24,-237,-84,-51,64,-5
2690,24,-241,-82,-60,64,-5
2695,29,-237,-83,-69,64,-5
2700,24,-238,-90,-79,64,-6
2705,31,-235,-88,-90,64,-8
2710,24,-234,-87,-103,68,-6
2715,26,-236,-87,-118,70,-7
2720,26,-235,-86,-129,72,-7
2725,27,-235,-90,-141,74,-8
2730,29,-236,-91,-151,76,-7
2735,25,-237,-94,-161,80,-8
2740,29,-236,-93,-168,83,-9
2745,28,-234,-91,-178,84,-11
2750,27,-235,-93,-186,85,-12
2755,26,-232,-93,-193,88,-13
2760,27,-234,-93,-197,89,-11
2765,28,-236,-95,-202,90,-12
2770,29,-232,-95,-209,89,-10
2775,26,-232,-92,-209,89,-11
2780,26,-235,-96,-210,92,-9
2785,27,-234,-94,-208,90,-10
2790,27,-236,-98,-206,89,-10
2795,27,-236,-102,-206,90,-12
2800,27,-235,-104,-205,92,-13
2805,26,-233,-100,-205,91,-15
2810,27,-235,-107,-206,94,-15
2815,25,-236,-105,-209,94,-15
2820,27,-235,-104,-213,94,-13
2825,27,-236,-106,-218,97,-11
2830,26,-233,-104,-224,100,-9
2835,28,-235,-109,-231,103,-10
2840,24,-232,-108,-239,108,-9
2845,24,-235,-104,-245,111,-9
2850,29,-233,-108,-252,116,-10
2855,28,-235,-104,-257,124,-10
2860,28,-232,-108,-263,129,-11
2865,27,-232,-107,-270,135,-14
2870,25,-232,-106,-276,140,-17
2875,27,-231,-105,-282,144,-20
2880,26,-233,-103,-292,147,-22
2885,29,-232,-105,-303,150,-25
2890,26,-229,-103,-315,153,-27
2895,25,-227,-106,-329,155,-30
2900,26,-226,-109,-344,157,-31
2905,28,-224,-103,-360,157,-31
2910,26,-226,-108,-375,157,-28
2915,29,-228,-108,-391,158,-24
2920,29,-226,-106,-402,158,-23
2925,29,-229,-103,-410,158,-22
2930,30,-226,-100,-414,156,-21
2935,29,-227,-104,-414,158,-21
2940,28,-227,-99,-414,156,-21
2945,29,-230,-98,-408,154,-20
2950,32,-232,-102,-400,150,-19
2955,30,-231,-103,-390,148,-18
2960,30,-228,-102,-379,148,-19
2965,28,-228,-102,-368,147,-20
2970,25,-224,-105,-362,146,-22
2975,27,-224,-107,-358,146,-22
2980,27,-226,-109,-361,144,-22
2985,26,-223,-111,-370,143,-19
2990,25,-219,-112,-379,143,-16
2995,22,-220,-113,-394,145,-15
3000,29,-222,-115,-410,147,-13
3005,27,-223,-113,-422,146,-12
3010,26,-222,-112,-433,149,-14
3015,26,-222,-116,-441,152,-15
3020,27,-220,-117,-447,154,-18
3025,27,-218,-118,-454,155,-19
3030,27,-220,-119,-462,155,-23
3035,29,-213,-119,-471,155,-22
3040,26,-219,-118,-482,153,-25
3045,27,-217,-115,-493,149,-22
3050,29,-216,-120,-507,146,-21
3055,33,-217,-120,-520,142,-20
3060,28,-217,-123,-533,136,-19
3065,29,-213,-119,-549,128,-18
3070,33,-214,-127,-566,120,-18
3075,30,-212,-129,-583,115,-15
3080,28,-210,-131,-599,107,-16
3085,29,-209,-131,-614,101,-12
3090,30,-207,-132,-628,96,-10
3095,28,-207,-133,-640,91,-5
3100,26,-208,-127,-648,85,-2
3105,25,-206,-134,-649,78,2
3110,27,-204,-135,-648,72,6
3115,22,-202,-129,-645,67,13
3120,24,-199,-135,-644,62,16
3125,20,-198,-133,-647,56,20
3130,18,-196,-135,-652,47,20
3135,16,-193,-134,-662,37,24
3140,16,-191,-131,-676,26,23
3145,11,-187,-137,-694,15,24
3150,15,-183,-143,-717,3,24
3155,14,-178,-147,-744,-9,23
3160,12,-173,-145,-782,-21,17
3165,14,-170,-146,-814,-28,11
3170,17,-169,-147,-847,-34,-3
3175,16,-169,-143,-875,-37,-13
3180,18,-165,-146,-897,-36,-27
3185,13,-160,-147,-918,-31,-38
3190,13,-156,-145,-938,-24,-50
3195,14,-156,-146,-964,-21,-60
3200,14,-153,-146,-992,-23,-73
3205,12,-156,-148,-1026,-29,-83
3210,12,-158,-144,-1066,-38,-92
3215,12,-158,-141,-1121,-55,-96
3220,8,-156,-145,-1170,-71,-102
3225,12,-157,-139,-1221,-88,-105
3230,13,-157,-152,-1272,-106,-109
3235,13,-161,-143,-1321,-120,-109
3240,15,-163,-152,-1369,-134,-112
3245,13,-158,-154,-1416,-145,-109
3250,16,-158,-158,-1458,-155,-113
3255,18,-156,-159,-1499,-161,-112
3260,19,-159,-162,-1536,-168,-115
3265,25,-162,-170,-1573,-173,-119
3270,27,-161,-168,-1611,-178,-127
3275,26,-161,-172,-1637,-178,-133
3280,30,-163,-173,-1655,-180,-145
3285,28,-163,-171,-1668,-180,-156
3290,32,-165,-177,-1675,-180,-168
3295,32,-164,-177,-1676,-178,-176
3300,33,-163,-175,-1668,-176,-187
3305,34,-163,-178,-1651,-171,-193
3310,30,-163,-179,-1625,-165,-200
3315,34,-163,-183,-1606,-161,-203
3320,32,-164,-183,-1594,-157,-210
3325,32,-163,-183,-1592,-153,-208
3330,31,-158,-189,-1593,-154,-205
3335,30,-159,-189,-1598,-154,-201
3340,28,-156,-192,-1605,-157,-202
3345,28,-154,-191,-1611,-159,-196
3350,25,-155,-188,-1612,-163,-192
3355,25,-154,-188,-1611,-169,-181
3360,29,-154,-189,-1603,-177,-176
3365,31,-158,-193,-1593,-186,-172
3370,30,-158,-189,-1586,-193,-172
3375,30,-160,-189,-1578,-193,-163
3380,31,-162,-188,-1569,-191,-155
3385,35,-161,-190,-1563,-189,-149
3390,38,-163,-193,-1561,-185,-154
3395,33,-161,-193,-1556,-178,-154
3400,36,-159,-197,-1552,-169,-159
3405,34,-161,-201,-1556,-166,-165
3410,33,-157,-202,-1566,-166,-173
3415,30,-155,-205,-1579,-170,-176
3420,29,-153,-207,-1593,-174,-183
3425,27,-148,-210,-1603,-182,-185
3430,27,-147,-211,-1606,-185,-186
3435,29,-146,-215,-1596,-188,-175
3440,26,-145,-215,-1573,-191,-174
3445,32,-148,-213,-1546,-185,-171
3450,35,-148,-211,-1510,-174,-171
3455,35,-147,-213,-1470,-157,-169
3460,39,-145,-214,-1433,-140,-174
3465,37,-147,-211,-1405,-121,-176
3470,38,-141,-216,-1377,-99,-182
3475,37,-136,-215,-1362,-87,-186
3480,37,-132,-220,-1360,-73,-197
3485,33,-131,-215,-1367,-65,-202
3490,35,-127,-221,-1372,-54,-210
3495,29,-123,-222,-1379,-49,-217
3500,31,-125,-220,-1383,-44,-219
3505,34,-118,-222,-1388,-41,-215
3510,33,-116,-222,-1400,-35,-219
3515,35,-119,-224,-1417,-22,-213
3520,31,-115,-225,-1434,-13,-215
3525,34,-113,-227,-1452,-4,-206
3530,34,-115,-225,-1471,4,-205
3535,37,-115,-226,-1489,13,-199
3540,35,-114,-228,-1509,16,-207
3545,39,-113,-231,-1530,17,-215
3550,37,-115,-231,-1557,22,-226
3555,39,-109,-230,-1577,29,-226
3560,40,-105,-238,-1591,38,-223
3565,38,-106,-240,-1601,53,-215
3570,38,-104,-239,-1605,68,-212
3575,36,-103,-242,-1609,82,-214
3580,35,-98,-241,-1604,93,-217
3585,35,-99,-243,-1584,103,-205
3590,32,-98,-242,-1551,109,-199
3595,33,-97,-246,-1513,118,-186
3600,28,-94,-240,-1470,125,-178
3605,29,-107,-241,-1413,134,-167
3610,22,-96,-243,-1385,133,-186
3615,27,-88,-238,-1342,116,-164
3620,36,-92,-249,-1303,98,-136
3625,32,-91,-245,-1273,92,-116
3630,29,-87,-254,-1238,92,-103
3635,30,-78,-256,-1222,85,-93
3640,27,-80,-258,-1224,78,-93
3645,17,-76,-253,-1235,71,-105
3650,22,-66,-263,-1228,57,-124
3655,19,-64,-262,-1213,48,-102
3660,19,-57,-259,-1197,46,-90
3665,16,-58,-261,-1192,52,-76
3670,8,-40,-254,-1215,62,-90
3675,19,-41,-252,-1252,65,-91
3680,22,-39,-250,-1294,69,-74
3685,16,-38,-251,-1340,71,-57
3690,16,-47,-251,-1377,74,-54
3695,12,-40,-254,-1420,78,-82
3700,25,-41,-250,-1447,83,-74
3705,22,-40,-255,-1459,84,-72
3710,16,-36,-258,-1464,75,-130
3715,32,-25,-258,-1454,63,-127
3720,22,-28,-265,-1426,91,-122
3725,25,-18,-272,-1430,107,-156
3730,33,-29,-271,-1426,126,-142
3735,31,-53,-278,-1407,145,-116
3740,22,-23,-258,-1369,160,-133
3745,21,-23,-255,-1321,156,-119
3750,13,-26,-252,-1278,139,-100
3755,28,-20,-258,-1256,134,-109
3760,25,-15,-259,-1227,143,-93
3765,23,-15,-252,-1196,149,-63
3770,19,-18,-255,-1172,166,-51
3775,19,-19,-254,-1130,146,-47
3780,25,-33,-256,-1087,133,-68
3785,24,-6,-254,-1060,136,-81
3790,25,-4,-258,-1028,132,-72
3795,26,-5,-256,-1010,140,-56
3800,22,3,-259,-1024,144,-70
3805,21,1,-254,-1022,139,-48
3810,17,3,-249,-1013,129,-47
3815,21,5,-257,-1016,115,-61
3820,18,15,-250,-1032,116,-101
3825,29,12,-258,-1041,119,-87
3830,26,8,-259,-1022,133,-54
3835,27,13,-252,-992,144,-43
3840,19,14,-255,-957,152,-28
3845,19,10,-257,-914,157,-22
3850,29,32,-252,-892,166,-60
3855,34,32,-255,-845,175,-22
3860,20,29,-254,-771,182,28
3865,19,30,-258,-698,182,50
3870,20,39,-259,-639,193,52
3875,23,41,-261,-579,196,70
3880,20,47,-259,-536,201,75
3885,23,49,-259,-535,203,85
3890,20,58,-257,-562,199,97
3895,11,75,-253,-641,190,79
3900,19,61,-264,-683,171,90
3905,20,62,-261,-679,151,95
3910,21,62,-260,-657,137,93
3915,20,60,-264,-631,131,96
3920,16,60,-268,-616,121,92
3925,16,59,-272,-610,99,86
3930,15,61,-270,-621,78,73
3935,13,58,-275,-641,54,70
3940,13,62,-271,-660,31,63
3945,10,62,-273,-672,11,55
3950,13,63,-270,-688,-10,47
3955,13,61,-273,-696,-26,45
3960,15,63,-266,-700,-39,41
3965,14,64,-268,-695,-52,41
3970,18,63,-260,-690,-61,40
3975,24,63,-259,-684,-74,45
3980,24,63,-258,-672,-85,58
3985,24,66,-255,-659,-95,91
3990,26,64,-257,-628,-99,92
3995,35,64,-258,-611,-96,100
4000,30,62,-262,-595,-85,115
4005,30,62,-258,-576,-72,133
4010,37,61,-269,-564,-58,144
4015,32,59,-266,-555,-32,163
4020,35,60,-264,-552,-11,167
4025,29,58,-263,-548,8,167
4030,24,60,-275,-568,12,147
4035,33,64,-269,-587,26,152
4040,26,60,-264,-561,38,173
4045,23,63,-263,-512,57,181
4050,29,62,-259,-475,59,177
4055,25,66,-260,-438,59,178
4060,19,65,-259,-403,66,167
4065,18,66,-256,-379,62,157
4070,16,69,-249,-357,55,144
4075,20,72,-249,-339,54,135
4080,13,74,-249,-325,47,127
4085,21,72,-248,-316,35,121
4090,21,76,-247,-306,29,122
4095,19,75,-244,-287,18,119
4100,19,75,-245,-263,12,113
4105,21,74,-249,-248,3,117
4110,22,71,-243,-230,3,119
4115,25,68,-246,-211,1,125
4120,20,65,-246,-193,1,128
4125,22,63,-245,-176,1,130
4130,23,63,-242,-154,2,134
4135,18,60,-247,-132,-3,141
4140,25,60,-246,-118,-5,145
4145,18,57,-243,-93,-8,165
4150,22,56,-245,-67,-3,159
4155,20,50,-246,-40,8,163
4160,22,50,-247,-6,16,163
4165,21,54,-249,25,25,166
4170,20,53,-244,55,34,170
4175,24,55,-242,87,41,173
4180,20,59,-244,113,42,173
4185,23,59,-247,140,43,174
4190,22,62,-246,156,42,172
4195,23,61,-251,177,44,175
4200,23,59,-249,202,45,177
4205,24,67,-246,228,45,181
4210,22,62,-250,253,48,177
4215,27,64,-251,289,47,176
4220,26,67,-250,318,45,176
4225,24,66,-255,342,39,179
4230,23,73,-255,357,33,180
4235,22,73,-253,368,30,177
4240,26,75,-257,382,27,179
4245,29,74,-256,398,25,181
4250,27,70,-253,412,26,177
4255,23,71,-251,424,29,176
4260,25,72,-252,441,31,173
4265,27,69,-256,463,37,174
4270,24,70,-261,485,44,172
4275,26,69,-255,501,48,172
4280,23,68,-260,514,52,172
4285,24,70,-264,529,55,172
4290,27,72,-258,546,54,171
4295,22,70,-261,557,53,168
4300,24,73,-262,565,50,167
4305,24,75,-266,568,45,164
4310,29,72,-263,573,42,160
4315,23,73,-261,581,34,153
4320,31,74,-263,590,30,142
4325,27,74,-265,596,26,134
4330,28,71,-262,596,18,126
4335,28,75,-272,605,16,117
4340,32,76,-266,611,21,111
4345,34,78,-272,613,28,104
4350,34,77,-266,607,35,96
4355,36,78,-267,597,47,91
4360,40,75,-265,590,54,89
4365,40,75,-264,579,61,86
4370,44,75,-263,572,68,86
4375,39,78,-269,562,76,85
4380,41,72,-262,558,82,86
4385,42,69,-267,553,89,87
4390,41,66,-261,556,95,87
4395,39,65,-266,563,100,89
4400,37,64,-266,579,104,94
4405,36,63,-268,598,105,96
4410,36,61,-268,616,106,99
4415,35,59,-270,633,108,99
4420,35,58,-270,654,111,100
4425,32,59,-274,673,113,101
4430,28,55,-270,688,113,99
4435,31,59,-273,701,109,98
4440,30,59,-267,706,106,96
4445,27,59,-268,704,99,97
4450,27,56,-267,700,90,97
4455,24,54,-269,698,84,95
4460,30,54,-265,694,85,92
4465,24,53,-263,691,86,86
4470,28,51,-273,689,89,81
4475,30,48,-272,693,92,75
4480,29,45,-264,704,90,77
4485,28,44,-272,718,85,79
4490,30,40,-268,729,84,84
4495,30,38,-270,736,82,87
4500,31,40,-272,738,83,92
4505,27,38,-271,736,87,94
4510,28,35,-267,739,90,97
4515,30,33,-267,742,95,99
4520,32,30,-263,744,97,103
4525,31,28,-262,745,97,106
4530,32,26,-264,749,95,112
4535,32,21,-258,759,97,114
4540,31,17,-262,775,97,117
4545,33,13,-262,786,97,119
4550,33,12,-263,796,97,125
4555,31,13,-256,804,100,130
4560,34,11,-256,811,100,136
4565,33,10,-258,819,103,143
4570,29,11,-257,822,104,149
4575,29,7,-255,829,109,151
4580,31,7,-256,835,116,156
4585,34,6,-254,844,122,156
4590,33,3,-252,855,128,158
4595,35,0,-252,872,131,158
4600,36,-3,-248,888,132,161
4605,36,-4,-251,905,131,159
4610,37,-3,-248,922,129,162
4615,37,-4,-247,939,128,166
4620,39,-4,-250,955,125,173
4625,41,-11,-249,975,123,179
4630,41,-13,-255,993,124,187
4635,42,-15,-257,1011,128,191
4640,41,-17,-255,1024,132,199
4645,40,-19,-255,1034,132,203
4650,35,-20,-256,1046,128,207
4655,35,-24,-258,1058,122,209
4660,35,-27,-257,1070,115,215
4665,32,-28,-258,1078,106,216
4670,34,-31,-256,1087,102,218
4675,32,-34,-260,1095,99,216
4680,34,-39,-259,1107,99,217
4685,35,-38,-260,1118,104,216
4690,34,-43,-258,1125,108,219
4695,33,-48,-258,1132,117,216
4700,34,-50,-257,1142,126,217
4705,34,-50,-258,1158,140,216
4710,34,-53,-259,1171,147,216
4715,33,-55,-258,1182,150,218
4720,34,-56,-262,1191,152,221
4725,33,-56,-257,1198,151,221
4730,32,-57,-254,1203,152,222
4735,30,-61,-250,1206,153,221
4740,33,-64,-248,1209,152,221
4745,32,-68,-244,1211,151,217
4750,32,-66,-247,1215,149,219
4755,32,-67,-245,1220,147,215
4760,35,-72,-243,1234,149,215
4765,27,-89,-238,1247,145,213
4770,47,-103,-236,1253,134,214
4775,54,-117,-240,1274,124,222
4780,47,-162,-242,1341,120,235
4785,51,-203,-252,1400,114,242
4790,72,-234,-287,1421,116,255
4795,97,-274,-322,1441,126,262
4800,104,-305,-367,1488,141,265
4805,112,-298,-432,1557,163,268
4810,112,-249,-497,1579,191,277
4815,117,-208,-518,1466,219,275
4820,124,-156,-510,1269,236,266
4825,114,-132,-496,1056,239,245
4830,111,-121,-446,897,214,228
4835,97,-120,-398,814,163,214
4840,80,-109,-341,823,84,218
4845,65,-100,-287,914,-8,235
4850,45,-78,-236,1064,-99,266
4855,35,-60,-201,1226,-168,297
4860,16,-29,-168,1368,-200,324
4865,-12,-7,-142,1460,-184,333
4870,-26,0,-116,1491,-103,329
4875,-34,0,-103,1456,-2,313
4880,-39,-11,-93,1375,104,295
4885,-36,-32,-98,1266,197,270
4890,-29,-55,-111,1144,260,246
4895,-26,-70,-120,1008,282,222
4900,-19,-98,-143,861,269,216
4905,-13,-117,-169,708,225,211
4910,-3,-134,-185,565,164,222
4915,1,-151,-195,445,96,227
4920,7,-165,-202,350,30,234
4925,12,-171,-212,290,-42,231
4930,18,-178,-208,250,-84,227
4935,18,-176,-207,248,-113,219
4940,20,-176,-209,282,-131,220
4945,21,-175,-206,344,-138,223
4950,22,-171,-205,422,-135,233
4955,19,-175,-202,514,-124,237
4960,21,-168,-212,621,-97,249
4965,22,-169,-205,738,-76,262
4970,16,-169,-206,861,-52,281
4975,17,-165,-214,982,-31,294
4980,10,-165,-211,1106,-9,306
4985,18,-163,-215,1187,-1,312
4990,11,-164,-215,1242,2,321
4995,14,-164,-219,1280,-3,321
5000,18,-163,-219,1304,-15,326
5005,20,-162,-219,1317,-34,322
5010,19,-157,-221,1329,-54,318
5015,18,-156,-224,1338,-70,308
5020,21,-150,-232,1345,-84,297
5025,23,-143,-229,1335,-90,278
5030,25,-136,-224,1314,-90,254
5035,25,-129,-228,1275,-86,226
5040,23,-130,-221,1238,-75,200
5045,21,-128,-219,1190,-65,170
5050,24,-125,-220,1136,-59,145
5055,20,-125,-214,1064,-53,119
5060,27,-131,-215,985,-44,96
5065,23,-132,-215,907,-34,73
5070,24,-133,-209,838,-22,61
5075,21,-136,-209,777,-11,47
5080,21,-137,-205,716,-2,37
5085,14,-143,-205,661,10,23
5090,12,-143,-204,606,13,17
5095,14,-148,-206,566,16,6
5100,8,-154,-209,531,17,2
5105,6,-154,-213,507,20,-5
5110,3,-155,-214,489,23,-6
5115,1,-159,-207,476,29,-15
5120,0,-158,-208,467,32,-16
5125,1,-160,-195,467,31,-18
5130,2,-165,-194,467,24,-20
5135,6,-169,-195,468,14,-28
5140,7,-168,-194,470,-3,-27
5145,10,-170,-189,465,-28,-27
5150,13,-173,-192,456,-47,-26
5155,13,-173,-185,443,-63,-34
5160,15,-174,-184,430,-78,-32
5165,22,-177,-185,414,-92,-45
5170,17,-179,-184,402,-102,-46
5175,21,-179,-183,394,-111,-49
5180,25,-183,-183,393,-113,-47
5185,23,-187,-180,398,-111,-48
5190,26,-189,-174,405,-110,-44
5195,29,-188,-176,409,-108,-50
5200,29,-191,-174,411,-98,-52
5205,29,-193,-170,409,-93,-61
5210,26,-192,-173,406,-84,-66
5215,32,-190,-175,401,-69,-71
5220,30,-187,-173,393,-53,-64
5225,24,-186,-172,381,-36,-67
5230,23,-184,-169,364,-22,-74
5235,22,-181,-171,351,-15,-92
5240,23,-186,-172,344,-4,-99
5245,18,-188,-169,350,7,-98
5250,15,-190,-171,355,12,-101
5255,12,-191,-170,364,23,-95
5260,12,-194,-170,373,26,-95
5265,11,-192,-170,382,26,-97
5270,9,-189,-169,387,29,-92
5275,11,-188,-170,386,17,-102
5280,9,-187,-166,378,6,-102
5285,15,-183,-178,360,-14,-118
5290,12,-182,-170,328,-21,-111
5295,11,-183,-173,293,-34,-109
5300,18,-185,-170,257,-50,-111
5305,25,-183,-174,224,-63,-117
5310,26,-187,-169,198,-68,-104
5315,28,-189,-174,178,-72,-98
5320,33,-192,-172,170,-80,-90
5325,34,-189,-173,168,-81,-85
5330,37,-192,-171,166,-82,-72
5335,38,-194,-172,160,-81,-60
5340,38,-192,-177,156,-80,-48
5345,37,-197,-178,153,-71,-41
5350,34,-196,-178,155,-59,-30
5355,32,-198,-179,159,-46,-28
5360,32,-197,-177,164,-32,-22
5365,30,-196,-175,169,-15,-21
5370,33,-190,-179,170,5,-18
5375,31,-190,-176,164,27,-21
5380,28,-187,-174,150,47,-17
5385,27,-183,-173,129,70,-15
5390,28,-184,-176,101,90,-7
5395,27,-181,-174,72,107,1
5400,25,-183,-175,43,120,13
5405,18,-176,-173,14,131,24
5410,20,-181,-169,-12,135,37
5415,20,-181,-169,-38,138,41
5420,14,-180,-173,-69,135,51
5425,13,-179,-167,-84,126,58
5430,16,-184,-168,-96,117,70
5435,17,-185,-174,-110,112,79
5440,17,-190,-170,-125,110,91
5445,16,-192,-173,-139,110,94
5450,17,-196,-177,-150,113,98
5455,19,-194,-174,-157,117,96
5460,14,-194,-179,-159,121,97
5465,12,-192,-174,-156,126,92
5470,14,-194,-179,-153,130,90
5475,14,-194,-175,-149,137,81
5480,13,-198,-176,-143,139,78
5485,20,-194,-173,-137,142,71
5490,14,-197,-182,-130,142,67
5495,15,-196,-182,-122,143,58
5500,14,-195,-179,-118,142,54
5505,12,-194,-177,-114,142,45
5510,17,-194,-179,-109,139,43
5515,17,-191,-178,-100,136,37
5520,16,-193,-179,-86,136,36
5525,19,-192,-177,-71,133,29
5530,17,-190,-174,-54,132,26
5535,14,-189,-173,-43,132,20
5540,12,-189,-174,-40,133,14
5545,11,-190,-175,-41,132,5
5550,13,-189,-174,-51,134,1
5555,9,-186,-177,-61,137,-10
5560,8,-187,-177,-71,138,-14
5565,8,-192,-177,-82,138,-19
5570,6,-184,-178,-85,140,-22
5575,7,-187,-179,-86,141,-28
5580,4,-185,-178,-82,141,-28
5585,5,-187,-180,-70,139,-31
5590,5,-183,-179,-59,136,-30
5595,3,-180,-180,-44,131,-32
5600,6,-181,-179,-36,127,-29
5605,6,-179,-177,-31,120,-29
5610,7,-178,-181,-31,115,-24
5615,12,-176,-178,-38,109,-21
5620,11,-180,-183,-48,103,-15
5625,11,-180,-179,-64,97,-10
5630,15,-185,-180,-79,91,-4
5635,17,-186,-178,-92,85,0
5640,20,-186,-178,-102,82,8
5645,17,-191,-180,-107,80,8
5650,24,-189,-183,-106,79,12
5655,23,-189,-182,-106,79,10
5660,23,-190,-185,-102,82,13
5665,31,-193,-187,-93,85,11
5670,28,-193,-190,-79,89,13
5675,29,-190,-188,-61,90,12
5680,28,-189,-185,-41,92,13
5685,27,-188,-187,-20,95,13
5690,28,-183,-188,-4,96,14
5695,29,-183,-189,7,99,13
5700,27,-181,-185,9,101,14
5705,26,-182,-189,5,103,12
5710,29,-178,-191,-2,105,12
5715,24,-175,-188,-13,110,9
5720,26,-178,-187,-25,113,9
5725,25,-177,-189,-36,115,7
5730,27,-178,-188,-44,118,5
5735,28,-177,-189,-52,121,1
5740,25,-178,-185,-54,122,0
5745,25,-179,-185,-55,120,-4
5750,23,-175,-185,-52,118,-5
5755,24,-175,-181,-48,113,-6
5760,22,-179,-184,-45,109,-6
5765,21,-179,-178,-44,105,-9
5770,20,-178,-184,-47,100,-11
5775,20,-179,-179,-53,95,-15
5780,17,-179,-183,-59,91,-14
5785,19,-179,-181,-66,88,-15
5790,17,-180,-182,-71,83,-13
5795,20,-181,-183,-75,80,-11
5800,18,-179,-181,-80,74,-7
5805,19,-182,-186,-85,67,-6
5810,20,-182,-180,-87,61,-2
5815,18,-183,-183,-88,54,-2
5820,17,-182,-181,-86,47,0
5825,15,-184,-183,-83,40,1
5830,13,-183,-178,-79,33,2
5835,18,-185,-181,-75,28,0
5840,17,-188,-179,-68,23,-3
5845,15,-187,-180,-59,20,-4
5850,17,-188,-180,-47,19,-6
5855,15,-186,-182,-35,17,-9
5860,17,-185,-180,-22,15,-11
5865,16,-183,-180,-11,15,-16
5870,16,-184,-182,-5,14,-18
5875,17,-180,-182,2,15,-22
5880,17,-181,-183,3,16,-24
5885,18,-181,-183,1,15,-28
5890,18,-182,-184,-3,18,-31
5895,17,-181,-181,-12,18,-34
5900,20,-180,-184,-21,19,-38
5905,20,-182,-184,-26,20,-41
5910,18,-181,-186,-30,22,-43
5915,15,-180,-184,-30,21,-47
5920,22,-180,-185,-27,23,-46
5925,18,-181,-189,-20,20,-48
5930,21,-181,-180,-15,18,-49
5935,21,-183,-183,-9,14,-48
5940,20,-182,-182,-5,10,-46
5945,22,-184,-180,-3,5,-47
5950,22,-184,-183,-1,2,-44
5955,21,-181,-181,-2,0,-43
5960,22,-181,-185,-8,-3,-42
5965,23,-183,-184,-15,-4,-40
5970,22,-180,-182,-25,-6,-39
5975,21,-181,-183,-39,-4,-40
5980,19,-183,-181,-52,-1,-37
5985,23,-183,-181,-65,3,-39
5990,25,-187,-182,-75,10,-37
5995,18,-189,-179,-77,15,-35
6000,23,-186,-177,-76,19,-34
6005,20,-186,-181,-71,23,-33
6010,20,-186,-181,-61,26,-33
6015,20,-186,-182,-49,30,-30
6020,22,-190,-179,-41,33,-25
6025,22,-187,-176,-30,35,-23
6030,19,-185,-178,-21,39,-19
6035,17,-184,-178,-11,43,-14
6040,21,-183,-178,-4,44,-10
6045,17,-183,-177,-1,46,-8
6050,18,-182,-183,-1,45,-8
6055,17,-182,-180,-4,45,-8
6060,16,-177,-181,-8,46,-9
6065,15,-180,-182,-14,46,-7
6070,18,-183,-184,-20,50,-5
6075,18,-185,-184,-24,60,-3
6080,16,-187,-186,-26,70,1
6085,18,-186,-186,-25,85,1
6090,15,-184,-188,-24,96,3
6095,17,-185,-186,-18,103,6
6100,18,-181,-187,-16,109,8
6105,17,-179,-188,-11,111,10
6110,17,-181,-186,-3,111,12
6115,19,-176,-187,2,108,15
6120,22,-178,-187,10,102,17
6125,22,-179,-187,16,100,23
6130,19,-180,-190,21,96,28
6135,22,-179,-187,26,92,33
6140,18,-180,-192,35,92,38
6145,19,-180,-190,44,92,42
6150,20,-182,-186,51,90,45
6155,20,-181,-187,59,89,46
6160,21,-180,-187,62,88,43
6165,23,-178,-186,61,89,39
6170,20,-178,-183,55,86,34
6175,18,-175,-180,45,88,29
6180,19,-177,-183,31,88,22
6185,19,-180,-180,19,88,16
6190,21,-179,-180,4,89,13
6195,18,-180,-180,-3,89,7
6200,18,-183,-180,-4,89,2
6205,20,-186,-178,-1,90,1
6210,19,-186,-180,5,90,-2
6215,17,-184,-178,14,90,-5
6220,16,-186,-178,24,91,-10
6225,19,-185,-180,31,93,-12
6230,16,-184,-179,34,93,-15
6235,17,-184,-182,36,94,-17
6240,14,-185,-179,34,93,-21
6245,18,-187,-178,29,93,-22
6250,18,-185,-180,22,93,-23
6255,18,-183,-179,15,90,-24
6260,21,-186,-180,10,86,-25
6265,15,-183,-180,3,82,-24
6270,19,-186,-182,-5,80,-24
6275,14,-186,-182,-14,74,-22
6280,19,-186,-181,-22,71,-22
6285,17,-186,-183,-29,66,-19
6290,18,-183,-185,-35,60,-18
6295,21,-186,-180,-39,54,-15
6300,21,-183,-179,-40,48,-18
6305,24,-185,-183,-40,42,-16
6310,22,-183,-183,-43,38,-18
6315,21,-180,-180,-49,35,-18
6320,20,-181,-183,-59,34,-19
6325,24,-185,-181,-69,31,-19
6330,25,-183,-181,-79,33,-20
6335,21,-182,-180,-91,32,-22
6340,25,-185,-184,-100,34,-26
6345,23,-182,-183,-109,38,-28
6350,24,-184,-181,-117,42,-31
6355,23,-184,-184,-129,47,-31
6360,27,-183,-183,-139,52,-31
6365,27,-186,-182,-143,56,-29
6370,26,-183,-180,-145,60,-29
6375,24,-184,-182,-144,64,-28
6380,26,-184,-181,-139,67,-27
6385,26,-182,-184,-135,69,-23
6390,26,-182,-184,-128,69,-22
6395,29,-181,-182,-122,70,-19
6400,24,-181,-182,-118,69,-18
6405,27,-185,-181,-115,70,-12
6410,24,-186,-181,-109,69,-10
6415,23,-185,-181,-104,67,-8
6420,23,-182,-178,-99,65,-6
6425,21,-182,-182,-91,64,-4
6430,20,-184,-184,-83,62,-2
6435,18,-184,-182,-73,61,2
6440,20,-184,-186,-64,61,2
6445,17,-184,-180,-56,61,7
6450,17,-184,-182,-50,62,8
6455,18,-179,-181,-46,62,11
6460,15,-182,-180,-43,61,11
6465,19,-185,-178,-42,59,13
6470,15,-179,-180,-43,57,13
6475,16,-183,-180,-44,54,14
6480,14,-180,-177,-42,50,13
6485,14,-182,-183,-36,47,13
6490,13,-181,-181,-32,45,11
6495,16,-183,-183,-24,44,12
6500,15,-183,-182,-17,43,8
6505,15,-183,-182,-10,44,9
6510,15,-182,-180,-5,44,7
6515,16,-182,-181,-2,46,8
6520,17,-184,-181,-1,46,4
6525,18,-186,-182,1,50,3
6530,18,-182,-185,-1,48,1
6535,18,-183,-180,0,47,3
6540,19,-186,-182,0,45,0
6545,21,-185,-184,1,43,0
6550,23,-186,-184,2,44,-3
6555,19,-185,-184,4,45,-2
6560,19,-184,-184,5,46,-7
6565,18,-181,-187,6,49,-6
6570,21,-181,-188,7,52,-9
6575,20,-180,-187,6,55,-9
6580,20,-180,-189,7,59,-13
6585,20,-178,-186,7,63,-10
6590,19,-178,-184,3,64,-12
6595,18,-180,-184,-1,67,-9
6600,17,-179,-182,-8,69,-10
6605,16,-179,-181,-14,70,-8
6610,21,-180,-183,-22,69,-10
6615,16,-180,-179,-26,69,-6
6620,19,-180,-180,-31,73,-7
6625,17,-180,-181,-33,74,-5
6630,20,-181,-181,-32,77,-6
6635,21,-181,-180,-29,82,-3
6640,20,-181,-180,-26,84,-1
6645,21,-182,-182,-22,87,3
6650,22,-180,-181,-21,90,5
6655,21,-181,-181,-18,92,9
6660,20,-181,-184,-16,95,10
6665,23,-181,-182,-13,94,15
6670,26,-182,-181,-12,97,15
6675,24,-182,-182,-13,99,19
6680,23,-182,-187,-14,99,16
6685,20,-182,-183,-17,98,18
6690,26,-178,-184,-18,97,15
6695,23,-181,-184,-19,94,15
6700,23,-183,-183,-18,91,12
6705,23,-183,-182,-17,89,11
6710,20,-183,-186,-14,87,6
6715,22,-181,-185,-13,84,7
6720,22,-182,-185,-11,80,1
6725,23,-183,-182,-10,78,2
6730,21,-182,-183,-10,75,-3
6735,22,-181,-185,-12,73,-2
6740,22,-184,-182,-12,71,-6
6745,22,-183,-182,-15,71,-5
6750,17,-182,-181,-17,71,-8
6755,21,-180,-183,-18,72,-6
6760,23,-182,-185,-18,72,-9
6765,20,-181,-181,-19,71,-7
6770,21,-185,-182,-23,72,-10
6775,22,-179,-180,-25,72,-6
6780,19,-180,-180,-28,73,-8
6785,18,-179,-182,-31,72,-6
6790,19,-184,-181,-34,73,-9
6795,18,-184,-182,-40,75,-7
6800,17,-180,-179,-49,77,-9
6805,18,-182,-178,-57,77,-7
6810,18,-181,-180,-62,78,-9
6815,19,-181,-182,-69,81,-6
6820,21,-181,-184,-72,83,-9
6825,19,-180,-181,-76,84,-6
6830,20,-182,-186,-76,87,-7
6835,18,-180,-183,-76,89,-3
6840,21,-185,-181,-75,90,-5
6845,20,-183,-185,-72,91,-1
6850,22,-182,-184,-66,92,-2
6855,21,-182,-184,-59,93,1
6860,20,-182,-190,-49,92,0
6865,18,-181,-188,-36,91,4
6870,20,-178,-186,-22,88,3
6875,21,-179,-190,-10,85,6
6880,19,-179,-188,-2,85,4
6885,21,-180,-188,5,82,7
6890,19,-180,-185,6,82,5
6895,20,-179,-186,3,80,6
6900,22,-176,-190,-1,78,4
6905,22,-180,-189,-9,76,5
6910,19,-179,-187,-14,77,1
6915,18,-179,-183,-20,74,3
6920,17,-178,-182,-25,71,2
6925,20,-180,-183,-26,68,1
6930,16,-178,-183,-29,65,-2
6935,18,-179,-181,-28,63,-2
6940,20,-181,-183,-29,61,-6
6945,19,-182,-181,-30,57,-4
6950,19,-182,-182,-27,58,-8
6955,20,-183,-182,-28,57,-6
6960,22,-183,-180,-25,58,-8
6965,21,-180,-181,-23,59,-6
6970,22,-180,-181,-20,61,-8
6975,19,-181,-183,-17,64,-8
6980,22,-182,-182,-13,66,-10
6985,20,-180,-183,-10,69,-8
6990,21,-181,-185,-7,72,-10
6995,20,-181,-185,-6,74,-7
7000,21,-182,-184,-5,77,-7
7005,20,-180,-182,-3,79,-7
7010,19,-179,-184,-1,79,-8
7015,23,-178,-182,2,80,-4
7020,20,-180,-183,6,81,-7
7025,23,-183,-183,10,80,-7
7030,23,-181,-185,15,78,-9
7035,24,-182,-186,20,76,-7
7040,20,-182,-187,24,75,-9
7045,22,-179,-184,30,75,-6
7050,22,-182,-188,33,71,-11
7055,22,-179,-184,34,68,-10
7060,24,-179,-187,33,65,-13
7065,24,-177,-181,31,65,-12
7070,21,-178,-184,25,62,-16
7075,21,-177,-183,19,61,-14
7080,22,-176,-183,11,60,-17
7085,20,-177,-183,6,60,-14
7090,19,-174,-186,-2,57,-17
7095,19,-176,-183,-6,57,-14
7100,22,-177,-184,-11,56,-17
7105,21,-180,-181,-15,55,-14
7110,19,-176,-183,-19,54,-16
7115,20,-175,-182,-24,54,-13
7120,24,-180,-180,-24,56,-15
7125,22,-179,-183,-26,56,-11
7130,21,-181,-180,-26,56,-12
7135,20,-180,-187,-26,55,-9
7140,20,-181,-183,-25,55,-9
7145,21,-182,-187,-27,56,-6
7150,22,-182,-184,-28,56,-8
7155,22,-183,-184,-30,57,-6
7160,19,-179,-182,-29,58,-9
7165,21,-179,-182,-29,60,-7
7170,22,-179,-182,-29,62,-9
7175,22,-181,-186,-29,63,-7
7180,22,-180,-184,-31,65,-9
7185,23,-182,-187,-32,67,-6
7190,20,-179,-184,-33,69,-8
7195,22,-183,-181,-34,69,-4
7200,24,-183,-183,-36,69,-5
7205,25,-184,-185,-35,72,-2
7210,25,-182,-181,-34,74,-5
7215,23,-181,-185,-31,77,-3
7220,23,-182,-187,-29,79,-4
7225,22,-180,-186,-27,78,-2
7230,23,-183,-181,-25,80,-4
7235,24,-181,-181,-24,82,0
7240,25,-185,-184,-23,81,-2
7245,21,-182,-183,-21,82,0
7250,21,-180,-183,-23,79,-2
7255,22,-183,-186,-21,77,0
7260,20,-183,-184,-22,77,-3
7265,22,-181,-183,-21,76,-2
7270,23,-185,-185,-22,76,-4
7275,22,-182,-184,-20,76,-2
7280,26,-179,-177,-19,77,-2
7285,24,-185,-186,-20,78,0
7290,19,-181,-186,-19,80,-2
7295,23,-182,-183,-20,82,0
7300,21,-179,-189,-19,85,-1
7305,20,-178,-189,-21,87,2
7310,23,-178,-187,-23,88,0
7315,22,-178,-184,-24,90,3
7320,22,-180,-183,-28,90,2
7325,23,-180,-184,-30,89,4
7330,22,-179,-182,-32,88,3
7335,21,-180,-182,-36,87,4
7340,22,-178,-182,-36,86,2
7345,22,-179,-183,-35,84,5
7350,25,-180,-180,-31,84,3
7355,21,-179,-181,-24,83,5
7360,22,-182,-182,-18,81,1
7365,21,-181,-183,-10,79,4
7370,25,-181,-186,-4,78,1
7375,24,-178,-181,0,76,1
7380,21,-180,-183,4,74,-1
7385,23,-181,-183,5,73,-1
7390,24,-179,-182,3,71,-4
7395,20,-182,-181,1,69,-3
7400,20,-179,-180,-3,67,-6
7405,22,-181,-183,-9,66,-5
7410,21,-181,-181,-10,65,-7
7415,25,-180,-186,-13,65,-3
7420,22,-179,-181,-15,62,-6
7425,23,-180,-180,-16,62,-4
7430,20,-178,-185,-16,63,-5
7435,22,-180,-183,-17,62,-3
7440,23,-179,-185,-16,63,-4
7445,21,-179,-184,-16,64,-4
7450,21,-185,-182,-14,65,-4
7455,22,-184,-184,-12,64,-2
7460,21,-180,-182,-9,65,-4
7465,19,-179,-181,-9,66,-1
7470,20,-182,-183,-8,68,-4
7475,23,-183,-185,-9,66,0
7480,23,-182,-185,-9,65,-1
7485,20,-182,-182,-9,64,-1
7490,21,-182,-184,-8,64,-2
7495,22,-182,-184,-9,66,0
7500,21,-184,-182,-8,65,-1
7505,21,-180,-182,-7,67,0
7510,23,-182,-186,-3,69,-2
7515,21,-183,-184,1,70,2
7520,22,-180,-185,5,70,-2
7525,20,-183,-180,9,70,0
7530,23,-180,-183,11,70,-1
7535,23,-182,-183,13,70,0
7540,22,-177,-183,13,68,-3
7545,22,-180,-185,13,67,-3
7550,24,-180,-180,12,67,-4
7555,20,-179,-181,11,65,-3
7560,20,-180,-182,11,65,-3
7565,23,-179,-182,10,63,-2
7570,23,-180,-182,5,62,-6
7575,23,-178,-182,1,61,-5
7580,22,-178,-185,-4,61,-8
7585,25,-180,-181,-8,60,-8
7590,20,-179,-182,-13,60,-9
7595,24,-181,-182,-19,60,-8
7600,23,-179,-183,-21,61,-9
7605,23,-181,-181,-23,62,-8
7610,23,-177,-185,-24,62,-10
7615,21,-182,-182,-24,63,-8
7620,22,-180,-180,-23,65,-8
7625,24,-182,-182,-21,64,-5
7630,25,-181,-185,-20,66,-8
7635,24,-180,-186,-21,67,-6
7640,21,-180,-186,-21,66,-6
7645,23,-181,-182,-20,67,-3
7650,21,-185,-188,-20,67,-3
7655,23,-185,-184,-21,66,-2
7660,23,-182,-182,-22,66,-2
7665,22,-182,-183,-22,66,-4
7670,19,-180,-182,-22,66,-5
7675,24,-180,-180,-23,66,-4
7680,23,-180,-183,-22,66,-5
7685,21,-178,-182,-19,67,-3
7690,21,-183,-182,-17,66,-6
7695,20,-182,-181,-14,67,-6
7700,19,-178,-181,-11,68,-7
7705,20,-182,-184,-9,69,-7
7710,21,-181,-183,-6,68,-8
7715,19,-179,-186,-3,68,-6
7720,19,-181,-183,-3,71,-7
7725,20,-182,-184,-4,68,-6
7730,21,-181,-184,-6,69,-7
7735,21,-179,-181,-9,69,-5
7740,17,-180,-182,-13,67,-4
7745,22,-181,-182,-15,68,-3
7750,22,-182,-184,-16,67,-3
7755,21,-181,-183,-21,65,-2
7760,22,-177,-182,-24,65,-3
7765,20,-179,-186,-25,65,-1
7770,22,-177,-186,-26,64,-2
7775,18,-178,-184,-30,63,0
7780,20,-177,-187,-33,63,0
7785,21,-177,-183,-38,64,2
7790,22,-183,-182,-41,64,2
7795,20,-179,-184,-43,62,6
7800,23,-179,-187,-43,60,6
7805,25,-182,-182,-43,59,9
7810,23,-183,-182,-43,53,11
7815,24,-185,-183,-45,50,14
7820,26,-184,-181,-45,42,17
7825,28,-184,-187,-48,36,20
7830,29,-183,-186,-45,28,22
7835,29,-185,-191,-41,21,25
7840,30,-182,-187,-35,14,26
7845,28,-183,-191,-27,13,26
7850,30,-184,-188,-17,15,24
7855,33,-182,-188,-9,19,23
7860,29,-183,-189,-5,27,20
7865,32,-178,-189,-1,37,17
7870,30,-181,-188,-2,48,14
7875,26,-181,-187,-2,61,12
7880,28,-177,-184,-4,76,13
7885,27,-181,-186,-11,87,15
7890,28,-179,-184,-14,95,19
7895,24,-177,-182,-14,103,25
7900,24,-179,-181,-12,107,27
7905,21,-181,-180,-7,115,27
7910,21,-182,-185,-6,123,23
7915,19,-183,-183,-13,132,17
7920,15,-186,-180,-28,140,11
7925,14,-187,-181,-45,146,3
7930,15,-186,-183,-55,152,-1
7935,17,-186,-182,-58,157,-5
7940,18,-189,-182,-54,162,-5
7945,14,-187,-186,-47,170,-8
7950,13,-187,-188,-43,181,-12
7955,14,-191,-192,-45,190,-16
7960,13,-191,-188,-47,201,-20
7965,14,-193,-189,-43,208,-25
7970,16,-188,-191,-31,212,-27
7975,17,-189,-187,-6,209,-29
7980,16,-186,-185,24,201,-26
7985,14,-184,-184,60,184,-23
7990,17,-184,-184,97,167,-14
7995,19,-188,-182,131,151,-6
8000,19,-182,-182,158,133,6
8005,22,-185,-182,182,123,16
8010,25,-184,-182,198,118,23
8015,26,-186,-185,209,116,29
8020,27,-183,-185,216,123,32
8025,30,-185,-190,213,131,31
8030,27,-186,-191,203,146,27
8035,26,-190,-190,187,161,22
8040,24,-187,-189,167,178,17
8045,23,-186,-190,146,198,11
8050,22,-189,-191,125,214,6
8055,21,-188,-190,107,228,-3
8060,20,-190,-186,94,235,-11
8065,19,-193,-184,88,236,-17
8070,19,-189,-182,89,233,-22
8075,20,-191,-179,94,224,-22
8080,18,-184,-178,100,212,-20
8085,18,-180,-181,100,202,-16
8090,18,-175,-178,90,192,-13
8095,21,-175,-175,78,183,-11
8100,17,-167,-179,60,177,-12
8105,20,-169,-173,41,170,-16
8110,18,-165,-174,22,159,-24
8115,20,-164,-169,-7,146,-31
8120,21,-164,-166,-32,129,-36
8125,23,-165,-166,-54,105,-42
8130,28,-166,-160,-77,76,-46
8135,25,-166,-161,-99,46,-48
8140,31,-167,-159,-121,8,-47
8145,33,-169,-156,-144,-31,-50
8150,36,-172,-154,-169,-75,-52
8155,40,-169,-155,-192,-117,-61
8160,47,-169,-159,-213,-159,-70
8165,49,-172,-159,-233,-204,-75
8170,50,-171,-163,-254,-242,-75
8175,52,-174,-165,-264,-280,-77
8180,54,-177,-166,-262,-320,-81
8185,53,-177,-170,-251,-354,-85
8190,50,-176,-177,-222,-379,-86
8195,48,-183,-179,-186,-396,-86
8200,44,-187,-185,-152,-400,-78
8205,39,-187,-192,-122,-388,-70
8210,37,-184,-196,-105,-360,-55
8215,32,-186,-202,-96,-311,-43
8220,31,-187,-211,-88,-239,-31
8225,27,-186,-212,-67,-168,-23
8230,29,-184,-215,-32,-94,-18
8235,31,-187,-216,25,-19,-10
8240,27,-189,-210,102,51,0
8245,23,-190,-204,189,112,6
8250,20,-193,-198,277,160,10
8255,21,-193,-193,349,194,18
8260,14,-196,-184,401,213,29
8265,11,-193,-176,427,218,38
8270,8,-193,-175,435,212,51
8275,7,-191,-169,422,196,66
8280,10,-185,-166,393,182,83
8285,11,-180,-164,358,167,97
8290,12,-177,-160,314,149,112
8295,12,-178,-163,267,131,127
8300,12,-181,-154,217,113,138
8305,11,-182,-156,174,95,147
8310,11,-185,-153,149,82,153
8315,14,-187,-153,139,73,155
8320,16,-187,-159,145,63,152
8325,14,-190,-161,156,53,143
8330,15,-191,-159,171,40,130
8335,18,-200,-160,191,31,115
8340,18,-205,-159,208,29,104
8345,20,-220,-161,227,37,91
8350,22,-221,-159,252,64,85
8355,25,-220,-165,286,105,79
8360,25,-218,-172,320,150,71
8365,29,-218,-179,363,194,60
8370,26,-210,-185,417,232,52
8375,24,-202,-190,481,265,45
8380,22,-196,-195,532,290,55
8385,22,-195,-201,571,308,61
8390,22,-186,-198,605,306,65
8395,25,-176,-197,623,297,65
8400,21,-163,-195,620,288,65
8405,22,-155,-199,594,272,55
8410,17,-146,-201,537,255,44
8415,20,-154,-192,451,232,29
8420,18,-157,-183,348,206,16
8425,19,-168,-177,247,179,3
8430,19,-172,-177,158,153,-7
8435,16,-169,-170,75,127,-18
8440,17,-169,-172,1,100,-29
8445,12,-171,-170,-82,74,-38
8450,10,-170,-162,-141,47,-45
8455,12,-170,-159,-193,25,-51
8460,12,-178,-153,-236,10,-56
8465,12,-179,-149,-273,0,-62
8470,15,-173,-149,-305,-4,-66
8475,18,-175,-147,-347,-6,-71
8480,19,-176,-145,-397,-8,-67
8485,20,-179,-143,-452,-14,-67
8490,22,-181,-148,-513,-16,-61
8495,26,-183,-148,-584,-14,-65
8500,30,-186,-153,-641,-7,-64
8505,29,-183,-156,-689,-2,-66
8510,31,-178,-160,-735,0,-66
8515,31,-185,-160,-773,1,-69
8520,27,-186,-157,-811,3,-70
8525,27,-191,-158,-855,-1,-79
8530,21,-193,-163,-908,-2,-81
8535,22,-195,-165,-963,-4,-86
8540,26,-198,-170,-1011,-3,-87
8545,22,-199,-172,-1048,1,-93
8550,23,-198,-175,-1058,6,-89
8555,27,-197,-174,-1051,9,-87
8560,19,-196,-171,-1036,10,-87
8565,19,-196,-172,-1010,11,-86
8570,26,-199,-167,-982,9,-84
8575,21,-198,-168,-958,13,-93
8580,22,-197,-167,-945,16,-96
8585,21,-198,-164,-951,17,-107
8590,21,-196,-169,-974,21,-112
8595,18,-197,-170,-1012,21,-120
8600,17,-192,-173,-1059,23,-121
8605,20,-197,-177,-1101,20,-125
8610,21,-195,-177,-1138,23,-126
8615,20,-192,-178,-1156,25,-129
8620,18,-186,-179,-1177,23,-128
8625,19,-182,-180,-1207,21,-134
8630,16,-175,-180,-1244,17,-138
8635,17,-176,-184,-1291,13,-148
8640,15,-176,-188,-1348,8,-155
8645,12,-175,-186,-1403,-3,-170
8650,10,-173,-191,-1438,-24,-180
8655,12,-179,-192,-1446,-52,-193
8660,16,-180,-189,-1433,-96,-205
8665,18,-181,-193,-1401,-134,-215
8670,21,-180,-199,-1377,-171,-211
8675,29,-180,-210,-1364,-189,-205
8680,31,-171,-219,-1353,-190,-189
8685,36,-166,-224,-1346,-167,-174
8690,37,-155,-233,-1345,-124,-158
8695,38,-148,-234,-1363,-68,-149
8700,41,-140,-233,-1396,-8,-141
8705,33,-135,-233,-1430,44,-141
8710,28,-135,-224,-1471,83,-141
8715,24,-137,-218,-1511,109,-152
8720,21,-135,-211,-1548,113,-153
8725,19,-127,-210,-1559,99,-154
8730,15,-129,-209,-1555,75,-150
8735,20,-121,-208,-1526,45,-150
8740,19,-115,-206,-1492,12,-147
8745,25,-115,-204,-1468,-19,-150
8750,24,-101,-216,-1454,-39,-149
8755,27,-102,-222,-1454,-55,-148
8760,23,-101,-224,-1475,-63,-141
8765,25,-105,-226,-1508,-66,-139
8770,21,-99,-232,-1550,-59,-142
8775,24,-98,-235,-1589,-53,-151
8780,27,-96,-241,-1607,-52,-155
8785,25,-92,-241,-1621,-52,-161
8790,30,-86,-248,-1636,-50,-169
8795,31,-94,-250,-1624,-59,-179
8800,39,-93,-250,-1574,-67,-180
8805,38,-94,-255,-1507,-71,-187
8810,43,-100,-256,-1441,-69,-194
8815,47,-96,-255,-1374,-53,-210
8820,48,-93,-253,-1321,-27,-231
8825,43,-100,-253,-1276,-3,-246
8830,37,-102,-248,-1250,13,-255
8835,32,-99,-243,-1244,20,-262
8840,23,-104,-230,-1252,25,-260
8845,21,-107,-226,-1269,34,-269
8850,20,-112,-230,-1285,45,-272
8855,18,-108,-223,-1292,38,-260
8860,15,-117,-238,-1301,41,-279
8865,8,-122,-253,-1299,18,-280
8870,12,-135,-268,-1307,-9,-263
8875,12,-135,-274,-1315,-33,-246
8880,18,-147,-287,-1302,-50,-226
8885,24,-157,-297,-1256,-53,-214
8890,34,-158,-298,-1181,-48,-194
8895,36,-158,-299,-1086,-33,-177
8900,39,-139,-293,-984,-23,-136
8905,40,-131,-308,-875,0,-135
8910,39,-118,-308,-772,10,-117
8915,36,-102,-309,-686,15,-107
8920,37,-90,-312,-624,23,-97
8925,35,-77,-310,-577,29,-95
8930,29,-61,-308,-545,35,-93
8935,28,-54,-306,-537,37,-100
8940,23,-43,-303,-554,37,-102
8945,23,-35,-306,-588,35,-107
8950,26,-32,-306,-634,39,-107
8955,27,-27,-307,-681,47,-109
8960,27,-17,-309,-723,63,-104
8965,29,-13,-316,-757,80,-102
8970,28,-14,-314,-785,94,-92
8975,25,-11,-319,-810,101,-86
8980,23,-15,-318,-831,102,-78
8985,25,-14,-320,-854,94,-77
8990,24,-16,-321,-881,82,-76
8995,28,-15,-320,-911,69,-81
9000,28,-11,-318,-947,59,-82
9005,33,-8,-313,-982,57,-90
9010,34,-5,-308,-1016,64,-92
9015,38,-5,-312,-1043,76,-97
9020,35,-3,-309,-1060,91,-95
9025,31,-1,-311,-1075,107,-94
9030,29,3,-307,-1090,120,-91
9035,23,0,-304,-1100,127,-92
9040,22,1,-304,-1112,130,-90
9045,17,1,-303,-1117,121,-91
9050,21,3,-306,-1127,109,-87
9055,20,3,-305,-1138,95,-85
9060,24,4,-304,-1156,82,-78
9065,16,18,-275,-1178,65,-81
9070,25,13,-302,-1201,54,-77
9075,30,13,-308,-1219,45,-76
9080,33,15,-308,-1217,43,-70
9085,34,19,-307,-1193,39,-64
9090,34,20,-308,-1150,36,-49
9095,35,25,-309,-1099,31,-34
9100,32,23,-307,-1027,23,-19
9105,32,28,-307,-966,18,-8
9110,26,30,-306,-900,12,6
9115,26,31,-307,-830,10,10
9120,27,34,-308,-766,10,16
9125,25,40,-309,-714,12,21
9130,25,47,-301,-671,9,26
9135,22,53,-301,-648,4,21
9140,22,59,-297,-657,4,17
9145,22,62,-289,-681,7,3
9150,26,65,-283,-714,4,-2
9155,23,67,-276,-755,6,-8
9160,25,62,-275,-784,8,-11
9165,22,58,-273,-803,10,-22
9170,24,54,-272,-816,15,-25
9175,21,50,-271,-826,23,-32
9180,23,51,-273,-836,36,-35
9185,21,48,-270,-838,51,-39
9190,27,48,-272,-831,61,-40
9195,28,45,-264,-816,68,-42
9200,25,40,-271,-793,64,-42
9205,26,36,-273,-763,61,-52
9210,22,35,-274,-722,57,-54
9215,22,34,-274,-685,52,-66
9220,23,34,-281,-648,52,-70
9225,25,29,-279,-602,54,-78
9230,25,26,-283,-542,58,-81
9235,25,26,-282,-479,64,-92
9240,26,28,-280,-421,64,-100
9245,25,30,-278,-359,66,-107
9250,24,36,-277,-289,62,-113
9255,27,36,-284,-220,59,-121
9260,27,43,-287,-146,56,-127
9265,26,48,-282,-55,57,-129
9270,24,51,-286,11,60,-130
9275,25,53,-277,83,64,-128
9280,24,57,-279,161,67,-120
9285,23,60,-270,245,74,-115
9290,21,59,-273,316,86,-108
9295,24,61,-270,385,87,-110
9300,22,59,-270,454,92,-102
9305,22,60,-275,523,95,-96
9310,25,52,-272,594,100,-83
9315,21,46,-271,666,114,-68
9320,22,39,-265,754,126,-54
9325,23,37,-272,839,132,-47
9330,21,32,-265,916,138,-30
9335,18,25,-265,978,141,-22
9340,22,11,-258,1047,139,-21
9345,23,12,-260,1113,138,-21
9350,18,3,-264,1167,138,-15
9355,23,-3,-260,1223,124,-19
9360,20,-3,-263,1270,115,-13
9365,21,-14,-259,1309,111,-8
9370,25,-15,-257,1329,109,-7
9375,23,-22,-255,1321,109,-18
9380,24,-23,-254,1303,98,-34
9385,28,-28,-253,1279,81,-56
9390,25,-28,-255,1259,62,-72
9395,28,-30,-253,1257,43,-95
9400,29,-32,-260,1260,29,-109
9405,21,-33,-259,1257,15,-116
9410,27,-31,-257,1257,2,-114
9415,20,-34,-254,1259,-4,-105
9420,21,-33,-258,1273,-15,-88
9425,22,-31,-260,1298,-28,-69
9430,23,-33,-261,1339,-40,-58
9435,28,-30,-260,1383,-49,-43
9440,24,-27,-267,1431,-55,-22
9445,26,-33,-259,1475,-58,-4
9450,24,-26,-263,1505,-56,25
9455,27,-29,-262,1517,-64,54
9460,24,-35,-258,1521,-73,65
9465,21,-39,-249,1542,-73,74
9470,21,-43,-252,1562,-75,86
9475,27,-50,-249,1574,-69,89
9480,27,-52,-247,1591,-62,79
9485,25,-56,-242,1596,-53,59
9490,30,-63,-243,1603,-52,57
9495,30,-65,-239,1608,-42,36
9500,31,-71,-232,1611,-34,19
9505,31,-74,-229,1615,-25,-2
9510,29,-67,-225,1615,-14,-24
9515,30,-82,-233,1617,-12,-31
9520,37,-81,-229,1615,-13,-46
9525,30,-78,-228,1608,-11,-69
9530,30,-77,-226,1602,-15,-75
9535,32,-78,-232,1602,-19,-79
9540,27,-75,-229,1605,-17,-76
9545,30,-81,-228,1622,-14,-72
9550,27,-81,-230,1638,-10,-76
9555,23,-82,-220,1649,-5,-77
9560,24,-82,-223,1664,0,-66
9565,29,-87,-227,1682,0,-58
9570,22,-88,-225,1701,-2,-52
9575,32,-90,-226,1726,-5,-31
9580,27,-92,-231,1736,-4,-17
9585,24,-90,-227,1730,3,-23
9590,26,-91,-222,1723,13,-23
9595,28,-90,-220,1722,13,-23
9600,36,-90,-214,1719,18,-21
9605,28,-96,-217,1714,31,-37
9610,30,-99,-216,1707,32,-24
9615,34,-102,-215,1699,37,4
9620,33,-104,-215,1675,45,18
9625,31,-106,-215,1639,54,13
9630,32,-109,-216,1601,62,4
9635,32,-108,-210,1565,66,-2
9640,34,-113,-213,1538,66,-2
9645,27,-113,-212,1521,63,3
9650,22,-114,-218,1511,63,9
9655,28,-110,-207,1503,69,-1
9660,39,-119,-208,1505,69,30
9665,33,-120,-205,1501,79,44
9670,32,-120,-202,1496,93,48
9675,28,-120,-200,1489,100,47
9680,30,-125,-196,1491,101,53
9685,32,-123,-195,1497,101,59
9690,30,-127,-191,1498,103,64
9695,32,-124,-196,1495,108,65
9700,28,-125,-191,1483,113,68
9705,23,-121,-191,1477,115,51
9710,32,-126,-197,1475,109,77
9715,25,-124,-194,1455,109,85
9720,26,-126,-186,1431,116,84
9725,20,-125,-185,1411,117,80
9730,24,-129,-189,1390,116,81
9735,16,-126,-184,1374,116,80
9740,17,-128,-181,1360,117,77
9745,14,-131,-182,1354,114,76
9750,19,-136,-181,1361,109,89
9755,9,-137,-182,1376,101,93
9760,6,-141,-178,1377,96,83
9765,10,-140,-179,1380,87,71
9770,8,-140,-177,1386,77,62
9775,8,-142,-180,1395,69,57
9780,10,-140,-177,1404,60,53
9785,7,-139,-177,1413,51,51
9790,7,-140,-175,1423,42,58
9795,11,-145,-175,1443,29,58
9800,10,-144,-174,1456,15,68
9805,12,-145,-167,1457,7,73
9810,14,-146,-167,1452,4,74
9815,12,-145,-167,1438,8,72
9820,12,-147,-165,1419,14,72
9825,16,-147,-163,1402,20,73
9830,15,-148,-159,1383,27,72
9835,15,-148,-162,1362,37,63
9840,13,-150,-156,1338,44,47
9845,12,-150,-160,1299,46,70
9850,12,-151,-157,1259,47,91
9855,12,-148,-161,1216,42,98
9860,10,-146,-157,1162,33,103
9865,9,-147,-157,1097,21,107
9870,4,-149,-158,1049,10,122
9875,2,-154,-151,1012,0,135
9880,3,-155,-150,983,-16,147
9885,-3,-155,-156,955,-28,153
9890,0,-155,-156,926,-39,161
9895,-3,-158,-155,897,-47,171
9900,-9,-159,-154,867,-50,182
9905,-9,-166,-152,831,-47,196
9910,-11,-167,-152,798,-40,206
9915,-3,-177,-159,776,-32,246
9920,-6,-180,-152,739,-11,248
9925,-5,-184,-148,704,8,236
9930,-3,-191,-150,671,23,219
9935,1,-194,-143,644,36,199
9940,-2,-198,-147,620,48,185
9945,-5,-201,-142,609,55,175
9950,-6,-206,-143,611,64,160
9955,-4,-209,-139,623,77,148
9960,0,-213,-144,645,89,130
9965,-1,-214,-141,670,101,112
9970,-2,-215,-141,700,116,90
9975,-3,-218,-138,737,127,76
9980,-4,-221,-139,768,133,67
9985,-1,-225,-134,797,135,58
9990,-2,-228,-138,826,141,54
9995,-3,-229,-134,856,153,59
10000,-2,-230,-131,887,165,69
10005,-1,-230,-129,920,178,77
10010,1,-229,-130,950,192,81
10015,-1,-225,-132,975,207,91
10020,1,-221,-131,990,221,103
10025,5,-220,-130,999,231,105
10030,5,-216,-129,1012,239,91
10035,8,-219,-127,1026,244,75
10040,8,-215,-126,1048,248,71
10045,-2,-211,-120,1080,256,65
10050,-4,-213,-120,1120,260,60
10055,-7,-205,-121,1154,256,50
10060,-7,-196,-127,1171,260,32
10065,-1,-194,-134,1182,262,44
10070,-14,-184,-133,1151,267,20
10075,-16,-179,-136,1092,262,-13
10080,-14,-177,-136,1015,224,-53
10085,-14,-181,-127,911,177,-75
10090,-14,-183,-130,830,118,-92
10095,-14,-186,-131,764,55,-102
10100,-16,-186,-120,712,-2,-107
10105,-16,-188,-118,676,-52,-100
10110,-26,-188,-116,647,-91,-85
10115,-29,-187,-112,620,-124,-62
10120,-28,-191,-108,590,-152,-48
10125,-36,-196,-105,560,-175,-33
10130,-29,-198,-99,531,-189,-20
10135,-26,-204,-99,508,-201,-6
10140,-23,-215,-96,485,-206,-7
10145,-23,-220,-95,447,-199,-37
10150,-14,-225,-96,406,-198,-62
10155,-14,-229,-98,364,-195,-82
10160,0,-229,-102,321,-191,-97
10165,2,-231,-104,271,-186,-113
10170,10,-231,-106,225,-174,-119
10175,12,-235,-108,184,-161,-120
10180,23,-238,-110,152,-149,-120
10185,24,-241,-113,125,-135,-114
10190,32,-245,-116,111,-118,-108
10195,40,-246,-118,114,-105,-104
10200,38,-242,-115,128,-90,-102
10205,37,-234,-118,157,-76,-96
10210,38,-246,-114,208,-60,-134
10215,46,-244,-115,255,-64,-114
10220,52,-244,-112,309,-57,-86
10225,42,-241,-110,364,-37,-70
10230,38,-241,-106,406,-17,-61
10235,35,-241,-98,444,-9,-58
10240,31,-237,-94,478,-9,-57
10245,28,-235,-93,504,-9,-55
10250,27,-234,-97,509,-3,-57
10255,27,-234,-90,493,4,-62
10260,20,-232,-93,463,17,-69
10265,15,-232,-90,423,29,-71
10270,14,-234,-90,381,40,-79
10275,6,-232,-87,337,48,-85
10280,8,-231,-88,294,56,-89
10285,7,-236,-90,256,61,-88
10290,4,-233,-85,222,68,-94
10295,7,-237,-90,191,74,-96
10300,6,-238,-90,163,78,-100
10305,6,-238,-90,142,80,-102
10310,13,-241,-93,129,79,-106
10315,9,-238,-94,116,79,-107
10320,14,-239,-98,109,76,-114
10325,17,-238,-95,105,73,-120
10330,18,-239,-91,109,68,-128
10335,20,-237,-94,118,58,-129
10340,19,-238,-94,124,47,-132
10345,19,-237,-90,134,36,-131
10350,22,-236,-93,148,27,-134
10355,15,-235,-95,161,15,-141
10360,36,-227,-82,168,6,-146
10365,29,-241,-88,183,-1,-176
10370,29,-241,-91,184,-14,-155
10375,29,-238,-90,190,-12,-132
10380,25,-236,-91,202,-2,-125
10385,22,-237,-86,213,4,-123
10390,22,-238,-86,225,7,-131
10395,18,-235,-86,234,15,-134
10400,22,-236,-87,243,23,-137
10405,20,-232,-88,248,30,-142
10410,18,-234,-88,244,37,-150
10415,15,-232,-83,235,43,-154
10420,16,-233,-86,223,47,-158
10425,13,-228,-84,211,51,-157
10430,13,-230,-87,196,48,-158
10435,14,-233,-88,180,44,-155
10440,13,-229,-88,162,42,-154
10445,15,-232,-90,139,36,-149
10450,12,-228,-87,117,32,-147
10455,18,-231,-88,97,27,-139
10460,19,-230,-87,81,22,-133
10465,20,-231,-91,65,18,-124
10470,23,-229,-94,52,14,-118
10475,23,-231,-90,40,11,-105
10480,26,-233,-92,31,7,-96
10485,35,-228,-91,20,4,-88
10490,28,-232,-100,5,6,-93
10495,31,-237,-93,-17,4,-79
10500,34,-234,-94,-36,6,-63
10505,31,-236,-96,-49,12,-50
10510,32,-238,-90,-57,16,-45
10515,31,-239,-98,-63,22,-38
10520,33,-241,-96,-62,30,-36
10525,34,-240,-93,-62,39,-34
10530,34,-239,-94,-58,47,-33
10535,34,-243,-92,-51,56,-31
10540,34,-241,-90,-41,66,-33
10545,35,-244,-89,-31,74,-32
10550,30,-246,-86,-21,80,-35
10555,34,-244,-88,-5,85,-32
10560,27,-247,-86,8,92,-33
10565,29,-244,-87,18,101,-29
10570,26,-243,-82,27,108,-29
10575,26,-244,-84,33,116,-26
10580,25,-242,-83,33,120,-28
10585,24,-241,-89,31,124,-23
10590,23,-240,-87,23,126,-22
10595,24,-242,-92,13,129,-17
10600,26,-241,-87,2,131,-17
10605,26,-242,-87,-11,133,-12
10610,23,-238,-85,-23,136,-13
10615,22,-238,-88,-33,137,-6
10620,26,-240,-86,-41,139,-7
10625,23,-238,-86,-50,135,-4
10630,23,-238,-87,-55,135,-3
10635,23,-239,-79,-59,132,0
10640,22,-242,-80,-60,130,-3
10645,20,-242,-83,-63,128,-2
10650,25,-239,-81,-62,128,-6
10655,24,-242,-83,-61,124,-6
10660,26,-239,-84,-59,121,-9
10665,24,-240,-86,-59,119,-8
10670,24,-239,-87,-59,117,-11
10675,23,-240,-88,-60,114,-9
10680,24,-242,-81,-63,111,-14
10685,24,-243,-86,-66,107,-13
10690,25,-243,-83,-68,107,-17
10695,24,-239,-88,-69,104,-17
10700,24,-242,-84,-71,102,-21
10705,24,-241,-85,-72,103,-20
10710,26,-239,-85,-71,101,-25
10715,26,-241,-83,-71,101,-23
10720,28,-241,-85,-70,99,-27
10725,27,-243,-85,-70,96,-25
10730,28,-238,-85,-72,94,-28
10735,28,-239,-85,-75,93,-25
10740,31,-242,-86,-79,91,-28
10745,29,-240,-84,-84,92,-26
10750,30,-241,-89,-90,93,-26
10755,30,-239,-88,-95,95,-24
10760,28,-240,-85,-98,96,-29
10765,32,-241,-84,-100,99,-29
10770,34,-239,-85,-99,104,-31
10775,32,-244,-85,-93,105,-30
10780,33,-244,-84,-84,107,-33
10785,34,-245,-88,-74,108,-29
10790,33,-244,-81,-62,110,-33
10795,33,-241,-89,-52,111,-32
10800,35,-244,-89,-42,112,-35
10805,35,-239,-90,-34,112,-32
10810,33,-235,-93,-29,116,-31
10815,28,-235,-94,-25,119,-30
10820,33,-237,-91,-26,121,-32
10825,33,-235,-91,-30,119,-22
10830,31,-238,-94,-34,121,-19
10835,33,-241,-88,-39,123,-13
10840,31,-240,-88,-41,121,-15
10845,34,-240,-88,-43,121,-12
10850,33,-240,-89,-44,120,-13
10855,41,-235,-96,-42,121,-11
10860,32,-241,-90,-39,120,-13
10865,35,-238,-87,-34,119,-9
10870,34,-242,-88,-30,121,-8
10875,37,-244,-87,-25,122,-5
10880,35,-244,-87,-21,122,-6
10885,37,-241,-84,-18,122,-3
10890,34,-241,-83,-13,125,-3
10895,34,-242,-86,-11,128,-2
10900,34,-240,-82,-11,131,-4
10905,32,-241,-88,-14,133,-1
10910,34,-239,-81,-20,136,-3
10915,33,-242,-81,-27,136,3
10920,31,-241,-80,-35,138,1
10925,31,-242,-87,-43,141,5
10930,31,-241,-83,-51,141,2
10935,31,-242,-83,-59,144,5
10940,29,-241,-82,-61,146,2
10945,28,-241,-82,-57,149,4
10950,30,-248,-80,-50,153,1
10955,28,-244,-86,-41,154,2
10960,29,-243,-85,-32,154,1
10965,27,-241,-83,-24,154,4
10970,29,-242,-83,-17,154,3
10975,29,-240,-85,-13,154,8
10980,30,-241,-84,-13,153,8
10985,28,-238,-86,-12,153,11
10990,29,-236,-88,-15,152,13
10995,29,-239,-89,-18,151,19
11000,31,-235,-86,-25,153,21
11005,28,-234,-84,-31,154,24
11010,33,-236,-81,-39,155,25
11015,28,-239,-83,-46,158,26
11020,29,-235,-87,-54,161,24
11025,31,-240,-88,-63,163,26
11030,29,-239,-84,-72,165,21
11035,29,-238,-88,-83,166,22
11040,31,-238,-84,-90,167,20
11045,30,-240,-87,-97,167,23
11050,30,-237,-83,-102,168,21
11055,29,-241,-86,-109,169,20
11060,27,-237,-86,-114,171,15
11065,29,-240,-86,-119,174,16
11070,28,-240,-86,-126,176,16
11075,28,-240,-85,-132,180,18
11080,31,-242,-83,-135,182,18
11085,28,-243,-80,-137,186,21
11090,32,-241,-86,-138,187,19
11095,31,-243,-87,-135,189,22
11100,31,-246,-88,-128,190,21
11105,31,-245,-84,-121,190,24
11110,28,-244,-86,-109,188,21
11115,32,-245,-92,-98,185,22
11120,28,-240,-90,-89,184,21
11125,29,-242,-87,-81,182,25
11130,28,-241,-88,-73,180,24
11135,30,-242,-89,-68,178,26
11140,30,-242,-89,-66,178,25
11145,29,-244,-85,-62,177,27
11150,31,-242,-85,-59,177,24
11155,27,-244,-89,-56,177,27
11160,27,-243,-89,-53,178,23
11165,29,-246,-88,-50,178,25
11170,28,-245,-87,-45,178,23
11175,29,-244,-87,-41,177,25
11180,28,-241,-92,-35,174,22
11185,29,-241,-85,-30,172,26
11190,29,-243,-90,-25,171,26
11195,34,-241,-90,-22,168,30
11200,25,-240,-87,-19,166,29
11205,32,-241,-84,-16,163,33
11210,30,-241,-89,-13,161,33
11215,29,-244,-82,-8,159,37
11220,30,-242,-85,-4,157,37
11225,31,-241,-86,-1,156,40
11230,29,-241,-85,0,155,36
11235,31,-239,-84,-2,155,39
11240,26,-238,-83,-3,154,35
11245,28,-237,-86,-6,155,34
11250,28,-240,-90,-12,155,30
11255,26,-235,-85,-17,156,30
11260,27,-240,-86,-22,156,25
11265,28,-239,-90,-29,158,24
11270,27,-235,-87,-36,159,21
11275,28,-237,-89,-41,161,22
11280,27,-239,-91,-46,162,18
11285,29,-239,-88,-52,162,18
11290,29,-240,-85,-51,161,14
11295,30,-239,-90,-52,163,16
11300,28,-240,-90,-52,162,13
11305,31,-241,-86,-50,162,15
11310,29,-242,-88,-47,161,12
11315,28,-241,-91,-48,158,14
11320,31,-244,-87,-45,157,11
11325,27,-242,-85,-44,155,10
11330,27,-242,-87,-44,152,8
11335,27,-239,-85,-42,151,8
11340,27,-240,-87,-42,148,4
11345,27,-238,-93,-42,145,5
11350,27,-243,-87,-42,141,3
11355,25,-242,-90,-41,138,4
11360,24,-238,-88,-43,136,3
11365,25,-239,-92,-44,134,5
11370,25,-241,-94,-40,134,3
11375,25,-239,-92,-38,130,4
11380,29,-240,-87,-35,130,0
11385,24,-239,-93,-29,128,2
11390,25,-237,-88,-23,126,-3
11395,26,-242,-88,-20,123,-1
11400,24,-238,-86,-16,118,-4
11405,27,-238,-86,-16,114,-4
11410,27,-240,-87,-14,110,-7
11415,26,-238,-88,-15,104,-8
11420,29,-237,-91,-19,101,-10
11425,25,-234,-90,-26,96,-9
11430,25,-234,-87,-34,92,-10
11435,26,-234,-86,-39,85,-8
11440,24,-236,-89,-48,79,-9
11445,25,-235,-88,-55,73,-5
11450,27,-237,-87,-60,67,-7
11455,27,-240,-84,-66,63,-6
11460,26,-239,-84,-70,58,-9
11465,23,-241,-87,-70,54,-8
11470,24,-243,-84,-72,49,-11
11475,24,-240,-88,-73,47,-11
11480,25,-244,-84,-73,43,-13
11485,27,-244,-85,-72,41,-12
11490,25,-244,-85,-69,36,-13
11495,23,-242,-90,-64,35,-12
11500,24,-244,-89,-56,32,-13
11505,25,-242,-87,-47,30,-13
11510,26,-243,-87,-41,29,-15
11515,27,-242,-88,-34,26,-15
11520,27,-241,-93,-29,23,-18
11525,29,-241,-93,-24,24,-19
11530,29,-242,-91,-21,23,-21
11535,29,-238,-86,-21,23,-21
11540,29,-240,-92,-21,24,-25
11545,26,-237,-90,-24,25,-24
11550,29,-239,-87,-24,26,-28
11555,28,-238,-89,-25,24,-27
11560,28,-240,-90,-26,24,-28
11565,28,-241,-87,-25,23,-29
11570,29,-239,-89,-23,19,-33
11575,24,-238,-89,-22,17,-32
11580,29,-242,-87,-20,14,-35
11585,25,-238,-86,-19,9,-37
11590,26,-237,-89,-19,8,-37
11595,32,-241,-89,-18,3,-37
11600,29,-240,-88,-18,-1,-39
11605,30,-239,-88,-18,-4,-36
11610,29,-242,-90,-19,-6,-35
11615,27,-241,-89,-19,-7,-33
11620,30,-244,-92,-17,-8,-33
11625,29,-243,-86,-15,-10,-29
11630,29,-242,-89,-10,-9,-29
11635,29,-244,-87,-5,-11,-28
11640,27,-241,-88,0,-10,-27
11645,29,-242,-93,4,-11,-26
11650,28,-240,-89,6,-12,-29
11655,26,-239,-87,9,-11,-28
11660,31,-242,-87,9,-11,-30
11665,31,-240,-90,6,-13,-29
11670,28,-239,-90,2,-14,-30
11675,29,-239,-87,-5,-14,-30
11680,29,-237,-92,-11,-16,-30
11685,26,-235,-88,-19,-18,-30
11690,28,-234,-88,-26,-22,-28
11695,25,-238,-92,-33,-24,-26
11700,24,-242,-89,-39,-25,-26
11705,29,-241,-87,-44,-28,-24
11710,29,-242,-89,-46,-31,-25
11715,26,-243,-86,-46,-34,-24
11720,28,-242,-87,-40,-33,-25
11725,28,-243,-91,-34,-35,-25
11730,30,-245,-83,-29,-37,-27
11735,30,-243,-86,-22,-37,-26
11740,27,-244,-90,-16,-38,-28
11745,27,-245,-89,-8,-40,-29
11750,28,-243,-86,-2,-44,-29
11755,31,-249,-87,4,-46,-29
11760,29,-244,-85,12,-47,-31
11765,24,-244,-87,21,-49,-29
11770,28,-243,-87,29,-51,-30
11775,27,-245,-89,37,-51,-28
11780,26,-244,-86,47,-52,-28
11785,24,-242,-90,56,-50,-28
11790,25,-241,-91,68,-50,-29
11795,25,-240,-88,76,-48,-29
11800,26,-240,-90,85,-48,-29
11805,26,-238,-90,89,-47,-28
11810,29,-239,-88,92,-48,-29
11815,27,-240,-87,90,-47,-28
11820,30,-239,-87,83,-47,-28
11825,27,-241,-85,77,-44,-26
11830,28,-239,-87,70,-42,-26
11835,29,-239,-88,64,-41,-25
11840,27,-238,-87,56,-41,-24
11845,29,-240,-89,50,-42,-24
11850,29,-237,-88,44,-40,-24
11855,30,-239,-91,39,-39,-22
11860,30,-238,-90,34,-39,-21
11865,31,-241,-89,30,-36,-21
11870,26,-239,-88,27,-33,-21
11875,29,-237,-86,23,-31,-19
11880,29,-240,-88,19,-30,-20
11885,28,-236,-86,13,-27,-20
11890,27,-234,-85,10,-25,-19
11895,31,-239,-91,5,-23,-18
11900,28,-240,-83,2,-22,-19
11905,30,-243,-84,-4,-20,-20
11910,28,-240,-87,-8,-19,-21
11915,27,-237,-89,-14,-19,-21
11920,30,-242,-89,-17,-18,-20
11925,29,-242,-90,-23,-19,-19
11930,27,-241,-89,-26,-20,-19
11935,29,-243,-89,-26,-19,-16
11940,27,-240,-90,-22,-20,-15
11945,29,-243,-86,-16,-20,-12
11950,29,-243,-91,-8,-19,-11
11955,28,-241,-90,3,-19,-11
11960,29,-243,-87,13,-18,-12
11965,28,-243,-88,26,-15,-11
11970,33,-243,-90,33,-13,-10
11975,29,-241,-91,42,-12,-12
11980,25,-239,-91,47,-10,-12
11985,30,-240,-89,47,-8,-11
11990,26,-237,-90,46,-7,-11
11995,29,-238,-86,42,-7,-10
