timestamp,acc_x,acc_y,acc_z,gyro_x,gyro_y,gyro_z
0,-6,-232,-85,49,9,-16
5,-10,-231,-86,50,8,-17
10,-8,-232,-92,55,5,-17
15,-11,-228,-90,58,4,-17
20,-9,-230,-85,62,3,-18
25,-11,-234,-95,67,3,-17
30,-9,-232,-92,67,4,-17
35,-6,-230,-90,66,5,-17
40,-7,-232,-91,62,7,-15
45,-9,-229,-88,59,8,-15
50,-9,-226,-86,55,9,-13
55,-6,-231,-84,50,10,-12
60,-4,-233,-86,45,11,-12
65,-10,-232,-88,44,10,-13
70,-6,-228,-90,42,10,-13
75,-6,-229,-88,40,10,-12
80,-8,-232,-92,40,11,-12
85,-7,-233,-90,41,11,-12
90,-7,-233,-89,42,14,-13
95,-7,-234,-90,43,15,-12
100,-7,-235,-90,45,16,-13
105,-10,-233,-86,47,17,-12
110,-9,-232,-81,48,18,-13
115,-6,-231,-88,50,19,-12
120,-9,-230,-87,52,19,-11
125,-9,-230,-89,50,19,-11
130,-8,-221,-89,52,20,-11
135,-10,-229,-88,51,19,-14
140,-7,-231,-89,52,20,-13
145,-7,-231,-89,50,20,-12
150,-9,-231,-93,47,19,-12
155,-6,-231,-92,45,19,-12
160,-9,-230,-89,43,20,-10
165,-10,-232,-87,43,20,-11
170,-9,-231,-87,46,20,-10
175,-12,-233,-85,49,18,-10
180,-7,-233,-94,55,18,-10
185,-10,-236,-91,61,17,-9
190,-6,-235,-86,68,18,-8
195,-9,-233,-87,73,18,-7
200,-7,-232,-92,79,21,-10
205,-4,-233,-88,83,20,-11
210,-9,-232,-85,86,21,-11
215,-6,-232,-89,88,20,-11
220,-9,-230,-88,88,20,-11
225,-5,-233,-92,87,19,-11
230,-4,-231,-85,86,20,-12
235,-9,-223,-91,83,19,-12
240,-10,-223,-89,79,19,-12
245,-9,-228,-89,74,17,-12
250,-6,-228,-93,68,15,-12
255,-9,-229,-87,61,14,-11
260,-7,-231,-87,55,13,-10
265,-10,-232,-90,51,11,-10
270,-8,-230,-88,51,9,-11
275,-5,-234,-84,53,8,-12
280,-7,-236,-85,57,7,-12
285,-5,-234,-89,62,9,-11
290,-9,-234,-90,69,8,-12
295,-7,-231,-84,76,7,-12
300,-9,-234,-91,81,9,-11
305,-8,-232,-88,85,10,-12
310,-8,-231,-88,87,11,-12
315,-3,-231,-88,86,11,-12
320,-4,-230,-87,84,12,-12
325,-7,-228,-87,82,13,-11
330,-7,-232,-87,77,14,-11
335,-3,-229,-89,70,13,-7
340,-5,-231,-87,61,13,-9
345,-7,-227,-88,52,13,-6
350,-13,-227,-83,45,12,-8
355,-7,-228,-88,37,11,-9
360,-4,-231,-84,30,8,-9
365,-9,-232,-88,25,5,-9
370,-10,-228,-85,20,3,-10
375,-7,-233,-85,19,1,-11
380,-9,-233,-89,18,0,-11
385,-8,-232,-83,18,1,-12
390,-6,-235,-88,19,0,-13
395,-7,-230,-87,20,1,-12
400,-10,-231,-87,25,2,-14
405,-8,-227,-87,26,2,-12
410,-8,-233,-89,28,2,-12
415,-6,-232,-90,28,1,-12
420,-7,-234,-85,27,1,-11
425,-10,-232,-88,27,-2,-12
430,-7,-232,-84,26,-3,-11
435,-8,-233,-87,25,-4,-11
440,-9,-232,-88,27,-6,-12
445,-8,-239,-84,31,-8,-12
450,-6,-233,-87,39,-6,-12
455,-11,-233,-86,47,-4,-14
460,-4,-240,-86,55,-2,-14
465,-6,-229,-91,60,-1,-15
470,-7,-229,-90,62,3,-14
475,-8,-228,-87,59,5,-15
480,-8,-232,-90,56,6,-15
485,-5,-230,-89,54,7,-15
490,-6,-233,-90,54,6,-16
495,-7,-232,-86,55,5,-17
500,-7,-232,-94,58,5,-16
505,-4,-231,-89,61,4,-16
510,-3,-238,-87,67,4,-16
515,-3,-237,-80,69,3,-17
520,-7,-232,-91,71,3,-18
525,-7,-233,-89,70,3,-17
530,-7,-232,-87,67,4,-17
535,-5,-233,-89,66,6,-18
540,-6,-231,-90,64,7,-17
545,-7,-233,-88,64,9,-15
550,-5,-230,-83,65,10,-15
555,-6,-232,-87,66,12,-13
560,-8,-228,-85,67,14,-13
565,-9,-230,-90,65,16,-13
570,-6,-231,-85,61,17,-12
575,-3,-233,-88,59,15,-10
580,-7,-231,-86,57,15,-11
585,-5,-231,-90,57,13,-13
590,-9,-228,-82,56,13,-14
595,-6,-231,-88,55,11,-16
600,-8,-228,-89,52,10,-16
605,-10,-231,-85,49,10,-15
610,-6,-233,-83,46,10,-16
615,-9,-232,-87,46,8,-16
620,-13,-236,-89,48,7,-17
625,-5,-230,-87,48,6,-17
630,-4,-231,-91,47,7,-17
635,-5,-228,-94,45,7,-16
640,-7,-225,-92,41,9,-15
645,-6,-229,-91,35,11,-15
650,-6,-233,-92,29,13,-12
655,-5,-230,-85,24,14,-11
660,-5,-234,-87,23,13,-10
665,-3,-233,-88,23,13,-9
670,-11,-231,-91,23,13,-10
675,-10,-238,-89,23,11,-10
680,-8,-232,-87,23,10,-11
685,-7,-232,-90,23,10,-10
690,-9,-232,-91,21,10,-12
695,-6,-230,-89,20,11,-11
700,-7,-230,-88,20,11,-10
705,-5,-235,-88,22,13,-10
710,-8,-232,-89,22,16,-10
715,-8,-230,-88,22,16,-10
720,-7,-230,-88,23,15,-10
725,-7,-230,-91,23,14,-9
730,-8,-228,-83,21,13,-10
735,-3,-231,-91,18,12,-10
740,-7,-229,-87,14,11,-9
745,-4,-234,-88,10,9,-10
750,-4,-232,-87,8,10,-9
755,-8,-231,-91,6,10,-8
760,-7,-229,-87,5,9,-8
765,-10,-232,-90,5,8,-9
770,-6,-231,-92,3,9,-11
775,-6,-229,-90,3,9,-12
780,-8,-230,-86,2,8,-11
785,-9,-233,-90,3,7,-11
790,-5,-232,-89,2,6,-12
795,-7,-228,-90,3,5,-12
800,-7,-230,-91,3,4,-12
805,-7,-226,-90,3,4,-13
810,-7,-229,-91,4,6,-15
815,-4,-228,-92,4,6,-14
820,-8,-227,-92,1,6,-13
825,-7,-226,-91,-2,10,-15
830,-4,-224,-92,-8,11,-14
835,-8,-225,-93,-13,11,-15
840,-4,-226,-95,-19,12,-15
845,-6,-229,-93,-22,12,-15
850,-3,-230,-88,-24,11,-15
855,-8,-230,-90,-26,10,-16
860,-6,-231,-93,-27,8,-16
865,-5,-231,-92,-26,7,-17
870,-3,-235,-89,-24,5,-17
875,-6,-233,-89,-19,6,-15
880,-6,-231,-89,-13,6,-15
885,-6,-231,-91,-8,7,-14
890,-2,-235,-93,-2,6,-14
895,-10,-228,-96,6,7,-15
900,-7,-233,-91,12,7,-15
905,-4,-232,-94,18,7,-17
910,-10,-232,-91,23,8,-16
915,-6,-230,-89,27,7,-16
920,-7,-230,-90,28,6,-14
925,-4,-234,-89,29,7,-14
930,-3,-231,-92,28,4,-16
935,-6,-232,-92,26,5,-16
940,-3,-229,-93,23,6,-17
945,-4,-229,-90,20,7,-15
950,-10,-230,-94,17,7,-16
955,-6,-230,-91,13,9,-16
960,-6,-229,-91,10,10,-16
965,-6,-230,-91,9,11,-16
970,0,-231,-94,7,13,-15
975,-5,-228,-93,5,14,-14
980,-6,-231,-91,4,16,-13
985,-7,-233,-91,2,18,-13
990,-7,-232,-90,3,20,-12
995,-6,-234,-95,4,21,-12
1000,-8,-232,-91,6,21,-11
1005,-13,-229,-90,7,22,-9
1010,-6,-231,-89,11,24,-8
1015,-4,-231,-94,13,25,-7
1020,-5,-231,-94,16,26,-8
1025,-5,-229,-97,20,25,-6
1030,-6,-229,-93,21,27,-6
1035,-5,-229,-94,21,27,-8
1040,-9,-232,-92,23,25,-8
1045,-6,-230,-98,24,25,-7
1050,-8,-229,-93,25,25,-9
1055,-2,-230,-97,27,24,-9
1060,-6,-229,-93,27,23,-9
1065,-7,-228,-91,28,23,-11
1070,-3,-231,-93,25,21,-11
1075,-8,-226,-91,23,22,-10
1080,-5,-225,-93,20,23,-9
1085,-5,-228,-91,19,21,-10
1090,-6,-232,-95,18,22,-11
1095,-4,-231,-91,18,23,-11
1100,-5,-235,-92,18,22,-11
1105,-5,-230,-90,18,24,-12
1110,-4,-227,-96,18,24,-12
1115,-6,-226,-95,18,25,-11
1120,-2,-232,-97,17,27,-10
1125,-5,-230,-96,14,28,-12
1130,-3,-229,-93,12,29,-11
1135,-3,-229,-94,12,29,-11
1140,-1,-233,-94,12,30,-10
1145,-2,-232,-95,13,30,-8
1150,-12,-226,-94,14,29,-7
1155,-6,-229,-93,14,27,-7
1160,-10,-229,-87,12,23,-7
1165,-9,-240,-90,12,22,-7
1170,-9,-229,-97,14,20,-6
1175,-6,-232,-96,16,18,-6
1180,-7,-231,-96,17,18,-7
1185,-8,-228,-91,18,18,-7
1190,-8,-232,-92,19,16,-9
1195,-8,-230,-93,22,15,-9
1200,-9,-230,-96,24,14,-9
1205,-3,-230,-93,28,13,-9
1210,-8,-228,-93,30,12,-10
1215,-9,-228,-91,30,12,-10
1220,-6,-230,-97,28,12,-8
1225,-7,-228,-95,25,12,-7
1230,-5,-227,-93,20,12,-7
1235,-7,-228,-90,15,11,-7
1240,-8,-230,-92,9,13,-6
1245,-8,-228,-90,5,12,-7
1250,-5,-233,-88,1,11,-7
1255,-6,-232,-92,-1,8,-6
1260,-9,-231,-92,1,6,-6
1265,-7,-235,-91,5,6,-5
1270,-9,-232,-94,12,6,-5
1275,-4,-237,-88,18,6,-7
1280,-1,-233,-95,26,7,-6
1285,-5,-232,-94,32,8,-8
1290,-9,-232,-94,39,10,-6
1295,-9,-232,-96,40,11,-7
1300,-8,-229,-96,40,12,-7
1305,-8,-228,-97,39,12,-6
1310,-6,-226,-92,38,14,-5
1315,-8,-226,-93,37,16,-5
1320,-8,-226,-95,35,16,-4
1325,-5,-227,-95,34,18,-3
1330,-9,-228,-98,31,19,-2
1335,-5,-229,-95,29,19,-3
1340,-9,-225,-100,26,22,-3
1345,-7,-227,-93,25,25,-2
1350,-8,-228,-95,24,25,-2
1355,-7,-228,-97,23,26,0
1360,-5,-229,-96,24,27,2
1365,-9,-228,-100,25,28,3
1370,-4,-228,-96,26,29,3
1375,-6,-233,-96,29,29,2
1380,-10,-229,-97,32,31,2
1385,-7,-232,-99,36,31,2
1390,-8,-232,-96,39,29,2
1395,-10,-227,-95,44,29,3
1400,-7,-230,-100,49,27,0
1405,-7,-229,-97,54,27,0
1410,-10,-227,-95,58,25,-1
1415,-10,-232,-96,63,21,-2
1420,-11,-230,-96,66,20,-4
1425,-10,-226,-96,69,19,-4
1430,-9,-227,-99,69,16,-5
1435,-5,-226,-97,66,16,-6
1440,-10,-223,-96,62,13,-7
1445,-6,-227,-99,59,12,-7
1450,-9,-226,-99,55,10,-8
1455,-8,-226,-96,51,7,-8
1460,-7,-226,-97,52,6,-7
1465,-6,-227,-99,53,5,-7
1470,-7,-224,-102,51,4,-8
1475,-7,-226,-100,53,5,-9
1480,-4,-227,-97,53,5,-12
1485,-10,-225,-99,51,5,-10
1490,-6,-223,-97,50,5,-11
1495,-7,-227,-95,50,4,-12
1500,-5,-226,-98,47,4,-13
1505,-7,-230,-96,47,5,-14
1510,-10,-229,-98,47,3,-14
1515,-7,-231,-97,47,2,-14
1520,-7,-229,-97,48,1,-16
1525,-8,-230,-96,51,1,-16
1530,-4,-228,-100,54,0,-17
1535,-6,-229,-98,55,-2,-15
1540,-3,-228,-101,57,-1,-15
1545,-7,-229,-97,59,-3,-17
1550,-7,-231,-100,60,-3,-19
1555,-6,-228,-99,62,-4,-18
1560,-8,-227,-97,65,-4,-18
1565,-4,-230,-100,66,-6,-18
1570,-8,-227,-97,68,-9,-20
1575,-7,-227,-96,68,-9,-19
1580,-7,-224,-103,68,-9,-20
1585,-7,-228,-96,67,-10,-18
1590,-6,-228,-100,66,-11,-18
1595,-8,-226,-98,65,-11,-17
1600,-10,-226,-102,64,-11,-18
1605,-9,-227,-95,64,-11,-17
1610,-5,-229,-100,64,-11,-17
1615,-7,-230,-102,65,-12,-18
1620,-7,-229,-93,65,-12,-19
1625,-5,-228,-94,65,-14,-18
1630,-6,-231,-98,66,-14,-20
1635,-3,-230,-96,69,-13,-21
1640,-6,-229,-93,71,-16,-23
1645,-8,-229,-92,72,-18,-24
1650,-4,-225,-97,73,-20,-25
1655,-7,-230,-88,71,-19,-24
1660,-6,-228,-98,68,-19,-26
1665,-7,-226,-98,61,-19,-26
1670,-5,-228,-95,56,-20,-26
1675,-8,-225,-98,51,-19,-27
1680,-7,-226,-97,47,-18,-28
1685,-7,-226,-97,45,-15,-28
1690,-3,-226,-94,45,-15,-27
1695,-4,-224,-96,43,-15,-26
1700,-5,-225,-98,43,-12,-25
1705,-6,-228,-97,41,-9,-25
1710,-2,-228,-99,38,-7,-24
1715,-3,-228,-98,33,-5,-22
1720,-5,-226,-97,27,-4,-21
1725,-4,-226,-96,23,-3,-20
1730,-6,-227,-97,19,-4,-20
1735,-1,-228,-99,16,-4,-21
1740,-4,-227,-94,11,-1,-20
1745,-3,-230,-97,6,-1,-17
1750,-3,-229,-97,0,0,-19
1755,-7,-230,-96,-4,0,-19
1760,-6,-229,-95,-5,2,-18
1765,-7,-231,-100,-4,2,-17
1770,-7,-231,-92,-1,2,-17
1775,-4,-230,-97,4,1,-18
1780,-2,-230,-99,11,2,-16
1785,-7,-231,-102,19,3,-16
1790,-6,-229,-99,25,4,-16
1795,-7,-227,-101,29,7,-16
1800,-3,-227,-99,31,9,-15
1805,-7,-227,-95,32,10,-13
1810,-8,-227,-91,31,14,-12
1815,-6,-228,-94,28,15,-12
1820,-6,-228,-85,27,14,-13
1825,-5,-219,-101,25,14,-12
1830,-1,-230,-94,22,13,-13
1835,-4,-227,-95,21,14,-13
1840,-4,-228,-97,19,15,-12
1845,-2,-228,-93,19,17,-11
1850,-5,-228,-95,21,17,-10
1855,-9,-230,-90,23,19,-9
1860,-6,-226,-99,27,20,-9
1865,-4,-229,-97,29,22,-10
1870,-6,-232,-93,32,24,-9
1875,-8,-233,-94,34,26,-8
1880,-5,-229,-99,35,24,-8
1885,-5,-228,-94,35,24,-8
1890,-2,-231,-101,33,24,-10
1895,-6,-225,-99,33,22,-9
1900,-10,-227,-92,29,19,-11
1905,-6,-229,-97,27,18,-11
1910,-2,-227,-95,25,19,-11
1915,-3,-227,-97,25,17,-10
1920,-8,-227,-95,25,17,-11
1925,-9,-226,-96,27,17,-11
1930,-2,-226,-96,26,18,-10
1935,-7,-227,-98,24,17,-10
1940,-7,-228,-100,24,17,-12
1945,-8,-228,-98,24,17,-10
1950,-6,-227,-96,23,19,-10
1955,-9,-229,-99,26,19,-12
1960,-7,-231,-96,28,21,-12
1965,0,-231,-97,28,20,-14
1970,-3,-231,-100,29,19,-14
1975,-3,-231,-92,32,18,-13
1980,-10,-226,-101,35,17,-14
1985,-5,-231,-102,37,17,-14
1990,-6,-226,-100,41,18,-14
1995,-7,-229,-96,45,16,-14
2000,-8,-226,-100,45,15,-14
2005,-7,-229,-97,42,16,-15
2010,-4,-227,-97,39,16,-16
2015,-7,-228,-100,38,14,-18
2020,-12,-222,-99,35,13,-17
2025,-9,-224,-95,33,13,-17
2030,-7,-226,-102,32,12,-17
2035,-6,-226,-95,30,9,-18
2040,-11,-228,-97,30,9,-19
2045,-8,-226,-100,30,9,-20
2050,-6,-227,-100,29,9,-22
2055,-6,-226,-100,30,8,-23
2060,-10,-226,-97,30,7,-24
2065,-9,-225,-101,30,7,-25
2070,-7,-227,-100,31,7,-26
2075,-7,-224,-102,32,6,-27
2080,-9,-227,-100,32,5,-27
2085,-7,-225,-103,34,4,-29
2090,-10,-230,-100,35,3,-29
2095,-8,-222,-104,33,4,-29
2100,-7,-225,-105,30,3,-30
2105,-10,-221,-105,29,2,-31
2110,-8,-224,-105,25,-1,-32
2115,-8,-220,-105,21,-1,-34
2120,-6,-221,-106,15,-2,-36
2125,-7,-217,-106,8,-3,-38
2130,-13,-219,-107,1,-5,-39
2135,-9,-218,-105,-6,-6,-42
2140,-10,-218,-109,-13,-9,-46
2145,-11,-226,-112,-20,-11,-45
2150,-10,-218,-111,-26,-12,-46
2155,-13,-215,-104,-32,-16,-47
2160,-15,-221,-108,-39,-20,-49
2165,-12,-220,-108,-44,-22,-49
2170,-9,-218,-104,-50,-24,-51
2175,-12,-220,-105,-55,-25,-51
2180,-9,-218,-112,-57,-23,-52
2185,-10,-221,-104,-59,-23,-55
2190,-7,-218,-102,-60,-23,-58
2195,-9,-221,-105,-62,-24,-59
2200,-7,-217,-103,-62,-25,-60
2205,-6,-220,-103,-64,-26,-60
2210,-6,-223,-105,-65,-29,-61
2215,-7,-219,-107,-71,-30,-61
2220,-9,-217,-106,-78,-32,-61
2225,-4,-218,-106,-87,-35,-59
2230,-6,-220,-106,-95,-37,-58
2235,-8,-220,-106,-104,-36,-59
2240,-5,-223,-106,-112,-34,-59
2245,-3,-218,-105,-120,-33,-58
2250,-8,-220,-109,-126,-32,-56
2255,-8,-218,-101,-133,-30,-59
2260,-6,-224,-109,-135,-27,-58
2265,-2,-222,-109,-138,-25,-58
2270,-4,-222,-108,-140,-21,-58
2275,-5,-221,-109,-138,-19,-59
2280,-3,-224,-115,-139,-17,-60
2285,0,-223,-110,-138,-14,-61
2290,0,-223,-112,-140,-12,-62
2295,-1,-223,-108,-140,-9,-61
2300,-1,-216,-109,-144,-9,-61
2305,-1,-219,-107,-149,-6,-61
2310,-4,-216,-112,-155,-4,-62
2315,-2,-217,-109,-160,-4,-63
2320,0,-214,-111,-168,-4,-63
2325,0,-217,-112,-176,-3,-63
2330,0,-214,-112,-182,-4,-64
2335,0,-215,-113,-186,-1,-63
2340,0,-214,-115,-191,0,-64
2345,-5,-213,-112,-196,2,-62
2350,-4,-213,-114,-200,2,-64
2355,-4,-214,-109,-204,3,-64
2360,0,-217,-114,-209,2,-65
2365,-1,-215,-116,-212,3,-67
2370,-3,-209,-117,-217,5,-67
2375,-3,-213,-117,-221,7,-68
2380,-4,-210,-119,-226,10,-68
2385,-6,-210,-115,-232,13,-66
2390,-1,-215,-119,-239,14,-64
2395,-1,-215,-117,-244,17,-64
2400,-1,-216,-112,-251,20,-61
2405,-3,-215,-117,-257,22,-60
2410,1,-219,-116,-260,24,-58
2415,0,-209,-119,-263,26,-55
2420,-4,-215,-118,-266,30,-54
2425,0,-214,-121,-268,31,-52
2430,0,-216,-117,-269,34,-52
2435,0,-216,-118,-270,37,-47
2440,-2,-216,-118,-270,37,-43
2445,-1,-216,-121,-271,39,-40
2450,0,-219,-118,-273,43,-34
2455,1,-215,-120,-272,48,-32
2460,0,-213,-122,-275,51,-27
2465,0,-212,-126,-279,56,-23
2470,1,-212,-122,-282,61,-19
2475,4,-215,-126,-287,65,-16
2480,0,-212,-120,-292,67,-12
2485,0,-210,-124,-296,67,-8
2490,0,-213,-123,-300,67,-4
2495,0,-211,-124,-305,67,2
2500,-2,-213,-123,-308,65,6
2505,0,-217,-121,-309,65,10
2510,3,-217,-123,-305,66,14
2515,1,-216,-122,-300,68,19
2520,2,-212,-123,-295,71,25
2525,0,-214,-126,-292,74,32
2530,0,-215,-127,-294,76,36
2535,0,-209,-126,-296,79,42
2540,-4,-210,-124,-299,84,46
2545,0,-206,-127,-304,87,52
2550,-1,-208,-122,-308,90,56
2555,0,-211,-129,-310,94,61
2560,0,-207,-128,-309,94,65
2565,-2,-211,-130,-308,96,68
2570,-3,-206,-128,-307,97,71
2575,-8,-210,-125,-306,97,73
2580,-3,-209,-130,-305,98,75
2585,-9,-213,-126,-305,97,78
2590,-1,-212,-130,-303,95,78
2595,-3,-211,-131,-303,94,79
2600,-7,-210,-132,-302,91,80
2605,-2,-212,-130,-300,90,82
2610,-9,-204,-130,-297,89,82
2615,-6,-207,-135,-294,87,84
2620,-7,-206,-134,-293,87,86
2625,-9,-203,-131,-296,87,86
2630,-8,-200,-135,-297,89,88
2635,-8,-201,-134,-301,93,92
2640,-5,-202,-136,-305,95,92
2645,-4,-201,-133,-307,99,93
2650,-2,-201,-133,-310,99,90
2655,-3,-204,-134,-308,96,91
2660,-5,-202,-132,-307,92,92
2665,-8,-203,-132,-310,84,93
2670,-6,-198,-138,-315,76,91
2675,-8,-203,-136,-322,70,92
2680,-6,-202,-138,-327,64,90
2685,-8,-198,-144,-330,61,89
2690,-6,-206,-136,-331,59,88
2695,-8,-195,-141,-332,57,87
2700,-14,-199,-142,-332,55,86
2705,-4,-198,-145,-335,54,85
2710,-7,-199,-142,-341,54,82
2715,-5,-193,-138,-351,51,81
2720,-4,-192,-139,-358,48,83
2725,-19,-185,-143,-364,42,82
2730,-13,-195,-141,-370,39,82
2735,-9,-183,-139,-375,36,82
2740,-16,-194,-140,-379,34,82
2745,-11,-195,-145,-381,33,81
2750,-12,-190,-149,-381,33,81
2755,-9,-194,-142,-383,32,79
2760,-12,-196,-152,-383,26,76
2765,-20,-192,-147,-382,20,74
2770,-11,-197,-141,-384,15,70
2775,-11,-191,-149,-385,10,69
2780,-4,-194,-145,-388,7,70
2785,-9,-193,-150,-393,6,68
2790,-13,-194,-146,-395,7,65
2795,-1,-194,-139,-397,7,63
2800,-11,-188,-150,-400,11,60
2805,-7,-192,-149,-405,13,59
2810,-6,-187,-154,-412,12,57
2815,-8,-177,-158,-418,8,55
2820,-8,-189,-143,-423,4,54
2825,-14,-191,-145,-428,-2,53
2830,0,-187,-151,-433,-10,50
2835,-11,-189,-151,-436,-19,48
2840,-10,-190,-156,-440,-26,43
2845,-15,-191,-154,-443,-31,38
2850,-12,-190,-155,-446,-30,35
2855,1,-197,-166,-445,-28,32
2860,-6,-189,-158,-444,-20,28
2865,-7,-190,-155,-442,-11,26
2870,-8,-186,-158,-437,-3,28
2875,-7,-188,-156,-436,7,28
2880,-3,-194,-158,-438,15,30
2885,0,-190,-158,-439,21,35
2890,-1,-190,-160,-443,25,39
2895,-3,-187,-162,-448,27,43
2900,-3,-190,-160,-453,28,51
2905,1,-187,-162,-457,32,53
2910,-1,-190,-160,-454,31,55
2915,-5,-189,-163,-448,30,61
2920,-4,-190,-166,-442,29,59
2925,-3,-184,-166,-435,30,61
2930,-2,-191,-166,-430,30,61
2935,-3,-189,-164,-426,29,58
2940,0,-191,-166,-421,27,53
2945,-2,-190,-167,-414,21,46
2950,-8,-185,-168,-409,14,40
2955,-9,-184,-162,-406,8,36
2960,-7,-182,-169,-405,3,33
2965,-8,-187,-160,-405,2,33
2970,-10,-178,-168,-407,5,36
2975,-11,-177,-170,-410,11,39
2980,-3,-177,-168,-418,16,42
2985,-7,-173,-165,-427,24,47
2990,-3,-170,-169,-440,30,53
2995,-5,-169,-171,-453,34,61
3000,-2,-170,-166,-465,36,68
3005,-1,-165,-166,-477,37,74
3010,-4,-163,-165,-487,32,78
3015,-1,-163,-160,-495,23,80
3020,-2,-169,-163,-499,11,80
3025,-8,-167,-168,-504,-3,79
3030,-9,-171,-169,-510,-12,81
3035,-7,-170,-172,-513,-19,80
3040,-9,-171,-173,-511,-22,80
3045,-12,-170,-176,-503,-22,79
3050,-7,-170,-177,-491,-20,76
3055,-8,-170,-178,-476,-14,73
3060,-8,-169,-175,-463,-7,71
3065,-10,-171,-180,-449,0,70
3070,-6,-169,-180,-438,7,70
3075,-4,-171,-185,-430,17,74
3080,-8,-169,-178,-423,28,74
3085,-9,-166,-181,-423,38,77
3090,-8,-165,-183,-427,40,80
3095,-9,-164,-179,-432,36,83
3100,-9,-166,-176,-438,29,83
3105,-11,-166,-180,-443,18,86
3110,-12,-164,-181,-446,8,86
3115,-15,-165,-181,-447,1,86
3120,-12,-168,-177,-445,-3,84
3125,-17,-167,-184,-440,-3,83
3130,-13,-168,-182,-433,0,82
3135,-13,-166,-178,-422,2,77
3140,-14,-163,-188,-408,2,74
3145,-14,-160,-185,-395,1,70
3150,-17,-158,-188,-386,1,64
3155,-18,-153,-192,-381,-1,59
3160,-19,-151,-187,-380,-1,52
3165,-20,-152,-192,-383,-1,47
3170,-17,-150,-187,-393,-1,43
3175,-17,-150,-184,-404,-3,38
3180,-19,-149,-182,-417,0,35
3185,-18,-152,-183,-426,3,34
3190,-13,-151,-187,-432,8,36
3195,-9,-150,-184,-437,13,38
3200,-9,-151,-191,-441,16,40
3205,-6,-151,-190,-444,18,41
3210,-11,-152,-196,-445,18,43
3215,-10,-148,-192,-443,17,45
3220,-12,-148,-191,-441,15,45
3225,-7,-153,-192,-436,13,41
3230,-13,-152,-190,-432,10,40
3235,-9,-147,-194,-426,6,37
3240,-15,-145,-193,-420,0,35
3245,-15,-148,-192,-415,-6,36
3250,-13,-145,-192,-414,-11,35
3255,-11,-145,-194,-415,-12,38
3260,-12,-145,-194,-417,-13,39
3265,-13,-141,-197,-421,-12,43
3270,-13,-144,-197,-425,-9,43
3275,-13,-142,-193,-427,-7,46
3280,-14,-143,-194,-425,-8,44
3285,-15,-141,-194,-420,-12,42
3290,-19,-141,-200,-414,-19,38
3295,-13,-142,-198,-409,-23,34
3300,-17,-140,-200,-407,-26,32
3305,-13,-139,-201,-405,-24,28
3310,-16,-138,-201,-408,-16,26
3315,-16,-137,-198,-407,-7,24
3320,-16,-138,-195,-408,3,24
3325,-17,-135,-198,-410,12,22
3330,-16,-134,-199,-413,14,23
3335,-17,-134,-195,-417,14,25
3340,-15,-137,-196,-416,8,27
3345,-21,-137,-204,-417,0,28
3350,-15,-134,-203,-418,-7,31
3355,-14,-133,-198,-419,-15,33
3360,-15,-133,-203,-423,-24,37
3365,-13,-133,-204,-421,-32,39
3370,-12,-132,-199,-415,-40,40
3375,-16,-133,-206,-409,-49,41
3380,-17,-135,-203,-397,-52,40
3385,-15,-134,-206,-387,-52,40
3390,-14,-136,-209,-381,-47,38
3395,-16,-133,-206,-376,-39,37
3400,-16,-132,-207,-372,-30,37
3405,-13,-133,-205,-367,-21,33
3410,-12,-133,-208,-363,-13,28
3415,-15,-129,-211,-361,-7,23
3420,-13,-129,-212,-362,0,20
3425,-14,-128,-210,-360,3,19
3430,-14,-127,-212,-355,4,19
3435,-17,-128,-210,-349,3,17
3440,-16,-126,-209,-343,-3,16
3445,-19,-129,-207,-339,-13,16
3450,-17,-127,-209,-332,-22,13
3455,-20,-123,-213,-326,-31,13
3460,-16,-129,-210,-319,-38,13
3465,-16,-130,-207,-313,-42,10
3470,-17,-128,-204,-307,-45,7
3475,-16,-128,-209,-299,-45,6
3480,-20,-127,-208,-291,-46,2
3485,-20,-125,-208,-282,-48,1
3490,-19,-126,-208,-274,-52,1
3495,-17,-123,-211,-270,-57,-3
3500,-19,-122,-210,-266,-62,-3
3505,-19,-118,-209,-266,-71,-2
3510,-17,-123,-211,-265,-77,0
3515,-16,-122,-207,-263,-83,-1
3520,-18,-121,-212,-258,-83,-3
3525,-20,-118,-211,-249,-82,-2
3530,-16,-118,-214,-240,-75,-3
3535,-21,-113,-215,-240,-68,0
3540,-15,-117,-215,-240,-62,3
3545,-15,-117,-214,-241,-57,7
3550,-17,-116,-216,-241,-56,9
3555,-15,-117,-213,-241,-58,11
3560,-15,-118,-213,-241,-58,13
3565,-12,-124,-213,-246,-55,14
3570,-18,-119,-212,-254,-53,17
3575,-15,-118,-211,-256,-50,20
3580,-17,-122,-210,-254,-45,21
3585,-14,-118,-213,-247,-42,24
3590,-11,-121,-211,-242,-37,25
3595,-18,-118,-213,-237,-30,26
3600,-12,-116,-217,-233,-26,31
3605,-13,-117,-216,-230,-23,36
3610,-12,-115,-214,-229,-23,42
3615,-11,-121,-214,-229,-26,47
3620,-15,-113,-211,-227,-32,49
3625,-14,-113,-211,-225,-39,54
3630,-14,-110,-212,-223,-45,56
3635,-17,-110,-208,-220,-50,61
3640,-16,-112,-208,-217,-52,61
3645,-17,-110,-208,-214,-52,59
3650,-17,-109,-215,-214,-51,58
3655,-18,-109,-215,-216,-48,58
3660,-21,-109,-219,-217,-44,58
3665,-12,-104,-218,-219,-39,56
3670,-23,-107,-219,-219,-34,58
3675,-19,-108,-220,-219,-28,60
3680,-19,-108,-216,-220,-23,58
3685,-20,-110,-213,-220,-17,58
3690,-20,-109,-213,-218,-15,57
3695,-22,-107,-217,-214,-12,54
3700,-19,-109,-219,-214,-8,54
3705,-17,-112,-219,-216,-5,54
3710,-18,-111,-223,-215,-3,55
3715,-20,-112,-220,-212,-5,55
3720,-18,-111,-225,-202,-9,52
3725,-12,-112,-221,-191,-14,49
3730,-18,-111,-227,-176,-18,47
3735,-24,-111,-224,-164,-22,42
3740,-23,-109,-221,-151,-23,38
3745,-24,-111,-227,-138,-23,33
3750,-24,-113,-224,-127,-24,29
3755,-27,-110,-221,-118,-25,25
3760,-25,-108,-223,-112,-28,20
3765,-31,-109,-223,-108,-30,17
3770,-29,-106,-218,-108,-32,15
3775,-24,-110,-218,-110,-38,13
3780,-31,-108,-219,-111,-42,10
3785,-25,-103,-219,-111,-44,7
3790,-30,-98,-224,-110,-45,5
3795,-28,-98,-227,-110,-43,5
3800,-24,-100,-225,-111,-38,4
3805,-24,-99,-225,-111,-30,1
3810,-23,-100,-225,-105,-22,1
3815,-25,-100,-228,-97,-15,4
3820,-24,-98,-226,-88,-8,4
3825,-23,-97,-227,-82,-6,9
3830,-23,-96,-227,-84,-4,12
3835,-21,-101,-230,-92,-6,13
3840,-23,-99,-224,-101,-5,13
3845,-20,-102,-227,-113,-4,12
3850,-24,-103,-228,-123,-4,10
3855,-19,-101,-231,-130,-3,7
3860,-19,-103,-227,-131,0,2
3865,-21,-101,-226,-131,6,-2
3870,-25,-104,-226,-126,12,-4
3875,-25,-102,-230,-113,16,-4
3880,-28,-105,-228,-99,21,-6
3885,-28,-106,-229,-83,22,-1
3890,-25,-101,-229,-65,16,4
3895,-29,-102,-226,-53,6,9
3900,-32,-96,-230,-44,-6,13
3905,-30,-100,-229,-38,-16,14
3910,-32,-98,-231,-37,-23,16
3915,-31,-97,-233,-35,-27,15
3920,-30,-95,-234,-34,-29,8
3925,-30,-103,-237,-30,-29,-1
3930,-32,-100,-237,-28,-31,-7
3935,-28,-95,-236,-24,-30,-12
3940,-30,-92,-238,-17,-27,-15
3945,-26,-97,-238,-10,-24,-14
3950,-28,-93,-233,-2,-21,-9
3955,-27,-97,-231,6,-18,-3
3960,-27,-95,-231,12,-16,5
3965,-24,-97,-231,15,-13,11
3970,-23,-99,-236,21,-11,20
3975,-21,-99,-233,25,-9,22
3980,-19,-102,-233,28,-7,21
3985,-17,-98,-236,32,-5,18
3990,-14,-101,-233,38,-4,19
3995,-17,-100,-235,42,-3,21
4000,-21,-99,-236,48,-1,22
4005,-19,-98,-235,53,2,18
4010,-15,-97,-234,62,6,14
4015,-22,-99,-233,72,10,12
4020,-24,-99,-237,81,9,15
4025,-20,-101,-241,95,11,19
4030,-20,-105,-238,120,14,19
4035,-25,-108,-240,152,20,17
4040,-22,-107,-237,186,28,15
4045,-27,-105,-237,216,37,15
4050,-26,-105,-233,241,47,18
4055,-28,-103,-232,259,56,24
4060,-29,-100,-236,272,63,30
4065,-27,-99,-234,281,68,40
4070,-27,-98,-229,286,68,51
4075,-23,-94,-229,289,67,60
4080,-25,-92,-227,294,63,66
4085,-21,-92,-231,296,56,68
4090,-25,-87,-231,289,50,67
4095,-23,-82,-228,280,47,65
4100,-26,-87,-226,262,46,60
4105,-19,-86,-226,240,49,57
4110,-20,-87,-219,215,55,55
4115,-23,-87,-225,187,60,51
4120,-21,-85,-223,159,68,53
4125,-18,-87,-225,136,79,56
4130,-21,-89,-225,113,88,57
4135,-20,-92,-226,97,94,60
4140,-21,-94,-225,88,101,63
4145,-22,-97,-225,84,105,67
4150,-24,-95,-226,82,104,69
4155,-25,-100,-222,85,100,69
4160,-26,-100,-227,87,93,72
4165,-28,-98,-229,87,82,73
4170,-25,-102,-228,85,71,69
4175,-28,-98,-222,79,61,64
4180,-28,-100,-224,72,52,61
4185,-27,-98,-226,64,44,59
4190,-26,-101,-227,58,40,56
4195,-26,-105,-226,54,37,59
4200,-26,-99,-221,57,37,60
4205,-28,-99,-225,63,37,63
4210,-28,-102,-229,77,41,70
4215,-22,-100,-223,91,47,76
4220,-26,-101,-221,107,54,83
4225,-25,-101,-225,120,58,90
4230,-21,-98,-221,133,59,94
4235,-22,-98,-219,143,58,99
4240,-21,-98,-220,150,58,98
4245,-19,-101,-219,153,60,99
4250,-18,-99,-227,152,57,99
4255,-20,-95,-219,148,55,98
4260,-19,-98,-224,139,51,96
4265,-21,-97,-225,132,47,94
4270,-28,-97,-226,124,46,91
4275,-25,-99,-223,118,46,88
4280,-23,-99,-227,117,49,86
4285,-23,-100,-228,117,54,83
4290,-23,-98,-225,118,60,82
4295,-23,-98,-230,119,68,83
4300,-22,-98,-228,117,77,83
4305,-22,-102,-232,115,84,87
4310,-22,-104,-226,114,87,90
4315,-17,-104,-227,112,92,92
4320,-21,-103,-228,104,99,90
4325,-19,-105,-213,99,101,89
4330,-20,-105,-222,96,100,83
4335,-20,-104,-219,93,97,74
4340,-22,-104,-219,90,93,69
4345,-18,-105,-222,90,92,61
4350,-22,-103,-222,91,90,54
4355,-23,-105,-224,92,87,50
4360,-19,-106,-221,92,84,49
4365,-25,-104,-220,87,79,51
4370,-24,-103,-226,86,71,53
4375,-22,-105,-223,85,63,53
4380,-28,-105,-220,83,57,48
4385,-25,-106,-223,77,50,43
4390,-27,-108,-222,71,48,36
4395,-27,-107,-225,68,46,29
4400,-28,-109,-221,72,42,23
4405,-27,-107,-221,80,39,19
4410,-25,-108,-222,89,36,14
4415,-27,-104,-221,101,36,11
4420,-23,-104,-223,111,32,11
4425,-22,-104,-218,118,31,13
4430,-17,-103,-228,120,29,14
4435,-20,-106,-219,120,25,16
4440,-21,-104,-219,118,22,17
4445,-15,-106,-222,115,18,18
4450,-19,-103,-216,113,19,16
4455,-19,-106,-217,112,20,17
4460,-16,-106,-216,114,21,15
4465,-13,-106,-218,118,21,11
4470,-17,-108,-215,122,23,7
4475,-18,-104,-219,121,23,1
4480,-21,-101,-215,117,24,-6
4485,-19,-103,-214,113,25,-14
4490,-27,-109,-218,108,27,-18
4495,-22,-104,-215,108,25,-20
4500,-22,-105,-214,110,23,-22
4505,-23,-101,-214,113,21,-22
4510,-21,-102,-213,115,14,-19
4515,-21,-101,-215,116,10,-18
4520,-22,-103,-214,119,7,-19
4525,-17,-104,-209,118,5,-16
4530,-19,-105,-214,116,6,-15
4535,-19,-102,-212,114,6,-13
4540,-18,-99,-212,109,8,-10
4545,-18,-99,-214,107,10,-8
4550,-12,-102,-210,103,15,-8
4555,-11,-98,-211,98,19,-9
4560,-9,-100,-212,95,27,-11
4565,-11,-101,-211,92,36,-14
4570,-14,-101,-215,89,46,-18
4575,-12,-106,-215,86,56,-20
4580,-16,-102,-211,84,66,-21
4585,-17,-105,-212,86,74,-21
4590,-19,-104,-209,85,81,-20
4595,-19,-104,-214,85,88,-21
4600,-8,-99,-211,81,90,-22
4605,-21,-102,-210,75,87,-23
4610,-17,-104,-214,70,81,-24
4615,-20,-103,-212,68,73,-27
4620,-22,-105,-213,70,61,-29
4625,-23,-102,-216,73,50,-31
4630,-24,-101,-211,80,37,-35
4635,-20,-100,-219,88,27,-39
4640,-28,-97,-218,97,18,-45
4645,-20,-96,-215,103,12,-52
4650,-24,-101,-215,113,7,-61
4655,-21,-96,-220,124,3,-69
4660,-20,-103,-217,135,1,-76
4665,-20,-99,-216,143,2,-82
4670,-18,-101,-215,149,2,-82
4675,-17,-99,-215,155,5,-79
4680,-18,-101,-213,153,7,-76
4685,-17,-99,-213,150,9,-75
4690,-15,-100,-213,143,11,-73
4695,-15,-101,-216,132,12,-72
4700,-17,-100,-211,119,15,-76
4705,-21,-94,-214,105,19,-79
4710,-15,-99,-216,93,19,-81
4715,-14,-99,-212,83,20,-83
4720,-18,-97,-220,77,23,-84
4725,-17,-101,-217,76,28,-86
4730,-20,-98,-213,78,29,-89
4735,-22,-98,-212,83,33,-87
4740,-21,-100,-217,87,36,-84
4745,-21,-104,-218,91,40,-83
4750,-21,-106,-217,99,44,-82
4755,-21,-103,-223,108,43,-79
4760,-19,-102,-217,113,41,-76
4765,-24,-98,-220,111,35,-72
4770,-26,-102,-217,107,30,-70
4775,-21,-100,-220,104,27,-70
4780,-20,-99,-217,104,25,-71
4785,-21,-101,-217,107,24,-72
4790,-24,-99,-217,114,24,-78
4795,-22,-102,-216,129,26,-77
4800,-23,-102,-218,144,29,-75
4805,-24,-102,-215,154,34,-73
4810,-20,-102,-215,158,39,-72
4815,-23,-99,-224,158,42,-70
4820,-18,-102,-221,156,45,-68
4825,-13,-104,-221,155,47,-64
4830,-14,-101,-220,153,48,-57
4835,-12,-100,-221,150,50,-51
4840,-13,-104,-222,147,51,-49
4845,-11,-103,-224,146,55,-47
4850,-14,-101,-225,144,58,-47
4855,-15,-95,-233,144,64,-49
4860,-17,-100,-224,146,67,-51
4865,-17,-101,-223,151,70,-51
4870,-24,-99,-225,156,75,-56
4875,-20,-101,-225,158,78,-59
4880,-20,-101,-223,157,81,-59
4885,-20,-99,-221,154,81,-57
4890,-20,-101,-221,149,79,-53
4895,-22,-102,-219,141,77,-49
4900,-18,-101,-218,132,74,-47
4905,-18,-110,-214,120,73,-41
4910,-18,-111,-212,116,69,-37
4915,-20,-106,-216,115,64,-34
4920,-19,-109,-220,120,60,-34
4925,-19,-104,-211,124,56,-32
4930,-19,-106,-218,129,52,-34
4935,-19,-108,-219,136,49,-34
4940,-17,-108,-223,146,45,-37
4945,-19,-108,-218,157,43,-40
4950,-18,-111,-218,166,38,-41
4955,-16,-115,-217,182,31,-44
4960,-18,-111,-219,205,26,-51
4965,-15,-112,-215,228,19,-57
4970,-19,-113,-219,253,12,-60
4975,-19,-114,-211,280,6,-63
4980,-16,-121,-214,306,1,-65
4985,-16,-121,-212,332,-4,-68
4990,-14,-120,-212,359,-7,-70
4995,-15,-119,-208,391,-13,-67
5000,-15,-122,-208,424,-15,-67
5005,-11,-126,-206,461,-18,-65
5010,-9,-125,-210,496,-19,-64
5015,-11,-122,-215,530,-19,-64
5020,-9,-125,-212,560,-19,-63
5025,-9,-127,-212,586,-18,-62
5030,-13,-124,-207,608,-16,-62
5035,-15,-124,-214,628,-12,-62
5040,-13,-126,-214,648,-10,-60
5045,-13,-127,-213,668,-6,-59
5050,-11,-127,-215,689,-4,-57
5055,-13,-129,-215,709,-2,-57
5060,-14,-130,-217,726,-2,-53
5065,-9,-130,-215,737,-3,-53
5070,-9,-128,-217,744,-4,-52
5075,-10,-129,-217,748,-4,-51
5080,-10,-130,-216,753,-5,-49
5085,-10,-132,-218,755,-9,-48
5090,-19,-133,-221,752,-11,-47
5095,-12,-131,-217,749,-12,-45
5100,-10,-138,-214,747,-13,-41
5105,-13,-143,-219,752,-15,-38
5110,-11,-143,-217,760,-17,-34
5115,-13,-143,-217,770,-18,-34
5120,-15,-143,-219,780,-17,-36
5125,-16,-145,-221,791,-17,-39
5130,-16,-147,-213,800,-17,-42
5135,-19,-145,-211,807,-21,-47
5140,-16,-145,-211,811,-25,-49
5145,-22,-145,-215,815,-29,-48
5150,-15,-151,-213,819,-35,-44
5155,-15,-154,-214,828,-36,-41
5160,-14,-154,-217,840,-36,-41
5165,-15,-153,-219,854,-36,-42
5170,-12,-158,-215,866,-35,-44
5175,-14,-153,-216,873,-35,-44
5180,-13,-150,-217,872,-35,-41
5185,-20,-146,-217,865,-38,-37
5190,-18,-153,-212,855,-42,-35
5195,-19,-154,-212,847,-46,-33
5200,-20,-155,-210,844,-46,-33
5205,-17,-157,-213,844,-46,-37
5210,-20,-160,-209,846,-46,-41
5215,-19,-161,-208,848,-50,-42
5220,-17,-158,-213,849,-54,-42
5225,-18,-160,-210,850,-59,-42
5230,-17,-159,-213,846,-65,-41
5235,-18,-159,-209,841,-69,-41
5240,-18,-167,-208,841,-70,-41
5245,-15,-164,-208,844,-67,-43
5250,-16,-167,-211,850,-62,-45
5255,-14,-166,-205,857,-59,-47
5260,-14,-166,-206,862,-58,-49
5265,-16,-166,-200,867,-58,-49
5270,-19,-167,-206,870,-61,-46
5275,-18,-163,-208,872,-66,-43
5280,-21,-164,-201,874,-72,-44
5285,-17,-163,-201,874,-76,-48
5290,-19,-164,-202,876,-85,-51
5295,-18,-166,-196,877,-92,-56
5300,-16,-163,-199,876,-99,-59
5305,-13,-167,-201,874,-103,-62
5310,-18,-165,-199,874,-106,-61
5315,-16,-172,-196,875,-108,-64
5320,-16,-171,-195,880,-104,-64
5325,-14,-173,-194,889,-100,-66
5330,-14,-167,-197,896,-98,-68
5335,-14,-171,-190,900,-98,-67
5340,-13,-170,-192,901,-100,-67
5345,-18,-169,-189,898,-104,-66
5350,-16,-166,-179,898,-111,-64
5355,-14,-167,-176,898,-120,-66
5360,-24,-165,-178,900,-128,-69
5365,-17,-169,-173,895,-138,-69
5370,-17,-171,-174,890,-149,-68
5375,-19,-170,-172,889,-161,-70
5380,-19,-172,-170,890,-167,-69
5385,-15,-178,-171,899,-168,-64
5390,-11,-178,-172,919,-162,-63
5395,-9,-177,-172,946,-149,-65
5400,-14,-174,-170,983,-134,-67
5405,-21,-176,-168,1013,-122,-63
5410,-25,-178,-171,1030,-119,-60
5415,-32,-190,-169,1040,-124,-59
5420,-38,-190,-169,1044,-139,-57
5425,-49,-200,-166,1051,-161,-52
5430,-63,-214,-163,1060,-186,-52
5435,-74,-231,-162,1077,-215,-59
5440,-78,-245,-161,1106,-244,-69
5445,-82,-267,-159,1149,-276,-83
5450,-89,-288,-156,1212,-307,-96
5455,-93,-313,-157,1291,-335,-105
5460,-88,-332,-166,1380,-364,-111
5465,-81,-341,-176,1465,-386,-106
5470,-61,-353,-186,1537,-402,-89
5475,-42,-349,-203,1577,-405,-74
5480,-24,-334,-209,1565,-400,-60
5485,-21,-321,-210,1498,-391,-51
5490,-14,-299,-196,1385,-377,-35
5495,-12,-273,-177,1246,-360,-23
5500,-17,-245,-152,1111,-341,-19
5505,-20,-222,-130,985,-317,-16
5510,-19,-201,-114,881,-288,-16
5515,-27,-179,-101,795,-260,-10
5520,-26,-168,-93,724,-237,-7
5525,-31,-153,-87,665,-216,-3
5530,-31,-143,-88,618,-198,4
5535,-30,-144,-89,581,-186,3
5540,-31,-142,-93,552,-176,0
5545,-33,-142,-95,526,-167,-7
5550,-29,-150,-102,495,-157,-18
5555,-26,-155,-102,465,-150,-34
5560,-27,-162,-103,441,-142,-56
5565,-27,-174,-103,423,-137,-80
5570,-28,-181,-100,416,-131,-102
5575,-30,-193,-107,417,-124,-122
5580,-27,-195,-103,424,-119,-138
5585,-25,-211,-98,436,-115,-155
5590,-31,-220,-96,453,-118,-171
5595,-26,-230,-89,476,-122,-185
5600,-29,-235,-90,511,-127,-201
5605,-29,-241,-88,561,-136,-210
5610,-33,-248,-87,618,-144,-224
5615,-31,-250,-87,675,-154,-232
5620,-32,-251,-88,732,-161,-242
5625,-33,-255,-85,783,-169,-251
5630,-27,-259,-76,828,-174,-256
5635,-33,-254,-84,865,-172,-259
5640,-32,-254,-81,895,-169,-258
5645,-28,-250,-82,910,-164,-256
5650,-28,-243,-81,915,-157,-252
5655,-29,-238,-77,903,-149,-249
5660,-26,-236,-77,884,-137,-245
5665,-29,-232,-72,855,-127,-239
5670,-33,-225,-71,820,-116,-231
5675,-30,-227,-77,783,-110,-220
5680,-27,-227,-76,744,-107,-210
5685,-26,-233,-75,706,-106,-203
5690,-25,-233,-83,669,-106,-200
5695,-18,-231,-85,634,-108,-195
5700,-16,-235,-86,609,-109,-192
5705,-13,-236,-86,595,-104,-191
5710,-10,-237,-92,591,-83,-195
5715,-6,-238,-89,592,-56,-205
5720,-8,-242,-89,595,-26,-215
5725,-9,-237,-84,599,-3,-227
5730,-7,-229,-80,604,15,-237
5735,-7,-230,-78,610,28,-244
5740,-12,-220,-75,616,35,-249
5745,-11,-224,-72,620,35,-253
5750,-13,-227,-73,622,30,-259
5755,-14,-231,-74,623,20,-261
5760,-21,-230,-76,627,10,-265
5765,-25,-230,-72,630,-1,-270
5770,-29,-231,-77,632,-15,-271
5775,-25,-238,-74,627,-29,-273
5780,-25,-240,-78,622,-44,-272
5785,-22,-242,-80,614,-58,-268
5790,-25,-239,-84,606,-73,-261
5795,-26,-248,-90,593,-87,-251
5800,-18,-237,-86,569,-97,-239
5805,-16,-239,-80,542,-106,-232
5810,-13,-235,-85,522,-113,-222
5815,-5,-240,-89,499,-117,-209
5820,-7,-241,-85,473,-118,-200
5825,-6,-244,-83,451,-116,-193
5830,-2,-243,-86,435,-107,-186
5835,-3,-243,-84,422,-93,-175
5840,-6,-241,-86,410,-76,-170
5845,-5,-246,-84,405,-58,-170
5850,-6,-244,-80,407,-42,-169
5855,-9,-242,-82,414,-30,-169
5860,-12,-242,-83,419,-21,-165
5865,-16,-242,-83,422,-17,-158
5870,-16,-242,-79,424,-17,-150
5875,-13,-242,-82,431,-17,-147
5880,-10,-243,-80,447,-14,-150
5885,-7,-241,-75,467,-13,-152
5890,-10,-237,-80,486,-16,-158
5895,-8,-235,-78,501,-22,-163
5900,-10,-227,-82,512,-26,-162
5905,-3,-230,-76,511,-32,-162
5910,-5,-228,-79,502,-37,-159
5915,-2,-230,-77,488,-43,-153
5920,-6,-228,-77,472,-46,-145
5925,-6,-229,-73,454,-50,-136
5930,-5,-231,-68,437,-49,-126
5935,-5,-232,-69,422,-44,-122
5940,-2,-232,-71,404,-36,-117
5945,-1,-235,-65,386,-27,-111
5950,-3,-235,-65,367,-17,-108
5955,0,-232,-56,351,-5,-105
5960,-2,-237,-55,334,7,-102
5965,1,-239,-52,320,17,-99
5970,3,-242,-46,308,26,-93
5975,5,-243,-43,303,34,-92
5980,8,-247,-36,298,39,-92
5985,9,-244,-40,295,46,-94
5990,7,-246,-37,292,52,-98
5995,8,-249,-36,282,58,-100
6000,4,-248,-38,273,63,-103
6005,6,-248,-40,266,67,-107
6010,2,-245,-41,261,68,-107
6015,4,-245,-40,258,65,-108
6020,1,-245,-36,261,60,-106
6025,1,-244,-39,267,52,-102
6030,1,-244,-35,274,42,-98
6035,0,-240,-35,283,30,-96
6040,0,-241,-35,293,17,-90
6045,-3,-239,-34,301,9,-86
6050,-4,-234,-32,305,-1,-84
6055,-2,-233,-31,301,-12,-82
6060,-5,-233,-34,290,-22,-79
6065,-1,-232,-35,273,-34,-77
6070,-2,-230,-30,248,-45,-70
6075,-2,-233,-29,218,-54,-64
6080,0,-232,-33,187,-62,-59
6085,1,-232,-35,155,-67,-55
6090,5,-237,-33,132,-68,-50
6095,6,-236,-33,113,-62,-45
6100,5,-236,-39,106,-51,-42
6105,8,-240,-37,104,-37,-43
6110,6,-241,-43,105,-21,-45
6115,2,-241,-42,105,-7,-44
6120,0,-237,-49,105,3,-47
6125,-6,-239,-47,102,8,-47
6130,-5,-240,-54,98,12,-48
6135,-7,-241,-49,93,12,-48
6140,-11,-239,-54,86,11,-48
6145,-10,-240,-56,79,12,-45
6150,-12,-241,-53,76,14,-41
6155,-11,-240,-59,74,16,-35
6160,-9,-238,-62,75,17,-27
6165,-7,-237,-61,75,14,-18
6170,-4,-242,-59,77,12,-12
6175,-1,-240,-61,78,10,-6
6180,-5,-241,-60,77,3,-3
6185,-1,-240,-62,74,-1,0
6190,-2,-244,-59,70,-3,1
6195,-2,-240,-60,63,-4,2
6200,-1,-243,-61,53,-5,1
6205,0,-240,-60,37,-4,-2
6210,0,-239,-58,20,-2,0
6215,0,-242,-60,2,-2,0
6220,0,-237,-60,-17,-2,0
6225,-3,-240,-59,-36,-4,0
6230,1,-238,-58,-54,-6,-1
6235,0,-240,-56,-66,-10,-2
6240,0,-241,-57,-73,-12,-3
6245,1,-243,-57,-77,-10,-2
6250,-3,-244,-54,-78,-10,-3
6255,0,-245,-53,-75,-9,-4
6260,-1,-246,-50,-68,-5,-5
6265,-3,-246,-51,-59,0,-6
6270,-2,-245,-54,-53,6,-8
6275,-8,-245,-55,-48,11,-14
6280,-6,-253,-50,-49,14,-15
6285,-7,-248,-57,-49,18,-15
6290,-7,-249,-59,-48,21,-15
6295,-10,-245,-62,-44,22,-13
6300,-10,-247,-59,-41,21,-11
6305,-10,-245,-60,-38,19,-7
6310,-9,-243,-61,-37,15,-5
6315,-9,-242,-61,-39,12,-4
6320,-12,-242,-63,-43,9,-5
6325,-7,-244,-63,-49,7,-3
6330,-8,-241,-60,-53,5,-4
6335,-7,-238,-63,-52,3,-7
6340,-7,-237,-58,-48,4,-13
6345,-7,-240,-61,-41,4,-13
6350,-9,-238,-60,-36,5,-14
6355,-7,-239,-57,-31,6,-12
6360,-6,-240,-56,-26,5,-10
6365,-7,-242,-58,-20,6,-11
6370,-5,-244,-59,-18,7,-11
6375,-5,-242,-61,-15,10,-9
6380,-3,-240,-58,-15,14,-12
6385,-4,-242,-57,-16,17,-13
6390,-5,-245,-61,-19,20,-14
6395,-2,-240,-60,-24,25,-16
6400,-4,-240,-58,-29,31,-17
6405,-2,-240,-62,-34,35,-16
6410,-3,-240,-60,-39,40,-17
6415,-1,-241,-61,-41,45,-19
6420,-1,-240,-60,-42,48,-19
6425,-5,-238,-61,-40,51,-18
6430,0,-243,-58,-34,52,-17
6435,-2,-242,-59,-26,51,-18
6440,-4,-241,-58,-17,49,-16
6445,2,-246,-64,-7,44,-13
6450,-2,-243,-63,4,40,-12
6455,-1,-241,-59,13,36,-11
6460,-5,-244,-65,22,32,-12
6465,-3,-246,-63,29,30,-13
6470,-5,-244,-63,36,28,-18
6475,-7,-245,-64,43,26,-17
6480,-7,-241,-68,48,24,-19
6485,-3,-248,-63,54,23,-20
6490,-7,-246,-64,61,23,-20
6495,-5,-244,-65,66,22,-19
6500,-2,-238,-62,71,23,-21
6505,-7,-236,-63,74,23,-20
6510,-6,-241,-65,75,26,-22
6515,-6,-242,-66,72,28,-20
6520,-5,-239,-63,67,32,-20
6525,-3,-239,-65,61,33,-21
6530,-7,-239,-62,54,34,-22
6535,-6,-240,-66,49,35,-20
6540,-11,-237,-60,47,36,-19
6545,-4,-239,-60,44,37,-20
6550,-10,-237,-64,42,36,-20
6555,-8,-240,-63,36,35,-22
6560,-8,-238,-62,32,34,-24
6565,-9,-241,-63,26,32,-26
6570,-7,-243,-63,21,32,-26
6575,-5,-245,-61,20,34,-27
6580,-7,-243,-63,24,33,-26
6585,-9,-241,-62,30,32,-25
6590,-5,-244,-63,36,31,-27
6595,-6,-240,-61,40,30,-26
6600,-8,-244,-63,44,30,-24
6605,-2,-239,-62,47,30,-24
6610,-8,-245,-64,50,29,-22
6615,-5,-242,-57,52,29,-22
6620,-4,-240,-61,55,26,-23
6625,-6,-242,-58,58,25,-22
6630,-7,-240,-58,61,24,-24
6635,-6,-244,-55,67,23,-26
6640,-8,-240,-57,72,22,-25
6645,-5,-239,-59,77,20,-27
6650,-5,-244,-56,81,19,-28
6655,-8,-239,-65,82,15,-29
6660,-3,-245,-60,84,15,-29
6665,-5,-243,-55,85,14,-28
6670,0,-244,-61,87,13,-29
6675,-6,-244,-57,88,12,-28
6680,-2,-245,-58,93,11,-30
6685,-5,-243,-59,95,11,-29
6690,-3,-242,-57,97,9,-30
6695,-4,-245,-53,96,9,-30
6700,-4,-243,-58,94,7,-31
6705,-2,-240,-58,92,6,-30
6710,-4,-240,-58,89,4,-30
6715,-5,-240,-61,84,3,-32
6720,-2,-240,-56,82,3,-34
6725,0,-243,-60,80,2,-32
6730,-3,-242,-56,80,4,-33
6735,-1,-241,-56,83,6,-32
6740,-2,-240,-58,84,8,-31
6745,-2,-240,-58,86,11,-31
6750,1,-243,-53,90,16,-31
6755,-1,-241,-54,88,21,-30
6760,-4,-244,-56,87,24,-32
6765,-2,-242,-56,86,27,-32
6770,-5,-244,-63,82,27,-32
6775,-1,-244,-55,77,30,-32
6780,0,-244,-55,78,31,-32
6785,0,-243,-55,80,29,-31
6790,-2,-245,-58,83,26,-30
6795,-2,-245,-58,84,25,-31
6800,0,-243,-55,86,22,-30
6805,-4,-245,-58,86,17,-32
6810,-2,-246,-59,86,15,-32
6815,-1,-241,-61,85,14,-30
6820,-2,-243,-59,85,15,-32
6825,0,-242,-62,87,13,-30
6830,0,-243,-58,86,11,-28
6835,-3,-243,-58,87,8,-28
6840,0,-240,-58,87,6,-24
6845,-1,-242,-58,86,5,-21
6850,0,-240,-52,82,5,-23
6855,-2,-243,-54,81,5,-21
6860,-3,-242,-59,79,4,-22
6865,-3,-244,-56,77,3,-25
6870,-1,-244,-59,78,5,-25
6875,-1,-243,-55,79,4,-26
6880,-7,-241,-58,81,3,-28
6885,0,-245,-57,83,3,-29
6890,-1,-243,-63,84,2,-30
6895,0,-239,-59,84,2,-31
6900,0,-243,-57,84,2,-30
6905,0,-239,-62,82,3,-29
6910,-1,-241,-60,81,4,-31
6915,0,-243,-57,80,3,-29
6920,0,-240,-59,78,3,-29
6925,1,-242,-61,78,6,-29
6930,1,-242,-56,77,7,-25
6935,-1,-242,-53,76,8,-22
6940,0,-241,-57,73,10,-21
6945,-2,-240,-54,69,12,-21
6950,2,-241,-54,64,14,-16
6955,1,-242,-57,61,15,-16
6960,-1,-240,-55,56,16,-16
6965,0,-242,-57,53,17,-14
6970,1,-240,-58,51,17,-14
6975,0,-244,-54,48,19,-16
6980,1,-239,-57,45,18,-15
6985,1,-240,-61,42,18,-15
6990,-1,-237,-56,40,16,-16
6995,-1,-243,-59,37,16,-16
7000,-1,-241,-55,34,15,-16
7005,-2,-240,-59,33,14,-16
7010,-1,-242,-61,29,15,-15
7015,-2,-243,-57,26,15,-16
7020,-2,-242,-59,22,14,-15
7025,-2,-241,-57,22,15,-15
7030,-2,-242,-61,21,14,-14
7035,-3,-240,-59,24,14,-14
7040,-3,-245,-61,24,13,-14
7045,-1,-249,-53,27,12,-14
7050,-4,-239,-62,30,14,-15
7055,-2,-241,-59,32,13,-17
7060,-3,-243,-60,32,13,-16
7065,-2,-243,-57,32,15,-17
7070,0,-245,-59,33,15,-19
7075,-3,-243,-54,32,17,-18
7080,-1,-240,-59,33,19,-19
7085,-1,-242,-59,36,22,-18
7090,-2,-238,-57,37,22,-18
7095,-5,-240,-59,38,25,-19
7100,-1,-241,-56,37,26,-16
7105,0,-242,-55,34,27,-16
7110,-2,-240,-53,32,27,-16
7115,0,-240,-55,29,26,-13
7120,0,-240,-54,26,25,-12
7125,-1,-241,-53,23,24,-10
7130,0,-243,-56,20,23,-10
7135,-3,-243,-54,15,21,-11
7140,-1,-243,-55,12,19,-12
7145,-1,-244,-59,12,18,-10
7150,-5,-242,-57,13,16,-11
7155,-1,-244,-55,18,12,-13
7160,0,-243,-56,24,11,-13
7165,-3,-243,-58,31,8,-13
7170,-3,-244,-56,36,7,-15
7175,0,-243,-59,40,6,-13
7180,-3,-243,-60,42,7,-15
7185,0,-244,-60,46,7,-17
7190,-2,-247,-58,47,9,-16
7195,-3,-239,-57,46,11,-15
7200,-4,-243,-58,45,13,-14
7205,1,-245,-58,45,14,-13
7210,-3,-244,-57,44,15,-12
7215,-2,-240,-52,43,16,-10
7220,0,-242,-57,42,15,-12
7225,0,-243,-58,42,14,-12
7230,0,-241,-57,41,13,-12
7235,0,-239,-59,42,13,-12
7240,-3,-241,-60,40,11,-13
7245,-1,-241,-59,39,11,-14
7250,-1,-241,-62,39,10,-13
7255,0,-242,-60,37,10,-13
7260,0,-236,-56,36,10,-14
7265,0,-247,-62,34,7,-14
7270,0,-245,-57,33,7,-13
7275,0,-242,-60,34,8,-12
7280,0,-242,-61,35,8,-11
7285,0,-245,-58,36,8,-10
7290,0,-241,-63,38,8,-9
7295,0,-239,-59,38,7,-9
7300,1,-242,-58,38,6,-11
7305,0,-240,-60,36,7,-11
7310,0,-240,-57,33,7,-11
7315,-1,-247,-53,29,8,-12
7320,0,-239,-61,25,8,-13
7325,1,-244,-59,22,8,-12
7330,-2,-243,-59,23,10,-12
7335,-1,-242,-57,25,10,-13
7340,0,-246,-58,30,11,-14
7345,-2,-239,-57,35,13,-13
7350,1,-245,-56,41,14,-13
7355,-3,-242,-58,44,14,-14
7360,-2,-245,-60,45,14,-14
7365,-3,-238,-61,43,15,-12
7370,-8,-240,-64,40,13,-11
7375,0,-242,-62,35,10,-10
7380,-3,-243,-59,33,9,-10
7385,0,-242,-58,31,8,-9
7390,1,-243,-61,31,7,-7
7395,-1,-241,-58,31,5,-7
7400,-2,-241,-58,32,3,-8
7405,-2,-243,-53,32,2,-7
7410,-5,-242,-62,36,0,-5
7415,-2,-240,-65,39,1,-5
7420,1,-243,-57,41,2,-4
7425,-2,-237,-56,43,4,-7
7430,0,-239,-59,44,6,-6
7435,0,-242,-61,45,8,-7
7440,-2,-241,-58,45,9,-10
7445,-1,-242,-59,47,11,-12
7450,-3,-244,-60,49,12,-13
7455,0,-242,-61,54,14,-14
7460,3,-243,-55,57,14,-13
7465,0,-243,-60,61,15,-13
7470,-2,-240,-61,67,16,-10
7475,-1,-239,-60,69,15,-9
7480,-2,-237,-66,69,14,-9
7485,2,-240,-63,67,14,-10
7490,0,-241,-61,64,12,-11
7495,-4,-241,-62,62,12,-12
7500,0,-240,-62,61,12,-11
7505,0,-239,-59,60,12,-10
7510,-1,-237,-58,63,13,-9
7515,1,-241,-60,64,12,-8
7520,0,-237,-59,64,13,-7
7525,0,-241,-59,59,13,-6
7530,1,-246,-63,56,15,-9
7535,-1,-239,-61,52,16,-9
7540,-1,-240,-57,46,19,-8
7545,0,-242,-59,42,19,-8
7550,0,-242,-59,39,20,-10
7555,-4,-241,-55,38,20,-10
7560,-3,-244,-61,35,21,-9
7565,-2,-245,-60,33,20,-8
7570,0,-242,-58,31,20,-8
7575,-4,-239,-62,29,19,-8
7580,-3,-244,-58,29,18,-9
7585,2,-240,-69,29,18,-8
7590,-1,-240,-62,33,17,-6
7595,-2,-239,-60,35,17,-6
7600,-3,-242,-61,35,15,-5
7605,-1,-240,-64,34,15,-6
7610,-2,-239,-62,35,14,-4
7615,-1,-239,-62,36,14,-4
7620,0,-242,-62,35,12,-3
7625,-5,-239,-60,31,10,0
7630,0,-236,-60,26,8,2
7635,3,-238,-59,19,6,1
7640,-2,-234,-65,11,5,2
7645,-2,-237,-59,4,3,2
7650,-4,-243,-55,2,4,2
7655,-4,-239,-56,-1,3,2
7660,-4,-238,-60,-3,5,3
7665,0,-243,-62,-2,7,2
7670,-4,-242,-58,-2,8,1
7675,-3,-242,-60,-1,11,-3
7680,-2,-242,-60,-1,13,-2
7685,-2,-243,-61,-2,13,1
7690,1,-243,-59,-3,12,2
7695,1,-242,-64,-5,12,6
7700,-3,-244,-61,-9,11,8
7705,-2,-246,-62,-11,8,9
7710,0,-246,-62,-10,6,8
7715,0,-242,-59,-6,3,8
7720,1,-242,-61,2,2,8
7725,1,-241,-62,10,0,6
7730,0,-243,-59,17,-1,5
7735,0,-241,-61,24,-1,3
7740,3,-238,-60,29,0,3
7745,3,-241,-60,30,1,2
7750,-1,-236,-63,28,4,3
7755,0,-238,-59,23,7,5
7760,0,-240,-57,14,8,4
7765,-2,-238,-57,5,11,4
7770,0,-241,-57,-4,13,7
7775,0,-241,-58,-14,14,5
7780,0,-241,-58,-20,16,2
7785,-4,-241,-58,-23,15,1
7790,-8,-242,-60,-21,14,2
7795,-9,-245,-57,-17,11,0
7800,-7,-246,-63,-11,9,1
7805,-9,-243,-62,-2,7,0
7810,-4,-246,-61,8,5,2
7815,-6,-246,-59,18,3,3
7820,-8,-244,-63,27,0,4
7825,-6,-245,-63,35,-2,6
7830,-5,-245,-62,43,-2,8
7835,-7,-240,-64,51,-1,10
7840,-8,-239,-63,55,1,12
7845,-4,-241,-68,52,6,13
7850,-2,-241,-63,41,11,15
7855,-7,-235,-64,26,18,18
7860,0,-239,-62,8,23,23
7865,-2,-239,-57,-10,28,28
7870,0,-239,-57,-25,34,32
7875,-3,-236,-52,-40,37,32
7880,0,-241,-51,-51,39,30
7885,-7,-240,-55,-61,42,25
7890,-6,-239,-51,-62,47,21
7895,-7,-240,-55,-57,50,21
7900,-2,-241,-56,-50,52,25
7905,-4,-241,-60,-40,55,27
7910,-1,-243,-67,-33,59,29
7915,0,-241,-60,-27,65,30
7920,2,-241,-57,-25,71,30
7925,2,-237,-63,-28,78,28
7930,7,-236,-61,-36,86,27
7935,7,-235,-57,-49,90,26
7940,6,-232,-56,-67,94,25
7945,4,-229,-50,-89,94,23
7950,1,-227,-56,-116,90,25
7955,2,-227,-47,-145,81,22
7960,3,-228,-47,-175,68,22
7965,2,-227,-58,-201,54,24
7970,0,-229,-53,-225,37,25
7975,-2,-227,-54,-246,21,27
7980,-2,-228,-56,-263,7,28
7985,-10,-227,-60,-279,-5,30
7990,-6,-229,-66,-297,-16,32
7995,-4,-227,-69,-315,-21,37
8000,-2,-231,-75,-336,-25,46
8005,-1,-225,-77,-360,-24,57
8010,-4,-228,-77,-384,-20,66
8015,-1,-229,-81,-407,-14,76
8020,-1,-228,-75,-429,-9,83
8025,-3,-230,-81,-454,-5,93
8030,-6,-231,-76,-478,-5,104
8035,-9,-230,-79,-499,-9,115
8040,-7,-233,-78,-513,-20,127
8045,-13,-233,-73,-523,-33,139
8050,-10,-238,-74,-525,-53,150
8055,-12,-241,-74,-519,-76,158
8060,-12,-242,-73,-508,-96,163
8065,-10,-242,-72,-493,-117,165
8070,-8,-249,-65,-478,-135,168
8075,-3,-251,-70,-462,-151,165
8080,6,-251,-70,-445,-161,160
8085,9,-249,-72,-422,-161,151
8090,14,-250,-70,-392,-148,137
8095,15,-249,-73,-360,-122,119
8100,16,-248,-73,-331,-83,97
8105,11,-246,-79,-313,-39,73
8110,3,-241,-84,-307,8,48
8115,-1,-237,-83,-312,52,25
8120,-5,-233,-84,-326,88,12
8125,-10,-235,-86,-346,116,5
8130,-19,-224,-90,-366,130,9
8135,-23,-227,-84,-387,128,20
8140,-25,-231,-82,-407,112,41
8145,-27,-231,-81,-422,83,63
8150,-28,-230,-82,-429,43,93
8155,-28,-234,-77,-429,0,126
8160,-22,-231,-90,-421,-42,161
8165,-15,-234,-85,-408,-75,186
8170,-10,-238,-90,-393,-101,202
8175,-12,-239,-98,-384,-118,208
8180,-7,-241,-98,-387,-123,206
8185,-6,-243,-100,-392,-121,199
8190,-6,-242,-102,-401,-113,189
8195,-7,-242,-101,-407,-99,178
8200,0,-239,-101,-414,-79,168
8205,0,-232,-100,-424,-57,164
8210,1,-230,-101,-434,-31,160
8215,4,-225,-101,-446,-7,159
8220,5,-224,-97,-459,10,158
8225,6,-219,-98,-476,19,156
8230,4,-221,-94,-493,23,156
8235,1,-215,-89,-508,23,156
8240,0,-215,-84,-521,22,155
8245,2,-216,-89,-532,18,156
8250,-3,-215,-90,-543,13,157
8255,-7,-220,-94,-552,10,158
8260,-11,-219,-98,-561,9,158
8265,-10,-218,-100,-569,10,158
8270,-15,-224,-97,-579,14,156
8275,-18,-224,-105,-593,20,155
8280,-14,-222,-102,-610,29,154
8285,-18,-227,-107,-626,40,155
8290,-14,-226,-104,-641,50,158
8295,-9,-228,-104,-653,55,161
8300,-15,-221,-100,-662,57,165
8305,-17,-222,-101,-664,52,172
8310,-16,-222,-100,-659,48,177
8315,-17,-220,-102,-650,42,182
8320,-13,-223,-109,-636,36,185
8325,-20,-221,-99,-625,35,185
8330,-18,-221,-106,-615,40,183
8335,-21,-220,-107,-614,48,179
8340,-16,-216,-107,-619,60,182
8345,-21,-215,-115,-627,76,189
8350,-16,-218,-112,-638,93,199
8355,-19,-221,-116,-653,110,211
8360,-18,-220,-117,-663,128,224
8365,-20,-224,-117,-670,146,235
8370,-19,-228,-118,-671,161,244
8375,-23,-222,-119,-669,174,251
8380,-24,-221,-118,-662,185,257
8385,-17,-222,-119,-659,195,261
8390,-19,-223,-116,-661,201,263
8395,-26,-219,-123,-668,203,267
8400,-31,-222,-120,-685,206,271
8405,-28,-222,-122,-705,210,275
8410,-28,-220,-126,-720,218,279
8415,-22,-223,-124,-724,230,280
8420,-24,-224,-129,-716,244,279
8425,-23,-221,-130,-700,262,281
8430,-22,-220,-131,-679,280,286
8435,-24,-220,-133,-658,300,290
8440,-21,-222,-137,-644,329,294
8445,-21,-225,-139,-632,365,303
8450,-19,-220,-145,-622,405,316
8455,-15,-230,-147,-608,451,329
8460,-16,-223,-147,-592,494,333
8465,-13,-226,-148,-571,540,338
8470,-18,-223,-148,-549,588,342
8475,-22,-219,-148,-528,637,348
8480,-25,-213,-147,-511,682,355
8485,-26,-205,-146,-507,712,357
8490,-33,-200,-145,-515,725,360
8495,-38,-195,-143,-528,723,363
8500,-40,-194,-147,-541,714,360
8505,-38,-195,-143,-548,695,354
8510,-41,-186,-144,-557,671,345
8515,-36,-191,-145,-569,646,337
8520,-34,-189,-154,-582,621,335
8525,-34,-184,-156,-599,595,332
8530,-34,-186,-161,-616,571,328
8535,-34,-180,-165,-638,555,330
8540,-30,-180,-163,-670,542,325
8545,-32,-185,-169,-706,524,318
8550,-28,-188,-162,-743,503,306
8555,-34,-196,-167,-780,484,286
8560,-31,-202,-172,-812,473,265
8565,-30,-213,-181,-844,470,247
8570,-28,-220,-178,-869,469,230
8575,-24,-222,-183,-881,468,218
8580,-23,-222,-190,-880,460,214
8585,-24,-225,-192,-876,452,209
8590,-26,-219,-195,-862,445,200
8595,-25,-213,-195,-847,441,191
8600,-24,-207,-198,-834,433,183
8605,-32,-207,-198,-825,430,172
8610,-32,-208,-200,-812,423,165
8615,-32,-206,-201,-801,409,164
8620,-40,-200,-208,-792,387,170
8625,-35,-207,-218,-781,358,180
8630,-34,-210,-221,-759,331,188
8635,-31,-208,-223,-733,310,190
8640,-28,-201,-226,-713,297,189
8645,-25,-198,-228,-713,294,184
8650,-21,-193,-232,-730,293,178
8655,-22,-190,-236,-756,294,174
8660,-17,-192,-241,-784,294,173
8665,-17,-194,-237,-808,295,172
8670,-16,-194,-234,-831,302,169
8675,-17,-192,-236,-845,309,169
8680,-15,-192,-241,-856,317,174
8685,-16,-191,-240,-864,322,175
8690,-19,-191,-244,-876,322,175
8695,-20,-186,-242,-885,314,171
8700,-17,-184,-242,-893,305,169
8705,-20,-185,-239,-896,290,165
8710,-22,-179,-239,-901,276,157
8715,-21,-180,-240,-906,268,150
8720,-20,-180,-238,-909,263,143
8725,-16,-175,-235,-910,260,134
8730,-19,-167,-236,-915,258,125
8735,-16,-170,-235,-921,261,112
8740,-17,-170,-233,-923,268,102
8745,-16,-175,-233,-918,274,90
8750,-16,-170,-233,-908,282,85
8755,-15,-168,-236,-902,284,82
8760,-17,-163,-231,-904,279,80
8765,-19,-161,-232,-912,268,79
8770,-12,-164,-228,-921,251,79
8775,-18,-156,-230,-930,231,76
8780,-13,-156,-229,-934,217,68
8785,-16,-152,-233,-934,207,59
8790,-14,-150,-228,-929,201,46
8795,-17,-154,-232,-918,197,35
8800,-14,-152,-233,-900,196,30
8805,-10,-152,-226,-875,193,26
8810,-9,-147,-230,-845,189,23
8815,-11,-146,-224,-814,180,21
8820,-10,-143,-218,-788,168,20
8825,-10,-142,-220,-771,157,16
8830,-4,-142,-219,-761,143,12
8835,-9,-143,-212,-750,131,6
8840,-3,-142,-224,-738,122,0
8845,-7,-138,-218,-720,109,-3
8850,-6,-134,-221,-702,97,-4
8855,-4,-130,-219,-685,85,-3
8860,-6,-131,-219,-670,74,-2
8865,-10,-128,-214,-654,65,-2
8870,-6,-127,-218,-638,55,1
8875,-4,-128,-213,-618,46,3
8880,-2,-128,-217,-598,38,5
8885,-5,-129,-220,-582,32,4
8890,-3,-124,-220,-568,23,2
8895,-4,-125,-218,-559,15,-5
8900,-5,-126,-217,-551,7,-14
8905,-9,-125,-216,-544,-1,-24
8910,-11,-126,-215,-535,-5,-34
8915,-11,-122,-221,-521,-6,-45
8920,-12,-119,-215,-507,-7,-53
8925,-9,-120,-215,-494,-7,-54
8930,-9,-123,-217,-478,-12,-48
8935,-10,-125,-221,-459,-16,-41
8940,-9,-127,-220,-435,-18,-33
8945,-8,-128,-227,-403,-19,-24
8950,-14,-127,-223,-368,-20,-21
8955,-10,-121,-221,-336,-22,-22
8960,-10,-117,-220,-313,-29,-21
8965,-9,-115,-219,-296,-37,-27
8970,-13,-112,-219,-284,-46,-31
8975,-12,-108,-219,-279,-55,-37
8980,-15,-105,-220,-275,-60,-45
8985,-11,-107,-214,-278,-67,-51
8990,-13,-111,-214,-281,-73,-52
8995,-15,-104,-209,-285,-78,-52
9000,-13,-105,-209,-286,-81,-51
9005,-13,-105,-207,-287,-81,-47
9010,-12,-105,-212,-284,-84,-42
9015,-11,-107,-213,-274,-87,-35
9020,-6,-111,-212,-259,-90,-29
9025,-10,-109,-215,-238,-92,-23
9030,-10,-105,-211,-215,-94,-21
9035,-11,-112,-209,-191,-95,-21
9040,-4,-112,-209,-167,-93,-21
9045,-14,-108,-213,-140,-89,-27
9050,-13,-107,-212,-115,-83,-28
9055,-17,-102,-213,-98,-76,-28
9060,-10,-99,-213,-91,-69,-28
9065,-10,-94,-207,-86,-61,-27
9070,-13,-91,-211,-84,-55,-27
9075,-11,-86,-207,-85,-49,-31
9080,-15,-83,-210,-88,-43,-31
9085,-13,-83,-212,-97,-45,-30
9090,-10,-85,-206,-113,-46,-27
9095,-13,-87,-211,-134,-47,-27
9100,-15,-85,-213,-152,-46,-26
9105,-14,-94,-207,-166,-42,-25
9110,-14,-98,-212,-174,-38,-26
9115,-15,-92,-215,-180,-32,-28
9120,-14,-95,-209,-182,-24,-29
9125,-16,-97,-213,-177,-16,-27
9130,-17,-91,-209,-169,-10,-21
9135,-18,-92,-211,-158,-2,-10
9140,-20,-88,-209,-149,5,-1
9145,-17,-89,-208,-143,7,10
9150,-18,-90,-207,-139,11,21
9155,-17,-88,-209,-136,11,30
9160,-18,-80,-209,-135,11,35
9165,-18,-84,-209,-139,5,37
9170,-18,-83,-205,-144,0,33
9175,-18,-79,-202,-147,-9,27
9180,-17,-80,-202,-148,-16,23
9185,-16,-81,-204,-146,-22,18
9190,-16,-83,-207,-141,-27,15
9195,-18,-84,-207,-135,-29,13
9200,-22,-84,-208,-128,-29,9
9205,-16,-86,-211,-123,-26,8
9210,-18,-87,-208,-113,-21,5
9215,-16,-86,-209,-101,-15,2
9220,-12,-90,-207,-88,-11,-1
9225,-15,-88,-205,-74,-7,-1
9230,-18,-83,-206,-62,-6,1
9235,-13,-87,-208,-50,-9,3
9240,-16,-82,-209,-35,-13,4
9245,-17,-81,-208,-20,-16,7
9250,-14,-82,-209,-7,-22,7
9255,-15,-84,-212,8,-25,6
9260,-17,-83,-214,23,-33,4
9265,-15,-85,-213,34,-40,2
9270,-14,-87,-209,40,-48,1
9275,-16,-77,-219,44,-53,-1
9280,-18,-85,-209,47,-59,-4
9285,-17,-83,-210,48,-64,-6
9290,-15,-85,-209,51,-70,-6
9295,-18,-86,-209,54,-77,-9
9300,-16,-86,-209,59,-80,-10
9305,-16,-85,-210,68,-83,-10
9310,-16,-89,-209,76,-89,-14
9315,-19,-88,-210,88,-93,-18
9320,-17,-88,-208,100,-96,-21
9325,-18,-82,-216,111,-95,-23
9330,-17,-86,-212,115,-95,-24
9335,-16,-84,-212,116,-94,-26
9340,-13,-82,-215,111,-86,-25
9345,-13,-84,-219,101,-81,-24
9350,-16,-84,-219,90,-76,-24
9355,-15,-88,-220,82,-74,-28
9360,-17,-87,-221,81,-78,-27
9365,-17,-94,-222,84,-85,-29
9370,-17,-95,-221,89,-91,-31
9375,-19,-93,-225,99,-98,-32
9380,-17,-87,-229,111,-101,-36
9385,-18,-95,-223,122,-100,-37
9390,-19,-94,-222,132,-97,-36
9395,-19,-89,-224,139,-95,-38
9400,-19,-92,-225,144,-91,-39
9405,-19,-96,-224,145,-86,-37
9410,-21,-92,-222,146,-80,-33
9415,-20,-94,-219,145,-77,-32
9420,-18,-95,-221,142,-77,-33
9425,-18,-92,-221,138,-79,-34
9430,-12,-92,-225,133,-80,-37
9435,-23,-95,-225,129,-83,-40
9440,-16,-93,-220,126,-87,-44
9445,-17,-90,-218,127,-91,-50
9450,-18,-93,-220,129,-95,-52
9455,-16,-96,-219,135,-99,-55
9460,-19,-92,-223,140,-103,-59
9465,-15,-92,-220,148,-107,-61
9470,-22,-94,-217,155,-110,-60
9475,-16,-94,-223,163,-111,-59
9480,-19,-96,-223,168,-111,-59
9485,-15,-93,-221,171,-109,-58
9490,-13,-94,-218,174,-108,-58
9495,-17,-95,-217,178,-107,-58
9500,-17,-97,-217,183,-108,-60
9505,-16,-98,-214,191,-108,-60
9510,-19,-98,-214,201,-105,-61
9515,-17,-100,-218,211,-105,-66
9520,-18,-93,-214,217,-106,-70
9525,-20,-95,-214,224,-108,-75
9530,-23,-97,-217,232,-110,-81
9535,-18,-95,-214,238,-117,-84
9540,-20,-95,-212,243,-122,-87
9545,-26,-95,-215,248,-125,-91
9550,-25,-91,-214,251,-128,-92
9555,-25,-93,-213,254,-127,-94
9560,-28,-94,-214,256,-126,-97
9565,-22,-95,-215,254,-122,-98
9570,-28,-98,-215,250,-117,-99
9575,-25,-100,-215,249,-113,-100
9580,-20,-101,-221,251,-108,-104
9585,-20,-101,-215,256,-106,-105
9590,-21,-100,-213,263,-104,-107
9595,-17,-105,-212,270,-104,-108
9600,-26,-104,-210,278,-104,-110
9605,-23,-101,-215,286,-105,-112
9610,-25,-103,-216,293,-102,-113
9615,-23,-106,-211,299,-101,-115
9620,-26,-101,-213,306,-98,-114
9625,-28,-103,-217,311,-92,-114
9630,-25,-107,-214,316,-85,-112
9635,-24,-108,-213,320,-78,-112
9640,-23,-108,-218,325,-72,-111
9645,-23,-106,-213,331,-66,-112
9650,-24,-105,-218,332,-63,-112
9655,-18,-105,-217,331,-60,-113
9660,-22,-106,-216,329,-61,-113
9665,-21,-103,-213,325,-61,-115
9670,-24,-104,-210,323,-63,-117
9675,-24,-105,-217,320,-64,-116
9680,-26,-107,-216,319,-67,-117
9685,-27,-108,-216,319,-73,-117
9690,-29,-104,-218,320,-82,-117
9695,-27,-107,-217,324,-88,-117
9700,-26,-111,-221,329,-91,-117
9705,-37,-110,-224,337,-91,-118
9710,-31,-120,-226,347,-92,-119
9715,-31,-118,-226,359,-93,-123
9720,-31,-122,-226,370,-93,-126
9725,-33,-123,-228,385,-91,-126
9730,-32,-124,-227,400,-91,-128
9735,-36,-121,-228,413,-91,-128
9740,-34,-124,-228,422,-91,-127
9745,-35,-123,-225,427,-95,-126
9750,-35,-126,-229,425,-99,-124
9755,-34,-123,-225,420,-103,-121
9760,-34,-128,-218,413,-108,-118
9765,-37,-128,-223,408,-108,-119
9770,-35,-130,-220,407,-110,-118
9775,-37,-128,-219,407,-113,-120
9780,-35,-128,-218,409,-118,-124
9785,-35,-126,-216,416,-121,-129
9790,-33,-128,-216,424,-124,-131
9795,-32,-128,-213,430,-124,-132
9800,-38,-124,-215,435,-127,-135
9805,-36,-127,-208,439,-126,-136
9810,-34,-127,-211,440,-130,-136
9815,-32,-127,-213,438,-137,-138
9820,-37,-129,-204,431,-142,-138
9825,-33,-128,-210,424,-141,-138
9830,-32,-127,-208,417,-133,-137
9835,-34,-126,-203,409,-122,-135
9840,-34,-126,-206,402,-115,-134
9845,-33,-130,-201,396,-108,-131
9850,-30,-133,-198,388,-101,-129
9855,-33,-132,-198,382,-92,-126
9860,-31,-134,-200,379,-88,-126
9865,-29,-135,-203,380,-88,-129
9870,-37,-131,-198,380,-91,-132
9875,-28,-133,-198,384,-95,-135
9880,-32,-133,-201,390,-96,-139
9885,-31,-136,-194,398,-97,-142
9890,-29,-136,-194,408,-96,-145
9895,-27,-136,-195,420,-92,-148
9900,-28,-137,-193,433,-88,-152
9905,-29,-141,-192,444,-84,-155
9910,-28,-140,-191,451,-82,-158
9915,-32,-141,-190,457,-81,-161
9920,-30,-142,-191,461,-77,-160
9925,-33,-143,-190,467,-71,-160
9930,-35,-143,-191,474,-61,-156
9935,-30,-144,-186,480,-51,-154
9940,-30,-145,-192,486,-39,-153
9945,-28,-142,-187,492,-25,-153
9950,-30,-145,-190,497,-15,-149
9955,-26,-145,-192,506,-5,-149
9960,-25,-144,-185,515,6,-153
9965,-27,-142,-189,525,15,-155
9970,-32,-145,-189,531,21,-159
9975,-29,-152,-189,538,27,-159
9980,-32,-150,-192,547,32,-159
9985,-31,-147,-188,557,29,-159
9990,-28,-151,-188,568,24,-157
9995,-30,-151,-189,583,20,-155
10000,-33,-151,-191,600,17,-155
10005,-34,-151,-193,611,14,-153
10010,-36,-151,-192,620,12,-153
10015,-37,-152,-194,627,12,-151
10020,-38,-146,-191,630,15,-152
10025,-39,-150,-194,631,18,-153
10030,-35,-154,-191,636,20,-155
10035,-34,-156,-184,647,21,-156
10040,-40,-156,-188,657,19,-156
10045,-40,-155,-191,667,24,-156
10050,-36,-159,-185,670,24,-156
10055,-37,-159,-187,673,22,-152
10060,-38,-160,-188,675,21,-149
10065,-37,-162,-187,676,15,-146
10070,-41,-161,-188,679,9,-141
10075,-41,-161,-189,679,2,-136
10080,-32,-162,-186,684,-3,-133
10085,-35,-159,-190,688,-3,-127
10090,-36,-161,-187,690,-2,-123
10095,-31,-160,-188,690,1,-119
10100,-38,-163,-183,687,3,-115
10105,-37,-163,-180,683,-1,-112
10110,-35,-161,-180,676,-3,-107
10115,-36,-162,-182,668,-4,-105
10120,-37,-163,-182,659,-4,-106
10125,-40,-165,-180,651,-4,-104
10130,-34,-167,-184,645,-2,-103
10135,-34,-166,-181,639,1,-106
10140,-33,-170,-181,635,5,-105
10145,-34,-166,-186,634,4,-104
10150,-33,-168,-183,637,1,-108
10155,-35,-165,-175,644,0,-115
10160,-35,-167,-178,652,-3,-118
10165,-36,-165,-180,659,-5,-119
10170,-37,-167,-180,662,-5,-120
10175,-36,-168,-176,665,-3,-121
10180,-36,-168,-175,668,0,-120
10185,-37,-170,-174,670,1,-116
10190,-39,-173,-172,671,2,-114
10195,-33,-170,-170,670,1,-111
10200,-38,-172,-169,668,-1,-109
10205,-35,-173,-175,668,-3,-109
10210,-33,-171,-173,668,1,-108
10215,-29,-173,-171,668,5,-106
10220,-32,-170,-172,665,11,-104
10225,-31,-168,-174,661,17,-102
10230,-31,-169,-169,657,20,-102
10235,-31,-172,-171,652,23,-102
10240,-29,-169,-167,646,25,-102
10245,-29,-172,-168,639,25,-100
10250,-30,-175,-162,633,21,-102
10255,-32,-172,-163,625,19,-101
10260,-29,-171,-165,618,19,-103
10265,-31,-173,-161,610,20,-104
10270,-28,-173,-162,603,22,-106
10275,-31,-170,-161,595,23,-103
10280,-32,-173,-161,586,21,-102
10285,-33,-172,-163,581,20,-96
10290,-33,-175,-162,579,20,-91
10295,-34,-181,-159,579,18,-86
10300,-33,-180,-155,585,14,-81
10305,-33,-182,-160,597,7,-76
10310,-31,-185,-166,614,1,-77
10315,-27,-185,-161,632,-2,-83
10320,-23,-183,-163,643,2,-87
10325,-26,-183,-163,653,9,-91
10330,-25,-182,-168,657,21,-89
10335,-22,-182,-165,658,31,-90
10340,-19,-178,-164,655,40,-93
10345,-22,-181,-163,648,49,-95
10350,-23,-180,-160,639,56,-97
10355,-24,-178,-160,629,62,-98
10360,-21,-178,-155,621,68,-98
10365,-19,-180,-157,614,72,-93
10370,-21,-180,-155,605,73,-92
10375,-22,-178,-148,601,72,-93
10380,-20,-179,-150,600,70,-95
10385,-19,-179,-151,600,71,-92
10390,-19,-179,-150,602,73,-91
10395,-22,-184,-151,604,72,-88
10400,-23,-180,-154,603,74,-88
10405,-21,-183,-153,604,76,-86
10410,-20,-184,-154,601,81,-87
10415,-18,-183,-148,597,86,-89
10420,-20,-181,-152,589,92,-88
10425,-21,-184,-155,578,100,-89
10430,-17,-184,-154,564,105,-89
10435,-23,-180,-156,548,106,-89
10440,-16,-182,-156,530,105,-88
10445,-18,-184,-158,516,101,-89
10450,-19,-185,-152,505,97,-90
10455,-16,-190,-151,497,95,-92
10460,-16,-186,-156,490,97,-92
10465,-14,-186,-150,483,102,-88
10470,-14,-186,-153,480,110,-86
10475,-12,-186,-154,476,120,-84
10480,-12,-187,-153,469,131,-82
10485,-11,-188,-155,460,140,-77
10490,-12,-186,-156,449,149,-73
10495,-16,-182,-161,438,156,-69
10500,-12,-182,-165,425,164,-64
10505,-7,-184,-163,410,175,-61
10510,-8,-180,-160,388,189,-57
10515,-5,-174,-168,365,212,-53
10520,1,-178,-168,341,233,-49
10525,6,-176,-164,320,260,-42
10530,3,-180,-161,302,286,-34
10535,7,-179,-158,285,311,-27
10540,9,-179,-159,270,336,-17
10545,11,-180,-156,260,359,-9
10550,12,-177,-155,252,381,0
10555,18,-180,-157,241,396,9
10560,20,-178,-154,235,411,21
10565,22,-180,-153,230,422,31
10570,29,-181,-152,227,429,42
10575,28,-179,-150,225,431,51
10580,20,-191,-142,225,430,63
10585,26,-182,-145,229,429,78
10590,22,-183,-145,234,433,91
10595,21,-182,-141,234,433,105
10600,17,-184,-139,228,428,110
10605,16,-184,-137,215,414,111
10610,16,-189,-137,199,394,112
10615,13,-192,-139,178,375,109
10620,16,-195,-134,160,356,108
10625,11,-195,-137,144,339,103
10630,10,-201,-139,133,317,96
10635,5,-204,-142,127,293,89
10640,8,-203,-136,123,264,82
10645,7,-208,-136,126,235,77
10650,4,-215,-134,132,206,66
10655,6,-216,-131,138,178,56
10660,3,-219,-131,141,150,43
10665,4,-221,-134,146,123,30
10670,0,-223,-133,151,96,14
10675,3,-226,-138,152,75,1
10680,2,-228,-135,154,59,-10
10685,5,-231,-135,159,47,-20
10690,5,-229,-141,168,40,-28
10695,15,-227,-143,179,40,-34
10700,13,-224,-141,191,43,-38
10705,19,-224,-139,203,49,-40
10710,21,-227,-135,215,56,-43
10715,26,-224,-135,226,63,-46
10720,27,-224,-138,234,69,-49
10725,31,-222,-133,241,74,-53
10730,32,-221,-132,248,77,-58
10735,31,-215,-132,256,78,-62
10740,28,-216,-124,266,70,-62
10745,24,-213,-127,282,58,-61
10750,27,-214,-124,300,43,-60
10755,23,-208,-120,315,27,-54
10760,22,-206,-119,330,12,-45
10765,22,-206,-117,345,-1,-34
10770,20,-199,-114,358,-17,-24
10775,19,-200,-116,365,-35,-12
10780,23,-195,-113,365,-57,-1
10785,22,-200,-111,364,-76,9
10790,23,-197,-116,359,-96,22
10795,22,-194,-111,356,-115,35
10800,17,-192,-117,353,-140,49
10805,15,-200,-115,345,-180,60
10810,14,-205,-128,338,-243,61
10815,11,-210,-133,321,-311,59
10820,4,-208,-147,297,-368,50
10825,2,-211,-157,258,-407,48
10830,4,-220,-158,221,-415,53
10835,0,-221,-158,202,-381,60
10840,-2,-230,-152,214,-318,71
10845,-6,-234,-142,251,-245,72
10850,-12,-231,-134,299,-174,70
10855,-9,-234,-126,343,-102,73
10860,-16,-227,-122,368,-42,68
10865,-15,-226,-120,373,6,62
10870,-14,-228,-110,365,36,55
10875,-11,-226,-109,350,48,45
10880,-7,-229,-111,335,45,38
10885,-2,-230,-109,315,36,20
10890,1,-232,-112,298,30,5
10895,4,-226,-120,289,29,-8
10900,4,-225,-123,288,26,-24
10905,4,-216,-126,296,13,-40
10910,11,-225,-128,306,-9,-51
10915,11,-223,-134,315,-33,-58
10920,15,-221,-133,324,-52,-63
10925,13,-220,-128,332,-66,-67
10930,12,-218,-131,342,-76,-66
10935,5,-218,-132,345,-87,-63
10940,3,-216,-129,347,-100,-59
10945,4,-216,-129,348,-113,-50
10950,2,-209,-127,349,-125,-40
10955,0,-208,-124,350,-131,-29
10960,-2,-212,-122,351,-129,-17
10965,-7,-209,-115,353,-119,-7
10970,-7,-210,-113,355,-107,1
10975,-7,-208,-109,354,-92,6
10980,-10,-207,-110,350,-76,8
10985,-6,-212,-106,339,-56,1
10990,-2,-217,-110,331,-36,-10
10995,-4,-217,-109,319,-16,-26
11000,-5,-220,-107,310,4,-46
11005,-6,-223,-106,305,25,-67
11010,-5,-220,-110,305,43,-83
11015,-10,-221,-109,311,58,-96
11020,-11,-221,-110,319,68,-103
11025,-10,-221,-111,330,69,-105
11030,-14,-218,-104,344,65,-102
11035,-17,-212,-111,359,58,-95
11040,-18,-215,-107,368,45,-85
11045,-20,-212,-109,371,28,-73
11050,-26,-209,-110,370,8,-61
11055,-27,-201,-111,362,-12,-47
11060,-28,-207,-107,348,-33,-30
11065,-27,-206,-110,327,-55,-17
11070,-31,-196,-112,304,-73,-4
11075,-30,-203,-108,278,-90,5
11080,-30,-206,-108,250,-103,13
11085,-34,-209,-109,224,-113,18
11090,-28,-212,-106,204,-118,20
11095,-26,-217,-112,184,-116,19
11100,-24,-218,-107,166,-110,12
11105,-22,-221,-106,149,-98,0
11110,-15,-225,-103,136,-83,-14
11115,-17,-227,-108,130,-69,-25
11120,-10,-228,-108,132,-57,-37
11125,-12,-225,-109,137,-44,-48
11130,-9,-227,-107,144,-35,-57
11135,-6,-231,-110,157,-26,-65
11140,-3,-227,-105,167,-18,-71
11145,0,-226,-103,174,-10,-75
11150,-3,-223,-105,179,-3,-79
11155,-1,-226,-102,179,4,-81
11160,-3,-224,-100,177,10,-80
11165,0,-225,-103,171,14,-81
11170,-3,-223,-106,162,16,-78
11175,-4,-223,-109,152,14,-74
11180,-10,-222,-102,145,13,-69
11185,-4,-222,-104,138,11,-62
11190,-9,-224,-99,133,9,-56
11195,-15,-224,-102,130,8,-49
11200,-14,-226,-103,127,10,-46
11205,-11,-229,-106,125,13,-42
11210,-14,-227,-105,123,16,-37
11215,-15,-227,-102,122,18,-33
11220,-13,-230,-102,122,19,-32
11225,-19,-231,-102,123,18,-33
11230,-16,-229,-99,126,15,-33
11235,-25,-226,-103,134,12,-33
11240,-21,-231,-103,142,9,-32
11245,-19,-227,-99,151,6,-36
11250,-19,-231,-100,161,1,-36
11255,-21,-227,-97,169,-2,-38
11260,-22,-227,-97,177,-6,-40
11265,-19,-228,-99,179,-6,-44
11270,-19,-222,-101,180,-7,-48
11275,-19,-226,-97,177,-7,-52
11280,-17,-226,-101,172,-7,-56
11285,-17,-224,-99,168,-7,-62
11290,-17,-227,-100,164,-4,-66
11295,-14,-222,-100,160,-2,-72
11300,-14,-224,-99,154,0,-77
11305,-12,-224,-101,148,2,-78
11310,-12,-228,-101,143,5,-83
11315,-13,-228,-98,140,6,-85
11320,-12,-225,-95,139,6,-86
11325,-10,-229,-97,138,6,-87
11330,-10,-225,-101,137,5,-87
11335,-8,-227,-101,139,4,-89
11340,-10,-225,-102,139,3,-87
11345,-15,-225,-97,138,1,-88
11350,-9,-224,-97,138,-2,-87
11355,-9,-228,-100,140,-4,-87
11360,-10,-225,-98,141,-8,-89
11365,-11,-225,-99,141,-11,-88
11370,-11,-224,-96,141,-14,-88
11375,-7,-226,-97,141,-17,-88
11380,-8,-225,-101,143,-18,-88
11385,-11,-226,-99,148,-18,-87
11390,-8,-228,-98,153,-20,-90
11395,-11,-229,-93,158,-22,-90
11400,-12,-223,-98,160,-21,-88
11405,-8,-223,-94,161,-22,-88
11410,-9,-223,-98,164,-24,-90
11415,-9,-224,-97,166,-22,-91
11420,-7,-226,-94,167,-24,-89
11425,-11,-222,-98,165,-23,-88
11430,-10,-224,-101,163,-23,-87
11435,-13,-222,-99,158,-24,-88
11440,-12,-224,-100,155,-22,-86
11445,-13,-225,-103,149,-20,-83
11450,-9,-232,-92,146,-18,-80
11455,-8,-220,-98,146,-16,-75
11460,-11,-229,-101,146,-13,-64
11465,-10,-226,-96,144,-15,-66
11470,-6,-228,-97,141,-18,-67
11475,-11,-227,-95,139,-16,-65
11480,-6,-230,-100,137,-14,-63
11485,-10,-226,-103,136,-14,-61
11490,-3,-232,-97,135,-15,-60
11495,-8,-227,-92,135,-16,-60
11500,-5,-228,-95,134,-18,-59
11505,-12,-231,-97,137,-18,-58
11510,-8,-229,-95,139,-20,-55
11515,-4,-230,-96,140,-21,-54
11520,-8,-227,-94,143,-23,-51
11525,-8,-227,-96,144,-24,-49
11530,-9,-228,-93,142,-25,-48
11535,-9,-227,-100,141,-26,-46
11540,-9,-231,-95,137,-26,-46
11545,-14,-229,-91,135,-28,-45
11550,-11,-225,-97,134,-28,-44
11555,-11,-231,-97,131,-29,-42
11560,-14,-223,-100,129,-27,-43
11565,-7,-229,-96,127,-24,-41
11570,-11,-227,-93,128,-22,-40
11575,-6,-232,-97,129,-20,-39
11580,-10,-227,-95,129,-18,-39
11585,-10,-228,-98,127,-17,-39
11590,-10,-225,-94,124,-16,-38
11595,-9,-226,-95,120,-15,-40
11600,-10,-229,-92,114,-12,-38
11605,-7,-222,-98,107,-11,-39
11610,-8,-226,-95,100,-10,-39
11615,-11,-223,-93,94,-9,-40
11620,-8,-225,-90,87,-6,-38
11625,-7,-224,-93,78,-5,-36
11630,-6,-228,-93,69,-4,-35
11635,-6,-229,-95,61,-3,-35
11640,-7,-228,-87,54,-2,-35
11645,-5,-231,-88,49,-2,-36
11650,-4,-228,-94,46,1,-35
11655,-10,-230,-92,45,0,-35
11660,-9,-226,-94,44,1,-35
11665,-5,-229,-97,42,2,-35
11670,-6,-238,-84,40,1,-34
11675,-3,-231,-93,39,4,-34
11680,-7,-231,-93,37,7,-35
11685,-8,-233,-93,37,10,-33
11690,-5,-230,-88,39,12,-32
11695,-6,-231,-86,42,15,-30
11700,-5,-232,-93,45,14,-30
11705,-8,-235,-91,48,14,-29
11710,-11,-228,-91,50,14,-30
11715,-6,-228,-94,51,15,-28
11720,-7,-231,-91,50,15,-26
11725,-13,-229,-95,51,12,-26
11730,-8,-232,-90,49,11,-26
11735,-8,-229,-92,45,9,-26
11740,-8,-232,-90,42,9,-25
11745,-6,-233,-89,40,6,-24
11750,-9,-231,-92,40,2,-24
11755,-8,-234,-90,43,0,-24
11760,-8,-236,-91,49,-1,-26
11765,-10,-231,-91,56,-1,-26
11770,-13,-228,-89,63,0,-27
11775,-10,-226,-89,69,1,-26
11780,-3,-230,-92,70,4,-25
11785,-8,-228,-92,69,6,-24
11790,-10,-228,-90,67,9,-21
11795,-6,-228,-91,61,9,-19
11800,-4,-232,-88,58,11,-18
11805,-7,-231,-90,56,8,-16
11810,-5,-230,-87,52,8,-15
11815,-5,-233,-85,53,7,-14
11820,-3,-232,-90,52,8,-10
11825,-5,-230,-88,49,9,-8
11830,-3,-229,-91,49,12,-7
11835,0,-233,-93,49,14,-6
11840,-4,-234,-90,47,15,-5
11845,-2,-237,-87,48,16,-6
11850,-7,-232,-88,51,17,-5
11855,-3,-235,-89,54,16,-6
11860,-4,-233,-91,58,17,-5
11865,-1,-238,-90,62,17,-5
11870,1,-232,-91,66,16,-4
11875,-1,-235,-86,69,16,-4
11880,-2,-231,-84,69,17,-3
11885,-4,-236,-91,67,17,-5
11890,-2,-231,-89,66,16,-5
11895,-4,-231,-87,65,15,-6
11900,-2,-230,-88,62,14,-8
11905,-4,-229,-91,60,13,-9
11910,-5,-228,-93,59,12,-8
11915,-4,-232,-95,56,14,-6
11920,-7,-231,-92,54,15,-6
11925,-1,-232,-89,54,16,-4
11930,-8,-230,-88,53,14,-5
11935,-7,-229,-92,53,14,-5
11940,-3,-232,-90,53,14,-3
11945,-7,-231,-89,51,14,-2
11950,-1,-233,-91,49,15,-2
11955,-4,-231,-89,48,14,-3
11960,-6,-229,-89,47,15,-5
11965,-5,-231,-87,46,14,-3
11970,-6,-232,-87,46,14,-4
11975,-8,-229,-93,42,13,-5
11980,-3,-234,-87,41,11,-7
11985,-8,-230,-91,40,11,-7
11990,-6,-233,-92,43,10,-8
11995,-9,-227,-95,48,8,-8
