timestamp,acc_x,acc_y,acc_z,gyro_x,gyro_y,gyro_z
0,1,-236,-104,-42,164,45
5,0,-237,-105,-40,164,45
10,0,-235,-104,-39,164,45
15,1,-236,-105,-36,165,45
20,-2,-238,-106,-35,166,46
25,-5,-242,-98,-35,166,44
30,0,-228,-107,-35,167,43
35,6,-229,-99,-36,165,43
40,-2,-241,-97,-38,163,41
45,0,-236,-101,-40,162,40
50,-8,-234,-99,-42,160,39
55,1,-235,-103,-45,158,39
60,3,-229,-103,-48,155,39
65,-3,-230,-80,-51,154,37
70,0,-223,-102,-53,153,36
75,0,-235,-105,-55,150,37
80,-3,-232,-105,-56,148,35
85,0,-232,-107,-57,146,34
90,0,-233,-101,-56,145,34
95,-2,-234,-108,-57,144,34
100,1,-232,-105,-56,143,35
105,-3,-230,-104,-55,144,34
110,-2,-233,-105,-55,141,35
115,3,-229,-120,-55,140,34
120,0,-232,-105,-54,141,35
125,0,-233,-104,-52,142,36
130,-2,-234,-107,-52,142,36
135,0,-234,-105,-51,141,35
140,0,-233,-109,-51,141,36
145,-3,-231,-106,-51,139,35
150,0,-232,-103,-52,138,33
155,1,-232,-106,-53,135,32
160,0,-231,-109,-55,135,32
165,0,-231,-109,-57,135,30
170,0,-232,-111,-58,135,31
175,0,-231,-106,-59,135,31
180,-1,-236,-107,-59,134,31
185,-2,-234,-108,-60,132,30
190,-1,-233,-108,-62,132,30
195,-3,-235,-105,-62,131,30
200,-2,-235,-105,-63,131,29
205,-5,-232,-105,-64,128,30
210,-3,-233,-103,-64,127,31
215,-1,-236,-108,-64,126,30
220,-1,-234,-107,-63,126,29
225,0,-237,-105,-62,125,27
230,-2,-239,-108,-61,125,26
235,-2,-237,-104,-59,125,24
240,0,-237,-107,-54,123,24
245,2,-238,-107,-50,123,23
250,-2,-235,-101,-47,124,22
255,0,-238,-105,-42,122,21
260,-1,-234,-103,-39,121,21
265,-2,-233,-105,-34,120,21
270,-2,-236,-104,-32,118,19
275,-3,-237,-105,-29,117,20
280,-5,-233,-104,-28,117,21
285,-3,-236,-101,-28,114,21
290,-1,-235,-104,-24,113,20
295,-1,-234,-104,-22,112,20
300,0,-235,-106,-19,112,18
305,-4,-230,-105,-19,108,19
310,-3,-231,-107,-19,107,19
315,-1,-231,-100,-22,106,19
320,-2,-232,-104,-23,105,18
325,-2,-231,-106,-27,103,18
330,0,-231,-106,-31,102,18
335,-4,-233,-101,-34,100,17
340,-2,-233,-108,-37,100,16
345,-1,-230,-109,-38,99,16
350,-2,-232,-108,-38,97,14
355,-2,-235,-105,-40,97,14
360,-1,-238,-108,-39,96,12
365,0,-237,-108,-37,94,11
370,-2,-239,-108,-33,92,11
375,0,-240,-105,-30,90,12
380,-1,-236,-107,-25,89,12
385,-4,-238,-101,-19,88,11
390,1,-238,-105,-16,85,10
395,-2,-239,-106,-11,84,9
400,-4,-236,-105,-7,83,7
405,0,-236,-105,-4,79,6
410,0,-236,-104,-2,78,3
415,-2,-235,-104,0,77,2
420,-1,-237,-104,3,76,1
425,0,-236,-105,3,74,-1
430,-3,-233,-104,3,75,-3
435,0,-234,-106,4,73,-4
440,-2,-236,-102,5,71,-5
445,-1,-233,-107,7,72,-6
450,-2,-232,-107,7,71,-6
455,3,-234,-102,7,70,-7
460,0,-231,-105,7,70,-6
465,-2,-234,-107,3,69,-8
470,0,-236,-107,2,65,-8
475,-2,-233,-107,-1,63,-9
480,0,-233,-108,-5,62,-9
485,-2,-232,-106,-7,60,-9
490,0,-232,-108,-11,58,-9
495,-1,-233,-106,-13,58,-10
500,-1,-233,-107,-17,57,-11
505,1,-233,-102,-18,56,-10
510,-2,-233,-110,-19,55,-10
515,0,-234,-106,-19,53,-10
520,0,-237,-106,-19,53,-11
525,0,-236,-104,-19,51,-13
530,-2,-235,-106,-17,49,-13
535,0,-236,-104,-15,47,-15
540,0,-236,-107,-13,46,-17
545,0,-238,-107,-9,45,-16
550,-1,-236,-106,-6,43,-19
555,0,-235,-106,-1,39,-21
560,-2,-233,-104,2,38,-20
565,0,-233,-109,4,36,-22
570,-4,-235,-108,6,34,-24
575,-1,-235,-107,8,33,-24
580,-1,-236,-109,9,33,-24
585,0,-230,-107,9,32,-24
590,0,-229,-106,7,32,-23
595,0,-231,-106,5,32,-22
600,1,-230,-104,1,33,-24
605,-1,-231,-106,-1,33,-25
610,0,-232,-109,-4,33,-24
615,0,-230,-107,-6,33,-23
620,0,-231,-106,-7,34,-21
625,0,-232,-104,-9,35,-23
630,-1,-230,-106,-10,36,-23
635,3,-235,-107,-10,37,-23
640,0,-231,-108,-10,37,-23
645,0,-236,-105,-12,39,-22
650,0,-235,-107,-12,39,-21
655,0,-235,-104,-13,40,-21
660,0,-235,-106,-13,40,-21
665,0,-236,-104,-13,40,-20
670,0,-234,-107,-12,41,-20
675,0,-236,-106,-12,41,-18
680,1,-236,-107,-11,42,-17
685,1,-237,-105,-10,43,-17
690,0,-235,-105,-8,43,-17
695,-2,-239,-105,-5,43,-18
700,0,-237,-107,-5,43,-17
705,0,-235,-106,-5,42,-17
710,0,-234,-105,-4,44,-17
715,0,-236,-104,-3,45,-16
720,1,-236,-107,-2,44,-16
725,0,-232,-104,-1,46,-16
730,1,-237,-107,-1,45,-16
735,1,-237,-104,-2,45,-16
740,1,-236,-105,-3,44,-16
745,0,-235,-102,-3,44,-16
750,0,-234,-106,-6,43,-15
755,-3,-232,-107,-8,44,-14
760,-1,-234,-105,-9,44,-14
765,-2,-231,-107,-10,42,-15
770,0,-234,-105,-11,41,-15
775,1,-234,-102,-12,41,-15
780,0,-232,-104,-11,41,-15
785,0,-231,-100,-11,40,-16
790,0,-233,-108,-11,41,-15
795,0,-233,-103,-10,42,-15
800,0,-233,-106,-10,42,-18
805,0,-235,-107,-9,42,-17
810,-1,-232,-103,-7,42,-16
815,0,-234,-106,-6,43,-17
820,0,-235,-105,-6,43,-16
825,0,-235,-107,-4,44,-17
830,1,-237,-106,-1,44,-16
835,-2,-236,-110,0,45,-17
840,0,-233,-106,1,44,-18
845,1,-233,-106,2,44,-19
850,1,-237,-106,2,42,-19
855,0,-234,-103,2,43,-18
860,0,-234,-103,2,45,-17
865,0,-235,-107,3,44,-17
870,0,-233,-104,3,46,-17
875,0,-235,-103,4,46,-16
880,1,-236,-105,3,45,-16
885,2,-236,-106,3,48,-16
890,1,-238,-104,5,50,-16
895,0,-238,-104,5,50,-14
900,0,-234,-104,7,51,-13
905,1,-233,-106,7,54,-13
910,0,-235,-106,8,54,-13
915,1,-235,-107,6,55,-12
920,2,-235,-106,6,57,-14
925,0,-234,-104,5,56,-14
930,0,-234,-103,2,56,-13
935,0,-233,-105,0,56,-13
940,0,-235,-105,-1,57,-13
945,-1,-233,-106,-4,58,-12
950,-1,-231,-106,-7,57,-12
955,1,-233,-107,-8,59,-10
960,-1,-236,-106,-10,60,-10
965,0,-235,-103,-10,61,-9
970,1,-236,-106,-9,62,-7
975,0,-234,-100,-7,63,-7
980,0,-236,-98,-6,64,-8
985,0,-234,-103,-4,66,-7
990,-2,-234,-105,-2,66,-8
995,1,-236,-104,-3,66,-7
1000,-1,-236,-103,-1,67,-6
1005,0,-236,-106,0,67,-5
1010,0,-236,-107,3,67,-6
1015,1,-234,-105,3,67,-6
1020,-2,-233,-107,4,67,-5
1025,0,-235,-103,4,67,-4
1030,1,-236,-103,2,65,-5
1035,-3,-233,-103,3,65,-7
1040,0,-233,-105,2,65,-7
1045,0,-234,-106,2,64,-7
1050,-2,-235,-107,-1,65,-6
1055,-1,-233,-104,-5,63,-7
1060,0,-234,-108,-6,65,-5
1065,0,-235,-107,-8,65,-6
1070,0,-235,-105,-8,65,-6
1075,-1,-233,-108,-9,64,-4
1080,0,-233,-106,-10,64,-6
1085,-3,-236,-107,-11,64,-5
1090,0,-235,-101,-13,64,-5
1095,0,-235,-106,-14,66,-4
1100,0,-233,-105,-15,65,-5
1105,1,-235,-109,-15,66,-3
1110,1,-234,-105,-16,65,-3
1115,0,-232,-101,-18,67,-2
1120,0,-234,-105,-17,69,-3
1125,1,-236,-104,-16,71,-3
1130,0,-233,-105,-13,72,-2
1135,0,-236,-104,-11,72,-2
1140,1,-238,-107,-10,75,0
1145,0,-236,-107,-8,73,0
1150,-1,-236,-104,-7,76,0
1155,0,-235,-107,-6,79,0
1160,0,-235,-105,-6,79,0
1165,0,-235,-106,-6,78,1
1170,2,-236,-104,-6,78,0
1175,0,-235,-103,-8,79,-1
1180,-1,-234,-105,-9,78,-1
1185,-1,-231,-105,-11,77,1
1190,1,-234,-108,-13,79,1
1195,0,-233,-103,-14,80,1
1200,0,-233,-104,-16,79,2
1205,-1,-233,-106,-16,80,3
1210,0,-233,-100,-18,80,3
1215,-1,-237,-101,-18,80,2
1220,1,-237,-106,-21,81,3
1225,-1,-237,-105,-18,80,3
1230,-4,-234,-102,-19,79,1
1235,1,-236,-101,-18,80,1
1240,0,-236,-99,-17,79,2
1245,1,-235,-102,-15,78,2
1250,-2,-233,-105,-13,79,1
1255,0,-237,-109,-10,78,1
1260,0,-239,-107,-9,77,1
1265,-1,-236,-106,-7,76,0
1270,-1,-237,-105,-5,74,0
1275,-3,-235,-104,-6,74,0
1280,0,-234,-104,-7,72,0
1285,0,-233,-104,-7,74,0
1290,0,-232,-108,-8,75,0
1295,0,-234,-103,-9,74,1
1300,0,-233,-107,-10,75,2
1305,0,-232,-105,-9,76,2
1310,0,-235,-105,-9,75,3
1315,-2,-233,-105,-11,77,3
1320,-1,-235,-100,-11,77,2
1325,-2,-236,-103,-11,79,2
1330,-2,-235,-103,-11,77,3
1335,0,-235,-104,-12,76,2
1340,0,-234,-107,-12,76,3
1345,0,-233,-106,-10,76,2
1350,0,-236,-107,-9,77,2
1355,-1,-231,-101,-11,76,2
1360,0,-234,-106,-11,76,0
1365,-1,-234,-104,-12,75,0
1370,0,-234,-108,-14,75,-2
1375,0,-236,-108,-16,75,-2
1380,-1,-237,-104,-16,76,-2
1385,-1,-236,-104,-17,76,-1
1390,0,-236,-107,-16,77,-2
1395,0,-236,-103,-16,76,-2
1400,-1,-233,-103,-16,77,-2
1405,0,-234,-100,-14,76,-2
1410,-1,-236,-110,-12,75,-2
1415,1,-237,-104,-11,74,-2
1420,0,-235,-105,-10,74,-2
1425,-4,-236,-101,-9,73,-1
1430,-2,-237,-102,-9,72,-1
1435,0,-232,-106,-10,71,-1
1440,1,-235,-104,-10,71,0
1445,-1,-233,-108,-12,73,-2
1450,-2,-235,-105,-12,72,-2
1455,-2,-236,-104,-13,72,-1
1460,-1,-232,-101,-13,70,-4
1465,0,-238,-104,-14,70,-2
1470,2,-235,-106,-13,70,-3
1475,-1,-234,-101,-13,71,-2
1480,0,-235,-104,-13,70,-2
1485,1,-233,-102,-12,68,-2
1490,-1,-235,-112,-12,68,-3
1495,-2,-237,-105,-10,68,-2
1500,0,-234,-105,-8,66,-5
1505,-1,-234,-105,-7,66,-5
1510,0,-236,-104,-5,65,-7
1515,0,-236,-106,-5,66,-7
1520,0,-235,-100,-5,65,-7
1525,-2,-235,-103,-6,65,-7
1530,0,-234,-105,-8,64,-7
1535,1,-235,-104,-10,64,-6
1540,0,-238,-103,-12,63,-6
1545,0,-232,-105,-15,64,-6
1550,0,-238,-109,-17,63,-6
1555,-4,-235,-105,-20,63,-6
1560,1,-234,-101,-21,63,-5
1565,0,-238,-104,-22,62,-5
1570,0,-236,-105,-21,62,-5
1575,-1,-234,-106,-19,63,-6
1580,0,-233,-107,-16,63,-5
1585,-1,-236,-109,-14,62,-6
1590,-3,-234,-105,-13,61,-6
1595,-4,-235,-101,-11,62,-6
1600,1,-234,-106,-9,62,-8
1605,1,-236,-106,-7,61,-10
1610,0,-234,-103,-6,61,-12
1615,0,-235,-102,-4,59,-11
1620,-1,-232,-107,-2,59,-12
1625,-2,-235,-103,-1,57,-13
1630,-2,-234,-102,-1,57,-12
1635,0,-233,-109,-2,56,-14
1640,0,-234,-106,-2,57,-14
1645,0,-234,-102,-4,58,-13
1650,0,-233,-107,-7,57,-13
1655,0,-232,-102,-9,57,-12
1660,0,-232,-104,-11,56,-11
1665,0,-234,-104,-12,56,-11
1670,0,-236,-106,-15,56,-9
1675,1,-232,-105,-16,57,-9
1680,-1,-235,-103,-16,56,-9
1685,0,-235,-103,-15,58,-9
1690,0,-237,-103,-12,57,-8
1695,1,-236,-104,-12,56,-8
1700,-2,-236,-104,-10,56,-9
1705,0,-234,-101,-9,56,-10
1710,1,-237,-102,-7,55,-11
1715,-2,-237,-102,-6,55,-11
1720,0,-236,-103,-5,56,-11
1725,0,-234,-103,-4,56,-12
1730,-4,-235,-102,-4,54,-12
1735,-1,-236,-107,-4,55,-12
1740,0,-237,-106,-4,55,-13
1745,0,-233,-108,-7,54,-13
1750,-1,-232,-104,-9,55,-11
1755,0,-234,-106,-8,52,-11
1760,0,-237,-106,-8,53,-12
1765,0,-235,-106,-8,53,-11
1770,-1,-238,-104,-8,51,-11
1775,-2,-232,-105,-9,51,-11
1780,0,-233,-107,-8,51,-10
1785,0,-234,-104,-8,51,-11
1790,0,-231,-102,-7,51,-11
1795,-5,-231,-103,-7,51,-11
1800,1,-236,-105,-8,52,-13
1805,0,-235,-104,-7,51,-12
1810,-4,-233,-108,-7,52,-11
1815,0,-233,-104,-7,50,-12
1820,1,-234,-107,-8,52,-14
1825,-2,-235,-104,-7,49,-15
1830,-1,-235,-107,-8,48,-15
1835,0,-235,-105,-7,49,-15
1840,1,-236,-107,-6,48,-15
1845,0,-235,-105,-6,47,-15
1850,1,-234,-104,-7,46,-15
1855,-2,-235,-107,-8,46,-15
1860,-1,-234,-106,-9,47,-16
1865,-1,-234,-104,-11,46,-15
1870,1,-234,-102,-11,46,-15
1875,0,-237,-105,-12,46,-15
1880,1,-239,-101,-13,46,-15
1885,0,-236,-106,-14,47,-14
1890,0,-234,-103,-15,50,-12
1895,0,-234,-106,-15,50,-12
1900,-1,-235,-104,-13,51,-12
1905,0,-236,-106,-11,52,-13
1910,1,-235,-102,-10,54,-13
1915,0,-237,-105,-8,54,-15
1920,2,-236,-104,-7,54,-15
1925,1,-235,-102,-5,54,-15
1930,0,-237,-107,-4,55,-15
1935,0,-231,-103,-4,54,-15
1940,0,-232,-106,-3,55,-16
1945,-2,-233,-110,-5,54,-16
1950,-1,-234,-107,-8,54,-15
1955,-4,-232,-107,-9,54,-16
1960,-1,-237,-102,-10,53,-15
1965,1,-234,-107,-13,54,-15
1970,0,-234,-104,-15,53,-13
1975,0,-234,-108,-16,55,-12
1980,0,-235,-107,-17,56,-12
1985,0,-234,-102,-18,58,-12
1990,0,-235,-103,-17,61,-11
1995,-2,-236,-104,-18,62,-10
2000,0,-236,-103,-16,64,-9
2005,0,-235,-111,-15,67,-10
2010,2,-236,-99,-14,68,-9
2015,0,-234,-105,-12,69,-8
2020,0,-235,-105,-12,70,-10
2025,-1,-233,-106,-11,69,-9
2030,1,-233,-109,-10,70,-9
2035,0,-233,-106,-11,70,-10
2040,1,-232,-107,-11,69,-10
2045,0,-232,-103,-12,71,-9
2050,0,-236,-104,-11,69,-8
2055,-1,-232,-106,-11,70,-8
2060,0,-233,-105,-13,72,-8
2065,0,-235,-105,-16,74,-7
2070,1,-236,-107,-16,74,-7
2075,1,-233,-107,-17,74,-6
2080,0,-232,-108,-18,75,-6
2085,0,-235,-109,-19,74,-4
2090,0,-233,-109,-20,74,-3
2095,1,-239,-100,-20,75,-3
2100,-1,-235,-103,-21,76,-2
2105,0,-238,-103,-21,77,-2
2110,0,-234,-103,-21,78,0
2115,1,-232,-103,-22,78,0
2120,-1,-234,-102,-22,78,0
2125,0,-233,-101,-20,80,-1
2130,-1,-238,-106,-19,80,0
2135,0,-236,-101,-17,80,-2
2140,-1,-236,-106,-14,79,0
2145,-2,-237,-102,-11,78,-1
2150,0,-234,-105,-9,80,-2
2155,1,-235,-106,-9,79,-1
2160,-1,-234,-105,-10,78,-1
2165,0,-236,-102,-10,77,0
2170,0,-235,-104,-12,79,-1
2175,-2,-235,-106,-15,78,1
2180,0,-235,-105,-15,81,1
2185,0,-235,-102,-15,81,1
2190,0,-233,-103,-17,82,2
2195,0,-235,-102,-19,83,1
2200,0,-233,-104,-21,85,1
2205,0,-233,-105,-21,85,1
2210,0,-234,-103,-22,87,1
2215,0,-233,-105,-22,87,3
2220,-3,-233,-102,-23,87,3
2225,0,-237,-105,-24,87,2
2230,-1,-235,-110,-23,87,2
2235,0,-237,-105,-23,86,3
2240,-4,-237,-106,-22,85,2
2245,0,-238,-107,-22,83,3
2250,-2,-232,-106,-22,82,1
2255,0,-238,-104,-22,81,2
2260,0,-242,-108,-20,80,1
2265,-3,-233,-103,-18,80,1
2270,-1,-238,-107,-17,79,1
2275,4,-240,-109,-16,79,2
2280,1,-235,-110,-16,78,0
2285,0,-227,-103,-15,77,0
2290,3,-233,-104,-15,78,1
2295,0,-231,-103,-15,78,3
2300,-4,-236,-108,-14,78,1
2305,0,-237,-105,-13,77,1
2310,0,-237,-106,-14,76,1
2315,-1,-233,-105,-15,74,1
2320,0,-235,-105,-15,74,0
2325,0,-237,-104,-14,74,-1
2330,0,-234,-107,-13,73,-1
2335,0,-234,-105,-13,72,-2
2340,-4,-234,-105,-13,71,-3
2345,-1,-232,-108,-14,71,-4
2350,-2,-234,-104,-17,70,-4
2355,-4,-234,-107,-19,70,-5
2360,-5,-235,-102,-20,70,-4
2365,-3,-236,-104,-20,71,-4
2370,0,-237,-105,-18,72,-6
2375,1,-235,-104,-17,71,-6
2380,-2,-237,-102,-15,69,-5
2385,0,-237,-105,-11,67,-5
2390,-3,-234,-102,-9,68,-6
2395,1,-234,-106,-7,66,-6
2400,0,-237,-102,-7,64,-7
2405,0,-233,-103,-6,64,-7
2410,-3,-229,-105,-5,64,-7
2415,0,-235,-105,-5,65,-6
2420,-1,-235,-101,-6,66,-7
2425,0,-236,-104,-6,66,-7
2430,0,-236,-106,-6,67,-10
2435,2,-234,-105,-6,68,-10
2440,-5,-232,-107,-6,69,-10
2445,-3,-234,-102,-6,69,-11
2450,0,-233,-108,-5,69,-10
2455,0,-233,-103,-6,68,-10
2460,0,-234,-105,-7,67,-11
2465,0,-232,-102,-8,68,-9
2470,0,-233,-104,-12,69,-11
2475,0,-234,-104,-15,69,-10
2480,0,-237,-103,-17,70,-10
2485,0,-234,-105,-21,69,-10
2490,0,-231,-103,-23,70,-11
2495,0,-234,-103,-24,69,-10
2500,-2,-235,-104,-23,69,-10
2505,-3,-233,-105,-23,68,-10
2510,1,-237,-107,-21,67,-11
2515,0,-235,-102,-20,67,-10
2520,0,-235,-105,-17,67,-10
2525,2,-236,-106,-13,68,-11
2530,0,-237,-105,-11,68,-11
2535,0,-236,-107,-7,68,-13
2540,2,-236,-108,-7,69,-14
2545,0,-231,-105,-7,70,-13
2550,0,-230,-105,-7,72,-13
2555,0,-232,-105,-8,76,-15
2560,0,-231,-108,-12,79,-14
2565,0,-229,-105,-17,81,-15
2570,0,-229,-108,-22,82,-13
2575,1,-231,-107,-28,84,-13
2580,0,-232,-104,-36,83,-12
2585,1,-231,-103,-42,81,-12
2590,-1,-230,-105,-49,78,-12
2595,0,-230,-107,-54,78,-10
2600,1,-235,-106,-57,77,-9
2605,2,-234,-104,-57,74,-9
2610,2,-234,-104,-55,73,-7
2615,1,-238,-104,-53,71,-5
2620,2,-236,-104,-49,70,-5
2625,1,-235,-107,-47,71,-4
2630,1,-236,-106,-45,70,-4
2635,0,-235,-106,-42,70,-4
2640,-2,-238,-109,-39,70,-4
2645,1,-233,-107,-36,74,-3
2650,1,-236,-108,-34,77,-3
2655,0,-236,-107,-33,78,-4
2660,0,-232,-107,-33,81,-4
2665,1,-230,-104,-34,85,-3
2670,0,-233,-105,-36,87,-2
2675,0,-231,-107,-36,90,0
2680,4,-232,-110,-36,93,0
2685,0,-229,-105,-37,94,-1
2690,0,-233,-109,-41,93,-1
2695,0,-231,-100,-42,91,-1
2700,0,-232,-107,-43,90,-1
2705,3,-230,-106,-44,87,-2
2710,0,-230,-107,-46,85,-2
2715,0,-229,-105,-48,83,-1
2720,0,-228,-107,-49,84,-2
2725,0,-231,-108,-52,84,1
2730,2,-230,-110,-53,84,1
2735,0,-232,-110,-53,85,1
2740,1,-234,-110,-53,85,2
2745,1,-234,-109,-53,85,3
2750,0,-232,-108,-51,86,3
2755,0,-232,-109,-50,88,3
2760,0,-232,-109,-48,89,4
2765,0,-232,-106,-46,90,5
2770,0,-231,-109,-47,91,5
2775,0,-232,-108,-46,92,6
2780,0,-231,-110,-47,95,5
2785,0,-230,-110,-49,93,6
2790,1,-231,-107,-52,94,6
2795,1,-231,-110,-54,94,5
2800,0,-229,-110,-55,92,4
2805,0,-230,-110,-57,91,3
2810,1,-228,-109,-59,91,3
2815,0,-228,-108,-62,91,2
2820,2,-229,-111,-66,90,2
2825,2,-232,-112,-66,91,2
2830,4,-232,-112,-67,92,4
2835,2,-231,-109,-67,94,3
2840,2,-232,-112,-66,96,4
2845,1,-228,-114,-67,98,2
2850,1,-232,-111,-67,100,1
2855,2,-233,-114,-69,101,1
2860,3,-234,-110,-69,102,0
2865,2,-227,-113,-72,103,-1
2870,1,-232,-107,-73,103,-2
2875,0,-231,-108,-76,104,-2
2880,1,-228,-110,-76,104,-3
2885,2,-233,-111,-75,102,-4
2890,3,-229,-116,-70,101,-6
2895,1,-229,-112,-70,102,-5
2900,1,-226,-113,-68,107,-6
2905,3,-226,-116,-69,111,-5
2910,1,-224,-118,-70,117,-3
2915,0,-223,-115,-71,120,-3
2920,0,-220,-115,-74,121,-3
2925,0,-225,-118,-75,121,-3
2930,1,-223,-117,-78,123,-2
2935,0,-219,-122,-79,124,0
2940,1,-221,-120,-80,126,2
2945,2,-224,-119,-83,129,6
2950,0,-220,-122,-81,130,11
2955,0,-221,-119,-79,133,13
2960,-2,-225,-116,-78,133,18
2965,0,-223,-122,-74,134,20
2970,0,-224,-122,-66,134,22
2975,-4,-226,-124,-57,134,25
2980,-1,-228,-125,-46,134,28
2985,-1,-228,-122,-33,137,31
2990,-2,-227,-121,-19,139,34
2995,-5,-225,-125,-5,142,38
3000,-3,-227,-123,12,141,42
3005,-2,-225,-124,27,141,47
3010,-6,-217,-126,42,141,53
3015,-4,-218,-126,52,143,57
3020,-1,-218,-126,62,144,62
3025,0,-215,-125,68,145,68
3030,-1,-209,-125,69,145,73
3035,-2,-205,-127,70,141,77
3040,-3,-205,-124,64,138,82
3045,-4,-200,-123,56,133,86
3050,-7,-198,-126,44,129,91
3055,-4,-194,-123,26,124,96
3060,-7,-192,-118,6,120,103
3065,-4,-188,-120,-17,117,108
3070,-6,-188,-121,-41,115,117
3075,-7,-183,-121,-68,116,129
3080,-8,-179,-119,-91,114,141
3085,-7,-179,-118,-114,115,153
3090,-3,-180,-118,-139,117,164
3095,-3,-176,-121,-163,116,176
3100,-7,-176,-121,-184,112,187
3105,-3,-177,-119,-204,107,200
3110,0,-179,-123,-221,101,210
3115,0,-179,-124,-234,100,221
3120,-1,-181,-123,-246,102,227
3125,1,-185,-120,-259,104,227
3130,1,-184,-121,-268,107,229
3135,0,-188,-117,-275,111,228
3140,-1,-187,-115,-283,113,227
3145,0,-189,-115,-287,110,223
3150,-1,-189,-113,-282,100,220
3155,0,-191,-105,-274,99,210
3160,0,-189,-107,-264,99,198
3165,1,-188,-109,-265,99,189
3170,-3,-184,-111,-278,93,185
3175,-1,-184,-107,-300,90,177
3180,-5,-185,-110,-322,83,172
3185,-6,-186,-107,-345,78,165
3190,-9,-185,-107,-367,73,156
3195,-14,-188,-111,-395,63,154
3200,-12,-186,-111,-424,55,157
3205,-10,-189,-109,-460,53,159
3210,-11,-192,-110,-494,58,163
3215,-10,-193,-110,-518,66,170
3220,-8,-192,-117,-528,76,182
3225,-11,-194,-113,-548,94,197
3230,-12,-199,-113,-560,106,212
3235,-8,-200,-111,-561,112,228
3240,-7,-203,-111,-552,115,238
3245,-8,-203,-111,-541,112,244
3250,-10,-201,-112,-529,105,255
3255,-4,-199,-112,-520,105,270
3260,0,-203,-110,-510,111,286
3265,0,-201,-115,-505,109,293
3270,0,-202,-114,-511,112,300
3275,-3,-202,-117,-519,114,306
3280,-2,-200,-114,-519,115,309
3285,-3,-203,-113,-518,119,305
3290,-2,-205,-119,-512,120,300
3295,0,-205,-115,-507,119,295
3300,-1,-205,-115,-502,117,286
3305,-3,-206,-117,-497,115,280
3310,-7,-205,-113,-489,112,271
3315,-8,-205,-117,-478,110,268
3320,-11,-202,-116,-465,110,267
3325,-16,-206,-117,-449,112,266
3330,-14,-199,-112,-433,117,262
3335,-24,-201,-112,-413,122,254
3340,-28,-204,-115,-391,121,255
3345,-31,-204,-110,-373,113,261
3350,-28,-202,-113,-356,99,277
3355,-33,-198,-115,-339,76,294
3360,-32,-198,-118,-328,61,308
3365,-31,-195,-117,-327,49,326
3370,-34,-198,-120,-328,35,348
3375,-29,-200,-122,-337,22,370
3380,-28,-198,-121,-346,14,395
3385,-27,-201,-121,-354,6,413
3390,-27,-197,-123,-361,2,426
3395,-27,-201,-123,-363,1,434
3400,-30,-198,-124,-365,-7,443
3405,-27,-199,-124,-367,-18,448
3410,-26,-198,-126,-370,-31,449
3415,-28,-201,-124,-374,-41,452
3420,-27,-199,-120,-376,-42,453
3425,-23,-200,-123,-378,-41,454
3430,-26,-200,-124,-381,-36,449
3435,-29,-205,-121,-375,-30,442
3440,-29,-210,-119,-360,-20,434
3445,-30,-208,-118,-338,-15,426
3450,-30,-213,-117,-313,-15,420
3455,-33,-209,-115,-283,-19,413
3460,-34,-213,-116,-256,-29,409
3465,-34,-210,-120,-230,-42,406
3470,-34,-210,-123,-205,-51,401
3475,-39,-209,-118,-184,-53,400
3480,-38,-208,-122,-181,-53,395
3485,-43,-208,-125,-188,-44,389
3490,-42,-210,-125,-198,-31,383
3495,-48,-210,-123,-206,-19,378
3500,-52,-213,-126,-210,-10,381
3505,-49,-219,-125,-221,-2,384
3510,-52,-220,-122,-211,26,396
3515,-46,-219,-125,-197,41,410
3520,-42,-222,-127,-190,50,415
3525,-42,-221,-126,-192,69,417
3530,-37,-218,-121,-193,94,412
3535,-38,-219,-118,-193,111,399
3540,-38,-216,-120,-201,114,390
3545,-31,-215,-127,-216,104,378
3550,-27,-213,-129,-228,93,358
3555,-32,-209,-131,-245,85,340
3560,-27,-209,-135,-261,78,328
3565,-33,-203,-136,-270,71,317
3570,-32,-203,-139,-279,65,305
3575,-34,-203,-136,-282,68,295
3580,-36,-202,-141,-289,73,287
3585,-39,-201,-143,-300,78,278
3590,-42,-206,-144,-303,91,268
3595,-43,-210,-148,-299,87,259
3600,-36,-214,-144,-298,85,246
3605,-38,-215,-142,-276,104,239
3610,-37,-213,-142,-253,118,228
3615,-38,-213,-141,-226,128,221
3620,-41,-208,-139,-204,132,219
3625,-39,-208,-142,-184,130,204
3630,-33,-206,-143,-170,130,195
3635,-35,-210,-146,-161,137,177
3640,-37,-209,-146,-150,152,161
3645,-39,-210,-149,-142,163,151
3650,-39,-207,-152,-128,178,138
3655,-46,-206,-153,-122,187,129
3660,-50,-207,-151,-122,190,123
3665,-54,-208,-158,-132,196,138
3670,-60,-209,-153,-135,190,136
3675,-63,-207,-153,-134,178,135
3680,-61,-209,-156,-130,165,145
3685,-61,-207,-154,-124,151,153
3690,-48,-211,-150,-115,139,163
3695,-53,-213,-149,-100,133,167
3700,-54,-211,-148,-81,120,172
3705,-48,-210,-147,-68,106,185
3710,-44,-204,-153,-66,108,195
3715,-43,-204,-152,-71,115,197
3720,-38,-201,-155,-83,124,191
3725,-39,-203,-159,-93,141,185
3730,-38,-206,-162,-103,152,179
3735,-37,-204,-161,-114,166,171
3740,-42,-206,-161,-122,174,156
3745,-48,-206,-160,-124,180,151
3750,-48,-205,-163,-127,177,151
3755,-50,-205,-156,-124,169,161
3760,-51,-210,-155,-121,166,174
3765,-58,-204,-145,-109,162,184
3770,-45,-203,-158,-92,138,181
3775,-51,-207,-157,-75,157,177
3780,-42,-206,-155,-65,169,182
3785,-44,-202,-159,-63,184,175
3790,-46,-206,-161,-68,203,173
3795,-46,-208,-166,-79,219,167
3800,-47,-213,-166,-80,224,150
3805,-47,-217,-164,-76,221,140
3810,-47,-217,-162,-71,214,138
3815,-48,-220,-164,-58,202,140
3820,-46,-221,-159,-30,188,132
3825,-43,-220,-158,6,171,131
3830,-39,-220,-155,40,162,133
3835,-38,-216,-153,76,160,132
3840,-34,-213,-159,103,166,128
3845,-34,-210,-150,122,186,121
3850,-31,-213,-153,142,208,101
3855,-31,-215,-151,159,231,75
3860,-28,-214,-151,169,258,45
3865,-34,-208,-150,173,277,16
3870,-37,-213,-149,173,282,-11
3875,-43,-214,-142,171,275,-35
3880,-45,-209,-143,170,262,-48
3885,-46,-209,-145,172,242,-54
3890,-47,-209,-147,172,219,-51
3895,-41,-207,-149,173,198,-44
3900,-36,-206,-151,176,184,-37
3905,-31,-207,-149,181,177,-25
3910,-31,-201,-151,185,179,-16
3915,-37,-201,-151,190,184,-12
3920,-32,-201,-154,195,192,-10
3925,-36,-203,-151,204,200,-14
3930,-37,-204,-151,220,208,-20
3935,-42,-201,-151,237,214,-25
3940,-43,-204,-148,257,213,-27
3945,-46,-205,-153,275,211,-28
3950,-49,-211,-150,292,202,-27
3955,-50,-209,-152,311,192,-25
3960,-54,-206,-151,330,183,-21
3965,-56,-209,-147,354,173,-18
3970,-57,-209,-151,379,161,-14
3975,-57,-207,-152,406,149,-13
3980,-58,-208,-147,431,139,-15
3985,-53,-209,-146,452,129,-24
3990,-57,-203,-144,471,120,-37
3995,-52,-202,-145,486,113,-53
4000,-47,-195,-149,490,108,-75
4005,-47,-190,-141,491,105,-93
4010,-43,-189,-141,487,102,-105
4015,-38,-191,-142,479,100,-111
4020,-36,-189,-144,463,98,-111
4025,-34,-185,-144,444,99,-106
4030,-33,-185,-145,423,104,-95
4035,-30,-184,-148,402,112,-84
4040,-26,-190,-152,385,129,-78
4045,-24,-193,-148,373,144,-75
4050,-22,-193,-151,369,162,-78
4055,-26,-196,-148,368,177,-82
4060,-29,-201,-150,373,190,-93
4065,-29,-200,-149,379,197,-103
4070,-34,-200,-144,380,198,-114
4075,-37,-201,-142,381,193,-118
4080,-42,-203,-142,383,184,-117
4085,-44,-204,-138,389,172,-114
4090,-42,-208,-137,397,158,-105
4095,-48,-204,-138,404,141,-91
4100,-47,-210,-136,408,123,-75
4105,-46,-211,-133,413,107,-62
4110,-44,-214,-136,425,93,-53
4115,-38,-212,-132,435,78,-47
4120,-45,-215,-128,447,67,-44
4125,-43,-217,-132,458,57,-45
4130,-44,-215,-131,470,46,-51
4135,-41,-217,-130,480,35,-55
4140,-40,-219,-131,482,26,-60
4145,-40,-221,-131,485,20,-64
4150,-38,-219,-127,483,16,-69
4155,-33,-224,-131,479,15,-68
4160,-37,-225,-136,481,23,-71
4165,-35,-225,-133,494,32,-73
4170,-30,-229,-135,507,38,-72
4175,-31,-223,-130,521,47,-73
4180,-34,-220,-128,534,56,-73
4185,-34,-224,-128,547,64,-72
4190,-32,-218,-126,559,71,-74
4195,-37,-219,-124,570,77,-78
4200,-39,-220,-122,576,80,-78
4205,-38,-222,-122,584,81,-78
4210,-38,-228,-120,593,81,-75
4215,-36,-225,-121,600,76,-73
4220,-37,-229,-122,601,68,-71
4225,-36,-227,-122,601,63,-64
4230,-35,-224,-123,598,57,-64
4235,-34,-232,-122,594,54,-65
4240,-36,-229,-119,589,48,-71
4245,-36,-229,-123,586,39,-79
4250,-40,-232,-120,583,28,-91
4255,-37,-233,-117,586,16,-105
4260,-40,-236,-119,591,4,-119
4265,-38,-242,-115,600,-6,-134
4270,-37,-240,-119,608,-19,-150
4275,-36,-240,-117,610,-25,-162
4280,-34,-238,-118,611,-26,-174
4285,-27,-241,-120,609,-28,-182
4290,-30,-241,-117,609,-31,-190
4295,-29,-242,-113,609,-31,-195
4300,-30,-241,-115,610,-30,-196
4305,-28,-242,-119,609,-27,-197
4310,-32,-242,-112,604,-25,-196
4315,-30,-243,-114,602,-25,-196
4320,-33,-245,-114,602,-27,-198
4325,-34,-246,-111,600,-26,-196
4330,-32,-245,-111,595,-23,-192
4335,-30,-245,-116,589,-16,-187
4340,-32,-248,-114,580,-3,-182
4345,-32,-253,-109,571,6,-179
4350,-32,-251,-110,558,11,-178
4355,-32,-250,-114,543,17,-172
4360,-38,-250,-110,531,20,-165
4365,-35,-255,-108,519,23,-155
4370,-34,-256,-105,512,22,-149
4375,-33,-257,-103,509,21,-143
4380,-38,-258,-109,510,22,-139
4385,-30,-256,-104,510,21,-133
4390,-29,-261,-103,515,21,-131
4395,-46,-258,-98,522,21,-128
4400,-38,-254,-95,531,18,-126
4405,-34,-251,-98,538,18,-124
4410,-30,-258,-104,543,22,-125
4415,-38,-263,-108,543,29,-126
4420,-52,-260,-103,543,37,-125
4425,-29,-258,-98,538,43,-128
4430,-29,-257,-104,531,51,-130
4435,-30,-257,-101,525,61,-129
4440,-27,-259,-100,520,68,-128
4445,-29,-258,-100,516,74,-127
4450,-27,-257,-95,513,76,-127
4455,-28,-256,-99,513,79,-125
4460,-34,-255,-94,515,78,-122
4465,-33,-256,-94,516,74,-118
4470,-32,-255,-93,519,70,-117
4475,-30,-256,-95,525,65,-119
4480,-29,-256,-93,530,58,-120
4485,-32,-256,-95,532,52,-120
4490,-25,-256,-91,536,48,-121
4495,-28,-255,-93,538,44,-121
4500,-29,-256,-89,537,38,-119
4505,-25,-254,-91,538,35,-121
4510,-31,-257,-86,541,30,-122
4515,-28,-256,-86,549,26,-123
4520,-25,-255,-89,556,19,-122
4525,-29,-252,-86,560,15,-120
4530,-27,-253,-86,565,13,-122
4535,-26,-251,-84,568,9,-123
4540,-26,-249,-82,570,7,-125
4545,-25,-249,-77,570,9,-127
4550,-24,-247,-78,569,6,-129
4555,-25,-247,-74,569,3,-128
4560,-24,-244,-72,570,0,-126
4565,-27,-244,-70,573,-3,-124
4570,-25,-241,-71,575,-6,-122
4575,-22,-244,-68,579,-9,-122
4580,-22,-242,-67,585,-11,-120
4585,-23,-247,-66,592,-14,-120
4590,-27,-243,-65,601,-15,-123
4595,-27,-245,-63,611,-18,-127
4600,-22,-245,-63,625,-18,-131
4605,-26,-241,-58,638,-17,-135
4610,-23,-242,-61,655,-16,-138
4615,-22,-240,-57,669,-13,-142
4620,-21,-243,-56,686,-12,-145
4625,-20,-239,-51,706,-10,-150
4630,-21,-240,-49,728,-7,-151
4635,-24,-238,-51,747,-2,-154
4640,-23,-238,-46,760,0,-159
4645,-17,-249,-32,780,7,-168
4650,-21,-245,-44,815,13,-181
4655,-14,-247,-38,859,26,-188
4660,-12,-253,-30,906,40,-188
4665,-14,-267,-27,952,39,-191
4670,-17,-274,-33,999,29,-200
4675,-22,-287,-30,1051,26,-212
4680,-24,-298,-28,1109,35,-225
4685,-27,-301,-30,1159,48,-230
4690,-24,-305,-28,1190,63,-228
4695,-26,-307,-41,1197,78,-217
4700,-27,-313,-46,1176,97,-199
4705,-24,-323,-52,1125,118,-178
4710,-22,-334,-62,1045,134,-155
4715,-28,-349,-70,937,148,-134
4720,-32,-355,-83,807,163,-113
4725,-37,-360,-97,667,177,-92
4730,-37,-366,-108,532,195,-68
4735,-40,-365,-110,422,218,-42
4740,-39,-364,-106,342,248,-24
4745,-37,-360,-95,295,281,-15
4750,-32,-355,-80,274,314,-12
4755,-26,-349,-67,273,339,-18
4760,-19,-336,-50,289,359,-27
4765,-13,-323,-41,307,366,-39
4770,-8,-314,-34,321,365,-53
4775,-8,-299,-35,325,350,-70
4780,-3,-284,-34,315,326,-88
4785,-5,-266,-34,298,294,-105
4790,-3,-255,-34,276,260,-120
4795,0,-239,-30,250,223,-131
4800,-1,-223,-30,223,191,-134
4805,0,-213,-26,196,162,-131
4810,-2,-203,-25,172,140,-125
4815,-1,-194,-25,148,126,-116
4820,-6,-195,-21,130,117,-105
4825,-4,-195,-14,114,116,-94
4830,-4,-198,-11,100,119,-86
4835,-7,-199,-4,91,122,-80
4840,-8,-205,1,86,127,-73
4845,-8,-209,-1,85,130,-70
4850,-11,-218,7,85,134,-68
4855,-10,-226,11,84,139,-66
4860,-9,-231,18,85,142,-66
4865,-14,-238,23,89,145,-69
4870,-10,-245,23,95,147,-70
4875,-16,-252,23,107,147,-71
4880,-15,-257,29,129,145,-71
4885,-18,-264,24,159,141,-70
4890,-16,-269,33,196,135,-66
4895,-19,-273,28,232,127,-61
4900,-17,-280,24,270,121,-55
4905,-19,-278,20,305,111,-46
4910,-18,-284,13,333,97,-39
4915,-20,-286,10,354,83,-35
4920,-21,-286,6,372,73,-32
4925,-20,-287,4,388,66,-29
4930,-22,-287,2,402,62,-30
4935,-21,-285,-1,412,62,-29
4940,-15,-289,-4,422,68,-31
4945,-16,-285,-10,422,74,-32
4950,-15,-282,-7,415,82,-35
4955,-13,-282,-11,406,90,-33
4960,-14,-277,-9,396,97,-34
4965,-12,-275,-13,382,102,-38
4970,-9,-271,-13,368,102,-41
4975,-8,-267,-17,356,99,-47
4980,-9,-263,-18,342,95,-54
4985,-7,-262,-16,331,89,-60
4990,-11,-258,-17,324,83,-66
4995,-9,-256,-18,315,81,-70
5000,-11,-250,-20,302,79,-70
5005,-10,-251,-16,282,79,-69
5010,-8,-247,-15,259,80,-63
5015,-7,-251,-11,235,82,-58
5020,-8,-249,-14,213,82,-53
5025,-6,-252,-9,194,80,-45
5030,-6,-250,-8,182,78,-45
5035,-4,-250,-5,177,79,-42
5040,-6,-252,-2,176,77,-45
5045,-6,-256,-5,175,79,-49
5050,-4,-254,-5,173,79,-56
5055,-11,-256,-1,171,83,-64
5060,-12,-260,-2,168,88,-72
5065,-11,-258,-1,163,96,-77
5070,-10,-263,4,159,106,-82
5075,-9,-264,1,157,114,-83
5080,-10,-267,2,162,119,-84
5085,-9,-269,-3,167,122,-84
5090,-10,-269,5,182,127,-82
5095,-7,-268,3,198,131,-79
5100,-9,-267,5,213,130,-78
5105,-6,-269,4,231,126,-77
5110,-13,-268,7,247,123,-77
5115,-13,-271,2,259,119,-78
5120,-12,-270,2,270,118,-79
5125,-8,-267,8,275,119,-77
5130,-7,-269,4,275,125,-78
5135,-7,-270,5,267,132,-82
5140,-6,-270,7,258,142,-84
5145,-4,-272,8,250,152,-88
5150,-7,-274,10,239,161,-91
5155,-7,-274,9,229,165,-94
5160,-11,-275,10,223,170,-99
5165,-11,-273,13,222,168,-97
5170,-9,-272,16,222,163,-94
5175,-12,-269,12,225,157,-87
5180,-12,-265,14,233,150,-75
5185,-11,-267,14,242,144,-64
5190,-10,-267,11,248,138,-52
5195,-12,-267,12,256,136,-44
5200,-12,-266,7,261,133,-40
5205,-9,-266,6,263,134,-38
5210,-12,-262,7,259,138,-35
5215,-8,-265,5,252,142,-31
5220,-7,-265,2,242,147,-27
5225,-5,-264,6,233,155,-24
5230,-1,-263,7,221,162,-22
5235,0,-263,7,210,167,-22
5240,0,-265,3,198,170,-23
5245,-1,-263,6,184,169,-26
5250,-4,-267,9,171,169,-28
5255,-1,-263,13,162,167,-29
5260,1,-265,11,154,167,-29
5265,0,-266,11,144,166,-27
5270,1,-262,11,131,163,-25
5275,0,-264,16,122,160,-21
5280,1,-267,16,119,155,-13
5285,-1,-271,17,121,149,-9
5290,0,-273,16,124,139,-6
5295,-5,-269,15,131,132,-6
5300,-3,-270,17,136,126,-5
5305,-5,-266,12,141,119,-4
5310,-3,-267,14,144,117,-6
5315,-2,-266,13,144,117,-10
5320,-4,-267,17,144,119,-15
5325,-4,-262,15,140,122,-19
5330,-2,-264,18,137,127,-24
5335,-4,-260,21,134,130,-28
5340,-4,-259,20,132,136,-29
5345,-5,-258,19,128,139,-29
5350,-4,-258,25,123,142,-26
5355,-5,-259,24,117,143,-22
5360,-5,-260,24,110,140,-13
5365,-5,-260,27,104,135,-10
5370,-5,-257,22,96,129,-5
5375,-4,-259,24,87,119,-2
5380,-8,-260,26,81,113,1
5385,-5,-263,25,73,108,5
5390,-9,-261,25,65,104,6
5395,-7,-262,26,58,102,6
5400,-9,-261,29,50,99,7
5405,-7,-264,29,42,94,7
5410,-7,-266,31,36,90,7
5415,-4,-264,26,30,86,5
5420,-4,-265,25,24,82,3
5425,-3,-265,25,17,77,3
5430,-6,-264,24,8,70,2
5435,-4,-263,24,-3,67,3
5440,-7,-264,25,-11,61,4
5445,-4,-264,22,-19,56,8
5450,0,-264,22,-24,48,9
5455,0,-268,26,-27,41,10
5460,0,-265,26,-28,32,9
5465,-1,-265,23,-30,20,5
5470,-1,-262,23,-33,12,1
5475,-4,-261,25,-38,8,-5
5480,-2,-259,27,-41,7,-9
5485,0,-260,29,-43,10,-12
5490,-2,-260,26,-44,14,-14
5495,-2,-256,27,-45,21,-17
5500,0,-260,31,-42,29,-18
5505,1,-258,26,-39,35,-18
5510,0,-263,30,-35,37,-18
5515,0,-262,30,-33,34,-18
5520,1,-264,28,-33,26,-18
5525,0,-265,24,-38,19,-17
5530,-2,-261,24,-48,11,-18
5535,-6,-264,18,-57,4,-16
5540,-1,-269,13,-67,0,-16
5545,-8,-264,12,-75,-3,-19
5550,-11,-265,13,-81,-5,-24
5555,-15,-264,12,-83,-6,-29
5560,-14,-266,7,-84,-4,-35
5565,-19,-264,6,-84,1,-39
5570,-15,-266,5,-83,8,-38
5575,-17,-267,10,-81,15,-38
5580,-19,-268,15,-77,23,-37
5585,-19,-267,16,-71,30,-35
5590,-16,-269,11,-67,34,-31
5595,-19,-269,10,-59,39,-26
5600,-14,-267,8,-53,43,-22
5605,-15,-267,9,-48,48,-19
5610,-14,-272,9,-42,55,-14
5615,-12,-264,10,-37,63,-11
5620,-9,-267,10,-32,71,-6
5625,-7,-266,14,-26,76,-3
5630,-7,-265,10,-19,83,0
5635,-5,-266,12,-8,89,3
5640,-3,-265,11,4,94,3
5645,-1,-264,12,13,96,3
5650,-3,-264,14,21,99,-1
5655,-7,-264,11,26,100,-5
5660,-3,-265,14,30,99,-11
5665,-5,-264,11,31,97,-16
5670,-1,-265,8,32,95,-23
5675,-6,-260,9,31,93,-30
5680,-5,-261,13,28,91,-38
5685,-8,-262,12,26,90,-45
5690,-9,-261,14,25,90,-49
5695,-5,-262,17,25,89,-53
5700,-4,-265,18,26,91,-57
5705,-6,-264,21,26,92,-62
5710,-7,-264,19,25,93,-62
5715,-5,-263,21,26,95,-62
5720,-8,-266,21,27,98,-59
5725,-4,-265,23,31,101,-54
5730,-2,-270,22,38,100,-47
5735,-9,-266,24,47,95,-42
5740,-9,-269,26,55,91,-37
5745,-8,-266,20,59,83,-33
5750,-7,-267,25,64,74,-30
5755,-9,-263,19,66,65,-29
5760,-11,-262,22,69,59,-28
5765,-11,-263,22,71,56,-28
5770,-8,-264,25,73,57,-26
5775,-8,-264,19,75,58,-25
5780,-3,-264,20,75,61,-24
5785,-4,-262,22,76,65,-23
5790,-6,-261,20,76,67,-23
5795,-2,-264,19,76,68,-25
5800,-2,-261,21,75,70,-25
5805,-2,-263,20,72,69,-27
5810,-2,-262,23,72,71,-29
5815,0,-262,20,68,71,-34
5820,0,-264,18,62,71,-37
5825,-1,-262,22,60,73,-39
5830,0,-261,21,56,74,-41
5835,2,-264,20,50,74,-41
5840,0,-263,19,45,74,-43
5845,-1,-265,21,42,75,-44
5850,0,-265,21,41,74,-44
5855,-2,-264,24,43,74,-43
5860,0,-266,21,49,70,-43
5865,0,-267,22,51,67,-40
5870,0,-266,24,55,64,-38
5875,-1,-262,19,58,61,-37
5880,-2,-260,23,61,60,-34
5885,-4,-264,20,62,58,-32
5890,-2,-264,18,64,55,-29
5895,-2,-262,18,64,53,-28
5900,-8,-262,22,62,53,-26
5905,-3,-262,23,60,50,-24
5910,-7,-265,22,58,49,-22
5915,-1,-266,22,55,47,-21
5920,-4,-264,26,53,48,-21
5925,-7,-262,23,50,48,-20
5930,0,-264,22,48,50,-20
5935,-3,-261,21,44,53,-19
5940,-1,-263,23,40,57,-15
5945,1,-264,21,37,59,-13
5950,-1,-262,22,33,58,-11
5955,-1,-262,18,30,59,-11
5960,-1,-261,21,29,57,-12
5965,0,-261,22,27,56,-13
5970,-2,-260,23,26,55,-15
5975,0,-260,21,25,53,-15
5980,0,-262,21,24,53,-15
5985,0,-262,26,23,53,-16
5990,0,-265,21,21,55,-16
5995,-5,-264,25,19,56,-15
6000,-4,-261,22,15,54,-15
6005,-1,-261,20,13,52,-15
6010,0,-264,24,10,53,-17
6015,0,-263,23,8,54,-14
6020,-2,-261,23,5,56,-12
6025,-1,-265,25,4,58,-10
6030,0,-264,20,7,60,-7
6035,2,-267,26,11,61,-4
6040,-1,-266,25,16,59,-3
6045,-3,-265,25,20,59,0
6050,-2,-265,25,26,59,1
6055,0,-266,24,28,58,0
6060,1,-267,25,33,60,0
6065,-1,-263,26,35,61,0
6070,0,-263,23,38,64,0
6075,1,-265,26,39,66,-2
6080,0,-262,28,40,68,0
6085,1,-264,27,40,73,-1
6090,0,-262,22,39,75,-2
6095,2,-264,32,39,77,-4
6100,-3,-263,29,37,78,-7
6105,2,-264,29,36,77,-9
6110,2,-268,30,35,78,-14
6115,-1,-265,27,37,78,-17
6120,0,-268,28,38,80,-21
6125,-1,-266,31,43,82,-26
6130,2,-267,27,47,85,-29
6135,0,-263,28,49,91,-31
6140,0,-266,26,51,95,-32
6145,-2,-264,27,51,99,-34
6150,0,-263,23,50,101,-35
6155,1,-263,27,50,102,-37
6160,0,-264,25,49,101,-36
6165,0,-262,30,50,101,-37
6170,0,-264,26,49,96,-35
6175,-1,-261,25,50,93,-34
6180,0,-263,26,49,90,-32
6185,-3,-262,30,49,84,-30
6190,0,-267,27,46,80,-31
6195,-3,-264,27,42,78,-30
6200,-5,-266,30,38,77,-31
6205,0,-268,27,35,79,-32
6210,-5,-269,26,33,81,-31
6215,0,-271,30,34,90,-28
6220,1,-270,27,37,96,-24
6225,0,-274,29,42,101,-18
6230,0,-274,25,50,104,-14
6235,0,-270,22,59,105,-11
6240,-1,-269,23,65,103,-8
6245,-3,-270,18,69,100,-8
6250,-3,-267,19,73,97,-8
6255,0,-267,18,74,93,-6
6260,-2,-267,17,74,92,-4
6265,-2,-269,19,74,94,-3
6270,-2,-267,22,77,98,0
6275,0,-271,27,83,102,4
6280,0,-272,26,88,105,7
6285,1,-272,21,91,108,11
6290,1,-269,22,92,114,14
6295,0,-269,19,91,117,20
6300,-1,-267,20,88,115,25
6305,-3,-270,21,85,112,31
6310,-1,-271,21,83,105,35
6315,0,-268,18,83,97,37
6320,0,-267,20,85,89,39
6325,0,-269,22,85,84,37
6330,0,-269,19,84,83,31
6335,2,-269,21,80,81,23
6340,2,-265,18,73,79,17
6345,0,-269,20,61,77,9
6350,1,-269,21,50,72,1
6355,-1,-265,23,42,68,-7
6360,0,-265,22,34,62,-13
6365,0,-265,25,27,60,-19
6370,-1,-264,25,18,57,-25
6375,-4,-263,25,12,58,-28
6380,-1,-265,28,4,59,-31
6385,-1,-266,25,-5,60,-33
6390,-4,-265,29,-16,60,-34
6395,1,-261,29,-28,61,-34
6400,0,-264,30,-36,65,-34
6405,1,-263,29,-41,70,-31
6410,0,-262,31,-46,78,-27
6415,3,-263,34,-50,86,-22
6420,5,-263,25,-53,95,-19
6425,11,-264,26,-55,102,-12
6430,12,-261,37,-56,107,-8
6435,14,-264,15,-54,113,-9
6440,9,-259,25,-51,115,-9
6445,6,-263,35,-51,113,-13
6450,8,-266,37,-53,106,-15
6455,10,-257,33,-56,99,-17
6460,0,-255,37,-64,89,-16
6465,4,-253,36,-73,77,-14
6470,1,-258,36,-82,63,-11
6475,0,-257,33,-89,48,-7
6480,-4,-256,31,-98,36,-3
6485,0,-256,36,-109,25,3
6490,-3,-257,32,-117,18,8
6495,-7,-254,34,-122,11,12
6500,-8,-257,35,-125,1,18
6505,-9,-255,33,-127,-8,26
6510,-11,-254,33,-132,-17,31
6515,-9,-254,36,-138,-24,38
6520,-13,-251,39,-143,-33,43
6525,-13,-256,34,-150,-41,47
6530,-13,-252,37,-155,-48,47
6535,-15,-255,33,-159,-55,46
6540,-13,-255,33,-165,-61,44
6545,-12,-254,39,-169,-65,45
6550,-17,-255,41,-171,-68,46
6555,-15,-256,36,-171,-68,47
6560,-17,-257,46,-171,-68,50
6565,-11,-256,48,-167,-68,50
6570,-8,-259,46,-162,-62,51
6575,-11,-257,43,-162,-56,51
6580,-7,-257,46,-163,-44,49
6585,-1,-259,43,-167,-28,45
6590,-1,-263,44,-169,-7,37
6595,3,-262,48,-170,16,29
6600,3,-263,48,-168,42,18
6605,6,-263,44,-162,69,3
6610,9,-261,40,-154,96,-11
6615,8,-264,42,-143,121,-27
6620,5,-259,35,-131,142,-41
6625,5,-262,38,-118,155,-54
6630,3,-260,34,-104,162,-64
6635,3,-263,38,-90,166,-72
6640,2,-265,37,-73,163,-77
6645,1,-268,35,-58,155,-77
6650,-1,-270,39,-45,143,-75
6655,-6,-267,36,-34,126,-72
6660,-8,-270,37,-23,109,-66
6665,-7,-269,36,-12,95,-57
6670,-11,-266,28,-1,83,-47
6675,-12,-265,27,12,71,-38
6680,-12,-264,27,21,64,-31
6685,-13,-268,26,30,59,-23
6690,-14,-265,25,38,56,-15
6695,-8,-264,27,49,55,-8
6700,-9,-267,28,59,55,-2
6705,-8,-264,29,68,56,3
6710,-1,-267,33,76,56,6
6715,0,-262,29,82,55,11
6720,1,-265,24,85,51,16
6725,0,-265,27,89,41,20
6730,-1,-261,25,88,27,21
6735,1,-265,19,88,9,24
6740,1,-265,18,88,-13,24
6745,1,-265,17,84,-34,22
6750,0,-264,17,81,-52,22
6755,1,-263,15,77,-68,23
6760,0,-263,12,72,-84,24
6765,-1,-261,11,70,-95,25
6770,1,-266,10,65,-103,25
6775,1,-261,7,60,-108,26
6780,1,-262,9,54,-110,31
6785,0,-263,10,44,-111,33
6790,2,-260,11,37,-109,35
6795,2,-263,7,28,-106,35
6800,2,-260,11,19,-103,31
6805,0,-261,10,11,-101,25
6810,0,-261,10,2,-96,18
6815,0,-261,14,-7,-88,9
6820,-1,-261,9,-16,-79,-1
6825,-7,-261,11,-24,-66,-9
6830,-10,-260,14,-34,-56,-19
6835,-8,-263,12,-43,-48,-24
6840,-10,-261,16,-51,-39,-30
6845,-10,-262,17,-54,-31,-32
6850,-13,-263,21,-56,-27,-31
6855,-17,-264,21,-57,-25,-28
6860,-11,-262,22,-57,-23,-24
6865,-14,-265,20,-55,-22,-15
6870,-12,-262,23,-55,-20,-9
6875,-13,-264,24,-54,-17,0
6880,-10,-268,24,-55,-16,6
6885,-10,-266,23,-56,-13,10
6890,-10,-266,26,-59,-13,12
6895,-6,-268,28,-59,-9,13
6900,-9,-264,27,-56,-4,15
6905,-1,-270,26,-51,-1,14
6910,-1,-271,26,-46,3,12
6915,-3,-267,27,-39,10,10
6920,-2,-264,26,-32,17,7
6925,-2,-262,28,-26,27,5
6930,-1,-264,24,-20,35,3
6935,-1,-262,27,-18,43,1
6940,1,-262,23,-17,52,1
6945,0,-264,28,-18,61,3
6950,1,-263,25,-21,66,4
6955,-1,-264,25,-23,69,7
6960,3,-267,24,-27,71,9
6965,1,-264,23,-32,71,13
6970,4,-266,20,-38,70,15
6975,1,-266,19,-45,70,19
6980,2,-263,18,-51,73,20
6985,5,-263,24,-54,76,20
6990,3,-264,21,-55,81,18
6995,3,-266,19,-52,89,12
7000,3,-267,21,-46,98,7
7005,4,-265,20,-38,107,2
7010,3,-269,21,-30,116,-2
7015,1,-267,24,-23,123,-6
7020,1,-261,17,-18,131,-6
7025,3,-264,22,-14,135,-5
7030,0,-263,19,-17,136,-6
7035,0,-263,19,-23,136,-5
7040,0,-260,20,-32,136,-4
7045,-1,-257,23,-40,138,-3
7050,4,-259,20,-44,140,-5
7055,0,-258,21,-47,142,-6
7060,2,-259,24,-48,143,-9
7065,-3,-257,21,-51,145,-13
7070,-1,-262,21,-54,144,-15
7075,-6,-262,20,-58,141,-15
7080,-3,-265,24,-64,142,-12
7085,-3,-267,23,-69,140,-8
7090,-5,-266,22,-73,135,-3
7095,-7,-266,26,-74,129,1
7100,-9,-267,24,-75,121,5
7105,-9,-266,19,-81,108,6
7110,-8,-265,18,-89,95,6
7115,-10,-265,23,-98,85,8
7120,-12,-260,19,-104,77,12
7125,-10,-261,20,-109,74,16
7130,-10,-258,21,-111,70,20
7135,-8,-257,17,-114,65,28
7140,-8,-258,17,-118,65,37
7145,-7,-256,21,-127,60,48
7150,-4,-258,18,-136,59,58
7155,0,-258,23,-147,59,69
7160,-1,-259,26,-158,60,79
7165,1,-261,28,-167,60,82
7170,1,-264,30,-174,55,82
7175,2,-263,27,-181,50,76
7180,0,-261,27,-188,48,69
7185,1,-264,23,-194,50,61
7190,3,-265,23,-202,52,55
7195,2,-262,24,-208,61,48
7200,3,-264,21,-214,70,42
7205,2,-258,21,-218,81,38
7210,0,-260,18,-223,90,32
7215,1,-257,21,-228,99,28
7220,1,-259,20,-233,108,24
7225,-2,-262,20,-241,116,22
7230,2,-260,15,-251,123,20
7235,0,-254,18,-264,128,16
7240,-1,-257,19,-276,132,17
7245,0,-258,18,-290,134,16
7250,-3,-259,20,-304,133,17
7255,0,-263,17,-319,130,21
7260,0,-269,19,-329,127,29
7265,-2,-269,17,-333,123,35
7270,-6,-273,19,-331,114,43
7275,-9,-273,10,-324,101,50
7280,-10,-271,11,-317,88,58
7285,-11,-272,6,-314,71,64
7290,-14,-269,7,-312,59,72
7295,-14,-267,2,-309,52,80
7300,-12,-267,0,-307,47,85
7305,-9,-270,0,-304,42,88
7310,-9,-271,3,-300,39,89
7315,-6,-270,1,-296,42,87
7320,-7,-271,2,-292,47,87
7325,-8,-268,4,-289,52,83
7330,-3,-267,1,-285,57,80
7335,-4,-266,-2,-280,60,75
7340,0,-268,-1,-277,63,70
7345,0,-269,0,-272,65,66
7350,-3,-266,-2,-271,68,63
7355,1,-265,0,-274,71,60
7360,-3,-261,2,-281,72,58
7365,-3,-260,3,-288,74,58
7370,-1,-256,3,-293,76,55
7375,-1,-259,6,-296,76,53
7380,-3,-260,5,-300,77,50
7385,-1,-258,7,-307,81,47
7390,-4,-260,8,-310,81,45
7395,-8,-257,8,-316,82,41
7400,-5,-259,9,-324,82,40
7405,-9,-257,11,-332,86,44
7410,-9,-263,10,-338,92,48
7415,-8,-265,9,-338,96,52
7420,-9,-265,12,-335,96,59
7425,-9,-262,12,-332,90,62
7430,-8,-265,17,-325,80,65
7435,-7,-266,12,-316,67,68
7440,-10,-266,11,-305,55,70
7445,-9,-262,12,-295,44,71
7450,-11,-265,12,-285,38,71
7455,-10,-262,11,-279,35,66
7460,-14,-262,13,-279,37,61
7465,-14,-263,12,-282,42,53
7470,-12,-263,13,-288,53,44
7475,-11,-265,10,-291,66,40
7480,-10,-269,15,-293,84,36
7485,-13,-268,12,-292,98,36
7490,-12,-266,10,-290,104,36
7495,-13,-269,12,-285,104,38
7500,-17,-264,12,-277,97,40
7505,-17,-264,10,-273,82,41
7510,-18,-261,3,-271,65,42
7515,-17,-260,2,-275,45,46
7520,-19,-257,1,-281,29,52
7525,-19,-259,0,-288,15,60
7530,-18,-256,2,-292,6,67
7535,-14,-254,-2,-299,3,77
7540,-13,-256,0,-310,6,84
7545,-12,-258,2,-324,8,93
7550,-13,-255,0,-342,13,102
7555,-9,-254,1,-365,16,109
7560,-6,-250,-3,-391,24,117
7565,-4,-258,0,-420,33,124
7570,-3,-256,0,-448,43,131
7575,-1,-260,0,-473,53,134
7580,0,-259,-1,-494,59,134
7585,0,-259,-1,-516,56,133
7590,6,-264,2,-534,44,132
7595,2,-259,1,-547,28,129
7600,1,-261,0,-555,8,126
7605,1,-261,-5,-561,-14,128
7610,0,-265,-1,-564,-38,132
7615,1,-259,-9,-567,-57,137
7620,2,-259,-10,-563,-70,143
7625,2,-263,-11,-558,-78,148
7630,0,-263,-12,-550,-82,156
7635,-1,-265,-13,-542,-83,162
7640,-3,-269,-8,-538,-85,168
7645,-9,-273,-12,-536,-90,170
7650,-9,-273,-12,-538,-98,169
7655,-15,-273,-19,-544,-112,164
7660,-16,-274,-24,-554,-126,154
7665,-22,-272,-30,-562,-140,139
7670,-21,-273,-35,-565,-149,116
7675,-25,-275,-41,-564,-154,87
7680,-27,-280,-41,-552,-156,58
7685,-22,-285,-42,-532,-155,26
7690,-23,-288,-44,-510,-157,-2
7695,-19,-289,-45,-491,-168,-27
7700,-22,-289,-44,-484,-182,-40
7705,-21,-287,-51,-483,-201,-41
7710,-16,-285,-49,-487,-217,-35
7715,-16,-289,-52,-492,-228,-21
7720,-25,-285,-53,-493,-225,-4
7725,-18,-283,-56,-497,-214,13
7730,-18,-284,-59,-499,-196,30
7735,-15,-282,-56,-501,-174,45
7740,-14,-289,-56,-503,-148,58
7745,-14,-293,-58,-500,-123,67
7750,-12,-294,-60,-496,-95,66
7755,-15,-294,-58,-496,-67,59
7760,-15,-287,-60,-504,-44,49
7765,-15,-286,-60,-524,-27,42
7770,-15,-282,-67,-543,-20,40
7775,-20,-278,-61,-569,-23,42
7780,-20,-282,-61,-588,-31,46
7785,-20,-282,-59,-610,-42,54
7790,-24,-283,-56,-625,-56,59
7795,-24,-286,-58,-634,-76,64
7800,-27,-288,-60,-642,-96,68
7805,-30,-287,-68,-652,-116,73
7810,-35,-290,-73,-659,-129,81
7815,-36,-289,-76,-671,-145,90
7820,-40,-285,-84,-690,-162,96
7825,-37,-283,-93,-714,-178,102
7830,-33,-284,-99,-745,-189,103
7835,-33,-281,-102,-777,-190,108
7840,-31,-280,-99,-811,-183,111
7845,-29,-284,-95,-840,-170,116
7850,-27,-290,-92,-865,-157,124
7855,-27,-294,-86,-878,-144,129
7860,-31,-304,-80,-880,-130,135
7865,-29,-312,-72,-859,-118,137
7870,-31,-314,-84,-824,-113,135
7875,-34,-313,-89,-794,-109,131
7880,-45,-304,-97,-789,-104,129
7885,-48,-298,-105,-809,-104,131
7890,-47,-293,-111,-842,-105,135
7895,-47,-286,-111,-876,-110,142
7900,-46,-285,-111,-903,-114,153
7905,-45,-279,-109,-928,-114,165
7910,-39,-274,-109,-952,-110,180
7915,-37,-271,-111,-977,-101,194
7920,-35,-269,-107,-997,-89,203
7925,-35,-269,-105,-1010,-76,207
7930,-34,-265,-98,-1017,-64,211
7935,-35,-271,-104,-1021,-54,210
7940,-37,-273,-102,-1022,-46,205
7945,-35,-271,-102,-1021,-42,201
7950,-38,-273,-104,-1020,-41,196
7955,-41,-270,-110,-1019,-44,194
7960,-40,-267,-112,-1020,-47,194
7965,-43,-266,-111,-1019,-48,194
7970,-41,-261,-113,-1020,-47,196
7975,-39,-261,-116,-1023,-42,200
7980,-36,-258,-112,-1025,-39,203
7985,-38,-257,-117,-1026,-33,206
7990,-35,-259,-117,-1024,-25,204
7995,-37,-255,-116,-1023,-15,203
8000,-35,-255,-118,-1025,-4,200
8005,-36,-255,-117,-1029,10,199
8010,-34,-253,-116,-1033,20,197
8015,-33,-248,-118,-1037,29,198
8020,-36,-250,-115,-1040,40,201
8025,-34,-247,-119,-1045,46,204
8030,-36,-240,-116,-1047,49,208
8035,-36,-242,-116,-1052,48,214
8040,-39,-241,-118,-1060,50,219
8045,-36,-241,-117,-1067,53,221
8050,-37,-236,-115,-1073,57,223
8055,-33,-239,-119,-1079,59,226
8060,-38,-239,-122,-1083,61,227
8065,-35,-242,-123,-1085,64,228
8070,-38,-243,-118,-1084,65,227
8075,-33,-238,-122,-1075,65,228
8080,-34,-235,-118,-1066,66,230
8085,-35,-236,-125,-1056,69,231
8090,-34,-234,-118,-1043,76,233
8095,-36,-230,-120,-1026,83,233
8100,-36,-233,-119,-1011,90,232
8105,-36,-231,-121,-997,99,233
8110,-36,-226,-119,-984,109,232
8115,-38,-228,-125,-975,118,232
8120,-34,-224,-125,-968,125,233
8125,-35,-227,-122,-962,132,235
8130,-36,-220,-124,-957,137,236
8135,-36,-220,-125,-950,144,235
8140,-38,-215,-127,-942,148,232
8145,-38,-214,-131,-936,153,230
8150,-36,-213,-133,-936,158,227
8155,-38,-212,-137,-936,163,228
8160,-37,-206,-135,-939,169,227
8165,-37,-210,-138,-941,172,226
8170,-36,-208,-144,-943,177,227
8175,-34,-203,-141,-946,179,228
8180,-37,-204,-141,-949,183,230
8185,-35,-202,-144,-951,188,232
8190,-39,-198,-144,-949,198,228
8195,-41,-195,-143,-947,210,226
8200,-45,-226,-143,-945,224,222
8205,-44,-198,-144,-943,234,218
8210,-41,-200,-147,-941,243,216
8215,-41,-204,-148,-938,249,212
8220,-42,-203,-149,-937,251,210
8225,-43,-199,-147,-932,252,208
8230,-43,-202,-145,-925,250,205
8235,-44,-201,-146,-913,246,203
8240,-43,-201,-153,-898,242,198
8245,-44,-198,-149,-885,236,195
8250,-42,-199,-149,-871,232,191
8255,-45,-199,-147,-853,230,190
8260,-40,-199,-150,-833,232,188
8265,-40,-199,-151,-811,239,183
8270,-40,-198,-152,-786,245,178
8275,-40,-197,-151,-761,252,174
8280,-39,-196,-152,-738,259,165
8285,-41,-197,-155,-710,266,156
8290,-42,-198,-153,-684,273,145
8295,-42,-196,-156,-661,279,130
8300,-44,-197,-158,-638,290,114
8305,-44,-194,-160,-611,304,101
8310,-45,-196,-161,-585,319,84
8315,-46,-192,-161,-564,326,72
8320,-41,-196,-167,-543,334,58
8325,-45,-193,-165,-521,348,47
8330,-42,-191,-168,-493,361,40
8335,-43,-187,-167,-466,379,34
8340,-38,-191,-163,-441,392,30
8345,-38,-190,-166,-419,400,22
8350,-40,-183,-166,-398,408,14
8355,-36,-185,-160,-378,413,2
8360,-39,-182,-163,-361,419,-13
8365,-34,-185,-166,-349,423,-31
8370,-39,-180,-165,-340,430,-55
8375,-39,-183,-166,-329,434,-70
8380,-37,-186,-164,-317,438,-80
8385,-32,-188,-165,-295,444,-82
8390,-35,-186,-167,-272,451,-81
8395,-31,-186,-164,-243,456,-81
8400,-35,-181,-163,-213,460,-78
8405,-30,-187,-170,-186,467,-76
8410,-31,-183,-173,-157,472,-74
8415,-32,-183,-178,-138,478,-70
8420,-25,-184,-193,-125,480,-65
8425,-23,-183,-198,-116,485,-62
8430,-30,-181,-190,-109,492,-57
8435,-22,-185,-189,-103,497,-51
8440,-17,-182,-196,-94,500,-45
8445,-26,-187,-196,-91,504,-46
8450,-23,-183,-191,-88,504,-52
8455,-33,-180,-195,-92,498,-61
8460,-24,-183,-188,-92,489,-69
8465,-33,-173,-167,-92,477,-80
8470,-24,-181,-180,-99,453,-91
8475,-22,-180,-178,-105,428,-102
8480,-21,-181,-178,-104,398,-110
8485,-20,-178,-176,-97,365,-117
8490,-19,-178,-177,-93,333,-125
8495,-20,-179,-177,-95,300,-128
8500,-19,-176,-174,-101,266,-129
8505,-18,-176,-178,-109,234,-129
8510,-17,-178,-172,-109,203,-126
8515,-18,-177,-169,-103,174,-120
8520,-16,-173,-173,-95,141,-112
8525,-17,-172,-177,-89,110,-102
8530,-16,-173,-173,-83,83,-95
8535,-11,-174,-175,-77,57,-85
8540,-15,-173,-176,-74,34,-81
8545,-12,-174,-174,-73,16,-78
8550,-15,-173,-174,-71,3,-74
8555,-14,-174,-180,-70,-8,-69
8560,-12,-179,-182,-63,-12,-69
8565,-18,-178,-179,-47,-14,-76
8570,-21,-181,-179,-30,-15,-81
8575,-16,-183,-181,-10,-14,-89
8580,-14,-183,-175,15,-6,-102
8585,-14,-184,-174,42,4,-121
8590,-15,-186,-177,71,12,-145
8595,-18,-186,-165,95,21,-167
8600,-16,-176,-169,118,26,-186
8605,-16,-182,-168,139,36,-203
8610,-17,-180,-171,159,49,-216
8615,-20,-177,-165,180,59,-233
8620,-21,-172,-167,197,68,-244
8625,-19,-170,-165,209,75,-254
8630,-21,-167,-166,213,79,-260
8635,-21,-163,-170,207,79,-267
8640,-25,-157,-167,191,76,-271
8645,-22,-159,-173,170,68,-274
8650,-23,-157,-171,145,56,-280
8655,-25,-157,-166,124,47,-286
8660,-24,-158,-170,114,39,-292
8665,-25,-159,-164,116,33,-297
8670,-26,-157,-163,121,27,-299
8675,-25,-160,-161,126,23,-304
8680,-27,-161,-161,136,23,-309
8685,-25,-161,-157,146,26,-309
8690,-28,-162,-162,160,29,-307
8695,-21,-163,-161,175,32,-303
8700,-21,-168,-161,190,37,-300
8705,-20,-165,-160,207,46,-295
8710,-21,-164,-159,227,48,-293
8715,-19,-166,-162,248,51,-288
8720,-20,-169,-160,262,56,-284
8725,-15,-164,-161,276,67,-277
8730,-12,-166,-158,286,83,-270
8735,-8,-164,-157,293,101,-265
8740,-8,-167,-157,302,118,-256
8745,-4,-169,-157,309,136,-247
8750,-2,-166,-155,317,159,-237
8755,0,-168,-155,326,184,-227
8760,3,-169,-153,338,214,-217
8765,6,-174,-149,349,247,-206
8770,9,-171,-146,365,274,-199
8775,10,-176,-142,378,298,-185
8780,9,-182,-143,385,321,-170
8785,13,-178,-138,394,341,-158
8790,15,-181,-136,405,356,-149
8795,17,-181,-137,424,371,-145
8800,16,-183,-133,440,385,-144
8805,15,-183,-133,456,397,-145
8810,18,-184,-134,470,410,-144
8815,14,-183,-130,478,425,-143
8820,13,-183,-130,495,434,-140
8825,5,-182,-133,514,444,-136
8830,4,-177,-134,525,452,-128
8835,2,-178,-132,532,452,-119
8840,-1,-178,-127,537,446,-114
8845,-5,-177,-125,555,429,-104
8850,-6,-177,-125,576,400,-92
8855,-9,-176,-127,599,366,-80
8860,-15,-171,-127,620,325,-69
8865,-14,-174,-119,634,284,-54
8870,-16,-169,-121,643,246,-32
8875,-16,-169,-118,649,210,-8
8880,-16,-166,-119,657,175,13
8885,-20,-164,-118,665,145,31
8890,-20,-165,-117,666,117,45
8895,-17,-160,-117,665,90,60
8900,-18,-159,-117,663,65,71
8905,-19,-157,-113,655,39,76
8910,-19,-157,-119,643,15,76
8915,-17,-153,-123,624,-12,73
8920,-20,-152,-119,600,-35,69
8925,-19,-154,-120,579,-58,70
8930,-20,-155,-128,559,-81,69
8935,-20,-154,-125,539,-97,62
8940,-23,-155,-127,527,-116,51
8945,-25,-155,-126,520,-132,36
8950,-26,-157,-126,518,-150,25
8955,-26,-161,-125,515,-171,11
8960,-29,-164,-129,506,-181,1
8965,-28,-166,-128,492,-186,-5
8970,-30,-171,-129,477,-189,-11
8975,-28,-176,-129,466,-187,-22
8980,-26,-177,-133,462,-173,-38
8985,-19,-182,-131,452,-152,-46
8990,-15,-184,-132,443,-121,-54
8995,-10,-181,-127,436,-82,-66
9000,0,-185,-131,424,-45,-74
9005,-3,-181,-134,411,-19,-81
9010,2,-187,-134,398,-1,-87
9015,-5,-187,-137,383,16,-99
9020,-2,-187,-137,365,23,-108
9025,2,-190,-134,341,23,-113
9030,0,-189,-135,322,22,-122
9035,1,-192,-132,302,16,-125
9040,-6,-194,-135,287,8,-123
9045,-6,-198,-131,282,-3,-116
9050,-6,-197,-136,286,-21,-105
9055,-13,-198,-131,297,-39,-97
9060,-12,-202,-131,318,-54,-89
9065,-14,-202,-136,341,-64,-84
9070,-11,-202,-135,362,-73,-80
9075,-19,-199,-142,375,-78,-80
9080,-18,-202,-145,381,-81,-77
9085,-14,-202,-142,386,-81,-70
9090,-20,-204,-144,392,-80,-61
9095,-16,-206,-148,394,-76,-57
9100,-11,-206,-153,391,-65,-59
9105,-8,-207,-154,385,-50,-68
9110,-7,-202,-150,375,-30,-83
9115,-11,-205,-155,366,-10,-93
9120,-11,-205,-153,359,9,-102
9125,-8,-206,-151,347,24,-105
9130,-10,-202,-149,330,32,-108
9135,-10,-208,-139,312,36,-112
9140,-14,-209,-141,303,34,-112
9145,-14,-213,-134,297,26,-112
9150,-15,-213,-132,293,13,-107
9155,-17,-213,-134,291,-2,-105
9160,-17,-214,-129,291,-19,-107
9165,-21,-218,-127,288,-38,-108
9170,-19,-226,-128,291,-54,-107
9175,-21,-229,-128,298,-64,-109
9180,-22,-231,-128,307,-73,-110
9185,-18,-235,-124,325,-77,-111
9190,-18,-233,-126,350,-79,-110
9195,-12,-233,-127,372,-82,-106
9200,-7,-236,-124,389,-82,-104
9205,-4,-230,-126,402,-75,-100
9210,-7,-232,-122,410,-65,-94
9215,-1,-232,-119,418,-53,-91
9220,-2,-233,-122,434,-48,-85
9225,3,-229,-124,452,-51,-77
9230,1,-226,-126,469,-55,-76
9235,-1,-222,-126,480,-57,-78
9240,0,-221,-128,490,-56,-79
9245,0,-222,-126,501,-54,-81
9250,0,-218,-130,516,-50,-84
9255,0,-219,-125,532,-40,-86
9260,-6,-214,-124,547,-32,-87
9265,0,-215,-125,563,-20,-86
9270,-1,-214,-126,577,-7,-85
9275,-1,-215,-125,597,2,-85
9280,-5,-209,-123,613,12,-84
9285,-8,-205,-124,629,22,-84
9290,-4,-206,-125,635,34,-83
9295,-5,-203,-121,635,46,-80
9300,-5,-204,-124,632,56,-82
9305,-7,-199,-124,623,63,-84
9310,-10,-199,-126,615,68,-92
9315,-9,-201,-122,601,74,-97
9320,-8,-203,-125,578,76,-104
9325,-10,-203,-126,551,78,-109
9330,-10,-207,-121,515,78,-110
9335,-9,-207,-119,485,83,-113
9340,-8,-208,-121,458,87,-117
9345,-7,-212,-119,435,91,-118
9350,-4,-215,-116,416,96,-121
9355,-10,-216,-119,404,99,-123
9360,-7,-224,-118,396,98,-123
9365,-8,-225,-120,390,95,-122
9370,-8,-229,-119,390,89,-119
9375,-8,-235,-119,395,80,-116
9380,-10,-229,-120,399,68,-110
9385,-8,-234,-117,403,56,-103
9390,-10,-237,-121,406,42,-95
9395,-6,-238,-117,408,29,-87
9400,-12,-237,-119,415,17,-81
9405,-12,-236,-118,420,4,-76
9410,-10,-236,-120,423,-8,-71
9415,-9,-233,-115,429,-19,-69
9420,-9,-233,-116,429,-29,-67
9425,-11,-226,-115,425,-34,-69
9430,-8,-226,-115,415,-38,-67
9435,-6,-225,-111,400,-40,-67
9440,-7,-221,-110,380,-42,-67
9445,-6,-222,-111,357,-44,-67
9450,-2,-216,-115,330,-47,-68
9455,-4,-217,-107,304,-51,-70
9460,-5,-214,-108,277,-53,-72
9465,-1,-214,-108,249,-56,-73
9470,-2,-209,-113,217,-59,-76
9475,-3,-213,-113,179,-60,-76
9480,0,-210,-113,136,-61,-80
9485,-2,-210,-112,93,-62,-81
9490,0,-209,-113,49,-60,-83
9495,0,-208,-108,3,-53,-84
9500,-3,-210,-108,-44,-46,-82
9505,0,-213,-107,-93,-40,-80
9510,-4,-216,-106,-135,-32,-77
9515,-4,-222,-104,-167,-24,-74
9520,1,-228,-102,-191,-18,-69
9525,0,-233,-108,-204,-11,-64
9530,-3,-239,-105,-203,-4,-57
9535,0,-240,-105,-193,1,-52
9540,-2,-238,-106,-177,3,-50
9545,-1,-243,-107,-154,3,-44
9550,0,-241,-107,-132,4,-39
9555,1,-241,-108,-111,4,-36
9560,0,-239,-105,-98,5,-32
9565,1,-240,-102,-86,5,-29
9570,-1,-238,-103,-80,7,-26
9575,0,-236,-107,-77,7,-24
9580,-1,-238,-105,-81,8,-22
9585,0,-237,-108,-85,8,-21
9590,0,-236,-106,-89,10,-18
9595,0,-235,-106,-91,11,-15
9600,0,-238,-106,-94,13,-13
9605,0,-236,-106,-95,14,-10
9610,-3,-238,-102,-97,14,-9
9615,-5,-236,-103,-99,15,-8
9620,-2,-234,-107,-101,15,-6
9625,-5,-234,-107,-108,15,-5
9630,-4,-234,-103,-116,15,-5
9635,-3,-234,-99,-125,13,-4
9640,-5,-234,-99,-137,11,-3
9645,-2,-231,-103,-147,12,-2
9650,0,-237,-100,-158,11,-1
9655,0,-239,-100,-165,12,1
9660,-1,-236,-100,-170,16,1
9665,0,-235,-97,-172,20,1
9670,-3,-236,-101,-173,23,3
9675,-3,-238,-98,-172,25,3
9680,-2,-240,-100,-169,29,5
9685,-1,-242,-100,-163,32,4
9690,-5,-245,-96,-155,34,5
9695,-2,-241,-102,-144,38,4
9700,-3,-243,-102,-133,41,4
9705,-4,-242,-100,-122,43,3
9710,-6,-241,-100,-113,45,4
9715,-1,-241,-100,-104,45,4
9720,-4,-241,-98,-97,48,4
9725,-2,-238,-101,-97,48,4
9730,0,-237,-99,-96,51,4
9735,-2,-238,-100,-97,53,4
9740,-1,-234,-96,-98,54,4
9745,-1,-237,-99,-98,53,5
9750,-1,-235,-97,-99,52,5
9755,-1,-236,-101,-99,56,5
9760,-2,-237,-99,-98,57,6
9765,0,-233,-99,-96,57,6
9770,-2,-237,-96,-95,57,5
9775,0,-238,-98,-93,55,3
9780,-2,-233,-101,-90,54,2
9785,-2,-235,-102,-86,52,2
9790,-3,-236,-103,-84,51,2
9795,-1,-237,-101,-81,51,1
9800,-2,-237,-102,-78,50,3
9805,0,-238,-101,-76,48,1
9810,-2,-237,-99,-74,46,0
9815,-3,-238,-101,-73,45,-1
9820,-2,-236,-101,-73,44,-3
9825,-1,-241,-97,-74,41,-3
9830,-3,-238,-101,-77,41,-2
9835,-7,-237,-103,-79,38,-4
9840,-2,-236,-105,-79,37,-6
9845,-4,-238,-104,-77,35,-7
9850,-6,-237,-103,-75,36,-5
9855,-2,-240,-102,-71,37,-4
9860,-1,-239,-101,-67,36,-4
9865,-2,-239,-102,-60,37,-3
9870,-1,-240,-101,-54,39,-2
9875,0,-241,-104,-48,39,-1
9880,0,-242,-102,-43,38,-1
9885,-1,-238,-103,-36,38,-1
9890,1,-241,-105,-30,37,1
9895,-2,-238,-104,-23,36,-1
9900,-1,-238,-106,-17,36,-2
9905,1,-240,-103,-13,36,-2
9910,-1,-238,-103,-8,35,-4
9915,-4,-237,-102,-6,35,-7
9920,-1,-238,-101,-5,33,-9
9925,0,-237,-103,-3,33,-12
9930,-5,-235,-105,-3,35,-14
9935,0,-235,-101,-3,34,-16
9940,0,-237,-101,-2,35,-17
9945,0,-233,-101,-1,37,-19
9950,0,-236,-103,-1,37,-20
9955,0,-234,-102,0,37,-19
9960,-2,-236,-100,2,36,-17
9965,-1,-237,-103,2,35,-15
9970,0,-236,-105,3,34,-13
9975,0,-237,-104,5,33,-13
9980,-3,-234,-103,6,31,-11
9985,-2,-236,-104,7,31,-10
9990,-1,-236,-105,7,29,-9
9995,1,-236,-106,9,29,-10
10000,-3,-236,-104,9,28,-10
10005,0,-237,-103,9,27,-10
10010,0,-236,-106,9,28,-9
10015,-1,-235,-105,8,27,-9
10020,-2,-237,-105,8,28,-9
10025,-4,-236,-107,8,28,-8
10030,-5,-235,-105,8,27,-9
10035,-5,-234,-104,10,25,-10
10040,-2,-237,-102,10,22,-9
10045,-2,-234,-102,10,19,-11
10050,-1,-237,-108,9,16,-11
10055,-3,-235,-107,10,11,-13
10060,-5,-238,-107,12,7,-15
10065,-5,-235,-104,14,3,-17
10070,-5,-237,-108,16,2,-20
10075,-6,-234,-108,17,1,-22
10080,-3,-234,-103,18,2,-24
10085,-5,-234,-107,19,2,-24
10090,-4,-234,-109,20,2,-24
10095,-5,-231,-106,19,3,-25
10100,-4,-234,-108,16,4,-25
10105,-2,-235,-108,12,3,-27
10110,-8,-235,-109,7,2,-26
10115,-4,-234,-108,3,2,-27
10120,-3,-236,-107,0,0,-26
10125,-3,-233,-110,-2,-1,-26
10130,-2,-235,-107,-2,-1,-27
10135,1,-240,-107,0,-2,-27
10140,-1,-234,-105,6,-2,-28
10145,-2,-235,-108,9,-2,-29
10150,-1,-232,-107,11,-1,-31
10155,-1,-232,-106,14,1,-31
10160,-2,-233,-106,16,1,-34
10165,-2,-233,-105,18,3,-34
10170,-1,-231,-104,18,6,-34
10175,-2,-231,-104,19,8,-33
10180,-3,-230,-106,19,11,-33
10185,-2,-230,-104,19,14,-32
10190,-2,-231,-106,18,16,-30
10195,-4,-230,-104,16,19,-29
10200,-3,-232,-105,14,19,-29
10205,-3,-233,-105,12,22,-27
10210,-7,-229,-104,8,25,-27
10215,-3,-233,-103,6,27,-26
10220,-2,-233,-105,2,27,-26
10225,-3,-235,-104,2,28,-25
10230,-6,-234,-102,1,27,-25
10235,-4,-234,-107,2,26,-25
10240,-7,-230,-103,4,27,-24
10245,-1,-238,-104,5,27,-25
10250,-4,-235,-103,4,27,-25
10255,-5,-233,-103,4,28,-25
10260,-4,-234,-102,4,31,-23
10265,-1,-233,-104,6,31,-23
10270,0,-235,-103,7,32,-21
10275,-2,-234,-103,6,34,-20
10280,-3,-233,-106,6,35,-20
10285,-2,-234,-101,7,36,-20
10290,-3,-234,-103,7,38,-18
10295,0,-233,-108,8,41,-17
10300,-3,-235,-110,8,44,-16
10305,-3,-232,-106,8,46,-16
10310,-2,-231,-107,7,47,-15
10315,-1,-235,-105,5,48,-14
10320,-6,-236,-104,3,50,-15
10325,-4,-233,-105,-1,50,-15
10330,-7,-228,-108,-5,51,-15
10335,-2,-232,-103,-8,52,-13
10340,-1,-230,-107,-13,54,-13
10345,-3,-236,-103,-16,56,-12
10350,-3,-233,-103,-20,57,-11
10355,-1,-232,-102,-23,58,-9
10360,0,-235,-106,-24,60,-8
10365,-3,-235,-105,-24,60,-7
10370,-6,-234,-102,-24,63,-5
10375,-1,-236,-107,-23,65,-4
10380,-2,-237,-100,-24,65,-2
10385,2,-234,-99,-23,68,-2
10390,0,-229,-107,-23,69,1
10395,-3,-237,-98,-23,72,2
10400,-1,-232,-100,-25,75,2
10405,4,-237,-105,-25,76,3
10410,-1,-237,-100,-24,79,3
10415,-6,-226,-106,-23,82,1
10420,-8,-239,-105,-22,83,2
10425,-7,-245,-90,-24,85,3
10430,-2,-231,-85,-23,87,1
10435,-1,-232,-94,-25,90,2
10440,-7,-236,-101,-26,95,1
10445,-4,-240,-92,-27,99,2
10450,-6,-238,-106,-29,101,2
10455,0,-234,-103,-31,105,3
10460,6,-238,-88,-35,107,4
10465,-8,-229,-102,-37,109,6
10470,-4,-241,-101,-39,110,7
10475,-2,-241,-102,-38,109,8
10480,1,-241,-109,-37,105,10
10485,2,-246,-92,-32,104,12
10490,-4,-247,-105,-29,103,13
10495,-5,-244,-96,-22,101,15
10500,-7,-248,-98,-16,100,14
10505,3,-229,-90,-9,98,13
10510,-1,-245,-107,-3,96,14
10515,-3,-242,-102,3,97,11
10520,-2,-240,-102,9,99,12
10525,-3,-238,-102,14,99,13
10530,-4,-238,-105,16,102,11
10535,0,-225,-96,17,106,11
10540,-1,-227,-113,15,108,11
10545,-1,-234,-106,12,109,13
10550,4,-229,-111,10,113,13
10555,0,-235,-88,7,113,13
10560,6,-233,-119,4,117,13
10565,4,-228,-100,1,119,14
10570,-6,-229,-106,-1,122,15
10575,-6,-240,-101,-4,123,13
10580,4,-236,-101,-7,125,13
10585,2,-244,-105,-11,129,13
10590,4,-236,-101,-16,131,14
10595,-8,-244,-89,-21,132,13
10600,-5,-242,-99,-25,133,13
10605,-11,-240,-97,-28,135,12
10610,-1,-234,-99,-28,134,10
10615,-3,-240,-106,-30,135,10
10620,-9,-243,-97,-29,136,9
10625,6,-236,-108,-28,136,9
10630,1,-243,-116,-28,138,9
10635,7,-234,-114,-29,138,6
10640,-2,-243,-82,-32,141,5
10645,-2,-233,-114,-36,142,5
10650,8,-232,-114,-39,143,4
10655,2,-238,-110,-41,144,5
10660,3,-236,-113,-42,144,5
10665,5,-234,-109,-44,144,5
10670,2,-239,-109,-47,145,6
10675,0,-233,-109,-49,149,6
10680,-1,-234,-106,-52,152,7
10685,4,-235,-111,-54,156,7
10690,1,-236,-107,-54,159,8
10695,0,-232,-113,-54,163,8
10700,12,-232,-113,-54,168,9
10705,2,-236,-108,-53,171,10
10710,0,-225,-110,-53,174,11
10715,0,-234,-105,-55,175,13
10720,2,-227,-107,-57,178,13
10725,4,-232,-114,-59,181,15
10730,3,-235,-110,-60,181,17
10735,7,-231,-109,-60,181,19
10740,-2,-232,-110,-60,184,23
10745,14,-231,-125,-58,185,24
10750,-5,-231,-122,-57,186,25
10755,4,-230,-115,-54,185,27
10760,1,-236,-105,-52,187,28
10765,-5,-230,-111,-49,187,30
10770,-1,-231,-107,-47,189,31
10775,2,-226,-116,-45,189,33
10780,4,-244,-98,-44,188,32
10785,4,-227,-98,-46,184,31
10790,-12,-223,-90,-49,183,31
10795,4,-212,-108,-50,181,31
10800,2,-224,-113,-53,178,33
10805,-3,-229,-126,-54,176,32
10810,3,-230,-108,-58,175,34
10815,-1,-224,-116,-59,173,34
10820,-1,-223,-117,-62,171,33
10825,5,-218,-117,-66,168,34
10830,-2,-228,-112,-70,167,36
10835,-1,-225,-112,-76,165,37
10840,2,-223,-113,-81,162,38
10845,0,-224,-113,-87,159,40
10850,1,-226,-115,-91,156,40
10855,5,-222,-120,-96,154,41
10860,-8,-222,-116,-100,149,41
10865,-4,-227,-105,-101,148,42
10870,6,-219,-123,-103,143,43
10875,2,-230,-113,-104,141,43
10880,0,-228,-120,-104,137,43
10885,5,-227,-119,-102,135,42
10890,2,-224,-117,-100,129,41
10895,2,-226,-123,-98,127,39
10900,6,-218,-119,-97,124,38
10905,-6,-241,-112,-95,124,36
10910,-3,-226,-116,-97,124,35
10915,-12,-235,-102,-100,124,34
10920,-4,-223,-114,-103,120,31
10925,-1,-234,-115,-107,119,29
10930,2,-224,-106,-109,116,26
10935,-3,-221,-116,-112,118,27
10940,-1,-230,-114,-115,118,27
10945,1,-222,-118,-116,117,28
10950,1,-224,-120,-117,118,27
10955,-2,-224,-111,-117,118,29
10960,-2,-222,-117,-115,117,33
10965,-7,-219,-128,-114,115,34
10970,-5,-224,-123,-112,111,36
10975,-7,-219,-106,-112,107,40
10980,-3,-228,-125,-113,102,44
10985,-6,-236,-116,-117,98,49
10990,-10,-223,-110,-122,96,55
10995,-10,-221,-117,-125,92,60
11000,-11,-219,-120,-129,87,70
11005,-16,-219,-112,-134,81,80
11010,-14,-219,-114,-142,72,89
11015,-22,-214,-103,-151,60,98
11020,-16,-215,-116,-158,45,107
11025,-26,-219,-110,-166,28,116
11030,-22,-219,-119,-171,8,125
11035,-41,-222,-107,-173,-12,134
11040,-22,-223,-103,-175,-31,142
11045,-31,-210,-109,-178,-51,148
11050,-28,-216,-113,-183,-69,155
11055,-34,-217,-110,-190,-85,161
11060,-35,-207,-119,-199,-102,165
11065,-37,-219,-109,-212,-117,169
11070,-35,-214,-108,-227,-134,172
11075,-41,-216,-104,-244,-151,174
11080,-39,-211,-121,-261,-166,175
11085,-36,-207,-123,-273,-179,175
11090,-36,-225,-106,-289,-190,174
11095,-34,-233,-108,-305,-196,173
11100,-44,-243,-99,-316,-201,170
11105,-21,-237,-119,-321,-202,167
11110,-23,-229,-98,-322,-201,163
11115,-24,-244,-110,-317,-200,160
11120,-25,-249,-106,-306,-194,154
11125,-26,-262,-96,-288,-188,148
11130,-19,-254,-89,-265,-179,142
11135,-20,-261,-104,-238,-163,139
11140,-15,-261,-99,-211,-143,138
11145,-11,-263,-98,-184,-121,137
11150,-8,-267,-97,-160,-94,137
11155,-2,-267,-94,-138,-62,139
11160,-1,-266,-96,-118,-32,138
11165,0,-268,-103,-106,-1,143
11170,14,-269,-106,-98,31,149
11175,7,-269,-90,-89,61,150
11180,3,-272,-90,-73,89,147
11185,2,-269,-97,-54,110,142
11190,-5,-265,-98,-35,122,140
11195,-18,-283,-85,-17,126,141
11200,-10,-263,-97,3,126,142
11205,-2,-261,-91,23,125,142
11210,-15,-255,-98,40,130,139
11215,-16,-254,-97,55,143,133
11220,-10,-238,-120,68,165,120
11225,-21,-236,-95,76,184,106
11230,-26,-233,-97,80,199,89
11235,-30,-236,-85,80,211,72
11240,-32,-225,-92,74,217,56
11245,-19,-225,-92,68,222,39
11250,-28,-218,-88,63,224,26
11255,-35,-221,-71,60,226,15
11260,-22,-227,-74,59,229,0
11265,-26,-227,-74,62,231,-14
11270,-39,-226,-73,65,234,-30
11275,-43,-222,-75,66,234,-47
11280,-38,-228,-78,63,234,-64
11285,-22,-212,-97,53,233,-81
11290,-35,-226,-93,41,232,-97
11295,-31,-228,-101,28,232,-111
11300,-28,-228,-104,18,236,-126
11305,-30,-233,-107,10,243,-140
11310,-28,-237,-108,6,252,-151
11315,-26,-238,-108,6,260,-159
11320,-29,-242,-109,7,266,-169
11325,-16,-238,-127,9,267,-174
11330,-23,-243,-114,9,266,-177
11335,-29,-239,-115,11,264,-178
11340,-26,-240,-116,11,257,-173
11345,-32,-243,-118,14,248,-164
11350,-32,-243,-124,16,238,-152
11355,-30,-247,-125,21,227,-136
11360,-35,-245,-124,25,216,-121
11365,-33,-244,-124,31,200,-105
11370,-37,-247,-121,39,182,-97
11375,-34,-241,-120,47,166,-86
11380,-33,-241,-122,55,146,-75
11385,-33,-237,-123,61,128,-67
11390,-29,-232,-120,67,108,-59
11395,-32,-226,-122,70,91,-54
11400,-28,-225,-115,69,78,-50
11405,-28,-219,-118,64,72,-47
11410,-28,-233,-112,57,68,-49
11415,-24,-213,-114,47,69,-50
11420,-16,-217,-112,38,73,-53
11425,-13,-213,-111,28,80,-60
11430,-13,-211,-111,17,90,-66
11435,-12,-210,-112,8,103,-69
11440,-7,-210,-114,1,114,-73
11445,-8,-210,-113,-1,125,-77
11450,-1,-212,-118,-4,135,-79
11455,-4,-210,-118,-5,146,-79
11460,0,-210,-115,-4,156,-78
11465,0,-216,-121,-3,165,-76
11470,-2,-216,-126,-1,176,-74
11475,-2,-219,-124,2,184,-70
11480,1,-222,-128,5,191,-63
11485,1,-216,-126,9,195,-59
11490,1,-223,-126,13,199,-55
11495,0,-223,-130,14,201,-48
11500,0,-227,-129,15,203,-44
11505,-5,-231,-126,14,202,-39
11510,-1,-224,-128,15,200,-36
11515,-3,-218,-129,15,197,-35
11520,0,-221,-129,11,190,-37
11525,1,-217,-129,3,183,-41
11530,2,-213,-132,-11,175,-49
11535,2,-212,-134,-34,167,-58
11540,2,-205,-132,-64,159,-72
11545,6,-200,-134,-100,152,-89
11550,9,-201,-138,-144,149,-106
11555,11,-197,-130,-188,152,-122
11560,15,-196,-134,-231,158,-139
11565,18,-196,-131,-271,172,-155
11570,21,-198,-129,-307,191,-168
11575,25,-199,-125,-337,214,-182
11580,20,-200,-126,-360,236,-194
11585,23,-205,-126,-374,252,-205
11590,24,-211,-124,-378,266,-212
11595,27,-212,-119,-376,272,-215
11600,21,-220,-119,-364,276,-216
11605,19,-223,-113,-344,277,-215
11610,17,-232,-113,-320,274,-214
11615,16,-235,-110,-297,265,-210
11620,10,-241,-106,-266,251,-206
11625,11,-248,-106,-233,239,-204
11630,6,-246,-102,-198,220,-198
11635,5,-249,-106,-165,201,-199
11640,6,-252,-105,-136,178,-199
11645,2,-252,-105,-114,159,-198
11650,1,-255,-106,-97,140,-199
11655,5,-256,-106,-83,125,-200
11660,2,-257,-106,-70,111,-200
11665,4,-256,-107,-56,98,-197
11670,4,-254,-101,-39,84,-195
11675,0,-256,-109,-20,66,-188
11680,1,-255,-107,-4,47,-181
11685,4,-256,-103,13,23,-175
11690,4,-252,-106,30,1,-169
11695,7,-250,-110,45,-20,-161
11700,10,-248,-101,61,-41,-153
11705,9,-248,-103,77,-60,-146
11710,15,-245,-104,94,-75,-138
11715,13,-241,-101,110,-92,-132
11720,9,-242,-101,127,-108,-125
11725,12,-235,-102,139,-121,-118
11730,14,-238,-103,146,-131,-113
11735,19,-235,-106,148,-137,-106
11740,20,-237,-107,148,-141,-98
11745,22,-234,-106,146,-143,-91
11750,23,-232,-116,141,-142,-85
11755,26,-228,-106,135,-138,-77
11760,26,-229,-112,127,-135,-67
11765,24,-231,-108,125,-129,-57
11770,25,-234,-107,125,-122,-46
11775,22,-236,-107,132,-113,-34
11780,17,-237,-106,142,-104,-21
11785,18,-236,-102,153,-98,-9
11790,20,-232,-104,162,-93,8
11795,26,-227,-117,167,-85,28
11800,24,-223,-113,163,-76,51
11805,28,-219,-111,156,-59,75
11810,33,-221,-114,148,-42,101
11815,33,-218,-116,142,-28,124
11820,25,-221,-115,138,-23,142
11825,25,-224,-117,138,-30,155
11830,22,-224,-114,140,-45,163
11835,20,-227,-113,144,-65,166
11840,17,-229,-112,149,-85,165
11845,16,-233,-110,153,-100,162
11850,12,-235,-116,158,-104,158
11855,12,-230,-118,160,-101,152
11860,12,-234,-121,161,-90,143
11865,13,-237,-124,160,-76,131
11870,9,-235,-124,161,-55,119
11875,11,-235,-124,162,-31,104
11880,6,-235,-124,158,-15,90
11885,6,-230,-124,154,3,76
11890,7,-230,-127,147,22,65
11895,9,-229,-127,139,38,53
11900,11,-227,-125,132,54,43
11905,14,-227,-125,126,67,35
11910,12,-224,-126,119,77,28
11915,12,-222,-125,113,82,22
11920,10,-219,-127,105,81,18
11925,14,-219,-120,95,77,14
11930,13,-217,-118,85,69,11
11935,9,-217,-118,76,58,9
11940,8,-216,-119,67,45,10
11945,5,-217,-110,56,29,15
11950,13,-220,-116,66,16,19
11955,10,-218,-122,75,5,18
11960,7,-217,-120,69,-6,19
11965,5,-214,-119,61,-8,19
11970,1,-214,-118,52,-8,18
11975,2,-219,-113,43,-12,20
11980,0,-220,-122,28,-15,21
11985,-2,-223,-117,13,-16,23
11990,-2,-224,-115,5,-17,26
11995,-6,-227,-111,1,-16,27
