timestamp,acc_x,acc_y,acc_z,gyro_x,gyro_y,gyro_z
0,34,-245,22,47,-147,17
5,35,-245,26,37,-141,16
10,36,-241,25,30,-136,17
15,37,-243,24,26,-128,15
20,38,-245,23,24,-123,13
25,36,-244,22,26,-117,14
30,41,-244,24,30,-109,10
35,37,-246,19,35,-101,9
40,37,-246,18,40,-94,7
45,37,-242,26,48,-86,7
50,38,-247,21,52,-80,4
55,37,-244,21,53,-74,3
60,41,-247,22,56,-70,0
65,40,-245,19,56,-63,-2
70,37,-246,27,55,-58,-4
75,42,-245,19,53,-51,-5
80,41,-245,24,49,-45,-7
85,39,-242,21,46,-40,-8
90,39,-245,22,43,-32,-8
95,41,-248,24,40,-22,-8
100,39,-246,24,38,-14,-9
105,42,-248,26,38,-6,-10
110,41,-245,23,43,2,-9
115,41,-247,22,44,8,-10
120,39,-247,26,49,16,-12
125,33,-245,25,55,21,-13
130,39,-250,24,63,26,-13
135,39,-247,23,70,31,-12
140,37,-244,24,74,37,-14
145,40,-243,25,77,41,-14
150,37,-243,24,77,44,-15
155,39,-247,25,77,47,-15
160,38,-247,26,69,51,-16
165,34,-246,21,62,53,-18
170,35,-245,19,54,56,-17
175,34,-244,21,49,59,-17
180,36,-245,22,45,63,-20
185,34,-248,25,41,64,-19
190,34,-244,23,40,69,-21
195,32,-248,24,40,73,-22
200,32,-242,24,40,75,-23
205,32,-244,21,40,77,-23
210,33,-245,25,41,80,-22
215,31,-246,23,43,83,-23
220,32,-247,26,47,84,-23
225,30,-244,21,50,83,-25
230,30,-245,22,52,83,-25
235,31,-243,23,54,84,-27
240,31,-245,22,54,83,-25
245,29,-246,22,54,81,-23
250,28,-243,24,50,80,-25
255,28,-244,24,47,78,-25
260,31,-246,23,42,75,-26
265,31,-242,25,39,72,-27
270,31,-243,27,33,69,-25
275,32,-242,23,29,66,-25
280,28,-242,20,25,63,-24
285,29,-245,23,22,59,-21
290,30,-247,21,19,56,-21
295,30,-245,22,18,54,-21
300,31,-247,22,18,53,-21
305,34,-248,23,19,51,-20
310,31,-245,22,20,48,-18
315,29,-248,20,22,47,-16
320,30,-244,19,20,44,-15
325,33,-248,18,21,43,-15
330,35,-245,21,24,42,-15
335,31,-248,24,25,40,-15
340,30,-249,24,27,39,-15
345,30,-245,24,28,36,-15
350,30,-243,23,30,36,-15
355,31,-248,23,33,36,-15
360,32,-245,21,34,36,-16
365,31,-247,21,37,37,-18
370,34,-246,23,41,38,-20
375,31,-244,22,42,39,-24
380,31,-243,20,44,39,-22
385,34,-247,21,46,38,-22
390,32,-248,20,46,39,-21
395,32,-246,22,46,39,-20
400,31,-244,20,46,39,-20
405,36,-247,19,47,38,-20
410,30,-244,23,48,37,-20
415,29,-245,23,50,37,-19
420,34,-247,22,51,35,-18
425,30,-246,21,53,35,-18
430,33,-246,21,56,33,-19
435,34,-246,24,58,32,-20
440,32,-247,18,58,32,-19
445,31,-246,24,59,32,-20
450,31,-249,20,59,30,-19
455,31,-244,19,58,30,-20
460,32,-245,22,58,29,-19
465,32,-246,21,57,29,-19
470,33,-245,21,56,29,-19
475,31,-246,19,57,28,-18
480,29,-246,22,58,28,-18
485,34,-246,21,58,28,-19
490,33,-247,23,60,26,-16
495,34,-249,16,62,25,-16
500,30,-245,21,64,23,-17
505,30,-243,18,66,22,-16
510,32,-247,22,68,22,-15
515,32,-248,19,68,21,-13
520,32,-247,23,69,20,-14
525,31,-246,20,70,20,-14
530,30,-247,20,70,18,-15
535,30,-246,20,70,17,-15
540,31,-246,21,69,14,-13
545,31,-247,19,67,12,-15
550,30,-246,25,68,12,-15
555,33,-244,20,66,7,-15
560,31,-246,21,67,6,-14
565,33,-248,20,66,6,-14
570,31,-244,23,67,5,-15
575,30,-246,18,68,4,-13
580,33,-244,21,68,4,-12
585,32,-250,18,67,4,-13
590,31,-244,17,66,3,-13
595,34,-246,24,64,3,-14
600,31,-244,22,62,3,-14
605,33,-247,23,61,3,-14
610,34,-246,23,61,2,-13
615,33,-243,18,59,2,-12
620,33,-245,22,58,-2,-12
625,33,-246,21,59,-4,-12
630,33,-245,23,59,-5,-12
635,31,-246,20,63,-7,-10
640,37,-246,19,64,-8,-11
645,32,-246,19,64,-6,-9
650,32,-247,19,66,-7,-9
655,36,-247,22,68,-5,-10
660,34,-246,21,69,-3,-8
665,33,-247,20,70,0,-10
670,36,-245,23,68,2,-11
675,35,-245,20,66,5,-13
680,31,-247,20,64,9,-14
685,33,-246,23,66,12,-15
690,33,-248,23,68,14,-17
695,35,-246,23,69,16,-18
700,32,-246,21,71,17,-18
705,35,-248,23,74,16,-20
710,37,-247,21,75,15,-18
715,34,-247,21,77,13,-16
720,34,-247,22,79,12,-16
725,35,-249,25,78,11,-14
730,34,-244,25,79,11,-13
735,32,-245,21,78,10,-10
740,35,-248,27,78,8,-10
745,31,-242,25,77,8,-10
750,39,-248,23,79,8,-10
755,37,-247,23,78,9,-12
760,36,-243,24,77,10,-12
765,32,-249,21,74,12,-12
770,32,-243,23,72,12,-13
775,34,-245,22,68,14,-15
780,36,-245,24,65,15,-16
785,35,-248,22,63,14,-17
790,34,-243,20,59,16,-17
795,33,-242,20,56,15,-16
800,35,-242,23,54,12,-15
805,34,-248,24,55,12,-13
810,34,-248,21,54,12,-15
815,35,-248,24,55,10,-14
820,32,-247,25,57,11,-14
825,32,-246,24,64,12,-14
830,35,-248,22,71,15,-14
835,32,-249,24,78,17,-15
840,32,-246,25,86,19,-14
845,32,-247,21,94,21,-16
850,33,-249,25,99,23,-17
855,35,-246,24,102,24,-17
860,33,-245,22,106,24,-16
865,35,-247,23,104,24,-16
870,32,-242,21,100,24,-17
875,33,-246,23,96,23,-15
880,37,-245,25,91,22,-17
885,37,-249,26,88,19,-15
890,33,-244,24,84,19,-16
895,31,-245,25,80,18,-14
900,32,-246,26,79,16,-15
905,37,-244,20,79,16,-13
910,33,-247,22,81,17,-12
915,33,-244,23,83,17,-12
920,33,-248,17,87,16,-13
925,32,-246,20,91,16,-13
930,33,-246,23,93,18,-13
935,33,-247,23,96,19,-13
940,32,-247,30,98,21,-13
945,31,-245,25,100,22,-12
950,33,-248,24,101,22,-13
955,31,-245,24,101,22,-15
960,32,-246,24,102,23,-15
965,33,-246,26,102,22,-14
970,30,-244,26,103,20,-13
975,35,-247,24,104,20,-13
980,35,-241,18,104,20,-14
985,32,-244,21,102,18,-13
990,37,-243,28,102,17,-13
995,35,-244,23,101,16,-14
1000,33,-244,26,100,15,-13
1005,35,-245,24,101,14,-12
1010,32,-241,25,98,12,-11
1015,35,-245,29,94,12,-12
1020,36,-245,28,91,13,-12
1025,34,-243,26,88,13,-13
1030,35,-253,29,84,14,-12
1035,33,-242,28,82,14,-14
1040,32,-246,27,82,15,-13
1045,34,-248,27,84,16,-14
1050,31,-245,27,85,16,-13
1055,33,-246,29,89,15,-14
1060,36,-247,30,93,17,-13
1065,33,-244,32,95,17,-15
1070,34,-245,23,95,18,-13
1075,31,-243,24,96,17,-15
1080,32,-244,27,94,15,-15
1085,35,-244,25,89,13,-14
1090,34,-244,25,84,10,-13
1095,32,-245,23,79,9,-14
1100,35,-242,23,75,8,-12
1105,33,-245,22,71,8,-11
1110,33,-243,24,69,10,-10
1115,33,-245,28,67,10,-10
1120,31,-245,27,67,11,-9
1125,34,-245,28,67,11,-9
1130,33,-245,26,68,12,-9
1135,33,-245,26,68,12,-10
1140,33,-245,30,67,12,-11
1145,32,-247,30,68,14,-11
1150,33,-246,24,69,16,-12
1155,32,-246,28,71,17,-13
1160,35,-247,25,73,17,-14
1165,35,-248,30,75,19,-16
1170,36,-245,26,77,18,-15
1175,35,-244,27,79,19,-14
1180,33,-244,25,78,19,-14
1185,35,-247,28,79,17,-15
1190,33,-247,28,78,15,-16
1195,34,-245,27,77,14,-16
1200,32,-243,30,75,14,-14
1205,32,-246,33,73,13,-15
1210,33,-243,29,71,11,-15
1215,34,-245,26,71,10,-14
1220,33,-246,26,69,10,-13
1225,31,-244,26,68,8,-13
1230,36,-247,26,67,8,-11
1235,34,-248,23,68,9,-9
1240,31,-245,27,69,8,-9
1245,31,-247,27,69,8,-9
1250,34,-249,24,69,8,-10
1255,32,-247,27,71,8,-9
1260,33,-247,26,72,11,-8
1265,33,-247,24,73,11,-8
1270,31,-245,24,74,12,-10
1275,35,-248,29,74,14,-10
1280,35,-245,27,74,15,-12
1285,33,-246,28,73,16,-12
1290,35,-246,27,74,17,-13
1295,31,-246,28,76,18,-14
1300,32,-244,28,78,16,-14
1305,33,-245,26,80,17,-14
1310,35,-245,29,81,16,-12
1315,36,-245,28,83,15,-14
1320,32,-245,28,84,14,-13
1325,34,-246,26,83,13,-11
1330,35,-244,29,81,12,-13
1335,33,-242,32,79,13,-11
1340,36,-244,22,76,11,-11
1345,32,-244,33,73,13,-11
1350,34,-244,30,71,15,-12
1355,33,-246,26,69,17,-11
1360,32,-241,29,69,19,-11
1365,34,-247,27,70,19,-13
1370,33,-241,26,71,17,-12
1375,35,-246,29,72,17,-12
1380,35,-249,30,76,17,-11
1385,34,-249,27,78,18,-12
1390,34,-246,26,79,17,-11
1395,32,-248,28,80,16,-10
1400,35,-245,29,81,16,-8
1405,34,-231,29,82,15,-11
1410,34,-247,28,82,16,-12
1415,33,-246,27,82,17,-9
1420,34,-244,28,81,17,-11
1425,32,-243,31,81,17,-10
1430,35,-246,27,78,16,-9
1435,33,-243,27,78,16,-11
1440,32,-242,28,76,15,-11
1445,37,-246,30,75,15,-11
1450,32,-248,29,76,15,-12
1455,36,-244,27,76,13,-11
1460,34,-244,30,77,13,-11
1465,34,-243,29,75,13,-12
1470,33,-244,28,73,12,-12
1475,34,-242,30,74,13,-9
1480,32,-243,28,73,12,-10
1485,36,-244,28,73,12,-11
1490,32,-246,29,71,13,-10
1495,31,-245,28,72,11,-10
1500,29,-246,27,73,12,-9
1505,33,-245,28,73,12,-8
1510,32,-245,30,74,11,-9
1515,33,-245,28,75,11,-8
1520,34,-243,25,76,12,-9
1525,34,-245,26,76,13,-10
1530,30,-243,27,76,12,-10
1535,35,-246,27,74,12,-12
1540,33,-245,27,74,13,-12
1545,33,-247,29,72,12,-13
1550,33,-243,32,72,11,-13
1555,34,-247,28,72,11,-12
1560,32,-242,31,71,10,-12
1565,33,-245,25,71,8,-11
1570,33,-244,31,70,8,-10
1575,32,-245,28,69,7,-10
1580,32,-245,31,69,7,-8
1585,35,-244,30,70,6,-6
1590,33,-245,30,72,6,-5
1595,37,-244,29,73,7,-4
1600,34,-245,28,72,8,-6
1605,33,-247,28,73,10,-5
1610,35,-247,31,73,14,-5
1615,35,-246,29,73,16,-8
1620,33,-247,30,73,21,-9
1625,33,-250,32,75,23,-10
1630,33,-244,31,75,24,-12
1635,33,-246,29,75,25,-14
1640,32,-244,35,74,25,-14
1645,32,-245,25,74,25,-15
1650,34,-244,26,75,25,-16
1655,34,-243,31,76,25,-16
1660,34,-242,28,76,23,-15
1665,34,-246,28,74,20,-12
1670,29,-241,30,73,17,-12
1675,35,-243,32,72,15,-11
1680,32,-246,31,72,13,-12
1685,35,-246,30,72,14,-10
1690,31,-242,31,73,13,-9
1695,35,-244,30,73,11,-9
1700,33,-244,24,73,12,-9
1705,34,-243,29,71,12,-9
1710,34,-244,31,68,11,-11
1715,31,-242,25,65,10,-10
1720,30,-242,31,61,10,-11
1725,33,-241,28,58,10,-10
1730,33,-246,28,57,9,-10
1735,33,-244,32,55,10,-11
1740,32,-246,28,58,11,-11
1745,31,-246,30,59,11,-10
1750,33,-247,33,62,12,-10
1755,34,-248,33,66,10,-10
1760,35,-246,31,70,10,-11
1765,33,-249,30,72,10,-11
1770,33,-247,33,75,10,-10
1775,33,-248,34,76,12,-12
1780,30,-235,43,77,13,-12
1785,33,-242,27,78,14,-11
1790,33,-244,33,79,16,-12
1795,33,-245,30,80,18,-13
1800,32,-245,27,79,18,-14
1805,36,-244,31,78,19,-15
1810,32,-243,28,76,18,-14
1815,37,-247,29,75,17,-12
1820,33,-244,30,74,15,-11
1825,31,-247,28,71,13,-11
1830,34,-244,29,72,12,-11
1835,33,-244,27,68,10,-10
1840,33,-245,32,70,10,-10
1845,34,-246,30,70,8,-10
1850,35,-244,32,69,8,-8
1855,33,-244,29,70,7,-6
1860,32,-245,30,70,8,-7
1865,34,-247,30,73,9,-9
1870,32,-245,30,74,13,-9
1875,33,-244,31,75,14,-8
1880,32,-246,29,77,14,-9
1885,32,-245,32,79,15,-9
1890,32,-244,29,81,17,-10
1895,31,-245,32,83,18,-12
1900,34,-245,32,83,18,-12
1905,35,-244,30,84,18,-9
1910,35,-243,29,85,15,-11
1915,33,-247,31,83,15,-12
1920,34,-243,32,84,13,-11
1925,33,-245,30,83,12,-10
1930,36,-243,33,84,12,-11
1935,34,-244,32,82,13,-11
1940,34,-245,30,81,12,-9
1945,34,-243,33,80,11,-8
1950,33,-243,30,81,11,-9
1955,34,-246,27,80,11,-9
1960,32,-245,31,80,10,-9
1965,34,-247,30,80,10,-8
1970,34,-244,31,78,9,-10
1975,32,-246,33,76,9,-9
1980,35,-245,32,74,8,-9
1985,33,-245,31,74,8,-9
1990,32,-246,32,71,8,-9
1995,34,-243,32,72,8,-9
2000,31,-241,35,70,9,-9
2005,30,-241,29,69,9,-8
2010,36,-245,31,67,10,-11
2015,32,-242,30,66,9,-11
2020,34,-244,33,63,8,-10
2025,30,-244,30,58,8,-9
2030,31,-239,32,56,8,-9
2035,35,-245,28,54,8,-9
2040,33,-243,30,52,6,-9
2045,32,-243,32,51,5,-8
2050,34,-247,31,51,3,-7
2055,30,-243,30,53,2,-7
2060,32,-245,33,54,-1,-5
2065,34,-244,31,55,-1,-6
2070,33,-245,32,57,1,-7
2075,33,-247,32,59,1,-8
2080,32,-246,36,60,2,-6
2085,33,-244,33,63,4,-7
2090,33,-244,32,65,6,-7
2095,36,-246,33,68,7,-9
2100,33,-244,35,72,10,-10
2105,32,-247,32,74,11,-11
2110,34,-247,36,74,13,-12
2115,34,-244,33,76,14,-12
2120,33,-241,30,78,15,-12
2125,32,-244,31,78,14,-12
2130,32,-245,33,76,13,-11
2135,34,-244,29,73,13,-11
2140,28,-243,32,70,14,-10
2145,32,-244,32,68,12,-11
2150,32,-242,33,65,12,-11
2155,31,-244,32,63,12,-11
2160,35,-242,36,61,9,-10
2165,32,-243,36,59,9,-10
2170,33,-243,36,58,8,-11
2175,35,-245,34,56,8,-9
2180,34,-243,31,54,10,-9
2185,33,-244,33,53,10,-9
2190,33,-247,33,52,11,-9
2195,31,-246,32,50,11,-10
2200,32,-247,33,49,12,-11
2205,36,-244,35,47,13,-10
2210,34,-245,30,47,14,-10
2215,32,-245,30,47,14,-13
2220,31,-245,34,47,15,-12
2225,33,-247,34,46,16,-14
2230,33,-244,33,46,18,-14
2235,34,-244,32,48,19,-15
2240,34,-246,32,48,20,-16
2245,32,-247,34,47,20,-14
2250,36,-245,31,49,18,-16
2255,31,-245,30,50,19,-14
2260,35,-247,35,51,18,-12
2265,33,-246,34,51,18,-13
2270,34,-244,30,53,16,-14
2275,32,-247,34,53,15,-13
2280,33,-245,30,54,13,-10
2285,35,-247,35,56,12,-9
2290,34,-245,34,58,12,-10
2295,29,-244,31,59,13,-11
2300,34,-245,33,60,13,-11
2305,36,-249,32,60,12,-10
2310,33,-243,31,61,11,-10
2315,31,-246,31,60,13,-10
2320,33,-244,32,61,13,-11
2325,32,-245,34,61,14,-12
2330,35,-245,35,59,13,-13
2335,33,-244,30,58,14,-12
2340,33,-244,33,56,14,-12
2345,32,-243,32,55,14,-12
2350,30,-244,32,52,14,-14
2355,35,-243,33,51,14,-13
2360,35,-246,32,50,13,-14
2365,32,-242,33,47,13,-12
2370,31,-244,35,47,11,-12
2375,37,-245,33,47,9,-14
2380,34,-246,32,46,10,-13
2385,33,-243,33,47,9,-12
2390,33,-244,31,46,7,-13
2395,33,-242,32,47,6,-10
2400,36,-247,31,49,6,-12
2405,31,-245,32,49,6,-11
2410,32,-244,33,51,7,-10
2415,33,-244,34,51,6,-10
2420,32,-243,31,51,8,-10
2425,33,-246,34,52,8,-10
2430,33,-243,35,52,10,-11
2435,31,-241,30,53,10,-9
2440,34,-240,36,51,13,-11
2445,33,-241,36,49,12,-12
2450,32,-244,32,46,11,-10
2455,33,-243,30,43,12,-10
2460,30,-244,32,39,13,-13
2465,34,-246,34,36,11,-10
2470,31,-244,30,32,11,-11
2475,32,-243,30,28,10,-12
2480,31,-244,30,27,9,-10
2485,32,-243,30,26,10,-12
2490,32,-246,32,26,10,-12
2495,33,-245,33,27,8,-11
2500,34,-248,29,29,8,-11
2505,33,-241,31,27,7,-11
2510,34,-245,28,26,7,-11
2515,32,-249,29,23,7,-11
2520,37,-245,29,21,6,-10
2525,30,-242,31,18,7,-11
2530,34,-244,31,15,7,-12
2535,36,-244,30,13,6,-10
2540,32,-245,28,11,6,-11
2545,34,-246,31,10,5,-10
2550,32,-245,31,12,5,-11
2555,34,-245,29,14,3,-8
2560,33,-246,32,17,2,-6
2565,29,-246,30,20,2,-4
2570,31,-246,28,24,2,-4
2575,32,-245,30,28,0,-3
2580,35,-248,32,30,-1,-1
2585,33,-248,35,30,-2,-2
2590,36,-245,26,28,0,-3
2595,31,-248,31,27,3,-3
2600,34,-248,29,26,6,-4
2605,35,-252,30,23,9,-6
2610,32,-245,29,20,12,-10
2615,32,-245,30,19,16,-7
2620,34,-247,32,18,18,-10
2625,36,-248,30,18,19,-11
2630,35,-246,30,17,21,-12
2635,33,-246,19,19,20,-13
2640,28,-239,27,21,19,-15
2645,30,-247,46,21,15,-14
2650,36,-246,34,21,12,-11
2655,28,-244,27,21,8,-8
2660,35,-242,33,21,5,-9
2665,34,-245,29,22,3,-10
2670,32,-243,32,22,1,-9
2675,32,-245,30,20,-1,-7
2680,32,-242,29,19,-2,-8
2685,38,-243,28,14,-3,-10
2690,31,-244,27,11,-1,-9
2695,33,-245,25,5,0,-9
2700,33,-244,30,2,0,-8
2705,34,-244,31,0,1,-12
2710,31,-247,30,0,3,-12
2715,34,-244,28,2,5,-13
2720,34,-251,32,6,6,-13
2725,31,-247,34,8,6,-13
2730,32,-247,32,10,5,-13
2735,34,-248,29,14,5,-14
2740,33,-249,24,18,7,-12
2745,44,-258,24,25,7,-12
2750,34,-247,26,30,8,-12
2755,32,-243,25,35,9,-12
2760,36,-245,31,40,11,-12
2765,32,-247,28,44,11,-12
2770,33,-245,26,46,14,-13
2775,37,-243,29,48,13,-10
2780,35,-247,19,48,12,-11
2785,35,-244,27,47,9,-11
2790,35,-246,26,46,9,-9
2795,35,-245,26,44,8,-9
2800,32,-245,29,44,5,-7
2805,37,-245,28,40,4,-4
2810,34,-244,29,37,1,-5
2815,33,-243,25,36,0,-4
2820,34,-244,29,34,-1,-5
2825,32,-243,30,35,0,-6
2830,36,-243,26,33,-2,-5
2835,34,-242,29,30,-1,-6
2840,33,-246,27,29,0,-5
2845,35,-246,33,28,-1,-5
2850,34,-246,25,27,0,-5
2855,32,-244,29,28,4,-6
2860,36,-244,27,27,7,-4
2865,33,-246,27,26,11,-4
2870,34,-244,22,26,14,-6
2875,34,-246,26,26,14,-10
2880,35,-246,25,25,14,-9
2885,34,-242,24,25,16,-8
2890,31,-242,27,22,17,-7
2895,34,-247,24,20,15,-8
2900,34,-246,26,18,14,-8
2905,35,-245,23,15,12,-8
2910,34,-242,25,14,10,-7
2915,34,-247,26,13,9,-7
2920,35,-245,25,14,8,-5
2925,35,-246,23,16,7,-6
2930,33,-245,25,22,8,-5
2935,35,-248,24,26,8,-4
2940,35,-249,24,32,8,-4
2945,35,-246,25,38,9,-4
2950,33,-244,25,40,11,-4
2955,36,-247,22,42,15,-2
2960,31,-247,24,43,16,-2
2965,36,-246,22,44,20,-1
2970,38,-248,22,40,21,0
2975,30,-246,22,36,22,4
2980,33,-244,25,30,22,5
2985,34,-247,22,21,24,6
2990,33,-247,24,14,25,7
2995,31,-247,23,9,23,8
3000,33,-246,23,5,20,12
3005,33,-246,23,1,18,15
3010,31,-243,23,-3,13,19
3015,34,-246,24,-6,9,21
3020,33,-249,26,-7,5,27
3025,32,-245,22,-7,1,31
3030,34,-244,24,-9,-2,33
3035,32,-244,21,-11,-5,38
3040,32,-248,19,-15,-6,42
3045,32,-246,22,-19,-8,43
3050,31,-247,20,-24,-6,47
3055,32,-250,19,-25,-5,47
3060,26,-243,22,-24,-1,48
3065,31,-249,18,-18,2,49
3070,32,-248,16,-12,6,51
3075,32,-250,15,-4,8,51
3080,32,-247,19,4,9,51
3085,31,-248,15,14,7,53
3090,34,-246,17,20,4,56
3095,31,-246,16,26,1,57
3100,32,-244,18,27,-3,59
3105,31,-244,16,25,-5,62
3110,31,-243,15,20,-6,64
3115,31,-243,19,13,-9,66
3120,31,-241,18,3,-8,69
3125,30,-239,17,-9,-8,71
3130,32,-242,18,-19,-7,73
3135,31,-241,19,-29,-8,73
3140,27,-241,19,-39,-7,74
3145,32,-240,17,-44,-5,74
3150,30,-241,18,-49,-4,71
3155,26,-242,23,-54,-4,71
3160,28,-240,21,-59,-4,71
3165,26,-237,17,-62,-5,69
3170,26,-240,19,-66,-7,68
3175,28,-239,21,-73,-7,67
3180,27,-239,17,-78,-8,66
3185,29,-238,21,-88,-10,63
3190,27,-239,16,-97,-14,61
3195,27,-239,14,-110,-17,61
3200,29,-242,16,-124,-23,60
3205,27,-240,15,-136,-25,61
3210,23,-239,12,-151,-27,61
3215,24,-236,14,-162,-30,61
3220,25,-240,14,-174,-32,59
3225,27,-240,13,-185,-35,61
3230,25,-236,11,-195,-38,60
3235,26,-238,12,-203,-42,62
3240,29,-242,13,-210,-45,64
3245,26,-237,11,-214,-49,65
3250,27,-240,11,-220,-53,70
3255,28,-241,10,-223,-58,72
3260,27,-241,13,-227,-61,73
3265,26,-241,8,-230,-66,74
3270,28,-239,8,-236,-68,78
3275,22,-238,10,-245,-70,78
3280,29,-243,6,-255,-72,78
3285,25,-241,7,-267,-74,80
3290,29,-240,6,-278,-76,79
3295,23,-240,2,-289,-79,81
3300,24,-241,3,-299,-80,80
3305,27,-240,0,-307,-82,79
3310,24,-241,3,-315,-85,80
3315,26,-239,7,-324,-87,82
3320,24,-238,2,-331,-89,82
3325,24,-244,0,-338,-92,82
3330,24,-241,2,-343,-91,84
3335,25,-244,1,-351,-93,83
3340,23,-240,0,-358,-93,81
3345,25,-242,-1,-366,-92,81
3350,24,-242,0,-371,-92,82
3355,24,-240,0,-377,-93,80
3360,22,-239,-6,-380,-94,80
3365,29,-242,-4,-384,-92,78
3370,24,-241,0,-389,-94,75
3375,23,-238,-4,-390,-96,76
3380,24,-239,-2,-393,-98,73
3385,36,-238,-9,-394,-98,71
3390,24,-240,-3,-398,-98,70
3395,25,-237,-10,-401,-100,67
3400,27,-243,-8,-405,-103,66
3405,24,-237,-12,-405,-104,61
3410,24,-240,-10,-405,-103,60
3415,23,-239,-13,-408,-100,59
3420,26,-235,-14,-413,-99,56
3425,27,-238,-13,-420,-98,52
3430,24,-236,-16,-428,-96,49
3435,25,-238,-13,-438,-94,44
3440,25,-235,-14,-447,-92,39
3445,28,-232,-16,-457,-88,36
3450,26,-236,-20,-467,-81,31
3455,26,-233,-14,-476,-74,26
3460,27,-232,-17,-482,-68,24
3465,28,-235,-18,-486,-65,21
3470,29,-235,-18,-491,-59,18
3475,30,-235,-16,-493,-53,15
3480,31,-234,-14,-492,-48,14
3485,29,-233,-15,-491,-44,10
3490,29,-233,-18,-488,-38,8
3495,30,-233,-21,-485,-33,7
3500,28,-233,-17,-484,-28,4
3505,27,-231,-23,-487,-26,3
3510,28,-231,-20,-492,-24,2
3515,32,-234,-21,-498,-23,1
3520,30,-230,-25,-508,-20,2
3525,25,-227,-27,-520,-18,0
3530,26,-229,-27,-536,-14,0
3535,25,-231,-33,-557,-8,3
3540,25,-227,-35,-580,-4,3
3545,19,-225,-35,-607,-1,6
3550,20,-226,-31,-633,1,9
3555,22,-223,-36,-661,5,11
3560,21,-226,-36,-684,6,11
3565,19,-223,-37,-706,6,11
3570,18,-222,-43,-725,7,12
3575,18,-222,-42,-744,7,12
3580,16,-219,-39,-760,5,11
3585,20,-220,-45,-779,6,17
3590,18,-217,-38,-798,5,26
3595,22,-217,-41,-814,2,18
3600,21,-214,-41,-820,-6,8
3605,19,-213,-42,-822,-17,0
3610,20,-211,-41,-822,-25,-5
3615,23,-210,-41,-820,-31,-13
3620,23,-210,-41,-814,-32,-18
3625,23,-208,-44,-807,-29,-23
3630,21,-207,-41,-801,-20,-24
3635,21,-208,-45,-790,-12,-26
3640,24,-208,-41,-777,-4,-32
3645,23,-210,-42,-764,0,-41
3650,24,-210,-47,-749,0,-46
3655,22,-211,-46,-734,1,-49
3660,26,-213,-49,-719,4,-50
3665,25,-215,-49,-704,10,-52
3670,24,-215,-51,-695,18,-50
3675,25,-218,-51,-686,29,-47
3680,22,-220,-56,-679,36,-40
3685,20,-220,-53,-676,39,-39
3690,20,-222,-59,-671,42,-34
3695,20,-221,-57,-668,41,-30
3700,20,-222,-58,-664,38,-25
3705,19,-221,-59,-657,34,-16
3710,17,-224,-60,-654,29,-9
3715,15,-224,-59,-650,23,0
3720,17,-225,-61,-646,17,11
3725,15,-227,-57,-642,11,18
3730,13,-227,-61,-637,4,24
3735,12,-223,-60,-630,-4,30
3740,13,-228,-63,-624,-12,37
3745,13,-229,-61,-615,-23,38
3750,12,-227,-59,-606,-33,39
3755,11,-230,-62,-596,-42,37
3760,13,-226,-62,-590,-50,34
3765,15,-231,-64,-584,-56,29
3770,16,-226,-65,-582,-58,19
3775,21,-225,-65,-581,-57,8
3780,21,-220,-66,-578,-52,-3
3785,23,-221,-68,-577,-43,-18
3790,25,-215,-71,-578,-30,-33
3795,25,-214,-70,-579,-11,-45
3800,28,-213,-73,-579,9,-61
3805,30,-212,-73,-582,33,-76
3810,32,-210,-72,-583,55,-90
3815,30,-206,-76,-585,74,-100
3820,28,-205,-74,-588,92,-108
3825,30,-207,-76,-594,104,-114
3830,27,-205,-76,-599,111,-113
3835,27,-201,-73,-602,119,-110
3840,26,-205,-75,-600,126,-102
3845,26,-200,-78,-593,126,-95
3850,25,-204,-80,-585,121,-87
3855,22,-201,-81,-576,111,-78
3860,22,-203,-79,-569,99,-68
3865,20,-203,-82,-563,86,-61
3870,20,-204,-80,-559,71,-59
3875,19,-204,-85,-556,56,-54
3880,17,-207,-86,-555,42,-54
3885,17,-205,-82,-554,30,-54
3890,14,-203,-85,-554,12,-55
3895,13,-206,-86,-555,-3,-58
3900,12,-205,-87,-552,-10,-62
3905,13,-207,-91,-545,-14,-68
3910,11,-209,-88,-532,-16,-73
3915,12,-209,-90,-519,-22,-80
3920,14,-211,-91,-503,-21,-84
3925,11,-213,-96,-482,-10,-89
3930,13,-208,-92,-460,5,-94
3935,15,-209,-97,-444,19,-97
3940,18,-212,-94,-430,35,-97
3945,21,-211,-98,-420,50,-98
3950,20,-209,-99,-420,59,-93
3955,21,-208,-101,-424,72,-88
3960,26,-209,-98,-424,83,-84
3965,25,-210,-99,-428,92,-80
3970,23,-205,-100,-427,98,-77
3975,26,-205,-100,-430,102,-73
3980,28,-204,-101,-438,107,-70
3985,27,-198,-104,-450,108,-69
3990,28,-206,-108,-471,108,-67
3995,30,-205,-107,-499,105,-64
4000,30,-205,-109,-523,100,-64
4005,30,-203,-108,-554,96,-62
4010,30,-202,-107,-577,92,-64
4015,28,-204,-111,-605,84,-65
4020,27,-205,-107,-634,74,-62
4025,27,-209,-113,-654,65,-63
4030,28,-212,-111,-665,59,-67
4035,27,-208,-111,-673,53,-69
4040,24,-212,-115,-680,44,-71
4045,22,-211,-115,-688,34,-73
4050,18,-216,-124,-698,26,-68
4055,19,-215,-123,-713,18,-60
4060,15,-216,-118,-723,13,-52
4065,15,-215,-121,-722,12,-47
4070,19,-221,-124,-723,9,-37
4075,16,-218,-128,-734,5,-23
4080,19,-220,-128,-748,4,-7
4085,21,-217,-127,-760,4,2
4090,21,-219,-132,-761,9,7
4095,19,-219,-135,-770,8,12
4100,23,-213,-132,-795,3,24
4105,26,-217,-137,-826,-3,34
4110,28,-217,-142,-858,-8,42
4115,31,-216,-143,-887,-12,49
4120,30,-215,-142,-912,-17,56
4125,31,-217,-142,-927,-23,60
4130,37,-214,-134,-926,-23,62
4135,40,-213,-129,-899,-16,56
4140,37,-209,-129,-847,-3,42
4145,35,-205,-137,-796,12,30
4150,37,-205,-141,-758,21,32
4155,34,-201,-145,-743,18,29
4160,41,-201,-139,-728,13,23
4165,37,-195,-136,-697,13,9
4170,32,-193,-151,-661,14,-5
4175,32,-189,-149,-663,11,-11
4180,36,-181,-155,-678,6,-26
4185,33,-183,-165,-716,0,-43
4190,32,-183,-168,-786,-13,-56
4195,25,-179,-171,-897,-31,-65
4200,26,-180,-172,-1029,-47,-69
4205,24,-185,-168,-1151,-55,-68
4210,23,-190,-163,-1245,-56,-63
4215,21,-192,-164,-1297,-47,-56
4220,19,-191,-161,-1315,-43,-58
4225,15,-197,-159,-1308,-42,-59
4230,8,-197,-155,-1276,-43,-49
4235,11,-198,-159,-1217,-46,-33
4240,14,-202,-163,-1144,-56,-13
4245,13,-204,-168,-1085,-74,5
4250,13,-207,-166,-1031,-91,27
4255,16,-204,-169,-966,-105,40
4260,20,-201,-171,-898,-116,47
4265,21,-198,-175,-825,-120,48
4270,22,-194,-176,-765,-122,46
4275,26,-192,-172,-713,-124,43
4280,27,-188,-177,-675,-128,39
4285,28,-188,-176,-650,-133,33
4290,31,-186,-179,-627,-137,28
4295,34,-181,-178,-614,-140,24
4300,35,-175,-174,-606,-145,21
4305,33,-177,-177,-610,-148,18
4310,37,-175,-166,-618,-153,21
4315,36,-178,-176,-627,-155,20
4320,37,-177,-177,-638,-156,18
4325,36,-176,-176,-648,-151,7
4330,30,-173,-175,-655,-139,-8
4335,31,-174,-175,-654,-123,-19
4340,32,-175,-173,-651,-110,-38
4345,28,-174,-178,-641,-97,-55
4350,24,-174,-180,-624,-84,-67
4355,26,-173,-180,-604,-70,-75
4360,24,-169,-179,-588,-57,-82
4365,23,-168,-181,-571,-44,-87
4370,20,-167,-187,-551,-33,-89
4375,19,-165,-186,-528,-25,-89
4380,18,-167,-185,-507,-19,-84
4385,18,-163,-186,-482,-13,-73
4390,21,-164,-189,-452,-14,-57
4395,18,-164,-187,-423,-14,-39
4400,22,-163,-191,-387,-13,-24
4405,20,-163,-192,-358,-12,-11
4410,20,-162,-190,-326,-15,1
4415,20,-160,-189,-291,-16,5
4420,23,-160,-185,-262,-18,10
4425,28,-156,-190,-237,-20,11
4430,30,-158,-190,-218,-18,2
4435,28,-157,-192,-199,-17,-6
4440,31,-155,-191,-193,-16,-15
4445,28,-156,-196,-183,-15,-24
4450,33,-154,-194,-182,-13,-29
4455,28,-154,-195,-191,-10,-30
4460,32,-151,-201,-192,-5,-22
4465,28,-147,-196,-202,-3,-26
4470,27,-151,-195,-209,-1,-33
4475,28,-150,-198,-212,-2,-33
4480,25,-148,-198,-221,1,-25
4485,25,-154,-197,-229,3,-18
4490,22,-150,-199,-239,6,-22
4495,15,-154,-190,-258,6,-25
4500,22,-154,-198,-276,5,-20
4505,15,-154,-196,-308,2,-32
4510,14,-157,-197,-315,-2,-46
4515,16,-156,-196,-313,-4,-55
4520,13,-160,-191,-299,-5,-66
4525,16,-156,-200,-271,-4,-72
4530,15,-161,-197,-261,-13,-78
4535,4,-160,-202,-240,-13,-70
4540,12,-158,-205,-219,-10,-71
4545,13,-157,-206,-207,-18,-84
4550,17,-156,-201,-183,-26,-86
4555,17,-157,-213,-144,-26,-77
4560,23,-159,-209,-124,-32,-68
4565,21,-160,-205,-114,-40,-67
4570,18,-155,-205,-102,-53,-67
4575,24,-155,-206,-79,-74,-67
4580,25,-153,-213,-55,-85,-64
4585,31,-147,-218,-30,-78,-55
4590,31,-149,-219,-41,-87,-52
4595,28,-146,-227,-58,-85,-49
4600,30,-148,-217,-98,-62,-43
4605,22,-145,-215,-118,-50,-35
4610,19,-150,-213,-131,-46,-28
4615,18,-145,-208,-132,-47,-18
4620,18,-148,-218,-118,-70,-14
4625,16,-148,-203,-119,-78,-12
4630,19,-152,-211,-109,-86,-14
4635,18,-152,-203,-94,-99,-22
4640,17,-155,-204,-90,-106,-23
4645,16,-149,-208,-81,-102,-21
4650,22,-158,-213,-70,-103,-21
4655,22,-155,-215,-63,-94,-32
4660,22,-156,-202,-59,-68,-32
4665,26,-152,-205,-42,-58,-24
4670,27,-152,-211,-19,-56,-19
4675,27,-149,-212,-10,-41,-13
4680,26,-152,-210,-14,-23,2
4685,25,-156,-211,-9,-21,7
4690,22,-154,-210,-3,-20,9
4695,30,-150,-221,-3,-21,15
4700,23,-155,-218,-20,-8,21
4705,24,-159,-221,-43,0,26
4710,19,-157,-215,-61,6,32
4715,20,-162,-217,-54,2,29
4720,17,-158,-225,-38,-4,20
4725,24,-155,-222,-21,-3,15
4730,19,-156,-222,-10,-6,12
4735,24,-154,-229,-4,-12,6
4740,29,-157,-219,-6,-10,7
4745,27,-156,-228,-2,-19,8
4750,30,-158,-224,-3,-20,13
4755,25,-156,-231,-6,-16,16
4760,30,-158,-227,-2,-8,28
4765,32,-162,-230,22,3,26
4770,28,-163,-231,51,15,36
4775,27,-160,-233,84,29,38
4780,27,-153,-227,108,42,45
4785,30,-160,-227,135,43,50
4790,22,-157,-223,154,37,55
4795,25,-160,-222,161,36,55
4800,29,-161,-225,165,30,48
4805,31,-165,-228,171,28,50
4810,23,-161,-223,168,36,60
4815,27,-164,-235,180,34,55
4820,26,-162,-228,190,38,59
4825,24,-165,-230,204,45,66
4830,21,-165,-232,228,47,70
4835,21,-166,-228,263,47,76
4840,13,-164,-230,301,46,85
4845,14,-165,-227,338,39,90
4850,15,-162,-223,377,33,89
4855,17,-164,-231,410,22,89
4860,16,-164,-223,440,10,93
4865,18,-167,-225,488,-7,77
4870,18,-166,-224,534,-21,70
4875,22,-164,-222,576,-28,69
4880,24,-168,-220,614,-32,71
4885,19,-166,-220,652,-36,68
4890,23,-167,-218,696,-38,68
4895,22,-166,-215,742,-36,73
4900,24,-165,-214,782,-34,72
4905,23,-163,-215,816,-33,76
4910,22,-167,-208,853,-33,76
4915,25,-168,-210,903,-34,74
4920,20,-174,-210,956,-36,74
4925,19,-176,-211,1009,-41,76
4930,12,-185,-215,1050,-49,77
4935,9,-193,-224,1086,-62,76
4940,4,-198,-230,1120,-73,67
4945,8,-200,-236,1150,-77,57
4950,4,-206,-241,1186,-76,45
4955,4,-214,-244,1222,-77,37
4960,4,-217,-253,1252,-78,36
4965,1,-217,-259,1271,-85,38
4970,7,-225,-265,1276,-100,40
4975,7,-230,-268,1270,-115,41
4980,8,-229,-267,1254,-134,42
4985,7,-222,-260,1237,-147,51
4990,11,-218,-255,1231,-155,63
4995,10,-208,-245,1231,-166,79
5000,15,-208,-221,1237,-177,102
5005,21,-193,-206,1253,-187,122
5010,23,-186,-189,1260,-193,142
5015,24,-182,-178,1257,-192,158
5020,26,-180,-169,1259,-186,169
5025,22,-180,-156,1261,-180,173
5030,24,-176,-146,1268,-168,169
5035,22,-173,-142,1282,-157,157
5040,16,-172,-138,1301,-146,142
5045,11,-171,-133,1316,-133,119
5050,5,-169,-128,1327,-124,95
5055,5,-166,-125,1335,-114,69
5060,2,-168,-122,1342,-108,49
5065,1,-168,-115,1348,-105,32
5070,2,-168,-114,1352,-102,27
5075,1,-170,-113,1359,-101,23
5080,0,-171,-109,1370,-98,15
5085,-1,-177,-104,1384,-97,10
5090,0,-183,-100,1399,-93,3
5095,0,-190,-98,1409,-88,-3
5100,1,-192,-98,1411,-82,-9
5105,0,-200,-100,1401,-78,-20
5110,0,-205,-98,1385,-70,-28
5115,1,-213,-104,1374,-64,-39
5120,1,-218,-106,1364,-59,-49
5125,3,-224,-113,1361,-52,-54
5130,2,-231,-113,1368,-42,-62
5135,2,-232,-116,1382,-29,-65
5140,7,-235,-120,1401,-20,-69
5145,5,-236,-120,1414,-10,-71
5150,8,-234,-121,1422,-4,-70
5155,7,-238,-115,1427,5,-61
5160,13,-238,-119,1431,15,-47
5165,13,-236,-112,1425,22,-36
5170,12,-235,-113,1423,30,-22
5175,14,-239,-108,1415,38,-10
5180,18,-235,-114,1405,44,0
5185,22,-238,-112,1390,48,5
5190,18,-235,-110,1378,53,6
5195,16,-235,-107,1371,59,3
5200,17,-238,-113,1363,65,0
5205,16,-234,-105,1356,75,-4
5210,15,-231,-101,1351,91,-13
5215,16,-232,-103,1351,102,-22
5220,20,-227,-102,1353,105,-27
5225,20,-224,-103,1352,109,-33
5230,20,-222,-99,1346,114,-40
5235,19,-223,-92,1340,118,-43
5240,17,-220,-91,1332,121,-46
5245,17,-218,-88,1324,122,-49
5250,15,-219,-85,1320,121,-53
5255,13,-220,-85,1316,121,-61
5260,16,-221,-83,1314,121,-68
5265,13,-223,-77,1307,126,-75
5270,15,-224,-76,1298,132,-88
5275,14,-225,-76,1287,139,-93
5280,16,-225,-76,1279,139,-96
5285,14,-224,-73,1265,141,-99
5290,13,-215,-78,1250,142,-99
5295,13,-225,-71,1230,143,-100
5300,11,-220,-69,1209,143,-96
5305,12,-222,-66,1180,141,-91
5310,10,-223,-59,1147,136,-87
5315,13,-227,-62,1115,131,-84
5320,11,-227,-59,1077,125,-83
5325,16,-234,-55,1037,121,-81
5330,18,-235,-55,996,117,-80
5335,20,-236,-49,957,111,-83
5340,16,-239,-44,920,107,-87
5345,19,-242,-45,886,103,-90
5350,20,-246,-41,854,106,-99
5355,23,-245,-43,832,109,-106
5360,25,-248,-41,818,113,-115
5365,28,-251,-42,813,117,-123
5370,22,-249,-46,811,122,-130
5375,23,-250,-42,807,132,-134
5380,24,-247,-50,811,138,-138
5385,23,-247,-45,812,140,-140
5390,21,-245,-44,812,143,-143
5395,20,-246,-42,812,141,-142
5400,20,-243,-41,811,136,-140
5405,20,-244,-39,807,125,-139
5410,16,-239,-44,792,117,-135
5415,13,-240,-42,766,116,-131
5420,19,-242,-40,727,122,-127
5425,20,-242,-32,686,131,-126
5430,15,-243,-31,657,128,-128
5435,16,-240,-29,627,123,-126
5440,16,-238,-31,593,127,-124
5445,15,-236,-32,558,133,-120
5450,17,-241,-29,521,132,-114
5455,18,-239,-27,488,129,-108
5460,15,-239,-26,454,128,-102
5465,17,-240,-26,419,129,-94
5470,13,-237,-29,388,127,-89
5475,14,-241,-29,359,126,-84
5480,15,-241,-27,330,127,-82
5485,14,-239,-29,306,125,-80
5490,16,-242,-31,282,127,-79
5495,19,-242,-26,262,132,-81
5500,16,-246,-28,251,128,-83
5505,17,-249,-27,243,130,-84
5510,17,-249,-24,245,132,-82
5515,19,-247,-28,255,131,-80
5520,21,-248,-29,263,142,-75
5525,22,-248,-29,272,157,-67
5530,21,-247,-27,286,171,-63
5535,21,-248,-29,306,175,-57
5540,21,-248,-31,323,178,-55
5545,22,-248,-27,341,179,-53
5550,24,-248,-25,356,179,-47
5555,23,-247,-29,370,174,-46
5560,21,-245,-33,378,170,-46
5565,22,-244,-24,372,169,-43
5570,19,-242,-26,369,167,-44
5575,21,-243,-28,364,162,-43
5580,22,-241,-22,351,159,-42
5585,19,-239,-23,340,155,-43
5590,21,-238,-23,323,153,-42
5595,20,-239,-26,305,147,-40
5600,21,-239,-22,290,141,-38
5605,19,-239,-19,273,135,-36
5610,22,-238,-23,256,133,-32
5615,23,-234,-25,237,130,-30
5620,21,-239,-16,220,128,-26
5625,19,-243,-21,206,122,-22
5630,19,-242,-20,194,114,-20
5635,20,-240,-18,181,110,-21
5640,21,-243,-19,171,104,-21
5645,24,-246,-19,166,94,-22
5650,21,-246,-17,162,83,-24
5655,20,-244,-22,158,76,-26
5660,21,-247,-16,155,68,-30
5665,22,-247,-18,148,63,-32
5670,26,-251,-17,144,58,-36
5675,22,-246,-17,137,53,-37
5680,22,-249,-19,131,48,-41
5685,23,-247,-17,127,42,-42
5690,19,-249,-15,123,37,-42
5695,21,-247,-19,118,30,-43
5700,19,-247,-17,114,26,-42
5705,22,-247,-17,113,20,-45
5710,19,-250,-15,112,16,-45
5715,21,-250,-15,114,10,-43
5720,20,-247,-18,118,5,-43
5725,22,-249,-14,120,0,-44
5730,19,-246,-11,120,-6,-42
5735,21,-248,-18,121,-10,-42
5740,23,-248,-17,120,-17,-43
5745,23,-247,-20,118,-20,-43
5750,26,-247,-15,115,-26,-46
5755,25,-246,-18,110,-31,-49
5760,26,-245,-16,105,-35,-51
5765,27,-248,-17,98,-38,-55
5770,27,-248,-18,90,-41,-58
5775,25,-246,-16,80,-42,-60
5780,27,-247,-17,70,-41,-62
5785,28,-243,-17,61,-40,-63
5790,27,-247,-18,53,-40,-64
5795,28,-247,-18,48,-38,-63
5800,27,-243,-21,42,-38,-61
5805,29,-245,-18,39,-36,-57
5810,27,-246,-24,38,-36,-53
5815,28,-243,-21,40,-34,-49
5820,27,-246,-19,43,-32,-46
5825,26,-246,-21,47,-31,-41
5830,24,-244,-21,51,-29,-37
5835,26,-247,-18,52,-28,-33
5840,25,-247,-23,54,-26,-30
5845,26,-249,-21,53,-25,-26
5850,24,-248,-25,51,-23,-22
5855,21,-247,-23,48,-23,-20
5860,23,-248,-22,46,-22,-17
5865,23,-248,-22,43,-19,-13
5870,23,-245,-25,37,-17,-10
5875,23,-251,-24,33,-15,-9
5880,18,-246,-22,31,-13,-9
5885,20,-248,-29,30,-10,-7
5890,21,-247,-25,34,-9,-6
5895,22,-248,-23,36,-8,-4
5900,22,-245,-22,42,-8,-4
5905,24,-250,-23,47,-6,-4
5910,25,-252,-22,50,-5,-3
5915,22,-247,-21,53,-4,-1
5920,25,-249,-20,53,-6,-2
5925,25,-249,-23,53,-6,-1
5930,23,-248,-21,49,-7,-1
5935,24,-248,-23,47,-7,-3
5940,26,-248,-24,47,-5,-4
5945,24,-250,-19,46,-5,-3
5950,26,-248,-19,44,-5,-5
5955,21,-247,-20,43,-5,-5
5960,22,-245,-20,40,-4,-4
5965,23,-246,-23,40,-2,-4
5970,23,-248,-19,37,-1,-5
5975,26,-248,-21,36,1,-7
5980,21,-245,-23,37,2,-7
5985,25,-247,-24,37,3,-6
5990,35,-248,-15,39,4,-8
5995,25,-245,-20,39,5,-10
6000,23,-245,-22,42,6,-9
6005,23,-245,-19,44,7,-9
6010,22,-244,-20,47,6,-9
6015,19,-245,-18,50,5,-8
6020,23,-245,-24,53,5,-7
6025,23,-247,-22,54,5,-7
6030,22,-244,-18,56,5,-8
6035,23,-244,-19,59,5,-6
6040,23,-247,-22,60,7,-4
6045,21,-245,-18,63,7,-4
6050,26,-246,-21,63,7,-5
6055,23,-243,-23,62,7,-5
6060,27,-249,-21,62,8,-6
6065,25,-247,-19,62,8,-8
6070,22,-248,-20,62,9,-11
6075,24,-250,-22,60,9,-10
6080,24,-247,-21,58,8,-12
6085,26,-247,-23,55,8,-11
6090,25,-245,-16,52,8,-13
6095,22,-249,-25,49,9,-14
6100,25,-250,-25,49,7,-13
6105,24,-247,-19,52,7,-13
6110,24,-251,-25,58,7,-15
6115,26,-249,-24,65,8,-15
6120,25,-250,-28,70,9,-14
6125,25,-249,-26,75,10,-15
6130,22,-248,-23,74,11,-14
6135,22,-248,-23,74,12,-14
6140,24,-248,-26,73,12,-13
6145,22,-247,-21,70,13,-10
6150,22,-245,-22,65,14,-6
6155,22,-249,-20,62,13,-6
6160,23,-250,-18,60,14,-4
6165,23,-246,-22,60,12,-5
6170,22,-247,-21,60,11,-1
6175,21,-246,-19,63,11,1
6180,21,-249,-22,64,10,3
6185,20,-246,-19,67,9,2
6190,24,-247,-21,69,8,1
6195,22,-247,-21,69,7,-1
6200,21,-243,-21,69,7,0
6205,23,-246,-23,68,6,-2
6210,25,-245,-22,66,7,-2
6215,29,-249,-19,65,8,-2
6220,25,-247,-15,64,9,-2
6225,24,-247,-14,64,7,-3
6230,23,-245,-18,59,8,-2
6235,24,-249,-16,54,7,0
6240,24,-247,-17,49,6,1
6245,25,-245,-20,45,6,1
6250,24,-250,-18,42,7,1
6255,27,-249,-25,42,8,2
6260,26,-243,-21,42,7,0
6265,24,-247,-20,40,7,0
6270,25,-246,-20,40,8,0
6275,24,-246,-21,39,8,-1
6280,24,-246,-20,37,10,-2
6285,21,-246,-23,36,10,-2
6290,22,-249,-20,36,10,-4
6295,24,-246,-19,37,10,-4
6300,22,-249,-20,37,8,-6
6305,24,-247,-24,37,10,-7
6310,18,-244,-21,36,9,-7
6315,22,-247,-24,34,7,-8
6320,20,-246,-21,32,7,-6
6325,22,-247,-22,31,6,-4
6330,22,-246,-19,28,4,-5
6335,22,-244,-22,28,4,-4
6340,25,-244,-23,26,4,-5
6345,22,-245,-18,24,2,-5
6350,23,-244,-21,23,2,-5
6355,23,-248,-24,23,2,-6
6360,23,-246,-25,23,2,-7
6365,19,-247,-6,27,2,-9
6370,19,-250,-19,29,3,-9
6375,22,-248,-20,33,4,-8
6380,25,-251,-25,39,5,-8
6385,23,-251,-24,45,5,-9
6390,23,-248,-23,50,7,-7
6395,24,-249,-25,56,8,-7
6400,24,-250,-22,60,7,-9
6405,21,-248,-26,67,7,-7
6410,21,-247,-26,70,7,-7
6415,25,-246,-20,73,8,-7
6420,23,-246,-24,73,7,-6
6425,22,-248,-23,74,7,-10
6430,22,-246,-23,72,6,-8
6435,25,-246,-21,72,5,-7
6440,23,-248,-16,71,6,-6
6445,23,-248,-20,71,6,-9
6450,23,-246,-23,70,7,-7
6455,26,-243,-22,69,8,-7
6460,23,-244,-20,67,9,-8
6465,24,-246,-21,66,8,-7
6470,22,-247,-21,66,7,-7
6475,23,-244,-20,68,8,-5
6480,26,-245,-20,67,9,-5
6485,24,-247,-19,68,8,-4
6490,24,-248,-21,68,9,-5
6495,26,-247,-19,69,9,-3
6500,23,-248,-22,71,9,-6
6505,23,-248,-23,72,9,-6
6510,25,-243,-21,74,10,-6
6515,24,-245,-22,76,10,-5
6520,22,-246,-16,76,11,-6
6525,26,-246,-22,77,11,-8
6530,23,-247,-21,80,11,-8
6535,21,-245,-19,81,9,-8
6540,25,-248,-22,82,9,-6
6545,21,-246,-23,85,8,-6
6550,23,-247,-21,86,8,-6
6555,22,-246,-24,86,9,-6
6560,22,-247,-20,87,7,-6
6565,21,-246,-19,87,6,-6
6570,23,-247,-25,84,6,-7
6575,24,-246,-18,81,6,-7
6580,22,-246,-20,77,7,-7
6585,20,-248,-21,75,7,-8
6590,21,-247,-20,71,8,-10
6595,23,-247,-20,67,7,-11
6600,23,-248,-21,66,8,-11
6605,23,-247,-20,65,9,-9
6610,27,-247,-20,64,11,-11
6615,20,-250,-22,67,11,-9
6620,24,-250,-21,69,10,-9
6625,19,-244,-20,69,10,-9
6630,21,-248,-23,72,9,-9
6635,22,-248,-21,75,9,-8
6640,22,-248,-24,77,8,-6
6645,20,-250,-22,80,9,-7
6650,22,-245,-22,81,7,-8
6655,23,-247,-19,82,7,-8
6660,22,-247,-25,80,7,-9
6665,20,-244,-22,78,8,-9
6670,19,-249,-22,74,9,-10
6675,23,-245,-19,68,9,-11
6680,21,-243,-19,62,10,-10
6685,21,-245,-19,59,10,-8
6690,22,-246,-19,57,10,-10
6695,20,-244,-20,58,10,-8
6700,24,-248,-19,60,10,-7
6705,29,-248,-25,64,12,-9
6710,20,-250,-21,68,12,-9
6715,23,-247,-14,70,10,-11
6720,25,-245,-19,72,12,-10
6725,21,-247,-24,73,11,-12
6730,22,-246,-22,72,10,-12
6735,24,-244,-20,73,10,-13
6740,24,-246,-21,72,10,-12
6745,24,-247,-16,69,9,-11
6750,23,-246,-19,68,9,-11
6755,19,-245,-21,64,9,-12
6760,20,-247,-18,62,9,-11
6765,22,-248,-19,62,7,-12
6770,22,-246,-22,63,5,-12
6775,25,-244,-20,62,3,-12
6780,19,-247,-18,62,1,-12
6785,21,-248,-19,61,1,-13
6790,23,-248,-20,62,1,-14
6795,23,-245,-19,61,1,-14
6800,25,-248,-18,61,3,-15
6805,22,-247,-19,59,2,-15
6810,24,-247,-22,59,2,-15
6815,24,-247,-23,58,4,-16
6820,23,-249,-19,55,4,-15
6825,25,-249,-17,53,6,-13
6830,21,-244,-21,51,6,-11
6835,23,-247,-17,51,8,-12
6840,21,-247,-16,53,7,-11
6845,23,-245,-26,56,9,-13
6850,24,-249,-20,57,9,-12
6855,24,-248,-21,58,8,-12
6860,24,-245,-22,60,8,-12
6865,20,-248,-21,60,7,-11
6870,23,-246,-21,61,8,-12
6875,25,-246,-22,64,7,-10
6880,21,-247,-18,66,9,-10
6885,24,-248,-17,67,10,-12
6890,23,-246,-23,67,10,-9
6895,27,-239,-15,66,11,-8
6900,22,-246,-16,65,10,-10
6905,23,-246,-20,62,10,-9
6910,25,-248,-18,60,10,-9
6915,22,-245,-19,60,9,-10
6920,23,-245,-20,58,9,-13
6925,21,-243,-19,59,9,-12
6930,24,-247,-21,61,9,-12
6935,22,-246,-20,62,10,-12
6940,25,-251,-20,64,10,-12
6945,22,-246,-19,66,10,-14
6950,22,-250,-19,67,11,-14
6955,24,-249,-20,67,12,-13
6960,20,-248,-19,66,12,-14
6965,23,-244,-20,66,12,-12
6970,24,-247,-21,66,13,-12
6975,27,-248,-21,65,13,-11
6980,22,-247,-20,66,13,-12
6985,26,-246,-16,66,13,-12
6990,23,-248,-22,67,13,-13
6995,23,-248,-22,67,13,-12
7000,25,-248,-20,68,13,-12
7005,25,-249,-19,71,12,-12
7010,24,-250,-20,72,13,-11
7015,22,-246,-20,74,11,-12
7020,20,-242,-22,77,11,-10
7025,25,-249,-20,79,11,-12
7030,23,-246,-18,81,10,-13
7035,22,-249,-20,81,10,-12
7040,21,-249,-17,82,10,-16
7045,22,-249,-19,81,10,-14
7050,24,-247,-19,80,9,-13
7055,23,-247,-16,79,12,-15
7060,25,-246,-17,79,14,-14
7065,19,-246,-19,78,14,-16
7070,24,-249,-21,78,16,-17
7075,23,-246,-20,77,15,-18
7080,25,-246,-19,76,15,-16
7085,23,-247,-19,75,15,-14
7090,24,-248,-19,74,16,-12
7095,18,-245,-24,77,17,-12
7100,20,-249,-14,82,16,-10
7105,24,-256,-20,84,14,-12
7110,18,-254,-22,85,12,-11
7115,24,-258,-20,85,12,-15
7120,31,-246,-14,81,12,-14
7125,28,-254,-18,79,12,-13
7130,11,-253,-9,79,13,-14
7135,15,-240,-17,79,13,-16
7140,23,-255,-14,82,16,-17
7145,27,-259,-25,85,16,-17
7150,33,-236,-31,90,16,-18
7155,19,-250,-14,93,17,-18
7160,23,-249,-17,96,17,-19
7165,24,-245,-15,97,17,-18
7170,23,-244,-17,97,16,-15
7175,24,-243,-19,94,18,-15
7180,26,-239,-19,92,18,-12
7185,22,-247,-16,90,18,-11
7190,24,-245,-19,87,16,-9
7195,24,-250,-13,85,15,-9
7200,24,-248,-17,84,13,-10
7205,22,-250,-17,82,12,-10
7210,22,-248,-16,81,14,-10
7215,23,-247,-16,81,15,-11
7220,26,-246,-18,83,15,-13
7225,23,-249,-15,83,15,-13
7230,19,-249,-14,80,17,-13
7235,22,-250,-17,81,16,-14
7240,23,-250,-13,81,16,-15
7245,22,-247,-19,80,18,-16
7250,22,-248,-19,82,18,-16
7255,22,-248,-16,84,17,-15
7260,21,-246,-18,87,18,-15
7265,20,-247,-12,88,17,-14
7270,23,-242,-14,89,15,-15
7275,23,-249,-19,91,16,-14
7280,23,-248,-18,94,15,-14
7285,24,-247,-21,95,15,-13
7290,25,-246,-16,96,16,-14
7295,23,-245,-17,97,18,-15
7300,22,-245,-17,100,17,-17
7305,21,-245,-19,103,15,-15
7310,24,-248,-15,102,14,-17
7315,23,-245,-16,101,14,-15
7320,23,-242,-17,97,15,-16
7325,21,-244,-18,93,14,-15
7330,22,-245,-18,90,14,-13
7335,23,-248,-19,88,15,-15
7340,23,-245,-15,85,16,-14
7345,23,-247,-20,85,17,-14
7350,22,-249,-17,83,16,-14
7355,24,-246,-17,84,16,-14
7360,22,-247,-12,83,17,-12
7365,27,-248,-16,85,17,-13
7370,24,-248,-16,86,17,-13
7375,22,-246,-11,88,16,-11
7380,25,-247,-17,88,16,-11
7385,22,-248,-17,89,17,-10
7390,26,-248,-16,91,16,-9
7395,23,-245,-16,92,15,-9
7400,26,-246,-12,93,14,-7
7405,26,-248,-15,95,14,-8
7410,23,-249,-14,94,15,-8
7415,23,-249,-14,94,16,-9
7420,26,-248,-14,93,15,-8
7425,25,-244,-11,89,14,-8
7430,21,-247,-15,86,13,-7
7435,22,-246,-14,82,14,-7
7440,22,-247,-14,77,14,-8
7445,25,-245,-9,73,13,-8
7450,21,-247,-10,68,13,-5
7455,24,-249,-16,63,12,-7
7460,23,-244,-16,61,12,-6
7465,24,-245,-12,57,13,-6
7470,24,-249,-12,53,12,-6
7475,25,-247,-10,51,12,-6
7480,22,-244,-10,49,11,-5
7485,25,-247,-11,48,10,-5
7490,23,-248,-14,48,10,-4
7495,19,-245,-15,50,9,-7
7500,24,-248,-14,51,10,-6
7505,27,-247,-13,52,9,-6
7510,22,-245,-13,54,9,-7
7515,22,-246,-15,54,9,-8
7520,25,-246,-13,53,9,-8
7525,20,-247,-14,52,8,-9
7530,26,-246,-13,50,10,-8
7535,24,-248,-17,47,9,-9
7540,23,-246,-13,46,11,-8
7545,24,-246,-15,45,13,-9
7550,24,-247,-13,44,14,-8
7555,22,-247,-12,42,15,-10
7560,20,-246,-12,41,15,-8
7565,23,-246,-14,36,14,-7
7570,24,-248,-15,33,12,-6
7575,25,-248,-16,29,12,-5
7580,24,-245,-15,24,11,-7
7585,22,-247,-16,19,10,-5
7590,21,-247,-10,14,9,-6
7595,20,-247,-13,12,9,-6
7600,23,-246,-17,12,8,-6
7605,23,-250,-14,13,6,-8
7610,23,-249,-16,14,6,-8
7615,25,-248,-17,15,6,-7
7620,23,-245,-13,16,6,-9
7625,23,-245,-18,16,7,-9
7630,23,-244,-15,15,6,-9
7635,24,-247,-13,16,7,-10
7640,24,-244,-13,17,7,-10
7645,23,-247,-15,17,8,-9
7650,21,-247,-12,17,7,-10
7655,22,-246,-14,18,8,-9
7660,23,-249,-16,20,9,-8
7665,24,-249,-16,19,8,-9
7670,24,-247,-14,19,8,-9
7675,26,-249,-18,19,8,-7
7680,25,-250,-18,18,9,-5
7685,22,-248,-20,19,8,-6
7690,23,-247,-17,18,8,-4
7695,22,-248,-17,19,8,-1
7700,21,-247,-19,21,8,0
7705,27,-249,-16,21,7,1
7710,20,-248,-18,21,7,3
7715,23,-244,-13,19,6,6
7720,20,-248,-13,17,6,9
7725,23,-245,-17,15,4,9
7730,21,-247,-16,15,5,12
7735,22,-248,-18,19,5,12
7740,21,-248,-20,23,5,10
7745,23,-245,-18,29,5,12
7750,25,-249,-27,38,5,11
7755,23,-250,-20,47,7,11
7760,22,-243,-19,57,7,11
7765,20,-250,-16,69,9,10
7770,22,-252,-18,81,10,10
7775,19,-250,-20,94,12,9
7780,19,-250,-15,109,15,10
7785,19,-251,-16,122,18,6
7790,18,-245,-17,132,20,3
7795,21,-251,-16,136,23,1
7800,24,-249,-14,136,25,1
7805,20,-247,-11,127,27,2
7810,23,-248,-12,113,27,4
7815,23,-247,-7,92,27,7
7820,24,-242,-4,64,23,13
7825,27,-244,0,32,20,14
7830,25,-239,0,-5,14,15
7835,27,-242,1,-49,9,18
7840,23,-237,2,-95,1,20
7845,23,-241,4,-147,-7,17
7850,20,-238,5,-196,-15,16
7855,21,-238,3,-248,-23,12
7860,22,-238,5,-299,-31,9
7865,23,-238,8,-344,-36,5
7870,22,-238,3,-387,-42,3
7875,23,-241,1,-422,-46,-1
7880,23,-241,0,-454,-51,-4
7885,21,-242,-4,-486,-55,-6
7890,23,-244,0,-514,-55,-8
7895,20,-243,-9,-539,-56,-12
7900,23,-245,-3,-559,-53,-11
7905,21,-242,-7,-574,-51,-11
7910,23,-245,-12,-587,-48,-7
7915,23,-245,-12,-601,-44,-5
7920,21,-241,-13,-618,-43,0
7925,23,-239,-12,-640,-42,4
7930,22,-244,-10,-664,-40,9
7935,22,-240,-12,-693,-38,9
7940,23,-238,-15,-723,-37,13
7945,23,-240,-12,-754,-34,16
7950,21,-236,-12,-785,-31,20
7955,19,-238,-16,-818,-28,22
7960,20,-238,-17,-854,-28,22
7965,20,-240,-21,-894,-30,21
7970,22,-238,-23,-941,-31,23
7975,20,-237,-23,-993,-32,22
7980,16,-234,-21,-1049,-34,20
7985,20,-235,-28,-1107,-36,17
7990,22,-232,-31,-1169,-38,14
7995,20,-228,-24,-1229,-40,9
8000,20,-230,-30,-1287,-45,4
8005,24,-229,-28,-1347,-52,2
8010,20,-226,-31,-1401,-57,-2
8015,24,-230,-32,-1453,-61,-5
8020,24,-230,-32,-1500,-62,-11
8025,23,-227,-37,-1537,-64,-13
8030,26,-224,-41,-1568,-71,-16
8035,25,-227,-35,-1603,-73,-22
8040,21,-224,-42,-1634,-76,-28
8045,24,-223,-47,-1669,-82,-35
8050,27,-224,-48,-1706,-84,-40
8055,24,-223,-52,-1740,-80,-46
8060,27,-225,-49,-1771,-76,-53
8065,24,-224,-52,-1794,-78,-60
8070,27,-222,-49,-1812,-90,-68
8075,29,-222,-60,-1846,-92,-72
8080,27,-223,-55,-1892,-79,-74
8085,26,-223,-54,-1931,-65,-71
8090,24,-223,-51,-1959,-64,-65
8095,25,-220,-56,-1979,-66,-62
8100,24,-226,-55,-1997,-61,-60
8105,26,-223,-65,-2002,-55,-54
8110,26,-222,-63,-2003,-47,-50
8115,27,-226,-73,-1998,-38,-49
8120,28,-224,-79,-1989,-25,-51
8125,26,-225,-75,-1983,-10,-56
8130,23,-223,-77,-1971,2,-56
8135,29,-221,-81,-1953,4,-58
8140,31,-218,-92,-1947,12,-60
8145,31,-219,-99,-1947,19,-65
8150,27,-213,-99,-1951,23,-66
8155,29,-211,-114,-1948,10,-62
8160,33,-203,-119,-1977,11,-69
8165,33,-195,-129,-2019,34,-75
8170,31,-193,-143,-2062,54,-72
8175,30,-187,-152,-2106,68,-68
8180,27,-187,-149,-2158,98,-79
8185,28,-190,-152,-2192,113,-90
8190,27,-182,-170,-2206,119,-89
8195,23,-177,-170,-2215,126,-89
8200,19,-173,-178,-2231,133,-91
8205,21,-174,-185,-2245,131,-81
8210,22,-180,-180,-2266,126,-53
8215,4,-179,-182,-2285,121,-29
8220,12,-178,-199,-2298,123,-36
8225,13,-177,-211,-2329,117,-20
8230,8,-181,-212,-2405,131,46
8235,-4,-177,-213,-2461,140,84
8240,-14,-177,-216,-2482,140,62
8245,16,-178,-225,-2457,117,1
8250,32,-184,-230,-2426,77,12
8255,32,-181,-232,-2418,54,96
8260,15,-183,-232,-2414,86,119
8265,33,-187,-230,-2374,94,104
8270,35,-188,-238,-2348,92,142
8275,15,-180,-238,-2323,100,176
8280,7,-178,-231,-2272,107,165
8285,7,-181,-233,-2153,108,111
8290,14,-186,-235,-2024,99,57
8295,28,-193,-243,-1924,98,44
8300,31,-193,-227,-1870,99,74
8305,24,-194,-226,-1837,93,125
8310,11,-184,-219,-1796,74,148
8315,15,-183,-225,-1671,67,102
8320,42,-194,-241,-1536,47,51
8325,20,-186,-235,-1487,33,102
8330,34,-194,-235,-1475,40,153
8335,22,-180,-234,-1512,37,207
8340,9,-162,-234,-1516,50,221
8345,21,-163,-257,-1413,50,125
8350,36,-141,-257,-1254,37,-11
8355,34,-145,-263,-1092,38,-45
8360,34,-145,-256,-966,35,-51
8365,33,-146,-263,-854,25,-50
8370,32,-144,-262,-759,18,-45
8375,37,-141,-268,-675,16,-48
8380,25,-135,-268,-606,17,-46
8385,31,-140,-260,-538,6,-59
8390,30,-139,-262,-464,-7,-81
8395,18,-131,-252,-385,-14,-98
8400,36,-129,-273,-290,-61,-107
8405,26,-125,-273,-240,-56,-107
8410,23,-120,-261,-226,-40,-111
8415,27,-117,-260,-202,-40,-114
8420,22,-115,-261,-167,-49,-122
8425,25,-113,-257,-126,-59,-126
8430,37,-118,-266,-80,-65,-127
8435,45,-120,-274,-57,-67,-126
8440,21,-108,-272,-20,-74,-133
8445,46,-108,-276,15,-99,-135
8450,26,-108,-262,51,-95,-138
8455,28,-102,-264,83,-103,-143
8460,30,-114,-267,119,-114,-151
8465,30,-105,-263,144,-115,-160
8470,47,-113,-275,174,-125,-167
8475,25,-108,-281,203,-131,-180
8480,22,-113,-271,226,-140,-193
8485,29,-97,-275,251,-141,-199
8490,19,-96,-267,263,-139,-206
8495,38,-92,-261,271,-138,-212
8500,35,-86,-281,278,-132,-214
8505,43,-94,-254,291,-144,-213
8510,22,-95,-266,301,-145,-210
8515,26,-106,-262,318,-152,-210
8520,41,-84,-248,344,-160,-206
8525,14,-98,-253,354,-162,-207
8530,33,-91,-283,355,-172,-204
8535,45,-100,-267,358,-169,-195
8540,33,-92,-276,354,-157,-193
8545,28,-92,-253,365,-156,-183
8550,35,-94,-259,392,-166,-174
8555,23,-92,-247,410,-169,-176
8560,29,-98,-262,423,-175,-168
8565,25,-104,-262,437,-171,-165
8570,20,-107,-252,443,-162,-170
8575,21,-115,-250,463,-153,-142
8580,30,-120,-230,505,-149,-131
8585,23,-123,-234,540,-151,-130
8590,34,-129,-238,584,-155,-120
8595,27,-132,-241,649,-154,-134
8600,26,-123,-230,708,-148,-125
8605,31,-121,-241,759,-141,-110
8610,26,-124,-239,786,-135,-103
8615,23,-121,-238,800,-128,-92
8620,23,-119,-238,806,-122,-82
8625,21,-109,-238,797,-120,-84
8630,19,-109,-236,775,-118,-86
8635,23,-106,-237,747,-116,-85
8640,24,-106,-232,713,-112,-79
8645,25,-107,-234,681,-109,-78
8650,24,-105,-240,653,-102,-67
8655,26,-106,-236,614,-91,-52
8660,22,-107,-235,571,-74,-39
8665,12,-104,-245,537,-55,-25
8670,21,-103,-226,515,-41,-12
8675,19,-101,-230,493,-31,12
8680,22,-110,-225,462,-30,38
8685,20,-111,-221,440,-30,53
8690,16,-116,-219,444,-36,58
8695,18,-126,-217,455,-48,77
8700,17,-125,-220,475,-69,70
8705,18,-128,-221,490,-87,64
8710,17,-130,-224,494,-88,66
8715,15,-129,-232,504,-83,72
8720,14,-130,-234,514,-78,71
8725,12,-128,-232,506,-68,64
8730,14,-129,-228,496,-45,56
8735,10,-127,-236,499,-28,47
8740,14,-138,-225,486,-9,52
8745,8,-137,-220,490,-6,42
8750,11,-136,-222,504,-7,29
8755,9,-137,-219,524,-3,23
8760,15,-138,-217,532,0,30
8765,11,-138,-217,536,5,32
8770,14,-139,-213,529,14,36
8775,17,-144,-211,505,26,49
8780,16,-140,-212,485,40,65
8785,18,-140,-215,459,54,68
8790,18,-142,-211,444,62,61
8795,20,-144,-217,447,69,56
8800,15,-148,-210,464,71,47
8805,22,-150,-211,500,67,44
8810,21,-150,-215,539,67,45
8815,25,-157,-211,573,72,48
8820,22,-155,-218,607,78,49
8825,22,-161,-213,631,85,57
8830,21,-162,-210,652,86,60
8835,21,-161,-211,664,90,58
8840,18,-160,-201,677,101,53
8845,21,-164,-209,699,110,52
8850,18,-164,-204,710,115,50
8855,19,-165,-204,709,115,47
8860,16,-165,-205,709,117,39
8865,10,-163,-198,702,111,35
8870,16,-165,-195,702,101,37
8875,15,-167,-200,713,94,44
8880,16,-167,-195,724,86,47
8885,20,-175,-201,727,83,44
8890,17,-173,-198,723,85,35
8895,15,-175,-193,722,89,30
8900,19,-180,-189,732,92,29
8905,17,-178,-185,744,91,26
8910,18,-182,-181,763,90,30
8915,18,-183,-179,791,84,37
8920,17,-185,-180,826,77,45
8925,21,-187,-178,870,68,49
8930,17,-188,-172,917,58,52
8935,20,-190,-182,963,52,52
8940,19,-188,-178,995,50,56
8945,20,-186,-180,1020,50,58
8950,19,-186,-183,1041,53,55
8955,17,-185,-177,1050,57,49
8960,21,-189,-178,1058,57,39
8965,19,-186,-174,1062,56,24
8970,22,-188,-174,1053,54,15
8975,19,-182,-175,1043,52,10
8980,21,-185,-173,1032,51,8
8985,20,-183,-174,1020,55,3
8990,23,-185,-174,1007,70,-2
8995,20,-182,-166,994,83,-14
9000,18,-188,-169,985,96,-22
9005,17,-187,-171,972,107,-18
9010,19,-188,-164,958,117,-6
9015,20,-185,-166,960,126,3
9020,18,-192,-166,958,128,6
9025,18,-189,-161,956,128,7
9030,18,-191,-169,960,129,9
9035,17,-191,-163,966,129,8
9040,20,-190,-161,965,127,9
9045,21,-192,-155,960,129,7
9050,19,-191,-162,968,134,3
9055,20,-191,-157,965,140,8
9060,12,-189,-156,957,142,22
9065,20,-189,-159,958,139,23
9070,22,-188,-157,941,136,15
9075,17,-186,-152,909,141,23
9080,19,-185,-148,872,152,34
9085,21,-187,-150,840,163,41
9090,22,-185,-138,809,172,42
9095,15,-188,-139,801,175,44
9100,16,-190,-136,817,174,36
9105,13,-190,-137,842,176,24
9110,19,-192,-129,874,183,19
9115,13,-193,-128,909,192,17
9120,10,-194,-126,951,196,14
9125,9,-196,-132,998,192,7
9130,9,-194,-129,1040,188,-4
9135,13,-196,-126,1070,180,-6
9140,11,-195,-127,1091,173,-17
9145,9,-193,-126,1104,166,-17
9150,7,-194,-128,1109,153,-13
9155,7,-197,-125,1108,142,-6
9160,8,-197,-126,1103,129,5
9165,9,-195,-125,1093,113,15
9170,9,-193,-121,1080,101,21
9175,10,-194,-122,1066,93,27
9180,7,-199,-119,1051,85,31
9185,10,-198,-114,1035,77,37
9190,9,-197,-114,1021,69,40
9195,8,-197,-110,1014,63,42
9200,12,-200,-109,1011,58,45
9205,10,-200,-108,1008,54,43
9210,12,-198,-112,1011,49,41
9215,10,-198,-109,1014,47,44
9220,10,-199,-106,1018,46,43
9225,7,-199,-110,1021,45,34
9230,9,-199,-106,1022,44,28
9235,12,-201,-107,1019,43,21
9240,12,-200,-108,1018,43,15
9245,13,-201,-104,1016,44,12
9250,13,-200,-101,1018,45,6
9255,12,-206,-106,1020,47,-2
9260,14,-207,-104,1019,46,-6
9265,13,-209,-98,1018,46,-10
9270,12,-208,-98,1018,43,-9
9275,13,-209,-97,1015,42,-5
9280,14,-208,-98,1012,40,-2
9285,16,-208,-96,1001,42,6
9290,18,-208,-97,990,45,16
9295,17,-209,-95,978,49,24
9300,17,-210,-93,968,55,26
9305,18,-208,-97,958,61,30
9310,20,-209,-92,947,68,34
9315,17,-209,-91,937,73,37
9320,21,-211,-89,925,81,36
9325,21,-208,-88,914,89,38
9330,21,-209,-88,905,97,35
9335,22,-209,-85,897,105,31
9340,20,-204,-82,892,114,31
9345,21,-204,-82,890,119,28
9350,17,-200,-80,886,121,23
9355,18,-202,-78,884,121,21
9360,18,-197,-80,883,118,20
9365,19,-197,-78,887,112,24
9370,18,-195,-76,888,105,22
9375,16,-196,-75,888,96,22
9380,15,-194,-79,884,88,24
9385,17,-192,-76,879,76,30
9390,14,-187,-77,873,65,37
9395,16,-192,-74,865,58,47
9400,15,-192,-77,856,48,59
9405,13,-190,-74,844,39,69
9410,14,-188,-73,829,28,78
9415,15,-189,-73,814,19,82
9420,14,-189,-74,793,11,86
9425,14,-191,-73,769,7,89
9430,14,-191,-72,744,4,87
9435,16,-190,-70,722,2,82
9440,18,-192,-72,704,2,78
9445,19,-192,-69,691,3,74
9450,22,-195,-74,682,7,66
9455,22,-197,-69,675,9,58
9460,23,-198,-69,670,13,51
9465,19,-202,-64,669,17,40
9470,20,-201,-68,669,22,33
9475,25,-205,-52,672,29,26
9480,29,-212,-64,676,36,21
9485,25,-211,-65,682,46,17
9490,24,-213,-64,690,53,15
9495,23,-212,-62,700,58,16
9500,26,-219,-60,709,61,16
9505,26,-219,-63,717,60,16
9510,24,-218,-58,724,57,18
9515,27,-224,-61,729,53,18
9520,23,-220,-56,730,48,17
9525,25,-222,-55,729,44,15
9530,25,-224,-57,727,44,12
9535,22,-224,-56,725,46,11
9540,20,-223,-55,722,49,9
9545,20,-224,-49,717,55,5
9550,21,-225,-47,709,61,1
9555,17,-223,-49,703,66,-3
9560,18,-224,-54,696,71,-8
9565,17,-222,-49,689,75,-11
9570,20,-223,-52,680,77,-16
9575,19,-227,-47,666,77,-23
9580,18,-221,-47,650,80,-29
9585,19,-222,-52,637,81,-37
9590,18,-222,-48,626,83,-45
9595,19,-223,-48,619,82,-51
9600,18,-220,-44,616,83,-56
9605,18,-224,-49,613,84,-62
9610,20,-223,-45,606,88,-65
9615,19,-217,-41,596,96,-65
9620,19,-220,-35,581,100,-63
9625,19,-221,-40,567,102,-61
9630,17,-224,-39,552,100,-57
9635,18,-219,-38,540,96,-55
9640,17,-219,-38,527,94,-51
9645,20,-223,-38,516,92,-48
9650,21,-225,-35,505,90,-47
9655,22,-224,-38,498,93,-45
9660,22,-227,-36,492,93,-42
9665,24,-225,-35,484,97,-37
9670,21,-226,-33,476,100,-33
9675,27,-228,-33,465,104,-33
9680,26,-228,-32,453,109,-35
9685,24,-233,-31,441,114,-37
9690,27,-231,-28,432,117,-41
9695,24,-236,-29,429,121,-44
9700,29,-238,-29,425,123,-47
9705,28,-240,-26,425,125,-51
9710,28,-240,-23,430,127,-56
9715,25,-235,-26,437,128,-56
9720,27,-239,-27,446,129,-58
9725,28,-243,-26,458,134,-60
9730,29,-240,-23,466,139,-63
9735,28,-239,-25,474,148,-67
9740,27,-243,-24,477,155,-71
9745,24,-237,-24,478,160,-73
9750,24,-239,-27,475,166,-73
9755,27,-241,-20,467,169,-72
9760,23,-239,-20,462,174,-70
9765,24,-240,-19,456,175,-68
9770,22,-235,-19,450,175,-64
9775,22,-239,-20,442,172,-59
9780,21,-238,-17,438,168,-55
9785,19,-238,-14,439,163,-55
9790,16,-238,-15,439,157,-55
9795,19,-240,-13,442,151,-56
9800,16,-236,-11,446,147,-54
9805,17,-237,-19,453,143,-48
9810,18,-241,-12,458,140,-46
9815,13,-235,-12,457,136,-51
9820,13,-235,-13,452,131,-53
9825,14,-238,-11,446,128,-55
9830,9,-236,-12,437,126,-59
9835,13,-237,-10,429,124,-65
9840,14,-241,-14,420,123,-72
9845,13,-240,-12,413,121,-80
9850,15,-238,-11,406,117,-90
9855,16,-240,-4,399,112,-100
9860,15,-240,-8,393,110,-106
9865,18,-243,-1,391,107,-112
9870,18,-243,0,390,105,-115
9875,18,-243,-5,389,103,-115
9880,23,-244,-5,388,102,-114
9885,22,-243,-2,385,104,-109
9890,25,-245,0,381,105,-105
9895,26,-246,0,374,108,-95
9900,25,-242,1,365,109,-89
9905,21,-244,2,355,108,-81
9910,28,-245,2,346,106,-71
9915,23,-241,5,336,102,-62
9920,24,-248,7,328,96,-56
9925,27,-248,4,317,89,-44
9930,26,-244,3,309,76,-36
9935,25,-247,5,297,63,-28
9940,27,-247,1,286,48,-22
9945,30,-245,2,268,30,-17
9950,30,-245,3,251,17,-14
9955,26,-244,0,235,5,-7
9960,29,-245,2,217,-5,-2
9965,31,-246,0,201,-13,5
9970,30,-243,3,183,-21,7
9975,29,-249,-1,166,-30,4
9980,28,-252,1,146,-42,2
9985,28,-248,1,124,-53,-1
9990,28,-251,-1,106,-61,-4
9995,29,-249,0,91,-64,-1
10000,31,-251,-2,83,-64,5
10005,25,-253,0,83,-60,12
10010,31,-252,1,87,-52,17
10015,26,-255,-3,94,-47,20
10020,30,-255,-3,104,-40,20
10025,28,-257,0,118,-34,19
10030,30,-257,-1,135,-27,20
10035,27,-257,2,155,-21,22
10040,27,-254,0,178,-17,21
10045,25,-256,1,203,-18,18
10050,25,-254,6,231,-20,11
10055,24,-253,2,256,-24,4
10060,22,-253,4,277,-26,2
10065,23,-244,4,289,-31,2
10070,22,-245,5,295,-37,-5
10075,23,-242,3,295,-39,-6
10080,25,-240,7,287,-44,-9
10085,24,-238,9,277,-47,-13
10090,24,-238,12,265,-50,-19
10095,24,-233,6,250,-54,-23
10100,25,-235,11,234,-57,-26
10105,25,-237,10,218,-60,-28
10110,22,-234,14,202,-62,-30
10115,22,-232,14,186,-65,-34
10120,25,-233,15,169,-69,-35
10125,25,-233,14,151,-71,-42
10130,25,-235,8,133,-73,-45
10135,27,-237,13,112,-75,-43
10140,26,-237,12,90,-76,-41
10145,26,-238,15,73,-76,-37
10150,24,-241,14,60,-79,-37
10155,25,-242,11,47,-81,-37
10160,22,-242,11,34,-81,-40
10165,23,-246,7,24,-86,-40
10170,23,-248,8,16,-89,-38
10175,25,-245,7,12,-93,-34
10180,22,-242,11,11,-96,-33
10185,25,-250,6,11,-101,-33
10190,23,-246,6,12,-105,-30
10195,24,-246,7,16,-110,-25
10200,26,-248,4,18,-114,-19
10205,28,-251,5,20,-117,-12
10210,27,-254,4,19,-120,-14
10215,29,-252,3,18,-123,-15
10220,25,-252,6,21,-125,-15
10225,28,-252,-1,23,-126,-15
10230,25,-254,2,27,-125,-12
10235,29,-253,3,31,-122,-12
10240,30,-252,3,35,-119,-11
10245,30,-253,2,36,-116,-11
10250,30,-250,0,41,-112,-12
10255,31,-252,2,45,-109,-13
10260,29,-249,2,49,-107,-15
10265,30,-248,-1,54,-107,-17
10270,30,-253,1,59,-106,-17
10275,32,-251,2,63,-106,-19
10280,28,-249,4,68,-105,-18
10285,32,-251,2,73,-104,-19
10290,31,-249,5,78,-104,-17
10295,32,-250,5,81,-103,-19
10300,28,-249,4,84,-102,-17
10305,26,-246,9,86,-100,-15
10310,27,-248,10,89,-100,-14
10315,26,-246,8,92,-100,-13
10320,26,-247,9,94,-99,-8
10325,25,-245,14,98,-101,-5
10330,24,-245,15,100,-102,-2
10335,23,-244,13,101,-100,0
10340,27,-245,15,101,-99,1
10345,26,-242,16,100,-97,2
10350,26,-244,16,97,-94,3
10355,26,-243,16,94,-91,4
10360,24,-242,12,87,-85,6
10365,24,-239,14,79,-82,5
10370,27,-242,11,71,-78,6
10375,26,-244,12,62,-74,6
10380,29,-242,10,51,-73,6
10385,33,-245,12,38,-72,7
10390,28,-242,6,25,-73,8
10395,32,-243,8,14,-77,9
10400,33,-247,8,6,-81,10
10405,32,-247,9,-1,-82,13
10410,31,-248,6,-6,-83,15
10415,30,-250,6,-9,-82,16
10420,32,-253,4,-10,-81,18
10425,31,-253,4,-10,-79,17
10430,29,-251,4,-8,-74,16
10435,34,-254,4,-4,-68,11
10440,29,-252,1,2,-62,9
10445,35,-254,2,8,-54,8
10450,36,-253,1,17,-45,1
10455,32,-254,2,29,-35,-4
10460,28,-256,8,40,-25,-7
10465,28,-253,4,52,-14,-11
10470,29,-252,4,64,-6,-14
10475,28,-252,2,75,2,-18
10480,31,-250,4,84,9,-22
10485,30,-251,1,90,12,-25
10490,28,-245,4,93,16,-26
10495,28,-251,6,96,17,-26
10500,28,-251,2,98,21,-26
10505,28,-248,5,97,23,-25
10510,27,-247,5,98,26,-24
10515,24,-244,7,101,29,-25
10520,28,-244,6,103,30,-26
10525,23,-245,8,106,31,-25
10530,26,-248,9,108,30,-23
10535,25,-246,10,109,30,-22
10540,23,-243,8,108,30,-19
10545,29,-244,10,105,30,-20
10550,24,-243,9,104,30,-20
10555,31,-243,13,96,29,-18
10560,24,-245,10,88,29,-20
10565,28,-245,5,76,31,-18
10570,26,-245,15,66,33,-19
10575,27,-245,13,56,34,-18
10580,27,-246,10,48,35,-17
10585,26,-245,11,43,38,-17
10590,25,-247,11,38,38,-18
10595,26,-246,8,37,38,-16
10600,28,-247,12,36,37,-17
10605,23,-246,11,39,37,-16
10610,22,-245,16,39,35,-15
10615,23,-246,10,42,36,-14
10620,23,-248,12,43,35,-12
10625,23,-245,10,45,33,-13
10630,25,-248,11,46,33,-13
10635,26,-246,9,46,33,-11
10640,26,-251,11,47,33,-10
10645,25,-249,7,47,34,-12
10650,26,-247,9,48,33,-10
10655,23,-251,5,45,34,-9
10660,26,-248,9,45,35,-10
10665,25,-248,5,44,37,-11
10670,24,-249,6,44,36,-14
10675,25,-250,5,44,36,-14
10680,24,-251,7,46,37,-14
10685,24,-249,10,49,36,-14
10690,23,-247,6,51,35,-14
10695,25,-249,7,52,35,-15
10700,22,-245,13,55,35,-15
10705,23,-248,12,60,36,-15
10710,26,-249,9,65,36,-18
10715,20,-245,8,67,36,-19
10720,22,-246,14,70,35,-17
10725,25,-246,11,70,36,-19
10730,24,-245,11,70,35,-19
10735,23,-247,8,68,34,-17
10740,23,-243,11,63,34,-17
10745,24,-245,11,58,31,-17
10750,24,-245,12,53,31,-17
10755,22,-243,13,47,29,-16
10760,25,-244,15,41,28,-14
10765,21,-246,11,36,25,-16
10770,23,-245,12,33,24,-15
10775,27,-245,7,30,23,-13
10780,26,-245,11,26,23,-13
10785,26,-246,11,25,23,-12
10790,23,-246,4,23,22,-13
10795,24,-250,10,21,21,-13
10800,22,-248,7,21,22,-11
10805,25,-247,4,20,24,-13
10810,25,-249,12,20,23,-14
10815,24,-248,14,19,21,-13
10820,25,-247,9,21,19,-13
10825,25,-248,8,24,18,-14
10830,26,-246,10,25,16,-13
10835,24,-247,8,27,14,-13
10840,24,-247,8,27,13,-13
10845,23,-248,9,26,13,-13
10850,25,-247,6,23,11,-15
10855,23,-247,10,20,11,-12
10860,25,-247,10,14,10,-11
10865,23,-245,8,8,10,-11
10870,24,-249,9,5,9,-12
10875,26,-250,7,1,8,-10
10880,23,-250,7,-2,8,-10
10885,23,-249,10,-2,7,-9
10890,24,-248,9,-4,6,-8
10895,23,-253,8,-2,6,-7
10900,25,-250,10,2,5,-6
10905,26,-250,9,7,4,-7
10910,28,-250,12,15,4,-6
10915,26,-243,5,21,4,-4
10920,26,-248,7,27,5,-5
10925,24,-249,10,31,6,-6
10930,23,-241,8,33,6,-6
10935,28,-247,9,32,7,-8
10940,25,-244,10,29,7,-7
10945,26,-247,10,26,7,-8
10950,23,-247,6,20,5,-7
10955,24,-247,13,16,3,-7
10960,27,-248,8,14,2,-6
10965,27,-246,10,12,-1,-5
10970,23,-245,11,10,-3,-4
10975,23,-248,9,10,-6,-2
10980,34,-246,-1,9,-10,-3
10985,26,-247,9,8,-12,-2
10990,23,-247,9,9,-13,-1
10995,25,-247,7,11,-13,1
11000,24,-248,5,11,-14,0
11005,24,-246,9,13,-12,0
11010,24,-248,7,16,-9,-2
11015,25,-250,5,19,-6,-3
11020,24,-246,9,23,-4,-1
11025,27,-251,9,26,-2,-2
11030,26,-252,4,30,0,-2
11035,26,-249,6,31,2,-2
11040,23,-247,9,30,3,-3
11045,24,-250,6,30,4,-2
11050,23,-247,7,30,5,-3
11055,25,-246,8,30,5,-3
11060,25,-250,6,31,5,-5
11065,27,-248,5,32,3,-5
11070,25,-244,6,33,1,-3
11075,22,-248,9,35,-1,-1
11080,23,-247,8,36,-1,-2
11085,23,-247,5,37,-2,-1
11090,26,-246,5,38,-5,-1
11095,25,-245,10,37,-4,0
11100,28,-246,7,37,-4,-1
11105,28,-251,3,37,-4,1
11110,26,-248,10,35,-4,2
11115,27,-250,5,33,-2,1
11120,24,-246,4,29,-1,1
11125,28,-247,9,25,-2,-1
11130,24,-247,6,23,-2,-2
11135,27,-249,4,21,0,-3
11140,23,-247,10,20,0,-4
11145,23,-245,5,19,-1,-3
11150,25,-248,9,21,0,-3
11155,24,-248,7,25,0,-4
11160,26,-248,5,27,0,-3
11165,22,-246,5,30,1,-3
11170,28,-251,6,32,2,-3
11175,26,-246,5,34,1,0
11180,25,-246,5,35,3,1
11185,27,-250,7,34,2,0
11190,26,-248,6,34,3,-1
11195,25,-244,5,33,4,1
11200,27,-245,7,32,4,-2
11205,27,-246,2,32,6,1
11210,25,-247,2,32,7,-1
11215,30,-250,7,34,7,-1
11220,28,-249,4,36,7,-1
11225,25,-246,4,38,6,-3
11230,28,-248,4,41,6,-1
11235,21,-246,1,42,5,-2
11240,26,-246,7,42,4,-1
11245,24,-244,7,41,5,-1
11250,23,-248,4,41,3,0
11255,23,-247,5,41,3,0
11260,24,-245,3,41,5,-2
11265,23,-248,9,40,5,1
11270,24,-247,4,41,8,-1
11275,25,-250,4,41,10,-2
11280,25,-247,2,40,9,-2
11285,21,-244,6,36,12,-2
11290,28,-250,1,31,12,-4
11295,26,-248,5,26,13,-4
11300,25,-248,3,20,13,-4
11305,26,-249,4,18,13,-5
11310,22,-250,1,16,12,-5
11315,25,-248,3,16,10,-7
11320,26,-249,4,19,8,-8
11325,26,-249,6,23,8,-7
11330,26,-250,3,31,7,-6
11335,24,-248,6,40,7,-7
11340,21,-247,5,49,6,-7
11345,24,-248,2,60,6,-9
11350,25,-249,1,68,8,-7
11355,27,-251,1,73,9,-8
11360,26,-248,1,78,10,-11
11365,26,-247,2,78,11,-10
11370,28,-246,6,78,11,-12
11375,27,-249,1,74,11,-11
11380,24,-246,6,67,10,-11
11385,27,-248,3,61,10,-11
11390,25,-245,5,55,10,-10
11395,26,-248,3,49,10,-13
11400,26,-249,3,44,10,-13
11405,27,-249,4,42,11,-14
11410,25,-250,3,43,12,-15
11415,27,-246,3,43,14,-14
11420,26,-247,5,46,16,-17
11425,26,-251,5,49,18,-17
11430,24,-249,3,53,19,-16
11435,25,-247,1,55,19,-17
11440,23,-246,4,58,17,-19
11445,27,-248,7,59,16,-18
11450,24,-248,3,58,16,-18
11455,26,-247,3,58,15,-18
11460,29,-247,6,58,15,-17
11465,26,-248,7,58,15,-17
11470,25,-244,7,58,17,-17
11475,25,-247,7,57,18,-19
11480,26,-246,2,54,19,-19
11485,28,-246,2,52,21,-18
11490,26,-245,1,51,22,-19
11495,28,-248,5,48,22,-18
11500,24,-247,5,46,24,-18
11505,27,-246,6,46,26,-18
11510,26,-245,6,46,25,-18
11515,24,-248,3,46,25,-19
11520,28,-245,5,45,25,-20
11525,26,-249,5,45,27,-18
11530,29,-251,5,48,29,-19
11535,27,-249,5,49,30,-20
11540,28,-248,1,52,33,-21
11545,26,-247,1,55,36,-22
11550,28,-249,4,57,36,-20
11555,26,-248,5,60,36,-20
11560,25,-248,6,63,36,-21
11565,24,-249,7,63,35,-20
11570,27,-249,7,64,34,-22
11575,25,-250,5,65,33,-20
11580,26,-244,8,68,29,-18
11585,26,-245,2,69,30,-18
11590,26,-248,4,70,29,-18
11595,25,-248,7,71,28,-17
11600,28,-246,3,67,29,-17
11605,24,-244,2,64,29,-18
11610,26,-243,7,60,34,-18
11615,27,-248,4,56,37,-16
11620,25,-245,3,51,39,-18
11625,26,-247,4,45,41,-18
11630,27,-251,6,43,42,-18
11635,26,-252,1,44,43,-19
11640,25,-251,5,47,41,-19
11645,24,-251,8,54,42,-19
11650,22,-249,8,62,41,-19
11655,23,-251,6,71,40,-17
11660,23,-248,8,80,39,-17
11665,24,-248,9,87,38,-18
11670,27,-251,6,93,37,-18
11675,22,-247,6,96,37,-17
11680,23,-246,4,98,36,-18
11685,24,-249,6,98,36,-16
11690,23,-246,7,95,37,-15
11695,28,-250,7,92,36,-15
11700,25,-246,4,89,34,-15
11705,22,-246,5,86,34,-15
11710,25,-247,5,84,33,-17
11715,28,-246,7,85,30,-15
11720,28,-249,9,87,29,-16
11725,21,-248,8,88,28,-15
11730,27,-245,2,91,27,-15
11735,26,-249,6,93,26,-14
11740,29,-250,6,96,25,-16
11745,23,-248,5,97,24,-15
11750,26,-253,5,99,28,-17
11755,24,-249,4,100,29,-19
11760,27,-251,7,102,30,-18
11765,25,-248,4,104,32,-18
11770,24,-247,5,103,32,-20
11775,26,-253,6,103,33,-18
11780,25,-248,9,103,35,-19
11785,25,-248,7,104,35,-20
11790,25,-247,8,104,32,-19
11795,23,-249,4,105,32,-19
11800,25,-246,7,105,29,-18
11805,26,-248,9,104,28,-18
11810,26,-248,9,104,25,-16
11815,25,-247,6,104,23,-15
11820,25,-246,13,105,21,-16
11825,24,-247,14,106,19,-13
11830,24,-248,8,107,16,-12
11835,24,-245,10,109,14,-13
11840,28,-245,8,111,12,-11
11845,24,-247,8,112,11,-11
11850,26,-244,11,113,10,-10
11855,25,-245,9,112,9,-12
11860,27,-247,7,110,9,-10
11865,25,-244,10,108,8,-11
11870,25,-250,4,105,9,-12
11875,23,-245,2,102,9,-13
11880,28,-249,12,97,9,-12
11885,25,-248,4,94,9,-13
11890,26,-246,8,89,9,-14
11895,28,-248,9,88,7,-13
11900,25,-250,2,87,7,-10
11905,26,-248,7,85,6,-10
11910,25,-249,7,87,5,-11
11915,28,-250,5,88,6,-11
11920,23,-249,6,92,6,-12
11925,25,-248,11,97,7,-10
11930,25,-249,5,100,8,-11
11935,25,-245,9,103,10,-10
11940,26,-250,10,106,10,-11
11945,29,-251,7,109,10,-10
11950,24,-248,4,114,9,-10
11955,25,-251,9,118,9,-12
11960,26,-245,6,116,10,-11
11965,28,-246,9,116,9,-13
11970,25,-247,10,115,9,-13
11975,29,-246,7,114,8,-13
11980,24,-247,10,111,7,-14
11985,26,-247,7,108,5,-15
11990,24,-245,8,104,6,-14
11995,26,-247,8,99,8,-14
