timestamp,acc_x,acc_y,acc_z,gyro_x,gyro_y,gyro_z
0,-12,-254,-57,-7,75,-4
5,-15,-255,-53,-7,74,-5
10,-14,-254,-55,-8,73,-4
15,-13,-256,-53,-8,72,-3
20,-11,-255,-53,-7,71,-3
25,-14,-257,-53,-9,72,-3
30,-12,-256,-57,-11,71,-2
35,-12,-254,-54,-12,70,0
40,-12,-253,-56,-15,70,-1
45,-12,-255,-56,-16,71,-1
50,-12,-255,-53,-19,70,-3
55,-12,-255,-56,-22,71,-3
60,-14,-253,-57,-23,71,-1
65,-15,-253,-55,-24,72,-1
70,-14,-255,-54,-26,73,-1
75,-14,-247,-45,-26,75,-2
80,-13,-254,-57,-28,75,-2
85,-13,-254,-55,-27,75,-3
90,-12,-256,-58,-29,75,-4
95,-12,-255,-56,-29,76,-3
100,-13,-255,-51,-30,75,-3
105,-11,-256,-57,-29,77,-5
110,-13,-256,-57,-28,77,-4
115,-9,-255,-55,-28,79,-2
120,-14,-253,-58,-25,79,-4
125,-11,-256,-54,-23,78,-1
130,-13,-255,-53,-18,77,-1
135,-13,-256,-56,-15,76,-1
140,-14,-254,-56,-13,76,0
145,-11,-257,-56,-13,76,2
150,-13,-254,-55,-16,77,3
155,-12,-256,-53,-19,75,4
160,-12,-256,-54,-21,73,4
165,-14,-255,-54,-24,72,5
170,-12,-259,-54,-23,71,5
175,-11,-257,-53,-22,71,5
180,-12,-257,-55,-17,71,4
185,-12,-257,-52,-14,73,2
190,-12,-256,-53,-11,74,3
195,-15,-255,-57,-9,76,2
200,-10,-257,-58,-10,77,1
205,-12,-257,-55,-12,76,0
210,-10,-258,-55,-12,77,-1
215,-12,-256,-52,-13,76,-1
220,-12,-255,-55,-14,75,-1
225,-10,-258,-54,-15,76,-1
230,-13,-256,-57,-16,76,-3
235,-11,-259,-51,-17,78,-1
240,-9,-258,-55,-16,77,-4
245,-10,-256,-51,-16,76,-4
250,-13,-256,-54,-16,76,-4
255,-11,-253,-56,-14,77,-3
260,-10,-256,-55,-16,78,-6
265,-12,-252,-54,-15,78,-3
270,-11,-256,-54,-15,77,-4
275,-11,-254,-58,-18,78,-4
280,-12,-256,-58,-18,77,-2
285,-14,-255,-56,-19,78,-3
290,-12,-256,-56,-21,77,-5
295,-13,-257,-57,-22,77,-4
300,-12,-254,-57,-22,75,-4
305,-10,-256,-56,-22,75,-3
310,-9,-256,-56,-19,75,-3
315,-12,-255,-56,-18,75,-3
320,-9,-256,-54,-16,76,-2
325,-13,-256,-56,-15,77,-2
330,-14,-257,-54,-14,77,-2
335,-11,-259,-55,-12,77,0
340,-11,-257,-56,-11,75,0
345,-13,-261,-56,-9,76,-1
350,-11,-256,-56,-8,76,-1
355,-9,-256,-56,-8,76,-1
360,-12,-255,-51,-7,77,-1
365,-12,-256,-53,-6,76,-3
370,-13,-255,-54,-5,75,-1
375,-11,-257,-57,-5,77,-1
380,-13,-256,-51,-4,76,-1
385,-11,-254,-54,-6,74,-1
390,-8,-255,-54,-6,74,-1
395,-12,-254,-50,-7,73,1
400,-11,-255,-50,-6,75,0
405,-12,-256,-57,-6,75,-1
410,-12,-252,-52,-4,76,-1
415,-12,-255,-54,-5,76,-1
420,-11,-256,-56,-8,76,-1
425,-12,-254,-53,-11,77,-2
430,-12,-255,-56,-13,77,-2
435,-13,-253,-53,-16,76,-3
440,-12,-256,-54,-17,76,-3
445,-12,-254,-53,-19,76,-3
450,-13,-256,-54,-21,76,-3
455,-13,-256,-55,-21,76,-3
460,-15,-255,-54,-20,77,-3
465,-12,-256,-55,-19,79,-3
470,-11,-256,-52,-18,80,-3
475,-13,-256,-56,-18,83,-3
480,-13,-255,-55,-18,82,-4
485,-14,-255,-57,-18,81,-2
490,-12,-258,-55,-17,80,-3
495,-12,-256,-57,-15,80,-4
500,-10,-257,-54,-12,78,-3
505,-13,-254,-53,-11,78,-4
510,-11,-259,-58,-9,77,-3
515,-12,-256,-56,-8,74,-1
520,-12,-256,-55,-7,73,-2
525,-9,-258,-56,-7,70,-2
530,-13,-255,-58,-6,71,-2
535,-11,-256,-55,-6,70,-2
540,-10,-256,-54,-7,72,-2
545,-14,-254,-54,-8,72,-1
550,-14,-255,-50,-8,71,-1
555,-11,-256,-55,-9,72,-1
560,-9,-256,-54,-10,74,-2
565,-15,-255,-57,-10,76,0
570,-13,-255,-55,-11,78,-1
575,-12,-257,-53,-10,80,-1
580,-12,-258,-52,-8,81,-3
585,-14,-257,-54,-5,81,-2
590,-13,-256,-53,-1,83,-3
595,-13,-256,-56,3,82,-2
600,-10,-256,-52,4,81,-2
605,-14,-257,-55,5,81,-4
610,-10,-258,-56,6,78,-2
615,-14,-254,-57,5,77,-3
620,-11,-256,-53,2,74,-3
625,-11,-255,-53,0,72,-3
630,-12,-255,-56,-2,72,-4
635,-12,-255,-56,-3,73,-5
640,-15,-255,-55,-4,72,-3
645,-15,-256,-53,-4,74,-4
650,-12,-256,-55,-3,73,-4
655,-14,-254,-56,-2,75,-3
660,-11,-256,-54,-1,78,-2
665,-13,-256,-53,1,78,-4
670,-10,-255,-57,2,76,-4
675,-11,-252,-54,3,75,-3
680,-11,-253,-56,4,76,-3
685,-9,-257,-56,4,76,-3
690,-11,-257,-52,5,75,-3
695,-12,-253,-55,5,75,-1
700,-11,-254,-56,5,75,-2
705,-16,-255,-53,4,75,-3
710,-10,-255,-53,4,76,-2
715,-12,-255,-54,4,75,-3
720,-12,-254,-53,3,75,-2
725,-10,-256,-52,3,75,-1
730,-9,-254,-55,2,75,-1
735,-12,-253,-53,-2,75,0
740,-11,-255,-51,-6,74,1
745,-13,-255,-57,-10,74,1
750,-13,-256,-57,-15,71,0
755,-14,-255,-53,-17,71,-1
760,-13,-256,-53,-19,70,1
765,-15,-255,-53,-20,68,1
770,-14,-254,-55,-20,68,1
775,-15,-257,-54,-21,70,-1
780,-12,-256,-55,-20,71,1
785,-11,-258,-54,-20,73,0
790,-9,-254,-53,-19,75,-1
795,-12,-255,-50,-18,75,-1
800,-14,-254,-56,-18,77,-2
805,-12,-256,-53,-18,78,-3
810,-13,-255,-57,-18,80,-3
815,-10,-254,-55,-18,79,-1
820,-12,-257,-56,-15,79,-1
825,-9,-255,-55,-13,79,-1
830,-12,-256,-57,-10,81,-2
835,-13,-256,-51,-8,80,-2
840,-13,-254,-57,-6,77,-2
845,-13,-252,-58,-6,75,-3
850,-12,-258,-55,-5,74,-2
855,-12,-256,-55,-6,75,-1
860,-12,-255,-54,-10,75,-2
865,-11,-254,-56,-14,74,-1
870,-12,-255,-53,-16,74,-2
875,-12,-254,-57,-19,73,-1
880,-11,-256,-53,-20,74,-1
885,-12,-256,-54,-20,73,-1
890,-12,-257,-54,-21,73,0
895,-13,-256,-56,-18,72,-2
900,-10,-256,-56,-16,70,-2
905,-12,-257,-53,-16,70,0
910,-12,-257,-56,-15,70,-1
915,-11,-258,-54,-15,71,-1
920,-13,-254,-56,-15,71,-1
925,-14,-257,-56,-17,70,-2
930,-12,-256,-58,-16,69,-1
935,-13,-255,-57,-17,70,-2
940,-12,-256,-55,-16,69,-3
945,-14,-254,-54,-13,70,-2
950,-13,-257,-58,-10,70,-2
955,-15,-254,-51,-9,71,-4
960,-12,-256,-55,-8,70,-3
965,-11,-258,-51,-9,69,-5
970,-11,-257,-55,-11,69,-4
975,-12,-255,-55,-11,67,-5
980,-12,-256,-52,-12,68,-6
985,-12,-256,-56,-13,68,-6
990,-12,-257,-55,-13,66,-6
995,-12,-255,-54,-13,65,-5
1000,-13,-255,-56,-13,63,-5
1005,-11,-256,-57,-12,62,-5
1010,-13,-254,-56,-11,62,-7
1015,-13,-256,-56,-8,63,-5
1020,-12,-256,-54,-8,62,-5
1025,-11,-254,-54,-8,62,-5
1030,-15,-255,-54,-7,61,-5
1035,-12,-255,-55,-8,61,-5
1040,-12,-256,-53,-11,61,-6
1045,-13,-255,-54,-14,61,-5
1050,-13,-255,-55,-16,61,-3
1055,-11,-257,-51,-17,61,-3
1060,-11,-255,-52,-20,61,-3
1065,-12,-256,-54,-20,61,-4
1070,-11,-255,-49,-22,60,-6
1075,-13,-257,-53,-23,61,-6
1080,-13,-255,-55,-25,62,-5
1085,-13,-257,-55,-26,62,-5
1090,-16,-257,-52,-25,63,-5
1095,-12,-257,-53,-22,61,-6
1100,-14,-254,-55,-21,61,-5
1105,-13,-255,-54,-18,60,-5
1110,-13,-256,-58,-17,60,-4
1115,-14,-255,-52,-15,58,-4
1120,-10,-255,-55,-16,58,-5
1125,-10,-254,-55,-17,59,-6
1130,-12,-256,-56,-18,60,-5
1135,-13,-256,-55,-21,58,-4
1140,-14,-255,-55,-21,59,-5
1145,-14,-255,-55,-20,57,-5
1150,-14,-256,-56,-20,58,-4
1155,-13,-254,-55,-18,59,-5
1160,-13,-253,-56,-17,61,-5
1165,-13,-257,-57,-16,63,-5
1170,-14,-255,-56,-15,65,-4
1175,-10,-254,-52,-14,66,-5
1180,-13,-255,-51,-14,68,-6
1185,-12,-256,-57,-15,68,-5
1190,-15,-255,-53,-18,70,-4
1195,-13,-256,-54,-21,69,-4
1200,-10,-255,-58,-25,66,-6
1205,-12,-256,-55,-31,65,-4
1210,-13,-255,-56,-33,65,-3
1215,-13,-256,-54,-34,65,-4
1220,-14,-254,-54,-33,65,-3
1225,-14,-256,-55,-30,66,-3
1230,-11,-256,-54,-28,68,-3
1235,-11,-255,-56,-26,69,-3
1240,-12,-255,-55,-23,71,-3
1245,-11,-255,-56,-22,72,-3
1250,-16,-254,-59,-24,74,-2
1255,-12,-255,-57,-24,73,-1
1260,-13,-254,-59,-26,72,-2
1265,-13,-254,-56,-27,70,0
1270,-14,-256,-53,-28,69,-2
1275,-11,-256,-57,-27,67,-2
1280,-12,-256,-57,-25,66,-2
1285,-13,-255,-55,-25,62,-2
1290,-10,-254,-53,-25,63,-1
1295,-14,-255,-58,-24,62,-1
1300,-13,-255,-54,-25,61,-1
1305,-15,-254,-54,-26,61,-2
1310,-11,-257,-53,-27,63,-2
1315,-13,-256,-55,-31,63,-2
1320,-13,-252,-52,-32,65,-2
1325,-15,-255,-55,-34,67,-3
1330,-14,-256,-55,-35,70,-1
1335,-12,-254,-55,-36,73,-1
1340,-12,-257,-54,-36,73,0
1345,-13,-258,-55,-35,75,1
1350,-13,-256,-56,-36,74,2
1355,-12,-255,-56,-36,75,1
1360,-17,-257,-53,-36,73,1
1365,-13,-256,-55,-34,75,0
1370,-11,-257,-55,-32,75,1
1375,-14,-257,-55,-33,76,1
1380,-12,-256,-59,-32,77,1
1385,-13,-257,-52,-34,76,2
1390,-12,-256,-58,-35,74,0
1395,-14,-254,-57,-37,73,-1
1400,-11,-256,-60,-37,72,-2
1405,-11,-256,-59,-36,72,-3
1410,-14,-255,-55,-35,71,-3
1415,-12,-256,-60,-32,70,-3
1420,-12,-257,-63,-28,68,-4
1425,-15,-256,-55,-25,69,-5
1430,-14,-256,-59,-23,69,-4
1435,-13,-251,-53,-22,68,-5
1440,-11,-256,-55,-20,69,-4
1445,-12,-258,-52,-20,71,-3
1450,-13,-255,-54,-19,71,-4
1455,-13,-255,-55,-21,74,-4
1460,-14,-255,-57,-23,73,-4
1465,-11,-255,-54,-24,73,-5
1470,-13,-255,-58,-26,71,-4
1475,-12,-255,-55,-27,72,-1
1480,-11,-253,-56,-29,71,-2
1485,-12,-256,-57,-28,71,-4
1490,-8,-254,-54,-28,72,-4
1495,-12,-256,-55,-28,72,-3
1500,-12,-255,-53,-28,74,-2
1505,-13,-256,-57,-28,73,-2
1510,-10,-252,-56,-29,74,-4
1515,-11,-255,-56,-30,75,-4
1520,-12,-256,-56,-33,76,-4
1525,-11,-255,-55,-35,76,-4
1530,-11,-256,-59,-39,77,-3
1535,-9,-255,-58,-40,78,-3
1540,-12,-255,-59,-41,77,-4
1545,-10,-256,-56,-40,76,-3
1550,-11,-258,-59,-40,76,-2
1555,-15,-254,-55,-40,75,-2
1560,-12,-255,-58,-40,74,-2
1565,-10,-254,-58,-40,75,-2
1570,-11,-253,-55,-43,74,-3
1575,-11,-255,-55,-43,74,-2
1580,-13,-253,-57,-42,75,-4
1585,-13,-255,-58,-42,76,-1
1590,-11,-256,-57,-42,74,-1
1595,-11,-254,-58,-41,75,0
1600,-12,-255,-56,-42,74,-1
1605,-10,-255,-58,-42,76,1
1610,-11,-254,-56,-44,77,0
1615,-12,-255,-57,-44,79,-1
1620,-12,-252,-57,-47,80,0
1625,-10,-253,-56,-51,82,1
1630,-13,-255,-55,-52,82,0
1635,-11,-255,-56,-55,83,1
1640,-11,-256,-57,-55,83,-1
1645,-12,-254,-59,-57,81,1
1650,-12,-255,-57,-57,81,1
1655,-13,-255,-56,-57,82,1
1660,-12,-253,-56,-56,82,0
1665,-13,-255,-57,-57,82,-1
1670,-14,-252,-58,-57,82,0
1675,-11,-255,-57,-57,83,0
1680,-11,-254,-58,-57,84,0
1685,-12,-254,-56,-56,85,-2
1690,-12,-255,-56,-57,83,0
1695,-10,-254,-56,-58,81,0
1700,-14,-255,-55,-58,81,-1
1705,-13,-256,-59,-59,81,-2
1710,-14,-256,-57,-60,81,0
1715,-14,-254,-58,-61,80,-1
1720,-10,-256,-58,-60,79,-1
1725,-13,-256,-61,-59,79,-1
1730,-16,-256,-62,-58,79,-2
1735,-16,-253,-61,-55,79,-2
1740,-14,-254,-61,-53,80,-1
1745,-13,-255,-60,-49,78,-1
1750,-12,-254,-56,-46,76,-1
1755,-11,-256,-54,-40,76,-1
1760,-14,-254,-58,-34,76,-1
1765,-11,-256,-58,-30,74,-3
1770,-14,-255,-57,-26,74,-2
1775,-10,-255,-59,-25,73,-3
1780,-14,-255,-61,-22,74,-4
1785,-14,-256,-62,-22,73,-2
1790,-12,-255,-60,-22,73,-3
1795,-15,-256,-60,-19,72,-3
1800,-13,-251,-61,-18,73,-3
1805,-14,-254,-58,-18,73,-3
1810,-12,-256,-59,-15,74,-3
1815,-8,-254,-59,-13,74,-2
1820,-14,-250,-57,-10,75,-1
1825,-11,-254,-56,-9,76,-1
1830,-10,-254,-60,-9,76,-3
1835,-14,-256,-61,-8,76,-3
1840,-10,-256,-58,-11,75,-2
1845,-11,-253,-61,-12,75,-2
1850,-14,-253,-60,-14,75,-2
1855,-14,-254,-55,-16,73,-2
1860,-10,-254,-60,-17,73,-3
1865,-13,-252,-55,-19,71,-2
1870,-11,-254,-57,-19,73,-1
1875,-11,-256,-59,-20,72,0
1880,-13,-254,-56,-20,71,-1
1885,-13,-254,-61,-21,70,0
1890,-13,-254,-60,-22,70,2
1895,-15,-252,-59,-22,71,1
1900,-14,-254,-59,-23,72,1
1905,-13,-251,-59,-23,73,0
1910,-12,-255,-62,-23,72,0
1915,-13,-254,-59,-23,73,0
1920,-11,-256,-60,-22,74,1
1925,-10,-255,-58,-21,77,1
1930,-13,-256,-59,-21,79,0
1935,-13,-254,-60,-22,80,1
1940,-11,-256,-60,-22,80,1
1945,-12,-255,-55,-23,80,1
1950,-13,-257,-60,-25,80,0
1955,-13,-255,-60,-26,77,0
1960,-14,-255,-58,-29,75,1
1965,-12,-254,-59,-30,75,2
1970,-13,-255,-59,-30,75,2
1975,-15,-256,-60,-27,74,3
1980,-12,-253,-62,-26,76,3
1985,-13,-252,-62,-26,76,1
1990,-14,-254,-58,-24,79,3
1995,-13,-253,-59,-24,81,2
2000,-11,-254,-57,-24,81,2
2005,-13,-252,-58,-24,80,2
2010,-14,-253,-63,-24,79,1
2015,-13,-256,-62,-23,78,1
2020,-15,-253,-56,-22,80,2
2025,-12,-254,-60,-23,79,2
2030,-13,-253,-62,-22,80,4
2035,-13,-251,-59,-23,79,3
2040,-11,-253,-60,-25,80,4
2045,-13,-253,-60,-27,80,4
2050,-9,-254,-61,-29,80,5
2055,-12,-254,-60,-32,79,6
2060,-9,-253,-60,-34,79,7
2065,-13,-253,-60,-37,79,8
2070,-12,-251,-62,-41,79,7
2075,-9,-255,-59,-44,80,8
2080,-12,-251,-59,-44,82,9
2085,-11,-253,-60,-46,83,10
2090,-12,-253,-58,-48,83,10
2095,-14,-254,-64,-47,83,9
2100,-11,-254,-61,-47,84,11
2105,-13,-255,-64,-48,83,11
2110,-13,-255,-63,-48,81,12
2115,-10,-255,-61,-47,83,12
2120,-12,-256,-64,-45,84,12
2125,-15,-251,-61,-43,82,10
2130,-13,-255,-58,-42,80,9
2135,-13,-254,-62,-40,79,9
2140,-13,-250,-65,-39,76,8
2145,-12,-251,-62,-40,76,7
2150,-13,-250,-64,-40,77,6
2155,-14,-252,-67,-43,77,5
2160,-15,-252,-68,-46,77,4
2165,-13,-250,-64,-49,79,3
2170,-14,-245,-67,-53,82,3
2175,-14,-243,-68,-57,83,3
2180,-14,-244,-66,-60,86,4
2185,-11,-246,-65,-66,86,5
2190,-15,-244,-64,-71,89,4
2195,-9,-247,-65,-78,91,3
2200,-11,-245,-67,-83,92,3
2205,-12,-245,-68,-89,90,4
2210,-9,-245,-67,-95,90,4
2215,-11,-244,-65,-101,88,5
2220,-11,-245,-65,-109,85,7
2225,-10,-244,-64,-115,81,6
2230,-10,-245,-71,-124,80,8
2235,-10,-244,-65,-132,80,8
2240,-11,-245,-66,-142,81,8
2245,-11,-245,-67,-150,82,9
2250,-10,-245,-68,-158,84,8
2255,-13,-245,-70,-162,86,9
2260,-14,-241,-71,-165,86,8
2265,-15,-243,-70,-168,83,7
2270,-14,-243,-66,-170,81,6
2275,-13,-244,-71,-169,79,8
2280,-14,-241,-70,-168,80,7
2285,-11,-243,-69,-168,80,7
2290,-15,-241,-71,-168,84,9
2295,-10,-240,-74,-167,89,8
2300,-10,-239,-72,-168,97,8
2305,-8,-242,-77,-170,101,9
2310,-11,-240,-72,-173,106,8
2315,-9,-240,-72,-177,110,7
2320,-10,-239,-72,-183,111,7
2325,-10,-241,-73,-190,113,5
2330,-10,-238,-76,-198,114,5
2335,-12,-238,-74,-209,111,3
2340,-11,-238,-76,-219,108,3
2345,-11,-237,-77,-228,103,4
2350,-12,-238,-74,-235,99,2
2355,-13,-236,-77,-240,91,3
2360,-11,-239,-79,-243,87,2
2365,-9,-238,-79,-244,81,2
2370,-11,-239,-77,-244,76,3
2375,-13,-235,-74,-240,71,-1
2380,-15,-232,-77,-235,70,0
2385,-10,-231,-73,-232,71,-2
2390,-13,-231,-76,-229,72,-2
2395,-13,-232,-78,-227,77,-5
2400,-10,-232,-78,-227,79,-9
2405,-14,-229,-76,-232,79,-11
2410,-13,-227,-74,-239,78,-12
2415,-12,-226,-78,-247,74,-17
2420,-15,-225,-79,-258,70,-18
2425,-13,-227,-77,-271,64,-22
2430,-14,-225,-76,-282,59,-23
2435,-13,-226,-76,-295,55,-26
2440,-13,-227,-81,-308,53,-30
2445,-13,-225,-80,-319,53,-34
2450,-11,-228,-80,-328,55,-39
2455,-11,-229,-77,-335,58,-44
2460,-11,-228,-77,-340,62,-49
2465,-11,-229,-79,-344,65,-55
2470,-9,-227,-80,-348,71,-63
2475,-13,-231,-80,-350,76,-69
2480,-10,-229,-79,-353,80,-74
2485,-12,-227,-84,-354,83,-78
2490,-10,-227,-86,-358,87,-80
2495,-8,-223,-83,-363,93,-83
2500,-7,-225,-81,-368,98,-80
2505,-8,-226,-81,-370,99,-76
2510,-8,-225,-75,-369,98,-71
2515,-10,-223,-75,-365,93,-63
2520,-11,-223,-73,-358,87,-58
2525,-9,-221,-77,-355,80,-49
2530,-7,-223,-75,-357,74,-40
2535,-7,-222,-76,-365,68,-32
2540,-11,-218,-82,-374,63,-24
2545,-9,-217,-82,-390,60,-15
2550,-10,-218,-86,-408,57,-8
2555,-8,-216,-85,-425,54,-2
2560,-10,-217,-86,-442,49,1
2565,-11,-222,-82,-455,44,5
2570,-11,-219,-86,-464,37,9
2575,-9,-216,-85,-469,30,13
2580,-12,-219,-80,-472,21,12
2585,-13,-217,-82,-473,16,9
2590,-13,-217,-81,-473,11,5
2595,-14,-216,-77,-472,9,-2
2600,-15,-214,-77,-469,10,-11
2605,-16,-211,-81,-469,13,-20
2610,-19,-212,-81,-472,18,-30
2615,-14,-213,-81,-481,24,-41
2620,-14,-213,-80,-494,29,-54
2625,-13,-214,-84,-509,29,-65
2630,-16,-212,-87,-526,26,-76
2635,-14,-217,-82,-543,22,-82
2640,-16,-216,-89,-561,13,-86
2645,-16,-220,-87,-577,6,-87
2650,-13,-223,-86,-594,-2,-87
2655,-15,-220,-88,-607,-11,-82
2660,-16,-223,-90,-619,-20,-76
2665,-14,-227,-92,-628,-28,-69
2670,-14,-226,-92,-637,-35,-64
2675,-13,-228,-96,-642,-42,-56
2680,-14,-226,-94,-646,-48,-48
2685,-11,-227,-94,-647,-53,-44
2690,-11,-229,-94,-646,-54,-39
2695,-11,-234,-98,-646,-50,-36
2700,-9,-232,-104,-644,-44,-34
2705,-7,-228,-104,-644,-33,-34
2710,-8,-227,-104,-643,-21,-37
2715,-7,-231,-102,-643,-11,-42
2720,-9,-230,-103,-642,-2,-48
2725,-6,-230,-103,-638,0,-53
2730,-8,-227,-104,-632,-4,-58
2735,-8,-229,-99,-622,-13,-62
2740,-6,-226,-102,-606,-25,-64
2745,-9,-225,-98,-587,-37,-65
2750,-13,-225,-94,-567,-46,-65
2755,-11,-225,-97,-544,-52,-63
2760,-13,-223,-100,-523,-55,-60
2765,-14,-223,-97,-506,-54,-58
2770,-11,-218,-103,-493,-50,-55
2775,-12,-220,-105,-485,-47,-52
2780,-12,-223,-106,-481,-43,-49
2785,-10,-221,-110,-479,-37,-45
2790,-9,-220,-113,-477,-34,-41
2795,-13,-218,-113,-476,-31,-41
2800,-12,-220,-117,-477,-30,-39
2805,-11,-219,-113,-477,-33,-40
2810,-9,-214,-112,-478,-37,-39
2815,-8,-219,-117,-477,-42,-39
2820,-10,-217,-113,-476,-44,-41
2825,-9,-220,-111,-471,-46,-41
2830,-8,-217,-111,-466,-43,-44
2835,-7,-218,-111,-455,-34,-46
2840,-6,-217,-108,-445,-22,-50
2845,-8,-219,-113,-432,-9,-53
2850,-9,-219,-110,-421,1,-55
2855,-5,-220,-114,-408,10,-57
2860,-7,-218,-112,-395,17,-57
2865,-8,-219,-114,-384,24,-58
2870,-11,-220,-114,-374,27,-56
2875,-9,-218,-117,-364,27,-56
2880,-10,-221,-120,-355,25,-54
2885,-8,-222,-119,-346,21,-50
2890,-9,-219,-120,-335,13,-45
2895,-11,-220,-116,-320,6,-38
2900,-11,-220,-119,-301,-1,-32
2905,-9,-222,-118,-277,-4,-24
2910,-7,-223,-119,-253,-3,-20
2915,-9,-221,-115,-222,1,-18
2920,-7,-220,-113,-188,11,-18
2925,-5,-221,-117,-149,27,-19
2930,-3,-220,-113,-108,41,-21
2935,-4,-223,-111,-63,57,-27
2940,-3,-218,-111,-19,70,-35
2945,-6,-219,-112,24,81,-44
2950,-3,-220,-113,63,90,-49
2955,-5,-216,-116,98,98,-55
2960,-1,-218,-111,128,103,-60
2965,-5,-216,-106,154,105,-66
2970,-3,-216,-110,176,101,-71
2975,-4,-216,-112,191,95,-74
2980,-3,-216,-109,204,83,-76
2985,-9,-214,-105,218,72,-76
2990,-7,-215,-111,232,59,-72
2995,-9,-216,-110,248,46,-66
3000,-15,-215,-109,263,34,-59
3005,-14,-217,-112,287,24,-53
3010,-13,-222,-111,314,19,-46
3015,-13,-223,-113,345,15,-42
3020,-15,-225,-110,376,14,-35
3025,-14,-229,-112,407,16,-26
3030,-14,-232,-112,438,23,-17
3035,-14,-228,-108,462,32,-9
3040,-12,-235,-107,487,40,-3
3045,-18,-228,-103,513,47,-1
3050,-17,-225,-106,541,54,3
3055,-13,-225,-103,571,58,6
3060,-16,-223,-100,604,61,6
3065,-10,-220,-96,636,66,4
3070,-11,-220,-100,668,71,-3
3075,-8,-220,-98,693,75,-12
3080,-9,-218,-103,717,77,-24
3085,-5,-221,-103,736,82,-35
3090,1,-222,-102,747,87,-48
3095,-1,-220,-106,753,92,-60
3100,-5,-222,-101,756,89,-74
3105,-5,-223,-100,760,82,-86
3110,-6,-222,-104,763,73,-93
3115,-4,-223,-99,765,60,-98
3120,-4,-221,-100,762,50,-105
3125,-8,-218,-99,758,42,-110
3130,-7,-221,-103,752,38,-111
3135,-7,-220,-102,741,39,-113
3140,-8,-220,-101,732,45,-114
3145,-9,-221,-104,719,55,-118
3150,-9,-218,-108,703,72,-119
3155,-11,-221,-104,686,88,-121
3160,-11,-223,-107,669,100,-121
3165,-13,-224,-107,649,108,-122
3170,-13,-223,-110,630,112,-120
3175,-14,-225,-102,612,106,-118
3180,-13,-229,-99,600,91,-114
3185,-17,-229,-95,601,71,-111
3190,-16,-230,-89,613,50,-101
3195,-16,-230,-80,633,31,-90
3200,-16,-231,-87,654,13,-87
3205,-16,-232,-81,673,1,-85
3210,-17,-233,-80,687,-5,-81
3215,-15,-231,-82,690,-3,-82
3220,-17,-230,-84,684,2,-86
3225,-20,-226,-88,668,6,-89
3230,-21,-230,-85,638,6,-93
3235,-15,-227,-95,592,3,-93
3240,-11,-232,-91,531,-5,-92
3245,-10,-229,-93,460,-10,-92
3250,-8,-233,-95,392,-10,-94
3255,-2,-235,-93,336,-3,-98
3260,-2,-240,-96,285,5,-101
3265,-3,-242,-92,240,12,-103
3270,-5,-243,-97,195,20,-100
3275,-2,-247,-92,150,27,-90
3280,-6,-244,-96,107,33,-79
3285,-7,-246,-93,65,34,-68
3290,-6,-248,-94,28,34,-58
3295,-9,-249,-92,-6,25,-46
3300,-10,-249,-93,-36,15,-30
3305,-11,-254,-87,-61,-1,-13
3310,-12,-256,-89,-79,-17,0
3315,-12,-257,-90,-89,-34,12
3320,-17,-258,-85,-91,-47,21
3325,-15,-261,-90,-83,-50,28
3330,-20,-260,-85,-69,-49,32
3335,-28,-260,-90,-61,-48,33
3340,-25,-258,-90,-63,-44,41
3345,-21,-263,-88,-74,-32,53
3350,-18,-256,-95,-80,-31,42
3355,-24,-253,-104,-93,-60,17
3360,-24,-253,-106,-126,-91,1
3365,-21,-252,-106,-175,-103,-8
3370,-13,-250,-108,-227,-95,-19
3375,-8,-248,-110,-272,-65,-33
3380,-7,-249,-110,-308,-18,-45
3385,-3,-250,-112,-340,28,-63
3390,-5,-247,-111,-377,58,-80
3395,-5,-250,-107,-427,70,-92
3400,-2,-248,-110,-482,67,-96
3405,-2,-246,-107,-532,55,-91
3410,-2,-251,-107,-571,40,-84
3415,-2,-259,-103,-601,23,-74
3420,-3,-262,-102,-617,-7,-56
3425,-5,-275,-103,-628,-50,-33
3430,-1,-278,-107,-635,-90,0
3435,0,-274,-105,-627,-141,22
3440,-1,-279,-102,-577,-162,32
3445,-5,-279,-101,-503,-164,44
3450,-8,-272,-110,-427,-153,47
3455,-11,-278,-111,-360,-137,46
3460,-10,-275,-111,-307,-131,64
3465,-9,-266,-116,-274,-131,78
3470,-22,-262,-118,-263,-134,85
3475,-13,-260,-119,-258,-136,99
3480,-12,-259,-117,-253,-126,102
3485,-10,-258,-111,-242,-111,101
3490,-4,-255,-109,-224,-94,88
3495,-6,-260,-102,-203,-72,73
3500,1,-256,-106,-174,-55,62
3505,0,-254,-105,-150,-31,34
3510,-11,-255,-103,-134,1,16
3515,-1,-254,-102,-120,26,11
3520,-1,-256,-102,-112,42,8
3525,-7,-255,-103,-81,37,27
3530,4,-252,-106,-32,29,42
3535,0,-251,-114,3,30,40
3540,-6,-251,-115,17,43,49
3545,-17,-252,-114,25,52,64
3550,-11,-251,-107,43,54,85
3555,-25,-250,-108,60,56,80
3560,-15,-253,-116,73,62,86
3565,-17,-252,-111,79,66,91
3570,-25,-256,-102,88,63,96
3575,-12,-250,-114,111,57,108
3580,-20,-251,-114,112,55,89
3585,-23,-258,-110,99,61,85
3590,-21,-254,-113,98,61,99
3595,-31,-258,-111,121,51,101
3600,-17,-250,-113,167,29,111
3605,-22,-250,-115,197,12,93
3610,-19,-242,-114,208,9,80
3615,-23,-243,-120,195,11,62
3620,-13,-245,-106,179,12,57
3625,-16,-248,-105,182,9,50
3630,-12,-249,-107,204,4,44
3635,-10,-244,-110,222,9,22
3640,-17,-249,-104,225,26,11
3645,-16,-244,-105,244,42,9
3650,-16,-250,-110,262,52,13
3655,-4,-244,-111,288,68,16
3660,-16,-244,-110,305,86,14
3665,-4,-240,-111,328,101,21
3670,-12,-245,-114,336,118,15
3675,-9,-242,-112,339,134,15
3680,1,-245,-110,339,158,14
3685,-15,-249,-96,331,186,1
3690,-14,-253,-96,355,195,10
3695,-12,-248,-98,396,192,10
3700,-16,-247,-98,431,182,7
3705,-20,-246,-97,457,170,7
3710,-16,-253,-95,482,151,13
3715,-12,-253,-98,510,133,14
3720,-21,-246,-101,529,122,5
3725,-17,-250,-99,530,121,-1
3730,-18,-253,-99,537,118,-5
3735,-17,-256,-96,546,108,-9
3740,-27,-257,-91,558,103,-21
3745,-20,-254,-88,578,102,-17
3750,-16,-260,-88,608,89,-12
3755,-15,-257,-90,634,76,-14
3760,-14,-259,-92,652,70,-15
3765,-10,-259,-89,667,75,-19
3770,-9,-267,-89,677,87,-26
3775,-5,-262,-93,688,108,-35
3780,-6,-264,-95,693,131,-47
3785,-3,-265,-89,706,150,-52
3790,-4,-267,-88,725,167,-63
3795,-6,-268,-86,742,185,-74
3800,-7,-269,-86,756,200,-84
3805,-5,-269,-86,772,216,-93
3810,-5,-272,-85,786,232,-99
3815,-8,-270,-87,803,243,-102
3820,-5,-270,-81,816,249,-107
3825,-4,-274,-81,826,253,-113
3830,-8,-275,-78,834,255,-119
3835,-9,-276,-77,839,251,-123
3840,-10,-274,-78,847,240,-129
3845,-11,-271,-80,849,222,-132
3850,-16,-270,-80,847,197,-132
3855,-16,-272,-80,839,169,-132
3860,-15,-268,-75,829,139,-133
3865,-17,-267,-75,816,117,-135
3870,-17,-265,-73,805,93,-137
3875,-17,-267,-72,798,77,-138
3880,-11,-265,-71,791,65,-139
3885,-17,-269,-69,786,54,-137
3890,-6,-266,-67,782,46,-135
3895,-7,-269,-64,784,40,-130
3900,0,-270,-66,788,36,-126
3905,-3,-268,-65,793,37,-124
3910,-3,-268,-63,801,37,-125
3915,4,-267,-62,811,43,-128
3920,-4,-255,-69,830,46,-140
3925,-8,-254,-68,852,39,-153
3930,-3,-264,-67,868,40,-159
3935,1,-284,-60,884,75,-157
3940,-5,-300,-40,921,142,-157
3945,-1,-320,-31,980,204,-162
3950,3,-328,-34,1027,254,-163
3955,4,-335,-36,1071,293,-154
3960,4,-352,-30,1115,320,-141
3965,4,-359,-28,1167,336,-124
3970,4,-369,-26,1222,347,-108
3975,3,-373,-32,1277,357,-95
3980,0,-372,-39,1332,374,-94
3985,-5,-377,-45,1379,398,-93
3990,3,-370,-43,1404,432,-103
3995,2,-362,-55,1408,470,-125
4000,4,-353,-57,1386,511,-154
4005,4,-341,-50,1349,550,-177
4010,6,-325,-44,1310,581,-193
4015,9,-313,-40,1279,600,-200
4020,12,-295,-36,1266,609,-208
4025,11,-285,-32,1257,615,-215
4030,7,-273,-32,1255,610,-224
4035,9,-260,-36,1256,605,-216
4040,6,-243,-25,1243,591,-213
4045,11,-231,-24,1218,568,-206
4050,7,-216,-17,1188,553,-202
4055,0,-216,-20,1152,530,-195
4060,-1,-193,4,1108,511,-189
4065,-5,-188,3,1058,463,-179
4070,-5,-187,6,1011,415,-168
4075,-6,-196,6,941,373,-158
4080,-8,-190,31,879,345,-144
4085,-4,-196,28,837,304,-130
4090,-6,-201,34,803,273,-124
4095,-8,-216,47,777,257,-113
4100,-15,-229,47,775,249,-101
4105,-8,-241,45,794,251,-97
4110,-4,-251,60,805,272,-92
4115,-12,-269,45,825,300,-86
4120,-15,-275,65,840,350,-78
4125,-12,-294,66,872,393,-64
4130,-8,-306,74,935,425,-44
4135,-3,-310,78,1028,450,-21
4140,-2,-314,86,1133,470,1
4145,7,-315,87,1257,485,22
4150,6,-314,86,1388,497,33
4155,15,-306,85,1519,505,42
4160,15,-297,85,1636,510,53
4165,19,-289,78,1730,508,66
4170,14,-278,76,1785,500,75
4175,24,-274,68,1792,483,92
4180,24,-261,65,1756,460,104
4185,25,-248,63,1680,425,110
4190,22,-242,65,1569,383,107
4195,23,-237,59,1438,342,104
4200,19,-232,60,1295,299,96
4205,12,-228,63,1142,252,89
4210,10,-227,61,991,203,84
4215,6,-228,64,852,157,79
4220,4,-229,68,728,110,78
4225,0,-230,72,629,69,77
4230,1,-234,73,558,36,76
4235,0,-237,74,503,6,74
4240,-8,-236,70,446,-38,73
4245,-9,-239,74,399,-75,75
4250,-11,-239,73,376,-95,78
4255,-12,-241,77,371,-104,84
4260,-12,-242,81,373,-107,86
4265,-14,-246,83,378,-107,89
4270,-16,-244,79,381,-99,91
4275,-18,-243,87,373,-86,90
4280,-17,-246,87,356,-69,89
4285,-18,-244,89,329,-53,88
4290,-16,-245,87,295,-40,89
4295,-12,-246,89,266,-29,88
4300,-14,-242,91,229,-20,90
4305,-14,-245,94,200,-16,90
4310,-14,-241,96,180,-12,92
4315,-9,-251,93,170,-11,94
4320,-12,-245,99,170,-9,98
4325,-9,-241,100,174,-11,98
4330,-7,-243,97,182,-12,97
4335,-7,-243,94,190,-14,94
4340,-9,-242,91,192,-15,92
4345,-8,-241,92,188,-15,88
4350,-6,-240,91,182,-15,82
4355,-6,-242,90,167,-14,75
4360,-6,-240,94,153,-16,71
4365,-9,-242,92,133,-14,65
4370,-6,-241,94,112,-12,60
4375,-6,-244,89,89,-5,54
4380,-6,-243,93,65,5,47
4385,-8,-241,94,43,18,41
4390,-6,-246,97,24,30,37
4395,-6,-246,96,13,41,33
4400,-8,-246,99,5,49,29
4405,-3,-247,96,0,52,26
4410,-6,-247,98,0,50,26
4415,-8,-244,96,-5,47,25
4420,-6,-242,95,-9,39,24
4425,-1,-246,93,-18,33,24
4430,-5,-245,93,-31,24,26
4435,-2,-243,89,-43,18,24
4440,-4,-242,87,-54,14,24
4445,-4,-244,84,-64,15,22
4450,-4,-241,86,-71,22,21
4455,-5,-245,85,-79,30,20
4460,-1,-243,89,-89,40,19
4465,-1,-246,89,-98,50,16
4470,2,-246,86,-108,59,13
4475,0,-250,93,-115,68,11
4480,3,-246,92,-121,75,8
4485,4,-251,89,-122,82,8
4490,1,-251,93,-120,87,6
4495,5,-254,89,-120,89,6
4500,6,-254,88,-119,90,6
4505,5,-253,87,-115,87,7
4510,5,-256,87,-112,78,8
4515,5,-256,87,-105,68,11
4520,4,-257,83,-99,54,15
4525,3,-256,81,-92,42,18
4530,2,-256,79,-88,33,25
4535,-3,-256,78,-82,26,32
4540,1,-255,74,-75,23,43
4545,2,-255,75,-71,25,53
4550,4,-256,75,-70,30,60
4555,1,-258,74,-72,29,63
4560,2,-258,69,-79,19,62
4565,-2,-259,69,-87,9,58
4570,-1,-260,70,-94,3,54
4575,-2,-258,67,-102,-2,50
4580,-1,-260,70,-108,-5,49
4585,-4,-261,70,-116,-3,48
4590,-5,-261,66,-121,0,46
4595,-4,-261,64,-130,4,44
4600,-2,-261,70,-137,8,42
4605,-3,-259,66,-145,16,38
4610,-3,-261,66,-148,26,34
4615,-3,-260,61,-150,39,31
4620,-1,-260,63,-149,52,28
4625,-5,-262,63,-150,65,23
4630,-4,-261,66,-152,77,17
4635,-2,-259,64,-155,87,13
4640,-8,-258,60,-158,95,7
4645,-2,-261,63,-158,98,2
4650,-4,-261,62,-155,102,-3
4655,-2,-259,63,-145,105,-5
4660,-3,-259,63,-133,108,-6
4665,0,-259,63,-118,109,-8
4670,1,-260,63,-103,110,-9
4675,-1,-259,61,-89,112,-7
4680,4,-259,61,-75,111,-7
4685,2,-261,64,-64,110,-2
4690,4,-262,62,-55,108,1
4695,1,-260,61,-49,105,8
4700,0,-259,61,-45,100,13
4705,-4,-259,61,-42,93,20
4710,0,-262,63,-40,89,27
4715,-5,-263,63,-36,82,34
4720,-5,-265,65,-29,78,41
4725,-2,-267,68,-21,75,46
4730,-4,-269,66,-11,70,48
4735,-5,-264,67,1,68,51
4740,-4,-267,67,13,65,51
4745,-8,-268,65,24,63,50
4750,-8,-259,69,32,61,50
4755,-6,-263,67,36,60,48
4760,-5,-265,64,37,59,46
4765,-8,-262,64,34,60,41
4770,-8,-263,66,31,61,37
4775,-7,-262,65,28,62,33
4780,-7,-263,66,23,65,27
4785,-7,-259,66,20,68,21
4790,-14,-261,65,16,70,16
4795,-9,-262,70,13,73,10
4800,-10,-261,67,12,76,5
4805,-9,-261,69,13,80,0
4810,-11,-258,71,14,82,-3
4815,-12,-256,70,15,84,-7
4820,-8,-254,71,16,85,-8
4825,-10,-256,69,16,87,-10
4830,-10,-255,68,15,88,-12
4835,-8,-255,72,14,90,-13
4840,-11,-252,69,15,93,-13
4845,-9,-253,77,17,91,-10
4850,-10,-255,75,21,86,-6
4855,-11,-253,77,26,77,-3
4860,-9,-252,80,34,65,0
4865,-7,-254,79,42,55,3
4870,-8,-252,78,50,49,6
4875,-6,-253,78,56,44,8
4880,-6,-252,76,58,43,9
4885,-6,-255,77,54,43,8
4890,-5,-255,73,45,48,7
4895,-8,-254,74,33,54,8
4900,-5,-254,75,21,59,6
4905,-6,-254,76,10,65,3
4910,-6,-254,76,1,69,0
4915,-6,-255,75,-2,72,-1
4920,-5,-256,72,-4,76,-4
4925,-4,-257,73,-1,80,-8
4930,-8,-255,72,2,82,-9
4935,-3,-260,72,3,83,-12
4940,-8,-255,72,3,81,-14
4945,-6,-257,69,0,77,-15
4950,-4,-258,69,-1,75,-17
4955,-5,-256,70,-3,71,-17
4960,-8,-259,70,-5,69,-17
4965,-5,-257,68,-4,69,-17
4970,-5,-256,72,-3,68,-16
4975,-8,-256,73,-2,69,-15
4980,-8,-258,73,-1,70,-14
4985,-5,-256,69,-2,72,-13
4990,-8,-257,71,-2,70,-11
4995,-5,-259,72,-4,69,-10
5000,-9,-257,73,-3,67,-10
5005,-4,-255,68,-2,65,-10
5010,-4,-258,66,-3,60,-8
5015,-4,-257,71,-2,56,-8
5020,-6,-257,71,-3,54,-9
5025,-4,-256,69,-3,53,-8
5030,-4,-257,71,-2,54,-10
5035,-4,-259,69,-1,53,-9
5040,-7,-257,67,3,53,-7
5045,-3,-258,69,8,51,-7
5050,-6,-258,72,12,52,-6
5055,-3,-260,74,16,54,-5
5060,-4,-258,72,17,57,-6
5065,-5,-259,69,19,59,-5
5070,-3,-257,73,20,61,-5
5075,-1,-258,73,22,63,-3
5080,-4,-256,74,23,67,-2
5085,-2,-256,70,24,65,-3
5090,-1,-255,70,26,64,-4
5095,-2,-256,72,26,61,-5
5100,-2,-255,72,26,60,-5
5105,-1,-256,70,26,57,-6
5110,-3,-257,72,24,58,-8
5115,-4,-255,71,24,60,-8
5120,-7,-256,73,23,60,-5
5125,-4,-258,77,23,59,-4
5130,-4,-256,75,24,57,-4
5135,-6,-255,76,24,54,-2
5140,-3,-258,77,25,51,-2
5145,-5,-255,77,26,50,-1
5150,-6,-255,73,24,49,-1
5155,-3,-256,77,22,52,-2
5160,-5,-256,72,18,59,-4
5165,-6,-255,75,13,64,-8
5170,-4,-257,73,6,71,-10
5175,-4,-254,73,-2,75,-12
5180,-3,-256,76,-6,78,-13
5185,-5,-257,72,-11,81,-15
5190,-3,-255,73,-12,83,-16
5195,-3,-259,74,-13,82,-15
5200,-6,-255,71,-13,79,-14
5205,-3,-256,71,-12,76,-11
5210,-5,-255,76,-11,74,-11
5215,-5,-252,74,-10,72,-11
5220,-6,-254,76,-9,69,-10
5225,-2,-257,74,-7,67,-10
5230,-2,-256,77,-5,63,-10
5235,-5,-256,74,-2,63,-11
5240,-3,-257,75,1,65,-11
5245,-4,-256,76,3,67,-11
5250,-3,-256,73,2,69,-12
5255,-5,-253,78,-2,70,-14
5260,-3,-257,73,-7,73,-15
5265,-2,-258,77,-11,73,-14
5270,0,-258,78,-13,73,-11
5275,-7,-255,79,-14,73,-11
5280,-1,-253,75,-14,71,-10
5285,-6,-254,73,-14,66,-10
5290,-4,-257,74,-13,60,-8
5295,-8,-254,74,-13,58,-10
5300,-5,-255,73,-14,57,-9
5305,-5,-255,71,-15,58,-9
5310,-2,-257,73,-22,61,-10
5315,-2,-258,76,-26,65,-9
5320,-4,-256,71,-31,67,-9
5325,-2,-257,73,-35,68,-9
5330,-3,-260,77,-37,68,-8
5335,-4,-255,75,-37,71,-7
5340,-1,-256,75,-33,71,-6
5345,-7,-257,72,-30,72,-6
5350,-4,-257,78,-26,72,-6
5355,-2,-258,75,-23,72,-7
5360,-4,-256,75,-24,70,-6
5365,-3,-256,71,-23,72,-7
5370,-3,-257,72,-26,72,-7
5375,-2,-257,72,-31,72,-7
5380,-4,-256,70,-33,72,-7
5385,-4,-254,71,-36,72,-6
5390,-4,-256,70,-37,73,-5
5395,-3,-258,71,-36,72,-4
5400,-6,-261,73,-33,71,-4
5405,-5,-256,72,-29,70,-3
5410,-3,-258,72,-25,71,-3
5415,-8,-257,73,-20,71,-3
5420,-2,-258,73,-16,73,0
5425,-4,-259,73,-12,74,2
5430,-6,-257,72,-10,74,3
5435,-3,-257,72,-8,71,3
5440,-4,-256,70,-6,70,6
5445,-4,-256,73,-7,68,6
5450,-4,-255,71,-8,67,7
5455,-3,-256,74,-10,65,8
5460,-4,-254,69,-11,67,7
5465,-7,-255,72,-11,66,7
5470,-4,-257,72,-9,65,6
5475,-6,-256,75,-7,64,4
5480,-3,-257,70,-4,63,4
5485,-1,-254,71,-1,63,1
5490,-4,-257,71,0,64,0
5495,0,-258,76,2,64,-2
5500,-3,-257,67,3,67,-3
5505,-2,-259,77,4,69,-3
5510,-5,-256,71,2,74,-4
5515,-5,-254,71,1,77,-3
5520,-5,-256,74,-2,80,-4
5525,-5,-257,77,-6,81,-4
5530,-5,-255,73,-7,84,-5
5535,-2,-257,76,-8,84,-6
5540,-7,-257,73,-8,82,-7
5545,-3,-257,73,-6,79,-8
5550,-6,-256,75,-5,78,-7
5555,-4,-256,72,-4,75,-6
5560,-2,-256,73,-4,74,-5
5565,-4,-257,73,-5,74,-5
5570,-5,-258,74,-5,73,-4
5575,-2,-255,69,-5,72,-3
5580,-3,-255,75,-7,73,-3
5585,-4,-257,75,-7,72,-3
5590,-7,-256,76,-6,73,-4
5595,-4,-256,74,-5,71,-4
5600,-4,-255,76,-2,71,-4
5605,-9,-257,70,1,71,-4
5610,-3,-257,72,2,71,-5
5615,-4,-256,72,5,74,-6
5620,-5,-255,74,4,76,-7
5625,-6,-253,72,4,79,-10
5630,-6,-253,71,2,80,-7
5635,-5,-254,72,-1,79,-9
5640,-6,-257,71,-3,76,-8
5645,-2,-257,76,-4,73,-7
5650,-6,-254,74,-5,69,-6
5655,-7,-254,75,-5,64,-3
5660,-6,-255,74,-5,61,-3
5665,-5,-256,77,-5,60,-2
5670,-4,-256,75,-4,60,-1
5675,0,-257,75,-7,61,-1
5680,-4,-256,71,-9,61,-1
5685,-5,-256,78,-12,65,-3
5690,-5,-256,74,-13,66,-4
5695,-4,-255,71,-15,68,-4
5700,-4,-257,77,-15,66,-5
5705,-2,-255,74,-13,67,-7
5710,-4,-257,72,-9,67,-6
5715,-7,-266,73,-4,69,-7
5720,-4,-256,72,1,69,-7
5725,-8,-255,73,4,72,-6
5730,-7,-256,72,6,74,-7
5735,-5,-256,72,6,74,-5
5740,-4,-257,72,6,74,-5
5745,-6,-255,75,6,72,-5
5750,-7,-256,73,6,71,-3
5755,-3,-255,73,8,69,-3
5760,-7,-257,80,9,67,-1
5765,-6,-258,74,10,65,-1
5770,-3,-256,77,11,64,1
5775,-4,-257,74,12,62,2
5780,-5,-256,79,12,61,5
5785,-2,-256,75,11,62,6
5790,-6,-256,73,8,63,5
5795,-5,-255,73,3,65,4
5800,0,-255,75,-2,66,3
5805,-5,-255,74,-7,68,1
5810,-4,-256,71,-11,67,1
5815,-1,-258,74,-17,70,-1
5820,-4,-256,79,-20,70,0
5825,-5,-256,75,-20,71,-1
5830,-5,-256,76,-20,70,-1
5835,-6,-256,79,-16,71,-2
5840,-6,-256,78,-12,71,-1
5845,-6,-260,79,-8,72,-1
5850,-7,-256,77,-4,70,0
5855,-5,-258,78,-2,68,-1
5860,-4,-255,75,-1,64,0
5865,-5,-256,73,-3,61,-1
5870,-9,-255,76,-2,58,1
5875,-8,-256,75,-3,53,2
5880,-5,-256,72,-3,49,2
5885,-4,-259,73,-4,47,1
5890,-2,-256,74,-2,47,2
5895,-4,-258,74,1,48,1
5900,-4,-259,76,3,48,2
5905,-5,-257,73,4,51,1
5910,-4,-255,71,8,54,1
5915,-7,-254,77,9,56,0
5920,-4,-256,75,8,59,-1
5925,-3,-256,74,8,62,-1
5930,-6,-254,72,7,65,-2
5935,-5,-256,78,5,65,-1
5940,-3,-255,76,6,65,-2
5945,-2,-257,76,6,66,-3
5950,-6,-255,76,10,64,-2
5955,-6,-254,75,13,59,-2
5960,-4,-256,77,15,56,-2
5965,-1,-257,75,20,55,-2
5970,-3,-258,77,22,54,-3
5975,-5,-255,77,24,57,-4
5980,-3,-256,73,22,62,-4
5985,-4,-255,72,20,65,-5
5990,-5,-255,74,16,69,-5
5995,0,-255,74,11,71,-5
6000,-4,-253,75,2,72,-4
6005,-6,-255,75,-5,71,-3
6010,-5,-256,77,-10,67,-2
6015,-4,-255,79,-12,65,-2
6020,-6,-255,78,-11,63,0
6025,-5,-257,79,-8,59,0
6030,-5,-257,77,-3,59,0
6035,-6,-256,76,0,56,1
6040,-5,-249,73,1,55,0
6045,-4,-256,76,3,53,1
6050,-3,-256,75,1,54,2
6055,-3,-256,74,0,54,1
6060,-3,-256,73,-1,54,0
6065,-3,-258,72,-3,55,0
6070,-5,-257,80,-4,55,-2
6075,-5,-257,76,-3,55,-4
6080,-8,-257,80,-4,56,-5
6085,-2,-256,73,-2,57,-5
6090,-6,-255,77,-3,59,-4
6095,0,-255,75,-2,62,-5
6100,-3,-255,79,-7,63,-6
6105,-5,-256,82,-9,63,-6
6110,-6,-255,78,-10,65,-6
6115,-6,-254,76,-10,66,-6
6120,-4,-259,76,-9,68,-5
6125,-4,-257,76,-7,69,-5
6130,-5,-256,75,-6,70,-5
6135,-6,-255,74,-4,71,-5
6140,-2,-256,76,-3,71,-5
6145,-4,-251,77,-3,70,-6
6150,-1,-255,76,-4,71,-3
6155,-4,-256,76,-6,70,-2
6160,-4,-252,75,-8,68,0
6165,-3,-256,78,-11,67,0
6170,-4,-255,73,-13,66,1
6175,-5,-255,75,-14,64,3
6180,-1,-256,77,-15,63,3
6185,-5,-255,76,-17,63,3
6190,-4,-257,77,-16,65,3
6195,-4,-257,79,-15,64,4
6200,-7,-256,78,-14,65,4
6205,-4,-256,79,-13,67,3
6210,-5,-256,78,-12,67,2
6215,-4,-256,82,-12,67,0
6220,-5,-255,77,-12,66,-2
6225,-6,-256,77,-12,67,-2
6230,-5,-254,77,-11,65,-3
6235,-5,-253,77,-8,64,-4
6240,-5,-255,77,-8,64,-4
6245,-3,-257,77,-7,64,-3
6250,-6,-255,75,-6,64,-4
6255,-6,-255,71,-6,64,-2
6260,-5,-256,74,-6,63,-1
6265,-5,-256,79,-7,65,-2
6270,-5,-256,77,-8,66,-2
6275,-4,-255,77,-9,67,-1
6280,-1,-255,75,-11,68,-1
6285,-5,-256,76,-12,65,-2
6290,-5,-258,79,-13,65,-2
6295,-2,-255,75,-13,64,-2
6300,-5,-255,78,-12,63,-1
6305,-3,-254,81,-10,65,-1
6310,-3,-253,75,-6,66,-2
6315,-4,-256,72,-4,67,-2
6320,-4,-255,77,-3,68,-3
6325,-4,-253,76,-3,67,-2
6330,0,-256,76,-3,65,-1
6335,-6,-256,76,-3,65,-2
6340,-7,-254,74,-4,64,-3
6345,-5,-256,77,-5,66,-3
6350,-5,-256,79,-4,66,-3
6355,-6,-255,78,-3,67,-4
6360,-3,-255,77,-3,69,-3
6365,-1,-253,77,-3,71,-5
6370,-4,-260,78,-3,74,-4
6375,-4,-256,77,-5,74,-6
6380,-4,-257,75,-9,76,-5
6385,-1,-255,76,-14,78,-5
6390,-2,-257,76,-19,79,-6
6395,-2,-256,75,-23,77,-5
6400,3,-253,79,-24,75,-4
6405,1,-258,72,-24,73,-2
6410,-1,-256,77,-23,73,-2
6415,-2,-256,77,-22,73,-1
6420,-5,-259,74,-22,76,0
6425,-3,-255,74,-23,76,2
6430,-3,-255,78,-24,77,3
6435,-3,-254,76,-25,77,5
6440,-4,-255,77,-25,80,7
6445,-4,-256,76,-26,81,6
6450,-2,-255,80,-27,83,7
6455,-4,-255,75,-28,83,7
6460,0,-258,78,-31,80,7
6465,-4,-253,78,-35,73,9
6470,-2,-255,72,-39,67,11
6475,-5,-255,80,-43,59,12
6480,-8,-256,76,-48,52,15
6485,-6,-256,76,-53,47,19
6490,-6,-258,75,-59,43,19
6495,-6,-257,71,-66,39,21
6500,-10,-257,77,-72,36,23
6505,-12,-256,74,-77,33,23
6510,-9,-259,77,-76,31,22
6515,-10,-260,70,-72,29,22
6520,-11,-261,73,-63,28,21
6525,-10,-258,73,-54,27,18
6530,-13,-257,68,-45,32,14
6535,-10,-257,72,-38,39,10
6540,-11,-259,71,-34,44,4
6545,-9,-258,71,-30,52,0
6550,-9,-258,66,-26,55,-5
6555,-12,-255,72,-22,58,-10
6560,-10,-259,70,-19,61,-14
6565,-10,-259,70,-14,63,-20
6570,-7,-259,75,-9,66,-23
6575,-9,-258,71,-5,69,-30
6580,-10,-260,69,-3,73,-33
6585,-6,-257,69,-1,77,-35
6590,-9,-257,68,-3,79,-40
6595,-8,-257,68,-3,83,-43
6600,-10,-257,68,1,87,-46
6605,-4,-259,72,9,92,-51
6610,-3,-259,75,21,99,-55
6615,-3,-259,73,36,104,-58
6620,-3,-258,71,52,109,-62
6625,-2,-256,74,64,114,-65
6630,-1,-258,72,74,114,-65
6635,0,-255,74,80,114,-64
6640,0,-255,76,80,112,-62
6645,2,-257,76,76,110,-59
6650,0,-255,77,66,109,-57
6655,0,-255,74,53,106,-52
6660,4,-254,78,40,107,-45
6665,2,-254,79,29,104,-41
6670,0,-255,73,22,106,-36
6675,4,-255,74,15,107,-30
6680,4,-253,78,12,104,-25
6685,4,-257,79,12,102,-20
6690,2,-255,74,13,98,-14
6695,4,-255,76,18,96,-10
6700,1,-255,77,19,93,-9
6705,4,-252,74,18,90,-7
6710,2,-251,81,14,88,-6
6715,3,-251,74,4,88,-6
6720,3,-247,72,-16,85,-5
6725,1,-244,77,-40,85,-4
6730,-1,-245,71,-69,82,-3
6735,0,-243,71,-101,80,-4
6740,-1,-242,77,-132,76,-4
6745,-2,-244,74,-162,76,-4
6750,-2,-245,75,-187,77,-5
6755,-5,-246,76,-210,82,-5
6760,-4,-245,76,-228,88,-5
6765,-4,-246,79,-242,94,-7
6770,-7,-249,80,-255,100,-9
6775,-7,-251,77,-264,105,-9
6780,-9,-251,81,-269,111,-8
6785,-8,-253,77,-274,119,-7
6790,-7,-253,78,-279,128,-7
6795,-5,-253,82,-286,138,-7
6800,-8,-254,78,-293,147,-10
6805,-7,-255,77,-303,155,-14
6810,-7,-257,77,-313,159,-19
6815,-7,-258,79,-328,160,-22
6820,-6,-257,77,-344,158,-26
6825,-5,-256,76,-364,153,-33
6830,-7,-255,72,-390,145,-36
6835,-4,-254,73,-420,137,-37
6840,-7,-254,72,-457,126,-39
6845,-7,-249,72,-497,116,-41
6850,-6,-247,72,-539,107,-43
6855,-6,-244,72,-581,99,-51
6860,-7,-243,75,-623,98,-60
6865,-7,-243,72,-661,99,-69
6870,-10,-245,79,-695,99,-78
6875,-11,-242,76,-721,102,-86
6880,-9,-244,79,-745,104,-93
6885,-8,-246,78,-768,105,-97
6890,-6,-250,77,-788,104,-98
6895,-8,-248,78,-802,104,-97
6900,-6,-252,73,-810,109,-97
6905,-2,-254,80,-813,118,-95
6910,-4,-256,79,-809,135,-89
6915,3,-260,76,-796,156,-84
6920,2,-258,83,-786,177,-78
6925,4,-264,88,-774,202,-73
6930,3,-261,90,-762,221,-64
6935,3,-262,91,-758,240,-56
6940,-1,-256,94,-764,246,-49
6945,-1,-255,84,-778,234,-42
6950,2,-256,77,-809,201,-34
6955,-2,-255,69,-856,149,-26
6960,-1,-257,59,-916,84,-14
6965,1,-259,48,-976,33,-9
6970,1,-261,42,-1031,7,-14
6975,0,-267,48,-1075,1,-25
6980,2,-285,29,-1114,9,-33
6985,-10,-276,33,-1152,21,-48
6990,-1,-277,39,-1175,34,-67
6995,-18,-288,33,-1182,44,-88
7000,-7,-285,34,-1187,52,-106
7005,-1,-292,28,-1190,59,-110
7010,-5,-282,36,-1196,67,-122
7015,-10,-288,29,-1199,64,-119
7020,-16,-291,38,-1199,52,-107
7025,-11,-294,33,-1192,25,-73
7030,-4,-293,31,-1181,-5,-51
7035,-10,-295,27,-1175,-28,-28
7040,-3,-303,22,-1171,-40,-1
7045,-8,-306,18,-1163,-36,26
7050,-3,-310,14,-1153,-21,44
7055,-6,-314,19,-1133,0,55
7060,0,-309,16,-1104,14,66
7065,9,-311,8,-1080,25,72
7070,4,-305,3,-1068,48,63
7075,6,-307,4,-1061,76,63
7080,4,-302,3,-1055,98,65
7085,5,-298,-3,-1049,110,70
7090,5,-295,-1,-1047,114,72
7095,6,-295,-2,-1040,115,74
7100,4,-294,-4,-1026,119,75
7105,3,-289,-7,-1014,123,73
7110,4,-294,-9,-1004,128,69
7115,5,-292,-12,-999,138,67
7120,2,-293,-17,-995,146,64
7125,3,-294,-19,-994,152,63
7130,1,-296,-17,-993,155,64
7135,1,-296,-20,-995,156,65
7140,-3,-299,-19,-998,155,63
7145,-5,-297,-18,-1001,152,59
7150,-4,-300,-21,-1007,143,49
7155,-5,-301,-19,-1015,134,41
7160,-6,-304,-21,-1029,119,33
7165,-7,-305,-20,-1044,107,29
7170,-4,-305,-25,-1064,98,25
7175,-4,-307,-27,-1091,93,22
7180,-3,-306,-31,-1129,87,23
7185,-3,-303,-41,-1168,83,20
7190,-3,-304,-44,-1204,74,22
7195,-6,-304,-45,-1230,64,25
7200,-3,-304,-50,-1244,47,23
7205,-4,-308,-48,-1248,28,21
7210,-6,-308,-47,-1247,12,10
7215,-9,-307,-52,-1242,-1,-2
7220,0,-305,-53,-1239,-13,-18
7225,-6,-306,-56,-1237,-22,-34
7230,-5,-308,-60,-1237,-22,-48
7235,-6,-308,-65,-1242,-13,-54
7240,-4,-311,-66,-1246,-2,-56
7245,0,-312,-69,-1250,6,-53
7250,4,-315,-73,-1249,11,-46
7255,3,-312,-78,-1245,13,-40
7260,4,-307,-77,-1241,16,-35
7265,4,-304,-78,-1234,22,-25
7270,-1,-304,-78,-1227,29,-10
7275,0,-300,-74,-1221,36,3
7280,-1,-293,-77,-1216,42,16
7285,-3,-289,-78,-1213,47,23
7290,-6,-286,-81,-1212,55,29
7295,-6,-280,-80,-1211,65,32
7300,-8,-272,-86,-1206,70,35
7305,-9,-265,-88,-1201,75,37
7310,-7,-263,-89,-1193,75,40
7315,-10,-259,-94,-1178,74,40
7320,-9,-254,-102,-1160,72,40
7325,-13,-254,-105,-1143,71,39
7330,-17,-249,-101,-1124,64,37
7335,-16,-249,-101,-1108,52,37
7340,-18,-245,-105,-1090,36,37
7345,-18,-243,-105,-1067,23,41
7350,-18,-243,-103,-1040,14,43
7355,-18,-239,-104,-1004,10,45
7360,-16,-237,-105,-967,4,52
7365,-15,-233,-103,-939,0,58
7370,-17,-231,-104,-904,-3,60
7375,-13,-227,-100,-863,-3,60
7380,-10,-229,-96,-824,-4,55
7385,-21,-212,-98,-788,-3,54
7390,-12,-220,-97,-762,-5,66
7395,-15,-220,-93,-746,-5,67
7400,-13,-226,-89,-729,-6,75
7405,-7,-215,-89,-690,-9,87
7410,-4,-223,-90,-647,-11,71
7415,-19,-218,-85,-612,-9,60
7420,-9,-224,-85,-575,-16,72
7425,-13,-223,-90,-532,-24,70
7430,-6,-224,-91,-488,-28,69
7435,-1,-226,-83,-452,-31,58
7440,-10,-229,-85,-406,-35,46
7445,3,-233,-81,-348,-43,48
7450,-8,-239,-82,-289,-55,41
7455,-7,-244,-81,-235,-68,45
7460,-6,-246,-83,-176,-85,62
7465,-8,-254,-80,-100,-106,73
7470,-2,-253,-75,0,-128,93
7475,-10,-258,-86,104,-146,107
7480,-6,-260,-88,209,-158,126
7485,-3,-265,-90,324,-172,134
7490,-6,-261,-92,451,-182,139
7495,-11,-267,-89,573,-185,144
7500,-13,-256,-87,688,-178,144
7505,-13,-261,-98,795,-161,149
7510,-9,-255,-96,884,-132,147
7515,-8,-254,-107,946,-96,134
7520,-3,-245,-109,973,-46,120
7525,-10,-237,-117,962,18,116
7530,-17,-239,-128,914,67,99
7535,-13,-229,-120,817,87,80
7540,-7,-226,-118,699,87,64
7545,-10,-228,-113,576,69,56
7550,-10,-234,-105,474,40,52
7555,-8,-241,-90,397,12,53
7560,-7,-247,-83,355,4,55
7565,-6,-252,-75,355,20,55
7570,-6,-258,-70,384,48,52
7575,-9,-257,-71,430,70,47
7580,-11,-260,-68,477,81,45
7585,-11,-261,-69,518,81,48
7590,-10,-260,-78,551,77,53
7595,-9,-264,-81,566,70,56
7600,-7,-259,-88,576,64,58
7605,-4,-259,-87,575,62,61
7610,-2,-258,-91,561,59,64
7615,-5,-260,-92,541,55,67
7620,-7,-257,-92,517,48,72
7625,-6,-261,-96,487,41,76
7630,-8,-264,-95,458,29,77
7635,-8,-260,-94,432,14,75
7640,-7,-266,-92,413,2,73
7645,-10,-263,-91,400,-4,70
7650,-14,-272,-92,389,-8,62
7655,-11,-270,-93,380,-7,51
7660,-10,-271,-96,368,-7,40
7665,-13,-271,-96,356,-4,26
7670,-13,-266,-97,342,4,13
7675,-15,-267,-97,330,16,8
7680,-11,-270,-96,314,27,0
7685,-13,-266,-98,294,40,-12
7690,-12,-264,-101,267,55,-25
7695,-11,-264,-95,233,72,-34
7700,-14,-263,-99,194,91,-41
7705,-13,-266,-92,150,107,-42
7710,-20,-262,-90,105,114,-45
7715,-18,-264,-89,57,110,-47
7720,-20,-265,-85,7,98,-44
7725,-19,-261,-83,-46,81,-44
7730,-21,-261,-86,-95,68,-41
7735,-18,-259,-86,-139,67,-34
7740,-19,-258,-84,-186,75,-29
7745,-17,-256,-89,-233,84,-26
7750,-15,-254,-93,-281,96,-28
7755,-16,-254,-86,-332,106,-28
7760,-18,-254,-86,-379,112,-28
7765,-15,-253,-91,-417,114,-29
7770,-11,-255,-93,-448,115,-29
7775,-12,-253,-92,-474,118,-31
7780,-9,-256,-90,-494,123,-36
7785,-12,-254,-92,-508,123,-41
7790,-8,-254,-87,-522,120,-47
7795,-7,-255,-87,-532,115,-49
7800,-7,-254,-88,-540,106,-51
7805,-6,-253,-89,-546,96,-53
7810,-8,-250,-85,-551,89,-55
7815,-8,-250,-85,-553,86,-55
7820,-10,-247,-80,-549,89,-57
7825,-10,-246,-77,-543,93,-62
7830,-8,-249,-78,-535,104,-67
7835,-11,-247,-75,-525,119,-71
7840,-9,-247,-76,-517,130,-73
7845,-13,-246,-73,-507,136,-75
7850,-13,-244,-75,-497,137,-74
7855,-10,-246,-76,-485,129,-68
7860,-13,-244,-79,-474,118,-64
7865,-11,-241,-83,-466,106,-53
7870,-10,-244,-83,-459,98,-40
7875,-10,-241,-86,-455,91,-31
7880,-13,-242,-88,-457,90,-23
7885,-8,-239,-86,-456,96,-15
7890,-10,-242,-87,-454,108,-13
7895,-10,-239,-91,-446,125,-14
7900,-11,-242,-90,-434,143,-17
7905,-10,-239,-87,-417,162,-20
7910,-11,-236,-89,-396,176,-21
7915,-11,-235,-81,-371,185,-21
7920,-11,-236,-86,-343,190,-21
7925,-11,-235,-84,-314,190,-18
7930,-7,-236,-80,-284,188,-16
7935,-8,-232,-80,-252,183,-14
7940,-8,-236,-81,-223,175,-11
7945,-9,-235,-80,-195,165,-7
7950,-9,-232,-77,-166,155,-4
7955,-10,-234,-82,-137,147,-3
7960,-9,-235,-78,-109,143,-5
7965,-11,-237,-80,-81,135,-3
7970,-13,-236,-77,-53,127,-2
7975,-18,-235,-89,-26,122,-3
7980,-10,-238,-81,-1,117,-2
7985,-13,-239,-79,21,116,-2
7990,-9,-238,-81,44,116,-2
7995,-9,-239,-82,63,119,0
8000,-9,-237,-87,78,122,2
8005,-12,-239,-86,93,122,6
8010,-12,-238,-87,107,121,7
8015,-12,-239,-86,123,120,10
8020,-11,-237,-90,138,120,13
8025,-11,-237,-90,156,122,15
8030,-10,-237,-87,176,126,17
8035,-8,-237,-88,197,132,18
8040,-7,-234,-90,225,138,15
8045,-4,-232,-85,254,144,13
8050,-7,-233,-80,284,153,11
8055,-5,-230,-79,313,163,8
8060,-6,-226,-82,332,169,4
8065,-7,-223,-80,350,175,-1
8070,-4,-224,-78,366,177,-4
8075,-4,-223,-81,374,174,-8
8080,-3,-216,-88,374,170,-8
8085,-5,-217,-82,369,162,-6
8090,-3,-216,-80,359,155,-6
8095,-4,-213,-81,349,150,-6
8100,-4,-211,-81,341,144,-8
8105,-2,-210,-77,332,141,-8
8110,-5,-208,-76,322,138,-10
8115,-7,-205,-78,316,136,-8
8120,-7,-206,-80,309,129,-6
8125,-4,-206,-77,305,124,-6
8130,-8,-204,-77,299,123,-7
8135,-9,-199,-76,289,119,-7
8140,-11,-201,-76,280,115,-4
8145,-11,-200,-77,271,108,-5
8150,-10,-198,-77,265,100,-2
8155,-11,-199,-78,265,90,-1
8160,-11,-197,-77,268,83,2
8165,-12,-195,-78,275,80,3
8170,-11,-192,-70,283,77,4
8175,-15,-194,-75,292,78,6
8180,-8,-191,-72,299,80,7
8185,-9,-191,-76,305,82,5
8190,-10,-189,-65,307,83,3
8195,-13,-187,-71,304,83,-2
8200,-14,-187,-72,297,81,-4
8205,-13,-185,-69,289,80,-6
8210,-13,-182,-67,278,81,-11
8215,-15,-183,-74,270,83,-12
8220,-10,-182,-69,261,83,-16
8225,-12,-181,-70,249,81,-20
8230,-13,-181,-73,233,74,-24
8235,-9,-184,-80,212,67,-28
8240,-12,-179,-79,187,60,-29
8245,-10,-181,-83,163,54,-30
8250,-7,-181,-83,138,54,-31
8255,-8,-184,-82,114,56,-31
8260,-6,-189,-84,92,62,-31
8265,-5,-188,-80,73,69,-32
8270,1,-192,-82,59,75,-32
8275,2,-192,-81,49,76,-31
8280,1,-196,-82,43,75,-33
8285,1,-195,-82,40,72,-29
8290,1,-196,-83,37,69,-28
8295,0,-197,-86,35,62,-26
8300,5,-200,-84,32,55,-25
8305,4,-204,-88,28,44,-23
8310,2,-205,-89,23,33,-21
8315,4,-206,-93,18,20,-18
8320,3,-211,-96,16,11,-15
8325,-3,-213,-96,15,8,-13
8330,-5,-211,-92,16,12,-11
8335,-8,-216,-93,16,17,-8
8340,-8,-217,-90,14,19,-5
8345,-11,-223,-90,12,20,-5
8350,-15,-223,-89,11,20,-6
8355,-14,-226,-92,13,20,-5
8360,-16,-229,-89,11,18,-5
8365,-17,-230,-93,14,16,-6
8370,-21,-230,-91,18,12,-9
8375,-18,-236,-95,21,11,-8
8380,-18,-236,-91,24,9,-11
8385,-21,-237,-93,34,3,-12
8390,-22,-240,-95,45,-5,-15
8395,-18,-242,-94,63,-12,-16
8400,-18,-244,-90,83,-16,-17
8405,-16,-243,-91,99,-18,-17
8410,-18,-245,-90,113,-15,-18
8415,-20,-244,-92,123,-10,-19
8420,-16,-248,-96,133,-9,-20
8425,-20,-247,-92,140,-13,-22
8430,-14,-248,-87,148,-21,-22
8435,-14,-249,-90,159,-29,-24
8440,-14,-248,-92,166,-33,-26
8445,-11,-249,-87,176,-34,-27
8450,-9,-251,-88,185,-30,-27
8455,-10,-244,-86,195,-26,-30
8460,-10,-249,-88,202,-23,-29
8465,-7,-247,-83,207,-22,-31
8470,-6,-246,-82,213,-21,-30
8475,-8,-244,-79,219,-21,-31
8480,-9,-243,-75,225,-19,-31
8485,-3,-244,-74,231,-17,-32
8490,-5,-249,-78,233,-14,-33
8495,-8,-246,-74,233,-12,-31
8500,-2,-247,-77,227,-11,-33
8505,-6,-248,-80,220,-14,-31
8510,-6,-248,-77,213,-17,-30
8515,-8,-244,-76,204,-20,-27
8520,-12,-246,-77,199,-25,-25
8525,-5,-249,-77,199,-29,-24
8530,-8,-247,-74,200,-31,-21
8535,-9,-246,-74,202,-32,-18
8540,-11,-245,-76,205,-33,-16
8545,-13,-244,-76,205,-32,-14
8550,-14,-241,-75,202,-31,-12
8555,-16,-242,-78,195,-29,-11
8560,-12,-243,-73,186,-26,-9
8565,-13,-238,-75,176,-22,-8
8570,-13,-239,-77,165,-20,-6
8575,-11,-237,-77,153,-20,-5
8580,-10,-236,-76,141,-17,-6
8585,-12,-235,-71,130,-14,-5
8590,-12,-233,-72,119,-9,-6
8595,-12,-231,-77,108,-4,-7
8600,-14,-231,-77,93,0,-9
8605,-11,-229,-77,78,2,-9
8610,-10,-232,-78,59,3,-10
8615,-11,-231,-74,39,4,-10
8620,-8,-235,-73,19,4,-9
8625,-10,-236,-76,0,6,-8
8630,-7,-236,-75,-19,8,-8
8635,-6,-240,-75,-38,13,-6
8640,-7,-239,-78,-57,17,-5
8645,-9,-245,-75,-76,20,0
8650,-7,-247,-77,-95,25,1
8655,-8,-246,-78,-109,31,4
8660,-8,-249,-72,-118,37,5
8665,-4,-251,-71,-122,42,7
8670,-4,-251,-71,-122,49,10
8675,-3,-254,-74,-117,54,12
8680,-1,-255,-75,-107,59,13
8685,-6,-255,-73,-95,64,12
8690,-7,-256,-69,-84,69,13
8695,-5,-255,-70,-74,74,13
8700,-7,-255,-75,-68,80,12
8705,-5,-256,-72,-62,86,11
8710,-4,-258,-68,-59,92,10
8715,-7,-257,-71,-53,96,9
8720,-8,-254,-67,-47,99,6
8725,-9,-256,-70,-40,98,5
8730,-8,-257,-63,-31,98,4
8735,-13,-255,-65,-22,98,3
8740,-12,-256,-66,-14,98,2
8745,-14,-252,-66,-7,99,1
8750,-12,-253,-66,-3,99,0
8755,-16,-253,-63,1,98,0
8760,-13,-254,-67,4,97,0
8765,-15,-251,-67,6,98,1
8770,-12,-254,-67,7,97,2
8775,-13,-255,-64,8,98,4
8780,-10,-250,-66,9,99,4
8785,-12,-250,-67,7,97,6
8790,-11,-249,-69,8,95,7
8795,-13,-250,-65,7,93,7
8800,-11,-252,-64,8,90,9
8805,-9,-250,-65,11,88,8
8810,-8,-252,-67,14,87,9
8815,-7,-252,-66,15,85,8
8820,-10,-248,-65,17,84,8
8825,-7,-253,-66,16,84,7
8830,-8,-252,-67,12,85,6
8835,-10,-252,-68,5,87,5
8840,-6,-252,-66,-1,91,3
8845,-9,-249,-61,-6,93,3
8850,-3,-243,-75,-10,95,3
8855,-2,-252,-74,-11,95,2
8860,-19,-253,-84,-11,97,3
8865,-6,-243,-62,-10,98,4
8870,7,-248,-59,-7,99,4
8875,-1,-248,-58,-6,102,5
8880,-8,-260,-77,-6,102,6
8885,-4,-244,-65,-8,102,8
8890,-12,-253,-52,-10,103,10
8895,-5,-244,-66,-13,104,12
8900,-9,-250,-68,-16,107,13
8905,-11,-250,-67,-20,110,14
8910,-7,-254,-68,-24,113,16
8915,-11,-253,-66,-27,114,17
8920,-12,-252,-65,-27,114,19
8925,-12,-252,-64,-26,114,18
8930,-7,-239,-65,-24,112,19
8935,-1,-253,-87,-19,112,17
8940,-4,-255,-64,-13,113,18
8945,-23,-255,-92,-7,113,16
8950,-11,-256,-69,-1,111,15
8955,-17,-252,-74,5,112,14
8960,-7,-248,-67,9,112,14
8965,-4,-245,-61,11,114,13
8970,-16,-250,-78,14,115,11
8975,-11,-252,-67,17,116,10
8980,-10,-252,-67,19,117,8
8985,-12,-250,-66,21,116,8
8990,-12,-252,-70,25,116,8
8995,-15,-246,-54,28,114,7
9000,-18,-259,-58,27,113,5
9005,-14,-267,-68,28,111,5
9010,-8,-260,-71,28,110,4
9015,-19,-251,-64,27,110,5
9020,-5,-251,-60,26,109,4
9025,-30,-237,-77,26,109,4
9030,-13,-249,-67,26,107,6
9035,-7,-242,-54,23,107,4
9040,-17,-250,-64,19,106,3
9045,-19,-256,-68,14,102,5
9050,-10,-252,-62,10,101,5
9055,-15,-251,-63,8,96,4
9060,-12,-252,-69,5,93,5
9065,-13,-253,-64,3,91,5
9070,-18,-250,-64,2,91,4
9075,-14,-250,-52,1,90,4
9080,-5,-250,-66,-1,92,4
9085,-13,-260,-56,-2,90,3
9090,-12,-248,-62,-3,89,2
9095,-12,-258,-55,-6,87,1
9100,-21,-245,-72,-6,85,0
9105,-8,-251,-73,-6,84,1
9110,-17,-246,-62,-8,81,-1
9115,-3,-255,-61,-9,77,-1
9120,-19,-261,-58,-11,74,-3
9125,-15,-251,-63,-16,72,-3
9130,-13,-254,-63,-19,70,-4
9135,-13,-254,-66,-20,68,-5
9140,-14,-250,-64,-22,67,-5
9145,-17,-255,-62,-22,65,-5
9150,-17,-244,-70,-22,62,-4
9155,-15,-255,-52,-19,59,-4
9160,-3,-249,-66,-13,56,-4
9165,-20,-255,-63,-10,53,-6
9170,-11,-251,-61,-9,51,-6
9175,-12,-252,-68,-8,50,-7
9180,-11,-253,-64,-6,48,-8
9185,-15,-251,-54,-8,45,-10
9190,-15,-255,-67,-7,43,-10
9195,-17,-256,-64,-6,42,-11
9200,-7,-248,-78,-4,41,-11
9205,-14,-255,-63,-2,39,-12
9210,-12,-255,-63,3,37,-13
9215,-12,-256,-63,7,37,-13
9220,-11,-255,-64,9,35,-13
9225,-11,-249,-61,12,35,-13
9230,-12,-251,-63,14,32,-14
9235,-8,-256,-66,15,32,-15
9240,-10,-247,-60,15,30,-14
9245,-8,-256,-60,12,29,-14
9250,-6,-253,-62,10,31,-15
9255,-18,-252,-70,7,31,-14
9260,-5,-254,-56,3,32,-15
9265,-10,-255,-60,3,34,-15
9270,-6,-255,-59,2,36,-14
9275,-9,-252,-63,0,37,-14
9280,-8,-252,-63,1,40,-14
9285,-9,-250,-64,-2,40,-12
9290,-7,-252,-63,-3,43,-12
9295,-7,-256,-64,-5,46,-11
9300,-3,-251,-61,-8,49,-11
9305,-7,-255,-58,-8,50,-11
9310,-6,-250,-67,-9,52,-10
9315,-12,-246,-62,-11,53,-10
9320,-14,-253,-64,-14,54,-8
9325,-8,-253,-64,-16,55,-8
9330,-10,-253,-64,-17,56,-7
9335,-8,-255,-61,-17,57,-7
9340,-9,-255,-64,-19,57,-8
9345,-10,-252,-62,-17,57,-9
9350,-8,-253,-68,-14,56,-8
9355,-12,-253,-65,-9,56,-7
9360,-9,-255,-62,-4,58,-6
9365,-10,-253,-64,1,61,-6
9370,-3,-260,-64,4,63,-6
9375,-12,-255,-69,8,68,-6
9380,-12,-254,-66,9,68,-4
9385,-8,-254,-63,14,67,-5
9390,-12,-246,-70,18,66,-4
9395,-11,-252,-65,20,65,-3
9400,-13,-251,-64,23,65,-2
9405,-10,-252,-67,27,62,-1
9410,-13,-253,-63,30,62,-2
9415,-20,-254,-68,32,62,-2
9420,-7,-249,-66,33,66,0
9425,-10,-249,-64,31,68,-2
9430,-9,-249,-63,29,67,-1
9435,-11,-251,-64,26,66,-2
9440,-9,-251,-63,24,66,-3
9445,-11,-248,-62,25,67,-1
9450,-10,-253,-64,25,67,-2
9455,-10,-251,-62,27,68,-3
9460,-10,-253,-65,28,68,-2
9465,-9,-254,-63,30,67,-1
9470,-11,-252,-65,30,69,0
9475,-12,-250,-65,29,69,-1
9480,-12,-255,-64,30,69,1
9485,-9,-253,-67,29,71,2
9490,-7,-255,-65,30,74,4
9495,-6,-257,-62,32,76,4
9500,-10,-252,-58,34,76,5
9505,-9,-256,-66,36,78,4
9510,-12,-253,-63,37,80,4
9515,-9,-254,-63,37,83,4
9520,-9,-255,-63,37,85,3
9525,-11,-255,-62,40,87,3
9530,-11,-255,-64,41,89,3
9535,-9,-254,-63,44,90,4
9540,-11,-254,-65,48,90,3
9545,-11,-254,-62,52,93,2
9550,-10,-252,-63,54,94,2
9555,-10,-253,-64,56,97,3
9560,-10,-251,-65,55,97,3
9565,-8,-253,-63,51,96,0
9570,-9,-253,-63,47,95,1
9575,-9,-255,-64,43,93,3
9580,-14,-248,-61,39,89,3
9585,-10,-255,-63,38,86,1
9590,-13,-252,-62,39,82,3
9595,-9,-253,-64,38,80,3
9600,-10,-255,-62,37,79,3
9605,-10,-247,-62,34,77,4
9610,-11,-253,-65,32,77,5
9615,-12,-252,-67,29,77,4
9620,-12,-251,-66,27,77,4
9625,-11,-252,-64,25,76,6
9630,-10,-251,-64,28,75,4
9635,-9,-252,-63,29,73,4
9640,-8,-253,-63,35,72,6
9645,-13,-251,-65,37,73,6
9650,-12,-252,-64,39,75,8
9655,-11,-251,-62,39,75,8
9660,-13,-251,-64,36,76,7
9665,-12,-254,-62,33,76,8
9670,-12,-253,-63,27,75,7
9675,-9,-252,-64,20,76,7
9680,-11,-252,-63,16,76,7
9685,-12,-253,-65,10,77,8
9690,-12,-253,-65,9,78,8
9695,-12,-254,-66,7,78,8
9700,-12,-251,-65,6,78,7
9705,-12,-254,-66,4,75,6
9710,-12,-253,-65,1,74,5
9715,-12,-259,-67,0,74,6
9720,-11,-253,-65,0,73,5
9725,-11,-252,-64,0,72,6
9730,-12,-250,-64,0,67,5
9735,-15,-254,-69,2,63,4
9740,-11,-254,-63,2,59,4
9745,-14,-254,-65,1,54,4
9750,-14,-248,-64,-1,49,4
9755,-17,-251,-64,-5,45,4
9760,-14,-253,-67,-7,42,5
9765,-12,-251,-67,-11,40,5
9770,-12,-253,-66,-14,39,6
9775,-14,-251,-68,-16,37,6
9780,-11,-255,-61,-18,37,7
9785,-12,-251,-63,-19,38,7
9790,-11,-251,-63,-19,38,6
9795,-14,-251,-64,-21,37,5
9800,-11,-253,-64,-23,37,5
9805,-10,-251,-65,-26,38,4
9810,-11,-255,-63,-29,38,3
9815,-13,-253,-63,-33,39,2
9820,-15,-252,-63,-33,39,2
9825,-16,-248,-66,-35,39,-1
9830,-12,-251,-62,-34,38,-2
9835,-9,-251,-62,-36,40,-3
9840,-12,-255,-63,-37,40,-3
9845,-12,-255,-63,-37,42,-2
9850,-11,-252,-63,-36,42,-2
9855,-10,-253,-64,-36,43,-3
9860,-11,-254,-65,-38,43,-4
9865,-9,-256,-64,-38,43,-3
9870,-10,-253,-64,-38,41,-4
9875,-13,-254,-62,-37,38,-3
9880,-13,-250,-63,-38,38,-2
9885,-13,-254,-63,-36,37,-2
9890,-13,-254,-64,-33,36,-1
9895,-11,-253,-63,-30,36,-1
9900,-10,-255,-58,-26,39,-2
9905,-13,-251,-59,-25,40,0
9910,-11,-254,-64,-25,42,-2
9915,-12,-254,-62,-27,44,-1
9920,-9,-255,-64,-29,45,-1
9925,-12,-253,-64,-33,48,-2
9930,-9,-255,-63,-35,50,-3
9935,-9,-250,-59,-38,52,-2
9940,-13,-255,-64,-39,53,-2
9945,-14,-255,-64,-38,54,-1
9950,-12,-252,-64,-37,56,-2
9955,-13,-251,-62,-35,55,-2
9960,-10,-251,-62,-32,54,-2
9965,-12,-250,-62,-30,55,-1
9970,-14,-250,-61,-28,54,-1
9975,-12,-252,-63,-26,54,-1
9980,-12,-251,-63,-26,53,-1
9985,-9,-252,-59,-27,51,-1
9990,-12,-251,-64,-30,49,0
9995,-13,-251,-61,-33,48,-1
10000,-11,-251,-64,-38,47,0
10005,-12,-254,-62,-41,48,-2
10010,-12,-253,-63,-44,51,-1
10015,-13,-252,-63,-44,53,1
10020,-11,-255,-60,-45,54,1
10025,-15,-253,-65,-45,53,1
10030,-12,-254,-64,-47,52,1
10035,-12,-254,-64,-48,52,0
10040,-14,-255,-65,-48,51,-1
10045,-19,-254,-53,-48,49,-1
10050,-16,-255,-64,-47,48,-1
10055,-15,-256,-62,-46,47,-1
10060,-14,-255,-65,-44,48,-1
10065,-13,-256,-60,-42,48,-1
10070,-15,-257,-60,-38,47,-3
10075,-14,-256,-66,-36,50,-3
10080,-14,-256,-62,-34,53,-3
10085,-12,-258,-63,-31,54,-5
10090,-8,-254,-64,-29,56,-5
10095,-12,-255,-64,-27,55,-6
10100,-14,-252,-65,-28,55,-6
10105,-14,-253,-64,-26,53,-7
10110,-13,-256,-64,-24,53,-5
10115,-10,-254,-60,-22,51,-6
10120,-12,-252,-64,-20,51,-6
10125,-12,-253,-62,-16,48,-7
10130,-9,-252,-63,-15,47,-8
10135,-15,-253,-62,-14,46,-7
10140,-14,-256,-60,-17,46,-7
10145,-14,-255,-62,-20,45,-7
10150,-20,-252,-58,-21,46,-6
10155,-15,-251,-60,-22,47,-4
10160,-12,-253,-58,-23,49,-4
10165,-14,-253,-62,-23,50,-4
10170,-15,-250,-60,-24,52,-4
10175,-14,-252,-64,-26,53,-3
10180,-15,-252,-63,-28,54,-5
10185,-14,-252,-63,-32,55,-3
10190,-16,-252,-64,-35,54,-3
10195,-12,-253,-64,-38,55,-3
10200,-12,-252,-70,-40,54,-4
10205,-14,-251,-64,-41,55,-5
10210,-12,-252,-64,-41,56,-5
10215,-13,-254,-67,-40,59,-6
10220,-10,-255,-65,-39,58,-7
10225,-11,-254,-64,-36,62,-7
10230,-14,-251,-64,-35,61,-8
10235,-14,-254,-65,-33,60,-8
10240,-10,-253,-65,-28,63,-9
10245,-14,-255,-65,-26,62,-7
10250,-14,-254,-68,-22,60,-6
10255,-15,-252,-66,-17,57,-9
10260,-21,-259,-62,-14,56,-8
10265,-11,-255,-69,-9,55,-7
10270,-10,-253,-66,-8,55,-7
10275,-13,-252,-63,-7,55,-6
10280,-14,-253,-63,-6,57,-7
10285,-15,-254,-63,-6,58,-6
10290,-14,-254,-62,-7,58,-6
10295,-13,-252,-61,-10,58,-6
10300,-14,-253,-62,-11,59,-5
10305,-13,-253,-61,-14,60,-4
10310,-13,-255,-60,-17,60,-4
10315,-11,-254,-63,-19,59,-4
10320,-14,-254,-62,-19,61,-4
10325,-14,-254,-64,-18,61,-4
10330,-11,-255,-62,-16,62,-4
10335,-10,-255,-61,-14,62,-4
10340,-14,-253,-63,-11,64,-4
10345,-15,-253,-64,-7,65,-4
10350,-11,-251,-62,-4,66,-6
10355,-13,-253,-60,-2,66,-5
10360,-13,-253,-63,0,67,-4
10365,-12,-252,-63,0,67,-4
10370,-8,-255,-65,1,66,-5
10375,-11,-251,-63,3,67,-5
10380,-12,-253,-62,3,66,-5
10385,-13,-255,-63,3,66,-5
10390,-13,-252,-64,3,66,-4
10395,-15,-250,-57,-1,65,-3
10400,-13,-252,-63,-2,66,-5
10405,-13,-252,-62,-3,66,-1
10410,-13,-253,-65,-4,67,-2
10415,-12,-254,-61,-2,68,-1
10420,-13,-252,-61,-1,70,0
10425,-12,-253,-63,-1,72,1
10430,-10,-253,-62,1,73,0
10435,-11,-254,-64,3,75,1
10440,-13,-254,-62,4,75,2
10445,-15,-253,-63,2,75,-1
10450,-11,-251,-63,2,75,0
10455,-12,-252,-62,2,75,0
10460,-12,-253,-61,0,77,0
10465,-13,-254,-64,-1,76,0
10470,-11,-254,-64,-1,78,1
10475,-11,-253,-65,-2,80,0
10480,-11,-253,-61,-3,81,-2
10485,-11,-254,-62,-4,82,0
10490,-12,-250,-61,-5,83,-1
10495,-11,-252,-62,-6,84,-1
10500,-14,-252,-64,-9,87,0
10505,-13,-256,-64,-11,88,-1
10510,-12,-254,-65,-12,92,-1
10515,-11,-254,-63,-14,92,-2
10520,-13,-255,-61,-13,91,-2
10525,-13,-256,-63,-11,91,0
10530,-13,-253,-63,-12,89,-1
10535,-12,-255,-63,-11,86,0
10540,-15,-255,-65,-11,86,1
10545,-13,-252,-64,-8,85,2
10550,-9,-254,-62,-7,84,3
10555,-13,-253,-64,-4,83,4
10560,-16,-252,-66,-2,82,4
10565,-13,-254,-62,1,81,5
10570,-10,-256,-63,3,83,4
10575,-14,-253,-64,1,84,5
10580,-11,-254,-62,3,85,5
10585,-10,-254,-62,2,88,3
10590,-11,-255,-63,3,91,4
10595,-11,-254,-60,3,93,4
10600,-11,-255,-62,3,96,5
10605,-14,-254,-63,3,95,5
10610,-10,-256,-60,2,94,4
10615,-11,-252,-64,3,94,4
10620,-10,-256,-61,4,95,4
10625,-11,-255,-63,4,93,3
10630,-14,-251,-60,5,93,4
10635,-12,-254,-62,5,92,3
10640,-11,-253,-63,4,93,2
10645,-12,-252,-63,3,95,1
10650,-12,-256,-60,3,95,0
10655,-11,-254,-64,3,94,0
10660,-13,-254,-62,3,93,0
10665,-11,-253,-66,3,94,0
10670,-12,-255,-64,3,93,0
10675,-11,-254,-64,3,94,-2
10680,-13,-251,-60,4,95,-2
10685,-11,-253,-61,6,97,-2
10690,-11,-254,-61,5,99,-2
10695,-12,-255,-62,5,99,-1
10700,-11,-255,-62,6,97,-1
10705,-12,-253,-62,4,97,-1
10710,-14,-252,-64,3,96,-1
10715,-14,-253,-62,4,96,0
10720,-10,-253,-61,3,96,1
10725,-12,-251,-62,1,95,1
10730,-13,-254,-63,1,94,0
10735,-12,-254,-64,0,93,1
10740,-11,-255,-63,0,91,0
10745,-10,-254,-65,-3,92,1
10750,-12,-252,-62,-4,93,0
10755,-12,-255,-65,-6,96,-1
10760,-13,-255,-64,-6,98,1
10765,-11,-255,-63,-6,99,-1
10770,-13,-253,-61,-5,97,-1
10775,-11,-254,-62,-5,96,-2
10780,-13,-252,-62,-2,96,-3
10785,-11,-253,-64,0,94,-1
10790,-11,-253,-65,1,94,-2
10795,-12,-254,-64,0,92,-2
10800,-12,-252,-61,-1,91,-1
10805,-12,-254,-62,-3,90,-1
10810,-11,-253,-65,-2,89,-2
10815,-12,-254,-65,-2,88,-2
10820,-12,-251,-64,-3,85,-4
10825,-13,-254,-65,-2,83,-3
10830,-11,-253,-65,-4,83,-3
10835,-13,-253,-63,-4,83,-3
10840,-16,-253,-65,-3,79,-4
10845,-13,-257,-64,-4,80,-5
10850,-14,-252,-64,-3,77,-5
10855,-14,-254,-64,0,77,-6
10860,-13,-257,-64,1,75,-5
10865,-17,-251,-62,3,76,-4
10870,-18,-252,-67,4,76,-6
10875,-14,-252,-62,4,78,-5
10880,-16,-254,-62,5,81,-6
10885,-13,-254,-62,2,81,-5
10890,-12,-253,-63,2,81,-7
10895,-12,-253,-60,3,79,-8
10900,-14,-255,-63,4,77,-7
10905,-11,-254,-64,7,75,-8
10910,-13,-252,-61,13,74,-8
10915,-12,-252,-64,16,74,-9
10920,-8,-253,-64,21,73,-8
10925,-11,-253,-63,22,74,-9
10930,-12,-251,-62,22,73,-10
10935,-12,-249,-64,22,73,-10
10940,-13,-250,-62,20,72,-10
10945,-13,-252,-61,17,70,-9
10950,-10,-254,-61,12,70,-11
10955,-11,-251,-63,5,69,-9
10960,-13,-254,-64,1,68,-9
10965,-15,-252,-59,-4,68,-8
10970,-12,-255,-61,-5,69,-9
10975,-12,-252,-61,-6,69,-8
10980,-13,-256,-63,-4,69,-8
10985,-13,-255,-64,-3,68,-8
10990,-13,-256,-59,-4,68,-7
10995,-16,-254,-63,-3,69,-9
11000,-11,-256,-62,-2,70,-8
11005,-12,-255,-63,-1,70,-9
11010,-12,-253,-63,-3,67,-8
11015,-14,-252,-62,-5,65,-9
11020,-12,-253,-60,-8,66,-11
11025,-16,-253,-61,-11,64,-9
11030,-12,-252,-63,-13,64,-10
11035,-13,-253,-63,-12,65,-11
11040,-13,-251,-64,-10,66,-10
11045,-15,-253,-64,-7,67,-10
11050,-15,-253,-63,-4,66,-10
11055,-12,-255,-62,-5,68,-10
11060,-11,-253,-63,-5,68,-11
11065,-12,-252,-63,-6,68,-10
11070,-12,-255,-63,-8,65,-10
11075,-12,-253,-59,-8,65,-9
11080,-11,-255,-59,-7,65,-9
11085,-12,-253,-62,-6,66,-11
11090,-11,-254,-59,-3,68,-10
11095,-13,-253,-60,0,69,-10
11100,-13,-253,-61,-1,72,-10
11105,-14,-254,-64,-1,74,-10
11110,-10,-253,-63,-3,76,-11
11115,-12,-253,-63,-6,75,-11
11120,-13,-253,-61,-8,76,-10
11125,-12,-256,-62,-6,73,-9
11130,-14,-255,-63,-8,72,-9
11135,-10,-256,-61,-8,70,-9
11140,-11,-253,-62,-7,67,-7
11145,-14,-252,-62,-7,68,-7
11150,-15,-254,-60,-8,67,-7
11155,-13,-253,-61,-10,66,-7
11160,-11,-255,-62,-13,66,-7
11165,-13,-255,-64,-16,66,-8
11170,-10,-254,-64,-17,68,-7
11175,-9,-254,-61,-19,67,-6
11180,-12,-255,-64,-19,67,-6
11185,-12,-255,-63,-18,65,-6
11190,-11,-253,-65,-16,62,-7
11195,-9,-254,-63,-14,62,-6
11200,-10,-254,-64,-12,63,-6
11205,-10,-254,-63,-12,62,-7
11210,-7,-255,-64,-11,61,-7
11215,-11,-254,-61,-9,62,-7
11220,-12,-254,-61,-8,62,-7
11225,-11,-253,-64,-8,63,-8
11230,-10,-255,-62,-8,65,-9
11235,-11,-254,-62,-6,64,-9
11240,-17,-253,-65,-5,63,-8
11245,-13,-253,-61,-4,63,-7
11250,-13,-254,-61,-4,62,-7
11255,-11,-254,-61,-1,62,-6
11260,-12,-254,-63,0,62,-8
11265,-14,-250,-62,0,61,-9
11270,-10,-253,-62,-1,61,-8
11275,-14,-252,-66,-2,62,-9
11280,-13,-250,-61,-6,61,-7
11285,-13,-253,-60,-9,59,-9
11290,-12,-255,-61,-9,58,-7
11295,-12,-255,-62,-8,57,-8
11300,-13,-252,-62,-6,57,-9
11305,-12,-255,-61,-5,60,-9
11310,-15,-255,-62,-5,58,-9
11315,-12,-255,-62,-5,61,-8
11320,-11,-254,-63,-7,63,-9
11325,-13,-251,-64,-8,63,-9
11330,-12,-254,-61,-7,61,-9
11335,-14,-253,-62,-9,59,-8
11340,-11,-255,-60,-8,57,-8
11345,-12,-255,-61,-7,58,-9
11350,-13,-259,-65,-5,59,-8
11355,-14,-251,-62,-5,61,-9
11360,-13,-251,-63,-4,63,-9
11365,-11,-250,-64,-5,64,-10
11370,-11,-253,-63,-5,65,-8
11375,-10,-253,-62,-5,65,-7
11380,-13,-249,-62,-5,65,-7
11385,-12,-254,-60,-6,65,-6
11390,-14,-254,-62,-6,66,-6
11395,-13,-253,-61,-7,66,-7
11400,-11,-254,-61,-9,65,-5
11405,-10,-253,-63,-9,65,-6
11410,-9,-251,-62,-10,64,-5
11415,-11,-254,-62,-11,65,-4
11420,-11,-253,-62,-11,64,-4
11425,-11,-253,-63,-13,65,-5
11430,-10,-253,-62,-14,66,-5
11435,-16,-251,-64,-15,66,-6
11440,-11,-254,-64,-17,65,-7
11445,-13,-249,-64,-16,65,-6
11450,-12,-252,-62,-18,65,-6
11455,-12,-252,-64,-18,65,-6
11460,-16,-258,-63,-18,66,-6
11465,-13,-253,-60,-17,67,-6
11470,-9,-253,-63,-19,68,-7
11475,-10,-256,-63,-21,70,-8
11480,-10,-254,-65,-23,73,-7
11485,-12,-255,-63,-24,75,-6
11490,-12,-255,-61,-24,77,-7
11495,-10,-256,-62,-24,77,-6
11500,-14,-254,-61,-23,77,-5
11505,-12,-255,-62,-20,75,-5
11510,-12,-252,-61,-17,73,-5
11515,-10,-254,-59,-15,74,-4
11520,-10,-256,-67,-13,74,-4
11525,-10,-255,-63,-13,74,-5
11530,-11,-253,-64,-14,76,-4
11535,-11,-255,-63,-13,78,-5
11540,-10,-254,-61,-14,78,-4
11545,-11,-255,-62,-14,80,-4
11550,-11,-253,-64,-16,80,-4
11555,-10,-252,-61,-15,80,-5
11560,-11,-254,-64,-13,79,-4
11565,-10,-253,-63,-13,80,-5
11570,-6,-252,-55,-13,79,-5
11575,-11,-254,-59,-11,81,-4
11580,-11,-253,-61,-11,81,-5
11585,-12,-253,-65,-11,80,-4
11590,-12,-256,-63,-12,81,-5
11595,-12,-253,-59,-12,81,-4
11600,-12,-254,-60,-14,81,-5
11605,-11,-254,-61,-14,81,-5
11610,-12,-254,-63,-14,79,-5
11615,-15,-255,-63,-12,76,-4
11620,-12,-254,-64,-12,75,-3
11625,-13,-256,-62,-10,75,-5
11630,-14,-255,-59,-7,74,-5
11635,-10,-256,-61,-6,74,-5
11640,-11,-253,-61,-4,74,-5
11645,-9,-254,-60,-4,73,-5
11650,-14,-254,-62,-4,75,-4
11655,-11,-255,-61,-6,73,-5
11660,-11,-254,-58,-7,72,-5
11665,-14,-255,-63,-9,70,-5
11670,-13,-253,-61,-12,69,-7
11675,-5,-250,-64,-11,68,-8
11680,-10,-255,-62,-10,68,-8
11685,-11,-254,-60,-7,66,-8
11690,-13,-255,-61,-5,66,-8
11695,-10,-255,-58,-4,68,-6
11700,-12,-254,-64,-3,68,-7
11705,-10,-254,-62,-4,68,-7
11710,-10,-254,-63,-9,70,-7
11715,-8,-253,-65,-14,69,-7
11720,-12,-254,-59,-17,70,-6
11725,-8,-253,-61,-18,71,-6
11730,-11,-256,-60,-20,70,-6
11735,-12,-253,-61,-19,68,-6
11740,-10,-255,-61,-18,67,-6
11745,-11,-253,-63,-17,65,-5
11750,-10,-254,-62,-18,66,-4
11755,-12,-253,-63,-18,66,-4
11760,-10,-256,-61,-19,66,-5
11765,-13,-253,-59,-20,66,-4
11770,-12,-254,-58,-21,66,-4
11775,-9,-253,-59,-21,67,-6
11780,-11,-254,-63,-21,67,-6
11785,-13,-256,-65,-21,68,-6
11790,-11,-255,-61,-20,66,-6
11795,-13,-254,-62,-21,68,-6
11800,-10,-256,-62,-20,68,-7
11805,-13,-256,-61,-18,68,-8
11810,-12,-255,-63,-20,67,-6
11815,-10,-254,-66,-19,69,-6
11820,-8,-255,-61,-21,69,-5
11825,-10,-254,-61,-20,68,-5
11830,-11,-255,-61,-19,69,-7
11835,-10,-254,-63,-18,68,-6
11840,-11,-253,-61,-15,68,-6
11845,-14,-255,-64,-11,68,-6
11850,-9,-253,-64,-8,69,-5
11855,-12,-252,-65,-6,67,-3
11860,-9,-254,-65,-3,67,-4
11865,-12,-256,-64,-1,64,-3
11870,-12,-253,-63,1,65,-3
11875,-7,-252,-61,1,65,-4
11880,-10,-254,-62,2,65,-3
11885,-9,-256,-62,2,65,-2
11890,-11,-252,-62,1,66,-2
11895,-7,-257,-62,-4,68,-3
11900,-10,-253,-60,-7,71,-4
11905,-11,-254,-61,-7,74,-4
11910,-11,-256,-60,-7,76,-5
11915,-11,-256,-62,-7,79,-5
11920,-11,-253,-61,-7,79,-4
11925,-12,-255,-60,-7,80,-4
11930,-12,-254,-62,-5,80,-5
11935,-15,-254,-62,-3,77,-4
11940,-12,-253,-61,0,76,-3
11945,-12,-255,-64,3,74,-3
11950,-11,-256,-63,5,74,-3
11955,-12,-255,-61,5,73,-4
11960,-11,-254,-64,4,73,-2
11965,-14,-255,-60,2,72,-1
11970,-10,-256,-59,1,73,-1
11975,-13,-256,-63,-1,72,-2
11980,-13,-255,-60,-3,73,-2
11985,-11,-255,-64,-4,74,-2
11990,-14,-256,-60,-3,72,-2
11995,-12,-254,-60,-3,70,-3
