timestamp,acc_x,acc_y,acc_z,gyro_x,gyro_y,gyro_z
0,3,-237,-146,-46,2,-26
5,5,-235,-143,-47,0,-25
10,5,-234,-144,-50,0,-25
15,4,-234,-146,-51,0,-26
20,5,-239,-148,-55,-1,-24
25,8,-237,-146,-57,-2,-23
30,2,-235,-147,-56,-1,-23
35,6,-238,-146,-56,-2,-22
40,2,-237,-146,-57,-3,-21
45,5,-236,-146,-59,-4,-20
50,2,-236,-147,-58,-5,-19
55,4,-240,-142,-60,-5,-18
60,2,-237,-139,-62,-5,-17
65,2,-237,-147,-63,-5,-17
70,3,-239,-148,-64,-6,-16
75,10,-241,-149,-67,-7,-15
80,4,-244,-148,-67,-6,-14
85,2,-242,-148,-67,-6,-14
90,5,-241,-149,-68,-6,-12
95,3,-241,-145,-66,-5,-13
100,3,-239,-148,-64,-6,-12
105,3,-239,-148,-65,-5,-11
110,5,-241,-150,-65,-5,-12
115,4,-239,-152,-61,-4,-10
120,5,-241,-149,-61,-3,-10
125,2,-242,-148,-59,-2,-11
130,4,-239,-152,-57,-2,-11
135,4,-244,-145,-56,-2,-10
140,6,-241,-144,-54,-1,-10
145,3,-238,-147,-56,0,-9
150,5,-241,-148,-53,2,-8
155,4,-241,-148,-53,4,-7
160,4,-242,-147,-51,5,-6
165,3,-244,-146,-49,7,-6
170,6,-241,-148,-48,7,-6
175,3,-241,-147,-44,7,-5
180,4,-239,-145,-42,6,-6
185,5,-240,-149,-41,6,-5
190,4,-241,-144,-39,8,-6
195,5,-240,-144,-36,7,-5
200,7,-240,-146,-35,8,-5
205,6,-241,-145,-33,7,-4
210,6,-240,-147,-31,9,-5
215,9,-238,-148,-34,10,-5
220,4,-237,-149,-35,12,-4
225,5,-239,-148,-38,12,-2
230,7,-239,-143,-41,15,-2
235,6,-236,-146,-42,17,0
240,7,-238,-159,-43,18,0
245,6,-236,-149,-44,19,0
250,7,-240,-145,-45,20,0
255,7,-241,-146,-47,20,2
260,8,-239,-144,-48,22,1
265,7,-240,-146,-50,22,2
270,5,-240,-147,-51,21,3
275,4,-239,-147,-52,20,3
280,5,-241,-147,-55,20,3
285,6,-239,-146,-57,18,2
290,8,-243,-145,-58,16,3
295,5,-242,-149,-60,15,3
300,5,-240,-144,-60,14,2
305,5,-241,-149,-58,13,2
310,5,-240,-144,-56,11,2
315,5,-242,-145,-55,11,3
320,4,-241,-149,-54,11,3
325,5,-241,-151,-50,11,2
330,4,-242,-146,-49,14,2
335,5,-242,-144,-46,16,0
340,7,-242,-143,-40,17,1
345,4,-243,-150,-35,20,0
350,3,-246,-148,-33,23,0
355,7,-239,-147,-30,24,-1
360,8,-241,-146,-30,27,1
365,4,-243,-149,-30,30,0
370,6,-239,-145,-29,33,-1
375,5,-240,-148,-30,33,-2
380,4,-239,-143,-32,35,-2
385,3,-239,-150,-31,37,-2
390,2,-235,-146,-32,40,-3
395,7,-243,-143,-34,42,-3
400,0,-253,-139,-34,41,-3
405,6,-239,-145,-35,42,-3
410,6,-239,-148,-37,43,-3
415,4,-237,-146,-37,45,-3
420,7,-239,-143,-40,47,-2
425,8,-241,-145,-39,47,-2
430,5,-242,-146,-38,47,-2
435,7,-242,-144,-36,48,-2
440,6,-237,-148,-33,47,-3
445,7,-239,-150,-32,45,-2
450,9,-238,-147,-30,46,-2
455,5,-234,-150,-29,45,-1
460,11,-241,-145,-30,45,0
465,10,-236,-147,-31,45,-1
470,6,-238,-144,-32,43,-2
475,10,-239,-144,-34,43,-2
480,9,-241,-145,-37,43,-2
485,9,-235,-147,-40,43,-2
490,7,-240,-147,-42,40,0
495,10,-239,-148,-42,40,0
500,6,-236,-147,-44,38,1
505,8,-239,-146,-46,37,2
510,6,-228,-152,-48,37,2
515,7,-241,-150,-50,36,3
520,7,-241,-149,-49,38,3
525,7,-242,-148,-48,38,2
530,5,-242,-147,-47,39,3
535,7,-240,-149,-45,40,3
540,6,-240,-143,-42,41,2
545,4,-238,-147,-39,43,3
550,3,-239,-144,-35,46,3
555,3,-238,-150,-34,48,4
560,6,-239,-147,-28,50,5
565,7,-235,-139,-25,51,6
570,6,-239,-146,-23,54,7
575,3,-238,-146,-24,56,7
580,5,-236,-143,-29,58,7
585,4,-237,-143,-31,58,7
590,5,-237,-146,-37,57,7
595,5,-233,-144,-43,59,7
600,3,-238,-145,-49,58,7
605,5,-237,-143,-52,60,6
610,6,-236,-149,-54,60,6
615,7,-238,-148,-56,58,5
620,5,-237,-146,-56,57,4
625,5,-238,-150,-60,57,5
630,8,-241,-147,-61,53,4
635,9,-242,-146,-64,52,5
640,6,-241,-144,-65,50,5
645,5,-241,-147,-66,49,6
650,5,-243,-143,-65,49,6
655,5,-241,-148,-63,48,6
660,6,-242,-147,-58,48,7
665,7,-239,-145,-53,48,7
670,3,-243,-146,-49,49,7
675,8,-243,-145,-45,49,5
680,5,-237,-147,-39,47,5
685,6,-240,-148,-35,44,4
690,4,-239,-148,-33,41,2
695,5,-237,-146,-32,38,2
700,5,-237,-148,-34,34,-1
705,5,-236,-147,-35,31,-1
710,7,-238,-146,-40,28,-3
715,2,-237,-148,-45,24,-4
720,4,-233,-148,-48,23,-5
725,2,-239,-144,-52,21,-7
730,5,-236,-146,-56,21,-6
735,2,-238,-148,-59,19,-8
740,6,-238,-146,-59,21,-7
745,4,-238,-146,-61,20,-8
750,3,-238,-147,-62,19,-7
755,4,-237,-148,-63,17,-8
760,3,-240,-147,-63,19,-9
765,3,-237,-145,-61,20,-8
770,3,-240,-145,-60,20,-10
775,4,-237,-144,-58,20,-10
780,1,-238,-145,-60,20,-11
785,3,-238,-144,-56,20,-11
790,2,-240,-145,-56,20,-10
795,3,-239,-143,-52,21,-8
800,5,-238,-143,-52,22,-7
805,6,-238,-146,-51,22,-7
810,3,-236,-145,-52,21,-7
815,5,-237,-144,-53,22,-8
820,2,-233,-143,-54,20,-8
825,3,-235,-142,-55,20,-8
830,3,-237,-140,-58,19,-7
835,4,-239,-145,-62,18,-6
840,5,-236,-145,-65,19,-7
845,6,-239,-144,-70,17,-7
850,3,-235,-145,-71,15,-7
855,6,-242,-148,-72,13,-7
860,4,-239,-147,-73,10,-9
865,3,-236,-145,-74,8,-8
870,7,-241,-146,-74,5,-9
875,2,-239,-148,-75,2,-10
880,5,-238,-149,-73,0,-10
885,7,-244,-147,-70,-3,-11
890,5,-242,-149,-67,-3,-10
895,9,-248,-146,-64,-5,-11
900,5,-241,-149,-62,-5,-10
905,3,-240,-155,-59,-4,-10
910,5,-240,-148,-54,-3,-11
915,4,-239,-148,-53,-2,-11
920,3,-239,-147,-51,-1,-10
925,7,-239,-148,-52,-1,-10
930,5,-237,-146,-50,0,-10
935,6,-235,-146,-51,0,-10
940,4,-232,-147,-48,1,-9
945,9,-237,-147,-47,1,-9
950,5,-235,-140,-49,-2,-10
955,6,-237,-148,-51,0,-10
960,7,-235,-144,-55,0,-10
965,7,-234,-150,-58,-1,-10
970,6,-236,-148,-63,-3,-9
975,5,-238,-144,-67,-2,-10
980,5,-237,-148,-70,-3,-11
985,5,-239,-149,-74,-4,-10
990,8,-239,-144,-75,-3,-12
995,5,-238,-146,-74,-4,-12
1000,5,-242,-148,-75,-3,-13
1005,2,-243,-144,-72,-3,-13
1010,2,-238,-148,-70,-3,-14
1015,4,-241,-147,-68,-3,-13
1020,4,-240,-149,-67,-3,-12
1025,5,-243,-147,-65,-3,-12
1030,4,-241,-149,-63,-3,-12
1035,6,-241,-152,-61,-1,-11
1040,7,-243,-148,-57,2,-9
1045,4,-237,-148,-55,3,-9
1050,6,-241,-150,-53,3,-9
1055,6,-240,-148,-52,5,-7
1060,6,-238,-153,-50,5,-7
1065,6,-240,-149,-52,5,-7
1070,6,-235,-145,-53,5,-7
1075,5,-241,-145,-54,5,-6
1080,6,-239,-145,-55,5,-7
1085,6,-239,-147,-58,4,-6
1090,6,-238,-147,-58,3,-8
1095,5,-239,-146,-58,1,-8
1100,5,-236,-145,-59,0,-8
1105,3,-239,-148,-59,0,-8
1110,7,-239,-150,-57,0,-9
1115,6,-237,-149,-57,0,-11
1120,6,-239,-146,-59,1,-10
1125,6,-239,-144,-59,2,-12
1130,8,-240,-144,-60,1,-12
1135,5,-240,-150,-64,1,-12
1140,4,-242,-146,-64,2,-11
1145,5,-239,-145,-63,3,-11
1150,5,-241,-149,-61,6,-12
1155,4,-242,-147,-56,8,-12
1160,6,-242,-150,-51,8,-11
1165,6,-242,-149,-47,8,-10
1170,5,-238,-148,-45,9,-10
1175,3,-238,-150,-42,11,-8
1180,7,-239,-148,-41,11,-8
1185,4,-238,-147,-41,13,-8
1190,4,-237,-148,-41,15,-7
1195,5,-234,-145,-40,18,-7
1200,5,-235,-150,-43,18,-7
1205,5,-235,-148,-47,20,-6
1210,5,-233,-146,-50,20,-6
1215,5,-235,-148,-55,20,-6
1220,10,-231,-158,-59,19,-7
1225,3,-235,-150,-63,17,-6
1230,3,-235,-143,-65,16,-9
1235,9,-237,-152,-68,13,-10
1240,3,-235,-141,-69,13,-11
1245,3,-237,-151,-67,12,-11
1250,6,-238,-146,-70,10,-11
1255,6,-237,-148,-72,10,-11
1260,6,-240,-149,-74,10,-10
1265,6,-238,-149,-75,8,-9
1270,4,-254,-126,-76,8,-9
1275,7,-242,-149,-76,9,-8
1280,5,-241,-149,-74,10,-9
1285,3,-238,-151,-68,11,-7
1290,7,-242,-152,-65,11,-7
1295,5,-241,-148,-61,12,-6
1300,5,-241,-151,-58,14,-7
1305,4,-240,-146,-57,16,-5
1310,5,-240,-151,-54,18,-4
1315,5,-239,-149,-53,19,-4
1320,4,-238,-144,-50,22,-4
1325,4,-242,-140,-51,22,-3
1330,9,-240,-149,-51,22,-3
1335,3,-237,-148,-51,21,-1
1340,6,-237,-150,-50,22,-2
1345,5,-238,-145,-50,21,-2
1350,5,-239,-148,-48,20,-3
1355,5,-237,-148,-51,19,-3
1360,5,-235,-152,-51,21,-4
1365,5,-237,-148,-53,19,-4
1370,5,-239,-150,-55,18,-2
1375,8,-236,-148,-59,17,-5
1380,6,-240,-144,-63,17,-5
1385,10,-238,-152,-64,17,-6
1390,7,-241,-149,-64,18,-5
1395,6,-238,-147,-62,18,-5
1400,3,-239,-149,-61,20,-6
1405,10,-241,-152,-59,20,-5
1410,5,-240,-147,-57,20,-4
1415,3,-239,-149,-52,22,-5
1420,5,-239,-144,-49,22,-5
1425,3,-237,-146,-48,22,-4
1430,3,-235,-150,-45,23,-3
1435,5,-235,-150,-44,23,-2
1440,7,-236,-150,-46,26,-1
1445,6,-236,-150,-49,26,-3
1450,6,-233,-148,-53,27,-2
1455,2,-234,-148,-55,27,-1
1460,1,-236,-145,-57,28,-1
1465,2,-237,-151,-58,29,-2
1470,3,-236,-147,-61,29,-2
1475,4,-237,-144,-63,28,-2
1480,5,-236,-145,-65,28,-3
1485,5,-237,-152,-70,27,-2
1490,4,-239,-146,-72,27,-2
1495,1,-237,-148,-75,26,-3
1500,5,-239,-146,-75,27,-3
1505,4,-236,-151,-74,26,-3
1510,4,-239,-147,-73,24,-4
1515,3,-240,-149,-73,24,-3
1520,4,-241,-150,-70,23,-2
1525,3,-239,-149,-67,22,-2
1530,6,-237,-148,-64,21,-2
1535,6,-240,-151,-60,21,-2
1540,4,-240,-147,-58,21,-1
1545,7,-240,-150,-57,21,-1
1550,7,-239,-152,-56,21,-2
1555,4,-241,-150,-55,20,-1
1560,6,-240,-145,-54,20,-3
1565,3,-238,-150,-53,19,-3
1570,2,-238,-149,-54,19,-4
1575,3,-236,-149,-53,18,-6
1580,7,-239,-151,-51,17,-6
1585,5,-239,-148,-51,17,-8
1590,4,-236,-148,-52,17,-8
1595,2,-236,-148,-54,15,-6
1600,4,-235,-150,-56,14,-6
1605,6,-236,-150,-58,14,-8
1610,3,-239,-150,-57,14,-7
1615,4,-237,-148,-60,12,-6
1620,4,-240,-148,-62,11,-6
1625,5,-237,-150,-63,13,-7
1630,5,-237,-149,-62,12,-6
1635,3,-235,-152,-61,11,-7
1640,6,-237,-151,-63,12,-6
1645,4,-237,-149,-62,11,-6
1650,5,-237,-151,-62,11,-6
1655,5,-238,-152,-62,13,-7
1660,5,-241,-151,-60,15,-6
1665,6,-236,-149,-58,15,-7
1670,5,-237,-151,-57,16,-7
1675,5,-240,-147,-56,17,-7
1680,4,-230,-147,-56,17,-6
1685,4,-238,-149,-54,19,-8
1690,6,-236,-147,-52,18,-7
1695,6,-233,-149,-51,20,-7
1700,6,-237,-149,-49,19,-6
1705,7,-238,-151,-50,17,-6
1710,4,-237,-151,-50,18,-8
1715,3,-232,-151,-50,17,-8
1720,4,-235,-148,-49,17,-8
1725,4,-236,-150,-54,18,-8
1730,7,-235,-153,-54,16,-9
1735,4,-234,-151,-56,14,-9
1740,3,-235,-148,-58,14,-10
1745,4,-236,-149,-61,13,-10
1750,4,-235,-148,-63,13,-11
1755,5,-238,-149,-65,13,-10
1760,5,-234,-150,-67,14,-11
1765,16,-246,-157,-67,13,-10
1770,5,-238,-149,-66,14,-9
1775,4,-241,-151,-66,15,-9
1780,2,-241,-150,-62,17,-9
1785,4,-237,-147,-55,16,-8
1790,3,-237,-152,-54,18,-9
1795,6,-238,-149,-51,17,-7
1800,5,-240,-154,-48,19,-9
1805,5,-238,-151,-46,21,-8
1810,3,-234,-149,-48,21,-7
1815,5,-234,-149,-48,22,-7
1820,4,-235,-149,-49,23,-4
1825,6,-237,-153,-51,24,-5
1830,4,-236,-151,-54,24,-5
1835,5,-235,-153,-55,22,-5
1840,3,-236,-150,-54,23,-6
1845,6,-238,-148,-55,23,-7
1850,4,-235,-153,-57,22,-8
1855,4,-234,-151,-58,21,-8
1860,2,-234,-148,-60,20,-9
1865,3,-236,-154,-63,19,-10
1870,3,-235,-149,-64,19,-9
1875,9,-242,-150,-68,19,-10
1880,4,-237,-150,-71,18,-10
1885,3,-238,-152,-74,17,-12
1890,5,-237,-155,-76,15,-13
1895,3,-238,-153,-77,13,-12
1900,7,-239,-150,-75,13,-11
1905,6,-240,-153,-73,13,-12
1910,4,-241,-151,-69,16,-10
1915,5,-239,-152,-65,17,-9
1920,6,-238,-153,-60,18,-8
1925,4,-237,-149,-57,18,-8
1930,4,-235,-149,-55,19,-8
1935,6,-233,-150,-55,20,-7
1940,5,-237,-149,-55,21,-8
1945,6,-236,-147,-58,20,-7
1950,3,-235,-147,-59,21,-7
1955,5,-234,-149,-59,21,-7
1960,5,-238,-148,-60,23,-8
1965,2,-233,-145,-61,23,-6
1970,3,-236,-145,-63,23,-6
1975,3,-235,-148,-64,22,-5
1980,3,-237,-146,-64,24,-4
1985,7,-236,-154,-63,25,-3
1990,4,-234,-152,-65,25,-1
1995,5,-236,-152,-64,25,1
2000,3,-237,-150,-68,25,2
2005,4,-238,-151,-70,26,2
2010,4,-237,-146,-73,27,4
2015,4,-236,-148,-78,26,5
2020,2,-235,-148,-81,27,6
2025,2,-234,-145,-84,26,7
2030,2,-235,-151,-88,26,9
2035,2,-238,-151,-91,28,12
2040,1,-231,-153,-92,29,13
2045,2,-233,-148,-94,31,17
2050,2,-234,-148,-96,35,18
2055,1,-230,-156,-99,38,22
2060,2,-233,-153,-102,43,27
2065,2,-233,-153,-103,48,30
2070,1,-230,-155,-106,53,35
2075,1,-230,-158,-110,59,39
2080,0,-230,-158,-113,64,44
2085,3,-227,-156,-115,70,50
2090,8,-226,-150,-120,74,56
2095,5,-229,-157,-123,80,59
2100,7,-230,-153,-128,84,65
2105,5,-223,-157,-135,89,69
2110,7,-227,-155,-141,94,74
2115,8,-224,-155,-148,99,81
2120,7,-223,-156,-157,103,87
2125,8,-223,-159,-171,107,93
2130,12,-226,-157,-183,113,99
2135,10,-227,-154,-199,118,107
2140,22,-218,-162,-214,126,113
2145,14,-234,-164,-226,134,116
2150,14,-234,-165,-234,144,120
2155,15,-236,-163,-237,154,125
2160,10,-236,-161,-242,166,128
2165,12,-237,-164,-244,180,134
2170,10,-239,-166,-248,193,139
2175,9,-237,-167,-249,205,141
2180,10,-236,-167,-252,218,145
2185,6,-233,-169,-249,229,150
2190,5,-232,-171,-247,238,155
2195,4,-230,-170,-248,246,160
2200,1,-223,-175,-254,255,165
2205,1,-222,-179,-262,266,174
2210,3,-221,-181,-274,277,184
2215,1,-215,-179,-286,286,191
2220,5,-217,-182,-292,300,197
2225,8,-217,-182,-297,315,207
2230,10,-212,-179,-301,331,216
2235,15,-210,-184,-301,348,224
2240,15,-206,-186,-304,364,236
2245,20,-200,-185,-305,379,244
2250,23,-200,-185,-308,394,255
2255,18,-195,-184,-308,405,262
2260,24,-193,-187,-311,415,264
2265,25,-191,-187,-314,425,269
2270,26,-185,-186,-324,431,272
2275,26,-187,-181,-341,437,275
2280,28,-185,-182,-359,440,277
2285,28,-184,-181,-378,443,279
2290,28,-187,-180,-392,448,280
2295,27,-188,-177,-403,452,281
2300,30,-191,-172,-410,457,281
2305,27,-189,-174,-412,459,280
2310,26,-189,-168,-411,458,278
2315,28,-192,-168,-404,458,279
2320,22,-195,-165,-398,456,281
2325,19,-196,-169,-390,452,282
2330,19,-197,-166,-383,444,283
2335,19,-202,-165,-382,433,285
2340,16,-205,-167,-387,419,289
2345,16,-209,-165,-399,407,295
2350,15,-212,-165,-417,394,299
2355,15,-221,-168,-438,383,304
2360,18,-225,-167,-456,368,306
2365,17,-228,-167,-471,356,311
2370,16,-231,-168,-482,345,312
2375,17,-236,-168,-486,334,314
2380,16,-232,-171,-484,321,315
2385,22,-232,-170,-480,307,319
2390,23,-235,-173,-476,288,325
2395,26,-236,-175,-468,266,332
2400,25,-234,-177,-462,246,341
2405,28,-234,-183,-449,220,351
2410,31,-233,-187,-431,193,361
2415,32,-230,-190,-400,163,370
2420,31,-223,-191,-359,130,373
2425,30,-215,-191,-317,94,373
2430,28,-207,-194,-277,60,371
2435,28,-202,-198,-243,27,369
2440,25,-194,-198,-221,-4,366
2445,23,-190,-198,-212,-32,363
2450,18,-183,-201,-216,-60,359
2455,14,-180,-198,-226,-83,354
2460,15,-176,-196,-242,-105,342
2465,10,-175,-191,-257,-124,329
2470,5,-170,-183,-271,-140,313
2475,1,-169,-185,-277,-159,295
2480,-2,-159,-180,-272,-179,275
2485,-6,-158,-179,-257,-200,255
2490,-13,-149,-173,-231,-217,240
2495,-18,-144,-176,-198,-234,226
2500,-24,-136,-176,-168,-247,219
2505,-32,-127,-179,-146,-259,208
2510,-38,-121,-179,-138,-267,200
2515,-39,-113,-185,-144,-274,194
2520,-46,-106,-195,-159,-273,191
2525,-50,-106,-200,-187,-266,191
2530,-51,-100,-204,-229,-253,195
2535,-50,-104,-209,-284,-234,200
2540,-49,-107,-214,-349,-210,209
2545,-45,-110,-212,-425,-180,222
2550,-43,-113,-219,-500,-148,239
2555,-42,-115,-215,-579,-114,261
2560,-43,-119,-207,-655,-78,286
2565,-44,-129,-207,-736,-39,311
2570,-48,-137,-200,-818,5,335
2575,-50,-151,-195,-898,48,354
2580,-53,-171,-192,-979,91,368
2585,-55,-188,-191,-1052,128,372
2590,-60,-206,-188,-1110,158,366
2595,-68,-230,-186,-1149,180,353
2600,-68,-257,-182,-1157,194,336
2605,-72,-282,-176,-1135,196,311
2610,-75,-305,-180,-1072,189,278
2615,-80,-326,-179,-974,173,244
2620,-83,-344,-177,-840,152,215
2625,-88,-351,-180,-669,130,197
2630,-88,-352,-178,-477,110,205
2635,-97,-343,-183,-273,91,232
2640,-87,-328,-180,-70,80,279
2645,-90,-311,-181,115,73,341
2650,-86,-287,-185,260,71,413
2655,-77,-263,-180,361,75,477
2660,-75,-240,-178,411,88,525
2665,-67,-213,-181,416,108,565
2670,-64,-195,-179,384,127,589
2675,-57,-179,-179,328,146,599
2680,-59,-166,-179,263,161,594
2685,-55,-154,-174,199,170,580
2690,-51,-145,-174,135,174,562
2695,-48,-140,-176,76,173,540
2700,-44,-133,-175,25,170,515
2705,-40,-131,-179,-24,168,488
2710,-37,-126,-173,-75,165,463
2715,-33,-127,-175,-126,165,439
2720,-28,-126,-177,-181,171,414
2725,-31,-127,-182,-231,178,380
2730,-33,-130,-183,-272,190,345
2735,-27,-134,-187,-308,198,318
2740,-34,-137,-193,-343,202,286
2745,-29,-151,-199,-377,205,264
2750,-40,-153,-197,-415,205,244
2755,-42,-157,-200,-456,208,231
2760,-40,-164,-202,-501,216,223
2765,-42,-170,-199,-550,225,219
2770,-47,-174,-199,-599,237,223
2775,-42,-178,-195,-637,254,237
2780,-40,-185,-193,-662,270,252
2785,-34,-186,-192,-668,290,265
2790,-28,-189,-191,-654,311,272
2795,-23,-189,-186,-628,342,271
2800,-22,-189,-194,-592,375,269
2805,-16,-190,-191,-549,409,271
2810,-14,-195,-191,-505,441,271
2815,-14,-190,-197,-462,467,270
2820,-17,-193,-199,-422,488,275
2825,-15,-194,-200,-384,511,284
2830,-16,-194,-209,-352,527,283
2835,-17,-194,-210,-331,537,283
2840,-25,-190,-212,-322,546,292
2845,-20,-190,-210,-321,547,313
2850,-25,-187,-208,-331,542,331
2855,-19,-185,-206,-350,537,355
2860,-28,-186,-209,-372,527,367
2865,-32,-188,-205,-397,521,381
2870,-26,-192,-208,-418,513,393
2875,-24,-196,-205,-440,510,398
2880,-22,-194,-202,-453,511,397
2885,-22,-199,-203,-455,508,387
2890,-18,-205,-205,-444,506,377
2895,-16,-209,-206,-424,507,368
2900,-17,-208,-201,-398,512,357
2905,-13,-210,-199,-363,516,349
2910,-8,-212,-194,-325,517,341
2915,-5,-210,-194,-293,519,324
2920,-5,-208,-198,-260,512,302
2925,-4,-208,-195,-226,507,278
2930,-11,-202,-199,-197,508,250
2935,-12,-197,-205,-172,507,240
2940,-15,-196,-208,-158,506,238
2945,-18,-192,-213,-152,504,227
2950,-21,-193,-220,-162,501,232
2955,-22,-192,-227,-174,494,239
2960,-33,-195,-226,-189,484,245
2965,-29,-192,-226,-213,476,255
2970,-28,-196,-230,-241,470,269
2975,-26,-197,-232,-268,469,269
2980,-29,-192,-226,-290,473,269
2985,-26,-198,-223,-303,477,284
2990,-27,-193,-222,-313,482,294
2995,-24,-192,-224,-313,486,305
3000,-26,-187,-220,-305,492,314
3005,-23,-186,-220,-301,495,321
3010,-19,-186,-205,-303,496,329
3015,-17,-185,-223,-307,505,348
3020,-24,-185,-227,-305,513,357
3025,-18,-182,-231,-304,527,377
3030,-24,-182,-234,-296,541,391
3035,-26,-182,-242,-292,556,415
3040,-23,-182,-244,-300,572,442
3045,-26,-180,-242,-303,580,455
3050,-27,-174,-240,-318,583,464
3055,-28,-171,-237,-334,579,477
3060,-23,-173,-240,-349,568,478
3065,-30,-158,-234,-362,554,483
3070,-23,-167,-246,-385,549,498
3075,-24,-173,-252,-411,541,490
3080,-20,-169,-252,-453,542,485
3085,-25,-164,-246,-504,559,469
3090,-20,-166,-249,-553,573,469
3095,-18,-174,-247,-604,600,469
3100,-13,-171,-242,-644,617,459
3105,-19,-171,-241,-664,628,431
3110,-13,-176,-240,-683,645,414
3115,-11,-182,-246,-702,666,390
3120,-11,-189,-250,-716,695,356
3125,-9,-192,-242,-728,714,332
3130,-12,-191,-239,-726,718,297
3135,-12,-190,-240,-711,710,255
3140,-4,-194,-243,-701,697,239
3145,-11,-190,-242,-685,691,210
3150,-13,-188,-248,-671,678,200
3155,-10,-186,-238,-659,680,195
3160,-14,-181,-244,-635,659,154
3165,-12,-179,-251,-620,640,140
3170,-8,-180,-251,-608,632,164
3175,2,-184,-254,-594,629,163
3180,0,-180,-251,-586,620,118
3185,3,-184,-253,-572,615,95
3190,4,-181,-252,-547,607,113
3195,17,-185,-246,-506,603,126
3200,18,-181,-251,-452,594,110
3205,20,-180,-246,-404,594,105
3210,20,-180,-243,-377,599,101
3215,24,-177,-236,-361,609,97
3220,26,-174,-232,-344,615,87
3225,25,-167,-227,-329,621,76
3230,24,-159,-226,-304,632,71
3235,17,-156,-226,-277,637,61
3240,20,-156,-229,-254,634,54
3245,19,-151,-227,-236,624,40
3250,9,-155,-234,-226,611,27
3255,13,-148,-230,-221,601,30
3260,17,-152,-234,-224,597,54
3265,11,-152,-237,-224,593,29
3270,13,-157,-234,-222,595,16
3275,10,-157,-243,-215,596,24
3280,15,-154,-242,-202,598,36
3285,10,-155,-238,-175,594,53
3290,13,-158,-242,-142,581,65
3295,5,-155,-243,-128,566,59
3300,11,-156,-246,-127,544,65
3305,11,-148,-247,-131,518,64
3310,15,-154,-240,-139,501,66
3315,13,-157,-242,-141,485,58
3320,15,-156,-248,-139,478,56
3325,14,-161,-246,-128,479,55
3330,20,-156,-251,-115,479,53
3335,30,-162,-248,-100,484,48
3340,24,-164,-251,-84,481,27
3345,25,-162,-255,-64,481,17
3350,26,-160,-256,-44,468,12
3355,30,-155,-252,-25,450,9
3360,33,-153,-259,-8,440,3
3365,31,-157,-257,4,435,-6
3370,33,-160,-259,14,427,-9
3375,34,-159,-261,37,422,-19
3380,27,-162,-260,53,423,-19
3385,26,-163,-259,64,413,-24
3390,26,-161,-252,79,396,-23
3395,28,-165,-251,100,386,-19
3400,32,-161,-250,127,372,-7
3405,21,-162,-244,156,358,2
3410,16,-158,-247,182,335,4
3415,14,-157,-248,200,298,8
3420,10,-148,-247,219,253,8
3425,9,-149,-248,235,204,12
3430,1,-149,-244,244,161,17
3435,4,-154,-247,243,125,17
3440,-1,-153,-248,240,91,23
3445,6,-155,-252,244,54,31
3450,14,-161,-255,253,31,41
3455,15,-173,-252,263,16,43
3460,21,-165,-258,268,6,35
3465,23,-166,-262,278,6,37
3470,25,-170,-256,289,10,38
3475,21,-171,-254,310,8,29
3480,30,-166,-251,337,2,22
3485,29,-164,-246,366,0,19
3490,27,-163,-247,389,-4,12
3495,21,-163,-246,405,-9,1
3500,12,-162,-249,416,-14,-12
3505,19,-154,-252,426,-23,-28
3510,11,-160,-250,436,-38,-38
3515,7,-158,-245,442,-56,-44
3520,8,-165,-242,449,-80,-48
3525,6,-166,-244,459,-112,-47
3530,5,-162,-244,476,-151,-41
3535,1,-165,-239,485,-191,-34
3540,-1,-163,-238,497,-225,-23
3545,6,-167,-234,509,-263,-10
3550,4,-168,-232,526,-300,-3
3555,9,-167,-236,543,-331,1
3560,-12,-162,-235,564,-356,9
3565,14,-173,-251,603,-382,17
3570,6,-162,-249,627,-400,-4
3575,13,-159,-236,636,-417,-11
3580,9,-162,-238,637,-435,-15
3585,24,-162,-253,638,-455,-15
3590,11,-167,-247,646,-458,-20
3595,12,-163,-241,646,-464,-36
3600,10,-163,-241,634,-477,-46
3605,18,-165,-242,632,-486,-50
3610,8,-166,-234,643,-488,-45
3615,15,-173,-243,644,-506,-61
3620,-4,-167,-233,653,-514,-71
3625,-8,-166,-232,669,-534,-74
3630,0,-159,-239,668,-556,-76
3635,10,-165,-233,654,-566,-84
3640,-2,-162,-235,645,-579,-99
3645,0,-166,-237,635,-591,-103
3650,1,-168,-242,622,-615,-115
3655,-21,-171,-232,614,-630,-131
3660,11,-175,-242,603,-656,-137
3665,16,-179,-240,589,-657,-147
3670,-12,-179,-241,584,-665,-168
3675,0,-178,-250,577,-675,-173
3680,5,-185,-247,575,-671,-165
3685,-11,-184,-242,580,-670,-174
3690,13,-182,-243,576,-675,-186
3695,-11,-177,-239,583,-678,-183
3700,-3,-183,-252,582,-695,-176
3705,-5,-184,-246,589,-693,-177
3710,-9,-180,-247,590,-693,-183
3715,-7,-181,-244,580,-698,-198
3720,-24,-177,-249,562,-711,-207
3725,-31,-178,-241,538,-732,-203
3730,-16,-183,-247,516,-741,-199
3735,-20,-178,-240,504,-752,-199
3740,-9,-181,-240,483,-768,-201
3745,-22,-180,-241,471,-766,-207
3750,-26,-185,-244,464,-773,-219
3755,-22,-183,-243,456,-781,-230
3760,-38,-185,-236,452,-790,-238
3765,-20,-181,-240,439,-800,-245
3770,-19,-183,-234,426,-796,-251
3775,-11,-183,-224,415,-781,-270
3780,-37,-177,-224,399,-782,-281
3785,-16,-184,-227,386,-800,-262
3790,-16,-183,-220,365,-810,-276
3795,-23,-179,-222,347,-814,-285
3800,-31,-178,-223,341,-809,-290
3805,-17,-187,-225,336,-814,-293
3810,-29,-185,-217,332,-813,-294
3815,-32,-179,-213,326,-820,-294
3820,5,-186,-210,305,-828,-298
3825,-26,-183,-218,283,-819,-316
3830,-24,-186,-214,260,-812,-320
3835,-12,-189,-216,245,-799,-330
3840,-34,-186,-209,248,-785,-319
3845,-25,-187,-215,246,-774,-302
3850,-20,-193,-210,234,-759,-302
3855,-34,-191,-212,220,-730,-317
3860,-22,-193,-218,214,-706,-317
3865,-20,-198,-216,207,-701,-310
3870,-28,-194,-208,210,-686,-307
3875,-11,-194,-205,222,-674,-291
3880,-21,-198,-210,215,-672,-282
3885,-20,-195,-225,216,-655,-292
3890,-29,-200,-207,224,-645,-303
3895,-22,-197,-210,234,-635,-299
3900,-28,-201,-209,234,-637,-286
3905,-17,-198,-208,221,-638,-290
3910,-23,-194,-205,217,-639,-291
3915,-20,-192,-209,210,-631,-284
3920,-28,-207,-214,213,-612,-265
3925,-19,-200,-204,211,-594,-273
3930,-6,-205,-203,201,-607,-267
3935,-13,-204,-199,210,-588,-271
3940,-22,-201,-201,225,-573,-269
3945,-15,-201,-200,228,-561,-264
3950,-23,-202,-204,228,-542,-259
3955,-4,-208,-200,220,-524,-256
3960,-16,-217,-203,225,-493,-260
3965,-16,-210,-199,244,-462,-283
3970,-16,-212,-198,265,-426,-282
3975,-15,-214,-202,274,-418,-278
3980,-18,-210,-199,286,-404,-280
3985,-18,-214,-195,302,-396,-276
3990,-18,-209,-192,302,-393,-280
3995,-19,-217,-196,294,-399,-274
4000,-24,-216,-193,303,-394,-270
4005,-18,-216,-199,316,-389,-269
4010,-23,-220,-191,323,-375,-266
4015,-27,-219,-187,327,-367,-268
4020,-21,-221,-188,337,-359,-265
4025,-24,-226,-192,350,-347,-262
4030,-20,-230,-187,367,-329,-256
4035,-24,-234,-187,381,-321,-262
4040,-24,-225,-184,380,-317,-279
4045,-33,-235,-191,387,-307,-277
4050,-30,-239,-191,395,-293,-272
4055,-31,-234,-190,398,-287,-272
4060,-26,-241,-186,412,-279,-264
4065,-30,-242,-187,430,-275,-253
4070,-26,-243,-189,453,-273,-241
4075,-27,-245,-185,474,-266,-230
4080,-24,-248,-184,496,-259,-215
4085,-27,-250,-181,514,-256,-203
4090,-29,-246,-182,531,-256,-191
4095,-32,-242,-180,545,-257,-184
4100,-35,-240,-177,553,-262,-177
4105,-39,-241,-173,557,-271,-171
4110,-36,-237,-170,559,-278,-166
4115,-33,-231,-174,559,-281,-162
4120,-31,-229,-170,556,-280,-158
4125,-34,-230,-169,554,-276,-155
4130,-33,-231,-170,552,-268,-154
4135,-35,-233,-169,553,-255,-155
4140,-35,-233,-175,553,-234,-152
4145,-34,-237,-172,553,-213,-150
4150,-34,-235,-173,553,-193,-148
4155,-33,-232,-170,554,-174,-145
4160,-35,-229,-175,551,-160,-146
4165,-34,-236,-170,550,-153,-146
4170,-37,-236,-169,543,-150,-146
4175,-38,-232,-169,540,-149,-143
4180,-34,-234,-169,537,-148,-138
4185,-37,-234,-168,535,-146,-133
4190,-36,-232,-169,539,-146,-127
4195,-39,-233,-171,543,-146,-120
4200,-39,-228,-171,548,-141,-116
4205,-38,-231,-165,554,-135,-109
4210,-37,-232,-167,559,-129,-104
4215,-43,-232,-169,563,-128,-99
4220,-38,-231,-165,570,-126,-95
4225,-35,-231,-167,582,-128,-95
4230,-35,-227,-166,591,-126,-95
4235,-36,-230,-162,595,-123,-97
4240,-42,-229,-160,594,-120,-97
4245,-47,-230,-158,594,-120,-94
4250,-47,-232,-153,597,-120,-89
4255,-48,-238,-145,599,-120,-85
4260,-45,-240,-149,606,-122,-84
4265,-46,-249,-149,613,-121,-82
4270,-45,-246,-160,612,-121,-78
4275,-48,-249,-163,598,-121,-70
4280,-47,-252,-169,579,-121,-62
4285,-48,-257,-176,558,-122,-57
4290,-49,-266,-172,543,-123,-56
4295,-48,-276,-170,546,-131,-60
4300,-51,-283,-160,568,-148,-70
4305,-51,-294,-159,587,-170,-84
4310,-49,-305,-157,604,-197,-96
4315,-52,-309,-155,613,-223,-102
4320,-51,-307,-156,617,-236,-105
4325,-50,-309,-165,618,-246,-96
4330,-50,-305,-165,609,-251,-83
4335,-44,-302,-164,598,-253,-71
4340,-48,-301,-157,592,-246,-58
4345,-43,-298,-158,594,-229,-51
4350,-38,-293,-154,599,-204,-47
4355,-41,-281,-146,608,-171,-43
4360,-40,-269,-142,620,-140,-40
4365,-38,-259,-136,630,-112,-45
4370,-38,-244,-133,635,-93,-57
4375,-35,-232,-129,630,-83,-72
4380,-47,-216,-127,623,-78,-83
4385,-39,-204,-125,615,-79,-92
4390,-35,-192,-116,588,-83,-110
4395,-38,-186,-108,550,-91,-121
4400,-39,-183,-105,509,-104,-124
4405,-36,-182,-97,464,-123,-126
4410,-37,-184,-91,415,-153,-126
4415,-32,-189,-85,363,-188,-127
4420,-28,-195,-81,314,-221,-126
4425,-24,-203,-80,270,-255,-125
4430,-24,-216,-85,231,-288,-125
4435,-26,-227,-82,203,-314,-127
4440,-25,-238,-81,183,-336,-131
4445,-23,-251,-86,173,-352,-138
4450,-24,-264,-88,177,-359,-149
4455,-30,-273,-89,198,-359,-162
4460,-32,-284,-83,232,-352,-175
4465,-33,-289,-83,274,-343,-193
4470,-32,-296,-80,319,-332,-210
4475,-31,-296,-81,368,-321,-229
4480,-31,-296,-76,417,-310,-245
4485,-23,-298,-77,464,-300,-258
4490,-26,-293,-75,507,-294,-272
4495,-20,-288,-78,544,-284,-284
4500,-13,-284,-78,579,-274,-291
4505,-15,-283,-76,613,-261,-293
4510,-13,-275,-82,644,-253,-295
4515,-10,-272,-83,672,-248,-297
4520,-8,-262,-86,700,-250,-300
4525,-10,-250,-98,720,-250,-301
4530,-11,-243,-95,726,-250,-298
4535,-14,-232,-97,727,-252,-292
4540,-14,-226,-100,712,-253,-287
4545,-21,-220,-104,687,-258,-281
4550,-23,-217,-109,652,-266,-274
4555,-17,-218,-103,608,-279,-266
4560,-22,-219,-111,560,-295,-257
4565,-27,-219,-112,511,-310,-250
4570,-29,-228,-110,462,-330,-245
4575,-27,-237,-106,415,-351,-241
4580,-24,-244,-105,378,-368,-237
4585,-24,-250,-105,354,-385,-236
4590,-24,-256,-110,340,-400,-240
4595,-21,-254,-105,334,-407,-247
4600,-19,-266,-107,331,-408,-255
4605,-19,-271,-110,326,-403,-265
4610,-14,-273,-103,317,-394,-273
4615,-11,-277,-98,306,-386,-286
4620,-8,-281,-98,298,-371,-301
4625,-7,-283,-89,291,-356,-316
4630,-2,-282,-85,287,-340,-331
4635,-7,-281,-86,287,-322,-343
4640,-5,-277,-86,285,-299,-351
4645,-2,-275,-79,290,-278,-355
4650,-3,-271,-82,300,-259,-360
4655,-4,-266,-78,311,-240,-354
4660,0,-261,-81,319,-225,-344
4665,-2,-255,-75,324,-214,-326
4670,5,-255,-71,329,-213,-309
4675,6,-248,-66,329,-222,-300
4680,10,-247,-62,330,-239,-288
4685,10,-242,-60,327,-262,-280
4690,12,-242,-58,317,-289,-267
4695,20,-241,-46,298,-316,-259
4700,14,-247,-46,276,-335,-265
4705,15,-244,-45,255,-346,-275
4710,16,-249,-45,235,-345,-280
4715,14,-250,-45,224,-336,-285
4720,16,-252,-48,220,-315,-288
4725,16,-256,-58,221,-288,-290
4730,9,-253,-55,225,-256,-292
4735,10,-254,-62,235,-221,-290
4740,11,-254,-70,248,-187,-286
4745,8,-255,-79,253,-153,-279
4750,10,-271,-76,247,-125,-269
4755,10,-255,-82,238,-103,-268
4760,6,-255,-88,226,-87,-272
4765,15,-254,-85,217,-75,-267
4770,15,-256,-85,209,-69,-270
4775,14,-256,-79,204,-67,-279
4780,20,-261,-82,205,-70,-285
4785,18,-259,-79,209,-74,-287
4790,21,-263,-79,208,-81,-286
4795,20,-265,-81,206,-86,-288
4800,20,-269,-79,205,-91,-295
4805,18,-259,-87,210,-94,-295
4810,18,-271,-81,220,-96,-292
4815,20,-270,-78,233,-99,-285
4820,20,-276,-78,240,-99,-285
4825,15,-278,-75,252,-98,-280
4830,18,-274,-75,264,-98,-268
4835,13,-272,-70,272,-103,-265
4840,15,-272,-66,280,-112,-256
4845,16,-271,-65,281,-123,-242
4850,19,-267,-64,281,-137,-232
4855,17,-263,-63,286,-143,-235
4860,21,-262,-63,291,-146,-231
4865,21,-258,-59,299,-144,-222
4870,22,-257,-63,312,-136,-209
4875,18,-256,-60,319,-129,-199
4880,20,-252,-61,326,-125,-188
4885,19,-250,-60,326,-126,-177
4890,20,-246,-58,323,-131,-163
4895,20,-244,-60,313,-137,-158
4900,24,-242,-62,297,-142,-153
4905,20,-240,-59,280,-140,-148
4910,23,-240,-57,260,-131,-143
4915,24,-240,-54,239,-120,-136
4920,25,-240,-62,214,-105,-126
4925,26,-241,-54,191,-90,-120
4930,26,-245,-50,168,-73,-113
4935,29,-241,-52,150,-58,-104
4940,31,-247,-47,136,-44,-95
4945,32,-245,-48,123,-30,-91
4950,25,-248,-50,114,-20,-91
4955,25,-249,-53,108,-10,-91
4960,25,-252,-48,101,-6,-84
4965,22,-254,-49,90,-7,-79
4970,22,-255,-54,80,-12,-74
4975,19,-256,-50,70,-16,-68
4980,19,-260,-52,61,-23,-60
4985,19,-260,-51,56,-30,-50
4990,23,-264,-54,52,-38,-38
4995,28,-263,-51,52,-43,-28
5000,22,-262,-50,57,-44,-20
5005,25,-263,-50,63,-46,-13
5010,27,-265,-49,74,-48,-6
5015,28,-264,-48,85,-49,1
5020,31,-264,-51,97,-48,10
5025,32,-266,-53,102,-43,15
5030,29,-260,-49,107,-39,22
5035,29,-257,-54,106,-32,29
5040,26,-256,-52,100,-25,34
5045,25,-255,-48,88,-18,40
5050,24,-252,-46,76,-11,46
5055,22,-252,-48,64,-6,51
5060,23,-253,-48,50,-1,54
5065,22,-254,-45,39,7,56
5070,21,-254,-45,33,16,59
5075,19,-257,-44,27,26,61
5080,18,-257,-44,23,37,61
5085,18,-256,-44,20,48,63
5090,17,-259,-41,18,56,62
5095,15,-259,-43,15,65,62
5100,13,-259,-41,15,72,63
5105,11,-258,-47,13,79,61
5110,10,-256,-47,13,83,60
5115,7,-254,-46,9,87,61
5120,10,-255,-51,2,87,60
5125,8,-255,-49,-5,86,59
5130,8,-255,-50,-16,81,55
5135,11,-255,-48,-28,76,54
5140,11,-257,-46,-39,69,52
5145,5,-253,-44,-48,62,48
5150,10,-257,-43,-61,53,47
5155,12,-257,-48,-70,45,43
5160,10,-256,-43,-78,34,36
5165,9,-257,-43,-85,26,29
5170,6,-260,-48,-91,20,21
5175,1,-261,-48,-92,19,13
5180,2,-263,-53,-94,18,3
5185,0,-267,-55,-88,20,-3
5190,2,-268,-54,-80,24,-7
5195,0,-266,-60,-76,32,-10
5200,0,-265,-62,-71,36,-9
5205,1,-267,-60,-69,41,-10
5210,1,-262,-59,-72,44,-9
5215,3,-264,-57,-82,45,-9
5220,7,-268,-61,-92,47,-8
5225,4,-262,-53,-100,44,-8
5230,7,-263,-50,-107,43,-9
5235,6,-263,-48,-112,37,-11
5240,9,-258,-53,-111,29,-12
5245,5,-261,-45,-109,19,-15
5250,7,-264,-49,-107,9,-17
5255,8,-259,-51,-108,-1,-18
5260,8,-258,-50,-108,-10,-17
5265,6,-258,-50,-111,-19,-16
5270,6,-259,-49,-114,-27,-15
5275,5,-257,-51,-118,-30,-16
5280,5,-255,-52,-118,-35,-15
5285,11,-258,-53,-122,-36,-16
5290,8,-258,-50,-123,-36,-17
5295,9,-257,-51,-126,-36,-19
5300,11,-259,-47,-129,-32,-17
5305,10,-255,-45,-128,-26,-17
5310,13,-257,-50,-129,-20,-16
5315,15,-259,-49,-130,-13,-15
5320,13,-258,-48,-132,-6,-14
5325,15,-258,-52,-135,-1,-12
5330,13,-258,-55,-140,5,-10
5335,15,-261,-54,-144,9,-8
5340,13,-261,-53,-149,13,-8
5345,15,-259,-58,-151,16,-5
5350,14,-262,-56,-157,19,-5
5355,14,-261,-57,-163,19,-5
5360,15,-261,-59,-169,18,-4
5365,13,-262,-58,-173,17,-3
5370,12,-263,-61,-175,14,-3
5375,15,-264,-60,-173,11,-1
5380,12,-266,-63,-172,10,3
5385,13,-262,-63,-167,9,8
5390,13,-263,-64,-162,9,11
5395,15,-261,-67,-158,12,16
5400,15,-262,-65,-152,14,22
5405,18,-261,-71,-149,18,30
5410,19,-257,-66,-147,22,38
5415,25,-260,-65,-150,28,47
5420,26,-261,-67,-156,34,55
5425,24,-262,-63,-165,40,61
5430,21,-266,-62,-176,47,67
5435,23,-265,-61,-180,51,71
5440,24,-267,-54,-181,53,77
5445,24,-273,-56,-173,55,81
5450,21,-274,-53,-159,51,88
5455,19,-273,-51,-139,46,92
5460,17,-261,-62,-116,40,95
5465,22,-273,-55,-90,37,98
5470,20,-273,-62,-65,37,101
5475,21,-270,-60,-43,42,103
5480,20,-269,-61,-25,47,106
5485,19,-264,-58,-10,55,110
5490,17,-263,-60,-1,62,114
5495,13,-262,-59,4,69,116
5500,13,-263,-59,2,76,120
5505,9,-260,-58,-3,85,124
5510,9,-258,-55,-15,92,126
5515,5,-259,-56,-25,98,130
5520,6,-263,-58,-34,101,131
5525,3,-258,-57,-40,103,134
5530,5,-260,-63,-46,105,136
5535,4,-258,-57,-50,104,138
5540,3,-260,-54,-53,102,137
5545,3,-258,-57,-56,97,137
5550,6,-259,-56,-59,91,136
5555,10,-261,-55,-59,86,136
5560,13,-261,-52,-58,80,134
5565,10,-263,-53,-55,77,132
5570,10,-262,-54,-49,74,128
5575,8,-264,-48,-43,72,125
5580,10,-261,-47,-39,72,124
5585,8,-261,-51,-34,71,121
5590,7,-261,-53,-31,68,118
5595,11,-263,-52,-32,66,116
5600,3,-258,-54,-33,64,112
5605,6,-259,-54,-33,64,110
5610,5,-259,-57,-35,65,107
5615,4,-274,-47,-39,69,107
5620,1,-260,-62,-43,70,105
5625,1,-258,-57,-43,72,104
5630,0,-256,-59,-45,73,102
5635,1,-263,-58,-46,73,97
5640,-2,-260,-58,-44,72,93
5645,-2,-264,-55,-42,71,88
5650,-6,-258,-52,-37,70,83
5655,-4,-266,-57,-30,72,79
5660,-7,-264,-56,-25,71,73
5665,-8,-263,-53,-19,72,70
5670,-6,-255,-69,-14,74,67
5675,-7,-264,-62,-11,76,65
5680,-8,-262,-62,-9,75,63
5685,-8,-263,-60,-9,77,61
5690,-9,-261,-63,-8,77,61
5695,-7,-263,-61,-11,77,59
5700,-10,-259,-61,-14,78,58
5705,0,-263,-62,-18,79,56
5710,-5,-261,-61,-20,82,56
5715,-2,-262,-60,-19,82,56
5720,-3,-260,-60,-18,84,53
5725,3,-260,-60,-18,85,51
5730,1,-263,-61,-16,84,48
5735,1,-261,-57,-13,82,44
5740,2,-259,-62,-10,80,43
5745,0,-258,-58,-10,77,39
5750,1,-259,-62,-8,73,35
5755,0,-258,-56,-7,69,34
5760,0,-258,-55,-8,65,34
5765,2,-257,-54,-9,62,34
5770,1,-257,-55,-10,57,32
5775,2,-258,-55,-12,53,33
5780,2,-257,-49,-15,50,32
5785,0,-259,-51,-17,49,33
5790,0,-257,-54,-20,48,33
5795,0,-255,-51,-22,47,34
5800,1,-259,-51,-24,49,35
5805,1,-262,-52,-26,49,36
5810,0,-259,-55,-27,50,36
5815,0,-260,-56,-30,51,34
5820,0,-259,-52,-33,52,34
5825,0,-260,-57,-35,53,33
5830,-1,-258,-55,-39,52,33
5835,-3,-257,-59,-42,52,29
5840,-2,-257,-55,-46,51,30
5845,-1,-258,-56,-51,49,28
5850,0,-258,-57,-54,47,25
5855,0,-256,-54,-59,47,25
5860,0,-259,-55,-61,47,22
5865,1,-260,-56,-64,47,22
5870,-2,-259,-60,-64,48,20
5875,0,-263,-58,-66,48,20
5880,1,-259,-55,-65,49,17
5885,0,-261,-56,-66,49,17
5890,2,-260,-56,-65,50,17
5895,0,-262,-56,-67,49,15
5900,0,-262,-57,-66,49,14
5905,1,-259,-57,-66,48,10
5910,0,-261,-57,-67,47,12
5915,0,-258,-57,-67,45,10
5920,0,-257,-56,-69,43,11
5925,-3,-259,-58,-68,42,10
5930,-1,-259,-60,-67,39,10
5935,-4,-258,-54,-65,38,9
5940,0,-260,-59,-64,37,10
5945,-1,-260,-60,-63,36,11
5950,-2,-259,-60,-59,35,10
5955,-1,-260,-57,-58,33,10
5960,-4,-259,-59,-56,31,10
5965,-5,-258,-59,-54,28,9
5970,-2,-259,-59,-52,26,10
5975,-2,-263,-59,-53,25,9
5980,-2,-259,-57,-51,25,8
5985,-1,-260,-57,-50,25,7
5990,0,-258,-61,-47,24,6
5995,-4,-262,-58,-47,25,4
6000,3,-262,-59,-47,26,3
6005,-1,-260,-58,-47,26,4
6010,0,-262,-60,-46,26,2
6015,1,-265,-59,-45,25,0
6020,-1,-261,-59,-43,24,0
6025,-3,-259,-57,-43,24,-1
6030,-1,-258,-59,-40,24,-1
6035,0,-263,-60,-38,23,-3
6040,0,-261,-57,-37,22,-3
6045,0,-261,-61,-34,21,-3
6050,0,-262,-61,-32,19,-4
6055,0,-260,-60,-29,18,-4
6060,-2,-259,-58,-26,17,-5
6065,1,-258,-59,-23,16,-5
6070,0,-261,-57,-22,14,-6
6075,0,-259,-59,-22,13,-5
6080,-1,-259,-60,-23,14,-7
6085,1,-261,-58,-25,12,-8
6090,-1,-259,-56,-25,11,-8
6095,-2,-260,-57,-28,10,-10
6100,-1,-257,-60,-27,10,-10
6105,2,-268,-54,-28,8,-11
6110,-2,-262,-56,-28,9,-11
6115,1,-263,-61,-27,9,-11
6120,-2,-259,-57,-25,9,-11
6125,-3,-263,-57,-25,9,-11
6130,0,-261,-58,-21,9,-12
6135,-2,-258,-53,-21,10,-14
6140,0,-262,-60,-20,7,-14
6145,1,-261,-60,-18,8,-15
6150,2,-263,-56,-16,8,-16
6155,0,-261,-57,-16,8,-16
6160,-1,-257,-54,-14,8,-17
6165,-2,-261,-60,-14,8,-16
6170,0,-258,-55,-16,7,-16
6175,-2,-259,-58,-18,7,-16
6180,-4,-257,-60,-18,7,-15
6185,0,-261,-59,-21,7,-15
6190,-1,-259,-56,-26,7,-14
6195,0,-260,-59,-28,7,-14
6200,-2,-256,-56,-30,5,-13
6205,0,-261,-60,-34,4,-13
6210,0,-259,-57,-36,1,-13
6215,3,-267,-54,-37,-1,-12
6220,-3,-259,-56,-38,-1,-13
6225,0,-260,-56,-39,-3,-11
6230,-2,-259,-56,-40,-1,-11
6235,2,-263,-52,-40,-1,-10
6240,0,-259,-55,-39,0,-10
6245,0,-262,-57,-38,0,-10
6250,0,-260,-59,-35,1,-9
6255,0,-260,-56,-34,1,-7
6260,0,-260,-52,-33,2,-5
6265,0,-261,-58,-32,2,-6
6270,0,-258,-54,-28,4,-7
6275,0,-262,-54,-27,3,-6
6280,-2,-260,-57,-26,2,-5
6285,0,-263,-57,-24,2,-3
6290,0,-261,-55,-22,2,-4
6295,0,-262,-56,-21,0,-3
6300,-1,-261,-55,-22,0,-4
6305,2,-261,-58,-21,-1,-4
6310,1,-260,-55,-19,0,-4
6315,1,-264,-58,-18,1,-4
6320,-1,-262,-55,-16,2,-6
6325,0,-261,-59,-15,3,-7
6330,1,-264,-56,-14,3,-11
6335,0,-264,-56,-12,5,-12
6340,1,-261,-56,-11,5,-14
6345,1,-260,-55,-11,6,-15
6350,0,-258,-54,-11,8,-15
6355,0,-259,-57,-13,8,-17
6360,0,-259,-55,-14,10,-17
6365,1,-259,-54,-14,10,-18
6370,1,-260,-55,-17,11,-16
6375,1,-259,-53,-18,14,-16
6380,-2,-257,-57,-19,14,-14
6385,1,-260,-53,-21,16,-15
6390,1,-259,-55,-23,16,-14
6395,0,-257,-50,-25,16,-14
6400,0,-259,-53,-26,14,-14
6405,0,-259,-58,-29,13,-13
6410,0,-257,-52,-33,11,-10
6415,1,-258,-55,-36,10,-9
6420,2,-258,-53,-38,7,-8
6425,-12,-265,-38,-41,7,-6
6430,-2,-259,-53,-42,4,-2
6435,0,-262,-53,-46,3,-2
6440,-2,-259,-53,-47,3,0
6445,1,-261,-52,-47,5,0
6450,0,-262,-54,-47,7,2
6455,0,-260,-57,-45,11,2
6460,0,-262,-56,-45,13,4
6465,0,-261,-53,-45,14,3
6470,2,-262,-49,-43,16,4
6475,0,-260,-54,-43,15,2
6480,3,-271,-31,-44,17,0
6485,0,-264,-51,-43,15,1
6490,0,-263,-55,-43,16,-2
6495,2,-260,-54,-43,16,-3
6500,1,-260,-56,-40,17,-4
6505,1,-260,-54,-40,17,-4
6510,1,-260,-57,-39,16,-5
6515,0,-261,-52,-35,17,-3
6520,0,-259,-51,-35,17,-3
6525,1,-262,-53,-35,17,-4
6530,1,-257,-57,-34,17,-3
6535,-3,-263,-49,-32,16,-2
6540,0,-259,-53,-31,17,-1
6545,2,-260,-61,-30,18,0
6550,3,-261,-54,-29,19,0
6555,0,-260,-57,-28,18,0
6560,1,-258,-53,-29,17,0
6565,6,-258,-50,-28,18,1
6570,1,-260,-56,-27,18,0
6575,1,-260,-53,-27,16,2
6580,2,-260,-50,-28,17,3
6585,-1,-259,-50,-26,18,4
6590,1,-258,-65,-28,17,4
6595,1,-260,-55,-30,20,5
6600,1,-258,-53,-32,21,6
6605,1,-262,-51,-36,20,5
6610,1,-259,-53,-36,23,5
6615,0,-256,-51,-38,24,6
6620,1,-262,-50,-42,27,6
6625,0,-257,-52,-46,30,4
6630,0,-262,-49,-49,33,4
6635,-2,-261,-46,-53,36,1
6640,1,-262,-47,-51,37,1
6645,-1,-260,-53,-53,39,-3
6650,0,-266,-49,-54,40,-6
6655,-15,-257,-57,-56,41,-8
6660,-3,-260,-52,-56,41,-11
6665,-4,-260,-53,-57,42,-15
6670,-1,-262,-52,-60,42,-20
6675,-4,-260,-53,-62,42,-24
6680,-6,-261,-50,-64,44,-28
6685,-3,-259,-55,-67,45,-33
6690,-6,-264,-56,-67,50,-38
6695,-3,-266,-58,-68,56,-41
6700,-6,-263,-58,-64,57,-45
6705,-4,-265,-58,-64,59,-49
6710,-5,-265,-61,-61,60,-54
6715,-5,-262,-57,-57,60,-59
6720,-3,-264,-61,-53,60,-65
6725,-3,-263,-63,-50,60,-68
6730,-1,-263,-62,-50,60,-70
6735,0,-265,-62,-48,59,-69
6740,0,-261,-64,-44,53,-69
6745,0,-264,-61,-39,45,-66
6750,1,-261,-62,-34,32,-64
6755,1,-261,-58,-29,19,-61
6760,2,-256,-59,-24,4,-59
6765,4,-260,-61,-21,-10,-55
6770,4,-256,-58,-23,-21,-52
6775,5,-259,-56,-25,-28,-47
6780,4,-258,-54,-25,-35,-44
6785,4,-259,-55,-24,-40,-39
6790,4,-260,-54,-20,-44,-34
6795,1,-259,-54,-18,-48,-30
6800,3,-259,-52,-14,-49,-26
6805,1,-259,-53,-9,-52,-21
6810,3,-261,-57,-4,-55,-20
6815,1,-262,-53,1,-57,-19
6820,2,-259,-53,2,-54,-17
6825,0,-258,-57,2,-53,-16
6830,0,-259,-59,-7,-52,-13
6835,2,-257,-57,-17,-51,-14
6840,1,-258,-60,-28,-48,-14
6845,1,-260,-63,-34,-45,-16
6850,2,-261,-55,-38,-42,-16
6855,3,-258,-57,-38,-37,-18
6860,3,-260,-53,-40,-32,-15
6865,3,-258,-58,-48,-27,-12
6870,5,-262,-51,-58,-19,-13
6875,5,-263,-53,-67,-11,-14
6880,7,-261,-49,-73,-1,-15
6885,6,-260,-52,-73,8,-18
6890,7,-262,-51,-70,17,-18
6895,4,-261,-48,-66,21,-18
6900,9,-265,-51,-60,22,-19
6905,5,-262,-50,-50,20,-19
6910,6,-261,-54,-41,17,-19
6915,7,-262,-46,-31,19,-21
6920,4,-261,-50,-26,20,-25
6925,7,-261,-49,-21,24,-30
6930,5,-263,-48,-13,31,-36
6935,5,-261,-52,-3,36,-37
6940,9,-262,-45,10,33,-34
6945,5,-261,-55,19,24,-29
6950,7,-258,-52,20,13,-23
6955,10,-259,-57,14,2,-21
6960,11,-260,-58,5,-7,-16
6965,7,-259,-58,-4,-10,-14
6970,9,-261,-62,-7,-7,-15
6975,8,-260,-62,-7,-2,-10
6980,8,-261,-63,2,7,-3
6985,11,-262,-63,9,9,7
6990,9,-260,-58,15,10,19
6995,13,-266,-59,20,9,31
7000,8,-260,-62,25,6,37
7005,6,-262,-59,36,5,41
7010,3,-265,-61,53,8,43
7015,1,-259,-56,73,12,43
7020,6,-264,-56,86,17,46
7025,3,-261,-51,95,24,48
7030,4,-261,-50,100,29,51
7035,6,-264,-48,101,32,54
7040,2,-265,-48,109,34,58
7045,3,-266,-47,123,39,58
7050,1,-260,-46,143,48,56
7055,1,-256,-49,150,62,56
7060,2,-256,-44,138,72,61
7065,0,-255,-49,118,84,65
7070,-3,-246,-47,106,99,75
7075,-1,-260,-48,110,116,88
7080,0,-263,-48,119,118,87
7085,2,-261,-50,129,112,94
7090,0,-262,-46,138,103,105
7095,2,-257,-45,143,90,115
7100,4,-258,-42,130,73,123
7105,4,-258,-48,117,65,133
7110,7,-267,-43,122,67,149
7115,2,-269,-44,134,66,147
7120,2,-268,-45,147,70,141
7125,-3,-266,-45,168,77,137
7130,0,-270,-48,192,85,137
7135,1,-265,-51,213,90,139
7140,-1,-257,-51,224,93,134
7145,-3,-252,-43,219,90,128
7150,-2,-246,-47,189,80,124
7155,0,-245,-46,147,77,128
7160,0,-247,-43,108,75,131
7165,0,-246,-38,69,73,135
7170,3,-246,-38,31,74,139
7175,6,-244,-34,-1,81,146
7180,5,-251,-35,-18,89,153
7185,3,-255,-42,-22,101,154
7190,2,-255,-39,-27,113,153
7195,2,-256,-34,-44,118,154
7200,5,-252,-25,-64,118,163
7205,7,-256,-26,-71,114,175
7210,10,-258,-26,-72,102,172
7215,7,-256,-29,-75,94,173
7220,3,-255,-22,-82,91,177
7225,8,-255,-30,-96,87,183
7230,7,-253,-27,-114,86,189
7235,5,-255,-40,-128,92,193
7240,3,-258,-40,-137,104,195
7245,2,-261,-45,-134,123,187
7250,0,-264,-52,-115,148,182
7255,-2,-264,-54,-95,180,184
7260,-5,-263,-51,-88,197,183
7265,-8,-262,-42,-96,208,182
7270,-8,-258,-43,-115,211,185
7275,-9,-253,-36,-134,211,191
7280,-7,-253,-42,-153,210,196
7285,-4,-253,-44,-167,214,206
7290,-6,-258,-44,-174,222,212
7295,-10,-260,-49,-173,227,216
7300,-9,-259,-48,-173,225,223
7305,-9,-259,-52,-174,221,223
7310,-12,-256,-43,-176,217,220
7315,-16,-256,-42,-182,212,210
7320,-15,-255,-41,-194,206,201
7325,-18,-253,-45,-207,201,190
7330,-17,-255,-48,-210,195,183
7335,-12,-256,-46,-211,191,182
7340,-16,-254,-49,-218,188,178
7345,-7,-268,-42,-222,193,177
7350,-10,-256,-55,-224,205,171
7355,-13,-260,-60,-221,223,172
7360,-14,-257,-52,-222,238,178
7365,-14,-261,-53,-241,242,187
7370,-14,-261,-51,-264,243,200
7375,-13,-264,-50,-281,242,208
7380,-15,-266,-45,-294,248,215
7385,-13,-267,-43,-301,254,223
7390,-12,-260,-39,-302,262,229
7395,-14,-261,-35,-300,263,232
7400,-12,-255,-37,-300,267,232
7405,-13,-258,-47,-300,271,237
7410,-16,-257,-51,-298,274,237
7415,-15,-256,-51,-290,275,236
7420,-16,-254,-51,-283,276,237
7425,-16,-252,-55,-277,270,236
7430,-19,-247,-64,-275,268,232
7435,-19,-245,-67,-274,272,229
7440,-23,-246,-69,-277,279,222
7445,-24,-249,-65,-287,285,212
7450,-25,-254,-62,-301,283,207
7455,-24,-254,-61,-312,280,202
7460,-23,-256,-56,-318,273,196
7465,-24,-256,-58,-318,264,196
7470,-27,-257,-54,-315,253,198
7475,-27,-257,-54,-311,247,201
7480,-29,-256,-53,-309,248,204
7485,-19,-262,-52,-310,249,207
7490,-23,-257,-54,-309,253,204
7495,-23,-257,-54,-302,254,201
7500,-18,-259,-54,-291,255,201
7505,-22,-257,-62,-279,254,195
7510,-22,-257,-61,-272,257,186
7515,-22,-259,-65,-271,260,177
7520,-23,-261,-62,-275,263,169
7525,-19,-263,-66,-276,267,163
7530,-18,-263,-64,-269,269,154
7535,-21,-262,-66,-266,271,145
7540,-20,-264,-63,-262,273,137
7545,-22,-266,-63,-259,278,131
7550,-24,-266,-64,-255,288,123
7555,-24,-262,-64,-250,299,117
7560,-28,-262,-62,-248,312,112
7565,-23,-260,-62,-250,324,106
7570,-24,-259,-67,-256,335,101
7575,-23,-259,-64,-261,344,103
7580,-19,-262,-69,-263,348,107
7585,-21,-260,-68,-265,348,113
7590,-17,-258,-68,-266,345,118
7595,-25,-255,-65,-265,340,121
7600,-26,-253,-65,-268,338,124
7605,-28,-251,-67,-279,340,126
7610,-22,-251,-68,-296,340,130
7615,-23,-251,-67,-312,340,134
7620,-21,-254,-69,-327,334,143
7625,-17,-255,-73,-334,324,154
7630,-20,-255,-77,-337,317,165
7635,-15,-259,-74,-338,316,175
7640,-18,-260,-74,-335,318,184
7645,-17,-258,-77,-337,319,188
7650,-13,-262,-75,-339,326,190
7655,-23,-257,-72,-342,337,189
7660,-21,-256,-72,-344,352,183
7665,-27,-255,-73,-348,371,174
7670,-29,-254,-69,-353,391,165
7675,-31,-255,-76,-359,409,155
7680,-29,-254,-76,-365,428,147
7685,-28,-254,-80,-374,449,139
7690,-25,-256,-75,-380,468,131
7695,-27,-251,-76,-388,489,122
7700,-27,-255,-79,-399,509,115
7705,-25,-258,-77,-410,527,112
7710,-26,-256,-77,-419,540,105
7715,-26,-259,-85,-424,549,97
7720,-30,-258,-91,-424,550,92
7725,-33,-255,-86,-431,544,90
7730,-31,-254,-85,-438,530,94
7735,-31,-254,-80,-444,507,98
7740,-33,-255,-84,-449,482,108
7745,-32,-251,-81,-455,456,119
7750,-36,-245,-79,-457,430,132
7755,-39,-245,-82,-458,406,144
7760,-42,-250,-85,-452,386,154
7765,-41,-252,-80,-446,372,161
7770,-45,-250,-83,-443,364,173
7775,-47,-254,-81,-442,362,180
7780,-51,-255,-79,-447,360,191
7785,-48,-261,-78,-453,365,202
7790,-52,-261,-79,-463,370,208
7795,-50,-262,-83,-475,377,213
7800,-49,-265,-87,-485,386,219
7805,-50,-268,-89,-491,394,223
7810,-46,-268,-85,-496,402,226
7815,-47,-267,-81,-501,405,227
7820,-48,-264,-80,-502,404,225
7825,-45,-266,-75,-503,397,221
7830,-48,-265,-79,-497,383,216
7835,-49,-264,-76,-494,360,209
7840,-54,-259,-76,-486,331,202
7845,-55,-252,-76,-480,299,198
7850,-60,-250,-74,-481,266,189
7855,-64,-243,-80,-487,237,180
7860,-67,-244,-86,-498,212,166
7865,-69,-244,-91,-516,196,146
7870,-65,-244,-91,-540,188,122
7875,-64,-244,-96,-571,192,97
7880,-61,-248,-95,-601,201,69
7885,-59,-251,-103,-625,209,48
7890,-57,-251,-111,-647,215,30
7895,-55,-257,-109,-674,221,12
7900,-56,-268,-116,-705,232,-7
7905,-54,-278,-127,-734,247,-20
7910,-60,-286,-132,-742,265,-27
7915,-62,-294,-136,-722,287,-29
7920,-64,-295,-145,-686,304,-28
7925,-65,-297,-150,-652,310,-28
7930,-65,-304,-155,-625,304,-24
7935,-64,-307,-159,-598,286,-14
7940,-66,-307,-160,-573,259,-4
7945,-67,-304,-160,-551,230,5
7950,-65,-306,-156,-528,204,13
7955,-65,-304,-160,-508,182,24
7960,-66,-303,-160,-489,168,35
7965,-66,-302,-164,-466,156,51
7970,-74,-298,-166,-437,148,66
7975,-72,-293,-165,-402,136,83
7980,-74,-290,-170,-360,124,94
7985,-80,-284,-164,-324,107,100
7990,-81,-277,-162,-296,89,99
7995,-72,-276,-164,-279,73,92
8000,-65,-279,-144,-276,66,80
8005,-64,-277,-168,-274,70,65
8010,-60,-278,-167,-277,88,55
8015,-56,-285,-168,-270,113,41
8020,-58,-283,-168,-246,141,25
8025,-58,-283,-170,-217,172,8
8030,-61,-279,-172,-186,198,-8
8035,-57,-277,-175,-156,216,-16
8040,-54,-271,-175,-140,226,-21
8045,-46,-268,-170,-143,229,-24
8050,-45,-267,-166,-154,225,-30
8055,-47,-268,-160,-170,217,-36
8060,-45,-267,-152,-188,211,-40
8065,-41,-274,-156,-204,204,-44
8070,-40,-278,-147,-210,196,-54
8075,-43,-283,-148,-203,180,-58
8080,-37,-285,-152,-179,164,-60
8085,-31,-287,-155,-144,154,-65
8090,-29,-281,-148,-111,150,-76
8095,-28,-281,-149,-84,159,-97
8100,-29,-273,-148,-64,177,-115
8105,-28,-270,-145,-50,194,-133
8110,-30,-264,-145,-44,218,-153
8115,-26,-262,-144,-41,247,-175
8120,-25,-258,-144,-39,284,-208
8125,-28,-255,-149,-40,335,-246
8130,-29,-256,-148,-35,394,-274
8135,-30,-256,-146,-33,456,-303
8140,-38,-251,-141,-32,517,-325
8145,-30,-252,-137,-30,573,-338
8150,-30,-252,-133,-44,622,-355
8155,-27,-253,-139,-67,673,-374
8160,-19,-253,-140,-83,730,-395
8165,-20,-253,-139,-81,786,-420
8170,-21,-247,-131,-59,833,-442
8175,-34,-259,-120,-19,871,-455
8180,-50,-262,-105,19,883,-480
8185,-52,-266,-99,52,863,-511
8190,-55,-260,-101,91,838,-537
8195,-52,-251,-105,147,840,-527
8200,-45,-233,-116,219,863,-498
8205,-40,-208,-123,293,900,-454
8210,-30,-199,-112,357,944,-398
8215,-24,-164,-124,396,978,-328
8220,-19,-146,-116,397,996,-261
8225,-18,-134,-100,349,983,-210
8230,-15,-133,-91,247,944,-170
8235,-18,-140,-83,98,882,-151
8240,-22,-158,-86,-72,803,-148
8245,-21,-181,-84,-220,722,-142
8250,-22,-198,-82,-320,645,-132
8255,-30,-210,-72,-352,570,-113
8260,-29,-219,-72,-322,500,-82
8265,-26,-226,-75,-252,430,-53
8270,-30,-219,-74,-171,363,-39
8275,-32,-218,-81,-103,299,-31
8280,-43,-213,-81,-67,243,-28
8285,-44,-205,-87,-64,192,-18
8290,-49,-194,-89,-86,153,-5
8295,-43,-190,-92,-130,124,14
8300,-41,-177,-90,-190,109,31
8305,-35,-168,-96,-272,107,42
8310,-42,-161,-103,-368,120,52
8315,-41,-162,-113,-465,144,54
8320,-36,-161,-117,-549,176,57
8325,-24,-171,-120,-614,212,84
8330,-17,-174,-117,-652,239,103
8335,-15,-175,-117,-662,259,117
8340,-7,-176,-126,-655,279,122
8345,5,-177,-125,-642,297,113
8350,2,-177,-132,-625,307,110
8355,1,-179,-134,-604,320,109
8360,-8,-182,-140,-581,326,91
8365,-3,-185,-143,-545,331,77
8370,-6,-182,-143,-509,333,66
8375,-3,-181,-143,-495,337,58
8380,0,-183,-145,-512,346,42
8385,1,-190,-145,-562,365,23
8390,2,-193,-152,-629,396,6
8395,3,-203,-147,-699,430,-11
8400,2,-214,-143,-762,451,-25
8405,-1,-224,-139,-814,444,-34
8410,-9,-234,-136,-843,413,-35
8415,-18,-233,-134,-846,372,-18
8420,-26,-230,-131,-822,333,7
8425,-29,-227,-130,-776,306,43
8430,-34,-221,-134,-725,292,90
8435,-39,-216,-142,-684,288,137
8440,-46,-217,-148,-662,284,186
8445,-53,-215,-155,-666,274,231
8450,-56,-216,-163,-691,254,272
8455,-60,-216,-174,-735,235,302
8460,-57,-212,-178,-783,221,327
8465,-57,-211,-182,-827,210,350
8470,-58,-207,-182,-855,200,368
8475,-51,-205,-177,-866,195,390
8480,-48,-206,-176,-862,198,407
8485,-36,-206,-177,-858,209,421
8490,-31,-203,-176,-861,228,431
8495,-26,-203,-179,-875,256,436
8500,-24,-208,-182,-905,294,435
8505,-11,-220,-189,-934,337,433
8510,-11,-226,-193,-960,383,424
8515,-2,-230,-192,-980,427,412
8520,-1,-230,-195,-995,474,395
8525,-7,-229,-203,-1007,523,379
8530,-4,-227,-204,-1020,582,362
8535,-10,-221,-212,-1034,638,348
8540,-17,-220,-208,-1050,681,341
8545,-23,-217,-212,-1071,701,340
8550,-20,-217,-212,-1095,703,342
8555,-23,-214,-215,-1123,702,348
8560,-25,-214,-210,-1149,696,360
8565,-24,-212,-213,-1176,681,374
8570,-24,-208,-220,-1204,665,389
8575,-19,-208,-221,-1232,648,409
8580,-14,-216,-225,-1259,628,437
8585,-16,-225,-223,-1275,599,466
8590,-17,-223,-223,-1271,555,497
8595,-7,-225,-225,-1251,503,523
8600,0,-227,-233,-1223,463,547
8605,1,-227,-242,-1192,446,568
8610,-1,-231,-242,-1159,461,584
8615,-10,-227,-234,-1129,495,588
8620,-9,-216,-242,-1103,536,575
8625,-14,-206,-248,-1106,612,550
8630,-20,-200,-251,-1143,704,527
8635,-23,-200,-252,-1197,786,500
8640,-21,-206,-247,-1240,849,483
8645,-21,-210,-245,-1256,886,466
8650,-21,-211,-237,-1235,906,448
8655,-14,-210,-229,-1201,904,425
8660,-10,-214,-225,-1170,887,389
8665,-9,-217,-227,-1146,865,334
8670,-1,-220,-229,-1129,841,273
8675,3,-232,-229,-1108,815,215
8680,2,-237,-230,-1068,784,161
8685,5,-235,-229,-1011,753,115
8690,8,-233,-236,-953,734,74
8695,12,-227,-236,-905,718,49
8700,15,-229,-234,-873,695,33
8705,17,-232,-235,-850,656,25
8710,16,-231,-233,-829,610,16
8715,18,-236,-234,-801,557,15
8720,18,-237,-231,-763,501,19
8725,10,-230,-231,-719,446,31
8730,8,-220,-228,-677,396,46
8735,7,-215,-223,-646,355,60
8740,5,-206,-226,-626,323,77
8745,2,-200,-226,-607,298,93
8750,-4,-194,-230,-592,277,105
8755,0,-190,-230,-581,257,113
8760,0,-192,-241,-576,238,115
8765,-1,-190,-242,-572,221,114
8770,-4,-191,-236,-565,202,111
8775,-3,-193,-241,-553,176,104
8780,-7,-196,-245,-533,142,94
8785,-8,-199,-244,-513,104,81
8790,-10,-206,-248,-486,66,71
8795,-9,-214,-250,-459,31,63
8800,-10,-220,-252,-428,3,57
8805,-10,-217,-254,-396,-20,53
8810,-9,-218,-254,-361,-35,51
8815,-7,-216,-250,-326,-51,47
8820,-7,-212,-251,-292,-67,42
8825,-7,-213,-251,-259,-83,38
8830,-9,-212,-246,-233,-101,38
8835,-7,-208,-250,-208,-120,38
8840,-7,-209,-248,-184,-146,44
8845,-3,-208,-246,-155,-178,55
8850,-1,-211,-244,-130,-218,66
8855,0,-209,-242,-104,-261,78
8860,0,-210,-240,-76,-305,92
8865,2,-207,-243,-48,-347,105
8870,1,-203,-246,-19,-383,120
8875,2,-202,-246,23,-413,135
8880,2,-197,-248,64,-437,152
8885,2,-197,-250,102,-459,169
8890,4,-195,-254,138,-479,192
8895,2,-193,-258,167,-498,211
8900,1,-193,-261,185,-513,224
8905,4,-191,-261,193,-525,240
8910,11,-192,-264,193,-531,246
8915,6,-186,-262,185,-525,237
8920,3,-186,-259,178,-517,232
8925,13,-185,-257,171,-507,219
8930,11,-186,-256,170,-488,202
8935,12,-190,-254,172,-469,190
8940,16,-191,-255,182,-451,180
8945,21,-189,-255,200,-431,162
8950,12,-188,-254,216,-409,148
8955,18,-186,-248,228,-389,150
8960,16,-182,-251,238,-368,146
8965,17,-177,-248,240,-353,149
8970,16,-179,-245,238,-338,157
8975,19,-175,-244,236,-328,166
8980,15,-173,-244,237,-319,158
8985,10,-173,-237,237,-307,160
8990,14,-177,-244,234,-292,166
8995,11,-177,-242,230,-274,172
9000,12,-179,-242,233,-255,166
9005,6,-176,-248,237,-231,153
9010,2,-180,-242,236,-203,149
9015,-2,-180,-241,233,-180,140
9020,-9,-183,-239,230,-165,130
9025,-3,-187,-235,229,-152,121
9030,-11,-192,-240,228,-140,94
9035,-9,-193,-235,231,-126,74
9040,-15,-199,-236,242,-110,53
9045,-14,-203,-235,257,-94,34
9050,-16,-204,-237,280,-84,12
9055,-16,-203,-236,291,-77,-4
9060,-19,-205,-233,296,-71,-12
9065,-12,-200,-227,292,-60,-13
9070,-13,-202,-229,303,-47,-35
9075,-15,-201,-226,323,-36,-58
9080,-21,-192,-230,347,-19,-68
9085,-13,-198,-226,374,-4,-75
9090,-16,-196,-225,395,12,-77
9095,-14,-194,-227,414,23,-77
9100,-14,-190,-222,428,29,-77
9105,-15,-188,-215,443,20,-74
9110,-15,-188,-213,452,3,-75
9115,-23,-185,-211,454,-14,-76
9120,-16,-183,-210,448,-36,-73
9125,-18,-179,-212,441,-54,-79
9130,-19,-181,-215,435,-64,-88
9135,-18,-173,-212,430,-66,-99
9140,-19,-176,-207,432,-66,-107
9145,-24,-179,-213,435,-66,-109
9150,-20,-175,-211,436,-66,-100
9155,-20,-174,-212,438,-65,-100
9160,-21,-173,-205,438,-65,-105
9165,-22,-172,-214,434,-65,-105
9170,-23,-175,-210,421,-60,-100
9175,-29,-172,-209,399,-56,-86
9180,-23,-173,-210,380,-59,-79
9185,-32,-171,-208,363,-65,-88
9190,-26,-176,-203,340,-66,-72
9195,-24,-177,-208,321,-67,-67
9200,-26,-177,-207,309,-68,-72
9205,-32,-179,-208,308,-71,-77
9210,-31,-183,-207,305,-77,-80
9215,-30,-183,-207,299,-85,-81
9220,-31,-182,-203,294,-92,-84
9225,-34,-183,-204,291,-101,-91
9230,-31,-186,-201,291,-107,-97
9235,-31,-187,-198,283,-107,-96
9240,-30,-186,-197,269,-109,-91
9245,-36,-188,-200,258,-111,-88
9250,-38,-185,-200,249,-115,-80
9255,-28,-191,-197,232,-121,-58
9260,-28,-191,-196,225,-123,-57
9265,-34,-189,-194,227,-124,-75
9270,-30,-193,-198,234,-124,-83
9275,-33,-193,-197,249,-126,-88
9280,-31,-193,-199,265,-130,-87
9285,-29,-197,-202,281,-132,-95
9290,-37,-194,-196,294,-134,-115
9295,-39,-190,-199,304,-140,-133
9300,-38,-191,-197,315,-146,-143
9305,-41,-190,-196,319,-150,-151
9310,-36,-189,-194,313,-154,-147
9315,-39,-190,-193,308,-155,-157
9320,-35,-185,-199,303,-154,-179
9325,-40,-191,-191,293,-153,-205
9330,-38,-187,-190,286,-162,-211
9335,-40,-191,-189,289,-171,-217
9340,-36,-191,-185,296,-191,-226
9345,-42,-187,-188,306,-211,-235
9350,-35,-191,-186,315,-232,-243
9355,-29,-197,-188,328,-252,-257
9360,-33,-190,-183,334,-264,-293
9365,-33,-193,-184,345,-276,-313
9370,-35,-186,-184,354,-285,-324
9375,-32,-186,-187,363,-291,-335
9380,-30,-188,-186,375,-294,-350
9385,-31,-184,-184,387,-293,-371
9390,-34,-185,-184,399,-294,-390
9395,-33,-183,-185,410,-300,-401
9400,-21,-187,-190,423,-307,-416
9405,-33,-179,-182,431,-305,-452
9410,-36,-174,-188,449,-318,-464
9415,-32,-170,-189,471,-327,-467
9420,-31,-176,-188,491,-336,-474
9425,-40,-171,-191,509,-345,-484
9430,-29,-177,-187,515,-357,-476
9435,-30,-171,-194,523,-359,-494
9440,-32,-174,-188,525,-356,-521
9445,-32,-171,-187,527,-354,-534
9450,-29,-174,-188,526,-351,-538
9455,-32,-174,-187,524,-350,-538
9460,-31,-174,-188,519,-349,-539
9465,-29,-178,-186,511,-350,-539
9470,-28,-178,-183,506,-353,-540
9475,-30,-176,-182,504,-358,-539
9480,-27,-176,-180,508,-363,-535
9485,-27,-173,-183,517,-365,-535
9490,-31,-170,-182,523,-368,-533
9495,-30,-169,-183,528,-373,-529
9500,-29,-172,-180,525,-380,-526
9505,-23,-169,-180,516,-387,-523
9510,-23,-169,-182,502,-394,-520
9515,-20,-168,-174,485,-400,-515
9520,-18,-170,-173,459,-399,-524
9525,-21,-168,-171,441,-399,-531
9530,-21,-169,-172,434,-402,-516
9535,-17,-171,-172,430,-403,-506
9540,-13,-172,-166,428,-400,-502
9545,-11,-172,-170,425,-387,-503
9550,-9,-168,-169,422,-371,-506
9555,-10,-166,-161,419,-358,-505
9560,-8,-167,-162,418,-345,-505
9565,-9,-162,-165,413,-332,-508
9570,-11,-161,-164,404,-326,-509
9575,-10,-158,-171,394,-322,-508
9580,-10,-161,-164,381,-321,-506
9585,-12,-162,-164,366,-320,-504
9590,-13,-162,-170,353,-319,-499
9595,-16,-163,-173,338,-321,-493
9600,-17,-162,-178,317,-327,-489
9605,-20,-166,-177,288,-333,-479
9610,-20,-168,-182,250,-342,-470
9615,-17,-172,-180,210,-349,-456
9620,-17,-182,-179,166,-351,-441
9625,-14,-187,-180,124,-352,-426
9630,-17,-193,-179,88,-351,-416
9635,-18,-201,-177,66,-347,-407
9640,-21,-203,-178,55,-343,-401
9645,-18,-209,-178,57,-340,-399
9650,-19,-215,-173,72,-337,-397
9655,-20,-217,-172,97,-337,-397
9660,-17,-221,-170,126,-336,-395
9665,-21,-223,-167,153,-333,-397
9670,-19,-220,-168,179,-332,-397
9675,-19,-219,-168,196,-331,-397
9680,-19,-218,-172,209,-329,-394
9685,-14,-221,-172,212,-327,-387
9690,-19,-219,-174,212,-324,-381
9695,-13,-224,-172,205,-321,-371
9700,-14,-224,-170,196,-317,-360
9705,-13,-226,-167,186,-314,-354
9710,-12,-233,-168,180,-310,-344
9715,-6,-231,-164,180,-304,-339
9720,-6,-231,-165,183,-295,-334
9725,-2,-233,-164,190,-285,-328
9730,-2,-231,-163,203,-274,-327
9735,-1,-230,-162,218,-264,-325
9740,-7,-226,-159,227,-254,-323
9745,-5,-223,-156,240,-249,-318
9750,0,-224,-161,245,-243,-317
9755,-3,-218,-157,242,-240,-315
9760,-7,-215,-159,235,-237,-312
9765,-8,-218,-158,224,-234,-308
9770,-4,-219,-163,206,-232,-299
9775,-3,-216,-161,180,-233,-289
9780,-7,-221,-159,153,-233,-282
9785,-5,-221,-158,127,-231,-272
9790,-4,-222,-163,103,-228,-260
9795,-3,-226,-158,90,-221,-249
9800,1,-232,-161,86,-212,-241
9805,1,-232,-155,87,-203,-235
9810,0,-230,-159,93,-193,-227
9815,0,-232,-157,104,-184,-220
9820,2,-233,-158,118,-176,-213
9825,1,-227,-158,134,-169,-207
9830,7,-226,-153,145,-159,-204
9835,4,-223,-150,156,-150,-201
9840,7,-224,-154,161,-144,-197
9845,2,-218,-154,165,-142,-199
9850,3,-215,-155,162,-140,-196
9855,6,-212,-153,152,-140,-192
9860,2,-213,-153,138,-141,-190
9865,3,-212,-154,123,-145,-182
9870,-1,-213,-155,101,-147,-177
9875,3,-213,-159,76,-149,-168
9880,2,-216,-159,47,-150,-163
9885,1,-218,-159,17,-150,-155
9890,1,-222,-162,-10,-147,-146
9895,5,-229,-161,-32,-143,-136
9900,6,-233,-163,-47,-139,-128
9905,4,-236,-162,-53,-135,-118
9910,9,-243,-167,-49,-131,-111
9915,7,-239,-164,-38,-128,-105
9920,9,-242,-163,-22,-126,-101
9925,11,-243,-161,-3,-124,-98
9930,8,-241,-159,18,-119,-100
9935,9,-241,-159,39,-115,-101
9940,7,-235,-158,55,-112,-103
9945,7,-233,-154,68,-111,-108
9950,21,-226,-165,78,-113,-110
9955,6,-230,-154,81,-116,-110
9960,7,-230,-152,76,-122,-111
9965,9,-229,-151,65,-128,-111
9970,11,-232,-151,50,-136,-109
9975,10,-235,-152,35,-143,-107
9980,11,-234,-149,24,-148,-105
9985,8,-235,-150,14,-152,-105
9990,13,-237,-153,5,-156,-102
9995,11,-236,-153,1,-156,-100
10000,17,-237,-153,0,-156,-97
10005,9,-235,-153,1,-150,-96
10010,14,-238,-149,5,-145,-93
10015,16,-239,-149,11,-138,-90
10020,17,-240,-148,18,-131,-88
10025,14,-235,-144,26,-123,-85
10030,13,-232,-145,30,-116,-83
10035,15,-232,-141,34,-114,-84
10040,12,-231,-144,38,-115,-81
10045,11,-230,-147,34,-119,-81
10050,11,-231,-149,29,-125,-80
10055,11,-233,-150,24,-133,-80
10060,11,-225,-161,17,-140,-78
10065,11,-234,-150,6,-148,-77
10070,14,-231,-154,-6,-152,-75
10075,14,-236,-156,-20,-157,-72
10080,14,-235,-155,-30,-161,-70
10085,14,-238,-154,-40,-163,-68
10090,13,-241,-154,-43,-163,-66
10095,16,-240,-149,-41,-163,-66
10100,13,-238,-156,-36,-161,-65
10105,14,-240,-148,-24,-158,-66
10110,14,-240,-150,-13,-159,-66
10115,10,-237,-148,-1,-157,-68
10120,13,-241,-148,12,-158,-69
10125,11,-233,-141,23,-160,-69
10130,12,-234,-144,32,-162,-71
10135,10,-233,-143,36,-168,-72
10140,4,-226,-142,35,-173,-73
10145,5,-227,-145,31,-177,-73
10150,8,-229,-143,22,-180,-74
10155,9,-228,-143,9,-185,-73
10160,5,-225,-144,-5,-189,-71
10165,4,-229,-147,-20,-193,-70
10170,9,-234,-149,-35,-194,-67
10175,9,-234,-146,-46,-196,-65
10180,9,-236,-147,-59,-195,-63
10185,4,-236,-149,-67,-193,-60
10190,11,-238,-152,-72,-190,-57
10195,13,-245,-151,-75,-189,-55
10200,9,-241,-150,-76,-189,-52
10205,9,-243,-151,-73,-185,-50
10210,9,-246,-154,-68,-185,-49
10215,8,-242,-147,-62,-183,-49
10220,9,-244,-152,-54,-181,-45
10225,11,-245,-153,-44,-178,-45
10230,11,-243,-149,-37,-177,-46
10235,9,-242,-152,-32,-173,-44
10240,10,-238,-151,-27,-169,-45
10245,12,-241,-153,-23,-166,-46
10250,9,-238,-148,-21,-163,-46
10255,10,-239,-149,-20,-159,-47
10260,10,-236,-148,-21,-156,-48
10265,9,-232,-146,-27,-156,-50
10270,7,-229,-147,-37,-156,-51
10275,12,-232,-150,-49,-156,-52
10280,12,-231,-149,-62,-157,-52
10285,10,-230,-148,-77,-157,-53
10290,12,-234,-153,-92,-157,-53
10295,11,-233,-148,-105,-157,-52
10300,11,-239,-149,-114,-157,-51
10305,12,-241,-149,-119,-156,-49
10310,17,-241,-154,-122,-153,-47
10315,18,-243,-145,-119,-150,-46
10320,16,-243,-148,-113,-147,-44
10325,17,-244,-146,-103,-144,-43
10330,21,-242,-149,-92,-138,-42
10335,18,-242,-150,-80,-134,-40
10340,14,-243,-147,-71,-127,-41
10345,16,-236,-153,-65,-121,-42
10350,15,-236,-146,-60,-115,-43
10355,16,-237,-147,-56,-110,-44
10360,16,-237,-147,-56,-105,-46
10365,14,-231,-149,-56,-101,-49
10370,13,-235,-147,-60,-99,-50
10375,12,-236,-146,-66,-97,-51
10380,12,-237,-145,-72,-93,-54
10385,10,-239,-143,-80,-91,-57
10390,11,-240,-145,-86,-87,-57
10395,14,-242,-148,-93,-85,-57
10400,12,-240,-145,-96,-81,-57
10405,13,-242,-146,-99,-76,-56
10410,11,-243,-146,-100,-71,-55
10415,11,-245,-145,-100,-65,-54
10420,14,-246,-151,-95,-60,-51
10425,17,-241,-146,-85,-55,-51
10430,14,-244,-145,-76,-50,-50
10435,12,-243,-147,-65,-46,-49
10440,13,-239,-146,-55,-43,-49
10445,9,-239,-149,-53,-43,-49
10450,10,-237,-147,-54,-39,-48
10455,9,-238,-150,-58,-38,-49
10460,13,-236,-149,-65,-38,-50
10465,9,-236,-149,-69,-36,-50
10470,11,-238,-144,-77,-36,-50
10475,8,-238,-150,-85,-37,-50
10480,12,-237,-148,-92,-36,-51
10485,9,-238,-155,-100,-37,-53
10490,11,-240,-150,-102,-35,-54
10495,7,-241,-151,-106,-35,-55
10500,11,-243,-149,-103,-35,-55
10505,10,-244,-149,-101,-34,-57
10510,8,-244,-153,-95,-34,-58
10515,7,-242,-151,-86,-30,-55
10520,5,-243,-148,-76,-26,-56
10525,6,-242,-153,-65,-21,-55
10530,7,-241,-149,-54,-19,-54
10535,9,-243,-148,-45,-15,-52
10540,10,-239,-147,-35,-13,-50
10545,7,-241,-149,-27,-13,-47
10550,7,-238,-148,-23,-13,-46
10555,11,-238,-145,-23,-13,-43
10560,9,-239,-146,-24,-15,-42
10565,8,-238,-142,-31,-15,-42
10570,11,-237,-144,-37,-17,-40
10575,10,-241,-141,-44,-17,-40
10580,11,-237,-144,-51,-19,-41
10585,10,-242,-144,-56,-20,-40
10590,10,-238,-142,-56,-20,-41
10595,9,-238,-145,-54,-20,-42
10600,10,-239,-148,-48,-18,-43
10605,9,-243,-150,-42,-14,-45
10610,6,-242,-144,-38,-8,-46
10615,7,-241,-147,-33,0,-46
10620,7,-237,-149,-30,10,-46
10625,6,-238,-151,-28,20,-45
10630,4,-237,-149,-28,30,-43
10635,9,-239,-151,-28,37,-41
10640,4,-235,-151,-30,45,-40
10645,7,-237,-148,-32,52,-37
10650,1,-236,-147,-35,58,-35
10655,2,-238,-152,-37,62,-32
10660,6,-236,-147,-38,65,-28
10665,2,-235,-153,-39,67,-27
10670,4,-236,-152,-42,69,-23
10675,4,-233,-147,-43,71,-21
10680,1,-234,-147,-46,71,-18
10685,4,-235,-151,-49,70,-17
10690,2,-237,-145,-54,69,-15
10695,3,-240,-147,-58,69,-12
10700,2,-239,-146,-61,68,-11
10705,1,-236,-147,-64,68,-11
10710,5,-239,-147,-64,68,-10
10715,2,-241,-144,-63,70,-9
10720,1,-239,-148,-59,72,-8
10725,1,-238,-146,-56,73,-8
10730,2,-236,-146,-53,74,-7
10735,3,-238,-148,-49,75,-5
10740,1,-238,-144,-49,75,-7
10745,1,-237,-144,-48,75,-6
10750,2,-240,-146,-48,74,-6
10755,0,-237,-147,-51,75,-5
10760,0,-238,-146,-55,75,-4
10765,1,-238,-150,-60,74,-5
10770,2,-240,-145,-64,75,-6
10775,1,-239,-149,-68,74,-5
10780,1,-240,-150,-72,72,-3
10785,1,-241,-143,-74,70,-2
10790,1,-242,-145,-76,70,-2
10795,0,-239,-146,-72,70,-1
10800,0,-241,-145,-70,68,-1
10805,0,-242,-148,-63,69,-1
10810,0,-238,-146,-56,69,1
10815,0,-243,-143,-48,68,0
10820,-8,-255,-142,-42,67,2
10825,0,-239,-146,-36,69,3
10830,2,-239,-143,-34,69,3
10835,2,-235,-143,-33,69,3
10840,1,-240,-146,-34,68,3
10845,2,-237,-146,-35,67,3
10850,4,-237,-139,-36,67,4
10855,1,-238,-145,-40,66,4
10860,2,-235,-144,-41,65,2
10865,2,-235,-145,-41,65,2
10870,1,-235,-143,-43,65,4
10875,-2,-237,-149,-47,66,5
10880,-1,-236,-145,-51,66,4
10885,2,-238,-147,-55,67,7
10890,0,-239,-148,-58,69,8
10895,1,-241,-148,-60,69,10
10900,0,-239,-149,-59,71,12
10905,2,-243,-147,-57,72,13
10910,0,-244,-149,-57,72,15
10915,1,-242,-148,-54,72,17
10920,2,-246,-146,-51,71,17
10925,2,-245,-150,-51,70,19
10930,3,-233,-153,-49,69,19
10935,2,-246,-147,-46,66,18
10940,5,-247,-147,-39,66,19
10945,2,-243,-147,-34,64,19
10950,3,-243,-146,-29,62,18
10955,2,-241,-146,-22,63,18
10960,3,-243,-144,-16,63,19
10965,4,-240,-146,-10,61,20
10970,4,-238,-146,-7,61,20
10975,2,-238,-146,-7,60,21
10980,3,-241,-146,-9,61,23
10985,2,-243,-147,-13,60,23
10990,1,-241,-146,-17,61,25
10995,4,-242,-147,-19,63,25
11000,1,-243,-146,-19,63,26
11005,3,-243,-148,-20,65,27
11010,1,-240,-143,-19,68,28
11015,1,-242,-144,-16,70,28
11020,3,-243,-145,-11,72,29
11025,1,-244,-143,-9,74,30
11030,1,-244,-144,-5,75,30
11035,0,-246,-150,0,76,29
11040,0,-243,-144,3,77,28
11045,0,-242,-144,10,77,31
11050,2,-241,-144,15,76,30
11055,2,-239,-146,16,77,30
11060,1,-238,-144,21,77,29
11065,1,-237,-149,20,77,28
11070,1,-238,-147,17,78,29
11075,1,-238,-142,13,77,27
11080,2,-237,-145,7,75,27
11085,0,-236,-143,0,74,24
11090,0,-238,-145,-6,71,22
11095,0,-240,-145,-9,70,19
11100,-1,-238,-147,-11,70,17
11105,4,-246,-143,-11,67,14
11110,0,-246,-146,-8,64,12
11115,2,-247,-147,-6,61,10
11120,0,-246,-147,0,57,7
11125,0,-245,-148,7,56,4
11130,1,-242,-147,14,53,2
11135,0,-241,-144,21,50,3
11140,2,-244,-144,27,46,1
11145,2,-242,-144,30,45,1
11150,2,-243,-146,35,44,-1
11155,1,-242,-144,38,43,0
11160,1,-241,-145,39,41,0
11165,2,-239,-144,38,40,2
11170,3,-241,-141,37,39,4
11175,1,-239,-141,34,38,4
11180,1,-241,-143,29,39,3
11185,2,-240,-145,25,41,3
11190,1,-241,-142,18,41,2
11195,2,-240,-142,18,40,0
11200,0,-240,-142,14,40,0
11205,1,-241,-142,13,40,-1
11210,0,-242,-144,12,40,-2
11215,-1,-239,-142,11,40,-2
11220,0,-242,-143,12,41,-4
11225,1,-241,-144,13,42,-4
11230,0,-242,-147,17,44,-2
11235,1,-239,-143,21,44,-3
11240,0,-242,-141,25,46,-4
11245,2,-244,-145,27,47,-3
11250,2,-240,-146,33,48,-2
11255,3,-241,-144,39,47,-1
11260,2,-242,-142,42,46,-1
11265,3,-238,-143,44,44,0
11270,0,-235,-143,42,43,1
11275,1,-237,-144,38,41,-1
11280,0,-234,-143,30,38,-2
11285,3,-233,-144,21,33,-2
11290,0,-235,-143,10,30,-4
11295,0,-235,-143,4,27,-6
11300,0,-238,-139,-7,25,-7
11305,2,-236,-145,-11,23,-8
11310,0,-239,-142,-14,24,-8
11315,0,-240,-141,-19,23,-10
11320,0,-241,-143,-23,23,-9
11325,1,-240,-144,-25,22,-10
11330,-1,-243,-139,-30,22,-9
11335,0,-241,-144,-31,21,-7
11340,0,-241,-141,-33,19,-7
11345,0,-245,-145,-31,18,-7
11350,-2,-243,-142,-30,15,-6
11355,-2,-243,-140,-29,14,-5
11360,0,-241,-137,-29,12,-5
11365,0,-244,-140,-30,8,-6
11370,0,-241,-141,-30,4,-6
11375,0,-242,-141,-28,0,-6
11380,1,-241,-144,-25,-1,-6
11385,0,-240,-143,-22,-3,-6
11390,-1,-241,-143,-20,-7,-5
11395,1,-239,-138,-15,-7,-6
11400,3,-239,-143,-13,-8,-5
11405,1,-240,-143,-12,-7,-6
11410,2,-238,-143,-15,-5,-6
11415,2,-237,-141,-16,-4,-9
11420,0,-235,-141,-16,-3,-9
11425,2,-236,-144,-19,-3,-9
11430,6,-237,-135,-21,-3,-11
11435,1,-238,-139,-23,-3,-12
11440,4,-239,-140,-29,-5,-13
11445,2,-237,-139,-35,-5,-13
11450,0,-236,-141,-42,-7,-13
11455,1,-240,-140,-49,-9,-13
11460,2,-236,-139,-53,-10,-12
11465,0,-238,-144,-58,-10,-14
11470,2,-241,-140,-59,-12,-13
11475,2,-242,-143,-63,-13,-13
11480,1,-239,-146,-66,-15,-14
11485,3,-242,-145,-71,-16,-14
11490,2,-243,-144,-74,-17,-15
11495,1,-243,-143,-79,-18,-14
11500,3,-243,-144,-78,-20,-14
11505,2,-242,-145,-77,-20,-15
11510,3,-244,-141,-74,-18,-14
11515,3,-244,-142,-71,-18,-14
11520,5,-245,-144,-69,-17,-14
11525,3,-243,-142,-67,-18,-15
11530,5,-244,-141,-68,-19,-16
11535,2,-240,-141,-68,-20,-17
11540,4,-241,-143,-69,-21,-19
11545,4,-242,-140,-69,-22,-19
11550,4,-240,-140,-70,-24,-19
11555,3,-243,-141,-70,-26,-21
11560,5,-243,-137,-71,-27,-22
11565,2,-242,-138,-74,-28,-21
11570,1,-240,-142,-77,-30,-23
11575,3,-244,-143,-74,-32,-21
11580,3,-240,-139,-74,-31,-21
11585,3,-239,-142,-74,-33,-22
11590,3,-242,-139,-74,-33,-21
11595,3,-243,-137,-75,-32,-22
11600,4,-242,-137,-77,-33,-22
11605,3,-243,-145,-79,-32,-23
11610,3,-241,-142,-81,-32,-23
11615,1,-240,-140,-84,-32,-22
11620,4,-244,-145,-87,-33,-21
11625,5,-243,-142,-89,-35,-22
11630,2,-242,-143,-93,-36,-21
11635,5,-247,-144,-94,-37,-20
11640,2,-244,-143,-96,-39,-19
11645,2,-245,-144,-99,-42,-19
11650,3,-246,-144,-97,-44,-20
11655,0,-242,-145,-94,-45,-21
11660,1,-246,-143,-87,-46,-20
11665,3,-241,-143,-83,-46,-23
11670,1,-243,-140,-80,-45,-21
11675,3,-242,-139,-73,-43,-24
11680,4,-237,-137,-69,-40,-24
11685,3,-237,-139,-69,-40,-25
11690,2,-237,-140,-68,-37,-25
11695,4,-235,-136,-71,-36,-27
11700,2,-234,-142,-73,-34,-27
11705,4,-236,-141,-74,-35,-27
11710,4,-235,-138,-77,-36,-26
11715,4,-237,-138,-79,-36,-28
11720,3,-237,-140,-82,-34,-27
11725,4,-236,-142,-88,-33,-29
11730,2,-236,-140,-94,-32,-28
11735,5,-236,-139,-98,-31,-29
11740,2,-239,-152,-94,-30,-25
11745,5,-244,-147,-102,-30,-18
11750,6,-254,-138,-114,-31,-26
11755,3,-241,-142,-109,-32,-26
11760,2,-243,-146,-99,-31,-25
11765,3,-240,-150,-93,-33,-27
11770,5,-243,-147,-88,-35,-25
11775,3,-244,-148,-86,-35,-26
11780,5,-246,-147,-83,-33,-26
11785,4,-242,-147,-80,-30,-27
11790,6,-244,-145,-75,-28,-27
11795,5,-246,-148,-71,-27,-28
11800,8,-241,-164,-65,-26,-28
11805,4,-243,-144,-58,-27,-31
11810,3,-242,-143,-54,-28,-31
11815,4,-240,-143,-48,-28,-31
11820,7,-237,-147,-43,-30,-31
11825,4,-237,-145,-44,-31,-33
11830,6,-235,-144,-43,-31,-33
11835,4,-237,-143,-45,-30,-33
11840,4,-239,-143,-47,-30,-34
11845,5,-238,-142,-49,-29,-34
11850,6,-239,-144,-54,-30,-36
11855,2,-242,-150,-59,-29,-36
11860,7,-237,-143,-61,-28,-37
11865,5,-237,-141,-64,-27,-37
11870,2,-238,-145,-66,-26,-36
11875,5,-243,-138,-65,-26,-32
11880,5,-241,-143,-63,-25,-31
11885,6,-242,-147,-61,-24,-31
11890,4,-241,-145,-58,-23,-29
11895,3,-240,-144,-55,-21,-26
11900,7,-242,-147,-56,-21,-25
11905,7,-240,-144,-54,-18,-22
11910,6,-241,-146,-54,-14,-21
11915,9,-244,-142,-53,-9,-19
11920,6,-241,-141,-52,-8,-17
11925,7,-245,-146,-53,-6,-17
11930,6,-243,-145,-51,-6,-17
11935,6,-243,-143,-51,-7,-15
11940,6,-246,-144,-53,-9,-16
11945,7,-243,-143,-53,-10,-17
11950,7,-242,-142,-53,-11,-17
11955,6,-242,-140,-58,-12,-17
11960,7,-242,-143,-62,-11,-17
11965,5,-241,-145,-68,-11,-16
11970,11,-242,-141,-73,-11,-17
11975,8,-242,-141,-75,-10,-18
11980,8,-238,-142,-74,-8,-19
11985,10,-241,-145,-74,-9,-20
11990,14,-242,-143,-75,-5,-19
11995,11,-244,-147,-77,-2,-20
