timestamp,acc_x,acc_y,acc_z,gyro_x,gyro_y,gyro_z
0,17,-253,-118,-27,11,-9
5,15,-250,-121,-28,10,-9
10,15,-251,-117,-31,10,-8
15,15,-251,-114,-32,12,-8
20,17,-253,-116,-35,13,-9
25,15,-252,-110,-36,14,-8
30,13,-253,-116,-38,16,-7
35,14,-254,-114,-38,17,-7
40,18,-251,-118,-39,18,-7
45,17,-254,-121,-37,18,-6
50,14,-253,-113,-37,19,-8
55,17,-252,-113,-34,21,-7
60,15,-251,-111,-32,19,-7
65,18,-253,-109,-33,20,-8
70,17,-253,-117,-29,20,-6
75,20,-253,-113,-26,19,-7
80,17,-253,-113,-25,19,-8
85,15,-253,-115,-24,19,-8
90,15,-250,-118,-24,19,-8
95,15,-251,-110,-26,20,-7
100,15,-252,-114,-27,19,-8
105,14,-250,-112,-31,21,-9
110,15,-251,-116,-34,20,-10
115,15,-251,-116,-37,21,-10
120,15,-251,-113,-39,21,-10
125,15,-253,-117,-44,22,-10
130,14,-247,-117,-44,21,-9
135,16,-251,-113,-44,21,-9
140,17,-255,-114,-44,22,-9
145,14,-254,-114,-43,22,-9
150,15,-253,-114,-39,21,-9
155,14,-254,-116,-37,20,-9
160,16,-255,-117,-33,19,-8
165,17,-251,-118,-31,20,-7
170,11,-251,-114,-29,19,-9
175,13,-251,-114,-29,18,-9
180,16,-251,-116,-29,19,-7
185,17,-251,-112,-28,19,-9
190,17,-252,-113,-28,17,-9
195,17,-252,-113,-28,18,-8
200,19,-254,-115,-30,17,-8
205,15,-252,-118,-30,18,-8
210,15,-251,-118,-29,18,-8
215,14,-250,-117,-31,20,-7
220,18,-251,-114,-33,19,-9
225,16,-251,-113,-35,19,-9
230,17,-251,-110,-39,19,-10
235,19,-250,-112,-42,20,-9
240,17,-256,-108,-43,20,-8
245,19,-252,-118,-43,20,-9
250,15,-252,-116,-40,20,-9
255,16,-251,-115,-38,21,-8
260,14,-254,-115,-36,23,-7
265,17,-253,-116,-35,23,-8
270,17,-253,-112,-34,24,-10
275,17,-254,-113,-36,24,-8
280,16,-249,-114,-36,24,-9
285,17,-250,-117,-36,23,-9
290,15,-252,-117,-37,24,-9
295,13,-252,-111,-38,25,-10
300,16,-256,-111,-37,24,-10
305,13,-256,-114,-37,24,-10
310,15,-253,-113,-37,24,-10
315,16,-254,-114,-37,23,-9
320,17,-253,-114,-36,24,-10
325,16,-253,-113,-34,23,-11
330,15,-256,-116,-33,23,-12
335,14,-252,-114,-33,23,-10
340,16,-254,-112,-33,22,-10
345,20,-252,-112,-32,21,-10
350,16,-250,-111,-32,23,-9
355,15,-251,-114,-31,24,-10
360,16,-253,-112,-32,24,-11
365,17,-251,-113,-33,24,-10
370,16,-252,-109,-32,23,-12
375,14,-251,-112,-33,25,-11
380,15,-249,-114,-35,24,-11
385,14,-249,-113,-37,24,-12
390,16,-251,-112,-39,23,-11
395,14,-247,-109,-41,23,-11
400,18,-252,-114,-41,23,-13
405,14,-247,-119,-43,21,-12
410,16,-252,-114,-43,21,-12
415,17,-252,-111,-44,21,-12
420,18,-253,-113,-46,21,-11
425,16,-253,-112,-45,22,-13
430,15,-255,-116,-45,23,-13
435,16,-253,-110,-44,21,-13
440,20,-251,-114,-44,21,-12
445,19,-255,-112,-41,22,-10
450,16,-252,-111,-42,21,-11
455,14,-251,-114,-40,22,-11
460,20,-253,-114,-39,22,-11
465,17,-254,-115,-36,24,-11
470,18,-251,-116,-37,24,-11
475,19,-251,-112,-37,24,-11
480,15,-253,-112,-38,25,-11
485,13,-252,-114,-38,25,-11
490,16,-250,-112,-41,25,-11
495,18,-251,-113,-42,24,-11
500,15,-252,-113,-45,24,-12
505,17,-254,-112,-47,24,-12
510,17,-252,-110,-47,24,-13
515,19,-246,-116,-51,23,-14
520,14,-250,-115,-51,23,-13
525,16,-251,-115,-52,22,-14
530,16,-254,-115,-54,20,-14
535,18,-249,-112,-56,20,-14
540,15,-252,-116,-55,19,-14
545,18,-254,-116,-54,18,-14
550,16,-251,-112,-54,18,-14
555,15,-250,-112,-53,19,-14
560,17,-254,-112,-52,18,-13
565,15,-250,-117,-52,19,-12
570,19,-255,-117,-50,20,-11
575,19,-256,-113,-48,23,-13
580,15,-255,-115,-45,23,-10
585,16,-254,-115,-42,24,-11
590,19,-255,-116,-41,25,-10
595,17,-255,-112,-43,27,-11
600,15,-255,-112,-42,28,-11
605,14,-254,-117,-40,26,-10
610,15,-254,-113,-38,27,-12
615,14,-252,-113,-35,27,-13
620,22,-250,-117,-35,26,-13
625,15,-250,-111,-35,26,-13
630,18,-252,-113,-36,25,-13
635,17,-250,-114,-40,23,-13
640,15,-253,-112,-43,23,-12
645,18,-251,-115,-46,23,-14
650,16,-249,-114,-47,22,-12
655,15,-249,-111,-49,23,-13
660,18,-249,-114,-52,22,-12
665,19,-255,-117,-56,22,-13
670,17,-253,-115,-61,22,-12
675,16,-251,-119,-62,22,-13
680,19,-253,-112,-62,21,-13
685,17,-255,-112,-63,21,-14
690,16,-253,-113,-59,20,-16
695,18,-256,-112,-56,17,-16
700,16,-254,-114,-50,15,-17
705,16,-252,-112,-44,14,-17
710,17,-255,-115,-42,14,-16
715,15,-252,-113,-39,12,-16
720,15,-254,-119,-37,13,-16
725,19,-252,-112,-38,15,-16
730,11,-255,-110,-40,16,-15
735,17,-254,-118,-41,18,-14
740,17,-254,-116,-44,19,-14
745,17,-252,-110,-47,21,-12
750,19,-253,-115,-50,23,-11
755,18,-252,-113,-52,24,-12
760,16,-255,-110,-52,25,-11
765,17,-253,-107,-55,25,-13
770,19,-255,-108,-56,25,-11
775,15,-252,-110,-56,26,-13
780,21,-255,-108,-58,23,-12
785,26,-249,-110,-58,21,-12
790,16,-254,-109,-55,20,-12
795,20,-256,-111,-55,18,-14
800,19,-253,-112,-51,17,-15
805,18,-256,-112,-49,15,-13
810,16,-252,-115,-45,15,-14
815,16,-253,-114,-43,15,-15
820,19,-254,-115,-43,14,-13
825,16,-250,-118,-44,14,-12
830,20,-251,-114,-44,15,-13
835,18,-255,-114,-45,16,-12
840,27,-255,-111,-47,19,-12
845,15,-252,-113,-47,20,-13
850,19,-253,-114,-48,22,-12
855,19,-253,-112,-47,23,-13
860,15,-253,-112,-49,24,-14
865,17,-252,-113,-49,24,-13
870,20,-249,-117,-50,24,-13
875,14,-250,-111,-52,24,-13
880,19,-252,-114,-54,23,-12
885,20,-252,-114,-56,22,-13
890,17,-251,-115,-58,21,-15
895,12,-249,-115,-61,19,-15
900,18,-255,-114,-62,17,-15
905,20,-253,-112,-60,16,-15
910,17,-255,-113,-59,15,-15
915,19,-253,-111,-59,15,-16
920,19,-253,-115,-56,16,-17
925,14,-254,-114,-57,17,-16
930,16,-252,-116,-54,17,-17
935,20,-254,-112,-53,20,-16
940,15,-250,-111,-54,19,-16
945,21,-255,-110,-55,19,-15
950,16,-254,-114,-56,19,-15
955,18,-250,-117,-57,20,-16
960,18,-252,-110,-57,21,-16
965,18,-250,-114,-57,22,-16
970,15,-252,-111,-53,22,-15
975,20,-250,-114,-52,22,-15
980,18,-252,-112,-50,22,-16
985,21,-252,-116,-51,21,-14
990,17,-248,-117,-50,18,-15
995,18,-249,-118,-53,19,-14
1000,17,-250,-109,-59,19,-14
1005,17,-251,-110,-61,19,-13
1010,19,-250,-115,-66,19,-14
1015,18,-249,-114,-71,18,-14
1020,16,-251,-114,-75,19,-13
1025,18,-255,-119,-76,18,-13
1030,18,-253,-118,-75,18,-13
1035,16,-251,-117,-74,18,-14
1040,19,-255,-114,-73,20,-14
1045,19,-255,-110,-69,20,-12
1050,20,-252,-116,-67,21,-13
1055,18,-252,-114,-65,21,-13
1060,19,-253,-112,-59,19,-13
1065,17,-254,-112,-56,20,-12
1070,18,-253,-115,-54,18,-11
1075,17,-253,-113,-52,18,-13
1080,19,-253,-113,-55,19,-13
1085,18,-253,-116,-55,17,-13
1090,17,-255,-115,-55,18,-13
1095,16,-251,-118,-58,15,-13
1100,21,-252,-114,-58,15,-14
1105,14,-250,-110,-59,15,-15
1110,14,-251,-111,-60,14,-14
1115,16,-249,-115,-58,14,-14
1120,17,-253,-114,-58,14,-15
1125,20,-254,-113,-58,14,-15
1130,18,-252,-116,-58,13,-13
1135,18,-253,-115,-57,14,-15
1140,20,-253,-117,-58,15,-15
1145,16,-248,-113,-57,16,-14
1150,16,-252,-115,-57,16,-13
1155,16,-250,-114,-57,15,-11
1160,18,-252,-115,-55,15,-10
1165,20,-251,-111,-53,15,-12
1170,19,-255,-112,-51,15,-11
1175,16,-251,-112,-50,16,-10
1180,19,-254,-117,-47,16,-10
1185,17,-253,-121,-48,17,-11
1190,21,-254,-113,-47,18,-11
1195,20,-253,-118,-48,18,-10
1200,15,-250,-119,-49,17,-12
1205,17,-249,-117,-50,15,-10
1210,20,-253,-116,-51,15,-11
1215,17,-254,-114,-52,14,-11
1220,18,-248,-101,-54,13,-11
1225,18,-253,-118,-54,12,-11
1230,16,-252,-116,-53,13,-12
1235,17,-253,-113,-55,12,-11
1240,17,-250,-111,-54,12,-12
1245,20,-254,-115,-53,12,-12
1250,21,-254,-117,-52,12,-12
1255,19,-253,-114,-48,10,-12
1260,18,-254,-115,-45,12,-10
1265,17,-251,-113,-44,11,-12
1270,17,-254,-116,-43,11,-9
1275,17,-248,-115,-42,12,-10
1280,17,-253,-117,-42,12,-10
1285,18,-251,-114,-43,13,-11
1290,20,-252,-115,-45,13,-10
1295,21,-252,-114,-46,15,-11
1300,17,-252,-112,-47,14,-12
1305,21,-253,-118,-47,15,-12
1310,19,-252,-112,-49,15,-10
1315,21,-250,-116,-50,14,-12
1320,20,-252,-114,-51,16,-11
1325,17,-250,-114,-53,16,-12
1330,17,-254,-110,-54,14,-11
1335,18,-249,-113,-55,13,-12
1340,19,-251,-117,-56,14,-12
1345,18,-254,-116,-55,14,-11
1350,19,-253,-117,-53,14,-11
1355,21,-252,-114,-52,13,-11
1360,18,-253,-116,-51,12,-12
1365,21,-256,-119,-50,11,-11
1370,19,-252,-117,-47,12,-11
1375,21,-252,-116,-45,11,-11
1380,19,-250,-116,-46,11,-11
1385,18,-254,-124,-46,15,-13
1390,19,-252,-112,-49,15,-10
1395,15,-249,-115,-48,15,-11
1400,20,-252,-116,-51,16,-11
1405,19,-253,-114,-55,17,-11
1410,16,-251,-117,-58,18,-12
1415,19,-254,-117,-60,18,-13
1420,20,-255,-115,-61,17,-13
1425,18,-254,-120,-57,18,-14
1430,16,-252,-120,-54,16,-14
1435,16,-253,-118,-50,15,-14
1440,16,-253,-118,-46,15,-16
1445,16,-249,-117,-45,14,-16
1450,19,-249,-116,-45,14,-16
1455,19,-249,-115,-49,13,-17
1460,19,-252,-117,-52,13,-17
1465,18,-250,-116,-52,13,-17
1470,17,-250,-117,-54,14,-17
1475,18,-250,-120,-54,15,-17
1480,16,-251,-114,-59,16,-18
1485,15,-252,-116,-62,15,-18
1490,13,-251,-120,-64,15,-20
1495,21,-248,-118,-68,14,-20
1500,17,-250,-119,-69,12,-21
1505,16,-252,-119,-70,11,-22
1510,13,-250,-118,-68,9,-23
1515,14,-251,-122,-65,7,-23
1520,13,-251,-116,-60,5,-23
1525,15,-252,-116,-59,1,-24
1530,15,-251,-121,-57,1,-25
1535,17,-252,-120,-55,0,-25
1540,12,-248,-119,-54,1,-24
1545,12,-249,-117,-57,1,-23
1550,12,-249,-116,-59,1,-21
1555,13,-247,-117,-64,2,-20
1560,14,-253,-122,-68,3,-20
1565,14,-250,-117,-74,5,-17
1570,15,-248,-123,-79,5,-16
1575,14,-249,-124,-82,6,-16
1580,15,-249,-119,-85,8,-14
1585,13,-247,-123,-87,7,-12
1590,15,-250,-118,-90,8,-12
1595,13,-249,-119,-93,7,-10
1600,16,-253,-120,-95,7,-9
1605,12,-247,-116,-96,7,-10
1610,12,-245,-119,-97,5,-9
1615,11,-245,-124,-98,5,-9
1620,12,-247,-120,-98,3,-8
1625,9,-248,-122,-101,3,-9
1630,11,-245,-121,-104,4,-7
1635,10,-247,-122,-105,4,-6
1640,6,-245,-123,-107,4,-6
1645,10,-246,-127,-110,3,-3
1650,9,-245,-125,-113,4,-2
1655,7,-244,-123,-117,5,1
1660,7,-242,-123,-120,7,4
1665,9,-240,-125,-122,8,6
1670,6,-238,-123,-126,11,10
1675,8,-240,-127,-131,14,13
1680,12,-240,-128,-137,18,17
1685,8,-237,-128,-144,21,21
1690,7,-236,-128,-150,24,25
1695,8,-239,-127,-159,27,28
1700,6,-234,-128,-166,30,33
1705,11,-239,-130,-173,36,36
1710,13,-233,-127,-179,41,37
1715,8,-235,-131,-184,48,40
1720,10,-234,-131,-189,51,46
1725,10,-235,-132,-193,55,48
1730,7,-234,-133,-199,59,52
1735,8,-233,-131,-205,64,57
1740,11,-234,-135,-211,70,61
1745,12,-235,-138,-219,74,66
1750,8,-232,-133,-228,78,70
1755,13,-236,-138,-240,84,76
1760,12,-233,-137,-249,90,80
1765,12,-234,-133,-257,95,85
1770,12,-232,-137,-260,99,88
1775,11,-232,-131,-261,102,90
1780,13,-230,-135,-259,104,92
1785,14,-231,-134,-258,105,93
1790,9,-227,-134,-260,104,95
1795,11,-228,-136,-260,104,98
1800,12,-228,-138,-262,104,100
1805,12,-227,-133,-266,102,101
1810,11,-227,-139,-276,100,103
1815,7,-227,-136,-283,102,107
1820,13,-230,-131,-293,100,110
1825,9,-226,-137,-302,101,116
1830,11,-227,-140,-305,103,124
1835,13,-226,-135,-310,107,129
1840,16,-225,-141,-314,110,132
1845,13,-220,-137,-316,116,143
1850,12,-221,-135,-318,123,150
1855,14,-218,-140,-322,127,154
1860,17,-219,-139,-330,133,158
1865,16,-218,-140,-342,139,165
1870,17,-214,-137,-352,145,171
1875,20,-213,-140,-362,151,174
1880,21,-216,-135,-373,156,181
1885,19,-216,-137,-383,163,186
1890,23,-213,-142,-396,166,188
1895,23,-216,-139,-411,172,188
1900,22,-210,-137,-423,175,189
1905,24,-217,-137,-438,180,191
1910,26,-216,-140,-450,185,191
1915,26,-216,-141,-465,188,190
1920,25,-215,-143,-480,190,189
1925,31,-219,-144,-495,194,190
1930,25,-226,-140,-510,199,191
1935,34,-218,-147,-524,201,190
1940,34,-222,-145,-539,206,186
1945,34,-220,-141,-552,209,182
1950,37,-223,-145,-560,213,175
1955,36,-227,-147,-562,215,166
1960,43,-229,-146,-555,214,157
1965,42,-235,-142,-538,210,147
1970,37,-237,-147,-513,203,138
1975,41,-243,-141,-487,194,126
1980,37,-245,-144,-454,182,114
1985,41,-245,-141,-423,170,103
1990,32,-249,-140,-388,160,94
1995,32,-254,-138,-358,147,80
2000,30,-255,-141,-335,132,62
2005,28,-255,-140,-322,117,39
2010,22,-255,-137,-320,98,17
2015,19,-256,-139,-324,80,2
2020,17,-254,-138,-325,61,-9
2025,18,-254,-139,-321,43,-18
2030,12,-252,-134,-315,27,-27
2035,13,-253,-132,-305,9,-32
2040,14,-247,-131,-291,-9,-35
2045,6,-242,-134,-274,-25,-37
2050,7,-239,-134,-254,-42,-27
2055,5,-233,-138,-238,-57,-15
2060,6,-232,-135,-228,-69,-6
2065,6,-223,-135,-232,-80,0
2070,6,-217,-140,-246,-84,4
2075,7,-216,-134,-266,-84,6
2080,9,-210,-136,-286,-77,10
2085,12,-207,-141,-304,-69,18
2090,11,-208,-138,-317,-57,24
2095,12,-208,-140,-326,-46,32
2100,12,-207,-141,-333,-34,40
2105,14,-206,-144,-341,-18,46
2110,14,-209,-147,-352,-4,55
2115,20,-206,-146,-366,10,66
2120,22,-210,-148,-378,26,77
2125,24,-214,-150,-390,42,89
2130,27,-211,-149,-404,60,96
2135,32,-214,-153,-423,81,98
2140,35,-215,-153,-444,98,100
2145,36,-215,-153,-462,115,98
2150,37,-223,-155,-476,130,99
2155,35,-225,-152,-482,142,98
2160,38,-226,-152,-484,152,97
2165,37,-229,-149,-482,164,96
2170,33,-230,-153,-478,173,92
2175,36,-232,-149,-473,180,89
2180,30,-234,-152,-467,189,82
2185,29,-232,-153,-459,192,76
2190,27,-238,-155,-450,194,74
2195,24,-239,-153,-445,194,69
2200,28,-238,-152,-441,192,65
2205,21,-233,-156,-439,191,63
2210,16,-238,-155,-434,186,61
2215,17,-238,-155,-423,180,65
2220,16,-236,-156,-412,173,71
2225,12,-237,-158,-404,164,76
2230,10,-235,-154,-396,157,84
2235,14,-235,-156,-390,150,95
2240,14,-237,-161,-386,145,104
2245,15,-235,-154,-380,138,100
2250,7,-231,-157,-379,134,97
2255,17,-231,-156,-372,128,106
2260,9,-229,-157,-357,121,114
2265,8,-228,-158,-346,118,116
2270,6,-225,-158,-337,116,115
2275,5,-223,-162,-331,115,115
2280,7,-222,-157,-323,114,120
2285,6,-217,-160,-317,113,125
2290,3,-216,-163,-321,111,127
2295,2,-214,-165,-329,113,127
2300,0,-209,-163,-342,115,125
2305,-1,-210,-162,-360,111,132
2310,-4,-213,-166,-377,108,143
2315,-5,-207,-160,-390,103,156
2320,-29,-199,-156,-395,94,174
2325,12,-214,-165,-374,74,221
2330,17,-219,-176,-370,66,215
2335,5,-217,-169,-395,72,169
2340,1,-212,-170,-429,79,148
2345,-1,-213,-165,-456,85,154
2350,-1,-208,-167,-475,84,165
2355,-1,-208,-166,-486,78,170
2360,0,-209,-166,-490,72,179
2365,5,-212,-169,-493,65,182
2370,9,-214,-162,-494,63,187
2375,11,-213,-164,-491,63,187
2380,13,-216,-162,-480,63,184
2385,15,-214,-162,-473,65,180
2390,13,-215,-164,-464,65,175
2395,15,-218,-167,-452,69,174
2400,12,-220,-171,-437,74,170
2405,11,-220,-173,-420,78,169
2410,7,-216,-174,-407,83,169
2415,3,-220,-175,-405,87,171
2420,7,-225,-180,-413,93,175
2425,2,-219,-183,-424,100,173
2430,2,-219,-179,-437,110,175
2435,1,-218,-180,-448,120,175
2440,1,-220,-179,-456,129,176
2445,0,-219,-178,-461,138,179
2450,-4,-217,-179,-466,140,184
2455,0,-216,-182,-471,140,192
2460,-2,-219,-183,-477,136,204
2465,4,-220,-181,-479,133,214
2470,4,-222,-183,-477,127,215
2475,0,-220,-183,-470,123,217
2480,-2,-220,-186,-460,122,227
2485,0,-222,-184,-450,121,243
2490,0,-224,-187,-450,123,255
2495,1,-222,-187,-455,122,254
2500,-4,-219,-187,-461,125,247
2505,-10,-213,-189,-473,127,250
2510,0,-219,-189,-499,122,257
2515,-1,-209,-191,-532,115,262
2520,3,-209,-191,-556,109,268
2525,6,-206,-193,-571,106,269
2530,14,-206,-191,-576,104,263
2535,13,-208,-188,-570,104,257
2540,14,-201,-191,-564,107,249
2545,13,-207,-190,-564,107,238
2550,4,-204,-194,-567,118,228
2555,5,-203,-199,-560,137,219
2560,9,-204,-200,-551,151,206
2565,11,-201,-196,-556,153,190
2570,6,-202,-203,-565,151,172
2575,4,-202,-208,-574,167,170
2580,11,-200,-215,-596,187,172
2585,3,-198,-217,-624,204,166
2590,2,-198,-213,-644,215,157
2595,3,-200,-212,-658,215,169
2600,4,-205,-209,-671,215,172
2605,13,-210,-209,-679,216,184
2610,3,-207,-206,-687,218,184
2615,2,-211,-202,-679,230,166
2620,6,-217,-206,-656,247,151
2625,-2,-215,-206,-643,263,145
2630,1,-220,-215,-640,275,147
2635,0,-218,-205,-641,284,136
2640,2,-212,-211,-645,291,109
2645,0,-212,-219,-649,290,83
2650,0,-208,-216,-654,293,61
2655,-3,-206,-221,-675,290,55
2660,-1,-203,-228,-691,295,48
2665,-1,-205,-229,-696,305,48
2670,-1,-206,-225,-702,306,37
2675,12,-254,-248,-712,301,21
2680,-3,-208,-227,-725,299,6
2685,-11,-202,-238,-739,293,-1
2690,-12,-199,-235,-749,295,-8
2695,-8,-195,-229,-756,299,-14
2700,-6,-196,-234,-750,292,-18
2705,-14,-192,-229,-744,283,-25
2710,-6,-194,-233,-736,274,-16
2715,-4,-190,-236,-737,266,-6
2720,-5,-185,-236,-745,264,8
2725,-8,-183,-241,-751,267,22
2730,-8,-178,-244,-762,265,32
2735,-6,-176,-240,-772,261,34
2740,-17,-173,-242,-793,252,49
2745,-12,-175,-240,-809,246,61
2750,-14,-177,-240,-820,235,61
2755,-18,-173,-234,-838,220,62
2760,-18,-176,-239,-852,197,68
2765,-14,-175,-248,-864,190,72
2770,-8,-176,-242,-879,198,74
2775,-5,-175,-249,-890,196,80
2780,-1,-178,-245,-898,197,82
2785,0,-176,-245,-902,198,75
2790,-1,-177,-254,-907,201,59
2795,0,-171,-248,-921,206,43
2800,2,-173,-243,-934,207,35
2805,-3,-172,-245,-941,209,31
2810,4,-177,-243,-938,212,31
2815,10,-176,-247,-925,210,11
2820,4,-173,-246,-942,219,-7
2825,5,-171,-241,-957,232,-9
2830,6,-166,-230,-953,230,-13
2835,30,-172,-239,-916,207,-7
2840,6,-163,-238,-888,210,-34
2845,10,-163,-225,-877,222,-40
2850,23,-170,-241,-851,206,-47
2855,-7,-155,-231,-851,201,-67
2860,12,-158,-236,-825,177,-61
2865,-11,-154,-137,-771,143,-74
2870,28,-160,-260,-508,32,-75
2875,27,-146,-303,-457,76,-91
2880,12,-126,-293,-690,190,-109
2885,5,-130,-269,-952,241,-146
2890,5,-141,-252,-1088,243,-205
2895,17,-148,-246,-1156,222,-240
2900,21,-144,-255,-1156,206,-240
2905,29,-130,-258,-1138,222,-222
2910,28,-126,-254,-1118,261,-176
2915,15,-133,-263,-1108,297,-140
2920,23,-135,-269,-1115,317,-144
2925,10,-133,-260,-1135,322,-156
2930,18,-140,-262,-1158,310,-168
2935,17,-136,-264,-1162,316,-215
2940,39,-147,-272,-1149,326,-226
2945,19,-143,-270,-1135,350,-243
2950,13,-144,-266,-1110,370,-238
2955,12,-144,-261,-1080,359,-227
2960,33,-154,-282,-1047,326,-232
2965,12,-138,-282,-1015,330,-265
2970,43,-141,-288,-990,316,-249
2975,20,-144,-283,-984,327,-268
2980,37,-142,-279,-978,324,-261
2985,35,-133,-281,-967,317,-273
2990,40,-135,-285,-948,309,-256
2995,1,-131,-263,-925,313,-273
3000,44,-137,-279,-896,293,-266
3005,11,-130,-277,-842,316,-291
3010,69,-151,-277,-794,305,-255
3015,16,-124,-276,-764,314,-281
3020,44,-122,-280,-746,321,-291
3025,17,-109,-276,-742,311,-299
3030,61,-126,-281,-744,284,-267
3035,33,-123,-273,-726,310,-305
3040,34,-120,-274,-704,325,-299
3045,36,-121,-274,-693,313,-285
3050,31,-121,-279,-683,305,-278
3055,23,-115,-275,-673,300,-273
3060,33,-116,-278,-665,293,-270
3065,31,-122,-279,-657,282,-262
3070,25,-119,-272,-643,273,-263
3075,23,-118,-283,-626,260,-265
3080,27,-116,-287,-631,233,-268
3085,29,-117,-287,-630,216,-263
3090,24,-118,-282,-621,202,-262
3095,20,-116,-280,-599,196,-268
3100,24,-117,-285,-584,187,-269
3105,17,-116,-279,-568,182,-272
3110,30,-107,-285,-563,173,-278
3115,27,-116,-283,-555,164,-272
3120,18,-110,-269,-538,156,-269
3125,21,-109,-279,-518,144,-272
3130,24,-106,-280,-504,126,-275
3135,19,-108,-281,-489,110,-278
3140,17,-107,-281,-468,96,-284
3145,23,-109,-277,-465,83,-290
3150,31,-103,-278,-458,74,-296
3155,20,-103,-277,-439,65,-281
3160,27,-109,-280,-418,53,-275
3165,37,-89,-275,-421,35,-294
3170,36,-94,-280,-419,20,-277
3175,31,-93,-281,-405,27,-263
3180,27,-93,-274,-397,22,-259
3185,27,-91,-275,-382,11,-257
3190,21,-90,-278,-379,7,-263
3195,24,-82,-275,-389,1,-271
3200,27,-82,-274,-383,-14,-267
3205,35,-88,-274,-365,-42,-248
3210,48,-97,-284,-366,-82,-233
3215,34,-99,-277,-358,-79,-262
3220,39,-87,-280,-341,-74,-285
3225,39,-90,-288,-319,-86,-269
3230,42,-89,-284,-312,-108,-250
3235,44,-103,-296,-294,-134,-233
3240,53,-86,-282,-266,-164,-232
3245,43,-94,-284,-214,-198,-183
3250,48,-87,-285,-159,-222,-147
3255,41,-88,-294,-108,-251,-115
3260,50,-83,-292,-84,-282,-103
3265,47,-81,-288,-72,-301,-90
3270,47,-86,-287,-52,-322,-62
3275,45,-89,-293,-9,-346,-43
3280,44,-88,-288,41,-368,-30
3285,47,-89,-283,87,-388,-25
3290,43,-91,-287,138,-413,-26
3295,41,-97,-291,193,-435,-29
3300,35,-98,-297,239,-455,-34
3305,32,-99,-307,270,-476,-42
3310,32,-103,-308,289,-494,-53
3315,29,-102,-311,309,-508,-64
3320,31,-106,-309,332,-526,-76
3325,29,-108,-314,361,-548,-86
3330,25,-108,-313,395,-573,-97
3335,30,-109,-304,432,-602,-103
3340,30,-112,-312,468,-629,-109
3345,35,-115,-309,504,-656,-114
3350,31,-111,-308,535,-678,-119
3355,33,-116,-305,560,-699,-125
3360,32,-118,-305,591,-717,-136
3365,34,-119,-307,630,-731,-147
3370,31,-118,-311,679,-743,-157
3375,26,-115,-312,724,-756,-168
3380,21,-116,-312,763,-771,-174
3385,20,-112,-312,789,-791,-181
3390,24,-116,-312,811,-809,-182
3395,18,-121,-309,849,-823,-189
3400,19,-125,-306,909,-838,-197
3405,14,-126,-311,972,-859,-192
3410,24,-131,-311,1015,-890,-178
3415,28,-142,-306,1075,-902,-175
3420,30,-147,-308,1154,-907,-178
3425,27,-151,-307,1257,-903,-193
3430,18,-155,-301,1370,-892,-206
3435,51,-170,-302,1468,-898,-215
3440,-9,-139,-304,1589,-887,-248
3445,20,-148,-314,1650,-915,-211
3450,48,-154,-298,1639,-944,-228
3455,32,-160,-298,1700,-881,-275
3460,53,-156,-311,1806,-821,-283
3465,51,-180,-305,1845,-776,-303
3470,59,-165,-311,1891,-703,-333
3475,76,-176,-286,1938,-626,-384
3480,56,-185,-273,2056,-578,-420
3485,65,-199,-270,2202,-561,-435
3490,15,-191,-238,2307,-548,-477
3495,22,-194,-224,2413,-520,-503
3500,13,-178,-228,2531,-475,-486
3505,11,-173,-222,2607,-416,-478
3510,1,-153,-220,2625,-358,-465
3515,-16,-141,-225,2594,-341,-426
3520,-7,-121,-215,2511,-355,-360
3525,-27,-113,-191,2425,-407,-314
3530,-16,-110,-188,2361,-485,-266
3535,-29,-96,-198,2263,-546,-214
3540,-26,-95,-195,2120,-570,-146
3545,-23,-89,-196,1975,-569,-115
3550,-21,-94,-183,1852,-569,-87
3555,-26,-105,-181,1754,-588,-77
3560,-38,-101,-174,1681,-608,-85
3565,-38,-111,-166,1623,-611,-69
3570,-40,-118,-171,1583,-609,-48
3575,-48,-123,-159,1545,-614,-37
3580,-51,-119,-180,1521,-623,-14
3585,-43,-127,-174,1460,-621,10
3590,-59,-121,-166,1404,-638,16
3595,-44,-123,-165,1352,-654,51
3600,-51,-128,-169,1314,-675,78
3605,-37,-136,-165,1258,-686,103
3610,-34,-145,-163,1192,-695,108
3615,-34,-147,-158,1126,-703,100
3620,-36,-153,-163,1063,-701,111
3625,-40,-159,-163,992,-695,114
3630,-46,-167,-168,926,-697,105
3635,-44,-170,-171,861,-696,84
3640,-46,-172,-174,798,-690,66
3645,-39,-172,-178,737,-672,37
3650,-37,-177,-178,671,-649,-1
3655,-33,-181,-179,614,-625,-22
3660,-40,-183,-179,567,-601,-49
3665,-42,-185,-179,524,-583,-66
3670,-35,-184,-179,495,-563,-77
3675,-39,-180,-178,458,-548,-96
3680,-30,-182,-177,420,-534,-103
3685,-35,-175,-171,375,-533,-110
3690,-33,-173,-174,333,-535,-111
3695,-30,-172,-169,295,-544,-121
3700,-28,-172,-170,270,-549,-130
3705,-34,-169,-167,253,-556,-135
3710,-29,-176,-167,252,-561,-138
3715,-33,-176,-166,263,-572,-156
3720,-34,-184,-176,290,-580,-162
3725,-25,-185,-175,318,-580,-170
3730,-26,-188,-175,336,-572,-178
3735,-28,-192,-179,342,-552,-175
3740,-25,-194,-181,327,-521,-172
3745,-25,-193,-178,287,-487,-182
3750,-26,-189,-182,242,-446,-196
3755,-22,-191,-184,208,-387,-207
3760,-25,-196,-194,178,-305,-229
3765,-36,-208,-194,148,-214,-269
3770,-43,-213,-193,132,-123,-317
3775,-51,-222,-194,137,-49,-364
3780,-54,-224,-188,167,0,-404
3785,-55,-223,-182,217,22,-436
3790,-52,-218,-179,280,18,-466
3795,-55,-212,-180,340,-7,-486
3800,-50,-211,-179,383,-46,-497
3805,-54,-207,-178,410,-96,-502
3810,-54,-204,-175,427,-148,-497
3815,-54,-204,-177,441,-201,-485
3820,-52,-197,-173,453,-254,-469
3825,-56,-201,-180,464,-299,-452
3830,-54,-197,-184,465,-331,-435
3835,-52,-200,-171,458,-350,-424
3840,-49,-201,-168,446,-359,-418
3845,-43,-207,-163,424,-357,-417
3850,-43,-211,-160,394,-351,-421
3855,-46,-213,-159,359,-349,-420
3860,-45,-219,-161,327,-347,-415
3865,-42,-218,-157,303,-344,-403
3870,-37,-227,-157,288,-340,-389
3875,-34,-230,-158,278,-334,-373
3880,-28,-231,-166,271,-325,-354
3885,-28,-238,-165,263,-314,-333
3890,-24,-232,-166,246,-301,-316
3895,-25,-237,-166,229,-286,-297
3900,-24,-242,-162,210,-273,-277
3905,-25,-246,-159,195,-267,-258
3910,-23,-253,-152,191,-269,-245
3915,-22,-250,-150,196,-277,-238
3920,-30,-249,-151,203,-286,-233
3925,-33,-242,-153,210,-294,-225
3930,-37,-239,-159,208,-304,-218
3935,-45,-238,-156,198,-316,-210
3940,-42,-237,-156,179,-328,-199
3945,-48,-237,-155,161,-339,-192
3950,-56,-238,-152,155,-348,-184
3955,-56,-237,-150,159,-358,-181
3960,-59,-235,-148,176,-373,-178
3965,-57,-239,-150,192,-390,-171
3970,-59,-246,-149,206,-404,-160
3975,-57,-229,-151,235,-412,-153
3980,-52,-240,-123,245,-419,-154
3985,-46,-236,-141,319,-413,-147
3990,-50,-229,-145,349,-410,-153
3995,-43,-227,-147,341,-417,-153
4000,-44,-225,-147,302,-428,-157
4005,-36,-227,-147,253,-445,-165
4010,-35,-228,-150,214,-458,-175
4015,-34,-234,-149,184,-460,-185
4020,-33,-238,-155,181,-447,-196
4025,-22,-238,-153,184,-433,-210
4030,-23,-236,-154,178,-422,-228
4035,-9,-241,-153,140,-417,-238
4040,-21,-234,-153,95,-411,-262
4045,-11,-243,-139,68,-396,-279
4050,-15,-255,-144,79,-384,-289
4055,-17,-251,-150,108,-365,-298
4060,-16,-255,-146,133,-350,-304
4065,-20,-254,-155,155,-345,-315
4070,-24,-251,-157,162,-346,-320
4075,-23,-254,-156,166,-344,-318
4080,-19,-254,-163,162,-348,-327
4085,-14,-259,-154,157,-365,-329
4090,-21,-264,-146,164,-379,-329
4095,-19,-257,-150,190,-389,-321
4100,-18,-261,-147,196,-393,-305
4105,-24,-256,-151,169,-389,-297
4110,-10,-259,-163,131,-390,-292
4115,-4,-257,-159,83,-390,-293
4120,-11,-245,-156,52,-389,-300
4125,-5,-252,-156,21,-386,-296
4130,-14,-248,-159,-19,-383,-313
4135,0,-248,-157,-57,-374,-315
4140,-17,-239,-151,-95,-359,-331
4145,-15,-230,-152,-126,-371,-325
4150,-18,-233,-142,-153,-381,-322
4155,-13,-220,-148,-184,-399,-318
4160,-7,-226,-150,-229,-399,-325
4165,-15,-224,-148,-269,-386,-333
4170,-20,-232,-147,-309,-400,-356
4175,-19,-239,-149,-337,-399,-377
4180,-28,-242,-149,-318,-381,-385
4185,-18,-236,-153,-283,-356,-394
4190,-6,-254,-138,-235,-330,-392
4195,-19,-232,-154,-148,-307,-405
4200,-15,-232,-150,-109,-303,-414
4205,-23,-227,-163,-116,-303,-416
4210,7,-238,-156,-160,-308,-409
4215,-17,-235,-142,-181,-309,-401
4220,5,-235,-156,-174,-304,-396
4225,-17,-225,-153,-187,-315,-415
4230,-9,-229,-151,-217,-333,-423
4235,-6,-227,-156,-242,-364,-408
4240,-20,-230,-159,-247,-367,-389
4245,3,-228,-157,-261,-365,-376
4250,-22,-231,-157,-278,-348,-372
4255,1,-246,-164,-281,-332,-361
4260,-3,-247,-155,-287,-312,-348
4265,-10,-227,-163,-318,-344,-345
4270,-1,-246,-163,-363,-360,-323
4275,-10,-252,-148,-388,-357,-306
4280,-4,-243,-161,-384,-338,-276
4285,5,-253,-175,-375,-323,-256
4290,-27,-227,-151,-401,-331,-265
4295,8,-239,-172,-434,-379,-234
4300,-8,-237,-164,-475,-396,-238
4305,-40,-240,-162,-486,-406,-226
4310,-36,-233,-155,-460,-383,-212
4315,-6,-236,-188,-435,-380,-223
4320,-26,-219,-149,-444,-349,-242
4325,-13,-224,-166,-450,-350,-239
4330,-17,-224,-171,-438,-324,-231
4335,10,-248,-149,-418,-314,-219
4340,10,-254,-174,-293,-210,-201
4345,22,-244,-185,-192,-179,-210
4350,-52,-203,-126,-248,-231,-256
4355,-11,-204,-198,-377,-331,-263
4360,9,-240,-186,-496,-361,-239
4365,7,-238,-183,-546,-372,-229
4370,-36,-213,-145,-579,-335,-235
4375,-6,-236,-194,-590,-390,-217
4380,-6,-251,-152,-640,-375,-201
4385,-7,-252,-175,-624,-422,-181
4390,-26,-242,-166,-606,-410,-196
4395,-6,-252,-196,-585,-413,-195
4400,1,-259,-155,-565,-353,-213
4405,-19,-245,-186,-525,-394,-218
4410,-1,-262,-175,-478,-374,-197
4415,-15,-241,-178,-422,-410,-205
4420,-9,-263,-203,-403,-402,-230
4425,5,-228,-183,-448,-354,-307
4430,-17,-233,-171,-417,-307,-287
4435,-1,-249,-194,-375,-303,-255
4440,3,-238,-186,-348,-256,-254
4445,-40,-279,-192,-373,-254,-295
4450,6,-211,-186,-425,-250,-359
4455,-20,-236,-187,-394,-236,-313
4460,-6,-256,-189,-330,-211,-240
4465,-14,-261,-197,-297,-157,-228
4470,-34,-261,-176,-315,-120,-255
4475,-2,-249,-182,-383,-249,-337
4480,-6,-250,-208,-399,-261,-351
4485,-29,-243,-183,-363,-153,-308
4490,-31,-238,-159,-283,-177,-243
4495,-11,-271,-209,-176,-256,-157
4500,-23,-272,-198,-109,-179,-119
4505,-23,-266,-197,-62,-142,-107
4510,-25,-265,-195,-42,-143,-106
4515,-34,-259,-177,-22,-154,-96
4520,-1,-268,-198,30,-210,-63
4525,-18,-262,-195,69,-163,-49
4530,-28,-259,-193,96,-106,-43
4535,-26,-259,-190,116,-96,-41
4540,-22,-255,-187,135,-90,-39
4545,-22,-255,-186,149,-87,-35
4550,-23,-254,-185,167,-74,-32
4555,-21,-253,-179,187,-65,-28
4560,-21,-251,-176,206,-58,-27
4565,-23,-246,-172,223,-55,-27
4570,-24,-242,-172,231,-54,-24
4575,-22,-242,-168,226,-52,-24
4580,-22,-243,-162,223,-52,-23
4585,-21,-232,-164,228,-52,-21
4590,-18,-238,-165,235,-56,-21
4595,-19,-228,-160,237,-57,-23
4600,-20,-226,-159,244,-62,-28
4605,-15,-225,-156,246,-69,-32
4610,-13,-219,-153,243,-72,-40
4615,-16,-214,-154,236,-78,-49
4620,-19,-215,-156,224,-78,-58
4625,-17,-213,-151,223,-80,-71
4630,-16,-215,-154,228,-88,-80
4635,-11,-217,-153,231,-90,-92
4640,-9,-218,-150,231,-93,-103
4645,-10,-222,-147,237,-96,-111
4650,-2,-222,-149,247,-105,-116
4655,-4,-223,-151,253,-114,-119
4660,-5,-226,-151,259,-121,-124
4665,-6,-226,-152,265,-127,-128
4670,-2,-228,-153,269,-131,-130
4675,-5,-225,-150,275,-133,-133
4680,-4,-228,-155,283,-135,-132
4685,-2,-225,-158,285,-135,-132
4690,-1,-229,-163,283,-136,-132
4695,-4,-232,-163,280,-131,-131
4700,-5,-234,-161,278,-127,-131
4705,-6,-233,-161,281,-123,-130
4710,-8,-234,-168,293,-121,-129
4715,-8,-239,-167,307,-119,-128
4720,-8,-244,-165,325,-121,-127
4725,-8,-249,-165,352,-128,-125
4730,-12,-248,-169,383,-137,-124
4735,-11,-251,-167,415,-146,-119
4740,-12,-253,-167,448,-154,-116
4745,-12,-250,-169,477,-161,-115
4750,-10,-255,-170,506,-169,-112
4755,-14,-256,-162,536,-177,-111
4760,-11,-258,-168,564,-188,-109
4765,-8,-257,-168,587,-196,-110
4770,-11,-256,-163,603,-201,-110
4775,-15,-251,-159,614,-208,-108
4780,-11,-250,-158,626,-214,-104
4785,-8,-251,-158,631,-218,-100
4790,-13,-251,-156,636,-218,-100
4795,-5,-246,-157,642,-219,-94
4800,-11,-246,-153,652,-210,-84
4805,0,-247,-148,656,-213,-90
4810,1,-245,-144,653,-209,-97
4815,-2,-240,-144,651,-199,-104
4820,4,-234,-139,650,-195,-119
4825,-1,-234,-137,654,-184,-142
4830,-2,-232,-133,658,-166,-154
4835,-6,-229,-129,662,-154,-161
4840,5,-240,-122,660,-147,-174
4845,1,-237,-123,648,-143,-188
4850,-9,-241,-126,634,-135,-189
4855,-5,-244,-124,621,-133,-208
4860,4,-249,-117,616,-132,-226
4865,-4,-250,-115,623,-122,-235
4870,-8,-254,-111,651,-105,-246
4875,-11,-247,-109,686,-111,-244
4880,5,-253,-108,715,-126,-238
4885,-19,-250,-110,734,-137,-234
4890,-3,-250,-104,748,-148,-219
4895,0,-258,-103,756,-161,-214
4900,8,-262,-104,768,-167,-218
4905,-2,-264,-103,791,-162,-239
4910,2,-266,-99,814,-160,-258
4915,-22,-254,-106,832,-149,-254
4920,9,-264,-106,825,-142,-244
4925,-4,-261,-93,827,-137,-260
4930,-4,-261,-91,846,-127,-256
4935,-14,-258,-98,852,-134,-243
4940,-6,-261,-98,854,-138,-237
4945,-16,-262,-103,854,-124,-239
4950,0,-269,-97,838,-113,-223
4955,-3,-263,-97,819,-119,-234
4960,-3,-256,-100,814,-117,-249
4965,4,-260,-98,794,-106,-245
4970,6,-265,-88,763,-96,-248
4975,-7,-258,-105,727,-58,-262
4980,20,-261,-104,683,-28,-249
4985,-4,-259,-97,635,-12,-269
4990,4,-258,-97,601,-30,-260
4995,13,-259,-100,580,-61,-255
5000,12,-255,-101,570,-63,-266
5005,14,-250,-99,547,-54,-276
5010,15,-254,-102,515,-44,-291
5015,23,-257,-95,478,-31,-296
5020,14,-253,-94,436,-37,-303
5025,21,-256,-101,405,-32,-292
5030,18,-256,-94,387,-18,-282
5035,22,-254,-93,373,-12,-273
5040,23,-254,-91,363,-8,-266
5045,34,-252,-116,341,2,-262
5050,10,-255,-77,288,66,-260
5055,13,-257,-69,324,87,-226
5060,23,-262,-82,394,49,-201
5065,19,-255,-82,440,15,-182
5070,25,-258,-84,475,-1,-170
5075,25,-253,-85,491,-6,-164
5080,34,-255,-97,493,-6,-161
5085,-2,-226,-59,410,34,-177
5090,29,-256,-47,375,39,-140
5095,26,-261,-62,440,-22,-143
5100,25,-257,-65,500,-45,-145
5105,30,-251,-76,533,-48,-153
5110,17,-239,-44,469,-5,-159
5115,11,-246,-55,464,-25,-156
5120,24,-246,-60,453,-84,-150
5125,25,-249,-66,426,-130,-157
5130,26,-247,-66,380,-137,-169
5135,31,-235,-82,308,-115,-182
5140,24,-247,-56,199,-101,-188
5145,24,-255,-47,202,-110,-200
5150,23,-259,-60,235,-128,-200
5155,28,-255,-73,235,-139,-197
5160,25,-251,-79,182,-110,-210
5165,19,-257,-56,135,-98,-219
5170,21,-263,-64,163,-137,-228
5175,14,-259,-72,215,-142,-236
5180,12,-249,-112,234,-115,-229
5185,23,-253,-51,177,-68,-233
5190,10,-259,-60,213,-96,-250
5195,13,-251,-117,247,-115,-238
5200,26,-259,-55,185,-69,-221
5205,14,-258,-60,188,-81,-244
5210,12,-263,-108,227,-97,-240
5215,24,-260,-55,180,-53,-216
5220,12,-262,-64,172,-64,-223
5225,23,-266,-73,188,-54,-208
5230,19,-267,-57,153,-30,-196
5235,29,-265,-76,172,-36,-192
5240,16,-270,-61,150,-9,-184
5245,20,-261,-81,167,-17,-182
5250,27,-268,-55,173,10,-172
5255,19,-256,-95,242,-4,-178
5260,24,-260,-60,252,21,-157
5265,20,-246,-91,285,12,-155
5270,17,-245,-91,268,22,-141
5275,26,-250,-55,232,30,-129
5280,37,-249,-50,199,14,-122
5285,40,-249,-38,154,-3,-119
5290,41,-246,-39,102,-19,-111
5295,32,-238,-67,41,-23,-108
5300,37,-249,-54,-36,-23,-94
5305,38,-255,-41,-67,-43,-91
5310,39,-257,-43,-39,-71,-84
5315,47,-260,-37,20,-90,-79
5320,43,-260,-40,115,-89,-80
5325,44,-260,-45,205,-72,-78
5330,47,-257,-46,263,-53,-81
5335,41,-257,-54,292,-37,-84
5340,40,-252,-58,286,-28,-79
5345,40,-254,-59,258,-27,-78
5350,44,-247,-57,225,-25,-72
5355,43,-257,-57,179,-26,-70
5360,42,-256,-56,142,-27,-71
5365,43,-256,-55,114,-28,-73
5370,44,-256,-56,93,-27,-75
5375,41,-255,-60,75,-24,-76
5380,41,-255,-60,57,-20,-77
5385,38,-254,-60,32,-17,-76
5390,43,-256,-60,6,-19,-72
5395,38,-254,-57,-22,-17,-68
5400,37,-253,-56,-46,-10,-63
5405,34,-252,-62,-65,0,-60
5410,34,-254,-61,-78,11,-60
5415,34,-253,-61,-92,22,-58
5420,33,-255,-58,-113,29,-57
5425,32,-250,-58,-134,34,-57
5430,34,-256,-57,-156,35,-56
5435,29,-255,-57,-172,37,-54
5440,29,-253,-60,-188,33,-53
5445,32,-252,-60,-205,28,-51
5450,29,-252,-58,-219,22,-52
5455,31,-251,-63,-234,15,-49
5460,35,-251,-57,-247,8,-49
5465,34,-254,-61,-253,-2,-46
5470,34,-255,-58,-262,-5,-44
5475,37,-257,-61,-271,-6,-40
5480,36,-257,-60,-281,-4,-34
5485,37,-259,-61,-291,0,-29
5490,31,-261,-60,-298,6,-27
5495,34,-261,-59,-299,17,-27
5500,27,-264,-61,-296,26,-28
5505,29,-264,-63,-289,37,-32
5510,29,-264,-62,-281,47,-32
5515,26,-267,-62,-276,56,-35
5520,28,-266,-64,-278,61,-39
5525,25,-263,-62,-283,63,-43
5530,25,-265,-66,-292,63,-42
5535,25,-261,-64,-305,57,-38
5540,23,-260,-72,-315,48,-38
5545,24,-259,-70,-332,38,-33
5550,24,-259,-71,-345,27,-29
5555,26,-257,-68,-358,15,-24
5560,28,-257,-69,-364,7,-20
5565,23,-255,-75,-362,0,-12
5570,25,-256,-70,-354,-2,-10
5575,27,-256,-74,-338,-1,-6
5580,31,-256,-76,-321,0,-4
5585,28,-256,-75,-308,1,-5
5590,29,-256,-74,-295,3,-6
5595,28,-257,-76,-285,4,-8
5600,28,-256,-71,-277,8,-12
5605,31,-256,-73,-274,8,-16
5610,28,-256,-73,-271,10,-17
5615,25,-257,-76,-276,10,-19
5620,27,-255,-75,-283,11,-25
5625,25,-257,-73,-292,12,-24
5630,24,-256,-75,-313,8,-23
5635,24,-258,-74,-339,5,-23
5640,24,-257,-75,-366,-2,-18
5645,25,-258,-78,-387,-5,-16
5650,24,-264,-80,-396,-5,-12
5655,26,-264,-78,-402,-4,-7
5660,24,-266,-74,-398,-4,-4
5665,24,-270,-77,-392,-7,5
5670,25,-267,-77,-384,-13,10
5675,24,-264,-80,-374,-14,10
5680,26,-270,-78,-360,-13,10
5685,28,-266,-84,-339,-8,10
5690,24,-265,-78,-314,-4,8
5695,22,-263,-80,-289,-2,6
5700,24,-264,-87,-266,-4,5
5705,23,-262,-87,-253,-4,1
5710,22,-264,-93,-244,-3,-1
5715,25,-258,-87,-231,-10,-6
5720,22,-258,-88,-214,-17,-9
5725,30,-263,-86,-194,-18,-13
5730,32,-259,-92,-178,-22,-14
5735,30,-260,-87,-162,-28,-16
5740,33,-260,-87,-149,-32,-16
5745,34,-261,-88,-143,-31,-16
5750,34,-259,-85,-136,-27,-18
5755,35,-258,-86,-129,-17,-18
5760,37,-260,-80,-121,-10,-19
5765,41,-261,-80,-110,-5,-18
5770,31,-258,-83,-101,5,-16
5775,34,-261,-77,-97,10,-11
5780,34,-259,-80,-97,11,-8
5785,30,-258,-87,-100,13,-2
5790,30,-259,-82,-101,15,1
5795,31,-262,-81,-103,17,5
5800,27,-262,-89,-102,15,9
5805,26,-258,-89,-104,12,10
5810,29,-261,-85,-100,11,12
5815,26,-263,-85,-92,11,10
5820,24,-259,-86,-87,8,12
5825,26,-262,-88,-78,1,12
5830,30,-261,-91,-68,-3,11
5835,31,-259,-86,-58,-9,10
5840,30,-259,-95,-47,-16,9
5845,35,-260,-87,-35,-19,7
5850,34,-258,-85,-25,-17,4
5855,32,-257,-89,-19,-14,1
5860,33,-257,-89,-20,-9,-3
5865,32,-256,-84,-25,-3,-6
5870,33,-259,-86,-31,3,-8
5875,29,-258,-86,-33,9,-12
5880,28,-260,-86,-28,14,-14
5885,31,-263,-86,-25,24,-17
5890,28,-263,-83,-26,34,-20
5895,24,-263,-78,-27,43,-21
5900,26,-260,-81,-29,48,-23
5905,27,-263,-86,-34,53,-23
5910,27,-263,-85,-40,54,-20
5915,27,-261,-86,-46,54,-17
5920,26,-262,-88,-49,55,-13
5925,25,-263,-82,-48,55,-10
5930,24,-263,-83,-43,54,-8
5935,31,-262,-86,-35,52,-3
5940,29,-264,-88,-25,49,4
5945,27,-259,-88,-15,45,9
5950,19,-255,-87,-5,41,16
5955,28,-261,-84,4,37,22
5960,29,-259,-87,9,33,30
5965,29,-260,-79,13,29,39
5970,29,-260,-82,13,25,45
5975,27,-257,-85,13,22,53
5980,31,-258,-86,10,18,60
5985,28,-257,-83,8,14,66
5990,31,-258,-86,9,14,69
5995,29,-257,-89,10,12,70
6000,37,-262,-84,14,11,71
6005,32,-255,-91,13,9,71
6010,28,-255,-90,13,10,71
6015,31,-256,-84,11,9,72
6020,28,-255,-82,8,10,73
6025,25,-257,-79,6,12,75
6030,30,-258,-78,6,13,78
6035,28,-264,-83,10,18,79
6040,25,-264,-81,14,23,80
6045,23,-264,-79,14,26,77
6050,25,-268,-81,17,31,74
6055,20,-269,-90,24,37,73
6060,19,-264,-84,27,39,72
6065,19,-266,-82,28,39,75
6070,21,-264,-82,30,35,79
6075,19,-262,-83,30,27,83
6080,17,-260,-80,31,22,87
6085,22,-262,-81,31,16,86
6090,18,-259,-85,38,17,84
6095,16,-260,-83,45,19,79
6100,20,-259,-79,50,22,78
6105,20,-259,-75,57,23,73
6110,10,-257,-87,65,24,68
6115,15,-258,-78,70,26,62
6120,15,-256,-76,74,27,57
6125,18,-256,-78,72,26,48
6130,18,-257,-84,65,26,46
6135,16,-255,-79,53,21,40
6140,17,-256,-83,44,19,33
6145,17,-255,-80,35,16,27
6150,17,-258,-79,28,11,22
6155,19,-255,-79,25,7,15
6160,20,-256,-84,24,5,9
6165,17,-262,-80,22,4,3
6170,24,-259,-80,23,3,-3
6175,22,-260,-77,25,5,-8
6180,25,-261,-76,23,9,-10
6185,24,-258,-77,22,14,-10
6190,25,-262,-78,21,18,-10
6195,27,-263,-76,18,21,-8
6200,25,-263,-76,16,24,-5
6205,23,-262,-79,13,27,-1
6210,22,-258,-76,10,29,3
6215,27,-262,-77,12,30,6
6220,24,-256,-80,12,31,10
6225,23,-256,-75,12,32,16
6230,26,-258,-75,11,30,21
6235,24,-256,-74,9,29,26
6240,27,-259,-75,10,27,28
6245,25,-259,-79,13,29,31
6250,27,-256,-79,9,28,34
6255,29,-261,-77,3,26,36
6260,33,-259,-74,-1,23,42
6265,25,-258,-79,0,22,39
6270,30,-257,-72,0,23,40
6275,27,-257,-79,-4,23,39
6280,27,-257,-75,-8,21,39
6285,29,-260,-73,-11,21,36
6290,25,-255,-77,-14,23,29
6295,24,-256,-74,-18,25,29
6300,27,-256,-75,-26,28,25
6305,28,-257,-76,-29,32,20
6310,27,-255,-75,-33,35,18
6315,24,-259,-74,-38,36,13
6320,24,-261,-78,-39,37,10
6325,24,-259,-79,-39,37,6
6330,22,-261,-77,-37,37,2
6335,24,-260,-80,-38,37,1
6340,22,-259,-76,-37,34,2
6345,21,-260,-77,-34,32,1
6350,21,-258,-78,-30,31,0
6355,21,-259,-75,-26,31,-1
6360,21,-260,-79,-20,32,-2
6365,22,-257,-76,-16,32,-2
6370,22,-259,-75,-15,31,-1
6375,24,-257,-76,-13,31,0
6380,21,-257,-79,-13,29,1
6385,22,-259,-72,-14,28,2
6390,23,-259,-76,-18,29,3
6395,20,-259,-75,-21,28,4
6400,22,-258,-73,-24,28,3
6405,21,-258,-78,-28,26,4
6410,22,-257,-73,-31,25,6
6415,19,-259,-80,-35,24,7
6420,21,-259,-80,-40,23,7
6425,19,-258,-80,-44,23,8
6430,19,-262,-75,-47,25,8
6435,21,-266,-75,-48,24,6
6440,20,-260,-74,-48,25,5
6445,19,-260,-75,-46,25,3
6450,19,-260,-75,-44,26,1
6455,20,-259,-73,-39,24,-3
6460,17,-258,-75,-37,23,-8
6465,20,-260,-80,-33,24,-9
6470,20,-262,-74,-33,25,-6
6475,20,-258,-79,-31,22,-5
6480,16,-258,-78,-35,19,-4
6485,16,-258,-72,-32,18,-5
6490,20,-257,-83,-30,17,-6
6495,20,-261,-78,-27,16,-4
6500,23,-261,-72,-25,15,-6
6505,20,-259,-78,-26,17,-7
6510,19,-260,-73,-27,18,-8
6515,19,-259,-76,-28,20,-10
6520,22,-259,-76,-29,20,-12
6525,21,-262,-78,-30,21,-13
6530,22,-260,-78,-32,20,-15
6535,21,-260,-75,-33,22,-16
6540,18,-262,-77,-35,23,-15
6545,19,-259,-78,-33,23,-15
6550,17,-260,-79,-33,23,-18
6555,22,-263,-78,-33,22,-17
6560,22,-262,-81,-31,20,-18
6565,21,-260,-76,-27,19,-18
6570,21,-258,-79,-25,19,-17
6575,23,-262,-78,-22,18,-18
6580,22,-260,-76,-21,17,-17
6585,22,-257,-76,-21,16,-17
6590,23,-261,-75,-18,15,-17
6595,23,-257,-75,-20,13,-19
6600,19,-254,-80,-21,10,-18
6605,21,-257,-78,-21,9,-15
6610,20,-259,-75,-22,7,-17
6615,22,-259,-76,-25,5,-17
6620,24,-258,-76,-26,5,-17
6625,23,-259,-74,-29,5,-17
6630,23,-259,-79,-29,4,-15
6635,20,-258,-75,-32,4,-15
6640,23,-258,-75,-32,6,-17
6645,24,-259,-78,-33,6,-17
6650,20,-258,-75,-31,6,-18
6655,23,-262,-68,-30,8,-19
6660,23,-259,-77,-28,9,-18
6665,21,-260,-75,-30,9,-19
6670,23,-258,-74,-30,10,-20
6675,22,-258,-78,-32,10,-18
6680,23,-258,-74,-34,10,-20
6685,25,-261,-76,-35,11,-17
6690,23,-262,-74,-35,12,-20
6695,23,-258,-70,-35,12,-17
6700,23,-261,-72,-37,11,-19
6705,23,-259,-70,-39,12,-20
6710,18,-260,-75,-40,12,-21
6715,22,-260,-76,-41,12,-20
6720,21,-258,-78,-41,11,-20
6725,23,-259,-74,-45,10,-21
6730,28,-261,-75,-44,9,-21
6735,23,-258,-72,-46,8,-19
6740,23,-258,-73,-46,10,-20
6745,22,-258,-77,-42,10,-21
6750,22,-259,-76,-43,11,-20
6755,23,-257,-79,-44,10,-20
6760,20,-259,-74,-45,10,-19
6765,25,-259,-66,-47,8,-19
6770,25,-258,-70,-47,7,-19
6775,24,-260,-76,-49,6,-19
6780,22,-258,-78,-47,6,-18
6785,26,-262,-76,-44,5,-19
6790,22,-261,-76,-45,5,-18
6795,26,-258,-73,-42,7,-17
6800,21,-262,-80,-38,7,-18
6805,25,-259,-76,-36,9,-17
6810,27,-259,-75,-33,12,-19
6815,27,-258,-78,-32,13,-19
6820,26,-260,-73,-31,16,-18
6825,24,-262,-76,-30,19,-20
6830,25,-257,-72,-29,19,-21
6835,23,-261,-76,-27,19,-21
6840,25,-263,-74,-26,19,-23
6845,24,-259,-75,-25,19,-25
6850,24,-259,-73,-25,19,-25
6855,22,-257,-77,-25,19,-23
6860,26,-259,-70,-26,18,-22
6865,22,-258,-76,-25,16,-21
6870,24,-259,-70,-25,17,-21
6875,22,-259,-78,-26,16,-19
6880,24,-260,-77,-25,15,-18
6885,24,-260,-74,-27,14,-17
6890,23,-256,-73,-29,14,-16
6895,22,-258,-75,-32,14,-15
6900,23,-258,-74,-35,15,-16
6905,26,-256,-74,-37,15,-16
6910,25,-257,-74,-41,16,-15
6915,24,-262,-80,-44,15,-14
6920,25,-259,-74,-47,14,-15
6925,21,-260,-76,-47,15,-13
6930,21,-259,-74,-49,15,-12
6935,23,-256,-78,-53,14,-13
6940,21,-262,-76,-56,13,-12
6945,22,-262,-72,-56,11,-12
6950,25,-260,-75,-56,10,-12
6955,25,-261,-78,-55,10,-10
6960,23,-263,-76,-54,12,-9
6965,24,-261,-74,-54,12,-9
6970,23,-260,-74,-52,10,-8
6975,24,-259,-73,-48,11,-6
6980,21,-258,-72,-45,12,-6
6985,22,-259,-71,-41,10,-6
6990,23,-259,-73,-39,10,-6
6995,24,-260,-73,-39,10,-3
7000,24,-260,-71,-41,10,-2
7005,23,-261,-73,-40,11,1
7010,25,-258,-75,-40,11,2
7015,24,-260,-75,-44,11,2
7020,23,-257,-72,-47,10,4
7025,21,-262,-81,-48,11,4
7030,27,-259,-77,-47,10,5
7035,24,-261,-79,-49,10,3
7040,26,-260,-72,-50,9,3
7045,20,-257,-74,-50,9,2
7050,23,-258,-75,-50,10,3
7055,27,-259,-75,-53,10,3
7060,22,-258,-76,-53,10,2
7065,25,-260,-72,-53,11,0
7070,21,-261,-78,-53,12,0
7075,28,-261,-73,-52,13,-1
7080,23,-258,-74,-53,14,-1
7085,30,-259,-74,-50,16,-1
7090,27,-261,-66,-48,16,-1
7095,24,-258,-74,-48,17,-1
7100,22,-257,-77,-50,17,0
7105,21,-260,-73,-50,17,0
7110,23,-260,-75,-49,18,-2
7115,25,-261,-73,-49,17,0
7120,23,-259,-77,-49,17,1
7125,25,-261,-78,-48,17,1
7130,21,-260,-73,-48,17,0
7135,24,-258,-73,-49,16,1
7140,22,-259,-73,-47,15,2
7145,26,-264,-74,-47,14,2
7150,24,-260,-77,-48,14,2
7155,20,-258,-78,-46,14,3
7160,24,-261,-73,-45,14,6
7165,23,-257,-72,-47,14,6
7170,25,-259,-77,-49,15,8
7175,22,-259,-76,-49,14,7
7180,24,-258,-74,-47,15,7
7185,22,-259,-77,-47,15,8
7190,22,-257,-77,-49,16,7
7195,23,-260,-76,-49,16,7
7200,32,-262,-72,-47,16,7
7205,21,-258,-74,-44,15,7
7210,20,-258,-74,-42,16,7
7215,24,-262,-77,-39,14,6
7220,24,-259,-76,-39,13,6
7225,23,-258,-75,-40,13,7
7230,24,-260,-73,-40,14,8
7235,21,-258,-75,-40,13,9
7240,20,-258,-76,-43,15,9
7245,19,-258,-75,-43,14,9
7250,22,-257,-76,-44,16,10
7255,17,-259,-73,-43,15,9
7260,25,-263,-74,-45,16,8
7265,24,-256,-73,-46,19,8
7270,20,-259,-78,-46,19,8
7275,24,-259,-78,-44,18,8
7280,23,-257,-76,-44,18,7
7285,22,-258,-75,-44,19,8
7290,23,-258,-75,-43,17,7
7295,24,-258,-69,-44,16,8
7300,24,-260,-75,-44,16,8
7305,25,-259,-72,-45,16,6
7310,24,-257,-70,-44,17,8
7315,23,-260,-76,-47,16,9
7320,23,-260,-76,-49,16,9
7325,23,-258,-76,-48,15,8
7330,23,-260,-70,-48,15,8
7335,24,-260,-78,-47,14,8
7340,20,-260,-76,-47,14,8
7345,21,-259,-77,-46,14,9
7350,21,-260,-75,-47,14,8
7355,24,-260,-73,-49,13,6
7360,22,-258,-76,-49,12,7
7365,25,-259,-75,-50,11,7
7370,24,-257,-72,-50,10,7
7375,20,-260,-73,-48,11,7
7380,20,-259,-77,-49,12,8
7385,23,-260,-76,-49,13,9
7390,23,-262,-77,-48,14,8
7395,20,-258,-78,-48,16,8
7400,22,-261,-75,-48,17,9
7405,20,-261,-75,-47,17,9
7410,24,-259,-79,-46,18,8
7415,21,-261,-77,-47,19,6
7420,24,-259,-73,-49,20,7
7425,21,-261,-81,-50,20,7
7430,21,-259,-74,-50,20,5
7435,24,-259,-73,-50,19,5
7440,21,-259,-76,-50,19,5
7445,22,-258,-74,-51,20,5
7450,22,-259,-75,-50,18,5
7455,23,-260,-74,-52,20,4
7460,24,-258,-77,-53,19,4
7465,22,-258,-73,-53,17,5
7470,26,-261,-80,-56,17,5
7475,25,-260,-73,-57,17,5
7480,22,-258,-77,-58,16,5
7485,24,-261,-72,-58,18,6
7490,24,-260,-72,-61,18,7
7495,24,-261,-72,-61,19,6
7500,22,-259,-76,-63,21,6
7505,23,-262,-77,-64,22,7
7510,24,-260,-78,-66,20,9
7515,25,-260,-75,-65,21,9
7520,24,-261,-74,-64,20,9
7525,25,-257,-76,-64,21,9
7530,19,-259,-78,-61,23,7
7535,24,-256,-78,-59,23,7
7540,23,-261,-76,-55,25,6
7545,22,-259,-75,-55,26,3
7550,21,-260,-75,-52,27,3
7555,21,-259,-72,-51,28,3
7560,20,-258,-75,-49,31,3
7565,19,-257,-74,-51,31,3
7570,19,-259,-74,-51,29,4
7575,18,-258,-70,-52,30,5
7580,29,-263,-77,-53,28,5
7585,18,-258,-71,-51,27,6
7590,18,-262,-72,-46,28,3
7595,22,-261,-76,-42,26,1
7600,21,-258,-72,-37,27,-2
7605,19,-259,-71,-33,29,-5
7610,18,-257,-75,-32,30,-7
7615,21,-259,-77,-28,30,-11
7620,23,-257,-69,-31,31,-12
7625,23,-257,-73,-33,31,-16
7630,24,-256,-72,-39,30,-17
7635,23,-248,-73,-42,28,-22
7640,22,-257,-74,-47,28,-23
7645,27,-259,-78,-60,26,-24
7650,22,-259,-77,-71,27,-28
7655,21,-259,-79,-80,29,-32
7660,19,-260,-76,-83,28,-34
7665,23,-264,-76,-83,28,-34
7670,19,-266,-76,-86,28,-36
7675,16,-265,-77,-85,29,-37
7680,18,-265,-76,-86,28,-37
7685,20,-267,-74,-82,30,-36
7690,21,-267,-79,-77,28,-35
7695,19,-266,-84,-66,28,-35
7700,19,-267,-76,-56,26,-32
7705,15,-265,-79,-42,22,-30
7710,16,-265,-80,-30,20,-28
7715,19,-266,-81,-17,16,-26
7720,16,-260,-78,-5,12,-21
7725,18,-262,-79,4,8,-20
7730,23,-263,-76,12,5,-15
7735,17,-262,-80,22,6,-15
7740,21,-262,-79,29,7,-11
7745,16,-263,-83,31,6,-9
7750,21,-260,-75,26,5,-4
7755,22,-262,-79,21,3,2
7760,23,-262,-75,16,4,8
7765,22,-261,-78,18,4,11
7770,21,-262,-72,17,5,17
7775,24,-260,-71,18,4,21
7780,22,-262,-74,14,1,29
7785,17,-260,-74,11,-1,34
7790,22,-256,-72,9,-3,39
7795,24,-259,-72,4,-2,44
7800,24,-257,-75,-1,-2,49
7805,24,-257,-77,-13,-3,56
7810,23,-258,-73,-24,-5,59
7815,23,-257,-74,-30,-6,61
7820,27,-258,-74,-33,-8,64
7825,26,-258,-76,-33,-10,65
7830,27,-258,-71,-28,-9,69
7835,28,-261,-80,-22,-9,71
7840,27,-255,-85,-18,-8,72
7845,29,-256,-80,-15,-12,73
7850,29,-257,-80,-18,-14,73
7855,26,-258,-78,-17,-15,73
7860,26,-261,-80,-14,-15,74
7865,31,-261,-76,-9,-15,78
7870,34,-261,-79,-3,-13,79
7875,28,-262,-75,3,-12,82
7880,29,-261,-79,7,-7,84
7885,30,-259,-75,14,-5,85
7890,32,-257,-71,18,-3,89
7895,30,-261,-66,20,-4,89
7900,29,-262,-70,21,-2,94
7905,29,-257,-68,18,2,96
7910,23,-257,-71,13,7,96
7915,25,-259,-74,11,14,98
7920,25,-259,-73,9,21,95
7925,24,-258,-71,5,29,94
7930,20,-255,-71,2,32,91
7935,19,-259,-70,-5,39,88
7940,17,-260,-67,-7,41,88
7945,21,-263,-71,-8,37,91
7950,12,-264,-67,-9,32,95
7955,16,-262,-69,-8,27,101
7960,10,-261,-71,-9,21,106
7965,14,-261,-65,-13,14,113
7970,15,-259,-73,-21,5,119
7975,13,-259,-70,-28,-5,125
7980,9,-258,-67,-31,-12,132
7985,12,-258,-69,-23,-16,137
7990,9,-257,-71,-10,-14,142
7995,12,-259,-71,5,-16,145
8000,9,-257,-74,13,-17,145
8005,7,-258,-79,17,-16,143
8010,14,-261,-79,16,-12,141
8015,8,-258,-77,15,-5,136
8020,11,-260,-75,11,-1,131
8025,9,-260,-74,8,2,128
8030,12,-263,-75,5,3,128
8035,10,-265,-77,2,-1,127
8040,12,-265,-75,0,1,130
8045,15,-269,-77,5,10,134
8050,15,-267,-78,11,28,136
8055,8,-271,-68,10,51,140
8060,9,-274,-66,31,61,145
8065,9,-273,-60,74,51,151
8070,15,-266,-66,128,44,154
8075,9,-270,-67,186,48,162
8080,7,-269,-67,239,60,164
8085,10,-264,-71,275,72,167
8090,10,-262,-74,287,79,171
8095,10,-261,-80,288,81,174
8100,12,-257,-87,272,82,175
8105,13,-262,-65,218,96,183
8110,13,-265,-64,200,85,192
8115,17,-271,-60,232,55,200
8120,19,-267,-67,268,39,212
8125,24,-259,-74,292,44,218
8130,27,-261,-75,295,58,222
8135,18,-257,-82,264,77,216
8140,19,-264,-62,198,98,225
8145,22,-268,-61,201,78,230
8150,26,-271,-62,250,50,234
8155,23,-265,-65,317,43,234
8160,21,-258,-66,366,49,232
8165,19,-259,-64,393,58,230
8170,22,-260,-63,410,62,229
8175,14,-258,-73,409,62,222
8180,13,-257,-63,403,63,216
8185,14,-256,-61,396,63,219
8190,14,-251,-64,385,69,222
8195,3,-241,-63,342,84,226
8200,11,-247,-52,277,97,242
8205,9,-247,-50,239,79,247
8210,9,-243,-51,215,63,247
8215,11,-243,-52,192,58,251
8220,8,-243,-55,168,60,253
8225,7,-244,-43,143,68,255
8230,5,-240,-50,120,69,256
8235,8,-242,-49,92,74,254
8240,13,-242,-49,58,80,248
8245,9,-243,-48,21,85,244
8250,8,-247,-48,-4,86,246
8255,3,-252,-46,-14,85,247
8260,3,-253,-53,-19,83,252
8265,1,-255,-49,-15,80,259
8270,5,-256,-47,-2,78,272
8275,2,-260,-49,12,76,275
8280,1,-258,-47,21,75,268
8285,6,-258,-50,20,77,270
8290,0,-257,-48,4,82,273
8295,4,-257,-49,-21,92,280
8300,2,-259,-49,-50,107,275
8305,1,-258,-48,-72,121,267
8310,0,-257,-50,-90,132,260
8315,1,-260,-54,-103,136,250
8320,1,-259,-62,-116,143,241
8325,1,-255,-63,-127,150,228
8330,-5,-253,-64,-141,158,211
8335,-8,-252,-64,-157,167,203
8340,-11,-251,-56,-178,173,192
8345,-16,-245,-58,-207,177,182
8350,-14,-244,-54,-237,184,173
8355,-16,-244,-55,-259,195,164
8360,-18,-238,-54,-280,206,155
8365,-12,-239,-51,-304,213,150
8370,-7,-239,-52,-328,218,144
8375,-6,-241,-47,-350,219,138
8380,-3,-241,-48,-372,210,131
8385,-1,-242,-41,-388,197,126
8390,-1,-240,-47,-399,186,125
8395,3,-241,-50,-418,182,126
8400,0,-244,-47,-440,187,124
8405,1,-245,-54,-470,198,115
8410,0,-250,-55,-499,211,104
8415,-3,-257,-62,-525,225,88
8420,-2,-260,-61,-544,246,78
8425,-10,-260,-59,-554,265,70
8430,-4,-264,-66,-554,276,64
8435,-1,-271,-74,-553,280,61
8440,-6,-269,-76,-551,276,63
8445,-5,-274,-75,-551,266,67
8450,-6,-270,-71,-555,259,71
8455,0,-272,-71,-552,257,81
8460,-3,-271,-77,-546,263,86
8465,-3,-269,-71,-536,272,93
8470,-2,-264,-72,-529,280,98
8475,-2,-261,-75,-522,285,103
8480,-2,-257,-71,-513,289,106
8485,2,-256,-77,-507,289,112
8490,0,-256,-75,-502,286,112
8495,-1,-253,-81,-500,286,110
8500,1,-250,-75,-511,290,113
8505,2,-251,-70,-526,292,117
8510,1,-251,-71,-533,285,123
8515,0,-250,-69,-534,269,130
8520,-1,-251,-77,-528,245,133
8525,1,-252,-78,-528,228,151
8530,0,-252,-76,-534,225,167
8535,0,-254,-77,-543,218,181
8540,-3,-258,-77,-556,211,194
8545,-4,-263,-73,-570,210,201
8550,-3,-262,-82,-577,206,209
8555,-22,-262,-89,-573,204,213
8560,-13,-262,-85,-566,215,228
8565,-14,-260,-84,-561,224,237
8570,-12,-265,-84,-547,228,236
8575,-17,-263,-85,-522,237,228
8580,-14,-263,-82,-500,255,229
8585,-13,-262,-81,-482,273,224
8590,-12,-266,-80,-465,291,217
8595,-10,-264,-80,-448,304,212
8600,-8,-258,-82,-429,315,210
8605,-15,-257,-81,-415,326,209
8610,-9,-256,-79,-413,331,213
8615,-9,-260,-85,-417,333,218
8620,-12,-256,-83,-424,330,222
8625,-12,-254,-83,-434,327,230
8630,-10,-254,-86,-441,323,237
8635,-15,-252,-88,-449,325,244
8640,-17,-254,-87,-462,330,250
8645,-19,-251,-93,-476,329,253
8650,-19,-249,-94,-486,328,257
8655,-15,-249,-89,-495,326,261
8660,-16,-249,-94,-505,317,264
8665,-14,-253,-84,-518,307,267
8670,-19,-253,-95,-524,293,269
8675,-20,-252,-97,-538,279,273
8680,-18,-252,-97,-554,272,281
8685,-17,-251,-95,-576,273,287
8690,-15,-249,-94,-600,270,292
8695,-18,-249,-102,-628,266,302
8700,-17,-253,-97,-658,269,314
8705,-16,-255,-102,-684,273,321
8710,-14,-250,-101,-708,272,322
8715,-14,-254,-103,-734,271,325
8720,-17,-254,-97,-763,269,322
8725,-15,-254,-103,-788,262,320
8730,-18,-250,-99,-812,255,322
8735,-14,-253,-107,-834,251,326
8740,-17,-254,-103,-858,248,331
8745,-16,-256,-101,-887,240,333
8750,-19,-256,-114,-906,228,340
8755,-19,-258,-117,-918,225,353
8760,-23,-255,-120,-912,220,362
8765,-23,-256,-129,-899,218,366
8770,-30,-254,-123,-892,224,363
8775,-37,-253,-118,-893,230,349
8780,-30,-257,-118,-887,243,332
8785,-36,-255,-123,-877,270,320
8790,-37,-255,-122,-862,295,304
8795,-32,-254,-115,-848,325,289
8800,-38,-255,-109,-820,351,278
8805,-38,-255,-105,-789,377,262
8810,-40,-251,-108,-776,389,269
8815,-40,-251,-102,-793,399,269
8820,-38,-248,-106,-811,416,265
8825,-41,-250,-94,-849,438,275
8830,-58,-241,-91,-880,464,277
8835,-53,-250,-83,-896,489,268
8840,-82,-245,-115,-835,501,239
8845,-86,-240,-123,-831,522,224
8850,-83,-240,-139,-854,528,180
8855,-82,-242,-147,-868,577,113
8860,-82,-249,-159,-860,623,40
8865,-75,-256,-173,-833,673,-33
8870,-72,-259,-184,-775,721,-90
8875,-61,-261,-191,-716,767,-142
8880,-63,-259,-183,-678,798,-175
8885,-48,-263,-191,-585,769,-194
8890,-56,-263,-187,-549,748,-187
8895,-48,-272,-184,-555,712,-163
8900,-50,-282,-181,-583,646,-115
8905,-56,-286,-179,-576,585,-52
8910,-51,-282,-173,-533,523,13
8915,-54,-285,-188,-452,471,82
8920,-52,-281,-187,-382,421,145
8925,-53,-278,-189,-319,385,195
8930,-57,-274,-192,-274,364,233
8935,-39,-276,-197,-252,348,267
8940,-55,-273,-197,-244,341,284
8945,-43,-281,-198,-213,342,292
8950,-48,-294,-196,-130,367,280
8955,-49,-276,-209,28,398,258
8960,-71,-263,-209,170,415,223
8965,-76,-259,-205,306,443,191
8970,-16,-281,-192,402,460,172
8975,-49,-305,-161,471,462,121
8980,-41,-281,-191,666,428,97
8985,-50,-272,-206,862,404,82
8990,-40,-239,-221,966,454,79
8995,-56,-223,-224,875,501,83
9000,-43,-256,-170,623,461,87
9005,-41,-270,-187,438,380,92
9010,-34,-267,-197,401,320,111
9015,-27,-256,-215,416,309,144
9020,-32,-258,-201,384,340,154
9025,-35,-257,-198,334,352,147
9030,-31,-257,-200,288,336,152
9035,-32,-260,-194,256,320,149
9040,-34,-255,-195,226,309,151
9045,-32,-253,-197,204,302,150
9050,-44,-244,-189,194,308,153
9055,-40,-243,-188,186,319,159
9060,-40,-237,-188,172,331,158
9065,-45,-235,-188,144,346,154
9070,-49,-234,-188,112,367,156
9075,-53,-236,-183,78,378,155
9080,-48,-234,-187,56,383,151
9085,-54,-236,-177,49,384,147
9090,-58,-235,-181,54,389,144
9095,-61,-236,-176,66,394,140
9100,-57,-236,-179,75,395,143
9105,-64,-236,-180,79,391,146
9110,-61,-235,-182,72,374,144
9115,-55,-232,-183,57,360,144
9120,-51,-235,-174,27,356,148
9125,-45,-241,-168,0,355,152
9130,-38,-243,-166,-9,350,159
9135,-43,-243,-158,-16,350,168
9140,-31,-250,-155,-7,350,186
9145,-39,-243,-150,11,341,199
9150,-38,-239,-144,22,334,214
9155,-39,-226,-156,33,330,231
9160,-35,-229,-147,28,336,247
9165,-36,-226,-151,6,346,264
9170,-36,-223,-153,-28,362,278
9175,-43,-221,-158,-63,378,290
9180,-45,-225,-159,-89,392,296
9185,-49,-226,-163,-108,401,293
9190,-45,-230,-159,-118,408,293
9195,-38,-235,-162,-106,413,289
9200,-35,-235,-154,-87,415,284
9205,-30,-233,-160,-62,413,276
9210,-28,-235,-158,-45,406,259
9215,-20,-240,-152,-43,399,236
9220,-19,-239,-155,-59,394,213
9225,-14,-238,-150,-87,396,195
9230,-24,-238,-151,-117,401,182
9235,-22,-239,-153,-136,407,182
9240,-28,-235,-142,-136,408,185
9245,-30,-234,-147,-119,403,190
9250,-35,-234,-146,-96,395,198
9255,-26,-233,-152,-79,398,205
9260,-28,-234,-145,-62,412,212
9265,-27,-242,-151,-47,429,205
9270,-28,-243,-152,-50,448,172
9275,-21,-247,-153,-60,462,131
9280,-18,-247,-152,-66,483,93
9285,-16,-247,-152,-61,512,55
9290,-16,-243,-154,-51,538,29
9295,-15,-240,-156,-39,560,10
9300,-19,-238,-158,-42,582,-9
9305,-22,-233,-154,-76,602,-34
9310,-22,-229,-151,-132,613,-59
9315,-31,-222,-153,-202,621,-80
9320,-28,-221,-155,-271,633,-92
9325,-19,-225,-151,-321,646,-106
9330,-24,-227,-138,-337,649,-132
9335,-29,-226,-137,-328,649,-153
9340,-31,-227,-141,-313,652,-168
9345,-43,-211,-142,-305,666,-183
9350,-42,-204,-143,-303,701,-179
9355,-41,-192,-148,-309,742,-170
9360,-43,-184,-153,-328,773,-161
9365,-35,-174,-160,-370,782,-146
9370,-35,-164,-157,-434,777,-119
9375,-27,-160,-159,-507,756,-85
9380,-30,-153,-154,-568,729,-41
9385,-26,-149,-151,-602,701,9
9390,-23,-145,-145,-614,675,56
9395,-20,-146,-139,-614,653,94
9400,-12,-161,-139,-618,632,118
9405,-11,-178,-136,-616,616,134
9410,-10,-196,-136,-595,606,149
9415,-11,-217,-135,-544,595,155
9420,-7,-230,-139,-458,585,155
9425,-10,-236,-130,-362,576,157
9430,-7,-223,-134,-273,571,172
9435,-5,-218,-133,-215,573,194
9440,-3,-210,-132,-204,576,210
9445,-4,-206,-134,-244,576,219
9450,-9,-208,-138,-316,568,227
9455,-14,-215,-140,-393,555,229
9460,-22,-220,-144,-449,544,227
9465,-21,-224,-145,-479,544,220
9470,-31,-219,-156,-488,551,214
9475,-35,-209,-162,-480,563,205
9480,-37,-198,-169,-479,577,196
9485,-39,-190,-177,-496,594,184
9490,-38,-185,-178,-525,605,170
9495,-36,-177,-174,-559,602,155
9500,-36,-180,-170,-589,587,144
9505,-32,-174,-169,-615,564,142
9510,-34,-175,-161,-625,536,143
9515,-29,-176,-157,-623,505,147
9520,-31,-171,-160,-608,476,156
9525,-32,-168,-162,-586,451,169
9530,-26,-165,-164,-563,434,182
9535,-28,-164,-166,-544,426,192
9540,-24,-171,-175,-534,423,202
9545,-22,-168,-181,-522,419,213
9550,-19,-166,-180,-510,414,230
9555,-12,-168,-175,-499,402,259
9560,-5,-164,-173,-492,390,293
9565,-2,-164,-166,-489,377,327
9570,0,-164,-168,-495,371,357
9575,2,-160,-172,-510,385,381
9580,1,-161,-177,-525,417,401
9585,4,-162,-176,-543,461,408
9590,1,-160,-166,-558,511,410
9595,-1,-161,-176,-566,555,411
9600,-5,-163,-179,-560,583,418
9605,-8,-160,-179,-543,595,426
9610,-16,-158,-182,-534,593,436
9615,-13,-149,-191,-542,591,442
9620,-13,-144,-197,-570,588,451
9625,-10,-140,-198,-611,586,452
9630,-8,-146,-192,-656,583,451
9635,-2,-152,-192,-695,575,444
9640,1,-157,-181,-730,562,431
9645,10,-168,-172,-750,556,409
9650,0,-177,-167,-755,567,382
9655,-8,-188,-164,-749,599,348
9660,-5,-204,-174,-728,644,307
9665,-19,-211,-187,-711,700,239
9670,-34,-208,-206,-708,773,171
9675,-45,-206,-228,-730,854,120
9680,-61,-197,-257,-773,932,107
9685,-65,-188,-273,-849,990,113
9690,-66,-185,-291,-976,1010,140
9695,-68,-189,-287,-1143,975,190
9700,-82,-213,-260,-1320,870,245
9705,-78,-223,-239,-1451,683,297
9710,-52,-235,-236,-1471,476,381
9715,-32,-248,-229,-1382,327,467
9720,-19,-242,-226,-1235,227,540
9725,-11,-226,-223,-1088,153,606
9730,-4,-213,-224,-969,97,664
9735,-5,-196,-215,-904,50,714
9740,-8,-184,-215,-890,21,757
9745,-11,-171,-207,-888,19,781
9750,-14,-162,-204,-896,40,789
9755,-16,-154,-202,-913,82,777
9760,-18,-145,-213,-941,148,754
9765,-20,-140,-221,-968,237,716
9770,-23,-133,-235,-1001,316,669
9775,-41,-129,-246,-1028,423,630
9780,-45,-129,-250,-1050,527,599
9785,-58,-124,-261,-1088,604,556
9790,-65,-127,-264,-1139,654,519
9795,-74,-127,-269,-1180,701,494
9800,-73,-133,-277,-1199,740,470
9805,-90,-143,-274,-1208,768,441
9810,-82,-156,-270,-1206,773,417
9815,-57,-167,-279,-1189,756,399
9820,-59,-178,-273,-1165,747,380
9825,-42,-186,-271,-1124,766,352
9830,-35,-197,-266,-1062,787,324
9835,-34,-199,-257,-1004,785,315
9840,-21,-209,-248,-937,764,321
9845,-9,-214,-242,-873,719,326
9850,-4,-211,-239,-832,675,330
9855,5,-218,-244,-814,651,332
9860,7,-218,-239,-811,637,334
9865,7,-215,-244,-805,640,331
9870,2,-206,-247,-780,652,322
9875,9,-204,-250,-756,654,321
9880,-3,-195,-249,-732,650,316
9885,-4,-195,-254,-704,627,327
9890,3,-186,-258,-665,599,322
9895,14,-183,-254,-624,577,324
9900,16,-183,-258,-586,551,321
9905,11,-175,-253,-547,517,323
9910,19,-179,-255,-514,469,335
9915,12,-169,-260,-491,430,340
9920,7,-168,-270,-479,411,343
9925,3,-165,-271,-467,414,335
9930,17,-164,-277,-446,412,324
9935,8,-160,-273,-434,411,299
9940,13,-162,-268,-421,412,280
9945,5,-158,-263,-406,412,259
9950,7,-158,-262,-393,411,239
9955,7,-165,-265,-382,402,220
9960,3,-168,-261,-369,389,205
9965,1,-173,-265,-355,365,195
9970,1,-175,-266,-334,338,187
9975,7,-185,-262,-306,315,180
9980,13,-188,-264,-271,295,176
9985,18,-190,-258,-232,276,170
9990,24,-192,-261,-186,260,168
9995,26,-193,-266,-135,241,166
10000,29,-191,-262,-89,222,166
10005,32,-193,-261,-49,205,163
10010,32,-190,-266,-12,191,159
10015,30,-185,-258,19,186,152
10020,24,-180,-265,46,186,147
10025,21,-178,-259,66,185,140
10030,20,-172,-257,90,179,138
10035,22,-176,-263,116,163,136
10040,20,-176,-265,143,143,133
10045,14,-174,-261,170,117,131
10050,12,-177,-259,198,86,130
10055,12,-179,-258,227,54,131
10060,14,-181,-256,258,23,132
10065,14,-185,-255,298,-6,136
10070,11,-186,-255,346,-37,138
10075,19,-188,-259,397,-64,143
10080,14,-186,-257,439,-84,149
10085,11,-183,-262,467,-95,153
10090,12,-178,-262,489,-97,155
10095,10,-178,-256,507,-99,159
10100,12,-181,-258,526,-102,159
10105,11,-175,-257,545,-111,159
10110,16,-174,-258,560,-122,155
10115,19,-177,-261,574,-132,152
10120,17,-181,-254,590,-143,145
10125,17,-179,-251,609,-152,136
10130,14,-177,-253,636,-156,126
10135,18,-182,-254,671,-154,114
10140,16,-179,-255,705,-152,100
10145,13,-175,-255,729,-148,91
10150,14,-180,-251,750,-134,79
10155,13,-177,-251,764,-126,62
10160,15,-179,-250,774,-117,49
10165,12,-177,-250,778,-105,37
10170,14,-177,-253,784,-99,33
10175,10,-179,-250,788,-102,22
10180,11,-185,-252,790,-107,17
10185,10,-176,-252,787,-108,13
10190,3,-190,-254,786,-109,9
10195,9,-188,-251,786,-112,-1
10200,4,-189,-248,792,-117,-1
10205,6,-192,-242,803,-121,0
10210,3,-193,-240,815,-131,3
10215,5,-196,-243,831,-141,8
10220,7,-198,-241,851,-146,12
10225,8,-199,-238,876,-144,17
10230,9,-197,-236,901,-141,25
10235,16,-198,-238,923,-142,30
10240,12,-197,-240,936,-142,30
10245,17,-202,-231,941,-143,31
10250,21,-202,-230,944,-143,31
10255,20,-204,-227,945,-143,28
10260,17,-207,-226,950,-141,22
10265,17,-213,-222,953,-135,14
10270,14,-215,-212,962,-131,6
10275,17,-215,-218,972,-127,-4
10280,18,-216,-215,981,-117,-11
10285,13,-217,-219,993,-100,-13
10290,11,-217,-216,1004,-84,-16
10295,13,-218,-209,1011,-77,-25
10300,12,-210,-219,1016,-67,-32
10305,13,-210,-216,1020,-51,-32
10310,13,-206,-214,1018,-34,-30
10315,12,-207,-216,1008,-19,-34
10320,13,-207,-217,982,-5,-43
10325,9,-207,-215,948,-1,-64
10330,9,-208,-207,917,-5,-75
10335,5,-208,-209,883,-18,-82
10340,6,-209,-210,848,-32,-97
10345,6,-213,-206,818,-41,-106
10350,1,-216,-209,791,-43,-112
10355,0,-214,-204,762,-39,-125
10360,4,-216,-202,731,-34,-132
10365,11,-217,-204,704,-26,-130
10370,2,-219,-199,680,-9,-121
10375,13,-221,-200,658,11,-108
10380,-8,-224,-194,628,30,-111
10385,-20,-224,-193,588,44,-131
10390,-9,-219,-185,541,34,-161
10395,-9,-219,-187,496,12,-189
10400,-1,-219,-187,459,-8,-199
10405,-6,-209,-180,436,-19,-199
10410,1,-213,-186,426,-17,-193
10415,-5,-217,-180,424,-9,-190
10420,-5,-213,-184,433,6,-186
10425,-3,-213,-185,443,11,-174
10430,-7,-213,-180,455,6,-169
10435,-3,-213,-179,468,-1,-161
10440,0,-214,-178,475,-12,-152
10445,-7,-208,-182,479,-17,-137
10450,-5,-214,-178,486,-15,-107
10455,-6,-213,-180,480,-14,-78
10460,-3,-214,-181,463,-7,-53
10465,6,-214,-178,440,-12,-54
10470,1,-210,-179,420,-16,-66
10475,0,-214,-174,401,-9,-52
10480,-9,-212,-173,388,9,-44
10485,-4,-215,-171,379,17,-42
10490,0,-214,-168,370,18,-39
10495,0,-214,-167,360,15,-44
10500,-1,-219,-166,348,8,-55
10505,-1,-212,-169,340,3,-68
10510,-2,-215,-172,338,4,-76
10515,-6,-213,-165,338,9,-82
10520,-11,-216,-166,337,15,-68
10525,-10,-220,-166,340,21,-54
10530,-6,-220,-170,340,20,-53
10535,-2,-217,-169,334,15,-68
10540,-5,-214,-167,325,9,-86
10545,4,-212,-164,319,5,-93
10550,0,-213,-168,312,2,-94
10555,-3,-212,-165,297,3,-94
10560,0,-211,-164,288,1,-84
10565,1,-208,-168,287,-3,-80
10570,-6,-210,-166,293,-12,-76
10575,-24,-210,-167,304,-9,-76
10580,-11,-206,-167,324,0,-53
10585,-4,-207,-170,344,-5,-23
10590,-7,-208,-168,365,-17,-23
10595,-1,-207,-169,380,-30,-30
10600,4,-205,-172,383,-41,-23
10605,10,-202,-169,384,-47,-19
10610,8,-212,-171,393,-47,-42
10615,-7,-208,-173,405,-46,-67
10620,-15,-202,-178,414,-48,-71
10625,-12,-203,-171,421,-61,-47
10630,-1,-204,-171,431,-78,-21
10635,-15,-202,-174,436,-93,-6
10640,7,-206,-170,430,-96,11
10645,21,-206,-167,413,-114,11
10650,17,-211,-168,386,-135,-1
10655,17,-208,-166,365,-141,-15
10660,6,-208,-162,366,-129,-30
10665,6,-207,-162,394,-107,-47
10670,1,-200,-160,444,-87,-74
10675,6,-198,-159,488,-79,-80
10680,6,-196,-160,512,-84,-71
10685,20,-202,-158,520,-96,-75
10690,11,-194,-158,521,-111,-111
10695,9,-196,-160,523,-114,-141
10700,6,-193,-158,529,-113,-154
10705,0,-195,-162,531,-112,-163
10710,1,-193,-158,531,-115,-160
10715,-4,-193,-158,524,-124,-156
10720,-3,-193,-161,514,-134,-151
10725,2,-194,-161,497,-141,-141
10730,1,-198,-160,479,-144,-125
10735,1,-195,-161,469,-142,-110
10740,3,-198,-161,459,-140,-93
10745,8,-194,-161,461,-133,-88
10750,11,-193,-157,461,-128,-100
10755,5,-190,-162,459,-119,-117
10760,12,-193,-161,460,-108,-125
10765,7,-191,-160,453,-97,-141
10770,10,-191,-165,442,-90,-151
10775,6,-194,-162,421,-84,-157
10780,13,-197,-165,391,-79,-167
10785,15,-192,-164,355,-71,-183
10790,25,-203,-165,316,-64,-193
10795,24,-200,-165,279,-50,-205
10800,24,-197,-160,264,-23,-189
10805,-9,-208,-152,295,7,-135
10810,9,-207,-141,326,16,-116
10815,-42,-222,-148,326,7,-132
10820,-23,-210,-138,286,-15,-159
10825,-12,-219,-143,272,-70,-138
10830,-3,-223,-142,293,-112,-124
10835,0,-217,-151,316,-137,-138
10840,3,-217,-153,342,-143,-146
10845,1,-220,-151,370,-137,-150
10850,1,-214,-155,396,-126,-152
10855,1,-214,-153,415,-118,-150
10860,4,-211,-152,424,-113,-146
10865,2,-211,-149,413,-114,-146
10870,3,-212,-147,390,-119,-145
10875,1,-214,-148,358,-129,-149
10880,3,-214,-148,328,-136,-150
10885,2,-217,-151,298,-141,-151
10890,0,-224,-143,278,-143,-155
10895,1,-221,-138,268,-139,-163
10900,0,-224,-145,266,-134,-169
10905,-2,-224,-144,270,-128,-173
10910,-1,-225,-143,274,-124,-177
10915,0,-228,-141,277,-120,-178
10920,-3,-225,-143,279,-119,-180
10925,-3,-222,-148,274,-119,-179
10930,-6,-225,-145,267,-125,-171
10935,-4,-228,-147,257,-132,-167
10940,-7,-227,-152,244,-142,-160
10945,-8,-227,-149,232,-148,-147
10950,-3,-226,-152,224,-154,-134
10955,0,-231,-148,210,-162,-124
10960,6,-236,-148,189,-176,-108
10965,13,-240,-147,162,-190,-96
10970,14,-245,-146,146,-199,-96
10975,12,-245,-142,149,-197,-102
10980,14,-250,-140,170,-187,-110
10985,14,-248,-142,203,-171,-118
10990,12,-249,-139,243,-157,-126
10995,9,-242,-138,286,-144,-135
11000,5,-237,-135,322,-133,-142
11005,7,-234,-134,345,-125,-148
11010,6,-231,-136,350,-122,-149
11015,5,-226,-138,341,-122,-149
11020,8,-227,-142,322,-126,-150
11025,7,-226,-137,293,-132,-150
11030,6,-227,-137,261,-139,-149
11035,6,-231,-139,230,-142,-149
11040,8,-230,-141,205,-143,-152
11045,5,-234,-138,193,-142,-152
11050,10,-237,-134,192,-141,-153
11055,8,-237,-130,204,-139,-153
11060,4,-238,-135,217,-138,-157
11065,1,-234,-134,233,-135,-162
11070,1,-234,-133,249,-135,-163
11075,1,-234,-131,259,-132,-164
11080,0,-231,-133,263,-134,-163
11085,0,-228,-132,256,-139,-160
11090,-2,-228,-133,245,-146,-155
11095,-7,-231,-136,226,-152,-151
11100,0,-233,-134,209,-158,-142
11105,-6,-231,-134,190,-161,-138
11110,-6,-231,-141,174,-157,-134
11115,-6,-231,-136,164,-150,-132
11120,-10,-235,-139,164,-143,-121
11125,-13,-234,-141,166,-132,-105
11130,0,-239,-138,172,-123,-88
11135,1,-242,-141,145,-135,-74
11140,5,-244,-138,112,-150,-64
11145,6,-252,-138,89,-157,-56
11150,4,-252,-135,80,-157,-59
11155,-1,-252,-131,94,-148,-73
11160,6,-254,-132,125,-136,-78
11165,11,-253,-131,145,-133,-74
11170,2,-248,-128,170,-129,-78
11175,3,-241,-128,200,-122,-80
11180,6,-240,-129,222,-118,-84
11185,11,-237,-128,225,-127,-84
11190,14,-235,-128,217,-143,-82
11195,13,-233,-130,200,-158,-87
11200,12,-228,-128,186,-164,-93
11205,11,-226,-127,180,-161,-96
11210,6,-222,-126,179,-151,-93
11215,9,-224,-128,177,-143,-91
11220,9,-229,-125,169,-135,-89
11225,7,-222,-127,156,-130,-83
11230,4,-225,-129,139,-127,-80
11235,7,-228,-128,120,-125,-76
11240,5,-228,-126,98,-124,-72
11245,5,-232,-120,80,-128,-67
11250,1,-236,-126,66,-130,-64
11255,2,-236,-127,62,-130,-62
11260,-1,-238,-120,68,-127,-61
11265,1,-236,-120,80,-124,-59
11270,-2,-240,-120,91,-124,-58
11275,-2,-238,-118,97,-122,-56
11280,-3,-237,-120,100,-124,-53
11285,-1,-240,-120,95,-126,-50
11290,0,-238,-118,86,-128,-48
11295,-2,-239,-121,72,-129,-44
11300,-2,-241,-114,57,-131,-41
11305,1,-244,-117,39,-131,-36
11310,1,-246,-117,23,-131,-33
11315,4,-256,-116,8,-130,-30
11320,4,-255,-114,-4,-130,-30
11325,5,-257,-113,-10,-129,-30
11330,9,-262,-116,-6,-125,-33
11335,7,-268,-114,0,-124,-36
11340,10,-272,-106,15,-123,-39
11345,7,-268,-107,36,-121,-42
11350,9,-274,-109,59,-119,-44
11355,13,-272,-108,81,-120,-47
11360,14,-272,-107,97,-123,-51
11365,9,-271,-106,110,-127,-51
11370,12,-269,-106,119,-131,-52
11375,15,-270,-106,124,-136,-54
11380,11,-267,-108,124,-141,-53
11385,17,-278,-103,120,-148,-54
11390,14,-266,-104,116,-152,-53
11395,10,-265,-104,112,-154,-52
11400,10,-264,-98,112,-155,-53
11405,13,-261,-102,117,-155,-52
11410,11,-262,-99,123,-153,-54
11415,11,-256,-102,127,-148,-55
11420,14,-256,-97,129,-146,-55
11425,12,-252,-97,123,-143,-58
11430,15,-256,-101,115,-143,-56
11435,10,-243,-91,106,-143,-57
11440,11,-252,-101,94,-145,-57
11445,15,-248,-103,84,-147,-55
11450,13,-248,-102,74,-149,-55
11455,14,-249,-102,65,-151,-54
11460,12,-248,-104,54,-151,-52
11465,14,-247,-107,41,-150,-51
11470,16,-246,-103,28,-147,-47
11475,15,-247,-115,15,-142,-46
11480,16,-246,-105,4,-135,-46
11485,14,-247,-110,-5,-125,-48
11490,19,-247,-112,-6,-115,-47
11495,18,-246,-108,-6,-106,-48
11500,15,-244,-111,-4,-94,-49
11505,15,-245,-103,-2,-85,-48
11510,14,-245,-107,-3,-78,-48
11515,18,-243,-108,-4,-72,-46
11520,16,-244,-107,-8,-65,-45
11525,12,-244,-109,-14,-59,-43
11530,14,-243,-113,-23,-53,-41
11535,18,-248,-112,-35,-44,-39
11540,16,-252,-111,-45,-38,-36
11545,18,-252,-115,-54,-33,-33
11550,14,-253,-110,-61,-27,-31
11555,19,-253,-112,-62,-24,-28
11560,17,-256,-110,-58,-22,-25
11565,16,-255,-113,-52,-22,-25
11570,14,-256,-107,-45,-22,-26
11575,13,-256,-102,-38,-26,-25
11580,14,-255,-107,-36,-30,-23
11585,17,-254,-103,-38,-33,-23
11590,15,-255,-112,-42,-37,-23
11595,17,-253,-108,-44,-40,-23
11600,16,-247,-109,-48,-41,-22
11605,14,-247,-105,-53,-43,-21
11610,16,-250,-110,-60,-44,-22
11615,18,-249,-113,-68,-46,-22
11620,15,-247,-116,-81,-47,-21
11625,19,-251,-111,-92,-51,-19
11630,15,-249,-112,-107,-52,-21
11635,17,-254,-116,-118,-53,-19
11640,14,-254,-114,-123,-54,-17
11645,17,-255,-116,-121,-51,-18
11650,17,-255,-110,-116,-45,-19
11655,18,-252,-110,-106,-37,-18
11660,15,-252,-112,-94,-29,-15
11665,19,-249,-111,-83,-21,-14
11670,16,-246,-110,-77,-14,-13
11675,19,-243,-106,-72,-8,-11
11680,17,-245,-109,-75,-4,-9
11685,16,-248,-107,-80,2,-8
11690,17,-241,-107,-84,5,-7
11695,14,-245,-106,-93,8,-7
11700,21,-243,-106,-100,14,-5
11705,20,-245,-108,-110,19,-5
11710,15,-246,-106,-121,22,-5
11715,15,-243,-108,-132,28,-3
11720,17,-248,-109,-140,35,-4
11725,17,-249,-106,-145,41,-2
11730,14,-249,-108,-150,48,-2
11735,18,-253,-113,-155,55,-1
11740,13,-253,-111,-157,61,1
11745,14,-255,-112,-160,66,3
11750,13,-259,-116,-162,69,6
11755,16,-259,-114,-169,69,8
11760,13,-258,-113,-172,68,11
11765,14,-263,-111,-176,60,13
11770,12,-264,-113,-177,54,17
11775,13,-267,-112,-174,48,19
11780,14,-266,-114,-167,44,19
11785,12,-264,-110,-157,44,21
11790,13,-261,-110,-149,47,22
11795,16,-262,-109,-141,51,22
11800,13,-259,-105,-132,56,24
11805,10,-253,-109,-125,63,22
11810,11,-251,-104,-124,69,22
11815,15,-248,-110,-124,75,20
11820,15,-248,-102,-129,83,19
11825,18,-243,-98,-138,90,15
11830,19,-247,-97,-151,95,11
11835,16,-246,-94,-164,96,6
11840,19,-249,-96,-175,93,1
11845,21,-253,-97,-179,87,-4
11850,19,-251,-98,-179,81,-7
11855,17,-254,-105,-167,72,-10
11860,20,-259,-110,-152,65,-13
11865,18,-263,-119,-135,57,-13
11870,12,-253,-112,-118,52,-13
11875,17,-260,-120,-105,49,-11
11880,15,-258,-119,-95,52,-9
11885,15,-259,-119,-90,59,-7
11890,15,-255,-118,-87,67,-5
11895,13,-255,-117,-89,77,-3
11900,14,-255,-118,-95,86,-1
11905,12,-257,-118,-101,95,0
11910,15,-252,-110,-108,103,1
11915,16,-257,-110,-111,110,2
11920,15,-254,-106,-115,118,1
11925,17,-255,-109,-118,122,0
11930,17,-256,-106,-120,127,1
11935,13,-257,-103,-121,129,0
11940,13,-257,-106,-121,132,-1
11945,11,-256,-108,-120,131,-1
11950,11,-255,-109,-117,130,-2
11955,13,-257,-112,-113,130,-3
11960,8,-256,-110,-110,132,-1
11965,12,-256,-113,-105,132,-2
11970,11,-256,-116,-101,131,-1
11975,10,-254,-114,-95,128,-1
11980,9,-261,-116,-91,126,0
11985,11,-252,-114,-89,120,1
11990,12,-255,-116,-88,117,2
11995,11,-252,-116,-91,115,1
