timestamp,acc_x,acc_y,acc_z,gyro_x,gyro_y,gyro_z
0,36,-235,62,30,10,-13
5,36,-237,64,27,11,-13
10,32,-237,66,25,14,-13
15,33,-241,65,24,15,-13
20,33,-237,67,23,16,-13
25,37,-238,65,23,18,-14
30,34,-239,66,22,19,-14
35,34,-240,67,24,18,-13
40,39,-239,60,28,18,-11
45,36,-239,61,31,15,-9
50,33,-239,61,35,12,-10
55,34,-238,63,37,10,-8
60,37,-237,63,36,7,-7
65,37,-238,63,36,3,-6
70,36,-239,66,35,2,-6
75,39,-241,60,33,1,-5
80,36,-240,66,30,1,-5
85,33,-238,63,29,3,-5
90,35,-244,64,28,6,-5
95,36,-237,63,31,11,-5
100,35,-243,67,34,14,-6
105,36,-240,63,40,19,-8
110,36,-242,66,47,23,-9
115,36,-239,64,53,23,-11
120,37,-238,61,60,25,-11
125,35,-240,63,67,26,-13
130,36,-239,64,72,23,-13
135,35,-237,63,73,22,-13
140,36,-237,61,71,20,-14
145,33,-237,64,69,18,-14
150,35,-236,61,65,17,-13
155,34,-237,65,59,17,-16
160,35,-238,64,53,16,-14
165,34,-231,62,50,14,-14
170,32,-237,62,47,13,-13
175,32,-236,67,46,13,-13
180,33,-233,51,45,14,-12
185,37,-239,63,45,14,-12
190,36,-239,63,49,14,-13
195,37,-237,61,53,13,-13
200,35,-235,59,56,11,-10
205,35,-239,63,58,9,-11
210,34,-234,61,63,5,-11
215,32,-239,61,67,0,-10
220,33,-241,61,74,-4,-11
225,34,-239,63,81,-13,-12
230,34,-239,58,89,-20,-17
235,33,-241,62,101,-28,-19
240,42,-244,61,112,-38,-20
245,36,-240,58,125,-44,-22
250,35,-246,62,140,-55,-23
255,35,-240,62,157,-61,-23
260,35,-242,64,172,-69,-21
265,37,-247,62,190,-77,-21
270,38,-248,64,210,-84,-18
275,32,-246,62,232,-92,-14
280,36,-246,63,249,-100,-5
285,42,-244,62,263,-105,1
290,39,-242,64,281,-105,6
295,44,-242,62,295,-99,12
300,45,-240,64,301,-90,17
305,44,-242,63,296,-77,19
310,44,-239,61,285,-60,19
315,44,-240,61,263,-48,30
320,48,-235,63,234,-33,45
325,49,-239,65,204,-18,56
330,48,-239,62,185,-7,60
335,48,-238,62,171,5,65
340,45,-236,62,146,21,63
345,52,-236,64,124,32,64
350,47,-235,57,118,34,67
355,44,-235,64,120,25,63
360,41,-237,60,123,12,65
365,39,-238,64,126,0,66
370,36,-237,65,127,-11,63
375,39,-239,65,132,-20,57
380,33,-235,65,137,-27,45
385,35,-236,68,134,-28,38
390,31,-239,66,127,-25,30
395,31,-239,68,117,-18,25
400,28,-235,65,113,-8,18
405,30,-236,65,115,0,10
410,31,-237,65,120,10,1
415,29,-237,68,123,15,-7
420,29,-237,69,125,15,-11
425,28,-236,70,123,13,-13
430,32,-232,68,119,8,-11
435,32,-229,69,113,-1,-5
440,32,-228,66,107,-11,2
445,32,-229,71,100,-24,8
450,33,-231,70,94,-36,17
455,35,-230,70,83,-48,26
460,32,-233,67,73,-59,39
465,34,-230,69,56,-71,46
470,37,-232,66,41,-82,53
475,35,-230,71,25,-92,59
480,32,-230,68,11,-102,64
485,33,-229,68,-1,-113,68
490,34,-231,69,-11,-123,71
495,35,-232,67,-19,-133,71
500,34,-233,65,-26,-142,70
505,36,-231,66,-32,-150,69
510,33,-233,70,-37,-157,67
515,32,-233,68,-39,-162,65
520,33,-234,69,-39,-167,62
525,31,-233,70,-35,-170,60
530,33,-235,67,-33,-175,57
535,29,-232,64,-29,-179,56
540,31,-236,68,-25,-183,54
545,29,-234,65,-20,-187,54
550,34,-232,67,-16,-189,51
555,34,-238,67,-15,-189,50
560,36,-235,85,-17,-186,52
565,37,-230,65,-21,-182,54
570,34,-234,65,-24,-179,51
575,35,-239,67,-25,-178,47
580,34,-237,67,-22,-181,45
585,34,-235,64,-16,-187,44
590,33,-237,65,-11,-197,46
595,31,-234,67,-9,-208,47
600,34,-236,64,-11,-220,51
605,31,-236,66,-14,-232,54
610,33,-236,67,-19,-244,57
615,29,-234,72,-26,-256,61
620,27,-234,66,-33,-266,64
625,25,-232,71,-42,-278,65
630,27,-231,68,-52,-287,68
635,22,-230,70,-60,-296,66
640,21,-229,68,-71,-302,63
645,19,-226,70,-81,-305,61
650,20,-231,69,-93,-303,55
655,18,-232,68,-103,-300,51
660,20,-227,68,-112,-294,47
665,21,-233,67,-122,-289,42
670,21,-231,65,-130,-283,37
675,24,-233,70,-134,-277,31
680,26,-233,61,-135,-270,27
685,24,-237,63,-134,-267,24
690,23,-235,66,-132,-268,22
695,27,-237,64,-131,-272,20
700,29,-239,62,-125,-278,22
705,29,-238,65,-121,-289,24
710,29,-239,64,-119,-300,27
715,29,-239,69,-117,-311,32
720,28,-243,66,-115,-319,35
725,31,-240,64,-113,-322,38
730,30,-242,65,-109,-324,44
735,30,-245,65,-104,-325,48
740,29,-242,65,-97,-326,51
745,28,-246,62,-87,-324,52
750,31,-247,66,-75,-320,52
755,31,-246,58,-65,-315,50
760,32,-247,64,-52,-310,52
765,31,-244,64,-42,-304,52
770,28,-246,60,-33,-298,52
775,29,-245,61,-23,-291,49
780,29,-244,61,-13,-285,48
785,29,-241,57,-6,-282,47
790,30,-245,59,1,-276,47
795,32,-246,59,7,-271,46
800,31,-241,55,13,-266,44
805,33,-245,56,17,-261,43
810,33,-240,53,18,-255,43
815,35,-241,57,20,-249,42
820,34,-241,55,21,-244,38
825,33,-238,53,21,-238,37
830,35,-236,55,19,-230,37
835,35,-241,52,16,-222,37
840,39,-240,57,11,-217,34
845,37,-241,54,6,-211,30
850,35,-239,56,-1,-206,30
855,36,-237,56,-9,-203,29
860,36,-240,55,-17,-201,26
865,37,-242,51,-25,-201,26
870,30,-244,45,-32,-200,27
875,38,-244,48,-38,-199,28
880,33,-239,51,-45,-198,27
885,36,-242,52,-48,-196,29
890,33,-243,49,-52,-197,29
895,34,-236,46,-55,-197,30
900,33,-240,43,-59,-196,31
905,32,-240,48,-63,-195,33
910,33,-238,47,-70,-194,35
915,30,-237,47,-78,-190,36
920,29,-238,44,-87,-186,36
925,28,-241,45,-95,-181,37
930,30,-240,42,-100,-175,36
935,28,-238,44,-103,-168,36
940,27,-238,39,-103,-165,32
945,28,-239,43,-103,-164,32
950,28,-241,41,-103,-164,31
955,29,-236,41,-108,-163,33
960,33,-241,38,-114,-163,33
965,31,-242,37,-123,-163,36
970,32,-240,37,-130,-161,35
975,31,-237,33,-140,-163,38
980,33,-237,35,-150,-163,40
985,33,-235,35,-158,-161,42
990,33,-236,37,-167,-160,46
995,27,-245,32,-178,-160,49
1000,33,-238,30,-188,-160,47
1005,34,-235,33,-197,-161,47
1010,37,-235,35,-209,-162,47
1015,37,-240,35,-220,-164,48
1020,36,-237,31,-231,-163,47
1025,35,-239,39,-239,-161,46
1030,34,-237,37,-247,-159,47
1035,35,-239,33,-251,-156,47
1040,37,-238,41,-255,-151,49
1045,35,-239,37,-255,-148,50
1050,35,-236,33,-256,-144,51
1055,35,-237,37,-258,-141,50
1060,37,-239,35,-258,-138,51
1065,36,-239,36,-259,-136,51
1070,37,-241,34,-261,-134,45
1075,36,-238,34,-265,-131,44
1080,34,-239,36,-270,-128,42
1085,35,-237,37,-273,-125,40
1090,36,-237,36,-278,-123,37
1095,39,-240,35,-283,-123,37
1100,39,-243,33,-289,-121,35
1105,38,-246,36,-290,-121,33
1110,36,-241,34,-289,-120,30
1115,41,-245,36,-285,-119,29
1120,38,-248,35,-278,-117,29
1125,42,-248,35,-269,-112,27
1130,41,-247,35,-258,-107,25
1135,38,-251,32,-248,-100,21
1140,40,-250,33,-238,-93,17
1145,42,-252,31,-230,-84,13
1150,41,-253,32,-223,-77,8
1155,38,-253,35,-213,-70,4
1160,39,-252,32,-205,-61,-2
1165,39,-251,32,-196,-51,-8
1170,42,-250,29,-191,-43,-10
1175,39,-251,30,-185,-37,-13
1180,38,-253,29,-180,-29,-14
1185,36,-252,35,-177,-24,-13
1190,36,-249,29,-173,-20,-12
1195,34,-250,29,-171,-15,-9
1200,33,-249,31,-167,-13,-7
1205,28,-245,32,-165,-13,-1
1210,31,-246,28,-164,-14,0
1215,29,-245,24,-161,-17,0
1220,30,-246,28,-157,-18,1
1225,29,-248,31,-155,-19,2
1230,30,-242,27,-147,-18,-2
1235,28,-244,27,-139,-15,-2
1240,28,-244,25,-132,-9,-8
1245,27,-244,22,-128,1,-13
1250,31,-244,23,-127,12,-20
1255,28,-245,21,-129,28,-25
1260,31,-245,23,-131,44,-30
1265,29,-243,22,-135,63,-38
1270,33,-242,20,-142,82,-45
1275,29,-240,22,-149,101,-51
1280,29,-244,21,-155,117,-58
1285,32,-241,22,-164,132,-62
1290,32,-244,19,-169,144,-66
1295,32,-245,18,-176,155,-70
1300,31,-244,17,-180,160,-72
1305,31,-243,17,-184,165,-76
1310,33,-242,14,-186,167,-75
1315,32,-243,15,-189,167,-74
1320,31,-246,13,-192,167,-74
1325,32,-243,17,-196,169,-73
1330,32,-241,12,-197,169,-76
1335,35,-244,13,-197,171,-77
1340,31,-240,13,-196,173,-79
1345,32,-242,12,-196,176,-79
1350,31,-239,9,-198,178,-80
1355,33,-237,11,-201,183,-83
1360,29,-239,14,-205,189,-85
1365,32,-235,8,-212,194,-85
1370,31,-235,13,-220,201,-85
1375,27,-237,18,-230,206,-84
1380,34,-234,10,-241,212,-85
1385,33,-233,7,-249,218,-85
1390,34,-235,10,-261,225,-83
1395,35,-235,7,-269,230,-81
1400,34,-231,5,-277,236,-77
1405,34,-235,7,-285,242,-75
1410,36,-231,4,-294,247,-72
1415,39,-231,9,-304,250,-68
1420,37,-234,3,-315,253,-65
1425,40,-232,8,-327,257,-61
1430,36,-233,3,-340,259,-54
1435,28,-231,8,-353,262,-48
1440,42,-232,4,-368,261,-44
1445,37,-234,4,-379,260,-41
1450,37,-229,9,-389,258,-38
1455,39,-232,7,-397,253,-36
1460,36,-230,2,-403,250,-36
1465,36,-232,2,-411,246,-36
1470,36,-237,2,-418,241,-31
1475,34,-237,5,-422,238,-29
1480,32,-239,3,-426,234,-23
1485,34,-236,4,-424,227,-22
1490,32,-236,3,-416,219,-26
1495,32,-234,1,-418,210,-20
1500,33,-238,3,-422,202,-6
1505,34,-236,0,-424,190,8
1510,31,-236,-2,-426,180,18
1515,29,-231,0,-427,166,29
1520,30,-234,1,-430,153,40
1525,28,-233,0,-433,138,50
1530,32,-231,0,-435,124,57
1535,30,-234,6,-437,109,63
1540,29,-235,-1,-434,99,65
1545,27,-235,-4,-431,89,72
1550,29,-240,-1,-425,81,72
1555,30,-237,-1,-415,75,73
1560,28,-238,-2,-405,71,75
1565,32,-241,-1,-393,67,74
1570,35,-241,-5,-383,63,72
1575,33,-241,-5,-376,57,72
1580,34,-241,-9,-371,53,67
1585,40,-243,-8,-369,50,62
1590,37,-242,-5,-366,46,59
1595,38,-244,-9,-364,47,54
1600,41,-241,-8,-363,45,53
1605,41,-244,-10,-365,43,52
1610,41,-243,-11,-369,42,47
1615,41,-242,-8,-371,42,41
1620,43,-244,-11,-372,45,36
1625,44,-247,-11,-370,45,31
1630,41,-244,-9,-364,47,25
1635,44,-245,-12,-355,49,17
1640,46,-249,-10,-350,52,12
1645,45,-247,-13,-346,53,5
1650,42,-249,-12,-345,56,4
1655,44,-246,-16,-342,60,2
1660,42,-248,-15,-340,64,-2
1665,44,-245,-17,-336,69,-5
1670,39,-246,-15,-333,72,-5
1675,40,-241,-14,-329,74,-6
1680,41,-244,-20,-328,76,-4
1685,37,-240,-18,-328,75,-2
1690,37,-242,-19,-333,76,1
1695,37,-241,-20,-337,76,3
1700,36,-234,-19,-342,74,6
1705,37,-235,-18,-347,74,9
1710,37,-234,-23,-356,74,11
1715,36,-235,-21,-366,76,16
1720,34,-235,-22,-375,76,18
1725,34,-236,-28,-383,76,18
1730,35,-234,-25,-392,75,21
1735,32,-234,-27,-397,73,18
1740,31,-237,-32,-401,71,18
1745,31,-237,-26,-405,67,17
1750,29,-239,-29,-408,62,16
1755,29,-234,-32,-412,56,16
1760,26,-241,-34,-413,52,14
1765,28,-239,-33,-413,47,13
1770,30,-244,-33,-412,44,16
1775,26,-244,-30,-413,38,17
1780,32,-247,-30,-413,33,19
1785,32,-244,-33,-411,28,26
1790,31,-245,-34,-408,24,30
1795,32,-245,-32,-404,19,35
1800,27,-246,-36,-399,12,38
1805,34,-247,-35,-396,6,43
1810,30,-247,-36,-393,-1,46
1815,36,-248,-37,-392,-6,49
1820,34,-247,-38,-391,-10,50
1825,36,-246,-39,-393,-11,50
1830,33,-247,-45,-395,-10,47
1835,34,-249,-46,-395,-9,43
1840,35,-246,-43,-397,-9,37
1845,34,-243,-43,-395,-7,32
1850,33,-243,-38,-390,-6,28
1855,35,-243,-45,-379,-6,21
1860,30,-243,-49,-369,-8,13
1865,25,-245,-54,-362,-8,18
1870,34,-244,-45,-355,-10,25
1875,33,-241,-44,-348,-12,30
1880,32,-239,-45,-343,-12,34
1885,32,-239,-44,-341,-16,34
1890,32,-236,-46,-345,-18,35
1895,32,-237,-50,-349,-22,35
1900,32,-238,-49,-355,-24,37
1905,33,-236,-48,-360,-26,36
1910,32,-238,-50,-366,-25,35
1915,36,-239,-55,-371,-22,33
1920,39,-238,-57,-375,-17,29
1925,34,-240,-58,-378,-11,26
1930,36,-240,-56,-383,-4,22
1935,35,-236,-57,-386,5,18
1940,37,-239,-55,-389,13,10
1945,39,-238,-56,-388,21,5
1950,36,-237,-59,-387,29,0
1955,37,-236,-55,-383,35,-5
1960,32,-237,-54,-376,38,-8
1965,33,-237,-56,-370,40,-10
1970,34,-236,-59,-365,41,-8
1975,31,-233,-50,-358,43,-8
1980,36,-233,-55,-349,41,-6
1985,31,-231,-54,-342,38,0
1990,34,-234,-53,-332,34,7
1995,33,-232,-56,-323,28,10
2000,32,-232,-55,-315,23,14
2005,31,-230,-57,-310,16,18
2010,33,-230,-59,-312,10,22
2015,30,-232,-64,-311,5,26
2020,30,-232,-62,-313,-2,27
2025,28,-235,-63,-316,-9,29
2030,27,-235,-64,-315,-16,27
2035,27,-234,-62,-312,-19,26
2040,27,-237,-60,-309,-21,26
2045,27,-237,-64,-306,-25,28
2050,25,-235,-62,-303,-27,28
2055,27,-234,-61,-298,-31,30
2060,24,-234,-63,-287,-31,33
2065,26,-233,-61,-275,-32,37
2070,23,-232,-56,-260,-31,40
2075,22,-232,-59,-242,-32,42
2080,23,-234,-59,-229,-36,46
2085,27,-233,-59,-213,-40,50
2090,28,-230,-58,-191,-44,48
2095,27,-228,-58,-168,-48,46
2100,27,-229,-59,-154,-51,49
2105,32,-225,-57,-138,-56,48
2110,27,-230,-60,-119,-58,42
2115,27,-228,-66,-100,-58,39
2120,30,-229,-64,-93,-57,36
2125,32,-227,-68,-83,-53,31
2130,33,-228,-67,-73,-49,22
2135,38,-223,-71,-66,-44,12
2140,27,-226,-72,-68,-40,9
2145,31,-226,-70,-82,-35,4
2150,31,-231,-70,-98,-29,0
2155,31,-230,-70,-107,-19,-8
2160,29,-225,-60,-108,-11,-18
2165,27,-227,-70,-81,4,-33
2170,28,-228,-82,-83,5,-40
2175,36,-234,-80,-123,4,-39
2180,30,-234,-87,-166,2,-41
2185,32,-245,-82,-246,2,-43
2190,31,-243,-84,-312,7,-49
2195,27,-242,-85,-353,12,-55
2200,29,-242,-80,-380,16,-58
2205,29,-244,-74,-394,21,-59
2210,26,-244,-78,-390,25,-60
2215,26,-241,-78,-381,30,-59
2220,26,-239,-76,-360,34,-62
2225,21,-237,-78,-330,38,-67
2230,21,-234,-76,-307,40,-68
2235,22,-234,-77,-302,38,-60
2240,18,-235,-80,-302,39,-55
2245,22,-231,-78,-307,39,-49
2250,21,-228,-80,-309,42,-52
2255,19,-231,-84,-321,48,-51
2260,18,-228,-81,-344,53,-47
2265,23,-227,-79,-366,57,-47
2270,16,-227,-85,-390,62,-45
2275,24,-224,-80,-413,64,-41
2280,21,-221,-82,-423,70,-44
2285,20,-223,-86,-432,73,-47
2290,21,-222,-80,-438,74,-49
2295,21,-223,-84,-449,76,-46
2300,20,-225,-81,-455,75,-45
2305,18,-222,-89,-458,77,-46
2310,23,-223,-84,-464,77,-45
2315,18,-222,-88,-455,82,-51
2320,21,-223,-92,-448,85,-58
2325,18,-223,-96,-449,87,-61
2330,20,-226,-91,-455,89,-60
2335,20,-226,-95,-457,92,-65
2340,19,-224,-96,-456,97,-71
2345,18,-223,-89,-463,103,-76
2350,21,-224,-91,-469,105,-84
2355,15,-225,-96,-482,105,-90
2360,19,-222,-94,-496,101,-89
2365,20,-225,-92,-508,99,-85
2370,18,-224,-97,-520,97,-82
2375,16,-223,-93,-524,97,-81
2380,16,-224,-91,-527,95,-75
2385,17,-222,-95,-521,93,-69
2390,19,-222,-91,-510,87,-64
2395,17,-218,-92,-498,83,-61
2400,15,-220,-100,-492,76,-57
2405,15,-220,-94,-490,68,-53
2410,13,-218,-98,-491,56,-46
2415,11,-218,-98,-494,41,-35
2420,10,-216,-97,-487,30,-18
2425,11,-212,-98,-482,19,-4
2430,11,-215,-97,-478,11,4
2435,14,-215,-95,-474,2,12
2440,14,-215,-99,-470,-4,18
2445,16,-210,-96,-451,-7,19
2450,15,-212,-103,-437,-5,19
2455,21,-212,-106,-442,-10,25
2460,18,-208,-106,-451,-15,28
2465,25,-213,-103,-455,-19,34
2470,27,-214,-109,-446,-17,31
2475,27,-210,-114,-445,-12,21
2480,28,-214,-117,-453,-14,17
2485,33,-213,-113,-460,-15,12
2490,34,-213,-107,-447,-15,0
2495,29,-212,-120,-414,-12,-19
2500,29,-216,-118,-399,-15,-23
2505,28,-217,-116,-402,-24,-21
2510,32,-222,-120,-397,-29,-24
2515,29,-216,-114,-389,-34,-23
2520,33,-216,-105,-370,-34,-25
2525,25,-211,-116,-357,-34,-24
2530,26,-214,-121,-366,-36,-15
2535,29,-209,-123,-374,-38,-7
2540,32,-209,-119,-393,-48,-6
2545,33,-208,-123,-410,-52,-3
2550,33,-206,-122,-433,-52,4
2555,33,-208,-125,-454,-52,6
2560,36,-199,-107,-466,-49,3
2565,33,-195,-127,-436,-38,-20
2570,27,-202,-132,-448,-38,-33
2575,37,-197,-133,-498,-43,-25
2580,33,-195,-146,-559,-58,-41
2585,30,-201,-140,-692,-89,-59
2590,34,-211,-130,-831,-114,-47
2595,35,-215,-130,-888,-116,-28
2600,35,-220,-124,-905,-112,-11
2605,40,-216,-120,-889,-96,12
2610,31,-217,-124,-851,-74,24
2615,36,-213,-128,-819,-62,33
2620,33,-214,-132,-782,-46,39
2625,33,-212,-132,-747,-38,46
2630,28,-212,-139,-711,-36,51
2635,32,-211,-131,-667,-33,52
2640,36,-213,-139,-625,-28,52
2645,33,-209,-138,-592,-24,50
2650,32,-211,-140,-566,-17,49
2655,31,-206,-141,-533,-8,43
2660,32,-203,-143,-511,1,41
2665,33,-200,-142,-495,10,42
2670,34,-202,-139,-487,19,44
2675,32,-196,-142,-484,26,43
2680,30,-193,-140,-484,32,45
2685,29,-196,-140,-484,36,46
2690,27,-197,-144,-493,34,46
2695,24,-195,-138,-504,29,44
2700,24,-194,-142,-514,25,37
2705,25,-193,-142,-520,24,34
2710,25,-193,-143,-527,18,34
2715,27,-195,-146,-534,9,25
2720,29,-194,-148,-540,5,25
2725,26,-193,-146,-539,8,29
2730,31,-194,-150,-533,15,30
2735,32,-198,-152,-527,21,33
2740,36,-200,-147,-525,19,26
2745,33,-207,-160,-518,19,20
2750,31,-195,-154,-506,22,14
2755,31,-201,-150,-491,24,7
2760,31,-201,-155,-473,28,-1
2765,31,-201,-161,-452,32,-10
2770,33,-197,-157,-434,32,-20
2775,29,-198,-161,-415,35,-26
2780,30,-198,-160,-397,39,-30
2785,28,-195,-166,-380,40,-30
2790,33,-195,-164,-361,39,-30
2795,31,-194,-162,-341,36,-28
2800,34,-197,-163,-317,33,-31
2805,34,-199,-165,-287,32,-32
2810,33,-200,-164,-257,32,-38
2815,32,-199,-165,-228,29,-41
2820,30,-196,-168,-200,29,-44
2825,32,-197,-164,-175,31,-45
2830,33,-195,-166,-154,29,-45
2835,34,-194,-166,-135,30,-50
2840,33,-196,-169,-118,30,-52
2845,32,-190,-166,-99,30,-57
2850,28,-192,-169,-80,29,-57
2855,31,-192,-168,-62,28,-57
2860,28,-186,-166,-52,30,-52
2865,33,-185,-167,-45,32,-47
2870,30,-183,-165,-42,31,-46
2875,30,-181,-163,-44,30,-45
2880,28,-177,-162,-48,30,-45
2885,30,-177,-162,-51,30,-41
2890,30,-179,-156,-57,30,-37
2895,34,-167,-163,-63,31,-33
2900,26,-178,-156,-76,34,-27
2905,33,-177,-158,-90,35,-20
2910,34,-175,-156,-104,37,-19
2915,33,-174,-159,-125,41,-22
2920,28,-177,-157,-145,43,-23
2925,29,-176,-156,-166,44,-24
2930,30,-176,-161,-180,42,-21
2935,32,-176,-159,-197,46,-23
2940,28,-185,-162,-205,49,-30
2945,29,-179,-162,-208,49,-35
2950,32,-182,-163,-195,44,-36
2955,32,-179,-160,-178,41,-37
2960,32,-185,-166,-161,43,-32
2965,29,-184,-168,-146,46,-35
2970,30,-184,-164,-134,50,-34
2975,33,-186,-168,-124,52,-34
2980,27,-183,-167,-112,51,-27
2985,30,-184,-178,-99,51,-25
2990,29,-184,-173,-92,55,-28
2995,33,-182,-170,-79,56,-22
3000,31,-181,-167,-63,58,-15
3005,32,-182,-170,-43,58,-3
3010,30,-184,-167,-23,58,-1
3015,29,-182,-170,3,53,-6
3020,30,-182,-166,24,48,-12
3025,26,-183,-161,42,42,-19
3030,32,-181,-170,61,35,-26
3035,30,-184,-165,74,32,-32
3040,30,-182,-166,82,31,-31
3045,33,-182,-163,87,30,-31
3050,35,-183,-168,94,29,-26
3055,35,-180,-167,102,29,-28
3060,37,-178,-163,107,33,-34
3065,37,-179,-174,110,37,-39
3070,37,-177,-167,116,39,-42
3075,42,-176,-167,128,36,-40
3080,43,-173,-174,137,36,-41
3085,40,-174,-170,134,43,-48
3090,41,-175,-166,138,46,-47
3095,42,-179,-161,147,47,-43
3100,38,-178,-161,155,51,-36
3105,38,-179,-163,164,55,-42
3110,39,-174,-161,176,60,-51
3115,37,-177,-159,186,59,-61
3120,32,-177,-154,192,61,-65
3125,34,-173,-154,192,63,-67
3130,37,-175,-156,190,60,-66
3135,36,-176,-153,187,61,-62
3140,35,-174,-158,180,63,-59
3145,36,-171,-156,177,64,-60
3150,35,-169,-161,178,58,-59
3155,33,-170,-160,168,60,-60
3160,38,-167,-161,156,58,-62
3165,37,-167,-155,143,60,-60
3170,37,-169,-157,129,61,-61
3175,38,-171,-163,125,56,-62
3180,41,-174,-164,120,58,-63
3185,40,-172,-156,114,65,-60
3190,39,-173,-160,112,66,-46
3195,39,-171,-164,113,71,-50
3200,34,-172,-164,108,70,-51
3205,38,-173,-167,101,63,-47
3210,35,-178,-162,92,60,-41
3215,34,-177,-163,89,55,-31
3220,39,-180,-171,95,47,-28
3225,38,-180,-159,90,48,-36
3230,41,-179,-166,82,49,-39
3235,38,-183,-166,73,54,-33
3240,38,-181,-161,68,58,-33
3245,43,-178,-166,66,57,-30
3250,41,-183,-166,58,65,-30
3255,44,-181,-173,60,63,-28
3260,47,-182,-168,57,69,-31
3265,44,-184,-173,57,78,-31
3270,45,-187,-177,62,77,-29
3275,55,-189,-174,67,80,-25
3280,43,-187,-177,74,81,-26
3285,40,-187,-180,72,85,-29
3290,38,-187,-175,77,83,-27
3295,37,-188,-178,86,72,-21
3300,38,-185,-177,88,59,-27
3305,39,-185,-180,83,50,-29
3310,37,-182,-176,84,46,-27
3315,37,-188,-175,78,40,-20
3320,37,-187,-177,75,35,-27
3325,35,-185,-180,79,25,-34
3330,38,-188,-178,77,24,-36
3335,40,-184,-177,78,22,-40
3340,40,-186,-176,85,20,-42
3345,39,-187,-172,89,16,-42
3350,39,-190,-181,98,11,-41
3355,39,-188,-179,107,7,-45
3360,40,-187,-174,119,9,-45
3365,44,-188,-177,133,9,-41
3370,37,-189,-173,147,7,-28
3375,40,-188,-176,158,11,-36
3380,42,-191,-174,166,11,-39
3385,38,-189,-177,175,9,-34
3390,31,-180,-177,183,7,-33
3395,34,-189,-178,188,5,-30
3400,38,-186,-177,193,-1,-29
3405,38,-191,-178,197,-3,-25
3410,39,-192,-179,196,-7,-29
3415,33,-188,-178,196,-11,-28
3420,40,-189,-175,192,-14,-25
3425,38,-190,-171,187,-20,-23
3430,40,-194,-178,188,-27,-14
3435,38,-190,-176,188,-33,-8
3440,41,-190,-175,189,-35,-6
3445,40,-193,-172,192,-38,-3
3450,42,-194,-175,194,-41,1
3455,40,-197,-175,196,-37,4
3460,36,-193,-176,197,-42,16
3465,36,-196,-176,199,-37,12
3470,38,-195,-175,206,-37,3
3475,39,-196,-183,215,-40,1
3480,38,-197,-179,225,-41,4
3485,38,-202,-185,235,-43,9
3490,38,-198,-182,245,-47,14
3495,44,-201,-179,253,-46,19
3500,39,-207,-183,268,-49,22
3505,41,-208,-181,288,-47,22
3510,41,-208,-174,313,-41,18
3515,43,-208,-179,337,-30,12
3520,40,-210,-172,360,-20,9
3525,41,-212,-178,384,-9,11
3530,40,-211,-175,416,-2,14
3535,36,-206,-177,455,3,19
3540,37,-209,-179,496,6,23
3545,43,-208,-175,532,7,28
3550,37,-209,-175,562,5,27
3555,43,-212,-175,593,0,25
3560,40,-206,-175,634,-2,26
3565,41,-211,-173,684,-3,29
3570,44,-210,-171,740,-2,32
3575,43,-210,-167,790,-1,32
3580,42,-212,-169,833,1,32
3585,43,-206,-169,861,4,30
3590,41,-207,-166,879,7,29
3595,38,-200,-167,896,7,29
3600,37,-201,-161,912,9,28
3605,31,-197,-169,922,15,32
3610,42,-202,-163,935,19,33
3615,34,-198,-154,946,27,36
3620,33,-194,-156,952,31,38
3625,32,-194,-152,958,33,38
3630,33,-194,-148,959,37,43
3635,32,-196,-151,963,40,47
3640,27,-194,-151,972,42,48
3645,27,-194,-146,983,42,52
3650,27,-194,-145,995,43,54
3655,27,-192,-145,1008,40,54
3660,32,-192,-145,1015,39,53
3665,29,-190,-140,1023,38,56
3670,34,-191,-137,1030,37,60
3675,33,-190,-132,1038,40,64
3680,32,-192,-131,1045,45,65
3685,36,-191,-131,1064,50,67
3690,35,-198,-123,1101,57,68
3695,30,-195,-117,1165,64,67
3700,29,-202,-108,1242,78,69
3705,27,-212,-106,1327,93,71
3710,27,-220,-105,1410,104,75
3715,26,-230,-104,1472,115,73
3720,16,-234,-115,1514,126,72
3725,25,-254,-117,1544,142,68
3730,23,-268,-125,1577,154,65
3735,24,-282,-133,1610,165,58
3740,24,-300,-149,1633,171,59
3745,26,-320,-160,1636,172,64
3750,26,-334,-173,1619,172,70
3755,30,-351,-184,1597,172,71
3760,31,-357,-185,1579,169,75
3765,36,-359,-182,1590,158,80
3770,41,-341,-180,1642,152,94
3775,51,-324,-162,1714,154,106
3780,58,-303,-135,1798,157,118
3785,59,-284,-114,1881,160,126
3790,58,-263,-84,1935,153,131
3795,57,-240,-54,1930,135,124
3800,53,-223,-37,1848,116,115
3805,48,-206,-15,1694,96,97
3810,44,-199,-15,1486,74,79
3815,43,-189,-11,1248,65,68
3820,39,-190,-15,1011,59,58
3825,45,-190,-25,803,59,47
3830,39,-197,-33,640,65,34
3835,33,-197,-40,533,77,18
3840,33,-203,-50,478,96,6
3845,34,-205,-55,470,122,-6
3850,34,-209,-56,497,145,-16
3855,31,-211,-55,552,165,-20
3860,32,-219,-51,629,176,-25
3865,34,-222,-44,719,178,-28
3870,35,-227,-42,812,174,-32
3875,36,-230,-33,902,163,-34
3880,39,-237,-27,982,147,-34
3885,40,-240,-22,1050,131,-35
3890,40,-241,-20,1104,120,-37
3895,38,-243,-18,1148,109,-38
3900,37,-245,-19,1184,100,-40
3905,35,-243,-17,1209,95,-40
3910,33,-244,-17,1228,93,-37
3915,34,-245,-17,1243,90,-34
3920,31,-249,-22,1254,95,-28
3925,29,-248,-16,1263,105,-24
3930,30,-246,-17,1274,117,-21
3935,29,-251,-20,1284,130,-20
3940,30,-248,-18,1288,146,-20
3945,30,-247,-12,1287,163,-22
3950,30,-250,-18,1279,171,-25
3955,32,-250,-14,1261,172,-25
3960,32,-248,-14,1231,170,-23
3965,38,-246,-15,1193,166,-21
3970,35,-245,-10,1147,162,-20
3975,35,-242,-6,1094,155,-19
3980,38,-243,-7,1040,146,-15
3985,45,-232,-6,978,138,-14
3990,42,-238,-7,907,133,-16
3995,40,-237,-8,833,130,-18
4000,38,-237,-11,763,131,-23
4005,41,-241,-13,705,134,-25
4010,39,-239,-11,659,135,-27
4015,36,-239,-10,624,137,-26
4020,38,-237,-9,600,138,-27
4025,36,-239,-8,588,140,-27
4030,33,-236,-8,588,140,-25
4035,31,-240,-8,603,143,-24
4040,34,-245,-6,622,143,-23
4045,32,-235,-4,635,141,-19
4050,31,-235,-5,640,135,-20
4055,30,-238,-4,635,127,-23
4060,27,-231,-2,620,122,-24
4065,29,-233,2,594,111,-24
4070,29,-234,3,563,99,-26
4075,26,-235,3,525,89,-30
4080,29,-240,2,487,78,-32
4085,31,-241,3,444,66,-33
4090,33,-239,2,394,56,-32
4095,36,-239,2,339,48,-31
4100,37,-240,4,286,41,-29
4105,37,-242,4,239,37,-26
4110,40,-250,11,201,33,-26
4115,41,-250,10,170,30,-26
4120,42,-252,13,146,29,-26
4125,42,-252,13,130,28,-28
4130,44,-251,10,122,27,-32
4135,43,-256,10,124,28,-35
4140,42,-255,10,132,31,-36
4145,42,-256,6,143,33,-38
4150,42,-245,15,156,38,-39
4155,40,-251,6,164,44,-39
4160,36,-250,5,170,49,-42
4165,36,-246,5,169,52,-39
4170,37,-247,3,167,56,-39
4175,36,-249,3,162,60,-37
4180,34,-246,5,156,62,-35
4185,34,-246,6,151,63,-32
4190,33,-248,1,145,62,-29
4195,32,-244,3,140,58,-24
4200,31,-240,8,131,54,-21
4205,30,-242,4,122,48,-18
4210,31,-237,3,114,42,-17
4215,34,-237,2,104,36,-15
4220,30,-238,2,95,27,-18
4225,32,-237,5,85,20,-19
4230,29,-235,4,79,14,-18
4235,34,-238,4,72,9,-21
4240,31,-238,3,67,4,-18
4245,34,-240,4,65,-1,-19
4250,34,-239,7,62,-5,-19
4255,37,-244,5,60,-9,-21
4260,35,-242,3,53,-11,-20
4265,38,-244,4,48,-11,-24
4270,37,-241,6,40,-11,-22
4275,35,-243,4,31,-9,-24
4280,34,-242,3,23,-8,-27
4285,37,-244,1,16,-6,-30
4290,37,-247,-1,11,-5,-31
4295,33,-244,0,9,-3,-33
4300,34,-244,1,6,-3,-33
4305,34,-248,0,5,-2,-34
4310,35,-250,-1,9,-1,-34
4315,33,-251,0,11,-2,-33
4320,32,-248,-2,15,-5,-30
4325,33,-249,-4,20,-9,-25
4330,35,-249,-5,25,-14,-23
4335,33,-251,-3,30,-19,-18
4340,31,-248,-1,34,-23,-13
4345,33,-250,0,38,-29,-13
4350,35,-250,0,39,-33,-9
4355,36,-244,0,36,-36,-10
4360,33,-247,0,31,-42,-11
4365,37,-249,1,23,-42,-13
4370,35,-245,1,14,-45,-16
4375,37,-245,4,4,-45,-16
4380,39,-244,1,-4,-45,-18
4385,42,-246,-1,-10,-44,-18
4390,38,-246,-2,-14,-43,-17
4395,46,-245,0,-14,-41,-16
4400,46,-251,-3,-11,-39,-17
4405,47,-248,-7,-7,-39,-19
4410,43,-250,-5,-3,-37,-21
4415,59,-249,-14,1,-37,-24
4420,40,-248,-4,4,-36,-23
4425,42,-251,-6,5,-36,-25
4430,39,-247,-6,5,-35,-27
4435,39,-249,-3,2,-36,-29
4440,41,-248,-4,1,-35,-30
4445,38,-249,-4,0,-30,-30
4450,37,-247,-2,-2,-27,-29
4455,39,-247,-4,-2,-25,-29
4460,39,-248,-2,-2,-20,-30
4465,36,-235,-4,-1,-17,-27
4470,33,-248,0,1,-12,-26
4475,37,-247,-6,2,-10,-21
4480,38,-247,-8,5,-10,-20
4485,37,-248,-2,8,-5,-21
4490,35,-249,0,12,-3,-16
4495,38,-248,-6,14,0,-15
4500,35,-245,-4,16,3,-14
4505,36,-246,-6,15,8,-10
4510,33,-243,-8,13,9,-7
4515,35,-249,-3,12,13,-4
4520,37,-248,-7,10,16,-6
4525,34,-242,-6,11,19,-4
4530,38,-246,-7,14,21,-3
4535,37,-247,-6,17,27,-3
4540,37,-249,-2,21,30,-5
4545,32,-246,-3,26,35,-4
4550,36,-247,-8,30,41,-6
4555,38,-247,-1,34,45,-6
4560,37,-246,-5,36,50,-6
4565,37,-249,-4,39,52,-5
4570,35,-247,-7,43,56,-4
4575,37,-247,-3,44,59,-3
4580,29,-234,-1,50,60,-1
4585,36,-249,-10,52,60,1
4590,36,-245,-2,53,60,2
4595,36,-248,-4,53,61,2
4600,35,-248,-3,52,59,4
4605,36,-245,-7,51,58,3
4610,33,-248,-4,49,55,2
4615,31,-246,-2,48,52,1
4620,35,-246,-4,49,50,1
4625,34,-248,-2,50,49,-2
4630,34,-248,-5,52,48,-3
4635,34,-246,-2,55,46,-2
4640,34,-246,-2,56,46,-3
4645,36,-250,-3,58,44,-3
4650,37,-249,-2,60,43,-2
4655,34,-247,-2,63,42,-1
4660,33,-246,-1,64,39,2
4665,39,-247,-6,65,37,2
4670,36,-247,-1,64,35,1
4675,36,-247,-6,64,34,0
4680,35,-246,-5,62,31,2
4685,34,-249,2,62,29,1
4690,36,-247,-3,60,28,0
4695,36,-246,-6,59,26,0
4700,37,-248,0,60,24,0
4705,35,-246,-2,62,21,-2
4710,38,-246,-7,63,20,-4
4715,37,-248,-4,63,20,-5
4720,35,-246,-5,64,20,-7
4725,36,-246,-4,65,18,-8
4730,36,-242,0,66,17,-10
4735,39,-246,0,66,15,-9
4740,36,-246,-2,67,13,-11
4745,36,-244,-6,66,11,-10
4750,38,-248,-7,66,11,-10
4755,36,-249,-4,66,10,-10
4760,35,-248,-2,66,9,-8
4765,37,-249,-9,65,7,-8
4770,36,-248,-3,65,5,-7
4775,37,-246,1,65,3,-9
4780,34,-244,-1,65,3,-9
4785,39,-245,-5,66,1,-9
4790,33,-244,0,66,1,-13
4795,33,-244,-4,65,1,-12
4800,33,-244,0,63,1,-13
4805,37,-243,-3,62,2,-10
4810,35,-245,-1,61,3,-10
4815,34,-248,-1,62,2,-8
4820,32,-246,-2,63,4,-6
4825,35,-247,0,65,3,-5
4830,39,-247,0,68,4,-3
4835,35,-248,-3,72,6,-2
4840,37,-248,-3,76,6,-1
4845,38,-248,-2,75,5,-1
4850,33,-249,-4,73,4,-1
4855,37,-244,-2,70,5,-1
4860,35,-247,-1,69,6,-2
4865,36,-246,-6,70,5,-1
4870,37,-249,-3,72,5,-3
4875,38,-245,-4,74,5,-4
4880,36,-247,0,74,6,-4
4885,35,-246,-2,73,4,-6
4890,36,-246,-5,72,3,-7
4895,39,-252,8,75,4,-7
4900,40,-246,-2,76,5,-7
4905,35,-247,-2,78,5,-7
4910,37,-250,0,80,6,-8
4915,36,-247,0,81,6,-6
4920,35,-247,-3,80,6,-3
4925,35,-245,0,78,6,-4
4930,39,-245,-5,76,7,-4
4935,37,-247,-2,75,8,-2
4940,35,-246,-1,73,9,-3
4945,34,-236,-7,72,9,-3
4950,33,-246,-1,73,9,-3
4955,36,-247,2,71,10,-3
4960,37,-247,-1,69,11,-2
4965,35,-246,1,67,11,-3
4970,36,-250,0,64,13,-1
4975,34,-248,0,64,13,0
4980,37,-250,-1,64,15,-2
4985,36,-249,2,65,14,-2
4990,35,-244,0,65,15,-3
4995,37,-246,4,66,17,-4
5000,37,-248,-1,68,17,-4
5005,33,-248,1,70,18,-5
5010,34,-243,-2,73,19,-7
5015,35,-248,-1,77,19,-6
5020,37,-246,-4,80,20,-7
5025,35,-248,-2,82,21,-6
5030,38,-246,-5,84,20,-7
5035,40,-249,0,86,20,-6
5040,37,-247,-7,86,20,-6
5045,38,-246,-1,85,18,-6
5050,34,-249,0,84,18,-5
5055,33,-245,0,82,16,-4
5060,34,-246,-2,78,15,-4
5065,35,-245,-1,76,14,-5
5070,36,-246,-3,74,15,-4
5075,36,-243,1,71,15,-4
5080,36,-246,-1,67,14,-4
5085,36,-245,1,63,14,-6
5090,35,-249,1,60,13,-6
5095,34,-247,0,57,13,-6
5100,34,-246,0,56,13,-6
5105,40,-251,0,54,13,-6
5110,38,-248,12,52,12,-7
5115,34,-248,-2,52,14,-6
5120,36,-248,0,52,12,-7
5125,38,-248,2,53,13,-8
5130,37,-248,0,55,11,-9
5135,34,-249,0,57,12,-8
5140,36,-244,0,60,14,-9
5145,37,-247,1,63,14,-9
5150,37,-249,-3,65,13,-9
5155,33,-245,0,68,13,-8
5160,36,-243,-2,68,13,-9
5165,34,-249,-2,65,11,-10
5170,33,-245,0,64,9,-9
5175,33,-244,0,61,8,-12
5180,33,-243,1,61,7,-10
5185,36,-247,0,58,6,-11
5190,35,-247,2,54,7,-12
5195,33,-247,-1,49,6,-13
5200,38,-247,1,48,8,-13
5205,32,-247,2,47,8,-12
5210,37,-249,0,49,9,-9
5215,34,-247,-1,53,9,-10
5220,35,-251,1,58,9,-8
5225,36,-247,-1,63,9,-10
5230,33,-245,-4,66,8,-11
5235,38,-245,-2,69,8,-12
5240,34,-248,-1,67,7,-15
5245,34,-246,-3,63,8,-17
5250,36,-243,-1,56,6,-18
5255,34,-246,0,50,6,-17
5260,35,-249,0,45,6,-18
5265,36,-246,0,40,6,-20
5270,35,-245,-1,36,7,-20
5275,33,-244,2,33,7,-20
5280,33,-249,-1,31,6,-20
5285,33,-248,-1,31,6,-19
5290,37,-245,-3,31,4,-19
5295,35,-246,1,34,5,-20
5300,36,-249,-1,39,5,-19
5305,32,-249,-8,43,5,-20
5310,37,-249,-3,47,5,-20
5315,36,-248,-1,52,5,-19
5320,35,-246,0,55,6,-19
5325,33,-245,-2,57,7,-21
5330,37,-245,0,60,8,-19
5335,37,-249,0,61,8,-20
5340,34,-249,3,61,9,-21
5345,38,-247,-5,61,10,-19
5350,33,-245,0,60,9,-17
5355,37,-249,0,58,9,-18
5360,35,-249,-1,58,8,-17
5365,38,-249,-1,56,7,-17
5370,34,-247,0,54,8,-15
5375,49,-245,2,52,8,-16
5380,34,-247,0,50,9,-16
5385,36,-246,0,49,8,-16
5390,34,-246,2,49,8,-17
5395,36,-246,-2,48,8,-17
5400,32,-243,-2,47,8,-17
5405,34,-246,-3,48,7,-16
5410,34,-246,-4,49,7,-16
5415,36,-245,1,48,7,-16
5420,37,-249,-5,48,8,-17
5425,37,-244,-2,46,9,-16
5430,35,-246,-4,47,9,-18
5435,34,-247,-1,46,9,-19
5440,35,-250,1,46,10,-18
5445,33,-244,0,45,10,-19
5450,42,-246,-1,47,10,-17
5455,34,-249,-1,49,10,-16
5460,31,-246,-3,50,11,-16
5465,34,-247,-3,51,11,-15
5470,36,-250,-1,53,10,-14
5475,36,-247,2,55,10,-14
5480,35,-241,5,58,10,-15
5485,36,-246,-4,60,11,-13
5490,36,-248,-1,66,12,-15
5495,38,-248,-2,70,12,-13
5500,37,-246,0,76,14,-12
5505,37,-249,-4,81,15,-13
5510,36,-247,-1,87,16,-12
5515,36,-245,-4,92,17,-12
5520,37,-247,-3,100,17,-11
5525,37,-247,-7,106,16,-11
5530,35,-246,-2,110,18,-9
5535,34,-246,-1,111,17,-8
5540,40,-244,13,109,16,-6
5545,35,-244,0,108,15,-5
5550,35,-245,-4,105,15,-5
5555,38,-244,0,104,14,-5
5560,36,-249,1,99,14,-6
5565,36,-243,-2,93,12,-6
5570,36,-245,2,87,10,-9
5575,37,-243,0,82,11,-9
5580,33,-246,-2,78,13,-10
5585,35,-243,0,74,14,-10
5590,33,-244,1,70,15,-11
5595,35,-247,0,69,17,-11
5600,36,-251,-1,69,17,-10
5605,35,-246,3,69,17,-9
5610,38,-246,0,67,17,-7
5615,37,-245,1,69,17,-7
5620,37,-244,1,72,17,-6
5625,36,-248,-3,79,15,-5
5630,34,-245,-1,85,14,-5
5635,33,-245,2,89,14,-6
5640,33,-244,0,89,13,-5
5645,30,-242,-3,85,11,-5
5650,36,-245,0,81,11,-5
5655,35,-244,-3,77,11,-4
5660,35,-243,-2,77,11,-5
5665,34,-244,0,77,10,-7
5670,36,-246,0,75,11,-9
5675,32,-245,0,74,11,-9
5680,37,-246,1,73,11,-10
5685,35,-249,0,74,13,-7
5690,32,-247,0,74,13,-7
5695,39,-247,-1,74,12,-8
5700,36,-247,1,74,14,-7
5705,39,-245,0,73,14,-6
5710,32,-244,-1,70,14,-5
5715,35,-245,-5,67,14,-5
5720,36,-240,1,64,13,-7
5725,37,-247,1,60,11,-5
5730,36,-247,0,56,10,-7
5735,35,-246,3,53,8,-7
5740,39,-248,2,52,10,-8
5745,35,-245,2,50,11,-6
5750,31,-244,-1,50,12,-7
5755,32,-245,-1,51,13,-7
5760,36,-246,2,52,12,-7
5765,37,-249,0,52,13,-8
5770,37,-246,0,54,13,-7
5775,35,-247,1,56,15,-6
5780,37,-250,0,58,14,-7
5785,37,-247,2,59,14,-9
5790,34,-245,-1,58,12,-7
5795,32,-245,0,58,10,-8
5800,34,-248,2,57,10,-10
5805,38,-246,0,56,9,-7
5810,33,-242,-1,56,10,-8
5815,37,-244,-2,56,8,-9
5820,33,-243,-2,55,9,-9
5825,38,-247,3,53,8,-7
5830,35,-242,1,52,9,-6
5835,36,-247,1,51,8,-6
5840,37,-245,0,50,7,-6
5845,35,-249,1,48,7,-7
5850,36,-245,0,49,6,-8
5855,33,-247,0,48,7,-7
5860,39,-252,-1,47,7,-7
5865,34,-245,-2,44,7,-9
5870,35,-245,1,45,8,-8
5875,33,-245,1,45,8,-8
5880,36,-242,0,46,9,-8
5885,36,-246,1,46,10,-8
5890,37,-245,0,48,8,-9
5895,34,-247,0,50,9,-7
5900,36,-245,0,51,11,-7
5905,34,-247,1,55,10,-6
5910,33,-247,0,55,10,-6
5915,37,-245,0,55,11,-7
5920,35,-246,2,56,11,-6
5925,36,-246,-1,55,11,-7
5930,36,-249,0,56,10,-7
5935,37,-244,1,58,11,-6
5940,38,-245,0,60,10,-6
5945,37,-249,1,60,10,-7
5950,36,-246,1,61,10,-7
5955,37,-249,0,61,9,-7
5960,29,-241,2,61,9,-8
5965,43,-248,1,60,9,-8
5970,34,-247,1,58,10,-9
5975,34,-247,0,56,10,-7
5980,37,-250,1,53,11,-8
5985,34,-245,0,50,12,-6
5990,34,-248,0,50,12,-6
5995,35,-246,-4,53,11,-5
6000,36,-247,-3,57,11,-5
6005,35,-252,0,61,9,-4
6010,34,-248,-4,65,10,-5
6015,37,-250,-3,71,10,-5
6020,36,-248,-2,72,8,-6
6025,36,-246,-1,71,8,-8
6030,35,-246,1,69,9,-11
6035,36,-247,-3,66,8,-10
6040,36,-245,1,62,8,-11
6045,34,-243,0,60,8,-11
6050,38,-246,4,59,11,-10
6055,33,-246,0,59,12,-7
6060,35,-249,1,58,12,-9
6065,36,-246,4,59,13,-9
6070,30,-246,-6,60,12,-9
6075,35,-246,0,63,13,-10
6080,35,-245,2,62,13,-11
6085,33,-245,0,64,12,-11
6090,34,-248,2,62,12,-13
6095,34,-246,0,61,11,-13
6100,33,-249,0,61,13,-14
6105,37,-249,2,62,14,-13
6110,36,-246,2,61,14,-12
6115,38,-245,1,61,13,-11
6120,36,-246,0,62,12,-11
6125,35,-248,1,62,11,-12
6130,35,-247,2,61,12,-11
6135,34,-245,1,63,12,-10
6140,36,-245,1,63,12,-10
6145,35,-244,3,63,12,-11
6150,35,-245,2,62,11,-10
6155,37,-246,1,61,12,-10
6160,36,-245,2,60,10,-12
6165,37,-245,0,60,12,-12
6170,33,-242,0,59,12,-13
6175,36,-247,0,59,11,-12
6180,33,-244,3,58,10,-13
6185,35,-248,0,57,11,-13
6190,33,-247,3,57,11,-12
6195,33,-245,0,57,11,-13
6200,37,-249,1,57,12,-13
6205,33,-247,0,59,12,-13
6210,33,-245,1,60,13,-13
6215,34,-247,-2,62,13,-12
6220,37,-245,0,63,12,-13
6225,37,-249,-3,65,13,-12
6230,35,-245,-3,66,12,-11
6235,37,-251,-2,66,13,-12
6240,36,-247,0,67,12,-12
6245,35,-245,0,67,11,-10
6250,34,-246,1,68,11,-10
6255,33,-248,-1,67,9,-10
6260,35,-247,1,66,10,-10
6265,35,-246,0,65,8,-10
6270,34,-247,1,65,9,-11
6275,32,-246,3,64,8,-11
6280,34,-248,0,63,8,-10
6285,36,-246,2,61,9,-11
6290,34,-246,-2,59,9,-11
6295,38,-248,-1,59,8,-12
6300,34,-246,2,61,9,-11
6305,36,-246,2,61,9,-10
6310,33,-246,-1,62,11,-12
6315,34,-247,2,64,10,-11
6320,36,-247,-1,65,11,-8
6325,36,-247,0,65,11,-8
6330,36,-247,1,64,12,-7
6335,38,-251,-3,66,12,-6
6340,37,-248,0,69,11,-6
6345,37,-250,0,70,11,-6
6350,36,-247,-3,72,11,-6
6355,34,-247,-1,74,11,-7
6360,36,-246,1,76,10,-7
6365,36,-248,-2,79,11,-10
6370,33,-246,3,81,11,-11
6375,34,-248,-1,82,12,-11
6380,35,-246,2,82,12,-12
6385,32,-249,1,81,13,-14
6390,34,-246,4,79,15,-11
6395,34,-247,1,77,15,-11
6400,35,-248,1,73,15,-10
6405,36,-247,0,72,15,-7
6410,37,-247,2,70,16,-7
6415,37,-247,1,71,16,-7
6420,36,-247,-2,72,15,-5
6425,34,-246,-2,75,14,-6
6430,35,-249,1,76,15,-8
6435,34,-244,0,76,13,-8
6440,35,-260,4,73,11,-7
6445,35,-244,2,71,10,-7
6450,37,-247,3,69,10,-6
6455,33,-247,0,70,11,-8
6460,36,-245,0,71,10,-10
6465,36,-246,4,70,11,-11
6470,35,-246,2,70,12,-11
6475,36,-242,0,69,12,-12
6480,38,-249,2,69,13,-12
6485,34,-246,2,69,13,-11
6490,34,-248,3,71,13,-10
6495,35,-247,2,75,14,-9
6500,31,-244,4,76,15,-9
6505,35,-248,1,76,13,-10
6510,33,-248,1,77,14,-11
6515,35,-247,-1,74,14,-10
6520,35,-246,1,73,15,-11
6525,33,-244,1,72,13,-10
6530,34,-244,3,68,12,-11
6535,36,-247,3,66,13,-10
6540,32,-248,6,64,13,-10
6545,33,-248,8,60,14,-8
6550,33,-246,5,58,15,-8
6555,36,-245,2,59,15,-9
6560,34,-246,2,60,14,-11
6565,37,-248,2,63,15,-11
6570,38,-248,3,65,15,-11
6575,36,-251,4,68,16,-9
6580,33,-244,1,70,15,-12
6585,31,-249,1,73,13,-11
6590,36,-247,-1,75,14,-10
6595,35,-246,-2,76,14,-9
6600,33,-246,-2,77,13,-9
6605,47,-252,-4,78,14,-9
6610,34,-246,1,79,13,-9
6615,35,-245,1,79,13,-7
6620,37,-243,3,77,10,-7
6625,35,-245,2,76,10,-7
6630,34,-245,2,74,10,-8
6635,34,-243,2,72,10,-9
6640,35,-243,1,71,10,-8
6645,33,-246,2,70,11,-7
6650,34,-247,1,68,11,-8
6655,36,-247,3,68,12,-7
6660,37,-247,1,67,11,-8
6665,36,-247,3,64,11,-9
6670,36,-249,3,64,12,-9
6675,36,-244,2,64,12,-9
6680,33,-245,2,65,12,-8
6685,34,-246,1,65,13,-7
6690,33,-245,1,65,11,-6
6695,37,-245,1,65,11,-8
6700,34,-246,3,65,13,-7
6705,33,-246,6,65,12,-6
6710,32,-244,4,65,11,-8
6715,34,-245,3,65,11,-9
6720,32,-244,2,65,10,-9
6725,36,-248,4,65,10,-9
6730,34,-244,1,66,11,-8
6735,35,-249,5,65,11,-6
6740,31,-246,3,65,10,-8
6745,35,-246,1,64,11,-9
6750,34,-246,2,63,11,-10
6755,36,-247,3,62,11,-9
6760,36,-248,2,61,12,-9
6765,33,-245,0,61,11,-9
6770,35,-247,0,60,11,-8
6775,37,-245,1,60,11,-8
6780,34,-247,2,60,9,-7
6785,33,-247,1,61,10,-4
6790,34,-245,1,61,10,-6
6795,35,-245,1,61,7,-6
6800,36,-247,2,61,7,-4
6805,35,-248,1,65,7,-5
6810,37,-249,2,69,6,-7
6815,33,-246,2,72,5,-9
6820,39,-239,2,74,6,-9
6825,35,-245,1,74,6,-10
6830,37,-246,2,71,6,-13
6835,32,-243,1,67,8,-11
6840,34,-244,3,64,9,-12
6845,33,-245,3,61,11,-10
6850,37,-249,4,58,10,-10
6855,35,-247,5,55,10,-8
6860,34,-247,4,53,10,-9
6865,33,-244,5,53,12,-9
6870,35,-249,2,54,12,-8
6875,33,-245,5,56,11,-10
6880,34,-245,2,58,12,-9
6885,35,-248,4,59,13,-11
6890,37,-247,6,61,12,-11
6895,36,-248,3,61,11,-12
6900,35,-248,1,60,12,-11
6905,37,-245,0,60,12,-9
6910,34,-247,4,59,12,-9
6915,36,-244,5,60,11,-8
6920,36,-244,-12,59,11,-10
6925,21,-239,3,59,11,-9
6930,35,-245,3,58,12,-9
6935,34,-245,3,59,11,-9
6940,36,-244,3,58,12,-8
6945,35,-242,1,58,12,-9
6950,34,-249,3,58,10,-10
6955,33,-246,1,55,9,-8
6960,33,-246,2,54,10,-8
6965,35,-244,0,53,10,-8
6970,33,-247,2,52,10,-9
6975,35,-246,7,52,10,-9
6980,34,-246,4,51,9,-9
6985,36,-248,1,53,10,-11
6990,36,-249,1,54,9,-11
6995,34,-244,6,54,10,-11
7000,34,-245,2,54,12,-12
7005,32,-245,0,54,10,-10
7010,34,-245,3,54,11,-9
7015,34,-248,4,54,11,-8
7020,35,-248,2,53,10,-9
7025,34,-245,5,53,10,-6
7030,35,-248,8,54,10,-8
7035,35,-245,9,53,11,-8
7040,33,-247,3,53,10,-9
7045,37,-248,3,52,10,-8
7050,35,-247,4,52,9,-10
7055,34,-246,6,52,10,-9
7060,36,-245,1,51,8,-10
7065,34,-248,3,53,9,-11
7070,35,-247,4,52,9,-12
7075,37,-248,1,54,8,-13
7080,32,-246,5,54,8,-12
7085,35,-243,2,55,8,-11
7090,31,-245,2,55,8,-11
7095,32,-244,1,56,10,-12
7100,36,-248,3,56,11,-11
7105,36,-245,3,55,11,-11
7110,34,-244,4,54,11,-10
7115,39,-248,1,54,12,-11
7120,33,-246,2,56,12,-11
7125,35,-247,2,56,12,-10
7130,34,-248,1,55,11,-10
7135,36,-250,4,55,10,-10
7140,36,-246,1,55,9,-9
7145,34,-248,1,56,8,-10
7150,37,-248,5,58,8,-11
7155,34,-249,2,60,7,-10
7160,33,-247,2,60,7,-11
7165,35,-247,2,62,6,-9
7170,34,-246,3,63,6,-9
7175,33,-245,1,64,7,-11
7180,36,-246,3,65,8,-11
7185,34,-250,2,63,8,-12
7190,36,-247,1,61,9,-11
7195,35,-248,0,60,8,-11
7200,33,-243,3,58,7,-10
7205,37,-249,4,57,8,-11
7210,36,-243,-2,56,9,-10
7215,37,-245,3,57,8,-10
7220,33,-246,2,57,8,-11
7225,33,-246,2,58,10,-9
7230,37,-248,2,59,10,-6
7235,36,-248,4,57,10,-4
7240,34,-247,1,55,10,-4
7245,36,-248,5,52,9,-6
7250,35,-245,2,46,9,-4
7255,37,-246,5,42,8,-7
7260,36,-247,1,38,8,-7
7265,35,-245,0,35,9,-8
7270,33,-243,4,32,10,-9
7275,31,-247,1,30,12,-9
7280,35,-246,4,30,12,-11
7285,33,-245,4,30,13,-8
7290,34,-244,6,30,13,-5
7295,43,-236,1,30,13,-3
7300,36,-244,4,32,15,-4
7305,35,-246,5,33,12,-5
7310,34,-245,2,34,12,-2
7315,34,-249,5,34,10,-2
7320,33,-245,4,31,8,-2
7325,35,-248,7,26,4,-2
7330,36,-248,2,22,2,-3
7335,33,-249,4,21,1,-4
7340,35,-249,2,26,0,-4
7345,44,-252,10,28,-1,-7
7350,32,-254,6,30,-1,-11
7355,35,-245,2,28,-1,-12
7360,35,-249,3,27,2,-12
7365,36,-248,3,24,2,-11
7370,34,-247,5,24,4,-12
7375,33,-245,2,24,6,-9
7380,30,-244,1,26,7,-7
7385,36,-247,1,27,8,-6
7390,35,-245,0,28,9,-5
7395,33,-243,1,29,10,-3
7400,36,-245,5,29,11,-4
7405,35,-243,1,28,11,-2
7410,36,-245,2,23,13,-1
7415,34,-246,4,20,14,-1
7420,32,-244,6,13,18,-1
7425,33,-244,3,4,18,-1
7430,34,-245,6,-6,18,0
7435,35,-246,5,-17,18,3
7440,36,-248,9,-25,19,4
7445,30,-247,5,-32,17,7
7450,35,-246,7,-38,15,7
7455,33,-245,3,-41,14,10
7460,28,-240,5,-43,11,9
7465,33,-248,1,-44,11,8
7470,30,-248,3,-41,8,8
7475,31,-245,5,-38,7,8
7480,31,-246,2,-34,5,7
7485,31,-245,1,-31,4,5
7490,33,-246,3,-30,5,5
7495,33,-245,2,-31,2,3
7500,35,-243,4,-35,0,2
7505,32,-244,3,-42,-2,3
7510,33,-243,7,-52,-5,3
7515,34,-240,8,-65,-9,2
7520,35,-240,6,-78,-11,1
7525,33,-240,7,-92,-15,1
7530,35,-241,5,-105,-18,-1
7535,36,-243,7,-117,-22,0
7540,37,-241,8,-128,-23,-1
7545,31,-240,6,-138,-26,0
7550,35,-243,3,-148,-28,-1
7555,33,-240,1,-159,-32,-1
7560,32,-242,5,-168,-33,-2
7565,30,-240,2,-180,-36,-4
7570,34,-242,1,-189,-37,-5
7575,32,-245,1,-198,-36,-6
7580,29,-246,1,-204,-34,-6
7585,34,-243,2,-208,-34,-6
7590,31,-240,-1,-213,-32,-8
7595,35,-248,1,-215,-31,-10
7600,35,-245,-3,-219,-28,-9
7605,38,-245,0,-222,-26,-10
7610,36,-247,1,-227,-26,-8
7615,34,-247,-3,-231,-26,-7
7620,36,-247,1,-236,-26,-4
7625,37,-249,0,-245,-27,-4
7630,34,-247,-3,-254,-26,-2
7635,35,-251,-7,-263,-25,-1
7640,36,-250,-2,-274,-23,-2
7645,33,-249,-4,-284,-23,-1
7650,35,-245,-7,-294,-22,1
7655,34,-246,-1,-303,-22,2
7660,34,-244,-3,-316,-22,3
7665,36,-247,-7,-330,-22,2
7670,32,-243,-4,-343,-21,3
7675,32,-244,-7,-360,-23,3
7680,30,-242,-4,-379,-23,4
7685,31,-241,-11,-399,-23,6
7690,32,-242,-5,-419,-22,9
7695,34,-242,-7,-437,-21,11
7700,31,-242,-11,-453,-22,12
7705,33,-241,-13,-471,-21,10
7710,31,-240,-15,-489,-23,11
7715,31,-241,-15,-510,-24,13
7720,32,-240,-13,-530,-26,13
7725,30,-244,-23,-549,-27,12
7730,34,-243,-18,-566,-28,14
7735,34,-242,-13,-582,-26,15
7740,32,-244,-17,-593,-29,16
7745,35,-242,-16,-601,-28,16
7750,32,-242,-20,-610,-29,16
7755,33,-238,-20,-616,-29,17
7760,30,-240,-15,-623,-28,16
7765,29,-237,-23,-633,-29,17
7770,32,-238,-20,-643,-28,19
7775,34,-232,-22,-653,-28,17
7780,32,-239,-24,-663,-27,18
7785,32,-239,-21,-678,-25,20
7790,30,-236,-25,-693,-28,20
7795,28,-237,-21,-711,-30,20
7800,32,-237,-26,-729,-34,22
7805,28,-238,-26,-749,-34,23
7810,32,-235,-24,-770,-39,25
7815,32,-238,-25,-792,-41,25
7820,32,-238,-28,-817,-44,24
7825,32,-237,-33,-845,-47,24
7830,31,-238,-29,-874,-48,20
7835,30,-235,-31,-900,-52,20
7840,33,-240,-37,-920,-57,15
7845,30,-238,-34,-942,-62,9
7850,34,-237,-34,-960,-66,6
7855,30,-237,-37,-979,-71,1
7860,30,-235,-43,-996,-78,-4
7865,34,-234,-43,-1015,-81,-8
7870,32,-233,-47,-1038,-86,-12
7875,30,-233,-44,-1067,-88,-16
7880,29,-233,-49,-1094,-92,-20
7885,31,-230,-45,-1124,-93,-25
7890,29,-232,-53,-1155,-95,-28
7895,31,-234,-50,-1188,-95,-31
7900,33,-233,-51,-1222,-97,-34
7905,33,-231,-48,-1266,-93,-38
7910,37,-230,-49,-1312,-86,-44
7915,34,-235,-56,-1349,-81,-46
7920,34,-232,-56,-1370,-77,-46
7925,37,-233,-62,-1383,-75,-46
7930,32,-236,-54,-1391,-71,-46
7935,39,-234,-70,-1384,-75,-46
7940,37,-231,-71,-1381,-71,-48
7945,34,-227,-73,-1384,-65,-49
7950,32,-225,-69,-1390,-61,-47
7955,30,-225,-83,-1406,-57,-52
7960,31,-225,-85,-1430,-53,-59
7965,34,-224,-82,-1461,-50,-65
7970,28,-222,-86,-1496,-48,-65
7975,28,-222,-87,-1532,-43,-76
7980,28,-221,-89,-1561,-46,-84
7985,26,-220,-94,-1589,-52,-90
7990,31,-223,-93,-1613,-57,-98
7995,27,-222,-96,-1635,-56,-108
8000,24,-221,-108,-1645,-53,-112
8005,25,-223,-113,-1645,-42,-117
8010,24,-221,-120,-1632,-37,-122
8015,26,-221,-127,-1614,-30,-120
8020,24,-216,-128,-1601,-20,-118
8025,24,-213,-134,-1598,-15,-114
8030,24,-212,-138,-1603,-19,-115
8035,25,-212,-144,-1613,-28,-110
8040,22,-204,-148,-1634,-39,-90
8045,22,-203,-151,-1656,-58,-89
8050,31,-200,-154,-1678,-78,-88
8055,28,-207,-155,-1704,-86,-85
8060,27,-202,-150,-1717,-97,-85
8065,36,-207,-156,-1707,-110,-96
8070,36,-205,-160,-1687,-117,-108
8075,38,-205,-160,-1667,-111,-109
8080,40,-201,-167,-1642,-107,-98
8085,38,-210,-170,-1619,-92,-104
8090,35,-204,-176,-1601,-81,-108
8095,34,-205,-173,-1589,-54,-107
8100,36,-203,-178,-1561,-49,-117
8105,41,-197,-185,-1536,-56,-120
8110,40,-199,-191,-1531,-53,-116
8115,37,-197,-191,-1539,-37,-102
8120,35,-193,-188,-1544,-31,-95
8125,34,-195,-194,-1542,-39,-87
8130,34,-195,-186,-1530,-46,-77
8135,34,-198,-185,-1510,-54,-67
8140,38,-192,-187,-1483,-69,-62
8145,37,-194,-187,-1466,-63,-60
8150,38,-198,-178,-1442,-62,-57
8155,44,-200,-183,-1412,-66,-55
8160,42,-196,-184,-1366,-61,-56
8165,42,-192,-191,-1307,-46,-60
8170,41,-190,-188,-1245,-27,-62
8175,39,-191,-194,-1176,-14,-64
8180,38,-185,-197,-1101,-7,-63
8185,39,-189,-199,-1039,-3,-60
8190,38,-183,-202,-993,1,-53
8195,44,-186,-204,-962,3,-50
8200,39,-181,-205,-941,1,-51
8205,45,-185,-209,-932,0,-52
8210,48,-181,-217,-934,5,-46
8215,41,-178,-213,-937,5,-48
8220,42,-174,-215,-947,14,-45
8225,47,-175,-212,-951,18,-39
8230,43,-174,-216,-948,24,-36
8235,47,-174,-216,-946,31,-29
8240,48,-176,-221,-932,37,-24
8245,41,-166,-225,-906,39,-27
8250,45,-167,-224,-879,40,-30
8255,42,-157,-221,-858,43,-38
8260,35,-160,-225,-846,42,-42
8265,37,-160,-219,-838,39,-47
8270,39,-160,-221,-830,37,-47
8275,42,-163,-221,-827,38,-47
8280,37,-161,-220,-807,33,-50
8285,39,-161,-216,-786,32,-45
8290,45,-154,-217,-775,35,-39
8295,43,-154,-219,-769,37,-41
8300,36,-154,-224,-753,35,-40
8305,44,-149,-229,-734,32,-45
8310,40,-149,-226,-717,30,-47
8315,42,-148,-224,-705,21,-48
8320,34,-147,-225,-702,14,-45
8325,44,-148,-222,-704,3,-42
8330,43,-149,-223,-705,-9,-46
8335,45,-150,-222,-698,-21,-49
8340,45,-150,-223,-692,-30,-58
8345,44,-148,-221,-689,-36,-64
8350,43,-146,-224,-692,-33,-68
8355,48,-151,-224,-694,-33,-62
8360,45,-153,-224,-689,-31,-56
8365,38,-144,-223,-673,-34,-58
8370,33,-146,-221,-656,-39,-60
8375,34,-141,-227,-641,-46,-60
8380,34,-136,-225,-628,-54,-60
8385,33,-140,-226,-610,-64,-61
8390,34,-138,-221,-592,-74,-67
8395,32,-139,-227,-562,-85,-72
8400,34,-139,-223,-530,-95,-78
8405,31,-136,-229,-483,-101,-93
8410,31,-136,-228,-428,-107,-112
8415,31,-132,-232,-375,-114,-125
8420,35,-128,-226,-327,-120,-137
8425,35,-126,-225,-287,-125,-146
8430,39,-126,-229,-263,-135,-148
8435,37,-125,-227,-255,-143,-152
8440,37,-126,-228,-262,-140,-152
8445,37,-125,-223,-269,-139,-149
8450,35,-127,-225,-267,-142,-147
8455,40,-127,-225,-243,-148,-143
8460,42,-129,-229,-197,-155,-137
8465,39,-128,-235,-145,-165,-135
8470,38,-130,-233,-91,-173,-136
8475,39,-126,-236,-43,-178,-138
8480,40,-122,-231,0,-186,-142
8485,42,-127,-235,31,-194,-145
8490,38,-125,-231,55,-193,-148
8495,38,-123,-229,68,-192,-151
8500,45,-126,-230,69,-196,-150
8505,40,-123,-230,75,-187,-143
8510,40,-122,-227,83,-181,-137
8515,37,-123,-222,84,-181,-129
8520,37,-124,-222,85,-181,-119
8525,30,-121,-221,85,-180,-110
8530,34,-121,-221,84,-181,-97
8535,30,-123,-218,84,-181,-84
8540,19,-128,-232,83,-178,-73
8545,32,-121,-222,79,-171,-66
8550,34,-117,-225,74,-162,-55
8555,32,-120,-223,55,-156,-31
8560,30,-120,-219,40,-156,-14
8565,35,-123,-226,40,-162,6
8570,33,-127,-237,50,-161,23
8575,34,-126,-229,70,-156,35
8580,31,-126,-239,98,-157,40
8585,29,-124,-236,123,-160,44
8590,33,-116,-238,144,-163,47
8595,35,-112,-246,156,-163,57
8600,33,-106,-248,149,-160,69
8605,36,-108,-251,129,-150,74
8610,31,-111,-255,115,-142,79
8615,28,-110,-257,105,-133,94
8620,30,-110,-251,105,-126,106
8625,30,-114,-254,126,-123,104
8630,30,-116,-253,159,-121,110
8635,30,-115,-249,203,-125,111
8640,31,-120,-252,256,-132,114
8645,22,-120,-249,309,-134,108
8650,29,-119,-251,359,-132,103
8655,26,-116,-250,401,-130,104
8660,27,-114,-253,436,-126,103
8665,31,-114,-251,465,-119,102
8670,24,-114,-249,487,-115,103
8675,26,-111,-248,507,-111,104
8680,23,-112,-245,521,-111,98
8685,21,-110,-247,527,-112,94
8690,19,-110,-246,528,-109,91
8695,19,-112,-242,527,-106,90
8700,20,-115,-239,520,-105,88
8705,17,-116,-236,524,-105,87
8710,18,-117,-237,538,-110,82
8715,17,-121,-231,554,-111,79
8720,19,-125,-233,577,-113,76
8725,22,-124,-230,600,-117,74
8730,19,-126,-232,622,-120,66
8735,16,-126,-235,644,-120,59
8740,18,-125,-236,660,-116,46
8745,19,-127,-229,673,-109,38
8750,19,-132,-228,679,-99,27
8755,13,-133,-231,690,-91,12
8760,18,-132,-230,697,-80,2
8765,20,-133,-227,705,-69,-6
8770,22,-138,-224,712,-58,-15
8775,18,-142,-220,723,-45,-21
8780,21,-147,-218,741,-38,-25
8785,23,-153,-218,764,-31,-25
8790,21,-151,-215,789,-19,-31
8795,21,-151,-213,812,-7,-32
8800,18,-155,-213,835,6,-34
8805,26,-160,-212,853,22,-34
8810,23,-163,-210,873,37,-33
8815,23,-162,-208,894,45,-33
8820,21,-165,-205,907,53,-35
8825,23,-165,-202,919,62,-38
8830,23,-166,-200,929,64,-39
8835,21,-167,-202,941,66,-42
8840,21,-165,-202,949,71,-46
8845,24,-168,-196,950,79,-52
8850,28,-167,-192,952,87,-55
8855,24,-168,-192,958,95,-61
8860,20,-168,-201,966,99,-62
8865,27,-177,-190,971,105,-62
8870,28,-173,-192,967,116,-65
8875,26,-172,-188,970,126,-66
8880,23,-178,-189,982,131,-66
8885,21,-175,-181,998,132,-66
8890,19,-179,-185,1016,125,-69
8895,20,-180,-183,1031,119,-66
8900,21,-179,-179,1046,108,-62
8905,21,-178,-182,1047,93,-63
8910,20,-177,-194,1040,79,-62
8915,21,-183,-181,1027,66,-53
8920,20,-185,-178,1011,53,-41
8925,23,-187,-175,999,47,-30
8930,24,-189,-173,997,41,-21
8935,23,-191,-169,1001,38,-14
8940,18,-191,-169,1008,35,-11
8945,18,-192,-165,1025,35,-8
8950,16,-192,-164,1051,35,-3
8955,13,-193,-160,1082,35,4
8960,14,-194,-161,1120,34,11
8965,8,-196,-160,1163,32,17
8970,12,-206,-165,1210,28,20
8975,15,-194,-156,1260,24,21
8980,16,-192,-155,1310,22,20
8985,18,-195,-148,1357,25,17
8990,16,-194,-151,1397,32,9
8995,18,-193,-152,1434,43,1
9000,18,-192,-149,1466,52,-11
9005,20,-192,-149,1490,63,-20
9010,23,-191,-149,1509,80,-27
9015,27,-189,-145,1517,100,-37
9020,25,-191,-151,1518,121,-50
9025,24,-189,-154,1505,141,-56
9030,28,-187,-157,1480,158,-60
9035,34,-189,-156,1442,170,-63
9040,32,-186,-155,1394,175,-63
9045,32,-189,-162,1341,180,-59
9050,33,-190,-158,1282,180,-48
9055,36,-189,-154,1225,177,-41
9060,39,-190,-151,1173,174,-33
9065,35,-193,-148,1126,176,-27
9070,38,-191,-147,1091,179,-22
9075,36,-193,-148,1064,181,-12
9080,40,-200,-139,1035,179,0
9085,36,-196,-134,1023,180,11
9090,36,-201,-135,1009,177,20
9095,35,-202,-128,996,171,28
9100,29,-205,-128,982,167,38
9105,31,-207,-124,958,161,45
9110,33,-208,-119,940,159,46
9115,25,-204,-120,926,160,44
9120,23,-209,-119,911,162,45
9125,22,-210,-117,891,162,45
9130,18,-213,-116,876,163,43
9135,17,-210,-113,864,167,37
9140,17,-213,-114,851,174,32
9145,14,-214,-112,834,181,23
9150,14,-214,-105,815,188,17
9155,11,-212,-110,808,196,7
9160,15,-214,-108,805,207,3
9165,10,-215,-103,809,214,0
9170,9,-220,-98,828,224,-3
9175,11,-220,-96,859,234,-5
9180,7,-218,-94,900,244,-6
9185,14,-209,-92,944,246,-5
9190,3,-212,-90,989,244,-3
9195,10,-217,-92,1030,242,-2
9200,13,-217,-88,1066,238,-2
9205,14,-214,-90,1093,233,3
9210,15,-213,-86,1111,223,8
9215,14,-214,-84,1119,209,12
9220,19,-212,-89,1120,197,20
9225,20,-213,-84,1115,180,25
9230,21,-210,-80,1107,162,32
9235,19,-212,-80,1100,149,35
9240,20,-213,-80,1098,137,37
9245,18,-211,-77,1099,126,37
9250,19,-208,-80,1103,119,41
9255,20,-211,-75,1106,112,44
9260,19,-206,-75,1109,108,42
9265,19,-206,-74,1109,107,46
9270,17,-203,-74,1106,105,52
9275,19,-198,-73,1095,103,56
9280,18,-197,-74,1079,100,62
9285,19,-195,-71,1062,97,66
9290,19,-194,-68,1040,97,71
9295,20,-195,-68,1020,98,73
9300,17,-190,-61,999,99,72
9305,19,-191,-57,977,102,72
9310,18,-192,-65,956,106,69
9315,19,-190,-70,937,108,61
9320,20,-192,-65,920,109,57
9325,20,-191,-64,909,112,51
9330,21,-192,-64,901,111,46
9335,21,-196,-66,897,113,41
9340,20,-197,-69,894,111,37
9345,22,-202,-72,891,111,32
9350,20,-199,-73,890,110,28
9355,20,-202,-72,893,107,25
9360,24,-205,-74,896,100,22
9365,21,-205,-71,901,89,19
9370,20,-202,-71,908,75,17
9375,23,-205,-67,916,62,17
9380,22,-204,-68,919,51,20
9385,23,-206,-64,918,41,21
9390,20,-202,-66,914,34,26
9395,22,-205,-61,907,30,29
9400,19,-203,-59,895,25,33
9405,21,-201,-56,886,19,35
9410,21,-201,-52,874,22,34
9415,19,-198,-57,863,31,36
9420,21,-201,-49,853,40,36
9425,24,-197,-51,846,50,34
9430,24,-196,-51,841,60,31
9435,24,-194,-52,834,72,27
9440,27,-192,-51,828,83,26
9445,26,-193,-51,819,94,20
9450,30,-192,-50,806,103,15
9455,29,-194,-54,792,111,8
9460,32,-195,-54,774,116,1
9465,33,-194,-58,753,119,-7
9470,38,-196,-58,731,121,-16
9475,33,-191,-60,708,119,-23
9480,33,-199,-58,686,117,-32
9485,36,-201,-60,664,115,-39
9490,35,-204,-57,647,111,-43
9495,35,-204,-58,631,107,-48
9500,37,-210,-55,624,102,-52
9505,33,-213,-51,615,98,-55
9510,29,-213,-53,613,93,-55
9515,29,-212,-49,612,90,-52
9520,27,-214,-49,614,85,-49
9525,25,-218,-50,618,84,-44
9530,23,-217,-48,621,84,-39
9535,24,-222,-45,623,82,-34
9540,21,-218,-41,621,83,-29
9545,16,-222,-46,612,84,-24
9550,20,-223,-47,599,88,-23
9555,19,-227,-42,583,93,-21
9560,22,-228,-43,556,98,-21
9565,23,-228,-35,531,107,-23
9570,24,-225,-45,508,115,-24
9575,27,-229,-45,493,124,-28
9580,25,-230,-41,482,132,-32
9585,24,-230,-42,478,136,-38
9590,28,-233,-37,479,142,-44
9595,30,-236,-38,486,148,-47
9600,30,-233,-35,496,150,-52
9605,34,-235,-38,508,152,-60
9610,31,-237,-36,523,148,-65
9615,32,-238,-32,535,144,-70
9620,34,-235,-30,548,139,-75
9625,30,-248,-28,560,133,-78
9630,36,-241,-27,573,130,-83
9635,33,-238,-25,584,125,-84
9640,31,-236,-23,594,119,-84
9645,33,-238,-23,600,114,-83
9650,37,-237,-23,600,107,-83
9655,35,-236,-23,598,100,-83
9660,32,-238,-25,593,97,-83
9665,36,-238,-23,585,96,-85
9670,31,-238,-25,574,96,-88
9675,32,-237,-23,562,100,-87
9680,30,-238,-20,549,103,-86
9685,29,-238,-23,540,107,-86
9690,30,-242,-20,533,112,-84
9695,28,-242,-20,527,116,-84
9700,28,-239,-16,527,118,-86
9705,26,-242,-17,529,118,-85
9710,26,-245,-17,533,116,-86
9715,25,-240,-19,541,111,-85
9720,23,-241,-18,549,104,-83
9725,26,-242,-14,557,98,-82
9730,25,-242,-16,562,93,-89
9735,28,-245,-19,562,89,-96
9740,24,-240,-11,563,86,-99
9745,29,-244,-9,563,84,-99
9750,28,-242,-7,564,80,-98
9755,26,-241,-4,565,77,-92
9760,28,-241,-1,569,74,-89
9765,26,-238,-1,573,71,-87
9770,27,-240,-1,574,71,-84
9775,28,-241,0,573,71,-80
9780,30,-238,0,566,68,-74
9785,30,-238,0,555,64,-68
9790,27,-235,-3,540,57,-62
9795,28,-235,-1,523,51,-54
9800,29,-237,2,504,45,-47
9805,32,-237,2,479,37,-41
9810,31,-233,4,456,26,-40
9815,31,-234,7,433,16,-40
9820,32,-235,6,412,6,-39
9825,33,-238,11,392,-2,-40
9830,31,-235,14,374,-8,-43
9835,33,-237,12,356,-10,-45
9840,35,-238,13,338,-10,-47
9845,36,-239,14,320,-8,-50
9850,39,-241,8,302,-5,-53
9855,36,-244,10,283,-2,-56
9860,38,-243,12,268,3,-54
9865,42,-249,11,257,8,-55
9870,39,-246,12,246,12,-54
9875,38,-244,12,242,16,-51
9880,41,-247,8,238,21,-47
9885,41,-248,14,237,26,-43
9890,39,-247,12,236,32,-38
9895,40,-247,10,234,36,-33
9900,39,-246,19,229,37,-29
9905,38,-248,19,222,36,-23
9910,38,-246,18,214,33,-18
9915,37,-251,12,207,29,-13
9920,37,-249,16,198,23,-8
9925,33,-247,12,190,19,-7
9930,35,-249,15,186,17,-3
9935,31,-250,19,183,16,-1
9940,33,-247,16,180,15,-1
9945,31,-248,25,182,17,-8
9950,22,-252,3,186,20,-11
9955,30,-250,19,191,27,-13
9960,31,-246,23,198,33,-14
9965,30,-244,20,206,41,-17
9970,29,-243,19,212,45,-16
9975,32,-244,19,213,48,-13
9980,32,-245,19,210,47,-11
9985,35,-241,18,204,45,-10
9990,32,-240,21,195,41,-8
9995,36,-238,23,186,39,-8
10000,34,-239,19,179,35,-9
10005,38,-241,25,173,31,-10
10010,35,-235,25,168,26,-7
10015,38,-239,25,164,23,-6
10020,41,-241,25,161,23,-4
10025,39,-239,26,158,25,-4
10030,36,-237,28,158,28,-6
10035,38,-239,27,156,30,-7
10040,38,-242,30,152,34,-12
10045,35,-242,29,149,41,-14
10050,37,-243,31,142,49,-18
10055,38,-242,27,135,56,-25
10060,34,-245,23,128,63,-30
10065,37,-243,32,121,67,-34
10070,35,-241,24,117,72,-40
10075,36,-247,27,113,75,-45
10080,38,-248,26,109,81,-49
10085,34,-246,31,105,85,-52
10090,37,-249,31,101,90,-54
10095,34,-250,28,100,93,-56
10100,35,-245,30,101,93,-56
10105,33,-248,27,100,93,-56
10110,32,-243,26,99,92,-56
10115,34,-247,30,100,88,-55
10120,34,-250,29,101,86,-51
10125,30,-247,27,105,79,-49
10130,31,-247,27,108,75,-44
10135,33,-240,28,110,67,-39
10140,30,-245,26,111,59,-34
10145,33,-245,27,109,51,-30
10150,33,-246,27,109,44,-25
10155,33,-244,29,106,35,-21
10160,34,-243,23,102,28,-17
10165,32,-247,20,97,22,-13
10170,33,-246,26,94,19,-12
10175,36,-246,22,90,16,-10
10180,35,-245,25,87,14,-9
10185,37,-244,27,87,15,-8
10190,34,-246,24,85,16,-8
10195,35,-245,22,86,16,-8
10200,33,-248,23,88,21,-9
10205,40,-248,24,88,23,-11
10210,34,-245,25,89,25,-12
10215,35,-247,24,92,28,-17
10220,37,-246,24,99,30,-18
10225,38,-247,23,104,33,-22
10230,35,-248,25,109,34,-25
10235,36,-244,27,114,37,-28
10240,34,-244,24,117,36,-29
10245,36,-244,24,117,35,-32
10250,37,-244,28,116,34,-33
10255,40,-245,27,115,33,-36
10260,35,-243,30,113,31,-38
10265,36,-243,26,112,32,-41
10270,35,-245,31,110,31,-40
10275,38,-247,31,111,28,-41
10280,39,-245,32,108,25,-43
10285,37,-240,22,106,23,-44
10290,36,-242,30,105,19,-42
10295,36,-243,31,104,16,-43
10300,37,-241,32,103,11,-42
10305,33,-241,27,102,6,-40
10310,34,-241,29,100,2,-38
10315,35,-242,29,97,-1,-36
10320,33,-244,28,95,-6,-34
10325,37,-243,35,93,-8,-32
10330,34,-245,30,90,-11,-30
10335,35,-240,30,87,-12,-28
10340,35,-243,28,81,-15,-24
10345,33,-241,27,77,-16,-23
10350,35,-246,30,72,-17,-21
10355,36,-245,28,69,-18,-20
10360,37,-246,30,66,-18,-19
10365,34,-244,29,64,-22,-17
10370,38,-245,28,66,-23,-17
10375,26,-241,14,66,-27,-15
10380,49,-246,40,66,-30,-10
10385,39,-246,28,64,-32,-4
10390,36,-246,29,63,-34,-3
10395,35,-245,27,61,-34,-1
10400,37,-243,26,60,-34,0
10405,38,-247,28,63,-34,5
10410,39,-247,26,63,-35,5
10415,39,-244,29,64,-35,3
10420,37,-244,25,64,-35,4
10425,38,-246,29,64,-34,3
10430,35,-245,26,65,-32,5
10435,36,-244,30,65,-32,4
10440,35,-247,31,66,-31,5
10445,40,-248,28,67,-33,4
10450,37,-246,33,69,-35,4
10455,39,-245,32,70,-35,4
10460,38,-245,31,72,-33,4
10465,40,-242,33,74,-31,4
10470,39,-245,28,75,-27,3
10475,40,-246,31,77,-25,3
10480,39,-246,35,77,-23,1
10485,35,-243,31,76,-20,0
10490,41,-249,34,74,-16,-1
10495,36,-243,33,73,-14,-2
10500,37,-243,32,72,-11,-3
10505,36,-245,28,69,-8,-4
10510,35,-243,30,66,-7,-5
10515,34,-245,32,63,-5,-3
10520,36,-244,32,62,-4,-5
10525,37,-245,32,61,-3,-6
10530,35,-243,30,61,-2,-6
10535,40,-247,33,61,-1,-7
10540,35,-243,30,63,-1,-7
10545,35,-248,30,64,-3,-6
10550,33,-245,37,67,-4,-6
10555,36,-247,35,71,-3,-7
10560,35,-244,32,72,-4,-6
10565,34,-247,28,73,-1,-7
10570,34,-246,34,73,1,-6
10575,31,-246,30,73,4,-8
10580,36,-244,30,72,10,-8
10585,36,-247,29,74,17,-8
10590,33,-248,28,73,22,-9
10595,32,-245,27,75,25,-11
10600,32,-244,30,74,28,-11
10605,37,-247,30,76,29,-11
10610,36,-246,28,80,28,-13
10615,33,-244,29,83,27,-13
10620,34,-247,34,85,23,-12
10625,34,-248,26,85,19,-13
10630,35,-243,29,85,15,-15
10635,34,-246,28,83,13,-17
10640,34,-246,28,81,10,-16
10645,35,-247,25,79,8,-16
10650,34,-247,28,79,9,-16
10655,35,-246,32,80,11,-16
10660,32,-241,30,81,13,-15
10665,36,-245,28,82,17,-18
10670,33,-245,31,83,19,-19
10675,35,-242,29,82,21,-18
10680,34,-244,26,79,19,-19
10685,34,-244,29,81,20,-19
10690,34,-243,28,79,18,-20
10695,35,-243,29,79,19,-20
10700,33,-248,24,74,19,-17
10705,32,-242,28,72,18,-18
10710,36,-247,28,67,17,-14
10715,32,-244,29,62,14,-14
10720,33,-244,30,58,13,-13
10725,30,-242,27,54,12,-13
10730,32,-247,28,53,10,-14
10735,35,-247,31,50,8,-12
10740,35,-245,25,50,9,-10
10745,33,-243,31,49,10,-10
10750,32,-246,27,52,11,-10
10755,34,-242,26,58,10,-12
10760,33,-246,32,61,12,-11
10765,33,-242,25,65,15,-13
10770,38,-244,31,67,14,-13
10775,39,-242,30,68,14,-11
10780,36,-241,31,66,14,-10
10785,39,-246,27,64,13,-10
10790,36,-244,37,61,12,-12
10795,35,-240,29,59,11,-12
10800,39,-243,34,57,11,-11
10805,36,-242,31,55,11,-10
10810,24,-239,28,53,12,-10
10815,36,-245,34,51,12,-10
10820,38,-245,34,49,13,-11
10825,37,-243,33,51,13,-11
10830,36,-243,32,55,16,-11
10835,37,-246,35,60,17,-11
10840,34,-245,31,68,20,-13
10845,31,-245,36,76,22,-14
10850,34,-244,29,81,27,-14
10855,33,-241,31,88,28,-16
10860,36,-244,34,94,30,-16
10865,34,-242,33,97,31,-19
10870,37,-243,30,100,31,-20
10875,35,-244,30,99,31,-21
10880,33,-247,33,96,31,-21
10885,37,-242,31,92,31,-19
10890,37,-247,26,88,32,-17
10895,38,-246,30,83,32,-17
10900,34,-246,30,79,32,-17
10905,35,-245,26,77,30,-16
10910,36,-244,25,73,30,-15
10915,39,-250,17,72,28,-15
10920,35,-247,25,72,27,-13
10925,37,-247,24,74,28,-14
10930,36,-246,26,73,28,-13
10935,34,-250,25,73,27,-12
10940,35,-249,27,75,27,-11
10945,35,-244,29,75,27,-9
10950,35,-247,31,77,25,-11
10955,33,-246,30,78,24,-11
10960,34,-244,33,78,23,-11
10965,35,-244,28,78,22,-11
10970,31,-245,31,78,21,-10
10975,33,-243,30,76,20,-11
10980,34,-244,30,76,18,-11
10985,34,-245,29,73,16,-11
10990,36,-244,29,70,14,-11
10995,36,-244,32,65,13,-9
11000,37,-246,29,63,14,-8
11005,38,-248,33,61,14,-8
11010,36,-249,30,60,14,-8
11015,33,-241,32,60,13,-8
11020,32,-246,31,60,13,-8
11025,30,-247,29,61,12,-9
11030,34,-245,34,64,11,-8
11035,33,-246,33,65,9,-8
11040,35,-247,31,70,10,-8
11045,34,-244,33,73,8,-8
11050,35,-246,28,77,7,-9
11055,36,-248,30,85,8,-9
11060,35,-243,29,89,5,-11
11065,32,-243,30,92,6,-9
11070,36,-245,31,94,4,-7
11075,37,-244,29,96,3,-8
11080,38,-242,32,95,2,-7
11085,35,-243,33,92,3,-8
11090,35,-242,29,88,2,-8
11095,35,-240,28,82,2,-9
11100,38,-243,34,77,0,-8
11105,37,-242,25,71,0,-9
11110,35,-243,30,65,1,-9
11115,34,-244,32,60,-2,-8
11120,35,-242,29,56,-1,-8
11125,37,-244,29,52,-1,-7
11130,36,-245,26,49,0,-6
11135,35,-244,32,49,0,-5
11140,38,-243,29,49,1,-5
11145,32,-243,30,51,3,-7
11150,36,-248,30,55,5,-6
11155,35,-246,31,57,5,-5
11160,32,-246,30,58,5,-5
11165,34,-245,32,60,4,-4
11170,38,-246,33,61,5,-5
11175,38,-246,33,62,5,-5
11180,34,-255,42,63,7,-4
11185,35,-245,33,63,9,-3
11190,36,-246,30,66,10,-5
11195,34,-242,33,66,11,-5
11200,34,-243,34,64,10,-6
11205,36,-245,34,65,10,-5
11210,34,-242,32,63,10,-3
11215,35,-241,34,62,7,-5
11220,34,-243,31,64,5,-5
11225,35,-244,31,62,2,-3
11230,38,-232,32,63,1,-2
11235,43,-246,32,64,-1,1
11240,35,-245,32,65,-1,-1
11245,35,-242,34,66,-2,0
11250,39,-244,31,66,-3,1
11255,37,-245,33,67,-2,-1
11260,35,-246,34,67,-2,0
11265,34,-242,32,67,-2,1
11270,34,-244,31,67,-4,2
11275,35,-245,31,68,-5,4
11280,34,-246,28,69,-4,3
11285,37,-246,33,70,-2,4
11290,34,-245,34,71,-2,4
11295,36,-246,28,70,0,2
11300,37,-247,30,71,1,2
11305,35,-246,33,73,2,2
11310,33,-245,34,70,2,-1
11315,32,-242,35,70,2,1
11320,35,-246,30,68,2,0
11325,34,-244,33,67,2,1
11330,37,-244,35,64,1,1
11335,35,-243,34,62,1,1
11340,36,-246,32,57,0,3
11345,26,-243,37,55,-1,0
11350,32,-241,34,54,-2,0
11355,33,-245,31,53,-2,0
11360,37,-245,35,52,-4,1
11365,36,-245,36,53,-4,2
11370,36,-242,32,53,-6,3
11375,39,-243,36,54,-9,1
11380,32,-239,34,53,-11,2
11385,35,-243,33,51,-13,4
11390,34,-243,32,50,-15,7
11395,38,-246,35,50,-17,8
11400,35,-243,32,50,-16,8
11405,34,-245,32,51,-15,6
11410,35,-243,34,52,-13,4
11415,34,-244,33,52,-12,2
11420,37,-247,35,54,-9,1
11425,35,-243,31,55,-6,-1
11430,36,-247,30,56,-4,-3
11435,35,-246,35,57,0,-5
11440,34,-244,30,59,3,-6
11445,35,-241,33,60,4,-8
11450,33,-243,36,60,6,-9
11455,36,-245,34,60,7,-11
11460,35,-244,32,61,7,-11
11465,36,-246,32,60,7,-11
11470,37,-246,32,61,6,-11
11475,34,-246,31,62,7,-11
11480,34,-240,28,62,8,-9
11485,34,-244,34,63,10,-7
11490,34,-243,35,67,11,-7
11495,36,-245,35,68,13,-6
11500,37,-247,34,69,14,-7
11505,34,-244,31,69,16,-8
11510,36,-243,33,64,15,-10
11515,38,-243,34,58,16,-11
11520,37,-246,34,50,15,-12
11525,35,-240,33,43,14,-12
11530,36,-246,36,38,15,-12
11535,36,-242,36,33,13,-10
11540,34,-246,36,33,13,-10
11545,36,-244,31,33,12,-11
11550,33,-246,30,34,14,-11
11555,36,-245,34,40,13,-12
11560,34,-245,38,46,13,-10
11565,34,-243,34,52,12,-9
11570,33,-245,33,60,12,-10
11575,35,-242,36,68,13,-12
11580,33,-242,36,72,13,-12
11585,34,-243,33,74,12,-10
11590,33,-244,32,76,12,-9
11595,33,-241,32,76,14,-6
11600,36,-241,31,75,13,-5
11605,37,-244,36,74,15,-6
11610,41,-249,27,73,15,-8
11615,35,-247,32,72,17,-9
11620,34,-243,31,69,17,-10
11625,36,-243,30,67,18,-9
11630,34,-247,33,65,18,-10
11635,35,-247,32,64,18,-10
11640,33,-245,32,61,17,-10
11645,34,-245,36,60,18,-12
11650,36,-244,33,61,17,-12
11655,35,-246,32,61,17,-12
11660,48,-245,35,62,17,-14
11665,35,-247,19,64,17,-13
11670,35,-247,34,65,17,-14
11675,32,-244,29,68,18,-13
11680,30,-241,33,68,21,-12
11685,36,-248,33,68,20,-11
11690,35,-244,31,67,21,-13
11695,33,-246,32,66,22,-10
11700,32,-246,34,66,23,-12
11705,36,-245,31,66,22,-13
11710,37,-245,34,67,24,-11
11715,32,-244,30,67,23,-10
11720,35,-242,34,67,25,-13
11725,31,-241,32,67,25,-12
11730,35,-244,36,68,26,-12
11735,35,-241,36,68,25,-14
11740,32,-241,32,67,26,-13
11745,30,-242,30,66,25,-15
11750,34,-243,37,65,25,-15
11755,34,-245,39,63,23,-16
11760,34,-246,35,62,24,-15
11765,34,-245,32,64,25,-16
11770,34,-246,36,64,25,-15
11775,31,-242,31,66,23,-14
11780,30,-242,36,68,22,-15
11785,34,-241,34,69,22,-18
11790,33,-244,34,70,20,-17
11795,35,-241,37,68,20,-16
11800,33,-239,33,66,18,-17
11805,35,-241,32,62,17,-15
11810,35,-243,32,57,18,-14
11815,35,-240,35,53,17,-14
11820,36,-244,33,49,17,-13
11825,33,-240,30,47,18,-12
11830,35,-243,31,44,19,-13
11835,34,-248,35,43,20,-11
11840,35,-246,33,42,21,-13
11845,34,-248,33,43,21,-11
11850,35,-246,32,44,22,-12
11855,34,-246,34,46,21,-13
11860,32,-246,33,49,22,-11
11865,34,-246,36,53,24,-11
11870,33,-247,33,58,23,-13
11875,32,-245,33,63,24,-15
11880,36,-246,29,66,23,-16
11885,36,-244,33,67,23,-15
11890,34,-244,31,68,22,-16
11895,32,-245,32,68,23,-16
11900,32,-242,35,65,23,-14
11905,33,-242,32,62,23,-15
11910,33,-240,32,57,23,-16
11915,31,-242,31,55,23,-14
11920,36,-245,35,51,23,-15
11925,36,-242,39,47,21,-13
11930,35,-242,34,46,21,-14
11935,34,-245,34,45,20,-13
11940,36,-247,34,47,19,-12
11945,35,-243,38,48,17,-13
11950,34,-246,36,50,17,-13
11955,32,-243,37,52,17,-14
11960,35,-245,35,55,18,-14
11965,34,-245,35,55,19,-13
11970,32,-246,33,55,18,-13
11975,33,-242,33,53,19,-14
11980,32,-245,35,52,18,-15
11985,33,-242,33,50,18,-15
11990,36,-242,38,51,18,-15
11995,32,-244,34,51,19,-15
