timestamp,acc_x,acc_y,acc_z,gyro_x,gyro_y,gyro_z
0,62,-254,-39,-205,-791,70
5,65,-256,-38,-203,-794,72
10,66,-257,-40,-201,-797,78
15,65,-260,-37,-199,-801,81
20,64,-256,-41,-198,-805,85
25,63,-260,-39,-196,-810,90
30,65,-260,-44,-192,-815,95
35,65,-261,-43,-186,-821,96
40,63,-263,-48,-180,-827,102
45,65,-262,-48,-172,-831,105
50,64,-266,-51,-163,-834,109
55,63,-260,-56,-153,-835,114
60,63,-268,-53,-147,-832,118
65,64,-266,-54,-137,-827,123
70,62,-265,-54,-129,-823,125
75,63,-265,-52,-119,-817,128
80,65,-263,-59,-109,-812,132
85,65,-265,-57,-99,-804,135
90,68,-263,-54,-88,-794,137
95,69,-265,-58,-81,-783,139
100,68,-262,-54,-77,-775,140
105,72,-266,-55,-77,-769,141
110,73,-261,-56,-79,-767,143
115,71,-261,-57,-83,-768,142
120,68,-259,-52,-92,-769,141
125,68,-259,-59,-100,-774,139
130,69,-265,-54,-110,-776,134
135,66,-257,-58,-119,-778,129
140,66,-262,-56,-126,-778,125
145,66,-262,-54,-132,-781,121
150,63,-262,-55,-135,-784,115
155,64,-265,-54,-133,-790,108
160,63,-264,-56,-127,-800,103
165,62,-263,-50,-119,-810,100
170,57,-266,-54,-107,-817,94
175,60,-264,-53,-93,-827,88
180,60,-268,-56,-77,-833,84
185,62,-267,-55,-59,-837,78
190,63,-272,-52,-40,-842,73
195,64,-270,-57,-19,-846,69
200,64,-271,-53,4,-851,64
205,64,-269,-51,26,-854,62
210,65,-270,-53,47,-858,61
215,70,-272,-54,69,-862,61
220,69,-273,-50,92,-865,63
225,72,-272,-46,119,-868,64
230,73,-269,-44,145,-872,65
235,71,-264,-43,165,-877,66
240,75,-266,-40,190,-884,69
245,73,-261,-40,212,-888,70
250,71,-258,-41,224,-891,70
255,73,-257,-38,229,-892,73
260,72,-256,-45,221,-893,74
265,73,-254,-50,201,-890,74
270,72,-251,-48,168,-885,77
275,70,-257,-59,122,-878,77
280,65,-253,-62,70,-871,79
285,63,-252,-65,14,-861,80
290,63,-250,-77,-47,-851,81
295,59,-255,-77,-108,-840,76
300,59,-256,-89,-169,-825,67
305,56,-257,-91,-226,-808,53
310,56,-263,-94,-274,-793,34
315,54,-261,-96,-309,-776,9
320,56,-264,-91,-330,-757,-21
325,58,-266,-88,-333,-732,-52
330,56,-269,-90,-319,-703,-83
335,56,-268,-83,-290,-670,-114
340,51,-267,-81,-246,-635,-142
345,52,-269,-76,-195,-600,-164
350,44,-265,-76,-137,-565,-181
355,40,-264,-76,-80,-528,-191
360,36,-259,-76,-29,-494,-195
365,30,-255,-72,10,-464,-192
370,29,-254,-72,42,-437,-186
375,22,-247,-73,62,-416,-175
380,23,-243,-73,70,-404,-162
385,16,-241,-71,66,-399,-146
390,14,-237,-67,52,-402,-130
395,14,-236,-65,29,-415,-111
400,5,-234,-68,1,-435,-93
405,10,-234,-67,-32,-462,-76
410,6,-236,-66,-63,-497,-57
415,2,-238,-71,-94,-538,-35
420,2,-239,-68,-126,-578,-13
425,2,-241,-70,-159,-617,9
430,-1,-242,-67,-191,-649,33
435,-1,-246,-68,-221,-676,53
440,0,-249,-72,-251,-696,76
445,-2,-254,-80,-283,-711,95
450,-3,-256,-77,-312,-719,112
455,-3,-255,-87,-340,-720,125
460,-3,-264,-86,-364,-714,136
465,-4,-265,-85,-384,-701,144
470,-4,-272,-90,-396,-684,147
475,-5,-272,-92,-403,-667,149
480,-1,-280,-89,-404,-649,147
485,0,-280,-91,-397,-628,145
490,1,-281,-95,-383,-606,140
495,2,-285,-95,-360,-582,130
500,5,-286,-94,-336,-556,120
505,5,-287,-95,-304,-531,111
510,11,-293,-95,-268,-506,99
515,11,-289,-89,-230,-484,86
520,11,-287,-91,-186,-462,72
525,13,-286,-93,-144,-443,59
530,13,-282,-92,-104,-427,45
535,14,-281,-92,-70,-411,35
540,12,-278,-88,-39,-397,25
545,13,-274,-93,-18,-381,18
550,12,-269,-86,2,-366,10
555,11,-263,-85,18,-348,4
560,8,-263,-84,24,-330,-1
565,9,-257,-81,26,-309,-4
570,9,-257,-82,21,-289,-8
575,7,-256,-77,15,-269,-8
580,6,-253,-73,2,-255,-10
585,6,-256,-70,-9,-237,-9
590,5,-255,-72,-23,-219,-10
595,4,-256,-64,-36,-201,-10
600,0,-251,-71,-46,-184,-10
605,2,-255,-70,-57,-170,-12
610,6,-257,-67,-62,-156,-14
615,2,-259,-64,-64,-143,-15
620,1,-261,-64,-63,-131,-17
625,4,-260,-67,-57,-121,-19
630,3,-262,-65,-48,-114,-19
635,4,-264,-66,-38,-106,-18
640,4,-268,-66,-28,-102,-16
645,7,-265,-66,-18,-98,-15
650,6,-265,-65,-6,-94,-13
655,3,-264,-65,2,-91,-9
660,4,-267,-72,11,-86,-5
665,3,-265,-64,19,-79,0
670,7,-268,-67,22,-74,4
675,7,-263,-72,24,-68,7
680,6,-264,-72,28,-61,9
685,9,-261,-71,33,-53,8
690,9,-258,-72,40,-42,5
695,12,-257,-70,45,-29,0
700,12,-256,-72,52,-12,-5
705,10,-255,-69,58,8,-9
710,16,-254,-67,62,31,-16
715,12,-253,-68,68,56,-23
720,20,-256,-66,70,83,-29
725,22,-259,-60,68,112,-34
730,16,-256,-69,66,140,-39
735,17,-256,-69,59,169,-42
740,21,-258,-69,49,198,-44
745,20,-259,-75,38,226,-46
750,19,-257,-79,22,246,-50
755,17,-258,-76,11,259,-58
760,20,-258,-77,1,261,-66
765,25,-259,-75,-3,258,-78
770,30,-259,-68,3,256,-93
775,20,-262,-65,19,263,-110
780,27,-259,-63,44,282,-128
785,26,-258,-65,75,313,-143
790,22,-259,-68,108,352,-157
795,22,-260,-71,137,393,-167
800,17,-259,-73,157,431,-171
805,18,-260,-77,161,455,-168
810,16,-258,-78,152,465,-162
815,22,-258,-83,127,458,-150
820,17,-260,-82,91,440,-141
825,20,-258,-91,53,421,-133
830,17,-259,-84,21,399,-128
835,18,-262,-90,-4,378,-123
840,19,-264,-85,-19,350,-120
845,20,-269,-86,-26,322,-117
850,21,-265,-83,-23,290,-109
855,23,-266,-83,-16,261,-98
860,22,-264,-85,-4,237,-84
865,19,-261,-79,10,218,-68
870,22,-261,-79,24,206,-50
875,25,-260,-79,35,197,-32
880,29,-259,-76,46,194,-13
885,25,-256,-69,54,195,3
890,30,-256,-71,61,199,16
895,30,-254,-73,64,207,25
900,34,-253,-73,70,219,28
905,33,-250,-71,69,230,27
910,36,-251,-72,64,238,24
915,36,-248,-74,59,246,15
920,38,-250,-67,55,251,3
925,39,-251,-72,49,256,-8
930,36,-248,-67,44,262,-26
935,41,-252,-73,38,267,-43
940,38,-255,-66,32,273,-60
945,37,-254,-66,27,279,-74
950,32,-256,-67,22,286,-86
955,30,-254,-63,15,293,-92
960,31,-257,-69,7,300,-95
965,29,-256,-70,1,306,-94
970,26,-256,-69,-6,311,-90
975,29,-261,-73,-14,316,-81
980,24,-261,-71,-20,321,-71
985,23,-258,-72,-27,325,-59
990,23,-260,-73,-31,330,-48
995,17,-264,-82,-35,333,-38
1000,25,-263,-75,-38,337,-29
1005,26,-264,-78,-41,336,-23
1010,29,-266,-75,-42,331,-18
1015,30,-267,-76,-45,325,-16
1020,29,-267,-77,-45,318,-18
1025,36,-267,-79,-44,311,-19
1030,40,-272,-80,-40,303,-23
1035,41,-271,-75,-36,292,-27
1040,44,-269,-80,-32,284,-31
1045,41,-265,-81,-27,275,-35
1050,50,-262,-76,-24,269,-39
1055,42,-260,-76,-22,262,-42
1060,42,-261,-79,-25,256,-43
1065,44,-262,-75,-28,249,-42
1070,40,-259,-76,-34,243,-42
1075,41,-263,-73,-36,235,-39
1080,38,-261,-77,-42,230,-32
1085,38,-259,-71,-46,228,-27
1090,39,-260,-71,-49,226,-20
1095,34,-259,-71,-54,225,-15
1100,33,-254,-69,-51,224,-9
1105,32,-257,-71,-50,227,-2
1110,31,-258,-71,-47,228,4
1115,30,-257,-68,-44,229,9
1120,30,-257,-69,-39,230,14
1125,29,-256,-67,-35,227,20
1130,28,-257,-67,-31,224,24
1135,29,-256,-65,-30,221,26
1140,27,-256,-66,-31,218,30
1145,27,-254,-66,-35,214,31
1150,29,-255,-66,-37,212,32
1155,25,-254,-63,-43,211,30
1160,26,-252,-66,-48,210,26
1165,25,-253,-65,-57,211,22
1170,22,-250,-67,-67,212,18
1175,26,-249,-67,-80,214,11
1180,30,-252,-67,-93,217,4
1185,28,-251,-61,-104,222,-1
1190,33,-251,-65,-114,224,-5
1195,31,-249,-64,-122,227,-9
1200,32,-249,-65,-128,230,-12
1205,36,-251,-65,-133,232,-12
1210,37,-253,-65,-140,233,-14
1215,36,-255,-66,-147,231,-10
1220,36,-252,-66,-155,227,-8
1225,37,-254,-68,-163,221,-4
1230,39,-255,-69,-174,214,1
1235,35,-256,-68,-183,206,4
1240,36,-258,-75,-191,195,12
1245,36,-257,-75,-197,181,17
1250,35,-259,-74,-205,168,21
1255,34,-257,-74,-213,152,24
1260,36,-260,-80,-219,136,27
1265,41,-254,-74,-222,127,28
1270,37,-263,-76,-220,117,29
1275,39,-265,-80,-217,112,28
1280,38,-264,-74,-213,109,27
1285,38,-263,-79,-203,112,26
1290,38,-265,-77,-192,115,23
1295,40,-264,-76,-180,122,19
1300,41,-262,-80,-168,126,17
1305,42,-261,-76,-157,132,16
1310,43,-262,-78,-151,137,16
1315,44,-262,-83,-145,142,16
1320,45,-262,-81,-141,149,20
1325,41,-259,-78,-136,155,19
1330,46,-262,-77,-131,162,20
1335,43,-259,-75,-128,167,21
1340,44,-257,-77,-120,173,22
1345,44,-257,-71,-113,178,22
1350,49,-259,-73,-104,184,20
1355,48,-257,-69,-97,189,20
1360,49,-258,-75,-91,196,19
1365,48,-257,-71,-88,203,18
1370,46,-256,-67,-85,209,16
1375,45,-260,-77,-84,213,14
1380,48,-257,-71,-84,216,11
1385,44,-256,-67,-82,217,7
1390,46,-255,-70,-81,217,5
1395,44,-258,-69,-84,215,3
1400,41,-257,-71,-85,213,-1
1405,42,-257,-71,-85,212,-6
1410,41,-257,-78,-84,208,-11
1415,40,-256,-70,-83,203,-14
1420,38,-255,-77,-85,199,-17
1425,40,-256,-71,-87,194,-18
1430,35,-259,-76,-93,191,-20
1435,39,-256,-72,-102,186,-21
1440,42,-256,-74,-111,183,-20
1445,42,-257,-73,-121,178,-19
1450,41,-258,-69,-126,173,-17
1455,42,-260,-72,-134,169,-16
1460,41,-261,-73,-139,168,-12
1465,42,-259,-76,-139,167,-10
1470,45,-261,-71,-136,168,-7
1475,45,-265,-73,-131,167,-4
1480,42,-261,-77,-122,165,1
1485,45,-262,-72,-116,164,4
1490,46,-260,-75,-110,162,7
1495,42,-260,-76,-106,161,11
1500,49,-263,-76,-103,162,13
1505,48,-259,-75,-103,162,16
1510,45,-259,-77,-102,161,16
1515,47,-257,-71,-100,161,17
1520,47,-256,-76,-100,161,17
1525,46,-258,-71,-99,163,17
1530,51,-259,-72,-96,161,16
1535,49,-256,-76,-95,159,16
1540,50,-255,-73,-93,157,15
1545,49,-253,-74,-92,154,11
1550,49,-253,-73,-93,149,7
1555,52,-253,-68,-96,144,3
1560,50,-250,-68,-101,138,-3
1565,51,-252,-68,-109,137,-9
1570,49,-250,-67,-118,140,-16
1575,48,-250,-73,-129,143,-22
1580,49,-252,-72,-136,148,-30
1585,51,-252,-68,-146,157,-39
1590,47,-249,-73,-156,163,-48
1595,51,-253,-68,-167,170,-57
1600,51,-257,-71,-177,177,-68
1605,50,-256,-70,-185,182,-77
1610,47,-258,-70,-190,186,-85
1615,48,-258,-74,-196,184,-93
1620,52,-263,-74,-202,185,-99
1625,50,-264,-78,-208,186,-107
1630,48,-261,-77,-217,188,-110
1635,54,-266,-79,-224,186,-112
1640,52,-265,-82,-231,188,-113
1645,54,-267,-69,-233,187,-111
1650,52,-270,-82,-229,185,-109
1655,55,-269,-78,-220,181,-107
1660,55,-271,-76,-207,176,-104
1665,53,-271,-79,-188,168,-102
1670,51,-270,-74,-167,157,-101
1675,53,-270,-70,-146,148,-100
1680,49,-270,-68,-125,134,-97
1685,53,-271,-69,-107,124,-97
1690,52,-267,-66,-93,113,-96
1695,52,-268,-64,-78,101,-94
1700,48,-266,-58,-67,86,-92
1705,48,-267,-60,-55,74,-91
1710,49,-265,-56,-48,60,-88
1715,44,-263,-52,-42,47,-87
1720,45,-264,-54,-35,32,-85
1725,43,-262,-53,-31,18,-85
1730,40,-262,-54,-26,3,-84
1735,43,-263,-52,-24,-15,-86
1740,35,-256,-52,-23,-33,-86
1745,40,-260,-51,-25,-50,-86
1750,38,-257,-52,-30,-71,-85
1755,37,-257,-56,-36,-93,-81
1760,40,-259,-51,-43,-115,-78
1765,38,-258,-55,-48,-139,-70
1770,40,-261,-55,-49,-162,-61
1775,41,-259,-56,-49,-187,-55
1780,40,-259,-59,-45,-211,-45
1785,43,-260,-58,-39,-241,-35
1790,44,-261,-58,-30,-272,-25
1795,46,-260,-55,-18,-305,-14
1800,47,-260,-52,-6,-336,-2
1805,50,-260,-48,4,-368,7
1810,52,-261,-55,13,-398,19
1815,53,-262,-53,20,-428,27
1820,54,-265,-55,24,-456,35
1825,55,-265,-53,26,-483,42
1830,54,-267,-55,26,-505,49
1835,56,-268,-55,24,-526,55
1840,56,-270,-56,24,-541,59
1845,58,-270,-55,23,-551,66
1850,56,-267,-59,22,-557,70
1855,59,-269,-60,22,-560,71
1860,58,-273,-60,27,-560,74
1865,62,-272,-59,34,-557,76
1870,60,-271,-60,46,-555,78
1875,62,-272,-60,59,-550,77
1880,62,-272,-62,81,-547,77
1885,62,-271,-60,106,-542,80
1890,61,-266,-62,126,-536,81
1895,62,-266,-62,148,-529,84
1900,66,-264,-63,170,-522,84
1905,67,-260,-63,190,-513,87
1910,66,-260,-62,209,-504,88
1915,68,-257,-61,225,-495,91
1920,70,-257,-64,239,-485,93
1925,71,-257,-64,244,-476,95
1930,71,-256,-67,244,-467,98
1935,68,-256,-66,231,-459,102
1940,70,-255,-70,210,-452,105
1945,68,-256,-67,178,-448,109
1950,71,-259,-67,140,-447,112
1955,71,-264,-69,105,-444,111
1960,72,-265,-69,72,-442,108
1965,69,-264,-74,49,-435,106
1970,65,-269,-73,34,-425,102
1975,65,-275,-76,26,-414,96
1980,64,-277,-80,20,-401,88
1985,64,-281,-83,17,-390,78
1990,63,-280,-88,10,-381,66
1995,63,-279,-88,5,-377,53
2000,59,-285,-91,3,-370,35
2005,59,-284,-88,1,-365,16
2010,60,-286,-84,11,-356,-5
2015,65,-285,-80,27,-341,-29
2020,68,-287,-77,54,-325,-55
2025,65,-280,-78,92,-306,-80
2030,64,-275,-71,137,-287,-103
2035,63,-272,-69,190,-269,-122
2040,62,-268,-65,247,-256,-138
2045,62,-265,-70,304,-244,-150
2050,60,-257,-61,344,-237,-156
2055,60,-255,-60,390,-232,-158
2060,56,-253,-59,424,-229,-154
2065,55,-242,-57,448,-230,-149
2070,52,-241,-59,454,-231,-137
2075,50,-236,-51,447,-235,-124
2080,51,-235,-57,427,-239,-109
2085,47,-232,-55,397,-246,-95
2090,47,-230,-55,357,-254,-78
2095,46,-229,-53,312,-266,-67
2100,46,-233,-50,263,-280,-53
2105,48,-233,-50,213,-296,-40
2110,45,-238,-52,166,-311,-28
2115,42,-240,-51,118,-330,-19
2120,41,-242,-55,72,-351,-7
2125,38,-243,-58,29,-374,3
2130,41,-247,-59,-10,-395,10
2135,42,-250,-57,-44,-416,15
2140,38,-255,-61,-72,-433,18
2145,39,-257,-59,-94,-445,18
2150,41,-259,-61,-107,-454,15
2155,37,-259,-63,-117,-459,10
2160,35,-264,-64,-119,-463,3
2165,33,-264,-63,-116,-464,-4
2170,29,-263,-63,-106,-465,-12
2175,27,-266,-64,-90,-466,-23
2180,24,-272,-64,-70,-468,-32
2185,16,-268,-75,-45,-470,-41
2190,14,-267,-66,-19,-471,-49
2195,12,-265,-71,8,-471,-54
2200,9,-266,-73,40,-471,-57
2205,6,-265,-74,71,-470,-56
2210,5,-263,-78,98,-469,-56
2215,1,-257,-80,121,-470,-51
2220,0,-255,-81,143,-474,-45
2225,1,-257,-81,164,-477,-40
2230,4,-249,-81,175,-485,-34
2235,-1,-243,-89,181,-495,-29
2240,0,-240,-89,178,-507,-24
2245,-2,-237,-90,168,-524,-19
2250,-3,-233,-93,148,-544,-18
2255,-1,-232,-94,122,-565,-17
2260,-1,-228,-98,90,-589,-20
2265,0,-226,-92,55,-614,-23
2270,0,-222,-92,20,-632,-28
2275,3,-228,-91,-15,-649,-32
2280,5,-227,-88,-49,-662,-35
2285,9,-227,-86,-81,-670,-37
2290,9,-234,-78,-107,-669,-39
2295,13,-236,-76,-130,-658,-42
2300,15,-236,-77,-152,-636,-44
2305,17,-242,-79,-171,-609,-43
2310,16,-240,-80,-198,-582,-38
2315,19,-245,-83,-232,-555,-28
2320,17,-244,-83,-272,-532,-14
2325,19,-248,-85,-309,-509,0
2330,23,-251,-81,-346,-488,14
2335,22,-253,-89,-383,-464,24
2340,21,-258,-86,-413,-440,31
2345,18,-258,-83,-437,-416,40
2350,17,-266,-85,-449,-390,46
2355,14,-264,-84,-447,-362,47
2360,13,-273,-78,-434,-332,49
2365,9,-267,-79,-414,-297,46
2370,8,-265,-78,-391,-260,43
2375,4,-263,-71,-369,-226,41
2380,3,-263,-76,-350,-192,41
2385,1,-260,-80,-342,-164,40
2390,0,-257,-74,-339,-145,45
2395,-1,-255,-81,-341,-134,50
2400,-6,-245,-76,-347,-131,55
2405,-1,-245,-83,-350,-132,58
2410,0,-237,-86,-353,-140,56
2415,1,-230,-87,-353,-158,51
2420,5,-224,-82,-347,-174,43
2425,9,-217,-83,-338,-192,30
2430,13,-210,-78,-326,-207,16
2435,16,-201,-78,-320,-214,-1
2440,17,-197,-75,-319,-215,-15
2445,18,-191,-76,-326,-207,-26
2450,18,-186,-79,-341,-194,-32
2455,22,-183,-76,-366,-178,-34
2460,17,-182,-85,-395,-162,-34
2465,21,-181,-87,-428,-148,-28
2470,25,-184,-89,-464,-136,-24
2475,27,-180,-93,-502,-119,-22
2480,29,-183,-98,-545,-96,-21
2485,33,-183,-98,-593,-61,-17
2490,34,-187,-102,-631,-18,-16
2495,38,-189,-108,-681,31,-13
2500,36,-192,-113,-729,76,-15
2505,36,-193,-110,-778,112,-20
2510,40,-197,-120,-822,130,-32
2515,43,-203,-120,-854,141,-47
2520,46,-205,-120,-875,138,-68
2525,46,-205,-113,-885,126,-89
2530,46,-203,-110,-879,112,-105
2535,44,-206,-102,-862,100,-125
2540,41,-201,-105,-834,95,-144
2545,39,-196,-98,-799,100,-156
2550,35,-197,-96,-764,116,-161
2555,39,-193,-93,-734,139,-160
2560,35,-191,-94,-716,170,-155
2565,33,-184,-97,-703,207,-146
2570,36,-187,-91,-701,247,-131
2575,36,-184,-90,-704,284,-114
2580,33,-183,-91,-713,315,-94
2585,30,-180,-93,-728,340,-73
2590,29,-183,-95,-743,355,-50
2595,25,-181,-97,-761,358,-33
2600,28,-189,-103,-778,353,-19
2605,21,-187,-105,-798,338,-9
2610,13,-182,-109,-823,322,0
2615,9,-188,-114,-854,304,3
2620,12,-189,-118,-893,285,2
2625,8,-188,-126,-937,265,0
2630,8,-193,-127,-987,248,-7
2635,7,-195,-127,-1032,228,-15
2640,12,-200,-124,-1067,208,-25
2645,14,-206,-124,-1086,188,-40
2650,12,-212,-124,-1087,168,-55
2655,16,-217,-123,-1075,148,-70
2660,14,-217,-119,-1049,129,-86
2665,10,-215,-116,-1012,112,-101
2670,12,-206,-106,-968,96,-111
2675,14,-210,-105,-924,80,-117
2680,14,-205,-105,-884,64,-115
2685,14,-200,-103,-855,52,-108
2690,15,-196,-99,-833,42,-97
2695,17,-193,-94,-815,33,-82
2700,17,-188,-95,-797,23,-66
2705,21,-190,-97,-782,9,-48
2710,21,-188,-93,-768,-9,-32
2715,19,-187,-98,-753,-30,-19
2720,29,-189,-99,-743,-53,-11
2725,32,-188,-109,-734,-76,-5
2730,32,-189,-106,-732,-103,-7
2735,28,-187,-111,-735,-135,-11
2740,27,-186,-111,-740,-167,-15
2745,27,-190,-112,-750,-203,-21
2750,27,-193,-116,-765,-238,-27
2755,26,-197,-123,-779,-268,-35
2760,18,-195,-124,-795,-294,-47
2765,21,-206,-124,-806,-309,-63
2770,22,-214,-126,-815,-320,-79
2775,16,-217,-126,-817,-324,-99
2780,17,-226,-124,-813,-321,-115
2785,18,-231,-128,-805,-312,-127
2790,19,-240,-126,-783,-294,-136
2795,16,-246,-126,-753,-271,-140
2800,14,-248,-122,-712,-251,-141
2805,17,-253,-123,-660,-235,-139
2810,17,-257,-121,-606,-225,-128
2815,17,-262,-120,-552,-213,-111
2820,21,-264,-124,-508,-214,-83
2825,20,-268,-122,-468,-223,-50
2830,24,-269,-125,-435,-243,-9
2835,18,-275,-119,-409,-268,37
2840,31,-278,-120,-384,-296,87
2845,35,-277,-120,-359,-321,132
2850,39,-279,-124,-328,-347,177
2855,44,-282,-124,-294,-376,218
2860,47,-282,-124,-256,-406,248
2865,55,-280,-127,-216,-433,268
2870,58,-274,-130,-179,-454,276
2875,58,-270,-133,-146,-465,272
2880,63,-264,-136,-120,-465,256
2885,67,-259,-140,-96,-452,231
2890,71,-257,-142,-74,-427,193
2895,72,-254,-143,-52,-388,145
2900,68,-246,-147,-30,-340,91
2905,72,-239,-141,-7,-278,36
2910,63,-238,-145,12,-210,-26
2915,63,-235,-146,32,-135,-65
2920,52,-231,-148,47,-64,-105
2925,54,-233,-150,56,-12,-125
2930,46,-234,-154,58,42,-133
2935,49,-232,-152,57,80,-134
2940,47,-233,-162,66,101,-134
2945,50,-238,-157,72,113,-117
2950,59,-240,-164,68,117,-97
2955,58,-247,-167,71,111,-78
2960,62,-250,-172,70,102,-53
2965,66,-255,-178,55,89,-26
2970,65,-261,-179,28,73,3
2975,63,-263,-182,-12,58,32
2980,68,-274,-183,-57,44,57
2985,68,-276,-183,-101,36,64
2990,62,-282,-183,-141,37,69
2995,66,-293,-182,-169,45,59
3000,61,-298,-177,-178,61,44
3005,53,-303,-176,-173,82,26
3010,56,-306,-175,-159,106,-8
3015,46,-302,-176,-130,131,-45
3020,42,-300,-171,-110,166,-70
3025,43,-290,-164,-105,210,-83
3030,32,-280,-165,-103,252,-115
3035,28,-275,-173,-113,286,-129
3040,24,-262,-173,-145,309,-142
3045,19,-257,-170,-178,314,-156
3050,25,-251,-177,-235,316,-148
3055,16,-248,-175,-315,297,-136
3060,34,-251,-171,-393,271,-114
3065,25,-251,-181,-447,235,-113
3070,47,-247,-178,-505,200,-89
3075,41,-249,-184,-557,166,-82
3080,33,-256,-192,-610,144,-72
3085,31,-257,-192,-693,125,-43
3090,41,-259,-189,-759,109,-10
3095,46,-263,-191,-791,98,13
3100,42,-268,-194,-789,89,13
3105,53,-272,-195,-766,83,19
3110,55,-267,-199,-728,90,26
3115,38,-278,-218,-652,107,0
3120,40,-272,-223,-598,127,5
3125,43,-267,-226,-570,135,2
3130,49,-267,-230,-535,141,-5
3135,53,-262,-224,-526,147,-3
3140,45,-261,-230,-530,155,1
3145,53,-253,-216,-549,168,25
3150,44,-253,-222,-538,192,37
3155,46,-246,-225,-540,213,55
3160,45,-233,-236,-562,228,74
3165,56,-234,-213,-603,247,86
3170,29,-235,-214,-600,272,70
3175,19,-249,-222,-530,255,38
3180,16,-240,-223,-411,233,9
3185,43,-242,-215,-301,213,0
3190,38,-235,-216,-193,218,-11
3195,38,-225,-214,-124,229,-5
3200,38,-219,-213,-107,235,-1
3205,29,-212,-215,-109,242,-2
3210,33,-229,-206,-122,236,7
3215,39,-224,-188,-130,213,14
3220,37,-232,-187,-88,222,-28
3225,21,-229,-205,-64,230,-47
3230,17,-225,-205,-143,205,-24
3235,13,-235,-202,-246,174,-6
3240,11,-235,-194,-314,130,0
3245,12,-247,-210,-343,81,5
3250,8,-237,-202,-360,47,22
3255,26,-234,-206,-375,28,44
3260,13,-233,-220,-390,29,49
3265,5,-227,-218,-406,20,58
3270,20,-229,-232,-447,6,78
3275,46,-229,-227,-490,5,101
3280,51,-234,-218,-485,29,120
3285,51,-233,-222,-462,53,128
3290,54,-232,-222,-454,52,118
3295,63,-232,-217,-457,43,96
3300,72,-230,-214,-459,37,93
3305,66,-232,-211,-451,41,118
3310,64,-222,-216,-443,54,110
3315,60,-216,-225,-443,72,113
3320,53,-219,-222,-475,71,133
3325,48,-225,-224,-529,74,159
3330,29,-221,-211,-579,77,161
3335,43,-227,-218,-598,50,108
3340,48,-220,-228,-588,10,87
3345,21,-243,-222,-559,25,106
3350,48,-214,-215,-583,11,27
3355,50,-241,-224,-611,-19,11
3360,27,-240,-212,-574,30,65
3365,27,-241,-215,-528,76,93
3370,0,-242,-214,-505,94,105
3375,6,-241,-219,-481,71,90
3380,-44,-242,-201,-423,36,94
3385,6,-237,-226,-351,7,122
3390,-201,-194,-26,-292,19,165
3395,160,-284,-242,-337,-683,-237
3400,36,-260,-253,-842,-840,-499
3405,56,-231,-277,-1029,-680,-507
3410,105,-208,-280,-982,-512,-478
3415,34,-240,-281,-748,-319,-266
3420,58,-221,-232,-480,-238,-183
3425,97,-192,-266,-204,-261,-111
3430,65,-201,-274,93,-168,21
3435,28,-203,-255,367,-26,93
3440,33,-209,-233,567,50,94
3445,37,-215,-222,686,62,86
3450,34,-221,-220,740,49,82
3455,35,-224,-211,766,32,79
3460,32,-219,-206,774,16,76
3465,32,-218,-204,771,8,70
3470,33,-216,-203,768,2,65
3475,31,-214,-197,767,0,62
3480,37,-217,-202,781,2,57
3485,38,-218,-202,804,3,49
3490,39,-216,-203,835,7,40
3495,42,-226,-204,874,9,35
3500,46,-235,-203,920,6,32
3505,39,-248,-201,961,6,35
3510,39,-257,-201,999,8,38
3515,37,-268,-209,1032,13,41
3520,29,-277,-217,1058,17,42
3525,24,-286,-231,1071,13,44
3530,23,-299,-242,1089,2,41
3535,16,-313,-243,1128,-15,34
3540,10,-325,-250,1195,-34,17
3545,17,-330,-249,1291,-56,-8
3550,17,-333,-241,1402,-79,-36
3555,18,-331,-233,1525,-103,-65
3560,17,-326,-224,1648,-123,-94
3565,12,-321,-211,1765,-141,-114
3570,13,-311,-200,1878,-162,-115
3575,14,-298,-188,1982,-180,-111
3580,21,-284,-174,2077,-191,-98
3585,23,-266,-155,2158,-196,-76
3590,29,-247,-141,2206,-191,-52
3595,29,-224,-120,2215,-178,-28
3600,29,-210,-106,2183,-156,-18
3605,32,-199,-91,2121,-130,-6
3610,37,-193,-79,2033,-100,-2
3615,34,-188,-70,1930,-68,-7
3620,38,-184,-66,1815,-39,-15
3625,36,-182,-71,1702,-20,-24
3630,37,-179,-71,1585,-7,-33
3635,41,-189,-76,1479,-6,-34
3640,35,-194,-90,1395,-9,-29
3645,37,-203,-105,1358,-12,-15
3650,37,-203,-105,1359,-14,-1
3655,32,-209,-110,1398,-15,9
3660,36,-215,-114,1466,-8,16
3665,35,-219,-110,1543,7,22
3670,34,-231,-110,1626,32,28
3675,37,-236,-110,1714,50,24
3680,35,-239,-100,1798,71,12
3685,31,-243,-94,1876,87,1
3690,23,-248,-93,1949,95,-4
3695,24,-253,-83,2020,98,-4
3700,24,-258,-83,2087,93,-11
3705,21,-261,-66,2134,83,-22
3710,15,-267,-65,2185,67,-23
3715,20,-275,-59,2232,51,-12
3720,20,-276,-58,2265,30,-7
3725,19,-280,-53,2270,12,-10
3730,24,-281,-58,2236,-12,-28
3735,23,-276,-58,2156,-32,-54
3740,19,-271,-50,2043,-42,-74
3745,29,-271,-56,1914,-38,-75
3750,36,-265,-55,1767,-24,-80
3755,29,-260,-56,1613,-2,-88
3760,25,-262,-54,1457,26,-87
3765,28,-259,-55,1303,57,-81
3770,29,-262,-48,1159,86,-75
3775,33,-258,-52,1027,106,-69
3780,28,-258,-47,913,115,-63
3785,30,-258,-49,817,121,-48
3790,30,-259,-46,741,118,-30
3795,30,-254,-49,675,107,-11
3800,36,-255,-47,628,90,8
3805,37,-260,-49,597,65,17
3810,34,-256,-50,588,39,20
3815,21,-252,-50,598,17,18
3820,32,-251,-44,609,6,36
3825,38,-250,-38,626,0,32
3830,31,-250,-36,663,-6,4
3835,28,-249,-36,706,-5,-20
3840,26,-247,-38,742,6,-37
3845,22,-249,-29,767,24,-51
3850,20,-248,-34,785,44,-60
3855,21,-247,-30,792,62,-67
3860,19,-248,-32,793,78,-74
3865,23,-246,-27,781,82,-79
3870,18,-250,-23,758,75,-82
3875,15,-251,-24,722,64,-72
3880,17,-253,-23,680,48,-55
3885,21,-252,-18,637,29,-36
3890,21,-252,-17,591,7,-21
3895,24,-254,-19,549,-20,-10
3900,18,-252,-20,500,-45,0
3905,25,-255,-16,445,-70,15
3910,26,-252,-19,386,-95,32
3915,23,-253,-15,322,-115,48
3920,33,-255,-11,263,-135,57
3925,37,-253,-9,216,-152,52
3930,33,-254,-13,175,-166,39
3935,36,-253,-16,133,-176,32
3940,31,-252,-13,85,-180,27
3945,41,-252,-10,46,-177,17
3950,37,-249,-5,25,-175,-1
3955,38,-255,-8,8,-167,-14
3960,45,-254,-5,-7,-157,-23
3965,47,-256,0,-16,-146,-31
3970,37,-250,-6,-18,-139,-40
3975,43,-250,-6,-17,-129,-44
3980,42,-248,-3,-18,-121,-39
3985,49,-249,-4,-19,-109,-32
3990,48,-254,-7,-17,-94,-24
3995,47,-254,-1,-21,-75,-11
4000,49,-256,-11,-33,-59,3
4005,51,-259,-9,-55,-50,11
4010,42,-259,-12,-84,-50,14
4015,47,-261,-17,-116,-53,14
4020,47,-265,-20,-143,-60,0
4025,47,-268,-13,-152,-66,-24
4030,44,-267,-19,-134,-67,-48
4035,38,-271,-23,-102,-60,-65
4040,40,-270,-25,-58,-41,-73
4045,42,-272,-27,-3,-14,-79
4050,47,-269,-26,51,20,-78
4055,45,-269,-24,102,56,-78
4060,51,-266,-23,145,90,-75
4065,50,-265,-20,181,116,-79
4070,49,-261,-26,206,133,-82
4075,51,-255,-19,222,145,-86
4080,54,-258,-13,227,152,-88
4085,50,-256,-11,224,155,-95
4090,49,-254,-5,216,152,-102
4095,45,-254,-2,204,146,-106
4100,44,-254,0,188,138,-112
4105,38,-251,4,176,129,-115
4110,38,-256,9,167,115,-116
4115,38,-254,13,157,99,-114
4120,35,-251,9,149,79,-108
4125,36,-250,9,132,59,-98
4130,31,-250,9,111,39,-86
4135,37,-249,6,79,20,-73
4140,31,-244,4,39,3,-59
4145,29,-245,4,-6,-13,-45
4150,31,-246,1,-56,-27,-31
4155,32,-247,3,-90,-37,-19
4160,34,-250,-3,-125,-40,-13
4165,33,-255,-2,-148,-37,-10
4170,32,-255,-6,-160,-29,-10
4175,31,-256,-7,-157,-19,-11
4180,37,-261,-5,-145,-3,-15
4185,41,-263,-5,-124,17,-18
4190,41,-261,-1,-96,34,-25
4195,44,-267,-14,-65,53,-28
4200,43,-268,-9,-31,68,-36
4205,44,-265,-9,5,77,-40
4210,46,-268,-15,35,75,-41
4215,46,-264,-14,61,67,-41
4220,47,-266,-13,75,59,-37
4225,46,-259,-12,78,50,-26
4230,47,-262,-15,76,39,-26
4235,43,-258,-15,68,29,-28
4240,45,-264,-21,50,22,-20
4245,51,-256,-13,27,15,-20
4250,49,-257,-14,6,11,-23
4255,48,-259,-14,-11,9,-25
4260,48,-259,-12,-33,9,-23
4265,46,-257,-13,-51,8,-21
4270,41,-258,-9,-66,9,-16
4275,42,-259,-11,-80,10,-12
4280,39,-259,-5,-89,12,-9
4285,42,-260,-6,-93,16,-4
4290,42,-260,-7,-92,18,-2
4295,39,-257,-9,-86,21,-1
4300,41,-261,-15,-81,26,-2
4305,40,-258,-12,-73,32,-2
4310,41,-256,-13,-67,37,-5
4315,39,-255,-12,-63,44,-6
4320,39,-255,-17,-60,51,-8
4325,43,-256,-18,-56,59,-13
4330,41,-255,-18,-54,66,-16
4335,41,-252,-21,-59,71,-19
4340,43,-251,-17,-62,76,-22
4345,37,-252,-17,-70,77,-22
4350,41,-251,-18,-75,76,-20
4355,44,-255,-17,-79,71,-19
4360,48,-259,-14,-81,67,-17
4365,45,-260,-14,-80,59,-15
4370,42,-257,-13,-75,51,-11
4375,47,-263,-16,-67,41,-7
4380,43,-262,-13,-53,33,-3
4385,40,-266,-14,-36,23,5
4390,42,-266,-12,-19,12,9
4395,37,-263,-10,-7,3,13
4400,41,-269,-12,0,-7,15
4405,35,-266,-12,5,-15,15
4410,32,-262,-12,5,-22,15
4415,31,-261,-8,3,-27,15
4420,30,-257,-5,-2,-30,10
4425,29,-259,-12,-10,-31,5
4430,29,-261,-5,-19,-30,-2
4435,27,-258,-13,-34,-26,-7
4440,30,-261,-12,-48,-21,-12
4445,26,-258,-12,-65,-15,-16
4450,30,-258,-13,-76,-9,-18
4455,26,-256,-13,-88,-4,-17
4460,31,-256,-16,-94,1,-18
4465,27,-260,-14,-93,4,-18
4470,30,-259,-20,-89,6,-20
4475,32,-261,-17,-80,9,-20
4480,34,-260,-15,-72,10,-20
4485,35,-262,-21,-66,11,-19
4490,32,-259,-16,-58,11,-18
4495,37,-262,-14,-50,11,-14
4500,37,-263,-9,-41,8,-11
4505,35,-260,-16,-34,1,-7
4510,37,-262,-14,-26,-7,-2
4515,33,-270,-19,-20,-14,-1
4520,35,-263,-14,-16,-20,5
4525,35,-264,-12,-10,-25,5
4530,34,-265,-10,2,-30,8
4535,33,-265,-12,14,-35,11
4540,34,-264,-11,30,-40,12
4545,29,-258,-11,41,-45,11
4550,34,-262,-10,50,-49,11
4555,33,-260,-14,53,-50,10
4560,31,-256,-8,53,-51,8
4565,39,-256,-12,49,-52,6
4570,34,-259,-7,46,-50,2
4575,35,-258,-8,38,-48,1
4580,33,-256,-10,30,-47,-1
4585,38,-258,-9,23,-45,-1
4590,36,-257,-10,19,-44,-3
4595,34,-257,-7,15,-43,-5
4600,34,-261,-11,10,-40,-6
4605,33,-257,-8,4,-40,-5
4610,36,-257,-4,-1,-41,-2
4615,36,-256,-7,-8,-42,-1
4620,35,-257,-9,-17,-45,1
4625,35,-259,-11,-23,-49,1
4630,39,-258,-11,-29,-51,2
4635,36,-257,-11,-36,-54,2
4640,34,-258,-13,-44,-59,3
4645,35,-260,-12,-46,-61,4
4650,38,-257,-14,-48,-65,5
4655,36,-257,-9,-51,-70,4
4660,36,-257,-13,-52,-74,4
4665,37,-258,-10,-51,-79,3
4670,36,-257,-8,-50,-83,1
4675,34,-257,-7,-46,-85,-2
4680,34,-258,-11,-43,-87,-2
4685,36,-260,-6,-36,-89,-2
4690,36,-263,-10,-30,-91,-2
4695,38,-261,-13,-24,-93,-2
4700,36,-264,-6,-19,-94,-3
4705,36,-263,-14,-13,-93,-4
4710,39,-263,-12,-10,-91,-4
4715,39,-263,-9,-7,-89,-3
4720,42,-265,-12,-4,-89,-4
4725,37,-261,-15,-3,-86,-4
4730,38,-261,-14,-3,-82,-5
4735,37,-259,-6,-3,-78,-5
4740,38,-259,-11,-4,-74,-6
4745,38,-261,-8,-8,-69,-7
4750,38,-263,-11,-8,-65,-8
4755,40,-259,-13,-6,-62,-10
4760,38,-258,-11,-2,-61,-13
4765,38,-259,-9,-1,-59,-14
4770,42,-256,-8,2,-58,-16
4775,40,-256,-9,3,-55,-18
4780,42,-256,-13,0,-53,-21
4785,46,-257,-7,-4,-49,-21
4790,44,-256,-14,-8,-46,-23
4795,45,-255,-10,-13,-42,-25
4800,45,-257,-12,-21,-38,-25
4805,44,-256,-16,-26,-37,-25
4810,43,-257,-10,-34,-38,-28
4815,43,-258,-14,-39,-37,-27
4820,43,-258,-10,-40,-34,-30
4825,41,-260,-23,-41,-31,-30
4830,44,-261,-15,-37,-29,-31
4835,42,-266,-14,-30,-25,-31
4840,42,-267,-19,-19,-22,-33
4845,40,-262,-13,-7,-19,-34
4850,40,-267,-18,9,-14,-35
4855,40,-264,-14,22,-10,-36
4860,37,-263,-15,36,-9,-35
4865,41,-263,-13,49,-5,-34
4870,42,-262,-11,59,-5,-35
4875,40,-260,-11,67,-3,-34
4880,39,-259,-12,69,-2,-32
4885,40,-258,-14,70,-2,-30
4890,40,-257,-13,68,-2,-28
4895,41,-257,-9,61,-2,-27
4900,42,-257,-6,55,-4,-23
4905,40,-257,-8,47,-3,-21
4910,42,-255,-5,38,-6,-19
4915,41,-258,-4,31,-10,-16
4920,42,-258,-10,25,-14,-15
4925,46,-261,-7,24,-17,-12
4930,43,-259,-5,30,-21,-12
4935,43,-259,-8,41,-21,-12
4940,44,-263,-5,51,-21,-14
4945,38,-262,-5,61,-19,-14
4950,45,-262,-13,73,-15,-16
4955,45,-261,-9,84,-8,-18
4960,44,-263,-11,96,-3,-22
4965,44,-259,-8,107,3,-26
4970,41,-260,-9,113,9,-29
4975,42,-257,-5,115,15,-31
4980,41,-259,-8,113,23,-33
4985,43,-258,-14,107,32,-33
4990,41,-256,-5,96,39,-34
4995,43,-257,-4,84,44,-32
5000,47,-257,1,72,48,-28
5005,43,-256,-4,61,47,-24
5010,45,-257,-1,54,43,-19
5015,43,-257,0,50,35,-17
5020,43,-257,1,44,27,-15
5025,42,-257,1,39,19,-12
5030,42,-258,0,34,12,-11
5035,42,-262,1,30,7,-12
5040,38,-256,3,29,2,-14
5045,37,-259,2,29,-2,-14
5050,40,-258,0,31,-4,-16
5055,39,-268,4,35,-8,-16
5060,37,-257,0,40,-9,-16
5065,38,-258,0,42,-10,-14
5070,36,-260,0,42,-12,-14
5075,39,-258,-2,42,-12,-13
5080,36,-259,-2,39,-12,-12
5085,37,-256,-6,33,-14,-11
5090,34,-255,-4,23,-15,-8
5095,40,-258,1,12,-15,-8
5100,37,-257,2,0,-12,-8
5105,36,-256,-3,-10,-9,-9
5110,41,-255,3,-18,-2,-9
5115,41,-254,2,-26,6,-9
5120,43,-255,0,-33,15,-10
5125,43,-256,1,-35,23,-10
5130,46,-257,2,-38,29,-12
5135,41,-256,1,-38,34,-12
5140,44,-260,1,-35,38,-11
5145,41,-256,1,-28,39,-10
5150,47,-258,0,-19,38,-9
5155,47,-257,1,-13,34,-8
5160,46,-254,3,-7,27,-9
5165,49,-254,3,-2,19,-10
5170,47,-256,2,-2,15,-14
5175,48,-253,1,-2,12,-14
5180,48,-256,1,-4,11,-15
5185,48,-256,-2,-5,9,-16
5190,45,-256,0,-5,10,-18
5195,41,-255,-1,-7,14,-17
5200,44,-260,-1,-9,20,-18
5205,41,-259,-2,-14,26,-18
5210,43,-258,0,-16,33,-17
5215,42,-260,-1,-19,38,-16
5220,40,-257,1,-20,44,-16
5225,40,-258,-1,-23,47,-15
5230,41,-259,0,-24,48,-16
5235,41,-259,0,-26,48,-14
5240,40,-261,-5,-31,49,-12
5245,42,-260,0,-33,48,-12
5250,40,-258,-3,-30,49,-12
5255,41,-263,0,-26,48,-13
5260,42,-259,0,-21,50,-15
5265,42,-262,4,-14,48,-15
5270,44,-258,-11,-8,50,-18
5275,48,-262,1,-2,51,-19
5280,39,-260,1,5,51,-20
5285,41,-260,0,10,53,-20
5290,42,-258,1,14,53,-19
5295,39,-258,0,17,54,-18
5300,41,-259,-1,18,52,-18
5305,41,-257,0,18,49,-15
5310,43,-257,0,17,48,-14
5315,37,-256,-3,15,44,-11
5320,39,-255,0,11,43,-8
5325,48,-260,-2,5,41,-6
5330,38,-256,-5,1,39,-4
5335,37,-256,0,-3,38,-3
5340,43,-256,0,-6,38,-1
5345,43,-258,-1,-7,38,-2
5350,43,-256,-2,-7,38,-2
5355,43,-257,0,-5,39,-4
5360,46,-258,2,-1,38,-5
5365,39,-254,-1,-1,39,-4
5370,40,-257,1,2,40,-5
5375,43,-260,-2,5,40,-7
5380,38,-261,3,10,40,-7
5385,41,-259,1,13,41,-9
5390,40,-257,0,17,40,-9
5395,40,-256,2,17,40,-10
5400,41,-257,4,16,41,-11
5405,42,-260,0,13,41,-10
5410,40,-257,0,10,40,-9
5415,41,-259,2,4,40,-10
5420,39,-256,0,0,37,-9
5425,37,-257,4,-9,32,-9
5430,41,-258,-2,-13,27,-7
5435,40,-260,-4,-21,22,-7
5440,40,-258,-1,-23,17,-7
5445,41,-258,-2,-26,13,-7
5450,41,-257,0,-28,12,-7
5455,41,-257,-2,-29,11,-7
5460,38,-259,1,-30,11,-8
5465,40,-257,1,-30,13,-11
5470,37,-258,2,-27,17,-10
5475,37,-257,-1,-23,20,-11
5480,39,-258,1,-19,24,-12
5485,39,-257,3,-14,27,-13
5490,40,-256,5,-7,30,-12
5495,39,-258,2,-6,30,-12
5500,40,-258,3,-5,31,-13
5505,42,-259,1,-7,31,-14
5510,38,-258,2,-10,31,-13
5515,39,-255,2,-14,31,-10
5520,42,-256,2,-14,31,-8
5525,40,-254,0,-15,27,-7
5530,43,-256,0,-16,21,-3
5535,40,-255,6,-15,16,0
5540,40,-256,4,-12,10,1
5545,47,-259,8,-11,5,2
5550,39,-257,3,-9,0,0
5555,39,-259,1,-8,-1,0
5560,43,-257,4,-6,-3,-4
5565,39,-257,4,-3,-3,-5
5570,39,-257,5,2,-3,-6
5575,39,-257,2,10,-3,-6
5580,41,-260,0,16,-4,-6
5585,40,-257,1,23,-5,-6
5590,40,-255,3,27,-8,-5
5595,39,-260,2,27,-8,-1
5600,42,-259,2,25,-8,-2
5605,40,-257,3,20,-8,1
5610,38,-254,3,10,-7,1
5615,39,-252,7,4,-4,1
5620,43,-257,5,-5,0,1
5625,41,-254,5,-12,5,-1
5630,42,-258,5,-17,11,-2
5635,38,-251,5,-22,16,-4
5640,40,-255,4,-24,23,-7
5645,44,-254,3,-30,28,-8
5650,43,-254,5,-32,33,-10
5655,38,-263,4,-35,37,-10
5660,43,-259,2,-36,38,-11
5665,45,-261,4,-36,39,-12
5670,44,-257,1,-37,40,-11
5675,44,-256,7,-37,37,-11
5680,43,-257,3,-39,36,-10
5685,43,-256,4,-37,33,-10
5690,40,-256,4,-36,30,-13
5695,41,-257,2,-35,26,-12
5700,42,-257,0,-35,24,-11
5705,44,-255,2,-36,24,-11
5710,45,-259,0,-35,25,-11
5715,43,-256,1,-35,27,-9
5720,43,-258,1,-36,28,-8
5725,46,-258,2,-32,32,-8
5730,47,-258,5,-30,35,-8
5735,43,-257,4,-25,35,-9
5740,40,-257,5,-21,37,-7
5745,40,-255,5,-15,38,-6
5750,42,-255,5,-14,38,-5
5755,43,-257,7,-15,38,-5
5760,41,-264,13,-19,38,-3
5765,38,-253,7,-23,38,-2
5770,43,-255,8,-29,36,-1
5775,40,-254,7,-33,33,0
5780,38,-255,7,-38,33,2
5785,39,-254,6,-40,33,3
5790,37,-255,8,-42,31,3
5795,38,-254,7,-44,32,3
5800,42,-256,8,-48,32,3
5805,38,-256,6,-54,32,5
5810,40,-255,8,-56,31,4
5815,37,-252,11,-61,28,4
5820,38,-256,5,-65,27,3
5825,36,-255,2,-68,24,3
5830,37,-254,1,-71,21,2
5835,39,-254,4,-74,18,0
5840,39,-256,2,-78,15,-1
5845,42,-257,2,-82,13,1
5850,38,-256,3,-86,10,2
5855,40,-256,4,-88,8,5
5860,41,-258,1,-88,6,6
5865,41,-258,4,-88,4,6
5870,40,-258,7,-87,4,8
5875,43,-259,2,-87,5,7
5880,42,-257,1,-84,5,7
5885,38,-259,1,-82,7,6
5890,44,-259,2,-77,7,6
5895,43,-261,2,-73,7,6
5900,40,-260,3,-67,6,5
5905,42,-260,3,-62,5,3
5910,42,-258,3,-54,2,4
5915,40,-258,0,-49,0,2
5920,38,-261,7,-40,-3,0
5925,43,-256,0,-32,-4,2
5930,39,-258,1,-29,-4,3
5935,38,-257,2,-26,-4,5
5940,43,-257,3,-25,-3,5
5945,45,-258,3,-24,1,6
5950,42,-256,4,-22,3,6
5955,42,-256,2,-21,4,6
5960,41,-254,3,-23,6,7
5965,40,-256,2,-25,6,6
5970,39,-256,4,-26,7,5
5975,37,-254,0,-29,6,4
5980,47,-256,7,-31,5,3
5985,41,-258,4,-28,5,3
5990,38,-258,3,-23,4,0
5995,41,-256,1,-18,4,-2
6000,39,-256,2,-13,2,-4
6005,40,-258,2,-8,4,-6
6010,39,-256,3,-6,7,-8
6015,38,-258,2,-6,11,-10
6020,42,-258,6,-7,15,-11
6025,39,-256,5,-7,20,-11
6030,33,-255,5,-8,26,-11
6035,38,-257,7,-9,28,-10
6040,39,-257,5,-12,34,-12
6045,38,-256,6,-13,35,-12
6050,37,-257,3,-17,38,-12
6055,41,-257,2,-20,39,-11
6060,39,-257,7,-21,38,-9
6065,41,-256,4,-22,35,-9
6070,41,-257,7,-24,32,-7
6075,38,-256,2,-23,29,-7
6080,41,-255,1,-24,26,-7
6085,40,-256,3,-26,25,-6
6090,40,-256,8,-29,21,-6
6095,41,-256,5,-31,19,-6
6100,41,-257,5,-35,17,-5
6105,42,-257,3,-37,15,-6
6110,41,-256,3,-36,15,-5
6115,40,-256,0,-36,13,-3
6120,37,-257,2,-35,10,-5
6125,41,-258,1,-32,9,-6
6130,40,-256,0,-35,9,-7
6135,42,-256,1,-38,9,-8
6140,44,-257,5,-40,9,-6
6145,42,-257,4,-43,12,-5
6150,41,-255,8,-43,14,-8
6155,40,-257,6,-43,19,-8
6160,41,-256,6,-42,22,-9
6165,41,-257,9,-39,30,-9
6170,39,-256,9,-39,33,-11
6175,40,-258,8,-39,36,-11
6180,38,-256,9,-42,40,-12
6185,40,-255,10,-45,40,-11
6190,40,-257,10,-45,39,-9
6195,42,-257,5,-48,38,-9
6200,39,-257,3,-51,36,-9
6205,42,-257,3,-54,32,-9
6210,40,-255,6,-55,28,-9
6215,40,-255,5,-57,25,-11
6220,41,-256,5,-59,22,-9
6225,40,-255,2,-61,20,-9
6230,41,-257,3,-61,20,-8
6235,38,-257,3,-61,20,-7
6240,39,-257,4,-63,20,-7
6245,41,-258,0,-65,19,-7
6250,37,-261,8,-65,21,-3
6255,40,-257,4,-61,23,-4
6260,39,-256,1,-56,25,-5
6265,38,-258,2,-50,28,-6
6270,41,-256,1,-44,28,-7
6275,41,-258,4,-40,28,-8
6280,42,-255,3,-38,29,-9
6285,40,-256,3,-36,26,-10
6290,41,-256,4,-37,25,-10
6295,39,-257,4,-37,22,-9
6300,41,-255,6,-36,18,-10
6305,47,-256,10,-38,17,-7
6310,43,-257,6,-39,18,-6
6315,38,-255,9,-39,17,-5
6320,43,-257,5,-36,16,-4
6325,42,-259,3,-35,16,-4
6330,41,-258,6,-33,16,-6
6335,42,-259,6,-31,14,-9
6340,45,-258,2,-32,13,-7
6345,40,-258,5,-34,12,-7
6350,41,-257,2,-37,11,-8
6355,42,-256,5,-39,11,-7
6360,48,-256,0,-41,12,-8
6365,41,-258,1,-43,16,-7
6370,40,-256,1,-45,16,-9
6375,40,-257,1,-46,16,-8
6380,39,-257,2,-47,17,-8
6385,41,-255,-1,-45,18,-8
6390,39,-258,2,-48,20,-9
6395,36,-255,1,-51,21,-8
6400,44,-258,5,-52,23,-8
6405,39,-258,2,-54,24,-7
6410,40,-257,7,-54,25,-9
6415,34,-257,5,-53,25,-9
6420,41,-256,4,-52,25,-10
6425,40,-257,6,-49,25,-10
6430,42,-256,6,-48,24,-11
6435,40,-256,5,-47,23,-13
6440,40,-256,5,-46,23,-14
6445,42,-257,3,-48,22,-14
6450,41,-256,5,-48,19,-14
6455,40,-257,6,-50,18,-12
6460,43,-257,4,-52,16,-12
6465,45,-257,2,-55,13,-10
6470,39,-258,3,-56,12,-10
6475,41,-258,7,-56,11,-8
6480,43,-258,2,-56,11,-7
6485,41,-256,2,-54,12,-8
6490,39,-256,0,-52,15,-9
6495,40,-257,3,-49,16,-10
6500,42,-257,5,-43,21,-10
6505,40,-257,2,-41,24,-12
6510,40,-254,7,-37,28,-11
6515,42,-258,3,-34,29,-14
6520,42,-257,3,-30,30,-14
6525,36,-255,6,-31,31,-14
6530,39,-256,2,-32,29,-13
6535,42,-256,4,-36,28,-13
6540,41,-256,2,-40,25,-11
6545,39,-255,3,-45,22,-9
6550,42,-256,2,-50,18,-8
6555,39,-256,2,-51,17,-10
6560,38,-257,3,-55,16,-9
6565,42,-256,4,-58,16,-8
6570,42,-255,2,-60,16,-9
6575,39,-257,0,-63,18,-10
6580,36,-257,2,-67,20,-10
6585,39,-258,2,-72,23,-10
6590,44,-258,8,-73,27,-12
6595,41,-257,2,-74,31,-11
6600,39,-256,3,-73,34,-14
6605,39,-256,6,-70,38,-12
6610,43,-258,9,-68,37,-12
6615,40,-258,6,-64,37,-11
6620,43,-258,9,-58,34,-10
6625,41,-260,4,-53,31,-8
6630,40,-257,1,-50,28,-7
6635,45,-257,4,-48,23,-7
6640,40,-260,2,-46,19,-9
6645,42,-259,2,-45,15,-8
6650,42,-262,2,-42,12,-10
6655,39,-257,0,-39,10,-11
6660,40,-257,3,-37,10,-12
6665,41,-257,2,-34,7,-11
6670,40,-255,0,-32,7,-11
6675,41,-258,1,-30,7,-11
6680,44,-256,1,-27,6,-9
6685,44,-256,4,-27,6,-7
6690,47,-255,1,-24,5,-7
6695,43,-256,0,-22,5,-7
6700,41,-256,0,-23,4,-7
6705,42,-256,4,-23,3,-7
6710,41,-255,4,-26,5,-6
6715,40,-257,7,-28,9,-8
6720,37,-256,6,-32,15,-9
6725,40,-257,8,-33,18,-11
6730,40,-255,7,-34,22,-11
6735,42,-257,9,-37,26,-12
6740,38,-257,10,-39,27,-13
6745,42,-255,8,-43,27,-14
6750,39,-254,7,-47,26,-14
6755,42,-254,5,-50,25,-12
6760,43,-257,5,-50,21,-12
6765,36,-255,6,-51,18,-10
6770,42,-258,3,-50,16,-10
6775,41,-256,3,-51,15,-9
6780,42,-262,3,-50,14,-10
6785,43,-257,4,-52,15,-9
6790,41,-261,2,-50,15,-10
6795,42,-262,1,-50,17,-9
6800,41,-256,1,-50,19,-7
6805,43,-259,0,-47,19,-8
6810,43,-258,2,-46,23,-7
6815,41,-258,2,-42,24,-7
6820,39,-256,3,-39,24,-8
6825,39,-257,2,-35,25,-9
6830,41,-257,6,-33,26,-8
6835,42,-257,-1,-30,25,-8
6840,37,-256,1,-30,24,-9
6845,42,-258,1,-33,22,-9
6850,43,-258,4,-38,21,-9
6855,38,-256,1,-41,17,-10
6860,41,-255,1,-47,14,-9
6865,40,-256,2,-52,13,-8
6870,43,-256,3,-56,11,-8
6875,41,-258,4,-55,9,-7
6880,43,-257,4,-51,9,-7
6885,45,-258,6,-51,11,-8
6890,44,-253,10,-53,12,-6
6895,40,-257,3,-56,15,-9
6900,41,-257,4,-60,15,-8
6905,43,-257,15,-61,17,-9
6910,39,-257,5,-61,19,-9
6915,37,-255,5,-57,21,-9
6920,40,-257,4,-52,22,-10
6925,40,-259,4,-50,22,-9
6930,41,-258,5,-48,21,-9
6935,44,-258,5,-45,20,-8
6940,38,-254,1,-42,20,-7
6945,41,-257,5,-38,19,-7
6950,41,-255,9,-34,20,-7
6955,39,-256,2,-31,19,-6
6960,41,-257,1,-27,19,-7
6965,39,-256,1,-25,20,-7
6970,40,-257,0,-22,19,-7
6975,40,-257,-2,-23,20,-6
6980,44,-256,2,-24,21,-5
6985,44,-256,5,-25,20,-6
6990,40,-257,4,-27,17,-6
6995,44,-257,0,-29,15,-5
7000,39,-257,5,-33,13,-6
7005,41,-253,5,-38,13,-7
7010,43,-256,8,-41,13,-8
7015,40,-256,6,-44,12,-10
7020,41,-257,6,-48,14,-9
7025,39,-254,3,-53,13,-10
7030,41,-256,4,-58,13,-9
7035,43,-257,6,-63,14,-7
7040,41,-256,7,-69,15,-5
7045,40,-256,3,-72,14,-4
7050,41,-256,2,-78,14,-4
7055,41,-256,4,-83,15,-4
7060,43,-257,2,-85,17,-4
7065,41,-258,0,-84,16,-5
7070,32,-259,2,-86,16,-6
7075,41,-257,6,-82,16,-6
7080,40,-260,1,-76,16,-6
7085,42,-260,-1,-69,16,-7
7090,40,-259,0,-60,13,-7
7095,42,-258,2,-52,11,-8
7100,39,-259,0,-44,8,-9
7105,41,-257,3,-41,6,-9
7110,40,-257,5,-38,6,-9
7115,39,-257,2,-37,6,-9
7120,41,-257,2,-37,7,-11
7125,41,-260,-1,-38,6,-11
7130,45,-259,4,-40,8,-10
7135,42,-255,0,-42,8,-9
7140,39,-256,4,-43,7,-8
7145,42,-256,2,-41,8,-8
7150,42,-256,6,-41,9,-8
7155,40,-256,5,-38,8,-9
7160,41,-256,2,-39,7,-6
7165,42,-255,4,-40,2,-6
7170,39,-256,1,-45,1,-5
7175,40,-254,5,-51,0,-4
7180,40,-257,4,-59,-1,-3
7185,36,-257,1,-68,1,-4
7190,39,-255,2,-75,4,-4
7195,38,-256,1,-84,6,-5
7200,42,-260,3,-91,8,-4
7205,38,-257,2,-96,13,-5
7210,38,-256,0,-96,17,-6
7215,38,-258,2,-96,21,-7
7220,37,-259,3,-89,25,-7
7225,38,-257,6,-81,24,-5
7230,44,-257,4,-73,21,-3
7235,38,-255,1,-61,17,-2
7240,40,-256,2,-53,11,-2
7245,44,-257,2,-47,5,-1
7250,42,-256,1,-43,2,-2
7255,40,-258,3,-40,-2,-2
7260,42,-257,3,-36,-4,-3
7265,44,-257,7,-34,-5,-4
7270,43,-258,6,-30,-6,-3
7275,40,-261,3,-27,-5,-5
7280,44,-258,7,-22,-6,-3
7285,41,-262,7,-20,-4,-3
7290,42,-257,2,-16,-4,-2
7295,40,-257,1,-14,-4,-1
7300,41,-256,1,-13,-7,1
7305,43,-256,1,-14,-8,2
7310,41,-257,0,-16,-9,3
7315,42,-257,1,-20,-12,3
7320,42,-256,3,-26,-12,3
7325,40,-255,3,-31,-11,3
7330,42,-256,4,-37,-8,3
7335,38,-255,3,-43,-5,1
7340,41,-251,16,-47,3,0
7345,43,-257,4,-49,7,-4
7350,40,-257,1,-50,13,-6
7355,40,-254,4,-51,18,-8
7360,39,-259,2,-50,23,-11
7365,43,-258,5,-51,26,-12
7370,41,-255,4,-49,28,-14
7375,42,-258,6,-47,29,-13
7380,40,-257,2,-45,28,-12
7385,40,-256,6,-43,25,-12
7390,43,-256,2,-42,23,-10
7395,44,-259,8,-42,22,-8
7400,41,-259,3,-40,18,-7
7405,38,-256,2,-35,16,-5
7410,38,-256,2,-33,14,-4
7415,39,-257,3,-28,13,-4
7420,42,-258,5,-26,13,-3
7425,41,-257,4,-25,13,-2
7430,41,-258,3,-22,13,-3
7435,39,-260,3,-20,14,-5
7440,44,-255,1,-19,14,-5
7445,36,-252,3,-18,13,-6
7450,40,-254,8,-18,13,-7
7455,40,-256,3,-17,14,-7
7460,41,-256,5,-17,11,-8
7465,41,-256,1,-18,10,-8
7470,40,-256,1,-20,8,-8
7475,41,-256,2,-22,8,-7
7480,41,-255,4,-26,8,-7
7485,39,-256,5,-29,8,-7
7490,42,-255,5,-32,9,-5
7495,40,-260,6,-33,13,-5
7500,44,-257,7,-34,16,-4
7505,42,-255,4,-36,18,-5
7510,41,-257,2,-37,20,-6
7515,40,-257,4,-39,19,-7
7520,44,-256,4,-41,21,-9
7525,39,-256,8,-43,21,-9
7530,43,-259,8,-48,25,-10
7535,44,-256,6,-50,26,-10
7540,43,-257,5,-53,28,-9
7545,42,-255,5,-57,29,-8
7550,45,-254,3,-59,30,-8
7555,44,-255,1,-60,30,-6
7560,46,-255,4,-60,29,-5
7565,43,-255,4,-61,26,-1
7570,42,-256,7,-61,24,-3
7575,43,-255,2,-62,22,-4
7580,42,-255,3,-60,21,-4
7585,39,-257,0,-62,21,-7
7590,41,-256,6,-64,21,-8
7595,41,-254,4,-65,21,-10
7600,40,-257,2,-64,23,-10
7605,41,-255,7,-63,24,-11
7610,40,-257,8,-61,25,-13
7615,37,-259,6,-58,25,-13
7620,39,-257,8,-52,28,-14
7625,39,-257,4,-49,31,-14
7630,39,-259,1,-46,32,-15
7635,38,-256,4,-43,32,-15
7640,41,-258,6,-44,33,-15
7645,41,-260,2,-46,33,-14
7650,39,-257,0,-52,32,-13
7655,39,-256,1,-58,32,-13
7660,40,-257,0,-66,32,-11
7665,42,-257,5,-72,32,-8
7670,41,-253,5,-78,34,-8
7675,43,-257,5,-83,36,-7
7680,41,-256,4,-88,37,-6
7685,41,-256,3,-92,39,-7
7690,43,-256,2,-96,42,-5
7695,43,-256,6,-100,44,-4
7700,46,-254,3,-105,46,-3
7705,43,-256,6,-111,48,-3
7710,43,-255,1,-114,48,-3
7715,47,-257,3,-119,45,-1
7720,43,-255,4,-123,48,0
7725,38,-254,6,-125,48,-2
7730,40,-255,3,-127,51,-3
7735,39,-254,1,-128,55,-7
7740,42,-256,6,-129,60,-9
7745,43,-256,5,-132,66,-9
7750,40,-255,4,-136,71,-11
7755,41,-255,2,-138,75,-12
7760,43,-256,4,-139,79,-10
7765,44,-256,8,-141,80,-10
7770,46,-256,7,-143,81,-9
7775,42,-258,5,-145,81,-10
7780,42,-255,7,-145,82,-11
7785,43,-256,6,-144,82,-11
7790,42,-257,6,-142,84,-12
7795,43,-257,7,-144,83,-13
7800,41,-255,10,-148,83,-13
7805,44,-256,7,-149,82,-14
7810,41,-255,7,-155,81,-15
7815,42,-254,7,-163,78,-13
7820,44,-253,1,-174,77,-13
7825,47,-253,8,-186,77,-11
7830,47,-253,3,-198,77,-9
7835,45,-255,4,-214,77,-11
7840,45,-253,0,-230,75,-11
7845,46,-254,0,-248,75,-8
7850,42,-253,-2,-268,74,-6
7855,38,-251,-3,-292,71,-7
7860,40,-252,-7,-321,66,-4
7865,41,-252,-5,-348,59,-2
7870,38,-252,-4,-377,51,3
7875,40,-254,-9,-407,46,4
7880,41,-254,-11,-431,41,5
7885,39,-253,-6,-453,41,4
7890,39,-255,-13,-472,41,0
7895,37,-255,-15,-487,42,-2
7900,38,-257,-11,-497,42,-2
7905,38,-259,-12,-501,40,-4
7910,38,-258,-16,-500,35,-3
7915,39,-258,-11,-494,24,-3
7920,41,-257,-14,-486,12,-2
7925,42,-256,-16,-474,0,-2
7930,39,-256,-11,-471,-13,-1
7935,41,-251,-4,-473,-21,-2
7940,43,-253,-6,-478,-23,-4
7945,41,-246,-4,-489,-21,-6
7950,40,-246,-6,-506,-16,-8
7955,39,-243,-2,-533,-13,-11
7960,43,-244,-1,-569,-8,-11
7965,40,-242,0,-609,0,-11
7970,39,-241,2,-655,9,-10
7975,41,-242,0,-700,18,-7
7980,42,-246,3,-740,26,-6
7985,45,-248,-3,-774,29,-7
7990,34,-252,2,-805,29,-8
7995,39,-255,1,-825,29,-6
8000,39,-256,-1,-834,31,-8
8005,38,-255,0,-841,35,-13
8010,43,-259,1,-843,39,-18
8015,38,-261,1,-837,40,-22
8020,41,-262,-4,-828,42,-25
8025,40,-265,-1,-814,41,-27
8030,38,-263,-8,-797,38,-27
8035,38,-257,-7,-787,34,-29
8040,39,-261,-10,-784,30,-26
8045,42,-259,-9,-791,27,-21
8050,41,-257,-20,-801,28,-17
8055,38,-257,-16,-815,33,-14
8060,42,-256,-22,-830,36,-11
8065,39,-257,-25,-858,42,-11
8070,40,-255,-25,-891,51,-8
8075,38,-254,-27,-927,62,-6
8080,35,-258,-28,-960,75,-5
8085,32,-260,-23,-980,82,-5
8090,30,-261,-24,-988,84,-1
8095,32,-263,-26,-983,79,1
8100,33,-266,-19,-972,69,5
8105,29,-259,-24,-952,51,11
8110,31,-254,-29,-934,36,14
8115,33,-252,-30,-928,18,17
8120,30,-251,-30,-934,5,21
8125,36,-251,-29,-950,-6,27
8130,32,-249,-30,-968,-12,31
8135,31,-253,-31,-988,-11,40
8140,37,-259,-32,-1003,-14,49
8145,35,-254,-38,-1000,-19,51
8150,35,-254,-38,-991,-27,48
8155,37,-254,-44,-999,-41,50
8160,36,-248,-52,-1019,-52,56
8165,34,-252,-49,-1054,-59,59
8170,37,-252,-46,-1089,-59,65
8175,40,-252,-46,-1119,-56,70
8180,39,-257,-47,-1144,-51,66
8185,37,-257,-45,-1176,-38,71
8190,46,-258,-41,-1213,-18,73
8195,46,-262,-41,-1246,4,60
8200,49,-258,-40,-1286,29,53
8205,32,-256,-36,-1345,52,53
8210,65,-260,-51,-1417,54,64
8215,66,-259,-48,-1506,62,78
8220,50,-263,-53,-1605,72,78
8225,58,-260,-64,-1721,66,92
8230,63,-270,-67,-1849,40,116
8235,58,-275,-73,-1973,30,130
8240,60,-277,-88,-2089,24,143
8245,57,-274,-88,-2204,15,141
8250,52,-278,-96,-2303,5,143
8255,56,-282,-111,-2380,-12,150
8260,51,-280,-126,-2437,-9,142
8265,43,-289,-146,-2466,19,123
8270,48,-274,-147,-2477,46,112
8275,55,-271,-163,-2488,49,86
8280,37,-264,-184,-2495,68,39
8285,38,-271,-182,-2536,61,21
8290,36,-269,-193,-2529,35,9
8295,26,-264,-204,-2478,-7,7
8300,65,-277,-202,-2381,-31,34
8305,20,-279,-226,-2182,10,54
8310,32,-277,-227,-1956,35,80
8315,16,-286,-233,-1705,55,48
8320,29,-294,-234,-1459,38,15
8325,36,-301,-231,-1220,27,-19
8330,36,-306,-219,-1000,19,-48
8335,24,-302,-227,-794,23,-73
8340,28,-303,-226,-642,8,-76
8345,29,-311,-219,-543,-1,-69
8350,33,-309,-225,-459,-10,-62
8355,18,-310,-221,-394,-17,-62
8360,29,-320,-211,-343,-43,-58
8365,18,-319,-208,-257,-60,-64
8370,17,-322,-205,-149,-79,-73
8375,25,-328,-198,-6,-97,-83
8380,12,-312,-204,159,-118,-95
8385,5,-321,-196,318,-139,-111
8390,32,-313,-190,481,-157,-120
8395,31,-312,-206,672,-184,-131
8400,19,-289,-216,792,-208,-152
8405,18,-280,-230,837,-229,-165
8410,21,-273,-233,802,-240,-166
8415,23,-272,-224,733,-239,-162
8420,25,-268,-210,667,-234,-155
8425,22,-266,-204,615,-229,-147
8430,27,-260,-193,579,-229,-136
8435,34,-259,-191,554,-222,-124
8440,34,-258,-185,536,-217,-115
8445,29,-259,-187,524,-212,-101
8450,32,-264,-183,513,-211,-84
8455,37,-265,-184,515,-214,-74
8460,30,-265,-184,522,-220,-67
8465,27,-266,-187,531,-227,-58
8470,31,-267,-189,533,-234,-53
8475,23,-274,-186,525,-252,-55
8480,30,-267,-187,514,-262,-46
8485,25,-274,-188,502,-272,-41
8490,24,-273,-185,484,-281,-46
8495,27,-275,-185,471,-282,-45
8500,26,-272,-179,464,-272,-33
8505,32,-272,-179,463,-252,-19
8510,27,-271,-172,464,-238,-22
8515,30,-273,-173,459,-219,-18
8520,28,-272,-166,450,-201,-22
8525,33,-272,-164,432,-189,-33
8530,41,-275,-166,413,-176,-48
8535,35,-266,-162,390,-162,-56
8540,32,-265,-158,366,-153,-60
8545,39,-267,-155,344,-151,-51
8550,42,-262,-155,324,-158,-57
8555,35,-265,-155,307,-179,-66
8560,39,-263,-157,292,-196,-58
8565,36,-266,-158,285,-208,-39
8570,34,-265,-151,269,-225,-27
8575,38,-268,-153,250,-243,-17
8580,44,-265,-147,231,-259,-15
8585,45,-271,-148,204,-277,-14
8590,44,-264,-149,171,-286,-7
8595,44,-265,-144,132,-293,-10
8600,38,-269,-143,95,-293,-10
8605,42,-270,-141,64,-276,-3
8610,42,-267,-135,39,-249,5
8615,42,-269,-135,21,-219,9
8620,47,-267,-131,3,-186,3
8625,44,-268,-130,-4,-159,-19
8630,43,-266,-127,-9,-133,-35
8635,34,-272,-126,-6,-103,-34
8640,33,-269,-122,-13,-80,-20
8645,38,-267,-122,-31,-71,-9
8650,37,-268,-120,-57,-72,-1
8655,39,-266,-118,-85,-73,4
8660,39,-262,-121,-115,-77,8
8665,30,-261,-116,-145,-82,15
8670,30,-260,-113,-183,-89,34
8675,37,-261,-107,-218,-98,54
8680,42,-261,-109,-249,-110,62
8685,41,-263,-112,-281,-119,66
8690,44,-262,-105,-317,-125,76
8695,44,-261,-107,-358,-128,81
8700,45,-263,-106,-394,-127,79
8705,40,-261,-109,-433,-119,75
8710,39,-260,-105,-465,-107,87
8715,42,-264,-108,-487,-99,99
8720,40,-262,-114,-503,-89,110
8725,38,-265,-116,-523,-73,117
8730,36,-262,-116,-532,-57,117
8735,34,-261,-125,-551,-42,122
8740,43,-265,-121,-566,-30,116
8745,25,-262,-128,-570,-27,107
8750,24,-264,-130,-570,-24,130
8755,27,-267,-130,-565,-29,153
8760,29,-266,-130,-550,-33,162
8765,28,-265,-135,-529,-32,154
8770,17,-267,-132,-509,-24,144
8775,21,-262,-129,-492,-14,150
8780,27,-264,-129,-476,-14,151
8785,30,-265,-132,-453,-13,140
8790,28,-264,-134,-436,-8,130
8795,34,-264,-130,-417,-10,128
8800,32,-267,-126,-383,-12,126
8805,30,-265,-125,-339,-10,128
8810,31,-267,-121,-284,-7,127
8815,32,-269,-119,-223,5,127
8820,32,-265,-119,-163,17,126
8825,32,-267,-121,-104,28,122
8830,23,-265,-121,-52,40,121
8835,29,-260,-117,-13,50,124
8840,27,-259,-116,40,53,120
8845,26,-256,-114,98,57,117
8850,21,-265,-116,154,60,114
8855,25,-253,-119,207,63,109
8860,24,-252,-120,252,66,105
8865,25,-252,-123,289,67,98
8870,22,-251,-125,316,66,90
8875,24,-246,-131,341,63,82
8880,21,-245,-129,366,53,64
8885,22,-242,-133,393,36,46
8890,22,-240,-135,416,21,24
8895,20,-239,-140,434,8,6
8900,16,-234,-137,453,0,-2
8905,25,-221,-143,471,-4,-8
8910,26,-230,-139,495,-1,-12
8915,23,-224,-137,523,4,-16
8920,28,-224,-135,552,18,-18
8925,27,-220,-136,580,33,-18
8930,29,-218,-136,601,50,-19
8935,28,-216,-136,612,63,-16
8940,29,-213,-133,615,72,-15
8945,31,-212,-131,606,75,-10
8950,26,-212,-130,586,76,-5
8955,25,-211,-130,564,70,6
8960,27,-210,-132,538,59,17
8965,26,-215,-121,518,45,32
8970,27,-215,-126,504,34,43
8975,25,-215,-118,497,28,55
8980,23,-217,-119,497,28,65
8985,23,-214,-114,499,33,71
8990,23,-216,-114,501,40,76
8995,19,-216,-108,501,47,80
9000,20,-213,-111,500,54,82
9005,17,-214,-109,497,56,81
9010,19,-217,-104,495,56,82
9015,16,-210,-116,492,53,81
9020,15,-212,-109,491,49,78
9025,19,-214,-108,492,46,75
9030,16,-216,-107,495,43,71
9035,17,-214,-108,500,43,68
9040,18,-213,-110,503,46,64
9045,19,-213,-112,508,48,61
9050,19,-213,-113,515,50,58
9055,19,-212,-118,528,52,57
9060,19,-212,-113,542,53,54
9065,23,-211,-118,556,57,48
9070,19,-208,-116,566,61,40
9075,20,-205,-115,572,68,31
9080,19,-205,-117,569,74,22
9085,19,-208,-115,559,80,17
9090,19,-206,-113,543,84,13
9095,17,-203,-113,521,87,10
9100,19,-207,-107,497,90,11
9105,16,-208,-108,469,92,13
9110,23,-207,-105,444,95,15
9115,19,-211,-104,423,97,18
9120,16,-215,-105,408,100,19
9125,24,-214,-101,405,99,22
9130,24,-216,-100,409,99,21
9135,24,-219,-97,422,97,22
9140,30,-213,-95,438,91,23
9145,29,-216,-87,457,83,26
9150,29,-211,-89,479,74,31
9155,35,-211,-92,498,66,36
9160,34,-211,-93,509,59,40
9165,33,-208,-89,512,56,43
9170,38,-206,-91,508,57,44
9175,43,-207,-91,498,62,42
9180,36,-207,-93,487,72,40
9185,36,-202,-86,473,86,34
9190,29,-200,-87,458,105,28
9195,30,-202,-87,443,123,23
9200,27,-199,-87,427,140,20
9205,21,-197,-88,410,148,18
9210,19,-197,-84,391,152,17
9215,17,-196,-84,378,152,19
9220,15,-195,-86,368,149,20
9225,15,-199,-87,361,150,21
9230,12,-198,-85,354,156,22
9235,13,-201,-83,342,168,24
9240,14,-204,-83,324,182,26
9245,15,-208,-81,299,196,27
9250,17,-213,-82,270,205,29
9255,22,-215,-82,240,208,31
9260,20,-218,-84,213,201,32
9265,22,-220,-80,188,185,32
9270,26,-225,-86,166,161,30
9275,24,-225,-84,151,133,26
9280,24,-225,-83,143,101,17
9285,22,-226,-86,140,69,8
9290,24,-234,-85,142,39,-6
9295,23,-230,-86,152,14,-19
9300,22,-228,-88,166,-6,-30
9305,17,-225,-83,182,-19,-39
9310,16,-224,-85,195,-28,-43
9315,14,-219,-85,207,-33,-43
9320,14,-214,-80,210,-34,-40
9325,11,-215,-84,210,-34,-33
9330,15,-212,-81,200,-31,-26
9335,12,-210,-84,183,-21,-18
9340,15,-214,-88,159,-10,-13
9345,18,-214,-88,129,2,-11
9350,20,-214,-88,95,13,-10
9355,27,-219,-84,57,25,-14
9360,29,-222,-84,27,32,-19
9365,32,-226,-82,-10,38,-31
9370,31,-230,-82,-47,42,-43
9375,30,-234,-82,-75,41,-57
9380,32,-241,-83,-96,35,-71
9385,27,-241,-84,-106,19,-84
9390,24,-242,-84,-102,-2,-94
9395,25,-238,-88,-87,-28,-106
9400,24,-245,-83,-60,-52,-119
9405,23,-241,-77,-20,-72,-129
9410,20,-238,-80,31,-86,-138
9415,13,-232,-78,85,-95,-145
9420,13,-224,-82,137,-103,-153
9425,12,-215,-79,177,-107,-157
9430,17,-213,-82,197,-108,-159
9435,15,-205,-80,197,-101,-157
9440,20,-209,-84,178,-82,-153
9445,21,-206,-82,138,-52,-146
9450,22,-202,-88,81,-15,-136
9455,17,-208,-84,7,20,-124
9460,18,-211,-88,-85,44,-107
9465,23,-220,-90,-181,51,-90
9470,24,-226,-90,-275,46,-70
9475,28,-239,-87,-358,32,-51
9480,29,-248,-91,-424,18,-35
9485,29,-254,-91,-467,9,-25
9490,27,-263,-89,-487,4,-18
9495,32,-273,-89,-483,6,-16
9500,32,-281,-88,-458,14,-20
9505,29,-282,-90,-423,24,-29
9510,31,-290,-83,-378,35,-41
9515,34,-292,-83,-329,40,-55
9520,35,-296,-84,-278,42,-72
9525,33,-297,-83,-221,39,-86
9530,31,-296,-81,-163,33,-103
9535,32,-296,-82,-109,24,-116
9540,31,-292,-82,-50,15,-129
9545,31,-288,-80,15,7,-140
9550,33,-285,-83,83,3,-147
9555,34,-278,-80,150,-1,-151
9560,28,-269,-84,212,-2,-150
9565,29,-264,-80,263,-3,-145
9570,28,-260,-79,298,-1,-138
9575,27,-255,-82,310,0,-125
9580,27,-250,-84,297,-2,-108
9585,27,-249,-87,263,-6,-89
9590,25,-244,-87,213,-11,-68
9595,28,-242,-89,154,-18,-49
9600,33,-243,-84,99,-21,-33
9605,34,-242,-84,51,-26,-21
9610,41,-237,-83,9,-30,-12
9615,36,-242,-85,-19,-35,-9
9620,40,-245,-77,-39,-41,-6
9625,38,-242,-75,-49,-44,-7
9630,38,-243,-76,-52,-46,-7
9635,44,-247,-73,-56,-44,-5
9640,41,-247,-76,-59,-36,0
9645,38,-248,-73,-65,-25,6
9650,36,-249,-79,-80,-10,15
9655,34,-252,-80,-97,3,27
9660,31,-256,-79,-120,18,39
9665,32,-262,-86,-139,28,51
9670,30,-262,-81,-154,35,60
9675,28,-270,-80,-159,35,68
9680,25,-271,-78,-153,34,74
9685,29,-275,-81,-133,30,75
9690,27,-281,-84,-106,26,73
9695,25,-280,-81,-74,21,68
9700,25,-278,-85,-39,17,59
9705,25,-275,-84,-8,13,52
9710,27,-276,-85,23,7,41
9715,27,-271,-89,45,4,34
9720,28,-268,-87,64,5,25
9725,28,-266,-88,79,6,18
9730,28,-261,-85,91,10,16
9735,29,-259,-85,98,15,14
9740,31,-258,-83,99,24,14
9745,31,-257,-84,97,32,13
9750,34,-256,-82,95,40,17
9755,33,-252,-81,89,49,20
9760,40,-253,-82,80,59,24
9765,38,-246,-81,74,68,29
9770,40,-248,-83,67,78,33
9775,43,-246,-82,60,87,37
9780,43,-247,-85,56,93,41
9785,43,-245,-83,54,98,45
9790,43,-247,-81,45,100,48
9795,41,-245,-84,36,104,51
9800,40,-246,-85,23,109,51
9805,40,-249,-82,6,113,52
9810,36,-251,-90,-15,119,53
9815,33,-249,-91,-43,124,51
9820,30,-256,-93,-74,125,50
9825,31,-259,-91,-105,125,45
9830,28,-267,-92,-132,125,41
9835,22,-265,-88,-157,123,36
9840,19,-270,-89,-172,121,30
9845,16,-271,-87,-179,119,24
9850,14,-276,-85,-175,120,19
9855,15,-280,-79,-162,120,16
9860,15,-281,-81,-141,121,12
9865,11,-281,-81,-112,122,11
9870,12,-282,-86,-79,120,8
9875,8,-284,-78,-46,118,5
9880,17,-275,-83,-13,115,4
9885,13,-274,-82,11,107,3
9890,15,-270,-79,37,102,2
9895,13,-267,-75,60,96,3
9900,17,-264,-75,79,87,3
9905,19,-264,-75,93,78,5
9910,17,-258,-74,104,68,7
9915,18,-256,-74,112,64,10
9920,19,-255,-70,115,58,12
9925,21,-253,-70,113,56,17
9930,20,-249,-73,105,58,24
9935,29,-249,-71,95,59,28
9940,24,-244,-69,81,60,34
9945,22,-242,-71,64,59,39
9950,24,-245,-72,47,56,43
9955,24,-243,-72,25,53,44
9960,22,-242,-71,5,48,46
9965,22,-244,-70,-16,43,47
9970,23,-247,-72,-38,36,50
9975,20,-248,-75,-57,27,52
9980,22,-254,-74,-77,17,52
9985,17,-251,-78,-95,7,55
9990,19,-258,-76,-111,-3,55
9995,16,-260,-80,-125,-13,53
10000,17,-263,-79,-137,-21,54
10005,17,-266,-88,-147,-28,52
10010,18,-271,-84,-154,-32,49
10015,16,-269,-85,-155,-33,46
10020,17,-270,-80,-150,-33,40
10025,15,-271,-81,-139,-30,33
10030,19,-275,-76,-121,-25,28
10035,16,-273,-81,-93,-17,20
10040,17,-273,-81,-62,-6,12
10045,17,-269,-79,-32,4,7
10050,14,-268,-78,-5,12,3
10055,12,-263,-83,20,16,-1
10060,17,-262,-80,39,19,-5
10065,19,-260,-77,51,25,-6
10070,19,-256,-83,54,33,-7
10075,21,-254,-77,49,39,-6
10080,23,-257,-78,38,43,-2
10085,23,-256,-74,23,46,0
10090,21,-254,-76,8,45,3
10095,24,-252,-76,-5,41,4
10100,36,-253,-77,-17,36,5
10105,23,-253,-75,-22,30,3
10110,26,-257,-74,-26,26,6
10115,23,-256,-77,-27,23,6
10120,24,-257,-78,-29,20,8
10125,25,-258,-78,-29,13,8
10130,23,-257,-76,-30,2,10
10135,26,-257,-80,-30,-6,10
10140,24,-259,-75,-32,-13,10
10145,25,-258,-78,-31,-12,8
10150,23,-259,-80,-25,-9,7
10155,23,-261,-75,-20,-4,3
10160,25,-263,-75,-15,6,0
10165,23,-262,-76,-7,15,-3
10170,26,-265,-80,2,26,-6
10175,25,-263,-81,12,34,-9
10180,26,-261,-81,22,39,-12
10185,27,-261,-81,33,43,-16
10190,25,-264,-77,46,44,-18
10195,24,-261,-77,56,43,-23
10200,21,-261,-78,63,40,-25
10205,18,-260,-82,66,38,-26
10210,19,-260,-77,64,34,-28
10215,21,-261,-78,61,32,-27
10220,17,-259,-81,53,29,-29
10225,16,-258,-79,47,28,-29
10230,15,-259,-80,40,29,-30
10235,15,-257,-77,32,30,-32
10240,11,-259,-79,26,31,-36
10245,17,-257,-76,22,32,-39
10250,15,-258,-80,18,34,-40
10255,14,-259,-78,13,33,-40
10260,14,-260,-75,7,30,-38
10265,14,-258,-77,3,24,-38
10270,14,-258,-80,-1,14,-34
10275,14,-257,-75,-2,2,-33
10280,17,-259,-78,-5,-8,-30
10285,17,-259,-79,-4,-19,-30
10290,17,-259,-76,-7,-27,-26
10295,19,-257,-73,-7,-35,-26
10300,20,-255,-74,-8,-42,-24
10305,16,-256,-81,-11,-48,-24
10310,17,-255,-77,-16,-51,-24
10315,24,-262,-69,-20,-53,-25
10320,22,-255,-72,-28,-52,-25
10325,21,-256,-74,-36,-47,-24
10330,24,-256,-75,-44,-42,-23
10335,26,-257,-70,-49,-36,-22
10340,26,-257,-68,-52,-32,-19
10345,26,-260,-75,-56,-28,-17
10350,27,-258,-70,-54,-26,-14
10355,27,-261,-69,-49,-25,-12
10360,25,-261,-77,-47,-23,-9
10365,24,-262,-69,-41,-26,-9
10370,22,-259,-75,-36,-30,-8
10375,25,-260,-72,-29,-32,-8
10380,25,-259,-75,-29,-34,-8
10385,25,-259,-75,-29,-34,-10
10390,26,-260,-74,-28,-32,-11
10395,25,-260,-74,-26,-29,-13
10400,24,-259,-72,-30,-24,-14
10405,27,-261,-72,-31,-21,-17
10410,24,-260,-73,-35,-19,-18
10415,20,-260,-74,-38,-18,-20
10420,29,-265,-70,-42,-19,-20
10425,25,-261,-73,-46,-22,-20
10430,27,-264,-67,-47,-24,-19
10435,27,-262,-71,-45,-25,-19
10440,26,-265,-70,-43,-24,-18
10445,24,-264,-68,-37,-21,-18
10450,24,-262,-73,-31,-15,-17
10455,23,-262,-72,-21,-6,-18
10460,22,-259,-72,-12,2,-18
10465,23,-258,-79,0,13,-20
10470,22,-258,-79,11,22,-22
10475,21,-255,-74,20,29,-26
10480,14,-251,-80,23,34,-30
10485,21,-250,-78,22,35,-33
10490,22,-254,-75,9,29,-33
10495,22,-254,-78,-14,22,-30
10500,21,-253,-79,-41,14,-24
10505,23,-255,-78,-68,7,-19
10510,25,-258,-75,-95,3,-14
10515,23,-261,-79,-114,1,-10
10520,22,-259,-75,-128,2,-8
10525,22,-266,-74,-136,1,-8
10530,25,-266,-75,-138,1,-8
10535,23,-262,-74,-134,-5,-8
10540,25,-261,-73,-130,-13,-8
10545,24,-260,-73,-124,-22,-8
10550,25,-261,-74,-120,-30,-8
10555,23,-261,-72,-114,-36,-7
10560,22,-261,-73,-112,-40,-7
10565,22,-262,-68,-112,-40,-5
10570,23,-260,-72,-113,-37,-5
10575,23,-260,-72,-115,-33,-4
10580,25,-259,-70,-112,-23,-5
10585,17,-259,-67,-107,-15,-6
10590,27,-261,-71,-104,-3,-8
10595,25,-264,-66,-99,8,-11
10600,26,-264,-67,-89,15,-14
10605,25,-262,-68,-77,22,-17
10610,26,-260,-72,-61,30,-21
10615,25,-262,-69,-44,36,-24
10620,26,-263,-72,-26,40,-28
10625,25,-264,-72,-10,44,-30
10630,18,-259,-71,1,43,-29
10635,23,-255,-73,6,42,-28
10640,27,-257,-82,12,38,-26
10645,22,-257,-71,12,32,-22
10650,22,-258,-74,6,27,-19
10655,26,-260,-72,-1,23,-17
10660,17,-257,-72,-16,19,-12
10665,23,-262,-72,-30,16,-9
10670,21,-260,-75,-39,14,-5
10675,19,-260,-72,-43,13,-5
10680,19,-259,-74,-47,15,-6
10685,23,-259,-68,-47,15,-8
10690,17,-259,-71,-45,13,-11
10695,18,-260,-73,-44,13,-13
10700,23,-260,-71,-45,9,-13
10705,17,-258,-69,-46,6,-11
10710,22,-259,-69,-48,0,-10
10715,21,-259,-71,-55,-4,-7
10720,20,-259,-72,-60,-9,-4
10725,24,-260,-70,-66,-12,-3
10730,26,-261,-66,-72,-17,-4
10735,23,-263,-68,-75,-17,-4
10740,24,-264,-68,-75,-19,-6
10745,20,-261,-67,-77,-18,-7
10750,25,-265,-70,-76,-19,-10
10755,20,-260,-68,-76,-20,-12
10760,22,-258,-72,-78,-20,-13
10765,19,-260,-69,-82,-19,-13
10770,21,-259,-69,-85,-20,-11
10775,22,-260,-69,-90,-20,-12
10780,23,-258,-71,-95,-16,-12
10785,22,-257,-68,-100,-15,-11
10790,23,-258,-76,-105,-12,-9
10795,22,-257,-66,-108,-11,-8
10800,26,-258,-69,-110,-9,-6
10805,24,-262,-69,-112,-8,-4
10810,25,-257,-71,-114,-6,-2
10815,27,-258,-78,-116,-5,-1
10820,27,-260,-76,-118,-7,-2
10825,29,-261,-74,-118,-10,-2
10830,26,-258,-76,-114,-13,-1
10835,31,-257,-73,-109,-17,-3
10840,26,-256,-79,-102,-20,-4
10845,31,-256,-76,-98,-19,-5
10850,30,-258,-74,-94,-16,-5
10855,27,-263,-78,-91,-13,-4
10860,32,-261,-76,-88,-9,-6
10865,27,-262,-72,-87,-4,-6
10870,29,-265,-75,-86,2,-7
10875,26,-262,-74,-81,9,-7
10880,25,-262,-76,-77,13,-9
10885,24,-263,-75,-70,18,-10
10890,22,-263,-75,-67,21,-9
10895,24,-262,-73,-58,20,-11
10900,24,-263,-75,-51,19,-11
10905,25,-265,-79,-41,17,-11
10910,24,-271,-76,-32,16,-12
10915,21,-261,-72,-24,16,-12
10920,21,-258,-71,-19,15,-10
10925,22,-257,-77,-17,16,-8
10930,22,-258,-75,-19,17,-7
10935,22,-257,-75,-20,18,-7
10940,22,-260,-73,-29,17,-7
10945,25,-259,-78,-39,17,-5
10950,19,-257,-75,-51,14,-5
10955,22,-257,-75,-62,10,-4
10960,21,-261,-74,-74,7,-4
10965,16,-257,-77,-84,5,-3
10970,21,-261,-76,-87,0,-1
10975,24,-263,-75,-88,-2,-2
10980,22,-263,-75,-83,-2,-4
10985,24,-266,-77,-75,-3,-4
10990,24,-262,-76,-64,-2,-5
10995,25,-261,-77,-52,-2,-7
11000,24,-260,-78,-40,1,-6
11005,23,-258,-73,-30,5,-6
11010,23,-257,-76,-23,7,-6
11015,26,-258,-74,-22,10,-8
11020,23,-260,-70,-24,11,-8
11025,27,-256,-77,-30,12,-7
11030,23,-256,-75,-36,12,-7
11035,25,-258,-79,-44,12,-6
11040,22,-257,-74,-49,11,-5
11045,20,-257,-75,-55,8,-3
11050,23,-260,-75,-59,5,-4
11055,25,-259,-73,-60,2,-2
11060,24,-256,-72,-59,-3,-1
11065,23,-257,-75,-59,-6,1
11070,28,-263,-80,-57,-10,1
11075,28,-260,-81,-54,-11,4
11080,25,-259,-74,-54,-11,3
11085,24,-259,-75,-55,-12,4
11090,25,-259,-72,-57,-10,4
11095,25,-258,-73,-58,-6,4
11100,24,-260,-76,-62,-1,4
11105,22,-259,-77,-66,3,5
11110,25,-261,-77,-69,7,7
11115,20,-258,-78,-70,9,9
11120,26,-261,-77,-70,11,8
11125,21,-261,-79,-70,12,6
11130,27,-256,-74,-64,10,6
11135,24,-260,-77,-59,9,4
11140,29,-258,-79,-55,9,2
11145,22,-260,-81,-49,10,1
11150,27,-257,-77,-42,10,0
11155,24,-256,-77,-38,13,-2
11160,26,-258,-78,-36,15,-1
11165,25,-255,-77,-34,13,0
11170,26,-262,-77,-35,14,-2
11175,24,-260,-80,-38,13,-2
11180,26,-257,-78,-42,12,-5
11185,26,-259,-77,-45,12,-5
11190,26,-257,-78,-49,11,-6
11195,25,-257,-80,-54,12,-5
11200,26,-258,-81,-59,11,-6
11205,24,-258,-76,-62,9,-7
11210,24,-257,-74,-63,9,-9
11215,23,-259,-81,-64,7,-11
11220,23,-259,-80,-64,7,-10
11225,24,-261,-75,-62,6,-11
11230,23,-260,-76,-60,4,-12
11235,25,-263,-82,-61,3,-12
11240,21,-258,-77,-56,2,-12
11245,21,-260,-77,-52,3,-13
11250,21,-258,-75,-52,4,-14
11255,21,-261,-75,-51,4,-12
11260,21,-258,-78,-50,4,-13
11265,23,-261,-77,-48,3,-12
11270,21,-259,-75,-48,2,-13
11275,22,-262,-79,-46,0,-13
11280,22,-260,-78,-44,-1,-14
11285,21,-260,-76,-44,-3,-15
11290,23,-258,-77,-44,-6,-15
11295,23,-259,-80,-42,-8,-15
11300,23,-259,-76,-36,-10,-16
11305,21,-259,-75,-34,-9,-16
11310,25,-257,-73,-34,-11,-16
11315,23,-256,-76,-34,-12,-17
11320,26,-258,-76,-34,-11,-17
11325,25,-257,-75,-37,-10,-18
11330,23,-257,-80,-42,-9,-18
11335,26,-259,-71,-49,-8,-19
11340,26,-259,-79,-56,-7,-20
11345,22,-258,-76,-63,-7,-19
11350,23,-257,-74,-68,-9,-18
11355,24,-258,-78,-75,-10,-18
11360,23,-256,-73,-83,-11,-17
11365,24,-260,-78,-87,-14,-16
11370,21,-259,-74,-90,-15,-15
11375,24,-260,-76,-90,-17,-14
11380,26,-261,-79,-85,-17,-14
11385,25,-264,-81,-83,-18,-13
11390,25,-258,-77,-80,-20,-12
11395,23,-261,-80,-77,-22,-11
11400,30,-262,-71,-73,-23,-10
11405,26,-260,-75,-70,-25,-10
11410,25,-261,-77,-68,-26,-10
11415,25,-259,-77,-65,-25,-11
11420,26,-262,-76,-65,-23,-10
11425,24,-261,-71,-65,-22,-7
11430,25,-259,-79,-63,-18,-8
11435,24,-259,-71,-59,-15,-9
11440,26,-258,-75,-56,-13,-9
11445,26,-260,-76,-50,-12,-10
11450,26,-262,-72,-46,-10,-12
11455,27,-260,-74,-39,-8,-14
11460,28,-260,-78,-34,-4,-14
11465,24,-257,-77,-29,0,-15
11470,23,-256,-73,-26,4,-15
11475,25,-257,-76,-28,11,-14
11480,24,-258,-77,-31,14,-14
11485,24,-257,-78,-35,16,-14
11490,23,-261,-80,-40,16,-13
11495,19,-259,-77,-44,12,-12
11500,26,-259,-76,-46,8,-13
11505,24,-260,-80,-47,4,-14
11510,16,-257,-72,-48,2,-15
11515,26,-260,-75,-48,-1,-15
11520,26,-262,-77,-48,-2,-18
11525,27,-262,-79,-46,-4,-18
11530,25,-263,-79,-45,-5,-20
11535,24,-263,-78,-46,-5,-19
11540,25,-264,-77,-46,-7,-19
11545,22,-264,-76,-47,-8,-17
11550,25,-264,-73,-46,-9,-18
11555,24,-263,-72,-45,-13,-16
11560,23,-265,-77,-40,-14,-16
11565,23,-261,-77,-35,-14,-16
11570,25,-265,-79,-27,-12,-14
11575,24,-268,-71,-17,-10,-14
11580,23,-263,-73,-8,-9,-13
11585,22,-261,-75,1,-8,-13
11590,23,-261,-75,9,-5,-13
11595,22,-257,-73,15,-6,-13
11600,27,-259,-75,18,-6,-12
11605,26,-256,-73,20,-7,-12
11610,23,-257,-76,18,-6,-13
11615,24,-256,-73,12,-5,-14
11620,23,-256,-74,6,-5,-15
11625,26,-254,-74,-6,-6,-15
11630,25,-256,-75,-17,-4,-15
11635,27,-259,-76,-27,-5,-15
11640,26,-258,-74,-36,-5,-12
11645,25,-259,-73,-42,-3,-11
11650,28,-260,-74,-44,-3,-12
11655,25,-262,-75,-44,-2,-12
11660,27,-261,-76,-40,-2,-11
11665,27,-260,-76,-34,-3,-11
11670,21,-259,-80,-26,-4,-10
11675,20,-260,-78,-19,-3,-10
11680,28,-262,-80,-11,1,-11
11685,28,-263,-80,-1,4,-11
11690,28,-261,-79,4,8,-12
11695,27,-264,-78,9,12,-12
11700,26,-262,-76,11,15,-15
11705,26,-259,-73,14,16,-14
11710,27,-261,-74,11,21,-15
11715,24,-260,-73,12,23,-17
11720,27,-260,-70,11,27,-19
11725,23,-258,-73,12,29,-21
11730,24,-262,-74,9,33,-21
11735,23,-260,-70,11,35,-22
11740,22,-259,-67,13,34,-21
11745,23,-258,-68,15,33,-22
11750,21,-257,-70,18,31,-22
11755,23,-259,-67,18,27,-21
11760,27,-256,-69,17,23,-20
11765,23,-257,-68,12,18,-18
11770,21,-257,-71,6,15,-18
11775,24,-256,-71,-1,11,-15
11780,24,-261,-74,-9,9,-11
11785,23,-257,-72,-17,10,-9
11790,23,-256,-73,-24,8,-6
11795,24,-257,-71,-33,11,-3
11800,23,-258,-70,-38,12,-3
11805,23,-259,-75,-39,12,-1
11810,22,-260,-71,-38,13,-2
11815,26,-263,-69,-35,13,-2
11820,25,-263,-70,-31,13,-3
11825,25,-261,-75,-28,15,-4
11830,24,-259,-76,-23,15,-5
11835,25,-262,-76,-20,17,-5
11840,22,-259,-69,-17,17,-7
11845,25,-261,-71,-14,18,-8
11850,25,-260,-72,-10,19,-8
11855,26,-261,-73,-9,21,-8
11860,27,-258,-71,-9,22,-8
11865,23,-256,-73,-9,23,-9
11870,27,-257,-72,-8,23,-9
11875,25,-258,-73,-10,22,-8
11880,28,-258,-74,-14,22,-6
11885,24,-260,-70,-15,20,-6
11890,27,-261,-72,-21,19,-9
11895,27,-259,-70,-20,18,-8
11900,24,-258,-72,-24,16,-9
11905,26,-257,-73,-25,16,-8
11910,26,-260,-73,-25,17,-8
11915,26,-258,-69,-25,19,-7
11920,23,-261,-69,-23,23,-8
11925,26,-260,-79,-23,23,-8
11930,26,-260,-76,-24,26,-6
11935,24,-261,-72,-24,28,-6
11940,25,-257,-74,-25,29,-6
11945,21,-264,-76,-23,31,-5
11950,25,-260,-73,-23,34,-6
11955,25,-261,-71,-26,36,-6
11960,29,-262,-74,-25,36,-6
11965,29,-261,-72,-27,38,-6
11970,26,-262,-70,-23,40,-5
11975,26,-259,-70,-20,43,-6
11980,24,-259,-72,-18,45,-6
11985,25,-256,-71,-17,46,-7
11990,26,-262,-73,-16,46,-7
11995,26,-259,-70,-14,45,-6
