timestamp,acc_x,acc_y,acc_z,gyro_x,gyro_y,gyro_z
0,-2,-233,-158,-40,17,-8
5,-4,-232,-160,-41,16,-8
10,0,-232,-159,-42,17,-7
15,-5,-231,-160,-42,17,-7
20,-1,-234,-157,-44,16,-7
25,0,-233,-159,-43,16,-7
30,-1,-232,-160,-42,16,-9
35,-1,-233,-159,-41,16,-5
40,-3,-232,-158,-39,15,-5
45,0,-234,-158,-38,17,-5
50,-4,-233,-160,-39,17,-4
55,-8,-225,-156,-41,15,-4
60,-2,-230,-162,-42,16,-5
65,0,-234,-160,-44,15,-4
70,0,-233,-152,-43,15,-4
75,0,-232,-157,-40,14,-4
80,-4,-233,-158,-41,12,-4
85,-2,-232,-159,-40,13,-5
90,0,-234,-154,-43,11,-5
95,0,-232,-154,-44,10,-5
100,-5,-230,-153,-45,9,-5
105,-1,-233,-157,-50,8,-7
110,-2,-232,-161,-51,8,-6
115,0,-232,-157,-50,7,-6
120,-4,-234,-156,-51,7,-6
125,0,-234,-160,-52,7,-7
130,-1,-233,-158,-51,7,-6
135,-2,-234,-158,-49,6,-7
140,0,-230,-162,-49,8,-7
145,0,-232,-160,-49,9,-7
150,-2,-231,-158,-47,11,-8
155,0,-232,-159,-45,15,-8
160,-2,-232,-158,-44,15,-8
165,0,-232,-158,-43,16,-9
170,-6,-232,-162,-39,19,-9
175,-1,-233,-159,-38,21,-9
180,0,-231,-160,-36,22,-8
185,0,-229,-159,-36,22,-7
190,-3,-231,-155,-36,23,-8
195,0,-231,-160,-38,24,-8
200,-2,-231,-160,-41,22,-9
205,-4,-232,-161,-42,21,-7
210,-2,-231,-158,-44,19,-7
215,0,-229,-163,-48,16,-7
220,-1,-231,-161,-50,14,-7
225,1,-235,-159,-51,13,-9
230,0,-231,-158,-50,11,-8
235,0,-234,-162,-49,11,-10
240,-2,-232,-158,-47,10,-11
245,-3,-234,-160,-43,8,-11
250,0,-230,-160,-41,8,-11
255,-1,-231,-157,-38,9,-11
260,-1,-229,-157,-37,10,-11
265,-3,-231,-156,-37,10,-11
270,0,-232,-157,-36,11,-11
275,-2,-228,-159,-37,11,-12
280,-1,-232,-160,-37,13,-11
285,-3,-231,-159,-35,14,-11
290,-1,-230,-159,-36,18,-10
295,-3,-231,-157,-36,19,-9
300,-1,-233,-158,-37,20,-8
305,0,-231,-160,-37,22,-8
310,0,-235,-160,-36,22,-5
315,0,-232,-161,-36,24,-4
320,-5,-231,-156,-35,25,-5
325,0,-233,-158,-36,26,-5
330,-1,-233,-158,-34,27,-5
335,0,-231,-156,-32,27,-6
340,-4,-229,-158,-30,26,-6
345,0,-230,-162,-30,26,-6
350,0,-231,-162,-31,25,-8
355,0,-232,-156,-33,21,-9
360,-3,-231,-161,-35,20,-10
365,-4,-232,-159,-36,19,-11
370,-2,-232,-162,-39,17,-12
375,0,-231,-161,-38,15,-13
380,-7,-228,-158,-38,14,-13
385,-3,-232,-156,-39,13,-14
390,0,-232,-161,-38,14,-13
395,-2,-230,-156,-40,12,-13
400,-2,-228,-162,-43,14,-12
405,0,-232,-158,-45,13,-13
410,0,-231,-162,-46,13,-12
415,-2,-232,-159,-48,15,-10
420,0,-230,-158,-48,16,-10
425,-1,-231,-156,-47,20,-8
430,0,-234,-162,-45,20,-8
435,0,-232,-163,-44,21,-8
440,0,-235,-161,-43,23,-7
445,0,-233,-160,-40,23,-6
450,-1,-232,-153,-39,24,-7
455,-11,-239,-152,-38,23,-6
460,0,-237,-157,-39,23,-6
465,-2,-235,-154,-36,22,-6
470,-2,-236,-158,-40,23,-6
475,-1,-232,-157,-39,22,-6
480,-1,-233,-161,-37,20,-7
485,0,-236,-160,-35,19,-8
490,-2,-234,-158,-33,19,-8
495,0,-235,-154,-30,19,-8
500,1,-233,-158,-29,18,-8
505,0,-234,-158,-27,19,-7
510,-5,-225,-164,-27,20,-7
515,-1,-229,-158,-28,20,-7
520,-5,-234,-161,-25,19,-7
525,-3,-233,-158,-27,19,-8
530,-2,-231,-159,-28,18,-7
535,-6,-230,-157,-26,17,-7
540,-2,-231,-159,-29,17,-8
545,0,-232,-157,-33,17,-9
550,-4,-228,-158,-35,17,-9
555,-3,-228,-158,-36,15,-9
560,-5,-226,-162,-40,15,-8
565,-1,-233,-158,-41,15,-9
570,-3,-230,-154,-43,16,-9
575,0,-233,-161,-44,15,-9
580,-1,-234,-159,-44,15,-9
585,0,-233,-159,-43,17,-8
590,0,-233,-157,-42,18,-8
595,-2,-231,-156,-41,18,-6
600,-1,-234,-159,-39,21,-6
605,1,-237,-157,-39,24,-5
610,0,-235,-156,-37,27,-5
615,-3,-234,-157,-35,28,-4
620,0,-234,-156,-31,28,-5
625,-2,-233,-158,-31,28,-6
630,-2,-235,-156,-30,30,-6
635,-1,-234,-158,-27,32,-7
640,-2,-234,-158,-28,30,-7
645,-3,-233,-156,-27,29,-7
650,-3,-229,-158,-29,28,-7
655,-3,-233,-161,-30,26,-9
660,-3,-232,-156,-32,26,-8
665,-1,-233,-157,-34,23,-8
670,0,-234,-155,-35,22,-7
675,-4,-233,-158,-34,21,-8
680,-3,-235,-157,-34,20,-6
685,0,-234,-159,-35,20,-5
690,-2,-236,-159,-35,19,-4
695,-1,-233,-157,-33,20,-5
700,-2,-237,-153,-32,22,-5
705,0,-237,-158,-32,22,-5
710,0,-232,-158,-30,22,-4
715,0,-234,-155,-28,21,-6
720,0,-231,-159,-26,21,-5
725,0,-231,-154,-26,21,-6
730,-3,-229,-152,-25,21,-8
735,0,-233,-156,-27,21,-6
740,0,-230,-155,-27,20,-8
745,0,-230,-162,-29,19,-7
750,0,-231,-161,-30,18,-6
755,0,-231,-159,-32,18,-8
760,-1,-232,-156,-33,21,-6
765,-2,-236,-160,-35,21,-7
770,1,-233,-161,-36,22,-5
775,0,-232,-158,-35,21,-6
780,-2,-233,-156,-36,22,-5
785,-1,-234,-161,-36,22,-6
790,-5,-231,-157,-37,22,-5
795,0,-236,-163,-37,23,-5
800,0,-233,-155,-38,26,-4
805,-3,-233,-157,-38,25,-3
810,-1,-232,-157,-38,28,-4
815,2,-235,-156,-36,28,-4
820,1,-236,-156,-35,29,-4
825,0,-236,-160,-33,30,-4
830,-3,-233,-157,-31,31,-4
835,-1,-234,-157,-31,30,-4
840,0,-233,-158,-30,30,-4
845,0,-232,-156,-30,29,-4
850,-2,-234,-156,-28,28,-5
855,-4,-231,-155,-27,27,-5
860,1,-234,-155,-26,26,-5
865,-2,-231,-156,-28,25,-6
870,0,-231,-157,-29,24,-7
875,-1,-232,-154,-32,25,-6
880,-2,-230,-157,-33,23,-7
885,0,-232,-157,-35,23,-7
890,-3,-231,-155,-36,24,-7
895,-3,-231,-160,-39,23,-8
900,-2,-232,-158,-40,24,-7
905,-1,-232,-155,-42,25,-5
910,-4,-232,-158,-43,26,-5
915,0,-234,-158,-44,25,-5
920,-2,-234,-166,-43,26,-4
925,-3,-233,-157,-42,26,-4
930,-5,-237,-154,-42,28,-4
935,-2,-237,-157,-37,30,-4
940,-3,-234,-156,-32,29,-4
945,-1,-236,-157,-26,31,-5
950,-1,-233,-155,-23,33,-5
955,-1,-234,-160,-21,31,-5
960,-2,-232,-155,-20,30,-4
965,-2,-234,-158,-21,31,-5
970,0,-229,-160,-22,30,-6
975,0,-233,-153,-25,30,-6
980,-2,-232,-157,-25,30,-6
985,-3,-233,-157,-30,30,-6
990,-2,-232,-158,-32,28,-6
995,0,-232,-157,-35,28,-6
1000,0,-233,-157,-38,26,-5
1005,0,-232,-154,-42,25,-4
1010,-2,-234,-156,-42,24,-4
1015,-1,-231,-153,-42,23,-6
1020,-3,-232,-160,-44,23,-7
1025,-1,-234,-154,-44,20,-6
1030,-2,-234,-156,-44,20,-7
1035,-1,-233,-152,-43,19,-7
1040,0,-235,-155,-45,21,-6
1045,0,-233,-154,-46,22,-7
1050,0,-234,-156,-48,20,-8
1055,-2,-232,-156,-47,21,-5
1060,0,-234,-156,-49,21,-6
1065,-1,-234,-161,-49,23,-5
1070,0,-235,-159,-48,23,-5
1075,1,-237,-159,-47,25,-5
1080,1,-233,-155,-46,26,-5
1085,0,-235,-154,-45,27,-5
1090,-1,-232,-154,-43,28,-5
1095,-1,-233,-152,-45,29,-5
1100,-1,-234,-158,-43,29,-6
1105,-1,-235,-157,-42,28,-5
1110,-3,-233,-153,-44,26,-7
1115,1,-236,-155,-44,23,-8
1120,0,-235,-150,-45,21,-8
1125,0,-237,-156,-47,20,-8
1130,-4,-236,-151,-45,18,-10
1135,-1,-234,-156,-46,17,-11
1140,-3,-234,-156,-46,17,-11
1145,-1,-237,-152,-43,17,-10
1150,0,-236,-160,-41,18,-10
1155,0,-236,-160,-38,17,-10
1160,-2,-234,-159,-38,18,-10
1165,-1,-234,-152,-35,17,-9
1170,0,-235,-150,-34,17,-8
1175,0,-231,-154,-30,18,-10
1180,-1,-234,-156,-31,19,-8
1185,-2,-232,-155,-32,18,-8
1190,1,-233,-156,-33,19,-9
1195,0,-233,-158,-33,20,-9
1200,-2,-235,-152,-36,22,-8
1205,-4,-233,-152,-38,20,-10
1210,1,-234,-157,-38,22,-9
1215,14,-229,-169,-41,22,-9
1220,0,-235,-155,-42,23,-8
1225,0,-231,-156,-42,23,-8
1230,-2,-233,-159,-43,22,-9
1235,-2,-234,-159,-42,21,-7
1240,2,-237,-157,-43,21,-9
1245,-1,-236,-157,-41,22,-10
1250,-3,-230,-153,-37,20,-10
1255,1,-235,-158,-38,20,-10
1260,0,-233,-155,-37,21,-9
1265,0,-233,-156,-38,20,-11
1270,6,-239,-140,-36,19,-11
1275,0,-234,-153,-36,19,-12
1280,-2,-232,-152,-37,19,-12
1285,-2,-234,-157,-40,18,-13
1290,0,-233,-154,-41,19,-14
1295,-1,-231,-153,-43,19,-13
1300,-1,-233,-155,-45,18,-14
1305,-4,-233,-159,-49,19,-13
1310,0,-234,-160,-49,17,-12
1315,0,-235,-156,-51,17,-12
1320,-2,-233,-152,-50,17,-9
1325,1,-237,-157,-50,18,-11
1330,0,-234,-156,-48,18,-11
1335,0,-236,-154,-44,18,-12
1340,0,-238,-158,-40,20,-11
1345,1,-232,-155,-38,20,-10
1350,0,-235,-155,-34,20,-10
1355,0,-237,-160,-31,20,-11
1360,-1,-234,-157,-28,22,-11
1365,-3,-234,-154,-26,22,-10
1370,-1,-232,-154,-22,22,-11
1375,-1,-232,-152,-21,22,-12
1380,-1,-232,-156,-20,20,-14
1385,0,-230,-156,-23,20,-14
1390,-4,-229,-155,-26,19,-14
1395,-1,-230,-152,-30,18,-15
1400,-1,-232,-154,-35,17,-15
1405,0,-230,-158,-39,14,-15
1410,0,-231,-156,-45,13,-15
1415,-1,-228,-151,-48,11,-15
1420,-1,-232,-155,-50,12,-16
1425,0,-233,-152,-53,9,-14
1430,2,-231,-156,-54,10,-15
1435,1,-233,-157,-57,9,-15
1440,-3,-227,-155,-58,10,-15
1445,-1,-232,-157,-59,10,-15
1450,-1,-234,-156,-59,10,-15
1455,0,-238,-155,-58,10,-14
1460,0,-234,-157,-56,14,-13
1465,0,-238,-159,-53,14,-12
1470,1,-235,-156,-49,17,-13
1475,0,-238,-157,-48,18,-12
1480,0,-233,-152,-45,18,-11
1485,-1,-236,-153,-43,18,-11
1490,0,-234,-156,-39,17,-10
1495,-4,-231,-156,-38,17,-11
1500,0,-234,-157,-35,18,-10
1505,1,-235,-154,-34,19,-10
1510,0,-232,-155,-36,18,-11
1515,-3,-233,-159,-37,18,-9
1520,1,-233,-153,-38,18,-10
1525,0,-234,-157,-40,17,-10
1530,1,-233,-152,-42,14,-10
1535,0,-230,-159,-44,14,-9
1540,0,-231,-156,-45,13,-9
1545,0,-231,-155,-47,11,-6
1550,0,-231,-157,-47,11,-8
1555,0,-232,-157,-46,12,-7
1560,1,-233,-155,-49,11,-6
1565,-3,-231,-155,-50,11,-6
1570,0,-235,-153,-53,13,-5
1575,0,-235,-153,-54,14,-4
1580,-1,-235,-153,-56,16,-3
1585,0,-237,-155,-54,18,-4
1590,0,-236,-156,-50,18,-5
1595,0,-235,-160,-45,19,-4
1600,0,-234,-162,-40,19,-4
1605,0,-233,-155,-35,18,-4
1610,0,-235,-157,-35,19,-4
1615,0,-235,-155,-35,18,-6
1620,-1,-233,-155,-37,17,-5
1625,0,-234,-157,-38,17,-4
1630,1,-232,-158,-38,18,-4
1635,0,-231,-156,-38,16,-3
1640,1,-232,-155,-40,17,-3
1645,0,-234,-156,-44,17,-2
1650,-1,-235,-157,-47,16,-2
1655,0,-233,-154,-50,17,-1
1660,0,-234,-157,-52,16,0
1665,0,-237,-160,-54,16,-1
1670,1,-235,-157,-54,16,0
1675,0,-234,-155,-55,17,-1
1680,-4,-233,-158,-52,17,-2
1685,1,-234,-158,-51,18,-3
1690,-2,-233,-160,-50,18,-2
1695,-2,-235,-158,-49,18,-4
1700,0,-233,-154,-49,17,-4
1705,1,-234,-159,-50,17,-3
1710,0,-235,-159,-50,17,-3
1715,0,-236,-158,-50,18,-1
1720,0,-232,-157,-49,17,-1
1725,-2,-235,-158,-50,19,-2
1730,-1,-234,-156,-50,19,-1
1735,0,-232,-160,-50,20,-1
1740,-1,-233,-156,-52,21,0
1745,1,-234,-157,-51,21,0
1750,-1,-237,-159,-50,20,1
1755,1,-234,-153,-48,19,0
1760,-1,-233,-154,-47,19,1
1765,0,-234,-155,-44,18,2
1770,0,-235,-159,-45,16,2
1775,0,-232,-156,-44,14,0
1780,-2,-231,-154,-43,11,-1
1785,-1,-235,-157,-44,11,1
1790,0,-233,-160,-44,10,0
1795,-2,-237,-153,-44,10,1
1800,0,-233,-158,-44,10,0
1805,-1,-234,-155,-43,11,1
1810,0,-232,-154,-44,14,1
1815,0,-234,-157,-45,16,2
1820,-2,-234,-153,-43,18,1
1825,1,-234,-151,-43,18,2
1830,0,-233,-156,-41,20,2
1835,0,-234,-152,-41,17,1
1840,-2,-228,-153,-41,20,2
1845,0,-233,-161,-41,20,0
1850,0,-231,-159,-43,20,1
1855,-1,-230,-158,-44,20,2
1860,-1,-233,-156,-46,21,2
1865,0,-233,-158,-49,22,3
1870,-1,-232,-157,-50,22,5
1875,-2,-228,-157,-54,23,4
1880,1,-234,-155,-55,24,5
1885,1,-233,-155,-57,23,5
1890,0,-234,-156,-59,25,5
1895,0,-233,-158,-60,24,5
1900,0,-233,-154,-61,25,6
1905,-1,-235,-160,-60,26,7
1910,0,-235,-157,-62,26,6
1915,-3,-235,-155,-64,28,8
1920,0,-231,-154,-64,29,7
1925,-11,-230,-150,-65,30,9
1930,0,-237,-158,-64,32,12
1935,-4,-233,-154,-66,34,13
1940,-2,-234,-162,-66,36,16
1945,0,-231,-158,-68,39,17
1950,-2,-228,-161,-70,42,19
1955,0,-230,-161,-71,46,22
1960,0,-226,-160,-74,50,26
1965,0,-226,-163,-78,55,29
1970,1,-228,-161,-83,61,32
1975,1,-225,-163,-90,65,33
1980,1,-229,-157,-94,68,34
1985,0,-225,-163,-100,71,37
1990,0,-223,-163,-104,75,36
1995,0,-222,-166,-109,76,38
2000,0,-225,-163,-114,77,40
2005,0,-224,-157,-122,76,41
2010,0,-223,-160,-126,77,44
2015,-1,-225,-160,-132,77,44
2020,0,-223,-163,-139,77,46
2025,0,-224,-165,-146,74,46
2030,-1,-222,-162,-153,73,48
2035,-1,-224,-162,-163,70,49
2040,-3,-222,-162,-173,66,50
2045,0,-224,-168,-184,64,47
2050,0,-226,-169,-192,64,46
2055,-6,-229,-167,-200,66,48
2060,-6,-227,-166,-203,69,48
2065,-3,-227,-169,-201,74,48
2070,-8,-222,-168,-198,80,51
2075,-8,-222,-171,-195,87,54
2080,-5,-224,-170,-192,92,60
2085,-7,-219,-174,-190,100,65
2090,-7,-218,-168,-187,106,68
2095,-1,-219,-169,-186,112,71
2100,-4,-220,-172,-182,118,73
2105,0,-217,-170,-175,125,75
2110,-2,-215,-168,-167,131,74
2115,-2,-216,-169,-160,137,69
2120,-8,-209,-173,-155,141,65
2125,-2,-209,-170,-157,145,68
2130,-3,-212,-173,-164,150,73
2135,-5,-206,-172,-177,154,77
2140,-4,-207,-171,-193,152,80
2145,-3,-208,-171,-207,144,84
2150,-7,-207,-172,-223,134,89
2155,-9,-206,-174,-235,123,93
2160,-8,-208,-171,-246,113,98
2165,-10,-207,-174,-255,102,100
2170,-10,-201,-174,-263,93,102
2175,-2,-205,-173,-267,85,105
2180,0,-204,-173,-274,80,106
2185,-1,-207,-174,-282,76,108
2190,0,-205,-178,-292,74,109
2195,-4,-207,-177,-303,78,113
2200,-1,-208,-176,-312,79,117
2205,-1,-208,-175,-323,82,120
2210,-1,-206,-177,-331,84,126
2215,-2,-206,-175,-336,85,130
2220,-3,-211,-179,-339,84,135
2225,-5,-210,-177,-341,82,140
2230,-9,-206,-177,-342,80,147
2235,-9,-209,-178,-343,77,154
2240,-9,-208,-178,-342,77,160
2245,-7,-206,-174,-339,78,165
2250,-11,-208,-176,-337,79,171
2255,-10,-209,-175,-334,80,174
2260,-12,-203,-175,-329,81,178
2265,-11,-201,-174,-326,84,183
2270,-11,-198,-173,-322,87,186
2275,-12,-197,-177,-319,90,191
2280,-13,-198,-178,-320,91,192
2285,-14,-196,-175,-321,92,197
2290,-15,-194,-180,-326,93,201
2295,-18,-194,-177,-334,93,206
2300,-17,-193,-177,-346,93,210
2305,-18,-192,-178,-362,90,216
2310,-16,-194,-175,-379,87,223
2315,-20,-192,-178,-398,83,229
2320,-15,-194,-181,-416,78,234
2325,-18,-193,-181,-438,74,238
2330,-18,-196,-181,-458,70,241
2335,-18,-196,-181,-475,67,243
2340,-20,-198,-180,-490,62,245
2345,-19,-198,-182,-501,57,248
2350,-16,-200,-185,-508,54,248
2355,-15,-205,-183,-509,50,249
2360,-15,-202,-182,-509,49,251
2365,-16,-207,-179,-506,49,252
2370,-14,-207,-182,-501,48,252
2375,-17,-208,-177,-492,49,254
2380,-17,-203,-185,-483,50,255
2385,-19,-205,-180,-473,48,255
2390,-16,-202,-179,-461,46,255
2395,-16,-202,-178,-453,45,255
2400,-14,-204,-178,-444,45,255
2405,-13,-198,-180,-436,45,251
2410,-13,-196,-180,-432,46,250
2415,-11,-196,-175,-434,50,246
2420,-13,-190,-182,-436,54,241
2425,-11,-194,-179,-439,59,236
2430,-11,-192,-186,-446,65,230
2435,-12,-190,-182,-452,66,224
2440,-14,-192,-185,-458,65,219
2445,-15,-191,-187,-462,62,216
2450,-12,-190,-184,-467,60,211
2455,-14,-187,-185,-471,57,208
2460,-15,-186,-186,-474,53,205
2465,-14,-189,-185,-478,49,201
2470,-13,-190,-185,-482,48,195
2475,-14,-186,-182,-486,49,188
2480,-15,-191,-185,-488,51,179
2485,-18,-187,-184,-487,51,170
2490,-17,-186,-186,-484,51,160
2495,-18,-183,-190,-480,54,151
2500,-16,-186,-183,-472,59,142
2505,-19,-183,-180,-462,64,133
2510,-20,-176,-181,-455,71,126
2515,-19,-182,-179,-443,80,124
2520,-18,-178,-180,-432,92,127
2525,-21,-175,-181,-424,102,127
2530,-18,-174,-183,-420,109,130
2535,-18,-175,-180,-422,115,133
2540,-20,-174,-183,-426,120,138
2545,-21,-173,-184,-432,122,142
2550,-21,-175,-185,-436,122,145
2555,-21,-175,-184,-441,117,153
2560,-21,-172,-187,-446,114,159
2565,-22,-174,-188,-447,111,163
2570,-20,-179,-191,-450,109,169
2575,-22,-182,-193,-453,108,173
2580,-20,-185,-185,-452,104,175
2585,-19,-188,-192,-450,98,177
2590,-24,-188,-188,-448,88,174
2595,-24,-190,-184,-439,76,172
2600,-26,-190,-191,-428,63,170
2605,-26,-192,-195,-414,47,167
2610,-25,-189,-189,-398,31,162
2615,-22,-191,-192,-379,14,159
2620,-21,-194,-193,-360,1,154
2625,-20,-198,-193,-341,-8,146
2630,-16,-196,-197,-325,-14,136
2635,-19,-193,-202,-311,-17,133
2640,-16,-196,-199,-297,-21,129
2645,-14,-196,-199,-284,-24,122
2650,-17,-196,-196,-274,-27,119
2655,-15,-195,-196,-262,-34,120
2660,-16,-195,-194,-247,-49,120
2665,-13,-194,-199,-233,-59,122
2670,-14,-193,-199,-220,-65,122
2675,-12,-193,-205,-210,-68,120
2680,-14,-194,-202,-203,-68,115
2685,-19,-194,-205,-198,-70,111
2690,-16,-192,-204,-197,-75,107
2695,-18,-192,-206,-194,-75,104
2700,-16,-192,-200,-199,-76,102
2705,-16,-190,-203,-206,-72,98
2710,-16,-186,-200,-214,-61,93
2715,-11,-186,-201,-225,-47,90
2720,-12,-185,-204,-237,-30,84
2725,-11,-184,-201,-250,-16,79
2730,-9,-184,-201,-260,-1,73
2735,-8,-182,-199,-270,15,72
2740,-8,-188,-191,-275,29,68
2745,-12,-176,-202,-281,41,62
2750,-10,-176,-198,-285,53,52
2755,-9,-175,-201,-286,62,42
2760,-11,-178,-202,-284,68,28
2765,-12,-180,-202,-280,77,12
2770,-14,-179,-202,-272,86,0
2775,-17,-181,-203,-268,94,-13
2780,-15,-182,-205,-264,102,-16
2785,-13,-187,-201,-257,104,-20
2790,-17,-189,-201,-253,102,-29
2795,-20,-187,-199,-244,98,-36
2800,-20,-191,-198,-231,95,-40
2805,-22,-192,-198,-212,95,-39
2810,-20,-193,-206,-188,96,-37
2815,-21,-199,-203,-164,97,-37
2820,-25,-198,-197,-139,95,-36
2825,-26,-204,-201,-117,92,-26
2830,-28,-208,-204,-88,85,-17
2835,-24,-211,-202,-56,79,3
2840,-26,-215,-207,-26,76,10
2845,-26,-210,-205,8,79,8
2850,-27,-210,-204,37,86,18
2855,-26,-205,-205,58,96,27
2860,-25,-204,-206,74,105,36
2865,-24,-198,-205,85,115,42
2870,-18,-198,-206,94,126,49
2875,-21,-193,-210,97,143,48
2880,-21,-190,-208,95,161,58
2885,-16,-191,-206,87,179,68
2890,-13,-192,-203,79,196,56
2895,-20,-189,-203,71,214,41
2900,-25,-192,-203,60,232,36
2905,-24,-192,-200,47,250,53
2910,-18,-199,-201,38,265,69
2915,-21,-199,-208,34,275,66
2920,-20,-201,-205,39,281,66
2925,-28,-198,-208,57,284,53
2930,-17,-203,-211,68,288,83
2935,-19,-202,-210,71,286,84
2940,-25,-198,-213,77,273,77
2945,-18,-208,-215,72,254,92
2950,-23,-206,-214,54,228,90
2955,-26,-214,-212,43,197,87
2960,-24,-215,-214,33,164,84
2965,-32,-219,-211,20,131,74
2970,-30,-219,-211,9,101,94
2975,-30,-220,-208,5,76,88
2980,-44,-222,-211,14,56,77
2985,-46,-220,-211,26,48,74
2990,-38,-223,-207,45,37,89
2995,-36,-221,-205,66,39,91
3000,-32,-214,-207,93,56,75
3005,-35,-211,-213,115,78,70
3010,-36,-203,-206,123,108,105
3015,-23,-205,-213,133,133,124
3020,-19,-198,-212,135,169,121
3025,-21,-190,-217,123,209,115
3030,-15,-190,-216,97,237,133
3035,-17,-191,-219,68,260,146
3040,-13,-193,-219,40,268,153
3045,-13,-191,-213,4,270,147
3050,-13,-197,-208,-23,264,138
3055,-11,-202,-206,-36,259,140
3060,-12,-203,-206,-31,241,139
3065,-10,-206,-210,-17,223,135
3070,-12,-206,-205,-5,214,143
3075,-20,-206,-205,21,194,133
3080,-17,-209,-213,48,161,128
3085,-12,-200,-214,57,143,139
3090,-8,-204,-217,56,138,132
3095,-2,-201,-222,43,132,111
3100,-13,-193,-226,13,135,104
3105,-10,-193,-231,-24,138,130
3110,-8,-191,-228,-78,147,146
3115,-13,-194,-218,-124,148,143
3120,-18,-192,-225,-152,143,145
3125,-26,-194,-218,-163,142,153
3130,-33,-192,-220,-156,137,146
3135,-34,-190,-219,-153,129,153
3140,-36,-184,-222,-161,120,171
3145,-36,-184,-218,-163,118,189
3150,-43,-181,-215,-170,106,178
3155,-49,-170,-217,-192,84,187
3160,-41,-173,-222,-224,63,204
3165,-32,-175,-220,-264,46,221
3170,-27,-175,-223,-308,37,219
3175,-16,-183,-223,-345,33,189
3180,-25,-179,-217,-382,44,163
3185,-32,-177,-220,-408,58,173
3190,-22,-183,-223,-428,65,191
3195,-12,-189,-225,-449,70,189
3200,-20,-186,-221,-480,78,174
3205,-16,-184,-227,-503,85,156
3210,-19,-188,-228,-529,91,146
3215,-11,-189,-225,-558,89,144
3220,-7,-192,-230,-584,83,137
3225,-4,-191,-231,-598,84,119
3230,-12,-192,-230,-600,90,111
3235,-2,-194,-223,-594,99,114
3240,-11,-195,-223,-582,101,123
3245,-9,-203,-221,-556,108,137
3250,-4,-200,-227,-524,105,130
3255,-14,-194,-227,-489,104,105
3260,-22,-191,-229,-449,106,102
3265,-13,-188,-229,-418,98,101
3270,-23,-186,-223,-394,78,84
3275,-28,-184,-225,-378,62,84
3280,-33,-180,-218,-379,30,79
3285,-25,-180,-224,-376,-4,85
3290,-39,-176,-222,-366,-16,91
3295,-21,-193,-229,-355,-33,94
3300,-21,-189,-229,-352,-52,70
3305,-19,-188,-232,-340,-58,60
3310,-19,-188,-231,-330,-57,43
3315,-19,-179,-234,-325,-58,33
3320,-20,-180,-236,-327,-46,23
3325,-9,-183,-236,-335,-39,12
3330,-13,-182,-237,-353,-48,-7
3335,-8,-185,-238,-370,-56,-18
3340,-1,-186,-237,-377,-60,-30
3345,-4,-189,-230,-377,-58,-38
3350,0,-190,-235,-374,-57,-52
3355,0,-189,-236,-362,-51,-61
3360,-8,-188,-231,-341,-40,-66
3365,-6,-187,-227,-323,-37,-62
3370,5,-191,-231,-300,-45,-61
3375,-13,-184,-229,-279,-43,-96
3380,-14,-183,-232,-266,-50,-81
3385,-19,-176,-225,-260,-73,-69
3390,-18,-183,-229,-242,-95,-51
3395,-21,-189,-226,-221,-114,-50
3400,-28,-175,-219,-204,-131,-43
3405,-24,-174,-226,-190,-151,-36
3410,-31,-174,-230,-178,-169,-28
3415,-32,-171,-229,-167,-185,-27
3420,-29,-172,-227,-160,-203,-26
3425,-21,-173,-228,-151,-220,-24
3430,-22,-168,-226,-140,-237,-16
3435,-29,-168,-230,-129,-245,-7
3440,-21,-167,-226,-117,-244,7
3445,-19,-163,-224,-112,-251,14
3450,-12,-156,-216,-101,-248,15
3455,-15,-162,-231,-97,-248,17
3460,-21,-167,-227,-96,-252,12
3465,-21,-158,-227,-89,-253,4
3470,-7,-167,-224,-72,-249,0
3475,-19,-167,-212,-61,-249,-4
3480,-11,-165,-216,-51,-245,-15
3485,-11,-165,-219,-52,-239,-25
3490,-14,-160,-210,-59,-230,-47
3495,-23,-161,-207,-54,-224,-51
3500,0,-162,-221,-45,-214,-52
3505,-24,-153,-229,-41,-202,-64
3510,-7,-157,-222,-37,-187,-78
3515,-23,-151,-210,-27,-172,-90
3520,0,-151,-215,4,-152,-94
3525,-22,-150,-209,31,-129,-106
3530,-11,-154,-224,68,-124,-102
3535,-22,-153,-213,112,-126,-97
3540,-21,-155,-214,144,-144,-94
3545,-25,-153,-204,162,-147,-101
3550,-29,-166,-200,182,-137,-119
3555,-51,-162,-223,205,-128,-138
3560,-43,-163,-221,225,-137,-122
3565,-37,-160,-215,257,-155,-108
3570,-38,-162,-200,295,-160,-111
3575,-55,-172,-220,346,-154,-124
3580,-37,-176,-213,390,-171,-97
3585,-29,-184,-204,440,-176,-86
3590,-40,-176,-206,494,-179,-91
3595,-30,-181,-197,542,-165,-106
3600,-41,-175,-208,591,-157,-119
3605,-28,-184,-201,626,-169,-94
3610,-23,-164,-192,684,-177,-99
3615,-33,-171,-173,736,-161,-125
3620,-32,-172,-177,821,-141,-166
3625,-35,-150,-151,949,-90,-199
3630,-11,-145,-177,1127,-66,-240
3635,-20,-114,-165,1258,-71,-257
3640,3,-122,-251,1287,-117,-174
3645,4,-117,-278,1012,-145,-80
3650,19,-145,-279,635,-212,-30
3655,52,-186,-273,390,-307,-19
3660,48,-201,-257,280,-364,43
3665,44,-226,-242,291,-344,67
3670,60,-238,-249,366,-297,74
3675,63,-245,-250,462,-206,47
3680,21,-256,-245,557,-92,25
3685,36,-268,-243,636,-37,27
3690,36,-257,-231,665,6,39
3695,24,-256,-226,680,32,27
3700,10,-259,-214,710,66,-6
3705,-31,-249,-229,770,93,-83
3710,-16,-246,-210,846,143,-157
3715,-44,-218,-197,879,188,-281
3720,-104,-209,-210,899,271,-425
3725,-124,-230,-225,911,369,-539
3730,-120,-217,-236,950,462,-632
3735,-150,-256,-256,1036,522,-676
3740,-150,-238,-253,1115,499,-635
3745,-142,-238,-272,1172,406,-536
3750,-102,-245,-269,1203,264,-412
3755,-91,-245,-256,1249,156,-307
3760,-69,-241,-235,1292,72,-201
3765,-64,-231,-219,1309,-6,-113
3770,-58,-230,-208,1309,-60,-46
3775,-62,-223,-204,1324,-95,3
3780,-58,-208,-205,1345,-120,39
3785,-56,-195,-208,1359,-128,64
3790,-52,-187,-195,1341,-126,89
3795,-59,-179,-181,1291,-122,116
3800,-75,-182,-165,1214,-127,147
3805,-92,-191,-166,1128,-141,163
3810,-105,-202,-169,1045,-154,171
3815,-112,-212,-165,962,-160,164
3820,-110,-220,-161,870,-153,133
3825,-108,-229,-162,784,-127,84
3830,-93,-232,-161,748,-72,23
3835,-104,-254,-184,799,-3,-39
3840,-81,-263,-216,897,2,-68
3845,-73,-267,-235,1012,-10,-81
3850,-64,-259,-229,1126,-44,-81
3855,-58,-256,-212,1196,-84,-73
3860,-54,-254,-198,1218,-122,-57
3865,-58,-249,-191,1219,-151,-31
3870,-62,-239,-187,1223,-168,1
3875,-57,-240,-192,1242,-179,36
3880,-50,-244,-195,1271,-191,79
3885,-46,-245,-201,1304,-203,117
3890,-47,-233,-197,1329,-221,147
3895,-44,-231,-196,1325,-234,173
3900,-46,-221,-199,1298,-247,186
3905,-44,-214,-191,1248,-260,196
3910,-44,-208,-185,1195,-281,207
3915,-47,-204,-178,1151,-308,218
3920,-52,-196,-177,1116,-334,230
3925,-50,-193,-170,1067,-348,237
3930,-47,-189,-157,997,-342,238
3935,-42,-189,-147,918,-320,223
3940,-44,-185,-141,827,-293,184
3945,-41,-192,-151,751,-262,135
3950,-40,-205,-167,721,-228,81
3955,-32,-222,-182,732,-191,32
3960,-31,-229,-184,759,-157,-8
3965,-24,-243,-182,785,-133,-36
3970,-17,-251,-179,802,-121,-53
3975,-15,-253,-172,824,-115,-58
3980,-18,-250,-172,843,-115,-47
3985,-29,-255,-173,844,-128,-23
3990,-37,-269,-179,841,-149,10
3995,-46,-287,-170,848,-164,46
4000,-57,-304,-159,869,-183,77
4005,-63,-318,-150,892,-213,99
4010,-70,-333,-159,904,-245,113
4015,-76,-340,-169,896,-259,125
4020,-90,-351,-187,868,-259,126
4025,-97,-364,-191,825,-255,114
4030,-100,-379,-171,794,-255,93
4035,-100,-396,-149,778,-256,68
4040,-100,-410,-128,781,-251,42
4045,-98,-424,-110,823,-230,20
4050,-88,-431,-110,907,-193,7
4055,-81,-417,-117,1013,-136,-11
4060,-78,-393,-112,1114,-70,-28
4065,-71,-363,-109,1201,-16,-32
4070,-68,-328,-100,1284,22,-35
4075,-59,-287,-94,1369,44,-27
4080,-50,-249,-91,1448,52,-15
4085,-49,-210,-91,1512,42,-3
4090,-46,-177,-93,1544,12,0
4095,-44,-152,-90,1541,-30,0
4100,-41,-145,-92,1516,-78,11
4105,-35,-136,-91,1477,-140,27
4110,-25,-143,-87,1441,-196,41
4115,-25,-133,-78,1406,-246,46
4120,-13,-154,-75,1345,-265,61
4125,-23,-167,-69,1274,-273,50
4130,-38,-184,-62,1221,-278,31
4135,-56,-187,-71,1178,-272,13
4140,-65,-191,-81,1114,-257,-4
4145,-72,-197,-72,1022,-237,-17
4150,-70,-202,-60,906,-213,-30
4155,-87,-222,-42,771,-187,-49
4160,-80,-229,-39,630,-152,-65
4165,-85,-251,-21,497,-117,-79
4170,-87,-268,-3,387,-80,-89
4175,-86,-285,10,317,-41,-95
4180,-86,-292,26,283,-4,-110
4185,-91,-295,37,291,24,-135
4190,-92,-303,40,333,28,-171
4195,-83,-304,43,396,4,-207
4200,-66,-314,20,471,-43,-236
4205,-59,-317,7,550,-89,-259
4210,-35,-314,-1,631,-130,-273
4215,-46,-308,-20,710,-165,-279
4220,-43,-295,-21,773,-195,-278
4225,-44,-284,-29,816,-220,-273
4230,-42,-266,-32,842,-239,-264
4235,-39,-249,-29,859,-251,-245
4240,-41,-234,-34,871,-262,-228
4245,-36,-219,-35,869,-277,-213
4250,-38,-207,-31,857,-300,-202
4255,-34,-199,-30,833,-323,-194
4260,-35,-194,-28,796,-349,-188
4265,-32,-189,-26,734,-370,-188
4270,-31,-190,-17,667,-382,-181
4275,-26,-194,-10,605,-384,-170
4280,-31,-195,3,540,-384,-175
4285,-32,-206,11,504,-379,-174
4290,-34,-218,4,485,-383,-173
4295,-50,-225,9,474,-396,-190
4300,-56,-244,14,495,-403,-189
4305,-40,-261,10,526,-422,-182
4310,-62,-254,23,555,-454,-209
4315,-65,-254,22,600,-476,-218
4320,-66,-250,18,637,-493,-230
4325,-67,-239,20,646,-508,-238
4330,-50,-231,24,624,-511,-236
4335,-54,-220,31,554,-510,-222
4340,-35,-224,28,462,-505,-188
4345,-42,-221,24,350,-507,-141
4350,-31,-230,11,254,-518,-54
4355,-17,-248,-1,180,-543,32
4360,-15,-264,-17,155,-582,97
4365,-14,-278,-31,206,-621,157
4370,-13,-286,-48,319,-657,210
4375,-6,-290,-61,446,-689,233
4380,-23,-265,-45,542,-714,225
4385,-23,-254,-47,613,-727,209
4390,-26,-240,-49,627,-736,175
4395,-32,-214,-38,578,-734,142
4400,-26,-209,-31,492,-722,101
4405,-22,-205,-23,366,-697,48
4410,-20,-206,-19,224,-660,-9
4415,-16,-211,-14,94,-617,-61
4420,-15,-219,-16,-8,-564,-107
4425,-17,-226,-11,-73,-509,-146
4430,-18,-229,-9,-104,-461,-174
4435,-21,-237,-10,-112,-419,-192
4440,-24,-236,-9,-112,-380,-203
4445,-26,-239,-20,-118,-348,-207
4450,-30,-238,-15,-136,-318,-207
4455,-29,-245,-20,-166,-291,-207
4460,-29,-250,-16,-203,-264,-206
4465,-27,-258,-14,-236,-237,-207
4470,-24,-263,-13,-250,-212,-212
4475,-22,-269,-8,-244,-185,-223
4480,-22,-276,-7,-225,-156,-241
4485,-26,-277,-10,-199,-133,-261
4490,-24,-280,-9,-180,-117,-278
4495,-27,-284,-10,-164,-111,-295
4500,-26,-285,-7,-147,-112,-307
4505,-30,-292,-11,-122,-120,-313
4510,-32,-294,-17,-85,-127,-319
4515,-30,-296,-20,-39,-134,-322
4520,-31,-292,-22,14,-136,-324
4525,-33,-289,-27,63,-132,-325
4530,-32,-277,-28,106,-130,-324
4535,-29,-263,-38,130,-128,-320
4540,-25,-256,-34,131,-129,-312
4545,-22,-247,-30,110,-134,-301
4550,-17,-235,-25,78,-141,-286
4555,-15,-226,-21,38,-147,-273
4560,-14,-222,-18,-9,-154,-259
4565,-9,-220,-10,-61,-162,-242
4570,-12,-222,-4,-108,-169,-228
4575,-11,-227,5,-149,-180,-217
4580,-13,-229,7,-179,-196,-208
4585,-13,-235,10,-198,-210,-206
4590,-12,-238,11,-204,-220,-205
4595,-12,-244,11,-199,-224,-209
4600,-13,-254,13,-187,-220,-218
4605,-14,-260,9,-172,-208,-228
4610,-17,-261,2,-154,-188,-236
4615,-17,-265,0,-134,-164,-246
4620,-15,-265,0,-118,-137,-254
4625,-13,-269,-1,-105,-107,-261
4630,-12,-269,-7,-96,-80,-265
4635,-9,-266,-9,-89,-54,-269
4640,-8,-267,-8,-85,-36,-270
4645,-7,-262,-14,-83,-26,-267
4650,-7,-266,-11,-79,-20,-265
4655,-7,-260,-15,-74,-20,-263
4660,-3,-259,-21,-72,-25,-260
4665,-1,-256,-16,-75,-30,-261
4670,-6,-250,-14,-83,-38,-261
4675,-6,-251,-15,-97,-43,-265
4680,-7,-246,-16,-118,-43,-273
4685,-7,-244,-12,-139,-39,-281
4690,-6,-243,-13,-162,-32,-287
4695,-6,-236,-13,-185,-23,-289
4700,-1,-237,-6,-211,-15,-291
4705,1,-241,-6,-238,-3,-293
4710,5,-245,-4,-266,15,-294
4715,6,-248,-3,-295,32,-292
4720,4,-250,0,-319,51,-288
4725,10,-258,-7,-338,66,-279
4730,10,-263,-6,-351,80,-271
4735,13,-269,-4,-353,94,-260
4740,12,-279,-12,-341,108,-248
4745,16,-285,-15,-314,124,-235
4750,14,-286,-17,-278,138,-219
4755,10,-290,-24,-235,148,-204
4760,10,-286,-32,-189,150,-191
4765,9,-283,-35,-148,144,-179
4770,5,-281,-35,-115,136,-169
4775,8,-279,-37,-91,123,-159
4780,5,-275,-38,-77,110,-151
4785,9,-274,-39,-66,101,-149
4790,12,-275,-39,-61,93,-150
4795,13,-272,-32,-54,91,-152
4800,11,-266,-30,-41,92,-157
4805,10,-267,-28,-28,99,-163
4810,13,-266,-23,-12,102,-168
4815,12,-263,-21,4,107,-168
4820,10,-261,-18,16,108,-166
4825,13,-259,-17,29,109,-158
4830,15,-256,-17,38,105,-151
4835,18,-254,-20,45,107,-142
4840,22,-251,-18,47,108,-132
4845,22,-247,-19,39,106,-122
4850,29,-247,-17,21,99,-112
4855,24,-245,-14,-3,86,-103
4860,27,-251,-5,-31,69,-97
4865,28,-252,-7,-55,46,-92
4870,27,-256,0,-69,26,-90
4875,24,-260,-3,-69,11,-91
4880,23,-265,-3,-50,0,-96
4885,20,-265,-7,-16,-4,-106
4890,14,-265,-13,23,-1,-115
4895,10,-266,-18,56,7,-124
4900,6,-262,-29,76,18,-132
4905,5,-261,-25,77,28,-138
4910,-5,-266,-32,60,37,-139
4915,1,-262,-34,39,42,-139
4920,0,-269,-38,18,44,-132
4925,0,-266,-32,4,43,-126
4930,0,-270,-31,2,37,-119
4935,1,-266,-32,5,30,-110
4940,5,-266,-35,12,22,-102
4945,7,-260,-31,13,16,-99
4950,8,-257,-31,9,12,-94
4955,7,-257,-35,0,10,-91
4960,9,-254,-30,-8,7,-92
4965,14,-257,-21,-13,2,-95
4970,15,-249,-33,-19,-2,-101
4975,17,-247,-33,-32,-6,-107
4980,19,-250,-31,-52,-10,-112
4985,15,-253,-18,-75,-16,-113
4990,17,-263,-12,-96,-22,-106
4995,14,-264,-10,-106,-27,-97
5000,13,-270,-3,-101,-31,-86
5005,13,-272,-3,-83,-34,-73
5010,11,-277,-4,-50,-39,-56
5015,7,-273,-2,-7,-47,-41
5020,4,-274,3,42,-58,-29
5025,5,-275,-9,94,-73,-20
5030,0,-268,-10,142,-88,-14
5035,1,-266,-15,179,-101,-14
5040,1,-258,-13,204,-111,-19
5045,2,-256,-11,216,-115,-26
5050,1,-257,-11,216,-112,-36
5055,3,-256,-16,206,-100,-50
5060,3,-258,-17,193,-81,-59
5065,3,-256,-22,176,-55,-68
5070,4,-251,-25,157,-28,-73
5075,3,-248,-26,136,-4,-78
5080,8,-248,-30,110,15,-80
5085,6,-246,-29,80,29,-81
5090,10,-247,-26,49,37,-75
5095,6,-248,-26,18,40,-66
5100,1,-249,-19,-7,34,-57
5105,2,-249,-21,-30,20,-47
5110,2,-257,-17,-52,-6,-39
5115,0,-267,-17,-70,-33,-32
5120,0,-268,-6,-81,-60,-26
5125,-1,-276,-7,-81,-84,-21
5130,1,-279,2,-69,-105,-20
5135,1,-282,0,-46,-120,-24
5140,0,-286,0,-15,-129,-29
5145,3,-285,0,15,-130,-36
5150,5,-283,-1,47,-122,-46
5155,11,-283,-4,78,-104,-58
5160,12,-277,-4,101,-83,-67
5165,18,-274,-10,123,-57,-72
5170,26,-269,-8,142,-28,-75
5175,29,-265,-6,158,1,-76
5180,34,-258,-7,170,26,-76
5185,36,-255,-9,175,48,-77
5190,37,-249,-3,174,67,-75
5195,38,-246,-4,166,81,-72
5200,35,-242,-1,153,95,-67
5205,35,-240,-4,139,104,-64
5210,33,-239,-3,118,108,-58
5215,33,-239,-4,96,109,-53
5220,25,-239,-7,70,103,-49
5225,27,-244,-8,46,96,-44
5230,22,-243,-9,17,89,-41
5235,22,-248,-7,-9,81,-43
5240,20,-249,-9,-32,74,-45
5245,17,-252,-14,-53,68,-49
5250,18,-253,-13,-65,63,-52
5255,18,-257,-11,-74,56,-52
5260,20,-263,-11,-72,53,-56
5265,19,-266,-14,-64,53,-56
5270,18,-270,-13,-48,56,-53
5275,21,-272,-12,-26,58,-47
5280,20,-273,-12,1,63,-40
5285,16,-271,-14,30,70,-31
5290,16,-271,-12,60,77,-21
5295,13,-264,-4,87,82,-12
5300,11,-267,-9,108,85,-5
5305,12,-265,-2,125,86,3
5310,12,-264,-1,137,85,8
5315,9,-261,-3,145,83,12
5320,9,-259,0,152,78,14
5325,5,-261,1,158,78,17
5330,6,-258,2,163,75,20
5335,9,-257,2,162,73,24
5340,10,-255,2,158,72,27
5345,16,-256,2,156,74,30
5350,13,-256,3,157,75,31
5355,16,-256,3,161,76,33
5360,16,-251,1,169,74,36
5365,18,-253,0,176,75,36
5370,15,-247,-4,174,73,35
5375,18,-248,-3,161,75,34
5380,21,-247,-2,137,80,35
5385,17,-250,-3,111,86,35
5390,20,-249,-1,85,94,34
5395,20,-253,1,65,101,35
5400,16,-256,1,59,106,37
5405,16,-258,1,62,108,40
5410,12,-257,4,71,107,43
5415,15,-260,3,85,106,50
5420,16,-258,0,99,104,57
5425,16,-258,0,114,101,64
5430,17,-255,0,129,98,72
5435,18,-255,1,140,93,76
5440,18,-256,0,148,88,84
5445,18,-254,0,151,84,89
5450,19,-255,1,151,83,92
5455,17,-254,0,147,84,95
5460,17,-255,0,144,86,97
5465,15,-253,4,140,89,97
5470,11,-255,2,132,95,98
5475,11,-256,4,127,102,97
5480,12,-256,1,122,107,96
5485,9,-256,3,114,112,95
5490,13,-256,0,106,116,90
5495,8,-256,0,92,119,85
5500,9,-256,-3,76,123,80
5505,9,-259,3,60,127,76
5510,7,-257,0,45,131,70
5515,5,-256,0,33,133,64
5520,7,-256,6,20,134,60
5525,7,-258,6,10,133,56
5530,6,-257,6,2,133,53
5535,8,-259,7,-8,133,51
5540,7,-258,2,-10,135,48
5545,6,-258,3,-13,136,46
5550,5,-259,6,-14,137,46
5555,1,-256,2,-13,136,45
5560,3,-258,1,-13,135,45
5565,1,-257,0,-11,132,45
5570,1,-256,0,-13,128,45
5575,1,-256,0,-16,121,44
5580,1,-256,1,-21,117,45
5585,0,-255,1,-30,113,42
5590,0,-254,1,-39,108,42
5595,1,-257,1,-44,105,40
5600,0,-255,3,-50,105,39
5605,-2,-259,1,-52,104,40
5610,0,-258,5,-51,105,41
5615,0,-257,1,-50,105,41
5620,-2,-257,-1,-45,103,44
5625,0,-258,2,-41,100,45
5630,0,-258,5,-37,95,47
5635,-2,-258,6,-30,89,50
5640,0,-257,7,-26,83,51
5645,-3,-258,5,-22,77,52
5650,-2,-256,7,-22,75,52
5655,-1,-261,8,-23,80,52
5660,0,-258,8,-24,87,50
5665,-2,-258,10,-24,96,49
5670,4,-243,-15,-19,106,48
5675,-5,-260,5,-16,114,48
5680,1,-257,2,-13,117,45
5685,0,-256,1,-10,115,45
5690,0,-257,1,-12,109,44
5695,1,-257,3,-13,100,42
5700,1,-256,1,-16,90,42
5705,-2,-252,4,-19,78,43
5710,0,-255,3,-21,70,42
5715,1,-256,6,-26,60,40
5720,-2,-255,4,-29,53,37
5725,-3,-255,1,-35,51,35
5730,-2,-252,4,-41,52,32
5735,0,-256,2,-44,55,28
5740,1,-255,1,-49,59,27
5745,0,-254,1,-51,63,26
5750,-1,-256,5,-53,64,26
5755,0,-256,1,-55,62,27
5760,0,-258,3,-56,58,29
5765,-6,-256,2,-58,53,31
5770,-4,-256,1,-62,46,32
5775,-3,-256,1,-65,39,32
5780,-3,-256,3,-67,34,33
5785,-2,-256,5,-68,31,32
5790,-2,-256,1,-68,26,32
5795,-6,-256,4,-69,22,31
5800,0,-256,3,-68,16,30
5805,-1,-257,3,-70,11,31
5810,0,-255,-1,-69,7,31
5815,1,-257,0,-70,1,31
5820,-2,-254,-1,-71,-3,29
5825,0,-255,3,-75,-5,28
5830,-1,-254,1,-79,-7,26
5835,0,-253,7,-87,-10,24
5840,-3,-254,1,-93,-8,22
5845,0,-253,2,-99,-7,21
5850,0,-256,4,-106,-5,20
5855,0,-253,0,-115,-3,22
5860,0,-252,5,-121,-2,20
5865,0,-256,4,-131,-5,21
5870,0,-252,6,-136,-8,20
5875,0,-254,5,-145,-13,20
5880,0,-254,3,-149,-19,19
5885,-2,-255,1,-157,-26,18
5890,1,-254,6,-161,-32,17
5895,0,-254,1,-163,-38,16
5900,0,-258,2,-167,-43,15
5905,0,-257,4,-170,-47,15
5910,-1,-254,7,-170,-49,13
5915,-2,-256,0,-170,-50,14
5920,1,-261,4,-168,-49,12
5925,0,-260,3,-166,-51,10
5930,0,-259,2,-164,-53,9
5935,-3,-259,1,-162,-55,7
5940,0,-260,1,-159,-57,7
5945,0,-261,4,-156,-58,6
5950,1,-261,0,-150,-58,5
5955,1,-258,3,-146,-54,4
5960,0,-257,2,-143,-50,3
5965,0,-258,1,-140,-46,3
5970,2,-257,1,-140,-39,5
5975,2,-258,1,-142,-33,5
5980,5,-261,0,-136,-26,9
5985,2,-258,-2,-123,-19,11
5990,-1,-258,1,-102,-14,14
5995,1,-261,1,-77,-11,14
6000,2,-258,0,-56,-13,13
6005,3,-259,2,-43,-12,11
6010,0,-258,1,-40,-14,11
6015,3,-257,1,-43,-16,9
6020,3,-257,2,-52,-16,6
6025,0,-255,0,-64,-16,4
6030,0,-256,2,-78,-16,2
6035,3,-255,1,-84,-15,-3
6040,0,-255,-3,-87,-13,-6
6045,2,-256,1,-84,-8,-11
6050,3,-259,0,-76,-3,-15
6055,1,-257,0,-68,3,-20
6060,1,-256,-2,-63,7,-25
6065,3,-260,-2,-58,10,-28
6070,2,-258,0,-57,12,-33
6075,3,-258,-1,-59,13,-34
6080,0,-260,0,-62,16,-35
6085,0,-256,-2,-66,15,-35
6090,2,-257,0,-70,14,-36
6095,2,-260,-3,-74,12,-35
6100,3,-259,-6,-77,11,-34
6105,3,-257,-4,-79,8,-34
6110,5,-261,-3,-81,7,-33
6115,3,-260,-4,-80,5,-32
6120,5,-261,-4,-78,8,-30
6125,6,-260,-4,-74,11,-28
6130,3,-262,-2,-71,13,-28
6135,0,-254,-3,-67,17,-26
6140,5,-262,1,-65,17,-26
6145,3,-260,0,-62,17,-24
6150,2,-260,-3,-58,15,-22
6155,1,-259,0,-53,13,-20
6160,6,-259,1,-45,9,-19
6165,1,-262,-2,-39,7,-18
6170,0,-260,0,-29,6,-17
6175,5,-261,-2,-18,4,-17
6180,3,-260,-2,-7,3,-15
6185,1,-260,-5,6,4,-13
6190,1,-258,-1,17,3,-12
6195,0,-259,-5,24,2,-10
6200,1,-260,-1,28,-1,-8
6205,1,-258,0,25,-4,-10
6210,1,-259,-6,25,-6,-11
6215,1,-256,-1,24,-7,-12
6220,1,-256,-1,18,-7,-11
6225,1,-257,-2,14,-6,-12
6230,3,-258,-2,9,-5,-13
6235,1,-258,-5,10,-2,-14
6240,2,-256,0,8,0,-13
6245,1,-258,-2,4,4,-14
6250,0,-257,0,1,6,-15
6255,2,-258,-4,1,8,-15
6260,0,-256,-5,0,9,-13
6265,1,-259,-3,0,8,-14
6270,0,-259,-6,1,6,-14
6275,0,-257,2,4,1,-15
6280,-2,-263,0,5,-1,-16
6285,1,-258,1,6,-5,-16
6290,1,-257,2,8,-9,-15
6295,3,-260,0,9,-9,-15
6300,0,-257,0,12,-10,-14
6305,1,-258,0,13,-12,-13
6310,0,-262,1,16,-13,-14
6315,0,-259,0,22,-15,-14
6320,0,-257,3,25,-15,-14
6325,-1,-256,3,27,-16,-13
6330,3,-255,1,28,-18,-11
6335,1,-256,2,28,-18,-12
6340,1,-256,3,25,-20,-13
6345,1,-255,2,21,-23,-13
6350,1,-255,3,19,-23,-14
6355,1,-256,3,18,-22,-14
6360,3,-257,6,15,-20,-13
6365,3,-256,6,13,-19,-14
6370,3,-257,6,12,-17,-15
6375,3,-257,5,9,-14,-16
6380,1,-256,2,6,-12,-17
6385,2,-254,6,4,-12,-17
6390,1,-256,9,0,-12,-18
6395,2,-255,6,-4,-12,-18
6400,1,-255,7,-9,-12,-21
6405,1,-255,3,-10,-12,-20
6410,3,-256,4,-14,-12,-21
6415,3,-256,5,-18,-11,-22
6420,1,-254,5,-25,-10,-22
6425,2,-253,1,-28,-8,-23
6430,0,-248,-2,-35,-6,-22
6435,3,-256,3,-43,-4,-22
6440,3,-255,4,-48,-2,-22
6445,1,-256,5,-52,0,-22
6450,1,-257,2,-59,1,-22
6455,4,-256,4,-64,1,-24
6460,6,-256,1,-65,1,-26
6465,1,-259,2,-66,0,-27
6470,4,-256,3,-65,-1,-28
6475,2,-258,3,-64,-2,-30
6480,4,-258,0,-64,-2,-31
6485,5,-267,7,-61,-1,-32
6490,7,-259,1,-58,0,-34
6495,4,-258,1,-56,2,-33
6500,4,-261,2,-53,5,-31
6505,6,-261,2,-52,10,-31
6510,6,-261,0,-49,12,-30
6515,6,-261,-1,-47,12,-28
6520,8,-260,3,-45,11,-26
6525,4,-259,-2,-41,10,-24
6530,2,-259,0,-35,9,-24
6535,4,-257,0,-30,8,-24
6540,4,-259,2,-23,8,-23
6545,2,-257,1,-20,5,-24
6550,7,-258,1,-15,4,-24
6555,4,-258,1,-11,3,-24
6560,3,-256,2,-9,2,-24
6565,6,-257,0,-7,3,-23
6570,4,-258,2,-7,2,-23
6575,3,-256,3,-7,3,-20
6580,4,-255,4,-8,4,-19
6585,3,-256,0,-12,6,-19
6590,8,-258,0,-16,9,-19
6595,7,-257,3,-18,10,-18
6600,6,-259,3,-22,14,-18
6605,5,-257,2,-23,15,-16
6610,3,-256,2,-25,17,-16
6615,3,-256,3,-24,18,-16
6620,5,-256,2,-23,19,-15
6625,6,-256,1,-25,19,-14
6630,3,-257,-2,-26,18,-15
6635,3,-255,2,-27,17,-14
6640,2,-256,3,-27,15,-13
6645,4,-257,4,-29,14,-13
6650,4,-258,5,-30,13,-10
6655,6,-259,6,-27,13,-10
6660,5,-258,4,-22,14,-7
6665,4,-256,5,-19,14,-7
6670,7,-256,5,-16,15,-6
6675,4,-256,1,-12,16,-5
6680,7,-256,3,-12,16,-3
6685,7,-258,0,-14,16,-3
6690,5,-256,1,-19,15,0
6695,7,-259,3,-23,13,-1
6700,8,-258,2,-25,12,-1
6705,5,-257,5,-28,9,0
6710,4,-256,2,-34,9,3
6715,6,-254,3,-41,8,5
6720,6,-253,6,-45,7,6
6725,7,-255,2,-50,8,9
6730,8,-256,3,-53,10,9
6735,5,-255,3,-55,10,12
6740,5,-255,0,-54,13,14
6745,9,-256,2,-55,15,13
6750,7,-258,2,-54,18,15
6755,8,-256,4,-55,21,16
6760,11,-259,2,-53,24,16
6765,10,-257,3,-50,27,17
6770,9,-259,3,-47,29,19
6775,8,-262,4,-41,32,17
6780,10,-260,5,-33,34,16
6785,6,-259,8,-23,35,16
6790,7,-260,3,-14,36,15
6795,6,-257,3,-6,35,16
6800,5,-259,6,-1,33,15
6805,3,-261,4,1,30,14
6810,5,-262,0,1,29,13
6815,3,-259,2,-1,27,13
6820,1,-259,0,-2,26,12
6825,0,-262,-2,-1,28,11
6830,0,-263,2,0,27,11
6835,0,-262,-1,6,26,11
6840,-2,-258,3,12,26,11
6845,0,-261,1,15,23,10
6850,0,-261,2,21,20,9
6855,0,-259,0,25,18,10
6860,-1,-258,1,26,14,7
6865,0,-257,-2,27,10,4
6870,0,-257,2,27,9,-2
6875,-2,-255,6,25,9,-6
6880,1,-255,1,22,8,-11
6885,1,-254,7,17,9,-17
6890,1,-252,4,9,8,-23
6895,5,-254,7,0,8,-26
6900,2,-254,7,-14,8,-27
6905,1,-252,9,-26,7,-28
6910,2,-252,6,-36,9,-31
6915,2,-252,8,-49,10,-31
6920,0,-252,8,-55,11,-28
6925,0,-249,8,-58,13,-27
6930,0,-252,7,-59,14,-24
6935,0,-253,6,-60,11,-20
6940,2,-252,7,-60,10,-19
6945,1,-253,10,-64,6,-17
6950,0,-255,6,-70,2,-15
6955,3,-253,4,-75,-3,-12
6960,1,-255,5,-81,-4,-10
6965,1,-259,8,-86,-5,-10
6970,2,-258,5,-88,-5,-11
6975,1,-256,6,-85,-4,-11
6980,1,-257,7,-83,-3,-13
6985,1,-255,4,-80,-3,-13
6990,1,-259,2,-76,-3,-15
6995,0,-258,5,-76,-6,-16
7000,1,-260,4,-75,-9,-15
7005,0,-258,3,-73,-13,-17
7010,0,-258,0,-73,-17,-18
7015,1,-259,4,-73,-20,-18
7020,1,-258,1,-74,-24,-17
7025,1,-258,4,-76,-25,-17
7030,1,-257,3,-80,-24,-15
7035,0,-255,3,-82,-23,-16
7040,0,-257,4,-84,-19,-16
7045,0,-254,2,-87,-16,-15
7050,0,-256,3,-91,-13,-13
7055,2,-253,4,-97,-10,-13
7060,4,-251,5,-107,-6,-12
7065,2,-254,5,-116,-4,-10
7070,2,-252,6,-128,-2,-9
7075,1,-252,0,-139,-1,-7
7080,3,-253,3,-147,-2,-6
7085,6,-251,5,-154,-7,-5
7090,4,-251,0,-156,-11,-1
7095,5,-252,1,-160,-17,3
7100,4,-255,1,-163,-22,7
7105,7,-255,2,-170,-28,10
7110,7,-253,0,-178,-34,15
7115,9,-252,3,-190,-40,21
7120,10,-253,0,-203,-45,25
7125,11,-251,2,-213,-49,30
7130,9,-258,-4,-221,-54,32
7135,9,-256,-2,-226,-56,35
7140,8,-262,-1,-230,-60,36
7145,7,-262,-2,-227,-64,36
7150,5,-266,0,-221,-66,35
7155,8,-267,-6,-212,-70,32
7160,3,-268,0,-200,-69,27
7165,2,-273,-2,-191,-64,23
7170,4,-273,0,-184,-55,19
7175,0,-269,0,-178,-45,15
7180,2,-267,-6,-174,-33,12
7185,1,-265,-2,-170,-19,10
7190,2,-276,-3,-167,-7,9
7195,3,-266,-8,-165,2,6
7200,1,-265,-4,-162,8,3
7205,1,-258,-4,-166,11,-1
7210,1,-257,-7,-177,15,-3
7215,0,-254,-7,-192,15,-7
7220,3,-252,-2,-207,13,-9
7225,8,-249,-5,-226,6,-12
7230,6,-246,-7,-243,1,-14
7235,7,-243,-3,-259,-4,-16
7240,4,-243,-1,-270,-12,-17
7245,3,-238,-11,-277,-21,-16
7250,3,-244,-4,-281,-29,-13
7255,5,-244,1,-284,-39,-9
7260,6,-246,0,-288,-45,-6
7265,6,-250,1,-295,-50,1
7270,2,-251,-1,-301,-54,8
7275,4,-256,3,-307,-55,16
7280,8,-258,-4,-306,-50,19
7285,10,-265,2,-295,-38,23
7290,13,-268,-4,-279,-20,23
7295,16,-274,-5,-255,-4,21
7300,18,-277,-8,-224,12,16
7305,14,-280,-10,-186,26,10
7310,19,-280,-12,-147,37,5
7315,21,-279,-17,-110,46,3
7320,22,-277,-21,-80,49,2
7325,19,-277,-19,-63,48,0
7330,14,-273,-24,-58,43,2
7335,11,-271,-22,-47,38,4
7340,12,-275,-21,-31,26,6
7345,12,-268,-21,-6,11,6
7350,10,-263,-16,18,-1,8
7355,10,-257,-19,35,-9,13
7360,8,-253,-14,33,-12,15
7365,6,-253,-12,19,-11,20
7370,7,-251,-7,-3,-3,24
7375,4,-252,-3,-23,11,23
7380,4,-248,-1,-40,32,26
7385,7,-252,0,-54,56,29
7390,2,-251,3,-61,79,37
7395,3,-255,4,-55,97,48
7400,2,-255,6,-35,106,60
7405,0,-252,6,-11,107,69
7410,0,-255,-1,16,100,76
7415,0,-256,3,43,89,84
7420,-2,-259,-1,70,80,94
7425,-2,-261,0,109,73,101
7430,-4,-264,-2,151,63,106
7435,0,-263,-9,194,53,108
7440,0,-261,-13,226,43,109
7445,2,-259,-15,245,32,112
7450,0,-256,-9,252,22,117
7455,3,-253,-4,247,17,128
7460,3,-256,-8,236,7,139
7465,4,-257,-8,225,-2,147
7470,6,-261,-9,209,-10,154
7475,8,-266,-11,194,-10,160
7480,11,-269,-10,191,-7,166
7485,10,-269,-7,200,-4,174
7490,13,-271,-6,220,-3,181
7495,16,-266,-2,244,-11,185
7500,21,-270,-3,268,-18,190
7505,18,-275,-4,303,-15,194
7510,18,-273,-8,339,-9,193
7515,15,-266,0,363,1,191
7520,16,-261,3,370,7,188
7525,16,-257,17,374,6,191
7530,17,-256,21,380,-5,194
7535,18,-266,11,416,-28,213
7540,12,-267,5,461,-47,209
7545,16,-266,1,501,-60,198
7550,14,-264,0,530,-68,197
7555,12,-258,8,540,-75,198
7560,11,-255,7,538,-92,197
7565,9,-253,4,533,-121,195
7570,21,-261,-1,540,-146,216
7575,8,-259,7,544,-157,206
7580,2,-257,5,554,-162,187
7585,2,-251,12,556,-165,177
7590,4,-246,18,537,-162,176
7595,3,-247,23,507,-141,177
7600,2,-250,23,477,-98,177
7605,2,-246,27,452,-38,170
7610,4,-240,24,431,17,164
7615,2,-235,23,410,63,153
7620,0,-231,23,380,107,142
7625,1,-230,21,334,154,123
7630,-9,-222,17,279,191,102
7635,-13,-227,20,228,216,82
7640,-11,-235,17,190,228,88
7645,-9,-226,19,144,233,60
7650,-10,-224,24,105,245,34
7655,-8,-222,23,66,257,22
7660,-2,-218,18,12,270,18
7665,-6,-219,20,-57,280,15
7670,-9,-230,22,-134,284,14
7675,-12,-235,31,-189,282,17
7680,-17,-239,42,-208,274,26
7685,-14,-239,47,-197,265,37
7690,-9,-230,51,-180,262,54
7695,-2,-224,42,-169,263,73
7700,0,-225,28,-174,276,89
7705,-3,-229,17,-197,300,102
7710,-2,-235,15,-236,327,108
7715,-3,-234,18,-278,355,110
7720,0,-231,25,-321,368,103
7725,3,-231,25,-357,370,86
7730,0,-236,14,-389,366,63
7735,0,-250,11,-419,367,41
7740,-4,-256,4,-448,376,29
7745,-8,-261,10,-471,396,24
7750,-10,-260,18,-492,425,20
7755,-16,-256,28,-526,455,18
7760,-16,-248,30,-568,475,20
7765,-17,-250,33,-612,485,22
7770,-25,-279,24,-643,485,26
7775,-29,-258,38,-649,480,38
7780,-12,-261,18,-633,475,57
7785,-12,-252,15,-620,477,75
7790,-10,-243,27,-624,476,94
7795,-14,-242,20,-622,466,113
7800,-20,-244,19,-613,455,134
7805,-25,-249,12,-598,451,145
7810,-29,-254,11,-577,456,153
7815,-29,-256,9,-566,471,158
7820,-25,-259,9,-559,487,156
7825,-22,-254,12,-555,513,154
7830,-21,-256,10,-558,541,150
7835,-14,-253,5,-572,568,150
7840,-5,-256,1,-593,595,150
7845,0,-253,-7,-618,626,145
7850,0,-256,-6,-650,656,137
7855,2,-253,-13,-688,679,127
7860,0,-251,-8,-733,700,114
7865,2,-250,-3,-785,719,100
7870,-3,-241,-2,-837,741,85
7875,-3,-241,-6,-890,769,74
7880,-12,-243,-5,-957,796,65
7885,-13,-252,0,-1021,815,65
7890,-20,-261,3,-1070,817,65
7895,-24,-268,3,-1085,804,65
7900,-24,-284,2,-1065,784,69
7905,-30,-293,-1,-1018,762,72
7910,-29,-301,-2,-959,732,73
7915,-30,-304,-5,-899,697,73
7920,-30,-304,-2,-841,664,70
7925,-29,-310,1,-790,634,64
7930,-23,-308,6,-749,619,58
7935,-23,-305,7,-721,616,49
7940,-22,-297,10,-707,628,39
7945,-19,-291,14,-699,641,33
7950,-28,-293,17,-688,646,37
7955,-22,-279,7,-664,635,52
7960,-31,-265,-3,-631,614,79
7965,-43,-249,-11,-602,592,111
7970,-56,-233,-20,-587,572,136
7975,-60,-220,-33,-598,552,145
7980,-63,-216,-40,-644,548,137
7985,-67,-223,-54,-725,554,111
7990,-77,-243,-70,-820,560,70
7995,-76,-259,-88,-908,556,35
8000,-78,-271,-101,-988,543,9
8005,-69,-303,-77,-1038,533,7
8010,-62,-320,-66,-1019,524,19
8015,-59,-332,-59,-934,526,33
8020,-59,-334,-56,-822,525,44
8025,-53,-331,-57,-721,513,57
8030,-59,-325,-55,-649,493,73
8035,-63,-324,-51,-599,468,88
8040,-63,-325,-45,-559,434,101
8045,-62,-325,-51,-515,387,110
8050,-63,-318,-67,-460,338,121
8055,-60,-306,-85,-420,300,131
8060,-51,-302,-104,-414,280,147
8065,-44,-303,-110,-444,283,162
8070,-38,-314,-111,-491,307,178
8075,-42,-330,-96,-526,337,187
8080,-37,-338,-87,-519,368,190
8085,-35,-341,-81,-473,398,180
8090,-36,-330,-86,-416,429,157
8095,-32,-322,-94,-368,455,131
8100,-33,-309,-98,-349,466,108
8105,-35,-302,-98,-356,448,96
8110,-43,-297,-106,-384,408,87
8115,-49,-304,-110,-413,364,88
8120,-50,-310,-115,-441,327,90
8125,-52,-307,-106,-454,306,79
8130,-49,-311,-111,-446,295,50
8135,-47,-314,-125,-431,307,23
8140,-44,-314,-132,-425,333,-5
8145,-49,-309,-128,-439,356,-40
8150,-51,-305,-129,-461,363,-68
8155,-46,-300,-124,-478,370,-95
8160,-43,-293,-115,-489,386,-136
8165,-37,-286,-111,-488,408,-182
8170,-36,-279,-118,-480,438,-218
8175,-30,-269,-125,-479,485,-263
8180,-29,-273,-131,-488,537,-295
8185,-25,-272,-126,-511,588,-314
8190,-23,-272,-119,-544,619,-329
8195,-23,-274,-110,-567,636,-332
8200,-23,-268,-101,-568,649,-344
8205,-29,-267,-90,-552,659,-365
8210,-30,-265,-76,-518,669,-380
8215,-27,-265,-68,-471,683,-379
8220,-25,-256,-72,-420,696,-381
8225,-15,-252,-84,-369,716,-366
8230,-6,-246,-95,-341,746,-361
8235,0,-250,-111,-346,788,-343
8240,0,-253,-103,-372,844,-333
8245,8,-261,-97,-400,887,-323
8250,10,-269,-95,-410,913,-333
8255,9,-276,-99,-404,934,-353
8260,8,-287,-94,-389,964,-358
8265,0,-294,-83,-359,997,-344
8270,-5,-292,-84,-305,1006,-322
8275,0,-282,-77,-233,988,-293
8280,0,-271,-63,-163,966,-260
8285,-3,-260,-52,-108,938,-235
8290,-4,-250,-34,-73,880,-227
8295,-8,-238,-25,-47,806,-216
8300,-8,-229,-20,-20,747,-219
8305,-16,-219,-17,9,703,-231
8310,-19,-213,-15,29,674,-233
8315,-22,-210,-21,24,657,-230
8320,-30,-207,-35,4,637,-240
8325,-45,-195,-44,-24,605,-260
8330,-52,-196,-49,-51,576,-242
8335,-63,-196,-53,-69,552,-226
8340,-65,-186,-46,-83,515,-235
8345,-65,-179,-48,-86,481,-225
8350,-70,-160,-54,-93,448,-213
8355,-69,-149,-61,-120,424,-205
8360,-67,-134,-71,-162,413,-185
8365,-69,-128,-69,-226,424,-149
8370,-68,-121,-68,-311,437,-109
8375,-57,-124,-77,-401,441,-61
8380,-49,-139,-89,-489,429,-21
8385,-49,-151,-91,-564,416,-5
8390,-46,-159,-86,-611,398,18
8395,-30,-162,-74,-621,382,46
8400,-14,-164,-72,-610,362,57
8405,-7,-160,-77,-593,340,71
8410,0,-162,-84,-589,326,105
8415,22,-151,-97,-573,318,130
8420,18,-130,-109,-579,337,89
8425,31,-129,-100,-664,418,131
8430,35,-129,-100,-783,482,172
8435,48,-146,-92,-917,535,183
8440,55,-162,-88,-1058,588,175
8445,51,-188,-91,-1168,653,149
8450,41,-210,-92,-1217,724,109
8455,27,-231,-89,-1210,787,73
8460,21,-242,-82,-1181,827,49
8465,11,-245,-80,-1160,849,19
8470,-2,-244,-83,-1162,863,-14
8475,-19,-243,-96,-1169,876,-48
8480,-37,-244,-116,-1168,899,-64
8485,-56,-239,-134,-1164,923,-59
8490,-79,-228,-150,-1172,935,-24
8495,-89,-219,-153,-1190,918,42
8500,-106,-211,-153,-1226,859,122
8505,-107,-208,-152,-1278,763,200
8510,-110,-213,-158,-1345,649,268
8515,-111,-225,-168,-1400,545,331
8520,-103,-245,-181,-1419,462,385
8525,-91,-266,-192,-1403,394,426
8530,-77,-289,-194,-1363,340,451
8535,-66,-298,-198,-1321,311,462
8540,-57,-303,-195,-1278,310,463
8545,-45,-307,-191,-1241,339,456
8550,-28,-308,-196,-1204,389,443
8555,-12,-310,-192,-1171,453,430
8560,-1,-313,-200,-1143,526,413
8565,0,-308,-202,-1128,597,397
8570,-4,-299,-203,-1113,657,391
8575,3,-292,-205,-1099,699,392
8580,4,-282,-205,-1094,722,391
8585,5,-267,-211,-1104,720,388
8590,9,-258,-214,-1118,703,389
8595,9,-251,-214,-1132,671,388
8600,1,-237,-202,-1148,616,389
8605,-4,-233,-199,-1173,543,381
8610,-13,-225,-193,-1206,458,370
8615,-26,-223,-193,-1253,376,355
8620,-39,-225,-193,-1300,313,337
8625,-52,-225,-195,-1331,287,312
8630,-63,-232,-205,-1343,296,284
8635,-66,-240,-212,-1343,327,256
8640,-72,-249,-216,-1342,358,234
8645,-65,-260,-218,-1335,383,227
8650,-51,-275,-220,-1323,408,230
8655,-32,-282,-213,-1290,429,234
8660,-14,-288,-209,-1238,450,235
8665,-3,-289,-204,-1166,460,237
8670,3,-280,-196,-1081,454,230
8675,22,-279,-199,-1004,439,220
8680,25,-269,-195,-946,422,204
8685,36,-260,-195,-900,412,188
8690,43,-251,-191,-865,400,173
8695,42,-245,-185,-837,386,160
8700,36,-233,-206,-812,353,137
8705,38,-236,-187,-793,315,121
8710,30,-234,-185,-780,280,105
8715,23,-238,-186,-773,243,92
8720,16,-240,-183,-768,207,86
8725,6,-243,-187,-753,175,85
8730,9,-250,-192,-727,144,86
8735,4,-251,-194,-693,113,90
8740,7,-252,-199,-655,85,91
8745,6,-257,-208,-620,58,93
8750,17,-270,-219,-586,40,98
8755,11,-261,-209,-553,27,102
8760,13,-262,-206,-517,15,104
8765,14,-260,-212,-477,1,104
8770,20,-262,-212,-436,-19,102
8775,17,-261,-217,-395,-40,97
8780,17,-263,-222,-358,-55,90
8785,19,-262,-218,-321,-66,84
8790,17,-259,-212,-291,-74,77
8795,16,-260,-213,-259,-86,70
8800,14,-257,-214,-227,-96,62
8805,14,-257,-214,-195,-106,53
8810,11,-249,-214,-164,-117,43
8815,9,-249,-218,-140,-128,39
8820,7,-247,-212,-119,-140,41
8825,6,-245,-217,-95,-154,53
8830,2,-242,-215,-60,-172,77
8835,1,-243,-220,-13,-197,110
8840,3,-243,-220,28,-229,143
8845,2,-238,-216,57,-264,171
8850,4,-241,-215,75,-298,196
8855,4,-242,-222,92,-323,213
8860,9,-243,-218,112,-333,217
8865,7,-242,-224,143,-331,214
8870,12,-238,-225,178,-318,208
8875,9,-233,-223,215,-295,201
8880,9,-227,-223,254,-270,195
8885,8,-223,-223,288,-249,197
8890,8,-223,-222,306,-237,204
8895,7,-220,-223,312,-229,204
8900,7,-222,-222,311,-218,198
8905,12,-223,-227,304,-201,199
8910,13,-220,-222,291,-180,185
8915,7,-216,-221,265,-149,171
8920,2,-216,-214,237,-122,151
8925,0,-209,-209,200,-107,157
8930,3,-209,-205,172,-97,146
8935,2,-209,-199,152,-86,119
8940,-2,-207,-197,138,-80,86
8945,-6,-210,-196,132,-77,62
8950,-9,-207,-196,131,-81,56
8955,-5,-208,-192,129,-89,55
8960,-4,-207,-197,134,-103,33
8965,-15,-206,-203,141,-113,2
8970,-16,-212,-196,141,-112,2
8975,-8,-212,-195,130,-104,1
8980,-15,-214,-197,123,-99,-32
8985,-14,-219,-198,108,-90,-74
8990,-13,-222,-196,90,-92,-102
8995,-20,-221,-199,68,-86,-127
9000,-14,-226,-192,47,-78,-122
9005,-13,-229,-192,47,-70,-140
9010,-20,-227,-188,55,-59,-163
9015,-17,-230,-186,68,-48,-177
9020,-23,-230,-180,83,-49,-184
9025,-26,-225,-187,83,-42,-150
9030,-10,-228,-187,70,-45,-102
9035,-7,-222,-176,63,-38,-113
9040,-15,-221,-171,60,-28,-125
9045,-15,-221,-166,58,-20,-125
9050,-13,-220,-163,59,-21,-114
9055,-16,-217,-160,63,-28,-107
9060,-14,-216,-165,66,-34,-100
9065,-9,-216,-163,73,-35,-90
9070,-12,-208,-159,87,-30,-75
9075,-13,-207,-166,107,-25,-69
9080,-9,-205,-169,125,-18,-58
9085,-17,-203,-173,136,-19,-48
9090,-11,-201,-168,143,-24,-25
9095,-16,-198,-169,166,-21,-40
9100,-26,-196,-171,190,-23,-46
9105,-29,-191,-172,207,-33,-52
9110,-28,-191,-172,206,-50,-46
9115,-28,-192,-174,190,-71,-39
9120,-28,-186,-176,164,-94,-33
9125,-34,-180,-177,128,-112,-32
9130,-30,-183,-179,84,-124,-26
9135,-34,-182,-183,44,-131,-33
9140,-38,-183,-180,-6,-131,-21
9145,-28,-187,-179,-63,-130,5
9150,-29,-187,-180,-98,-133,-9
9155,-29,-184,-183,-120,-143,-36
9160,-24,-184,-181,-144,-150,-44
9165,-22,-190,-179,-160,-152,-33
9170,-17,-189,-172,-163,-148,-27
9175,-20,-190,-180,-158,-137,-32
9180,-17,-188,-182,-148,-128,-39
9185,-20,-188,-175,-131,-122,-47
9190,-16,-190,-179,-107,-121,-68
9195,-14,-188,-177,-89,-116,-88
9200,-24,-187,-182,-69,-115,-108
9205,-20,-188,-179,-56,-112,-117
9210,-23,-187,-177,-53,-111,-139
9215,-17,-186,-174,-64,-121,-125
9220,-22,-189,-180,-67,-125,-132
9225,-25,-189,-182,-69,-131,-160
9230,-26,-186,-182,-88,-138,-173
9235,-29,-192,-180,-116,-151,-170
9240,-31,-193,-175,-141,-168,-162
9245,-31,-193,-182,-164,-187,-153
9250,-24,-196,-180,-183,-205,-145
9255,-25,-199,-179,-204,-217,-143
9260,-28,-201,-175,-209,-228,-142
9265,-27,-203,-176,-204,-232,-128
9270,-29,-204,-173,-188,-233,-122
9275,-26,-205,-176,-163,-230,-129
9280,-26,-205,-172,-136,-221,-129
9285,-20,-204,-177,-96,-218,-135
9290,-20,-207,-179,-50,-217,-152
9295,-37,-205,-188,-12,-221,-160
9300,-16,-202,-181,12,-235,-129
9305,-10,-205,-183,47,-242,-148
9310,-17,-200,-182,82,-249,-172
9315,-19,-199,-191,108,-256,-184
9320,-16,-203,-192,127,-261,-195
9325,-31,-197,-190,143,-267,-217
9330,-31,-197,-189,161,-279,-217
9335,-31,-198,-189,186,-294,-213
9340,-30,-195,-191,211,-303,-218
9345,-32,-193,-187,241,-310,-222
9350,-31,-192,-185,269,-315,-223
9355,-26,-188,-188,292,-319,-222
9360,-23,-190,-184,301,-322,-221
9365,-28,-184,-182,288,-324,-232
9370,-26,-183,-178,264,-331,-227
9375,-29,-180,-183,233,-342,-215
9380,-39,-180,-178,192,-357,-195
9385,-10,-186,-178,147,-379,-159
9390,-13,-184,-179,118,-391,-176
9395,-13,-183,-174,101,-397,-208
9400,-15,-185,-170,91,-394,-231
9405,-19,-181,-182,99,-389,-252
9410,-19,-182,-166,114,-381,-292
9415,-22,-180,-168,148,-376,-315
9420,-22,-182,-173,191,-375,-339
9425,-25,-179,-171,233,-375,-361
9430,-27,-179,-174,270,-375,-384
9435,-33,-173,-173,295,-370,-403
9440,-32,-177,-175,310,-366,-413
9445,-30,-177,-179,317,-360,-418
9450,-30,-178,-177,317,-354,-419
9455,-28,-179,-178,312,-346,-418
9460,-27,-166,-197,305,-340,-414
9465,-25,-183,-175,300,-333,-409
9470,-24,-186,-176,298,-328,-404
9475,-21,-188,-174,302,-321,-401
9480,-18,-187,-173,305,-315,-397
9485,-18,-187,-166,308,-311,-394
9490,-12,-187,-179,312,-305,-397
9495,-22,-183,-172,300,-298,-427
9500,-16,-188,-171,304,-301,-423
9505,-15,-188,-171,314,-307,-413
9510,-13,-191,-172,322,-313,-412
9515,-12,-181,-167,328,-320,-413
9520,-16,-192,-181,331,-326,-412
9525,-18,-192,-179,314,-331,-421
9530,-14,-195,-172,301,-339,-429
9535,-12,-197,-177,291,-345,-433
9540,-15,-200,-177,284,-352,-437
9545,-16,-205,-174,275,-357,-440
9550,-11,-206,-175,270,-360,-438
9555,-12,-210,-175,269,-362,-443
9560,-12,-218,-173,276,-359,-445
9565,-13,-220,-179,297,-357,-437
9570,-15,-219,-175,286,-352,-446
9575,-10,-223,-169,289,-352,-453
9580,-13,-222,-165,310,-351,-459
9585,-9,-223,-158,329,-352,-448
9590,-11,-223,-161,347,-354,-434
9595,-19,-219,-164,370,-351,-456
9600,-20,-218,-169,388,-351,-462
9605,-26,-212,-166,397,-352,-462
9610,-22,-217,-167,403,-357,-460
9615,-22,-212,-164,405,-361,-454
9620,-19,-221,-161,408,-364,-449
9625,-22,-216,-171,414,-366,-435
9630,-25,-219,-171,379,-363,-445
9635,-20,-217,-162,364,-363,-447
9640,-16,-219,-158,365,-360,-438
9645,-17,-218,-155,373,-352,-428
9650,-12,-217,-153,380,-343,-414
9655,-9,-215,-156,388,-335,-406
9660,-9,-216,-159,394,-327,-399
9665,-7,-212,-157,400,-321,-393
9670,-7,-210,-158,404,-315,-388
9675,-7,-211,-157,403,-309,-384
9680,-8,-210,-158,402,-307,-381
9685,-8,-206,-156,398,-309,-378
9690,-10,-205,-159,390,-316,-375
9695,-9,-203,-158,381,-324,-369
9700,-11,-200,-158,370,-332,-364
9705,-17,-206,-165,364,-340,-357
9710,-17,-202,-167,353,-346,-340
9715,-15,-198,-165,306,-352,-350
9720,-13,-197,-154,279,-361,-352
9725,-11,-199,-153,268,-368,-347
9730,-12,-195,-152,256,-372,-341
9735,-13,-198,-160,238,-375,-336
9740,-12,-198,-158,214,-378,-329
9745,-10,-198,-159,188,-377,-323
9750,-8,-200,-160,157,-376,-313
9755,-6,-199,-158,123,-370,-306
9760,-6,-206,-157,88,-363,-298
9765,-2,-214,-156,56,-353,-287
9770,0,-221,-151,24,-343,-274
9775,2,-226,-156,0,-333,-265
9780,1,-226,-151,-11,-320,-254
9785,4,-233,-148,-8,-307,-241
9790,6,-235,-153,3,-295,-231
9795,6,-238,-152,24,-279,-226
9800,7,-237,-147,47,-264,-220
9805,10,-237,-148,69,-247,-214
9810,10,-236,-147,90,-229,-211
9815,3,-236,-147,107,-210,-206
9820,2,-233,-148,117,-193,-201
9825,4,-233,-148,123,-176,-197
9830,1,-229,-145,124,-162,-193
9835,1,-229,-147,119,-152,-188
9840,0,-232,-143,111,-144,-183
9845,-1,-229,-148,99,-140,-177
9850,-1,-229,-140,86,-141,-175
9855,-3,-231,-141,76,-144,-172
9860,-5,-227,-140,61,-149,-169
9865,-4,-226,-137,45,-155,-166
9870,-1,-233,-142,28,-160,-165
9875,-4,-230,-145,7,-163,-163
9880,-3,-232,-141,-15,-166,-160
9885,-1,-233,-144,-34,-167,-156
9890,-2,-235,-143,-53,-166,-152
9895,0,-235,-141,-69,-165,-144
9900,2,-231,-139,-84,-165,-140
9905,1,-235,-139,-94,-162,-135
9910,0,-234,-143,-101,-157,-129
9915,-1,-232,-139,-105,-149,-124
9920,-3,-234,-145,-106,-144,-118
9925,-5,-230,-142,-105,-138,-111
9930,-10,-226,-146,-104,-133,-108
9935,-6,-231,-149,-105,-130,-103
9940,-13,-228,-152,-106,-129,-100
9945,-11,-227,-160,-111,-129,-97
9950,-15,-229,-157,-117,-131,-96
9955,-15,-228,-157,-125,-136,-95
9960,-14,-228,-158,-133,-140,-93
9965,-13,-228,-159,-139,-144,-91
9970,-15,-228,-160,-147,-144,-89
9975,-11,-226,-159,-153,-146,-87
9980,-16,-223,-157,-161,-144,-85
9985,-12,-224,-150,-170,-145,-84
9990,-15,-223,-148,-178,-143,-83
9995,-15,-220,-144,-184,-142,-81
10000,-13,-224,-149,-189,-138,-80
10005,-16,-223,-151,-193,-135,-77
10010,-17,-221,-153,-202,-132,-77
10015,-17,-224,-152,-214,-132,-74
10020,-20,-227,-147,-230,-134,-71
10025,-18,-225,-152,-249,-136,-69
10030,-19,-230,-151,-266,-137,-66
10035,-21,-233,-150,-282,-138,-66
10040,-20,-235,-148,-287,-137,-65
10045,-20,-235,-147,-288,-135,-64
10050,-18,-236,-149,-284,-133,-63
10055,-17,-236,-148,-274,-130,-61
10060,-16,-236,-147,-265,-125,-60
10065,-15,-236,-146,-255,-119,-59
10070,-15,-233,-146,-247,-113,-58
10075,-9,-237,-145,-238,-104,-57
10080,-10,-233,-142,-228,-94,-57
10085,-9,-234,-144,-214,-85,-58
10090,-5,-230,-143,-205,-73,-58
10095,-7,-228,-140,-196,-60,-58
10100,-2,-227,-139,-192,-45,-58
10105,0,-226,-143,-194,-29,-60
10110,-2,-222,-146,-204,-13,-59
10115,4,-220,-148,-219,4,-59
10120,7,-222,-152,-237,17,-56
10125,8,-221,-157,-256,32,-53
10130,9,-224,-157,-273,45,-51
10135,11,-225,-158,-287,60,-48
10140,12,-223,-160,-295,74,-46
10145,12,-223,-162,-302,90,-42
10150,14,-224,-166,-306,105,-40
10155,15,-223,-167,-309,123,-37
10160,18,-224,-169,-313,142,-34
10165,15,-219,-172,-312,163,-31
10170,27,-219,-164,-317,180,-28
10175,20,-222,-169,-320,195,-23
10180,25,-219,-171,-324,209,-18
10185,24,-219,-170,-328,221,-15
10190,29,-221,-172,-337,230,-14
10195,33,-218,-170,-344,235,-11
10200,33,-218,-170,-351,237,-12
10205,36,-217,-164,-356,235,-13
10210,38,-220,-164,-362,227,-17
10215,39,-219,-167,-372,218,-22
10220,44,-222,-167,-378,203,-28
10225,43,-225,-164,-384,184,-36
10230,44,-226,-168,-390,163,-43
10235,44,-230,-167,-398,135,-50
10240,45,-234,-173,-404,107,-57
10245,48,-242,-176,-410,78,-66
10250,49,-244,-170,-413,48,-71
10255,52,-249,-172,-413,19,-78
10260,52,-252,-174,-409,-8,-85
10265,52,-258,-173,-402,-33,-90
10270,53,-259,-176,-390,-59,-96
10275,51,-265,-178,-375,-79,-103
10280,53,-271,-175,-356,-98,-112
10285,51,-268,-176,-336,-114,-118
10290,46,-271,-172,-313,-129,-126
10295,49,-269,-171,-288,-141,-134
10300,46,-269,-165,-265,-152,-142
10305,45,-266,-170,-242,-163,-151
10310,42,-262,-165,-217,-172,-160
10315,42,-261,-159,-194,-178,-169
10320,41,-257,-162,-171,-183,-179
10325,42,-250,-161,-150,-189,-187
10330,37,-246,-157,-133,-197,-196
10335,38,-242,-161,-121,-204,-203
10340,32,-234,-159,-111,-212,-210
10345,33,-234,-160,-105,-222,-216
10350,30,-230,-160,-100,-231,-218
10355,28,-225,-157,-99,-239,-221
10360,24,-223,-159,-97,-248,-221
10365,24,-218,-157,-98,-253,-220
10370,17,-215,-161,-99,-259,-217
10375,18,-217,-163,-99,-267,-213
10380,18,-218,-164,-103,-278,-208
10385,19,-217,-161,-109,-288,-204
10390,19,-220,-165,-115,-299,-198
10395,19,-221,-163,-117,-308,-190
10400,20,-222,-160,-117,-320,-186
10405,17,-223,-163,-113,-332,-180
10410,16,-224,-165,-103,-346,-176
10415,17,-222,-165,-92,-361,-173
10420,16,-224,-170,-82,-379,-173
10425,14,-224,-170,-74,-398,-174
10430,14,-227,-175,-70,-419,-177
10435,12,-230,-175,-69,-441,-180
10440,10,-230,-175,-71,-462,-183
10445,13,-232,-180,-77,-482,-189
10450,14,-239,-181,-81,-499,-194
10455,11,-240,-181,-87,-516,-198
10460,16,-241,-189,-93,-528,-200
10465,16,-245,-187,-98,-535,-202
10470,19,-243,-187,-97,-534,-204
10475,17,-242,-186,-93,-524,-203
10480,22,-245,-188,-85,-510,-202
10485,25,-243,-183,-70,-489,-199
10490,23,-236,-181,-51,-464,-196
10495,26,-235,-179,-29,-435,-193
10500,30,-230,-179,-14,-406,-189
10505,30,-226,-177,-1,-376,-186
10510,33,-223,-173,7,-350,-185
10515,34,-216,-177,8,-327,-185
10520,28,-212,-179,4,-308,-184
10525,30,-212,-176,-8,-294,-185
10530,28,-210,-183,-23,-286,-188
10535,24,-206,-177,-44,-281,-193
10540,27,-212,-177,-67,-281,-199
10545,22,-209,-177,-89,-286,-205
10550,22,-214,-179,-107,-292,-213
10555,17,-215,-175,-122,-304,-222
10560,18,-219,-173,-125,-318,-231
10565,14,-219,-172,-125,-337,-241
10570,10,-223,-172,-116,-363,-252
10575,8,-222,-170,-103,-393,-265
10580,6,-221,-172,-85,-425,-277
10585,3,-220,-165,-67,-462,-289
10590,4,-221,-168,-47,-503,-302
10595,0,-218,-164,-29,-543,-316
10600,-7,-216,-165,-12,-583,-329
10605,-6,-218,-166,0,-622,-338
10610,-11,-216,-166,7,-660,-348
10615,-13,-217,-168,6,-698,-353
10620,-14,-219,-170,0,-730,-357
10625,-21,-218,-169,-11,-759,-358
10630,-21,-224,-172,-23,-780,-357
10635,-26,-223,-174,-36,-793,-353
10640,-22,-226,-174,-46,-802,-346
10645,-25,-227,-172,-55,-804,-337
10650,-24,-225,-173,-58,-803,-326
10655,-24,-225,-169,-59,-797,-313
10660,-21,-221,-173,-58,-789,-299
10665,-24,-217,-167,-53,-779,-283
10670,-22,-211,-162,-50,-770,-267
10675,-21,-209,-163,-49,-761,-250
10680,-21,-206,-167,-54,-752,-234
10685,-18,-201,-162,-64,-739,-217
10690,-14,-198,-163,-80,-727,-201
10695,-10,-194,-167,-100,-710,-188
10700,-7,-195,-163,-127,-690,-175
10705,-3,-196,-160,-153,-665,-166
10710,2,-199,-165,-182,-636,-158
10715,4,-202,-163,-206,-603,-156
10720,5,-204,-163,-226,-569,-159
10725,7,-209,-161,-244,-535,-162
10730,7,-215,-161,-254,-500,-167
10735,5,-220,-165,-258,-467,-174
10740,6,-229,-166,-253,-431,-181
10745,8,-238,-165,-242,-394,-191
10750,10,-245,-164,-223,-358,-199
10755,6,-252,-161,-195,-325,-205
10760,6,-256,-160,-165,-296,-209
10765,3,-258,-159,-132,-271,-213
10770,3,-262,-157,-98,-250,-212
10775,0,-268,-157,-69,-232,-210
10780,2,-269,-156,-43,-218,-209
10785,1,-275,-155,-22,-206,-206
10790,-2,-277,-153,-3,-196,-199
10795,0,-281,-152,13,-183,-194
10800,0,-282,-151,31,-170,-185
10805,-2,-282,-150,51,-154,-177
10810,-4,-285,-147,72,-140,-170
10815,-6,-279,-150,92,-127,-164
10820,-8,-278,-146,108,-114,-156
10825,-11,-277,-145,126,-102,-148
10830,-12,-272,-146,139,-92,-141
10835,-11,-266,-145,148,-84,-134
10840,-9,-265,-145,155,-81,-128
10845,-10,-260,-142,162,-77,-121
10850,-11,-261,-142,162,-73,-115
10855,-9,-258,-142,164,-69,-110
10860,-12,-257,-145,167,-64,-106
10865,-10,-255,-144,169,-59,-102
10870,-14,-251,-143,170,-54,-99
10875,-11,-248,-144,173,-49,-95
10880,-13,-245,-148,179,-41,-88
10885,-12,-241,-146,184,-30,-80
10890,-10,-240,-147,189,-20,-69
10895,-10,-236,-149,193,-9,-59
10900,-15,-234,-147,196,-2,-45
10905,-14,-232,-149,196,5,-30
10910,-13,-231,-155,193,16,-16
10915,-14,-234,-152,191,28,2
10920,-11,-235,-152,188,42,16
10925,-16,-234,-154,190,54,29
10930,-17,-232,-154,198,66,40
10935,-17,-232,-157,210,77,47
10940,-19,-233,-156,222,82,54
10945,-23,-232,-158,232,84,60
10950,-24,-228,-159,240,77,61
10955,-25,-230,-156,246,69,60
10960,-24,-230,-157,250,58,57
10965,-27,-230,-154,254,51,54
10970,-31,-230,-151,261,45,47
10975,-31,-232,-147,270,42,40
10980,-32,-229,-150,277,40,33
10985,-24,-231,-139,283,40,25
10990,-30,-230,-144,282,44,18
10995,-32,-228,-138,279,46,12
11000,-30,-230,-141,271,50,9
11005,-32,-232,-141,261,53,7
11010,-26,-235,-138,251,57,8
11015,-21,-235,-138,240,63,10
11020,-20,-237,-139,230,72,11
11025,-16,-237,-139,219,85,14
11030,-15,-241,-143,211,99,17
11035,-12,-243,-142,204,115,19
11040,-9,-242,-144,204,135,24
11045,-8,-244,-144,210,156,26
11050,-6,-242,-146,217,176,28
11055,-9,-242,-146,228,198,31
11060,-5,-243,-144,239,215,34
11065,-7,-238,-146,250,232,35
11070,-3,-235,-145,260,243,38
11075,-6,-235,-146,265,250,40
11080,-3,-231,-146,267,252,42
11085,-6,-231,-146,264,249,45
11090,-5,-227,-145,256,242,46
11095,-6,-228,-144,242,232,46
11100,-5,-227,-148,223,219,46
11105,-5,-229,-144,200,201,46
11110,-5,-232,-148,173,186,46
11115,-8,-234,-152,141,172,47
11120,-6,-240,-153,110,159,48
11125,-5,-244,-150,79,151,47
11130,-3,-254,-150,55,145,46
11135,-1,-255,-157,43,142,45
11140,-7,-258,-148,40,142,44
11145,-8,-260,-149,51,145,43
11150,-4,-262,-150,72,147,42
11155,-2,-259,-145,100,151,40
11160,-3,-256,-148,130,152,40
11165,0,-256,-142,158,152,42
11170,-3,-250,-145,182,150,46
11175,0,-247,-144,199,147,49
11180,0,-243,-144,207,146,52
11185,3,-237,-141,210,143,58
11190,2,-234,-138,206,141,62
11195,5,-231,-142,207,141,67
11200,7,-227,-141,206,137,72
11205,13,-226,-140,201,132,74
11210,11,-222,-143,199,129,78
11215,8,-218,-144,195,123,77
11220,9,-216,-143,189,118,75
11225,7,-215,-144,183,112,74
11230,6,-209,-145,172,107,71
11235,8,-213,-152,162,102,64
11240,6,-210,-152,152,98,58
11245,6,-209,-144,136,94,49
11250,1,-208,-152,122,91,42
11255,0,-210,-150,106,89,35
11260,0,-210,-151,87,83,29
11265,-1,-209,-151,68,75,22
11270,-2,-211,-148,45,66,19
11275,0,-216,-149,20,55,13
11280,-8,-215,-154,-4,42,8
11285,-8,-219,-148,-30,30,4
11290,-7,-215,-153,-52,18,3
11295,-7,-220,-153,-72,9,1
11300,-5,-225,-153,-89,0,1
11305,-1,-227,-150,-104,-4,-1
11310,-1,-230,-151,-119,-6,-1
11315,0,-235,-151,-128,-6,2
11320,0,-238,-153,-136,-2,3
11325,3,-241,-149,-136,4,8
11330,3,-242,-150,-131,11,13
11335,6,-244,-151,-123,20,19
11340,8,-245,-148,-114,31,25
11345,7,-244,-140,-103,43,30
11350,15,-247,-148,-91,53,35
11355,12,-245,-143,-77,63,39
11360,16,-247,-145,-65,74,42
11365,14,-248,-147,-52,82,43
11370,17,-248,-146,-41,89,41
11375,20,-245,-147,-28,90,39
11380,19,-245,-144,-19,92,36
11385,18,-246,-142,-12,94,31
11390,21,-243,-141,-1,94,26
11395,22,-241,-141,5,95,19
11400,22,-244,-142,9,93,11
11405,21,-240,-140,8,93,5
11410,21,-236,-141,4,91,-2
11415,20,-234,-142,-7,90,-10
11420,17,-237,-139,-20,86,-17
11425,16,-235,-145,-36,81,-22
11430,13,-236,-143,-53,76,-26
11435,16,-237,-140,-69,70,-27
11440,13,-239,-143,-81,63,-30
11445,12,-238,-141,-88,57,-30
11450,14,-240,-146,-95,53,-27
11455,16,-242,-142,-98,48,-25
11460,13,-244,-145,-98,45,-23
11465,13,-246,-144,-102,43,-19
11470,15,-243,-143,-103,41,-16
11475,15,-246,-147,-103,41,-12
11480,15,-245,-141,-104,44,-7
11485,17,-248,-140,-99,48,-2
11490,11,-243,-139,-91,51,1
11495,14,-246,-140,-83,52,6
11500,12,-247,-144,-76,54,11
11505,17,-245,-144,-66,58,14
11510,15,-249,-140,-57,61,15
11515,14,-246,-141,-50,63,16
11520,16,-246,-142,-44,66,16
11525,15,-246,-144,-36,71,16
11530,14,-246,-140,-29,76,14
11535,14,-246,-141,-22,80,10
11540,14,-242,-142,-16,85,6
11545,11,-239,-137,-9,90,2
11550,13,-242,-141,-4,94,-1
11555,11,-234,-143,1,95,-3
11560,15,-235,-140,0,95,-6
11565,9,-230,-142,-3,92,-9
11570,9,-235,-146,-12,90,-13
11575,9,-232,-147,-22,88,-15
11580,9,-230,-148,-38,85,-16
11585,13,-231,-143,-54,83,-18
11590,7,-235,-144,-68,81,-19
11595,6,-235,-145,-80,77,-22
11600,9,-234,-144,-86,73,-24
11605,8,-236,-143,-89,69,-25
11610,8,-236,-139,-93,66,-26
11615,6,-234,-142,-95,62,-27
11620,9,-236,-138,-96,58,-28
11625,9,-237,-136,-99,55,-28
11630,5,-234,-140,-104,51,-29
11635,9,-240,-138,-111,49,-27
11640,6,-239,-137,-116,46,-28
11645,9,-241,-138,-124,45,-26
11650,10,-243,-142,-132,47,-25
11655,9,-244,-144,-139,52,-21
11660,13,-250,-146,-148,56,-17
11665,12,-252,-148,-154,62,-14
11670,15,-255,-148,-158,66,-9
11675,14,-256,-145,-159,72,-7
11680,16,-259,-143,-155,76,-4
11685,13,-258,-147,-143,77,-3
11690,28,-259,-134,-128,79,-3
11695,14,-257,-144,-109,82,-3
11700,21,-255,-142,-88,79,-3
11705,15,-252,-139,-66,79,-3
11710,13,-252,-140,-51,76,-5
11715,12,-246,-138,-42,73,-7
11720,10,-245,-136,-34,69,-9
11725,8,-240,-142,-30,66,-12
11730,8,-237,-137,-33,61,-12
11735,6,-235,-140,-37,55,-15
11740,5,-233,-140,-44,49,-18
11745,15,-239,-123,-52,44,-20
11750,5,-231,-140,-60,37,-22
11755,8,-233,-139,-70,34,-24
11760,9,-232,-144,-81,30,-26
11765,5,-234,-141,-90,27,-29
11770,8,-235,-143,-100,26,-30
11775,6,-234,-136,-108,27,-31
11780,7,-238,-140,-115,28,-31
11785,8,-237,-140,-122,31,-28
11790,5,-239,-140,-128,34,-27
11795,10,-242,-140,-132,40,-26
11800,8,-256,-133,-130,43,-23
11805,8,-242,-139,-127,47,-22
11810,8,-247,-140,-121,53,-18
11815,7,-246,-136,-115,56,-15
11820,10,-244,-143,-107,59,-12
11825,9,-245,-143,-102,62,-11
11830,6,-247,-140,-96,62,-10
11835,8,-246,-144,-90,62,-7
11840,6,-245,-142,-81,65,-7
11845,7,-243,-142,-69,66,-6
11850,9,-243,-144,-62,66,-7
11855,10,-242,-147,-58,67,-6
11860,11,-242,-149,-61,67,-7
11865,10,-239,-146,-67,66,-9
11870,9,-243,-146,-77,66,-9
11875,7,-240,-146,-87,66,-8
11880,6,-242,-144,-92,64,-9
11885,9,-242,-147,-94,62,-9
11890,11,-244,-147,-95,60,-9
11895,8,-240,-145,-96,58,-8
11900,7,-244,-149,-98,56,-8
11905,7,-243,-149,-95,53,-7
11910,8,-244,-149,-95,53,-8
11915,8,-248,-147,-93,56,-7
11920,5,-243,-144,-88,57,-5
11925,9,-243,-142,-83,59,-3
11930,6,-242,-141,-78,58,-2
11935,6,-242,-145,-74,57,1
11940,7,-242,-140,-70,57,2
11945,8,-242,-139,-65,57,3
11950,7,-240,-143,-61,56,4
11955,8,-240,-143,-57,55,6
11960,7,-238,-140,-51,55,6
11965,4,-239,-141,-46,56,9
11970,6,-239,-140,-43,58,9
11975,5,-243,-137,-42,57,8
11980,4,-237,-142,-46,53,7
11985,5,-237,-138,-50,50,8
11990,6,-236,-145,-58,45,6
11995,6,-238,-143,-69,41,6
