timestamp,acc_x,acc_y,acc_z,gyro_x,gyro_y,gyro_z
0,-18,-247,-56,5,46,-8
5,-15,-251,-60,4,45,-8
10,-16,-249,-60,3,46,-8
15,-16,-248,-58,3,46,-10
20,-16,-250,-58,3,44,-8
25,-18,-253,-58,3,44,-9
30,-17,-249,-60,3,43,-10
35,-16,-249,-59,1,45,-8
40,-14,-250,-56,-1,43,-8
45,-18,-249,-53,-1,43,-7
50,-18,-249,-59,-1,43,-9
55,-17,-249,-59,1,43,-8
60,-15,-250,-59,3,43,-6
65,-19,-250,-57,4,42,-6
70,-17,-249,-57,5,43,-5
75,-20,-247,-57,3,42,-4
80,-13,-252,-57,4,43,-5
85,-16,-249,-57,1,46,-6
90,-16,-250,-53,0,49,-6
95,-15,-251,-59,-2,49,-7
100,-12,-252,-61,-3,51,-6
105,-17,-251,-59,-3,54,-5
110,-12,-248,-57,-5,57,-7
115,-17,-248,-60,-6,60,-7
120,-18,-248,-57,-8,63,-7
125,-15,-250,-60,-13,64,-6
130,-17,-245,-61,-22,64,-7
135,-14,-251,-58,-31,64,-8
140,-17,-247,-57,-38,65,-9
145,-16,-250,-60,-45,71,-10
150,-16,-250,-62,-50,74,-10
155,-18,-251,-58,-50,74,-10
160,-16,-253,-63,-48,77,-8
165,-17,-251,-62,-47,78,-8
170,-18,-249,-59,-47,81,-5
175,-18,-249,-62,-47,83,-2
180,-15,-249,-63,-48,84,2
185,-18,-249,-66,-51,86,6
190,-19,-247,-67,-58,87,9
195,-14,-248,-64,-67,90,10
200,-17,-248,-64,-78,91,13
205,-16,-252,-63,-88,92,14
210,-19,-253,-60,-98,96,13
215,-17,-254,-55,-105,96,14
220,-17,-253,-61,-110,98,15
225,-17,-253,-59,-114,100,15
230,-20,-252,-59,-118,101,14
235,-19,-252,-59,-123,100,13
240,-17,-256,-60,-121,100,11
245,-15,-255,-61,-117,98,9
250,-14,-254,-62,-110,100,6
255,-14,-252,-66,-102,104,3
260,-14,-255,-68,-96,112,0
265,-15,-251,-63,-93,122,-4
270,-17,-251,-66,-92,127,-7
275,-19,-249,-64,-87,133,-10
280,-18,-248,-64,-80,135,-12
285,-19,-249,-61,-75,136,-13
290,-18,-248,-61,-71,134,-13
295,-18,-246,-62,-68,132,-15
300,-19,-243,-59,-66,128,-14
305,-17,-245,-54,-64,125,-13
310,-20,-245,-55,-65,123,-14
315,-20,-246,-58,-66,121,-14
320,-20,-247,-52,-67,115,-12
325,-19,-248,-56,-67,109,-11
330,-20,-244,-58,-68,102,-8
335,-19,-247,-52,-69,96,-8
340,-20,-248,-58,-68,87,-5
345,-19,-249,-55,-67,79,-4
350,-15,-243,-58,-64,73,-2
355,-18,-247,-62,-63,68,-1
360,-18,-247,-59,-65,65,0
365,-17,-248,-59,-68,63,1
370,-18,-248,-58,-70,62,1
375,-16,-249,-54,-73,61,1
380,-15,-250,-51,-75,62,-1
385,-15,-251,-54,-76,63,-1
390,-20,-252,-55,-77,62,-2
395,-14,-252,-56,-78,62,-2
400,-17,-252,-51,-82,64,-4
405,-15,-251,-56,-84,63,-3
410,-11,-254,-56,-85,64,-3
415,-16,-254,-57,-87,65,-5
420,-15,-252,-59,-86,67,-6
425,-12,-254,-57,-83,69,-6
430,-15,-253,-60,-80,73,-7
435,-13,-253,-62,-78,76,-7
440,-14,-254,-61,-75,76,-7
445,-13,-250,-62,-74,75,-9
450,-13,-250,-61,-76,77,-9
455,-16,-249,-62,-77,77,-8
460,-16,-251,-60,-77,79,-9
465,-13,-252,-56,-76,80,-11
470,-16,-248,-62,-75,78,-11
475,-15,-249,-57,-72,79,-13
480,-17,-249,-60,-71,79,-11
485,-15,-252,-60,-66,79,-11
490,-17,-250,-55,-63,77,-12
495,-17,-249,-59,-59,76,-9
500,-18,-248,-57,-56,74,-7
505,-17,-250,-59,-55,72,-6
510,-21,-245,-65,-54,69,-5
515,-18,-249,-62,-50,66,-4
520,-21,-251,-61,-48,62,-2
525,-19,-250,-59,-46,58,0
530,-19,-249,-64,-42,55,0
535,-17,-251,-61,-42,51,2
540,-17,-252,-63,-43,49,5
545,-17,-253,-60,-46,46,7
550,-20,-254,-61,-47,43,6
555,-17,-252,-61,-47,38,8
560,-18,-252,-61,-44,33,7
565,-18,-253,-64,-40,31,6
570,-18,-253,-65,-37,27,4
575,-16,-251,-62,-34,26,2
580,-16,-249,-61,-33,25,0
585,-18,-250,-58,-30,27,-2
590,-18,-248,-61,-28,27,-4
595,-15,-249,-61,-26,26,-5
600,-20,-247,-63,-23,27,-5
605,-18,-248,-65,-22,27,-7
610,-18,-248,-58,-19,25,-6
615,-13,-248,-65,-19,26,-6
620,-19,-248,-67,-18,23,-6
625,-16,-247,-62,-20,23,-5
630,-15,-247,-64,-24,23,-2
635,-18,-248,-69,-29,22,-1
640,-13,-250,-68,-33,22,-1
645,-12,-250,-63,-36,21,0
650,-14,-248,-65,-38,21,0
655,-13,-251,-63,-36,24,1
660,-13,-251,-65,-32,25,0
665,-14,-251,-63,-24,27,0
670,-15,-251,-60,-18,28,-1
675,-11,-250,-65,-10,33,-2
680,-15,-251,-64,-7,35,-5
685,-12,-250,-68,-5,37,-6
690,-12,-249,-66,-5,39,-7
695,-11,-247,-67,-7,46,-10
700,-12,-251,-64,-8,51,-10
705,-13,-248,-66,-7,56,-11
710,-10,-249,-66,-7,58,-10
715,-9,-248,-69,-6,60,-9
720,-11,-247,-70,-8,65,-8
725,-16,-245,-67,-12,66,-6
730,-14,-246,-67,-18,70,-6
735,-15,-248,-66,-24,73,-4
740,-13,-247,-65,-31,74,-3
745,-14,-248,-65,-36,76,-1
750,-16,-249,-61,-40,78,-2
755,-13,-248,-67,-42,77,-3
760,-17,-250,-67,-42,79,-2
765,-14,-249,-69,-42,82,-3
770,-15,-249,-64,-40,83,-4
775,-15,-248,-66,-40,86,-2
780,-10,-249,-66,-39,88,-2
785,-18,-249,-68,-39,90,-1
790,-15,-250,-64,-38,90,0
795,-11,-250,-66,-37,90,1
800,-14,-250,-67,-36,92,1
805,-13,-248,-63,-34,94,3
810,-14,-247,-65,-31,95,5
815,-15,-248,-61,-31,96,5
820,-13,-249,-63,-32,96,6
825,-12,-248,-67,-35,96,6
830,-13,-248,-65,-39,97,7
835,-14,-247,-68,-39,96,8
840,-16,-248,-65,-40,95,6
845,-15,-250,-69,-43,94,9
850,-17,-247,-63,-44,94,9
855,-17,-251,-70,-46,94,8
860,-15,-253,-68,-47,93,8
865,-16,-249,-69,-47,94,6
870,-16,-250,-64,-45,94,5
875,-16,-248,-68,-45,95,3
880,-15,-251,-68,-44,96,3
885,-15,-249,-67,-41,96,2
890,-16,-250,-67,-41,94,-1
895,-12,-249,-67,-39,93,-1
900,-19,-247,-67,-39,90,-1
905,-16,-249,-68,-41,88,-2
910,-20,-246,-63,-43,87,-3
915,-17,-248,-67,-46,86,-3
920,-17,-249,-66,-48,85,-2
925,-21,-247,-65,-50,84,-2
930,-22,-248,-65,-53,82,-1
935,-18,-250,-67,-57,82,-2
940,-17,-248,-63,-58,79,-2
945,-18,-249,-66,-61,76,-2
950,-16,-249,-66,-61,73,1
955,-16,-249,-63,-62,72,1
960,-15,-251,-68,-62,71,1
965,-15,-251,-71,-62,69,2
970,-16,-249,-70,-64,67,2
975,-16,-250,-68,-63,66,2
980,-17,-250,-68,-61,67,4
985,-17,-250,-69,-57,67,4
990,-15,-249,-72,-52,65,4
995,-15,-248,-69,-49,65,3
1000,-16,-249,-70,-48,66,4
1005,-17,-249,-70,-46,68,2
1010,-17,-250,-68,-44,68,-1
1015,-16,-248,-67,-47,69,-2
1020,-20,-247,-67,-50,71,-4
1025,-14,-250,-67,-53,73,-4
1030,-16,-248,-68,-58,73,-5
1035,-17,-248,-71,-60,73,-6
1040,-16,-250,-69,-63,72,-6
1045,-17,-249,-68,-64,73,-6
1050,-15,-247,-70,-64,74,-5
1055,-16,-247,-72,-67,77,-3
1060,-16,-250,-72,-69,78,-2
1065,-19,-246,-70,-70,80,-1
1070,-17,-247,-69,-69,80,1
1075,-17,-245,-72,-70,82,2
1080,-19,-247,-71,-67,81,3
1085,-17,-250,-70,-63,80,4
1090,-15,-249,-71,-57,78,4
1095,-16,-250,-69,-54,76,4
1100,-17,-247,-69,-55,76,4
1105,-16,-248,-66,-57,76,4
1110,-18,-247,-66,-62,76,3
1115,-15,-249,-68,-64,75,4
1120,-18,-246,-67,-65,75,2
1125,-16,-248,-72,-67,77,0
1130,-13,-246,-68,-66,79,0
1135,-16,-247,-71,-64,79,-1
1140,-17,-247,-72,-63,79,-1
1145,-18,-246,-69,-62,81,0
1150,-16,-245,-72,-61,81,2
1155,-18,-247,-69,-61,80,3
1160,-16,-244,-71,-61,79,3
1165,-18,-242,-70,-61,81,4
1170,-17,-245,-72,-65,81,4
1175,-16,-247,-73,-67,82,7
1180,-19,-245,-70,-75,83,7
1185,-20,-246,-69,-83,82,8
1190,-19,-246,-69,-90,79,9
1195,-19,-249,-71,-94,76,7
1200,-22,-248,-75,-92,73,7
1205,-19,-249,-73,-84,70,4
1210,-17,-249,-73,-76,69,4
1215,-16,-249,-74,-71,70,2
1220,-16,-244,-78,-69,71,1
1225,-16,-250,-74,-68,75,1
1230,-17,-250,-75,-66,76,1
1235,-18,-249,-71,-63,77,1
1240,-16,-248,-72,-60,77,0
1245,-14,-247,-71,-54,77,0
1250,-14,-248,-72,-49,76,1
1255,-17,-250,-75,-41,75,3
1260,-16,-249,-74,-36,75,5
1265,-18,-246,-75,-35,76,4
1270,-13,-242,-79,-33,77,3
1275,-18,-246,-71,-33,78,2
1280,-17,-247,-74,-33,79,0
1285,-17,-248,-73,-33,77,0
1290,-17,-248,-76,-32,76,1
1295,-16,-248,-73,-31,75,0
1300,-18,-250,-73,-29,73,0
1305,-15,-248,-75,-27,72,-2
1310,-17,-248,-72,-28,75,-1
1315,-12,-248,-71,-29,76,-1
1320,-16,-248,-73,-29,77,-1
1325,-21,-248,-71,-30,78,-2
1330,-11,-248,-75,-30,78,-2
1335,-18,-247,-74,-30,78,0
1340,-18,-248,-70,-29,76,-1
1345,-18,-248,-77,-27,75,0
1350,-17,-248,-74,-26,74,2
1355,-18,-248,-72,-24,73,1
1360,-15,-248,-72,-19,75,-1
1365,-16,-250,-77,-16,77,-1
1370,-19,-247,-73,-13,76,1
1375,-18,-246,-73,-12,76,0
1380,-17,-246,-73,-11,77,1
1385,-16,-248,-73,-11,76,1
1390,-17,-249,-71,-13,76,2
1395,-16,-246,-71,-16,76,1
1400,-15,-249,-73,-18,75,2
1405,-19,-246,-74,-20,73,1
1410,-16,-248,-75,-19,72,1
1415,-15,-246,-76,-17,70,2
1420,-18,-249,-77,-18,70,1
1425,-18,-244,-69,-18,70,1
1430,-16,-247,-72,-18,70,-1
1435,-16,-248,-67,-18,68,1
1440,-15,-247,-76,-20,68,1
1445,-18,-246,-74,-22,69,-1
1450,-21,-245,-72,-22,69,-1
1455,-18,-245,-71,-21,69,-1
1460,-17,-247,-69,-20,70,-3
1465,-17,-247,-74,-19,69,-2
1470,-15,-248,-70,-19,68,-1
1475,-17,-247,-69,-18,68,-1
1480,-14,-250,-75,-20,69,-2
1485,-19,-248,-70,-19,68,-1
1490,-18,-248,-71,-17,69,-1
1495,-19,-249,-76,-16,68,-3
1500,-20,-249,-72,-15,66,-4
1505,-18,-250,-74,-13,67,-3
1510,-17,-248,-74,-13,66,-2
1515,-18,-248,-71,-14,68,-3
1520,-17,-248,-75,-14,69,-4
1525,-16,-248,-78,-13,68,-4
1530,-15,-251,-76,-11,67,-2
1535,-17,-249,-77,-8,65,-2
1540,-17,-247,-69,-5,66,-1
1545,-17,-251,-76,-3,66,0
1550,-12,-252,-69,-1,66,-1
1555,-17,-251,-77,0,66,0
1560,-13,-250,-72,3,66,0
1565,-14,-249,-73,5,65,1
1570,-17,-249,-73,6,65,1
1575,-17,-248,-72,9,67,0
1580,-17,-247,-73,10,67,-1
1585,-18,-247,-68,9,69,-2
1590,-17,-248,-74,9,70,-2
1595,-16,-248,-71,8,71,-2
1600,-17,-249,-72,5,73,-3
1605,-17,-248,-71,2,74,-5
1610,-17,-248,-69,0,75,-4
1615,-16,-249,-72,1,74,-4
1620,-15,-246,-72,1,74,-4
1625,-18,-250,-70,0,75,-4
1630,-18,-247,-72,3,73,-4
1635,-17,-248,-72,5,73,-4
1640,-17,-244,-73,8,73,-2
1645,-18,-246,-72,11,73,-1
1650,-17,-243,-73,11,72,-2
1655,-17,-244,-66,12,73,-2
1660,-17,-248,-71,12,72,-1
1665,-17,-246,-67,10,71,0
1670,-16,-247,-71,9,73,0
1675,-16,-248,-70,5,73,0
1680,-16,-249,-69,5,71,1
1685,-18,-248,-68,4,70,-1
1690,-18,-250,-72,5,70,0
1695,-16,-246,-72,7,70,-2
1700,-18,-249,-73,7,69,-1
1705,-19,-249,-73,7,67,-3
1710,-19,-248,-74,7,67,-3
1715,-19,-247,-75,9,67,-3
1720,-18,-248,-71,12,67,-3
1725,-16,-249,-69,16,67,-4
1730,-18,-249,-73,18,66,-3
1735,-19,-249,-73,21,66,-4
1740,-19,-246,-71,22,65,-3
1745,-16,-249,-68,22,68,-3
1750,-17,-247,-73,21,67,-5
1755,-19,-249,-69,21,69,-3
1760,-18,-248,-71,21,67,-1
1765,-16,-248,-73,20,65,-2
1770,-15,-248,-72,19,66,-2
1775,-17,-247,-70,16,65,0
1780,-19,-247,-72,12,65,0
1785,-17,-251,-70,12,64,-2
1790,-17,-250,-67,14,64,-3
1795,-17,-250,-69,16,64,-3
1800,-17,-248,-69,18,62,-3
1805,-18,-248,-75,16,62,-4
1810,-19,-247,-72,12,63,-4
1815,-18,-248,-72,11,64,-4
1820,-17,-248,-73,10,65,-2
1825,-15,-252,-67,9,66,0
1830,-16,-247,-68,12,66,0
1835,-17,-245,-74,15,66,0
1840,-15,-248,-72,20,67,1
1845,-18,-248,-73,24,67,-1
1850,-16,-251,-68,27,66,0
1855,-19,-248,-72,28,65,0
1860,-18,-247,-70,28,64,0
1865,-17,-248,-71,28,66,-1
1870,-18,-248,-67,27,67,-1
1875,-18,-248,-69,26,68,-2
1880,-16,-249,-73,25,68,-2
1885,-18,-249,-75,23,69,-1
1890,-19,-249,-67,23,71,0
1895,-18,-249,-74,26,72,1
1900,-16,-250,-69,27,73,0
1905,-16,-247,-72,28,72,2
1910,-17,-248,-70,30,70,0
1915,-19,-248,-69,31,72,0
1920,-18,-249,-65,28,72,-1
1925,-17,-248,-68,23,71,-2
1930,-16,-249,-69,19,72,-3
1935,-16,-251,-71,17,74,-2
1940,-19,-246,-72,14,74,-4
1945,-16,-249,-66,14,77,-4
1950,-16,-250,-68,15,78,-4
1955,-18,-250,-72,17,79,-3
1960,-16,-248,-72,18,82,-3
1965,-18,-248,-73,17,82,-4
1970,-15,-248,-70,15,81,-4
1975,-19,-245,-74,13,83,-2
1980,-17,-249,-66,12,83,-2
1985,-17,-249,-69,10,84,-2
1990,-15,-249,-70,12,84,0
1995,-17,-247,-68,16,84,-1
2000,-16,-250,-70,20,85,-1
2005,-16,-247,-70,23,85,0
2010,-17,-247,-72,22,87,1
2015,-20,-247,-70,17,87,1
2020,-15,-250,-71,12,88,2
2025,-18,-247,-68,8,88,1
2030,-16,-251,-71,7,87,2
2035,-19,-247,-75,11,87,3
2040,-18,-249,-68,13,86,2
2045,-16,-248,-66,18,84,4
2050,-16,-249,-68,22,83,3
2055,-21,-249,-70,23,80,3
2060,-16,-247,-70,25,81,1
2065,-17,-246,-70,25,83,0
2070,-15,-247,-71,25,83,-1
2075,-15,-246,-70,22,84,-1
2080,-20,-247,-75,19,86,-1
2085,-21,-247,-73,17,87,0
2090,-17,-249,-65,13,88,0
2095,-18,-247,-72,8,88,1
2100,-19,-246,-72,3,87,1
2105,-18,-249,-74,-2,89,1
2110,-20,-248,-74,-9,88,2
2115,-17,-246,-77,-22,89,4
2120,-18,-244,-79,-43,92,6
2125,-16,-245,-85,-71,100,9
2130,-15,-244,-85,-96,111,10
2135,-16,-246,-86,-122,122,11
2140,-15,-246,-94,-151,129,12
2145,-14,-246,-93,-176,135,11
2150,-18,-242,-95,-197,138,8
2155,-20,-245,-97,-220,144,7
2160,-21,-242,-100,-248,149,9
2165,-20,-245,-101,-279,153,14
2170,-25,-244,-100,-311,154,15
2175,-26,-243,-100,-343,152,18
2180,-31,-239,-103,-378,147,25
2185,-35,-245,-108,-413,141,33
2190,-36,-238,-114,-447,138,42
2195,-43,-239,-109,-480,136,55
2200,-40,-243,-116,-505,133,63
2205,-40,-241,-120,-521,123,72
2210,-41,-236,-118,-530,105,80
2215,-44,-230,-126,-537,87,88
2220,-42,-234,-129,-545,72,98
2225,-42,-231,-125,-553,53,107
2230,-43,-229,-125,-567,33,114
2235,-42,-231,-124,-576,15,120
2240,-43,-228,-129,-578,-1,123
2245,-41,-226,-127,-568,-13,123
2250,-43,-223,-128,-551,-24,120
2255,-41,-218,-130,-534,-32,116
2260,-42,-215,-136,-522,-37,117
2265,-38,-212,-138,-517,-40,114
2270,-36,-209,-144,-518,-42,114
2275,-35,-208,-140,-520,-44,116
2280,-32,-209,-138,-516,-46,114
2285,-27,-204,-142,-508,-43,113
2290,-23,-198,-145,-498,-35,113
2295,-21,-193,-145,-488,-21,110
2300,-18,-187,-156,-483,-8,107
2305,-16,-184,-153,-482,9,106
2310,-18,-177,-160,-488,28,107
2315,-11,-171,-161,-498,51,106
2320,-14,-167,-157,-512,74,106
2325,-17,-154,-158,-532,99,103
2330,-16,-146,-163,-562,124,100
2335,-17,-135,-153,-602,145,95
2340,-10,-127,-147,-654,164,91
2345,-13,-119,-141,-715,182,90
2350,-15,-110,-134,-780,202,85
2355,-12,-102,-128,-850,226,80
2360,-14,-93,-119,-923,254,73
2365,-19,-86,-111,-984,282,65
2370,-17,-81,-104,-1061,310,56
2375,-19,-76,-95,-1138,336,49
2380,-22,-70,-85,-1205,355,43
2385,-22,-65,-77,-1266,372,40
2390,-17,-66,-63,-1320,392,43
2395,-16,-59,-52,-1361,413,50
2400,-11,-58,-45,-1395,435,62
2405,-4,-57,-31,-1417,452,80
2410,1,-56,-22,-1427,468,99
2415,6,-59,-8,-1425,477,122
2420,14,-63,1,-1407,482,151
2425,13,-70,10,-1373,488,178
2430,14,-74,14,-1326,482,213
2435,12,-83,20,-1273,460,248
2440,9,-80,22,-1204,427,285
2445,6,-85,7,-1127,384,319
2450,1,-77,-17,-1064,333,339
2455,-7,-67,-39,-1029,276,355
2460,-16,-58,-66,-1030,221,365
2465,-25,-51,-93,-1073,154,378
2470,-27,-50,-120,-1163,82,394
2475,-30,-50,-137,-1283,4,408
2480,-31,-55,-150,-1397,-65,414
2485,-36,-56,-156,-1500,-107,416
2490,-37,-72,-148,-1572,-123,405
2495,-39,-74,-143,-1594,-110,389
2500,-35,-79,-125,-1590,-72,358
2505,-30,-84,-116,-1556,-26,319
2510,-24,-90,-101,-1507,22,285
2515,-24,-99,-87,-1465,72,259
2520,-14,-111,-83,-1420,129,240
2525,-16,-129,-69,-1372,185,221
2530,-17,-145,-57,-1315,232,197
2535,-24,-164,-52,-1251,272,163
2540,-28,-184,-55,-1182,303,140
2545,-36,-199,-58,-1127,312,119
2550,-42,-213,-60,-1087,293,103
2555,-36,-229,-72,-1056,252,110
2560,-33,-235,-99,-1028,209,123
2565,-35,-239,-119,-1047,190,113
2570,-27,-240,-146,-1080,177,106
2575,-16,-277,-156,-1126,158,92
2580,-25,-258,-166,-1090,144,45
2585,-31,-250,-175,-1008,117,11
2590,-36,-245,-179,-947,82,5
2595,-32,-245,-182,-906,47,26
2600,-28,-248,-169,-891,22,48
2605,-15,-265,-170,-860,28,57
2610,-31,-276,-161,-819,72,48
2615,-44,-287,-163,-795,100,48
2620,-41,-295,-169,-787,84,59
2625,-32,-301,-177,-779,61,85
2630,-39,-301,-188,-776,42,102
2635,-34,-297,-195,-774,26,110
2640,-35,-283,-201,-769,17,109
2645,-34,-265,-208,-774,14,105
2650,-31,-249,-202,-792,21,99
2655,-31,-238,-204,-815,38,99
2660,-21,-227,-202,-838,58,105
2665,-14,-216,-201,-853,80,121
2670,-8,-209,-196,-863,102,132
2675,-4,-210,-192,-874,124,146
2680,0,-207,-192,-872,149,167
2685,0,-214,-190,-859,174,187
2690,-1,-213,-193,-837,181,197
2695,3,-223,-190,-802,178,207
2700,2,-222,-193,-761,176,207
2705,-6,-223,-197,-732,181,197
2710,-9,-222,-207,-713,200,186
2715,-17,-215,-218,-709,218,177
2720,-20,-213,-221,-721,231,163
2725,-31,-207,-232,-745,242,146
2730,-34,-205,-234,-773,253,134
2735,-38,-212,-235,-799,254,136
2740,-40,-212,-238,-814,230,133
2745,-39,-217,-240,-830,204,124
2750,-35,-222,-250,-810,189,129
2755,-35,-226,-254,-771,177,125
2760,-33,-228,-257,-725,182,120
2765,-29,-230,-258,-684,187,117
2770,-31,-231,-256,-644,199,117
2775,-29,-223,-255,-600,204,112
2780,-34,-218,-259,-544,211,109
2785,-38,-209,-257,-489,213,97
2790,-38,-205,-263,-447,215,90
2795,-47,-197,-264,-421,215,81
2800,-46,-197,-267,-405,213,74
2805,-47,-197,-262,-372,211,78
2810,-44,-191,-263,-339,205,87
2815,-42,-183,-270,-330,197,99
2820,-39,-179,-270,-345,183,119
2825,-37,-173,-274,-375,157,134
2830,-34,-171,-281,-420,132,142
2835,-34,-170,-277,-468,103,138
2840,-32,-169,-279,-505,81,130
2845,-26,-175,-283,-533,63,123
2850,-25,-176,-283,-553,45,118
2855,-30,-179,-285,-554,38,120
2860,-35,-183,-286,-524,34,121
2865,-42,-190,-277,-477,39,121
2870,-44,-192,-276,-410,42,118
2875,-46,-194,-275,-346,51,116
2880,-46,-194,-270,-285,57,114
2885,-49,-189,-266,-228,61,109
2890,-51,-187,-254,-181,63,109
2895,-52,-182,-251,-153,59,106
2900,-53,-171,-241,-144,44,97
2905,-50,-178,-242,-144,23,92
2910,-41,-181,-244,-142,1,88
2915,-36,-180,-244,-128,-18,86
2920,-32,-177,-247,-104,-28,87
2925,-24,-179,-255,-74,-31,83
2930,-23,-174,-255,-37,-27,81
2935,-20,-168,-256,-3,-11,79
2940,-26,-160,-254,21,6,79
2945,-34,-158,-249,31,26,78
2950,-42,-157,-244,29,46,72
2955,-43,-161,-244,19,64,69
2960,-49,-165,-239,14,78,65
2965,-55,-169,-243,18,85,64
2970,-55,-172,-241,32,84,66
2975,-49,-181,-239,56,79,70
2980,-49,-180,-240,85,67,73
2985,-47,-178,-245,118,56,73
2990,-45,-173,-233,151,49,71
2995,-44,-172,-234,189,46,65
3000,-41,-172,-226,225,49,55
3005,-38,-171,-223,254,56,45
3010,-39,-171,-220,278,64,33
3015,-35,-172,-212,301,69,25
3020,-36,-175,-212,323,69,22
3025,-28,-175,-212,342,66,25
3030,-26,-174,-215,358,66,26
3035,-28,-174,-211,371,65,27
3040,-28,-174,-211,383,71,21
3045,-31,-173,-208,392,80,14
3050,-35,-168,-205,401,90,2
3055,-36,-166,-204,409,97,-8
3060,-40,-165,-198,414,96,-15
3065,-39,-165,-202,415,86,-17
3070,-33,-166,-206,417,67,-14
3075,-34,-171,-204,420,42,-11
3080,-30,-171,-205,428,13,-7
3085,-30,-172,-212,441,-15,-7
3090,-33,-170,-203,454,-37,-13
3095,-29,-167,-203,469,-49,-26
3100,-39,-168,-203,479,-52,-41
3105,-38,-166,-206,485,-49,-56
3110,-35,-168,-207,494,-42,-69
3115,-37,-161,-196,499,-36,-81
3120,-36,-159,-199,498,-34,-86
3125,-33,-159,-201,496,-41,-89
3130,-29,-166,-200,493,-53,-83
3135,-29,-166,-198,490,-68,-77
3140,-30,-170,-202,488,-82,-69
3145,-28,-172,-196,487,-93,-69
3150,-34,-172,-196,485,-102,-72
3155,-36,-172,-197,480,-108,-80
3160,-36,-172,-202,474,-110,-88
3165,-39,-176,-200,467,-110,-97
3170,-33,-172,-196,463,-106,-105
3175,-34,-175,-208,464,-100,-115
3180,-39,-176,-205,466,-95,-121
3185,-42,-181,-204,475,-92,-124
3190,-39,-181,-206,493,-89,-127
3195,-42,-180,-206,514,-86,-130
3200,-38,-181,-206,538,-83,-130
3205,-34,-186,-191,554,-79,-131
3210,-30,-182,-200,564,-78,-128
3215,-36,-181,-197,573,-75,-125
3220,-34,-182,-199,582,-71,-125
3225,-34,-186,-195,594,-69,-129
3230,-38,-183,-192,604,-67,-132
3235,-39,-183,-196,611,-67,-135
3240,-40,-185,-194,617,-67,-139
3245,-43,-185,-193,620,-69,-144
3250,-43,-186,-193,626,-68,-147
3255,-44,-186,-197,634,-69,-148
3260,-44,-187,-194,646,-70,-148
3265,-42,-186,-198,654,-72,-147
3270,-39,-187,-196,661,-73,-146
3275,-36,-187,-198,667,-73,-146
3280,-38,-188,-196,670,-76,-144
3285,-36,-187,-194,671,-78,-144
3290,-37,-186,-191,672,-80,-144
3295,-39,-189,-184,675,-78,-145
3300,-39,-189,-185,676,-74,-151
3305,-42,-187,-183,673,-71,-155
3310,-39,-189,-183,667,-68,-162
3315,-38,-187,-180,659,-65,-166
3320,-40,-187,-181,650,-63,-168
3325,-42,-187,-183,644,-66,-170
3330,-39,-188,-183,635,-70,-172
3335,-38,-192,-180,628,-71,-174
3340,-41,-190,-186,619,-70,-177
3345,-40,-190,-186,612,-70,-178
3350,-42,-193,-185,611,-66,-180
3355,-44,-191,-178,617,-62,-181
3360,-41,-195,-178,626,-56,-182
3365,-41,-191,-173,640,-52,-184
3370,-41,-196,-173,657,-49,-185
3375,-39,-199,-170,672,-48,-188
3380,-38,-196,-169,684,-42,-188
3385,-35,-191,-167,692,-39,-189
3390,-37,-189,-173,697,-36,-186
3395,-36,-190,-164,701,-32,-184
3400,-34,-186,-166,703,-28,-180
3405,-36,-189,-165,703,-22,-179
3410,-44,-185,-165,704,-17,-179
3415,-38,-187,-162,707,-14,-181
3420,-39,-190,-160,714,-11,-182
3425,-39,-185,-154,726,-13,-181
3430,-37,-188,-150,744,-13,-182
3435,-34,-185,-151,765,-9,-185
3440,-32,-182,-148,786,-6,-188
3445,-28,-184,-142,802,-3,-191
3450,-27,-179,-137,810,-3,-187
3455,-24,-181,-134,815,-3,-181
3460,-28,-181,-132,822,4,-178
3465,-21,-186,-134,832,16,-177
3470,-18,-191,-125,847,37,-183
3475,-25,-196,-119,870,67,-191
3480,-29,-201,-123,910,92,-193
3485,-28,-211,-122,969,112,-189
3490,-36,-222,-125,1039,126,-189
3495,-41,-233,-130,1108,128,-191
3500,-48,-247,-135,1167,118,-194
3505,-53,-263,-145,1214,97,-190
3510,-59,-276,-154,1248,71,-183
3515,-64,-292,-162,1258,47,-175
3520,-63,-308,-173,1238,29,-166
3525,-64,-326,-184,1195,17,-158
3530,-64,-349,-195,1133,11,-152
3535,-63,-363,-209,1055,9,-145
3540,-58,-368,-215,968,15,-144
3545,-56,-375,-228,884,27,-155
3550,-48,-360,-233,811,49,-173
3555,-40,-338,-225,761,75,-195
3560,-34,-313,-214,740,102,-218
3565,-32,-288,-199,750,129,-230
3570,-33,-268,-174,787,155,-233
3575,-33,-242,-157,837,182,-235
3580,-34,-218,-140,882,209,-236
3585,-34,-195,-127,908,228,-234
3590,-31,-180,-113,908,234,-227
3595,-28,-162,-111,877,228,-215
3600,-27,-152,-103,824,216,-201
3605,-26,-140,-95,755,197,-184
3610,-25,-136,-95,682,171,-167
3615,-25,-133,-97,607,142,-147
3620,-21,-140,-95,539,115,-127
3625,-19,-148,-96,482,93,-107
3630,-17,-161,-94,440,77,-91
3635,-16,-175,-98,414,69,-81
3640,-16,-187,-90,396,64,-79
3645,-17,-203,-89,385,68,-81
3650,-13,-219,-86,379,73,-83
3655,-12,-234,-84,374,78,-89
3660,-12,-246,-79,374,82,-94
3665,-10,-255,-80,377,81,-99
3670,-8,-264,-74,382,76,-109
3675,-6,-273,-77,391,68,-117
3680,-8,-276,-78,401,56,-125
3685,-8,-272,-78,412,41,-133
3690,-13,-271,-79,427,27,-143
3695,-10,-272,-84,446,14,-150
3700,-11,-270,-87,469,6,-160
3705,-14,-264,-85,501,1,-168
3710,-17,-261,-78,536,-1,-176
3715,-14,-252,-85,571,2,-180
3720,-14,-249,-84,601,5,-180
3725,-11,-247,-83,621,14,-175
3730,-6,-241,-83,634,26,-169
3735,-4,-237,-80,637,38,-160
3740,-3,-235,-80,629,48,-154
3745,-6,-229,-84,606,58,-147
3750,-5,-229,-86,576,68,-143
3755,-7,-226,-87,541,76,-142
3760,-7,-226,-86,506,85,-140
3765,-10,-225,-86,471,93,-142
3770,-9,-228,-82,437,103,-149
3775,-10,-231,-82,405,113,-154
3780,-12,-236,-81,375,124,-153
3785,-17,-235,-82,348,133,-143
3790,-16,-240,-81,328,133,-122
3795,-22,-238,-81,315,126,-96
3800,-27,-242,-80,310,111,-68
3805,-27,-246,-79,307,89,-41
3810,-32,-247,-79,309,70,-18
3815,-29,-251,-74,320,51,1
3820,-21,-249,-74,337,34,9
3825,-26,-250,-79,360,21,5
3830,-23,-248,-81,382,15,-9
3835,-24,-247,-84,401,18,-29
3840,-24,-244,-84,409,31,-48
3845,-20,-244,-86,413,51,-62
3850,-25,-246,-93,412,72,-67
3855,-23,-248,-91,408,89,-66
3860,-27,-246,-91,402,100,-58
3865,-24,-246,-93,396,106,-46
3870,-25,-244,-96,384,107,-33
3875,-20,-243,-94,368,102,-18
3880,-17,-241,-94,343,99,-5
3885,-16,-235,-90,309,91,6
3890,-12,-230,-86,272,85,16
3895,-10,-232,-84,235,76,24
3900,-9,-229,-81,203,69,30
3905,-8,-227,-78,172,62,35
3910,-8,-230,-76,139,57,42
3915,-7,-231,-76,106,53,48
3920,-10,-234,-73,73,55,51
3925,-11,-238,-71,42,58,52
3930,-13,-237,-73,17,63,49
3935,-14,-242,-68,-1,66,44
3940,-15,-244,-66,-12,69,42
3945,-14,-246,-67,-17,68,38
3950,-15,-248,-66,-14,63,35
3955,-13,-250,-63,-10,56,34
3960,-13,-249,-64,-7,50,36
3965,-11,-249,-65,-5,43,42
3970,-13,-250,-68,-4,37,46
3975,-14,-250,-63,-5,30,51
3980,-14,-256,-69,-7,22,55
3985,-16,-251,-68,-10,11,58
3990,-17,-253,-72,-11,5,59
3995,-13,-255,-70,-14,-1,61
4000,-16,-248,-72,-16,-4,60
4005,-15,-249,-73,-17,-4,58
4010,-11,-249,-73,-21,-3,54
4015,-15,-248,-74,-29,-2,48
4020,-12,-247,-76,-41,2,43
4025,-15,-244,-78,-55,7,40
4030,-13,-247,-82,-69,13,40
4035,-13,-247,-79,-79,17,40
4040,-12,-251,-79,-88,24,40
4045,-14,-249,-81,-93,28,42
4050,-16,-246,-83,-99,33,39
4055,-20,-245,-86,-110,36,37
4060,-21,-243,-83,-123,40,36
4065,-22,-242,-85,-134,40,36
4070,-27,-242,-87,-146,42,35
4075,-31,-240,-88,-155,38,37
4080,-33,-239,-85,-164,34,41
4085,-32,-240,-85,-171,30,45
4090,-28,-240,-88,-172,23,49
4095,-30,-240,-86,-171,15,52
4100,-28,-241,-86,-163,7,53
4105,-33,-242,-83,-154,-1,53
4110,-26,-244,-84,-143,-9,50
4115,-30,-240,-84,-132,-12,47
4120,-24,-242,-84,-122,-15,44
4125,-25,-243,-84,-113,-14,41
4130,-19,-243,-83,-103,-11,38
4135,-24,-241,-84,-97,-5,32
4140,-23,-241,-84,-90,1,32
4145,-19,-243,-84,-85,12,27
4150,-18,-245,-84,-80,25,23
4155,-16,-245,-81,-75,40,15
4160,-18,-243,-80,-66,56,10
4165,-16,-245,-79,-60,73,3
4170,-17,-244,-77,-59,88,2
4175,-16,-245,-81,-62,103,2
4180,-17,-246,-82,-61,117,0
4185,-16,-248,-77,-60,133,-3
4190,-20,-248,-82,-52,147,-7
4195,-21,-245,-80,-39,164,-9
4200,-22,-247,-80,-20,179,-15
4205,-23,-244,-78,-3,197,-23
4210,-22,-246,-78,8,215,-29
4215,-25,-246,-77,19,238,-34
4220,-25,-246,-76,24,259,-38
4225,-25,-245,-75,34,276,-41
4230,-26,-245,-73,43,295,-42
4235,-27,-248,-72,54,312,-43
4240,-36,-244,-71,62,324,-41
4245,-36,-248,-72,70,329,-40
4250,-38,-251,-74,76,329,-36
4255,-36,-252,-66,84,326,-25
4260,-37,-253,-75,93,312,-13
4265,-40,-250,-75,101,294,0
4270,-36,-252,-76,109,269,14
4275,-35,-253,-76,116,242,27
4280,-31,-249,-78,119,215,37
4285,-27,-255,-82,119,189,46
4290,-23,-250,-83,117,167,50
4295,-24,-250,-85,113,151,50
4300,-20,-249,-87,110,141,47
4305,-18,-250,-86,106,138,36
4310,-16,-244,-88,99,139,23
4315,-16,-246,-93,94,146,5
4320,-17,-244,-88,86,157,-9
4325,-17,-237,-92,75,168,-22
4330,-20,-239,-92,63,177,-36
4335,-18,-234,-89,50,185,-45
4340,-20,-235,-89,38,188,-53
4345,-21,-237,-89,26,187,-55
4350,-22,-239,-91,18,183,-56
4355,-22,-240,-90,14,177,-55
4360,-17,-243,-92,14,169,-54
4365,-20,-247,-94,17,159,-51
4370,-18,-246,-89,19,149,-45
4375,-16,-246,-91,14,139,-40
4380,-17,-243,-91,10,132,-35
4385,-17,-243,-94,5,124,-28
4390,-17,-241,-86,1,117,-26
4395,-17,-244,-85,0,113,-24
4400,-17,-241,-89,-2,106,-27
4405,-16,-243,-86,-5,103,-29
4410,-17,-242,-87,-10,99,-31
4415,-17,-243,-87,-16,99,-34
4420,-16,-241,-85,-20,98,-37
4425,-20,-242,-87,-22,98,-40
4430,-22,-241,-85,-24,100,-45
4435,-20,-243,-84,-24,97,-49
4440,-23,-243,-79,-27,96,-51
4445,-23,-242,-81,-32,92,-53
4450,-22,-239,-80,-38,88,-52
4455,-23,-240,-78,-45,82,-53
4460,-23,-241,-81,-52,75,-49
4465,-22,-242,-82,-58,68,-48
4470,-24,-245,-81,-57,59,-47
4475,-23,-248,-84,-49,52,-46
4480,-19,-247,-83,-38,42,-45
4485,-22,-247,-81,-24,35,-46
4490,-18,-248,-80,-12,29,-46
4495,-22,-248,-80,2,27,-47
4500,-16,-249,-79,21,26,-51
4505,-15,-252,-85,37,28,-55
4510,-17,-253,-83,57,28,-59
4515,-19,-248,-79,73,29,-64
4520,-14,-250,-81,86,28,-65
4525,-15,-247,-84,94,27,-66
4530,-15,-247,-82,94,27,-65
4535,-19,-248,-81,90,25,-65
4540,-17,-248,-83,85,25,-63
4545,-17,-247,-84,78,22,-62
4550,-20,-245,-80,71,21,-63
4555,-19,-244,-79,62,20,-63
4560,-21,-244,-83,51,21,-63
4565,-15,-243,-84,39,20,-64
4570,-18,-239,-80,24,20,-64
4575,-16,-241,-82,10,20,-64
4580,-14,-237,-80,-6,18,-63
4585,-13,-237,-72,-22,15,-62
4590,-18,-239,-77,-35,13,-61
4595,-13,-240,-78,-44,12,-56
4600,-15,-242,-78,-49,11,-53
4605,-14,-240,-71,-55,9,-51
4610,-18,-243,-78,-58,6,-48
4615,-16,-244,-75,-60,4,-46
4620,-15,-247,-76,-59,1,-45
4625,-17,-249,-77,-54,0,-45
4630,-13,-249,-77,-45,-3,-44
4635,-14,-249,-74,-36,-6,-44
4640,-13,-247,-77,-30,-6,-44
4645,-17,-246,-78,-25,-4,-45
4650,-12,-247,-78,-21,-6,-45
4655,-15,-248,-77,-21,-4,-45
4660,-15,-247,-78,-24,-3,-44
4665,-17,-245,-79,-30,-2,-44
4670,-16,-246,-81,-35,-2,-46
4675,-16,-245,-82,-38,-2,-45
4680,-14,-245,-79,-42,-1,-44
4685,-15,-247,-81,-50,-2,-38
4690,-15,-244,-80,-58,-3,-35
4695,-13,-236,-84,-67,-7,-30
4700,-12,-242,-75,-78,-9,-24
4705,-18,-238,-80,-89,-11,-19
4710,-12,-241,-81,-100,-16,-17
4715,-12,-241,-80,-113,-18,-15
4720,-9,-242,-78,-124,-21,-13
4725,-14,-243,-81,-130,-19,-13
4730,-10,-247,-81,-128,-18,-16
4735,-11,-251,-77,-120,-14,-20
4740,-13,-249,-84,-110,-7,-22
4745,-10,-253,-85,-95,1,-23
4750,-11,-249,-84,-80,10,-25
4755,-10,-256,-86,-67,17,-27
4760,-9,-255,-89,-50,23,-28
4765,-10,-256,-90,-30,28,-28
4770,-10,-254,-91,-7,33,-29
4775,-10,-250,-86,15,36,-30
4780,-12,-249,-90,35,39,-32
4785,-10,-249,-87,46,41,-33
4790,-11,-247,-88,53,43,-35
4795,-14,-242,-87,56,45,-35
4800,-13,-242,-88,55,46,-34
4805,-14,-239,-85,48,48,-33
4810,-12,-236,-85,38,48,-33
4815,-16,-235,-85,24,48,-30
4820,-15,-236,-84,10,46,-27
4825,-17,-236,-83,-6,46,-23
4830,-16,-237,-83,-20,46,-17
4835,-16,-238,-84,-34,45,-13
4840,-16,-245,-82,-43,44,-8
4845,-14,-244,-82,-45,44,-4
4850,-14,-246,-83,-41,45,-2
4855,-18,-246,-88,-30,46,-2
4860,-14,-247,-86,-20,47,-2
4865,-15,-247,-85,-10,48,-3
4870,-16,-247,-86,0,51,-4
4875,-16,-246,-85,7,53,-6
4880,-14,-245,-85,11,54,-7
4885,-15,-245,-80,13,57,-8
4890,-12,-245,-83,10,58,-7
4895,-14,-242,-83,6,61,-7
4900,-15,-244,-84,0,61,-7
4905,-16,-246,-82,-2,63,-5
4910,-8,-244,-82,-5,64,-6
4915,-14,-242,-83,-8,64,-6
4920,-18,-243,-83,-11,65,-6
4925,-15,-243,-81,-13,65,-6
4930,-16,-244,-83,-14,65,-5
4935,-14,-246,-82,-15,66,-2
4940,-11,-246,-81,-14,66,1
4945,-13,-248,-83,-9,67,3
4950,-14,-246,-83,-4,67,2
4955,-15,-244,-82,1,67,2
4960,-11,-249,-83,4,68,0
4965,-13,-246,-83,6,68,0
4970,-13,-244,-83,7,68,-3
4975,-13,-244,-81,5,69,-4
4980,-15,-241,-79,3,70,-4
4985,-15,-241,-81,-2,68,-3
4990,-13,-243,-81,-8,66,-1
4995,-13,-241,-80,-16,64,1
5000,-16,-242,-81,-23,62,3
5005,-13,-241,-79,-28,61,7
5010,-12,-244,-81,-32,59,7
5015,-13,-243,-78,-35,59,8
5020,-11,-242,-76,-37,59,8
5025,-13,-247,-83,-36,59,9
5030,-14,-246,-83,-33,62,9
5035,-11,-247,-81,-30,66,10
5040,-13,-246,-82,-29,70,11
5045,-18,-244,-86,-31,73,14
5050,-14,-246,-85,-35,76,13
5055,-13,-247,-81,-37,79,16
5060,-16,-247,-84,-37,80,17
5065,-14,-248,-85,-36,83,15
5070,-10,-248,-86,-37,83,16
5075,-13,-247,-81,-34,86,15
5080,-15,-245,-82,-33,85,14
5085,-19,-244,-82,-32,87,14
5090,-22,-243,-84,-33,87,14
5095,-15,-248,-84,-37,87,17
5100,-17,-247,-85,-38,86,19
5105,-16,-248,-86,-36,84,19
5110,-15,-249,-85,-34,82,18
5115,-13,-249,-84,-26,79,17
5120,-14,-249,-83,-18,77,17
5125,-14,-247,-85,-8,76,15
5130,-12,-246,-83,0,74,15
5135,-16,-246,-83,7,76,14
5140,-15,-247,-83,10,75,13
5145,-19,-245,-79,10,75,13
5150,-17,-244,-80,9,75,12
5155,-21,-246,-80,7,75,12
5160,-15,-244,-82,7,75,11
5165,-16,-247,-78,4,76,11
5170,-15,-246,-82,5,76,10
5175,-19,-246,-83,8,77,11
5180,-17,-247,-82,11,78,9
5185,-16,-248,-83,15,79,9
5190,-18,-247,-83,19,77,6
5195,-17,-246,-82,25,78,3
5200,-16,-247,-83,29,78,2
5205,-16,-244,-82,32,78,-1
5210,-18,-247,-83,35,77,-1
5215,-18,-245,-81,37,74,-2
5220,-18,-241,-83,37,73,0
5225,-14,-242,-82,36,70,1
5230,-15,-240,-74,34,69,2
5235,-16,-241,-80,33,67,4
5240,-16,-245,-80,29,65,7
5245,-16,-241,-80,28,62,8
5250,-15,-245,-77,28,63,9
5255,-12,-246,-78,26,61,8
5260,-13,-245,-78,25,61,9
5265,-16,-244,-78,26,60,8
5270,-16,-244,-77,26,59,7
5275,-15,-245,-80,27,57,7
5280,-17,-245,-79,28,57,4
5285,-17,-246,-82,31,57,3
5290,-16,-246,-78,34,58,0
5295,-15,-248,-81,33,61,0
5300,-18,-246,-81,34,61,0
5305,-13,-248,-80,35,62,-1
5310,-17,-246,-76,36,64,-3
5315,-16,-246,-82,36,66,-5
5320,-17,-246,-81,36,67,-5
5325,-15,-246,-82,35,68,-4
5330,-14,-248,-81,32,71,-3
5335,-14,-246,-83,30,70,-1
5340,-17,-247,-78,25,70,0
5345,-16,-248,-74,22,70,0
5350,-19,-246,-82,20,70,2
5355,-17,-246,-83,21,69,2
5360,-15,-248,-83,21,71,2
5365,-16,-245,-83,21,70,2
5370,-16,-247,-83,22,71,2
5375,-17,-244,-83,26,72,0
5380,-15,-245,-81,27,74,0
5385,-16,-245,-81,28,74,0
5390,-20,-245,-79,31,75,-1
5395,-20,-243,-80,29,77,0
5400,-17,-245,-79,24,77,3
5405,-17,-242,-77,21,76,4
5410,-14,-246,-72,17,75,5
5415,-16,-246,-81,16,71,5
5420,-16,-245,-79,12,69,6
5425,-14,-246,-78,12,66,6
5430,-12,-246,-80,9,64,5
5435,-14,-246,-77,7,62,5
5440,-19,-244,-79,6,63,2
5445,-19,-247,-76,6,63,1
5450,-17,-246,-80,6,66,0
5455,-18,-248,-83,8,67,-1
5460,-17,-248,-77,11,67,-4
5465,-15,-246,-83,13,68,-5
5470,-18,-246,-81,17,70,-7
5475,-19,-247,-78,19,71,-6
5480,-17,-249,-79,21,73,-6
5485,-16,-248,-76,22,73,-6
5490,-16,-248,-78,23,74,-4
5495,-16,-247,-79,22,71,-3
5500,-14,-245,-76,19,70,-2
5505,-18,-247,-76,18,69,-1
5510,-19,-247,-79,18,69,1
5515,-18,-245,-79,16,68,0
5520,-18,-247,-80,15,65,2
5525,-18,-245,-81,13,66,2
5530,-13,-246,-77,14,66,1
5535,-17,-246,-76,16,64,2
5540,-15,-245,-77,18,64,-2
5545,-16,-244,-75,20,63,-3
5550,-18,-245,-75,21,65,-7
5555,-17,-245,-77,18,64,-7
5560,-17,-245,-77,16,64,-8
5565,-17,-246,-77,11,67,-9
5570,-17,-245,-80,7,67,-9
5575,-17,-248,-77,5,67,-9
5580,-17,-245,-77,2,67,-10
5585,-17,-248,-79,1,67,-11
5590,-16,-246,-79,1,67,-10
5595,-17,-246,-75,2,67,-10
5600,-14,-246,-79,3,66,-10
5605,-18,-246,-73,4,65,-7
5610,-14,-249,-77,2,67,-7
5615,-17,-247,-78,-1,66,-7
5620,-15,-246,-77,-2,66,-4
5625,-14,-247,-79,-2,65,-6
5630,-16,-246,-76,-1,65,-5
5635,-14,-246,-79,-1,66,-6
5640,-17,-245,-75,0,65,-5
5645,-16,-245,-77,2,63,-6
5650,-17,-247,-75,3,64,-7
5655,-15,-248,-82,3,63,-6
5660,-17,-244,-78,2,63,-6
5665,-16,-248,-76,1,63,-7
5670,-18,-246,-81,0,63,-7
5675,-18,-246,-78,-1,64,-6
5680,-16,-248,-81,-2,65,-7
5685,-15,-244,-77,-3,65,-7
5690,-15,-245,-78,-6,65,-8
5695,-11,-247,-77,-3,65,-9
5700,-13,-247,-79,-1,66,-8
5705,-17,-245,-82,4,66,-9
5710,-16,-246,-81,4,66,-10
5715,-16,-247,-79,3,65,-9
5720,-17,-250,-79,3,66,-6
5725,-17,-246,-77,1,66,-6
5730,-18,-248,-76,0,64,-5
5735,-17,-244,-79,-3,65,-6
5740,-15,-245,-79,-4,64,-5
5745,-17,-246,-77,-6,66,-6
5750,-16,-247,-79,-7,66,-8
5755,-16,-248,-78,-8,67,-9
5760,-17,-248,-78,-9,68,-9
5765,-15,-248,-80,-10,70,-9
5770,-16,-246,-76,-11,70,-10
5775,-15,-245,-76,-10,67,-10
5780,-15,-248,-80,-10,65,-11
5785,-18,-246,-76,-10,65,-11
5790,-15,-248,-76,-10,64,-12
5795,-17,-246,-82,-10,65,-11
5800,-18,-244,-75,-12,63,-8
5805,-17,-247,-78,-13,63,-7
5810,-18,-245,-77,-17,61,-6
5815,-16,-245,-78,-20,59,-5
5820,-15,-245,-77,-20,60,-4
5825,-15,-246,-77,-22,61,-6
5830,-12,-247,-77,-23,60,-6
5835,-15,-250,-77,-22,60,-7
5840,-14,-246,-78,-19,59,-8
5845,-16,-248,-79,-14,59,-11
5850,-16,-247,-80,-10,59,-14
5855,-17,-247,-80,-5,61,-15
5860,-18,-243,-80,-2,62,-16
5865,-15,-243,-81,-4,62,-14
5870,-16,-245,-82,-9,64,-13
5875,-15,-244,-77,-16,64,-10
5880,-17,-241,-77,-25,66,-7
5885,-16,-243,-79,-32,64,-5
5890,-12,-243,-79,-37,64,-5
5895,-15,-244,-80,-42,65,-4
5900,-17,-243,-81,-45,64,-3
5905,-17,-244,-81,-46,65,-3
5910,-16,-246,-76,-44,63,-3
5915,-14,-247,-76,-45,63,-5
5920,-15,-247,-79,-45,64,-5
5925,-16,-246,-81,-46,65,-3
5930,-18,-246,-78,-46,65,-3
5935,-18,-248,-77,-45,65,-2
5940,-18,-246,-79,-43,63,-1
5945,-17,-250,-75,-41,63,-2
5950,-18,-248,-78,-39,64,-1
5955,-19,-247,-77,-37,65,-4
5960,-18,-246,-79,-37,64,-4
5965,-17,-248,-77,-34,65,-5
5970,-16,-250,-82,-33,65,-6
5975,-16,-248,-79,-33,66,-6
5980,-17,-244,-81,-32,66,-6
5985,-13,-245,-81,-34,67,-7
5990,-14,-246,-78,-32,67,-5
5995,-15,-245,-76,-33,68,-5
6000,-17,-245,-84,-35,68,-4
6005,-17,-248,-82,-37,69,-3
6010,-17,-245,-80,-39,70,-2
6015,-17,-244,-79,-42,69,1
6020,-16,-244,-82,-44,70,2
6025,-15,-247,-76,-44,70,0
6030,-13,-247,-80,-43,70,0
6035,-16,-246,-79,-42,70,1
6040,-13,-245,-79,-43,69,-2
6045,-17,-245,-79,-43,69,-1
6050,-15,-245,-77,-41,70,-2
6055,-16,-246,-79,-42,70,-4
6060,-13,-243,-75,-42,71,-5
6065,-14,-246,-76,-46,72,-5
6070,-12,-245,-77,-48,71,-4
6075,-15,-244,-78,-51,70,-3
6080,-16,-242,-78,-58,68,-2
6085,-15,-242,-74,-64,67,-2
6090,-15,-247,-76,-72,64,-1
6095,-18,-244,-79,-78,64,1
6100,-13,-247,-79,-84,62,1
6105,-17,-245,-80,-87,62,1
6110,-17,-249,-81,-90,61,3
6115,-15,-245,-80,-93,61,3
6120,-15,-247,-80,-95,61,5
6125,-16,-245,-78,-92,62,6
6130,-17,-247,-76,-93,64,5
6135,-17,-244,-81,-94,64,5
6140,-17,-242,-81,-95,65,6
6145,-15,-247,-82,-94,67,3
6150,-14,-247,-77,-92,68,1
6155,-18,-248,-82,-86,67,1
6160,-16,-249,-82,-82,66,1
6165,-16,-249,-81,-76,65,2
6170,-15,-247,-83,-68,63,1
6175,-17,-248,-82,-62,61,3
6180,-14,-250,-80,-53,59,2
6185,-13,-248,-81,-46,59,2
6190,-14,-247,-81,-44,60,-1
6195,-14,-243,-81,-44,61,-1
6200,-17,-243,-80,-47,62,-2
6205,-16,-242,-80,-51,63,-3
6210,-15,-241,-81,-58,63,-3
6215,-15,-243,-81,-65,62,-3
6220,-23,-246,-76,-74,61,-5
6225,-16,-241,-79,-78,63,-5
6230,-17,-245,-82,-82,63,-4
6235,-17,-241,-84,-88,62,-4
6240,-15,-242,-78,-93,62,-3
6245,-15,-243,-84,-97,63,-2
6250,-15,-244,-83,-98,60,1
6255,-15,-243,-84,-99,61,2
6260,-15,-243,-80,-101,62,3
6265,-15,-240,-82,-104,64,5
6270,-19,-242,-83,-106,64,6
6275,-17,-242,-81,-109,65,8
6280,-17,-245,-79,-110,66,9
6285,-17,-243,-84,-110,67,9
6290,-18,-245,-83,-110,66,9
6295,-16,-246,-84,-111,66,10
6300,-18,-248,-84,-111,67,10
6305,-18,-247,-82,-107,66,11
6310,-19,-248,-84,-101,65,11
6315,-17,-248,-82,-93,66,12
6320,-18,-248,-86,-84,64,12
6325,-16,-250,-85,-74,61,11
6330,-18,-248,-85,-65,59,8
6335,-18,-249,-88,-55,59,6
6340,-14,-251,-85,-47,58,4
6345,-16,-247,-89,-40,58,1
6350,-14,-248,-86,-35,61,0
6355,-15,-244,-86,-29,63,-2
6360,-16,-246,-84,-23,68,-1
6365,-16,-246,-84,-19,70,-1
6370,-17,-242,-85,-18,72,-3
6375,-17,-239,-83,-19,74,-4
6380,-18,-242,-84,-22,74,-3
6385,-18,-240,-83,-26,73,-1
6390,-18,-241,-84,-32,74,0
6395,-16,-241,-84,-42,73,2
6400,-20,-243,-85,-49,72,4
6405,-18,-241,-84,-55,70,4
6410,-16,-242,-85,-61,70,4
6415,-17,-244,-84,-66,70,4
6420,-15,-242,-85,-68,70,4
6425,-15,-241,-82,-68,71,3
6430,-11,-244,-84,-68,72,2
6435,-18,-247,-84,-67,72,2
6440,-15,-248,-83,-61,72,0
6445,-14,-248,-84,-51,72,-2
6450,-19,-248,-83,-40,72,-3
6455,-17,-248,-83,-32,73,-6
6460,-17,-249,-85,-21,73,-8
6465,-18,-248,-83,-14,73,-11
6470,-16,-248,-86,-7,74,-11
6475,-15,-249,-85,-3,73,-14
6480,-15,-249,-85,0,72,-15
6485,-16,-248,-86,2,70,-16
6490,-16,-247,-87,6,68,-15
6495,-18,-248,-84,9,67,-15
6500,-17,-247,-86,12,66,-15
6505,-17,-247,-87,15,66,-14
6510,-15,-245,-87,16,65,-14
6515,-18,-243,-85,15,66,-15
6520,-19,-242,-88,14,66,-14
6525,-16,-243,-86,11,67,-14
6530,-18,-238,-85,5,67,-13
6535,-19,-241,-81,-1,66,-13
6540,-15,-240,-83,-9,67,-11
6545,-18,-240,-84,-14,67,-11
6550,-14,-243,-80,-19,67,-10
6555,-18,-242,-82,-22,67,-12
6560,-17,-242,-81,-26,68,-11
6565,-18,-241,-82,-28,68,-13
6570,-17,-242,-80,-29,68,-11
6575,-15,-243,-84,-30,69,-11
6580,-18,-243,-85,-30,67,-12
6585,-13,-246,-80,-31,68,-13
6590,-17,-243,-81,-32,69,-14
6595,-13,-245,-83,-33,70,-12
6600,-15,-246,-83,-34,69,-11
6605,-13,-246,-82,-34,68,-9
6610,-15,-245,-84,-33,70,-7
6615,-13,-250,-85,-32,69,-6
6620,-13,-245,-84,-29,69,-6
6625,-16,-245,-85,-26,68,-5
6630,-15,-247,-85,-21,68,-6
6635,-17,-246,-90,-19,66,-6
6640,-15,-245,-88,-17,65,-6
6645,-16,-247,-89,-15,65,-9
6650,-15,-243,-85,-14,66,-9
6655,-13,-243,-88,-10,66,-10
6660,-16,-243,-86,-7,66,-12
6665,-16,-244,-89,-6,65,-12
6670,-16,-244,-86,-6,66,-12
6675,-16,-244,-87,-8,65,-12
6680,-14,-244,-90,-10,65,-10
6685,-15,-242,-86,-14,66,-9
6690,-16,-242,-86,-20,66,-6
6695,-16,-240,-87,-24,67,-5
6700,-18,-240,-88,-29,67,-4
6705,-15,-241,-85,-32,67,-2
6710,-14,-240,-87,-35,68,-1
6715,-13,-246,-88,-36,68,1
6720,-17,-241,-85,-37,68,0
6725,-17,-244,-84,-36,69,0
6730,-15,-245,-90,-32,71,0
6735,-18,-247,-86,-30,71,0
6740,-16,-245,-86,-28,73,0
6745,-16,-247,-88,-27,72,-1
6750,-15,-246,-87,-26,73,0
6755,-16,-246,-85,-25,72,1
6760,-18,-245,-85,-25,72,2
6765,-17,-246,-83,-21,71,1
6770,-16,-246,-87,-19,71,2
6775,-17,-246,-86,-18,73,1
6780,-17,-246,-88,-16,73,0
6785,-17,-248,-84,-15,73,0
6790,-14,-244,-86,-14,73,-2
6795,-15,-244,-86,-14,75,-3
6800,-16,-242,-83,-15,74,-2
6805,-15,-240,-86,-15,74,-2
6810,-16,-244,-83,-17,73,-4
6815,-17,-242,-84,-18,73,-4
6820,-17,-243,-85,-21,73,-5
6825,-14,-243,-84,-20,72,-6
6830,-14,-246,-88,-18,72,-6
6835,-15,-245,-83,-19,73,-5
6840,-17,-242,-83,-16,73,-6
6845,-18,-243,-85,-14,73,-4
6850,-17,-245,-85,-12,75,-4
6855,-14,-243,-83,-9,75,-3
6860,-17,-244,-81,-10,74,-3
6865,-17,-242,-85,-8,74,-3
6870,-11,-237,-73,-9,75,-4
6875,-17,-245,-83,-9,75,-5
6880,-16,-244,-84,-11,76,-7
6885,-18,-244,-83,-13,74,-7
6890,-19,-245,-83,-13,76,-7
6895,-14,-247,-85,-14,75,-8
6900,-18,-248,-86,-15,74,-8
6905,-20,-244,-85,-14,75,-7
6910,-17,-243,-86,-14,73,-7
6915,-17,-246,-87,-13,73,-5
6920,-18,-245,-84,-12,69,-3
6925,-15,-244,-89,-12,67,-2
6930,-12,-244,-87,-12,67,0
6935,-16,-243,-85,-12,68,0
6940,-16,-243,-86,-13,68,-1
6945,-15,-243,-85,-13,68,-1
6950,-18,-245,-88,-11,68,-1
6955,-12,-245,-87,-9,68,-1
6960,-13,-246,-85,-7,70,0
6965,-16,-244,-88,-2,70,0
6970,-13,-247,-86,1,71,-2
6975,-13,-245,-87,2,73,-3
6980,-18,-243,-89,4,73,-5
6985,-15,-243,-89,2,75,-6
6990,-15,-243,-88,-1,75,-7
6995,-15,-242,-88,-5,75,-6
7000,-15,-246,-87,-9,77,-5
7005,-20,-245,-91,-14,79,-6
7010,-16,-243,-93,-16,79,-6
7015,-17,-243,-94,-24,81,-3
7020,-17,-247,-97,-38,83,0
7025,-18,-245,-95,-59,89,2
7030,-15,-242,-101,-89,95,5
7035,-20,-247,-100,-130,103,8
7040,-21,-247,-104,-181,113,16
7045,-23,-250,-108,-241,131,27
7050,-24,-253,-113,-308,154,41
7055,-23,-253,-118,-382,177,61
7060,-25,-259,-122,-443,200,82
7065,-27,-259,-124,-486,218,108
7070,-26,-258,-123,-521,230,139
7075,-26,-253,-129,-551,241,175
7080,-23,-249,-130,-571,247,202
7085,-20,-241,-126,-567,247,222
7090,-22,-232,-125,-542,241,229
7095,-20,-220,-116,-509,232,227
7100,-19,-206,-111,-457,216,212
7105,-18,-195,-105,-402,194,187
7110,-19,-188,-109,-358,174,157
7115,-18,-193,-111,-330,156,135
7120,-18,-198,-121,-312,149,116
7125,-15,-207,-119,-293,149,102
7130,-20,-215,-114,-276,151,91
7135,-18,-222,-106,-255,144,80
7140,-23,-227,-104,-226,132,69
7145,-20,-227,-98,-193,120,58
7150,-22,-224,-99,-165,104,50
7155,-23,-226,-91,-155,91,46
7160,-23,-226,-92,-169,76,42
7165,-21,-229,-90,-200,58,40
7170,-21,-234,-84,-236,43,44
7175,-17,-241,-81,-268,29,49
7180,-17,-245,-75,-296,16,57
7185,-9,-252,-70,-313,8,63
7190,-10,-255,-67,-321,-2,62
7195,-9,-260,-59,-321,-12,61
7200,-11,-260,-56,-315,-13,59
7205,-10,-259,-52,-312,-10,53
7210,-10,-259,-51,-309,-6,49
7215,-12,-257,-41,-311,0,44
7220,-14,-253,-36,-319,9,44
7225,-11,-252,-30,-336,16,46
7230,-12,-249,-23,-363,26,49
7235,-12,-246,-25,-391,28,55
7240,-17,-242,-27,-420,24,60
7245,-17,-241,-23,-445,14,67
7250,-17,-247,-19,-473,-3,72
7255,-15,-248,-18,-513,-23,77
7260,-12,-250,-13,-559,-46,76
7265,-16,-254,-4,-603,-69,68
7270,-16,-257,1,-643,-94,60
7275,-18,-267,-1,-684,-124,51
7280,-17,-274,-12,-733,-163,49
7285,-21,-286,-26,-797,-212,56
7290,-18,-295,-47,-874,-262,71
7295,-24,-313,-67,-964,-314,90
7300,-22,-326,-88,-1050,-368,108
7305,-23,-338,-108,-1115,-434,115
7310,-30,-337,-134,-1144,-503,108
7315,-45,-328,-148,-1134,-569,88
7320,-50,-312,-163,-1102,-620,65
7325,-55,-288,-163,-1069,-644,46
7330,-49,-269,-165,-1050,-634,38
7335,-33,-249,-166,-1049,-585,38
7340,-20,-233,-165,-1080,-522,46
7345,-14,-226,-163,-1143,-475,59
7350,-9,-233,-170,-1225,-443,73
7355,-8,-246,-176,-1318,-423,82
7360,-9,-274,-183,-1406,-395,85
7365,-21,-297,-192,-1462,-347,80
7370,-29,-312,-203,-1473,-277,78
7375,-46,-321,-216,-1444,-202,79
7380,-68,-317,-221,-1392,-145,85
7385,-88,-308,-224,-1349,-121,104
7390,-96,-308,-224,-1337,-126,123
7395,-89,-312,-226,-1365,-149,134
7400,-81,-321,-222,-1412,-178,130
7405,-70,-327,-219,-1451,-204,115
7410,-61,-331,-219,-1461,-218,97
7415,-59,-338,-221,-1435,-225,79
7420,-57,-339,-220,-1380,-216,65
7425,-52,-339,-219,-1310,-190,53
7430,-43,-334,-220,-1234,-160,37
7435,-40,-322,-216,-1156,-129,19
7440,-36,-311,-213,-1084,-101,7
7445,-37,-299,-204,-1028,-75,5
7450,-37,-281,-209,-987,-49,6
7455,-40,-269,-210,-963,-27,11
7460,-44,-263,-214,-952,-5,13
7465,-48,-263,-217,-946,15,13
7470,-51,-259,-221,-933,34,9
7475,-46,-256,-227,-910,43,0
7480,-48,-248,-229,-878,55,-16
7485,-47,-243,-230,-843,66,-33
7490,-49,-237,-229,-804,76,-47
7495,-54,-229,-230,-766,84,-61
7500,-48,-226,-234,-736,87,-73
7505,-49,-223,-233,-704,85,-78
7510,-49,-224,-228,-670,83,-86
7515,-43,-224,-221,-636,77,-89
7520,-42,-221,-226,-606,86,-89
7525,-44,-222,-219,-579,102,-89
7530,-35,-224,-221,-548,119,-86
7535,-36,-225,-223,-502,157,-87
7540,-36,-227,-222,-443,195,-90
7545,-46,-225,-219,-357,227,-75
7550,-23,-223,-226,-253,259,-45
7555,-35,-221,-221,-163,313,-46
7560,-34,-218,-212,-80,352,-37
7565,-47,-220,-206,-1,368,-18
7570,-28,-216,-214,73,353,13
7575,-37,-217,-209,135,359,11
7580,-37,-214,-207,188,353,9
7585,-39,-211,-201,233,356,0
7590,-32,-212,-205,278,361,-1
7595,-46,-211,-194,327,375,2
7600,-35,-211,-198,386,366,14
7605,-31,-209,-197,439,355,10
7610,-35,-209,-189,486,357,2
7615,-38,-212,-184,536,349,-1
7620,-35,-216,-169,579,338,-6
7625,-28,-209,-175,619,322,-9
7630,-21,-208,-170,652,309,-14
7635,-27,-205,-169,667,292,-23
7640,-35,-201,-165,677,261,-29
7645,-36,-201,-164,681,229,-21
7650,-34,-197,-163,681,207,-4
7655,-29,-205,-160,670,196,11
7660,-26,-203,-155,654,190,19
7665,-28,-200,-149,635,177,19
7670,-23,-203,-151,615,158,21
7675,-21,-197,-145,594,139,16
7680,-22,-193,-144,576,120,15
7685,-18,-188,-146,566,101,11
7690,-19,-183,-144,557,89,17
7695,-16,-178,-142,546,78,20
7700,-19,-169,-142,533,80,20
7705,-13,-168,-138,512,84,20
7710,-9,-167,-131,483,91,7
7715,-21,-158,-129,445,92,-3
7720,-17,-154,-126,397,83,-9
7725,-16,-149,-122,352,77,-21
7730,-11,-148,-117,302,72,-25
7735,-9,-141,-114,254,68,-34
7740,-16,-143,-120,211,68,-45
7745,-21,-145,-115,172,67,-54
7750,-19,-150,-113,142,62,-59
7755,-20,-150,-115,120,61,-62
7760,-28,-154,-117,104,66,-59
7765,-25,-162,-118,96,74,-55
7770,-26,-160,-122,99,86,-50
7775,-28,-164,-126,105,97,-44
7780,-28,-168,-124,110,104,-35
7785,-27,-172,-121,119,110,-31
7790,-26,-180,-123,131,111,-26
7795,-22,-183,-127,149,113,-22
7800,-20,-188,-124,172,119,-20
7805,-22,-193,-128,201,128,-17
7810,-17,-199,-124,238,139,-12
7815,-17,-204,-126,284,153,-4
7820,-14,-205,-128,326,162,3
7825,-12,-204,-131,371,168,9
7830,-13,-211,-133,410,168,13
7835,-13,-211,-132,444,161,12
7840,-18,-209,-135,477,151,9
7845,-20,-217,-139,504,140,5
7850,-19,-214,-135,531,130,-2
7855,-19,-214,-136,551,121,-11
7860,-20,-212,-133,565,118,-14
7865,-26,-210,-132,573,116,-21
7870,-27,-211,-126,576,119,-24
7875,-26,-211,-122,574,123,-27
7880,-29,-210,-121,569,129,-25
7885,-30,-210,-122,560,133,-20
7890,-33,-213,-115,549,137,-15
7895,-37,-211,-118,543,140,-13
7900,-35,-211,-119,539,140,-15
7905,-34,-210,-120,530,135,-18
7910,-28,-210,-122,520,127,-18
7915,-28,-202,-124,507,117,-21
7920,-28,-204,-122,499,111,-21
7925,-28,-203,-120,504,105,-24
7930,-26,-198,-119,512,101,-26
7935,-27,-196,-120,522,95,-29
7940,-23,-197,-115,536,93,-27
7945,-23,-196,-110,552,93,-23
7950,-22,-199,-106,566,96,-18
7955,-20,-197,-108,579,100,-12
7960,-19,-198,-113,596,103,-10
7965,-19,-197,-113,614,96,-8
7970,-15,-196,-116,625,85,-7
7975,-19,-192,-119,632,72,-10
7980,-17,-192,-120,638,61,-15
7985,-15,-196,-119,645,55,-21
7990,-15,-199,-120,649,52,-28
7995,-19,-200,-118,654,53,-32
8000,-24,-201,-119,663,58,-35
8005,-20,-199,-117,672,62,-37
8010,-18,-205,-115,683,69,-37
8015,-21,-208,-112,699,73,-38
8020,-23,-213,-115,725,71,-46
8025,-26,-213,-114,755,61,-56
8030,-24,-215,-116,782,45,-65
8035,-27,-216,-120,800,24,-77
8040,-28,-218,-121,811,-1,-87
8045,-27,-217,-126,817,-25,-96
8050,-28,-219,-126,815,-49,-105
8055,-30,-222,-128,814,-69,-114
8060,-33,-227,-122,818,-83,-122
8065,-33,-227,-126,829,-93,-129
8070,-35,-230,-124,840,-104,-138
8075,-35,-233,-124,849,-109,-149
8080,-38,-232,-121,852,-113,-158
8085,-36,-229,-119,852,-112,-169
8090,-38,-226,-118,849,-109,-178
8095,-36,-224,-117,850,-104,-185
8100,-35,-219,-114,844,-100,-194
8105,-29,-221,-111,832,-94,-200
8110,-27,-219,-111,815,-92,-204
8115,-24,-223,-111,802,-90,-209
8120,-24,-225,-110,791,-87,-217
8125,-22,-222,-105,781,-81,-226
8130,-19,-221,-108,773,-73,-232
8135,-17,-219,-106,760,-64,-233
8140,-18,-218,-104,744,-54,-231
8145,-19,-219,-107,729,-44,-225
8150,-20,-212,-105,715,-31,-215
8155,-19,-209,-102,712,-20,-201
8160,-20,-206,-108,711,-12,-188
8165,-16,-202,-102,716,-8,-172
8170,-12,-198,-101,718,-6,-152
8175,-16,-196,-95,713,-7,-134
8180,-15,-192,-96,719,-11,-114
8185,-11,-187,-89,728,-10,-105
8190,-9,-188,-90,729,-3,-92
8195,-7,-185,-88,721,10,-80
8200,-4,-186,-84,716,30,-63
8205,-4,-185,-84,707,49,-48
8210,-7,-185,-77,694,63,-33
8215,-8,-184,-77,686,71,-24
8220,-9,-192,-74,676,79,-17
8225,-11,-185,-76,667,87,-12
8230,-8,-184,-71,658,96,-6
8235,-8,-184,-70,654,103,1
8240,-10,-183,-72,650,111,4
8245,-9,-184,-73,651,117,2
8250,-11,-184,-71,644,126,2
8255,-8,-181,-76,628,135,-3
8260,-14,-182,-76,606,144,-10
8265,-16,-180,-73,583,148,-19
8270,-18,-180,-67,567,152,-26
8275,-17,-180,-63,556,159,-28
8280,-20,-186,-64,552,167,-26
8285,-16,-185,-56,550,173,-19
8290,-22,-186,-56,548,178,-13
8295,-17,-185,-59,547,179,-12
8300,-16,-184,-66,542,177,-15
8305,-17,-184,-70,538,174,-20
8310,-21,-180,-71,537,173,-23
8315,-19,-180,-73,531,170,-20
8320,-16,-178,-79,517,167,-15
8325,-13,-179,-81,493,167,-13
8330,-16,-179,-75,459,165,-12
8335,-12,-182,-75,420,167,-10
8340,-14,-183,-76,389,164,-8
8345,-13,-185,-71,366,160,-6
8350,-11,-190,-69,358,150,-3
8355,-13,-195,-65,364,135,-1
8360,-13,-196,-65,375,120,4
8365,-13,-201,-68,384,108,6
8370,-13,-202,-63,394,107,10
8375,-14,-205,-61,399,110,14
8380,-14,-207,-62,400,117,18
8385,-15,-211,-57,397,123,21
8390,-19,-214,-57,394,129,26
8395,-17,-219,-53,393,129,29
8400,-23,-218,-57,397,123,30
8405,-23,-218,-61,403,119,31
8410,-21,-217,-64,398,113,37
8415,-19,-219,-61,383,105,46
8420,-16,-220,-58,364,101,55
8425,-13,-220,-65,347,103,65
8430,-10,-220,-61,325,111,71
8435,-7,-224,-62,300,127,76
8440,-2,-228,-63,278,146,78
8445,-3,-228,-61,260,170,75
8450,-2,-233,-60,245,194,71
8455,-2,-239,-59,235,212,62
8460,-4,-241,-55,227,223,54
8465,-7,-242,-53,217,226,43
8470,-5,-242,-55,214,233,31
8475,-7,-243,-57,213,243,17
8480,-3,-246,-67,211,259,-4
8485,-9,-241,-69,200,276,-26
8490,-11,-243,-74,186,291,-47
8495,-14,-241,-78,164,305,-73
8500,-8,-243,-75,137,318,-101
8505,-20,-247,-79,113,334,-132
8510,-21,-253,-82,90,344,-163
8515,-25,-256,-74,71,354,-192
8520,-29,-262,-66,56,362,-221
8525,-27,-262,-66,42,370,-244
8530,-26,-273,-64,28,375,-262
8535,-26,-270,-67,10,378,-276
8540,-22,-279,-66,-5,377,-287
8545,-23,-284,-71,-24,372,-290
8550,-18,-285,-77,-45,363,-287
8555,-19,-283,-81,-70,348,-277
8560,-13,-286,-82,-94,334,-257
8565,-10,-290,-85,-112,317,-228
8570,-15,-289,-83,-121,294,-191
8575,-14,-282,-85,-119,269,-154
8580,-12,-279,-81,-113,243,-118
8585,-16,-273,-75,-108,213,-81
8590,-17,-268,-74,-109,190,-46
8595,-16,-265,-68,-115,166,-12
8600,-15,-258,-65,-121,144,20
8605,-12,-261,-56,-123,120,48
8610,-7,-258,-54,-123,96,70
8615,-10,-258,-51,-119,77,86
8620,-8,-256,-51,-116,62,94
8625,-6,-250,-50,-110,53,95
8630,-9,-249,-49,-105,54,87
8635,-8,-250,-49,-97,60,75
8640,-5,-247,-49,-87,70,59
8645,-1,-239,-46,-73,85,41
8650,0,-236,-50,-61,105,26
8655,-1,-229,-43,-50,127,13
8660,-3,-224,-44,-44,151,-1
8665,-3,-226,-40,-42,172,-12
8670,-9,-222,-35,-46,188,-20
8675,-7,-226,-41,-55,202,-27
8680,-8,-226,-44,-66,213,-26
8685,-9,-228,-40,-75,221,-22
8690,-8,-236,-42,-84,227,-17
8695,-10,-241,-42,-88,232,-12
8700,-13,-242,-44,-87,230,-6
8705,-17,-249,-43,-83,223,-3
8710,-16,-250,-41,-78,212,-2
8715,-13,-249,-46,-70,200,-1
8720,-11,-251,-53,-63,193,-3
8725,-9,-252,-59,-62,190,-1
8730,-13,-252,-61,-64,192,-2
8735,-12,-252,-61,-71,197,-3
8740,-14,-255,-63,-83,200,-5
8745,-10,-253,-63,-93,201,-8
8750,-14,-255,-63,-103,198,-10
8755,-9,-259,-66,-111,194,-14
8760,-11,-260,-63,-117,192,-17
8765,-13,-258,-67,-125,189,-23
8770,-11,-258,-62,-136,187,-26
8775,-13,-258,-66,-153,185,-30
8780,-15,-261,-69,-174,181,-31
8785,-15,-259,-69,-198,176,-31
8790,-15,-263,-65,-219,170,-32
8795,-20,-263,-69,-227,163,-32
8800,-17,-264,-69,-216,156,-30
8805,-21,-265,-70,-199,148,-27
8810,-22,-263,-69,-176,136,-24
8815,-26,-256,-83,-156,128,-21
8820,-27,-255,-75,-140,120,-16
8825,-21,-251,-79,-132,111,-9
8830,-26,-251,-75,-131,101,-4
8835,-24,-251,-74,-134,90,2
8840,-23,-250,-73,-135,81,8
8845,-24,-251,-67,-134,73,10
8850,-23,-250,-67,-128,67,14
8855,-20,-252,-63,-123,60,19
8860,-22,-250,-58,-117,55,19
8865,-17,-250,-59,-110,49,19
8870,-15,-251,-59,-105,44,17
8875,-16,-247,-54,-101,43,15
8880,-14,-246,-57,-104,42,11
8885,-15,-243,-56,-111,42,9
8890,-12,-242,-56,-124,41,5
8895,-11,-245,-56,-140,40,3
8900,-9,-238,-55,-157,40,-2
8905,-8,-241,-50,-174,43,-6
8910,-8,-239,-54,-188,46,-8
8915,-8,-242,-53,-197,50,-10
8920,-9,-244,-53,-200,50,-12
8925,-9,-246,-58,-197,53,-14
8930,-15,-248,-51,-183,55,-15
8935,-7,-241,-57,-158,56,-14
8940,-13,-252,-54,-125,56,-14
8945,-6,-244,-54,-93,57,-12
8950,-10,-249,-62,-71,58,-12
8955,-14,-248,-69,-66,59,-10
8960,-14,-244,-74,-71,59,-11
8965,-17,-248,-73,-80,59,-10
8970,-16,-249,-69,-85,57,-10
8975,-12,-247,-61,-87,57,-8
8980,-21,-263,-79,-83,59,-8
8985,-19,-255,-72,-75,60,-5
8990,-16,-257,-70,-65,62,-4
8995,-19,-255,-71,-59,61,-5
9000,-19,-256,-71,-49,58,-2
9005,-22,-256,-68,-41,53,-3
9010,-12,-245,-55,-34,49,-3
9015,-27,-250,-69,-27,44,-2
9020,-18,-253,-67,-22,39,-2
9025,-17,-258,-81,-19,35,-3
9030,-31,-253,-44,-17,31,-5
9035,-7,-263,-61,-14,30,-4
9040,-10,-272,-45,-13,28,-5
9045,-14,-242,-81,-15,29,-5
9050,-11,-254,-65,-16,31,-6
9055,-16,-243,-57,-18,30,-6
9060,-10,-248,-61,-19,30,-8
9065,-10,-250,-65,-18,29,-12
9070,-10,-248,-65,-17,30,-13
9075,-12,-247,-65,-16,32,-14
9080,-12,-252,-64,-16,31,-14
9085,-9,-251,-79,-14,31,-13
9090,-20,-237,-80,-14,31,-12
9095,-7,-248,-62,-15,33,-12
9100,-19,-244,-48,-15,35,-12
9105,-15,-247,-69,-17,37,-10
9110,-8,-247,-58,-21,39,-10
9115,-11,-253,-58,-24,43,-8
9120,-17,-250,-60,-24,44,-8
9125,-11,-252,-58,-19,47,-9
9130,-19,-254,-47,-13,49,-7
9135,-12,-252,-58,-4,47,-5
9140,-11,-250,-62,4,48,-4
9145,-10,-251,-61,10,52,-5
9150,-9,-250,-59,13,54,-3
9155,-8,-247,-54,17,55,-3
9160,-13,-252,-52,20,56,-3
9165,-6,-253,-67,22,54,-6
9170,-7,-254,-59,23,57,-6
9175,-3,-257,-58,23,59,-7
9180,-11,-255,-58,22,63,-6
9185,-11,-259,-55,18,66,-6
9190,-9,-251,-62,15,69,-9
9195,-10,-253,-52,12,70,-8
9200,-6,-255,-53,10,69,-8
9205,-13,-251,-55,9,66,-8
9210,-12,-250,-59,9,66,-9
9215,-9,-253,-56,10,65,-11
9220,-10,-251,-59,10,66,-14
9225,-11,-249,-61,12,65,-16
9230,-13,-248,-62,11,62,-17
9235,-7,-248,-52,9,61,-19
9240,-7,-249,-64,5,60,-21
9245,-16,-253,-60,4,58,-23
9250,-8,-253,-59,5,58,-24
9255,-12,-252,-59,8,60,-24
9260,-14,-252,-47,14,59,-27
9265,0,-250,-75,22,59,-28
9270,-18,-239,-63,30,58,-32
9275,-12,-248,-65,35,58,-34
9280,-17,-242,-74,37,58,-37
9285,-10,-246,-65,36,55,-40
9290,-15,-249,-61,33,53,-41
9295,-14,-249,-61,31,49,-39
9300,-14,-250,-63,28,48,-39
9305,-15,-247,-58,25,44,-39
9310,-14,-250,-66,23,41,-37
9315,-21,-250,-57,21,38,-37
9320,-17,-250,-53,15,34,-37
9325,-14,-247,-61,9,30,-34
9330,-10,-248,-51,1,26,-36
9335,-13,-251,-53,-5,20,-37
9340,-15,-255,-60,-6,17,-36
9345,-13,-246,-55,-1,12,-31
9350,-11,-250,-53,6,7,-28
9355,-16,-246,-54,9,2,-24
9360,-15,-250,-73,8,-3,-21
9365,-11,-248,-60,7,-10,-18
9370,-11,-253,-61,3,-17,-17
9375,-11,-250,-59,-3,-24,-16
9380,-11,-254,-62,-7,-29,-13
9385,-15,-260,-61,-6,-31,-11
9390,-10,-250,-57,-3,-33,-6
9395,1,-244,-62,4,-36,-3
9400,-6,-249,-67,12,-37,-1
9405,-10,-247,-68,15,-36,2
9410,-7,-249,-58,14,-37,5
9415,-8,-249,-61,13,-37,6
9420,-1,-249,-57,13,-36,11
9425,-3,-252,-56,13,-34,14
9430,-6,-249,-60,11,-31,15
9435,-7,-248,-59,7,-26,16
9440,-4,-250,-60,2,-21,16
9445,-5,-250,-63,-3,-17,16
9450,-6,-252,-61,-4,-11,17
9455,-9,-253,-57,-8,-9,18
9460,-3,-252,-58,-8,-7,17
9465,-5,-251,-56,-8,-4,18
9470,-5,-250,-58,-8,0,18
9475,-5,-262,-62,-7,6,17
9480,-6,-251,-59,-4,9,16
9485,-6,-253,-60,0,12,15
9490,-3,-256,-57,6,17,15
9495,-1,-255,-58,11,23,13
9500,-3,-250,-63,19,26,13
9505,0,-254,-59,25,28,11
9510,0,-254,-56,30,31,8
9515,0,-252,-58,33,34,7
9520,-1,-252,-57,31,40,7
9525,-1,-253,-55,27,46,7
9530,-5,-251,-57,26,52,6
9535,0,-251,-54,26,57,6
9540,-1,-250,-55,28,61,5
9545,-1,-253,-58,28,66,3
9550,-3,-254,-51,29,70,2
9555,0,-252,-56,28,76,2
9560,-3,-249,-59,29,79,3
9565,-4,-248,-56,24,83,3
9570,0,-250,-53,20,86,2
9575,-6,-249,-59,17,91,4
9580,-5,-252,-58,15,91,7
9585,-8,-251,-50,14,92,5
9590,-6,-249,-55,16,93,5
9595,-5,-253,-56,17,93,5
9600,-5,-252,-57,13,95,5
9605,-6,-252,-51,14,96,7
9610,-6,-254,-54,16,97,6
9615,-7,-250,-53,20,101,5
9620,-8,-251,-55,24,104,4
9625,-5,-250,-53,28,106,3
9630,-8,-249,-53,30,108,2
9635,-5,-252,-53,29,108,2
9640,-9,-251,-53,25,108,1
9645,-4,-251,-52,19,106,-2
9650,-7,-250,-54,13,106,-2
9655,-9,-250,-56,8,106,-2
9660,-6,-250,-51,6,106,-1
9665,-5,-252,-48,5,103,-3
9670,-9,-250,-54,5,102,-2
9675,-7,-251,-53,4,101,-1
9680,-9,-252,-52,2,101,-2
9685,-7,-254,-57,3,101,0
9690,-13,-253,-53,7,100,1
9695,-9,-254,-52,12,98,1
9700,-8,-250,-54,17,95,1
9705,-10,-253,-56,20,101,0
9710,-13,-252,-55,20,105,-1
9715,-16,-254,-58,15,110,-8
9720,-16,-252,-53,7,113,-11
9725,-13,-254,-60,-2,114,-17
9730,-16,-253,-58,-9,121,-20
9735,-19,-255,-59,-10,132,-17
9740,-18,-257,-54,-11,132,-14
9745,-15,-254,-56,-11,127,-14
9750,-13,-254,-55,-4,130,-17
9755,-15,-251,-62,8,138,-19
9760,-14,-253,-54,15,148,-22
9765,-15,-250,-60,17,156,-28
9770,-11,-251,-58,15,165,-33
9775,-12,-250,-61,9,176,-35
9780,-12,-251,-61,4,184,-34
9785,-12,-253,-58,-1,186,-31
9790,-15,-253,-57,-1,181,-27
9795,-16,-252,-59,2,173,-27
9800,-14,-253,-65,11,165,-25
9805,-10,-246,-62,15,155,-24
9810,-17,-245,-58,17,146,-21
9815,-18,-246,-59,13,138,-19
9820,-18,-246,-54,4,135,-14
9825,-17,-247,-57,-10,131,-9
9830,-15,-247,-58,-24,127,-4
9835,-14,-247,-53,-34,124,1
9840,-16,-248,-54,-37,121,4
9845,-13,-249,-52,-35,119,9
9850,-13,-250,-42,-28,120,15
9855,-15,-246,-54,-21,119,16
9860,-16,-248,-56,-18,117,17
9865,-19,-247,-54,-20,115,16
9870,-18,-247,-57,-27,115,14
9875,-16,-251,-53,-33,113,12
9880,-15,-250,-53,-38,108,9
9885,-14,-249,-54,-40,107,9
9890,-18,-248,-54,-39,107,11
9895,-19,-249,-56,-39,108,10
9900,-16,-251,-55,-39,108,9
9905,-14,-249,-60,-41,107,9
9910,-15,-252,-55,-42,105,9
9915,-11,-253,-52,-40,103,10
9920,-17,-252,-56,-35,99,10
9925,-14,-255,-55,-31,97,9
9930,-12,-255,-55,-27,95,10
9935,-14,-251,-57,-22,94,12
9940,-11,-255,-57,-17,92,12
9945,-11,-252,-59,-12,93,12
9950,-12,-254,-61,-10,94,11
9955,-7,-250,-61,-10,95,11
9960,-10,-253,-63,-10,95,10
9965,-11,-250,-57,-12,98,6
9970,-15,-250,-58,-13,100,4
9975,-14,-250,-59,-13,104,1
9980,-12,-252,-57,-13,108,-2
9985,-11,-252,-60,-14,110,-3
9990,-13,-250,-56,-16,114,-4
9995,-10,-254,-53,-17,116,-7
10000,-11,-254,-58,-19,118,-7
10005,-13,-256,-58,-19,118,-9
10010,-13,-252,-58,-14,122,-10
10015,-13,-253,-56,-9,123,-10
10020,-11,-252,-63,-4,125,-10
10025,-13,-251,-56,-3,127,-6
10030,-12,-249,-56,-1,126,-4
10035,-15,-249,-49,0,124,-1
10040,-11,-251,-55,1,120,1
10045,-12,-249,-53,0,116,1
10050,-12,-251,-55,0,114,3
10055,-11,-250,-54,-2,110,4
10060,-9,-250,-50,-4,107,7
10065,-13,-248,-55,-6,107,8
10070,-13,-250,-55,-9,102,8
10075,-12,-250,-57,-12,97,11
10080,-12,-251,-50,-13,92,11
10085,-15,-250,-53,-13,88,9
10090,-17,-251,-55,-13,84,8
10095,-16,-251,-53,-13,77,7
10100,-12,-254,-57,-12,73,6
10105,-14,-256,-58,-13,70,4
10110,-10,-255,-55,-11,69,3
10115,-11,-255,-53,-9,65,2
10120,-15,-254,-58,-5,61,2
10125,-11,-255,-62,-2,59,3
10130,-13,-254,-59,-1,58,4
10135,-12,-255,-61,2,53,4
10140,-12,-253,-59,5,46,3
10145,-10,-251,-56,9,41,3
10150,-9,-254,-59,9,39,5
10155,-12,-253,-62,7,37,7
10160,-10,-256,-59,5,33,6
10165,-13,-252,-57,5,30,7
10170,-12,-254,-57,6,24,6
10175,-13,-252,-59,11,18,4
10180,-9,-254,-58,15,14,2
10185,-9,-254,-60,16,10,2
10190,-6,-253,-57,17,9,3
10195,-5,-252,-55,18,9,3
10200,-2,-252,-54,15,10,5
10205,-5,-251,-55,12,11,5
10210,-2,-250,-55,9,10,8
10215,-8,-249,-52,4,8,11
10220,-5,-249,-58,1,7,12
10225,-4,-251,-57,-3,4,9
10230,-4,-251,-55,-4,5,8
10235,-1,-246,-61,-1,10,5
10240,-5,-248,-56,1,14,4
10245,0,-246,-59,4,22,0
10250,0,-248,-57,6,28,-2
10255,-4,-247,-56,2,36,-5
10260,-2,-249,-58,-2,44,-8
10265,-2,-247,-57,-7,54,-11
10270,-3,-248,-57,-8,63,-15
10275,0,-251,-58,-10,70,-17
10280,-3,-251,-58,-11,77,-19
10285,-1,-245,-59,-12,82,-19
10290,-2,-250,-60,-12,91,-17
10295,-2,-251,-57,-11,97,-19
10300,-1,-254,-56,-9,101,-16
10305,-1,-251,-61,-7,106,-17
10310,-6,-249,-61,-7,110,-17
10315,-5,-251,-58,-6,113,-15
10320,-8,-251,-57,-3,114,-14
10325,-8,-252,-58,3,116,-14
10330,-9,-253,-58,8,116,-14
10335,-9,-251,-61,11,115,-12
10340,-10,-251,-59,14,118,-13
10345,-13,-247,-60,16,122,-10
10350,-8,-251,-57,14,127,-11
10355,-10,-247,-59,13,133,-10
10360,-10,-249,-55,14,139,-9
10365,-13,-249,-55,14,143,-7
10370,-9,-250,-60,12,147,-4
10375,-11,-249,-58,9,149,-4
10380,-13,-252,-56,7,150,-2
10385,-11,-252,-58,7,150,-3
10390,-10,-252,-57,10,152,-1
10395,-11,-254,-59,16,150,-1
10400,-13,-250,-60,22,150,-1
10405,-11,-253,-59,25,151,-1
10410,-11,-252,-60,26,151,-2
10415,-10,-253,-60,25,150,-2
10420,-12,-248,-61,22,149,-2
10425,-10,-250,-58,18,150,-1
10430,-11,-251,-58,16,150,-1
10435,-12,-249,-56,14,150,-1
10440,-9,-250,-60,13,149,-3
10445,-13,-249,-58,14,146,-2
10450,-9,-248,-54,14,147,-2
10455,-12,-251,-55,12,146,-2
10460,-11,-252,-53,9,144,-1
10465,-13,-250,-56,6,142,-2
10470,-11,-252,-56,9,139,-1
10475,-10,-253,-56,11,137,-1
10480,-8,-251,-58,16,135,-1
10485,-11,-249,-59,17,134,-1
10490,-10,-249,-58,12,133,0
10495,-6,-250,-57,5,133,-1
10500,-5,-250,-55,-1,131,1
10505,-6,-251,-55,-6,130,1
10510,-11,-249,-51,-10,128,1
10515,-10,-250,-54,-13,127,0
10520,-10,-251,-56,-16,128,0
10525,-9,-251,-56,-16,131,0
10530,-9,-251,-55,-18,133,1
10535,-10,-251,-56,-17,131,0
10540,-9,-254,-52,-17,131,-2
10545,-10,-250,-56,-17,131,-3
10550,-10,-251,-53,-15,131,-3
10555,-9,-254,-54,-15,130,-2
10560,-8,-250,-55,-13,129,-3
10565,-9,-250,-55,-13,127,-5
10570,-10,-252,-55,-16,126,-6
10575,-10,-252,-60,-16,125,-5
10580,-12,-251,-55,-15,126,-6
10585,-11,-251,-56,-14,125,-7
10590,-8,-250,-53,-12,123,-7
10595,-7,-251,-57,-12,122,-8
10600,-11,-251,-55,-14,119,-6
10605,-11,-253,-54,-14,118,-6
10610,-8,-249,-54,-15,118,-6
10615,-9,-252,-55,-15,117,-5
10620,-8,-255,-57,-17,118,-3
10625,-6,-253,-56,-18,117,-2
10630,-7,-251,-54,-18,117,-1
10635,-9,-253,-54,-19,116,0
10640,-12,-249,-55,-18,114,0
10645,-9,-251,-57,-18,115,0
10650,-11,-250,-52,-17,114,-1
10655,-7,-253,-49,-17,112,1
10660,-8,-251,-56,-17,108,1
10665,-13,-249,-55,-17,105,1
10670,-10,-253,-52,-18,104,0
10675,-5,-248,-62,-21,103,1
10680,-10,-250,-52,-21,100,-1
10685,-12,-253,-54,-23,99,-3
10690,-11,-251,-53,-24,97,-4
10695,-13,-251,-55,-27,92,-4
10700,-10,-248,-55,-29,90,-5
10705,-16,-250,-55,-32,89,-4
10710,-10,-251,-54,-33,86,-6
10715,-13,-250,-55,-34,84,-5
10720,-10,-248,-55,-34,84,-4
10725,-11,-249,-49,-35,83,-3
10730,-10,-249,-56,-36,83,-3
10735,-12,-251,-53,-39,82,-3
10740,-13,-250,-55,-43,80,-3
10745,-11,-252,-53,-44,78,-3
10750,-10,-251,-55,-44,76,-3
10755,-11,-254,-57,-43,74,-3
10760,-8,-256,-55,-39,73,-3
10765,-11,-250,-59,-37,72,-3
10770,-7,-252,-56,-36,71,-2
10775,-11,-252,-57,-36,67,-2
10780,-10,-249,-54,-35,64,-3
10785,-6,-254,-54,-34,61,-3
10790,-5,-254,-56,-32,60,-2
10795,-9,-250,-54,-32,58,-1
10800,-8,-254,-55,-31,57,-2
10805,-7,-251,-54,-31,53,-2
10810,-6,-253,-54,-32,52,-2
10815,-10,-249,-56,-32,52,-3
10820,-11,-249,-53,-33,51,-3
10825,-12,-251,-55,-35,53,-5
10830,-9,-252,-57,-39,54,-5
10835,-10,-251,-56,-43,53,-5
10840,-9,-254,-56,-45,54,-7
10845,-10,-250,-54,-48,56,-7
10850,-11,-253,-56,-48,56,-8
10855,-12,-252,-55,-46,56,-9
10860,-9,-251,-56,-44,56,-8
10865,-10,-249,-58,-45,54,-8
10870,-8,-249,-57,-45,55,-8
10875,-9,-250,-55,-46,54,-7
10880,-10,-254,-58,-45,53,-6
10885,-9,-254,-55,-42,50,-5
10890,-9,-254,-58,-38,49,-6
10895,-6,-251,-57,-33,48,-4
10900,-8,-251,-57,-28,47,-4
10905,-5,-251,-52,-26,46,-2
10910,-8,-250,-56,-24,47,-4
10915,-5,-251,-54,-27,48,-5
10920,-8,-250,-53,-32,45,-4
10925,-6,-250,-55,-36,45,-6
10930,-7,-250,-58,-41,44,-6
10935,-6,-250,-50,-45,45,-7
10940,-6,-249,-56,-49,46,-8
10945,-9,-249,-54,-51,49,-7
10950,-7,-249,-56,-53,52,-6
10955,-6,-253,-57,-53,56,-6
10960,-4,-252,-55,-53,59,-5
10965,-8,-253,-54,-50,60,-7
10970,-8,-253,-53,-50,63,-7
10975,-7,-251,-54,-50,65,-7
10980,-5,-251,-54,-50,66,-7
10985,-5,-252,-58,-50,66,-8
10990,-7,-251,-58,-50,67,-8
10995,-8,-251,-57,-53,68,-8
11000,-4,-247,-57,-57,68,-7
11005,-6,-248,-59,-59,68,-6
11010,-9,-250,-56,-63,68,-7
11015,-7,-249,-59,-68,69,-8
11020,-5,-251,-56,-72,70,-6
11025,-9,-251,-60,-74,72,-6
11030,-6,-252,-58,-75,73,-6
11035,-7,-252,-57,-76,76,-7
11040,-5,-255,-56,-73,78,-7
11045,-8,-254,-56,-70,76,-6
11050,-10,-254,-57,-66,78,-5
11055,-9,-252,-58,-57,79,-7
11060,-7,-254,-53,-53,79,-6
11065,-7,-252,-59,-49,80,-8
11070,-8,-251,-60,-48,80,-8
11075,-8,-248,-57,-50,80,-8
11080,-6,-250,-58,-52,79,-8
11085,-9,-248,-56,-56,79,-8
11090,-10,-250,-57,-60,81,-10
11095,-12,-249,-59,-63,79,-8
11100,-7,-247,-60,-67,80,-4
11105,-9,-248,-60,-70,81,-4
11110,-9,-249,-66,-73,81,-4
11115,-8,-248,-60,-77,82,-4
11120,-7,-247,-58,-80,81,-5
11125,-5,-252,-57,-80,78,-4
11130,-9,-253,-54,-80,75,-4
11135,-6,-254,-61,-77,74,-5
11140,-9,-253,-59,-72,72,-6
11145,-10,-251,-58,-64,71,-7
11150,-9,-250,-61,-56,71,-8
11155,-8,-250,-66,-48,72,-9
11160,-7,-251,-64,-45,72,-10
11165,-9,-249,-67,-47,72,-10
11170,-9,-250,-63,-48,75,-11
11175,-4,-251,-58,-50,76,-10
11180,-6,-251,-59,-53,79,-9
11185,-11,-253,-57,-54,77,-9
11190,-8,-250,-57,-54,77,-8
11195,-8,-253,-60,-54,75,-6
11200,-8,-254,-57,-52,76,-7
11205,-7,-251,-63,-51,74,-6
11210,-9,-249,-58,-51,72,-5
11215,-8,-251,-61,-51,75,-5
11220,-13,-249,-62,-52,75,-3
11225,-8,-250,-61,-53,75,-3
11230,-7,-247,-63,-53,73,-3
11235,-9,-250,-61,-55,73,-5
11240,-11,-249,-60,-54,73,-5
11245,-9,-252,-61,-53,71,-4
11250,-10,-251,-60,-52,69,-3
11255,-8,-253,-59,-52,67,-3
11260,-12,-249,-60,-49,66,-6
11265,-11,-251,-61,-48,65,-5
11270,-7,-252,-64,-45,66,-3
11275,-10,-251,-61,-40,65,-3
11280,-6,-251,-66,-36,65,-2
11285,-9,-251,-64,-34,64,-1
11290,-9,-253,-62,-30,63,-2
11295,-7,-253,-64,-26,64,-1
11300,-12,-250,-64,-21,64,-1
11305,-10,-252,-66,-15,67,-2
11310,-11,-253,-64,-12,66,-4
11315,-6,-252,-63,-8,66,-3
11320,-9,-250,-66,-6,65,-5
11325,-11,-250,-59,-5,65,-5
11330,-8,-250,-64,-5,65,-5
11335,-7,-250,-62,-4,67,-6
11340,-13,-246,-62,-5,69,-6
11345,-10,-250,-62,-5,69,-5
11350,-9,-248,-60,-6,71,-3
11355,-9,-249,-61,-6,71,-4
11360,-9,-252,-58,-5,71,-3
11365,-9,-251,-61,-4,69,-2
11370,-7,-248,-61,-2,68,-1
11375,-11,-250,-61,-4,65,0
11380,-6,-249,-63,-8,67,1
11385,-11,-248,-62,-11,65,-1
11390,-9,-250,-63,-14,65,-1
11395,-10,-249,-66,-16,65,-1
11400,-9,-248,-63,-16,63,0
11405,-8,-251,-60,-13,63,0
11410,-12,-250,-63,-11,63,0
11415,-10,-249,-64,-8,63,-2
11420,-10,-250,-62,-6,62,0
11425,-8,-252,-61,-8,60,-2
11430,-8,-250,-61,-8,60,-1
11435,-9,-249,-67,-8,56,-3
11440,-10,-255,-64,-4,55,-3
11445,-9,-253,-63,-3,57,-4
11450,-11,-249,-59,3,58,-4
11455,-6,-252,-63,7,61,-5
11460,-11,-248,-63,11,64,-5
11465,-9,-249,-63,10,64,-6
11470,-8,-250,-61,8,66,-3
11475,-9,-249,-59,6,65,-3
11480,-11,-250,-61,4,62,-4
11485,-10,-254,-59,4,58,-4
11490,-12,-253,-63,5,55,-2
11495,-10,-252,-62,10,52,-1
11500,-7,-250,-62,13,50,-1
11505,-12,-252,-63,15,50,-2
11510,-12,-253,-58,17,47,-2
11515,-8,-252,-59,20,46,-1
11520,-11,-248,-63,21,45,-1
11525,-9,-252,-55,21,43,-2
11530,-7,-250,-62,21,42,0
11535,-11,-249,-59,23,42,-1
11540,-10,-250,-58,22,42,-1
11545,-12,-255,-64,21,39,0
11550,-10,-248,-60,21,40,-1
11555,-8,-250,-59,20,40,-2
11560,-7,-251,-62,17,41,-2
11565,-5,-250,-60,16,41,-2
11570,-7,-251,-60,14,44,-1
11575,-9,-251,-62,16,44,-3
11580,-9,-250,-66,18,46,-4
11585,-7,-249,-60,21,46,-4
11590,-8,-249,-61,24,46,-2
11595,-8,-249,-58,25,44,-4
11600,-3,-254,-56,26,47,-5
11605,-4,-249,-60,26,48,-7
11610,-6,-249,-59,26,50,-3
11615,-4,-249,-59,27,51,-2
11620,-6,-252,-61,27,55,-3
11625,-8,-249,-61,27,57,-2
11630,-4,-249,-59,26,59,-3
11635,-5,-247,-58,24,60,-4
11640,-5,-248,-61,23,63,-6
11645,-8,-248,-58,19,67,-6
11650,-4,-247,-60,15,70,-7
11655,-3,-248,-62,13,72,-7
11660,-3,-250,-60,10,77,-7
11665,-7,-248,-57,9,79,-6
11670,-3,-249,-61,7,81,-5
11675,-5,-248,-59,6,83,-4
11680,-2,-248,-56,2,87,-4
11685,-4,-250,-59,-2,92,-2
11690,-5,-250,-56,-4,92,-1
11695,-5,-248,-60,-8,94,-1
11700,-8,-249,-57,-12,98,1
11705,-6,-249,-59,-13,101,1
11710,-3,-251,-54,-14,102,1
11715,-6,-252,-57,-14,103,2
11720,-6,-253,-56,-12,107,1
11725,-3,-250,-57,-10,111,0
11730,-8,-254,-58,-8,114,1
11735,-4,-254,-55,-5,115,1
11740,-3,-254,-57,-3,116,-1
11745,-7,-253,-62,-1,120,0
11750,-7,-253,-60,3,123,1
11755,0,-252,-59,8,125,2
11760,-5,-251,-61,11,129,2
11765,-8,-249,-60,14,131,3
11770,-4,-251,-59,13,130,3
11775,-7,-250,-56,13,130,4
11780,-7,-249,-58,14,131,3
11785,-6,-253,-59,14,130,2
11790,-5,-253,-52,14,133,3
11795,-8,-252,-57,14,132,3
11800,-6,-251,-56,10,133,3
11805,-7,-250,-53,5,134,4
11810,-8,-253,-57,-2,133,3
11815,-9,-253,-56,-8,133,5
11820,-8,-253,-56,-11,133,7
11825,-8,-250,-54,-8,131,4
11830,-7,-254,-56,0,128,3
11835,-10,-251,-59,8,126,3
11840,-8,-249,-60,18,123,3
11845,-6,-248,-58,22,123,1
11850,-7,-251,-58,23,123,1
11855,-5,-249,-55,19,124,2
11860,-9,-250,-56,15,120,1
11865,-7,-250,-57,9,121,-1
11870,-9,-253,-53,2,121,-1
11875,-10,-248,-52,-2,120,0
11880,-6,-250,-57,-5,122,-1
11885,-7,-250,-53,-6,122,-1
11890,-7,-250,-52,-7,124,-2
11895,-8,-251,-53,-6,125,-4
11900,-9,-251,-52,-4,125,-3
11905,-9,-250,-55,-3,124,-4
11910,-7,-250,-56,-1,125,-2
11915,-8,-250,-56,-1,123,-4
11920,-9,-250,-56,-5,121,-4
11925,-6,-250,-55,-8,117,-3
11930,-13,-248,-59,-12,114,-4
11935,-8,-249,-62,-17,111,-3
11940,-10,-250,-60,-20,110,-2
11945,-7,-251,-57,-22,107,-2
11950,-9,-251,-59,-23,105,-2
11955,-10,-252,-58,-22,106,-1
11960,-7,-256,-61,-21,108,-1
11965,-8,-256,-58,-16,108,-1
11970,-5,-256,-61,-12,108,-1
11975,-7,-255,-57,-8,109,0
11980,-10,-256,-61,-5,109,0
11985,-6,-251,-60,-4,108,-1
11990,-3,-255,-57,-6,108,0
11995,-8,-251,-57,-8,108,-1
