timestamp,acc_x,acc_y,acc_z,gyro_x,gyro_y,gyro_z
0,19,-242,51,-4,246,-81
5,22,-240,56,-5,241,-78
10,20,-239,57,-5,237,-80
15,20,-240,52,-7,232,-75
20,19,-240,56,-8,227,-77
25,17,-248,60,-6,226,-74
30,22,-228,44,-4,218,-77
35,19,-243,54,-2,214,-74
40,20,-241,57,1,209,-74
45,26,-232,45,3,204,-71
50,31,-240,43,5,200,-72
55,23,-226,39,3,196,-69
60,11,-239,56,2,191,-70
65,25,-237,57,0,189,-64
70,9,-246,56,-2,183,-64
75,23,-237,53,-2,178,-58
80,22,-238,53,-3,172,-58
85,19,-241,58,-3,168,-51
90,21,-241,55,-2,163,-50
95,21,-240,58,0,160,-45
100,21,-241,57,6,156,-43
105,22,-242,57,10,152,-39
110,20,-241,58,14,148,-39
115,20,-240,54,18,144,-34
120,26,-226,57,21,142,-34
125,19,-234,64,21,141,-33
130,21,-241,50,18,140,-34
135,27,-235,56,14,139,-32
140,18,-237,59,10,138,-33
145,19,-239,56,5,135,-31
150,20,-239,47,-3,133,-33
155,20,-237,56,-7,128,-31
160,23,-232,59,-14,123,-32
165,25,-234,44,-21,120,-29
170,29,-238,51,-28,113,-29
175,22,-235,62,-34,106,-27
180,21,-233,57,-40,100,-29
185,21,-232,57,-45,93,-25
190,20,-229,55,-50,86,-25
195,20,-234,61,-56,81,-23
200,17,-237,52,-59,75,-24
205,16,-226,73,-62,68,-20
210,18,-236,61,-61,62,-21
215,19,-237,56,-59,58,-16
220,21,-223,53,-55,54,-17
225,19,-239,55,-48,50,-13
230,16,-239,57,-41,46,-11
235,17,-237,56,-33,45,-7
240,19,-241,54,-27,40,-8
245,18,-241,55,-20,38,-3
250,19,-242,56,-15,37,-2
255,20,-244,55,-12,32,2
260,17,-240,57,-11,31,3
265,16,-240,52,-9,28,8
270,16,-243,53,-9,25,10
275,18,-242,57,-9,22,14
280,18,-240,54,-9,18,17
285,15,-238,61,-9,15,20
290,18,-242,59,-9,14,22
295,19,-241,58,-9,11,25
300,20,-240,58,-9,10,24
305,20,-240,55,-10,7,28
310,20,-239,59,-12,5,29
315,22,-239,61,-14,0,32
320,21,-239,55,-14,-5,31
325,23,-237,57,-16,-14,34
330,20,-236,57,-20,-19,34
335,20,-237,61,-22,-26,35
340,20,-235,59,-25,-32,35
345,20,-239,55,-27,-37,36
350,21,-232,59,-28,-42,36
355,22,-237,59,-30,-47,38
360,21,-236,59,-33,-51,39
365,23,-236,55,-34,-56,40
370,20,-236,54,-36,-60,39
375,19,-235,58,-38,-65,41
380,20,-236,54,-41,-68,41
385,22,-241,56,-47,-72,43
390,21,-237,52,-52,-74,45
395,20,-236,53,-57,-76,45
400,21,-237,51,-62,-78,48
405,19,-239,53,-63,-82,49
410,21,-240,53,-65,-85,50
415,22,-242,55,-65,-88,51
420,17,-239,54,-65,-92,53
425,18,-239,54,-62,-95,54
430,20,-241,54,-61,-99,55
435,19,-240,53,-61,-101,57
440,21,-243,53,-59,-103,58
445,19,-240,54,-56,-101,58
450,22,-239,56,-52,-102,60
455,23,-239,52,-48,-102,60
460,20,-234,48,-45,-102,63
465,20,-239,52,-39,-104,64
470,21,-240,56,-36,-106,66
475,21,-239,48,-35,-109,68
480,20,-242,56,-31,-112,71
485,19,-241,53,-32,-114,73
490,18,-241,53,-33,-120,76
495,17,-240,55,-33,-124,78
500,21,-243,55,-31,-132,84
505,20,-244,55,-29,-139,84
510,19,-246,54,-23,-147,89
515,19,-244,55,-19,-155,90
520,22,-245,53,-15,-163,94
525,20,-244,54,-13,-173,95
530,18,-242,54,-11,-181,98
535,21,-244,51,-10,-186,99
540,17,-240,50,-10,-193,101
545,21,-243,49,-12,-199,102
550,22,-244,53,-15,-202,102
555,22,-241,48,-20,-204,102
560,19,-239,53,-24,-205,105
565,18,-241,52,-29,-207,105
570,16,-236,53,-30,-208,107
575,18,-238,50,-30,-209,107
580,19,-240,53,-30,-212,112
585,19,-237,51,-27,-213,114
590,20,-237,53,-26,-216,118
595,17,-236,50,-25,-219,119
600,20,-238,55,-25,-222,124
605,21,-241,53,-27,-225,124
610,18,-236,55,-27,-229,127
615,20,-240,54,-26,-232,129
620,17,-238,52,-26,-237,132
625,18,-241,52,-27,-241,131
630,18,-240,52,-25,-246,134
635,16,-240,52,-23,-250,134
640,19,-242,49,-22,-255,138
645,17,-241,49,-20,-258,135
650,17,-240,50,-18,-261,138
655,18,-241,48,-18,-264,136
660,20,-241,47,-17,-265,139
665,20,-241,50,-17,-267,137
670,19,-237,51,-19,-270,139
675,23,-237,53,-20,-273,138
680,20,-241,50,-20,-274,141
685,18,-239,50,-20,-278,139
690,20,-241,51,-20,-279,143
695,18,-240,49,-21,-283,141
700,19,-238,52,-21,-288,145
705,19,-241,50,-19,-290,144
710,22,-238,50,-20,-292,148
715,23,-240,47,-18,-295,148
720,23,-241,49,-15,-297,150
725,22,-241,52,-15,-297,149
730,22,-240,52,-13,-298,150
735,25,-239,52,-11,-298,148
740,24,-241,53,-6,-296,150
745,26,-241,52,-6,-295,148
750,24,-240,49,-3,-292,149
755,24,-239,49,-2,-290,145
760,26,-240,49,-1,-285,147
765,28,-239,50,-1,-282,143
770,27,-238,50,-4,-279,144
775,28,-240,50,-8,-275,141
780,30,-238,53,-11,-270,142
785,24,-237,58,-13,-265,137
790,29,-241,49,-17,-263,136
795,27,-241,54,-18,-257,132
800,27,-239,50,-21,-254,133
805,29,-242,54,-22,-250,128
810,28,-240,55,-22,-247,127
815,30,-241,56,-23,-244,123
820,27,-238,48,-22,-238,121
825,29,-240,52,-22,-234,116
830,28,-239,52,-20,-230,115
835,29,-243,50,-20,-226,109
840,28,-240,54,-21,-223,109
845,26,-241,51,-21,-219,103
850,26,-239,51,-22,-216,101
855,26,-241,51,-22,-214,98
860,26,-239,52,-24,-210,97
865,28,-242,52,-23,-207,94
870,27,-240,55,-22,-202,92
875,28,-239,53,-22,-200,89
880,28,-240,53,-22,-194,88
885,25,-238,54,-21,-191,82
890,26,-237,52,-21,-187,81
895,28,-242,50,-21,-183,78
900,27,-240,53,-23,-175,77
905,28,-240,53,-26,-170,73
910,26,-239,49,-28,-162,73
915,27,-240,53,-32,-156,70
920,25,-235,50,-32,-150,69
925,27,-237,52,-34,-146,65
930,27,-242,52,-34,-142,64
935,29,-241,51,-38,-140,63
940,28,-244,56,-41,-138,64
945,26,-239,52,-43,-137,61
950,24,-241,53,-43,-135,61
955,26,-239,53,-43,-132,59
960,26,-241,50,-43,-131,60
965,27,-238,56,-41,-130,58
970,26,-237,51,-41,-124,57
975,26,-240,52,-41,-121,54
980,24,-236,48,-43,-116,54
985,28,-238,53,-45,-112,52
990,24,-235,48,-46,-105,51
995,27,-240,50,-49,-99,50
1000,26,-240,52,-51,-93,49
1005,27,-241,49,-52,-90,48
1010,28,-240,48,-55,-84,47
1015,26,-239,52,-55,-80,46
1020,28,-239,47,-55,-76,46
1025,25,-238,49,-57,-74,45
1030,26,-238,49,-57,-71,41
1035,30,-243,50,-60,-65,40
1040,28,-239,50,-60,-60,37
1045,26,-241,48,-63,-54,34
1050,25,-241,47,-64,-48,30
1055,28,-244,49,-63,-41,27
1060,30,-241,51,-61,-33,24
1065,31,-240,48,-57,-27,20
1070,29,-241,54,-53,-21,16
1075,29,-240,48,-50,-16,11
1080,28,-243,49,-46,-10,10
1085,29,-240,52,-41,-5,7
1090,27,-241,54,-39,1,4
1095,25,-239,53,-36,4,2
1100,28,-243,49,-36,7,0
1105,27,-241,50,-37,10,0
1110,22,-237,64,-38,14,-3
1115,23,-238,53,-41,18,-4
1120,25,-238,50,-43,21,-6
1125,23,-240,50,-46,25,-6
1130,22,-238,48,-50,28,-8
1135,24,-240,53,-53,31,-6
1140,24,-242,51,-56,36,-8
1145,22,-242,55,-58,38,-7
1150,23,-242,52,-56,38,-9
1155,19,-241,56,-55,42,-7
1160,22,-240,52,-50,42,-9
1165,21,-242,53,-45,44,-8
1170,23,-241,49,-42,47,-11
1175,22,-241,48,-38,49,-9
1180,20,-241,53,-35,50,-11
1185,19,-236,51,-33,53,-10
1190,20,-240,52,-32,55,-12
1195,17,-238,47,-32,59,-11
1200,23,-239,50,-33,61,-14
1205,20,-236,52,-36,64,-12
1210,23,-237,51,-37,65,-14
1215,21,-240,49,-39,69,-14
1220,21,-237,48,-42,70,-17
1225,22,-241,50,-47,71,-15
1230,26,-238,53,-48,72,-19
1235,22,-238,54,-50,72,-18
1240,22,-239,54,-49,74,-21
1245,23,-242,52,-51,73,-21
1250,23,-238,54,-48,75,-23
1255,23,-242,51,-48,76,-22
1260,24,-241,49,-46,79,-26
1265,25,-244,53,-45,79,-25
1270,24,-243,48,-46,81,-28
1275,24,-242,49,-46,81,-26
1280,22,-240,46,-46,82,-29
1285,19,-241,45,-49,82,-27
1290,23,-241,46,-52,81,-30
1295,22,-240,44,-57,81,-28
1300,21,-238,44,-59,81,-29
1305,22,-238,46,-63,80,-28
1310,22,-239,46,-66,80,-29
1315,23,-237,46,-69,80,-26
1320,20,-240,44,-71,82,-28
1325,24,-239,45,-74,83,-25
1330,27,-246,43,-73,84,-26
1335,22,-239,45,-74,87,-24
1340,24,-241,45,-72,89,-25
1345,27,-243,46,-71,93,-21
1350,25,-245,49,-70,94,-22
1355,23,-241,45,-69,98,-19
1360,23,-244,44,-67,102,-19
1365,24,-243,40,-65,104,-16
1370,27,-248,42,-63,107,-19
1375,25,-247,43,-61,110,-17
1380,28,-247,43,-56,115,-19
1385,26,-247,41,-53,118,-18
1390,23,-247,44,-47,120,-21
1395,25,-246,40,-42,123,-19
1400,23,-247,43,-37,125,-22
1405,26,-246,44,-31,125,-23
1410,26,-246,42,-24,126,-25
1415,24,-246,45,-20,127,-24
1420,26,-247,45,-14,127,-28
1425,26,-243,44,-8,126,-26
1430,25,-242,48,-4,125,-29
1435,26,-241,42,-3,123,-28
1440,28,-234,40,1,122,-30
1445,22,-239,45,-1,122,-27
1450,24,-240,46,0,122,-31
1455,25,-238,47,1,122,-29
1460,25,-239,42,-2,121,-31
1465,25,-239,48,-4,118,-28
1470,22,-240,43,-4,118,-31
1475,19,-238,48,-7,116,-28
1480,20,-241,49,-9,115,-30
1485,20,-240,43,-9,112,-28
1490,18,-241,44,-11,111,-28
1495,19,-238,47,-8,111,-26
1500,19,-241,46,-6,109,-26
1505,17,-238,45,-7,109,-24
1510,19,-243,50,-10,108,-25
1515,21,-241,45,-10,107,-24
1520,17,-241,45,-13,106,-24
1525,20,-238,45,-16,105,-23
1530,18,-244,44,-21,105,-25
1535,16,-239,44,-25,105,-23
1540,16,-243,45,-28,104,-25
1545,17,-243,44,-32,103,-24
1550,20,-250,44,-35,101,-25
1555,17,-242,45,-38,100,-23
1560,17,-243,47,-41,99,-25
1565,19,-242,48,-40,97,-23
1570,16,-242,45,-40,94,-23
1575,18,-243,48,-39,92,-20
1580,19,-243,46,-37,90,-20
1585,21,-242,46,-35,88,-18
1590,19,-244,51,-32,83,-18
1595,20,-244,46,-31,82,-15
1600,18,-246,48,-26,78,-15
1605,19,-243,45,-21,74,-14
1610,19,-241,47,-17,72,-13
1615,20,-245,49,-13,69,-10
1620,20,-242,43,-11,65,-7
1625,21,-244,47,-10,62,-4
1630,19,-243,48,-7,59,-3
1635,19,-242,44,-5,56,-1
1640,20,-244,47,-4,54,1
1645,20,-244,46,-3,51,5
1650,21,-243,46,-3,48,6
1655,21,-242,51,-2,48,9
1660,24,-242,49,-2,47,11
1665,21,-241,44,-2,48,11
1670,19,-242,49,-2,46,14
1675,22,-243,49,0,45,14
1680,22,-241,49,2,44,16
1685,20,-245,49,4,43,14
1690,21,-242,47,4,43,14
1695,22,-242,51,6,39,15
1700,20,-240,46,6,37,14
1705,21,-240,45,5,35,15
1710,20,-239,47,3,34,15
1715,24,-242,46,0,31,13
1720,18,-243,46,1,31,15
1725,22,-243,47,-1,29,14
1730,20,-239,46,0,26,14
1735,23,-241,46,-1,27,13
1740,20,-238,44,-2,26,15
1745,22,-242,48,-2,25,13
1750,21,-240,46,-2,26,16
1755,23,-241,47,-3,26,13
1760,19,-241,45,-3,24,14
1765,19,-245,45,-4,25,14
1770,20,-245,48,-7,25,16
1775,22,-243,46,-7,26,15
1780,23,-243,47,-7,28,16
1785,22,-245,48,-5,28,14
1790,21,-242,52,-4,27,17
1795,21,-237,47,-1,28,14
1800,20,-241,48,1,29,17
1805,22,-239,45,1,26,16
1810,22,-240,45,1,27,18
1815,23,-241,47,3,26,16
1820,22,-242,46,4,24,19
1825,22,-241,46,2,25,18
1830,25,-244,50,2,23,20
1835,25,-241,46,-2,22,20
1840,25,-241,43,-4,22,21
1845,23,-242,47,-7,20,18
1850,22,-243,45,-7,18,21
1855,24,-244,47,-5,18,19
1860,23,-244,47,-3,18,21
1865,23,-242,47,-3,17,21
1870,23,-244,49,0,17,23
1875,20,-239,47,3,17,20
1880,21,-240,48,7,18,24
1885,24,-240,49,7,18,20
1890,19,-240,48,9,19,22
1895,21,-239,48,8,20,19
1900,20,-239,47,6,20,22
1905,20,-241,46,7,20,19
1910,22,-238,45,4,20,22
1915,20,-242,43,2,20,19
1920,20,-241,47,0,20,21
1925,21,-237,48,0,18,21
1930,20,-241,43,-1,18,22
1935,22,-240,43,-3,16,20
1940,23,-241,49,-4,17,24
1945,21,-240,46,-5,18,21
1950,20,-240,48,-6,18,23
1955,20,-244,49,-5,18,20
1960,24,-243,46,-3,18,23
1965,21,-243,50,-1,19,21
1970,20,-243,46,3,19,22
1975,20,-241,49,5,18,20
1980,19,-243,51,11,17,25
1985,19,-242,50,15,17,22
1990,23,-245,47,18,15,27
1995,20,-241,51,19,15,24
2000,20,-243,47,17,13,28
2005,20,-241,42,11,13,29
2010,22,-242,47,7,13,32
2015,22,-242,49,2,12,31
2020,20,-242,45,0,11,34
2025,23,-245,49,-3,7,32
2030,21,-242,47,-4,5,34
2035,23,-240,43,-6,5,32
2040,22,-242,45,-6,6,34
2045,21,-242,47,-6,9,32
2050,25,-242,43,-5,12,31
2055,20,-237,43,-5,15,27
2060,22,-244,46,-6,17,28
2065,18,-239,44,-5,19,25
2070,20,-239,47,-4,19,25
2075,20,-239,52,-5,20,21
2080,19,-239,50,-3,20,22
2085,18,-243,48,-3,21,21
2090,22,-242,43,0,20,22
2095,19,-239,47,2,18,21
2100,22,-241,49,2,17,25
2105,22,-240,47,3,16,24
2110,22,-237,49,2,15,26
2115,21,-241,46,1,12,25
2120,19,-242,47,-1,11,24
2125,20,-242,44,-3,10,25
2130,18,-243,45,-5,10,26
2135,21,-241,48,-5,11,25
2140,22,-241,46,-6,14,26
2145,21,-243,46,-5,15,25
2150,22,-243,50,-3,17,24
2155,23,-242,50,1,17,23
2160,22,-243,50,3,19,24
2165,24,-244,49,3,19,22
2170,21,-243,48,5,22,21
2175,21,-243,49,6,23,21
2180,21,-243,45,6,21,20
2185,23,-244,48,6,21,21
2190,22,-245,48,4,20,21
2195,20,-242,51,2,19,21
2200,22,-241,48,0,19,22
2205,21,-242,51,-2,18,20
2210,22,-242,49,-4,18,21
2215,20,-240,51,-4,20,20
2220,21,-242,46,-5,21,19
2225,22,-241,49,-6,25,19
2230,24,-243,47,-6,25,17
2235,21,-242,48,-5,28,17
2240,21,-239,49,-4,30,16
2245,24,-240,47,-4,31,15
2250,23,-241,53,-6,33,13
2255,21,-238,46,-5,36,12
2260,19,-241,47,-6,36,13
2265,21,-241,46,-7,37,12
2270,21,-241,47,-8,38,12
2275,22,-241,47,-5,38,12
2280,22,-242,47,-5,37,12
2285,21,-241,48,-4,38,14
2290,20,-242,48,-6,38,11
2295,19,-240,48,-6,39,12
2300,20,-244,49,-5,39,11
2305,23,-243,49,-3,39,14
2310,20,-243,48,-3,37,12
2315,22,-244,50,-2,38,11
2320,19,-242,52,-3,38,10
2325,18,-240,45,-1,39,11
2330,24,-241,47,-1,41,9
2335,22,-241,51,-2,42,9
2340,25,-241,49,-1,42,7
2345,23,-241,47,-2,45,8
2350,22,-242,48,-2,48,6
2355,23,-243,46,-4,49,4
2360,24,-245,53,-3,51,2
2365,21,-242,47,-3,52,3
2370,20,-240,50,-3,54,1
2375,21,-242,49,-2,54,3
2380,21,-243,49,-1,56,-1
2385,22,-239,47,-2,57,-1
2390,22,-243,48,-3,58,-3
2395,20,-245,46,-6,60,-1
2400,20,-241,50,-5,60,-4
2405,21,-239,49,-7,60,-3
2410,21,-243,51,-5,60,-5
2415,22,-240,52,-5,60,-4
2420,24,-239,45,-3,61,-6
2425,22,-244,51,-2,62,-4
2430,22,-244,48,0,64,-7
2435,19,-242,49,3,65,-3
2440,19,-240,52,6,65,-5
2445,20,-242,50,7,67,-2
2450,21,-242,49,8,65,-4
2455,19,-242,46,9,65,-1
2460,22,-244,51,8,62,-3
2465,19,-241,48,4,60,0
2470,20,-240,51,2,57,0
2475,16,-243,48,-1,54,5
2480,14,-245,48,-2,52,5
2485,16,-244,45,-2,48,10
2490,14,-242,50,-1,45,10
2495,18,-244,47,0,43,16
2500,20,-245,46,2,41,16
2505,20,-245,45,2,42,19
2510,16,-242,50,1,46,18
2515,21,-244,44,-1,50,19
2520,18,-244,44,-5,54,20
2525,17,-241,49,-4,57,20
2530,15,-245,42,1,60,16
2535,19,-243,49,8,61,20
2540,17,-242,45,20,61,17
2545,20,-246,48,32,60,19
2550,20,-242,50,42,60,17
2555,21,-243,50,51,59,18
2560,20,-242,48,57,58,15
2565,21,-239,48,59,55,16
2570,22,-237,47,56,55,14
2575,21,-244,47,50,54,15
2580,18,-241,49,44,52,10
2585,19,-241,48,41,52,11
2590,19,-241,48,36,52,7
2595,20,-241,47,37,50,7
2600,21,-242,46,38,49,3
2605,19,-241,47,41,47,4
2610,21,-244,49,42,45,0
2615,20,-239,52,43,42,3
2620,20,-240,49,45,38,2
2625,16,-239,48,44,34,4
2630,16,-240,48,45,30,3
2635,16,-242,52,46,28,6
2640,15,-239,53,44,28,4
2645,19,-239,51,42,28,6
2650,17,-236,50,41,28,7
2655,20,-238,48,39,27,9
2660,16,-240,50,37,24,10
2665,18,-239,48,38,19,14
2670,18,-241,53,38,15,13
2675,18,-241,48,36,10,18
2680,20,-240,49,36,5,21
2685,16,-244,48,35,0,24
2690,18,-241,51,33,-3,25
2695,18,-239,49,32,-5,28
2700,15,-236,48,33,-8,27
2705,19,-237,48,31,-11,28
2710,17,-236,51,27,-12,27
2715,18,-236,46,20,-11,26
2720,16,-238,49,13,-9,22
2725,19,-237,50,7,-7,20
2730,18,-236,53,5,-6,16
2735,19,-241,52,3,-5,15
2740,16,-241,50,5,-6,16
2745,18,-239,46,8,-7,15
2750,15,-240,48,10,-10,13
2755,15,-241,50,13,-15,15
2760,17,-241,51,16,-18,15
2765,17,-241,49,14,-22,16
2770,16,-242,49,14,-27,19
2775,14,-239,49,13,-34,22
2780,15,-243,46,13,-41,25
2785,17,-242,41,12,-48,30
2790,17,-242,42,13,-56,34
2795,17,-242,45,14,-67,37
2800,18,-242,42,15,-73,41
2805,18,-245,43,14,-79,43
2810,14,-242,36,13,-83,48
2815,19,-246,39,10,-86,50
2820,13,-246,38,6,-88,53
2825,18,-248,38,4,-92,54
2830,17,-249,35,0,-98,55
2835,15,-251,37,-4,-102,58
2840,15,-247,34,-6,-107,60
2845,17,-250,28,-6,-113,60
2850,17,-252,30,-4,-124,64
2855,25,-245,22,1,-130,64
2860,16,-250,22,11,-135,67
2865,18,-247,17,21,-138,66
2870,21,-246,10,36,-139,67
2875,18,-241,12,47,-138,68
2880,19,-236,5,59,-135,68
2885,19,-233,3,71,-135,67
2890,23,-231,0,80,-135,66
2895,22,-227,-3,91,-135,64
2900,24,-224,-11,101,-139,62
2905,22,-218,-14,112,-147,58
2910,25,-218,-18,127,-155,58
2915,25,-212,-25,140,-164,54
2920,27,-208,-32,156,-173,52
2925,28,-204,-40,178,-182,43
2930,29,-198,-43,207,-189,38
2935,29,-192,-45,239,-196,31
2940,30,-184,-50,268,-204,26
2945,31,-172,-54,295,-210,13
2950,35,-157,-59,315,-212,3
2955,35,-138,-62,321,-209,-12
2960,37,-121,-58,312,-202,-23
2965,43,-99,-57,275,-188,-41
2970,40,-77,-58,220,-176,-54
2975,42,-60,-61,150,-158,-69
2980,45,-40,-52,61,-139,-80
2985,40,-20,-53,-34,-118,-88
2990,43,-6,-52,-128,-92,-87
2995,40,6,-50,-208,-63,-90
3000,35,12,-45,-277,-35,-96
3005,37,18,-45,-342,-1,-105
3010,33,25,-41,-417,38,-110
3015,34,30,-44,-508,82,-118
3020,35,30,-45,-651,130,-121
3025,34,25,-49,-799,166,-131
3030,37,14,-53,-963,189,-134
3035,33,2,-52,-1128,206,-145
3040,31,-11,-48,-1274,214,-149
3045,24,-29,-51,-1380,210,-155
3050,14,-61,-50,-1439,196,-140
3055,13,-86,-44,-1441,173,-104
3060,8,-110,-37,-1392,152,-49
3065,20,-131,-15,-1309,141,-4
3070,32,-139,12,-1204,150,33
3075,32,-156,19,-1083,187,65
3080,38,-161,40,-928,242,98
3085,43,-169,53,-793,299,120
3090,40,-171,62,-655,351,148
3095,44,-179,68,-513,387,175
3100,52,-184,76,-361,395,195
3105,51,-192,75,-196,385,192
3110,51,-204,79,-18,366,178
3115,54,-220,80,174,344,139
3120,54,-239,83,376,322,83
3125,46,-250,81,577,307,8
3130,35,-266,75,758,298,-85
3135,25,-281,74,920,308,-156
3140,14,-291,94,1012,327,-215
3145,2,-310,112,1098,338,-274
3150,0,-331,139,1202,338,-320
3155,-14,-357,171,1351,339,-354
3160,-30,-376,196,1567,346,-359
3165,-33,-384,202,1832,362,-327
3170,-22,-384,196,2080,384,-263
3175,-17,-405,192,2239,386,-233
3180,-14,-432,195,2276,406,-221
3185,-13,-406,188,2222,468,-200
3190,-19,-377,183,2078,550,-190
3195,-23,-341,168,1918,590,-171
3200,-22,-307,157,1740,606,-117
3205,-23,-278,136,1568,600,-43
3210,-12,-256,130,1400,574,44
3215,-7,-241,113,1235,539,120
3220,-2,-230,98,1076,496,195
3225,0,-224,86,930,456,259
3230,0,-214,74,796,421,325
3235,-1,-203,77,678,392,382
3240,1,-201,81,590,370,431
3245,4,-202,88,534,350,478
3250,9,-202,99,518,323,508
3255,10,-199,113,549,288,520
3260,9,-201,124,618,251,523
3265,9,-203,130,738,211,506
3270,17,-209,146,908,179,486
3275,20,-211,157,1121,170,460
3280,20,-214,165,1376,179,428
3285,14,-218,162,1654,186,380
3290,18,-223,155,1930,162,318
3295,20,-224,149,2174,137,262
3300,22,-227,138,2368,130,213
3305,30,-229,140,2526,125,161
3310,35,-228,144,2595,100,98
3315,33,-223,145,2632,70,33
3320,31,-214,154,2652,34,-20
3325,22,-206,156,2646,-15,-60
3330,2,-202,157,2599,-89,-62
3335,0,-205,153,2508,-184,-21
3340,-2,-212,157,2390,-283,40
3345,0,-223,151,2267,-380,106
3350,3,-236,144,2148,-466,158
3355,6,-242,138,2040,-518,191
3360,2,-239,131,1945,-552,197
3365,5,-243,119,1883,-555,197
3370,-3,-245,103,1812,-560,178
3375,-9,-249,100,1687,-552,165
3380,-13,-248,101,1524,-535,152
3385,-9,-241,101,1341,-508,142
3390,1,-241,107,1160,-473,150
3395,19,-247,133,1013,-434,166
3400,18,-241,146,921,-400,185
3405,32,-242,156,893,-383,196
3410,32,-233,160,889,-366,180
3415,35,-218,168,899,-354,157
3420,35,-214,172,909,-340,135
3425,32,-206,178,922,-312,121
3430,26,-205,177,931,-287,91
3435,24,-205,180,928,-263,50
3440,10,-200,181,919,-237,-1
3445,12,-197,172,905,-218,-45
3450,10,-205,170,875,-201,-84
3455,12,-204,161,818,-185,-115
3460,18,-213,164,733,-184,-141
3465,19,-222,179,654,-179,-166
3470,15,-223,201,622,-142,-177
3475,15,-231,206,639,-110,-160
3480,23,-232,210,667,-85,-148
3485,18,-231,207,690,-69,-145
3490,27,-228,212,705,-55,-138
3495,18,-220,208,709,-42,-137
3500,21,-219,216,695,-18,-134
3505,28,-207,206,691,10,-135
3510,41,-199,221,709,40,-138
3515,26,-201,213,725,65,-163
3520,35,-204,236,741,91,-175
3525,37,-204,239,793,107,-194
3530,34,-199,250,871,130,-213
3535,52,-203,242,941,148,-219
3540,32,-198,231,1003,163,-269
3545,25,-198,225,1037,177,-285
3550,35,-194,240,1062,195,-295
3555,32,-197,220,1121,206,-324
3560,24,-194,226,1134,227,-337
3565,24,-186,239,1150,237,-330
3570,32,-177,229,1191,237,-332
3575,13,-177,223,1251,226,-370
3580,23,-183,226,1293,209,-367
3585,25,-187,236,1334,207,-325
3590,12,-176,246,1392,222,-306
3595,6,-178,254,1442,252,-278
3600,5,-184,243,1440,285,-244
3605,16,-182,271,1380,310,-196
3610,27,-192,277,1324,317,-164
3615,34,-194,318,1288,320,-146
3620,14,-197,342,1298,329,-133
3625,15,-197,386,1355,340,-133
3630,35,-198,404,1436,359,-112
3635,24,-195,426,1485,373,-132
3640,39,-191,446,1473,407,-169
3645,47,-175,453,1368,477,-226
3650,47,-155,427,1204,602,-316
3655,44,-146,378,968,773,-403
3660,42,-154,351,694,947,-504
3665,38,-160,345,517,1066,-570
3670,37,-173,330,494,1122,-629
3675,38,-189,293,584,1134,-646
3680,33,-198,266,706,1126,-654
3685,28,-191,240,817,1101,-645
3690,34,-177,212,859,1060,-642
3695,26,-147,179,822,996,-630
3700,24,-117,161,708,893,-611
3705,31,-92,146,581,782,-572
3710,32,-73,128,429,641,-539
3715,28,-64,115,265,485,-506
3720,25,-68,109,97,330,-476
3725,28,-79,99,-52,187,-438
3730,26,-92,87,-169,72,-414
3735,23,-99,93,-257,-5,-388
3740,18,-106,100,-313,-53,-369
3745,16,-113,111,-336,-65,-347
3750,8,-108,130,-335,-47,-327
3755,1,-104,148,-284,-1,-303
3760,1,-101,165,-220,55,-282
3765,-3,-86,189,-139,110,-261
3770,-7,-76,207,-43,165,-244
3775,-10,-65,218,67,215,-232
3780,-19,-52,231,181,262,-218
3785,-18,-45,238,290,310,-188
3790,-20,-39,236,383,351,-159
3795,-20,-29,242,447,390,-131
3800,-23,-21,243,496,412,-115
3805,-24,-14,241,535,431,-95
3810,-27,-9,237,557,446,-84
3815,-24,-10,239,568,451,-71
3820,-19,-10,237,567,447,-70
3825,-13,-10,238,558,447,-75
3830,-17,-14,234,552,447,-85
3835,-12,-17,231,551,448,-100
3840,-5,-26,225,546,452,-118
3845,0,-37,217,530,459,-139
3850,0,-48,209,495,468,-168
3855,9,-66,201,437,481,-190
3860,-1,-71,202,358,498,-216
3865,4,-85,204,269,514,-230
3870,1,-93,205,154,517,-233
3875,0,-105,204,59,508,-219
3880,2,-109,210,-29,489,-197
3885,0,-117,211,-110,468,-162
3890,1,-115,217,-180,437,-126
3895,-1,-113,210,-230,407,-85
3900,0,-113,216,-257,378,-43
3905,2,-111,214,-266,348,-5
3910,-1,-108,214,-257,316,23
3915,-2,-102,217,-233,283,50
3920,-6,-96,218,-196,247,82
3925,-6,-92,213,-144,207,108
3930,-3,-90,214,-102,174,125
3935,-3,-83,211,-62,145,135
3940,-5,-77,214,-30,116,142
3945,-4,-76,204,-7,92,143
3950,0,-71,208,15,78,148
3955,-7,-65,204,34,70,144
3960,-2,-65,204,51,67,139
3965,-6,-63,202,61,62,126
3970,1,-66,201,69,62,111
3975,-5,-64,200,74,66,94
3980,-8,-65,196,78,74,79
3985,-3,-66,198,74,82,68
3990,-7,-67,195,64,92,59
3995,-6,-71,194,47,101,53
4000,-7,-74,197,28,112,54
4005,-3,-76,200,13,123,54
4010,-8,-78,199,4,133,53
4015,-5,-83,204,5,144,54
4020,-11,-85,209,15,150,54
4025,-10,-87,212,34,156,55
4030,-13,-87,214,58,157,58
4035,-11,-90,213,81,157,62
4040,-15,-88,216,111,151,68
4045,-15,-87,214,136,145,71
4050,-17,-84,221,160,137,79
4055,-15,-84,219,182,127,83
4060,-15,-82,221,200,113,90
4065,-18,-76,216,211,100,94
4070,-17,-77,219,213,89,98
4075,-16,-78,216,211,81,99
4080,-16,-75,217,200,76,102
4085,-14,-76,224,184,71,102
4090,-13,-76,215,168,68,101
4095,-11,-81,221,148,65,99
4100,-9,-80,219,131,63,99
4105,-9,-77,218,116,58,97
4110,-5,-74,222,102,54,101
4115,-2,-72,215,91,48,100
4120,-2,-74,222,82,40,105
4125,-4,-74,218,71,29,108
4130,-6,-69,216,55,19,115
4135,-1,-74,217,42,6,118
4140,-5,-72,217,25,-9,123
4145,-3,-75,216,13,-25,123
4150,0,-75,216,0,-42,123
4155,-2,-75,216,-8,-51,116
4160,-1,-74,228,-10,-59,113
4165,-1,-78,214,-7,-61,99
4170,-6,-76,212,-4,-64,89
4175,-2,-76,211,2,-64,76
4180,-1,-78,211,10,-62,68
4185,-5,-74,211,19,-59,54
4190,-4,-72,214,33,-54,57
4195,-5,-71,216,49,-46,55
4200,-3,-72,217,68,-37,62
4205,1,-72,218,90,-23,66
4210,2,-74,220,118,-10,74
4215,1,-74,219,138,2,78
4220,1,-72,215,156,13,86
4225,3,-74,217,171,25,89
4230,2,-72,218,181,34,96
4235,2,-73,216,182,41,99
4240,1,-72,212,176,48,103
4245,1,-76,210,164,54,103
4250,1,-77,213,148,59,107
4255,1,-83,210,131,63,103
4260,2,-82,210,116,69,101
4265,4,-84,210,97,73,94
4270,0,-81,212,82,81,89
4275,0,-82,209,65,88,78
4280,1,-83,210,52,94,68
4285,0,-80,212,41,102,51
4290,1,-81,214,33,110,34
4295,0,-76,215,29,117,12
4300,1,-78,210,28,124,-5
4305,-1,-76,210,33,130,-24
4310,1,-75,213,36,135,-35
4315,0,-77,209,37,137,-50
4320,-1,-76,210,35,137,-59
4325,0,-76,208,27,134,-67
4330,-8,-74,209,13,131,-71
4335,-1,-74,208,-5,128,-77
4340,-7,-75,204,-29,125,-77
4345,-6,-77,208,-58,123,-77
4350,-11,-78,209,-88,116,-71
4355,-10,-79,212,-118,110,-68
4360,-13,-80,212,-150,103,-56
4365,-12,-78,213,-182,90,-49
4370,-14,-78,216,-207,76,-35
4375,-20,-82,217,-229,58,-23
4380,-13,-82,221,-241,41,-10
4385,-15,-83,221,-247,23,-2
4390,-17,-82,221,-247,5,7
4395,-16,-86,222,-241,-10,13
4400,-16,-83,227,-226,-22,23
4405,-16,-81,222,-206,-31,30
4410,-15,-80,224,-178,-40,36
4415,-15,-80,222,-148,-44,39
4420,-10,-82,219,-114,-46,42
4425,-11,-82,218,-80,-47,42
4430,-9,-82,216,-43,-42,41
4435,-12,-81,214,-18,-39,39
4440,-7,-81,212,2,-31,36
4445,-3,-85,209,17,-25,31
4450,-7,-82,207,26,-17,27
4455,-6,-81,205,29,-9,19
4460,-7,-81,203,31,0,10
4465,-6,-81,209,30,8,1
4470,-7,-84,207,30,15,-8
4475,-5,-84,209,26,20,-18
4480,-4,-83,212,24,26,-26
4485,-10,-92,219,20,34,-37
4490,-7,-83,211,20,37,-44
4495,-6,-87,207,20,41,-50
4500,-9,-86,217,22,44,-56
4505,-5,-89,214,25,48,-60
4510,-9,-89,215,29,50,-60
4515,-10,-88,222,31,52,-62
4520,-9,-89,217,32,55,-63
4525,-8,-89,217,30,62,-63
4530,-7,-92,219,28,65,-60
4535,-7,-88,218,26,68,-57
4540,-9,-87,214,22,71,-54
4545,-8,-92,215,20,72,-49
4550,-7,-90,214,20,70,-46
4555,-6,-90,218,21,69,-42
4560,-6,-92,219,25,66,-38
4565,-6,-92,217,31,63,-34
4570,-8,-91,216,35,60,-32
4575,-5,-88,213,41,56,-30
4580,0,-86,216,47,53,-30
4585,-1,-84,211,52,49,-29
4590,-3,-84,212,56,45,-31
4595,-2,-85,216,61,38,-29
4600,0,-78,211,69,36,-32
4605,-1,-78,215,75,32,-36
4610,-1,-78,210,80,31,-41
4615,0,-73,219,84,29,-45
4620,-3,-74,212,87,30,-52
4625,0,-72,210,89,32,-57
4630,-1,-71,213,87,34,-62
4635,0,-75,214,82,35,-63
4640,-4,-71,212,71,37,-65
4645,0,-70,211,55,38,-65
4650,-2,-70,213,37,40,-66
4655,-2,-72,219,9,36,-63
4660,-2,-72,219,-11,35,-65
4665,1,-73,216,-32,34,-56
4670,0,-73,220,-49,29,-51
4675,-1,-71,219,-67,29,-42
4680,-3,-73,221,-83,25,-37
4685,0,-72,225,-98,22,-27
4690,1,-74,222,-111,18,-23
4695,2,-74,223,-119,13,-21
4700,1,-74,217,-123,7,-23
4705,-5,-78,216,-119,3,-24
4710,2,-79,222,-107,0,-33
4715,0,-81,216,-95,1,-38
4720,3,-84,220,-83,5,-50
4725,5,-84,215,-70,12,-56
4730,4,-82,210,-62,22,-67
4735,9,-81,211,-55,36,-72
4740,7,-81,211,-54,49,-79
4745,6,-79,212,-55,63,-79
4750,4,-80,211,-56,75,-79
4755,4,-69,211,-62,86,-70
4760,4,-78,215,-68,94,-60
4765,6,-77,219,-75,97,-44
4770,6,-75,217,-82,96,-30
4775,3,-78,216,-87,91,-12
4780,1,-75,220,-94,81,0
4785,1,-77,215,-97,69,15
4790,0,-77,216,-99,54,24
4795,1,-79,215,-101,39,37
4800,1,-83,211,-100,23,41
4805,0,-84,217,-94,13,46
4810,0,-86,215,-90,4,42
4815,1,-89,214,-84,-1,43
4820,6,-92,219,-77,2,37
4825,1,-95,218,-67,5,33
4830,0,-95,216,-55,10,24
4835,0,-95,219,-41,16,17
4840,-1,-95,214,-23,22,7
4845,-2,-96,216,-6,29,3
4850,0,-93,216,7,35,-2
4855,-3,-94,215,22,41,-4
4860,-2,-91,216,36,46,-7
4865,-6,-92,220,54,48,-6
4870,-6,-95,216,74,49,-10
4875,-6,-91,217,101,47,-10
4880,-6,-91,221,139,44,-16
4885,-4,-88,222,177,41,-18
4890,-5,-88,217,217,37,-25
4895,-2,-87,215,258,31,-28
4900,-2,-86,211,295,25,-35
4905,-2,-86,210,323,18,-34
4910,-5,-85,203,334,15,-36
4915,-5,-82,202,327,11,-31
4920,-3,-81,202,306,8,-30
4925,-1,-83,202,272,6,-28
4930,0,-81,199,227,6,-31
4935,0,-80,203,164,8,-34
4940,0,-79,210,111,11,-38
4945,2,-82,209,60,13,-39
4950,-2,-75,215,15,14,-41
4955,0,-80,220,-19,14,-40
4960,0,-80,221,-39,12,-38
4965,0,-78,226,-52,9,-32
4970,1,-80,222,-53,5,-29
4975,0,-79,225,-49,-2,-20
4980,-1,-76,220,-44,-4,-16
4985,0,-74,223,-40,-8,-7
4990,0,-72,218,-38,-9,-3
4995,0,-69,215,-39,-8,0
5000,-1,-66,215,-42,-9,2
5005,-2,-67,215,-47,-8,4
5010,1,-68,218,-51,-7,4
5015,1,-65,217,-54,-7,8
5020,2,-66,219,-54,-6,12
5025,1,-65,219,-51,-4,19
5030,5,-67,221,-47,1,26
5035,4,-65,219,-37,5,36
5040,2,-67,215,-26,10,47
5045,5,-66,218,-12,17,56
5050,3,-68,216,-1,20,66
5055,2,-67,215,6,23,74
5060,2,-72,213,8,26,80
5065,3,-76,208,6,31,85
5070,2,-76,211,-2,34,87
5075,5,-79,210,-15,37,89
5080,3,-83,208,-32,43,89
5085,1,-81,210,-51,49,88
5090,3,-84,210,-72,56,85
5095,2,-85,212,-92,65,80
5100,2,-85,215,-113,72,76
5105,1,-82,213,-127,75,70
5110,1,-87,217,-137,78,64
5115,0,-87,216,-143,76,58
5120,1,-85,222,-141,75,52
5125,1,-86,226,-135,71,42
5130,1,-85,226,-124,68,35
5135,3,-87,222,-109,65,25
5140,4,-84,223,-93,62,16
5145,1,-85,217,-82,57,7
5150,3,-86,216,-74,55,-1
5155,1,-84,216,-70,54,-12
5160,0,-82,213,-71,56,-15
5165,2,-84,214,-71,57,-22
5170,0,-83,214,-71,57,-25
5175,0,-84,212,-70,58,-29
5180,0,-84,210,-66,58,-30
5185,0,-84,213,-63,54,-34
5190,0,-82,212,-57,52,-36
5195,0,-87,208,-51,53,-40
5200,1,-84,210,-48,55,-44
5205,2,-85,210,-47,56,-48
5210,1,-83,211,-47,60,-48
5215,2,-83,211,-52,62,-52
5220,2,-84,209,-59,65,-51
5225,5,-84,209,-69,67,-52
5230,2,-81,211,-77,69,-49
5235,3,-83,215,-84,69,-49
5240,6,-85,217,-89,72,-47
5245,8,-88,224,-89,74,-49
5250,13,-90,216,-88,76,-45
5255,5,-86,217,-85,74,-45
5260,4,-84,219,-80,77,-44
5265,3,-83,218,-75,78,-47
5270,7,-86,222,-65,78,-46
5275,4,-85,219,-59,76,-50
5280,4,-84,218,-50,75,-48
5285,3,-82,219,-40,72,-50
5290,4,-82,221,-35,72,-46
5295,3,-77,218,-31,71,-47
5300,7,-81,213,-31,69,-42
5305,4,-78,216,-33,68,-42
5310,4,-79,213,-36,67,-38
5315,5,-76,212,-42,67,-40
5320,6,-79,212,-49,68,-37
5325,6,-76,209,-61,69,-37
5330,3,-76,213,-67,69,-36
5335,4,-77,214,-72,70,-39
5340,4,-77,212,-71,67,-38
5345,3,-78,215,-68,62,-41
5350,4,-81,215,-65,59,-39
5355,4,-78,216,-61,57,-41
5360,5,-82,211,-62,57,-35
5365,5,-80,211,-68,59,-34
5370,4,-78,214,-76,61,-29
5375,6,-84,211,-86,67,-29
5380,5,-80,214,-94,69,-24
5385,6,-82,213,-98,71,-26
5390,3,-87,216,-96,72,-23
5395,3,-86,217,-92,69,-24
5400,0,-84,217,-83,69,-22
5405,2,-81,210,-72,67,-24
5410,2,-87,217,-61,66,-23
5415,0,-81,214,-54,65,-27
5420,1,-85,217,-47,64,-26
5425,2,-82,216,-44,64,-28
5430,2,-83,215,-45,63,-27
5435,3,-82,214,-47,67,-31
5440,3,-80,213,-53,68,-30
5445,2,-81,214,-58,71,-32
5450,1,-80,214,-63,73,-30
5455,2,-81,213,-66,76,-30
5460,5,-85,213,-70,80,-29
5465,1,-85,215,-72,83,-29
5470,2,-83,213,-75,83,-27
5475,1,-83,211,-79,81,-26
5480,0,-84,214,-82,80,-24
5485,0,-84,211,-84,75,-25
5490,1,-83,209,-84,68,-23
5495,-2,-84,216,-83,64,-24
5500,0,-87,215,-80,59,-25
5505,0,-87,208,-79,56,-28
5510,0,-86,213,-78,55,-28
5515,-4,-88,214,-76,51,-32
5520,-4,-84,214,-78,48,-31
5525,-3,-85,215,-77,43,-34
5530,-3,-86,215,-76,39,-34
5535,0,-87,214,-75,34,-34
5540,0,-88,216,-72,31,-31
5545,0,-88,209,-72,30,-29
5550,0,-84,214,-71,29,-29
5555,0,-87,213,-73,29,-27
5560,-3,-86,212,-72,27,-23
5565,0,-89,216,-73,28,-21
5570,0,-92,214,-71,26,-19
5575,2,-86,208,-69,24,-17
5580,0,-91,211,-65,22,-13
5585,0,-89,212,-62,19,-12
5590,0,-86,214,-59,18,-8
5595,0,-89,213,-59,16,-7
5600,1,-85,211,-60,18,-4
5605,3,-87,207,-62,17,-2
5610,0,-85,215,-66,17,1
5615,1,-82,209,-73,16,4
5620,2,-84,210,-80,15,7
5625,0,-82,215,-91,11,13
5630,0,-83,212,-101,9,19
5635,1,-82,210,-109,6,23
5640,0,-81,212,-117,1,29
5645,-3,-84,217,-124,-4,34
5650,0,-84,212,-127,-8,37
5655,-1,-85,216,-126,-14,39
5660,0,-89,218,-121,-18,37
5665,-1,-87,215,-114,-20,36
5670,0,-90,216,-105,-23,33
5675,0,-89,217,-101,-23,33
5680,-6,-85,212,-93,-8,33
5685,-4,-88,210,-89,-18,19
5690,0,-85,212,-90,-25,21
5695,0,-86,212,-89,-25,23
5700,-1,-86,210,-87,-20,22
5705,1,-87,212,-80,-18,20
5710,0,-87,212,-69,-14,16
5715,1,-89,213,-55,-11,16
5720,2,-91,211,-34,-6,17
5725,3,-89,212,-20,8,22
5730,2,-91,212,-8,10,14
5735,6,-92,210,-3,9,18
5740,6,-91,205,2,12,18
5745,6,-92,207,3,15,21
5750,9,-90,208,4,19,18
5755,5,-90,203,3,22,21
5760,4,-88,208,-1,24,20
5765,6,-89,206,-6,28,22
5770,9,-92,206,-16,30,21
5775,8,-88,209,-28,32,24
5780,10,-88,209,-37,36,22
5785,12,-87,208,-45,39,24
5790,11,-84,207,-52,49,21
5795,6,-80,207,-59,53,15
5800,14,-88,207,-65,56,9
5805,13,-89,207,-68,66,7
5810,15,-90,210,-72,75,3
5815,13,-86,212,-75,83,2
5820,12,-87,215,-77,90,1
5825,7,-85,210,-82,92,7
5830,8,-87,210,-88,96,12
5835,7,-88,212,-98,97,23
5840,7,-92,213,-106,95,29
5845,2,-86,210,-112,92,40
5850,3,-86,216,-119,93,44
5855,5,-89,214,-127,90,55
5860,3,-88,217,-134,87,57
5865,6,-90,217,-142,84,65
5870,8,-89,211,-148,82,66
5875,13,-92,213,-153,82,68
5880,8,-87,217,-154,99,74
5885,8,-87,211,-152,90,59
5890,13,-90,212,-156,86,59
5895,19,-84,204,-159,91,66
5900,19,-87,213,-163,98,68
5905,18,-88,210,-163,103,73
5910,19,-87,210,-159,104,74
5915,22,-92,214,-155,106,81
5920,22,-92,210,-149,106,83
5925,19,-94,211,-141,105,90
5930,20,-93,209,-135,99,93
5935,17,-95,207,-130,95,101
5940,16,-93,213,-128,90,104
5945,15,-96,212,-131,81,110
5950,15,-98,212,-137,76,111
5955,14,-99,212,-145,69,113
5960,10,-99,210,-150,66,107
5965,6,-100,208,-153,63,105
5970,6,-101,212,-152,64,95
5975,2,-101,212,-150,67,89
5980,1,-101,208,-141,72,77
5985,2,-104,209,-128,79,66
5990,0,-102,209,-113,87,48
5995,0,-101,207,-91,102,35
6000,0,-100,208,-75,113,19
6005,0,-106,209,-58,124,6
6010,-1,-106,205,-42,135,-8
6015,0,-105,206,-26,146,-16
6020,0,-106,206,-15,156,-27
6025,0,-107,206,-6,162,-31
6030,0,-107,204,-3,168,-35
6035,-1,-101,207,-3,173,-32
6040,1,-106,205,-6,174,-35
6045,-1,-104,207,-10,170,-31
6050,1,-105,207,-15,158,-28
6055,0,-102,209,-22,146,-25
6060,0,-103,207,-28,131,-22
6065,0,-104,206,-31,116,-19
6070,-1,-100,207,-32,100,-17
6075,0,-100,208,-34,86,-15
6080,0,-100,211,-35,74,-15
6085,-1,-96,208,-35,62,-15
6090,1,-96,207,-34,51,-16
6095,0,-97,206,-34,44,-17
6100,1,-97,209,-35,39,-21
6105,0,-97,205,-34,35,-22
6110,1,-96,206,-32,35,-25
6115,2,-99,211,-32,34,-28
6120,-7,-104,212,-29,36,-31
6125,-1,-95,209,-26,37,-35
6130,-2,-97,208,-25,39,-37
6135,-3,-98,211,-23,42,-40
6140,-3,-97,211,-21,45,-43
6145,-5,-95,207,-19,47,-45
6150,-2,-97,210,-19,49,-46
6155,-2,-99,210,-18,52,-46
6160,-2,-95,216,-17,54,-45
6165,-3,-96,213,-21,55,-45
6170,0,-98,215,-25,56,-42
6175,-4,-93,211,-30,56,-42
6180,-1,-98,213,-35,56,-38
6185,-1,-97,207,-40,56,-37
6190,-3,-97,208,-44,57,-35
6195,-3,-96,209,-46,55,-37
6200,0,-99,217,-45,54,-38
6205,-1,-96,211,-39,53,-42
6210,0,-100,212,-29,49,-45
6215,-1,-102,212,-17,50,-49
6220,0,-102,213,-1,48,-48
6225,-1,-105,207,14,47,-48
6230,2,-99,217,27,46,-43
6235,0,-101,206,34,45,-41
6240,0,-99,206,40,42,-34
6245,0,-100,206,42,41,-31
6250,0,-96,205,44,35,-27
6255,0,-97,207,44,30,-25
6260,0,-99,209,48,24,-22
6265,0,-99,209,52,20,-22
6270,0,-100,209,63,16,-21
6275,0,-103,209,76,13,-22
6280,0,-100,209,92,8,-19
6285,0,-102,210,103,6,-20
6290,1,-100,209,112,5,-16
6295,2,-101,206,121,3,-15
6300,1,-99,211,123,3,-11
6305,1,-99,208,122,2,-11
6310,1,-99,209,118,1,-8
6315,1,-99,205,115,-1,-7
6320,1,-100,209,109,-2,-4
6325,1,-97,206,102,-1,-1
6330,4,-102,208,96,0,6
6335,1,-99,206,87,-1,9
6340,3,-97,206,80,-1,17
6345,1,-97,208,75,-1,18
6350,3,-97,205,71,-2,22
6355,3,-98,209,68,-1,24
6360,3,-95,207,66,0,29
6365,2,-97,207,61,1,30
6370,5,-97,212,57,5,34
6375,4,-95,207,50,9,32
6380,1,-94,211,44,15,34
6385,2,-92,209,35,23,33
6390,4,-91,209,28,28,36
6395,4,-91,212,18,34,33
6400,3,-91,210,10,40,34
6405,7,-89,212,2,43,33
6410,5,-91,208,-4,46,35
6415,7,-90,213,-8,49,33
6420,8,-92,214,-13,53,34
6425,7,-88,210,-13,57,30
6430,8,-93,214,-11,59,31
6435,11,-92,217,-9,63,27
6440,11,-94,216,-6,65,28
6445,15,-88,217,-4,69,24
6450,9,-91,211,-4,71,23
6455,8,-91,209,-4,73,19
6460,6,-91,208,-6,75,18
6465,9,-93,212,-8,77,14
6470,8,-91,211,-11,78,12
6475,8,-94,211,-11,80,6
6480,8,-89,212,-10,83,3
6485,7,-92,213,-6,84,-2
6490,8,-93,210,0,86,-5
6495,7,-92,208,10,87,-9
6500,10,-93,212,23,85,-9
6505,9,-91,211,30,84,-12
6510,10,-90,210,34,85,-10
6515,7,-87,208,38,85,-11
6520,7,-91,208,39,83,-10
6525,5,-89,211,39,84,-11
6530,7,-89,211,37,82,-7
6535,9,-90,209,33,81,-8
6540,5,-89,209,27,79,-8
6545,10,-88,212,21,79,-8
6550,6,-88,210,16,78,-5
6555,16,-89,210,13,75,-5
6560,7,-90,211,13,73,-5
6565,5,-91,209,14,70,-6
6570,8,-93,213,18,67,-4
6575,8,-91,211,23,66,-5
6580,5,-95,209,25,66,-4
6585,7,-97,212,27,69,-3
6590,9,-96,213,28,73,-3
6595,6,-95,210,28,79,-4
6600,7,-96,205,27,85,-4
6605,8,-98,208,25,90,-6
6610,7,-92,207,22,94,-8
6615,7,-96,211,22,97,-9
6620,6,-95,209,21,103,-9
6625,3,-93,213,24,103,-10
6630,2,-92,210,27,104,-10
6635,4,-90,208,32,104,-13
6640,4,-91,211,35,104,-12
6645,4,-93,211,38,101,-13
6650,1,-94,211,43,100,-12
6655,5,-92,213,43,100,-14
6660,3,-90,209,43,98,-13
6665,1,-93,211,42,99,-16
6670,1,-88,209,37,99,-17
6675,3,-90,214,30,100,-17
6680,0,-87,213,25,102,-16
6685,0,-87,213,19,103,-14
6690,1,-89,214,13,104,-15
6695,1,-87,214,10,103,-15
6700,0,-87,214,7,103,-12
6705,1,-86,214,7,101,-12
6710,4,-87,213,6,102,-11
6715,1,-89,211,7,101,-10
6720,5,-81,214,7,100,-10
6725,1,-89,210,10,99,-11
6730,0,-88,213,14,98,-13
6735,1,-89,211,16,98,-13
6740,0,-89,211,22,97,-15
6745,2,-90,214,30,97,-16
6750,0,-88,217,39,95,-20
6755,-2,-87,214,48,95,-21
6760,2,-90,214,59,94,-23
6765,0,-88,215,72,96,-25
6770,1,-89,208,86,97,-26
6775,-4,-90,210,102,97,-26
6780,0,-86,213,122,97,-30
6785,-1,-89,209,139,95,-29
6790,0,-90,213,152,97,-31
6795,0,-86,217,165,99,-30
6800,2,-85,212,172,101,-32
6805,0,-85,213,177,103,-31
6810,-2,-85,212,183,104,-35
6815,-1,-89,211,188,106,-32
6820,0,-85,213,192,109,-34
6825,6,-90,210,194,109,-33
6830,2,-89,213,192,109,-33
6835,0,-89,207,187,112,-29
6840,2,-85,209,176,116,-31
6845,2,-86,207,161,120,-26
6850,1,-84,208,143,123,-28
6855,0,-83,210,125,127,-22
6860,2,-84,210,106,131,-21
6865,4,-79,208,88,136,-14
6870,6,-81,211,76,139,-13
6875,4,-81,213,67,142,-5
6880,4,-80,216,63,141,-3
6885,3,-84,221,64,140,6
6890,6,-82,216,65,137,9
6895,4,-79,216,67,132,16
6900,1,-78,219,64,127,16
6905,3,-81,217,59,120,20
6910,1,-81,216,51,113,18
6915,1,-80,218,36,107,20
6920,0,-79,212,18,102,16
6925,0,-81,215,-2,96,16
6930,0,-82,214,-21,91,11
6935,-3,-81,213,-38,87,10
6940,-3,-83,214,-55,84,6
6945,-3,-84,215,-67,77,7
6950,-6,-80,219,-81,74,2
6955,-6,-83,213,-90,71,0
6960,-2,-84,215,-95,70,-5
6965,-5,-83,216,-98,69,-7
6970,-6,-84,219,-97,67,-13
6975,-7,-82,218,-93,65,-15
6980,-7,-81,220,-89,66,-22
6985,-8,-82,215,-85,66,-25
6990,-8,-82,213,-77,70,-34
6995,-8,-81,213,-65,73,-39
7000,-8,-84,217,-55,75,-48
7005,-8,-83,217,-40,76,-52
7010,-9,-85,215,-26,73,-59
7015,-7,-82,214,-16,69,-61
7020,-7,-85,213,-4,64,-65
7025,-5,-87,212,3,58,-63
7030,-4,-83,214,7,49,-66
7035,-5,-86,212,10,45,-63
7040,-5,-82,210,11,39,-64
7045,-3,-84,215,9,36,-58
7050,0,-84,213,9,31,-59
7055,1,-85,215,6,29,-52
7060,0,-83,208,6,27,-49
7065,-1,-86,213,8,26,-41
7070,2,-86,212,9,24,-37
7075,0,-84,212,15,24,-30
7080,1,-87,217,16,24,-27
7085,5,-87,217,20,24,-21
7090,5,-86,212,22,25,-18
7095,3,-88,216,25,27,-14
7100,2,-87,211,28,29,-14
7105,2,-87,220,31,31,-12
7110,4,-87,214,30,30,-10
7115,4,-87,212,31,30,-9
7120,3,-84,213,31,30,-7
7125,2,-85,214,28,30,-3
7130,1,-83,213,23,29,-1
7135,1,-82,213,19,28,4
7140,1,-85,216,17,28,6
7145,3,-82,216,15,28,11
7150,2,-85,214,17,27,14
7155,2,-82,217,17,27,20
7160,4,-83,213,17,27,24
7165,1,-84,215,18,30,28
7170,2,-81,213,16,31,32
7175,2,-79,217,12,34,35
7180,1,-81,213,10,36,39
7185,3,-80,214,6,39,42
7190,0,-79,214,3,40,42
7195,1,-80,217,3,39,46
7200,1,-82,221,1,38,50
7205,0,-80,218,0,38,53
7210,0,-79,216,1,34,57
7215,0,-80,216,0,32,59
7220,2,-82,219,1,28,63
7225,0,-81,218,3,27,62
7230,0,-82,224,7,27,63
7235,2,-82,218,12,26,61
7240,1,-80,214,17,26,63
7245,0,-79,216,20,27,61
7250,1,-80,215,21,29,60
7255,0,-81,215,16,31,60
7260,0,-81,212,10,32,59
7265,2,-78,211,2,35,58
7270,1,-79,211,-8,40,57
7275,0,-81,212,-16,43,55
7280,1,-83,211,-24,47,53
7285,1,-83,213,-30,50,50
7290,0,-84,215,-32,51,50
7295,1,-86,215,-30,53,47
7300,1,-86,216,-26,55,45
7305,1,-84,214,-21,58,41
7310,0,-84,216,-13,61,39
7315,1,-83,209,-5,60,35
7320,0,-87,208,0,61,35
7325,0,-80,215,8,60,32
7330,2,-84,212,13,61,32
7335,0,-85,209,15,62,29
7340,1,-84,216,17,64,30
7345,0,-85,208,14,65,25
7350,3,-84,213,14,66,27
7355,1,-82,213,10,66,22
7360,5,-87,211,6,67,23
7365,0,-83,214,3,69,18
7370,2,-86,207,-4,72,18
7375,1,-86,210,-7,74,12
7380,1,-85,212,-10,76,10
7385,1,-84,216,-12,78,6
7390,0,-83,214,-14,79,4
7395,3,-85,210,-16,80,-1
7400,2,-84,215,-17,82,-2
7405,1,-82,219,-15,83,-6
7410,1,-78,220,-10,81,-6
7415,0,-79,218,-4,82,-11
7420,1,-77,224,7,81,-13
7425,0,-81,221,21,80,-20
7430,0,-81,220,37,76,-20
7435,2,-80,220,51,73,-25
7440,0,-81,218,66,72,-27
7445,0,-81,220,81,71,-34
7450,1,-80,218,93,68,-34
7455,2,-80,217,102,65,-39
7460,1,-78,217,107,64,-36
7465,1,-73,216,115,64,-41
7470,0,-76,213,126,64,-44
7475,2,-76,209,140,59,-53
7480,0,-77,217,158,56,-56
7485,2,-76,218,176,50,-61
7490,1,-70,221,191,47,-61
7495,0,-67,225,214,46,-67
7500,-3,-69,228,246,43,-71
7505,-2,-72,233,289,32,-82
7510,0,-76,232,323,18,-84
7515,0,-78,230,349,6,-85
7520,1,-77,229,366,-4,-80
7525,1,-80,225,377,-4,-76
7530,0,-77,224,387,3,-68
7535,1,-79,223,396,15,-69
7540,0,-85,221,405,29,-68
7545,1,-89,218,414,38,-75
7550,-2,-87,221,421,40,-73
7555,-5,-84,219,433,36,-69
7560,-8,-82,225,464,35,-63
7565,-5,-82,217,510,36,-68
7570,-12,-88,222,573,32,-72
7575,-10,-87,224,646,22,-77
7580,-12,-82,215,722,15,-72
7585,-5,-77,211,787,15,-70
7590,0,-66,199,839,19,-64
7595,0,-56,193,872,28,-55
7600,0,-48,192,885,37,-37
7605,0,-41,188,878,40,-18
7610,0,-38,184,853,33,14
7615,2,-36,188,798,20,50
7620,-1,-33,187,736,-4,77
7625,-2,-26,189,662,-27,102
7630,-3,-29,199,586,-46,128
7635,-7,-28,203,511,-62,145
7640,-10,-22,203,441,-82,160
7645,-11,-24,216,380,-99,169
7650,-1,-26,220,331,-102,177
7655,-5,-26,223,301,-96,172
7660,-3,-24,222,280,-93,161
7665,0,-25,227,263,-83,149
7670,1,-26,220,241,-64,141
7675,4,-22,219,207,-45,134
7680,8,-20,213,173,-26,121
7685,9,-22,213,126,-6,108
7690,12,-17,210,74,13,102
7695,15,-24,219,26,32,97
7700,16,-26,220,-19,45,79
7705,10,-24,225,-61,52,61
7710,12,-20,224,-106,57,53
7715,14,-16,224,-141,58,42
7720,7,-10,219,-178,54,32
7725,11,-12,218,-211,48,43
7730,7,-15,225,-218,31,48
7735,1,-21,222,-199,5,62
7740,-3,-33,231,-168,-17,83
7745,-4,-40,232,-122,-45,106
7750,-8,-46,238,-66,-75,133
7755,-9,-54,228,-7,-99,163
7760,-9,-48,230,27,-118,176
7765,-7,-45,229,23,-131,176
7770,-11,-31,222,-43,-143,167
7775,-16,-16,220,-163,-152,154
7780,-2,-8,212,-322,-150,148
7785,-6,0,206,-550,-137,133
7790,-8,3,199,-758,-104,112
7795,1,-2,194,-951,-54,110
7800,-9,-1,191,-1142,2,110
7805,1,-11,189,-1317,55,140
7810,-8,-8,187,-1500,87,162
7815,-12,2,202,-1671,113,205
7820,-3,-17,201,-1787,128,266
7825,4,-30,208,-1877,143,306
7830,10,-48,218,-1937,158,312
7835,12,-61,220,-1972,179,311
7840,13,-66,211,-1993,196,291
7845,17,-80,200,-2017,204,258
7850,19,-94,202,-2061,206,214
7855,14,-92,199,-2115,200,172
7860,31,-101,209,-2163,197,145
7865,13,-108,212,-2192,191,103
7870,18,-112,215,-2185,181,101
7875,21,-127,245,-2130,172,101
7880,31,-144,253,-2012,159,69
7885,24,-141,253,-1864,151,-8
7890,32,-138,232,-1713,151,-87
7895,35,-126,218,-1621,149,-118
7900,40,-126,220,-1590,146,-143
7905,23,-144,217,-1562,135,-173
7910,46,-171,230,-1539,119,-182
7915,36,-181,246,-1485,91,-205
7920,14,-195,229,-1376,50,-229
7925,1,-207,227,-1250,14,-200
7930,-4,-213,225,-1144,-26,-136
7935,-2,-230,233,-1055,-69,-92
7940,-5,-221,247,-961,-111,-57
7945,-17,-214,241,-846,-152,0
7950,-9,-227,244,-715,-168,54
7955,-5,-221,253,-649,-171,94
7960,3,-216,258,-611,-171,95
7965,-10,-174,252,-563,-173,83
7970,-21,-179,254,-517,-174,102
7975,-3,-186,245,-485,-169,136
7980,-12,-177,236,-484,-164,113
7985,-19,-173,231,-503,-154,104
7990,-14,-185,250,-548,-159,100
7995,-17,-181,228,-585,-172,87
8000,-8,-189,238,-643,-177,80
8005,1,-194,246,-699,-179,75
8010,0,-196,242,-721,-179,63
8015,4,-195,234,-740,-171,70
8020,10,-199,232,-752,-161,64
8025,4,-195,247,-764,-153,61
8030,2,-187,217,-771,-147,55
8035,12,-192,240,-788,-132,54
8040,9,-192,232,-783,-125,33
8045,12,-190,227,-787,-116,9
8050,12,-187,225,-791,-100,-18
8055,10,-185,217,-815,-81,-49
8060,12,-182,226,-856,-63,-83
8065,19,-184,234,-888,-44,-109
8070,21,-186,239,-910,-26,-147
8075,22,-186,234,-917,-11,-188
8080,23,-179,237,-921,1,-235
8085,29,-180,234,-924,12,-281
8090,28,-184,223,-922,20,-333
8095,17,-180,228,-920,25,-374
8100,19,-176,223,-917,26,-402
8105,21,-171,227,-913,18,-416
8110,15,-174,219,-898,13,-430
8115,7,-173,216,-883,13,-430
8120,11,-172,210,-870,21,-426
8125,8,-162,201,-849,27,-428
8130,9,-166,202,-811,40,-433
8135,-8,-164,187,-777,53,-429
8140,-6,-159,180,-755,54,-417
8145,-20,-155,177,-738,45,-391
8150,-10,-159,169,-727,28,-361
8155,-18,-146,161,-716,10,-339
8160,-3,-157,158,-700,-2,-304
8165,-4,-150,163,-684,-11,-270
8170,0,-150,157,-649,-1,-230
8175,2,-154,153,-632,16,-188
8180,23,-151,156,-629,37,-150
8185,52,-151,153,-627,67,-118
8190,46,-170,158,-629,93,-97
8195,56,-181,165,-629,105,-71
8200,63,-182,165,-623,106,-45
8205,68,-188,165,-609,105,-24
8210,70,-192,157,-586,106,-13
8215,72,-193,154,-565,110,-14
8220,66,-193,155,-555,118,-34
8225,63,-196,154,-555,128,-49
8230,63,-198,160,-550,128,-64
8235,57,-199,166,-536,118,-92
8240,46,-200,170,-520,105,-125
8245,31,-206,169,-490,97,-143
8250,40,-204,172,-447,98,-134
8255,34,-205,168,-389,103,-141
8260,28,-209,164,-338,117,-136
8265,34,-208,151,-306,141,-121
8270,23,-205,144,-290,160,-119
8275,25,-199,139,-292,182,-98
8280,24,-196,130,-313,207,-87
8285,31,-192,127,-348,227,-73
8290,31,-188,121,-404,245,-71
8295,25,-186,121,-470,262,-77
8300,35,-183,119,-545,279,-90
8305,38,-188,123,-611,298,-103
8310,37,-188,126,-661,314,-116
8315,36,-191,126,-697,325,-131
8320,35,-196,129,-729,329,-145
8325,34,-198,127,-759,332,-164
8330,37,-202,129,-784,334,-180
8335,32,-199,129,-805,339,-206
8340,32,-201,125,-827,345,-224
8345,28,-200,129,-845,353,-237
8350,22,-201,127,-856,358,-235
8355,15,-204,133,-858,360,-229
8360,21,-205,138,-855,360,-216
8365,23,-208,144,-846,352,-218
8370,15,-204,145,-824,346,-217
8375,17,-208,149,-787,342,-217
8380,21,-211,152,-739,336,-217
8385,15,-209,153,-690,331,-231
8390,16,-213,152,-647,335,-228
8395,14,-215,147,-614,332,-218
8400,11,-214,145,-608,332,-204
8405,6,-212,141,-606,334,-183
8410,8,-216,132,-612,329,-149
8415,8,-209,138,-632,321,-122
8420,14,-215,140,-653,313,-97
8425,16,-214,132,-678,303,-81
8430,19,-212,133,-711,291,-76
8435,21,-212,138,-735,286,-73
8440,17,-210,143,-753,288,-73
8445,23,-210,145,-750,303,-68
8450,23,-211,149,-741,317,-67
8455,22,-215,149,-726,324,-78
8460,20,-218,150,-705,327,-82
8465,18,-219,154,-682,327,-88
8470,13,-216,152,-661,316,-89
8475,17,-216,152,-644,295,-90
8480,10,-213,151,-632,272,-88
8485,16,-216,149,-619,255,-85
8490,15,-210,148,-609,242,-83
8495,11,-212,153,-592,245,-72
8500,11,-212,154,-572,248,-53
8505,13,-213,157,-546,244,-51
8510,11,-215,155,-527,239,-45
8515,19,-217,167,-513,233,-45
8520,10,-223,149,-508,229,-44
8525,10,-223,149,-515,225,-48
8530,10,-222,142,-532,217,-48
8535,4,-222,141,-560,201,-52
8540,8,-220,138,-595,183,-45
8545,6,-216,136,-635,154,-59
8550,4,-218,133,-678,123,-64
8555,2,-216,133,-717,98,-66
8560,2,-222,128,-764,79,-58
8565,2,-219,129,-801,72,-56
8570,4,-223,131,-841,68,-41
8575,-1,-228,127,-881,57,-40
8580,-2,-227,127,-919,49,-33
8585,1,-228,124,-955,37,-24
8590,2,-223,122,-996,29,1
8595,2,-233,122,-1036,22,13
8600,3,-234,116,-1072,7,24
8605,4,-233,118,-1087,-9,23
8610,3,-231,113,-1100,-27,19
8615,4,-230,109,-1100,-45,28
8620,5,-227,106,-1101,-59,47
8625,8,-227,98,-1103,-77,64
8630,9,-220,95,-1108,-96,82
8635,6,-217,88,-1129,-107,100
8640,7,-223,87,-1156,-110,119
8645,16,-223,85,-1158,-113,110
8650,19,-223,86,-1171,-109,92
8655,12,-219,81,-1182,-105,77
8660,14,-224,89,-1192,-111,64
8665,16,-227,90,-1156,-122,47
8670,16,-228,86,-1088,-116,43
8675,13,-233,80,-1024,-112,50
8680,18,-228,82,-945,-117,54
8685,16,-232,74,-840,-125,41
8690,14,-229,78,-723,-128,36
8695,11,-226,69,-611,-132,35
8700,15,-225,66,-512,-135,36
8705,9,-222,62,-431,-138,33
8710,17,-220,59,-371,-134,46
8715,17,-223,54,-317,-129,27
8720,11,-210,53,-286,-128,-3
8725,13,-210,53,-260,-140,-18
8730,11,-209,53,-233,-151,-26
8735,13,-205,49,-213,-161,-28
8740,15,-200,53,-202,-167,-17
8745,20,-205,52,-187,-170,-29
8750,12,-202,52,-170,-174,-58
8755,5,-197,54,-154,-174,-79
8760,7,-199,53,-137,-172,-85
8765,5,-198,56,-119,-168,-82
8770,6,-195,54,-99,-167,-76
8775,9,-194,54,-78,-168,-81
8780,15,-193,49,-48,-173,-116
8785,14,-195,47,-15,-177,-153
8790,8,-189,46,10,-176,-186
8795,8,-189,43,27,-171,-201
8800,9,-185,46,36,-166,-215
8805,10,-181,49,41,-165,-211
8810,13,-178,45,41,-162,-200
8815,14,-171,39,33,-162,-190
8820,13,-168,33,14,-166,-184
8825,15,-165,35,-22,-165,-173
8830,19,-162,31,-67,-163,-164
8835,16,-159,36,-125,-158,-157
8840,21,-156,33,-194,-149,-141
8845,20,-156,35,-239,-141,-121
8850,25,-160,36,-270,-134,-105
8855,23,-161,35,-286,-128,-92
8860,17,-155,35,-284,-121,-85
8865,22,-161,37,-269,-118,-77
8870,18,-158,34,-242,-119,-72
8875,14,-159,33,-204,-120,-62
8880,15,-156,29,-160,-119,-59
8885,11,-153,26,-124,-121,-59
8890,12,-147,19,-93,-122,-60
8895,12,-142,20,-71,-123,-62
8900,14,-137,21,-64,-121,-71
8905,19,-138,12,-69,-114,-88
8910,13,-128,14,-82,-107,-118
8915,14,-125,13,-88,-100,-130
8920,7,-116,14,-102,-94,-149
8925,6,-110,11,-104,-85,-139
8930,9,-114,5,-115,-76,-129
8935,9,-111,1,-146,-75,-130
8940,6,-109,-4,-201,-77,-142
8945,0,-112,-8,-271,-81,-154
8950,11,-113,1,-366,-85,-165
8955,7,-124,-6,-450,-89,-170
8960,4,-134,-8,-524,-89,-179
8965,5,-141,-5,-585,-85,-183
8970,6,-150,-2,-629,-76,-188
8975,2,-165,0,-655,-65,-185
8980,5,-180,-1,-662,-51,-172
8985,4,-189,0,-640,-38,-152
8990,5,-200,1,-584,-24,-137
8995,10,-214,0,-503,-9,-115
9000,19,-226,-2,-408,5,-82
9005,25,-239,-8,-300,29,-48
9010,33,-248,-17,-228,52,-14
9015,42,-258,-16,-185,75,27
9020,50,-266,-16,-159,96,63
9025,56,-275,-9,-142,112,104
9030,63,-289,-5,-137,122,143
9035,65,-300,-2,-146,123,194
9040,70,-318,3,-181,123,247
9045,67,-333,6,-235,117,301
9050,68,-351,14,-293,103,341
9055,71,-365,17,-338,77,377
9060,70,-372,29,-360,33,383
9065,67,-374,34,-349,-8,382
9070,63,-378,38,-312,-48,359
9075,55,-371,45,-264,-86,330
9080,47,-360,51,-220,-120,286
9085,47,-344,55,-192,-148,242
9090,43,-329,61,-186,-159,193
9095,34,-312,67,-195,-150,151
9100,36,-298,73,-208,-116,104
9105,33,-287,78,-211,-71,63
9110,30,-275,78,-198,-15,14
9115,20,-258,82,-161,51,-35
9120,19,-253,78,-89,105,-73
9125,18,-242,74,-11,152,-99
9130,9,-226,69,77,188,-122
9135,14,-217,63,165,212,-129
9140,12,-207,56,251,221,-136
9145,12,-201,45,320,219,-132
9150,9,-194,43,366,205,-127
9155,11,-189,33,389,189,-117
9160,13,-180,31,397,178,-111
9165,17,-177,27,395,172,-103
9170,18,-176,15,379,176,-101
9175,21,-178,12,333,187,-99
9180,23,-178,10,274,202,-98
9185,25,-184,7,207,221,-95
9190,30,-184,12,142,241,-96
9195,29,-190,10,87,257,-94
9200,32,-193,17,40,273,-95
9205,33,-202,23,6,289,-84
9210,33,-209,23,-16,303,-72
9215,40,-220,23,-35,315,-58
9220,37,-229,32,-53,326,-49
9225,40,-232,31,-59,333,-32
9230,36,-240,36,-59,334,-19
9235,36,-252,43,-58,330,-3
9240,35,-261,41,-57,316,14
9245,32,-265,39,-51,293,33
9250,28,-272,40,-35,264,52
9255,25,-276,43,-17,231,78
9260,24,-275,28,1,194,92
9265,27,-271,30,10,158,97
9270,16,-265,22,4,127,95
9275,9,-266,21,-19,105,93
9280,6,-261,20,-57,88,83
9285,5,-263,10,-113,73,73
9290,3,-259,18,-164,63,63
9295,0,-256,21,-210,54,56
9300,0,-258,19,-245,45,51
9305,-2,-257,22,-268,33,50
9310,-1,-257,29,-273,20,50
9315,1,-255,33,-260,8,54
9320,3,-255,32,-226,-1,59
9325,2,-252,32,-183,-10,65
9330,8,-249,31,-134,-15,73
9335,13,-249,36,-81,-14,81
9340,12,-243,38,-29,-8,87
9345,18,-241,34,27,1,91
9350,19,-241,33,68,11,96
9355,24,-241,34,100,22,99
9360,24,-238,37,124,34,102
9365,23,-234,35,140,40,102
9370,29,-234,35,146,43,103
9375,29,-232,36,145,41,103
9380,32,-231,35,137,37,104
9385,33,-231,40,125,29,104
9390,34,-232,34,110,17,101
9395,37,-232,38,96,0,98
9400,36,-234,36,73,-16,96
9405,38,-235,34,51,-33,92
9410,37,-239,33,31,-51,88
9415,35,-241,32,16,-66,80
9420,34,-244,32,1,-81,74
9425,33,-247,33,-9,-93,66
9430,37,-250,35,-16,-102,62
9435,28,-248,28,-17,-111,56
9440,26,-254,37,-15,-118,53
9445,19,-254,36,-13,-127,50
9450,14,-253,36,-7,-134,53
9455,13,-254,37,1,-144,57
9460,7,-254,36,10,-152,65
9465,4,-256,36,19,-163,72
9470,3,-253,33,28,-175,86
9475,2,-254,37,33,-184,98
9480,1,-252,29,35,-192,112
9485,1,-251,33,35,-199,123
9490,2,-249,28,34,-203,137
9495,1,-248,32,30,-208,147
9500,2,-248,37,29,-210,159
9505,4,-246,35,28,-213,167
9510,5,-247,40,35,-213,179
9515,9,-247,35,43,-215,181
9520,7,-241,37,53,-219,189
9525,12,-244,38,62,-224,192
9530,10,-241,40,75,-230,198
9535,13,-243,37,85,-235,199
9540,12,-240,36,93,-240,205
9545,15,-235,37,98,-244,204
9550,20,-237,36,100,-249,206
9555,19,-236,35,96,-253,205
9560,19,-233,35,87,-258,206
9565,23,-234,35,75,-263,201
9570,23,-234,37,58,-268,201
9575,22,-231,36,40,-273,195
9580,24,-233,39,22,-279,193
9585,24,-236,37,4,-285,185
9590,23,-236,38,-11,-289,180
9595,24,-237,46,-23,-293,172
9600,19,-238,41,-30,-296,169
9605,22,-240,41,-35,-301,161
9610,21,-243,41,-34,-306,158
9615,20,-244,39,-31,-310,153
9620,21,-248,41,-26,-314,148
9625,19,-246,42,-17,-318,143
9630,20,-248,40,-11,-318,143
9635,23,-248,39,-1,-319,139
9640,20,-250,45,8,-318,138
9645,21,-249,43,21,-312,134
9650,21,-247,47,34,-307,134
9655,23,-252,42,49,-301,132
9660,23,-249,45,62,-294,135
9665,22,-251,44,73,-290,134
9670,25,-253,43,82,-285,138
9675,22,-251,42,89,-280,138
9680,20,-249,44,97,-278,141
9685,23,-249,42,100,-280,141
9690,23,-244,40,100,-279,145
9695,20,-244,44,97,-279,144
9700,21,-240,40,89,-278,148
9705,23,-242,44,80,-276,148
9710,25,-240,44,71,-276,153
9715,25,-241,49,61,-274,152
9720,25,-239,47,53,-271,156
9725,24,-238,51,48,-269,151
9730,26,-238,48,43,-263,152
9735,26,-237,52,36,-255,148
9740,25,-242,50,37,-249,147
9745,24,-237,53,35,-245,142
9750,25,-236,52,36,-238,139
9755,23,-239,52,41,-232,132
9760,25,-239,51,45,-225,129
9765,25,-237,51,50,-221,124
9770,25,-237,51,53,-216,121
9775,23,-237,55,55,-210,115
9780,23,-235,51,55,-203,112
9785,22,-237,51,55,-198,106
9790,23,-239,49,54,-193,102
9795,24,-240,48,52,-188,98
9800,24,-240,49,47,-185,95
9805,24,-238,46,37,-181,91
9810,22,-238,51,27,-179,89
9815,27,-235,43,18,-173,85
9820,23,-240,43,9,-170,83
9825,24,-239,46,0,-163,76
9830,23,-242,48,-9,-157,73
9835,28,-242,40,-16,-152,70
9840,24,-242,50,-21,-144,70
9845,24,-238,45,-26,-138,67
9850,25,-241,51,-31,-133,68
9855,28,-244,49,-31,-127,69
9860,25,-242,50,-32,-121,71
9865,25,-244,49,-30,-114,74
9870,25,-243,51,-23,-110,74
9875,26,-248,54,-12,-108,72
9880,27,-243,51,-3,-104,71
9885,28,-245,52,9,-102,69
9890,26,-243,51,17,-96,65
9895,26,-241,51,25,-90,60
9900,32,-243,50,26,-79,52
9905,28,-240,51,28,-71,48
9910,31,-237,48,29,-62,41
9915,31,-242,54,28,-51,35
9920,30,-242,54,26,-38,28
9925,24,-239,53,26,-27,23
9930,27,-240,50,24,-16,16
9935,29,-241,52,23,-8,9
9940,26,-238,52,26,-1,3
9945,27,-241,49,29,4,0
9950,26,-240,50,31,11,-2
9955,30,-242,47,30,14,-5
9960,30,-240,52,28,18,-10
9965,29,-241,52,23,21,-8
9970,28,-241,51,18,28,-11
9975,27,-237,50,14,34,-12
9980,27,-242,54,12,43,-14
9985,27,-239,52,12,51,-14
9990,26,-240,53,14,58,-18
9995,25,-239,56,16,65,-21
10000,28,-242,49,17,71,-26
10005,28,-241,55,20,78,-27
10010,22,-238,51,19,85,-33
10015,25,-241,52,18,94,-35
10020,25,-239,53,16,102,-39
10025,25,-237,51,15,111,-39
10030,25,-238,54,12,119,-44
10035,26,-237,54,10,124,-42
10040,25,-240,54,8,131,-46
10045,23,-238,57,4,139,-46
10050,24,-238,55,0,145,-48
10055,24,-239,55,-1,152,-47
10060,23,-240,53,-4,158,-50
10065,23,-234,47,-8,163,-47
10070,21,-236,51,-11,167,-51
10075,25,-238,54,-14,171,-49
10080,24,-236,51,-18,176,-53
10085,25,-237,51,-19,181,-52
10090,24,-237,51,-24,183,-55
10095,23,-238,53,-27,189,-54
10100,23,-236,51,-30,195,-60
10105,24,-239,52,-32,201,-59
10110,25,-236,49,-35,206,-63
10115,24,-237,50,-39,212,-65
10120,22,-240,48,-42,217,-69
10125,23,-237,49,-45,222,-69
10130,22,-237,52,-46,228,-73
10135,23,-240,52,-49,231,-71
10140,24,-239,55,-48,235,-76
10145,25,-241,51,-50,240,-77
10150,25,-241,53,-49,245,-81
10155,22,-238,49,-48,250,-80
10160,21,-241,51,-45,253,-84
10165,22,-238,49,-41,255,-83
10170,21,-242,47,-35,258,-88
10175,20,-244,47,-32,262,-87
10180,21,-243,50,-27,265,-92
10185,18,-239,47,-24,268,-91
10190,19,-239,47,-19,269,-93
10195,18,-240,49,-18,271,-92
10200,16,-239,51,-17,272,-96
10205,18,-240,51,-17,273,-95
10210,17,-241,48,-18,275,-95
10215,18,-242,52,-17,276,-94
10220,18,-242,46,-17,278,-96
10225,18,-242,51,-16,278,-92
10230,15,-240,46,-15,278,-93
10235,18,-242,52,-14,277,-89
10240,15,-239,51,-11,278,-90
10245,16,-240,49,-9,277,-88
10250,16,-239,47,-5,275,-89
10255,17,-240,47,-3,274,-87
10260,16,-241,49,-3,274,-88
10265,16,-241,53,-2,274,-86
10270,15,-239,50,-3,273,-89
10275,15,-239,49,-4,272,-85
10280,15,-240,49,-4,272,-88
10285,17,-241,52,-6,272,-88
10290,15,-242,47,-7,270,-89
10295,14,-240,52,-3,267,-89
10300,15,-238,50,-4,265,-92
10305,16,-238,46,-6,262,-92
10310,15,-241,49,-7,261,-94
10315,16,-240,48,-7,256,-93
10320,12,-241,48,-9,254,-94
10325,16,-241,53,-9,252,-91
10330,15,-243,54,-12,250,-90
10335,14,-239,49,-11,244,-85
10340,17,-239,50,-12,239,-86
10345,16,-236,47,-15,234,-83
10350,12,-237,48,-15,228,-79
10355,12,-238,49,-15,222,-77
10360,15,-239,51,-15,217,-75
10365,14,-240,50,-14,211,-71
10370,15,-241,47,-15,207,-69
10375,13,-242,51,-14,202,-66
10380,15,-241,47,-14,197,-64
10385,13,-241,52,-11,193,-61
10390,13,-240,50,-9,189,-58
10395,15,-241,47,-8,186,-55
10400,14,-240,50,-5,180,-52
10405,15,-242,48,-4,177,-48
10410,12,-243,48,-3,174,-44
10415,10,-241,52,-1,170,-43
10420,12,-242,47,1,165,-40
10425,11,-241,50,0,162,-38
10430,12,-240,50,0,157,-37
10435,11,-244,50,1,154,-36
10440,12,-245,49,3,150,-33
10445,12,-245,48,4,146,-33
10450,11,-242,51,6,139,-32
10455,12,-244,49,5,134,-30
10460,13,-245,52,6,130,-27
10465,12,-242,54,10,125,-27
10470,11,-242,51,15,121,-26
10475,14,-241,53,20,116,-29
10480,14,-243,52,25,111,-31
10485,12,-240,50,29,107,-33
10490,15,-241,54,31,105,-32
10495,16,-241,53,32,105,-32
10500,14,-241,54,33,103,-31
10505,17,-243,53,34,103,-32
10510,17,-241,52,36,100,-30
10515,18,-241,60,37,100,-32
10520,17,-242,56,39,98,-28
10525,19,-242,55,43,98,-27
10530,17,-242,57,44,95,-22
10535,19,-240,60,45,91,-22
10540,17,-239,58,46,88,-16
10545,18,-237,56,46,83,-16
10550,18,-236,55,45,80,-11
10555,20,-239,53,43,75,-10
10560,18,-236,54,41,74,-6
10565,20,-239,55,40,71,-6
10570,22,-239,57,36,69,-3
10575,18,-237,53,35,67,-3
10580,18,-237,55,35,65,1
10585,19,-241,54,34,64,-2
10590,20,-238,56,33,63,1
10595,17,-238,61,31,62,-2
10600,19,-237,57,30,63,0
10605,20,-242,58,29,64,-3
10610,19,-237,56,29,66,-1
10615,18,-240,53,28,67,-5
10620,20,-242,57,27,68,-3
10625,19,-241,57,28,71,-6
10630,19,-240,52,27,72,-5
10635,16,-239,52,27,73,-8
10640,18,-237,54,26,75,-5
10645,16,-238,55,26,76,-7
10650,20,-241,51,27,77,-5
10655,17,-236,54,27,78,-10
10660,15,-236,59,27,76,-6
10665,17,-236,55,27,76,-8
10670,19,-237,54,25,77,-6
10675,14,-238,54,23,77,-9
10680,19,-237,56,21,78,-5
10685,17,-239,55,20,77,-8
10690,15,-239,55,20,75,-7
10695,14,-240,53,20,73,-8
10700,15,-240,53,20,71,-6
10705,16,-238,57,23,69,-8
10710,16,-240,56,23,66,-6
10715,15,-240,56,24,63,-7
10720,17,-237,56,24,64,-3
10725,18,-241,55,24,63,-5
10730,19,-239,55,24,64,-3
10735,17,-237,54,25,63,-4
10740,21,-241,55,26,62,-2
10745,16,-240,56,28,62,-4
10750,20,-240,56,32,61,-1
10755,17,-240,55,35,61,-3
10760,19,-238,59,38,61,1
10765,17,-235,61,39,59,1
10770,17,-239,56,38,59,3
10775,18,-238,59,37,57,3
10780,19,-237,57,34,56,7
10785,18,-236,57,30,53,8
10790,15,-236,58,25,51,12
10795,17,-235,56,22,49,13
10800,17,-236,56,17,46,17
10805,18,-235,57,15,45,16
10810,17,-236,55,12,43,17
10815,18,-235,58,10,41,18
10820,17,-234,60,8,41,20
10825,17,-235,60,7,41,19
10830,17,-234,58,4,41,20
10835,19,-236,56,5,43,19
10840,19,-235,60,5,44,20
10845,17,-237,61,6,45,20
10850,20,-238,57,7,47,20
10855,23,-240,55,6,51,19
10860,20,-238,58,5,56,20
10865,21,-238,56,6,59,20
10870,23,-242,52,7,62,21
10875,23,-240,57,5,66,21
10880,23,-238,55,6,68,20
10885,23,-238,57,7,68,16
10890,25,-238,58,8,71,14
10895,25,-234,53,8,73,12
10900,23,-236,56,6,75,9
10905,30,-237,55,6,75,3
10910,26,-238,53,3,76,0
10915,23,-236,55,0,77,-2
10920,25,-237,57,-4,78,-4
10925,27,-237,54,-6,82,-5
10930,26,-239,56,-8,83,-8
10935,23,-236,56,-9,84,-12
10940,24,-240,58,-9,83,-14
10945,23,-235,54,-8,82,-17
10950,22,-235,56,-9,82,-20
10955,24,-238,58,-10,81,-21
10960,20,-236,60,-9,79,-25
10965,17,-236,61,-11,78,-25
10970,18,-235,55,-12,74,-25
10975,17,-239,61,-15,74,-22
10980,17,-237,58,-17,72,-21
10985,14,-237,60,-20,66,-17
10990,13,-237,56,-20,60,-16
10995,12,-239,56,-19,56,-13
11000,14,-242,59,-18,50,-12
11005,10,-244,59,-15,45,-11
11010,13,-243,52,-12,40,-10
11015,7,-241,56,-10,35,-10
11020,7,-240,60,-10,32,-11
11025,10,-243,56,-13,25,-9
11030,12,-241,55,-14,22,-11
11035,8,-243,54,-19,18,-10
11040,8,-243,55,-21,12,-12
11045,11,-243,59,-24,6,-10
11050,9,-242,55,-25,0,-9
11055,9,-243,55,-24,-7,-5
11060,9,-241,55,-24,-15,-5
11065,8,-240,55,-23,-23,-1
11070,11,-242,53,-20,-32,1
11075,11,-240,56,-15,-41,4
11080,11,-241,56,-10,-51,5
11085,10,-240,59,-2,-59,10
11090,11,-241,54,5,-64,10
11095,11,-240,57,11,-70,16
11100,13,-242,51,16,-74,17
11105,14,-239,53,21,-76,24
11110,16,-240,57,24,-79,23
11115,15,-238,53,28,-83,29
11120,17,-242,56,29,-87,29
11125,16,-238,57,30,-90,35
11130,14,-239,57,30,-92,35
11135,19,-240,53,27,-93,40
11140,17,-236,58,24,-96,40
11145,16,-237,55,19,-98,45
11150,18,-238,56,16,-100,46
11155,20,-235,57,14,-101,50
11160,17,-238,55,10,-103,50
11165,20,-237,59,8,-103,54
11170,20,-239,58,8,-102,51
11175,19,-238,60,9,-101,54
11180,17,-237,57,10,-100,53
11185,21,-237,58,11,-100,54
11190,23,-240,61,13,-97,51
11195,22,-239,55,15,-93,52
11200,23,-239,56,17,-90,48
11205,21,-240,57,18,-87,48
11210,19,-239,58,18,-85,45
11215,21,-236,61,15,-81,46
11220,20,-239,60,13,-79,43
11225,24,-240,60,11,-75,45
11230,22,-240,56,10,-72,42
11235,21,-238,58,8,-69,44
11240,18,-238,57,5,-67,42
11245,23,-240,55,4,-65,45
11250,22,-238,57,2,-63,45
11255,20,-237,57,1,-60,48
11260,22,-240,53,0,-58,47
11265,22,-239,57,-1,-55,49
11270,20,-236,57,-3,-51,48
11275,24,-240,61,-5,-46,49
11280,21,-237,60,-6,-42,48
11285,24,-237,55,-8,-41,49
11290,24,-237,57,-10,-37,47
11295,24,-238,56,-13,-34,49
11300,25,-238,54,-13,-30,45
11305,26,-239,59,-14,-25,45
11310,27,-239,57,-14,-21,41
11315,25,-237,60,-14,-18,40
11320,25,-236,62,-13,-14,38
11325,27,-239,58,-11,-10,38
11330,25,-240,58,-12,-3,32
11335,27,-237,60,-12,2,30
11340,27,-236,55,-14,8,26
11345,31,-239,57,-14,16,25
11350,28,-236,58,-14,24,19
11355,28,-241,57,-11,31,15
11360,30,-241,57,-9,40,6
11365,29,-240,58,-5,52,2
11370,28,-239,56,-5,61,-4
11375,30,-237,59,-5,67,-11
11380,28,-239,57,-5,77,-17
11385,29,-238,54,-6,86,-20
11390,30,-236,60,-9,98,-26
11395,32,-236,56,-11,106,-30
11400,29,-238,58,-13,115,-36
11405,29,-233,56,-16,123,-40
11410,30,-234,57,-16,132,-45
11415,28,-236,58,-14,141,-49
11420,28,-235,59,-12,150,-53
11425,28,-236,58,-9,158,-57
11430,27,-236,60,-7,165,-60
11435,27,-236,62,-2,173,-63
11440,26,-234,60,1,181,-68
11445,27,-237,58,5,190,-71
11450,25,-234,60,7,200,-74
11455,28,-237,57,9,210,-78
11460,23,-236,60,6,219,-80
11465,24,-236,57,3,228,-82
11470,25,-233,54,0,236,-84
11475,25,-234,60,-5,243,-84
11480,20,-234,59,-11,248,-85
11485,24,-237,57,-16,252,-84
11490,24,-238,59,-20,256,-83
11495,22,-234,56,-23,257,-83
11500,19,-241,56,-26,261,-81
11505,23,-237,57,-26,263,-81
11510,21,-237,57,-28,265,-81
11515,19,-235,58,-28,268,-81
11520,20,-238,57,-28,269,-79
11525,21,-240,60,-27,268,-79
11530,16,-236,57,-26,268,-77
11535,15,-238,63,-21,267,-77
11540,15,-240,55,-19,265,-74
11545,16,-241,59,-17,262,-73
11550,10,-237,58,-11,259,-69
11555,7,-232,62,-6,255,-67
11560,10,-243,60,-1,252,-64
11565,12,-239,57,3,246,-62
11570,10,-239,57,4,240,-59
11575,10,-238,58,3,234,-58
11580,8,-236,62,2,227,-56
11585,13,-240,61,-1,222,-55
11590,9,-234,60,-7,214,-50
11595,11,-239,59,-12,206,-50
11600,9,-239,57,-16,197,-45
11605,10,-239,61,-17,191,-46
11610,7,-235,62,-16,184,-43
11615,8,-242,58,-13,176,-43
11620,3,-238,61,-10,169,-40
11625,4,-235,60,-5,159,-40
11630,7,-239,58,-1,149,-36
11635,7,-236,59,3,140,-37
11640,9,-238,62,3,133,-33
11645,7,-238,59,2,121,-33
11650,8,-236,59,0,113,-26
11655,9,-235,57,-4,105,-26
11660,13,-234,57,-5,99,-22
11665,10,-236,56,-7,91,-23
11670,11,-236,58,-10,85,-18
11675,11,-236,60,-12,80,-20
11680,14,-235,60,-12,77,-17
11685,13,-235,62,-13,70,-19
11690,13,-235,60,-12,67,-14
11695,16,-238,60,-11,62,-15
11700,12,-236,62,-10,59,-11
11705,13,-238,59,-9,55,-13
11710,10,-237,60,-7,50,-9
11715,11,-237,58,-7,46,-12
11720,12,-241,55,-6,40,-8
11725,9,-240,61,-6,33,-8
11730,12,-242,58,-6,27,-4
11735,10,-242,59,-5,19,-3
11740,8,-241,54,-5,11,3
11745,10,-242,58,-3,2,5
11750,9,-243,60,-3,-7,11
11755,14,-241,57,-4,-17,14
11760,7,-239,57,-4,-27,21
11765,10,-241,59,-2,-36,22
11770,13,-241,59,-2,-41,29
11775,18,-236,59,-1,-44,30
11780,17,-241,60,0,-49,36
11785,12,-239,58,2,-52,36
11790,16,-238,56,3,-53,42
11795,17,-240,55,6,-54,43
11800,16,-240,56,9,-55,47
11805,14,-238,55,11,-56,47
11810,18,-238,54,10,-55,50
11815,18,-234,57,11,-55,50
11820,18,-236,61,10,-57,52
11825,16,-234,61,9,-56,50
11830,22,-238,56,6,-57,51
11835,19,-235,61,3,-57,49
11840,22,-236,61,-1,-59,52
11845,23,-234,59,-2,-60,49
11850,19,-236,61,-5,-59,50
11855,25,-235,60,-6,-59,47
11860,21,-237,60,-9,-59,48
11865,21,-236,61,-9,-58,45
11870,22,-236,61,-8,-56,44
11875,21,-238,63,-8,-54,42
11880,24,-242,61,-5,-53,41
11885,26,-243,57,-5,-49,39
11890,24,-240,54,-2,-46,37
11895,28,-242,59,0,-43,36
11900,22,-238,59,0,-38,37
11905,22,-237,59,-2,-34,31
11910,23,-236,56,-4,-30,29
11915,25,-239,57,-8,-24,26
11920,23,-240,55,-13,-19,23
11925,23,-237,57,-16,-14,19
11930,24,-236,58,-16,-10,18
11935,26,-238,59,-14,-6,15
11940,24,-238,59,-12,-2,15
11945,25,-237,59,-9,2,12
11950,22,-236,62,-6,4,11
11955,24,-237,59,-3,8,9
11960,28,-240,57,0,12,8
11965,22,-236,62,3,17,8
11970,26,-237,61,7,22,7
11975,26,-238,60,6,27,5
11980,28,-238,59,6,32,3
11985,28,-238,59,6,37,4
11990,27,-238,65,7,44,1
11995,21,-239,63,8,51,-1
