timestamp,acc_x,acc_y,acc_z,gyro_x,gyro_y,gyro_z
0,29,-233,-113,-3,57,-8
5,24,-230,-114,6,56,-5
10,28,-233,-112,13,54,-6
15,27,-231,-115,19,53,-3
20,28,-230,-115,24,53,-5
25,23,-229,-114,27,54,-3
30,24,-229,-116,29,54,-3
35,28,-230,-115,28,53,-2
40,24,-228,-111,28,53,-3
45,28,-230,-116,30,55,-1
50,26,-231,-114,34,56,-2
55,26,-232,-112,36,56,-1
60,26,-228,-113,37,57,-3
65,27,-229,-115,36,59,-2
70,23,-228,-117,33,59,-5
75,24,-227,-115,29,61,-3
80,25,-228,-115,24,61,-4
85,24,-227,-114,19,61,-3
90,29,-228,-115,13,62,-6
95,25,-228,-115,10,62,-3
100,23,-227,-112,8,62,-4
105,26,-230,-118,6,61,-3
110,26,-225,-108,4,60,-4
115,35,-227,-108,0,58,-1
120,31,-234,-105,0,59,-3
125,24,-240,-110,-2,60,1
130,17,-232,-112,-3,59,-2
135,33,-231,-116,-4,61,0
140,32,-226,-105,-4,59,-3
145,29,-232,-119,-3,60,-1
150,31,-233,-102,-2,59,-3
155,30,-231,-108,-1,59,-1
160,29,-228,-112,2,61,-3
165,28,-225,-106,8,61,0
170,21,-234,-116,10,60,-2
175,24,-231,-111,15,59,2
180,27,-233,-112,18,61,-1
185,19,-235,-115,20,59,3
190,25,-230,-113,21,60,1
195,19,-237,-101,20,59,5
200,27,-228,-117,20,60,5
205,27,-233,-112,19,59,8
210,21,-228,-109,16,60,6
215,26,-230,-112,14,61,10
220,28,-231,-114,12,61,9
225,27,-230,-113,10,62,12
230,26,-232,-114,8,60,9
235,25,-228,-111,9,62,12
240,28,-231,-112,11,62,8
245,29,-231,-117,10,63,11
250,24,-228,-115,7,64,8
255,27,-232,-114,5,62,10
260,27,-230,-114,4,62,9
265,26,-232,-111,-1,63,10
270,25,-227,-111,-4,63,8
275,27,-231,-112,-8,65,10
280,25,-232,-111,-12,63,7
285,27,-231,-113,-15,63,8
290,26,-229,-111,-18,64,5
295,27,-230,-111,-21,61,8
300,24,-229,-110,-22,60,4
305,26,-233,-110,-23,58,7
310,25,-234,-111,-21,57,6
315,26,-232,-110,-20,56,7
320,25,-231,-115,-17,55,4
325,23,-232,-111,-14,53,5
330,23,-229,-114,-12,51,2
335,24,-230,-111,-6,51,4
340,24,-233,-114,-4,50,0
345,24,-232,-112,-1,50,2
350,26,-235,-111,2,49,-2
355,25,-231,-114,3,47,-2
360,25,-229,-111,3,46,-5
365,25,-232,-111,1,43,-3
370,26,-233,-112,1,42,-6
375,25,-231,-114,2,41,-5
380,24,-232,-111,4,41,-8
385,25,-235,-113,9,40,-6
390,24,-233,-111,15,37,-8
395,24,-234,-112,20,36,-8
400,22,-228,-112,25,35,-12
405,23,-233,-112,31,35,-10
410,22,-235,-114,37,34,-15
415,24,-230,-110,41,32,-15
420,27,-233,-110,42,32,-18
425,27,-231,-111,45,31,-18
430,21,-232,-114,45,32,-22
435,27,-235,-109,46,31,-22
440,24,-232,-113,46,30,-25
445,24,-228,-115,46,28,-23
450,25,-233,-111,44,27,-26
455,24,-229,-111,40,25,-24
460,24,-232,-112,39,23,-26
465,22,-233,-108,36,22,-24
470,24,-230,-109,34,20,-25
475,20,-233,-114,32,18,-25
480,24,-230,-112,30,17,-28
485,25,-229,-112,28,17,-28
490,25,-229,-110,27,17,-28
495,25,-229,-110,26,13,-26
500,24,-228,-113,25,12,-26
505,27,-231,-110,24,11,-24
510,23,-229,-114,24,13,-25
515,27,-231,-112,23,12,-24
520,27,-227,-110,21,15,-26
525,23,-229,-107,18,15,-22
530,26,-231,-108,18,16,-23
535,28,-234,-112,16,17,-20
540,25,-236,-108,15,18,-21
545,25,-232,-107,14,19,-19
550,29,-231,-108,17,19,-20
555,27,-235,-112,19,20,-15
560,28,-234,-108,23,19,-16
565,27,-232,-108,24,19,-13
570,24,-235,-108,25,17,-13
575,26,-233,-111,28,18,-10
580,27,-232,-111,29,16,-11
585,27,-230,-109,28,17,-8
590,25,-234,-110,26,16,-8
595,24,-232,-111,23,17,-5
600,24,-231,-107,18,18,-4
605,26,-232,-106,10,19,0
610,26,-233,-108,4,19,-3
615,23,-232,-112,-2,22,-1
620,24,-232,-114,-7,23,-2
625,25,-233,-109,-10,25,-1
630,23,-229,-108,-14,24,-3
635,24,-232,-112,-14,25,-1
640,25,-233,-109,-12,25,-4
645,28,-234,-112,-8,26,-3
650,25,-232,-106,-7,27,-6
655,25,-229,-109,-6,26,-5
660,24,-233,-105,-4,23,-7
665,28,-231,-109,0,23,-6
670,26,-231,-112,2,22,-7
675,26,-231,-109,3,23,-7
680,25,-231,-111,4,20,-7
685,23,-229,-109,5,21,-6
690,24,-229,-112,4,20,-7
695,27,-231,-109,0,18,-5
700,24,-230,-108,-5,21,-4
705,24,-229,-110,-12,21,-3
710,21,-231,-112,-20,21,-2
715,22,-232,-104,-27,23,-1
720,26,-233,-107,-36,25,-1
725,25,-232,-106,-43,26,-1
730,25,-231,-111,-50,27,-2
735,23,-231,-111,-55,27,0
740,24,-230,-107,-60,25,-2
745,26,-233,-109,-62,26,-2
750,23,-232,-110,-64,27,-2
755,24,-234,-111,-65,28,-2
760,25,-232,-109,-64,29,-2
765,27,-233,-106,-62,29,-3
770,26,-233,-108,-58,33,-4
775,25,-233,-110,-54,34,-2
780,24,-233,-113,-52,35,-3
785,24,-234,-113,-49,36,-1
790,28,-234,-110,-44,37,-1
795,24,-235,-109,-40,37,-1
800,25,-234,-113,-37,38,-4
805,26,-230,-109,-31,41,-4
810,24,-232,-115,-28,43,-5
815,25,-232,-113,-25,43,-3
820,24,-233,-112,-20,43,-4
825,25,-234,-113,-14,46,-3
830,22,-231,-113,-8,47,-6
835,25,-234,-110,-2,48,-4
840,25,-232,-113,2,47,-7
845,25,-231,-109,8,45,-6
850,22,-232,-114,12,44,-7
855,24,-231,-111,16,44,-7
860,26,-232,-107,18,44,-8
865,25,-232,-108,17,41,-6
870,24,-232,-107,16,41,-6
875,22,-233,-109,15,38,-7
880,24,-229,-111,11,37,-6
885,25,-232,-108,4,39,-7
890,23,-232,-108,-3,40,-7
895,28,-233,-109,-10,41,-7
900,26,-231,-109,-16,42,-7
905,23,-232,-109,-22,45,-5
910,25,-232,-111,-28,46,-4
915,24,-231,-115,-31,49,-3
920,26,-231,-110,-34,51,-3
925,26,-231,-113,-36,51,-3
930,26,-230,-113,-35,53,-2
935,26,-231,-112,-35,53,-1
940,29,-233,-110,-35,52,-1
945,26,-230,-111,-33,52,-1
950,30,-234,-111,-33,50,-2
955,24,-234,-110,-30,48,-2
960,27,-232,-108,-24,48,-3
965,24,-233,-112,-18,50,-3
970,24,-233,-111,-11,49,-2
975,21,-235,-113,-6,50,-4
980,25,-233,-113,0,51,-2
985,21,-230,-113,4,51,-5
990,26,-232,-112,7,52,-4
995,24,-231,-112,11,54,-4
1000,24,-235,-111,12,57,-5
1005,27,-232,-110,15,58,-6
1010,25,-233,-105,20,58,-5
1015,24,-235,-108,21,56,-6
1020,23,-231,-109,23,56,-6
1025,23,-232,-109,26,55,-9
1030,25,-230,-109,28,55,-9
1035,22,-231,-108,27,54,-12
1040,22,-228,-110,26,55,-10
1045,26,-231,-111,24,54,-11
1050,25,-232,-109,20,52,-9
1055,27,-233,-107,17,54,-8
1060,24,-231,-107,13,57,-8
1065,23,-233,-107,12,59,-8
1070,27,-235,-107,10,63,-7
1075,27,-234,-108,11,65,-8
1080,24,-233,-110,11,68,-7
1085,28,-234,-110,12,71,-9
1090,27,-234,-110,16,73,-9
1095,29,-239,-106,18,78,-10
1100,26,-234,-110,20,81,-10
1105,26,-235,-107,26,84,-10
1110,27,-236,-108,32,86,-10
1115,24,-235,-109,39,87,-12
1120,25,-233,-108,45,89,-10
1125,26,-235,-111,55,90,-12
1130,25,-233,-110,60,92,-11
1135,23,-233,-109,64,92,-13
1140,25,-232,-110,65,94,-11
1145,23,-231,-108,63,95,-13
1150,24,-229,-105,59,97,-12
1155,23,-228,-107,52,101,-15
1160,25,-228,-106,42,101,-14
1165,22,-231,-103,33,101,-15
1170,26,-232,-105,22,101,-15
1175,22,-231,-105,12,102,-17
1180,24,-230,-108,4,101,-17
1185,21,-230,-106,-6,103,-18
1190,22,-228,-109,-13,104,-19
1195,24,-234,-105,-19,103,-22
1200,23,-231,-105,-25,101,-23
1205,22,-231,-105,-28,100,-27
1210,22,-231,-104,-31,98,-27
1215,22,-232,-103,-33,98,-29
1220,24,-230,-112,-34,95,-27
1225,23,-232,-105,-33,92,-30
1230,23,-232,-105,-35,91,-30
1235,24,-233,-107,-37,91,-32
1240,22,-234,-110,-39,88,-29
1245,23,-234,-108,-40,87,-32
1250,24,-235,-108,-41,86,-29
1255,22,-234,-111,-39,88,-33
1260,22,-236,-110,-37,89,-31
1265,25,-236,-113,-33,90,-34
1270,26,-238,-109,-25,91,-34
1275,26,-236,-108,-16,89,-39
1280,24,-236,-112,-5,92,-38
1285,23,-235,-111,9,91,-40
1290,24,-235,-109,19,90,-38
1295,23,-233,-106,29,92,-42
1300,25,-233,-108,38,91,-41
1305,23,-232,-111,41,90,-43
1310,24,-233,-112,41,90,-40
1315,26,-231,-105,41,91,-42
1320,24,-230,-111,39,90,-39
1325,27,-231,-107,35,90,-40
1330,26,-234,-105,29,88,-37
1335,22,-231,-105,23,86,-37
1340,24,-233,-109,18,85,-34
1345,28,-234,-106,10,85,-36
1350,25,-231,-108,5,82,-31
1355,25,-233,-105,1,83,-34
1360,26,-234,-105,-2,81,-31
1365,27,-234,-109,-5,80,-34
1370,25,-231,-105,-7,79,-31
1375,27,-232,-105,-8,79,-31
1380,27,-232,-109,-8,77,-29
1385,25,-231,-107,-8,76,-31
1390,26,-233,-107,-7,74,-28
1395,25,-234,-107,-5,72,-30
1400,26,-229,-109,-3,70,-28
1405,26,-232,-107,-2,72,-32
1410,26,-232,-105,-1,71,-29
1415,26,-231,-106,1,71,-32
1420,27,-234,-108,1,70,-29
1425,26,-232,-106,0,71,-31
1430,25,-235,-105,-1,72,-30
1435,27,-233,-104,-3,72,-32
1440,25,-232,-107,-5,73,-30
1445,24,-230,-104,-7,71,-32
1450,25,-233,-105,-10,72,-30
1455,26,-232,-108,-13,73,-32
1460,30,-233,-105,-16,71,-30
1465,28,-235,-106,-18,70,-33
1470,29,-235,-109,-22,68,-30
1475,26,-233,-113,-24,69,-31
1480,28,-233,-109,-23,70,-28
1485,27,-235,-111,-24,71,-31
1490,27,-228,-108,-23,71,-29
1495,26,-234,-109,-22,71,-30
1500,28,-232,-109,-19,73,-27
1505,28,-230,-108,-15,76,-30
1510,27,-230,-107,-15,78,-26
1515,28,-232,-106,-13,80,-27
1520,26,-231,-104,-13,80,-24
1525,26,-231,-109,-13,80,-25
1530,27,-229,-106,-15,80,-22
1535,27,-228,-104,-21,81,-23
1540,29,-228,-106,-26,78,-19
1545,27,-228,-108,-33,75,-21
1550,29,-230,-105,-45,74,-15
1555,28,-228,-110,-55,71,-15
1560,25,-229,-106,-68,69,-12
1565,28,-229,-107,-82,66,-16
1570,28,-230,-111,-91,66,-14
1575,26,-226,-109,-104,65,-16
1580,26,-229,-110,-114,64,-14
1585,28,-231,-108,-123,64,-14
1590,28,-233,-105,-126,64,-10
1595,29,-228,-109,-124,64,-13
1600,27,-235,-109,-121,65,-10
1605,29,-233,-107,-115,65,-13
1610,30,-234,-110,-104,64,-9
1615,31,-235,-107,-92,64,-12
1620,30,-237,-109,-82,64,-10
1625,30,-236,-108,-71,63,-12
1630,29,-232,-109,-63,64,-9
1635,32,-236,-109,-56,64,-10
1640,29,-235,-107,-50,62,-5
1645,31,-235,-108,-44,61,-6
1650,33,-235,-109,-42,59,-2
1655,31,-235,-114,-40,58,-2
1660,32,-237,-109,-41,57,1
1665,31,-236,-114,-40,58,1
1670,31,-234,-114,-40,58,5
1675,29,-235,-112,-38,60,6
1680,29,-232,-111,-37,61,9
1685,30,-235,-112,-32,62,8
1690,29,-234,-112,-26,63,11
1695,30,-234,-112,-21,65,9
1700,30,-234,-112,-13,66,9
1705,30,-232,-112,-6,64,6
1710,30,-230,-110,1,65,8
1715,26,-231,-106,11,65,5
1720,31,-230,-107,15,66,8
1725,33,-230,-108,17,66,5
1730,27,-229,-106,15,66,6
1735,29,-231,-109,12,65,4
1740,31,-230,-107,8,63,5
1745,31,-227,-111,0,61,4
1750,32,-231,-106,-7,59,3
1755,29,-232,-109,-13,58,2
1760,32,-232,-112,-19,56,3
1765,26,-230,-106,-23,55,3
1770,30,-233,-107,-27,54,5
1775,31,-232,-111,-30,55,2
1780,31,-231,-109,-32,53,6
1785,31,-232,-109,-34,54,6
1790,31,-231,-112,-34,54,8
1795,30,-233,-114,-32,54,8
1800,32,-234,-111,-32,54,12
1805,33,-231,-111,-31,54,12
1810,32,-233,-107,-30,54,13
1815,31,-233,-110,-27,54,14
1820,31,-237,-112,-26,55,16
1825,35,-233,-110,-21,54,15
1830,32,-231,-112,-16,55,18
1835,34,-235,-105,-14,55,17
1840,28,-235,-108,-11,55,17
1845,31,-237,-110,-7,54,15
1850,29,-232,-112,-2,55,16
1855,28,-232,-111,3,56,16
1860,28,-233,-111,10,57,16
1865,31,-233,-111,16,58,13
1870,28,-231,-111,21,58,13
1875,27,-233,-109,22,59,11
1880,30,-232,-110,23,59,12
1885,31,-230,-108,27,59,9
1890,27,-229,-108,26,58,9
1895,29,-231,-107,27,56,6
1900,30,-235,-106,26,55,6
1905,30,-230,-106,24,55,3
1910,42,-227,-97,22,57,4
1915,27,-233,-111,17,56,2
1920,28,-229,-103,15,55,2
1925,28,-233,-111,12,54,-1
1930,28,-231,-110,9,54,-2
1935,30,-232,-109,6,55,-2
1940,33,-232,-108,4,57,-1
1945,29,-231,-107,5,57,-2
1950,30,-231,-110,5,57,-3
1955,30,-232,-107,4,56,-6
1960,31,-233,-110,3,56,-3
1965,27,-234,-103,2,58,-4
1970,30,-234,-108,-1,55,-3
1975,30,-235,-110,-4,54,-4
1980,31,-233,-107,-10,54,-3
1985,29,-235,-109,-11,52,-4
1990,27,-234,-109,-12,52,-2
1995,26,-233,-109,-12,48,-3
2000,28,-233,-110,-12,47,-3
2005,29,-234,-105,-10,45,-2
2010,31,-235,-109,-8,44,-3
2015,25,-234,-110,-4,44,-5
2020,29,-231,-108,0,44,-4
2025,29,-234,-107,3,45,-5
2030,26,-231,-110,7,45,-6
2035,28,-232,-109,9,45,-6
2040,28,-231,-109,8,47,-6
2045,28,-229,-111,6,48,-7
2050,28,-233,-106,4,49,-6
2055,29,-230,-110,-2,49,-6
2060,27,-229,-108,-8,52,-6
2065,27,-229,-109,-14,53,-6
2070,29,-234,-107,-18,52,-5
2075,26,-231,-109,-20,51,-6
2080,28,-231,-106,-22,50,-8
2085,26,-230,-106,-26,48,-8
2090,27,-230,-109,-29,46,-10
2095,23,-229,-108,-35,45,-12
2100,24,-229,-112,-40,42,-13
2105,28,-229,-109,-46,41,-15
2110,26,-230,-114,-53,40,-12
2115,26,-231,-110,-58,37,-13
2120,24,-231,-111,-61,37,-11
2125,26,-232,-109,-67,35,-12
2130,24,-232,-110,-68,35,-13
2135,27,-233,-106,-68,34,-11
2140,28,-233,-109,-66,36,-11
2145,25,-234,-108,-65,36,-8
2150,25,-233,-107,-62,36,-10
2155,26,-233,-110,-56,37,-11
2160,28,-233,-110,-53,38,-11
2165,28,-232,-111,-51,38,-9
2170,26,-230,-111,-49,38,-8
2175,28,-234,-109,-45,36,-9
2180,26,-230,-109,-45,36,-8
2185,27,-233,-107,-44,34,-8
2190,24,-232,-109,-45,34,-8
2195,25,-234,-107,-43,34,-6
2200,27,-234,-111,-44,34,-5
2205,24,-233,-111,-48,32,-4
2210,23,-232,-110,-52,31,-3
2215,26,-233,-111,-56,32,-2
2220,24,-230,-109,-57,31,0
2225,27,-234,-113,-58,30,0
2230,27,-234,-113,-57,31,-2
2235,28,-235,-109,-54,33,-1
2240,27,-234,-111,-51,35,-2
2245,28,-236,-110,-49,36,-2
2250,28,-235,-108,-45,38,-4
2255,28,-233,-110,-42,38,-5
2260,24,-231,-112,-40,39,-6
2265,27,-232,-112,-37,38,-7
2270,28,-233,-109,-34,38,-8
2275,25,-233,-109,-34,38,-8
2280,26,-233,-111,-31,36,-8
2285,28,-235,-109,-27,36,-9
2290,29,-231,-115,-25,36,-10
2295,30,-234,-110,-22,37,-8
2300,27,-230,-110,-23,37,-9
2305,28,-228,-114,-25,38,-7
2310,29,-229,-113,-27,37,-7
2315,27,-230,-110,-34,36,-5
2320,27,-227,-114,-45,37,-4
2325,29,-230,-111,-54,36,-2
2330,29,-231,-110,-64,38,-1
2335,29,-231,-115,-74,37,0
2340,25,-232,-113,-80,35,-1
2345,28,-229,-110,-86,36,1
2350,28,-233,-111,-89,36,-1
2355,25,-234,-114,-87,35,2
2360,25,-231,-116,-84,33,-1
2365,27,-234,-113,-78,31,-1
2370,25,-231,-110,-69,28,-3
2375,28,-233,-117,-60,25,-1
2380,26,-231,-112,-53,26,-4
2385,25,-233,-116,-46,27,-3
2390,26,-233,-111,-41,29,-3
2395,27,-233,-112,-39,30,-2
2400,28,-231,-112,-36,30,-4
2405,24,-230,-116,-38,32,-3
2410,29,-230,-115,-39,34,-5
2415,27,-231,-113,-42,35,-1
2420,29,-231,-114,-44,36,-3
2425,27,-229,-117,-46,37,-2
2430,29,-228,-110,-48,38,-3
2435,28,-231,-113,-45,39,-2
2440,28,-228,-111,-38,35,-6
2445,28,-233,-113,-32,30,-7
2450,28,-231,-111,-30,27,-11
2455,30,-232,-112,-35,24,-10
2460,28,-227,-112,-50,26,-12
2465,27,-231,-105,-61,29,-7
2470,25,-241,-100,-59,30,-1
2475,32,-258,-90,-31,39,12
2480,33,-275,-83,36,41,22
2485,37,-294,-63,129,27,36
2490,34,-293,-61,259,4,45
2495,32,-234,-105,381,-3,67
2500,24,-104,-216,288,38,101
2505,38,47,-396,-348,120,91
2510,57,89,-439,-1767,203,-44
2515,48,-57,-244,-3462,197,-240
2520,46,-278,-35,-4346,42,-306
2525,61,-440,10,-3987,-140,-208
2530,66,-476,-22,-2805,-140,-113
2535,59,-398,-176,-1191,54,-133
2540,35,-223,-347,-363,282,-182
2545,4,-50,-436,-257,412,-193
2550,-11,29,-438,-686,415,-158
2555,-6,32,-347,-1328,293,-79
2560,7,-3,-269,-1820,178,12
2565,21,-30,-215,-2091,107,103
2570,21,-31,-196,-2169,82,167
2575,13,-13,-191,-2115,91,212
2580,7,-3,-191,-1974,110,243
2585,1,4,-192,-1741,108,273
2590,-11,-1,-202,-1346,85,275
2595,-12,-4,-201,-950,43,257
2600,-16,-4,-192,-529,-9,222
2605,-20,-5,-176,-128,-56,203
2610,-24,-2,-143,210,-95,191
2615,-26,3,-110,461,-129,184
2620,-35,4,-81,613,-160,165
2625,-32,7,-50,670,-189,142
2630,-38,13,-20,634,-219,97
2635,-38,20,0,508,-256,46
2640,-38,28,14,248,-323,-15
2645,-40,31,26,-51,-384,-53
2650,-40,30,37,-399,-435,-89
2655,-29,22,47,-758,-460,-118
2660,-16,16,47,-1100,-458,-156
2665,-12,4,35,-1410,-433,-191
2670,-11,0,16,-1679,-396,-228
2675,-2,-4,-7,-1917,-370,-257
2680,1,-9,-34,-2122,-358,-287
2685,5,-6,-51,-2296,-356,-308
2690,12,-9,-86,-2436,-349,-336
2695,16,-12,-112,-2555,-326,-354
2700,23,-13,-135,-2617,-301,-373
2705,26,-17,-158,-2662,-277,-392
2710,29,-21,-176,-2694,-257,-414
2715,39,-24,-193,-2733,-250,-438
2720,45,-24,-217,-2781,-257,-476
2725,47,-21,-237,-2845,-271,-507
2730,48,-6,-259,-2933,-294,-531
2735,45,4,-279,-3072,-315,-540
2740,35,9,-285,-3290,-329,-540
2745,28,-12,-269,-3555,-339,-522
2750,31,-52,-233,-3830,-348,-503
2755,24,-96,-201,-3938,-349,-472
2760,29,-135,-179,-3931,-331,-424
2765,31,-161,-174,-3857,-307,-363
2770,35,-200,-169,-3774,-300,-307
2775,30,-229,-184,-3712,-312,-241
2780,33,-258,-208,-3726,-344,-179
2785,33,-283,-245,-3885,-398,-103
2790,46,-325,-278,-4226,-448,3
2795,62,-377,-322,-4736,-483,118
2800,70,-411,-351,-5294,-479,200
2805,46,-359,-408,-5843,-406,202
2810,63,-293,-463,-6218,-306,219
2815,55,-266,-472,-6334,-174,247
2820,56,-304,-501,-6001,-56,247
2825,66,-299,-504,-5250,1,259
2830,72,-313,-480,-4211,21,268
2835,67,-323,-423,-3058,66,286
2840,69,-325,-384,-1917,137,250
2845,67,-306,-344,-847,206,192
2850,68,-254,-332,52,260,112
2855,79,-165,-297,665,303,12
2860,77,-74,-273,986,329,-33
2865,71,-5,-249,950,364,-45
2870,29,45,-229,738,403,-28
2875,57,69,-222,438,456,14
2880,31,70,-178,89,493,57
2885,29,88,-177,-248,493,69
2890,11,78,-179,-655,490,84
2895,37,47,-220,-1001,418,140
2900,57,16,-232,-1358,361,150
2905,22,-26,-238,-1789,393,169
2910,8,-50,-294,-2094,279,214
2915,11,-63,-294,-2267,189,176
2920,12,-76,-291,-2393,158,142
2925,8,-96,-292,-2485,176,119
2930,-21,-101,-281,-2473,177,38
2935,22,-82,-291,-2429,159,-52
2940,18,-80,-296,-2389,124,-76
2945,13,-107,-302,-2343,69,-37
2950,18,-43,-300,-2259,-7,-1
2955,7,-30,-303,-2102,-82,123
2960,-9,-16,-296,-1915,-125,258
2965,5,-31,-315,-1642,-189,337
2970,-8,-12,-321,-1397,-201,393
2975,-12,-7,-316,-1148,-199,473
2980,-13,-13,-317,-922,-178,501
2985,4,-17,-321,-713,-154,488
2990,10,-22,-309,-520,-118,455
2995,18,-17,-309,-337,-105,420
3000,20,-4,-293,-164,-95,378
3005,26,-4,-276,-22,-84,339
3010,16,1,-275,73,-81,288
3015,25,13,-271,129,-73,229
3020,25,11,-270,180,-51,187
3025,14,3,-265,228,-23,157
3030,14,-2,-269,263,6,127
3035,10,-3,-268,279,45,100
3040,15,-3,-278,283,76,72
3045,15,-4,-273,292,102,58
3050,14,-9,-275,304,117,43
3055,15,-1,-268,311,129,38
3060,9,-9,-282,335,133,54
3065,10,-8,-282,359,138,73
3070,7,-7,-287,387,134,96
3075,0,-5,-291,408,123,108
3080,7,-12,-294,427,103,112
3085,4,-5,-298,457,77,121
3090,9,-3,-305,505,44,127
3095,17,-4,-308,558,17,127
3100,22,-6,-312,615,-2,119
3105,29,1,-307,661,-15,117
3110,33,3,-308,685,-15,108
3115,32,4,-304,705,-13,114
3120,36,11,-303,721,-10,120
3125,36,10,-299,720,8,134
3130,34,8,-293,699,19,152
3135,24,17,-278,663,25,181
3140,26,13,-283,652,22,204
3145,25,5,-286,681,5,229
3150,26,-2,-299,726,-12,248
3155,27,-4,-301,770,-26,264
3160,30,-8,-304,816,-26,268
3165,31,-4,-306,860,-13,272
3170,27,-4,-305,899,4,271
3175,22,-4,-303,927,18,276
3180,17,-5,-298,947,27,278
3185,18,-9,-296,957,29,287
3190,16,-18,-288,965,31,289
3195,15,-20,-288,969,30,292
3200,14,-23,-284,981,27,289
3205,13,-25,-284,994,22,286
3210,14,-22,-278,1006,21,280
3215,14,-20,-275,1019,23,272
3220,13,-24,-274,1034,21,262
3225,16,-25,-280,1051,19,256
3230,16,-29,-277,1069,18,246
3235,18,-31,-276,1091,21,242
3240,19,-33,-281,1113,26,238
3245,16,-38,-277,1131,35,241
3250,19,-38,-281,1146,47,244
3255,16,-45,-280,1164,59,250
3260,18,-50,-279,1177,68,256
3265,17,-54,-276,1192,75,269
3270,15,-56,-274,1204,82,279
3275,12,-55,-272,1213,88,290
3280,8,-57,-271,1221,92,300
3285,7,-59,-269,1231,93,308
3290,10,-60,-269,1245,92,313
3295,11,-60,-269,1266,86,320
3300,7,-63,-264,1293,77,326
3305,9,-65,-266,1318,64,336
3310,10,-62,-264,1341,49,346
3315,12,-68,-256,1361,32,354
3320,18,-69,-259,1382,21,360
3325,18,-71,-258,1400,13,365
3330,16,-79,-253,1411,6,368
3335,17,-76,-251,1426,4,372
3340,14,-84,-248,1445,7,375
3345,15,-87,-251,1468,17,378
3350,12,-90,-247,1488,29,381
3355,12,-85,-236,1500,41,384
3360,12,-82,-227,1490,48,389
3365,11,-88,-225,1477,47,394
3370,2,-105,-221,1487,50,393
3375,3,-132,-224,1496,57,395
3380,-23,-130,-244,1493,65,397
3385,15,-153,-256,1485,44,371
3390,2,-194,-271,1512,40,375
3395,-9,-245,-288,1541,37,388
3400,-31,-283,-307,1504,25,380
3405,-44,-341,-350,1430,21,335
3410,-46,-402,-426,1377,41,229
3415,-51,-398,-509,1326,73,94
3420,-29,-322,-571,1231,73,-27
3425,3,-230,-582,1097,33,-110
3430,42,-153,-564,971,-10,-155
3435,76,-106,-534,897,-33,-148
3440,96,-79,-507,893,-34,-91
3445,114,-81,-456,946,-15,9
3450,119,-94,-396,1057,3,102
3455,95,-94,-320,1224,-8,208
3460,61,-72,-237,1423,-54,309
3465,32,-30,-153,1577,-117,410
3470,12,9,-95,1643,-178,500
3475,3,26,-53,1630,-224,553
3480,-5,30,-42,1566,-236,550
3485,-16,31,-41,1480,-212,500
3490,-27,18,-51,1373,-159,411
3495,-38,1,-76,1248,-92,300
3500,-46,-22,-105,1056,-8,161
3505,-52,-50,-135,859,54,63
3510,-47,-80,-158,636,108,-19
3515,-42,-103,-172,407,143,-83
3520,-33,-130,-185,190,162,-131
3525,-33,-158,-200,5,165,-167
3530,-28,-178,-204,-140,152,-190
3535,-17,-196,-208,-241,125,-204
3540,-11,-206,-213,-299,89,-205
3545,-10,-211,-216,-314,54,-204
3550,0,-213,-211,-290,21,-199
3555,-3,-212,-215,-208,2,-206
3560,-1,-213,-214,-99,4,-214
3565,-6,-210,-214,37,11,-227
3570,-4,-202,-215,197,26,-240
3575,-8,-197,-214,376,48,-252
3580,-5,-196,-213,557,73,-259
3585,-6,-193,-211,728,102,-263
3590,-6,-190,-215,874,124,-261
3595,-6,-185,-217,990,141,-252
3600,-10,-183,-213,1074,149,-239
3605,-12,-186,-215,1129,151,-218
3610,-11,-187,-214,1177,145,-195
3615,-14,-185,-215,1201,138,-170
3620,-15,-185,-207,1208,134,-149
3625,-11,-184,-208,1209,124,-127
3630,-13,-180,-202,1208,112,-111
3635,-12,-177,-203,1208,102,-100
3640,-9,-171,-194,1206,96,-93
3645,-8,-164,-190,1207,99,-90
3650,-1,-162,-180,1205,103,-86
3655,0,-155,-179,1202,104,-86
3660,3,-149,-180,1191,101,-83
3665,7,-148,-179,1165,95,-79
3670,10,-144,-176,1133,89,-78
3675,11,-141,-179,1091,78,-76
3680,12,-142,-182,1037,64,-71
3685,10,-156,-171,970,51,-72
3690,16,-142,-184,887,42,-74
3695,14,-145,-195,802,33,-79
3700,16,-147,-194,721,29,-84
3705,19,-155,-191,648,30,-92
3710,20,-160,-195,591,31,-94
3715,15,-162,-196,539,39,-101
3720,14,-168,-189,515,54,-103
3725,15,-174,-190,505,66,-102
3730,16,-180,-191,510,79,-99
3735,20,-183,-186,525,83,-99
3740,21,-186,-184,545,87,-91
3745,20,-188,-182,564,93,-83
3750,21,-186,-179,587,93,-71
3755,21,-189,-180,607,87,-61
3760,24,-192,-184,621,76,-50
3765,28,-185,-185,630,66,-40
3770,30,-191,-180,633,59,-31
3775,30,-190,-181,634,56,-27
3780,31,-190,-184,632,50,-30
3785,33,-193,-181,625,48,-38
3790,34,-195,-180,620,48,-41
3795,34,-195,-177,622,50,-44
3800,32,-194,-179,627,57,-44
3805,33,-192,-175,634,65,-45
3810,36,-193,-173,638,77,-42
3815,33,-190,-177,637,92,-42
3820,36,-189,-171,633,108,-40
3825,28,-182,-171,618,120,-37
3830,28,-180,-174,595,129,-34
3835,27,-179,-173,564,138,-33
3840,23,-178,-171,527,145,-29
3845,23,-181,-168,485,149,-30
3850,22,-184,-160,444,148,-29
3855,21,-184,-164,399,143,-31
3860,19,-188,-161,352,135,-30
3865,16,-187,-160,310,124,-31
3870,15,-190,-164,274,109,-29
3875,18,-193,-159,243,88,-36
3880,14,-196,-162,217,72,-36
3885,15,-196,-161,205,55,-37
3890,13,-199,-169,200,42,-37
3895,13,-199,-162,201,38,-40
3900,14,-202,-166,205,35,-36
3905,13,-203,-163,211,38,-40
3910,10,-205,-168,221,45,-41
3915,10,-207,-163,231,52,-47
3920,8,-209,-167,247,58,-49
3925,8,-210,-159,261,67,-51
3930,8,-209,-160,275,78,-49
3935,3,-205,-159,287,84,-50
3940,4,-204,-162,298,93,-46
3945,8,-203,-165,302,105,-43
3950,6,-205,-160,299,113,-36
3955,5,-206,-158,296,120,-32
3960,3,-202,-156,291,125,-25
3965,6,-203,-153,289,129,-21
3970,7,-202,-157,286,132,-14
3975,3,-199,-154,281,135,-10
3980,2,-197,-152,275,132,-6
3985,3,-198,-150,266,125,-6
3990,2,-196,-146,251,118,-6
3995,2,-199,-149,233,112,-8
4000,3,-198,-149,212,105,-7
4005,5,-203,-146,191,97,-12
4010,4,-201,-147,170,87,-14
4015,4,-205,-146,147,80,-19
4020,5,-206,-148,125,71,-20
4025,11,-206,-150,107,65,-23
4030,9,-210,-152,89,58,-22
4035,13,-210,-152,77,48,-26
4040,14,-209,-152,67,42,-25
4045,16,-207,-155,68,38,-26
4050,20,-209,-154,70,35,-23
4055,25,-208,-157,78,33,-23
4060,22,-204,-158,89,31,-19
4065,22,-203,-160,101,35,-21
4070,28,-203,-159,109,40,-18
4075,26,-198,-161,114,48,-21
4080,30,-199,-164,116,59,-22
4085,27,-198,-170,114,68,-27
4090,27,-195,-167,110,80,-28
4095,25,-193,-171,105,86,-33
4100,26,-189,-175,101,90,-32
4105,23,-194,-168,94,92,-36
4110,21,-192,-169,84,95,-33
4115,18,-192,-172,74,95,-33
4120,16,-193,-168,60,99,-27
4125,18,-195,-166,46,100,-26
4130,16,-196,-167,35,102,-19
4135,15,-197,-163,27,102,-16
4140,14,-196,-162,23,101,-8
4145,16,-195,-160,16,96,-7
4150,15,-199,-159,11,92,-3
4155,14,-198,-158,5,88,-2
4160,10,-196,-157,-4,80,4
4165,12,-200,-155,-16,73,2
4170,14,-201,-149,-28,66,5
4175,13,-203,-155,-41,62,4
4180,16,-203,-151,-51,58,7
4185,17,-203,-151,-56,57,4
4190,14,-203,-153,-59,55,9
4195,17,-204,-155,-57,56,7
4200,16,-202,-153,-51,56,9
4205,17,-200,-153,-42,57,8
4210,17,-204,-153,-32,58,11
4215,18,-206,-153,-26,60,9
4220,18,-203,-154,-25,66,12
4225,20,-207,-160,-24,68,9
4230,19,-205,-157,-24,76,12
4235,20,-207,-156,-21,82,11
4240,17,-202,-163,-19,87,13
4245,20,-204,-159,-15,89,11
4250,21,-201,-158,-12,94,12
4255,20,-202,-160,-11,97,13
4260,17,-197,-162,-13,101,17
4265,19,-197,-162,-17,104,16
4270,20,-201,-159,-24,106,19
4275,19,-200,-158,-31,106,19
4280,16,-200,-161,-38,105,21
4285,19,-200,-160,-48,106,20
4290,15,-201,-156,-53,105,24
4295,14,-203,-154,-58,102,22
4300,17,-206,-156,-59,99,25
4305,19,-205,-154,-60,97,23
4310,20,-206,-157,-59,92,26
4315,18,-203,-158,-59,91,25
4320,18,-203,-158,-61,89,29
4325,18,-201,-159,-65,89,29
4330,15,-202,-159,-70,90,31
4335,17,-200,-153,-75,90,29
4340,15,-198,-159,-80,89,31
4345,13,-197,-159,-89,90,26
4350,14,-197,-160,-99,91,29
4355,15,-198,-155,-113,93,26
4360,12,-198,-159,-128,91,27
4365,15,-200,-160,-143,92,26
4370,14,-199,-161,-154,90,28
4375,12,-199,-164,-165,87,26
4380,15,-201,-162,-174,87,31
4385,15,-204,-164,-181,86,33
4390,14,-201,-164,-185,85,39
4395,14,-202,-165,-189,86,39
4400,13,-203,-164,-192,87,44
4405,13,-199,-168,-193,90,46
4410,17,-201,-163,-191,91,49
4415,15,-199,-168,-189,92,47
4420,14,-198,-165,-185,90,49
4425,16,-200,-167,-183,89,45
4430,17,-202,-164,-177,83,45
4435,15,-201,-166,-171,77,43
4440,17,-201,-166,-164,73,46
4445,16,-199,-167,-159,70,43
4450,17,-199,-166,-154,70,44
4455,17,-197,-166,-148,66,42
4460,14,-197,-168,-144,65,44
4465,18,-199,-162,-136,61,41
4470,17,-200,-165,-132,60,42
4475,18,-201,-165,-126,57,39
4480,19,-201,-163,-124,56,42
4485,18,-201,-165,-121,52,39
4490,15,-201,-163,-120,51,39
4495,16,-197,-161,-116,50,36
4500,17,-198,-162,-114,50,39
4505,16,-201,-168,-111,50,37
4510,15,-197,-160,-108,49,40
4515,15,-197,-162,-107,49,39
4520,16,-197,-162,-107,50,44
4525,13,-198,-161,-104,49,41
4530,14,-198,-162,-103,49,48
4535,14,-199,-170,-103,48,49
4540,17,-198,-162,-104,45,53
4545,13,-200,-167,-103,44,53
4550,15,-200,-165,-103,44,58
4555,13,-198,-172,-101,44,56
4560,13,-198,-172,-100,45,59
4565,12,-198,-166,-99,45,59
4570,12,-198,-169,-100,48,62
4575,11,-199,-167,-98,51,60
4580,14,-203,-169,-98,54,62
4585,15,-199,-172,-92,57,59
4590,15,-198,-172,-86,60,62
4595,16,-200,-169,-76,63,57
4600,13,-200,-168,-66,66,58
4605,13,-199,-167,-55,70,54
4610,14,-200,-167,-42,74,52
4615,11,-200,-169,-30,78,46
4620,13,-199,-167,-21,81,43
4625,11,-197,-165,-15,83,35
4630,9,-197,-160,-7,82,31
4635,12,-198,-158,-6,81,22
4640,9,-199,-159,-8,80,18
4645,8,-195,-163,-14,77,9
4650,6,-197,-160,-19,75,4
4655,8,-197,-163,-25,71,-4
4660,9,-198,-164,-30,66,-7
4665,7,-197,-161,-31,60,-13
4670,6,-196,-163,-36,55,-15
4675,9,-196,-162,-38,53,-18
4680,10,-198,-160,-41,52,-15
4685,10,-197,-169,-44,52,-16
4690,10,-196,-168,-43,53,-12
4695,12,-195,-164,-45,53,-12
4700,11,-197,-170,-44,56,-9
4705,13,-196,-168,-46,59,-9
4710,13,-196,-172,-46,61,-3
4715,15,-197,-170,-47,61,-2
4720,14,-196,-167,-47,62,3
4725,14,-193,-172,-50,62,5
4730,16,-196,-172,-53,61,9
4735,13,-195,-171,-56,56,10
4740,12,-196,-174,-61,54,15
4745,11,-194,-172,-65,53,13
4750,12,-193,-175,-68,50,18
4755,13,-197,-174,-68,53,20
4760,15,-197,-172,-64,54,21
4765,13,-199,-171,-55,55,18
4770,15,-198,-171,-45,55,17
4775,10,-197,-171,-32,56,13
4780,12,-196,-169,-19,54,10
4785,14,-197,-171,-11,53,3
4790,13,-198,-169,-1,51,2
4795,11,-196,-169,2,49,-4
4800,12,-198,-167,1,47,-6
4805,10,-197,-165,-1,49,-12
4810,16,-198,-167,-4,50,-15
4815,15,-199,-163,-6,54,-19
4820,15,-196,-166,-8,58,-21
4825,15,-195,-168,-10,60,-25
4830,15,-196,-165,-11,63,-27
4835,14,-195,-163,-15,66,-31
4840,14,-196,-161,-20,67,-32
4845,14,-196,-163,-27,66,-37
4850,16,-197,-164,-33,67,-36
4855,9,-194,-166,-43,68,-38
4860,11,-196,-168,-54,69,-35
4865,11,-196,-168,-66,68,-34
4870,12,-195,-168,-77,69,-33
4875,13,-194,-167,-88,67,-34
4880,9,-196,-169,-95,67,-34
4885,10,-196,-173,-102,66,-33
4890,11,-194,-173,-105,61,-32
4895,10,-195,-172,-109,58,-32
4900,9,-197,-170,-109,53,-28
4905,9,-197,-168,-107,50,-27
4910,6,-197,-173,-100,49,-24
4915,11,-197,-170,-94,47,-24
4920,10,-195,-168,-85,43,-22
4925,8,-198,-171,-76,41,-22
4930,10,-197,-172,-68,40,-19
4935,9,-196,-170,-60,39,-21
4940,8,-198,-170,-56,38,-20
4945,9,-195,-171,-51,37,-23
4950,11,-194,-173,-46,37,-22
4955,9,-191,-166,-42,38,-26
4960,12,-195,-167,-42,38,-27
4965,14,-195,-166,-42,38,-31
4970,13,-193,-170,-49,40,-32
4975,15,-194,-167,-54,43,-36
4980,16,-193,-168,-62,45,-37
4985,14,-195,-167,-69,50,-39
4990,16,-194,-172,-72,53,-40
4995,19,-197,-170,-74,56,-38
5000,17,-194,-171,-74,60,-37
5005,16,-195,-171,-69,64,-40
5010,17,-196,-172,-64,66,-37
5015,13,-194,-165,-61,67,-37
5020,16,-195,-166,-56,68,-35
5025,17,-196,-170,-53,67,-34
5030,15,-196,-168,-52,66,-31
5035,16,-197,-168,-55,67,-30
5040,15,-196,-165,-58,66,-29
5045,17,-196,-167,-60,66,-27
5050,13,-194,-172,-61,67,-24
5055,15,-197,-173,-59,68,-23
5060,13,-196,-165,-57,67,-21
5065,14,-194,-167,-55,68,-21
5070,13,-194,-167,-53,69,-17
5075,12,-195,-167,-50,70,-15
5080,14,-196,-167,-48,71,-11
5085,13,-196,-173,-49,72,-10
5090,13,-194,-171,-48,73,-8
5095,16,-195,-171,-48,76,-6
5100,15,-194,-174,-49,75,-4
5105,13,-195,-166,-49,78,-2
5110,13,-195,-173,-53,77,-2
5115,14,-193,-172,-56,75,-2
5120,13,-192,-174,-60,75,-1
5125,14,-194,-175,-65,73,-3
5130,16,-195,-172,-67,70,-4
5135,13,-195,-176,-67,68,-5
5140,13,-193,-174,-68,66,-7
5145,12,-192,-175,-65,65,-10
5150,15,-193,-174,-64,64,-11
5155,15,-194,-174,-60,63,-13
5160,13,-193,-173,-60,63,-13
5165,14,-194,-179,-60,63,-15
5170,15,-196,-174,-60,64,-16
5175,15,-198,-171,-61,64,-18
5180,13,-193,-172,-59,66,-19
5185,14,-195,-178,-58,68,-21
5190,14,-197,-179,-56,69,-21
5195,16,-195,-174,-58,71,-20
5200,16,-196,-177,-60,74,-19
5205,13,-191,-177,-60,74,-18
5210,15,-188,-175,-63,75,-18
5215,14,-188,-175,-63,76,-18
5220,15,-187,-178,-66,77,-14
5225,16,-186,-175,-66,79,-13
5230,15,-192,-172,-66,82,-12
5235,15,-186,-174,-65,86,-12
5240,15,-191,-172,-63,88,-11
5245,12,-189,-173,-62,90,-9
5250,13,-187,-170,-62,89,-10
5255,14,-189,-171,-65,89,-10
5260,15,-193,-172,-69,87,-10
5265,10,-191,-172,-72,85,-10
5270,12,-192,-172,-74,84,-9
5275,13,-192,-171,-81,82,-8
5280,12,-193,-174,-85,82,-4
5285,14,-195,-174,-89,80,0
5290,13,-193,-177,-92,80,4
5295,14,-196,-175,-94,79,7
5300,15,-195,-173,-93,80,11
5305,13,-191,-173,-91,81,15
5310,18,-194,-178,-85,82,13
5315,15,-190,-177,-75,84,16
5320,16,-192,-178,-63,83,15
5325,16,-191,-179,-52,81,12
5330,19,-190,-177,-38,81,9
5335,19,-189,-177,-27,83,6
5340,18,-190,-179,-19,83,5
5345,19,-191,-174,-12,87,3
5350,20,-189,-174,-2,89,2
5355,18,-188,-173,5,90,3
5360,18,-191,-172,10,93,-1
5365,19,-192,-174,13,94,-1
5370,19,-193,-169,14,94,-3
5375,18,-190,-170,15,96,0
5380,16,-190,-174,13,93,-1
5385,17,-191,-168,8,93,0
5390,16,-190,-165,2,89,0
5395,18,-194,-167,-2,87,4
5400,17,-190,-167,-8,85,5
5405,17,-195,-172,-13,82,8
5410,16,-190,-169,-20,81,9
5415,17,-192,-173,-28,80,10
5420,17,-193,-173,-36,78,10
5425,14,-193,-170,-44,76,12
5430,15,-190,-174,-51,75,11
5435,16,-193,-172,-59,74,9
5440,17,-191,-176,-64,75,8
5445,13,-189,-176,-66,75,9
5450,15,-194,-178,-68,78,9
5455,16,-195,-175,-66,77,12
5460,12,-192,-178,-64,79,11
5465,16,-190,-176,-60,80,14
5470,16,-192,-174,-57,80,13
5475,14,-190,-177,-54,82,15
5480,23,-199,-172,-49,81,13
5485,15,-196,-173,-46,79,12
5490,15,-192,-174,-45,79,12
5495,12,-190,-170,-44,76,12
5500,15,-193,-175,-40,74,11
5505,13,-193,-169,-37,71,7
5510,10,-194,-175,-37,68,7
5515,10,-191,-175,-37,67,6
5520,11,-193,-173,-35,63,5
5525,13,-193,-173,-36,61,6
5530,12,-192,-172,-38,58,3
5535,8,-189,-171,-40,54,4
5540,11,-192,-173,-44,51,0
5545,11,-193,-169,-47,47,-2
5550,10,-195,-170,-51,47,-4
5555,10,-195,-175,-51,46,-6
5560,12,-192,-174,-53,47,-10
5565,13,-195,-174,-53,48,-10
5570,13,-196,-178,-51,49,-13
5575,13,-192,-178,-48,52,-12
5580,9,-192,-174,-48,55,-14
5585,16,-194,-175,-45,59,-13
5590,15,-192,-177,-43,62,-15
5595,16,-190,-175,-38,66,-13
5600,16,-193,-176,-32,69,-14
5605,16,-192,-178,-26,73,-14
5610,13,-190,-178,-22,76,-15
5615,14,-190,-177,-18,78,-12
5620,17,-192,-177,-14,78,-13
5625,19,-191,-176,-15,78,-11
5630,18,-194,-176,-14,76,-12
5635,16,-191,-172,-16,73,-9
5640,17,-191,-177,-17,72,-10
5645,17,-193,-175,-17,71,-8
5650,16,-187,-176,-17,68,-10
5655,15,-193,-173,-15,66,-10
5660,16,-191,-174,-16,65,-11
5665,15,-190,-177,-17,64,-11
5670,13,-188,-175,-20,62,-12
5675,18,-191,-174,-21,61,-10
5680,17,-192,-175,-24,61,-12
5685,16,-189,-179,-28,61,-11
5690,15,-190,-174,-32,60,-13
5695,16,-192,-175,-35,60,-9
5700,16,-187,-178,-37,61,-11
5705,14,-186,-179,-38,62,-9
5710,15,-189,-176,-40,61,-10
5715,15,-188,-172,-40,61,-8
5720,19,-193,-173,-38,60,-9
5725,16,-191,-173,-35,59,-7
5730,19,-193,-177,-31,58,-8
5735,16,-193,-174,-25,56,-6
5740,16,-192,-175,-19,55,-10
5745,15,-193,-175,-13,55,-6
5750,16,-191,-172,-8,55,-8
5755,16,-190,-174,-4,56,-7
5760,15,-191,-173,-2,57,-8
5765,15,-193,-177,-1,57,-6
5770,14,-195,-175,1,58,-6
5775,17,-194,-173,2,60,-3
5780,16,-196,-178,0,62,-4
5785,15,-190,-178,0,64,1
5790,16,-193,-180,-1,66,0
5795,15,-194,-177,-3,68,2
5800,15,-193,-177,-2,69,1
5805,14,-192,-177,-3,69,3
5810,16,-193,-175,0,71,3
5815,12,-190,-175,4,72,3
5820,13,-191,-178,9,74,3
5825,14,-193,-174,14,74,5
5830,15,-193,-175,19,76,4
5835,14,-192,-176,24,78,5
5840,14,-190,-174,30,78,4
5845,13,-189,-173,37,76,6
5850,16,-188,-172,40,76,3
5855,11,-187,-176,43,76,3
5860,15,-189,-172,43,74,-1
5865,15,-185,-175,40,71,-1
5870,12,-188,-172,30,69,-3
5875,16,-188,-175,19,64,-1
5880,15,-187,-175,6,63,-3
5885,15,-185,-171,-6,62,-2
5890,16,-190,-174,-15,60,-4
5895,16,-186,-174,-23,59,-1
5900,17,-190,-172,-28,60,-4
5905,15,-189,-170,-30,60,-4
5910,14,-189,-176,-30,61,-8
5915,15,-191,-174,-30,61,-6
5920,17,-188,-174,-29,59,-11
5925,15,-193,-172,-30,60,-8
5930,15,-191,-178,-31,60,-12
5935,16,-190,-175,-33,59,-10
5940,16,-189,-173,-33,59,-13
5945,15,-191,-176,-35,58,-9
5950,18,-191,-179,-34,56,-10
5955,16,-192,-174,-34,55,-6
5960,17,-192,-173,-32,54,-9
5965,18,-193,-175,-30,53,-5
5970,15,-194,-177,-26,52,-4
5975,17,-191,-178,-24,53,-3
5980,17,-193,-177,-21,54,-5
5985,20,-193,-176,-19,57,-2
5990,18,-194,-172,-17,58,-4
5995,14,-192,-178,-13,60,-1
6000,19,-193,-174,-12,62,-1
6005,18,-191,-174,-12,64,3
6010,17,-191,-176,-12,66,2
6015,17,-190,-177,-9,68,4
6020,15,-192,-177,-7,71,1
6025,17,-193,-177,-5,72,2
6030,17,-193,-176,-2,72,-2
6035,15,-193,-170,1,72,1
6040,16,-192,-174,1,69,-2
6045,15,-189,-175,2,68,0
6050,14,-191,-175,1,66,-5
6055,14,-190,-175,0,65,-2
6060,10,-192,-174,0,62,-4
6065,13,-191,-172,-1,60,-2
6070,14,-192,-174,-2,59,-5
6075,9,-189,-176,-4,56,-3
6080,14,-191,-176,-7,55,-7
6085,13,-189,-171,-9,55,-5
6090,12,-190,-172,-11,52,-9
6095,13,-191,-176,-15,51,-8
6100,15,-190,-175,-16,52,-10
6105,13,-191,-175,-18,52,-9
6110,14,-193,-175,-20,52,-9
6115,14,-191,-174,-22,52,-7
6120,13,-189,-176,-24,54,-8
6125,14,-191,-178,-25,53,-5
6130,14,-192,-175,-26,53,-7
6135,16,-191,-173,-25,54,-5
6140,15,-192,-176,-25,55,-8
6145,17,-192,-175,-24,54,-6
6150,15,-192,-177,-23,54,-8
6155,16,-193,-175,-22,55,-6
6160,13,-190,-174,-18,55,-9
6165,15,-192,-172,-16,56,-9
6170,13,-192,-174,-12,56,-10
6175,16,-192,-173,-9,55,-9
6180,13,-191,-173,-6,56,-11
6185,15,-190,-173,-6,56,-8
6190,14,-191,-171,-4,53,-10
6195,15,-190,-173,-8,53,-7
6200,15,-191,-171,-10,52,-9
6205,15,-193,-173,-12,54,-6
6210,15,-192,-171,-14,53,-9
6215,18,-193,-176,-16,54,-6
6220,14,-193,-174,-17,53,-9
6225,12,-189,-176,-18,53,-6
6230,16,-192,-174,-18,53,-8
6235,16,-192,-173,-20,54,-5
6240,16,-192,-176,-21,52,-7
6245,16,-192,-174,-23,51,-3
6250,13,-194,-177,-27,48,-3
6255,17,-193,-177,-31,46,1
6260,20,-192,-176,-35,43,0
6265,18,-193,-178,-39,38,3
6270,16,-193,-178,-39,37,2
6275,16,-192,-177,-38,35,5
6280,17,-193,-178,-34,31,4
6285,18,-192,-179,-28,28,7
6290,16,-190,-175,-26,23,5
6295,16,-189,-178,-22,23,7
6300,15,-190,-179,-20,22,5
6305,15,-190,-177,-20,19,9
6310,15,-189,-173,-23,15,10
6315,15,-188,-177,-29,12,15
6320,18,-188,-173,-34,9,12
6325,12,-188,-173,-41,5,16
6330,14,-189,-174,-50,0,15
6335,17,-189,-175,-63,-5,19
6340,16,-186,-173,-77,-12,18
6345,16,-192,-175,-90,-19,22
6350,16,-191,-172,-107,-30,20
6355,13,-192,-174,-118,-41,21
6360,17,-194,-178,-127,-55,15
6365,16,-194,-183,-135,-67,12
6370,18,-193,-180,-137,-83,4
6375,20,-195,-181,-133,-97,-1
6380,19,-193,-180,-122,-108,-10
6385,21,-194,-185,-102,-112,-15
6390,17,-192,-182,-72,-118,-27
6395,16,-183,-183,-32,-118,-36
6400,16,-183,-181,7,-118,-55
6405,14,-180,-185,48,-110,-66
6410,16,-182,-180,64,-95,-81
6415,10,-181,-177,64,-77,-91
6420,14,-180,-179,45,-56,-105
6425,7,-177,-179,12,-34,-109
6430,4,-173,-179,-27,-13,-118
6435,5,-170,-179,-67,10,-115
6440,7,-174,-178,-107,29,-119
6445,4,-171,-175,-141,49,-117
6450,5,-175,-173,-168,68,-115
6455,9,-177,-170,-191,94,-103
6460,10,-180,-167,-208,115,-97
6465,13,-184,-167,-218,133,-85
6470,12,-186,-166,-224,150,-73
6475,12,-190,-164,-224,166,-60
6480,10,-193,-167,-219,182,-51
6485,11,-196,-159,-213,190,-40
6490,8,-197,-162,-204,195,-30
6495,10,-200,-160,-196,197,-17
6500,8,-203,-160,-188,190,-6
6505,10,-204,-166,-181,180,8
6510,11,-208,-167,-170,163,12
6515,7,-206,-167,-161,147,23
6520,6,-206,-172,-146,130,29
6525,11,-208,-172,-125,114,39
6530,9,-205,-174,-99,99,40
6535,10,-204,-179,-67,86,46
6540,8,-203,-178,-34,74,44
6545,11,-199,-182,-2,66,44
6550,11,-196,-184,27,58,40
6555,16,-195,-182,51,52,35
6560,18,-194,-183,69,50,24
6565,19,-190,-182,83,51,17
6570,19,-189,-184,88,53,4
6575,23,-187,-187,90,58,-4
6580,24,-185,-186,92,63,-16
6585,25,-187,-184,90,68,-23
6590,27,-183,-185,88,72,-30
6595,25,-178,-184,87,76,-35
6600,27,-179,-182,85,79,-39
6605,28,-177,-184,81,83,-38
6610,27,-177,-182,74,84,-38
6615,29,-177,-182,63,87,-36
6620,27,-173,-183,43,88,-35
6625,27,-176,-180,22,87,-29
6630,32,-177,-181,0,84,-27
6635,24,-171,-180,-19,80,-22
6640,24,-177,-180,-39,76,-21
6645,26,-177,-179,-53,72,-18
6650,23,-180,-178,-67,67,-18
6655,21,-180,-176,-76,61,-13
6660,19,-182,-179,-84,56,-13
6665,18,-184,-179,-84,52,-10
6670,18,-189,-175,-80,47,-9
6675,15,-190,-180,-74,45,-6
6680,12,-189,-177,-67,44,-7
6685,12,-195,-178,-60,45,-4
6690,10,-189,-178,-54,48,-3
6695,9,-192,-178,-47,50,3
6700,12,-195,-176,-42,52,5
6705,10,-195,-178,-37,57,11
6710,12,-195,-179,-30,59,13
6715,10,-192,-173,-24,60,16
6720,10,-195,-174,-16,64,17
6725,10,-192,-175,-8,67,20
6730,11,-190,-174,-3,68,20
6735,9,-193,-178,0,69,20
6740,10,-190,-179,3,70,16
6745,10,-192,-178,1,70,16
6750,9,-190,-179,-3,68,16
6755,11,-189,-176,-10,68,19
6760,12,-190,-175,-17,67,18
6765,10,-187,-177,-24,66,21
6770,10,-185,-177,-30,67,22
6775,12,-186,-176,-33,66,26
6780,15,-186,-177,-30,67,25
6785,16,-186,-176,-29,68,25
6790,14,-182,-179,-24,69,22
6795,14,-184,-182,-24,72,22
6800,15,-184,-178,-21,73,19
6805,15,-183,-181,-18,76,20
6810,18,-186,-181,-17,80,15
6815,20,-183,-181,-16,83,13
6820,16,-183,-181,-17,86,11
6825,18,-184,-181,-14,89,9
6830,19,-185,-181,-14,90,5
6835,17,-187,-182,-14,89,4
6840,18,-186,-181,-14,90,0
6845,18,-187,-183,-14,87,-1
6850,16,-186,-183,-16,84,-5
6855,13,-185,-180,-17,80,-8
6860,16,-186,-178,-18,76,-10
6865,15,-185,-181,-18,72,-13
6870,15,-186,-180,-17,67,-15
6875,14,-188,-175,-19,62,-14
6880,15,-188,-179,-18,54,-14
6885,15,-188,-178,-20,46,-12
6890,15,-189,-178,-22,41,-12
6895,14,-188,-178,-26,35,-12
6900,13,-185,-174,-31,31,-11
6905,14,-188,-172,-41,32,-11
6910,15,-187,-176,-50,29,-13
6915,12,-189,-176,-63,27,-13
6920,10,-188,-179,-77,28,-16
6925,16,-188,-177,-92,28,-18
6930,18,-188,-177,-108,31,-25
6935,15,-193,-181,-126,36,-30
6940,14,-192,-183,-143,42,-40
6945,15,-195,-181,-159,47,-50
6950,19,-194,-179,-175,50,-63
6955,20,-197,-178,-186,53,-78
6960,18,-196,-178,-189,53,-91
6965,15,-202,-165,-185,53,-98
6970,14,-211,-164,-168,59,-101
6975,16,-224,-159,-149,64,-98
6980,19,-228,-143,-127,56,-97
6985,27,-240,-125,-79,23,-91
6990,23,-255,-104,30,-23,-99
6995,15,-280,-71,180,-79,-111
7000,6,-300,-60,362,-123,-96
7005,3,-349,-80,510,-128,-71
7010,0,-355,-139,541,-34,-62
7015,1,-349,-195,453,99,-67
7020,-10,-338,-225,363,185,1
7025,-11,-301,-228,449,163,103
7030,3,-208,-286,838,94,127
7035,11,-43,-386,1369,70,-54
7040,0,4,-428,1850,76,-211
7045,7,-23,-406,1989,46,-226
7050,10,-79,-340,1938,6,-153
7055,33,-116,-281,1847,-48,-94
7060,30,-133,-238,1762,-95,-74
7065,33,-144,-196,1668,-155,-103
7070,43,-157,-163,1569,-181,-111
7075,48,-164,-123,1473,-172,-75
7080,41,-176,-93,1391,-140,-19
7085,42,-175,-51,1354,-116,28
7090,39,-141,-34,1355,-66,117
7095,29,-111,-27,1298,-19,181
7100,32,-77,-27,1133,15,213
7105,27,-60,-27,855,38,220
7110,23,-42,-45,491,40,200
7115,21,-53,-56,57,49,163
7120,20,-67,-77,-410,68,118
7125,26,-88,-99,-892,78,79
7130,27,-110,-116,-1368,81,46
7135,39,-130,-138,-1808,91,20
7140,39,-150,-148,-2176,110,6
7145,47,-166,-167,-2481,123,17
7150,44,-186,-175,-2615,139,35
7155,40,-200,-185,-2649,157,53
7160,46,-207,-196,-2609,167,71
7165,37,-212,-206,-2520,189,83
7170,39,-218,-217,-2386,210,89
7175,38,-229,-229,-2203,232,100
7180,35,-245,-233,-1986,247,116
7185,28,-258,-228,-1763,256,127
7190,34,-262,-222,-1562,262,131
7195,28,-264,-209,-1385,262,132
7200,26,-269,-199,-1197,265,134
7205,19,-265,-187,-1048,275,136
7210,12,-260,-181,-907,289,128
7215,3,-259,-173,-781,313,115
7220,-6,-256,-160,-682,343,99
7225,-15,-257,-149,-614,367,77
7230,-23,-254,-137,-578,391,58
7235,-30,-248,-132,-571,407,43
7240,-38,-239,-127,-583,420,40
7245,-43,-232,-123,-611,415,41
7250,-48,-219,-123,-648,377,41
7255,-47,-204,-118,-695,316,46
7260,-47,-193,-117,-734,231,55
7265,-43,-177,-121,-781,139,64
7270,-40,-163,-134,-839,56,71
7275,-27,-147,-150,-898,-13,73
7280,-25,-141,-160,-963,-66,69
7285,-14,-143,-178,-1026,-107,61
7290,-7,-134,-187,-1080,-125,52
7295,3,-135,-201,-1121,-129,43
7300,11,-133,-215,-1155,-117,37
7305,18,-135,-226,-1178,-73,35
7310,23,-134,-237,-1175,-23,27
7315,22,-141,-242,-1163,30,14
7320,19,-140,-247,-1146,80,-9
7325,15,-150,-251,-1127,125,-38
7330,16,-150,-255,-1106,165,-67
7335,12,-154,-264,-1078,189,-92
7340,9,-151,-264,-1030,200,-107
7345,7,-151,-264,-974,195,-129
7350,12,-152,-261,-901,172,-144
7355,10,-155,-252,-830,132,-157
7360,12,-154,-245,-761,86,-161
7365,9,-146,-237,-727,37,-159
7370,9,-141,-233,-709,-5,-155
7375,4,-136,-233,-696,-31,-149
7380,3,-133,-231,-681,-56,-147
7385,-2,-129,-230,-671,-77,-150
7390,-5,-132,-233,-675,-96,-154
7395,1,-133,-230,-691,-105,-159
7400,-5,-137,-232,-731,-105,-161
7405,-2,-133,-232,-790,-107,-173
7410,10,-134,-234,-859,-118,-177
7415,9,-144,-239,-904,-124,-178
7420,18,-156,-239,-950,-133,-181
7425,24,-164,-238,-974,-128,-181
7430,24,-158,-229,-983,-128,-175
7435,40,-153,-234,-1025,-131,-186
7440,51,-161,-225,-1073,-116,-193
7445,62,-162,-227,-1122,-97,-203
7450,68,-163,-225,-1180,-69,-206
7455,78,-162,-224,-1242,-47,-205
7460,75,-158,-220,-1314,-25,-202
7465,70,-153,-214,-1418,-16,-188
7470,73,-155,-219,-1522,8,-179
7475,79,-153,-209,-1620,33,-171
7480,73,-151,-210,-1717,39,-150
7485,77,-158,-215,-1797,73,-141
7490,66,-162,-216,-1848,107,-124
7495,52,-167,-227,-1902,147,-126
7500,41,-177,-236,-1941,184,-137
7505,32,-187,-253,-1937,215,-169
7510,31,-196,-275,-1892,240,-215
7515,32,-198,-284,-1809,274,-254
7520,36,-192,-303,-1733,299,-280
7525,34,-186,-318,-1660,311,-295
7530,37,-176,-329,-1588,308,-298
7535,31,-159,-342,-1521,292,-298
7540,25,-147,-343,-1460,268,-293
7545,24,-137,-339,-1402,248,-296
7550,24,-131,-338,-1342,232,-297
7555,24,-121,-333,-1272,215,-303
7560,24,-109,-326,-1209,190,-300
7565,18,-95,-312,-1164,160,-297
7570,18,-80,-314,-1136,134,-290
7575,16,-70,-309,-1120,113,-288
7580,18,-66,-307,-1096,97,-279
7585,18,-57,-311,-1066,89,-271
7590,18,-51,-311,-1035,85,-259
7595,17,-51,-312,-1007,83,-249
7600,14,-46,-310,-989,85,-237
7605,11,-44,-312,-985,88,-226
7610,10,-43,-308,-995,88,-212
7615,10,-39,-310,-1015,90,-200
7620,9,-34,-310,-1044,88,-185
7625,7,-30,-309,-1069,80,-176
7630,8,-31,-310,-1074,67,-165
7635,11,-32,-308,-1071,53,-159
7640,12,-36,-314,-1063,37,-153
7645,13,-36,-314,-1054,23,-151
7650,13,-40,-314,-1050,14,-144
7655,16,-44,-315,-1046,3,-140
7660,16,-48,-313,-1044,-5,-134
7665,20,-46,-311,-1042,-13,-131
7670,19,-48,-312,-1036,-15,-126
7675,25,-45,-310,-1022,-17,-121
7680,23,-45,-310,-999,-18,-114
7685,28,-46,-307,-968,-20,-108
7690,26,-42,-308,-932,-21,-100
7695,25,-45,-307,-890,-29,-96
7700,26,-50,-304,-846,-31,-89
7705,22,-45,-306,-804,-23,-88
7710,25,-54,-302,-760,-21,-87
7715,25,-54,-306,-713,-15,-89
7720,26,-55,-303,-679,-2,-92
7725,21,-53,-306,-637,8,-97
7730,21,-54,-309,-588,15,-100
7735,18,-52,-308,-549,30,-103
7740,18,-52,-306,-506,34,-103
7745,24,-44,-314,-457,31,-111
7750,23,-43,-308,-408,26,-113
7755,19,-36,-317,-353,7,-124
7760,21,-35,-324,-282,-11,-133
7765,15,-24,-323,-200,-36,-160
7770,13,-18,-328,-108,-51,-183
7775,26,-16,-335,-7,-63,-206
7780,23,-6,-354,139,-30,-215
7785,9,-3,-337,261,-4,-221
7790,9,4,-343,389,8,-248
7795,19,15,-343,517,36,-269
7800,16,28,-341,645,87,-259
7805,19,39,-343,758,144,-247
7810,24,48,-347,896,191,-229
7815,28,46,-347,1056,219,-196
7820,31,36,-342,1233,256,-142
7825,31,15,-335,1408,280,-82
7830,29,-1,-327,1561,299,-4
7835,36,-27,-320,1724,326,74
7840,43,-52,-307,1838,350,156
7845,43,-69,-288,1916,366,216
7850,44,-85,-282,1974,361,262
7855,41,-96,-286,2000,341,283
7860,44,-114,-269,1990,302,300
7865,38,-124,-264,1954,259,294
7870,36,-130,-260,1885,221,292
7875,36,-135,-254,1803,185,280
7880,31,-136,-256,1709,157,270
7885,33,-138,-248,1611,122,251
7890,26,-139,-247,1487,101,250
7895,26,-133,-253,1385,76,237
7900,17,-141,-247,1291,42,222
7905,15,-134,-247,1213,-2,206
7910,12,-138,-248,1158,-44,198
7915,10,-140,-248,1136,-83,174
7920,8,-134,-239,1149,-121,148
7925,15,-132,-252,1199,-169,123
7930,5,-129,-254,1273,-204,100
7935,4,-125,-257,1371,-228,91
7940,2,-120,-254,1506,-243,86
7945,-1,-121,-258,1642,-254,74
7950,4,-124,-257,1794,-264,73
7955,4,-130,-256,1962,-264,77
7960,10,-133,-248,2127,-248,64
7965,12,-127,-237,2283,-210,39
7970,21,-126,-240,2447,-168,21
7975,23,-120,-231,2613,-123,2
7980,29,-119,-220,2777,-78,-27
7985,30,-106,-215,2934,-42,-64
7990,38,-101,-209,3060,-1,-103
7995,39,-93,-202,3176,36,-116
8000,35,-94,-192,3234,58,-132
8005,43,-93,-185,3249,74,-138
8010,46,-87,-182,3237,88,-129
8015,43,-83,-179,3190,97,-124
8020,42,-84,-164,3102,112,-114
8025,39,-87,-163,2994,123,-121
8030,39,-86,-153,2851,142,-107
8035,28,-80,-148,2718,145,-83
8040,27,-80,-143,2564,142,-59
8045,21,-80,-135,2400,141,-40
8050,16,-87,-132,2205,135,-17
8055,12,-89,-127,2046,122,16
8060,7,-91,-127,1880,113,50
8065,2,-95,-127,1714,106,79
8070,-7,-94,-134,1547,104,112
8075,-4,-104,-130,1393,105,153
8080,-13,-103,-128,1266,95,190
8085,-9,-107,-130,1149,76,198
8090,-4,-107,-132,1041,57,198
8095,3,-109,-133,941,47,181
8100,1,-110,-137,857,46,173
8105,-2,-115,-130,795,50,172
8110,0,-119,-124,777,51,177
8115,0,-124,-131,781,49,172
8120,2,-129,-132,798,52,170
8125,-2,-129,-132,828,61,160
8130,-10,-131,-131,866,72,150
8135,-7,-131,-129,916,80,137
8140,-4,-127,-132,970,87,125
8145,-2,-125,-140,1023,89,103
8150,0,-123,-138,1066,95,90
8155,-2,-119,-139,1104,110,75
8160,-6,-116,-133,1134,118,63
8165,-7,-116,-135,1163,116,43
8170,-5,-115,-133,1195,104,22
8175,-1,-114,-132,1228,84,0
8180,-1,-115,-131,1258,67,-15
8185,-2,-112,-132,1284,52,-27
8190,2,-112,-128,1300,37,-31
8195,-1,-112,-125,1324,23,-58
8200,6,-116,-126,1339,2,-69
8205,6,-114,-123,1344,-16,-66
8210,7,-115,-119,1336,-21,-55
8215,9,-118,-125,1317,-26,-52
8220,9,-119,-120,1292,-30,-46
8225,9,-117,-124,1259,-36,-41
8230,10,-117,-125,1213,-40,-32
8235,10,-118,-124,1155,-42,-29
8240,9,-119,-122,1084,-38,-19
8245,9,-124,-122,1010,-32,-10
8250,8,-128,-121,930,-26,5
8255,8,-134,-128,836,-20,15
8260,6,-141,-126,714,-13,24
8265,11,-146,-125,607,-8,27
8270,8,-152,-125,505,-4,30
8275,11,-162,-123,407,-5,23
8280,12,-168,-126,316,-11,20
8285,9,-176,-129,234,-16,9
8290,16,-181,-133,165,-18,2
8295,18,-185,-137,109,-23,-13
8300,17,-191,-139,66,-27,-25
8305,18,-196,-141,40,-25,-42
8310,17,-202,-143,37,-21,-59
8315,16,-205,-144,67,-18,-79
8320,18,-211,-145,112,-17,-95
8325,20,-216,-146,171,-16,-124
8330,22,-215,-150,237,-13,-146
8335,25,-217,-154,303,-5,-166
8340,21,-218,-154,371,5,-173
8345,21,-216,-155,436,16,-180
8350,22,-220,-157,501,28,-179
8355,21,-221,-152,560,38,-178
8360,17,-222,-152,613,45,-171
8365,22,-224,-151,672,53,-169
8370,26,-224,-150,713,60,-160
8375,23,-220,-147,748,69,-152
8380,28,-221,-137,777,78,-137
8385,28,-224,-138,797,82,-130
8390,31,-218,-134,805,90,-118
8395,31,-214,-129,799,99,-107
8400,34,-216,-127,786,108,-92
8405,33,-211,-122,765,118,-83
8410,36,-210,-122,740,125,-72
8415,38,-209,-119,707,133,-67
8420,41,-206,-116,661,141,-60
8425,34,-206,-114,623,146,-59
8430,34,-206,-114,589,152,-48
8435,34,-204,-112,554,155,-49
8440,32,-204,-112,522,162,-45
8445,34,-206,-111,488,167,-47
8450,30,-206,-113,459,169,-47
8455,27,-207,-109,428,174,-49
8460,25,-207,-108,403,175,-48
8465,24,-210,-111,377,175,-50
8470,22,-212,-110,351,172,-50
8475,22,-216,-111,321,166,-55
8480,15,-217,-109,302,163,-53
8485,14,-222,-105,289,157,-57
8490,14,-221,-109,282,151,-54
8495,13,-221,-109,276,149,-58
8500,11,-218,-112,275,148,-55
8505,12,-222,-110,279,146,-56
8510,13,-225,-106,294,144,-55
8515,13,-221,-110,313,140,-58
8520,15,-221,-110,335,135,-54
8525,14,-217,-112,366,129,-55
8530,13,-221,-105,388,123,-48
8535,15,-217,-111,405,117,-47
8540,18,-219,-107,413,113,-39
8545,29,-221,-109,423,104,-18
8550,15,-216,-112,418,99,-1
8555,13,-215,-110,395,96,-10
8560,18,-217,-109,367,86,-17
8565,17,-213,-110,336,77,-24
8570,22,-217,-109,300,70,-22
8575,22,-214,-104,261,65,-22
8580,22,-215,-110,214,61,-19
8585,24,-219,-106,171,60,-22
8590,27,-221,-104,130,57,-19
8595,27,-227,-108,89,55,-23
8600,31,-232,-110,46,55,-22
8605,28,-231,-111,6,55,-26
8610,26,-237,-110,-27,57,-22
8615,25,-238,-110,-48,61,-19
8620,32,-240,-110,-61,64,-16
8625,29,-242,-114,-66,66,-19
8630,33,-246,-112,-63,72,-16
8635,29,-243,-112,-53,78,-19
8640,30,-244,-114,-40,84,-19
8645,31,-243,-116,-21,88,-23
8650,29,-243,-114,4,93,-20
8655,27,-243,-113,33,97,-21
8660,30,-239,-111,67,100,-17
8665,29,-238,-109,102,98,-15
8670,25,-238,-108,135,98,-10
8675,28,-237,-110,169,99,-8
8680,26,-237,-103,196,99,1
8685,25,-236,-99,221,98,1
8690,25,-233,-97,237,96,8
8695,25,-230,-95,243,94,10
8700,24,-229,-92,240,89,18
8705,23,-227,-92,229,86,21
8710,23,-222,-93,209,85,31
8715,24,-221,-93,181,84,35
8720,26,-221,-95,151,81,42
8725,27,-221,-96,114,84,46
8730,29,-221,-97,75,87,53
8735,29,-220,-97,35,93,56
8740,27,-221,-96,-10,100,59
8745,28,-220,-94,-48,107,58
8750,27,-220,-95,-80,113,60
8755,29,-224,-98,-111,117,56
8760,31,-223,-96,-136,118,56
8765,28,-225,-98,-155,123,48
8770,30,-226,-98,-172,124,45
8775,30,-229,-99,-183,128,40
8780,31,-232,-100,-195,133,37
8785,33,-234,-100,-205,137,32
8790,29,-236,-104,-212,139,30
8795,33,-237,-103,-221,143,24
8800,30,-237,-106,-228,145,23
8805,33,-240,-106,-235,145,20
8810,32,-240,-107,-239,145,20
8815,32,-241,-108,-238,144,18
8820,33,-242,-107,-231,141,19
8825,33,-243,-108,-218,139,16
8830,32,-243,-111,-200,136,16
8835,32,-243,-104,-178,134,13
8840,30,-243,-106,-154,131,13
8845,27,-239,-109,-123,129,12
8850,29,-241,-105,-98,126,13
8855,30,-242,-106,-78,122,12
8860,29,-239,-105,-56,119,14
8865,28,-239,-103,-39,116,13
8870,28,-235,-106,-26,114,15
8875,30,-237,-104,-18,111,11
8880,28,-232,-104,-17,110,11
8885,27,-233,-102,-21,108,11
8890,30,-232,-100,-30,105,10
8895,31,-234,-99,-40,105,8
8900,32,-232,-100,-54,99,10
8905,30,-227,-100,-66,98,7
8910,34,-231,-100,-77,95,7
8915,29,-228,-104,-86,94,5
8920,29,-227,-102,-95,93,7
8925,27,-226,-99,-103,91,7
8930,31,-227,-101,-113,90,8
8935,30,-228,-105,-120,90,6
8940,30,-230,-107,-128,90,7
8945,30,-229,-98,-136,90,6
8950,29,-229,-104,-144,91,8
8955,31,-232,-107,-153,93,8
8960,32,-237,-103,-160,94,7
8965,33,-236,-103,-161,97,7
8970,32,-240,-104,-161,99,5
8975,33,-238,-108,-160,100,2
8980,32,-236,-104,-157,101,4
8985,31,-235,-108,-152,106,1
8990,35,-241,-108,-147,110,-1
8995,33,-238,-105,-145,113,-3
9000,29,-237,-107,-140,116,-2
9005,32,-237,-108,-135,118,-5
9010,32,-236,-113,-130,119,-6
9015,31,-241,-111,-122,119,-9
9020,31,-238,-108,-112,121,-8
9025,33,-233,-107,-102,118,-9
9030,33,-232,-109,-91,120,-8
9035,30,-229,-109,-79,120,-8
9040,31,-228,-111,-67,118,-7
9045,30,-228,-110,-58,117,-8
9050,28,-231,-107,-53,115,-7
9055,26,-229,-106,-52,112,-9
9060,40,-234,-102,-53,109,-7
9065,23,-228,-107,-57,106,-6
9070,25,-228,-104,-65,104,-4
9075,25,-226,-104,-76,101,-4
9080,18,-227,-111,-83,97,-11
9085,28,-229,-104,-96,95,-21
9090,28,-228,-103,-109,86,-6
9095,25,-230,-108,-120,88,2
9100,27,-231,-101,-128,85,7
9105,27,-230,-106,-133,84,9
9110,27,-233,-106,-136,84,13
9115,26,-229,-108,-135,81,12
9120,31,-233,-108,-135,81,14
9125,28,-231,-111,-133,80,15
9130,31,-234,-109,-131,81,18
9135,31,-234,-112,-133,84,15
9140,29,-236,-109,-130,87,16
9145,31,-238,-108,-131,89,17
9150,30,-238,-111,-130,91,18
9155,31,-237,-114,-128,90,18
9160,29,-234,-110,-125,92,21
9165,31,-238,-111,-117,93,20
9170,29,-237,-112,-109,95,21
9175,29,-234,-112,-99,96,18
9180,30,-236,-108,-87,100,16
9185,25,-235,-112,-74,104,14
9190,28,-235,-114,-63,110,10
9195,27,-233,-109,-56,113,5
9200,29,-237,-108,-49,115,1
9205,32,-234,-111,-48,115,-4
9210,30,-236,-108,-51,117,-9
9215,31,-236,-112,-59,117,-12
9220,24,-228,-113,-71,117,-13
9225,38,-227,-110,-81,115,-16
9230,31,-237,-106,-92,112,-17
9235,30,-226,-118,-99,107,-17
9240,21,-228,-106,-101,103,-15
9245,38,-241,-113,-98,101,-16
9250,22,-235,-107,-92,99,-12
9255,16,-240,-102,-81,99,-12
9260,35,-224,-113,-69,100,-12
9265,28,-235,-116,-56,102,-11
9270,34,-232,-102,-42,103,-11
9275,30,-228,-111,-22,104,-11
9280,33,-231,-98,-6,104,-9
9285,31,-233,-98,5,105,-10
9290,30,-228,-106,11,106,-6
9295,29,-228,-107,17,105,-3
9300,25,-220,-113,21,103,-1
9305,25,-226,-105,19,101,3
9310,30,-225,-106,12,99,7
9315,30,-228,-110,1,102,13
9320,29,-223,-105,-13,104,17
9325,30,-228,-106,-33,108,20
9330,23,-223,-111,-56,110,26
9335,28,-227,-109,-79,113,28
9340,32,-227,-111,-104,116,34
9345,28,-231,-111,-129,118,36
9350,30,-227,-113,-146,122,39
9355,28,-229,-114,-159,128,43
9360,28,-227,-113,-169,131,43
9365,27,-230,-112,-174,135,41
9370,27,-235,-112,-177,135,41
9375,21,-231,-114,-179,133,39
9380,25,-237,-114,-172,132,40
9385,24,-237,-111,-163,130,36
9390,25,-238,-113,-155,132,33
9395,24,-242,-111,-146,132,27
9400,23,-242,-111,-134,133,26
9405,21,-240,-114,-119,132,21
9410,27,-240,-113,-103,133,17
9415,26,-241,-110,-87,133,17
9420,26,-240,-115,-72,135,15
9425,26,-242,-115,-56,135,16
9430,25,-239,-113,-42,135,17
9435,26,-236,-114,-25,135,16
9440,23,-234,-116,-14,135,16
9445,26,-234,-114,2,133,17
9450,28,-233,-116,21,128,18
9455,25,-233,-112,42,126,18
9460,24,-231,-113,63,122,19
9465,26,-234,-112,81,120,19
9470,22,-226,-110,97,121,20
9475,22,-228,-111,106,118,21
9480,20,-223,-107,111,115,21
9485,23,-227,-107,112,114,21
9490,21,-223,-106,103,113,22
9495,21,-222,-106,88,113,24
9500,22,-225,-109,71,114,26
9505,23,-225,-104,50,112,29
9510,24,-224,-104,30,111,31
9515,25,-227,-105,8,112,34
9520,26,-225,-107,-17,112,34
9525,25,-228,-107,-40,114,35
9530,27,-228,-105,-63,115,34
9535,24,-230,-108,-84,116,33
9540,22,-230,-109,-109,116,34
9545,26,-234,-107,-124,116,33
9550,23,-235,-111,-139,115,31
9555,22,-234,-111,-148,114,30
9560,23,-236,-113,-154,115,28
9565,22,-236,-112,-155,114,26
9570,25,-238,-111,-150,111,22
9575,25,-235,-114,-144,110,19
9580,22,-235,-116,-132,111,15
9585,22,-234,-116,-122,113,11
9590,21,-234,-112,-107,114,5
9595,28,-236,-117,-88,114,1
9600,27,-234,-112,-73,114,-1
9605,27,-235,-111,-59,116,-3
9610,23,-233,-110,-45,117,-4
9615,27,-232,-113,-32,117,-6
9620,26,-231,-114,-23,116,-8
9625,29,-232,-113,-16,118,-8
9630,29,-229,-111,-12,118,-9
9635,28,-229,-116,-10,117,-8
9640,29,-227,-115,-11,114,-9
9645,28,-230,-115,-17,112,-7
9650,32,-229,-113,-25,111,-6
9655,31,-226,-118,-30,111,-4
9660,26,-228,-113,-36,111,-3
9665,29,-229,-112,-42,113,0
9670,29,-229,-111,-47,114,2
9675,27,-227,-113,-50,113,4
9680,26,-225,-111,-53,116,4
9685,29,-228,-114,-54,117,6
9690,26,-228,-110,-57,119,6
9695,25,-225,-110,-58,121,7
9700,30,-230,-110,-59,121,7
9705,25,-229,-116,-61,118,8
9710,25,-230,-111,-61,119,9
9715,27,-234,-112,-62,119,10
9720,25,-229,-114,-62,119,8
9725,23,-227,-114,-62,119,8
9730,24,-228,-115,-65,118,8
9735,23,-225,-117,-66,117,9
9740,28,-230,-116,-71,117,7
9745,27,-226,-117,-75,119,7
9750,25,-224,-117,-76,120,8
9755,25,-227,-118,-80,119,9
9760,26,-228,-120,-80,119,8
9765,26,-231,-116,-77,120,9
9770,25,-232,-117,-70,118,8
9775,26,-230,-118,-60,115,8
9780,25,-232,-116,-51,109,4
9785,23,-229,-117,-40,104,4
9790,26,-226,-116,-32,98,1
9795,24,-226,-119,-29,94,2
9800,23,-224,-114,-26,90,1
9805,23,-225,-116,-30,80,2
9810,23,-226,-113,-34,75,4
9815,22,-224,-115,-40,70,5
9820,27,-229,-115,-48,67,3
9825,24,-229,-106,-58,62,3
9830,24,-229,-113,-66,58,0
9835,22,-231,-113,-71,55,0
9840,25,-233,-115,-74,53,-3
9845,24,-231,-113,-70,50,-3
9850,25,-233,-111,-64,49,-6
9855,25,-230,-112,-50,47,-7
9860,25,-232,-115,-32,44,-10
9865,25,-229,-113,-16,44,-11
9870,26,-231,-115,-4,44,-13
9875,26,-226,-112,6,43,-15
9880,23,-226,-117,12,42,-17
9885,24,-226,-115,13,40,-17
9890,27,-227,-112,11,39,-19
9895,27,-225,-116,3,39,-19
9900,26,-226,-115,-7,37,-22
9905,27,-223,-111,-20,37,-21
9910,27,-228,-108,-34,39,-22
9915,29,-225,-113,-52,43,-20
9920,28,-225,-114,-65,43,-19
9925,31,-228,-112,-77,44,-17
9930,30,-229,-115,-85,42,-19
9935,30,-229,-116,-90,38,-17
9940,28,-233,-116,-91,37,-16
9945,29,-232,-117,-89,34,-14
9950,30,-236,-114,-86,33,-17
9955,29,-233,-116,-81,31,-15
9960,30,-234,-118,-75,32,-18
9965,30,-237,-116,-68,31,-18
9970,29,-235,-118,-55,32,-19
9975,31,-236,-117,-34,30,-18
9980,29,-236,-116,-11,26,-19
9985,30,-236,-119,10,25,-17
9990,29,-233,-117,30,25,-21
9995,31,-236,-119,48,23,-19
10000,29,-236,-115,63,23,-23
10005,28,-235,-118,78,25,-26
10010,27,-235,-116,87,26,-30
10015,25,-233,-117,96,29,-32
10020,27,-230,-116,104,32,-35
10025,25,-229,-112,107,33,-34
10030,28,-229,-115,111,33,-36
10035,27,-227,-113,118,30,-35
10040,26,-225,-115,123,30,-36
10045,27,-227,-111,124,29,-34
10050,27,-224,-113,122,30,-36
10055,31,-225,-117,119,30,-35
10060,30,-223,-112,113,29,-38
10065,31,-222,-111,103,30,-34
10070,33,-226,-112,94,31,-33
10075,29,-226,-113,75,34,-30
10080,32,-228,-114,58,38,-32
10085,33,-227,-114,41,40,-30
10090,29,-230,-113,29,41,-30
10095,30,-229,-110,18,42,-26
10100,31,-231,-113,10,43,-27
10105,29,-227,-113,5,44,-25
10110,28,-232,-114,6,45,-27
10115,30,-232,-115,14,43,-24
10120,30,-234,-114,22,44,-25
10125,29,-235,-112,33,42,-24
10130,30,-231,-116,40,43,-25
10135,31,-234,-112,43,44,-22
10140,32,-232,-117,44,44,-23
10145,32,-232,-114,42,44,-19
10150,31,-230,-116,40,43,-18
10155,28,-232,-113,36,45,-14
10160,30,-233,-110,37,46,-15
10165,29,-232,-110,37,48,-12
10170,33,-234,-113,42,50,-14
10175,31,-234,-112,50,50,-12
10180,30,-231,-110,58,51,-14
10185,28,-234,-113,63,49,-11
10190,29,-231,-107,69,48,-13
10195,32,-230,-110,73,44,-10
10200,29,-231,-109,74,40,-13
10205,29,-230,-110,73,38,-11
10210,31,-231,-108,71,35,-14
10215,31,-234,-104,67,34,-12
10220,29,-233,-108,61,33,-14
10225,31,-234,-108,57,34,-11
10230,33,-233,-107,51,35,-12
10235,34,-231,-110,46,37,-8
10240,32,-235,-109,42,41,-9
10245,33,-232,-113,41,43,-6
10250,33,-232,-111,41,46,-8
10255,33,-229,-109,44,48,-5
10260,34,-229,-109,46,50,-6
10265,34,-231,-112,45,52,-2
10270,35,-229,-109,44,55,-3
10275,33,-228,-111,42,56,0
10280,35,-232,-110,39,59,-2
10285,33,-228,-109,35,61,2
10290,35,-232,-106,33,61,2
10295,34,-229,-111,32,63,4
10300,35,-233,-110,34,65,2
10305,32,-227,-109,34,67,4
10310,35,-231,-114,36,69,1
10315,34,-229,-109,40,73,5
10320,32,-229,-114,44,77,4
10325,33,-228,-111,46,79,7
10330,31,-230,-114,48,81,4
10335,31,-233,-111,49,82,5
10340,30,-230,-113,53,85,1
10345,30,-229,-113,55,88,3
10350,29,-229,-109,55,92,0
10355,29,-227,-114,53,95,1
10360,32,-228,-114,48,98,-2
10365,27,-225,-114,43,98,1
10370,33,-230,-112,38,99,0
10375,30,-226,-109,31,100,3
10380,32,-229,-112,26,99,1
10385,30,-229,-111,19,98,4
10390,31,-231,-104,15,99,2
10395,32,-230,-103,11,100,4
10400,29,-232,-105,4,100,2
10405,32,-232,-104,0,103,3
10410,29,-232,-109,-5,102,2
10415,28,-234,-109,-11,103,2
10420,29,-233,-111,-10,103,-1
10425,28,-231,-112,-7,102,2
10430,27,-232,-112,-3,102,0
10435,30,-233,-108,2,101,1
10440,29,-231,-113,10,101,0
10445,28,-230,-110,18,101,3
10450,27,-232,-109,22,99,1
10455,28,-233,-109,24,98,3
10460,28,-230,-113,25,98,3
10465,26,-233,-108,24,96,4
10470,26,-234,-111,21,95,2
10475,22,-228,-110,16,92,4
10480,24,-230,-109,11,89,2
10485,23,-230,-111,8,86,6
10490,23,-231,-108,2,85,1
10495,24,-234,-107,-5,81,3
10500,25,-236,-108,-3,76,2
10505,23,-235,-108,0,69,4
10510,21,-235,-108,7,64,1
10515,22,-235,-109,15,56,2
10520,24,-236,-110,22,50,-2
10525,24,-233,-109,33,42,-2
10530,27,-235,-108,43,38,-9
10535,25,-232,-110,54,33,-9
10540,25,-231,-107,63,28,-14
10545,25,-230,-107,71,24,-17
10550,24,-234,-111,76,21,-23
10555,24,-232,-106,80,19,-22
10560,25,-234,-103,83,19,-26
10565,28,-230,-104,85,15,-25
10570,30,-232,-108,88,16,-28
10575,29,-228,-108,84,15,-25
10580,30,-229,-108,79,18,-28
10585,29,-226,-108,71,19,-24
10590,29,-226,-107,64,20,-23
10595,30,-224,-109,55,22,-17
10600,34,-231,-111,44,22,-18
10605,29,-227,-105,31,24,-13
10610,30,-225,-111,16,26,-12
10615,29,-228,-107,2,30,-7
10620,33,-226,-108,-11,32,-7
10625,31,-227,-109,-22,35,-3
10630,34,-229,-109,-34,38,-2
10635,32,-228,-107,-45,40,2
10640,31,-229,-109,-54,41,2
10645,34,-233,-113,-63,43,5
10650,30,-233,-111,-72,46,5
10655,29,-233,-111,-76,49,9
10660,28,-229,-116,-81,51,8
10665,31,-234,-110,-81,56,11
10670,29,-232,-111,-81,58,7
10675,30,-234,-112,-81,60,12
10680,27,-237,-112,-78,61,10
10685,29,-236,-111,-72,63,11
10690,27,-237,-112,-64,62,8
10695,23,-236,-109,-53,63,10
10700,26,-235,-113,-44,61,5
10705,23,-231,-109,-33,60,6
10710,28,-235,-109,-17,54,1
10715,29,-238,-106,-7,51,1
10720,24,-233,-111,4,49,-4
10725,26,-231,-111,11,44,-1
10730,26,-233,-105,18,44,-5
10735,26,-234,-109,22,43,-5
10740,27,-231,-106,21,40,-8
10745,26,-234,-108,18,38,-6
10750,27,-230,-101,15,35,-9
10755,26,-228,-107,3,32,-7
10760,30,-230,-106,-9,29,-10
10765,27,-228,-107,-28,29,-7
10770,27,-230,-109,-45,31,-8
10775,27,-227,-106,-61,33,-5
10780,29,-229,-108,-78,34,-7
10785,24,-229,-111,-92,36,-5
10790,27,-228,-107,-106,39,-8
10795,28,-230,-105,-117,41,-6
10800,25,-231,-110,-124,43,-8
10805,26,-230,-111,-130,42,-7
10810,28,-232,-109,-132,43,-8
10815,27,-233,-108,-132,39,-6
10820,29,-232,-111,-129,36,-9
10825,32,-235,-108,-124,33,-7
10830,30,-235,-109,-117,32,-7
10835,29,-231,-110,-110,30,-3
10840,30,-232,-111,-106,30,-3
10845,32,-235,-111,-104,28,1
10850,33,-233,-108,-101,28,-1
10855,32,-237,-124,-95,28,2
10860,32,-232,-110,-89,30,0
10865,34,-236,-113,-82,32,3
10870,35,-236,-117,-72,37,3
10875,34,-235,-109,-63,40,4
10880,35,-231,-112,-54,44,2
10885,33,-231,-115,-45,49,2
10890,34,-231,-116,-36,56,-1
10895,31,-230,-115,-29,59,0
10900,31,-231,-113,-22,65,-3
10905,33,-230,-113,-18,71,-1
10910,33,-234,-114,-15,78,-3
10915,34,-231,-116,-12,83,-1
10920,32,-230,-110,-10,89,-4
10925,30,-231,-108,-10,95,-2
10930,29,-226,-112,-13,98,-4
10935,29,-228,-113,-18,102,0
10940,28,-227,-114,-28,104,-3
10945,29,-228,-112,-40,106,0
10950,30,-230,-116,-50,110,-1
10955,28,-231,-110,-59,112,4
10960,27,-229,-109,-71,114,1
10965,27,-231,-108,-79,116,4
10970,27,-229,-112,-89,117,2
10975,29,-231,-107,-98,120,4
10980,27,-228,-112,-104,122,0
10985,28,-230,-110,-109,123,2
10990,26,-228,-111,-108,121,0
10995,27,-231,-111,-107,120,1
11000,29,-230,-109,-106,117,-2
11005,29,-228,-112,-103,112,0
11010,29,-230,-113,-99,105,-2
11015,29,-229,-114,-96,100,2
11020,28,-226,-112,-96,94,2
11025,28,-227,-112,-95,87,8
11030,27,-228,-114,-92,82,8
11035,27,-227,-116,-89,77,14
11040,28,-230,-112,-86,73,15
11045,27,-227,-115,-84,69,19
11050,26,-225,-116,-86,66,21
11055,29,-228,-116,-89,66,24
11060,27,-229,-117,-92,63,23
11065,26,-225,-116,-94,66,24
11070,27,-228,-117,-95,68,23
11075,25,-228,-117,-92,72,24
11080,25,-231,-118,-83,76,19
11085,27,-231,-116,-76,79,19
11090,22,-226,-115,-71,83,12
11095,26,-228,-115,-67,86,11
11100,24,-228,-118,-64,90,6
11105,27,-230,-115,-63,93,3
11110,26,-230,-118,-63,95,-2
11115,31,-229,-117,-63,97,-3
11120,28,-227,-115,-67,98,-6
11125,29,-228,-116,-69,98,-7
11130,29,-227,-116,-75,97,-10
11135,26,-228,-116,-84,93,-5
11140,25,-228,-114,-92,89,-6
11145,26,-226,-115,-102,84,1
11150,28,-231,-116,-115,78,2
11155,24,-229,-114,-127,74,8
11160,26,-227,-118,-138,71,11
11165,25,-231,-116,-149,69,14
11170,25,-231,-116,-156,68,11
11175,29,-233,-115,-156,70,11
11180,25,-232,-115,-154,73,7
11185,28,-232,-116,-142,77,5
11190,27,-234,-113,-129,80,1
11195,27,-235,-116,-114,82,-1
11200,26,-234,-115,-96,83,-7
11205,27,-233,-112,-78,83,-9
11210,25,-233,-116,-59,84,-14
11215,22,-230,-113,-41,81,-16
11220,22,-230,-112,-25,81,-21
11225,20,-231,-113,-10,78,-23
11230,21,-230,-109,-1,77,-27
11235,19,-232,-106,2,73,-28
11240,19,-232,-107,-7,69,-32
11245,18,-235,-108,-21,66,-33
11250,17,-236,-109,-49,65,-40
11255,16,-230,-109,-87,68,-43
11260,20,-233,-111,-130,65,-49
11265,22,-233,-114,-169,60,-50
11270,17,-234,-113,-195,55,-52
11275,22,-237,-116,-220,53,-48
11280,23,-234,-117,-244,60,-50
11285,26,-235,-118,-266,67,-52
11290,24,-231,-120,-282,76,-55
11295,25,-233,-117,-281,82,-55
11300,28,-234,-119,-268,86,-58
11305,25,-234,-117,-249,90,-60
11310,31,-234,-115,-224,95,-64
11315,31,-232,-117,-195,97,-67
11320,31,-232,-116,-164,100,-71
11325,30,-233,-119,-129,104,-75
11330,31,-229,-116,-92,103,-75
11335,30,-229,-117,-55,101,-72
11340,31,-227,-113,-19,97,-63
11345,31,-223,-119,21,92,-54
11350,23,-223,-118,52,88,-57
11355,30,-221,-118,70,80,-41
11360,29,-221,-120,79,72,-20
11365,31,-221,-120,79,67,0
11370,32,-217,-120,67,58,13
11375,32,-215,-115,47,52,28
11380,34,-219,-122,25,45,40
11385,31,-216,-117,1,40,51
11390,35,-221,-118,-23,33,60
11395,34,-223,-116,-44,26,70
11400,36,-220,-115,-56,21,74
11405,36,-224,-116,-64,14,85
11410,34,-227,-113,-65,6,91
11415,37,-225,-114,-63,-2,99
11420,34,-226,-114,-59,-7,104
11425,38,-225,-114,-55,-12,112
11430,35,-223,-116,-50,-15,114
11435,35,-223,-117,-44,-17,117
11440,34,-225,-118,-38,-16,120
11445,35,-225,-119,-32,-13,122
11450,35,-228,-118,-26,-10,120
11455,36,-230,-121,-19,-3,118
11460,32,-228,-122,-10,8,109
11465,33,-230,-123,3,16,102
11470,34,-230,-122,21,29,90
11475,32,-231,-118,44,42,77
11480,26,-228,-118,67,59,61
11485,26,-229,-118,90,71,46
11490,30,-234,-119,117,80,31
11495,27,-227,-120,141,86,14
11500,30,-227,-117,166,94,0
11505,29,-222,-117,179,98,-11
11510,31,-222,-118,183,103,-21
11515,30,-217,-113,179,105,-26
11520,33,-217,-116,169,106,-29
11525,30,-218,-114,151,104,-29
11530,36,-221,-116,129,105,-28
11535,34,-219,-116,105,101,-23
11540,36,-222,-117,79,100,-20
11545,38,-221,-120,61,101,-13
11550,39,-223,-121,47,102,-2
11555,40,-227,-119,33,105,7
11560,40,-228,-118,20,106,14
11565,40,-232,-119,13,110,22
11570,40,-230,-120,9,113,31
11575,43,-234,-118,11,120,38
11580,44,-237,-119,19,128,42
11585,43,-237,-120,29,140,44
11590,41,-240,-121,43,154,45
11595,41,-240,-123,58,169,45
11600,39,-240,-123,72,184,44
11605,41,-240,-123,84,205,40
11610,40,-239,-122,98,222,34
11615,38,-240,-121,107,236,30
11620,39,-240,-118,114,251,26
11625,31,-235,-117,122,265,23
11630,31,-234,-115,129,275,19
11635,33,-234,-116,137,283,16
11640,32,-231,-115,139,288,13
11645,29,-233,-113,142,289,10
11650,29,-232,-108,142,289,8
11655,28,-229,-113,138,284,7
11660,29,-225,-111,132,276,5
11665,27,-224,-114,127,269,5
11670,27,-226,-104,119,261,6
11675,28,-225,-113,108,253,7
11680,26,-223,-110,100,243,7
11685,24,-220,-109,89,234,8
11690,24,-221,-112,79,224,8
11695,27,-222,-110,68,218,8
11700,23,-221,-112,58,210,9
11705,28,-220,-108,50,203,8
11710,26,-222,-111,40,196,9
11715,31,-221,-110,25,191,9
11720,32,-221,-113,12,189,8
11725,31,-223,-106,-3,187,7
11730,32,-222,-109,-19,186,6
11735,35,-224,-111,-35,183,8
11740,33,-224,-109,-53,182,9
11745,34,-225,-112,-72,180,6
11750,36,-225,-106,-89,180,7
11755,36,-225,-112,-107,178,7
11760,38,-227,-110,-121,179,6
11765,38,-227,-112,-133,180,6
11770,37,-231,-113,-140,182,8
11775,36,-229,-111,-144,186,11
11780,32,-227,-111,-150,190,14
11785,36,-229,-112,-154,194,15
11790,35,-228,-113,-159,198,20
11795,34,-233,-112,-165,203,23
11800,34,-231,-115,-169,208,27
11805,32,-231,-112,-169,211,29
11810,29,-231,-115,-168,216,32
11815,29,-231,-111,-167,218,37
11820,31,-232,-113,-165,219,37
11825,29,-231,-115,-165,220,35
11830,24,-233,-113,-165,221,36
11835,24,-230,-114,-163,218,36
11840,24,-234,-113,-161,215,36
11845,23,-234,-112,-159,210,33
11850,22,-235,-111,-155,205,30
11855,24,-236,-113,-148,199,27
11860,23,-236,-114,-137,193,26
11865,19,-236,-112,-124,187,25
11870,23,-237,-114,-104,180,26
11875,20,-237,-115,-88,173,28
11880,21,-233,-115,-74,169,30
11885,22,-235,-115,-59,163,30
11890,21,-231,-112,-42,156,33
11895,19,-229,-112,-26,151,35
11900,18,-229,-112,-9,146,41
11905,19,-228,-115,2,139,41
11910,21,-228,-110,10,134,44
11915,23,-230,-114,12,129,43
11920,25,-225,-112,9,122,43
11925,24,-226,-113,5,120,43
11930,24,-224,-114,-4,118,39
11935,24,-224,-115,-17,115,38
11940,27,-228,-113,-33,111,36
11945,22,-225,-111,-51,109,34
11950,22,-225,-115,-70,104,30
11955,24,-228,-114,-89,96,26
11960,21,-230,-114,-106,89,23
11965,23,-230,-107,-120,82,20
11970,19,-230,-113,-130,73,19
11975,21,-229,-107,-135,61,16
11980,23,-234,-108,-134,47,14
11985,22,-234,-110,-131,34,13
11990,20,-231,-112,-123,19,12
11995,19,-231,-111,-116,4,12
