timestamp,acc_x,acc_y,acc_z,gyro_x,gyro_y,gyro_z
0,2,-235,129,31,116,-36
5,2,-238,128,21,114,-41
10,-2,-237,129,10,108,-41
15,-3,-239,126,2,103,-43
20,-1,-240,128,-5,101,-44
25,-6,-248,128,-10,95,-43
30,-9,-242,127,-14,93,-43
35,-10,-242,127,-15,94,-41
40,-8,-242,128,-15,94,-38
45,-13,-241,125,-15,94,-36
50,-9,-243,126,-15,96,-33
55,-8,-244,127,-14,99,-31
60,-9,-242,126,-14,102,-30
65,-8,-241,126,-13,106,-26
70,-8,-242,125,-12,110,-23
75,-10,-240,121,-10,111,-22
80,-9,-238,125,-9,111,-17
85,-7,-238,122,-8,112,-14
90,-9,-236,119,-8,112,-11
95,-7,-235,121,-11,114,-10
100,-4,-237,119,-14,113,-10
105,-1,-235,122,-20,114,-11
110,-1,-236,117,-28,114,-10
115,2,-239,120,-34,115,-9
120,4,-233,115,-44,117,-11
125,2,-238,114,-53,119,-12
130,6,-237,117,-59,124,-14
135,6,-241,120,-62,127,-15
140,8,-242,121,-63,134,-16
145,8,-242,120,-59,139,-17
150,14,-242,118,-55,144,-20
155,14,-246,119,-51,149,-23
160,12,-245,119,-45,155,-23
165,15,-244,119,-40,160,-24
170,15,-244,120,-35,164,-27
175,16,-244,121,-30,166,-29
180,14,-243,118,-26,171,-30
185,14,-243,118,-23,175,-31
190,11,-241,121,-19,179,-33
195,17,-245,120,-17,183,-34
200,16,-243,121,-14,189,-35
205,14,-239,121,-11,193,-38
210,11,-240,120,-10,197,-40
215,14,-242,121,-10,202,-40
220,11,-240,118,-11,206,-42
225,10,-241,120,-11,210,-44
230,9,-239,115,-14,215,-44
235,9,-235,118,-14,218,-45
240,13,-240,120,-13,221,-45
245,9,-238,120,-13,223,-45
250,7,-238,117,-14,224,-44
255,7,-236,116,-15,225,-42
260,5,-241,115,-18,223,-41
265,7,-239,115,-20,222,-40
270,6,-239,120,-23,223,-38
275,5,-239,118,-24,220,-36
280,5,-239,121,-25,218,-33
285,8,-240,119,-26,217,-32
290,5,-240,119,-27,215,-29
295,8,-242,117,-27,214,-27
300,5,-242,117,-27,215,-25
305,7,-242,117,-25,215,-24
310,8,-244,119,-25,213,-25
315,3,-239,118,-23,214,-22
320,6,-242,120,-19,213,-22
325,5,-241,119,-15,213,-23
330,6,-243,121,-9,213,-23
335,5,-242,121,-6,213,-26
340,9,-241,119,-3,215,-24
345,5,-241,121,1,218,-25
350,9,-242,126,6,220,-26
355,7,-241,117,9,223,-32
360,8,-242,122,9,226,-34
365,8,-241,121,9,229,-35
370,8,-241,123,9,231,-37
375,9,-238,120,9,234,-39
380,10,-239,120,10,237,-41
385,12,-240,121,10,240,-43
390,9,-238,124,10,242,-44
395,9,-238,116,10,243,-46
400,6,-235,119,10,244,-50
405,10,-237,121,8,244,-51
410,9,-234,119,4,245,-55
415,8,-233,120,-4,244,-56
420,11,-235,119,-11,244,-60
425,11,-235,120,-18,243,-62
430,11,-236,117,-21,244,-65
435,10,-238,125,-24,244,-68
440,9,-235,119,-25,245,-69
445,10,-240,117,-26,246,-72
450,10,-235,118,-25,247,-77
455,10,-234,118,-26,247,-78
460,7,-240,117,-29,247,-81
465,10,-237,118,-32,248,-84
470,15,-234,120,-37,247,-85
475,9,-238,118,-40,247,-88
480,7,-237,119,-44,247,-89
485,7,-237,122,-46,246,-90
490,8,-237,117,-48,244,-93
495,6,-237,121,-47,243,-93
500,8,-235,115,-46,241,-94
505,7,-237,118,-45,239,-96
510,8,-240,116,-44,235,-97
515,8,-237,113,-46,232,-98
520,6,-241,118,-50,229,-99
525,5,-236,112,-53,226,-99
530,6,-237,116,-60,223,-98
535,9,-240,114,-65,222,-100
540,6,-238,113,-74,219,-100
545,6,-239,114,-82,217,-98
550,5,-239,115,-89,214,-99
555,5,-242,116,-92,212,-99
560,5,-241,114,-93,208,-97
565,4,-243,116,-92,204,-97
570,7,-246,113,-90,200,-95
575,6,-250,117,-88,196,-96
580,4,-246,113,-86,193,-92
585,5,-246,114,-81,192,-89
590,6,-248,113,-75,188,-87
595,4,-249,115,-72,186,-86
600,7,-250,112,-72,183,-83
605,4,-247,113,-74,182,-78
610,5,-250,112,-74,179,-74
615,5,-250,112,-73,177,-70
620,8,-252,116,-68,175,-66
625,8,-251,111,-62,172,-63
630,7,-249,113,-57,171,-60
635,8,-246,114,-50,169,-56
640,8,-249,115,-43,168,-52
645,6,-248,115,-37,167,-49
650,8,-244,117,-30,167,-45
655,8,-249,117,-23,167,-43
660,8,-245,116,-13,166,-40
665,10,-242,112,-3,167,-38
670,9,-245,117,5,168,-36
675,9,-242,120,12,170,-36
680,9,-242,115,18,171,-35
685,12,-242,119,24,173,-36
690,11,-239,117,28,174,-36
695,12,-238,121,31,176,-36
700,12,-240,119,32,178,-39
705,12,-238,121,31,181,-41
710,14,-238,119,30,183,-42
715,11,-235,119,26,186,-44
720,14,-235,117,23,187,-46
725,12,-237,119,19,189,-48
730,13,-237,120,15,193,-50
735,13,-238,119,9,195,-51
740,10,-238,117,3,196,-54
745,10,-234,118,-3,199,-56
750,12,-236,118,-11,199,-59
755,13,-238,115,-18,202,-62
760,10,-238,117,-26,205,-63
765,10,-239,116,-31,205,-64
770,8,-235,117,-36,206,-65
775,10,-237,118,-41,207,-66
780,12,-232,122,-47,208,-66
785,7,-237,120,-52,206,-68
790,12,-242,113,-55,204,-67
795,10,-241,114,-59,202,-65
800,9,-241,119,-62,200,-67
805,10,-239,115,-64,198,-65
810,9,-241,117,-66,197,-63
815,6,-242,117,-68,195,-62
820,6,-241,117,-68,191,-60
825,6,-240,115,-69,187,-58
830,7,-243,117,-69,184,-56
835,7,-243,117,-68,179,-54
840,5,-241,117,-66,175,-50
845,5,-244,116,-64,170,-48
850,7,-245,116,-62,166,-46
855,8,-243,122,-59,161,-44
860,10,-243,116,-56,157,-42
865,5,-243,118,-53,154,-39
870,9,-243,115,-49,150,-38
875,7,-244,117,-45,146,-35
880,8,-241,116,-42,142,-35
885,8,-244,116,-38,139,-32
890,7,-239,118,-35,138,-31
895,8,-239,123,-32,134,-29
900,9,-242,119,-28,132,-29
905,7,-241,119,-24,129,-27
910,7,-243,118,-21,126,-27
915,9,-243,121,-17,123,-27
920,9,-241,118,-14,121,-25
925,9,-241,115,-12,119,-24
930,10,-243,119,-10,117,-24
935,11,-243,120,-7,116,-25
940,10,-242,118,-6,116,-25
945,9,-241,115,-6,116,-25
950,13,-243,112,-5,114,-25
955,9,-240,115,-4,113,-24
960,11,-241,119,-4,113,-24
965,8,-242,113,-4,114,-22
970,10,-241,116,-5,113,-23
975,12,-244,114,-5,113,-23
980,9,-239,115,-6,111,-22
985,10,-242,117,-8,109,-21
990,11,-240,116,-9,109,-19
995,8,-240,115,-11,108,-19
1000,8,-240,114,-12,107,-18
1005,13,-247,115,-13,105,-15
1010,7,-241,117,-14,103,-16
1015,11,-243,116,-17,99,-16
1020,9,-240,116,-19,97,-14
1025,8,-242,117,-17,95,-12
1030,9,-243,115,-17,91,-11
1035,8,-239,115,-19,89,-9
1040,11,-243,117,-22,86,-6
1045,11,-243,117,-25,83,-6
1050,7,-244,119,-27,81,-4
1055,7,-242,118,-28,80,-4
1060,7,-242,114,-30,79,-2
1065,9,-245,115,-32,76,-2
1070,8,-244,115,-32,78,-1
1075,7,-241,118,-31,77,0
1080,5,-243,115,-30,78,0
1085,10,-243,115,-28,77,0
1090,10,-243,117,-25,78,1
1095,8,-239,117,-24,78,1
1100,9,-241,117,-24,76,1
1105,8,-239,120,-27,74,2
1110,5,-239,110,-28,75,3
1115,9,-244,117,-32,73,4
1120,6,-236,115,-34,73,5
1125,8,-240,113,-37,72,6
1130,11,-240,115,-37,70,8
1135,12,-242,114,-37,67,10
1140,10,-240,116,-37,67,12
1145,9,-241,115,-40,67,12
1150,7,-240,116,-42,67,12
1155,10,-242,113,-44,69,12
1160,9,-240,117,-46,67,13
1165,10,-244,117,-47,68,14
1170,9,-246,112,-47,67,12
1175,11,-244,112,-46,67,13
1180,9,-242,116,-46,68,13
1185,10,-244,114,-44,68,12
1190,9,-241,114,-41,71,11
1195,10,-242,108,-40,71,12
1200,8,-245,112,-37,74,10
1205,10,-244,113,-35,73,10
1210,8,-243,112,-33,74,10
1215,11,-245,115,-33,78,8
1220,13,-244,116,-32,82,7
1225,11,-243,112,-31,83,6
1230,12,-248,113,-30,86,3
1235,13,-245,114,-30,86,1
1240,14,-244,108,-30,89,0
1245,13,-242,115,-31,91,-1
1250,13,-244,116,-30,95,-4
1255,11,-240,110,-31,98,-5
1260,13,-245,115,-31,100,-7
1265,13,-246,113,-29,100,-8
1270,14,-247,118,-28,101,-9
1275,11,-244,114,-28,102,-12
1280,12,-244,112,-26,104,-15
1285,17,-244,115,-25,105,-16
1290,14,-242,112,-24,106,-16
1295,14,-243,114,-24,108,-18
1300,15,-243,114,-23,111,-20
1305,13,-241,114,-25,111,-20
1310,15,-241,113,-25,113,-20
1315,13,-244,111,-25,113,-20
1320,11,-241,115,-25,115,-21
1325,8,-242,110,-27,116,-22
1330,12,-242,112,-28,117,-24
1335,13,-242,115,-28,118,-23
1340,12,-242,108,-28,118,-23
1345,13,-242,111,-28,120,-23
1350,13,-243,115,-27,120,-24
1355,12,-244,111,-26,120,-23
1360,13,-244,111,-26,122,-25
1365,11,-246,116,-26,122,-25
1370,11,-243,113,-26,122,-24
1375,11,-242,115,-27,123,-23
1380,10,-243,113,-28,123,-22
1385,10,-243,110,-29,121,-22
1390,11,-246,113,-29,121,-18
1395,11,-244,113,-29,116,-16
1400,9,-245,112,-30,114,-14
1405,9,-244,111,-29,113,-12
1410,8,-246,110,-28,112,-9
1415,6,-243,108,-27,109,-8
1420,9,-247,110,-24,105,-4
1425,7,-246,112,-22,101,-2
1430,6,-246,112,-18,97,0
1435,6,-250,113,-13,91,4
1440,7,-249,111,-7,87,8
1445,8,-247,109,-2,82,12
1450,5,-247,110,4,79,14
1455,7,-250,105,9,74,17
1460,5,-248,111,15,70,19
1465,6,-246,109,19,67,21
1470,6,-248,110,19,62,24
1475,4,-245,110,23,59,27
1480,3,-247,109,26,55,30
1485,6,-247,107,29,50,32
1490,5,-246,110,31,44,35
1495,4,-244,109,34,37,38
1500,-2,-246,111,36,31,41
1505,-3,-244,112,39,22,43
1510,0,-245,109,42,15,45
1515,0,-244,108,43,9,48
1520,-4,-242,106,42,2,51
1525,-6,-245,107,42,-4,53
1530,-5,-239,107,40,-9,56
1535,-5,-244,107,38,-19,58
1540,-8,-241,108,34,-27,61
1545,-11,-239,107,29,-37,63
1550,-12,-247,110,23,-44,66
1555,-9,-240,108,15,-53,69
1560,-9,-242,109,6,-59,70
1565,-8,-240,105,-4,-66,71
1570,-10,-242,110,-14,-71,75
1575,-7,-243,108,-24,-77,78
1580,-4,-245,111,-33,-82,80
1585,-5,-248,112,-36,-87,85
1590,-3,-246,112,-38,-89,87
1595,-6,-247,112,-35,-89,90
1600,-2,-247,114,-29,-86,94
1605,-2,-247,113,-21,-86,95
1610,-1,-246,116,-13,-83,95
1615,1,-246,113,-3,-80,94
1620,4,-245,114,3,-78,94
1625,3,-247,123,9,-77,94
1630,3,-242,116,13,-73,91
1635,4,-243,114,14,-70,90
1640,5,-242,113,14,-66,87
1645,6,-247,115,13,-62,85
1650,4,-242,113,14,-56,86
1655,6,-247,124,13,-50,83
1660,4,-240,115,11,-45,82
1665,3,-243,114,12,-41,82
1670,3,-243,115,12,-36,79
1675,-2,-237,114,14,-32,79
1680,1,-239,113,14,-28,76
1685,-5,-237,110,14,-23,74
1690,-5,-237,114,15,-17,73
1695,-4,-240,112,16,-14,68
1700,-7,-241,112,17,-9,64
1705,-5,-237,112,16,-7,58
1710,-8,-237,113,15,-2,52
1715,-9,-239,113,13,3,46
1720,-12,-234,116,10,6,38
1725,-8,-235,116,7,12,31
1730,-11,-235,117,2,14,23
1735,-15,-237,115,-1,17,15
1740,-13,-232,115,-4,18,5
1745,-14,-233,115,-7,17,-5
1750,-17,-233,117,-10,16,-13
1755,-17,-231,114,-11,11,-21
1760,-17,-233,115,-12,5,-30
1765,-22,-231,117,-15,-2,-39
1770,-17,-234,118,-19,-8,-47
1775,-18,-233,119,-25,-15,-60
1780,-17,-235,118,-32,-17,-71
1785,-17,-233,119,-39,-17,-83
1790,-17,-236,122,-47,-14,-96
1795,-17,-237,116,-60,-10,-107
1800,-14,-239,116,-77,-6,-116
1805,-15,-239,120,-98,-7,-119
1810,-10,-243,120,-122,-12,-120
1815,-11,-251,119,-145,-16,-117
1820,-4,-254,120,-163,-22,-110
1825,5,-256,116,-179,-29,-98
1830,9,-263,116,-192,-36,-84
1835,8,-266,119,-201,-39,-66
1840,11,-274,116,-205,-42,-44
1845,9,-276,114,-201,-46,-19
1850,16,-281,112,-186,-51,12
1855,16,-279,112,-161,-55,43
1860,15,-278,113,-130,-59,74
1865,10,-272,113,-94,-61,107
1870,5,-271,108,-63,-65,138
1875,3,-263,107,-37,-72,170
1880,4,-261,103,-24,-82,199
1885,-1,-256,101,-24,-91,225
1890,-5,-254,96,-33,-100,246
1895,-8,-251,93,-46,-112,264
1900,-11,-250,90,-60,-124,278
1905,-8,-253,92,-74,-132,289
1910,-15,-245,89,-83,-142,298
1915,-17,-241,88,-85,-152,304
1920,-17,-242,89,-84,-166,305
1925,-19,-239,87,-84,-177,304
1930,-14,-239,84,-85,-187,302
1935,-12,-236,86,-87,-192,297
1940,-14,-236,86,-90,-192,291
1945,-11,-236,83,-94,-187,287
1950,-10,-237,86,-97,-180,280
1955,-6,-234,87,-99,-173,274
1960,-8,-235,88,-100,-159,267
1965,-5,-237,87,-103,-144,258
1970,-2,-237,87,-109,-130,249
1975,-5,-236,90,-118,-114,243
1980,-9,-233,89,-123,-98,234
1985,-9,-237,94,-128,-85,226
1990,-7,-236,93,-128,-72,214
1995,-3,-237,94,-126,-60,204
2000,-5,-238,98,-123,-51,194
2005,-2,-238,96,-123,-38,183
2010,3,-235,92,-128,-22,171
2015,4,-234,94,-141,-6,158
2020,5,-237,94,-155,12,140
2025,4,-238,95,-166,26,115
2030,4,-238,90,-173,34,91
2035,-1,-238,91,-176,38,65
2040,-7,-242,88,-182,37,45
2045,-5,-242,90,-191,29,22
2050,-3,-243,91,-201,16,3
2055,5,-240,89,-210,5,-20
2060,10,-239,84,-218,0,-46
2065,20,-240,94,-225,6,-73
2070,19,-238,87,-227,25,-104
2075,28,-233,91,-230,51,-133
2080,41,-239,91,-239,82,-164
2085,41,-233,91,-259,126,-195
2090,40,-243,94,-290,186,-222
2095,38,-234,92,-329,247,-242
2100,42,-238,93,-366,308,-261
2105,42,-242,89,-395,368,-276
2110,39,-242,86,-419,430,-288
2115,32,-244,83,-438,496,-299
2120,25,-245,87,-447,551,-299
2125,22,-241,83,-450,594,-293
2130,31,-246,75,-445,618,-282
2135,26,-243,68,-447,629,-278
2140,25,-245,66,-469,650,-277
2145,36,-245,64,-501,670,-278
2150,29,-246,64,-531,690,-283
2155,23,-244,66,-559,717,-295
2160,6,-241,65,-586,737,-306
2165,-1,-242,66,-595,744,-310
2170,-9,-239,62,-591,731,-304
2175,5,-237,62,-596,700,-304
2180,-3,-228,63,-611,665,-316
2185,-5,-225,68,-627,651,-331
2190,-9,-222,70,-631,649,-323
2195,-18,-215,75,-618,659,-315
2200,-22,-211,70,-588,664,-309
2205,-27,-219,65,-537,619,-323
2210,-52,-211,56,-460,514,-354
2215,-29,-207,44,-382,390,-354
2220,-3,-205,34,-363,306,-355
2225,2,-199,31,-419,313,-374
2230,4,-203,33,-495,381,-384
2235,2,-209,43,-586,451,-390
2240,-1,-213,49,-644,493,-394
2245,2,-215,48,-667,510,-386
2250,1,-223,47,-672,529,-372
2255,-5,-221,49,-670,548,-359
2260,-2,-222,54,-667,553,-350
2265,4,-225,50,-660,539,-337
2270,15,-225,44,-651,523,-323
2275,21,-223,42,-645,522,-302
2280,23,-221,33,-650,539,-274
2285,27,-221,28,-663,571,-244
2290,22,-223,37,-687,612,-212
2295,18,-221,38,-715,655,-177
2300,16,-219,43,-738,686,-142
2305,8,-219,46,-749,704,-108
2310,4,-215,47,-753,706,-74
2315,1,-212,45,-752,693,-43
2320,3,-207,48,-749,671,-13
2325,-2,-203,48,-746,652,12
2330,-10,-199,53,-749,636,36
2335,-15,-193,58,-760,615,54
2340,-20,-194,56,-773,592,70
2345,-19,-192,61,-787,565,83
2350,-22,-189,58,-802,530,85
2355,-23,-188,55,-823,492,78
2360,-26,-189,54,-848,449,64
2365,-31,-187,48,-877,403,44
2370,-25,-185,40,-911,355,23
2375,-27,-189,38,-958,305,-1
2380,-28,-187,30,-1019,258,-28
2385,-26,-192,29,-1091,210,-58
2390,-29,-194,24,-1168,159,-84
2395,-28,-201,24,-1244,109,-113
2400,-26,-206,26,-1313,62,-138
2405,-28,-211,22,-1370,12,-162
2410,-26,-219,17,-1411,-39,-183
2415,-27,-225,15,-1439,-89,-194
2420,-19,-234,14,-1463,-134,-205
2425,-23,-235,13,-1479,-166,-217
2430,-19,-242,12,-1483,-184,-231
2435,-22,-248,9,-1480,-201,-249
2440,-22,-251,13,-1480,-199,-244
2445,-18,-255,25,-1477,-175,-224
2450,-14,-259,27,-1457,-137,-204
2455,2,-261,30,-1427,-93,-177
2460,9,-264,36,-1411,-32,-146
2465,4,-263,41,-1406,64,-122
2470,4,-263,51,-1393,155,-77
2475,-1,-268,50,-1358,206,-21
2480,2,-274,58,-1291,225,44
2485,15,-279,53,-1206,218,115
2490,15,-283,54,-1117,198,185
2495,35,-285,51,-1037,184,247
2500,39,-292,54,-965,199,303
2505,36,-297,62,-889,237,363
2510,37,-294,67,-779,275,417
2515,45,-293,66,-636,295,455
2520,67,-296,66,-470,283,465
2525,51,-294,58,-309,266,442
2530,71,-298,52,-166,252,415
2535,82,-295,44,-58,235,358
2540,73,-291,36,8,227,288
2545,69,-286,38,76,212,233
2550,63,-285,35,142,176,188
2555,64,-285,26,217,141,150
2560,67,-282,17,296,95,115
2565,46,-281,12,361,47,84
2570,33,-279,14,401,3,72
2575,25,-282,17,429,-34,73
2580,19,-278,19,465,-69,74
2585,16,-281,25,506,-99,70
2590,4,-280,23,556,-126,67
2595,-5,-284,23,610,-148,72
2600,-11,-286,29,671,-168,84
2605,-17,-291,30,751,-188,96
2610,-20,-299,36,839,-212,113
2615,-27,-295,42,933,-233,126
2620,-31,-297,36,1036,-251,145
2625,-31,-292,40,1135,-256,163
2630,-36,-293,41,1234,-256,173
2635,-40,-291,43,1335,-253,190
2640,-43,-292,44,1438,-252,210
2645,-43,-292,59,1538,-247,228
2650,-38,-289,55,1652,-249,251
2655,-25,-294,50,1757,-250,278
2660,-32,-282,55,1849,-250,287
2665,-28,-282,60,1952,-256,310
2670,-27,-279,60,2052,-265,344
2675,-21,-284,48,2129,-272,366
2680,-21,-272,53,2151,-262,365
2685,-9,-263,58,2163,-249,360
2690,-14,-266,64,2194,-244,354
2695,-1,-261,64,2223,-249,366
2700,5,-266,55,2249,-260,371
2705,15,-280,42,2238,-254,329
2710,7,-280,52,2175,-236,250
2715,9,-281,58,2114,-219,194
2720,14,-283,67,2077,-207,157
2725,14,-277,74,2044,-202,119
2730,15,-269,82,2031,-202,88
2735,10,-272,94,2042,-201,64
2740,9,-261,87,2071,-202,48
2745,11,-265,84,2096,-200,36
2750,8,-257,84,2097,-197,25
2755,10,-253,82,2069,-189,11
2760,12,-244,96,2015,-175,-1
2765,9,-236,87,1954,-156,-13
2770,7,-241,94,1876,-141,-24
2775,-1,-230,98,1770,-143,-42
2780,1,-229,90,1684,-159,-64
2785,6,-217,91,1611,-157,-85
2790,5,-208,93,1543,-139,-80
2795,7,-209,99,1472,-121,-54
2800,5,-205,101,1392,-104,-31
2805,-2,-213,111,1299,-91,-18
2810,-3,-220,118,1209,-93,-12
2815,-5,-218,128,1128,-111,-9
2820,-1,-218,125,1060,-128,-12
2825,2,-216,128,1001,-141,-14
2830,-2,-216,120,938,-148,-16
2835,0,-216,117,868,-144,-13
2840,-3,-222,122,801,-136,-9
2845,-7,-233,132,743,-128,-4
2850,-9,-237,132,689,-123,-1
2855,-8,-234,133,640,-122,-1
2860,-6,-237,133,593,-118,-4
2865,-7,-231,128,543,-116,-12
2870,0,-230,129,483,-115,-7
2875,0,-232,126,432,-108,-2
2880,4,-236,127,396,-99,-5
2885,5,-237,126,355,-90,-8
2890,4,-242,133,324,-88,-11
2895,11,-247,135,310,-92,-20
2900,7,-239,138,314,-100,-30
2905,6,-230,140,329,-105,-48
2910,4,-229,131,346,-100,-64
2915,3,-225,136,363,-87,-84
2920,3,-227,132,372,-69,-109
2925,12,-232,134,369,-48,-128
2930,0,-227,138,358,-21,-149
2935,0,-224,139,333,3,-173
2940,-6,-220,137,315,25,-192
2945,-8,-226,141,301,45,-205
2950,-12,-222,139,290,62,-213
2955,-2,-233,132,303,67,-196
2960,-8,-235,143,301,66,-214
2965,-13,-237,145,323,52,-222
2970,-11,-239,141,358,45,-213
2975,3,-251,138,408,52,-180
2980,-6,-241,146,429,76,-187
2985,-8,-241,144,448,96,-179
2990,-9,-242,147,469,105,-174
2995,-7,-250,144,490,108,-168
3000,5,-266,136,537,105,-134
3005,-2,-259,140,572,108,-149
3010,-6,-256,153,623,102,-150
3015,5,-261,142,675,97,-146
3020,5,-264,145,713,96,-153
3025,4,-261,143,728,98,-143
3030,26,-279,143,736,103,-137
3035,5,-266,148,752,108,-132
3040,4,-260,149,749,116,-146
3045,1,-254,155,764,127,-152
3050,2,-255,163,788,149,-153
3055,-3,-252,167,808,184,-151
3060,-11,-253,182,819,227,-140
3065,-15,-255,196,827,271,-128
3070,-19,-253,200,848,307,-116
3075,-20,-248,206,872,328,-103
3080,-13,-253,206,904,338,-96
3085,-9,-253,206,950,340,-87
3090,1,-260,209,1010,331,-76
3095,4,-258,211,1080,311,-67
3100,11,-257,214,1144,285,-60
3105,17,-256,221,1190,255,-58
3110,29,-252,217,1220,231,-55
3115,34,-246,218,1240,217,-48
3120,36,-241,222,1259,211,-37
3125,31,-239,225,1275,205,-23
3130,28,-236,230,1284,193,-10
3135,24,-239,236,1293,174,0
3140,18,-236,234,1303,155,5
3145,13,-230,237,1309,142,13
3150,4,-227,232,1313,132,22
3155,1,-223,233,1318,124,32
3160,-5,-218,233,1318,115,45
3165,-8,-220,235,1322,106,60
3170,-4,-215,236,1327,98,72
3175,-7,-213,244,1335,81,75
3180,-7,-212,236,1339,65,77
3185,-7,-208,238,1326,58,83
3190,3,-214,234,1297,60,92
3195,4,-215,234,1235,74,95
3200,5,-222,239,1149,84,95
3205,11,-236,252,1060,91,92
3210,10,-253,258,987,92,89
3215,13,-268,264,937,95,78
3220,17,-283,264,911,100,60
3225,17,-291,267,887,107,34
3230,14,-286,261,869,114,4
3235,8,-282,267,858,120,-23
3240,0,-275,278,868,120,-46
3245,-2,-270,278,911,114,-73
3250,-6,-267,282,991,102,-95
3255,0,-265,281,1096,88,-124
3260,4,-261,263,1208,81,-150
3265,6,-256,253,1304,87,-166
3270,13,-246,239,1366,107,-168
3275,15,-233,223,1389,134,-156
3280,12,-216,210,1371,162,-134
3285,15,-202,199,1321,185,-105
3290,9,-186,185,1243,201,-76
3295,6,-171,177,1149,206,-46
3300,4,-153,167,1041,200,-21
3305,2,-139,166,927,185,-2
3310,-1,-127,162,815,163,12
3315,-4,-114,161,708,141,20
3320,-5,-108,163,618,118,23
3325,-9,-98,170,549,98,26
3330,-9,-98,167,500,83,28
3335,-7,-96,175,466,70,25
3340,-9,-93,173,446,62,17
3345,-10,-94,183,440,58,13
3350,-10,-93,188,447,59,9
3355,-13,-95,191,463,61,7
3360,-13,-97,196,486,66,4
3365,-13,-102,200,514,69,4
3370,-21,-105,212,545,73,3
3375,-19,-109,216,578,75,7
3380,-21,-113,222,615,76,11
3385,-25,-115,222,652,74,14
3390,-24,-119,232,689,72,17
3395,-25,-122,242,731,67,20
3400,-28,-125,242,775,61,26
3405,-27,-126,242,818,58,32
3410,-29,-129,248,860,57,39
3415,-26,-128,248,905,57,49
3420,-22,-130,250,948,61,63
3425,-21,-130,254,990,63,79
3430,-14,-128,255,1034,66,96
3435,-11,-128,257,1077,67,111
3440,-9,-124,259,1117,70,128
3445,-9,-117,256,1151,71,147
3450,1,-113,257,1177,77,164
3455,1,-108,260,1194,82,178
3460,4,-106,258,1196,88,190
3465,4,-99,253,1182,93,198
3470,5,-93,254,1150,102,202
3475,6,-84,245,1101,110,201
3480,11,-82,245,1030,121,192
3485,13,-77,243,944,131,180
3490,13,-79,240,846,137,167
3495,17,-74,246,738,145,155
3500,14,-74,240,624,152,142
3505,15,-73,241,510,157,125
3510,14,-74,245,399,159,109
3515,13,-73,243,299,161,95
3520,13,-79,247,207,157,83
3525,10,-80,249,131,153,69
3530,12,-82,252,69,154,60
3535,11,-86,247,17,151,49
3540,9,-93,247,-21,147,41
3545,10,-89,249,-44,147,34
3550,8,-94,249,-59,146,28
3555,4,-97,249,-56,146,20
3560,6,-102,252,-37,145,12
3565,7,-106,259,0,150,6
3570,8,-108,267,61,161,-1
3575,5,-108,265,162,184,-9
3580,0,-103,253,282,210,-22
3585,1,-99,245,356,215,-28
3590,0,-94,242,373,199,-31
3595,3,-91,230,366,181,-30
3600,2,-90,234,340,159,-25
3605,4,-82,233,307,143,-20
3610,4,-88,235,275,127,-13
3615,0,-87,244,257,116,-6
3620,2,-88,241,259,110,3
3625,3,-87,243,273,106,9
3630,1,-88,243,289,102,16
3635,2,-84,245,304,98,23
3640,2,-85,254,318,92,28
3645,2,-82,247,344,91,29
3650,1,-80,243,374,94,28
3655,1,-82,248,378,89,28
3660,3,-81,251,368,83,28
3665,2,-79,245,357,76,27
3670,1,-81,248,344,73,21
3675,-6,-79,246,329,72,12
3680,-4,-82,240,300,69,4
3685,-3,-83,244,257,64,-2
3690,0,-85,243,214,62,-7
3695,-1,-83,242,179,64,-17
3700,-2,-87,241,148,66,-25
3705,-4,-85,247,120,70,-35
3710,-4,-90,243,100,77,-44
3715,4,-91,245,83,82,-51
3720,-2,-92,247,71,88,-60
3725,-2,-92,248,59,92,-65
3730,-4,-89,243,52,95,-66
3735,-1,-94,246,46,98,-68
3740,-1,-90,244,42,101,-69
3745,-2,-95,248,41,101,-70
3750,1,-96,249,41,101,-68
3755,-1,-93,244,39,100,-65
3760,-3,-93,245,39,99,-63
3765,-1,-90,250,40,97,-60
3770,0,-94,251,39,95,-59
3775,0,-88,251,38,93,-56
3780,0,-90,251,37,89,-53
3785,-2,-87,247,38,86,-51
3790,0,-85,246,39,80,-49
3795,-2,-86,250,39,77,-47
3800,-1,-86,252,39,73,-48
3805,-3,-85,250,36,70,-47
3810,0,-83,250,32,68,-46
3815,-4,-81,251,29,66,-44
3820,-7,-84,253,25,66,-44
3825,-3,-85,245,22,66,-43
3830,-4,-80,258,21,65,-41
3835,6,-83,253,20,63,-39
3840,-11,-78,245,17,62,-38
3845,-4,-68,251,15,59,-37
3850,-4,-86,228,13,58,-36
3855,0,-83,250,10,56,-33
3860,-4,-82,246,6,55,-29
3865,-4,-82,245,3,54,-28
3870,4,-89,252,1,51,-27
3875,0,-84,246,1,52,-27
3880,-3,-84,247,2,49,-24
3885,-2,-85,248,4,48,-22
3890,-4,-89,246,6,49,-19
3895,0,-79,240,8,49,-19
3900,3,-91,266,10,50,-16
3905,4,-91,247,11,48,-14
3910,4,-90,252,13,46,-14
3915,-3,-84,246,15,45,-12
3920,-3,-87,250,16,45,-10
3925,-4,-91,248,20,43,-8
3930,-3,-84,252,23,42,-4
3935,-6,-84,244,26,40,-4
3940,-6,-89,253,27,39,-1
3945,-14,-92,252,30,37,1
3950,-6,-88,247,31,37,5
3955,-5,-89,250,30,37,7
3960,-7,-86,248,30,36,10
3965,-3,-87,246,29,36,13
3970,11,-91,265,28,36,16
3975,-17,-97,250,26,35,18
3980,1,-89,249,25,35,22
3985,-8,-96,246,25,34,24
3990,4,-87,250,21,34,26
3995,-7,-90,254,20,35,29
4000,-3,-84,248,18,37,29
4005,-7,-86,244,17,38,30
4010,3,-87,250,15,39,31
4015,-5,-85,241,15,40,31
4020,-5,-89,245,13,40,32
4025,-2,-86,250,11,39,30
4030,-3,-90,247,10,39,30
4035,0,-90,247,6,42,29
4040,-1,-89,246,2,42,29
4045,3,-87,261,-3,44,28
4050,-1,-88,259,-6,45,27
4055,-4,-84,245,-12,46,27
4060,-2,-83,251,-18,47,27
4065,4,-84,245,-23,48,26
4070,-3,-87,245,-26,50,24
4075,-8,-87,255,-30,49,24
4080,-13,-79,245,-33,48,26
4085,4,-89,269,-37,49,26
4090,-2,-89,250,-41,49,25
4095,5,-88,254,-45,49,24
4100,2,-87,247,-51,49,24
4105,4,-84,245,-58,50,24
4110,2,-85,247,-66,48,23
4115,-1,-84,248,-79,49,23
4120,1,-86,250,-94,49,22
4125,2,-86,243,-112,50,21
4130,-1,-87,251,-126,50,20
4135,-6,-92,251,-138,52,18
4140,-13,-90,236,-147,53,18
4145,8,-89,252,-150,52,18
4150,-1,-88,240,-153,51,18
4155,8,-83,253,-155,51,17
4160,-7,-85,227,-162,52,16
4165,1,-77,238,-168,54,15
4170,8,-87,234,-179,56,15
4175,-5,-94,248,-190,57,13
4180,2,-87,248,-203,60,11
4185,2,-89,251,-217,61,11
4190,1,-91,249,-230,63,9
4195,1,-94,250,-241,63,7
4200,-1,-96,252,-249,63,6
4205,-5,-102,254,-254,61,3
4210,-5,-98,266,-260,59,2
4215,2,-72,245,-266,58,0
4220,1,-80,238,-275,58,-1
4225,-2,-80,249,-283,57,-4
4230,-4,-80,246,-294,58,-4
4235,2,-84,244,-305,58,-5
4240,-9,-95,245,-319,57,-7
4245,3,-84,248,-333,57,-7
4250,2,-110,251,-347,58,-9
4255,1,-99,248,-360,58,-10
4260,1,-100,248,-373,57,-11
4265,2,-99,246,-383,59,-14
4270,1,-101,244,-397,61,-15
4275,-3,-105,240,-413,60,-20
4280,1,-102,247,-428,60,-22
4285,1,-92,244,-439,61,-26
4290,-2,-101,247,-449,62,-28
4295,-2,-109,244,-457,62,-33
4300,-3,-100,246,-463,63,-35
4305,-1,-102,249,-467,65,-37
4310,-2,-103,246,-470,65,-40
4315,-4,-104,244,-471,65,-43
4320,-4,-105,246,-469,66,-45
4325,-1,-105,246,-468,68,-46
4330,1,-110,242,-470,70,-47
4335,-2,-114,243,-473,72,-49
4340,-2,-112,246,-475,75,-52
4345,0,-113,233,-476,75,-52
4350,-5,-114,243,-474,78,-52
4355,0,-117,242,-473,78,-53
4360,0,-113,241,-474,80,-52
4365,0,-117,242,-475,79,-52
4370,-1,-107,239,-478,78,-52
4375,-2,-116,240,-483,77,-51
4380,3,-116,243,-484,77,-49
4385,-5,-119,237,-483,74,-49
4390,1,-120,237,-484,71,-46
4395,-3,-122,258,-482,69,-47
4400,-1,-123,242,-479,66,-46
4405,-1,-122,238,-477,64,-46
4410,-2,-122,235,-473,62,-48
4415,-3,-125,236,-467,63,-46
4420,-7,-125,235,-463,63,-48
4425,-4,-121,243,-460,65,-48
4430,1,-125,230,-458,68,-48
4435,-3,-128,235,-456,68,-48
4440,-4,-128,233,-455,71,-50
4445,-1,-128,235,-452,73,-53
4450,0,-128,234,-450,78,-55
4455,-4,-129,232,-445,81,-54
4460,-1,-129,234,-442,83,-55
4465,-2,-130,229,-436,84,-56
4470,-9,-130,233,-429,86,-54
4475,0,-133,234,-419,88,-56
4480,-5,-132,232,-409,90,-56
4485,-3,-134,231,-399,90,-55
4490,-2,-136,228,-389,90,-52
4495,-1,-135,230,-381,89,-50
4500,-1,-136,230,-372,89,-50
4505,-1,-137,228,-362,88,-47
4510,0,-138,228,-352,88,-47
4515,-2,-138,230,-342,89,-43
4520,0,-140,227,-333,90,-40
4525,-3,-140,230,-323,90,-39
4530,-2,-142,230,-309,90,-36
4535,-3,-141,229,-295,87,-33
4540,-1,-141,230,-280,86,-29
4545,0,-143,230,-263,83,-28
4550,-3,-143,230,-246,81,-25
4555,2,-145,228,-233,78,-22
4560,2,-143,230,-222,77,-19
4565,-2,-145,227,-212,73,-19
4570,1,-144,224,-205,71,-18
4575,-1,-145,229,-200,69,-15
4580,0,-145,227,-195,69,-14
4585,2,-144,228,-190,67,-12
4590,-1,-144,224,-184,66,-10
4595,1,-144,224,-179,62,-9
4600,4,-149,232,-172,59,-6
4605,1,-144,225,-164,56,-5
4610,1,-146,230,-156,51,-3
4615,0,-146,228,-147,48,-1
4620,0,-142,229,-140,44,0
4625,1,-143,226,-136,41,1
4630,2,-143,229,-134,39,2
4635,4,-145,225,-133,36,4
4640,2,-144,226,-135,35,4
4645,2,-142,228,-136,32,5
4650,3,-144,225,-137,31,7
4655,1,-145,226,-137,31,7
4660,2,-141,227,-136,29,6
4665,-2,-142,225,-134,26,7
4670,2,-147,226,-130,25,8
4675,0,-144,225,-128,24,8
4680,-1,-139,226,-125,20,7
4685,-1,-143,227,-119,21,7
4690,-1,-141,227,-115,20,6
4695,2,-141,234,-112,20,4
4700,0,-141,226,-109,20,2
4705,0,-142,226,-104,23,0
4710,-4,-146,226,-98,24,1
4715,-4,-141,224,-94,25,-2
4720,1,-141,228,-86,28,-3
4725,2,-142,223,-80,30,-6
4730,0,-146,228,-73,33,-8
4735,-2,-144,226,-65,35,-6
4740,-2,-144,225,-57,38,-8
4745,0,-144,224,-50,41,-9
4750,-2,-141,226,-39,44,-12
4755,-3,-140,228,-28,46,-11
4760,0,-146,227,-18,47,-11
4765,-2,-141,221,-8,49,-12
4770,-1,-143,226,-3,50,-13
4775,-2,-145,225,1,52,-12
4780,1,-143,228,6,52,-12
4785,4,-148,228,9,54,-12
4790,0,-144,226,10,55,-12
4795,1,-144,225,12,58,-11
4800,1,-137,226,15,58,-11
4805,2,-145,222,20,60,-11
4810,-1,-144,224,25,60,-10
4815,4,-147,222,26,58,-10
4820,2,-144,219,28,58,-10
4825,1,-143,225,28,60,-9
4830,0,-142,224,27,62,-9
4835,2,-146,220,24,63,-8
4840,-1,-145,220,21,66,-7
4845,3,-143,222,18,66,-6
4850,1,-144,221,14,70,-4
4855,-2,-142,221,11,72,-2
4860,0,-145,220,8,73,-1
4865,2,-141,221,5,74,0
4870,0,-144,221,5,75,1
4875,2,-140,223,7,75,3
4880,3,-143,222,10,75,6
4885,2,-146,223,15,76,7
4890,2,-146,228,21,76,10
4895,4,-145,221,28,72,13
4900,5,-141,227,35,69,14
4905,3,-142,227,42,68,17
4910,2,-143,232,49,68,19
4915,4,-146,226,56,65,21
4920,2,-141,230,60,64,24
4925,2,-141,226,63,64,27
4930,5,-143,222,63,64,31
4935,3,-142,223,64,64,31
4940,3,-142,226,66,64,33
4945,4,-140,224,68,61,34
4950,3,-137,227,71,61,36
4955,4,-142,228,77,60,37
4960,4,-144,223,84,55,38
4965,4,-146,227,94,54,38
4970,5,-140,228,104,53,39
4975,4,-142,226,116,51,39
4980,4,-141,227,128,49,40
4985,2,-140,231,138,48,40
4990,4,-142,229,144,48,39
4995,2,-136,230,148,46,42
5000,4,-139,228,153,45,42
5005,7,-138,227,154,45,42
5010,4,-137,229,152,44,42
5015,1,-136,227,150,44,41
5020,4,-133,224,149,44,41
5025,4,-135,231,146,44,41
5030,5,-136,229,144,44,40
5035,4,-132,228,140,44,38
5040,4,-134,229,139,45,38
5045,4,-131,232,138,46,34
5050,5,-134,230,138,47,36
5055,4,-133,229,136,49,33
5060,6,-131,229,136,50,32
5065,3,-131,231,134,50,32
5070,3,-131,231,134,51,29
5075,4,-134,234,132,52,29
5080,1,-133,233,129,54,29
5085,1,-132,229,127,54,27
5090,2,-132,237,128,56,25
5095,3,-132,231,127,56,25
5100,4,-128,233,128,59,22
5105,3,-133,231,130,61,23
5110,3,-131,229,130,63,21
5115,3,-131,234,132,64,19
5120,1,-129,229,132,66,16
5125,-2,-129,225,131,67,15
5130,5,-130,230,129,69,13
5135,2,-129,230,129,72,11
5140,4,-131,225,128,74,10
5145,1,-130,228,127,77,8
5150,2,-129,232,127,78,8
5155,3,-128,231,126,80,6
5160,2,-128,231,127,81,4
5165,3,-130,235,127,82,2
5170,1,-129,232,125,83,2
5175,1,-131,227,125,84,0
5180,5,-129,229,124,83,1
5185,2,-130,230,124,84,1
5190,1,-128,233,123,83,1
5195,3,-129,233,123,83,1
5200,4,-129,233,123,84,0
5205,1,-130,234,121,82,1
5210,4,-128,231,122,83,-1
5215,-1,-127,233,122,83,-1
5220,-1,-128,236,123,83,-1
5225,0,-128,233,122,82,-1
5230,2,-128,235,123,82,-1
5235,4,-129,233,123,82,0
5240,3,-128,236,122,82,-1
5245,3,-129,232,121,83,-3
5250,4,-128,235,119,83,-5
5255,0,-126,232,118,84,-5
5260,-1,-127,230,114,83,-4
5265,1,-126,230,113,83,-4
5270,0,-128,232,111,82,-3
5275,3,-126,232,111,83,-3
5280,1,-127,233,111,83,-3
5285,4,-127,233,112,82,-2
5290,4,-126,234,112,83,-1
5295,0,-125,232,113,83,-1
5300,1,-125,235,112,82,0
5305,2,-124,234,112,82,1
5310,0,-124,233,111,81,-1
5315,2,-124,233,111,81,0
5320,0,-125,233,110,80,2
5325,-1,-123,233,109,81,0
5330,0,-125,233,107,81,2
5335,-3,-122,233,104,81,2
5340,1,-123,236,101,81,2
5345,4,-120,231,102,81,2
5350,-3,-124,235,104,80,3
5355,0,-126,234,107,78,3
5360,-1,-125,236,110,78,3
5365,2,-128,234,112,78,5
5370,1,-126,235,114,80,7
5375,2,-125,236,115,81,6
5380,0,-125,233,113,80,7
5385,0,-126,235,110,81,6
5390,0,-125,237,104,82,6
5395,-2,-124,241,100,81,4
5400,-4,-125,234,94,82,2
5405,0,-124,237,90,81,3
5410,-2,-122,237,88,82,2
5415,-3,-121,234,89,81,3
5420,3,-122,238,88,81,3
5425,3,-122,234,89,80,1
5430,0,-121,232,88,80,2
5435,-2,-118,238,86,80,3
5440,3,-124,236,83,78,4
5445,4,-122,235,79,78,4
5450,-4,-120,234,74,78,5
5455,0,-121,237,69,77,6
5460,0,-123,235,65,77,6
5465,3,-120,238,63,76,5
5470,5,-124,237,61,76,5
5475,2,-120,237,61,77,4
5480,4,-119,235,60,77,4
5485,-1,-116,236,60,78,5
5490,1,-119,237,61,76,4
5495,-1,-122,240,60,76,5
5500,-1,-119,240,63,73,6
5505,2,-119,240,66,73,7
5510,3,-121,240,70,72,7
5515,1,-121,240,71,72,7
5520,3,-121,237,75,72,7
5525,3,-123,238,74,71,7
5530,4,-120,236,74,70,7
5535,4,-118,238,74,71,7
5540,0,-119,236,74,68,7
5545,2,-118,240,72,67,7
5550,3,-117,238,72,66,7
5555,4,-117,240,71,65,5
5560,3,-118,236,69,65,6
5565,-1,-120,239,67,63,5
5570,0,-117,238,65,65,5
5575,0,-120,241,63,65,5
5580,2,-118,236,59,64,4
5585,3,-119,237,55,65,2
5590,2,-117,242,51,65,2
5595,1,-116,241,46,68,0
5600,0,-119,237,40,69,-1
5605,0,-117,239,37,71,-2
5610,0,-119,239,36,74,-4
5615,-1,-116,243,33,76,-7
5620,-3,-116,243,31,80,-9
5625,-3,-116,235,30,84,-10
5630,-2,-113,240,31,86,-13
5635,-4,-119,238,31,87,-14
5640,-1,-116,237,33,90,-16
5645,0,-120,243,35,94,-16
5650,-2,-120,236,36,98,-18
5655,-4,-120,239,38,101,-18
5660,-4,-116,242,40,105,-21
5665,-5,-116,240,41,108,-22
5670,-4,-119,240,40,112,-24
5675,-6,-115,239,39,117,-24
5680,-4,-116,237,37,120,-25
5685,-3,-118,242,35,122,-26
5690,-5,-121,243,34,125,-26
5695,-3,-118,241,33,129,-27
5700,-6,-118,240,34,131,-26
5705,-5,-120,237,34,132,-26
5710,-5,-121,240,35,132,-27
5715,-7,-116,237,33,134,-26
5720,-3,-117,242,33,134,-27
5725,-2,-119,238,31,135,-23
5730,-2,-118,236,30,135,-24
5735,-4,-118,241,27,134,-26
5740,-7,-115,235,24,135,-25
5745,-5,-116,239,22,134,-25
5750,-4,-114,239,18,134,-22
5755,-3,-117,236,16,133,-23
5760,-5,-114,240,14,131,-22
5765,-5,-116,240,13,131,-21
5770,-3,-117,241,13,130,-21
5775,-4,-115,237,13,129,-20
5780,-6,-108,235,13,129,-18
5785,-5,-115,241,14,128,-15
5790,-5,-115,242,16,125,-15
5795,-4,-117,238,19,123,-11
5800,-8,-115,241,21,119,-12
5805,-5,-116,240,21,116,-10
5810,-6,-118,238,23,111,-10
5815,-5,-118,238,26,108,-8
5820,-6,-116,236,31,102,-6
5825,-5,-114,239,35,100,-4
5830,-5,-117,240,39,98,-1
5835,-1,-118,240,44,95,-1
5840,-4,-115,237,46,94,-1
5845,-4,-115,239,48,91,3
5850,-5,-115,239,50,93,5
5855,-5,-116,239,51,92,6
5860,-5,-116,243,51,92,7
5865,-3,-116,242,51,92,5
5870,-6,-114,247,48,92,6
5875,-5,-115,243,46,92,4
5880,-3,-116,240,42,91,2
5885,-6,-116,241,41,91,1
5890,-3,-113,244,38,92,-1
5895,-4,-113,240,35,94,-2
5900,-3,-114,244,32,94,-1
5905,-2,-114,242,27,96,-3
5910,-3,-117,243,26,97,-4
5915,-5,-113,240,26,96,-5
5920,-5,-115,240,23,96,-7
5925,-4,-115,242,23,94,-8
5930,-2,-113,242,24,95,-9
5935,-5,-112,240,22,94,-9
5940,-3,-114,245,23,91,-8
5945,-2,-115,242,22,91,-7
5950,-3,-113,242,22,89,-7
5955,-2,-114,240,23,88,-8
5960,-4,-115,242,24,84,-6
5965,-3,-113,240,26,83,-6
5970,-3,-115,241,30,81,-4
5975,-3,-116,240,34,80,-3
5980,-4,-116,237,37,77,-2
5985,-3,-115,244,42,78,-2
5990,-5,-114,239,44,76,-1
5995,-3,-112,239,43,77,0
6000,-3,-114,234,41,75,-1
6005,-4,-112,243,35,76,-2
6010,-6,-114,243,28,76,-2
6015,-2,-113,242,22,76,-3
6020,-1,-114,243,19,75,-4
6025,-1,-116,244,19,77,-5
6030,-5,-113,242,18,76,-4
6035,-4,-114,243,18,75,-6
6040,-2,-111,242,18,73,-6
6045,-2,-109,241,16,74,-5
6050,0,-118,236,14,72,-6
6055,-2,-111,239,10,72,-5
6060,-1,-111,244,4,71,-5
6065,-2,-115,245,-4,69,-5
6070,-1,-114,246,-11,68,-5
6075,-2,-114,242,-16,66,-5
6080,-3,-114,243,-21,66,-5
6085,-2,-113,239,-26,65,-5
6090,-1,-117,244,-30,67,-6
6095,2,-116,240,-35,66,-8
6100,-5,-114,248,-36,68,-12
6105,-4,-114,240,-40,70,-14
6110,-4,-110,243,-46,71,-15
6115,-7,-112,242,-53,74,-20
6120,-2,-115,243,-62,77,-21
6125,-3,-115,240,-72,79,-24
6130,-5,-114,244,-79,82,-26
6135,-4,-111,241,-87,84,-28
6140,-5,-112,242,-94,87,-31
6145,-3,-114,239,-100,90,-32
6150,-4,-112,244,-105,94,-33
6155,-3,-112,239,-110,94,-35
6160,-2,-112,242,-116,94,-36
6165,-3,-110,245,-122,95,-37
6170,-3,-111,246,-129,96,-39
6175,1,-109,239,-138,92,-41
6180,-2,-108,240,-146,90,-42
6185,-2,-108,243,-156,88,-42
6190,-5,-105,244,-166,86,-42
6195,-2,-108,245,-174,83,-42
6200,-3,-107,243,-180,82,-44
6205,-3,-108,243,-184,80,-45
6210,-4,-110,245,-186,80,-46
6215,-4,-106,245,-192,77,-48
6220,-6,-108,244,-200,77,-50
6225,-2,-108,245,-205,76,-52
6230,-1,-108,247,-212,74,-53
6235,1,-111,240,-219,75,-58
6240,-4,-107,243,-226,74,-61
6245,-6,-110,241,-233,75,-64
6250,-4,-111,244,-241,75,-64
6255,-6,-111,242,-251,79,-67
6260,-6,-105,235,-262,82,-68
6265,-6,-105,236,-276,86,-71
6270,-3,-106,236,-294,87,-73
6275,-4,-106,236,-314,91,-72
6280,-7,-108,233,-336,94,-72
6285,-6,-108,236,-357,97,-70
6290,-6,-107,235,-377,97,-69
6295,-5,-108,237,-396,97,-69
6300,-6,-111,237,-414,97,-67
6305,-8,-112,235,-429,100,-66
6310,-7,-112,235,-441,99,-63
6315,-8,-113,227,-453,102,-63
6320,-9,-114,233,-465,102,-64
6325,-13,-111,230,-477,104,-65
6330,-11,-113,231,-490,104,-66
6335,-12,-112,229,-505,104,-65
6340,-11,-117,226,-521,103,-67
6345,-10,-114,226,-539,101,-67
6350,-12,-115,227,-556,102,-67
6355,-10,-117,228,-574,102,-68
6360,-8,-115,223,-592,103,-67
6365,-8,-122,226,-612,101,-67
6370,-5,-119,227,-628,101,-67
6375,-7,-119,225,-644,100,-68
6380,-6,-121,229,-659,97,-66
6385,-7,-124,227,-675,93,-65
6390,-6,-126,230,-689,87,-62
6395,-2,-127,223,-703,82,-60
6400,-4,-126,226,-719,74,-60
6405,-5,-126,225,-735,70,-57
6410,-8,-127,223,-751,65,-56
6415,-5,-132,226,-769,58,-52
6420,-3,-129,225,-787,52,-52
6425,-2,-130,221,-806,44,-53
6430,-1,-132,220,-825,35,-51
6435,0,-132,221,-845,28,-52
6440,0,-132,221,-858,19,-55
6445,-2,-134,219,-878,10,-54
6450,-2,-135,220,-897,2,-57
6455,4,-137,218,-914,-4,-62
6460,4,-138,223,-929,-9,-65
6465,4,-144,223,-941,-9,-68
6470,4,-146,218,-945,-7,-69
6475,3,-142,221,-952,-9,-74
6480,3,-144,219,-957,-9,-79
6485,0,-146,223,-962,-10,-82
6490,2,-149,222,-965,-11,-81
6495,4,-149,228,-961,-11,-84
6500,3,-152,226,-954,-13,-85
6505,3,-152,231,-947,-14,-86
6510,7,-154,232,-942,-20,-89
6515,6,-149,230,-940,-28,-96
6520,6,-150,235,-941,-35,-104
6525,6,-153,235,-948,-43,-108
6530,8,-152,238,-961,-53,-116
6535,11,-151,241,-975,-61,-126
6540,5,-146,243,-988,-72,-136
6545,4,-144,245,-1001,-75,-134
6550,11,-147,238,-1022,-73,-134
6555,6,-141,236,-1062,-62,-124
6560,6,-144,236,-1103,-51,-100
6565,6,-143,237,-1155,-36,-71
6570,5,-146,230,-1205,-20,-38
6575,-3,-152,228,-1250,-6,1
6580,-17,-153,221,-1297,-1,42
6585,-19,-165,229,-1349,-15,87
6590,-11,-178,223,-1392,-52,136
6595,-41,-163,230,-1424,-87,165
6600,-23,-199,212,-1437,-119,211
6605,-26,-209,213,-1440,-145,253
6610,-22,-230,211,-1425,-169,281
6615,-74,-210,218,-1391,-191,293
6620,-44,-246,194,-1355,-206,305
6625,-44,-256,193,-1332,-211,296
6630,-43,-267,194,-1294,-204,276
6635,-26,-280,191,-1225,-186,266
6640,-24,-294,198,-1154,-162,245
6645,-16,-281,214,-1057,-131,228
6650,-15,-277,218,-916,-102,187
6655,-25,-289,239,-713,-65,176
6660,20,-268,188,-443,2,176
6665,21,-305,159,-341,34,118
6670,11,-269,159,-404,55,69
6675,-6,-248,178,-458,85,19
6680,4,-279,162,-431,132,5
6685,17,-256,184,-496,143,-10
6690,-9,-257,156,-549,145,-45
6695,21,-296,148,-651,119,-51
6700,-7,-281,167,-829,85,-99
6705,14,-302,166,-914,51,-78
6710,-4,-291,192,-972,36,-100
6715,-12,-278,201,-973,16,-114
6720,2,-297,169,-901,11,-53
6725,1,-302,170,-897,6,-67
6730,-3,-293,184,-961,-4,-76
6735,24,-287,199,-996,-8,-73
6740,-60,-225,215,-1010,-13,-79
6745,1,-300,171,-990,-18,-25
6750,-3,-287,184,-1029,-22,-56
6755,-5,-287,177,-1044,-46,-86
6760,-32,-242,200,-1074,-62,-73
6765,-10,-257,175,-1065,-54,-17
6770,36,-359,120,-1034,-45,-21
6775,10,-304,161,-1179,-49,-39
6780,18,-297,161,-1249,-50,-49
6785,16,-297,157,-1262,-40,-55
6790,19,-306,162,-1257,-30,-49
6795,21,-304,166,-1250,-7,-38
6800,21,-299,163,-1234,16,-34
6805,13,-304,162,-1225,27,-49
6810,13,-296,159,-1241,37,-29
6815,11,-285,155,-1260,57,-22
6820,-6,-271,146,-1288,71,-20
6825,13,-274,146,-1337,69,-12
6830,10,-264,148,-1399,78,13
6835,5,-254,140,-1457,87,34
6840,-5,-238,140,-1516,92,54
6845,11,-250,143,-1570,87,55
6850,7,-246,144,-1641,84,96
6855,7,-247,136,-1703,85,116
6860,23,-242,150,-1757,80,126
6865,3,-217,133,-1786,64,112
6870,13,-250,132,-1804,34,119
6875,4,-242,134,-1838,21,148
6880,0,-245,124,-1844,15,153
6885,0,-240,119,-1844,4,153
6890,0,-239,115,-1838,-10,150
6895,-5,-239,113,-1834,-21,144
6900,-9,-235,109,-1837,-32,141
6905,-18,-235,106,-1839,-44,137
6910,-19,-235,104,-1831,-58,133
6915,-18,-237,106,-1807,-76,135
6920,-20,-234,108,-1754,-98,144
6925,-13,-239,107,-1672,-126,155
6930,-10,-239,98,-1570,-156,167
6935,4,-244,98,-1458,-184,173
6940,10,-244,93,-1344,-208,175
6945,19,-244,89,-1233,-220,174
6950,31,-248,83,-1131,-224,166
6955,37,-244,84,-1042,-218,150
6960,38,-243,81,-957,-208,124
6965,30,-243,85,-883,-193,89
6970,36,-246,86,-818,-174,50
6975,26,-249,86,-759,-155,12
6980,20,-250,86,-703,-136,-26
6985,14,-254,89,-648,-115,-58
6990,5,-260,90,-592,-94,-80
6995,2,-258,82,-536,-76,-92
7000,-6,-262,84,-482,-58,-103
7005,-13,-267,83,-427,-48,-106
7010,-14,-270,83,-371,-43,-105
7015,-21,-266,83,-314,-42,-101
7020,-17,-272,77,-254,-39,-88
7025,-20,-274,78,-200,-32,-72
7030,-20,-276,76,-156,-24,-53
7035,-16,-276,75,-110,-17,-33
7040,-21,-280,76,-61,-12,-11
7045,-13,-281,72,-21,-10,-5
7050,-20,-281,76,21,-6,6
7055,-12,-284,77,75,-5,19
7060,-8,-283,75,135,-8,29
7065,-6,-281,78,196,-6,33
7070,-4,-282,73,253,-3,36
7075,-4,-281,68,303,5,37
7080,-6,-273,73,342,21,34
7085,-3,-280,66,375,35,35
7090,0,-279,64,395,52,29
7095,-7,-268,69,414,72,24
7100,-5,-269,64,429,92,20
7105,0,-268,66,428,113,14
7110,2,-259,67,417,134,3
7115,1,-257,71,403,160,-11
7120,6,-256,66,385,189,-19
7125,6,-253,63,350,216,-29
7130,-1,-247,62,316,247,-39
7135,1,-248,66,274,277,-43
7140,0,-249,67,239,303,-50
7145,-3,-243,69,204,331,-60
7150,0,-246,68,172,347,-71
7155,-1,-246,71,139,367,-77
7160,1,-245,74,104,382,-83
7165,1,-245,70,68,397,-88
7170,4,-245,73,30,407,-92
7175,6,-247,80,-4,417,-99
7180,5,-250,87,-28,426,-99
7185,6,-254,86,-47,434,-98
7190,3,-253,86,-63,438,-96
7195,4,-255,92,-77,440,-91
7200,4,-255,90,-91,439,-87
7205,5,-257,95,-102,434,-85
7210,4,-257,96,-109,426,-85
7215,4,-256,101,-110,412,-88
7220,5,-257,93,-109,397,-97
7225,3,-254,95,-104,381,-105
7230,2,-253,99,-96,364,-110
7235,5,-252,99,-87,351,-114
7240,1,-253,103,-74,340,-121
7245,4,-252,100,-63,324,-125
7250,-2,-245,106,-57,310,-128
7255,-2,-247,106,-40,293,-122
7260,-2,-244,111,-17,278,-119
7265,-1,-246,111,9,265,-116
7270,2,-247,109,33,252,-112
7275,-2,-245,112,60,239,-105
7280,3,-249,110,90,224,-103
7285,0,-244,109,124,210,-107
7290,-3,-249,110,165,199,-108
7295,0,-242,108,202,193,-111
7300,-5,-245,109,240,181,-111
7305,-5,-243,102,280,171,-107
7310,-4,-239,98,309,160,-106
7315,-3,-242,97,329,150,-105
7320,1,-239,94,339,138,-109
7325,2,-234,93,342,126,-112
7330,2,-229,89,344,116,-114
7335,0,-229,90,351,108,-120
7340,1,-228,92,368,101,-125
7345,2,-227,94,397,95,-132
7350,4,-229,86,433,94,-140
7355,3,-224,85,473,93,-149
7360,2,-223,84,510,94,-155
7365,4,-221,84,545,95,-156
7370,1,-220,85,580,97,-156
7375,-1,-217,86,619,97,-157
7380,1,-215,85,659,98,-155
7385,4,-216,84,698,97,-149
7390,3,-215,85,739,96,-144
7395,3,-212,82,779,94,-138
7400,4,-212,82,819,92,-132
7405,3,-210,80,856,89,-127
7410,3,-205,77,886,85,-123
7415,4,-206,76,908,80,-117
7420,2,-203,77,920,77,-110
7425,-2,-201,74,926,75,-101
7430,2,-196,77,926,69,-88
7435,0,-199,77,924,66,-75
7440,0,-194,75,918,65,-61
7445,2,-196,73,911,61,-49
7450,-3,-192,76,897,57,-38
7455,-3,-194,74,878,52,-26
7460,-4,-192,74,856,45,-12
7465,1,-194,73,829,42,2
7470,-3,-193,75,797,39,13
7475,0,-194,76,763,36,22
7480,-1,-195,72,726,30,32
7485,-2,-199,75,688,25,41
7490,3,-204,76,658,21,48
7495,-1,-205,71,624,18,55
7500,4,-209,75,593,20,62
7505,0,-211,74,566,24,66
7510,-2,-212,77,541,28,70
7515,3,-215,80,517,30,72
7520,3,-213,80,492,32,74
7525,4,-221,82,469,35,78
7530,4,-220,84,448,36,81
7535,5,-225,80,431,38,81
7540,6,-227,82,415,40,80
7545,4,-230,84,403,42,78
7550,4,-225,86,395,43,78
7555,3,-228,83,386,44,79
7560,4,-229,87,380,43,79
7565,6,-231,88,377,38,76
7570,7,-231,91,375,35,71
7575,5,-231,95,377,30,64
7580,6,-233,92,378,22,55
7585,5,-233,95,382,17,49
7590,5,-230,92,384,13,46
7595,5,-230,97,387,9,43
7600,6,-233,100,388,3,39
7605,7,-230,97,386,-2,34
7610,6,-231,98,381,-9,28
7615,5,-228,97,372,-13,27
7620,10,-225,96,359,-14,26
7625,6,-226,95,341,-18,26
7630,5,-228,99,323,-19,25
7635,7,-227,93,305,-20,28
7640,5,-226,97,287,-21,30
7645,5,-229,100,271,-21,28
7650,8,-228,99,253,-19,28
7655,7,-225,99,238,-16,29
7660,4,-230,98,222,-10,31
7665,5,-228,100,206,-4,37
7670,7,-231,101,196,0,39
7675,6,-231,104,187,1,42
7680,7,-229,101,180,2,46
7685,6,-228,110,173,2,51
7690,6,-227,106,165,1,58
7695,7,-227,108,160,5,62
7700,9,-231,108,158,9,64
7705,7,-233,109,158,11,66
7710,5,-231,111,164,14,66
7715,7,-231,109,170,16,69
7720,5,-231,113,178,17,70
7725,2,-230,117,182,17,74
7730,4,-236,107,186,15,75
7735,5,-231,115,188,14,76
7740,8,-232,114,187,12,76
7745,6,-232,115,182,9,72
7750,4,-231,115,179,11,72
7755,6,-229,115,175,10,68
7760,8,-233,122,172,9,66
7765,7,-232,122,173,6,61
7770,7,-230,124,171,3,56
7775,6,-230,120,170,-1,52
7780,4,-230,123,170,-3,48
7785,4,-228,126,170,-5,44
7790,4,-228,127,169,-4,38
7795,4,-223,122,168,-6,33
7800,3,-225,126,166,-4,29
7805,4,-223,127,164,-2,26
7810,4,-225,128,165,1,24
7815,4,-226,127,166,2,20
7820,2,-226,130,168,4,13
7825,2,-222,129,166,6,7
7830,1,-221,127,161,8,5
7835,3,-222,130,157,9,4
7840,1,-219,121,152,9,3
7845,3,-221,129,151,6,1
7850,1,-223,132,152,5,0
7855,-1,-222,126,152,4,0
7860,3,-224,130,152,2,1
7865,-2,-224,127,154,-2,0
7870,1,-222,128,156,-6,1
7875,-2,-222,128,160,-12,3
7880,3,-224,126,161,-16,3
7885,0,-226,126,160,-20,2
7890,4,-223,119,158,-24,2
7895,-3,-225,124,152,-27,5
7900,2,-224,123,142,-30,9
7905,-1,-225,121,125,-35,11
7910,-1,-225,119,103,-36,15
7915,0,-226,122,80,-40,18
7920,3,-226,124,56,-42,25
7925,-2,-223,121,32,-45,29
7930,1,-231,124,8,-50,37
7935,-2,-229,122,-14,-53,45
7940,2,-231,124,-33,-56,57
7945,2,-229,128,-51,-58,64
7950,3,-232,130,-65,-59,74
7955,3,-235,127,-75,-59,84
7960,5,-239,131,-78,-58,91
7965,5,-239,132,-79,-54,101
7970,4,-240,133,-74,-46,108
7975,5,-239,135,-64,-43,118
7980,5,-240,139,-51,-40,125
7985,7,-241,138,-38,-36,130
7990,4,-240,138,-25,-33,136
7995,6,-240,138,-13,-31,140
8000,5,-237,140,-3,-29,142
8005,7,-240,139,8,-28,143
8010,6,-239,138,19,-27,141
8015,8,-240,137,25,-27,141
8020,6,-235,142,31,-29,141
8025,10,-235,141,37,-30,138
8030,4,-233,143,44,-31,134
8035,5,-231,140,49,-33,131
8040,5,-228,140,52,-35,128
8045,5,-227,138,53,-34,125
8050,4,-220,138,53,-32,118
8055,2,-220,142,53,-30,114
8060,4,-220,142,52,-28,109
8065,3,-217,138,49,-27,106
8070,3,-217,140,46,-26,103
8075,4,-216,142,43,-28,101
8080,2,-218,141,39,-27,96
8085,0,-211,143,35,-27,92
8090,1,-216,147,30,-25,90
8095,1,-213,143,22,-25,93
8100,-2,-211,149,14,-24,92
8105,-5,-209,143,11,-24,91
8110,-1,-213,140,5,-26,87
8115,-3,-213,144,-4,-25,87
8120,0,-219,141,-17,-28,87
8125,-4,-214,141,-33,-30,88
8130,-4,-217,141,-46,-35,90
8135,-6,-216,141,-59,-40,90
8140,-5,-217,137,-71,-44,92
8145,-3,-221,140,-82,-46,94
8150,-4,-221,137,-96,-49,95
8155,-3,-221,133,-112,-53,97
8160,-1,-223,141,-131,-62,96
8165,2,-223,137,-149,-67,98
8170,3,-225,141,-158,-70,100
8175,0,-229,137,-160,-71,99
8180,3,-230,134,-156,-73,99
8185,5,-232,131,-151,-72,101
8190,3,-230,132,-146,-71,102
8195,1,-229,133,-142,-71,102
8200,6,-232,131,-143,-69,102
8205,5,-232,131,-144,-65,103
8210,8,-234,131,-148,-64,103
8215,6,-236,128,-152,-60,103
8220,7,-234,132,-156,-58,102
8225,4,-232,132,-157,-56,99
8230,7,-235,133,-158,-55,97
8235,7,-236,136,-158,-49,94
8240,7,-235,136,-155,-46,90
8245,8,-232,136,-151,-41,86
8250,11,-234,137,-147,-37,80
8255,9,-234,136,-142,-34,77
8260,6,-232,141,-136,-30,73
8265,5,-232,136,-132,-27,66
8270,7,-232,136,-129,-25,62
8275,8,-235,140,-126,-23,57
8280,6,-232,138,-122,-18,51
8285,6,-228,138,-118,-14,46
8290,7,-230,133,-117,-10,42
8295,8,-231,138,-113,-6,36
8300,6,-231,135,-111,-2,32
8305,8,-232,134,-109,2,29
8310,6,-232,135,-104,5,26
8315,7,-235,131,-100,9,23
8320,5,-230,138,-95,10,19
8325,4,-228,130,-92,11,17
8330,6,-228,135,-92,18,17
8335,5,-230,134,-93,17,14
8340,4,-229,135,-94,15,11
8345,5,-229,132,-96,16,9
8350,4,-231,132,-96,18,6
8355,4,-229,134,-97,20,5
8360,2,-230,131,-99,25,1
8365,4,-230,135,-102,29,0
8370,5,-229,130,-105,33,-3
8375,6,-220,126,-108,50,4
8380,5,-230,126,-134,84,18
8385,-3,-239,130,-177,86,7
8390,3,-235,132,-206,82,4
8395,5,-238,135,-213,79,5
8400,4,-239,134,-205,81,7
8405,5,-241,134,-191,81,7
8410,4,-238,136,-173,83,9
8415,5,-242,133,-156,86,11
8420,4,-241,135,-139,89,11
8425,4,-240,129,-126,92,12
8430,4,-241,127,-117,94,11
8435,4,-240,129,-108,97,12
8440,5,-240,127,-96,99,10
8445,5,-238,129,-92,102,9
8450,6,-235,128,-90,107,7
8455,5,-240,131,-89,108,4
8460,5,-240,131,-86,113,-2
8465,5,-241,128,-79,114,-6
8470,4,-239,128,-73,115,-10
8475,4,-241,129,-65,116,-13
8480,1,-236,125,-58,117,-19
8485,4,-239,126,-53,118,-22
8490,7,-236,133,-49,118,-26
8495,1,-238,125,-51,119,-30
8500,4,-235,127,-53,119,-28
8505,4,-236,125,-55,118,-31
8510,4,-237,124,-55,118,-33
8515,4,-236,125,-56,118,-35
8520,4,-233,124,-56,118,-33
8525,1,-232,127,-59,117,-30
8530,4,-235,125,-63,120,-29
8535,6,-235,127,-66,122,-25
8540,1,-236,130,-68,118,-21
8545,2,-235,128,-69,115,-16
8550,3,-241,128,-66,113,-9
8555,-1,-240,127,-64,109,-6
8560,-1,-239,126,-61,104,-1
8565,2,-240,125,-57,101,1
8570,1,-241,128,-55,99,8
8575,1,-241,123,-52,97,9
8580,0,-240,125,-46,94,12
8585,0,-243,124,-43,93,15
8590,-2,-240,126,-35,92,14
8595,-5,-239,128,-26,91,14
8600,-5,-235,130,-18,90,17
8605,-4,-240,126,-13,90,18
8610,-1,-236,128,-8,90,20
8615,-1,-240,127,-7,89,21
8620,1,-238,128,-5,85,21
8625,-2,-236,129,-4,83,24
8630,-3,-235,129,-5,80,24
8635,-4,-234,130,-8,75,27
8640,0,-233,125,-13,70,28
8645,1,-230,125,-17,66,29
8650,-2,-237,127,-25,59,32
8655,2,-234,129,-36,52,36
8660,2,-232,129,-41,43,35
8665,0,-234,130,-46,38,32
8670,3,-232,125,-48,32,33
8675,2,-235,125,-51,27,31
8680,3,-234,128,-52,26,31
8685,2,-234,125,-52,24,29
8690,4,-235,124,-50,25,27
8695,5,-237,123,-45,28,25
8700,2,-238,128,-43,33,22
8705,2,-237,125,-43,37,19
8710,3,-237,127,-45,41,15
8715,4,-237,126,-45,46,13
8720,4,-237,128,-45,45,8
8725,-1,-235,125,-45,46,7
8730,4,-238,124,-42,46,5
8735,4,-241,124,-39,46,4
8740,4,-241,125,-34,46,0
8745,4,-241,122,-30,47,-3
8750,5,-243,125,-28,52,-7
8755,4,-241,120,-25,57,-11
8760,4,-243,122,-22,62,-13
8765,4,-241,121,-21,66,-16
8770,6,-241,122,-19,71,-18
8775,6,-242,122,-20,74,-20
8780,5,-237,123,-18,77,-22
8785,5,-238,123,-17,81,-24
8790,4,-236,122,-16,85,-26
8795,5,-234,121,-14,85,-28
8800,3,-235,125,-11,88,-29
8805,4,-236,127,-5,93,-29
8810,2,-232,126,-2,95,-28
8815,4,-232,125,3,96,-30
8820,5,-236,129,5,99,-31
8825,5,-236,128,8,103,-33
8830,5,-234,127,8,105,-35
8835,3,-233,127,6,110,-36
8840,4,-236,126,4,113,-36
8845,4,-233,128,-1,115,-39
8850,3,-232,126,-6,118,-41
8855,2,-233,127,-12,120,-44
8860,4,-236,125,-15,122,-45
8865,4,-236,127,-21,125,-47
8870,4,-237,128,-27,126,-50
8875,4,-239,130,-29,130,-52
8880,4,-240,127,-26,134,-55
8885,4,-237,125,-24,136,-57
8890,5,-234,127,-19,139,-59
8895,5,-236,124,-16,140,-62
8900,5,-237,126,-13,141,-62
8905,5,-236,125,-12,143,-63
8910,5,-234,127,-13,142,-62
8915,4,-235,129,-16,144,-61
8920,5,-235,128,-17,144,-61
8925,4,-236,128,-19,142,-61
8930,2,-237,132,-21,142,-59
8935,4,-232,127,-24,142,-58
8940,4,-232,129,-26,142,-59
8945,4,-234,125,-27,142,-59
8950,-1,-232,127,-27,139,-58
8955,2,-234,127,-27,140,-58
8960,1,-231,127,-27,139,-57
8965,3,-233,129,-31,137,-57
8970,3,-234,128,-31,133,-57
8975,0,-232,127,-30,132,-57
8980,2,-235,126,-31,130,-57
8985,1,-232,127,-31,130,-59
8990,0,-232,131,-31,130,-58
8995,3,-236,126,-32,130,-59
9000,-2,-235,129,-31,130,-58
9005,4,-237,126,-32,130,-60
9010,-1,-237,126,-32,129,-60
9015,4,-235,130,-33,130,-60
9020,0,-234,129,-31,128,-61
9025,1,-237,127,-28,128,-62
9030,1,-234,131,-26,127,-61
9035,0,-244,133,-23,126,-59
9040,3,-240,128,-21,126,-60
9045,-1,-237,132,-16,125,-59
9050,0,-240,128,-12,124,-61
9055,0,-239,132,-7,123,-60
9060,2,-241,129,-2,123,-58
9065,2,-238,128,3,122,-57
9070,1,-242,132,10,122,-58
9075,1,-241,134,16,123,-58
9080,1,-243,135,27,124,-58
9085,2,-247,138,39,126,-57
9090,-2,-249,137,58,125,-54
9095,-1,-252,139,81,124,-51
9100,-1,-254,138,112,125,-48
9105,4,-256,139,151,125,-48
9110,1,-253,135,191,126,-49
9115,2,-252,141,230,126,-45
9120,1,-252,140,264,124,-39
9125,0,-252,140,295,120,-37
9130,1,-249,141,321,114,-34
9135,3,-250,137,346,108,-30
9140,0,-240,143,368,101,-27
9145,-1,-235,142,379,91,-25
9150,0,-232,143,377,85,-25
9155,3,-227,136,365,81,-28
9160,1,-224,132,354,77,-33
9165,-3,-224,130,346,76,-37
9170,3,-220,123,338,73,-40
9175,0,-214,123,328,72,-42
9180,-6,-209,122,304,73,-43
9185,-4,-207,119,268,78,-42
9190,-6,-208,116,214,83,-39
9195,-4,-206,116,156,85,-35
9200,-5,-211,120,97,85,-35
9205,-3,-216,126,46,85,-35
9210,-2,-227,127,8,85,-31
9215,-5,-232,129,-6,84,-28
9220,-1,-237,131,4,82,-24
9225,0,-240,132,29,78,-16
9230,1,-241,131,62,71,-9
9235,-2,-241,134,92,62,-2
9240,0,-241,130,115,50,5
9245,-1,-236,135,123,41,10
9250,5,-234,133,115,33,13
9255,3,-228,140,96,29,13
9260,4,-227,137,70,28,12
9265,6,-227,137,47,30,9
9270,5,-227,138,31,34,2
9275,5,-227,140,22,37,-3
9280,5,-230,137,25,40,-7
9285,4,-226,136,37,44,-11
9290,5,-228,139,56,46,-15
9295,7,-226,137,76,49,-15
9300,7,-227,136,92,51,-16
9305,7,-221,139,103,51,-18
9310,7,-224,133,108,52,-21
9315,6,-224,137,106,50,-23
9320,5,-225,138,96,49,-25
9325,5,-226,137,82,49,-27
9330,5,-225,138,65,51,-30
9335,6,-224,136,46,53,-34
9340,6,-229,137,29,56,-39
9345,5,-226,136,16,61,-43
9350,5,-228,135,6,68,-49
9355,8,-230,135,-3,73,-52
9360,3,-227,138,-10,78,-56
9365,5,-227,133,-17,81,-58
9370,5,-228,140,-20,85,-60
9375,7,-228,133,-19,88,-64
9380,5,-227,134,-17,90,-64
9385,5,-224,136,-15,93,-66
9390,7,-224,135,-16,94,-66
9395,6,-223,134,-18,93,-67
9400,4,-221,130,-23,93,-67
9405,8,-223,131,-28,96,-67
9410,6,-219,132,-36,97,-68
9415,5,-221,136,-43,100,-71
9420,5,-222,136,-50,102,-73
9425,4,-224,135,-55,105,-74
9430,8,-225,138,-60,107,-77
9435,7,-226,136,-63,111,-78
9440,7,-227,138,-66,115,-80
9445,5,-227,138,-67,120,-84
9450,6,-230,138,-69,124,-86
9455,4,-228,144,-69,128,-87
9460,5,-230,141,-68,133,-89
9465,5,-228,138,-66,139,-91
9470,5,-231,142,-60,140,-93
9475,8,-231,141,-52,144,-94
9480,4,-233,141,-45,147,-96
9485,6,-232,141,-39,147,-96
9490,5,-233,139,-33,149,-97
9495,5,-233,137,-28,150,-98
9500,4,-233,138,-22,151,-98
9505,6,-234,139,-18,153,-100
9510,3,-232,140,-15,156,-100
9515,5,-234,140,-11,159,-100
9520,5,-230,137,-7,160,-101
9525,7,-230,135,-6,162,-102
9530,5,-231,135,-6,163,-103
9535,8,-231,134,-7,164,-104
9540,4,-225,135,-10,167,-105
9545,4,-228,137,-11,170,-106
9550,7,-228,137,-15,173,-109
9555,6,-229,136,-20,176,-110
9560,7,-228,137,-24,179,-110
9565,4,-225,137,-27,183,-112
9570,6,-226,137,-31,185,-114
9575,6,-227,137,-33,187,-114
9580,6,-228,137,-34,187,-116
9585,5,-227,139,-34,188,-117
9590,5,-229,135,-35,188,-119
9595,5,-227,137,-36,185,-118
9600,6,-228,141,-38,183,-118
9605,4,-227,139,-41,180,-118
9610,6,-228,139,-45,177,-118
9615,5,-224,140,-48,177,-117
9620,4,-227,144,-49,178,-115
9625,5,-226,142,-47,179,-119
9630,6,-229,141,-43,180,-119
9635,6,-233,140,-37,180,-118
9640,4,-229,137,-32,180,-116
9645,6,-227,139,-28,177,-117
9650,5,-231,140,-22,174,-115
9655,5,-227,139,-20,172,-113
9660,4,-230,137,-18,168,-112
9665,1,-228,135,-17,165,-109
9670,4,-227,140,-17,160,-108
9675,5,-225,135,-20,159,-106
9680,7,-228,138,-25,157,-106
9685,6,-225,139,-28,155,-106
9690,10,-218,134,-32,154,-103
9695,5,-227,136,-34,153,-103
9700,7,-227,143,-38,152,-102
9705,7,-230,143,-41,149,-101
9710,6,-231,137,-43,150,-99
9715,9,-229,142,-44,150,-101
9720,6,-229,140,-43,150,-100
9725,5,-228,141,-42,152,-100
9730,6,-233,137,-40,153,-99
9735,10,-234,138,-39,152,-98
9740,8,-232,139,-38,153,-98
9745,8,-233,137,-36,153,-97
9750,9,-233,142,-39,154,-96
9755,6,-232,142,-40,153,-97
9760,9,-231,139,-41,152,-97
9765,8,-231,143,-38,153,-95
9770,7,-228,140,-35,154,-94
9775,8,-230,139,-32,153,-94
9780,6,-230,142,-28,153,-95
9785,9,-231,137,-27,158,-97
9790,5,-227,139,-24,162,-98
9795,7,-231,138,-24,165,-101
9800,6,-236,139,-26,170,-104
9805,6,-229,136,-29,174,-107
9810,5,-234,137,-33,177,-108
9815,6,-230,136,-36,179,-108
9820,6,-231,134,-37,180,-107
9825,9,-232,138,-38,180,-108
9830,7,-229,138,-34,180,-108
9835,5,-230,141,-30,179,-107
9840,6,-231,137,-24,178,-105
9845,4,-231,138,-19,175,-105
9850,5,-226,139,-14,169,-100
9855,8,-230,139,-10,162,-96
9860,7,-231,137,-6,156,-93
9865,6,-226,134,-5,151,-87
9870,8,-228,134,-5,147,-82
9875,5,-226,133,-6,145,-80
9880,7,-229,135,-8,147,-76
9885,8,-227,132,-11,148,-76
9890,6,-228,133,-15,150,-74
9895,7,-229,135,-19,150,-71
9900,4,-229,138,-25,152,-69
9905,8,-231,138,-27,153,-68
9910,8,-233,137,-30,152,-66
9915,5,-228,137,-30,153,-65
9920,5,-228,133,-31,153,-65
9925,7,-231,139,-32,152,-63
9930,6,-232,138,-34,152,-62
9935,5,-231,135,-35,152,-62
9940,6,-230,138,-36,150,-61
9945,5,-229,139,-39,148,-62
9950,6,-228,136,-42,146,-60
9955,5,-232,132,-46,147,-60
9960,5,-230,132,-48,145,-59
9965,5,-228,136,-52,145,-59
9970,5,-228,137,-58,144,-59
9975,5,-227,134,-62,143,-57
9980,8,-230,136,-66,142,-57
9985,6,-229,137,-69,138,-56
9990,5,-230,133,-73,138,-53
9995,6,-230,135,-76,136,-52
10000,7,-233,138,-75,134,-50
10005,5,-231,136,-75,133,-48
10010,6,-232,136,-73,130,-47
10015,7,-233,138,-67,130,-45
10020,5,-229,134,-62,127,-41
10025,5,-231,139,-58,125,-38
10030,6,-230,139,-53,123,-35
10035,7,-232,138,-52,120,-35
10040,7,-230,134,-49,118,-33
10045,6,-231,136,-48,115,-29
10050,6,-230,133,-47,114,-25
10055,8,-233,137,-46,111,-23
10060,8,-232,137,-44,108,-21
10065,8,-234,137,-43,108,-20
10070,6,-230,135,-42,105,-18
10075,5,-233,136,-39,104,-17
10080,7,-233,136,-39,102,-15
10085,6,-232,133,-38,102,-15
10090,7,-233,132,-37,100,-12
10095,6,-236,133,-38,99,-13
10100,7,-233,132,-38,99,-12
10105,7,-230,135,-38,100,-12
10110,8,-232,134,-38,100,-11
10115,8,-230,135,-36,100,-11
10120,9,-231,132,-34,100,-8
10125,9,-234,135,-31,100,-8
10130,8,-234,136,-32,97,-6
10135,7,-231,133,-32,95,-5
10140,9,-233,135,-31,94,-1
10145,8,-232,132,-28,91,0
10150,9,-234,132,-27,87,3
10155,8,-232,133,-26,84,3
10160,10,-229,130,-25,83,5
10165,8,-231,129,-25,81,7
10170,7,-232,130,-26,82,7
10175,7,-233,132,-29,83,9
10180,8,-233,134,-32,83,6
10185,8,-231,133,-34,84,6
10190,7,-231,136,-36,86,5
10195,8,-233,136,-36,88,3
10200,7,-234,135,-36,91,2
10205,10,-233,131,-36,92,3
10210,8,-231,131,-38,93,1
10215,5,-233,132,-38,93,0
10220,9,-233,131,-39,94,0
10225,10,-235,129,-37,92,1
10230,10,-236,132,-36,91,4
10235,8,-238,131,-33,90,4
10240,10,-234,133,-30,89,6
10245,11,-232,135,-27,88,7
10250,10,-235,131,-22,87,7
10255,9,-229,131,-16,85,7
10260,8,-229,130,-13,84,7
10265,11,-232,131,-12,81,8
10270,8,-228,135,-8,78,9
10275,12,-230,133,-5,74,8
10280,11,-232,131,-5,72,9
10285,9,-233,133,-7,72,11
10290,8,-232,129,-10,72,13
10295,8,-231,134,-13,72,14
10300,7,-231,136,-16,73,14
10305,6,-232,129,-20,73,16
10310,7,-232,133,-21,74,17
10315,7,-233,129,-24,74,16
10320,9,-231,131,-23,74,17
10325,10,-232,131,-24,73,16
10330,10,-232,136,-23,75,17
10335,10,-237,132,-25,75,15
10340,8,-231,133,-26,76,15
10345,11,-231,133,-28,76,15
10350,10,-233,133,-27,77,14
10355,5,-230,134,-27,77,15
10360,11,-233,132,-27,76,15
10365,8,-231,135,-29,76,15
10370,7,-230,131,-30,77,17
10375,11,-232,138,-30,76,15
10380,9,-234,131,-31,75,15
10385,8,-230,129,-33,75,15
10390,9,-232,133,-33,73,14
10395,9,-227,132,-34,74,14
10400,10,-231,133,-37,74,14
10405,12,-233,133,-39,75,13
10410,10,-230,131,-39,73,13
10415,9,-232,129,-41,76,13
10420,7,-230,130,-39,77,12
10425,11,-233,132,-40,77,12
10430,9,-232,134,-42,79,11
10435,9,-230,130,-44,79,11
10440,9,-230,136,-43,81,10
10445,11,-232,132,-47,81,8
10450,8,-232,132,-49,82,8
10455,11,-235,131,-50,84,8
10460,11,-232,133,-51,83,8
10465,11,-235,130,-51,82,8
10470,10,-235,133,-49,82,9
10475,8,-234,133,-45,81,9
10480,9,-232,132,-43,80,7
10485,10,-233,133,-42,81,8
10490,6,-232,129,-41,82,9
10495,9,-231,129,-44,82,8
10500,8,-233,132,-47,81,9
10505,9,-230,132,-48,82,9
10510,9,-233,129,-50,81,10
10515,11,-233,131,-50,81,10
10520,9,-235,133,-50,80,10
10525,9,-233,129,-49,82,11
10530,8,-228,133,-47,79,10
10535,8,-232,130,-45,80,10
10540,7,-232,132,-45,81,11
10545,9,-233,132,-46,82,10
10550,7,-231,131,-45,82,10
10555,10,-231,130,-43,82,10
10560,6,-231,134,-43,82,10
10565,6,-235,133,-42,80,10
10570,6,-232,133,-40,81,9
10575,7,-229,134,-40,81,9
10580,8,-233,130,-39,81,9
10585,12,-232,132,-41,82,7
10590,7,-231,131,-41,81,6
10595,9,-232,133,-43,82,4
10600,7,-231,133,-46,83,3
10605,6,-228,135,-50,85,0
10610,6,-231,134,-52,84,-1
10615,7,-232,130,-53,85,-2
10620,6,-233,133,-55,84,-3
10625,9,-234,136,-56,84,-4
10630,9,-232,131,-54,84,-6
10635,11,-234,131,-55,85,-8
10640,8,-232,135,-56,86,-9
10645,10,-231,130,-59,86,-10
10650,8,-235,130,-61,87,-10
10655,8,-232,134,-62,89,-12
10660,6,-234,133,-61,90,-14
10665,7,-234,134,-62,89,-16
10670,7,-236,131,-62,90,-16
10675,6,-235,130,-65,93,-16
10680,8,-237,131,-66,94,-17
10685,6,-235,136,-65,95,-19
10690,8,-235,132,-64,99,-22
10695,7,-236,129,-63,99,-23
10700,6,-234,132,-64,101,-24
10705,6,-232,133,-64,103,-26
10710,7,-231,130,-64,104,-27
10715,9,-237,133,-64,104,-29
10720,9,-236,135,-63,105,-29
10725,10,-237,132,-63,105,-29
10730,11,-236,132,-61,106,-30
10735,9,-235,131,-58,105,-31
10740,5,-232,133,-53,105,-30
10745,8,-237,130,-47,106,-31
10750,7,-232,132,-43,105,-32
10755,6,-235,130,-38,106,-32
10760,8,-234,135,-35,106,-32
10765,7,-234,132,-34,106,-35
10770,9,-233,132,-35,108,-35
10775,6,-232,131,-36,109,-38
10780,7,-234,134,-37,109,-38
10785,9,-236,129,-41,113,-41
10790,10,-232,132,-41,116,-43
10795,10,-234,129,-41,118,-45
10800,10,-236,132,-44,118,-45
10805,7,-234,132,-44,122,-47
10810,8,-235,131,-43,125,-47
10815,8,-233,134,-42,124,-48
10820,10,-234,131,-42,125,-49
10825,6,-232,132,-47,124,-49
10830,5,-232,131,-51,125,-48
10835,6,-233,131,-53,125,-49
10840,9,-232,131,-55,128,-48
10845,7,-235,130,-53,128,-48
10850,5,-233,130,-54,128,-47
10855,4,-232,133,-52,127,-47
10860,5,-231,131,-51,128,-45
10865,6,-234,132,-49,128,-47
10870,5,-232,132,-50,127,-45
10875,5,-233,128,-50,125,-44
10880,4,-232,130,-51,124,-43
10885,4,-233,130,-53,123,-44
10890,5,-234,132,-55,121,-43
10895,5,-232,130,-57,121,-43
10900,4,-232,129,-58,122,-44
10905,5,-235,132,-58,121,-42
10910,5,-231,130,-59,121,-42
10915,5,-237,129,-56,121,-43
10920,5,-232,132,-55,120,-42
10925,5,-234,131,-52,121,-43
10930,3,-235,131,-51,122,-42
10935,5,-233,130,-49,120,-40
10940,9,-241,130,-48,118,-41
10945,6,-234,129,-48,117,-40
10950,4,-233,130,-47,116,-38
10955,5,-235,132,-49,116,-38
10960,4,-234,129,-49,114,-36
10965,5,-233,133,-48,113,-35
10970,3,-236,128,-50,111,-34
10975,7,-234,131,-52,108,-31
10980,4,-234,131,-52,106,-29
10985,5,-234,129,-52,104,-27
10990,4,-235,127,-52,103,-24
10995,4,-233,127,-48,103,-25
11000,4,-230,128,-45,101,-22
11005,6,-236,127,-39,102,-19
11010,4,-233,128,-36,103,-18
11015,5,-232,128,-35,102,-16
11020,4,-231,130,-34,100,-16
11025,2,-232,130,-37,100,-15
11030,5,-236,129,-37,99,-13
11035,4,-232,131,-38,98,-12
11040,5,-234,132,-36,97,-11
11045,4,-235,130,-38,96,-11
11050,6,-236,131,-37,95,-11
11055,4,-234,132,-33,96,-10
11060,6,-237,128,-31,95,-10
11065,6,-234,128,-31,95,-9
11070,4,-235,128,-33,95,-9
11075,5,-236,130,-33,96,-10
11080,6,-236,129,-34,96,-10
11085,6,-239,128,-36,95,-8
11090,5,-236,132,-38,94,-9
11095,7,-238,132,-33,94,-10
11100,5,-231,128,-29,95,-10
11105,4,-237,127,-22,94,-11
11110,5,-235,129,-17,92,-11
11115,6,-232,130,-10,90,-10
11120,4,-231,133,-9,88,-9
11125,4,-230,130,-6,86,-9
11130,4,-230,131,-8,85,-7
11135,5,-228,129,-10,83,-6
11140,4,-228,129,-14,83,-5
11145,5,-230,131,-15,84,-4
11150,4,-228,129,-16,83,-3
11155,3,-227,129,-18,86,-1
11160,4,-232,127,-22,86,1
11165,7,-230,129,-27,86,4
11170,6,-234,127,-33,88,5
11175,5,-229,126,-39,89,6
11180,5,-230,127,-46,91,6
11185,5,-233,129,-52,91,5
11190,4,-233,130,-55,93,3
11195,7,-236,126,-57,93,2
11200,8,-237,129,-54,92,1
11205,6,-234,127,-52,93,1
11210,8,-226,125,-50,93,-1
11215,9,-233,131,-49,93,-1
11220,8,-234,128,-49,96,-4
11225,7,-237,129,-51,98,-5
11230,8,-232,128,-54,99,-7
11235,9,-236,128,-56,99,-9
11240,7,-232,127,-57,101,-8
11245,6,-238,129,-58,101,-9
11250,8,-237,127,-57,101,-12
11255,7,-239,126,-55,101,-13
11260,7,-240,128,-54,103,-15
11265,6,-239,129,-50,105,-17
11270,6,-238,126,-45,108,-19
11275,6,-241,123,-43,110,-20
11280,10,-239,127,-39,112,-21
11285,5,-240,128,-33,112,-23
11290,9,-241,128,-31,114,-24
11295,6,-241,126,-27,115,-26
11300,7,-240,127,-25,116,-29
11305,6,-237,127,-23,118,-29
11310,7,-240,130,-18,121,-31
11315,6,-238,126,-11,122,-30
11320,7,-242,126,-3,122,-32
11325,15,-238,132,4,124,-33
11330,6,-238,129,11,125,-35
11335,4,-238,128,18,125,-36
11340,6,-240,130,23,125,-38
11345,6,-237,127,26,125,-39
11350,5,-239,127,30,125,-39
11355,5,-236,128,36,126,-39
11360,7,-238,129,41,126,-40
11365,6,-241,130,45,125,-41
11370,4,-235,128,48,124,-40
11375,4,-236,129,52,122,-41
11380,5,-238,130,54,121,-40
11385,6,-237,127,56,119,-40
11390,5,-235,128,57,117,-40
11395,6,-233,126,57,115,-40
11400,5,-233,130,57,114,-39
11405,3,-234,128,59,115,-40
11410,7,-232,128,61,114,-38
11415,7,-232,127,57,111,-37
11420,6,-229,129,50,110,-36
11425,6,-235,129,40,111,-34
11430,6,-233,128,32,112,-36
11435,0,-229,131,31,116,-35
11440,5,-236,129,33,116,-37
11445,5,-234,129,36,115,-39
11450,5,-232,129,35,114,-40
11455,4,-234,128,30,114,-38
11460,4,-232,128,26,113,-40
11465,8,-233,126,22,112,-40
11470,9,-233,128,16,111,-40
11475,9,-231,131,14,111,-40
11480,8,-234,129,12,109,-40
11485,6,-231,130,10,110,-42
11490,10,-234,126,9,109,-43
11495,9,-235,130,8,111,-42
11500,8,-233,128,5,110,-41
11505,10,-232,128,0,112,-41
11510,8,-232,127,-3,112,-44
11515,8,-233,129,-7,113,-43
11520,9,-233,127,-10,114,-42
11525,4,-231,128,-12,117,-41
11530,7,-234,126,-11,119,-42
11535,7,-233,130,-9,119,-44
11540,9,-238,118,-8,119,-44
11545,7,-229,129,-7,119,-47
11550,6,-234,126,-10,118,-49
11555,9,-231,127,-18,117,-48
11560,6,-233,127,-28,116,-47
11565,5,-234,128,-35,116,-46
11570,7,-235,129,-36,114,-46
11575,6,-234,132,-32,115,-46
11580,7,-237,130,-26,116,-45
11585,7,-236,129,-20,114,-45
11590,9,-237,127,-15,115,-44
11595,6,-237,128,-13,114,-45
11600,8,-238,129,-11,114,-44
11605,10,-237,129,-9,114,-44
11610,7,-237,126,-9,116,-45
11615,5,-234,128,-8,115,-46
11620,10,-236,127,-7,114,-47
11625,7,-235,128,-5,115,-46
11630,9,-237,129,-3,114,-48
11635,8,-237,127,-1,116,-48
11640,8,-233,127,0,116,-49
11645,8,-237,129,0,115,-49
11650,9,-237,127,1,113,-47
11655,8,-232,129,1,113,-47
11660,9,-234,129,0,112,-47
11665,9,-235,129,1,110,-47
11670,8,-237,128,1,109,-46
11675,9,-234,127,4,107,-46
11680,10,-235,130,5,107,-44
11685,9,-235,128,6,104,-42
11690,10,-236,128,3,103,-39
11695,8,-235,130,3,102,-38
11700,8,-236,129,3,102,-38
11705,9,-233,127,4,100,-37
11710,7,-235,130,7,99,-36
11715,10,-234,130,8,99,-36
11720,9,-233,129,7,98,-33
11725,9,-235,129,4,99,-33
11730,7,-236,126,0,99,-31
11735,8,-236,128,0,99,-30
11740,10,-232,131,0,100,-31
11745,9,-236,132,1,100,-31
11750,6,-232,129,2,100,-34
11755,6,-237,132,0,99,-33
11760,7,-232,130,1,99,-33
11765,6,-233,130,5,96,-33
11770,6,-233,129,7,92,-33
11775,5,-230,127,8,90,-33
11780,6,-234,130,9,87,-34
11785,7,-230,128,8,86,-33
11790,6,-233,127,4,83,-33
11795,9,-232,129,-5,82,-32
11800,8,-232,128,-14,80,-32
11805,7,-233,128,-19,79,-30
11810,7,-234,129,-20,78,-28
11815,8,-235,131,-20,76,-21
11820,8,-236,135,-19,77,-16
11825,9,-234,128,-9,75,-14
11830,13,-232,129,1,71,-11
11835,7,-234,129,11,70,-11
11840,7,-235,128,15,68,-11
11845,10,-235,128,16,65,-12
11850,9,-233,127,12,63,-14
11855,9,-232,128,6,63,-17
11860,8,-233,131,3,64,-18
11865,8,-236,136,1,66,-19
11870,15,-230,127,3,67,-20
11875,11,-236,132,9,67,-20
11880,11,-233,128,14,68,-21
11885,11,-232,132,15,68,-22
11890,12,-234,130,14,68,-24
11895,10,-235,131,10,67,-24
11900,13,-233,130,4,69,-23
11905,12,-233,129,-5,70,-21
11910,10,-234,130,-12,70,-22
11915,11,-236,131,-16,71,-21
11920,11,-235,131,-17,71,-21
11925,9,-235,129,-16,73,-21
11930,11,-233,130,-15,74,-22
11935,11,-235,130,-11,76,-21
11940,11,-233,129,-9,77,-20
11945,8,-231,128,-9,78,-21
11950,14,-232,130,-7,79,-21
11955,14,-234,132,-8,80,-21
11960,14,-232,130,-8,80,-20
11965,11,-231,130,-9,80,-19
11970,11,-234,129,-10,78,-19
11975,12,-234,130,-12,78,-18
11980,17,-234,128,-15,76,-18
11985,11,-230,132,-16,76,-16
11990,13,-236,128,-17,75,-16
11995,11,-234,128,-13,74,-14
