timestamp,acc_x,acc_y,acc_z,gyro_x,gyro_y,gyro_z
0,28,-262,-21,-9,-44,0
5,24,-259,-23,-1,-43,2
10,30,-263,-24,4,-44,2
15,23,-260,-20,9,-45,2
20,24,-257,-26,10,-44,2
25,34,-256,-26,5,-44,1
30,29,-258,-23,-4,-43,2
35,28,-254,-22,-13,-42,4
40,28,-256,-24,-25,-42,6
45,29,-254,-24,-38,-40,6
50,28,-257,-25,-49,-38,8
55,29,-257,-25,-63,-34,7
60,27,-259,-22,-71,-32,7
65,25,-260,-17,-81,-31,8
70,28,-266,-22,-85,-31,6
75,29,-271,-23,-88,-30,4
80,21,-260,-22,-88,-30,3
85,27,-269,-21,-85,-30,2
90,25,-268,-19,-78,-28,2
95,26,-269,-21,-68,-27,1
100,25,-268,-20,-54,-26,0
105,25,-269,-19,-39,-23,-1
110,22,-266,-18,-23,-21,-1
115,23,-268,-20,-6,-20,-1
120,23,-267,-19,7,-18,0
125,23,-267,-15,20,-17,3
130,22,-264,-24,30,-18,5
135,20,-266,-18,31,-19,7
140,20,-263,-17,33,-24,9
145,19,-261,-21,36,-27,8
150,17,-259,-19,34,-31,11
155,20,-258,-25,31,-34,10
160,22,-259,-23,24,-35,9
165,18,-256,-18,19,-39,7
170,20,-253,-18,11,-39,4
175,21,-256,-14,6,-38,5
180,20,-256,-23,1,-38,2
185,17,-261,-21,-7,-39,1
190,21,-257,-20,-15,-40,0
195,23,-256,-15,-24,-41,0
200,25,-259,-22,-33,-41,-2
205,22,-257,-20,-41,-43,-2
210,24,-259,-22,-48,-42,-1
215,21,-261,-22,-54,-42,0
220,20,-258,-21,-59,-42,2
225,22,-259,-18,-64,-43,4
230,24,-269,-18,-67,-43,6
235,25,-262,-20,-66,-44,8
240,19,-261,-23,-62,-44,9
245,26,-265,-23,-54,-44,10
250,28,-264,-22,-43,-40,12
255,23,-266,-22,-32,-38,11
260,25,-263,-25,-20,-37,10
265,28,-266,-26,-11,-34,9
270,24,-266,-27,-2,-31,6
275,25,-262,-23,3,-28,4
280,24,-263,-19,10,-26,3
285,27,-263,-23,15,-23,2
290,23,-261,-29,17,-22,1
295,26,-261,-21,18,-20,-2
300,28,-260,-19,22,-18,-5
305,25,-258,-20,22,-16,-6
310,22,-257,-19,17,-14,-8
315,23,-259,-20,12,-15,-8
320,26,-257,-17,4,-16,-8
325,23,-256,-20,0,-16,-9
330,25,-257,-22,-6,-14,-9
335,24,-256,-18,-15,-14,-8
340,28,-257,-16,-23,-14,-6
345,25,-260,-15,-28,-13,-7
350,24,-256,-16,-36,-14,-6
355,23,-259,-18,-40,-14,-5
360,23,-257,-19,-45,-14,-4
365,21,-259,-20,-48,-12,-4
370,24,-262,-21,-50,-9,-5
375,24,-259,-20,-49,-5,-5
380,25,-262,-19,-49,0,-7
385,26,-260,-21,-47,5,-8
390,26,-266,-22,-40,7,-10
395,23,-262,-20,-33,11,-12
400,30,-263,-19,-27,13,-13
405,24,-259,-21,-22,15,-13
410,25,-261,-17,-16,19,-15
415,24,-260,-21,-13,22,-14
420,25,-263,-22,-14,23,-15
425,24,-263,-22,-17,26,-14
430,25,-260,-20,-18,28,-13
435,27,-265,-22,-19,27,-14
440,25,-264,-20,-20,26,-13
445,26,-261,-22,-17,26,-15
450,20,-259,-23,-12,27,-16
455,24,-261,-22,-9,27,-15
460,24,-261,-23,-9,29,-17
465,25,-258,-19,-9,30,-17
470,27,-257,-27,-14,32,-18
475,23,-258,-20,-19,33,-18
480,25,-260,-19,-23,33,-18
485,24,-259,-23,-30,37,-18
490,22,-260,-19,-32,38,-18
495,25,-263,-20,-35,40,-18
500,24,-259,-21,-35,44,-17
505,22,-258,-19,-34,44,-17
510,20,-254,-13,-33,46,-17
515,23,-259,-18,-32,46,-17
520,24,-259,-17,-35,47,-17
525,25,-260,-18,-36,45,-14
530,22,-260,-21,-39,42,-12
535,23,-259,-19,-42,39,-11
540,25,-261,-24,-43,36,-10
545,22,-264,-21,-44,33,-8
550,23,-262,-23,-47,29,-7
555,24,-262,-24,-44,25,-5
560,22,-261,-23,-42,22,-3
565,27,-261,-17,-36,19,-4
570,24,-262,-24,-30,18,-5
575,25,-260,-18,-21,19,-4
580,23,-261,-16,-15,20,-6
585,21,-264,-19,-10,22,-7
590,25,-263,-13,-6,25,-8
595,25,-260,-16,-3,26,-10
600,21,-262,-19,0,30,-11
605,23,-259,-16,1,32,-13
610,26,-262,-16,0,35,-15
615,26,-259,-15,0,38,-16
620,23,-259,-16,-1,39,-18
625,24,-258,-18,-4,41,-18
630,26,-259,-18,-3,42,-20
635,24,-258,-15,-5,42,-19
640,25,-255,-17,-8,43,-19
645,24,-259,-17,-11,44,-19
650,21,-257,-19,-17,44,-19
655,21,-256,-18,-25,44,-20
660,19,-256,-19,-32,42,-17
665,27,-261,-16,-41,40,-16
670,18,-260,-19,-48,38,-14
675,23,-259,-20,-52,34,-13
680,24,-263,-19,-55,28,-11
685,19,-262,-16,-57,24,-9
690,21,-261,-18,-56,21,-7
695,20,-261,-17,-55,18,-5
700,20,-258,-18,-55,16,-5
705,24,-261,-17,-55,14,-3
710,24,-261,-19,-52,12,-3
715,22,-261,-21,-51,10,-3
720,23,-263,-18,-48,8,-3
725,25,-259,-18,-47,6,-3
730,21,-260,-19,-46,5,-2
735,21,-263,-17,-43,2,-2
740,20,-264,-24,-43,0,-1
745,22,-264,-18,-37,-2,0
750,21,-262,-18,-34,-6,0
755,21,-261,-18,-29,-6,1
760,26,-265,-17,-25,-6,3
765,20,-261,-21,-18,-6,4
770,22,-259,-18,-16,-5,4
775,22,-262,-23,-12,-4,5
780,24,-255,-16,-11,-2,5
785,21,-260,-18,-8,0,7
790,21,-256,-18,-8,2,8
795,23,-259,-15,-9,2,9
800,23,-257,-21,-14,3,8
805,21,-257,-17,-19,3,8
810,24,-256,-18,-23,3,7
815,23,-257,-21,-29,3,8
820,25,-257,-15,-37,5,8
825,22,-257,-18,-42,4,6
830,26,-262,-21,-49,3,5
835,22,-258,-16,-56,3,4
840,25,-258,-14,-60,4,3
845,25,-261,-17,-64,5,2
850,24,-261,-13,-67,4,2
855,23,-262,-15,-64,2,0
860,23,-261,-14,-64,2,-2
865,21,-263,-20,-60,1,-3
870,25,-266,-14,-54,1,-5
875,22,-263,-14,-47,2,-6
880,25,-264,-16,-42,2,-6
885,24,-268,-16,-36,3,-6
890,22,-263,-13,-33,5,-7
895,21,-263,-17,-31,8,-7
900,23,-262,-17,-28,10,-6
905,25,-264,-18,-24,10,-5
910,23,-260,-14,-21,10,-3
915,25,-264,-15,-17,7,0
920,24,-264,-15,-13,4,1
925,20,-261,-16,-10,1,3
930,22,-264,-15,-10,-2,3
935,17,-263,-13,-8,-6,4
940,21,-263,-15,-8,-8,4
945,22,-259,-17,-6,-12,3
950,23,-258,-21,-6,-15,2
955,24,-258,-18,-6,-18,3
960,25,-259,-19,-4,-20,2
965,24,-258,-21,-5,-20,0
970,25,-258,-20,-7,-19,0
975,26,-259,-23,-12,-18,-1
980,24,-259,-18,-18,-15,-2
985,29,-261,-15,-24,-9,-3
990,25,-260,-16,-33,-2,-4
995,30,-261,-10,-39,6,-5
1000,28,-263,-17,-46,14,-6
1005,24,-261,-15,-50,18,-7
1010,24,-262,-17,-49,24,-9
1015,27,-260,-15,-46,28,-10
1020,26,-262,-19,-39,32,-10
1025,29,-260,-16,-29,36,-13
1030,27,-261,-15,-22,37,-13
1035,28,-259,-20,-17,38,-13
1040,28,-261,-17,-12,37,-13
1045,27,-260,-20,-9,34,-11
1050,30,-261,-20,-7,32,-10
1055,28,-258,-17,-6,31,-9
1060,24,-258,-18,-8,30,-9
1065,26,-260,-18,-9,31,-8
1070,25,-260,-17,-12,32,-6
1075,20,-258,-18,-14,34,-8
1080,24,-260,-15,-11,35,-8
1085,23,-262,-13,-11,40,-8
1090,27,-261,-13,-8,41,-9
1095,22,-263,-10,-4,44,-11
1100,25,-263,-9,1,45,-12
1105,25,-261,-15,5,45,-12
1110,20,-259,-16,6,43,-13
1115,22,-258,-12,8,40,-14
1120,21,-259,-17,8,36,-14
1125,19,-256,-14,3,32,-12
1130,22,-258,-13,0,29,-13
1135,21,-257,-17,-4,25,-14
1140,20,-257,-14,-10,19,-14
1145,18,-258,-9,-19,18,-15
1150,15,-257,-16,-27,17,-17
1155,20,-255,-11,-33,14,-18
1160,19,-254,-13,-43,12,-18
1165,17,-256,-14,-48,10,-19
1170,21,-256,-15,-55,7,-20
1175,19,-257,-11,-64,5,-20
1180,19,-257,-10,-70,0,-20
1185,21,-258,-12,-75,-4,-20
1190,17,-256,-11,-82,-7,-19
1195,19,-258,-15,-90,-13,-18
1200,20,-256,-9,-96,-16,-16
1205,24,-260,-8,-104,-21,-12
1210,20,-259,-15,-110,-24,-10
1215,25,-256,-13,-117,-27,-9
1220,22,-257,-11,-124,-30,-8
1225,23,-257,-12,-129,-30,-7
1230,25,-257,-10,-133,-27,-8
1235,25,-258,-12,-135,-25,-7
1240,23,-258,-12,-138,-21,-9
1245,24,-259,-12,-139,-19,-9
1250,23,-258,-14,-139,-15,-11
1255,23,-258,-14,-140,-12,-10
1260,23,-258,-16,-139,-11,-10
1265,25,-263,-12,-138,-10,-10
1270,22,-259,-17,-137,-9,-10
1275,25,-262,-14,-134,-10,-9
1280,23,-260,-19,-133,-10,-10
1285,23,-261,-10,-132,-14,-10
1290,23,-260,-13,-132,-16,-11
1295,25,-257,-13,-134,-17,-11
1300,23,-261,-16,-137,-17,-10
1305,25,-259,-11,-140,-17,-8
1310,24,-259,-14,-148,-17,-6
1315,24,-260,-13,-154,-17,-6
1320,19,-256,-14,-162,-16,-4
1325,22,-258,-16,-169,-18,-1
1330,25,-258,-15,-176,-19,5
1335,24,-259,-17,-181,-19,8
1340,22,-259,-17,-188,-20,11
1345,24,-260,-21,-193,-19,14
1350,24,-259,-23,-198,-15,17
1355,23,-259,-25,-204,-12,17
1360,27,-262,-26,-211,-11,20
1365,22,-258,-27,-214,-11,21
1370,23,-260,-24,-219,-10,22
1375,26,-254,-28,-220,-12,21
1380,25,-257,-25,-223,-13,20
1385,26,-260,-21,-224,-10,19
1390,24,-260,-23,-225,-9,19
1395,26,-261,-19,-224,-4,17
1400,21,-259,-22,-226,-2,16
1405,25,-260,-22,-229,0,17
1410,23,-263,-19,-230,2,16
1415,26,-265,-23,-231,3,16
1420,27,-265,-18,-230,4,17
1425,20,-261,-20,-228,4,19
1430,26,-265,-21,-222,5,18
1435,29,-264,-21,-216,8,17
1440,26,-265,-24,-206,10,18
1445,27,-263,-27,-197,12,16
1450,23,-265,-24,-188,14,16
1455,25,-264,-30,-182,14,16
1460,25,-263,-28,-175,14,15
1465,25,-263,-28,-168,13,15
1470,20,-261,-31,-166,10,12
1475,24,-262,-21,-165,10,12
1480,23,-259,-28,-165,9,12
1485,27,-264,-27,-164,9,13
1490,24,-260,-29,-164,9,12
1495,26,-261,-30,-169,10,13
1500,22,-261,-29,-171,11,14
1505,25,-260,-33,-174,10,14
1510,26,-259,-32,-178,9,16
1515,25,-260,-33,-184,9,15
1520,25,-260,-32,-186,8,14
1525,23,-260,-32,-189,5,14
1530,25,-264,-29,-189,6,12
1535,26,-269,-31,-188,4,10
1540,25,-262,-30,-185,7,10
1545,25,-266,-29,-180,7,8
1550,24,-262,-26,-174,11,5
1555,25,-265,-27,-168,14,1
1560,23,-265,-28,-161,16,-4
1565,24,-265,-32,-150,17,-8
1570,24,-265,-30,-141,18,-14
1575,26,-263,-32,-132,19,-17
1580,23,-264,-33,-126,19,-23
1585,23,-263,-32,-119,21,-25
1590,22,-261,-39,-115,22,-28
1595,23,-262,-32,-114,24,-31
1600,24,-260,-33,-115,26,-30
1605,25,-259,-32,-119,27,-30
1610,19,-259,-36,-123,28,-28
1615,21,-258,-35,-133,28,-28
1620,21,-261,-34,-142,31,-26
1625,23,-258,-32,-148,33,-24
1630,22,-262,-28,-152,35,-22
1635,24,-263,-36,-158,37,-20
1640,21,-262,-32,-158,38,-18
1645,19,-262,-36,-156,40,-16
1650,17,-264,-30,-151,41,-16
1655,18,-262,-31,-144,42,-14
1660,19,-266,-32,-135,43,-13
1665,19,-266,-29,-124,44,-10
1670,20,-267,-29,-116,45,-11
1675,23,-266,-32,-108,45,-10
1680,21,-265,-29,-100,43,-11
1685,22,-267,-30,-95,41,-11
1690,16,-264,-30,-88,39,-14
1695,21,-266,-31,-85,38,-16
1700,24,-267,-29,-78,39,-18
1705,23,-264,-33,-74,39,-21
1710,24,-265,-29,-69,41,-23
1715,25,-263,-33,-63,43,-25
1720,24,-264,-33,-61,45,-27
1725,27,-262,-30,-56,48,-29
1730,23,-258,-28,-49,53,-31
1735,23,-259,-31,-45,57,-30
1740,25,-258,-35,-45,59,-30
1745,21,-257,-33,-46,60,-28
1750,23,-259,-35,-51,58,-25
1755,24,-256,-37,-57,57,-20
1760,23,-258,-35,-65,55,-16
1765,23,-258,-34,-74,52,-13
1770,21,-258,-38,-82,51,-9
1775,21,-257,-36,-90,48,-6
1780,19,-261,-36,-95,44,-3
1785,18,-261,-35,-97,39,-2
1790,20,-261,-35,-98,37,-2
1795,21,-261,-32,-96,36,-3
1800,19,-260,-35,-94,36,-4
1805,23,-263,-33,-90,35,-7
1810,22,-263,-32,-84,36,-10
1815,20,-265,-33,-80,39,-14
1820,23,-265,-33,-76,40,-18
1825,23,-264,-32,-71,41,-22
1830,24,-269,-35,-67,43,-25
1835,23,-267,-35,-62,45,-26
1840,25,-266,-33,-59,48,-29
1845,25,-265,-30,-52,50,-30
1850,20,-264,-35,-46,53,-30
1855,24,-267,-31,-39,54,-31
1860,18,-267,-32,-31,57,-31
1865,26,-270,-35,-25,59,-31
1870,26,-264,-33,-19,59,-32
1875,23,-263,-34,-13,62,-33
1880,26,-267,-32,-6,63,-34
1885,23,-264,-33,1,64,-34
1890,23,-261,-35,10,62,-34
1895,26,-264,-33,16,62,-33
1900,22,-260,-38,20,61,-33
1905,20,-260,-35,25,59,-32
1910,25,-258,-38,27,59,-29
1915,21,-258,-36,26,57,-27
1920,19,-257,-36,20,55,-25
1925,23,-257,-38,9,54,-23
1930,22,-255,-38,-3,52,-20
1935,23,-257,-37,-16,54,-19
1940,22,-255,-37,-28,56,-20
1945,24,-256,-35,-40,55,-20
1950,25,-256,-36,-51,55,-22
1955,23,-252,-34,-59,53,-24
1960,24,-256,-36,-67,50,-25
1965,28,-262,-31,-75,49,-27
1970,25,-257,-38,-83,48,-28
1975,25,-261,-33,-90,47,-30
1980,25,-259,-30,-95,49,-31
1985,25,-259,-35,-98,51,-33
1990,23,-260,-34,-98,56,-35
1995,24,-262,-36,-96,60,-37
2000,25,-262,-31,-94,65,-38
2005,25,-262,-36,-85,69,-39
2010,28,-260,-36,-80,74,-39
2015,22,-260,-38,-73,78,-40
2020,25,-264,-42,-72,81,-39
2025,25,-259,-38,-69,81,-39
2030,26,-260,-36,-71,81,-39
2035,25,-258,-41,-78,78,-37
2040,29,-258,-38,-85,78,-37
2045,28,-262,-41,-94,77,-36
2050,25,-260,-38,-102,75,-37
2055,24,-261,-36,-109,76,-38
2060,21,-260,-40,-114,75,-38
2065,28,-261,-35,-120,72,-37
2070,24,-262,-41,-119,71,-38
2075,26,-263,-37,-114,67,-37
2080,28,-263,-36,-112,65,-38
2085,25,-263,-37,-107,65,-38
2090,27,-264,-34,-104,65,-37
2095,27,-262,-38,-98,68,-36
2100,25,-264,-37,-95,70,-36
2105,25,-263,-41,-89,75,-35
2110,27,-264,-41,-83,79,-36
2115,28,-266,-35,-78,84,-35
2120,28,-263,-38,-78,87,-34
2125,24,-261,-38,-75,89,-33
2130,26,-260,-30,-74,86,-31
2135,28,-263,-40,-72,84,-32
2140,24,-262,-38,-67,81,-33
2145,26,-263,-37,-66,76,-33
2150,26,-263,-41,-66,71,-33
2155,26,-264,-37,-65,68,-32
2160,25,-262,-38,-62,64,-32
2165,27,-264,-38,-59,62,-31
2170,26,-263,-36,-56,58,-31
2175,24,-259,-32,-53,57,-31
2180,27,-261,-35,-52,55,-30
2185,23,-258,-33,-51,51,-29
2190,25,-260,-37,-52,50,-29
2195,26,-262,-34,-54,49,-30
2200,23,-261,-35,-57,49,-30
2205,25,-259,-34,-59,47,-31
2210,24,-257,-34,-62,47,-31
2215,23,-261,-37,-66,47,-31
2220,24,-263,-38,-69,47,-30
2225,24,-256,-36,-73,45,-30
2230,25,-260,-41,-78,45,-31
2235,24,-257,-42,-81,44,-30
2240,23,-260,-40,-87,43,-29
2245,26,-259,-42,-89,40,-30
2250,25,-263,-45,-89,39,-31
2255,28,-260,-39,-89,37,-31
2260,24,-263,-40,-90,31,-32
2265,25,-260,-42,-90,27,-30
2270,25,-263,-38,-90,23,-30
2275,28,-264,-44,-89,19,-32
2280,25,-265,-43,-87,16,-30
2285,25,-265,-39,-84,13,-32
2290,29,-263,-41,-80,8,-32
2295,25,-264,-36,-75,5,-32
2300,27,-266,-41,-70,2,-32
2305,28,-267,-40,-67,-3,-31
2310,24,-263,-36,-60,-6,-31
2315,29,-264,-35,-55,-11,-29
2320,28,-263,-40,-46,-15,-28
2325,28,-265,-36,-43,-19,-27
2330,26,-263,-35,-36,-24,-27
2335,27,-263,-32,-29,-26,-24
2340,24,-264,-36,-26,-26,-25
2345,35,-261,-36,-23,-27,-25
2350,28,-260,-39,-21,-28,-23
2355,29,-262,-36,-20,-27,-22
2360,28,-259,-36,-23,-27,-20
2365,28,-261,-37,-27,-26,-20
2370,28,-257,-38,-32,-26,-20
2375,24,-256,-37,-39,-26,-19
2380,30,-262,-36,-44,-25,-20
2385,27,-260,-39,-50,-24,-19
2390,29,-263,-39,-53,-23,-20
2395,27,-260,-31,-58,-20,-19
2400,29,-263,-39,-61,-17,-18
2405,28,-259,-37,-60,-13,-19
2410,31,-262,-40,-61,-12,-21
2415,31,-261,-40,-58,-10,-22
2420,28,-260,-37,-58,-10,-23
2425,30,-261,-39,-59,-12,-22
2430,30,-258,-42,-58,-14,-22
2435,33,-263,-40,-62,-15,-22
2440,30,-260,-43,-64,-15,-22
2445,29,-259,-40,-67,-13,-22
2450,26,-258,-41,-70,-8,-24
2455,30,-262,-39,-70,-2,-25
2460,30,-259,-37,-69,2,-26
2465,29,-263,-41,-68,7,-28
2470,29,-262,-40,-62,7,-29
2475,30,-264,-38,-56,9,-30
2480,27,-261,-41,-49,8,-30
2485,28,-263,-40,-43,7,-29
2490,30,-263,-42,-38,4,-29
2495,28,-262,-42,-33,0,-29
2500,30,-265,-39,-28,-5,-27
2505,19,-264,-40,-25,-9,-25
2510,25,-260,-38,-22,-11,-24
2515,30,-260,-39,-20,-10,-23
2520,29,-261,-38,-16,-10,-22
2525,29,-258,-37,-17,-8,-24
2530,29,-262,-34,-20,-6,-24
2535,33,-262,-34,-23,-5,-23
2540,28,-260,-39,-30,-5,-23
2545,30,-266,-34,-37,-5,-23
2550,30,-262,-34,-43,-6,-23
2555,30,-263,-37,-51,-9,-21
2560,28,-263,-36,-56,-11,-19
2565,29,-262,-35,-59,-13,-19
2570,27,-262,-38,-63,-14,-17
2575,24,-262,-32,-63,-14,-16
2580,27,-261,-35,-61,-10,-16
2585,29,-262,-35,-56,-6,-17
2590,26,-260,-34,-52,0,-20
2595,29,-266,-34,-47,6,-22
2600,26,-261,-39,-46,12,-25
2605,31,-262,-36,-45,18,-27
2610,30,-248,-36,-47,24,-27
2615,28,-259,-40,-50,27,-28
2620,28,-257,-42,-54,31,-28
2625,34,-259,-37,-58,32,-29
2630,28,-260,-41,-65,34,-27
2635,26,-257,-41,-73,35,-24
2640,30,-260,-38,-80,34,-22
2645,28,-260,-41,-85,32,-18
2650,30,-260,-40,-87,31,-19
2655,27,-261,-38,-90,28,-17
2660,30,-262,-40,-86,25,-15
2665,31,-267,-43,-85,21,-14
2670,30,-266,-39,-82,18,-12
2675,30,-264,-41,-79,15,-11
2680,30,-265,-42,-74,12,-10
2685,30,-264,-42,-70,9,-11
2690,27,-262,-41,-62,5,-10
2695,28,-264,-40,-55,1,-10
2700,28,-265,-43,-47,-2,-9
2705,29,-262,-45,-39,-2,-9
2710,31,-264,-40,-34,-3,-10
2715,30,-264,-40,-29,-2,-10
2720,32,-261,-42,-24,-1,-9
2725,32,-260,-39,-22,1,-10
2730,29,-260,-41,-22,2,-8
2735,30,-264,-40,-21,4,-8
2740,28,-260,-39,-23,8,-7
2745,31,-263,-40,-23,13,-6
2750,32,-265,-38,-23,15,-7
2755,31,-264,-35,-23,18,-7
2760,30,-262,-38,-22,21,-8
2765,32,-263,-40,-22,22,-7
2770,29,-262,-35,-20,25,-7
2775,29,-264,-37,-21,26,-7
2780,30,-261,-37,-17,26,-7
2785,29,-262,-37,-16,26,-6
2790,29,-260,-35,-16,27,-5
2795,29,-259,-39,-17,25,-7
2800,27,-258,-38,-19,26,-7
2805,30,-261,-37,-22,27,-6
2810,27,-258,-42,-26,29,-8
2815,31,-261,-43,-29,29,-8
2820,29,-262,-36,-33,30,-10
2825,29,-256,-41,-37,29,-11
2830,25,-257,-37,-42,27,-12
2835,27,-259,-36,-46,24,-12
2840,27,-262,-38,-50,21,-11
2845,27,-261,-39,-53,19,-11
2850,28,-261,-36,-55,16,-11
2855,29,-262,-38,-55,12,-11
2860,28,-263,-37,-54,10,-10
2865,30,-259,-35,-53,7,-12
2870,31,-263,-38,-52,5,-11
2875,29,-259,-41,-51,7,-10
2880,25,-260,-38,-52,6,-10
2885,27,-260,-41,-54,4,-9
2890,30,-262,-38,-54,5,-8
2895,29,-262,-41,-57,6,-7
2900,28,-262,-43,-57,5,-7
2905,29,-262,-36,-57,4,-7
2910,28,-264,-42,-58,3,-7
2915,27,-263,-37,-57,0,-7
2920,29,-263,-40,-53,-3,-6
2925,28,-261,-36,-49,-4,-9
2930,29,-262,-39,-46,-8,-9
2935,27,-258,-44,-43,-10,-10
2940,29,-262,-35,-43,-11,-10
2945,32,-263,-42,-42,-11,-11
2950,28,-262,-37,-42,-11,-11
2955,33,-262,-36,-40,-9,-10
2960,29,-260,-35,-40,-7,-12
2965,30,-264,-38,-38,-5,-12
2970,31,-265,-35,-39,-2,-11
2975,29,-260,-35,-38,1,-11
2980,30,-262,-37,-36,5,-10
2985,29,-260,-36,-35,10,-10
2990,32,-258,-34,-34,16,-8
2995,29,-257,-38,-33,19,-7
3000,31,-259,-36,-31,20,-9
3005,30,-259,-41,-30,22,-8
3010,34,-261,-37,-30,21,-8
3015,33,-259,-39,-29,20,-7
3020,30,-259,-35,-32,17,-6
3025,31,-259,-37,-35,14,-7
3030,30,-260,-36,-39,14,-6
3035,30,-260,-37,-45,15,-4
3040,32,-257,-36,-47,16,-4
3045,32,-259,-32,-53,16,-3
3050,31,-263,-41,-57,18,-2
3055,30,-261,-41,-59,18,-3
3060,32,-263,-40,-63,19,-5
3065,30,-262,-37,-66,19,-5
3070,31,-262,-42,-64,22,-6
3075,29,-264,-39,-61,24,-7
3080,33,-268,-40,-58,28,-8
3085,26,-265,-43,-53,33,-9
3090,28,-265,-41,-43,37,-10
3095,30,-262,-41,-37,41,-10
3100,31,-265,-41,-32,46,-12
3105,28,-262,-39,-28,53,-13
3110,29,-264,-41,-26,56,-14
3115,29,-263,-42,-25,59,-15
3120,29,-264,-39,-27,58,-14
3125,28,-261,-41,-32,55,-14
3130,30,-261,-41,-40,52,-13
3135,29,-260,-46,-47,48,-13
3140,31,-261,-46,-54,44,-13
3145,27,-261,-43,-58,39,-11
3150,30,-260,-42,-63,34,-11
3155,29,-261,-44,-66,30,-9
3160,27,-263,-42,-68,26,-7
3165,30,-262,-47,-69,23,-4
3170,31,-263,-45,-69,21,-3
3175,31,-264,-43,-72,19,0
3180,31,-262,-45,-74,19,2
3185,27,-262,-48,-77,19,4
3190,30,-261,-53,-82,19,6
3195,30,-261,-48,-92,20,8
3200,27,-264,-56,-101,17,10
3205,28,-257,-65,-111,17,13
3210,26,-258,-56,-124,15,13
3215,25,-258,-57,-135,18,15
3220,25,-257,-53,-144,18,15
3225,25,-257,-61,-150,20,17
3230,27,-258,-59,-158,21,18
3235,25,-255,-63,-167,21,21
3240,29,-256,-62,-179,18,22
3245,26,-253,-63,-189,15,24
3250,31,-254,-66,-200,8,27
3255,28,-254,-63,-211,-2,30
3260,32,-253,-61,-225,-11,33
3265,31,-254,-63,-236,-19,37
3270,30,-252,-64,-248,-27,42
3275,29,-253,-64,-258,-34,46
3280,28,-252,-65,-265,-40,51
3285,31,-254,-64,-269,-44,56
3290,32,-254,-65,-272,-49,60
3295,28,-255,-66,-272,-50,63
3300,29,-251,-69,-272,-52,66
3305,28,-247,-65,-271,-53,67
3310,30,-248,-66,-269,-52,69
3315,31,-244,-61,-267,-51,69
3320,26,-243,-73,-269,-50,67
3325,28,-244,-67,-273,-50,68
3330,28,-240,-74,-280,-50,67
3335,24,-237,-74,-291,-50,64
3340,23,-236,-72,-305,-51,62
3345,23,-238,-70,-320,-51,59
3350,22,-235,-71,-339,-53,56
3355,20,-235,-72,-359,-54,53
3360,20,-233,-71,-381,-55,51
3365,20,-232,-71,-402,-56,49
3370,21,-229,-71,-421,-56,46
3375,18,-230,-76,-439,-55,43
3380,19,-230,-79,-456,-55,40
3385,19,-229,-80,-473,-56,40
3390,19,-227,-86,-489,-57,39
3395,20,-223,-87,-504,-61,37
3400,21,-222,-86,-523,-67,35
3405,19,-220,-89,-540,-75,32
3410,25,-217,-91,-560,-81,28
3415,23,-216,-98,-583,-93,23
3420,26,-213,-92,-605,-108,19
3425,22,-209,-97,-629,-122,16
3430,22,-203,-103,-653,-139,13
3435,22,-201,-104,-673,-160,10
3440,20,-195,-98,-693,-186,7
3445,20,-194,-100,-705,-210,2
3450,19,-191,-97,-712,-237,-3
3455,18,-184,-93,-715,-259,-10
3460,22,-181,-85,-710,-277,-16
3465,25,-176,-81,-701,-284,-23
3470,25,-171,-72,-686,-283,-29
3475,26,-167,-69,-668,-275,-35
3480,28,-161,-65,-647,-261,-42
3485,28,-156,-62,-629,-241,-49
3490,28,-148,-63,-615,-218,-56
3495,28,-145,-64,-608,-194,-58
3500,27,-145,-64,-612,-168,-59
3505,25,-143,-64,-629,-148,-59
3510,26,-141,-71,-658,-131,-58
3515,23,-139,-72,-695,-123,-53
3520,28,-142,-81,-738,-116,-52
3525,25,-142,-86,-787,-115,-51
3530,18,-141,-85,-842,-117,-52
3535,23,-146,-90,-900,-126,-55
3540,24,-149,-100,-961,-144,-61
3545,23,-150,-100,-1021,-169,-68
3550,24,-152,-101,-1072,-199,-77
3555,23,-152,-99,-1115,-226,-83
3560,28,-153,-95,-1142,-245,-89
3565,30,-152,-91,-1152,-251,-93
3570,28,-149,-84,-1146,-245,-97
3575,30,-153,-84,-1127,-228,-106
3580,31,-148,-80,-1102,-197,-115
3585,34,-146,-63,-1072,-155,-125
3590,30,-142,-70,-1040,-105,-133
3595,32,-140,-65,-1016,-47,-137
3600,34,-133,-61,-998,12,-138
3605,35,-134,-59,-991,72,-135
3610,34,-132,-63,-1000,127,-125
3615,31,-132,-61,-1020,174,-110
3620,32,-136,-62,-1051,211,-90
3625,28,-138,-63,-1086,238,-67
3630,33,-141,-73,-1123,254,-42
3635,36,-152,-78,-1153,259,-19
3640,30,-156,-83,-1173,255,0
3645,29,-162,-92,-1187,242,17
3650,31,-171,-102,-1195,219,32
3655,31,-176,-109,-1195,190,41
3660,29,-183,-116,-1186,150,48
3665,27,-189,-121,-1171,102,49
3670,25,-196,-122,-1151,43,46
3675,29,-206,-127,-1127,-21,42
3680,24,-209,-126,-1103,-87,38
3685,27,-219,-127,-1083,-149,33
3690,26,-233,-123,-1064,-201,32
3695,28,-241,-122,-1039,-240,33
3700,28,-250,-117,-1008,-261,33
3705,31,-261,-111,-962,-270,34
3710,30,-272,-102,-905,-263,35
3715,30,-281,-104,-835,-246,35
3720,27,-287,-97,-755,-220,35
3725,26,-292,-88,-672,-192,37
3730,27,-298,-86,-589,-163,41
3735,27,-303,-79,-503,-137,47
3740,24,-308,-77,-418,-117,56
3745,34,-314,-86,-328,-107,70
3750,25,-317,-90,-232,-101,84
3755,24,-318,-92,-127,-96,96
3760,26,-317,-95,-17,-95,104
3765,28,-316,-98,101,-101,108
3770,32,-309,-103,199,-110,105
3775,31,-303,-102,326,-120,98
3780,29,-293,-108,449,-129,87
3785,26,-280,-114,563,-133,73
3790,26,-273,-115,660,-131,52
3795,29,-264,-117,737,-122,28
3800,30,-257,-121,793,-107,4
3805,23,-251,-124,823,-84,-12
3810,25,-252,-123,824,-54,-32
3815,24,-250,-125,798,-22,-49
3820,26,-250,-125,748,12,-62
3825,30,-255,-120,674,51,-70
3830,31,-259,-114,595,96,-79
3835,35,-266,-104,525,143,-91
3840,37,-275,-101,478,191,-101
3845,32,-281,-98,462,238,-104
3850,38,-297,-97,478,284,-97
3855,41,-304,-88,524,321,-84
3860,35,-313,-85,595,344,-68
3865,35,-324,-87,685,352,-42
3870,35,-333,-86,778,362,-5
3875,36,-337,-89,860,368,37
3880,39,-345,-94,934,365,76
3885,36,-343,-100,998,351,97
3890,35,-345,-105,1041,332,103
3895,42,-344,-107,1058,314,119
3900,38,-339,-114,1054,287,119
3905,32,-335,-121,1031,260,125
3910,21,-330,-124,976,233,139
3915,22,-328,-128,898,198,169
3920,27,-323,-131,808,160,195
3925,29,-323,-126,705,123,200
3930,23,-320,-133,607,98,190
3935,23,-320,-132,493,92,190
3940,24,-317,-132,385,99,181
3945,19,-314,-131,284,113,163
3950,24,-313,-127,195,144,155
3955,19,-308,-127,116,175,126
3960,14,-311,-116,51,211,102
3965,16,-311,-110,19,238,86
3970,9,-307,-107,15,256,75
3975,21,-306,-108,36,270,78
3980,23,-304,-106,73,278,66
3985,19,-303,-107,129,284,47
3990,23,-302,-95,191,282,40
3995,29,-305,-110,277,273,40
4000,31,-305,-115,350,257,32
4005,32,-310,-118,396,250,25
4010,30,-310,-125,432,257,25
4015,28,-320,-125,456,254,22
4020,31,-319,-129,487,251,9
4025,37,-324,-129,514,247,-8
4030,32,-327,-135,534,236,-28
4035,29,-334,-139,546,233,-34
4040,29,-339,-144,533,230,-37
4045,34,-347,-149,506,225,-32
4050,33,-347,-149,467,212,-29
4055,15,-350,-148,435,198,-38
4060,13,-351,-149,413,186,-22
4065,21,-359,-141,416,162,-9
4070,10,-355,-145,436,132,0
4075,9,-349,-148,469,109,14
4080,10,-346,-142,507,90,20
4085,13,-343,-146,538,75,25
4090,12,-334,-140,557,57,22
4095,15,-328,-139,575,37,7
4100,19,-322,-140,593,21,-3
4105,11,-315,-133,606,14,-14
4110,16,-310,-138,610,16,-12
4115,14,-311,-137,605,17,-12
4120,18,-312,-133,600,14,-6
4125,15,-312,-125,596,6,-1
4130,18,-311,-121,605,-1,3
4135,22,-310,-122,626,-6,4
4140,26,-309,-117,636,-11,8
4145,29,-305,-118,636,-15,8
4150,28,-303,-108,628,-21,5
4155,29,-306,-103,627,-29,6
4160,32,-303,-103,629,-34,5
4165,34,-299,-99,639,-36,-1
4170,21,-299,-97,654,-39,-4
4175,27,-292,-96,679,-43,-6
4180,27,-295,-92,703,-48,-6
4185,24,-290,-93,716,-49,-5
4190,25,-282,-87,724,-56,-3
4195,17,-277,-79,732,-61,-8
4200,23,-276,-77,745,-68,-13
4205,25,-275,-80,756,-71,-19
4210,27,-265,-74,766,-67,-21
4215,25,-260,-74,768,-61,-24
4220,25,-260,-68,761,-52,-29
4225,29,-250,-65,753,-44,-33
4230,19,-256,-57,742,-32,-39
4235,20,-252,-50,734,-19,-38
4240,28,-256,-51,739,-10,-35
4245,31,-257,-49,750,-3,-37
4250,30,-259,-42,767,6,-46
4255,26,-266,-43,782,15,-53
4260,22,-268,-40,805,20,-48
4265,23,-269,-37,838,24,-37
4270,25,-279,-37,864,24,-19
4275,18,-291,-25,897,25,3
4280,17,-304,-16,959,22,32
4285,22,-321,-13,1064,18,69
4290,23,-333,-14,1183,17,83
4295,22,-343,-19,1287,17,71
4300,17,-357,-15,1379,15,31
4305,-1,-375,-18,1474,5,-12
4310,-11,-397,-20,1559,-5,-16
4315,-8,-419,3,1651,-36,-13
4320,-11,-434,7,1745,-99,-21
4325,-25,-438,32,1807,-169,-41
4330,-24,-428,29,1849,-253,-65
4335,-23,-413,28,1842,-305,-91
4340,-13,-396,8,1756,-316,-118
4345,-12,-378,6,1595,-293,-140
4350,-4,-357,0,1384,-259,-147
4355,1,-325,-6,1161,-198,-131
4360,6,-292,1,959,-114,-108
4365,11,-258,13,791,-21,-89
4370,14,-223,15,654,65,-78
4375,24,-190,30,524,137,-73
4380,29,-164,33,399,191,-72
4385,33,-143,31,294,212,-75
4390,31,-134,18,196,200,-70
4395,26,-136,3,103,157,-54
4400,20,-142,-8,26,94,-29
4405,18,-151,-29,-30,27,7
4410,16,-161,-35,-55,-42,39
4415,15,-175,-41,-47,-101,62
4420,14,-189,-31,5,-143,79
4425,14,-203,-19,125,-190,82
4430,19,-217,-7,307,-230,74
4435,26,-229,12,536,-260,54
4440,23,-241,17,772,-272,26
4445,24,-248,22,991,-263,-12
4450,29,-252,27,1184,-240,-53
4455,26,-250,35,1332,-209,-92
4460,24,-254,40,1430,-175,-125
4465,22,-247,46,1483,-143,-149
4470,20,-243,53,1497,-111,-168
4475,24,-239,52,1474,-87,-177
4480,25,-240,58,1412,-70,-176
4485,28,-240,61,1320,-61,-171
4490,31,-241,67,1206,-55,-161
4495,33,-248,68,1080,-53,-149
4500,34,-250,69,947,-52,-132
4505,36,-258,69,815,-51,-116
4510,31,-262,63,689,-51,-103
4515,34,-268,61,597,-54,-85
4520,29,-275,60,495,-56,-66
4525,32,-276,58,409,-57,-42
4530,33,-272,52,348,-59,-17
4535,42,-274,51,312,-58,9
4540,41,-269,42,294,-58,20
4545,36,-258,47,287,-55,30
4550,38,-253,34,294,-50,39
4555,40,-252,36,308,-42,46
4560,46,-242,44,321,-29,52
4565,39,-236,44,336,-11,49
4570,39,-227,45,348,5,45
4575,40,-219,45,355,16,38
4580,37,-217,42,354,15,23
4585,38,-217,48,342,7,8
4590,38,-212,47,331,-3,-8
4595,37,-211,51,307,-15,-18
4600,39,-209,49,278,-21,-15
4605,41,-214,57,252,-26,-8
4610,44,-212,50,230,-31,-6
4615,46,-220,53,219,-35,-14
4620,42,-224,57,214,-35,-27
4625,45,-228,58,218,-29,-37
4630,40,-229,58,223,-19,-45
4635,43,-234,61,230,-15,-54
4640,39,-232,62,235,-14,-58
4645,41,-231,67,238,-19,-57
4650,40,-238,67,241,-23,-51
4655,43,-237,76,239,-23,-39
4660,38,-238,82,237,-21,-35
4665,45,-232,78,234,-19,-30
4670,49,-229,76,222,-21,-31
4675,47,-230,75,204,-22,-34
4680,45,-227,74,178,-21,-37
4685,48,-222,71,150,-20,-46
4690,46,-222,70,122,-17,-56
4695,44,-220,68,94,-16,-63
4700,45,-224,69,65,-14,-71
4705,45,-224,67,35,-16,-71
4710,42,-225,63,7,-17,-74
4715,41,-225,62,-20,-17,-69
4720,34,-227,57,-46,-13,-54
4725,38,-231,55,-67,-10,-30
4730,42,-233,54,-83,-12,-11
4735,40,-238,56,-91,-22,-3
4740,39,-238,49,-94,-34,3
4745,36,-242,44,-92,-42,10
4750,35,-241,46,-85,-46,20
4755,38,-247,51,-72,-44,31
4760,42,-248,48,-48,-44,35
4765,39,-246,53,-17,-44,33
4770,41,-246,53,18,-41,27
4775,37,-246,54,52,-36,16
4780,37,-243,55,81,-26,4
4785,38,-247,56,104,-9,-7
4790,31,-242,61,120,12,-16
4795,31,-245,62,132,32,-27
4800,35,-247,64,136,53,-35
4805,31,-242,64,131,74,-37
4810,38,-241,63,119,95,-38
4815,37,-240,66,100,113,-37
4820,35,-242,64,72,129,-32
4825,36,-236,65,41,143,-27
4830,37,-238,67,5,157,-18
4835,35,-238,65,-28,168,-12
4840,36,-238,67,-53,178,-4
4845,38,-236,65,-71,188,1
4850,37,-237,66,-82,196,3
4855,36,-237,65,-84,202,3
4860,39,-239,66,-81,206,4
4865,37,-235,61,-74,209,0
4870,38,-237,59,-66,208,-6
4875,35,-240,61,-56,204,-13
4880,34,-235,58,-47,199,-18
4885,32,-235,63,-39,188,-24
4890,35,-236,63,-31,179,-30
4895,31,-235,63,-24,169,-35
4900,34,-233,63,-18,156,-40
4905,31,-231,64,-20,145,-43
4910,35,-229,56,-27,138,-46
4915,34,-231,59,-42,131,-46
4920,33,-232,60,-63,127,-45
4925,35,-231,62,-85,127,-42
4930,34,-234,62,-111,127,-39
4935,35,-238,63,-136,127,-32
4940,32,-237,60,-157,124,-25
4945,36,-241,62,-172,123,-18
4950,33,-242,59,-184,118,-11
4955,35,-245,57,-192,118,-7
4960,33,-248,54,-196,116,-5
4965,30,-248,56,-197,117,-5
4970,31,-248,55,-196,120,-8
4975,28,-251,54,-194,125,-12
4980,30,-247,51,-195,130,-14
4985,24,-250,52,-198,137,-18
4990,25,-251,53,-200,143,-20
4995,27,-249,49,-201,149,-20
5000,25,-248,51,-203,153,-18
5005,26,-246,45,-209,157,-16
5010,21,-245,51,-214,157,-12
5015,21,-246,46,-221,154,-8
5020,25,-246,47,-228,145,-3
5025,20,-246,53,-237,138,4
5030,20,-244,46,-246,130,8
5035,20,-241,44,-256,120,16
5040,15,-242,42,-263,107,23
5045,21,-247,43,-272,92,31
5050,16,-242,41,-282,78,38
5055,20,-248,39,-290,63,43
5060,15,-247,39,-299,52,46
5065,17,-248,41,-307,42,46
5070,16,-250,41,-314,35,47
5075,16,-246,42,-317,28,46
5080,16,-249,44,-318,23,46
5085,16,-247,44,-315,18,43
5090,20,-247,44,-315,16,43
5095,23,-247,39,-311,16,44
5100,20,-244,41,-308,16,43
5105,22,-242,44,-306,19,39
5110,23,-242,47,-303,21,36
5115,24,-243,48,-304,23,31
5120,26,-243,50,-309,21,26
5125,28,-243,53,-316,20,19
5130,28,-244,52,-320,18,14
5135,31,-245,51,-328,14,9
5140,29,-245,48,-333,10,5
5145,27,-247,45,-335,4,3
5150,31,-244,50,-328,-3,3
5155,28,-253,47,-315,-9,4
5160,28,-256,42,-289,-14,2
5165,27,-257,41,-250,-19,-2
5170,24,-259,41,-201,-20,-4
5175,26,-258,34,-148,-19,-9
5180,28,-261,35,-95,-21,-15
5185,25,-260,31,-51,-20,-20
5190,22,-259,30,-16,-22,-24
5195,26,-259,26,9,-25,-28
5200,19,-254,28,21,-28,-29
5205,24,-251,25,23,-31,-30
5210,24,-253,26,15,-31,-28
5215,21,-253,27,2,-27,-26
5220,23,-252,28,-7,-21,-25
5225,22,-249,29,-15,-11,-22
5230,18,-252,33,-17,1,-24
5235,20,-253,34,-18,12,-22
5240,18,-251,38,-16,22,-19
5245,20,-254,37,-13,31,-16
5250,21,-253,34,-8,37,-14
5255,24,-255,39,-3,43,-11
5260,18,-248,50,8,46,-8
5265,21,-248,47,19,48,-7
5270,22,-253,39,29,48,-5
5275,21,-252,42,32,48,-2
5280,27,-253,39,31,46,3
5285,28,-252,40,27,43,8
5290,30,-251,40,22,38,14
5295,28,-250,34,15,31,22
5300,28,-248,37,5,25,27
5305,31,-249,32,-5,18,29
5310,27,-247,32,-15,9,28
5315,32,-249,32,-23,2,25
5320,27,-250,30,-28,-7,22
5325,31,-251,29,-31,-15,18
5330,26,-249,28,-27,-22,15
5335,28,-251,29,-20,-29,9
5340,28,-254,30,-5,-33,3
5345,25,-253,38,13,-37,-3
5350,25,-251,36,29,-39,-6
5355,25,-249,38,45,-39,-8
5360,30,-250,41,59,-40,-10
5365,22,-250,38,75,-42,-12
5370,26,-249,45,86,-44,-9
5375,23,-246,44,91,-48,-7
5380,23,-244,46,89,-51,-1
5385,22,-241,43,83,-58,5
5390,24,-239,49,71,-64,12
5395,23,-239,46,50,-71,19
5400,22,-239,49,23,-78,26
5405,27,-237,45,-12,-87,32
5410,25,-239,46,-48,-99,35
5415,27,-237,42,-84,-109,38
5420,31,-240,43,-117,-118,40
5425,28,-241,43,-145,-124,38
5430,27,-241,45,-165,-129,40
5435,29,-242,46,-182,-130,38
5440,33,-244,47,-193,-130,36
5445,32,-246,44,-202,-126,34
5450,31,-248,45,-203,-120,31
5455,33,-249,44,-196,-115,27
5460,32,-250,44,-181,-110,23
5465,32,-254,39,-162,-106,22
5470,30,-255,36,-141,-100,19
5475,31,-251,36,-118,-95,16
5480,29,-251,45,-94,-92,13
5485,29,-252,41,-72,-92,15
5490,29,-254,41,-54,-95,15
5495,27,-251,45,-41,-99,18
5500,28,-248,39,-29,-107,21
5505,28,-247,40,-22,-114,21
5510,27,-251,39,-16,-118,21
5515,26,-248,39,-13,-119,20
5520,23,-247,39,-10,-118,16
5525,28,-247,33,-9,-113,14
5530,34,-247,37,-7,-105,12
5535,27,-250,37,-10,-95,9
5540,27,-251,37,-13,-82,7
5545,29,-253,39,-18,-71,7
5550,30,-253,38,-21,-62,6
5555,31,-254,39,-23,-57,4
5560,33,-255,38,-23,-56,2
5565,33,-252,37,-22,-56,1
5570,33,-256,32,-23,-55,-4
5575,35,-253,38,-29,-53,-9
5580,33,-252,38,-41,-49,-13
5585,33,-257,41,-54,-46,-13
5590,34,-252,37,-62,-45,-14
5595,35,-252,41,-67,-45,-14
5600,36,-252,40,-69,-43,-13
5605,34,-249,42,-75,-41,-9
5610,35,-249,41,-84,-37,-8
5615,33,-246,40,-94,-34,-6
5620,30,-245,39,-105,-32,-3
5625,32,-245,38,-114,-33,-1
5630,29,-244,41,-119,-34,0
5635,28,-244,44,-118,-37,-1
5640,26,-247,35,-113,-39,-3
5645,27,-246,46,-102,-37,-5
5650,28,-245,42,-89,-32,-9
5655,25,-245,45,-75,-23,-11
5660,29,-249,44,-65,-14,-14
5665,27,-246,37,-56,-4,-15
5670,26,-248,45,-50,5,-16
5675,26,-246,40,-51,14,-17
5680,25,-251,36,-54,23,-15
5685,24,-247,41,-56,27,-13
5690,28,-251,37,-56,24,-7
5695,29,-249,28,-56,15,-2
5700,27,-252,34,-59,1,0
5705,30,-252,34,-60,-12,1
5710,32,-252,36,-66,-20,1
5715,28,-249,31,-75,-24,-4
5720,32,-250,34,-87,-22,-10
5725,32,-249,34,-102,-19,-15
5730,31,-248,35,-115,-11,-20
5735,32,-246,35,-129,-1,-26
5740,31,-251,32,-141,10,-29
5745,33,-248,32,-146,22,-32
5750,30,-248,30,-143,30,-34
5755,34,-252,33,-136,39,-35
5760,32,-256,34,-123,45,-35
5765,34,-254,38,-112,47,-36
5770,32,-252,34,-105,49,-36
5775,33,-255,36,-102,48,-37
5780,34,-252,38,-102,44,-35
5785,35,-253,38,-102,37,-32
5790,32,-251,36,-100,28,-29
5795,35,-253,35,-97,22,-27
5800,33,-255,39,-89,20,-26
5805,31,-252,37,-82,19,-28
5810,31,-249,37,-76,20,-31
5815,30,-247,35,-74,23,-34
5820,27,-249,36,-78,28,-33
5825,29,-245,34,-84,32,-31
5830,30,-248,36,-92,36,-32
5835,29,-246,38,-94,42,-31
5840,30,-246,38,-100,43,-30
5845,30,-249,38,-106,42,-28
5850,32,-244,38,-112,41,-29
5855,25,-250,34,-119,38,-29
5860,28,-244,38,-128,32,-27
5865,31,-246,40,-134,26,-28
5870,29,-244,37,-136,23,-28
5875,30,-247,36,-136,21,-27
5880,32,-247,36,-134,20,-30
5885,33,-245,34,-133,21,-31
5890,32,-248,32,-134,23,-31
5895,31,-251,33,-134,23,-34
5900,28,-247,31,-135,23,-34
5905,30,-250,36,-138,25,-36
5910,21,-248,31,-143,27,-36
5915,28,-252,32,-143,31,-37
5920,25,-255,31,-144,35,-40
5925,27,-257,30,-143,42,-39
5930,27,-259,31,-142,46,-38
5935,27,-256,30,-139,47,-36
5940,28,-258,30,-134,47,-31
5945,24,-255,32,-127,47,-28
5950,30,-256,31,-119,44,-24
5955,29,-255,25,-106,39,-20
5960,31,-259,27,-92,34,-17
5965,26,-251,32,-78,27,-14
5970,28,-255,29,-68,20,-11
5975,33,-256,31,-57,14,-11
5980,32,-255,30,-48,9,-11
5985,32,-253,30,-41,7,-11
5990,34,-253,27,-34,4,-11
5995,31,-250,33,-29,5,-11
6000,32,-253,36,-30,5,-11
6005,33,-246,29,-32,7,-11
6010,32,-249,30,-35,9,-11
6015,32,-246,31,-39,12,-10
6020,35,-248,31,-46,15,-10
6025,34,-248,36,-53,16,-11
6030,32,-248,42,-59,18,-10
6035,34,-249,36,-65,16,-10
6040,30,-248,38,-71,18,-10
6045,30,-249,36,-76,19,-10
6050,34,-252,38,-81,21,-10
6055,33,-249,35,-80,23,-8
6060,30,-251,36,-77,23,-7
6065,35,-252,38,-70,22,-5
6070,28,-255,38,-60,22,-2
6075,30,-250,38,-47,20,-2
6080,32,-255,35,-34,19,1
6085,31,-254,30,-28,19,1
6090,31,-255,32,-26,19,1
6095,29,-254,32,-26,22,-1
6100,30,-252,30,-24,24,0
6105,31,-254,34,-24,26,-1
6110,29,-249,33,-22,29,1
6115,29,-248,32,-19,35,1
6120,30,-249,33,-17,40,5
6125,33,-253,30,-12,46,3
6130,26,-248,34,-7,51,4
6135,32,-251,36,0,54,5
6140,31,-254,38,4,57,5
6145,28,-251,33,8,57,3
6150,32,-249,37,9,58,1
6155,32,-248,34,15,57,-1
6160,29,-248,33,15,56,-2
6165,31,-245,33,14,55,-2
6170,32,-248,32,14,55,-3
6175,34,-247,35,14,53,-4
6180,32,-246,31,15,55,-5
6185,38,-247,36,13,54,-5
6190,32,-246,26,10,55,-8
6195,32,-246,28,4,55,-7
6200,33,-250,29,-2,54,-6
6205,32,-246,29,-11,51,-5
6210,32,-250,30,-17,47,-4
6215,31,-249,30,-24,42,-3
6220,31,-248,26,-31,37,-2
6225,32,-247,28,-41,33,-1
6230,29,-249,28,-53,29,0
6235,28,-250,26,-66,27,4
6240,34,-249,29,-74,26,6
6245,30,-250,35,-77,26,10
6250,33,-251,32,-77,23,13
6255,30,-251,34,-74,22,16
6260,30,-252,33,-68,19,17
6265,34,-252,32,-65,15,17
6270,32,-253,38,-61,10,18
6275,31,-253,33,-57,5,22
6280,31,-252,36,-51,-1,25
6285,31,-249,28,-49,-9,28
6290,29,-248,37,-48,-15,32
6295,26,-251,39,-50,-21,35
6300,31,-250,36,-53,-27,39
6305,29,-248,34,-55,-30,41
6310,32,-247,37,-58,-33,43
6315,27,-248,36,-64,-34,47
6320,29,-245,41,-71,-36,48
6325,28,-246,43,-82,-35,49
6330,27,-243,38,-92,-33,50
6335,30,-246,41,-103,-28,48
6340,28,-246,33,-114,-26,46
6345,31,-246,38,-128,-21,41
6350,27,-243,33,-138,-19,38
6355,28,-246,33,-148,-16,34
6360,28,-249,32,-156,-12,31
6365,30,-251,31,-161,-11,26
6370,30,-249,28,-167,-12,24
6375,32,-254,32,-168,-13,20
6380,27,-254,33,-164,-14,19
6385,30,-257,26,-156,-15,18
6390,29,-257,32,-143,-18,16
6395,30,-256,26,-128,-18,16
6400,30,-256,28,-110,-20,18
6405,32,-261,27,-91,-23,15
6410,30,-260,29,-71,-24,16
6415,29,-257,26,-51,-25,15
6420,31,-259,26,-32,-26,11
6425,31,-259,29,-12,-26,11
6430,30,-260,24,3,-28,10
6435,27,-257,31,14,-28,11
6440,27,-257,31,20,-31,9
6445,29,-258,28,23,-32,8
6450,30,-259,35,26,-33,7
6455,28,-258,32,25,-35,7
6460,30,-259,28,24,-34,6
6465,21,-256,28,21,-31,5
6470,21,-253,33,19,-29,3
6475,27,-254,28,15,-26,1
6480,26,-254,32,9,-23,-1
6485,24,-253,30,2,-18,-1
6490,27,-264,26,-3,-14,-2
6495,25,-239,32,-9,-10,-2
6500,21,-249,30,-14,-5,-3
6505,21,-253,27,-16,-4,-5
6510,22,-254,29,-16,-2,-6
6515,25,-252,31,-15,2,-6
6520,13,-253,30,-13,3,-9
6525,27,-252,33,-9,4,-11
6530,24,-244,32,-4,5,-13
6535,20,-248,27,1,8,-15
6540,25,-244,32,2,11,-14
6545,26,-247,27,4,14,-14
6550,22,-248,30,8,15,-12
6555,29,-253,39,12,12,-10
6560,32,-245,43,17,10,-11
6565,28,-252,36,17,7,-17
6570,36,-254,38,15,1,-25
6575,37,-245,32,10,-6,-34
6580,29,-248,42,3,-16,-41
6585,22,-256,35,-2,-21,-41
6590,26,-255,24,-10,-21,-39
6595,31,-254,32,-16,-17,-34
6600,31,-254,27,-24,-12,-27
6605,32,-257,28,-34,-6,-21
6610,30,-252,31,-47,-2,-17
6615,31,-254,29,-63,3,-16
6620,32,-262,21,-84,7,-16
6625,34,-259,24,-104,13,-17
6630,39,-257,24,-121,19,-20
6635,36,-259,25,-132,23,-23
6640,37,-260,13,-136,24,-26
6645,36,-260,25,-131,23,-30
6650,36,-262,27,-121,21,-34
6655,38,-264,28,-107,19,-36
6660,37,-257,30,-94,16,-39
6665,33,-256,31,-79,12,-42
6670,39,-251,35,-66,9,-45
6675,34,-253,41,-56,12,-50
6680,35,-255,40,-42,18,-56
6685,45,-254,40,-29,32,-61
6690,44,-253,43,-15,50,-67
6695,45,-256,29,-7,67,-72
6700,52,-255,28,-6,79,-70
6705,44,-254,28,-13,86,-67
6710,40,-253,22,-34,84,-60
6715,39,-253,16,-63,78,-47
6720,37,-252,10,-92,77,-30
6725,33,-248,9,-124,81,-16
6730,32,-249,6,-149,88,-7
6735,30,-250,8,-169,98,-2
6740,29,-248,10,-183,109,-2
6745,24,-249,10,-184,118,-3
6750,21,-243,19,-175,123,-9
6755,22,-240,21,-163,126,-16
6760,24,-237,24,-149,132,-23
6765,24,-230,32,-140,140,-30
6770,23,-229,39,-140,150,-38
6775,23,-222,45,-156,161,-45
6780,22,-220,55,-185,174,-49
6785,25,-217,71,-219,188,-55
6790,25,-216,66,-258,199,-58
6795,26,-216,67,-295,204,-59
6800,25,-219,74,-333,204,-58
6805,26,-220,76,-367,197,-52
6810,29,-224,76,-404,188,-47
6815,33,-225,80,-440,176,-45
6820,36,-223,81,-462,157,-43
6825,34,-227,77,-473,134,-35
6830,37,-233,68,-477,112,-26
6835,39,-232,71,-472,92,-20
6840,36,-234,64,-453,80,-13
6845,36,-239,56,-427,75,-12
6850,34,-240,51,-398,72,-14
6855,31,-240,53,-374,72,-14
6860,31,-241,47,-354,73,-11
6865,26,-241,51,-341,75,-9
6870,27,-238,52,-338,77,-4
6875,26,-241,53,-344,76,-1
6880,25,-235,56,-355,73,-1
6885,19,-235,61,-372,70,2
6890,22,-233,62,-386,70,1
6895,26,-236,68,-402,71,-3
6900,26,-234,71,-420,77,-7
6905,29,-232,68,-440,85,-11
6910,27,-239,66,-464,97,-15
6915,28,-235,69,-494,116,-10
6920,28,-233,66,-513,134,-11
6925,28,-231,65,-539,149,-8
6930,30,-232,68,-562,159,3
6935,29,-237,68,-576,166,9
6940,29,-235,73,-574,169,18
6945,26,-244,71,-565,171,25
6950,23,-241,70,-547,160,26
6955,15,-237,68,-541,142,31
6960,27,-239,65,-566,110,35
6965,26,-228,62,-602,79,35
6970,29,-234,57,-679,50,31
6975,23,-226,54,-775,26,27
6980,29,-230,63,-887,9,32
6985,38,-230,64,-1001,2,35
6990,28,-248,62,-1120,1,39
6995,41,-244,64,-1229,5,60
7000,35,-257,57,-1327,16,78
7005,32,-245,66,-1390,24,95
7010,47,-252,54,-1446,24,107
7015,39,-248,42,-1515,7,114
7020,36,-253,30,-1620,-7,122
7025,36,-250,4,-1748,-14,141
7030,39,-262,13,-1917,-19,158
7035,44,-259,-5,-2108,-13,180
7040,39,-277,20,-2287,25,176
7045,17,-246,-85,-2342,37,151
7050,24,-231,-108,-2612,74,160
7055,15,-235,-107,-3032,75,156
7060,18,-253,-102,-3430,61,164
7065,14,-265,-111,-3745,50,163
7070,14,-276,-121,-3964,37,149
7075,14,-292,-124,-4109,41,137
7080,15,-303,-127,-4153,34,118
7085,20,-322,-127,-4098,34,122
7090,9,-328,-141,-3941,28,122
7095,12,-343,-146,-3721,23,135
7100,18,-365,-158,-3455,17,138
7105,17,-379,-160,-3118,5,114
7110,18,-384,-168,-2730,-15,79
7115,20,-391,-181,-2322,-32,50
7120,16,-390,-181,-1914,-41,30
7125,10,-394,-185,-1509,-39,5
7130,11,-397,-186,-1146,-30,-19
7135,5,-396,-184,-837,-24,-38
7140,8,-394,-173,-584,-28,-51
7145,10,-391,-167,-378,-38,-61
7150,7,-390,-158,-212,-53,-67
7155,5,-389,-157,-80,-74,-72
7160,4,-378,-148,21,-100,-77
7165,3,-380,-146,94,-129,-83
7170,6,-371,-142,141,-160,-92
7175,10,-362,-141,177,-193,-105
7180,4,-353,-137,197,-219,-113
7185,4,-351,-126,203,-240,-117
7190,5,-338,-141,230,-273,-115
7195,0,-334,-117,250,-289,-103
7200,-7,-322,-118,293,-312,-96
7205,3,-310,-130,355,-325,-76
7210,2,-303,-128,394,-321,-62
7215,3,-297,-124,432,-323,-58
7220,7,-294,-129,456,-325,-50
7225,1,-284,-134,470,-338,-38
7230,7,-279,-133,435,-363,-3
7235,16,-275,-131,365,-387,30
7240,6,-272,-131,314,-389,43
7245,15,-273,-126,276,-386,58
7250,15,-274,-124,261,-372,61
7255,19,-273,-123,250,-367,56
7260,16,-278,-126,241,-365,53
7265,20,-280,-135,223,-358,46
7270,17,-277,-141,185,-352,35
7275,15,-281,-142,117,-350,21
7280,12,-282,-143,42,-341,7
7285,12,-284,-140,-24,-330,-11
7290,10,-288,-137,-82,-323,-22
7295,17,-295,-132,-132,-320,-41
7300,16,-297,-133,-172,-321,-63
7305,9,-298,-129,-203,-319,-79
7310,18,-304,-128,-228,-311,-80
7315,19,-308,-125,-251,-302,-90
7320,22,-310,-123,-270,-292,-96
7325,23,-311,-119,-283,-280,-93
7330,22,-312,-114,-287,-268,-94
7335,28,-317,-110,-281,-255,-87
7340,24,-317,-111,-262,-244,-81
7345,27,-319,-110,-238,-244,-71
7350,19,-316,-107,-219,-252,-66
7355,13,-316,-105,-217,-262,-39
7360,20,-315,-103,-228,-272,-1
7365,20,-318,-112,-253,-289,22
7370,23,-315,-110,-285,-301,39
7375,22,-313,-111,-318,-317,48
7380,23,-315,-120,-360,-326,49
7385,20,-310,-119,-421,-323,61
7390,21,-307,-116,-497,-317,74
7395,29,-309,-121,-583,-304,77
7400,28,-306,-121,-680,-290,74
7405,33,-304,-113,-757,-271,73
7410,32,-307,-113,-843,-249,73
7415,26,-304,-113,-914,-220,82
7420,34,-307,-106,-976,-191,105
7425,38,-308,-115,-1015,-165,109
7430,35,-311,-103,-1033,-145,111
7435,35,-314,-97,-1039,-120,105
7440,34,-309,-94,-1032,-99,101
7445,35,-308,-92,-1003,-79,95
7450,35,-309,-95,-970,-59,90
7455,32,-312,-91,-937,-40,75
7460,28,-304,-93,-901,-24,69
7465,23,-300,-93,-857,-8,64
7470,23,-293,-92,-798,5,58
7475,23,-297,-92,-723,10,54
7480,29,-293,-90,-640,14,44
7485,28,-287,-97,-565,23,32
7490,21,-278,-104,-497,34,18
7495,18,-275,-102,-434,46,14
7500,17,-274,-110,-374,59,26
7505,20,-265,-109,-324,65,46
7510,18,-263,-114,-278,65,51
7515,19,-260,-106,-237,64,44
7520,16,-257,-115,-197,65,31
7525,10,-252,-113,-160,65,15
7530,14,-244,-119,-124,63,9
7535,6,-246,-115,-85,61,4
7540,3,-243,-118,-38,53,6
7545,1,-240,-115,7,48,20
7550,1,-239,-115,49,42,31
7555,0,-236,-115,93,33,38
7560,0,-233,-117,130,25,47
7565,5,-229,-114,153,20,58
7570,11,-226,-109,171,13,62
7575,11,-222,-113,187,8,51
7580,11,-217,-102,195,2,41
7585,16,-220,-107,193,-3,40
7590,16,-212,-107,186,-10,41
7595,19,-207,-102,172,-14,41
7600,20,-202,-98,156,-18,44
7605,19,-200,-97,141,-19,46
7610,20,-203,-99,122,-18,49
7615,20,-202,-99,105,-15,54
7620,21,-204,-99,97,-10,58
7625,23,-207,-101,104,-5,52
7630,25,-207,-105,126,1,39
7635,22,-206,-105,167,10,20
7640,21,-205,-112,224,19,6
7645,19,-208,-116,293,31,-11
7650,17,-207,-119,363,44,-19
7655,18,-202,-122,431,59,-22
7660,17,-202,-121,499,80,-29
7665,15,-196,-123,564,106,-39
7670,14,-196,-127,618,132,-47
7675,11,-192,-132,646,155,-49
7680,16,-191,-130,651,171,-43
7685,16,-188,-128,642,184,-41
7690,16,-185,-131,620,192,-40
7695,15,-184,-121,585,194,-37
7700,18,-186,-128,538,192,-29
7705,20,-187,-121,488,183,-22
7710,25,-187,-117,447,172,-15
7715,24,-186,-112,420,155,-11
7720,23,-189,-111,411,135,-5
7725,25,-188,-102,420,118,-1
7730,25,-188,-101,443,106,-1
7735,22,-190,-94,479,98,-1
7740,18,-190,-100,514,94,2
7745,18,-188,-98,549,89,3
7750,15,-188,-95,578,86,4
7755,17,-186,-100,597,86,5
7760,17,-187,-104,610,91,8
7765,12,-183,-100,610,102,7
7770,10,-186,-105,604,112,11
7775,11,-186,-109,593,120,12
7780,7,-184,-111,580,127,11
7785,11,-186,-117,571,131,6
7790,10,-185,-111,567,127,3
7795,15,-185,-110,566,121,-3
7800,19,-186,-112,567,119,-9
7805,21,-182,-116,566,121,-14
7810,23,-183,-109,561,129,-18
7815,26,-185,-114,551,140,-20
7820,26,-187,-109,533,151,-21
7825,31,-187,-111,511,155,-18
7830,35,-189,-107,489,163,-17
7835,38,-193,-100,471,173,-13
7840,41,-193,-96,462,190,-12
7845,43,-202,-92,465,210,-11
7850,44,-201,-90,476,233,-13
7855,44,-205,-88,495,256,-15
7860,43,-194,-93,518,277,-20
7865,41,-206,-86,543,292,-23
7870,36,-205,-90,560,302,-25
7875,38,-211,-89,571,315,-28
7880,35,-207,-93,576,328,-32
7885,28,-207,-86,572,340,-34
7890,24,-209,-87,566,345,-40
7895,24,-211,-86,555,351,-45
7900,15,-210,-87,542,349,-51
7905,10,-213,-87,528,347,-55
7910,10,-209,-84,511,339,-57
7915,12,-207,-84,496,326,-59
7920,4,-210,-86,484,315,-62
7925,4,-212,-85,474,304,-61
7930,3,-212,-84,465,294,-60
7935,4,-215,-86,459,287,-59
7940,2,-212,-81,454,282,-58
7945,9,-216,-88,453,277,-56
7950,7,-212,-88,451,270,-52
7955,9,-209,-86,449,261,-44
7960,9,-211,-89,445,247,-35
7965,12,-212,-90,443,231,-25
7970,13,-209,-92,440,213,-15
7975,17,-210,-88,438,199,-7
7980,19,-207,-86,436,185,2
7985,19,-209,-86,431,175,10
7990,23,-209,-84,424,165,21
7995,25,-212,-87,416,158,31
8000,24,-214,-85,402,151,40
8005,25,-221,-88,386,144,48
8010,27,-225,-87,368,136,55
8015,23,-227,-82,350,128,59
8020,28,-234,-78,332,121,63
8025,26,-239,-75,315,116,68
8030,26,-242,-75,301,113,69
8035,27,-244,-69,292,111,72
8040,26,-251,-73,288,110,72
8045,26,-253,-68,291,108,70
8050,22,-254,-68,302,106,67
8055,25,-256,-67,320,103,62
8060,23,-255,-65,343,98,54
8065,20,-256,-64,362,97,44
8070,21,-255,-63,380,96,34
8075,19,-254,-68,390,93,24
8080,21,-252,-64,397,93,16
8085,20,-254,-66,397,95,8
8090,20,-253,-65,394,99,-1
8095,21,-249,-64,390,104,-9
8100,21,-251,-67,380,113,-17
8105,20,-250,-65,370,122,-25
8110,15,-248,-66,355,131,-31
8115,19,-250,-66,338,139,-35
8120,14,-248,-59,319,145,-37
8125,14,-252,-61,300,147,-38
8130,11,-250,-57,282,145,-37
8135,11,-253,-62,267,137,-36
8140,13,-254,-58,253,125,-34
8145,10,-255,-55,236,114,-31
8150,11,-254,-57,225,101,-31
8155,10,-255,-54,210,89,-30
8160,12,-256,-55,199,73,-28
8165,8,-254,-56,188,61,-26
8170,12,-251,-54,181,47,-24
8175,15,-256,-54,171,31,-22
8180,15,-255,-51,161,14,-18
8185,13,-260,-46,147,1,-12
8190,18,-254,-47,134,-13,-5
8195,20,-258,-40,119,-23,2
8200,18,-257,-36,105,-33,7
8205,22,-260,-34,97,-39,14
8210,20,-264,-33,96,-44,19
8215,22,-267,-37,102,-51,24
8220,20,-270,-39,112,-57,31
8225,19,-267,-40,125,-67,33
8230,21,-272,-38,142,-78,34
8235,13,-271,-44,163,-88,34
8240,15,-270,-45,182,-98,28
8245,17,-268,-42,197,-104,23
8250,16,-266,-43,211,-103,18
8255,20,-261,-48,217,-103,12
8260,15,-261,-41,220,-98,7
8265,15,-261,-47,220,-92,1
8270,21,-260,-45,213,-85,-2
8275,23,-260,-45,204,-78,-7
8280,19,-258,-44,189,-69,-7
8285,20,-257,-43,172,-59,-6
8290,20,-257,-40,155,-53,-3
8295,19,-254,-45,140,-52,-4
8300,20,-255,-45,123,-53,-4
8305,22,-257,-43,107,-57,-5
8310,19,-257,-40,92,-60,-5
8315,23,-259,-43,81,-63,-4
8320,22,-258,-45,77,-66,-5
8325,21,-261,-43,71,-68,-4
8330,22,-263,-43,70,-72,-5
8335,25,-264,-46,75,-74,-7
8340,26,-262,-43,81,-75,-7
8345,26,-262,-35,89,-78,-6
8350,27,-263,-38,100,-76,-8
8355,27,-268,-35,113,-72,-8
8360,27,-266,-35,133,-69,-8
8365,28,-267,-34,158,-66,-9
8370,30,-266,-33,184,-61,-11
8375,30,-267,-26,213,-55,-10
8380,32,-267,-31,242,-46,-12
8385,32,-267,-30,268,-36,-14
8390,29,-264,-28,294,-27,-14
8395,32,-263,-32,316,-18,-12
8400,29,-260,-27,335,-13,-11
8405,26,-257,-29,349,-10,-10
8410,26,-255,-31,356,-10,-8
8415,23,-255,-28,354,-8,-5
8420,21,-253,-32,343,-8,-1
8425,22,-252,-27,324,-8,3
8430,20,-249,-23,298,-9,9
8435,16,-244,-19,267,-11,15
8440,22,-246,-22,236,-11,20
8445,16,-247,-19,204,-12,25
8450,18,-244,-20,172,-13,29
8455,17,-247,-11,140,-15,31
8460,18,-246,-13,110,-18,31
8465,17,-247,-13,78,-20,29
8470,14,-247,-18,49,-21,26
8475,14,-247,-13,19,-21,22
8480,13,-247,-10,-11,-22,19
8485,16,-246,-15,-42,-21,14
8490,13,-247,-18,-70,-18,8
8495,17,-249,-18,-97,-17,4
8500,20,-253,-24,-125,-15,-1
8505,16,-256,-26,-148,-13,-8
8510,18,-256,-20,-169,-10,-10
8515,23,-260,-21,-184,-5,-13
8520,20,-262,-26,-196,-1,-17
8525,21,-267,-23,-201,3,-20
8530,22,-266,-31,-202,9,-24
8535,21,-269,-27,-195,14,-24
8540,23,-272,-26,-184,19,-27
8545,23,-273,-24,-167,24,-27
8550,23,-275,-30,-144,25,-28
8555,24,-274,-26,-122,27,-29
8560,24,-274,-25,-95,28,-30
8565,22,-270,-26,-66,26,-29
8570,23,-268,-25,-35,23,-28
8575,22,-269,-25,-7,22,-30
8580,19,-267,-24,21,21,-31
8585,17,-263,-28,41,21,-32
8590,16,-261,-20,57,22,-33
8595,22,-263,-22,66,21,-35
8600,17,-260,-22,67,21,-37
8605,15,-261,-22,63,19,-39
8610,15,-260,-17,54,16,-40
8615,12,-259,-20,40,14,-42
8620,11,-259,-23,27,12,-44
8625,13,-263,-21,15,9,-44
8630,12,-258,-21,5,8,-45
8635,13,-260,-20,-2,8,-47
8640,12,-261,-26,-8,8,-49
8645,13,-259,-23,-11,8,-51
8650,11,-262,-23,-10,6,-52
8655,11,-261,-22,-9,5,-53
8660,10,-266,-26,-5,3,-52
8665,10,-262,-26,1,0,-52
8670,12,-262,-30,7,-2,-50
8675,11,-262,-26,14,-3,-50
8680,11,-264,-27,22,-3,-48
8685,12,-266,-30,30,-4,-46
8690,13,-265,-25,40,-3,-41
8695,12,-268,-25,44,0,-37
8700,12,-270,-24,49,1,-33
8705,11,-267,-25,53,-1,-30
8710,13,-271,-19,59,-2,-29
8715,16,-273,-26,66,-7,-27
8720,14,-270,-23,74,-15,-28
8725,14,-266,-15,82,-21,-28
8730,12,-265,-21,91,-30,-29
8735,10,-265,-23,98,-37,-31
8740,14,-265,-23,105,-42,-32
8745,16,-263,-18,111,-44,-36
8750,15,-263,-23,116,-47,-41
8755,16,-258,-21,117,-50,-44
8760,15,-256,-18,116,-52,-46
8765,15,-259,-19,113,-55,-46
8770,16,-257,-14,109,-57,-47
8775,17,-258,-14,105,-57,-49
8780,19,-256,-18,100,-55,-47
8785,18,-255,-20,93,-52,-47
8790,20,-252,-20,84,-48,-46
8795,22,-254,-21,71,-44,-43
8800,23,-252,-20,55,-41,-42
8805,20,-253,-27,37,-39,-36
8810,23,-255,-28,20,-37,-31
8815,23,-258,-31,3,-35,-27
8820,23,-257,-26,-14,-35,-21
8825,22,-259,-27,-29,-34,-18
8830,23,-261,-26,-44,-33,-14
8835,25,-260,-29,-52,-36,-11
8840,24,-262,-28,-60,-38,-8
8845,25,-266,-28,-64,-40,-7
8850,24,-264,-27,-64,-42,-4
8855,27,-266,-30,-68,-40,-4
8860,26,-268,-28,-68,-39,-7
8865,28,-271,-25,-61,-35,-8
8870,26,-271,-31,-50,-27,-9
8875,27,-272,-23,-35,-20,-12
8880,27,-273,-23,-19,-11,-16
8885,30,-275,-16,-3,-1,-17
8890,24,-273,-22,15,7,-21
8895,25,-268,-19,33,15,-23
8900,25,-269,-17,51,21,-25
8905,23,-262,-17,66,23,-26
8910,20,-263,-19,82,25,-28
8915,22,-258,-19,93,27,-29
8920,19,-255,-16,99,26,-29
8925,20,-256,-16,100,24,-29
8930,20,-253,-16,94,22,-29
8935,19,-251,-15,84,21,-29
8940,23,-256,-16,70,20,-29
8945,19,-251,-15,52,19,-28
8950,16,-248,-13,33,18,-28
8955,20,-248,-15,9,16,-27
8960,19,-251,-15,-14,18,-24
8965,14,-249,-16,-37,17,-22
8970,20,-252,-14,-60,17,-19
8975,19,-252,-16,-80,16,-19
8980,15,-254,-19,-98,12,-16
8985,15,-251,-18,-112,9,-14
8990,17,-254,-22,-124,7,-11
8995,14,-264,-15,-133,3,-10
9000,16,-256,-20,-138,0,-6
9005,19,-260,-21,-145,-3,-4
9010,17,-260,-26,-149,-5,-3
9015,19,-263,-21,-152,-6,-3
9020,20,-266,-20,-155,-6,-3
9025,22,-270,-22,-153,-6,-4
9030,19,-271,-19,-148,-5,-3
9035,22,-273,-21,-141,-4,-4
9040,22,-271,-18,-126,-6,-4
9045,20,-273,-22,-113,-9,-6
9050,19,-270,-14,-95,-11,-6
9055,22,-273,-27,-76,-14,-7
9060,21,-272,-21,-56,-18,-8
9065,21,-271,-24,-33,-19,-7
9070,22,-267,-23,-11,-22,-9
9075,20,-267,-23,12,-22,-8
9080,24,-265,-22,32,-22,-9
9085,23,-266,-23,47,-22,-9
9090,22,-261,-20,58,-23,-8
9095,23,-256,-24,63,-25,-7
9100,24,-258,-23,65,-25,-6
9105,25,-256,-18,60,-24,-4
9110,24,-256,-22,53,-24,-2
9115,24,-252,-17,36,-24,2
9120,22,-255,-16,14,-23,5
9125,22,-252,-17,-8,-25,6
9130,24,-251,-16,-31,-25,9
9135,25,-255,-19,-53,-24,12
9140,21,-255,-22,-74,-24,12
9145,23,-254,-18,-90,-22,13
9150,18,-256,-17,-103,-21,12
9155,20,-252,-16,-111,-18,12
9160,22,-258,-18,-114,-18,11
9165,21,-257,-13,-115,-16,8
9170,21,-261,-16,-115,-18,8
9175,20,-258,-19,-116,-18,6
9180,22,-260,-20,-117,-17,6
9185,21,-260,-23,-118,-15,5
9190,20,-261,-21,-119,-14,4
9195,16,-259,-24,-122,-14,4
9200,23,-261,-23,-123,-12,2
9205,20,-260,-23,-120,-12,0
9210,20,-261,-15,-120,-11,-2
9215,18,-260,-19,-116,-10,-4
9220,23,-263,-20,-112,-10,-4
9225,22,-261,-24,-108,-10,-6
9230,22,-261,-19,-105,-9,-7
9235,23,-265,-18,-100,-9,-9
9240,23,-264,-15,-92,-8,-9
9245,25,-265,-16,-83,-8,-10
9250,25,-264,-20,-73,-11,-8
9255,24,-268,-15,-61,-14,-7
9260,27,-263,-17,-53,-18,-6
9265,18,-261,-18,-41,-18,-4
9270,24,-260,-16,-35,-17,-3
9275,25,-260,-19,-29,-16,-1
9280,23,-260,-19,-30,-13,2
9285,28,-261,-17,-34,-10,4
9290,26,-260,-18,-40,-4,6
9295,22,-261,-19,-51,1,9
9300,21,-260,-21,-61,8,11
9305,23,-256,-18,-71,11,11
9310,25,-262,-21,-76,17,10
9315,22,-261,-23,-79,21,10
9320,21,-259,-19,-80,24,7
9325,24,-259,-17,-81,28,4
9330,23,-261,-17,-79,32,2
9335,21,-260,-17,-78,34,2
9340,18,-259,-18,-77,35,0
9345,20,-261,-17,-77,34,-1
9350,20,-261,-21,-74,31,-3
9355,21,-261,-14,-74,30,-4
9360,20,-262,-24,-77,24,-5
9365,19,-261,-16,-78,20,-6
9370,15,-260,-27,-81,17,-7
9375,21,-260,-21,-83,13,-6
9380,21,-260,-19,-87,8,-8
9385,21,-259,-21,-92,4,-6
9390,21,-261,-20,-99,0,-5
9395,23,-259,-23,-104,-2,-4
9400,23,-262,-21,-109,-2,-1
9405,23,-263,-20,-113,-3,1
9410,21,-261,-22,-113,-3,2
9415,23,-263,-26,-114,0,3
9420,23,-261,-27,-110,1,5
9425,23,-265,-25,-105,4,4
9430,27,-263,-16,-99,7,5
9435,24,-264,-20,-93,12,3
9440,24,-263,-20,-85,16,3
9445,21,-264,-22,-83,19,3
9450,21,-261,-24,-82,21,2
9455,21,-261,-21,-83,21,4
9460,23,-259,-21,-84,18,5
9465,20,-258,-25,-85,13,6
9470,23,-262,-23,-86,7,7
9475,24,-261,-21,-90,1,7
9480,21,-258,-26,-94,-2,7
9485,25,-260,-23,-99,-3,8
9490,25,-262,-23,-102,-5,7
9495,25,-263,-22,-106,-3,7
9500,21,-258,-24,-109,-4,9
9505,22,-259,-26,-113,-3,10
9510,21,-258,-25,-113,1,11
9515,21,-258,-26,-114,3,10
9520,21,-261,-25,-115,5,11
9525,19,-257,-26,-113,6,13
9530,22,-263,-24,-112,7,14
9535,14,-263,-29,-108,9,16
9540,19,-261,-26,-107,9,15
9545,20,-262,-26,-105,11,18
9550,20,-262,-26,-103,14,20
9555,20,-262,-27,-102,14,20
9560,23,-261,-25,-102,13,21
9565,23,-265,-28,-107,12,21
9570,22,-263,-27,-106,11,22
9575,21,-261,-27,-107,10,25
9580,20,-263,-27,-108,8,25
9585,28,-266,-31,-107,8,23
9590,19,-261,-30,-105,13,24
9595,19,-261,-28,-105,16,23
9600,17,-259,-29,-102,18,22
9605,19,-262,-29,-99,20,20
9610,22,-262,-26,-97,20,18
9615,21,-262,-28,-95,17,18
9620,19,-261,-31,-92,14,17
9625,21,-261,-24,-90,12,18
9630,20,-262,-29,-87,7,17
9635,18,-260,-28,-86,6,15
9640,20,-262,-27,-83,2,16
9645,17,-258,-26,-84,-1,16
9650,19,-264,-27,-82,-2,17
9655,20,-263,-27,-88,-3,17
9660,19,-264,-30,-93,-4,18
9665,18,-261,-28,-96,-5,19
9670,16,-261,-29,-100,-5,19
9675,16,-263,-31,-100,-7,19
9680,17,-262,-27,-101,-8,17
9685,19,-264,-26,-98,-7,17
9690,18,-264,-32,-96,-6,15
9695,16,-264,-26,-93,-5,13
9700,21,-263,-29,-86,-1,12
9705,19,-261,-27,-78,3,9
9710,19,-262,-29,-73,6,6
9715,21,-264,-28,-65,10,3
9720,20,-259,-28,-61,13,2
9725,20,-260,-28,-59,13,0
9730,20,-260,-31,-59,14,-1
9735,18,-257,-28,-62,14,1
9740,17,-262,-24,-66,14,1
9745,19,-261,-28,-71,11,5
9750,23,-261,-22,-74,8,6
9755,21,-259,-26,-79,6,8
9760,18,-260,-30,-83,3,10
9765,16,-258,-26,-87,-1,11
9770,18,-261,-32,-92,-5,12
9775,17,-263,-24,-96,-7,14
9780,18,-263,-27,-99,-8,14
9785,16,-265,-31,-103,-8,15
9790,17,-265,-33,-104,-9,17
9795,15,-263,-31,-104,-7,18
9800,20,-264,-29,-102,-5,17
9805,18,-273,-31,-98,-4,15
9810,15,-266,-30,-95,0,15
9815,18,-263,-29,-91,2,11
9820,16,-263,-30,-86,3,10
9825,18,-266,-32,-78,1,7
9830,14,-265,-30,-71,1,6
9835,21,-266,-30,-62,-1,4
9840,15,-264,-32,-53,-3,4
9845,15,-265,-34,-45,-6,4
9850,15,-264,-33,-36,-8,4
9855,30,-265,-33,-28,-8,4
9860,18,-262,-29,-23,-9,4
9865,16,-259,-30,-18,-9,4
9870,17,-264,-29,-15,-9,5
9875,20,-263,-28,-12,-7,5
9880,16,-260,-29,-11,-7,6
9885,17,-261,-30,-14,-9,6
9890,15,-262,-25,-15,-9,6
9895,15,-259,-26,-18,-10,7
9900,20,-262,-27,-22,-11,8
9905,18,-263,-24,-25,-9,9
9910,14,-258,-26,-28,-8,9
9915,16,-261,-27,-29,-9,10
9920,16,-261,-27,-30,-8,10
9925,17,-263,-26,-34,-7,10
9930,15,-262,-26,-38,-10,11
9935,15,-261,-32,-44,-13,9
9940,13,-263,-29,-50,-17,11
9945,15,-261,-33,-54,-20,12
9950,17,-260,-30,-57,-22,14
9955,16,-259,-26,-60,-25,16
9960,17,-262,-29,-63,-27,17
9965,18,-261,-34,-67,-28,17
9970,17,-262,-33,-70,-31,18
9975,16,-258,-33,-73,-32,19
9980,19,-261,-30,-77,-33,21
9985,19,-261,-32,-82,-32,22
9990,20,-263,-33,-86,-28,23
9995,19,-263,-32,-85,-22,22
10000,21,-264,-30,-82,-15,20
10005,21,-265,-29,-72,-6,15
10010,19,-264,-24,-59,5,9
10015,18,-265,-35,-44,14,4
10020,17,-265,-24,-31,22,-1
10025,19,-262,-23,-15,29,-6
10030,18,-261,-23,2,34,-11
10035,18,-261,-26,14,37,-15
10040,21,-261,-23,24,37,-16
10045,19,-261,-26,29,37,-17
10050,22,-260,-24,29,37,-18
10055,19,-259,-26,25,35,-18
10060,19,-258,-25,16,33,-16
10065,21,-257,-28,5,31,-17
10070,17,-254,-28,-6,31,-16
10075,21,-257,-31,-16,31,-16
10080,22,-260,-31,-24,32,-14
10085,18,-257,-29,-32,34,-13
10090,19,-258,-32,-36,34,-12
10095,19,-263,-29,-42,35,-11
10100,17,-259,-30,-42,34,-9
10105,17,-259,-32,-44,33,-6
10110,20,-262,-29,-42,31,-5
10115,18,-263,-33,-38,30,-4
10120,20,-268,-30,-31,33,-4
10125,23,-264,-30,-25,37,-6
10130,19,-263,-27,-16,41,-7
10135,21,-265,-32,-8,47,-10
10140,16,-263,-27,-2,49,-12
10145,19,-265,-28,5,50,-14
10150,18,-264,-24,10,51,-16
10155,18,-267,-24,17,51,-21
10160,18,-268,-24,23,52,-26
10165,19,-263,-22,29,54,-27
10170,17,-263,-22,37,53,-31
10175,21,-266,-19,44,52,-33
10180,24,-265,-28,52,54,-35
10185,18,-266,-23,58,54,-37
10190,22,-264,-24,61,53,-35
10195,19,-261,-25,62,49,-33
10200,23,-262,-28,62,48,-32
10205,17,-260,-26,60,48,-30
10210,22,-260,-27,60,47,-28
10215,20,-257,-31,61,48,-25
10220,18,-258,-25,59,48,-24
10225,21,-256,-27,56,50,-23
10230,20,-258,-27,53,51,-22
10235,18,-256,-25,48,54,-22
10240,19,-256,-27,39,55,-21
10245,17,-256,-30,29,54,-21
10250,14,-257,-24,18,50,-20
10255,15,-258,-30,7,45,-20
10260,18,-259,-21,-4,43,-19
10265,17,-259,-21,-15,40,-17
10270,15,-258,-23,-26,39,-14
10275,17,-262,-26,-33,38,-13
10280,15,-260,-23,-37,37,-14
10285,18,-265,-25,-37,37,-14
10290,18,-263,-21,-37,39,-16
10295,15,-264,-24,-32,40,-17
10300,17,-265,-27,-26,40,-20
10305,16,-266,-26,-21,38,-21
10310,18,-265,-29,-16,36,-23
10315,16,-260,-23,-10,33,-22
10320,17,-260,-26,-3,32,-19
10325,20,-266,-21,3,32,-17
10330,18,-260,-26,9,32,-17
10335,21,-263,-23,13,35,-16
10340,19,-266,-23,18,36,-15
10345,22,-262,-23,21,39,-16
10350,21,-261,-24,25,42,-16
10355,21,-262,-27,28,47,-17
10360,20,-261,-24,27,51,-16
10365,18,-256,-25,28,52,-16
10370,16,-258,-25,26,52,-15
10375,18,-257,-21,22,50,-16
10380,18,-258,-24,17,47,-14
10385,21,-260,-18,11,44,-12
10390,16,-257,-25,2,39,-10
10395,18,-259,-27,-7,37,-8
10400,18,-257,-22,-13,36,-7
10405,20,-262,-26,-17,35,-9
10410,18,-260,-24,-21,36,-9
10415,17,-261,-25,-23,40,-9
10420,19,-261,-21,-24,41,-9
10425,22,-262,-22,-21,44,-11
10430,18,-260,-22,-19,49,-11
10435,18,-261,-18,-15,55,-11
10440,16,-259,-22,-13,59,-11
10445,13,-260,-18,-12,60,-10
10450,8,-263,-20,-14,61,-9
10455,16,-263,-24,-13,59,-9
10460,15,-259,-22,-10,56,-8
10465,18,-262,-25,-8,53,-7
10470,18,-262,-21,-4,51,-10
10475,16,-264,-22,-1,50,-14
10480,16,-261,-20,5,48,-17
10485,17,-262,-16,9,44,-18
10490,16,-260,-16,13,41,-20
10495,18,-258,-20,13,36,-19
10500,20,-260,-23,12,33,-17
10505,21,-258,-22,13,32,-16
10510,20,-259,-21,9,31,-15
10515,18,-258,-22,5,29,-12
10520,18,-256,-20,0,25,-11
10525,19,-259,-20,-6,21,-9
10530,18,-261,-21,-11,17,-6
10535,18,-262,-20,-19,13,-5
10540,15,-258,-21,-26,11,-1
10545,17,-261,-18,-30,9,1
10550,15,-257,-18,-31,9,4
10555,16,-257,-14,-29,7,6
10560,18,-259,-19,-27,7,7
10565,19,-261,-19,-26,8,8
10570,19,-258,-18,-24,9,10
10575,20,-261,-21,-23,10,10
10580,18,-261,-21,-24,12,8
10585,20,-264,-22,-22,14,7
10590,19,-263,-26,-23,19,6
10595,19,-262,-21,-22,23,3
10600,20,-262,-20,-22,28,-1
10605,19,-262,-20,-19,31,-6
10610,21,-259,-21,-17,36,-9
10615,18,-265,-20,-13,41,-12
10620,20,-265,-20,-7,45,-15
10625,20,-265,-20,0,45,-16
10630,15,-262,-21,8,46,-18
10635,18,-262,-20,14,47,-20
10640,19,-260,-23,20,45,-20
10645,17,-258,-21,22,44,-20
10650,17,-257,-19,21,44,-18
10655,17,-258,-20,19,41,-17
10660,17,-256,-20,13,38,-15
10665,16,-256,-18,7,35,-13
10670,21,-258,-21,-2,32,-10
10675,17,-257,-22,-12,29,-7
10680,19,-258,-22,-21,26,-5
10685,18,-257,-22,-28,25,-3
10690,20,-257,-21,-32,24,-1
10695,18,-261,-19,-33,26,0
10700,19,-262,-21,-33,29,0
10705,17,-259,-17,-30,30,-1
10710,18,-260,-19,-29,31,-1
10715,17,-258,-19,-27,34,-1
10720,17,-263,-17,-28,34,-1
10725,18,-263,-14,-29,35,-2
10730,18,-260,-18,-28,36,-1
10735,18,-262,-16,-29,36,-2
10740,17,-263,-17,-27,38,-3
10745,17,-261,-16,-26,40,-2
10750,15,-261,-19,-22,42,-3
10755,19,-263,-19,-17,43,-2
10760,21,-264,-21,-12,44,-5
10765,22,-260,-16,-7,45,-6
10770,22,-259,-21,-3,44,-7
10775,19,-258,-23,-2,43,-7
10780,19,-258,-21,-2,41,-8
10785,18,-257,-24,-3,40,-10
10790,16,-256,-22,-7,36,-11
10795,18,-258,-24,-9,34,-11
10800,20,-261,-18,-16,32,-9
10805,18,-260,-22,-24,32,-9
10810,17,-263,-22,-30,31,-8
10815,17,-259,-22,-38,31,-9
10820,15,-259,-23,-43,31,-8
10825,10,-262,-22,-46,29,-12
10830,18,-261,-18,-47,29,-11
10835,16,-261,-19,-45,29,-11
10840,17,-261,-18,-41,29,-11
10845,20,-264,-22,-38,27,-11
10850,19,-262,-21,-34,28,-11
10855,20,-264,-21,-32,26,-10
10860,20,-264,-20,-29,25,-10
10865,15,-257,-18,-28,24,-10
10870,16,-261,-20,-27,22,-9
10875,18,-264,-20,-24,22,-9
10880,16,-259,-20,-23,22,-9
10885,18,-261,-21,-21,24,-10
10890,17,-260,-19,-20,27,-10
10895,17,-259,-20,-18,29,-11
10900,18,-257,-19,-20,30,-12
10905,17,-259,-17,-24,29,-12
10910,22,-258,-20,-27,27,-12
10915,20,-260,-19,-34,26,-14
10920,16,-257,-18,-42,21,-14
10925,16,-259,-18,-47,20,-14
10930,17,-255,-19,-53,16,-12
10935,21,-262,-8,-57,13,-10
10940,19,-258,-19,-61,10,-9
10945,20,-263,-20,-65,8,-9
10950,18,-263,-18,-70,8,-6
10955,19,-262,-19,-72,8,-6
10960,18,-264,-18,-73,10,-5
10965,18,-262,-20,-71,12,-3
10970,16,-263,-17,-66,13,-5
10975,17,-268,-18,-60,16,-5
10980,20,-266,-16,-52,19,-7
10985,22,-264,-20,-44,20,-8
10990,15,-262,-16,-37,19,-9
10995,17,-265,-16,-31,19,-9
11000,20,-262,-17,-27,20,-11
11005,20,-260,-17,-23,21,-12
11010,22,-262,-21,-22,20,-12
11015,18,-261,-17,-20,17,-13
11020,16,-259,-19,-20,18,-13
11025,17,-260,-21,-21,16,-12
11030,17,-260,-22,-24,17,-12
11035,17,-260,-18,-27,19,-11
11040,20,-258,-16,-31,15,-11
11045,20,-262,-20,-34,14,-11
11050,16,-258,-23,-36,11,-12
11055,15,-259,-17,-37,8,-13
11060,17,-260,-18,-40,5,-14
11065,18,-257,-18,-42,3,-15
11070,17,-259,-17,-45,4,-15
11075,18,-260,-14,-46,5,-16
11080,21,-261,-15,-48,4,-15
11085,19,-262,-20,-49,7,-16
11090,16,-259,-18,-49,8,-16
11095,14,-258,-24,-50,10,-14
11100,19,-259,-19,-53,13,-12
11105,16,-260,-19,-56,15,-13
11110,19,-257,-20,-57,15,-12
11115,20,-264,-18,-60,15,-11
11120,17,-262,-17,-60,15,-10
11125,19,-261,-18,-58,16,-9
11130,17,-262,-17,-55,17,-7
11135,17,-264,-14,-50,17,-5
11140,18,-262,-18,-45,17,-5
11145,20,-261,-13,-37,17,-7
11150,17,-265,-23,-30,15,-8
11155,17,-256,-14,-24,11,-8
11160,19,-259,-21,-20,9,-9
11165,18,-259,-17,-20,6,-10
11170,20,-259,-19,-22,5,-11
11175,18,-259,-22,-27,2,-13
11180,20,-260,-20,-34,0,-12
11185,18,-260,-17,-43,1,-11
11190,18,-259,-16,-50,3,-9
11195,19,-259,-16,-54,5,-10
11200,19,-262,-15,-58,6,-9
11205,16,-262,-19,-58,8,-9
11210,17,-259,-17,-54,10,-9
11215,19,-262,-18,-49,6,-11
11220,19,-262,-17,-45,5,-11
11225,20,-262,-19,-41,2,-12
11230,20,-259,-20,-38,1,-11
11235,19,-258,-17,-33,-2,-12
11240,19,-261,-19,-30,-3,-13
11245,21,-257,-17,-28,-2,-14
11250,16,-261,-20,-27,-1,-16
11255,21,-259,-21,-30,-1,-16
11260,18,-257,-21,-30,1,-15
11265,19,-260,-19,-32,2,-13
11270,18,-257,-21,-36,3,-11
11275,19,-257,-18,-39,5,-7
11280,20,-257,-17,-46,5,-5
11285,17,-259,-16,-51,6,-3
11290,22,-257,-18,-57,4,-2
11295,20,-258,-19,-62,2,0
11300,19,-258,-17,-67,-2,3
11305,19,-260,-22,-71,-6,3
11310,20,-261,-16,-75,-10,3
11315,18,-258,-14,-78,-14,2
11320,19,-261,-18,-80,-18,2
11325,17,-262,-19,-82,-19,2
11330,20,-262,-18,-81,-20,0
11335,19,-262,-18,-80,-20,-2
11340,18,-260,-18,-77,-20,-4
11345,18,-265,-21,-71,-19,-6
11350,18,-264,-16,-66,-18,-8
11355,21,-262,-18,-63,-15,-8
11360,20,-261,-17,-59,-12,-7
11365,14,-261,-17,-57,-10,-9
11370,17,-258,-20,-55,-9,-10
11375,18,-258,-19,-51,-8,-10
11380,19,-259,-21,-53,-9,-9
11385,19,-260,-20,-54,-13,-7
11390,20,-258,-20,-57,-17,-5
11395,23,-261,-19,-60,-21,-3
11400,21,-261,-21,-64,-24,-5
11405,21,-259,-21,-67,-26,-4
11410,17,-258,-23,-68,-30,-4
11415,20,-260,-18,-67,-31,-5
11420,25,-263,-10,-68,-32,-6
11425,17,-259,-19,-69,-32,-9
11430,19,-260,-17,-70,-31,-9
11435,21,-261,-17,-71,-29,-9
11440,19,-258,-22,-75,-29,-10
11445,21,-261,-19,-77,-27,-12
11450,20,-260,-18,-77,-27,-10
11455,20,-261,-17,-79,-26,-10
11460,21,-264,-19,-80,-26,-9
11465,20,-261,-13,-80,-28,-8
11470,22,-260,-15,-78,-30,-6
11475,21,-265,-21,-74,-33,-5
11480,16,-261,-14,-71,-34,-4
11485,20,-263,-15,-66,-36,-4
11490,21,-262,-16,-60,-38,-3
11495,21,-261,-19,-57,-39,-2
11500,19,-261,-18,-54,-40,-1
11505,20,-263,-16,-51,-41,-2
11510,16,-263,-18,-50,-42,-1
11515,18,-261,-19,-49,-43,0
11520,14,-263,-24,-46,-42,0
11525,18,-259,-18,-46,-43,-1
11530,23,-259,-19,-45,-44,-2
11535,18,-260,-20,-44,-44,-1
11540,21,-258,-20,-48,-41,-3
11545,20,-259,-18,-51,-39,-4
11550,16,-260,-22,-52,-36,-5
11555,18,-258,-21,-56,-33,-4
11560,22,-260,-15,-60,-30,-7
11565,21,-260,-20,-64,-27,-6
11570,20,-259,-18,-64,-27,-6
11575,21,-263,-20,-66,-26,-6
11580,24,-261,-24,-68,-26,-6
11585,15,-262,-18,-69,-27,-5
11590,22,-258,-19,-72,-29,-5
11595,19,-261,-15,-74,-28,-2
11600,22,-260,-16,-76,-30,-1
11605,22,-260,-18,-74,-28,0
11610,21,-261,-17,-72,-27,-1
11615,22,-264,-16,-70,-25,-1
11620,19,-263,-23,-68,-23,-2
11625,21,-263,-18,-64,-22,-2
11630,25,-261,-13,-56,-21,-4
11635,22,-264,-17,-51,-19,-5
11640,22,-264,-18,-45,-15,-6
11645,25,-263,-16,-41,-11,-8
11650,20,-263,-17,-39,-6,-10
11655,24,-262,-17,-35,-2,-12
11660,22,-263,-15,-34,1,-12
11665,21,-260,-18,-35,4,-12
11670,23,-260,-19,-34,6,-10
11675,21,-258,-17,-33,8,-10
11680,20,-259,-15,-31,8,-9
11685,20,-261,-20,-29,6,-9
11690,16,-259,-22,-25,3,-9
11695,17,-262,-20,-22,1,-7
11700,19,-262,-19,-24,-1,-6
11705,15,-261,-19,-27,-4,-7
11710,19,-262,-18,-31,-8,-6
11715,20,-261,-16,-37,-11,-7
11720,17,-259,-19,-42,-16,-7
11725,18,-259,-23,-48,-21,-6
11730,15,-258,-20,-51,-27,-5
11735,16,-262,-24,-53,-32,-4
11740,20,-260,-20,-55,-36,-3
11745,21,-257,-21,-54,-40,-5
11750,22,-259,-23,-55,-39,-7
11755,23,-259,-25,-56,-37,-6
11760,18,-257,-19,-56,-32,-10
11765,23,-262,-17,-57,-28,-11
11770,20,-260,-15,-57,-21,-14
11775,24,-261,-17,-58,-13,-16
11780,23,-259,-17,-59,-6,-15
11785,24,-264,-16,-59,0,-17
11790,21,-261,-16,-57,6,-17
11795,20,-262,-18,-56,10,-17
11800,21,-269,-14,-49,13,-15
11805,22,-263,-19,-44,15,-14
11810,23,-262,-18,-39,15,-14
11815,22,-264,-18,-31,16,-12
11820,25,-261,-16,-27,17,-13
11825,24,-260,-19,-23,18,-13
11830,24,-261,-19,-22,18,-12
11835,27,-263,-19,-21,17,-13
11840,27,-259,-16,-20,17,-13
11845,22,-260,-24,-19,13,-14
11850,24,-264,-16,-19,14,-15
11855,23,-260,-23,-14,16,-15
11860,23,-260,-18,-11,17,-17
11865,22,-262,-18,-9,21,-18
11870,21,-264,-20,-8,24,-17
11875,21,-261,-16,-6,26,-17
11880,21,-263,-17,-5,28,-16
11885,18,-259,-19,-6,29,-16
11890,17,-259,-15,-7,27,-17
11895,12,-258,-20,-7,28,-17
11900,12,-259,-13,-8,28,-16
11905,15,-259,-17,-12,28,-15
11910,15,-259,-18,-12,29,-15
11915,16,-260,-16,-15,29,-14
11920,17,-258,-19,-18,29,-14
11925,18,-260,-17,-21,29,-15
11930,21,-260,-20,-24,29,-15
11935,19,-259,-22,-27,28,-12
11940,19,-257,-17,-32,26,-12
11945,18,-257,-12,-36,24,-12
11950,19,-260,-18,-41,24,-11
11955,18,-260,-20,-46,22,-9
11960,24,-260,-18,-47,20,-10
11965,20,-260,-21,-49,20,-7
11970,22,-259,-18,-50,20,-8
11975,22,-261,-15,-49,20,-9
11980,21,-262,-16,-50,20,-9
11985,24,-260,-15,-49,21,-9
11990,22,-261,-16,-48,22,-9
11995,24,-260,-22,-47,22,-9
