timestamp,acc_x,acc_y,acc_z,gyro_x,gyro_y,gyro_z
0,-15,-232,-101,-3,70,-3
5,-14,-232,-107,-4,71,-4
10,-12,-233,-106,-5,71,-4
15,-12,-235,-106,-6,71,-3
20,-15,-233,-109,-6,71,-3
25,-12,-228,-109,-7,71,-3
30,-12,-233,-105,-9,72,-4
35,-17,-233,-105,-11,72,-2
40,-12,-235,-108,-11,73,-3
45,-12,-234,-108,-11,73,-4
50,-11,-234,-107,-9,71,-3
55,-13,-232,-106,-7,70,-4
60,-14,-231,-105,-6,72,-4
65,-13,-232,-107,-3,71,-3
70,-13,-234,-104,0,72,-3
75,-11,-234,-108,1,72,-3
80,-8,-235,-106,2,71,-4
85,-10,-234,-104,2,72,-5
90,-11,-234,-108,2,72,-4
95,-12,-231,-107,3,72,-4
100,-12,-229,-103,1,73,-4
105,-14,-230,-104,1,72,-3
110,-19,-231,-102,-1,72,-3
115,-25,-225,-105,-1,73,-4
120,-16,-233,-103,-2,74,-3
125,-14,-229,-110,-3,74,-2
130,-5,-238,-114,-3,74,-3
135,-12,-236,-114,-5,72,-2
140,-6,-239,-106,-6,74,-1
145,-15,-235,-93,-6,74,0
150,-20,-229,-108,-6,74,-2
155,-16,-237,-103,-5,73,-3
160,-22,-232,-102,-5,72,-2
165,-14,-238,-101,-4,72,-2
170,-7,-240,-108,-4,74,-3
175,-10,-231,-105,-3,73,-4
180,-5,-230,-103,-1,75,-4
185,-10,-243,-104,0,75,-5
190,-10,-237,-112,0,75,-5
195,6,-228,-63,-1,75,-6
200,-14,-234,-108,-1,74,-6
205,-12,-236,-103,-2,75,-7
210,-16,-234,-103,-3,76,-5
215,-9,-233,-105,-5,76,-4
220,-13,-232,-100,-5,77,-3
225,-12,-234,-102,-6,77,-3
230,-14,-231,-107,-7,77,-3
235,-14,-233,-106,-8,78,-2
240,-13,-236,-105,-8,78,-2
245,-16,-240,-103,-7,78,-2
250,-14,-234,-106,-7,77,-1
255,-13,-236,-105,-6,78,-2
260,-11,-237,-109,-5,77,-3
265,-9,-234,-104,-2,76,-2
270,-10,-237,-101,-1,77,-1
275,-13,-231,-105,-2,77,-2
280,-16,-233,-106,-2,75,-3
285,-14,-231,-103,-1,75,-2
290,-13,-234,-109,-1,78,-5
295,-14,-233,-106,-3,78,-3
300,-12,-233,-106,-5,78,-3
305,-13,-230,-105,-6,78,-3
310,-12,-229,-109,-8,80,-4
315,-14,-232,-103,-7,80,-3
320,-13,-235,-106,-9,79,-4
325,-14,-234,-105,-10,78,-4
330,-12,-235,-108,-10,78,-3
335,-10,-233,-108,-9,77,-4
340,-12,-234,-108,-10,76,-3
345,-14,-232,-104,-11,77,-4
350,-12,-235,-109,-12,78,-4
355,-10,-235,-102,-11,79,-4
360,-14,-231,-108,-9,79,-4
365,-16,-234,-107,-10,79,-5
370,-15,-234,-104,-10,81,-5
375,-11,-235,-103,-11,81,-4
380,-10,-236,-109,-9,81,-4
385,-13,-235,-105,-10,81,-4
390,-14,-233,-108,-7,80,-6
395,-13,-234,-103,-6,82,-4
400,-14,-234,-100,-4,82,-4
405,-10,-237,-107,-2,81,-5
410,-12,-233,-105,0,80,-6
415,-16,-230,-107,1,80,-5
420,-13,-230,-105,1,81,-5
425,-10,-235,-106,0,79,-4
430,-12,-235,-105,-2,79,-4
435,-13,-234,-104,-2,78,-5
440,-16,-233,-104,-4,78,-3
445,-14,-233,-105,-4,76,-3
450,-12,-236,-104,-4,77,-3
455,-14,-233,-109,-5,77,-3
460,-14,-235,-107,-5,77,-3
465,-14,-233,-106,-2,78,-4
470,-13,-237,-107,-2,78,-4
475,-13,-237,-104,-4,78,-3
480,-13,-232,-106,-3,78,-3
485,-14,-234,-106,-2,78,-4
490,-14,-235,-101,-1,77,-4
495,-13,-233,-104,-1,77,-4
500,-11,-236,-107,-1,76,-6
505,-13,-236,-103,0,76,-6
510,-13,-233,-105,-2,76,-6
515,-14,-235,-103,-3,76,-6
520,-15,-231,-105,-2,76,-7
525,-12,-234,-104,-4,77,-6
530,-13,-233,-105,-6,76,-4
535,-11,-234,-105,-6,76,-5
540,-14,-233,-104,-6,75,-5
545,-12,-232,-106,-6,77,-5
550,-11,-231,-108,-8,76,-5
555,-10,-234,-106,-8,76,-5
560,-14,-234,-106,-9,77,-6
565,-11,-236,-107,-10,77,-5
570,-13,-230,-106,-10,76,-5
575,-15,-234,-107,-10,74,-5
580,-9,-235,-103,-11,75,-5
585,-15,-236,-108,-11,75,-5
590,-14,-231,-106,-9,75,-6
595,-13,-231,-101,-8,73,-6
600,-14,-234,-104,-8,73,-5
605,-11,-234,-105,-8,72,-5
610,-17,-229,-104,-7,73,-4
615,-13,-235,-106,-7,72,-5
620,-13,-237,-110,-8,71,-6
625,-13,-235,-103,-10,71,-7
630,-13,-232,-105,-10,73,-6
635,-15,-235,-103,-11,73,-6
640,-11,-232,-104,-12,73,-6
645,-12,-234,-105,-13,72,-7
650,-13,-234,-103,-13,73,-6
655,-12,-236,-107,-14,73,-6
660,-12,-232,-105,-12,72,-6
665,-8,-238,-106,-11,72,-6
670,-12,-236,-105,-9,74,-7
675,-13,-235,-103,-8,73,-7
680,-13,-232,-106,-7,74,-6
685,-12,-233,-107,-7,74,-4
690,-13,-232,-104,-7,75,-5
695,-12,-234,-105,-7,74,-6
700,-13,-232,-104,-8,74,-6
705,-12,-233,-107,-10,74,-6
710,-11,-232,-105,-12,74,-6
715,-15,-233,-102,-11,74,-5
720,-13,-234,-102,-12,75,-6
725,-14,-231,-108,-13,76,-6
730,-15,-233,-107,-14,76,-4
735,-11,-232,-107,-15,78,-5
740,-13,-233,-106,-16,78,-5
745,-14,-236,-104,-18,76,-3
750,-13,-233,-107,-16,77,-2
755,-11,-232,-106,-17,75,-3
760,-14,-235,-103,-17,76,-4
765,-11,-233,-108,-17,74,-3
770,-9,-234,-107,-16,74,-4
775,-10,-236,-108,-16,74,-1
780,-12,-237,-108,-15,74,-2
785,-10,-234,-106,-17,76,-3
790,-9,-235,-105,-15,76,-4
795,-17,-232,-102,-13,75,-3
800,-10,-235,-103,-15,75,-3
805,-10,-238,-104,-15,76,-4
810,-11,-235,-106,-14,75,-3
815,-14,-235,-104,-14,76,-4
820,-12,-234,-107,-14,76,-3
825,-14,-233,-106,-15,76,-3
830,-11,-234,-107,-16,77,-2
835,-15,-235,-105,-16,77,-4
840,-12,-234,-107,-17,76,-4
845,-12,-232,-103,-18,76,-3
850,-11,-233,-105,-19,76,-4
855,-11,-234,-102,-19,76,-4
860,-10,-234,-107,-17,76,-4
865,-11,-235,-103,-17,76,-3
870,-11,-233,-105,-18,74,-5
875,-10,-235,-107,-17,75,-4
880,-12,-235,-106,-16,74,-6
885,-14,-232,-105,-15,74,-5
890,-11,-234,-104,-17,75,-4
895,-12,-235,-104,-15,74,-4
900,-12,-234,-108,-16,76,-4
905,-16,-233,-108,-16,74,-4
910,-13,-235,-102,-18,75,-4
915,-14,-233,-105,-19,75,-4
920,-11,-232,-105,-19,74,-3
925,-12,-234,-107,-21,73,-3
930,-11,-235,-107,-23,72,-4
935,-13,-236,-106,-23,72,-4
940,-14,-236,-107,-25,73,-4
945,-14,-232,-106,-26,73,-3
950,-15,-233,-104,-25,73,-3
955,-11,-234,-104,-23,72,-3
960,-14,-236,-103,-22,70,-4
965,-13,-233,-104,-21,72,-3
970,-11,-231,-108,-19,72,-3
975,-10,-233,-104,-19,71,-3
980,-13,-232,-105,-20,70,-2
985,-10,-232,-103,-19,70,-1
990,-11,-233,-103,-20,70,-2
995,-15,-235,-106,-23,69,-3
1000,-15,-232,-104,-26,67,-3
1005,-12,-232,-104,-28,67,-3
1010,-13,-234,-105,-32,67,-3
1015,-11,-237,-103,-34,69,-4
1020,-13,-236,-105,-37,68,-3
1025,-12,-233,-103,-36,70,-2
1030,-8,-236,-107,-36,71,-2
1035,-12,-237,-109,-35,71,-2
1040,-12,-235,-107,-34,71,-1
1045,-9,-236,-103,-31,70,-2
1050,-12,-235,-105,-30,71,-2
1055,-14,-237,-106,-26,70,-2
1060,-12,-234,-103,-26,70,-3
1065,-12,-237,-106,-23,71,-3
1070,-15,-233,-106,-23,69,-4
1075,-11,-234,-103,-22,67,-4
1080,-11,-234,-109,-22,65,-6
1085,-13,-235,-106,-22,66,-5
1090,-11,-234,-109,-21,65,-7
1095,-16,-231,-106,-21,66,-5
1100,-9,-233,-108,-20,66,-5
1105,-12,-234,-105,-23,67,-3
1110,-10,-236,-107,-25,67,-4
1115,-12,-232,-105,-25,68,-4
1120,-10,-235,-105,-24,66,-4
1125,-13,-232,-105,-25,68,-4
1130,-14,-234,-101,-24,65,-5
1135,-10,-235,-106,-22,65,-5
1140,-13,-234,-107,-21,65,-5
1145,-10,-233,-106,-20,65,-5
1150,-9,-235,-107,-20,65,-5
1155,-12,-236,-110,-20,66,-6
1160,-9,-236,-104,-21,67,-5
1165,-10,-232,-109,-22,68,-8
1170,-10,-234,-106,-24,66,-6
1175,-12,-233,-107,-24,66,-6
1180,-13,-233,-109,-26,66,-5
1185,-13,-234,-103,-25,67,-6
1190,-11,-231,-102,-24,68,-4
1195,-11,-230,-105,-24,67,-3
1200,-12,-236,-107,-24,68,-1
1205,-9,-230,-108,-23,67,-3
1210,-9,-232,-103,-20,68,-2
1215,-13,-234,-106,-17,67,-1
1220,-9,-235,-103,-17,68,-1
1225,-9,-232,-109,-17,67,-1
1230,-12,-232,-108,-18,67,1
1235,-11,-232,-108,-20,67,2
1240,-10,-231,-107,-22,67,2
1245,-10,-231,-105,-26,68,2
1250,-9,-231,-108,-28,71,3
1255,-12,-235,-104,-29,73,2
1260,-9,-236,-110,-28,74,2
1265,-9,-234,-105,-26,74,-1
1270,-9,-236,-108,-24,76,0
1275,-9,-232,-106,-25,76,-1
1280,-11,-236,-106,-24,77,1
1285,-9,-230,-109,-24,78,1
1290,-10,-230,-105,-24,79,2
1295,-9,-231,-106,-28,80,2
1300,-12,-232,-107,-29,80,3
1305,-11,-233,-107,-30,79,3
1310,-11,-236,-105,-30,80,3
1315,-10,-233,-109,-28,80,2
1320,-11,-234,-105,-27,81,2
1325,-10,-233,-109,-25,81,2
1330,-12,-233,-108,-25,82,2
1335,-10,-235,-107,-23,82,3
1340,-12,-231,-105,-21,81,4
1345,-12,-232,-105,-22,79,2
1350,-14,-229,-105,-22,79,2
1355,-13,-234,-107,-20,80,1
1360,-11,-234,-103,-20,81,-1
1365,-11,-236,-109,-21,79,-1
1370,-11,-235,-104,-21,78,-2
1375,-12,-233,-109,-21,78,-2
1380,-16,-233,-111,-20,77,-1
1385,-13,-233,-107,-21,78,0
1390,-14,-230,-106,-23,77,0
1395,-12,-235,-106,-22,78,0
1400,-15,-233,-107,-22,78,1
1405,-16,-232,-109,-22,78,2
1410,-10,-237,-104,-22,78,3
1415,-13,-234,-106,-22,77,3
1420,-12,-231,-104,-22,76,1
1425,-11,-232,-105,-21,76,1
1430,-14,-233,-109,-21,74,1
1435,-14,-234,-106,-22,74,0
1440,-12,-233,-105,-21,73,0
1445,-12,-238,-111,-20,72,-1
1450,-12,-238,-105,-19,73,-2
1455,-10,-234,-104,-18,74,-2
1460,-13,-232,-106,-17,75,-4
1465,-11,-235,-105,-16,75,-4
1470,-10,-234,-102,-15,75,-4
1475,-11,-235,-105,-15,74,-4
1480,-9,-234,-109,-13,76,-3
1485,-11,-234,-104,-12,76,-5
1490,-13,-233,-103,-12,75,-3
1495,-16,-231,-108,-12,76,-4
1500,-13,-231,-107,-9,75,-3
1505,-16,-229,-105,-9,75,-2
1510,-15,-231,-104,-10,75,-1
1515,-12,-232,-104,-8,74,-1
1520,-11,-234,-103,-10,72,-1
1525,-12,-233,-108,-10,71,0
1530,-15,-232,-104,-10,72,1
1535,-9,-233,-108,-12,71,1
1540,-11,-238,-108,-12,72,1
1545,-11,-236,-103,-15,74,1
1550,-12,-233,-107,-16,74,3
1555,-11,-233,-107,-19,76,0
1560,-12,-234,-107,-21,77,2
1565,-13,-233,-109,-23,78,0
1570,-12,-233,-109,-24,78,-1
1575,-9,-236,-108,-27,79,0
1580,-9,-234,-110,-28,78,0
1585,-13,-234,-108,-30,78,0
1590,-13,-233,-105,-30,77,0
1595,-14,-234,-104,-29,75,1
1600,-14,-235,-105,-27,75,-1
1605,-17,-234,-110,-25,75,0
1610,-14,-234,-109,-25,72,-1
1615,-14,-235,-104,-24,70,-1
1620,-14,-234,-108,-23,68,-3
1625,-14,-234,-106,-20,67,-4
1630,-14,-232,-107,-17,67,-5
1635,-10,-232,-110,-15,66,-5
1640,-13,-234,-109,-15,66,-5
1645,-13,-229,-112,-13,65,-2
1650,-15,-232,-105,-13,65,-4
1655,-13,-232,-107,-14,65,-3
1660,-13,-232,-107,-17,63,-3
1665,-14,-230,-104,-19,63,-3
1670,-14,-231,-104,-23,61,-3
1675,-12,-234,-107,-24,61,-5
1680,-15,-229,-107,-25,60,-4
1685,-12,-233,-110,-26,60,-3
1690,-15,-230,-105,-24,60,-3
1695,-12,-229,-105,-24,59,-3
1700,-11,-234,-105,-23,58,-2
1705,-12,-233,-109,-23,57,-5
1710,-12,-234,-108,-23,58,-4
1715,-13,-231,-106,-22,56,-4
1720,-12,-232,-109,-20,56,-5
1725,-13,-233,-106,-19,57,-7
1730,-12,-235,-109,-17,57,-7
1735,-14,-234,-111,-18,56,-7
1740,-10,-234,-105,-17,57,-7
1745,-12,-233,-107,-13,57,-7
1750,-11,-232,-105,-11,58,-8
1755,-13,-234,-104,-11,58,-8
1760,-10,-231,-106,-9,61,-6
1765,-11,-236,-110,-8,62,-7
1770,-11,-233,-106,-7,64,-6
1775,-10,-234,-104,-7,65,-6
1780,-11,-233,-108,-5,66,-6
1785,-11,-231,-109,-6,67,-5
1790,-13,-233,-106,-7,67,-5
1795,-9,-232,-104,-7,70,-5
1800,-8,-234,-105,-9,69,-5
1805,-11,-233,-108,-9,68,-6
1810,-12,-233,-110,-9,68,-7
1815,-12,-234,-104,-7,67,-5
1820,-13,-231,-110,-8,68,-6
1825,-13,-230,-106,-7,68,-5
1830,-10,-231,-107,-7,68,-6
1835,-13,-234,-111,-8,69,-4
1840,-14,-234,-108,-10,70,-4
1845,-11,-234,-106,-9,69,-4
1850,-10,-233,-108,-12,69,-2
1855,-11,-235,-105,-12,70,-2
1860,-8,-236,-109,-13,68,-3
1865,-10,-235,-104,-14,69,-1
1870,-12,-238,-106,-14,69,-1
1875,-12,-236,-106,-14,67,-1
1880,-14,-233,-110,-13,67,-2
1885,-12,-237,-109,-13,68,-1
1890,-11,-233,-108,-12,67,-1
1895,-12,-234,-106,-12,66,-1
1900,-12,-232,-107,-13,66,-2
1905,-11,-233,-107,-13,66,-2
1910,-13,-240,-97,-12,67,-3
1915,-12,-235,-106,-13,66,-2
1920,-12,-233,-105,-15,67,-4
1925,-12,-236,-107,-14,64,-4
1930,-13,-233,-105,-14,67,-5
1935,-13,-234,-105,-14,67,-6
1940,-13,-235,-106,-12,67,-8
1945,-17,-233,-106,-10,67,-8
1950,-9,-232,-107,-9,68,-7
1955,-14,-232,-106,-7,67,-6
1960,-9,-231,-104,-7,66,-6
1965,-12,-233,-105,-8,65,-6
1970,-10,-230,-106,-9,64,-4
1975,-15,-231,-104,-12,64,-4
1980,-10,-231,-108,-14,63,-5
1985,-12,-231,-103,-15,64,-4
1990,-9,-234,-112,-18,64,-3
1995,-12,-234,-105,-20,66,-2
2000,-12,-235,-110,-21,66,-2
2005,-11,-235,-107,-23,66,-3
2010,-11,-235,-105,-25,67,-4
2015,-10,-233,-107,-26,69,-3
2020,-12,-233,-108,-27,70,-5
2025,-12,-231,-108,-27,71,-4
2030,-11,-236,-107,-26,72,-3
2035,-9,-234,-106,-24,75,-2
2040,-14,-234,-107,-22,74,-4
2045,-12,-235,-108,-21,73,-5
2050,-11,-232,-108,-20,74,-4
2055,-10,-235,-105,-20,73,-4
2060,-12,-232,-107,-20,73,-4
2065,-13,-233,-105,-20,72,-3
2070,-12,-233,-107,-19,71,-2
2075,-13,-234,-106,-19,71,-2
2080,-14,-233,-107,-19,70,-2
2085,-13,-232,-108,-19,68,-3
2090,-15,-230,-108,-19,68,-2
2095,-13,-233,-107,-20,68,-2
2100,-14,-230,-102,-20,67,-1
2105,-16,-233,-110,-21,67,-2
2110,-14,-233,-106,-22,67,1
2115,-10,-235,-106,-22,68,0
2120,-9,-235,-108,-27,66,0
2125,-14,-233,-109,-28,67,-1
2130,-15,-233,-108,-28,67,-1
2135,-13,-234,-109,-30,67,-1
2140,-11,-233,-110,-30,66,-2
2145,-13,-232,-108,-29,66,-3
2150,-14,-233,-104,-28,66,-4
2155,-15,-233,-107,-27,64,-6
2160,-10,-235,-109,-25,63,-7
2165,-12,-233,-108,-25,62,-8
2170,-16,-229,-107,-25,63,-7
2175,-11,-235,-107,-26,62,-7
2180,-14,-232,-106,-26,64,-7
2185,-13,-229,-104,-27,62,-7
2190,-13,-231,-106,-27,61,-8
2195,-14,-231,-110,-27,63,-7
2200,-11,-235,-110,-28,62,-8
2205,-12,-231,-109,-27,62,-9
2210,-12,-232,-106,-28,62,-8
2215,-10,-232,-108,-28,62,-8
2220,-15,-233,-109,-31,61,-7
2225,-9,-230,-107,-32,63,-7
2230,-13,-232,-110,-34,62,-7
2235,-16,-232,-107,-35,62,-7
2240,-13,-228,-109,-36,63,-7
2245,-14,-234,-104,-35,63,-8
2250,-10,-234,-111,-36,62,-8
2255,-15,-231,-109,-35,59,-9
2260,-11,-232,-108,-33,59,-10
2265,-11,-234,-112,-32,57,-9
2270,-12,-234,-109,-32,56,-9
2275,-14,-233,-106,-30,56,-9
2280,-10,-233,-110,-29,54,-10
2285,-14,-233,-106,-27,53,-10
2290,-10,-232,-110,-28,53,-12
2295,-14,-231,-109,-26,53,-12
2300,-15,-230,-110,-26,54,-12
2305,-15,-231,-108,-26,55,-12
2310,-12,-232,-110,-26,55,-13
2315,-11,-231,-104,-25,56,-12
2320,-10,-231,-111,-24,56,-12
2325,-10,-230,-111,-24,59,-12
2330,-17,-226,-110,-24,60,-12
2335,-9,-231,-110,-26,61,-12
2340,-9,-229,-107,-28,62,-11
2345,-9,-229,-110,-28,63,-10
2350,-9,-232,-111,-29,64,-8
2355,-12,-230,-106,-30,66,-8
2360,-10,-230,-109,-33,67,-8
2365,-10,-231,-109,-35,66,-8
2370,-13,-231,-110,-35,66,-8
2375,-11,-231,-107,-35,65,-8
2380,-11,-235,-107,-34,66,-5
2385,-12,-229,-112,-31,65,-5
2390,-11,-233,-109,-30,66,-6
2395,-13,-230,-108,-27,66,-6
2400,-11,-234,-109,-23,65,-6
2405,-11,-231,-108,-20,67,-6
2410,-12,-233,-105,-20,68,-6
2415,-11,-232,-110,-20,68,-6
2420,-10,-230,-113,-20,70,-5
2425,-16,-229,-111,-21,71,-4
2430,-11,-234,-111,-23,71,-4
2435,-11,-231,-109,-26,71,-3
2440,-14,-234,-109,-29,70,-3
2445,-13,-228,-109,-33,71,-2
2450,-13,-230,-108,-35,70,-2
2455,-12,-231,-111,-37,70,-2
2460,-13,-232,-111,-39,71,-3
2465,-14,-229,-108,-41,71,-2
2470,-15,-233,-110,-40,71,-1
2475,-12,-234,-110,-40,70,0
2480,-12,-233,-110,-39,70,-1
2485,-14,-232,-108,-37,69,-1
2490,-12,-234,-109,-37,70,-4
2495,-13,-232,-111,-37,70,-3
2500,-11,-229,-107,-35,68,0
2505,-13,-231,-112,-35,68,0
2510,-12,-229,-111,-35,66,0
2515,-12,-231,-106,-36,67,0
2520,-10,-232,-108,-35,67,0
2525,-11,-229,-112,-35,66,2
2530,-12,-229,-109,-35,67,1
2535,-12,-229,-110,-35,67,-1
2540,-11,-229,-110,-35,68,0
2545,-11,-229,-110,-36,69,-1
2550,-13,-230,-111,-37,69,-2
2555,-15,-228,-109,-39,71,0
2560,-12,-231,-110,-40,71,1
2565,-10,-229,-111,-42,71,0
2570,-12,-230,-114,-44,72,1
2575,-13,-234,-112,-46,71,4
2580,-13,-231,-116,-48,71,2
2585,-11,-232,-112,-48,70,1
2590,-12,-232,-116,-48,70,1
2595,-16,-233,-115,-48,71,3
2600,-13,-232,-116,-46,70,2
2605,-11,-235,-117,-45,69,6
2610,-11,-237,-117,-43,68,4
2615,-11,-238,-121,-40,65,5
2620,-9,-240,-120,-36,63,2
2625,-8,-241,-123,-32,62,-2
2630,-10,-240,-123,-29,61,-8
2635,-7,-236,-122,-26,65,-12
2640,-9,-235,-125,-29,72,-15
2645,-8,-233,-125,-40,82,-18
2650,-5,-229,-129,-63,100,-18
2655,-8,-225,-134,-99,119,-21
2660,-5,-227,-139,-144,140,-26
2665,-5,-224,-143,-195,165,-34
2670,-2,-222,-151,-255,190,-42
2675,-1,-220,-159,-320,212,-52
2680,-4,-216,-169,-384,234,-66
2685,-4,-214,-177,-445,252,-84
2690,-6,-214,-181,-492,266,-102
2695,-7,-208,-179,-519,270,-118
2700,-7,-205,-180,-514,256,-129
2705,-9,-200,-176,-474,226,-135
2710,-14,-194,-167,-411,186,-138
2715,-12,-189,-161,-347,138,-135
2720,-16,-169,-156,-299,92,-126
2725,-17,-151,-157,-277,57,-115
2730,-23,-140,-152,-281,40,-98
2735,-31,-131,-150,-303,41,-78
2740,-33,-127,-151,-337,51,-52
2745,-36,-125,-150,-372,64,-25
2750,-42,-118,-148,-403,72,8
2755,-45,-114,-151,-422,75,42
2760,-44,-107,-152,-428,76,80
2765,-41,-102,-151,-425,78,121
2770,-38,-97,-154,-419,81,169
2775,-36,-83,-153,-411,86,215
2780,-32,-74,-145,-406,89,259
2785,-31,-67,-141,-416,89,299
2790,-23,-58,-133,-439,84,338
2795,-19,-48,-127,-470,81,372
2800,-15,-39,-112,-509,80,400
2805,-14,-32,-99,-556,76,428
2810,-9,-29,-87,-601,69,457
2815,0,-22,-68,-647,60,486
2820,10,-21,-59,-680,55,508
2825,20,-20,-48,-714,55,517
2830,24,-22,-32,-743,62,513
2835,33,-22,-14,-752,73,497
2840,35,-26,-7,-753,88,477
2845,40,-31,9,-756,109,452
2850,40,-38,13,-763,135,423
2855,34,-41,18,-775,161,381
2860,33,-43,19,-798,181,337
2865,25,-49,20,-837,198,299
2870,21,-58,13,-893,216,268
2875,11,-62,4,-975,235,229
2880,-3,-65,-7,-1075,255,186
2885,-14,-69,-27,-1180,270,151
2890,-28,-84,-55,-1272,276,123
2895,-37,-102,-96,-1328,280,97
2900,-40,-109,-141,-1344,300,85
2905,-45,-119,-193,-1328,340,108
2910,-43,-124,-231,-1289,392,179
2915,-32,-146,-241,-1231,446,291
2920,-15,-177,-246,-1138,488,429
2925,-3,-216,-230,-998,513,567
2930,1,-252,-196,-816,529,693
2935,2,-284,-160,-603,518,789
2940,1,-301,-123,-378,470,845
2945,-12,-313,-102,-167,398,860
2950,-29,-303,-98,-1,309,847
2955,-39,-290,-107,95,213,821
2960,-49,-261,-115,111,111,792
2965,-51,-240,-128,66,18,765
2970,-53,-229,-147,-27,-44,723
2975,-48,-237,-159,-169,-61,682
2980,-41,-248,-166,-344,-51,623
2985,-36,-260,-171,-517,-19,526
2990,-47,-260,-165,-673,19,410
2995,-50,-263,-161,-806,37,315
3000,-56,-264,-152,-901,42,252
3005,-63,-263,-149,-949,30,221
3010,-60,-268,-143,-937,3,207
3015,-64,-267,-140,-857,-33,200
3020,-68,-263,-134,-725,-70,197
3025,-73,-255,-140,-563,-116,203
3030,-69,-246,-132,-394,-156,215
3035,-75,-232,-132,-229,-189,227
3040,-84,-223,-132,-81,-226,255
3045,-80,-214,-133,35,-257,298
3050,-74,-209,-139,110,-289,333
3055,-77,-196,-143,151,-309,357
3060,-68,-196,-146,170,-304,377
3065,-73,-190,-147,168,-285,377
3070,-68,-179,-151,154,-266,369
3075,-68,-172,-148,113,-246,364
3080,-55,-175,-145,55,-236,369
3085,-51,-175,-143,-16,-225,356
3090,-42,-186,-139,-88,-230,341
3095,-28,-200,-135,-142,-227,321
3100,-24,-210,-132,-172,-216,287
3105,-26,-213,-125,-186,-222,253
3110,-29,-218,-132,-198,-243,238
3115,-25,-223,-141,-215,-249,240
3120,-28,-218,-148,-238,-258,253
3125,-30,-222,-153,-259,-263,264
3130,-28,-222,-157,-256,-267,275
3135,-35,-218,-173,-236,-251,285
3140,-33,-209,-177,-203,-233,287
3145,-32,-200,-179,-164,-210,289
3150,-31,-199,-177,-122,-174,304
3155,-26,-197,-171,-76,-132,300
3160,-26,-197,-157,-18,-91,285
3165,-31,-190,-155,47,-52,258
3170,-23,-186,-142,105,-17,214
3175,-28,-183,-135,153,11,162
3180,-25,-179,-138,216,42,123
3185,-33,-173,-130,267,80,82
3190,-36,-170,-131,308,109,59
3195,-41,-163,-130,326,141,36
3200,-43,-166,-126,309,181,17
3205,-54,-169,-133,277,209,1
3210,-37,-168,-148,240,221,-13
3215,-49,-165,-135,192,250,-14
3220,-59,-175,-146,155,277,-9
3225,-52,-181,-145,146,280,-8
3230,-55,-186,-145,148,274,-12
3235,-71,-178,-144,145,268,-9
3240,-67,-196,-153,157,248,-17
3245,-62,-197,-155,186,218,-21
3250,-64,-203,-150,219,203,-5
3255,-45,-206,-156,262,172,-6
3260,-55,-206,-151,310,156,-17
3265,-46,-204,-156,362,139,-17
3270,-38,-207,-152,410,128,-15
3275,-32,-216,-158,459,134,-19
3280,-35,-221,-155,501,146,-19
3285,-43,-223,-152,564,167,-35
3290,-34,-238,-155,636,204,-41
3295,-44,-238,-160,717,253,-54
3300,-43,-234,-156,776,293,-66
3305,-51,-238,-156,797,323,-83
3310,-58,-241,-154,797,337,-100
3315,-63,-247,-149,803,329,-123
3320,-70,-250,-143,824,313,-148
3325,-74,-246,-139,859,277,-161
3330,-69,-249,-139,899,236,-162
3335,-62,-256,-138,936,199,-166
3340,-56,-260,-141,968,176,-173
3345,-42,-255,-136,1002,156,-177
3350,-44,-259,-139,1017,146,-193
3355,-29,-256,-132,1044,144,-219
3360,-41,-255,-150,1068,153,-249
3365,-36,-259,-146,1069,130,-256
3370,-36,-265,-151,1059,121,-259
3375,-36,-262,-148,1042,123,-269
3380,-36,-269,-147,1032,131,-275
3385,-34,-276,-142,1028,139,-279
3390,-44,-269,-145,1031,149,-283
3395,-39,-268,-141,1031,156,-281
3400,-43,-268,-143,1035,164,-277
3405,-43,-276,-141,1047,179,-274
3410,-39,-272,-142,1063,195,-273
3415,-38,-271,-142,1085,210,-275
3420,-34,-267,-132,1107,236,-283
3425,-36,-270,-132,1128,260,-296
3430,-39,-271,-127,1150,282,-311
3435,-42,-277,-122,1175,286,-314
3440,-47,-281,-125,1196,257,-306
3445,-51,-286,-120,1208,193,-288
3450,-52,-295,-116,1215,112,-258
3455,-52,-304,-113,1225,29,-225
3460,-55,-303,-115,1239,-51,-202
3465,-55,-302,-113,1251,-113,-186
3470,-53,-308,-109,1268,-148,-187
3475,-47,-305,-113,1298,-160,-194
3480,-45,-306,-111,1330,-152,-199
3485,-40,-306,-106,1365,-141,-207
3490,-41,-303,-100,1399,-130,-216
3495,-37,-302,-95,1434,-124,-223
3500,-36,-317,-78,1461,-123,-224
3505,-49,-338,-66,1501,-124,-231
3510,-60,-340,-98,1588,-142,-252
3515,-51,-329,-115,1718,-155,-265
3520,-44,-336,-122,1808,-143,-254
3525,-51,-363,-120,1865,-139,-245
3530,-47,-393,-115,1944,-148,-268
3535,-54,-413,-107,2045,-128,-300
3540,-56,-411,-113,2110,-91,-295
3545,-49,-396,-154,2060,-52,-249
3550,-63,-376,-248,1845,-7,-183
3555,-67,-376,-345,1440,33,-114
3560,-69,-398,-408,888,67,-61
3565,-76,-430,-403,316,81,-42
3570,-90,-452,-362,-110,54,-45
3575,-84,-465,-306,-324,12,-47
3580,-79,-455,-264,-352,-10,-46
3585,-69,-437,-225,-240,-2,-43
3590,-64,-398,-190,-36,31,-51
3595,-56,-358,-166,194,86,-63
3600,-50,-314,-147,386,153,-76
3605,-38,-275,-131,515,218,-91
3610,-25,-240,-123,571,259,-107
3615,-11,-209,-110,562,275,-124
3620,4,-188,-107,511,267,-144
3625,13,-163,-92,438,243,-162
3630,21,-138,-80,364,207,-173
3635,23,-127,-67,296,168,-173
3640,25,-114,-64,241,138,-157
3645,22,-116,-55,195,119,-129
3650,15,-112,-46,155,100,-91
3655,16,-121,-34,111,82,-49
3660,10,-128,-21,68,63,-9
3665,3,-143,-13,27,46,25
3670,2,-153,-1,-6,30,51
3675,1,-174,1,-31,17,66
3680,-1,-190,9,-49,11,69
3685,-2,-206,17,-52,12,59
3690,-7,-224,22,-40,19,38
3695,-7,-236,24,-18,32,5
3700,-13,-242,16,23,59,-33
3705,-13,-257,28,79,88,-71
3710,-18,-264,25,147,114,-109
3715,-21,-269,25,234,145,-139
3720,-26,-280,25,336,172,-168
3725,-25,-280,23,449,190,-185
3730,-30,-279,22,567,198,-200
3735,-31,-276,15,680,201,-208
3740,-33,-277,13,782,196,-208
3745,-34,-278,3,868,189,-202
3750,-37,-276,-1,939,177,-194
3755,-39,-277,-10,991,162,-179
3760,-38,-273,-26,1022,148,-165
3765,-40,-278,-38,1033,136,-150
3770,-48,-275,-50,1021,128,-138
3775,-39,-276,-62,986,121,-126
3780,-44,-274,-69,932,120,-112
3785,-42,-279,-80,862,124,-100
3790,-41,-281,-84,782,131,-84
3795,-38,-287,-89,695,142,-73
3800,-36,-289,-91,610,153,-66
3805,-32,-294,-86,533,164,-66
3810,-30,-296,-86,465,170,-66
3815,-27,-297,-80,412,173,-70
3820,-26,-298,-81,375,177,-78
3825,-22,-296,-84,355,175,-91
3830,-24,-293,-79,343,172,-100
3835,-21,-288,-74,339,171,-110
3840,-26,-282,-77,333,170,-117
3845,-24,-274,-69,328,168,-121
3850,-25,-269,-66,319,167,-125
3855,-24,-263,-62,308,166,-127
3860,-25,-253,-58,298,161,-125
3865,-21,-246,-52,287,155,-121
3870,-18,-241,-47,279,147,-114
3875,-20,-238,-44,271,135,-105
3880,-16,-234,-38,265,123,-100
3885,-12,-231,-33,259,110,-94
3890,-14,-232,-30,250,93,-92
3895,-12,-231,-29,238,73,-91
3900,-14,-227,-26,227,54,-92
3905,-13,-230,-25,213,39,-95
3910,-13,-232,-20,196,29,-99
3915,-17,-235,-16,183,21,-103
3920,-15,-237,-16,170,15,-110
3925,-14,-243,-13,159,12,-112
3930,-13,-248,-12,150,12,-115
3935,-12,-250,-10,142,14,-117
3940,-14,-254,-7,138,13,-120
3945,-12,-255,-8,138,18,-121
3950,-14,-260,-10,139,24,-120
3955,-15,-262,-5,144,31,-116
3960,-14,-266,-5,154,35,-112
3965,-17,-268,-9,166,35,-107
3970,-15,-270,-2,178,33,-105
3975,-20,-271,-6,190,28,-104
3980,-22,-274,-9,202,25,-104
3985,-20,-271,-16,213,24,-106
3990,-25,-273,-19,224,26,-107
3995,-24,-272,-19,233,31,-107
4000,-23,-271,-25,242,39,-103
4005,-22,-273,-21,249,47,-99
4010,-19,-271,-20,259,57,-92
4015,-15,-270,-22,269,63,-87
4020,-16,-270,-22,279,70,-81
4025,-13,-266,-20,287,77,-75
4030,-10,-267,-22,289,86,-70
4035,-8,-266,-27,291,92,-63
4040,-8,-262,-24,287,99,-55
4045,-6,-262,-24,283,105,-47
4050,-5,-260,-21,274,109,-40
4055,-7,-259,-25,263,110,-33
4060,-7,-258,-23,254,110,-30
4065,-8,-256,-23,243,106,-28
4070,-7,-257,-19,227,102,-28
4075,-7,-254,-22,214,95,-28
4080,-11,-253,-18,199,87,-30
4085,-10,-254,-15,184,78,-33
4090,-12,-254,-12,166,67,-35
4095,-15,-253,-14,146,55,-38
4100,-13,-255,-13,126,43,-43
4105,-15,-255,-12,105,33,-47
4110,-15,-254,-12,86,25,-49
4115,-12,-252,-13,68,21,-52
4120,-13,-256,-12,49,19,-50
4125,-12,-255,-12,32,20,-48
4130,-10,-255,-14,18,23,-44
4135,-8,-256,-10,7,26,-40
4140,-10,-258,-9,-2,27,-33
4145,-13,-257,-3,-9,27,-31
4150,-14,-260,-5,-13,27,-27
4155,-10,-261,0,-14,27,-27
4160,-16,-263,0,-13,27,-27
4165,-13,-266,0,-9,31,-32
4170,-17,-265,0,-3,37,-40
4175,-18,-264,0,3,45,-46
4180,-21,-263,-3,11,58,-54
4185,-17,-266,-2,22,71,-61
4190,-20,-265,0,30,85,-66
4195,-20,-263,-5,37,97,-70
4200,-20,-263,-5,46,104,-70
4205,-17,-259,-9,50,106,-68
4210,-17,-260,-9,53,107,-63
4215,-14,-260,-9,54,102,-55
4220,-15,-264,-12,58,91,-49
4225,-17,-263,-14,61,78,-40
4230,-16,-262,-16,62,60,-33
4235,-18,-260,-19,64,43,-28
4240,-17,-262,-19,66,28,-23
4245,-22,-261,-22,66,14,-21
4250,-21,-259,-21,65,4,-20
4255,-23,-257,-23,64,-2,-20
4260,-20,-259,-22,60,-4,-20
4265,-21,-256,-24,53,-5,-24
4270,-21,-257,-26,45,-3,-26
4275,-17,-255,-25,36,1,-28
4280,-17,-259,-26,23,8,-33
4285,-15,-257,-27,12,15,-38
4290,-15,-257,-22,2,25,-41
4295,-15,-258,-27,-8,36,-43
4300,-11,-260,-22,-17,45,-43
4305,-5,-262,-21,-22,50,-40
4310,-10,-261,-22,-30,49,-33
4315,-8,-261,-18,-37,44,-24
4320,-9,-264,-22,-43,35,-14
4325,-7,-263,-26,-49,25,-7
4330,-11,-265,-26,-53,11,-1
4335,-9,-263,-26,-56,1,2
4340,-12,-263,-25,-59,-7,5
4345,-14,-264,-30,-58,-8,7
4350,-12,-264,-29,-57,-7,4
4355,-13,-262,-28,-57,-2,2
4360,-14,-263,-27,-54,5,1
4365,-14,-261,-36,-50,14,0
4370,-19,-264,-30,-43,25,-1
4375,-14,-261,-19,-37,33,-2
4380,-5,-262,-22,-30,40,-3
4385,-23,-256,-6,-26,44,-3
4390,-22,-257,-21,-24,45,-5
4395,-10,-250,-18,-24,42,-4
4400,-15,-266,-22,-28,37,-2
4405,-12,-262,-20,-35,29,-3
4410,-8,-259,-21,-43,24,-3
4415,-11,-265,-16,-52,17,-5
4420,-10,-261,-28,-60,15,-7
4425,-11,-259,-15,-68,14,-8
4430,-10,-261,-11,-74,14,-10
4435,-13,-249,-11,-76,16,-10
4440,-11,-264,-19,-76,20,-10
4445,-7,-260,-9,-75,25,-10
4450,-10,-256,-15,-73,29,-9
4455,-9,-262,-11,-68,36,-9
4460,-11,-261,-14,-63,42,-8
4465,-12,-263,-16,-59,47,-4
4470,-10,-263,-15,-55,51,-1
4475,-11,-257,-25,-54,53,4
4480,1,-263,-20,-54,56,9
4485,-11,-264,-20,-55,58,15
4490,-13,-269,-19,-57,57,21
4495,-4,-267,-20,-56,56,24
4500,-10,-265,-8,-57,54,26
4505,-9,-263,-3,-56,51,27
4510,-8,-263,-17,-55,49,25
4515,-24,-255,-19,-52,48,24
4520,-6,-260,-16,-50,47,21
4525,-16,-267,-17,-46,47,17
4530,-8,-262,-18,-44,51,16
4535,-11,-260,-16,-44,53,16
4540,-14,-266,-20,-43,56,16
4545,-7,-263,-18,-41,59,13
4550,-9,-266,-29,-41,60,12
4555,-7,-272,-27,-41,63,10
4560,-10,-262,-19,-41,63,10
4565,-9,-259,-17,-41,65,9
4570,-8,-262,-21,-44,66,7
4575,-9,-260,-21,-45,66,6
4580,-11,-259,-23,-47,66,3
4585,-7,-260,-21,-50,67,3
4590,-13,-260,-18,-54,68,2
4595,-11,-260,-23,-58,68,1
4600,-12,-259,-12,-60,67,2
4605,-7,-248,-21,-62,66,3
4610,-8,-266,-25,-62,67,3
4615,-3,-260,-26,-62,67,1
4620,-14,-264,-27,-61,68,1
4625,-15,-255,-21,-60,68,2
4630,-19,-261,-27,-56,69,3
4635,-13,-260,-9,-53,70,4
4640,-13,-261,-25,-50,70,5
4645,-15,-257,-23,-49,68,7
4650,-12,-265,-25,-48,70,9
4655,-9,-260,-17,-47,70,13
4660,-6,-260,-14,-48,69,15
4665,-12,-271,-21,-49,70,17
4670,-7,-263,-27,-49,71,19
4675,-9,-263,-24,-51,70,21
4680,-10,-257,-24,-52,71,21
4685,-20,-262,-27,-53,69,24
4690,-13,-266,-20,-53,68,24
4695,-13,-266,-20,-52,67,25
4700,-14,-265,-26,-50,64,24
4705,-3,-250,-22,-46,61,22
4710,-21,-260,-30,-43,61,21
4715,-16,-261,-24,-39,59,19
4720,-11,-277,-16,-36,60,18
4725,-13,-263,-23,-32,61,17
4730,-11,-266,-25,-29,62,16
4735,-17,-264,-19,-26,62,16
4740,-17,-266,-21,-22,63,15
4745,-21,-263,-23,-21,63,15
4750,-15,-257,-10,-18,64,13
4755,-8,-264,-27,-17,62,10
4760,-7,-262,-19,-16,63,8
4765,-10,-266,-23,-17,63,6
4770,-13,-258,-21,-18,65,6
4775,-20,-257,-21,-19,66,3
4780,-11,-259,-14,-19,67,3
4785,-10,-266,-30,-22,68,0
4790,-10,-259,-6,-25,69,1
4795,-12,-263,-23,-28,68,1
4800,-15,-263,-24,-29,66,1
4805,-15,-262,-23,-30,63,3
4810,-15,-265,-22,-29,60,4
4815,-16,-262,-25,-29,57,6
4820,-15,-265,-26,-28,53,5
4825,-15,-261,-24,-27,51,5
4830,-18,-261,-24,-26,51,6
4835,-12,-264,-28,-23,51,7
4840,-20,-263,-16,-23,53,7
4845,-14,-260,-12,-20,54,9
4850,-6,-263,-26,-19,58,12
4855,-12,-257,-23,-17,59,14
4860,-19,-264,-16,-13,59,14
4865,-11,-264,-22,-11,59,12
4870,-20,-257,-22,-10,62,13
4875,-6,-255,-33,-12,62,13
4880,-14,-263,-16,-13,63,12
4885,-9,-264,-25,-15,63,11
4890,-14,-265,-15,-18,63,8
4895,-17,-264,-29,-21,64,6
4900,-18,-259,-23,-23,67,4
4905,-15,-260,-16,-23,67,1
4910,-18,-265,-32,-25,68,0
4915,-20,-267,-18,-25,68,-2
4920,-17,-262,-26,-25,70,-1
4925,-14,-262,-24,-25,69,-1
4930,-16,-262,-23,-25,67,2
4935,-17,-262,-22,-24,65,3
4940,-13,-265,-21,-21,62,3
4945,-16,-261,-24,-18,60,5
4950,-15,-263,-22,-15,58,6
4955,-15,-263,-23,-13,57,6
4960,-14,-261,-19,-11,56,7
4965,-15,-261,-19,-9,55,7
4970,-16,-264,-20,-7,55,6
4975,-14,-264,-22,-8,54,4
4980,-18,-264,-23,-8,53,3
4985,-13,-259,-23,-8,54,3
4990,-16,-263,-19,-7,53,0
4995,-17,-262,-23,-9,52,0
5000,-14,-259,-23,-9,53,-2
5005,-15,-264,-23,-9,52,-3
5010,-12,-263,-23,-9,53,-3
5015,-14,-268,-24,-9,55,-4
5020,-15,-261,-26,-10,55,-4
5025,-15,-260,-19,-11,56,-4
5030,-14,-260,-23,-11,55,-5
5035,-14,-262,-20,-13,55,-6
5040,-9,-267,-20,-15,57,-6
5045,-16,-260,-22,-14,57,-7
5050,-16,-262,-22,-13,58,-7
5055,-13,-264,-23,-13,60,-6
5060,-16,-261,-20,-11,61,-5
5065,-16,-263,-17,-8,61,-7
5070,-14,-258,-22,-8,61,-6
5075,-12,-260,-20,-8,61,-3
5080,-17,-262,-19,-8,59,0
5085,-16,-262,-19,-8,57,1
5090,-18,-260,-23,-7,55,3
5095,-16,-262,-19,-6,53,4
5100,-13,-261,-21,-6,53,4
5105,-15,-260,-23,-5,54,4
5110,-22,-262,-16,-4,55,5
5115,-16,-256,-19,-1,56,3
5120,-22,-257,-20,0,57,4
5125,-19,-266,-24,0,57,3
5130,-12,-271,-30,2,59,2
5135,-12,-260,-33,1,60,0
5140,-11,-262,-20,-1,61,0
5145,-19,-265,-28,-3,62,-1
5150,-21,-263,-23,-5,64,0
5155,-9,-269,-13,-8,65,-1
5160,-16,-260,-26,-11,66,-2
5165,-15,-265,-34,-13,66,-2
5170,-18,-254,-21,-16,65,-2
5175,-12,-282,-31,-17,65,-4
5180,-17,-267,-15,-17,65,-4
5185,-17,-263,-22,-18,64,-6
5190,-23,-261,-17,-18,65,-4
5195,-13,-266,-27,-19,65,-4
5200,-14,-259,-32,-19,65,-4
5205,-13,-261,-21,-19,66,-4
5210,-14,-259,-23,-18,65,-4
5215,-17,-264,-22,-16,66,-3
5220,-14,-260,-23,-15,67,-3
5225,-5,-258,-33,-12,66,-1
5230,-14,-256,-23,-12,67,-3
5235,-26,-257,-21,-10,66,-3
5240,-16,-265,-18,-11,66,-2
5245,-17,-263,-34,-11,65,-3
5250,-17,-261,-27,-12,64,-3
5255,-14,-265,-27,-14,63,-2
5260,-15,-259,-28,-14,63,-3
5265,-23,-271,-16,-15,63,-2
5270,-26,-259,-33,-15,63,-1
5275,-13,-254,-18,-15,62,-1
5280,-17,-258,-30,-15,63,-1
5285,-8,-269,-23,-16,64,0
5290,-20,-263,-32,-16,64,3
5295,-18,-269,-24,-17,63,3
5300,-9,-259,-17,-15,63,2
5305,-12,-266,-37,-15,62,3
5310,-14,-262,-22,-15,62,3
5315,-11,-261,-23,-14,62,3
5320,-14,-264,-21,-14,61,2
5325,-11,-261,-21,-13,61,4
5330,-15,-260,-17,-12,61,4
5335,-12,-260,-19,-12,61,3
5340,-14,-262,-21,-12,62,2
5345,-15,-262,-23,-10,62,3
5350,-15,-263,-21,-9,63,1
5355,-4,-265,-22,-10,65,1
5360,-25,-265,-29,-9,66,0
5365,-18,-256,-18,-9,66,0
5370,-18,-257,-22,-8,67,0
5375,-15,-264,-8,-8,68,-1
5380,-14,-251,-27,-9,67,1
5385,-10,-265,-21,-8,68,1
5390,-9,-260,-20,-8,67,0
5395,-7,-265,-31,-6,65,2
5400,-16,-265,-20,-4,64,2
5405,-12,-261,-26,-3,65,1
5410,-8,-258,-18,-3,65,1
5415,-18,-260,-21,-1,64,2
5420,-9,-272,-12,1,66,2
5425,-22,-260,-13,2,65,2
5430,-16,-258,-20,2,67,0
5435,-7,-285,-1,2,67,1
5440,-17,-260,-20,2,68,0
5445,-13,-262,-20,1,70,0
5450,-13,-262,-22,1,69,1
5455,-13,-264,-21,1,69,1
5460,-11,-262,-19,0,70,1
5465,-16,-261,-17,-1,70,0
5470,-12,-264,-20,-3,69,0
5475,-15,-264,-24,-2,68,-1
5480,-15,-262,-22,-3,68,0
5485,-20,-259,-22,0,67,0
5490,-14,-260,-22,1,69,0
5495,-13,-259,-20,2,69,-1
5500,-16,-260,-20,5,71,-3
5505,-14,-262,-21,5,73,-3
5510,-15,-261,-27,6,75,-2
5515,-16,-259,-23,4,75,-2
5520,-14,-263,-19,3,75,-2
5525,-14,-264,-20,2,74,-1
5530,-16,-263,-18,0,74,0
5535,-14,-263,-16,-2,73,-1
5540,-17,-260,-26,-4,73,0
5545,-13,-265,-23,-6,71,2
5550,-17,-262,-25,-7,69,1
5555,-14,-260,-21,-7,69,2
5560,-16,-265,-20,-5,68,3
5565,-14,-264,-22,-5,68,5
5570,-13,-260,-21,-2,68,3
5575,-13,-260,-23,1,70,4
5580,-15,-263,-23,2,70,3
5585,-16,-261,-21,5,71,3
5590,-16,-262,-22,6,72,1
5595,-18,-263,-20,5,70,1
5600,-15,-260,-26,3,71,0
5605,-18,-262,-22,0,68,1
5610,-16,-262,-21,-2,65,1
5615,-16,-262,-24,-2,63,1
5620,-16,-261,-21,-4,62,2
5625,-15,-263,-21,-4,60,3
5630,-15,-263,-24,-5,59,3
5635,-14,-263,-20,-6,58,4
5640,-12,-260,-20,-5,58,5
5645,-16,-261,-24,-3,57,5
5650,-14,-263,-19,0,58,5
5655,-15,-262,-20,4,58,5
5660,-13,-262,-18,6,58,5
5665,-14,-263,-21,8,59,5
5670,-16,-260,-24,11,59,7
5675,-12,-261,-20,12,59,7
5680,-16,-261,-16,12,57,7
5685,-16,-262,-19,13,56,8
5690,-12,-262,-21,12,56,9
5695,-14,-263,-21,12,54,9
5700,-14,-259,-18,14,51,10
5705,-13,-264,-21,15,48,13
5710,-15,-263,-19,16,43,14
5715,-18,-265,-18,17,38,17
5720,-15,-265,-21,20,31,20
5725,-15,-264,-20,20,25,23
5730,-17,-260,-18,21,19,27
5735,-15,-265,-22,23,14,31
5740,-17,-264,-20,26,11,33
5745,-14,-265,-19,29,9,36
5750,-14,-266,-22,33,4,37
5755,-17,-262,-19,35,4,39
5760,-15,-260,-22,38,2,39
5765,-13,-261,-20,43,-1,38
5770,-17,-263,-22,44,-3,36
5775,-13,-265,-23,45,-1,35
5780,-15,-260,-23,43,-2,35
5785,-15,-261,-19,44,-2,34
5790,-12,-262,-23,41,-1,34
5795,-11,-264,-23,40,-1,33
5800,-14,-264,-20,39,-1,33
5805,-13,-265,-27,34,-2,33
5810,-16,-261,-19,33,-4,32
5815,-13,-262,-25,29,-5,31
5820,-13,-262,-25,28,-5,29
5825,-13,-261,-21,26,-4,30
5830,-14,-260,-21,25,-4,26
5835,-13,-262,-19,26,-3,25
5840,-15,-261,-21,25,-1,24
5845,-14,-261,-21,26,-1,27
5850,-16,-260,-24,24,0,26
5855,-17,-258,-19,22,-2,28
5860,-15,-261,-23,21,-1,27
5865,-17,-261,-19,21,-1,27
5870,-19,-260,-21,21,1,26
5875,-18,-261,-21,21,2,27
5880,-19,-263,-19,21,6,26
5885,-15,-264,-19,21,5,25
5890,-18,-262,-25,21,8,26
5895,-17,-262,-20,19,9,26
5900,-17,-264,-16,17,10,27
5905,-17,-258,-22,15,11,27
5910,-17,-263,-20,15,10,27
5915,-19,-261,-19,16,7,25
5920,-20,-260,-19,16,6,23
5925,-19,-260,-20,15,6,23
5930,-16,-263,-18,17,7,21
5935,-19,-260,-17,18,10,21
5940,-16,-262,-14,20,14,21
5945,-19,-260,-19,20,19,21
5950,-18,-262,-18,19,24,21
5955,-17,-261,-19,16,29,20
5960,-18,-260,-16,13,36,21
5965,-18,-260,-17,13,40,18
5970,-16,-261,-20,10,45,19
5975,-15,-261,-18,9,49,19
5980,-17,-260,-15,11,54,19
5985,-17,-265,-16,11,56,19
5990,-18,-263,-13,13,56,20
5995,-20,-265,-10,17,56,21
6000,-16,-265,-14,20,52,22
6005,-21,-268,-13,23,49,23
6010,-22,-264,-15,25,45,24
6015,-22,-263,-14,27,41,24
6020,-21,-263,-17,29,39,24
6025,-22,-263,-15,31,37,24
6030,-23,-261,-14,33,36,27
6035,-24,-263,-13,36,34,26
6040,-22,-261,-16,37,33,28
6045,-22,-260,-15,41,33,29
6050,-21,-263,-15,43,32,28
6055,-21,-261,-16,45,32,28
6060,-21,-260,-15,47,31,26
6065,-21,-259,-15,48,29,25
6070,-19,-261,-15,49,28,24
6075,-21,-256,-16,48,29,23
6080,-22,-260,-17,46,31,22
6085,-19,-260,-18,45,34,22
6090,-22,-262,-12,41,38,21
6095,-20,-262,-17,39,41,22
6100,-20,-260,-15,37,43,23
6105,-20,-263,-17,35,44,21
6110,-20,-262,-17,32,44,21
6115,-18,-261,-17,30,45,20
6120,-22,-262,-14,29,45,20
6125,-23,-261,-14,26,44,18
6130,-24,-261,-16,26,43,16
6135,-25,-258,-17,26,43,13
6140,-25,-259,-15,26,46,10
6145,-26,-262,-15,25,45,9
6150,-22,-261,-17,27,48,5
6155,-26,-263,-17,24,51,5
6160,-23,-260,-13,25,57,4
6165,-23,-255,-12,25,62,-1
6170,-24,-258,-15,23,66,-4
6175,-24,-259,-13,21,69,-6
6180,-22,-256,-11,20,73,-6
6185,-23,-258,-11,18,76,-9
6190,-21,-260,-16,16,79,-13
6195,-22,-258,-15,15,80,-17
6200,-25,-257,-13,10,84,-20
6205,-25,-258,-11,7,90,-23
6210,-25,-257,-12,6,94,-28
6215,-25,-257,-11,4,100,-34
6220,-24,-259,-11,1,107,-39
6225,-21,-260,-11,-1,112,-43
6230,-25,-256,-16,-4,119,-47
6235,-22,-259,-11,-5,125,-49
6240,-22,-259,-11,-8,130,-51
6245,-24,-264,-5,-9,132,-51
6250,-19,-262,-9,-11,133,-50
6255,-22,-260,-7,-10,132,-49
6260,-22,-263,-7,-10,130,-50
6265,-20,-261,-13,-11,128,-50
6270,-20,-264,-10,-11,125,-48
6275,-20,-262,-7,-11,122,-47
6280,-19,-264,-9,-8,118,-44
6285,-21,-264,-14,-7,113,-39
6290,-20,-265,-14,-4,108,-36
6295,-19,-266,-8,-3,101,-31
6300,-21,-267,-8,-3,96,-25
6305,-21,-266,-11,-2,91,-19
6310,-21,-263,-15,1,86,-16
6315,-20,-264,-15,4,81,-12
6320,-18,-265,-15,7,79,-9
6325,-20,-266,-13,10,77,-6
6330,-19,-263,-17,12,77,-5
6335,-19,-266,-18,12,80,-4
6340,-18,-264,-13,11,83,-4
6345,-18,-262,-19,9,85,-4
6350,-18,-264,-18,8,88,-3
6355,-15,-261,-15,6,88,-4
6360,-15,-262,-15,4,88,-8
6365,-15,-261,-19,1,87,-12
6370,-15,-260,-17,-4,84,-15
6375,-15,-260,-15,-11,85,-19
6380,-16,-258,-19,-16,83,-23
6385,-16,-257,-20,-23,81,-25
6390,-14,-257,-15,-30,81,-26
6395,-12,-257,-21,-38,79,-28
6400,-17,-261,-15,-43,80,-27
6405,-21,-260,-14,-49,77,-26
6410,-17,-263,-11,-52,74,-23
6415,-15,-264,-17,-54,71,-19
6420,-19,-264,-17,-54,69,-15
6425,-18,-265,-14,-55,67,-10
6430,-18,-265,-16,-53,65,-6
6435,-18,-261,-18,-50,63,-3
6440,-18,-264,-14,-48,62,0
6445,-20,-262,-18,-44,61,0
6450,-20,-263,-19,-40,61,2
6455,-18,-262,-22,-34,64,3
6460,-19,-262,-13,-30,65,4
6465,-16,-262,-19,-28,68,3
6470,-20,-263,-20,-24,71,1
6475,-17,-262,-18,-23,72,2
6480,-17,-262,-16,-22,74,2
6485,-17,-261,-15,-20,76,2
6490,-16,-263,-19,-21,77,1
6495,-16,-260,-13,-22,77,0
6500,-14,-263,-16,-23,77,-2
6505,-15,-261,-17,-24,77,-2
6510,-15,-259,-13,-24,74,-2
6515,-16,-263,-17,-26,73,-4
6520,-20,-259,-15,-26,73,-4
6525,-17,-259,-14,-26,74,-6
6530,-18,-263,-15,-24,73,-4
6535,-16,-264,-13,-23,71,-5
6540,-19,-262,-13,-20,71,-3
6545,-18,-260,-13,-17,72,-3
6550,-21,-262,-13,-15,71,-4
6555,-22,-262,-15,-13,71,-3
6560,-21,-263,-15,-9,71,-4
6565,-21,-262,-14,-8,71,-3
6570,-18,-263,-14,-8,72,-2
6575,-20,-262,-20,-7,74,-3
6580,-20,-259,-16,-7,75,-3
6585,-15,-265,-11,-7,76,-4
6590,-18,-263,-16,-7,79,-4
6595,-20,-263,-12,-10,78,-4
6600,-16,-262,-14,-11,78,-4
6605,-16,-260,-15,-13,77,-3
6610,-17,-260,-12,-13,76,-2
6615,-16,-258,-12,-14,74,-1
6620,-19,-261,-18,-12,71,-2
6625,-18,-263,-14,-14,73,-1
6630,-18,-264,-15,-15,73,-3
6635,-19,-262,-13,-16,72,-3
6640,-20,-262,-14,-17,73,-2
6645,-17,-263,-16,-18,72,-4
6650,-21,-264,-15,-19,72,-2
6655,-21,-263,-14,-21,71,1
6660,-20,-264,-16,-21,69,2
6665,-21,-265,-17,-22,67,3
6670,-19,-261,-14,-21,63,2
6675,-21,-262,-11,-20,62,2
6680,-22,-264,-16,-17,63,2
6685,-21,-262,-16,-17,64,2
6690,-18,-263,-15,-17,66,0
6695,-18,-261,-14,-15,66,0
6700,-19,-260,-13,-17,68,0
6705,-19,-264,-12,-17,68,0
6710,-18,-263,-16,-18,69,0
6715,-18,-263,-15,-18,69,-1
6720,-17,-260,-17,-18,68,-2
6725,-21,-261,-17,-20,69,-2
6730,-21,-257,-12,-21,70,-2
6735,-16,-263,-18,-21,70,-4
6740,-20,-261,-16,-22,71,-4
6745,-18,-260,-17,-23,69,-4
6750,-16,-264,-13,-24,69,-3
6755,-20,-265,-16,-24,68,-4
6760,-17,-264,-17,-24,69,-3
6765,-19,-266,-15,-23,67,-4
6770,-22,-262,-17,-21,66,-2
6775,-20,-263,-15,-19,65,0
6780,-18,-267,-15,-20,64,-1
6785,-17,-264,-16,-19,62,0
6790,-18,-264,-15,-17,62,1
6795,-20,-260,-20,-16,62,0
6800,-19,-266,-20,-16,61,0
6805,-18,-264,-17,-15,60,0
6810,-22,-260,-19,-14,62,-1
6815,-18,-261,-14,-13,61,0
6820,-19,-262,-17,-13,63,-2
6825,-18,-262,-17,-13,64,-3
6830,-17,-260,-19,-14,64,-6
6835,-19,-264,-18,-14,67,-6
6840,-17,-262,-18,-13,69,-6
6845,-19,-261,-16,-14,70,-8
6850,-16,-261,-16,-15,71,-8
6855,-17,-263,-15,-16,70,-8
6860,-19,-262,-17,-18,72,-8
6865,-17,-256,-16,-19,71,-9
6870,-19,-262,-15,-18,72,-9
6875,-21,-262,-15,-18,73,-10
6880,-16,-263,-13,-19,74,-11
6885,-17,-260,-13,-17,74,-11
6890,-20,-259,-19,-16,73,-9
6895,-19,-255,-7,-16,72,-7
6900,-22,-260,-17,-16,71,-6
6905,-18,-261,-16,-15,69,-5
6910,-18,-265,-14,-14,67,-4
6915,-18,-263,-13,-13,66,-3
6920,-17,-263,-17,-13,65,-4
6925,-21,-259,-12,-12,64,-4
6930,-18,-262,-16,-12,66,-5
6935,-18,-262,-14,-13,68,-3
6940,-19,-263,-16,-13,69,-4
6945,-16,-264,-15,-12,70,-4
6950,-16,-263,-16,-12,71,-5
6955,-18,-264,-18,-10,72,-5
6960,-19,-264,-19,-8,73,-5
6965,-19,-263,-17,-7,72,-7
6970,-20,-260,-13,-6,73,-6
6975,-19,-262,-20,-6,73,-6
6980,-18,-262,-18,-6,72,-9
6985,-16,-262,-17,-8,71,-8
6990,-18,-261,-18,-11,69,-8
6995,-17,-264,-17,-13,68,-8
7000,-18,-263,-13,-15,67,-8
7005,-20,-259,-17,-17,67,-9
7010,-18,-265,-17,-19,67,-10
7015,-18,-261,-15,-21,66,-9
7020,-16,-263,-16,-23,66,-6
7025,-20,-263,-17,-24,68,-8
7030,-18,-265,-18,-25,67,-5
7035,-19,-263,-12,-25,68,-4
7040,-19,-262,-20,-23,68,-3
7045,-19,-264,-18,-19,67,-3
7050,-17,-265,-16,-19,66,-3
7055,-16,-262,-14,-18,67,-3
7060,-19,-263,-16,-16,67,-1
7065,-15,-261,-15,-13,68,-3
7070,-17,-263,-17,-12,67,-4
7075,-18,-262,-18,-13,68,-4
7080,-20,-258,-15,-14,69,-5
7085,-20,-259,-16,-15,67,-5
7090,-18,-262,-15,-16,68,-5
7095,-17,-265,-13,-18,68,-5
7100,-18,-262,-18,-18,67,-4
7105,-19,-263,-15,-20,68,-5
7110,-14,-261,-13,-20,70,-4
7115,-18,-264,-16,-19,70,-5
7120,-16,-262,-18,-18,71,-5
7125,-15,-264,-16,-15,70,-5
7130,-22,-265,-13,-13,71,-5
7135,-19,-263,-18,-12,72,-7
7140,-22,-262,-17,-10,73,-7
7145,-20,-261,-15,-9,74,-6
7150,-19,-263,-19,-10,75,-4
7155,-18,-261,-14,-10,76,-6
7160,-18,-265,-16,-11,76,-6
7165,-16,-263,-15,-12,75,-6
7170,-17,-264,-16,-13,74,-5
7175,-21,-260,-13,-14,73,-5
7180,-18,-262,-17,-14,72,-4
7185,-17,-261,-16,-12,73,-4
7190,-15,-265,-17,-10,72,-6
7195,-19,-260,-21,-9,73,-7
7200,-19,-260,-13,-8,73,-8
7205,-18,-263,-12,-7,74,-7
7210,-18,-262,-17,-8,74,-7
7215,-21,-261,-18,-9,75,-8
7220,-18,-262,-15,-9,76,-8
7225,-19,-262,-14,-13,76,-7
7230,-17,-260,-17,-14,78,-6
7235,-20,-262,-13,-16,77,-4
7240,-18,-262,-14,-17,76,-2
7245,-18,-261,-13,-19,75,-2
7250,-20,-259,-16,-20,72,-4
7255,-17,-264,-17,-21,71,-2
7260,-18,-265,-16,-20,69,-2
7265,-20,-263,-15,-18,67,-1
7270,-17,-263,-15,-17,67,-3
7275,-18,-263,-17,-15,68,-4
7280,-20,-260,-15,-13,67,-4
7285,-20,-262,-12,-13,68,-4
7290,-20,-262,-17,-12,68,-2
7295,-20,-262,-14,-12,69,-5
7300,-19,-261,-15,-14,69,-3
7305,-20,-264,-15,-15,69,-4
7310,-16,-262,-17,-14,68,-3
7315,-18,-262,-17,-14,69,-4
7320,-19,-263,-17,-15,68,-2
7325,-18,-261,-18,-15,69,-3
7330,-17,-261,-17,-15,72,-5
7335,-16,-265,-16,-15,72,-4
7340,-17,-263,-16,-16,74,-5
7345,-20,-260,-14,-17,75,-8
7350,-20,-262,-17,-17,77,-5
7355,-15,-260,-14,-20,77,-7
7360,-17,-265,-19,-21,77,-7
7365,-17,-259,-12,-21,77,-7
7370,-19,-260,-18,-23,76,-8
7375,-19,-261,-15,-23,75,-7
7380,-18,-260,-17,-23,73,-8
7385,-18,-265,-11,-25,70,-6
7390,-17,-264,-15,-25,70,-5
7395,-18,-262,-14,-24,67,-3
7400,-21,-263,-16,-24,65,-1
7405,-20,-261,-19,-24,64,0
7410,-20,-264,-14,-22,63,1
7415,-21,-262,-20,-19,63,1
7420,-18,-263,-15,-18,62,1
7425,-18,-262,-15,-17,63,1
7430,-19,-261,-16,-16,63,1
7435,-19,-262,-13,-14,64,1
7440,-18,-261,-17,-12,64,2
7445,-23,-260,-15,-11,66,1
7450,-20,-260,-17,-11,68,1
7455,-15,-261,-16,-11,68,0
7460,-19,-262,-15,-12,67,1
7465,-19,-261,-14,-12,68,-2
7470,-15,-261,-15,-12,67,-2
7475,-17,-261,-18,-11,67,-4
7480,-20,-262,-16,-11,65,-4
7485,-18,-261,-19,-12,66,-5
7490,-19,-264,-17,-13,68,-5
7495,-19,-258,-16,-14,71,-5
7500,-17,-262,-15,-15,72,-5
7505,-16,-261,-16,-15,71,-6
7510,-16,-260,-19,-16,73,-5
7515,-17,-265,-14,-17,73,-6
7520,-21,-260,-15,-17,72,-7
7525,-18,-262,-16,-17,73,-5
7530,-20,-262,-17,-17,74,-7
7535,-19,-261,-17,-15,75,-5
7540,-21,-260,-17,-14,75,-6
7545,-22,-261,-15,-14,75,-7
7550,-18,-262,-18,-15,74,-5
7555,-18,-262,-17,-17,75,-5
7560,-19,-264,-16,-18,74,-6
7565,-21,-260,-16,-18,73,-5
7570,-18,-262,-18,-18,73,-6
7575,-22,-259,-16,-18,72,-6
7580,-19,-262,-16,-18,70,-5
7585,-19,-262,-15,-16,70,-6
7590,-19,-262,-15,-17,70,-7
7595,-19,-264,-18,-16,69,-5
7600,-20,-260,-16,-15,70,-7
7605,-19,-264,-20,-15,69,-6
7610,-22,-264,-18,-15,69,-7
7615,-19,-262,-18,-15,69,-5
7620,-19,-263,-18,-17,70,-5
7625,-22,-262,-18,-18,68,-3
7630,-20,-262,-17,-19,67,-3
7635,-19,-262,-12,-19,68,-3
7640,-17,-262,-16,-19,67,-2
7645,-16,-260,-20,-17,66,-3
7650,-19,-262,-17,-15,66,-3
7655,-19,-264,-21,-16,65,-2
7660,-19,-260,-20,-16,65,-1
7665,-20,-262,-17,-18,67,-2
7670,-18,-262,-16,-17,68,-3
7675,-18,-261,-16,-18,67,-4
7680,-19,-260,-19,-17,67,-6
7685,-14,-265,-18,-18,69,-6
7690,-19,-262,-17,-19,71,-6
7695,-20,-260,-17,-19,71,-7
7700,-15,-263,-20,-19,71,-9
7705,-19,-261,-18,-19,74,-9
7710,-20,-257,-17,-19,73,-8
7715,-17,-260,-17,-21,72,-8
7720,-15,-264,-14,-24,72,-9
7725,-21,-261,-14,-25,72,-7
7730,-19,-259,-17,-26,71,-8
7735,-19,-260,-14,-27,69,-7
7740,-19,-262,-18,-28,70,-8
7745,-19,-260,-14,-31,70,-5
7750,-19,-260,-21,-36,72,-4
7755,-20,-264,-17,-42,72,-4
7760,-21,-263,-18,-47,74,-5
7765,-21,-263,-17,-50,75,-4
7770,-19,-262,-21,-52,76,-5
7775,-17,-267,-22,-51,78,-8
7780,-19,-260,-22,-50,80,-11
7785,-19,-261,-18,-49,81,-13
7790,-17,-265,-20,-49,84,-15
7795,-19,-263,-19,-51,86,-18
7800,-18,-262,-20,-53,85,-18
7805,-17,-263,-20,-56,84,-20
7810,-18,-265,-18,-59,82,-20
7815,-16,-263,-22,-62,83,-20
7820,-18,-265,-19,-63,83,-19
7825,-17,-262,-17,-63,83,-19
7830,-17,-265,-15,-63,82,-17
7835,-21,-265,-16,-61,81,-17
7840,-20,-261,-14,-58,81,-14
7845,-17,-262,-15,-56,80,-12
7850,-17,-262,-17,-53,78,-8
7855,-18,-262,-14,-49,78,-4
7860,-19,-263,-9,-47,77,-2
7865,-17,-265,-16,-41,76,-1
7870,-17,-261,-11,-36,75,1
7875,-19,-260,-9,-31,73,1
7880,-15,-260,-12,-27,73,2
7885,-17,-260,-9,-22,70,3
7890,-18,-261,-7,-17,68,2
7895,-13,-262,-11,-13,65,2
7900,-14,-261,-10,-8,63,1
7905,-15,-262,-10,-3,61,-3
7910,-16,-263,-10,0,60,-1
7915,-17,-257,-14,3,61,-3
7920,-14,-260,-14,6,61,-4
7925,-16,-260,-13,9,63,-4
7930,-15,-260,-14,12,65,-7
7935,-14,-261,-11,14,68,-10
7940,-18,-258,-18,15,70,-12
7945,-14,-263,-11,14,71,-12
7950,-17,-259,-21,13,73,-12
7955,-20,-261,-19,11,76,-11
7960,-19,-260,-20,5,76,-9
7965,-18,-262,-21,-1,79,-7
7970,-20,-261,-20,-6,79,-3
7975,-21,-260,-17,-8,77,-2
7980,-18,-262,-20,-10,78,1
7985,-18,-264,-22,-11,75,4
7990,-21,-261,-21,-13,75,2
7995,-25,-261,-25,-14,75,2
8000,-17,-264,-21,-13,73,0
8005,-21,-264,-26,-14,72,2
8010,-18,-263,-21,-16,70,3
8015,-20,-260,-25,-19,69,4
8020,-20,-262,-24,-25,67,5
8025,-24,-260,-26,-34,64,7
8030,-18,-262,-25,-43,62,10
8035,-16,-262,-27,-54,61,12
8040,-16,-261,-23,-65,59,13
8045,-19,-261,-31,-76,58,15
8050,-19,-262,-27,-88,60,15
8055,-18,-262,-26,-97,62,14
8060,-17,-263,-25,-106,61,12
8065,-20,-264,-30,-111,62,9
8070,-18,-266,-27,-117,63,10
8075,-19,-264,-30,-122,64,8
8080,-19,-263,-30,-130,64,10
8085,-17,-260,-32,-141,65,11
8090,-19,-264,-34,-158,62,12
8095,-18,-262,-35,-181,62,13
8100,-15,-262,-36,-205,64,13
8105,-18,-266,-41,-230,67,11
8110,-12,-269,-40,-253,71,5
8115,-17,-270,-35,-274,79,-3
8120,-17,-271,-37,-293,86,-14
8125,-19,-272,-40,-306,96,-22
8130,-20,-276,-37,-310,103,-32
8135,-24,-273,-42,-303,111,-43
8140,-30,-277,-37,-287,119,-54
8145,-30,-277,-40,-272,129,-62
8150,-31,-278,-40,-261,136,-65
8155,-31,-277,-39,-257,146,-65
8160,-32,-277,-36,-250,151,-63
8165,-35,-279,-39,-239,159,-58
8170,-32,-274,-39,-233,164,-51
8175,-32,-278,-40,-239,170,-40
8180,-26,-278,-35,-249,173,-31
8185,-27,-273,-32,-252,178,-22
8190,-25,-272,-29,-241,188,-13
8195,-23,-273,-28,-221,204,-4
8200,-18,-269,-24,-197,223,5
8205,-16,-261,-26,-175,241,15
8210,-13,-263,-27,-153,256,23
8215,-7,-258,-26,-132,263,30
8220,-9,-255,-22,-113,264,36
8225,-3,-252,-28,-103,259,41
8230,-3,-249,-28,-105,253,46
8235,-1,-247,-32,-117,245,51
8240,-4,-245,-31,-135,228,49
8245,-3,-239,-29,-160,210,43
8250,-8,-237,-31,-188,190,34
8255,-9,-236,-29,-221,172,17
8260,-11,-236,-29,-257,164,0
8265,-12,-231,-24,-298,164,-13
8270,-18,-232,-23,-344,171,-20
8275,-21,-227,-17,-400,179,-24
8280,-14,-230,-14,-458,185,-19
8285,-16,-233,-11,-515,185,-5
8290,-15,-229,-2,-572,178,18
8295,-14,-229,-2,-622,169,46
8300,-11,-232,1,-666,158,72
8305,-9,-235,7,-705,145,98
8310,-4,-237,19,-734,126,121
8315,-1,-237,23,-751,98,143
8320,0,-240,27,-749,68,166
8325,-1,-246,22,-728,39,193
8330,-8,-256,16,-696,7,220
8335,-12,-264,10,-658,-23,240
8340,-21,-275,2,-617,-57,253
8345,-25,-287,-8,-570,-88,256
8350,-31,-294,-23,-509,-106,245
8355,-38,-300,-32,-440,-112,224
8360,-41,-303,-46,-379,-106,199
8365,-34,-300,-56,-345,-99,175
8370,-30,-300,-69,-343,-84,160
8375,-25,-302,-81,-372,-72,159
8380,-17,-302,-98,-424,-65,170
8385,-16,-296,-111,-482,-53,188
8390,-12,-288,-127,-545,-34,207
8395,-9,-278,-129,-615,0,224
8400,-1,-278,-130,-694,38,233
8405,2,-279,-119,-758,71,236
8410,3,-275,-111,-851,92,238
8415,2,-279,-92,-951,96,246
8420,1,-277,-82,-1047,85,259
8425,-5,-287,-63,-1133,59,273
8430,-10,-301,-42,-1216,16,281
8435,-17,-308,-29,-1283,-37,288
8440,-23,-318,-30,-1334,-100,286
8445,-27,-325,-35,-1377,-170,275
8450,-33,-340,-49,-1427,-242,258
8455,-37,-357,-69,-1482,-311,236
8460,-45,-375,-90,-1536,-362,203
8465,-52,-393,-97,-1581,-389,160
8470,-55,-407,-97,-1604,-391,118
8475,-54,-416,-91,-1596,-369,79
8480,-56,-418,-77,-1562,-334,50
8485,-55,-415,-68,-1515,-302,34
8490,-50,-410,-61,-1465,-279,27
8495,-50,-409,-61,-1405,-269,28
8500,-46,-403,-64,-1336,-262,34
8505,-46,-395,-68,-1262,-252,40
8510,-43,-384,-78,-1181,-232,44
8515,-46,-368,-85,-1111,-199,46
8520,-44,-353,-98,-1057,-154,47
8525,-40,-340,-105,-1029,-99,50
8530,-42,-321,-113,-1023,-40,52
8535,-40,-306,-119,-1038,23,57
8540,-44,-293,-124,-1069,91,69
8545,-43,-283,-127,-1105,155,84
8550,-43,-281,-130,-1144,219,102
8555,-48,-274,-136,-1171,280,118
8560,-47,-272,-139,-1177,328,129
8565,-53,-279,-143,-1172,375,137
8570,-63,-272,-145,-1163,417,145
8575,-69,-269,-146,-1152,453,153
8580,-72,-272,-151,-1142,477,162
8585,-76,-270,-146,-1142,486,176
8590,-77,-275,-151,-1169,475,187
8595,-74,-279,-154,-1197,448,190
8600,-74,-284,-161,-1216,407,184
8605,-65,-293,-167,-1207,355,177
8610,-65,-290,-179,-1157,303,169
8615,-66,-288,-182,-1081,252,161
8620,-64,-282,-190,-990,215,153
8625,-53,-268,-197,-894,202,149
8630,-48,-255,-196,-801,215,150
8635,-45,-247,-191,-702,240,161
8640,-39,-242,-190,-592,259,171
8645,-36,-240,-181,-470,276,178
8650,-30,-236,-175,-340,298,192
8655,-29,-237,-168,-210,319,205
8660,-25,-230,-163,-98,341,212
8665,-26,-226,-152,-10,356,198
8670,-18,-228,-144,62,355,171
8675,-12,-217,-142,117,341,141
8680,-20,-202,-143,149,318,123
8685,-17,-190,-142,157,290,104
8690,-21,-184,-136,130,267,91
8695,-15,-187,-136,86,240,89
8700,-8,-185,-140,31,221,93
8705,-12,-193,-132,-25,212,98
8710,-10,-199,-127,-64,215,101
8715,-13,-207,-128,-108,230,103
8720,-12,-214,-123,-143,253,110
8725,-22,-222,-126,-173,271,120
8730,-18,-227,-122,-199,299,126
8735,-21,-232,-121,-207,331,115
8740,-28,-236,-122,-208,361,103
8745,-32,-241,-125,-215,383,84
8750,-37,-240,-125,-220,399,75
8755,-39,-244,-126,-228,411,69
8760,-42,-248,-126,-234,420,60
8765,-43,-254,-122,-235,425,51
8770,-44,-256,-125,-232,425,42
8775,-46,-256,-119,-229,417,38
8780,-45,-258,-123,-224,406,36
8785,-48,-262,-121,-218,397,34
8790,-44,-268,-126,-215,389,31
8795,-48,-269,-125,-215,382,22
8800,-45,-270,-127,-216,368,8
8805,-46,-271,-126,-216,355,-12
8810,-46,-271,-130,-220,340,-41
8815,-46,-278,-129,-226,323,-68
8820,-37,-281,-129,-224,311,-90
8825,-40,-288,-129,-215,299,-114
8830,-38,-285,-130,-201,284,-153
8835,-34,-286,-133,-191,266,-189
8840,-31,-284,-140,-188,252,-225
8845,-34,-282,-145,-188,248,-256
8850,-29,-283,-146,-194,251,-281
8855,-28,-285,-147,-202,254,-303
8860,-21,-290,-143,-207,256,-323
8865,-12,-286,-140,-199,252,-343
8870,-8,-291,-131,-173,229,-370
8875,-5,-286,-133,-130,189,-385
8880,-5,-276,-138,-79,148,-387
8885,0,-267,-139,-39,116,-380
8890,0,-256,-148,-6,91,-361
8895,0,-248,-154,7,84,-347
8900,-2,-243,-152,5,81,-332
8905,-7,-233,-153,-6,88,-317
8910,-11,-229,-151,-28,96,-307
8915,-10,-229,-146,-45,93,-291
8920,-9,-230,-144,-53,95,-277
8925,-13,-222,-137,-52,107,-270
8930,-16,-221,-138,-40,121,-262
8935,-18,-215,-135,-28,129,-249
8940,-15,-214,-132,-26,135,-228
8945,-16,-205,-130,-28,145,-213
8950,-16,-203,-123,-30,152,-205
8955,-21,-202,-123,-26,149,-199
8960,-22,-197,-121,-9,136,-194
8965,-16,-195,-117,15,114,-188
8970,-17,-192,-110,45,88,-186
8975,-18,-187,-106,81,56,-183
8980,-16,-181,-105,117,29,-176
8985,-11,-175,-95,154,8,-165
8990,-12,-170,-95,192,-11,-149
8995,-6,-162,-87,230,-23,-134
9000,-6,-151,-80,265,-29,-119
9005,0,-147,-71,297,-33,-104
9010,1,-135,-69,328,-36,-96
9015,0,-127,-66,350,-42,-92
9020,1,-115,-59,366,-49,-89
9025,3,-107,-54,375,-56,-93
9030,0,-95,-50,375,-66,-104
9035,-1,-87,-44,373,-77,-118
9040,-2,-82,-46,367,-88,-134
9045,-9,-69,-42,350,-88,-155
9050,-11,-64,-38,342,-103,-166
9055,-16,-65,-39,336,-120,-176
9060,-19,-60,-38,340,-136,-185
9065,-17,-53,-37,363,-152,-192
9070,-11,-55,-41,399,-155,-196
9075,-15,-52,-42,459,-146,-204
9080,-16,-48,-52,533,-127,-212
9085,-22,-44,-56,602,-104,-217
9090,-19,-41,-62,678,-87,-209
9095,-14,-34,-63,755,-63,-200
9100,-9,-27,-77,830,-41,-206
9105,-11,-20,-81,867,-23,-222
9110,-14,-17,-86,877,-8,-236
9115,-22,-16,-83,872,-9,-236
9120,-17,-17,-89,861,-14,-216
9125,-8,-22,-93,846,-20,-197
9130,-1,-26,-97,815,-18,-187
9135,-3,-24,-95,777,-4,-188
9140,-3,-26,-94,729,10,-190
9145,-3,-36,-97,677,26,-186
9150,-1,-43,-96,627,46,-182
9155,-5,-51,-98,583,71,-190
9160,-9,-62,-100,548,94,-199
9165,-11,-68,-104,515,108,-200
9170,-10,-79,-107,475,111,-197
9175,-12,-87,-115,423,105,-191
9180,-15,-100,-119,365,96,-186
9185,-17,-116,-127,305,81,-180
9190,-17,-131,-127,247,60,-177
9195,-25,-151,-135,199,34,-172
9200,-24,-174,-137,155,12,-160
9205,-24,-194,-143,110,1,-151
9210,-23,-218,-148,71,2,-146
9215,-23,-241,-150,42,18,-140
9220,-23,-258,-152,30,43,-128
9225,-27,-277,-156,34,73,-108
9230,-26,-291,-157,47,101,-84
9235,-33,-308,-157,62,122,-52
9240,-33,-317,-157,74,126,-18
9245,-33,-323,-155,83,111,10
9250,-30,-334,-154,80,79,19
9255,-28,-336,-153,60,34,12
9260,-20,-336,-150,24,-11,-1
9265,-14,-339,-143,-17,-52,-16
9270,-8,-334,-133,-43,-91,-29
9275,-11,-322,-122,-35,-129,-43
9280,-5,-310,-119,4,-165,-49
9285,-8,-293,-110,60,-197,-46
9290,-5,-276,-104,122,-223,-39
9295,-6,-257,-101,178,-244,-28
9300,-1,-240,-97,230,-252,-11
9305,-2,-224,-98,273,-245,6
9310,1,-207,-96,307,-227,20
9315,-1,-192,-98,329,-198,29
9320,0,-184,-97,334,-164,35
9325,0,-184,-96,326,-129,34
9330,-2,-178,-94,311,-95,29
9335,-8,-176,-94,285,-70,23
9340,-8,-174,-96,257,-53,20
9345,-6,-178,-98,221,-38,17
9350,-8,-179,-99,182,-27,5
9355,-8,-185,-96,143,-19,-7
9360,-14,-189,-98,111,-15,-24
9365,-12,-195,-99,84,-15,-36
9370,-12,-200,-101,62,-21,-48
9375,-14,-205,-104,48,-29,-58
9380,-15,-211,-106,36,-39,-63
9385,-16,-211,-109,25,-50,-65
9390,-19,-220,-110,12,-59,-66
9395,-13,-224,-110,-4,-66,-67
9400,-18,-228,-115,-17,-74,-67
9405,-19,-237,-118,-28,-81,-66
9410,-21,-242,-122,-35,-86,-63
9415,-17,-246,-122,-42,-91,-63
9420,-21,-248,-125,-47,-95,-67
9425,-23,-251,-127,-55,-101,-68
9430,-22,-255,-127,-67,-109,-69
9435,-21,-255,-129,-82,-119,-70
9440,-18,-256,-125,-100,-128,-69
9445,-16,-253,-123,-113,-135,-67
9450,-16,-252,-118,-122,-142,-67
9455,-15,-252,-117,-124,-144,-63
9460,-12,-249,-111,-122,-147,-60
9465,-7,-249,-111,-112,-147,-60
9470,-4,-246,-107,-96,-145,-59
9475,-2,-247,-103,-77,-143,-60
9480,-1,-243,-103,-55,-137,-60
9485,1,-242,-101,-30,-132,-62
9490,0,-242,-99,-2,-123,-63
9495,-1,-237,-100,25,-117,-66
9500,-2,-237,-99,56,-111,-70
9505,-1,-235,-93,86,-107,-76
9510,-1,-234,-99,115,-102,-83
9515,-2,-234,-98,142,-94,-87
9520,-5,-231,-98,165,-84,-92
9525,-8,-228,-97,182,-71,-95
9530,-7,-229,-102,190,-59,-95
9535,-8,-228,-102,190,-46,-95
9540,-9,-227,-103,187,-35,-94
9545,-10,-225,-107,180,-26,-91
9550,-11,-225,-108,171,-20,-88
9555,-12,-224,-106,162,-17,-85
9560,-12,-228,-111,151,-17,-80
9565,-11,-223,-115,139,-19,-76
9570,-10,-228,-108,126,-21,-73
9575,-9,-227,-111,114,-26,-70
9580,-11,-227,-109,99,-30,-67
9585,-8,-233,-111,84,-34,-64
9590,-8,-228,-112,70,-36,-60
9595,-11,-230,-109,58,-38,-58
9600,-9,-234,-106,46,-39,-57
9605,-11,-233,-105,39,-39,-55
9610,-9,-234,-107,31,-37,-53
9615,-10,-236,-106,30,-33,-51
9620,-5,-236,-107,30,-29,-49
9625,-6,-235,-105,32,-24,-47
9630,-3,-236,-106,36,-19,-46
9635,-8,-232,-109,37,-14,-45
9640,-2,-232,-109,36,-6,-41
9645,-7,-233,-109,36,-2,-41
9650,-5,-233,-108,39,4,-41
9655,-4,-231,-106,39,7,-43
9660,-5,-229,-109,39,12,-40
9665,-4,-230,-106,38,19,-42
9670,-7,-231,-106,37,24,-43
9675,-5,-228,-101,32,30,-43
9680,-7,-231,-105,28,37,-47
9685,-10,-229,-102,24,42,-48
9690,-10,-231,-109,17,48,-48
9695,-11,-229,-105,10,55,-49
9700,-9,-232,-106,3,60,-49
9705,-15,-228,-106,-2,64,-48
9710,-12,-232,-101,-7,68,-47
9715,-16,-229,-103,-12,69,-46
9720,-14,-232,-105,-16,69,-44
9725,-13,-230,-100,-18,68,-42
9730,-16,-230,-99,-22,64,-39
9735,-17,-230,-102,-29,62,-37
9740,-16,-230,-98,-34,56,-35
9745,-17,-229,-102,-41,52,-34
9750,-19,-230,-103,-50,49,-32
9755,-18,-229,-101,-59,44,-31
9760,-15,-234,-99,-69,40,-32
9765,-17,-231,-100,-79,39,-29
9770,-17,-234,-98,-87,39,-27
9775,-18,-234,-98,-93,39,-27
9780,-17,-239,-102,-93,40,-27
9785,-17,-239,-100,-94,40,-27
9790,-15,-238,-100,-90,41,-25
9795,-16,-240,-98,-85,39,-25
9800,-17,-237,-102,-79,38,-24
9805,-17,-237,-103,-72,36,-26
9810,-12,-237,-101,-65,35,-27
9815,-14,-240,-99,-59,31,-28
9820,-15,-240,-102,-53,28,-28
9825,-14,-239,-103,-48,26,-31
9830,-13,-240,-100,-43,23,-31
9835,-13,-238,-103,-42,21,-33
9840,-15,-234,-100,-44,15,-34
9845,-16,-235,-104,-49,12,-35
9850,-16,-232,-105,-57,8,-34
9855,-14,-235,-102,-67,7,-34
9860,-16,-231,-104,-74,8,-32
9865,-15,-235,-98,-80,9,-34
9870,-17,-233,-103,-88,10,-34
9875,-15,-235,-107,-92,9,-33
9880,-20,-235,-101,-98,12,-31
9885,-17,-236,-99,-99,12,-31
9890,-18,-234,-100,-100,11,-32
9895,-16,-237,-103,-100,9,-31
9900,-18,-239,-101,-98,6,-31
9905,-17,-236,-99,-97,2,-31
9910,-17,-233,-99,-98,-1,-31
9915,-15,-237,-100,-98,-3,-33
9920,-13,-241,-97,-99,-5,-34
9925,-16,-236,-104,-97,-5,-35
9930,-17,-233,-100,-95,-7,-36
9935,-16,-236,-101,-93,-7,-37
9940,-16,-231,-101,-92,-8,-37
9945,-17,-233,-102,-89,-7,-40
9950,-14,-236,-103,-88,-9,-39
9955,-17,-234,-103,-88,-8,-41
9960,-15,-236,-105,-88,-6,-40
9965,-15,-236,-105,-90,-7,-42
9970,-12,-234,-105,-93,-5,-42
9975,-14,-236,-108,-96,-7,-43
9980,-15,-239,-108,-97,-8,-43
9985,-14,-237,-102,-98,-7,-41
9990,-15,-236,-107,-96,-9,-42
9995,-16,-235,-103,-94,-9,-41
10000,-16,-237,-100,-89,-11,-40
10005,-16,-239,-104,-88,-11,-39
10010,-13,-238,-108,-85,-10,-39
10015,-17,-235,-104,-81,-12,-37
10020,-13,-238,-104,-78,-12,-39
10025,-12,-239,-105,-77,-11,-39
10030,-15,-235,-103,-76,-9,-38
10035,-10,-236,-101,-73,-5,-40
10040,-13,-236,-100,-71,-4,-40
10045,-14,-234,-103,-68,-2,-41
10050,-11,-237,-99,-66,1,-41
10055,-15,-236,-101,-63,3,-42
10060,-13,-237,-98,-61,6,-42
10065,-15,-236,-104,-58,8,-44
10070,-16,-237,-101,-54,9,-45
10075,-14,-237,-104,-51,8,-44
10080,-13,-236,-106,-45,7,-43
10085,-13,-238,-105,-39,5,-44
10090,-14,-236,-106,-32,3,-42
10095,-15,-237,-104,-25,2,-42
10100,-14,-238,-103,-19,1,-43
10105,-15,-234,-107,-17,1,-42
10110,-15,-232,-104,-14,0,-42
10115,-12,-232,-105,-16,0,-42
10120,-13,-234,-106,-18,1,-42
10125,-15,-233,-104,-21,3,-40
10130,-13,-231,-106,-24,2,-42
10135,-15,-231,-109,-28,1,-43
10140,-14,-230,-107,-33,4,-43
10145,-13,-230,-105,-40,6,-43
10150,-13,-232,-111,-45,8,-42
10155,-13,-229,-108,-48,10,-43
10160,-11,-231,-105,-52,11,-42
10165,-13,-231,-108,-52,13,-42
10170,-12,-228,-107,-53,14,-43
10175,-13,-230,-109,-53,14,-42
10180,-13,-227,-109,-54,15,-40
10185,-13,-232,-113,-58,18,-38
10190,-11,-230,-107,-62,19,-37
10195,-7,-229,-112,-68,21,-37
10200,-10,-229,-110,-71,25,-35
10205,-9,-230,-114,-72,30,-33
10210,-10,-233,-111,-72,35,-34
10215,-6,-233,-111,-70,38,-31
10220,-10,-233,-113,-67,42,-30
10225,-9,-231,-109,-65,48,-28
10230,-3,-234,-111,-63,52,-26
10235,-9,-232,-112,-62,57,-25
10240,-9,-230,-107,-60,63,-22
10245,-12,-228,-113,-61,66,-18
10250,-8,-229,-113,-63,70,-17
10255,-5,-229,-106,-65,73,-12
10260,-9,-229,-113,-64,78,-10
10265,-7,-229,-110,-65,84,-7
10270,-11,-227,-112,-65,87,-4
10275,-9,-228,-112,-65,91,-3
10280,-10,-229,-110,-63,90,0
10285,-9,-229,-108,-64,93,3
10290,-10,-231,-111,-64,94,5
10295,-7,-232,-111,-65,95,8
10300,-8,-231,-114,-68,97,11
10305,-7,-232,-110,-70,97,12
10310,-12,-229,-113,-74,101,14
10315,-8,-232,-114,-79,104,17
10320,-11,-230,-114,-83,107,20
10325,-9,-233,-112,-88,113,21
10330,-11,-230,-111,-89,119,22
10335,-7,-231,-114,-92,124,23
10340,-10,-230,-115,-90,130,26
10345,-10,-231,-113,-87,139,28
10350,-7,-233,-113,-83,146,29
10355,-9,-232,-112,-78,152,30
10360,-10,-230,-113,-72,158,33
10365,-12,-232,-111,-66,162,34
10370,-11,-229,-108,-61,166,36
10375,-13,-230,-115,-57,168,37
10380,-13,-228,-115,-56,170,38
10385,-12,-227,-113,-54,172,40
10390,-14,-228,-111,-54,174,42
10395,-15,-224,-115,-57,175,43
10400,-12,-224,-115,-64,180,47
10405,-12,-225,-113,-71,183,50
10410,-15,-224,-114,-80,186,53
10415,-12,-225,-114,-91,192,56
10420,-14,-225,-115,-100,196,60
10425,-12,-228,-113,-108,200,63
10430,-12,-226,-118,-115,203,67
10435,-12,-227,-118,-120,205,69
10440,-13,-229,-116,-125,206,71
10445,-15,-228,-116,-127,207,72
10450,-12,-227,-115,-127,206,73
10455,-15,-228,-113,-126,206,75
10460,-13,-230,-118,-123,205,76
10465,-13,-229,-119,-119,204,76
10470,-16,-234,-115,-116,204,79
10475,-13,-229,-116,-112,203,81
10480,-15,-230,-116,-109,203,79
10485,-12,-229,-116,-105,202,79
10490,-15,-227,-114,-103,203,79
10495,-14,-228,-118,-101,205,78
10500,-16,-226,-115,-100,204,78
10505,-16,-225,-116,-98,205,78
10510,-17,-225,-114,-96,206,76
10515,-19,-224,-115,-98,209,77
10520,-17,-225,-114,-101,210,76
10525,-14,-229,-115,-102,212,77
10530,-17,-224,-116,-106,213,80
10535,-20,-225,-114,-112,213,80
10540,-17,-223,-112,-114,213,80
10545,-15,-227,-117,-117,213,82
10550,-19,-226,-120,-121,212,84
10555,-18,-227,-117,-125,208,84
10560,-21,-227,-118,-127,205,82
10565,-20,-224,-117,-130,200,82
10570,-19,-225,-114,-132,196,81
10575,-17,-227,-115,-135,193,81
10580,-21,-228,-115,-137,190,80
10585,-19,-224,-111,-138,186,80
10590,-17,-227,-116,-138,182,79
10595,-20,-226,-115,-138,178,80
10600,-20,-228,-115,-135,174,80
10605,-17,-227,-111,-133,168,77
10610,-17,-223,-113,-131,160,75
10615,-19,-226,-110,-128,153,72
10620,-19,-227,-111,-128,144,70
10625,-21,-224,-107,-132,134,67
10630,-18,-226,-110,-137,127,63
10635,-17,-223,-109,-145,116,57
10640,-17,-226,-110,-155,109,51
10645,-10,-224,-112,-167,103,44
10650,-7,-220,-117,-182,105,35
10655,-4,-218,-119,-202,116,21
10660,1,-216,-122,-225,134,4
10665,5,-214,-124,-253,159,-14
10670,9,-212,-127,-285,188,-33
10675,10,-214,-128,-316,219,-51
10680,15,-213,-129,-349,248,-69
10685,16,-218,-122,-379,275,-84
10690,25,-219,-121,-402,298,-93
10695,26,-224,-123,-420,318,-99
10700,25,-228,-119,-428,331,-101
10705,32,-239,-120,-421,339,-99
10710,29,-240,-112,-400,340,-94
10715,31,-249,-113,-366,335,-87
10720,26,-255,-107,-321,322,-79
10725,20,-258,-111,-265,301,-66
10730,12,-259,-106,-205,269,-54
10735,8,-263,-107,-140,230,-46
10740,3,-264,-109,-79,186,-40
10745,-2,-262,-107,-26,137,-36
10750,0,-263,-110,19,91,-37
10755,-3,-263,-112,55,52,-43
10760,-5,-258,-117,82,23,-48
10765,-11,-256,-111,104,2,-51
10770,-11,-254,-116,123,-13,-55
10775,-12,-253,-115,142,-24,-54
10780,-15,-244,-117,161,-33,-51
10785,-15,-239,-121,178,-38,-47
10790,-16,-234,-118,191,-45,-39
10795,-11,-230,-120,196,-51,-31
10800,-13,-226,-120,190,-58,-22
10805,-8,-216,-123,174,-62,-10
10810,-6,-217,-124,150,-64,2
10815,-1,-214,-124,118,-64,12
10820,2,-209,-125,83,-57,24
10825,1,-211,-122,46,-45,33
10830,8,-207,-120,12,-32,43
10835,9,-209,-117,-13,-19,49
10840,11,-214,-122,-32,-5,56
10845,11,-211,-120,-43,7,62
10850,10,-213,-120,-49,19,64
10855,14,-225,-120,-51,28,66
10860,12,-221,-118,-47,36,68
10865,11,-231,-117,-36,45,69
10870,8,-236,-115,-20,51,66
10875,3,-233,-118,1,56,66
10880,4,-241,-118,22,61,64
10885,1,-241,-111,46,64,63
10890,0,-244,-113,68,64,62
10895,-8,-242,-117,89,63,62
10900,-5,-245,-112,110,61,59
10905,-11,-243,-115,129,58,59
10910,-13,-247,-113,146,56,56
10915,-15,-243,-114,163,52,56
10920,-21,-239,-116,178,48,57
10925,-20,-241,-115,193,46,58
10930,-24,-235,-114,205,46,58
10935,-25,-233,-114,215,45,59
10940,-25,-231,-111,223,44,58
10945,-26,-227,-113,228,42,58
10950,-25,-227,-115,233,39,57
10955,-27,-220,-112,235,34,54
10960,-23,-225,-110,236,29,49
10965,-22,-220,-116,232,25,44
10970,-23,-216,-115,228,19,39
10975,-26,-215,-115,220,18,35
10980,-17,-216,-116,210,15,28
10985,-21,-213,-117,201,10,22
10990,-19,-215,-113,191,6,13
10995,-20,-213,-115,179,1,5
11000,-17,-219,-117,167,-5,-1
11005,-18,-217,-116,156,-12,-8
11010,-16,-219,-116,144,-18,-14
11015,-20,-217,-116,131,-21,-18
11020,-16,-221,-117,119,-25,-23
11025,-16,-222,-122,105,-28,-25
11030,-16,-225,-123,89,-28,-27
11035,-15,-225,-122,76,-28,-29
11040,-15,-225,-119,66,-29,-28
11045,-12,-230,-118,58,-26,-29
11050,-12,-229,-121,54,-24,-31
11055,-10,-231,-118,52,-22,-32
11060,-10,-233,-116,50,-19,-33
11065,-9,-234,-115,51,-16,-35
11070,-8,-231,-117,55,-13,-37
11075,-10,-235,-112,62,-9,-37
11080,-8,-232,-112,72,-5,-39
11085,-11,-235,-109,85,-2,-41
11090,-9,-236,-112,97,0,-44
11095,-14,-231,-114,111,2,-44
11100,-12,-232,-111,123,3,-45
11105,-15,-229,-110,137,3,-47
11110,-16,-231,-109,150,2,-46
11115,-15,-229,-112,161,-1,-48
11120,-18,-225,-107,170,-2,-46
11125,-18,-228,-105,173,-4,-46
11130,-18,-225,-109,174,-7,-45
11135,-19,-230,-106,175,-8,-44
11140,-20,-228,-112,174,-12,-44
11145,-20,-232,-108,171,-15,-42
11150,-19,-229,-108,167,-20,-42
11155,-16,-231,-109,162,-23,-41
11160,-17,-233,-106,157,-27,-40
11165,-18,-230,-109,151,-33,-40
11170,-19,-232,-107,147,-36,-39
11175,-15,-232,-108,144,-39,-39
11180,-16,-233,-108,143,-42,-39
11185,-18,-233,-106,145,-44,-38
11190,-19,-234,-110,147,-48,-39
11195,-16,-236,-110,149,-50,-41
11200,-15,-236,-111,153,-50,-43
11205,-16,-234,-105,154,-53,-45
11210,-15,-234,-110,156,-53,-45
11215,-19,-233,-110,160,-53,-47
11220,-13,-235,-107,163,-51,-47
11225,-15,-235,-112,164,-51,-48
11230,-16,-232,-110,166,-53,-49
11235,-18,-229,-108,165,-53,-50
11240,-17,-233,-107,165,-51,-49
11245,-12,-231,-111,162,-51,-50
11250,-17,-228,-111,155,-50,-53
11255,-16,-228,-109,149,-48,-52
11260,-16,-226,-108,139,-48,-52
11265,-15,-228,-109,132,-49,-54
11270,-14,-229,-108,120,-50,-57
11275,-17,-229,-108,111,-47,-59
11280,-15,-228,-104,103,-47,-59
11285,-17,-232,-105,96,-47,-57
11290,-17,-230,-106,90,-46,-60
11295,-12,-232,-103,88,-46,-59
11300,-17,-232,-104,87,-46,-59
11305,-19,-230,-103,88,-48,-58
11310,-14,-233,-105,92,-50,-57
11315,-16,-235,-107,96,-53,-56
11320,-15,-234,-108,102,-58,-56
11325,-17,-234,-100,109,-61,-56
11330,-17,-237,-102,115,-64,-57
11335,-17,-233,-102,119,-68,-56
11340,-18,-235,-102,122,-72,-57
11345,-19,-233,-105,124,-73,-57
11350,-18,-236,-102,125,-77,-57
11355,-20,-234,-104,124,-75,-57
11360,-19,-235,-102,122,-74,-59
11365,-14,-238,-106,122,-73,-61
11370,-15,-236,-105,122,-72,-60
11375,-16,-238,-104,123,-69,-60
11380,-17,-235,-103,126,-68,-60
11385,-15,-240,-102,127,-68,-59
11390,-15,-237,-105,127,-68,-58
11395,-14,-237,-105,129,-69,-57
11400,-15,-236,-103,128,-70,-56
11405,-14,-238,-105,127,-70,-55
11410,-11,-233,-103,126,-70,-55
11415,-16,-232,-104,126,-71,-53
11420,-16,-235,-107,123,-69,-52
11425,-15,-229,-105,120,-69,-50
11430,-10,-231,-104,116,-66,-49
11435,-11,-234,-106,111,-63,-49
11440,-16,-229,-102,105,-59,-47
11445,-14,-228,-104,101,-54,-45
11450,-15,-229,-103,95,-52,-45
11455,-13,-232,-105,90,-48,-41
11460,-13,-229,-103,85,-43,-40
11465,-12,-230,-105,81,-38,-39
11470,-12,-231,-106,76,-34,-38
11475,-13,-231,-102,70,-31,-37
11480,-11,-232,-109,66,-27,-38
11485,-16,-227,-107,63,-24,-37
11490,-12,-232,-104,60,-19,-34
11495,-12,-236,-105,56,-15,-35
11500,-14,-232,-107,52,-13,-33
11505,-12,-234,-106,47,-10,-35
11510,-16,-234,-103,46,-9,-34
11515,-16,-235,-106,42,-5,-34
11520,-14,-232,-106,40,-3,-32
11525,-15,-234,-104,38,0,-30
11530,-14,-238,-101,36,4,-30
11535,-16,-234,-102,32,6,-28
11540,-13,-236,-104,29,10,-26
11545,-19,-233,-101,26,11,-24
11550,-17,-232,-107,23,13,-21
11555,-16,-231,-99,21,16,-20
11560,-14,-230,-102,17,17,-19
11565,-12,-234,-100,14,19,-17
11570,-14,-233,-101,10,20,-16
11575,-15,-233,-102,4,21,-16
11580,-16,-232,-101,-2,23,-15
11585,-15,-235,-101,-7,25,-16
11590,-18,-235,-101,-14,29,-16
11595,-16,-236,-103,-18,32,-14
11600,-15,-238,-100,-22,35,-14
11605,-17,-237,-101,-22,37,-12
11610,-14,-237,-99,-21,40,-11
11615,-14,-236,-102,-18,40,-9
11620,-16,-235,-104,-16,42,-7
11625,-13,-235,-104,-15,43,-5
11630,-10,-237,-101,-14,43,-6
11635,-16,-238,-103,-11,45,-6
11640,-15,-237,-100,-9,46,-5
11645,-16,-237,-104,-9,48,-6
11650,-17,-233,-101,-8,49,-7
11655,-16,-234,-100,-10,50,-6
11660,-16,-235,-99,-13,50,-6
11665,-15,-235,-101,-16,51,-5
11670,-16,-234,-96,-20,52,-6
11675,-17,-234,-100,-24,55,-5
11680,-16,-231,-98,-30,57,-5
11685,-15,-235,-100,-33,59,-6
11690,-18,-236,-98,-36,61,-5
11695,-18,-237,-99,-39,63,-5
11700,-17,-235,-101,-40,63,-5
11705,-17,-237,-100,-43,65,-4
11710,-18,-239,-98,-47,67,-4
11715,-16,-237,-102,-49,66,-2
11720,-15,-239,-99,-51,66,-2
11725,-18,-236,-99,-52,65,-3
11730,-14,-237,-99,-54,64,-4
11735,-16,-236,-96,-56,64,-4
11740,-17,-239,-100,-61,63,-3
11745,-17,-237,-99,-63,63,-4
11750,-16,-237,-97,-66,64,-6
11755,-18,-237,-96,-66,65,-6
11760,-18,-235,-100,-67,66,-6
11765,-19,-241,-99,-67,67,-6
11770,-17,-233,-97,-65,67,-7
11775,-17,-240,-100,-63,68,-7
11780,-15,-241,-92,-60,68,-9
11785,-17,-240,-96,-56,69,-8
11790,-17,-239,-98,-54,69,-8
11795,-16,-239,-101,-52,70,-6
11800,-13,-240,-101,-49,69,-7
11805,-15,-239,-95,-49,70,-7
11810,-12,-238,-98,-49,72,-7
11815,-14,-239,-96,-51,75,-7
11820,-14,-239,-95,-51,76,-6
11825,-11,-242,-97,-54,78,-6
11830,-10,-242,-93,-55,79,-5
11835,-14,-238,-98,-55,80,-4
11840,-13,-236,-94,-55,81,-4
11845,-16,-242,-96,-55,82,-5
11850,-10,-239,-95,-53,83,-4
11855,-15,-239,-95,-53,83,-4
11860,-13,-238,-97,-54,84,-2
11865,-11,-238,-97,-53,85,-1
11870,-14,-238,-97,-52,85,0
11875,-15,-238,-97,-52,83,0
11880,-13,-238,-95,-51,84,2
11885,-16,-238,-98,-52,84,3
11890,-14,-239,-95,-54,85,5
11895,-15,-239,-97,-55,87,5
11900,-13,-239,-98,-58,87,5
11905,-15,-239,-95,-60,89,5
11910,-14,-240,-100,-61,90,6
11915,-12,-238,-97,-61,92,7
11920,-13,-240,-97,-60,93,7
11925,-15,-242,-97,-58,95,6
11930,-14,-240,-98,-56,97,8
11935,-15,-237,-97,-55,98,8
11940,-15,-239,-95,-52,100,8
11945,-14,-237,-98,-50,101,8
11950,-11,-238,-95,-48,103,6
11955,-15,-236,-97,-47,103,6
11960,-12,-241,-98,-47,102,8
11965,-14,-237,-102,-46,104,7
11970,-13,-240,-98,-45,105,7
11975,-16,-239,-98,-43,106,7
11980,-12,-237,-96,-41,107,8
11985,-16,-238,-96,-40,106,8
11990,-14,-239,-93,-40,106,9
11995,-12,-238,-96,-40,107,6
