timestamp,acc_x,acc_y,acc_z,gyro_x,gyro_y,gyro_z
0,-5,-251,-46,-19,62,-3
5,-5,-254,-45,-17,62,-3
10,-10,-255,-42,-17,64,-2
15,-7,-251,-43,-18,63,0
20,-6,-253,-41,-21,63,-1
25,-11,-251,-38,-24,62,0
30,-7,-252,-42,-25,62,0
35,-8,-254,-41,-24,62,-1
40,-6,-254,-40,-23,62,-1
45,-8,-252,-44,-22,65,-1
50,-8,-251,-40,-20,67,1
55,-9,-252,-41,-20,71,-1
60,-9,-251,-40,-21,73,-1
65,-2,-255,-40,-22,73,-1
70,-6,-254,-41,-21,73,-2
75,-8,-254,-40,-19,74,-2
80,-6,-253,-42,-18,74,-1
85,-6,-254,-43,-17,75,-1
90,-6,-254,-43,-17,75,-2
95,-11,-252,-41,-18,72,-1
100,-6,-252,-44,-18,71,-1
105,-6,-254,-43,-18,70,-1
110,-5,-253,-45,-20,70,-1
115,-8,-255,-39,-22,70,0
120,-9,-250,-43,-24,71,0
125,-4,-256,-44,-24,71,1
130,-9,-251,-44,-24,73,0
135,-6,-254,-42,-21,73,2
140,-8,-255,-42,-18,73,1
145,-4,-257,-42,-16,73,2
150,-8,-255,-42,-13,74,2
155,-8,-256,-42,-8,74,1
160,-7,-255,-42,-7,77,1
165,-7,-254,-43,-7,76,0
170,-5,-253,-43,-8,75,0
175,-6,-254,-45,-10,74,-1
180,-7,-254,-42,-10,74,-1
185,-7,-253,-42,-9,71,-2
190,-7,-253,-39,-9,69,-3
195,-5,-254,-41,-8,68,-3
200,-7,-252,-42,-8,69,-3
205,-9,-254,-43,-7,68,-3
210,-7,-250,-42,-8,68,-2
215,-10,-250,-43,-10,67,-2
220,-8,-253,-42,-15,68,-2
225,-8,-252,-40,-17,68,-3
230,-7,-252,-39,-18,68,-2
235,-8,-254,-42,-20,68,-1
240,-8,-257,-45,-20,69,-1
245,-6,-257,-43,-18,68,0
250,-11,-254,-37,-16,70,-1
255,-6,-254,-43,-16,71,1
260,-5,-252,-44,-12,71,0
265,-9,-252,-42,-10,70,-1
270,-8,-256,-42,-10,70,0
275,-9,-251,-41,-10,70,0
280,-8,-251,-45,-8,70,0
285,-7,-255,-44,-7,70,0
290,-8,-253,-41,-7,70,0
295,-10,-254,-42,-6,69,0
300,-10,-252,-41,-5,71,-3
305,-6,-255,-42,-4,71,-3
310,-6,-257,-45,-3,71,-3
315,-5,-253,-41,-4,73,-4
320,-5,-253,-38,-5,72,-3
325,-8,-253,-40,-8,72,-3
330,-6,-254,-41,-8,71,-2
335,-6,-252,-39,-9,71,-2
340,-8,-251,-42,-7,70,-1
345,-8,-253,-44,-5,70,-2
350,-8,-253,-41,-4,70,-2
355,-7,-252,-41,-4,68,-1
360,-8,-251,-43,-4,69,-1
365,-4,-253,-42,-5,68,-2
370,-8,-250,-41,-7,67,-2
375,-7,-250,-43,-9,67,-3
380,-8,-250,-41,-9,66,-4
385,-8,-251,-39,-12,66,-5
390,-7,-253,-40,-14,64,-5
395,-8,-254,-42,-16,65,-5
400,-6,-252,-42,-16,66,-5
405,-11,-255,-40,-16,66,-6
410,-6,-255,-39,-14,66,-5
415,-8,-254,-39,-13,69,-4
420,-8,-253,-38,-12,69,-4
425,-3,-255,-43,-13,69,-4
430,-5,-254,-41,-10,69,-4
435,-7,-253,-42,-9,68,-2
440,-9,-253,-47,-7,67,-2
445,-6,-256,-43,-7,66,-1
450,-7,-253,-39,-6,64,-2
455,-6,-255,-43,-8,63,0
460,-5,-253,-43,-8,62,-1
465,-6,-253,-43,-8,60,0
470,-9,-253,-45,-6,59,0
475,-8,-251,-42,-6,58,-2
480,-9,-250,-39,-7,58,-3
485,-9,-257,-42,-7,60,-4
490,-8,-255,-46,-7,62,-5
495,-8,-254,-44,-7,63,-4
500,-5,-256,-41,-5,64,-5
505,-10,-251,-41,-6,65,-5
510,-7,-254,-42,-4,65,-5
515,-8,-253,-41,-5,67,-6
520,-7,-257,-43,-4,66,-7
525,-9,-250,-42,-6,66,-5
530,-7,-252,-40,-6,66,-5
535,-9,-252,-44,-9,67,-5
540,-7,-252,-38,-8,66,-3
545,-9,-252,-40,-5,66,-3
550,-2,-253,-43,-4,65,-2
555,-5,-252,-42,-2,65,-3
560,-7,-249,-41,-3,65,-2
565,-4,-253,-37,-4,66,-2
570,-1,-255,-39,-4,66,-3
575,-3,-253,-45,-4,68,-4
580,-5,-255,-41,-5,69,-2
585,-4,-252,-42,-5,69,-3
590,-4,-255,-46,-7,69,-4
595,-7,-250,-42,-10,69,-4
600,-7,-253,-43,-11,70,-6
605,-7,-253,-42,-13,69,-7
610,-9,-254,-44,-15,68,-7
615,-7,-253,-43,-16,67,-7
620,-9,-254,-41,-14,68,-5
625,-11,-255,-41,-13,67,-6
630,-10,-254,-40,-10,67,-5
635,-9,-255,-47,-7,67,-4
640,-10,-254,-46,-3,68,-3
645,-9,-254,-44,-3,68,-3
650,-7,-255,-41,-3,68,-4
655,-9,-252,-46,-4,67,-3
660,-7,-256,-44,-6,66,-3
665,-8,-255,-38,-7,63,-3
670,-11,-255,-43,-8,62,-4
675,-13,-252,-49,-5,61,-3
680,-8,-253,-44,-2,62,-3
685,-9,-255,-47,2,63,-3
690,-7,-252,-42,6,65,-2
695,-8,-254,-45,7,65,-3
700,-3,-253,-45,7,65,-4
705,-6,-252,-46,7,67,-3
710,-7,-252,-41,7,65,-4
715,-5,-252,-40,6,65,-4
720,-7,-254,-37,5,64,-4
725,-7,-254,-42,5,64,-5
730,-9,-252,-38,3,64,-3
735,-3,-256,-37,1,67,-3
740,-8,-255,-43,1,68,-4
745,-6,-255,-40,3,69,-5
750,-9,-249,-39,3,70,-4
755,-6,-254,-41,3,69,-4
760,-6,-253,-41,2,69,-5
765,-9,-249,-40,0,68,-5
770,-9,-251,-40,-3,70,-5
775,-6,-251,-42,-6,71,-6
780,-6,-255,-40,-8,68,-7
785,-7,-254,-41,-10,69,-6
790,-4,-253,-40,-12,70,-7
795,-7,-254,-43,-13,71,-6
800,-9,-252,-39,-13,72,-7
805,-8,-255,-40,-12,73,-8
810,-7,-256,-42,-11,74,-7
815,-8,-256,-42,-8,73,-6
820,-8,-256,-42,-7,73,-7
825,-7,-255,-40,-6,72,-7
830,-7,-255,-42,-5,71,-7
835,-6,-256,-41,-4,69,-7
840,-8,-253,-43,-6,68,-7
845,-8,-255,-44,-7,69,-8
850,-8,-251,-40,-6,68,-7
855,-7,-252,-43,-4,67,-7
860,-8,-251,-42,-5,67,-5
865,-9,-249,-41,-6,69,-7
870,-7,-252,-42,-5,68,-7
875,-8,-250,-37,-5,68,-5
880,-7,-252,-40,-5,69,-4
885,-8,-255,-42,-2,67,-3
890,-6,-253,-45,-1,65,-5
895,-7,-253,-35,-2,65,-5
900,-8,-249,-42,-6,65,-4
905,-5,-252,-43,-11,65,-4
910,-7,-253,-44,-16,63,-3
915,-7,-255,-43,-19,64,-3
920,-6,-254,-43,-21,63,-3
925,-9,-254,-44,-22,64,-3
930,-5,-260,-40,-22,63,-4
935,-9,-255,-36,-20,64,-3
940,-8,-255,-39,-17,66,-4
945,-9,-253,-36,-14,68,-3
950,-9,-252,-40,-10,67,-3
955,-7,-252,-41,-9,70,-3
960,-5,-254,-43,-6,69,-4
965,-7,-254,-39,-5,71,-3
970,-3,-256,-40,-7,72,-2
975,-3,-253,-39,-7,71,-3
980,-9,-251,-40,-7,71,-3
985,-4,-254,-40,-7,70,-2
990,-3,-255,-41,-9,70,-3
995,-8,-253,-38,-11,72,-3
1000,-9,-253,-39,-11,73,-3
1005,-4,-251,-41,-12,73,-3
1010,-9,-251,-40,-12,74,-2
1015,-9,-255,-42,-12,74,-2
1020,-7,-255,-42,-11,74,-2
1025,-5,-255,-40,-8,73,-1
1030,-9,-253,-43,-5,73,-2
1035,-4,-256,-41,-5,71,-2
1040,-5,-256,-38,-2,71,-3
1045,-9,-250,-38,-2,71,-3
1050,-4,-253,-37,-1,70,-2
1055,-6,-256,-40,0,70,-3
1060,-8,-253,-40,-1,70,-3
1065,-4,-254,-38,-1,70,-4
1070,-8,-253,-37,-1,71,-2
1075,-5,-256,-41,-3,72,-2
1080,-3,-252,-42,-5,73,-2
1085,-5,-258,-39,-5,72,-1
1090,-4,-253,-43,-5,72,-1
1095,-10,-252,-41,-4,71,-2
1100,-4,-254,-39,-7,71,-1
1105,-5,-254,-39,-7,70,-2
1110,-5,-252,-37,-6,70,0
1115,-4,-257,-38,-5,70,-1
1120,-6,-253,-42,-4,69,-2
1125,-6,-254,-38,-4,70,-3
1130,-3,-254,-41,-3,71,-4
1135,-4,-253,-37,-3,70,-4
1140,-4,-252,-40,-6,71,-4
1145,-8,-249,-40,-7,73,-4
1150,-8,-253,-39,-7,71,-4
1155,-6,-256,-39,-6,69,-3
1160,-9,-254,-39,-6,71,-3
1165,-9,-252,-37,-5,70,-2
1170,-7,-251,-41,-4,69,-3
1175,-6,-254,-39,-6,69,-3
1180,-9,-256,-40,-8,68,-2
1185,-8,-254,-42,-8,67,-1
1190,-8,-254,-40,-9,67,-2
1195,-6,-253,-40,-9,67,-3
1200,-7,-255,-45,-8,69,-4
1205,-6,-253,-39,-7,69,-5
1210,-3,-252,-39,-6,69,-5
1215,-7,-254,-41,-6,70,-5
1220,-2,-252,-40,-4,70,-5
1225,-5,-256,-41,-4,71,-5
1230,-5,-253,-41,-3,71,-5
1235,-7,-252,-39,-3,71,-4
1240,-6,-255,-39,-4,71,-4
1245,-6,-253,-40,-4,73,-4
1250,-3,-255,-36,-5,70,-4
1255,-6,-253,-41,-2,70,-3
1260,-7,-253,-40,-1,71,-3
1265,-5,-251,-42,1,69,-3
1270,-8,-253,-42,1,69,-4
1275,-7,-254,-38,-1,68,-5
1280,-6,-252,-38,-2,67,-5
1285,-4,-252,-39,-5,67,-5
1290,-9,-252,-42,-5,67,-6
1295,-7,-254,-39,-5,69,-6
1300,-7,-250,-41,-6,70,-7
1305,-7,-253,-40,-8,71,-5
1310,-8,-254,-41,-9,70,-5
1315,-6,-253,-36,-10,72,-6
1320,-3,-257,-41,-9,71,-5
1325,-6,-256,-39,-7,70,-5
1330,-1,-263,-36,-4,69,-6
1335,-8,-257,-40,-3,70,-5
1340,-6,-254,-38,-2,68,-5
1345,-8,-254,-42,-2,67,-6
1350,-3,-255,-42,-5,65,-5
1355,-7,-254,-40,-6,63,-4
1360,-7,-257,-43,-6,62,-4
1365,-8,-255,-41,-3,62,-4
1370,-7,-256,-41,1,62,-3
1375,-6,-252,-38,3,63,-3
1380,-8,-255,-37,5,63,-2
1385,-5,-255,-44,6,64,-2
1390,-7,-252,-36,7,65,-3
1395,-8,-252,-41,4,65,-2
1400,-9,-254,-42,3,65,-3
1405,-6,-250,-39,1,65,-3
1410,-6,-253,-39,0,66,-5
1415,-6,-253,-43,0,67,-4
1420,-6,-257,-39,-1,69,-5
1425,-8,-254,-37,0,70,-4
1430,-6,-255,-39,0,71,-5
1435,-11,-253,-41,-2,73,-5
1440,-14,-253,-36,-2,74,-6
1445,-6,-252,-39,-4,74,-4
1450,-5,-255,-37,-4,76,-5
1455,-5,-253,-39,-4,75,-5
1460,-7,-251,-40,-6,74,-3
1465,-9,-252,-42,-8,72,-2
1470,-8,-254,-41,-8,71,-1
1475,-4,-255,-38,-8,69,-3
1480,-6,-253,-42,-7,69,-4
1485,-7,-255,-40,-9,68,-2
1490,-6,-254,-42,-8,68,-3
1495,-3,-253,-39,-7,68,-3
1500,-6,-254,-38,-6,67,-4
1505,-8,-255,-41,-4,67,-2
1510,-7,-252,-41,-1,67,-3
1515,-3,-255,-42,-1,68,-3
1520,-8,-256,-40,1,69,-2
1525,-4,-254,-43,1,70,-3
1530,-8,-254,-38,0,71,-4
1535,-7,-254,-37,-1,72,-3
1540,-8,-252,-39,-1,70,-3
1545,-7,-253,-37,-1,71,-2
1550,-7,-254,-39,-3,70,-3
1555,-8,-252,-41,-3,70,-3
1560,-5,-254,-36,-2,70,-5
1565,-7,-253,-38,0,67,-5
1570,-7,-251,-37,1,68,-5
1575,-7,-252,-41,1,67,-4
1580,-8,-251,-41,0,67,-5
1585,-6,-251,-40,-2,69,-4
1590,-8,-249,-39,-3,69,-6
1595,-11,-252,-39,-5,67,-4
1600,-8,-255,-37,-6,65,-5
1605,-5,-254,-34,-7,66,-5
1610,-6,-255,-38,-7,67,-5
1615,-5,-255,-38,-7,68,-4
1620,-5,-254,-39,-8,68,-3
1625,-7,-255,-41,-9,70,-4
1630,-7,-252,-36,-8,70,-4
1635,-3,-254,-40,-10,70,-4
1640,-5,-252,-37,-7,69,-4
1645,-6,-253,-37,-5,70,-3
1650,-9,-255,-34,-5,71,-4
1655,-5,-254,-36,-5,71,-5
1660,-9,-251,-38,-5,72,-4
1665,-5,-256,-38,-6,73,-4
1670,-6,-254,-40,-7,73,-5
1675,-6,-254,-36,-8,73,-3
1680,-7,-253,-34,-10,74,-4
1685,-7,-252,-37,-10,75,-4
1690,-9,-253,-41,-10,73,-4
1695,-9,-255,-39,-10,73,-5
1700,-8,-255,-35,-10,72,-4
1705,-7,-255,-36,-12,72,-5
1710,-10,-252,-42,-15,73,-5
1715,-8,-255,-44,-16,73,-6
1720,-8,-256,-42,-18,73,-6
1725,-9,-253,-42,-18,72,-5
1730,-6,-256,-39,-18,73,-6
1735,-7,-254,-39,-18,72,-5
1740,-7,-254,-41,-18,72,-5
1745,-7,-252,-39,-18,72,-2
1750,-5,-257,-38,-17,72,-2
1755,-6,-257,-40,-16,71,-3
1760,-6,-256,-40,-14,70,-4
1765,-8,-252,-36,-13,68,-2
1770,-6,-255,-37,-12,67,-2
1775,-8,-252,-40,-12,67,-2
1780,-9,-255,-38,-14,69,-2
1785,-10,-254,-37,-14,68,-2
1790,-7,-254,-42,-15,68,-3
1795,-7,-253,-39,-15,69,-2
1800,-9,-253,-39,-14,70,-3
1805,-5,-255,-38,-16,70,-2
1810,-5,-255,-37,-15,71,-1
1815,-6,-251,-37,-14,71,-2
1820,-8,-254,-36,-13,70,-1
1825,-6,-254,-37,-13,71,0
1830,-6,-251,-37,-13,71,-1
1835,-10,-255,-36,-13,73,-1
1840,-7,-253,-38,-15,73,-1
1845,-8,-253,-39,-15,73,0
1850,-8,-253,-38,-17,72,-1
1855,-8,-252,-39,-17,72,-1
1860,-7,-250,-34,-16,72,-3
1865,-9,-254,-38,-13,71,-3
1870,-6,-255,-37,-10,72,-3
1875,-6,-253,-37,-10,72,-2
1880,-8,-253,-39,-11,70,-3
1885,-7,-253,-40,-11,71,-4
1890,-9,-252,-40,-12,70,-5
1895,-2,-250,-37,-12,68,-5
1900,-8,-254,-40,-11,68,-4
1905,-3,-252,-40,-12,68,-3
1910,-6,-251,-38,-12,67,-2
1915,-10,-251,-38,-13,67,-3
1920,-8,-253,-36,-14,68,-2
1925,-8,-252,-38,-15,69,-2
1930,-5,-254,-41,-16,70,-2
1935,-6,-250,-38,-17,67,-1
1940,-7,-254,-39,-16,66,0
1945,-6,-253,-35,-15,65,0
1950,-6,-254,-37,-15,63,-1
1955,-4,-254,-40,-12,63,-2
1960,-5,-255,-37,-11,63,-2
1965,-8,-256,-39,-10,64,-3
1970,-4,-256,-41,-11,65,-3
1975,-3,-255,-37,-10,65,-4
1980,-8,-255,-36,-12,67,-5
1985,-2,-254,-40,-13,68,-7
1990,-3,-256,-36,-15,69,-7
1995,-7,-253,-37,-18,68,-5
2000,-7,-255,-37,-18,67,-5
2005,-5,-253,-37,-16,67,-3
2010,-1,-256,-38,-15,66,-5
2015,-8,-252,-42,-10,67,-5
2020,-5,-253,-41,-7,66,-5
2025,-7,-252,-41,-6,65,-3
2030,-7,-252,-43,-8,64,0
2035,-5,-254,-43,-13,64,-2
2040,-6,-252,-37,-16,64,0
2045,-8,-255,-41,-18,64,-2
2050,-9,-253,-40,-18,63,-1
2055,-5,-255,-44,-15,63,0
2060,-6,-255,-41,-11,64,0
2065,-7,-253,-42,-9,62,0
2070,-4,-255,-38,-4,62,-2
2075,-8,-252,-41,-3,62,-1
2080,-8,-251,-39,-1,62,0
2085,-9,-252,-38,-1,61,-1
2090,-6,-251,-39,-1,62,-1
2095,-4,-255,-38,-1,61,-1
2100,-8,-255,-40,-2,62,-1
2105,-1,-250,-38,-4,62,-2
2110,-8,-252,-35,-6,64,-2
2115,-6,-252,-37,-6,66,-2
2120,-7,-251,-38,-5,66,-1
2125,-5,-257,-43,-7,69,-1
2130,-10,-255,-35,-8,68,-1
2135,-8,-252,-37,-11,70,-1
2140,-5,-255,-38,-13,69,-1
2145,-9,-252,-39,-15,69,-1
2150,-6,-255,-39,-17,67,-2
2155,-4,-255,-34,-21,67,-1
2160,-6,-254,-37,-23,66,1
2165,-7,-255,-44,-25,65,1
2170,-4,-253,-40,-27,65,0
2175,-5,-258,-43,-28,63,2
2180,-8,-255,-40,-31,61,2
2185,-8,-256,-41,-28,62,3
2190,-6,-255,-37,-28,62,2
2195,-6,-255,-40,-24,61,3
2200,-9,-253,-39,-24,60,2
2205,-4,-253,-40,-23,62,1
2210,-7,-253,-40,-23,62,0
2215,-7,-255,-40,-23,63,2
2220,-7,-256,-42,-20,66,2
2225,-5,-252,-40,-18,68,2
2230,-9,-251,-40,-18,68,1
2235,-6,-252,-40,-19,68,2
2240,-9,-254,-40,-19,67,2
2245,-8,-252,-40,-22,66,2
2250,-8,-253,-39,-23,63,1
2255,-9,-250,-40,-22,63,0
2260,-10,-256,-40,-21,61,1
2265,-10,-255,-40,-20,61,1
2270,-8,-254,-40,-19,59,-1
2275,-7,-250,-40,-20,59,-2
2280,-8,-252,-38,-21,58,-3
2285,-8,-254,-37,-25,58,-1
2290,-7,-252,-40,-27,57,-1
2295,-8,-251,-41,-30,58,-1
2300,-8,-254,-41,-31,58,-3
2305,-6,-254,-38,-31,57,-3
2310,-8,-253,-40,-30,56,-2
2315,-7,-253,-45,-30,55,-3
2320,-7,-252,-40,-30,56,-3
2325,-10,-253,-39,-33,57,-3
2330,-9,-254,-41,-35,57,-4
2335,-5,-252,-40,-35,57,-3
2340,-7,-252,-42,-36,57,-3
2345,-10,-255,-39,-36,57,-5
2350,-9,-254,-39,-36,57,-4
2355,-8,-257,-38,-34,58,-5
2360,-7,-256,-39,-31,58,-5
2365,-6,-254,-38,-28,56,-3
2370,-8,-254,-39,-26,55,-2
2375,-10,-257,-38,-23,55,-3
2380,-7,-255,-41,-23,55,-1
2385,-7,-256,-39,-22,55,-2
2390,-8,-255,-41,-21,55,-3
2395,-6,-255,-45,-19,55,-2
2400,-6,-256,-42,-19,56,-4
2405,-7,-252,-38,-18,57,-5
2410,-7,-257,-39,-18,58,-5
2415,-6,-256,-39,-18,59,-6
2420,-2,-252,-40,-18,60,-8
2425,-2,-252,-41,-17,61,-8
2430,-7,-256,-40,-13,61,-8
2435,-6,-252,-39,-12,62,-8
2440,-8,-253,-39,-12,61,-7
2445,-8,-253,-42,-14,61,-6
2450,-8,-253,-41,-17,60,-5
2455,-8,-253,-38,-21,61,-5
2460,-5,-255,-39,-22,59,-5
2465,-6,-254,-39,-23,59,-4
2470,-7,-253,-34,-22,59,-3
2475,-7,-255,-36,-22,58,-3
2480,-7,-252,-40,-20,59,-2
2485,-7,-254,-41,-19,59,0
2490,-5,-254,-43,-18,60,0
2495,-9,-252,-43,-16,61,-1
2500,-5,-255,-41,-17,63,-1
2505,-6,-252,-41,-16,64,-2
2510,-7,-253,-39,-14,64,0
2515,-5,-252,-40,-13,63,-1
2520,-8,-253,-39,-12,64,-4
2525,-7,-257,-40,-12,64,-2
2530,-7,-251,-41,-14,63,-2
2535,-7,-250,-41,-17,64,-1
2540,-9,-250,-41,-25,62,0
2545,-7,-250,-42,-33,62,3
2550,-11,-248,-45,-49,62,4
2555,-12,-246,-52,-76,61,7
2560,-12,-247,-50,-114,58,11
2565,-17,-243,-55,-156,51,15
2570,-14,-242,-57,-200,46,21
2575,-16,-244,-57,-243,45,29
2580,-16,-243,-60,-285,40,33
2585,-19,-241,-64,-333,33,39
2590,-17,-239,-75,-392,19,44
2595,-20,-232,-82,-466,6,51
2600,-16,-230,-86,-559,-4,58
2605,-17,-228,-97,-669,-8,64
2610,-23,-226,-103,-787,-9,69
2615,-22,-232,-110,-910,-12,74
2620,-23,-228,-123,-1031,-20,76
2625,-22,-231,-134,-1145,-34,77
2630,-18,-237,-134,-1238,-56,77
2635,-24,-241,-139,-1306,-74,76
2640,-25,-247,-143,-1346,-87,81
2645,-27,-246,-146,-1368,-103,87
2650,-25,-246,-141,-1383,-119,92
2655,-25,-247,-149,-1396,-139,96
2660,-30,-244,-152,-1403,-160,103
2665,-30,-240,-156,-1407,-179,113
2670,-27,-238,-164,-1405,-195,123
2675,-31,-232,-166,-1401,-206,136
2680,-31,-224,-172,-1391,-217,146
2685,-35,-219,-177,-1380,-232,157
2690,-30,-209,-179,-1362,-254,166
2695,-33,-201,-180,-1340,-279,175
2700,-37,-189,-188,-1319,-303,179
2705,-35,-183,-186,-1306,-324,182
2710,-40,-169,-192,-1305,-344,187
2715,-38,-158,-194,-1311,-352,189
2720,-34,-147,-189,-1328,-351,190
2725,-34,-130,-187,-1359,-339,191
2730,-33,-117,-184,-1404,-324,188
2735,-28,-105,-178,-1459,-308,187
2740,-30,-94,-164,-1524,-288,187
2745,-34,-72,-154,-1589,-272,190
2750,-30,-67,-143,-1649,-257,197
2755,-29,-56,-129,-1708,-241,202
2760,-25,-43,-110,-1763,-222,211
2765,-24,-34,-98,-1812,-201,218
2770,-17,-25,-83,-1856,-183,229
2775,-14,-18,-71,-1897,-169,236
2780,-3,-17,-56,-1932,-152,240
2785,-1,-9,-38,-1959,-133,240
2790,1,-2,-33,-1973,-112,234
2795,0,-6,-14,-1976,-94,234
2800,0,-5,-9,-1965,-74,240
2805,5,-8,0,-1954,-62,244
2810,11,-16,11,-1945,-55,258
2815,18,-17,14,-1933,-48,272
2820,25,-30,21,-1918,-42,291
2825,29,-38,27,-1895,-41,315
2830,32,-50,30,-1858,-44,333
2835,29,-56,25,-1801,-50,341
2840,30,-60,24,-1735,-61,337
2845,34,-61,16,-1664,-68,322
2850,29,-62,5,-1598,-68,294
2855,27,-55,-11,-1538,-48,270
2860,20,-45,-20,-1492,-19,252
2865,14,-40,-38,-1463,10,236
2870,7,-37,-51,-1439,38,220
2875,1,-28,-75,-1417,60,220
2880,-3,-19,-87,-1422,69,216
2885,-2,-17,-106,-1429,86,216
2890,-5,-15,-119,-1431,118,225
2895,-10,-16,-141,-1428,150,225
2900,-8,-25,-157,-1433,174,221
2905,-14,-31,-170,-1436,191,214
2910,-15,-47,-175,-1440,201,221
2915,-9,-72,-174,-1442,204,235
2920,-5,-99,-153,-1430,217,247
2925,-10,-127,-130,-1386,241,251
2930,-19,-161,-93,-1312,266,253
2935,-21,-193,-57,-1214,274,256
2940,-20,-224,-33,-1094,286,246
2945,-24,-265,-19,-970,323,231
2950,-20,-315,-23,-857,351,234
2955,-24,-385,-45,-746,362,247
2960,-19,-404,-116,-632,343,251
2965,-32,-412,-171,-594,252,235
2970,-43,-392,-208,-654,130,216
2975,-55,-368,-208,-729,43,204
2980,-49,-331,-221,-730,-2,223
2985,-62,-259,-228,-654,52,201
2990,-63,-200,-211,-567,143,179
2995,-50,-175,-185,-517,183,191
3000,-31,-184,-159,-535,203,214
3005,-13,-202,-140,-590,215,225
3010,-6,-215,-144,-661,224,230
3015,-10,-236,-144,-776,220,216
3020,-11,-235,-159,-918,196,200
3025,-1,-229,-177,-1065,161,180
3030,1,-216,-199,-1182,164,153
3035,1,-205,-224,-1245,198,120
3040,-15,-209,-239,-1255,248,84
3045,-26,-226,-230,-1242,287,56
3050,-27,-247,-211,-1231,314,49
3055,-43,-253,-198,-1231,328,46
3060,-51,-253,-191,-1237,301,72
3065,-45,-254,-200,-1220,267,97
3070,-48,-231,-204,-1187,245,103
3075,-37,-218,-221,-1152,219,100
3080,-43,-196,-233,-1144,213,62
3085,-35,-188,-235,-1138,217,16
3090,-32,-191,-249,-1130,217,-23
3095,-33,-198,-261,-1105,226,-40
3100,-24,-207,-276,-1059,239,-52
3105,-29,-210,-291,-993,251,-44
3110,-30,-215,-290,-896,251,-37
3115,-39,-215,-290,-799,235,-22
3120,-49,-213,-298,-711,184,-6
3125,-63,-204,-297,-651,127,-10
3130,-76,-207,-298,-604,81,-17
3135,-75,-214,-300,-545,45,-23
3140,-64,-221,-289,-462,27,-25
3145,-59,-224,-284,-378,23,-21
3150,-44,-221,-277,-311,-1,-4
3155,-33,-213,-276,-274,-41,13
3160,-30,-210,-269,-253,-78,42
3165,-34,-205,-269,-208,-115,83
3170,-33,-207,-274,-142,-133,118
3175,-33,-216,-277,-52,-127,126
3180,-34,-220,-276,36,-101,117
3185,-34,-219,-272,119,-69,94
3190,-33,-226,-269,200,-37,68
3195,-38,-225,-267,286,-10,49
3200,-40,-224,-258,365,12,34
3205,-40,-216,-250,444,30,21
3210,-44,-212,-247,521,35,6
3215,-49,-212,-246,594,36,-4
3220,-45,-213,-243,657,32,-7
3225,-47,-215,-239,708,28,-5
3230,-45,-214,-239,749,31,2
3235,-43,-216,-239,789,41,16
3240,-41,-215,-236,826,51,30
3245,-38,-211,-238,857,59,45
3250,-42,-206,-241,886,66,61
3255,-40,-203,-239,908,72,75
3260,-45,-204,-248,920,78,79
3265,-49,-198,-242,930,86,78
3270,-51,-202,-246,949,80,86
3275,-59,-204,-250,961,74,84
3280,-59,-201,-250,962,72,77
3285,-57,-203,-250,952,71,70
3290,-54,-212,-248,942,68,70
3295,-57,-209,-250,948,60,71
3300,-55,-212,-249,963,54,70
3305,-52,-207,-244,980,55,64
3310,-43,-215,-234,994,62,53
3315,-40,-208,-239,1008,67,44
3320,-37,-203,-240,1013,73,32
3325,-35,-202,-238,1024,79,27
3330,-32,-200,-234,1028,84,23
3335,-30,-205,-231,1022,89,26
3340,-29,-202,-230,1000,86,31
3345,-33,-203,-232,973,81,33
3350,-37,-206,-231,936,77,38
3355,-39,-212,-230,894,76,41
3360,-39,-217,-229,846,74,42
3365,-41,-221,-226,794,75,37
3370,-39,-220,-225,752,75,28
3375,-37,-219,-221,719,75,25
3380,-40,-223,-223,694,77,18
3385,-35,-219,-227,677,78,15
3390,-40,-228,-228,665,81,10
3395,-41,-229,-223,657,79,8
3400,-40,-225,-221,657,78,3
3405,-47,-225,-218,661,76,0
3410,-45,-225,-215,660,72,-3
3415,-41,-232,-210,659,67,-1
3420,-43,-232,-209,662,60,2
3425,-40,-237,-209,666,54,6
3430,-40,-238,-207,668,47,10
3435,-45,-238,-207,670,43,8
3440,-43,-235,-201,675,45,2
3445,-45,-234,-198,680,49,-5
3450,-44,-237,-198,686,53,-9
3455,-45,-243,-195,699,58,-13
3460,-48,-243,-195,714,60,-22
3465,-48,-243,-196,720,61,-26
3470,-51,-243,-201,714,60,-30
3475,-49,-240,-209,695,53,-31
3480,-46,-241,-220,666,46,-28
3485,-50,-240,-222,633,44,-26
3490,-49,-242,-229,599,47,-24
3495,-43,-248,-232,565,54,-21
3500,-46,-250,-236,534,59,-17
3505,-45,-253,-232,507,64,-12
3510,-47,-251,-226,485,69,-10
3515,-48,-253,-223,458,72,-9
3520,-48,-256,-221,422,76,-9
3525,-49,-256,-213,384,80,-15
3530,-47,-254,-208,344,80,-20
3535,-47,-251,-206,307,75,-28
3540,-44,-248,-194,272,67,-32
3545,-44,-245,-191,246,63,-36
3550,-37,-241,-180,221,58,-42
3555,-33,-239,-168,198,57,-50
3560,-27,-233,-158,171,61,-57
3565,-33,-225,-149,146,65,-64
3570,-30,-218,-141,123,69,-72
3575,-32,-212,-131,103,71,-79
3580,-34,-210,-124,84,75,-81
3585,-35,-200,-123,66,81,-82
3590,-32,-192,-126,47,93,-79
3595,-32,-184,-122,31,102,-71
3600,-29,-180,-126,21,113,-62
3605,-28,-176,-130,20,120,-54
3610,-29,-177,-136,28,126,-50
3615,-31,-174,-138,43,125,-46
3620,-29,-172,-141,62,118,-44
3625,-35,-163,-147,80,103,-42
3630,-37,-162,-143,92,87,-45
3635,-39,-157,-143,95,72,-50
3640,-37,-159,-139,92,63,-55
3645,-28,-161,-138,82,57,-61
3650,-28,-161,-134,72,53,-64
3655,-23,-168,-135,68,47,-64
3660,-19,-169,-133,69,38,-63
3665,-23,-175,-139,79,26,-63
3670,-21,-178,-139,93,12,-67
3675,-23,-180,-147,110,-2,-73
3680,-29,-181,-150,129,-12,-79
3685,-26,-183,-150,149,-17,-81
3690,-28,-183,-155,167,-18,-83
3695,-30,-186,-157,185,-11,-86
3700,-35,-188,-155,201,0,-85
3705,-32,-188,-156,217,11,-82
3710,-27,-189,-160,233,20,-78
3715,-30,-196,-162,249,26,-75
3720,-30,-203,-161,264,28,-71
3725,-30,-207,-163,273,29,-68
3730,-28,-216,-163,275,28,-64
3735,-30,-226,-162,269,23,-63
3740,-29,-230,-169,258,17,-64
3745,-29,-237,-169,244,11,-64
3750,-31,-243,-169,231,5,-65
3755,-29,-245,-171,217,-2,-67
3760,-31,-249,-164,200,-10,-66
3765,-33,-249,-170,183,-16,-68
3770,-36,-245,-175,164,-19,-69
3775,-34,-246,-174,147,-21,-70
3780,-35,-246,-170,134,-22,-69
3785,-37,-244,-174,123,-21,-65
3790,-34,-238,-171,114,-18,-61
3795,-35,-234,-163,105,-13,-54
3800,-32,-226,-161,91,-9,-47
3805,-35,-223,-156,76,-5,-41
3810,-34,-214,-149,57,-5,-34
3815,-39,-209,-150,37,-5,-29
3820,-40,-206,-150,18,-2,-25
3825,-40,-208,-141,-2,1,-21
3830,-38,-206,-139,-31,2,-17
3835,-36,-204,-141,-55,2,-11
3840,-32,-203,-133,-76,-1,-4
3845,-32,-198,-131,-88,-2,5
3850,-30,-198,-124,-94,-3,13
3855,-30,-198,-124,-97,2,18
3860,-28,-197,-122,-97,17,19
3865,-30,-203,-125,-95,36,16
3870,-28,-215,-125,-93,58,9
3875,-28,-215,-126,-93,77,-2
3880,-30,-216,-130,-96,87,-14
3885,-30,-223,-137,-97,88,-24
3890,-26,-220,-134,-91,82,-33
3895,-30,-214,-139,-80,75,-39
3900,-30,-208,-138,-65,64,-44
3905,-28,-207,-146,-47,56,-48
3910,-26,-201,-146,-30,50,-51
3915,-27,-200,-153,-18,47,-56
3920,-24,-201,-154,-8,46,-59
3925,-24,-200,-154,-3,49,-62
3930,-23,-199,-166,-1,55,-64
3935,-24,-200,-164,-1,62,-67
3940,-28,-197,-165,-2,69,-69
3945,-24,-200,-165,-4,75,-71
3950,-25,-198,-168,-2,80,-76
3955,-23,-197,-170,-2,85,-79
3960,-25,-194,-174,0,91,-83
3965,-25,-195,-168,0,97,-86
3970,-28,-192,-166,-1,103,-87
3975,-25,-195,-165,-2,107,-91
3980,-26,-193,-166,-5,113,-92
3985,-26,-196,-162,-6,117,-93
3990,-27,-194,-157,-6,119,-94
3995,-30,-197,-159,-1,119,-94
4000,-32,-201,-159,8,120,-93
4005,-29,-203,-161,16,119,-93
4010,-32,-202,-154,25,120,-94
4015,-33,-204,-155,38,120,-94
4020,-33,-207,-150,48,118,-96
4025,-33,-206,-151,60,117,-98
4030,-33,-206,-153,69,114,-97
4035,-31,-204,-152,74,112,-96
4040,-31,-207,-150,76,112,-94
4045,-33,-208,-150,74,112,-92
4050,-29,-214,-153,75,111,-92
4055,-32,-211,-153,76,111,-89
4060,-33,-213,-153,81,114,-85
4065,-29,-212,-153,88,115,-83
4070,-32,-212,-155,98,117,-79
4075,-32,-210,-155,106,120,-76
4080,-32,-208,-152,111,124,-74
4085,-34,-208,-153,110,127,-77
4090,-36,-208,-154,106,133,-80
4095,-35,-205,-151,105,134,-86
4100,-35,-202,-149,109,132,-89
4105,-36,-202,-148,115,127,-92
4110,-34,-203,-146,124,116,-94
4115,-36,-201,-145,134,105,-95
4120,-37,-200,-145,147,94,-98
4125,-36,-196,-147,165,82,-100
4130,-33,-197,-149,182,70,-100
4135,-31,-204,-149,201,57,-99
4140,-33,-203,-150,219,45,-98
4145,-33,-203,-151,235,33,-99
4150,-29,-204,-151,248,19,-102
4155,-34,-201,-153,257,5,-103
4160,-29,-206,-155,262,-8,-104
4165,-31,-204,-156,265,-20,-104
4170,-29,-202,-157,269,-31,-103
4175,-32,-201,-159,271,-38,-102
4180,-29,-201,-157,271,-44,-100
4185,-30,-199,-160,267,-46,-98
4190,-30,-196,-161,260,-48,-97
4195,-30,-196,-155,251,-43,-95
4200,-29,-199,-161,238,-38,-94
4205,-28,-196,-156,227,-31,-90
4210,-27,-201,-155,218,-22,-84
4215,-26,-201,-155,214,-16,-79
4220,-26,-200,-156,215,-7,-74
4225,-25,-202,-153,218,2,-71
4230,-23,-208,-147,222,9,-67
4235,-30,-208,-149,222,14,-63
4240,-28,-211,-148,222,19,-61
4245,-29,-214,-147,222,21,-60
4250,-30,-222,-147,220,23,-61
4255,-31,-222,-143,219,23,-62
4260,-28,-227,-144,215,22,-64
4265,-28,-220,-145,212,21,-67
4270,-26,-224,-147,205,20,-72
4275,-29,-223,-147,200,18,-79
4280,-26,-224,-145,191,24,-85
4285,-26,-223,-145,181,32,-90
4290,-24,-222,-149,171,48,-90
4295,-28,-221,-146,160,67,-83
4300,-21,-224,-147,152,86,-70
4305,-21,-223,-142,145,103,-53
4310,-20,-223,-142,132,113,-35
4315,-18,-224,-133,119,120,-19
4320,-20,-224,-131,111,126,-4
4325,-17,-226,-128,103,129,6
4330,-14,-227,-130,96,130,16
4335,-13,-226,-126,90,132,22
4340,-14,-224,-127,88,137,25
4345,-12,-222,-124,87,147,25
4350,-10,-222,-126,89,158,21
4355,-16,-219,-127,86,168,18
4360,-19,-215,-126,81,178,13
4365,-13,-221,-138,80,184,9
4370,-18,-218,-127,77,186,2
4375,-18,-215,-127,73,182,-5
4380,-21,-213,-122,67,177,-11
4385,-23,-210,-121,59,166,-17
4390,-25,-210,-119,54,155,-22
4395,-24,-209,-122,47,146,-23
4400,-23,-207,-122,40,136,-23
4405,-22,-208,-122,34,131,-22
4410,-22,-205,-124,26,126,-21
4415,-21,-209,-127,18,123,-20
4420,-18,-213,-131,9,121,-18
4425,-20,-216,-129,-3,121,-16
4430,-22,-214,-133,-14,121,-16
4435,-22,-214,-133,-23,120,-14
4440,-23,-218,-133,-33,118,-12
4445,-25,-215,-135,-39,114,-7
4450,-25,-215,-138,-45,106,-3
4455,-23,-218,-139,-49,98,0
4460,-23,-217,-139,-53,90,4
4465,-24,-218,-138,-56,81,7
4470,-27,-221,-143,-56,71,6
4475,-23,-212,-139,-54,62,6
4480,-27,-221,-143,-60,54,5
4485,-27,-220,-146,-64,47,3
4490,-27,-219,-144,-67,40,-1
4495,-23,-220,-144,-67,35,-6
4500,-22,-222,-144,-68,30,-8
4505,-25,-218,-144,-69,26,-13
4510,-23,-218,-144,-69,25,-16
4515,-26,-215,-147,-67,24,-18
4520,-22,-219,-147,-63,24,-19
4525,-24,-214,-142,-59,24,-20
4530,-21,-217,-142,-51,26,-17
4535,-23,-216,-142,-42,30,-15
4540,-24,-220,-145,-31,30,-13
4545,-21,-222,-142,-16,33,-10
4550,-22,-219,-138,-4,35,-8
4555,-23,-220,-143,7,37,-9
4560,-20,-221,-140,13,37,-9
4565,-23,-217,-141,18,39,-10
4570,-25,-215,-136,18,44,-9
4575,-19,-216,-140,21,49,-8
4580,-21,-214,-137,25,57,-7
4585,-21,-214,-138,29,64,-4
4590,-20,-214,-136,34,72,-1
4595,-20,-217,-138,38,80,1
4600,-20,-217,-136,41,88,5
4605,-19,-216,-139,43,95,7
4610,-24,-217,-134,44,100,6
4615,-23,-218,-137,41,100,6
4620,-23,-217,-132,41,102,5
4625,-23,-216,-131,38,101,3
4630,-25,-215,-137,36,99,2
4635,-24,-219,-137,33,94,2
4640,-25,-219,-135,31,89,2
4645,-23,-219,-142,30,83,3
4650,-23,-219,-139,28,77,4
4655,-21,-220,-139,27,71,6
4660,-22,-217,-142,24,65,9
4665,-20,-218,-142,23,60,12
4670,-21,-216,-137,24,59,14
4675,-21,-218,-140,26,57,16
4680,-23,-215,-140,27,57,19
4685,-20,-220,-140,28,59,19
4690,-26,-212,-133,28,59,19
4695,-20,-216,-140,27,60,17
4700,-19,-216,-137,24,62,15
4705,-22,-215,-136,19,62,14
4710,-23,-214,-137,15,61,13
4715,-22,-217,-137,10,59,12
4720,-24,-219,-135,5,59,9
4725,-21,-218,-137,0,58,8
4730,-22,-219,-136,-4,59,7
4735,-23,-214,-137,-10,61,5
4740,-25,-219,-135,-15,62,6
4745,-26,-214,-134,-19,65,6
4750,-22,-214,-139,-23,65,7
4755,-22,-218,-137,-25,69,10
4760,-24,-216,-139,-27,69,12
4765,-21,-217,-140,-30,71,15
4770,-20,-219,-135,-31,73,15
4775,-21,-216,-137,-32,74,13
4780,-23,-217,-135,-34,73,14
4785,-22,-218,-136,-35,72,13
4790,-22,-218,-134,-33,71,13
4795,-28,-217,-136,-32,70,12
4800,-22,-216,-128,-30,68,11
4805,-25,-219,-139,-29,66,8
4810,-23,-218,-139,-27,65,8
4815,-21,-219,-136,-26,63,8
4820,-25,-218,-140,-24,62,5
4825,-25,-218,-139,-23,61,5
4830,-25,-217,-143,-22,59,3
4835,-24,-218,-143,-23,59,3
4840,-24,-218,-142,-23,59,1
4845,-23,-216,-142,-23,58,1
4850,-25,-216,-140,-22,58,2
4855,-24,-217,-144,-21,58,2
4860,-25,-217,-143,-22,60,3
4865,-25,-217,-145,-21,61,4
4870,-23,-217,-143,-21,63,4
4875,-22,-217,-142,-20,66,5
4880,-24,-217,-141,-19,67,5
4885,-23,-217,-142,-19,69,6
4890,-23,-217,-136,-18,72,8
4895,-24,-219,-138,-16,73,6
4900,-24,-217,-139,-18,73,8
4905,-24,-218,-140,-18,74,7
4910,-25,-218,-136,-17,76,7
4915,-24,-218,-140,-19,74,6
4920,-25,-217,-136,-19,75,6
4925,-23,-220,-139,-21,74,6
4930,-26,-216,-139,-23,72,5
4935,-23,-220,-135,-23,72,4
4940,-20,-219,-135,-23,72,5
4945,-24,-219,-133,-20,71,6
4950,-22,-219,-139,-19,72,6
4955,-23,-221,-141,-17,74,6
4960,-24,-219,-139,-15,76,6
4965,-24,-222,-138,-12,77,6
4970,-23,-218,-139,-11,79,7
4975,-22,-218,-138,-11,80,8
4980,-23,-220,-134,-12,81,9
4985,-22,-216,-139,-12,83,9
4990,-25,-214,-135,-12,83,9
4995,-22,-215,-138,-14,82,12
5000,-23,-215,-139,-15,80,13
5005,-23,-217,-138,-16,78,12
5010,-22,-215,-138,-19,74,11
5015,-24,-216,-138,-20,70,10
5020,-29,-223,-139,-22,67,11
5025,-23,-217,-138,-25,64,10
5030,-25,-216,-140,-29,61,10
5035,-22,-217,-139,-30,62,10
5040,-25,-219,-138,-31,59,10
5045,-26,-218,-135,-30,57,8
5050,-24,-218,-136,-30,58,8
5055,-23,-220,-140,-29,58,8
5060,-27,-219,-142,-27,60,7
5065,-26,-219,-137,-27,60,6
5070,-25,-219,-139,-27,62,5
5075,-22,-216,-139,-26,64,6
5080,-26,-218,-139,-27,64,5
5085,-23,-218,-136,-28,65,5
5090,-22,-217,-136,-28,65,6
5095,-23,-216,-141,-27,65,8
5100,-24,-216,-137,-27,64,11
5105,-25,-220,-137,-27,65,11
5110,-25,-215,-140,-29,66,12
5115,-25,-216,-140,-29,67,13
5120,-23,-219,-138,-30,67,13
5125,-27,-215,-143,-32,65,14
5130,-31,-221,-138,-31,64,15
5135,-30,-218,-134,-34,62,14
5140,-24,-218,-139,-34,59,14
5145,-26,-217,-136,-35,56,14
5150,-27,-217,-137,-36,54,14
5155,-26,-217,-136,-36,54,13
5160,-26,-217,-141,-36,55,10
5165,-28,-215,-138,-35,55,10
5170,-28,-217,-137,-34,55,8
5175,-25,-216,-137,-34,57,8
5180,-28,-215,-137,-32,58,7
5185,-25,-217,-141,-30,59,6
5190,-24,-217,-140,-31,59,5
5195,-25,-216,-137,-30,58,6
5200,-23,-218,-141,-28,58,6
5205,-26,-215,-140,-28,59,7
5210,-25,-217,-143,-29,59,8
5215,-23,-214,-141,-29,59,9
5220,-24,-217,-138,-30,62,10
5225,-25,-216,-140,-29,63,10
5230,-26,-216,-138,-29,65,11
5235,-24,-216,-138,-30,64,11
5240,-24,-219,-141,-28,67,12
5245,-25,-213,-139,-27,69,11
5250,-26,-219,-142,-26,70,9
5255,-27,-219,-138,-24,72,9
5260,-25,-219,-138,-22,73,9
5265,-26,-220,-136,-21,74,9
5270,-22,-215,-140,-22,71,8
5275,-23,-219,-138,-21,70,7
5280,-22,-217,-135,-20,69,5
5285,-24,-218,-141,-20,67,4
5290,-21,-217,-141,-20,64,4
5295,-23,-216,-139,-20,61,2
5300,-25,-216,-138,-19,60,0
5305,-26,-218,-142,-17,59,-2
5310,-26,-218,-143,-13,59,-2
5315,-27,-216,-143,-11,59,-3
5320,-24,-217,-140,-9,60,-3
5325,-23,-216,-143,-8,60,-2
5330,-25,-215,-142,-8,61,-1
5335,-24,-214,-136,-7,62,-1
5340,-25,-215,-137,-7,63,-2
5345,-25,-220,-141,-8,64,-2
5350,-25,-215,-136,-8,65,-1
5355,-27,-217,-137,-9,65,0
5360,-23,-217,-141,-7,65,-1
5365,-26,-219,-138,-6,65,-1
5370,-26,-218,-138,-4,66,-2
5375,-26,-220,-143,-4,65,-2
5380,-27,-219,-138,-1,64,-4
5385,-26,-219,-139,1,62,-5
5390,-26,-216,-141,0,65,-6
5395,-27,-219,-141,-1,65,-7
5400,-27,-216,-140,-1,67,-7
5405,-26,-219,-139,-2,67,-7
5410,-25,-219,-137,-3,66,-7
5415,-28,-215,-141,-4,66,-7
5420,-27,-216,-140,-4,68,-5
5425,-28,-217,-142,-3,67,-3
5430,-24,-215,-140,-3,68,-2
5435,-25,-214,-137,-3,68,0
5440,-25,-214,-140,-5,70,3
5445,-23,-218,-140,-4,71,5
5450,-23,-216,-138,-3,70,5
5455,-27,-219,-142,-1,71,5
5460,-27,-219,-139,-1,71,5
5465,-28,-213,-142,0,70,5
5470,-20,-218,-141,1,70,4
5475,-25,-216,-140,3,69,4
5480,-24,-216,-143,3,70,2
5485,-25,-216,-141,1,69,2
5490,-23,-219,-138,-2,69,1
5495,-25,-216,-137,-4,69,0
5500,-22,-218,-135,-4,66,-1
5505,-25,-220,-132,-4,64,-2
5510,-22,-220,-135,-5,61,0
5515,-24,-220,-137,-4,60,-1
5520,-25,-220,-134,-2,59,-2
5525,-26,-224,-136,1,59,-1
5530,-23,-222,-136,3,61,-3
5535,-25,-221,-137,7,61,-4
5540,-26,-222,-137,12,63,-6
5545,-23,-219,-137,14,65,-7
5550,-28,-216,-137,17,68,-9
5555,-28,-214,-139,17,68,-10
5560,-28,-209,-138,14,68,-12
5565,-29,-210,-137,11,70,-11
5570,-27,-207,-137,8,71,-11
5575,-24,-210,-133,2,69,-11
5580,-24,-209,-136,-4,68,-10
5585,-26,-202,-135,-12,67,-10
5590,-25,-206,-136,-19,64,-7
5595,-26,-209,-137,-28,63,-6
5600,-24,-210,-135,-40,62,-4
5605,-26,-210,-137,-49,60,-1
5610,-25,-215,-138,-52,62,0
5615,-25,-214,-133,-54,64,1
5620,-25,-215,-133,-55,65,2
5625,-24,-219,-136,-57,66,3
5630,-26,-219,-135,-55,68,1
5635,-24,-222,-135,-54,69,2
5640,-25,-224,-136,-50,72,-1
5645,-25,-223,-140,-44,77,-3
5650,-27,-221,-139,-36,80,-4
5655,-28,-225,-139,-29,85,-6
5660,-25,-226,-142,-21,89,-7
5665,-27,-222,-143,-14,90,-9
5670,-27,-220,-141,-8,92,-9
5675,-32,-222,-136,-3,91,-8
5680,-28,-220,-137,0,89,-7
5685,-27,-218,-137,1,87,-5
5690,-26,-217,-138,0,85,-5
5695,-27,-217,-144,-2,83,-3
5700,-23,-218,-137,-5,80,0
5705,-25,-214,-135,-10,78,4
5710,-24,-213,-136,-15,76,6
5715,-24,-214,-136,-20,75,9
5720,-23,-215,-139,-25,75,12
5725,-25,-214,-135,-31,75,12
5730,-23,-211,-135,-37,76,12
5735,-23,-212,-134,-43,77,13
5740,-23,-215,-134,-45,77,13
5745,-22,-213,-135,-48,76,13
5750,-21,-216,-137,-48,73,10
5755,-21,-212,-137,-50,73,5
5760,-17,-215,-135,-55,72,4
5765,-25,-214,-134,-56,74,2
5770,-19,-214,-140,-55,78,0
5775,-21,-218,-137,-51,83,-3
5780,-20,-216,-137,-48,85,-6
5785,-24,-217,-138,-44,91,-7
5790,-24,-215,-142,-39,93,-10
5795,-26,-216,-145,-35,94,-11
5800,-21,-219,-142,-31,95,-10
5805,-24,-215,-143,-28,96,-9
5810,-26,-213,-140,-25,96,-7
5815,-25,-215,-144,-22,95,-5
5820,-26,-215,-144,-19,95,-2
5825,-26,-219,-141,-15,96,-2
5830,-25,-217,-141,-12,97,-1
5835,-26,-216,-143,-11,97,1
5840,-28,-217,-137,-8,96,2
5845,-25,-214,-144,-7,93,3
5850,-31,-210,-140,-5,93,5
5855,-28,-215,-142,-3,94,3
5860,-28,-213,-142,-3,91,4
5865,-27,-213,-141,-1,89,1
5870,-29,-215,-139,-1,87,0
5875,-26,-213,-141,0,85,-1
5880,-28,-215,-140,2,84,-2
5885,-28,-213,-140,2,83,-4
5890,-27,-216,-137,3,79,-6
5895,-25,-215,-139,3,76,-8
5900,-24,-219,-141,6,74,-6
5905,-24,-217,-136,8,72,-5
5910,-27,-211,-138,9,70,-4
5915,-20,-215,-139,11,69,-3
5920,-25,-218,-139,11,66,-3
5925,-28,-216,-138,12,64,-3
5930,-23,-215,-136,15,64,-4
5935,-26,-213,-144,18,62,-5
5940,-25,-215,-143,18,60,-8
5945,-27,-208,-141,20,58,-10
5950,-27,-218,-141,24,58,-12
5955,-26,-217,-144,31,57,-14
5960,-25,-219,-145,37,58,-16
5965,-29,-218,-140,44,60,-18
5970,-29,-218,-143,50,61,-20
5975,-24,-219,-142,57,64,-23
5980,-28,-215,-142,62,64,-24
5985,-27,-219,-143,68,63,-25
5990,-26,-215,-143,73,63,-24
5995,-26,-216,-145,78,64,-21
6000,-21,-216,-150,82,64,-19
6005,-24,-216,-139,84,64,-16
6010,-26,-218,-144,87,63,-15
6015,-26,-220,-142,90,63,-13
6020,-26,-217,-142,93,62,-11
6025,-26,-218,-144,97,62,-11
6030,-25,-221,-143,102,63,-13
6035,-25,-221,-137,107,65,-14
6040,-23,-221,-140,114,66,-16
6045,-20,-219,-143,120,65,-17
6050,-24,-219,-141,123,66,-19
6055,-25,-215,-140,126,66,-19
6060,-20,-219,-142,129,68,-22
6065,-21,-220,-138,132,70,-23
6070,-20,-221,-139,134,71,-23
6075,-21,-217,-141,134,73,-23
6080,-22,-219,-139,134,77,-23
6085,-27,-214,-140,133,78,-24
6090,-25,-216,-136,134,79,-23
6095,-23,-219,-138,136,81,-23
6100,-27,-218,-136,135,81,-21
6105,-26,-221,-134,137,80,-20
6110,-28,-215,-144,137,79,-18
6115,-24,-221,-136,140,78,-17
6120,-26,-221,-131,143,78,-16
6125,-24,-219,-136,146,77,-14
6130,-24,-221,-135,149,76,-12
6135,-22,-223,-133,154,76,-9
6140,-22,-222,-134,160,76,-7
6145,-23,-224,-133,165,77,-5
6150,-21,-225,-132,169,78,-4
6155,-22,-223,-134,174,80,-6
6160,-24,-221,-135,181,83,-5
6165,-21,-222,-128,186,84,-6
6170,-23,-222,-133,189,86,-7
6175,-25,-220,-130,193,89,-6
6180,-25,-222,-130,195,91,-8
6185,-26,-220,-127,198,91,-9
6190,-23,-222,-133,200,93,-10
6195,-23,-223,-130,200,94,-10
6200,-26,-223,-130,198,92,-9
6205,-25,-221,-133,197,93,-7
6210,-24,-223,-132,196,92,-4
6215,-29,-223,-132,193,92,-3
6220,-25,-223,-131,188,90,0
6225,-25,-218,-127,184,87,3
6230,-23,-223,-128,180,86,5
6235,-22,-221,-128,177,81,7
6240,-25,-223,-130,172,77,7
6245,-25,-224,-128,169,71,9
6250,-25,-222,-127,165,66,13
6255,-23,-225,-123,161,62,14
6260,-20,-226,-125,157,56,15
6265,-21,-226,-125,154,51,16
6270,-26,-227,-122,151,48,16
6275,-24,-229,-121,148,43,17
6280,-22,-230,-122,145,42,15
6285,-21,-230,-127,145,42,16
6290,-23,-228,-124,140,42,15
6295,-20,-230,-124,134,43,15
6300,-20,-230,-122,127,46,12
6305,-20,-229,-121,119,47,10
6310,-20,-228,-118,109,47,7
6315,-24,-226,-122,95,47,5
6320,-18,-229,-120,83,48,4
6325,-19,-230,-118,69,49,1
6330,-22,-226,-114,58,51,0
6335,-23,-225,-117,47,54,-1
6340,-23,-226,-117,38,56,-1
6345,-23,-226,-122,30,60,-1
6350,-23,-228,-124,23,60,-3
6355,-24,-227,-121,19,61,-3
6360,-23,-223,-123,15,63,-1
6365,-27,-224,-118,14,64,-3
6370,-24,-224,-123,11,65,-3
6375,-27,-220,-121,7,65,-2
6380,-25,-226,-124,3,67,-4
6385,-24,-224,-126,-1,67,-3
6390,-27,-222,-122,-5,70,-5
6395,-26,-224,-124,-7,69,-8
6400,-30,-225,-122,-10,71,-11
6405,-28,-220,-120,-12,72,-12
6410,-28,-222,-125,-15,73,-14
6415,-28,-221,-121,-14,73,-15
6420,-27,-222,-124,-14,73,-18
6425,-23,-223,-125,-14,73,-17
6430,-27,-223,-128,-14,72,-18
6435,-23,-222,-118,-14,72,-18
6440,-25,-222,-124,-13,70,-17
6445,-24,-223,-124,-11,68,-17
6450,-23,-226,-126,-10,67,-16
6455,-24,-227,-124,-11,68,-16
6460,-25,-224,-126,-13,66,-15
6465,-21,-225,-125,-14,67,-15
6470,-23,-224,-121,-14,67,-16
6475,-21,-226,-126,-16,68,-15
6480,-23,-224,-126,-16,69,-15
6485,-23,-225,-124,-15,70,-14
6490,-22,-230,-123,-14,72,-14
6495,-26,-223,-121,-13,74,-13
6500,-23,-228,-125,-12,74,-16
6505,-23,-228,-125,-11,75,-17
6510,-26,-225,-126,-10,77,-17
6515,-25,-227,-126,-8,78,-17
6520,-26,-228,-124,-7,80,-17
6525,-24,-226,-126,-6,82,-18
6530,-23,-225,-125,-5,81,-16
6535,-24,-225,-121,-4,83,-16
6540,-27,-225,-125,-3,82,-15
6545,-25,-225,-125,-3,83,-12
6550,-26,-226,-130,-4,84,-11
6555,-25,-228,-126,-3,83,-10
6560,-24,-225,-126,-3,85,-8
6565,-24,-227,-125,-5,85,-6
6570,-21,-226,-126,-4,83,-5
6575,-22,-225,-125,-5,83,-1
6580,-26,-222,-124,-8,80,0
6585,-18,-225,-122,-9,78,2
6590,-21,-225,-126,-12,78,3
6595,-21,-224,-123,-15,75,6
6600,-19,-225,-119,-16,74,6
6605,-21,-225,-125,-18,72,6
6610,-23,-226,-126,-17,70,5
6615,-19,-227,-122,-18,69,5
6620,-23,-230,-123,-16,69,4
6625,-20,-230,-122,-15,67,6
6630,-21,-232,-124,-12,66,3
6635,-21,-229,-120,-9,64,2
6640,-20,-230,-126,-7,63,2
6645,-20,-233,-118,-6,63,1
6650,-23,-224,-120,-7,63,-1
6655,-23,-229,-124,-7,64,-4
6660,-22,-229,-119,-9,64,-5
6665,-23,-229,-118,-10,65,-7
6670,-20,-225,-118,-13,66,-6
6675,-23,-227,-124,-14,66,-6
6680,-26,-229,-123,-15,65,-6
6685,-23,-231,-126,-15,65,-5
6690,-26,-228,-127,-14,66,-5
6695,-23,-228,-121,-13,66,-4
6700,-25,-226,-123,-13,66,-4
6705,-22,-227,-126,-11,65,-3
6710,-24,-223,-126,-12,65,-3
6715,-24,-226,-127,-12,65,-4
6720,-23,-227,-129,-14,69,-3
6725,-24,-224,-128,-19,71,-2
6730,-22,-224,-124,-22,77,-2
6735,-25,-220,-128,-26,77,-2
6740,-26,-225,-128,-29,80,-2
6745,-25,-224,-129,-33,81,-1
6750,-25,-223,-126,-34,81,-2
6755,-27,-225,-125,-35,77,1
6760,-26,-221,-121,-35,74,-1
6765,-25,-223,-127,-35,73,1
6770,-21,-226,-125,-35,72,2
6775,-25,-222,-126,-35,70,2
6780,-26,-224,-125,-33,68,0
6785,-23,-222,-126,-33,68,-2
6790,-22,-224,-127,-31,69,-1
6795,-23,-225,-124,-29,68,-1
6800,-22,-224,-128,-26,68,-2
6805,-22,-221,-125,-25,66,-3
6810,-24,-225,-124,-22,66,-1
6815,-21,-225,-128,-17,67,-3
6820,-21,-228,-126,-15,66,-4
6825,-24,-224,-124,-12,67,-5
6830,-26,-223,-126,-11,67,-4
6835,-23,-226,-124,-11,67,-4
6840,-24,-227,-125,-9,69,-5
6845,-25,-225,-123,-8,69,-4
6850,-24,-226,-131,-6,71,-5
6855,-26,-225,-125,-5,72,-5
6860,-22,-224,-127,-3,73,-2
6865,-23,-225,-126,-3,74,-3
6870,-22,-230,-122,-1,75,-2
6875,-23,-225,-123,1,74,-1
6880,-22,-226,-122,2,75,-2
6885,-25,-223,-124,1,76,-2
6890,-23,-224,-124,0,78,-1
6895,-24,-227,-121,-2,78,-2
6900,-23,-227,-121,-5,78,-1
6905,-24,-225,-122,-8,79,-2
6910,-25,-227,-122,-10,79,-3
6915,-25,-225,-121,-12,78,-3
6920,-21,-228,-126,-13,76,-3
6925,-24,-227,-121,-13,75,-4
6930,-23,-229,-126,-13,73,-6
6935,-24,-224,-126,-12,73,-6
6940,-23,-231,-125,-9,71,-5
6945,-24,-230,-122,-7,70,-6
6950,-22,-229,-124,-6,70,-7
6955,-19,-226,-123,-5,70,-7
6960,-21,-226,-123,-4,71,-7
6965,-22,-226,-122,-3,71,-7
6970,-20,-226,-124,-3,71,-7
6975,-24,-229,-123,-4,72,-5
6980,-24,-227,-121,-4,71,-7
6985,-22,-226,-125,-4,71,-7
6990,-22,-226,-121,-5,73,-9
6995,-23,-225,-120,-5,74,-8
7000,-22,-225,-126,-7,74,-9
7005,-24,-226,-122,-9,74,-9
7010,-26,-224,-120,-10,76,-9
7015,-25,-225,-121,-13,75,-11
7020,-23,-224,-121,-16,74,-10
7025,-25,-223,-121,-18,74,-8
7030,-22,-227,-123,-20,74,-9
7035,-24,-224,-126,-23,72,-7
7040,-25,-226,-124,-24,72,-6
7045,-23,-224,-122,-24,70,-4
7050,-23,-225,-121,-25,69,-3
7055,-23,-226,-123,-26,69,-2
7060,-23,-224,-122,-27,66,-2
7065,-23,-226,-123,-27,65,-2
7070,-22,-225,-126,-27,67,-3
7075,-24,-227,-121,-27,69,-3
7080,-23,-225,-123,-28,68,-3
7085,-26,-223,-125,-27,68,-5
7090,-30,-226,-125,-28,69,-4
7095,-26,-227,-122,-29,69,-6
7100,-22,-227,-125,-29,68,-4
7105,-22,-225,-121,-30,67,-5
7110,-24,-224,-123,-30,67,-6
7115,-27,-226,-124,-32,67,-6
7120,-22,-229,-125,-34,65,-6
7125,-26,-223,-122,-35,66,-6
7130,-25,-223,-127,-36,65,-6
7135,-23,-224,-124,-37,66,-6
7140,-21,-222,-127,-37,66,-7
7145,-27,-225,-126,-38,66,-7
7150,-25,-225,-122,-36,66,-6
7155,-25,-227,-125,-34,65,-7
7160,-24,-226,-124,-34,65,-7
7165,-25,-225,-126,-35,66,-8
7170,-19,-229,-125,-34,66,-7
7175,-25,-225,-124,-31,67,-7
7180,-23,-227,-125,-30,66,-7
7185,-24,-224,-127,-28,66,-6
7190,-25,-229,-124,-27,65,-5
7195,-25,-225,-124,-27,65,-4
7200,-24,-224,-127,-27,65,-5
7205,-23,-227,-125,-26,66,-5
7210,-26,-225,-123,-25,67,-5
7215,-21,-231,-126,-24,66,-7
7220,-23,-228,-124,-25,65,-7
7225,-26,-225,-127,-25,65,-7
7230,-24,-225,-125,-24,64,-6
7235,-23,-225,-126,-24,62,-6
7240,-23,-223,-124,-24,62,-5
7245,-25,-223,-126,-24,62,-6
7250,-24,-225,-123,-24,64,-6
7255,-20,-225,-124,-24,65,-5
7260,-24,-223,-124,-25,63,-4
7265,-24,-223,-125,-25,63,-4
7270,-22,-225,-127,-22,65,-4
7275,-24,-227,-127,-22,65,-4
7280,-24,-224,-129,-21,67,-4
7285,-24,-224,-127,-18,67,-5
7290,-26,-229,-127,-15,68,-6
7295,-23,-228,-123,-14,67,-6
7300,-22,-221,-130,-10,68,-7
7305,-22,-227,-122,-9,70,-8
7310,-23,-225,-125,-8,68,-9
7315,-25,-225,-125,-6,67,-8
7320,-25,-227,-130,-4,68,-8
7325,-24,-225,-125,-6,68,-6
7330,-20,-227,-120,-5,69,-7
7335,-20,-226,-127,-7,68,-9
7340,-23,-227,-122,-7,68,-9
7345,-20,-225,-125,-9,68,-7
7350,-25,-226,-129,-7,68,-8
7355,-23,-227,-124,-6,67,-7
7360,-25,-226,-128,-4,67,-6
7365,-21,-227,-129,-2,67,-8
7370,-21,-226,-131,1,67,-7
7375,-24,-227,-126,2,68,-9
7380,-26,-225,-127,3,67,-9
7385,-22,-224,-124,1,67,-7
7390,-20,-226,-128,0,66,-7
7395,-22,-223,-126,-2,67,-7
7400,-22,-226,-127,-6,68,-7
7405,-23,-224,-125,-9,68,-7
7410,-22,-223,-126,-12,69,-7
7415,-14,-220,-117,-13,69,-6
7420,-22,-226,-121,-13,69,-5
7425,-23,-226,-123,-13,70,-6
7430,-25,-228,-123,-13,69,-6
7435,-25,-226,-125,-13,69,-6
7440,-27,-223,-123,-12,69,-6
7445,-25,-225,-126,-13,68,-5
7450,-22,-227,-122,-13,68,-7
7455,-22,-226,-123,-13,69,-6
7460,-25,-224,-123,-14,72,-6
7465,-25,-228,-121,-13,69,-5
7470,-25,-227,-120,-12,70,-7
7475,-24,-229,-125,-12,70,-5
7480,-25,-226,-128,-12,70,-7
7485,-24,-226,-121,-12,71,-7
7490,-23,-225,-125,-10,69,-5
7495,-21,-227,-122,-10,70,-5
7500,-22,-226,-121,-10,70,-4
7505,-23,-224,-125,-10,70,-4
7510,-25,-227,-127,-9,68,-4
7515,-20,-227,-122,-9,68,-5
7520,-23,-224,-126,-10,68,-4
7525,-24,-227,-127,-11,68,-6
7530,-20,-223,-120,-9,69,-7
7535,-21,-224,-122,-9,68,-7
7540,-23,-223,-123,-9,68,-8
7545,-21,-224,-123,-10,68,-7
7550,-23,-223,-127,-11,69,-8
7555,-21,-226,-128,-12,70,-8
7560,-23,-226,-122,-12,71,-8
7565,-23,-224,-125,-13,72,-8
7570,-22,-225,-127,-15,70,-6
7575,-24,-223,-128,-17,72,-5
7580,-24,-227,-125,-16,70,-5
7585,-22,-227,-124,-14,71,-4
7590,-24,-224,-124,-14,70,-4
7595,-24,-228,-124,-14,67,-5
7600,-21,-228,-125,-14,67,-3
7605,-24,-224,-124,-14,66,-2
7610,-23,-227,-128,-13,64,-3
7615,-24,-224,-122,-12,65,-3
7620,-22,-229,-123,-11,65,-4
7625,-23,-226,-127,-10,64,-6
7630,-24,-220,-127,-10,64,-6
7635,-25,-224,-123,-9,65,-7
7640,-20,-229,-125,-9,66,-7
7645,-21,-222,-120,-9,66,-6
7650,-24,-224,-125,-9,68,-7
7655,-23,-225,-124,-12,68,-7
7660,-23,-225,-128,-12,69,-6
7665,-24,-224,-124,-12,70,-6
7670,-23,-224,-127,-13,69,-4
7675,-23,-221,-127,-14,71,-5
7680,-23,-224,-124,-14,70,-5
7685,-22,-227,-124,-16,69,-5
7690,-24,-226,-121,-16,70,-4
7695,-23,-225,-121,-16,69,-3
7700,-25,-224,-122,-18,68,-1
7705,-26,-224,-124,-18,68,-2
7710,-22,-226,-123,-19,67,-2
7715,-19,-228,-124,-18,67,-3
7720,-21,-228,-121,-19,67,-2
7725,-23,-226,-123,-20,67,-2
7730,-22,-225,-126,-20,68,-2
7735,-23,-228,-125,-21,68,-1
7740,-24,-223,-125,-21,68,-2
7745,-24,-223,-124,-17,68,-3
7750,-20,-224,-124,-17,68,-1
7755,-22,-226,-125,-16,68,-3
7760,-24,-227,-123,-15,67,-3
7765,-26,-223,-124,-15,69,-4
7770,-23,-226,-128,-14,68,-4
7775,-24,-222,-126,-15,67,-3
7780,-24,-223,-125,-16,67,-3
7785,-23,-226,-125,-16,68,-3
7790,-24,-226,-123,-15,69,-2
7795,-22,-229,-124,-17,67,-4
7800,-23,-222,-124,-18,66,-4
7805,-24,-224,-125,-19,68,-2
7810,-24,-225,-127,-20,67,-3
7815,-22,-223,-124,-20,69,-2
7820,-22,-224,-122,-20,68,-1
7825,-25,-226,-126,-21,67,-2
7830,-25,-226,-123,-20,66,-2
7835,-23,-225,-126,-18,68,-2
7840,-25,-225,-125,-19,69,-2
7845,-23,-228,-126,-19,69,-2
7850,-23,-226,-125,-17,69,-1
7855,-21,-227,-126,-17,68,-1
7860,-22,-225,-125,-16,68,-1
7865,-22,-226,-123,-14,68,-1
7870,-23,-226,-123,-14,66,0
7875,-24,-225,-123,-13,67,0
7880,-24,-227,-125,-13,66,-1
7885,-22,-226,-123,-13,67,-1
7890,-21,-228,-124,-12,68,-1
7895,-23,-227,-123,-12,69,-2
7900,-24,-226,-126,-13,70,-2
7905,-22,-226,-124,-12,70,-3
7910,-25,-226,-127,-12,70,-3
7915,-23,-225,-126,-13,71,-2
7920,-23,-228,-129,-13,72,-3
7925,-24,-223,-128,-14,72,-3
7930,-26,-222,-124,-17,71,-2
7935,-24,-227,-130,-19,70,-3
7940,-23,-221,-126,-21,72,-2
7945,-24,-224,-127,-21,71,-5
7950,-24,-225,-123,-21,71,-3
7955,-25,-224,-124,-20,71,-5
7960,-24,-226,-127,-21,72,-5
7965,-25,-225,-128,-21,70,-4
7970,-23,-226,-124,-19,71,-3
7975,-19,-228,-125,-18,69,-3
7980,-24,-223,-123,-17,68,-3
7985,-20,-227,-127,-15,68,-2
7990,-24,-223,-125,-12,68,-2
7995,-20,-226,-127,-11,68,-3
8000,-19,-227,-126,-9,68,-2
8005,-24,-226,-126,-8,68,0
8010,-22,-225,-126,-8,69,-2
8015,-23,-226,-127,-9,68,-2
8020,-21,-224,-122,-9,67,-2
8025,-23,-227,-126,-9,67,-2
8030,-23,-226,-128,-7,66,-2
8035,-24,-224,-126,-5,67,-3
8040,-25,-226,-126,-3,68,-3
8045,-22,-228,-126,-3,69,-4
8050,-23,-227,-129,-3,67,-2
8055,-24,-223,-125,-3,68,-2
8060,-24,-224,-128,-7,67,-1
8065,-23,-224,-130,-11,66,-1
8070,-20,-222,-125,-16,66,0
8075,-21,-226,-124,-22,64,1
8080,-22,-226,-124,-26,65,1
8085,-24,-222,-125,-30,64,2
8090,-24,-221,-120,-34,62,2
8095,-24,-224,-119,-37,63,2
8100,-23,-227,-123,-40,60,2
8105,-22,-226,-121,-40,59,2
8110,-22,-227,-121,-41,59,0
8115,-22,-227,-121,-40,59,3
8120,-21,-223,-127,-39,59,2
8125,-25,-224,-127,-38,59,1
8130,-24,-222,-124,-38,60,1
8135,-26,-224,-123,-40,61,0
8140,-26,-221,-124,-41,61,1
8145,-27,-221,-127,-49,62,2
8150,-22,-214,-127,-60,63,4
8155,-24,-209,-134,-74,62,4
8160,-23,-209,-132,-95,62,5
8165,-22,-207,-136,-128,67,5
8170,-22,-211,-144,-167,77,3
8175,-22,-217,-149,-204,91,-2
8180,-22,-218,-157,-229,113,-5
8185,-21,-223,-156,-253,139,-6
8190,-16,-228,-160,-274,165,-2
8195,-15,-232,-152,-286,178,16
8200,-22,-232,-144,-283,177,54
8205,-24,-239,-148,-277,173,95
8210,-27,-245,-149,-265,182,139
8215,-35,-256,-144,-232,203,192
8220,-26,-268,-131,-158,225,250
8225,-17,-269,-118,-46,224,299
8230,-16,-260,-109,71,186,333
8235,-20,-248,-100,239,118,333
8240,-27,-235,-109,411,40,290
8245,-35,-219,-113,551,-24,226
8250,-32,-208,-120,631,-55,172
8255,-27,-204,-123,645,-50,144
8260,-19,-204,-121,590,-32,130
8265,-16,-195,-116,494,-26,119
8270,-14,-193,-120,387,-32,107
8275,-12,-193,-128,265,-43,94
8280,-10,-202,-137,119,-45,85
8285,-12,-224,-144,-40,-36,68
8290,-13,-249,-155,-199,-21,45
8295,-13,-280,-156,-356,-15,28
8300,-14,-308,-160,-514,-15,29
8305,-16,-322,-158,-665,-21,43
8310,-22,-331,-157,-804,-23,56
8315,-19,-335,-156,-926,-11,62
8320,-16,-333,-168,-1051,5,61
8325,-13,-329,-178,-1192,6,62
8330,-14,-322,-184,-1346,-19,70
8335,-33,-307,-197,-1495,-62,87
8340,-62,-284,-193,-1625,-114,110
8345,-94,-255,-184,-1722,-164,139
8350,-114,-233,-176,-1773,-206,159
8355,-120,-210,-161,-1781,-225,165
8360,-97,-188,-139,-1777,-225,145
8365,-60,-194,-118,-1793,-229,110
8370,-27,-217,-116,-1850,-257,74
8375,-12,-248,-127,-1933,-312,62
8380,-14,-296,-152,-1981,-372,81
8385,-23,-334,-184,-1962,-399,109
8390,-35,-360,-213,-1894,-373,128
8395,-39,-365,-236,-1815,-294,140
8400,-63,-389,-245,-1748,-186,147
8405,-68,-394,-259,-1699,-65,145
8410,-72,-400,-250,-1647,42,134
8415,-76,-403,-244,-1567,121,120
8420,-76,-408,-229,-1442,165,112
8425,-68,-401,-209,-1285,182,103
8430,-64,-388,-194,-1125,185,83
8435,-59,-369,-184,-989,170,56
8440,-48,-343,-179,-893,143,20
8445,-41,-330,-177,-830,113,-18
8450,-38,-317,-179,-799,85,-50
8455,-36,-309,-184,-787,64,-82
8460,-34,-300,-193,-787,50,-114
8465,-33,-294,-197,-791,42,-142
8470,-36,-274,-209,-796,41,-165
8475,-38,-267,-211,-782,42,-189
8480,-41,-254,-216,-752,48,-205
8485,-38,-247,-225,-707,58,-214
8490,-38,-238,-230,-657,68,-225
8495,-37,-229,-236,-596,80,-235
8500,-47,-227,-246,-531,98,-241
8505,-42,-224,-259,-458,116,-239
8510,-42,-230,-263,-377,148,-240
8515,-39,-234,-257,-280,180,-241
8520,-40,-235,-256,-165,211,-237
8525,-37,-236,-252,-46,247,-232
8530,-40,-223,-243,68,278,-224
8535,-33,-218,-243,158,314,-221
8540,-41,-216,-233,234,349,-209
8545,-26,-214,-229,320,373,-192
8550,-26,-219,-219,401,404,-186
8555,-40,-214,-219,476,424,-178
8560,-22,-216,-215,551,421,-165
8565,-41,-219,-208,610,427,-167
8570,-39,-222,-206,659,404,-153
8575,-47,-225,-204,700,372,-148
8580,-29,-234,-205,735,337,-146
8585,-36,-232,-202,771,313,-143
8590,-32,-232,-197,813,283,-134
8595,-32,-233,-195,861,240,-118
8600,-34,-234,-191,905,214,-107
8605,-30,-234,-193,944,183,-91
8610,-31,-230,-192,973,146,-70
8615,-24,-226,-189,987,125,-51
8620,-23,-229,-188,985,124,-44
8625,-25,-229,-178,969,115,-41
8630,-25,-231,-175,955,107,-42
8635,-23,-229,-173,948,99,-48
8640,-22,-231,-172,946,97,-51
8645,-22,-231,-172,952,101,-60
8650,-27,-225,-162,963,96,-72
8655,-24,-227,-161,972,81,-77
8660,-23,-222,-161,976,61,-84
8665,-22,-220,-155,963,41,-88
8670,-23,-218,-154,943,17,-90
8675,-21,-217,-152,913,7,-92
8680,-25,-214,-151,874,2,-97
8685,-25,-216,-148,822,0,-96
8690,-24,-215,-146,773,-6,-95
8695,-27,-214,-142,730,-9,-104
8700,-28,-215,-145,693,-10,-111
8705,-29,-211,-141,664,-14,-116
8710,-30,-207,-141,642,-10,-120
8715,-30,-211,-139,624,-5,-118
8720,-28,-205,-134,610,-1,-112
8725,-27,-202,-133,592,3,-107
8730,-25,-197,-131,569,1,-105
8735,-23,-195,-130,540,-5,-104
8740,-26,-193,-128,507,-9,-102
8745,-24,-191,-123,474,-9,-101
8750,-21,-187,-121,439,-7,-100
8755,-15,-189,-125,409,0,-94
8760,-17,-191,-119,384,10,-88
8765,-17,-190,-117,372,18,-79
8770,-16,-191,-113,379,21,-67
8775,-12,-193,-114,394,15,-60
8780,-13,-194,-117,418,9,-56
8785,-18,-194,-115,455,4,-55
8790,-16,-194,-110,507,1,-57
8795,-18,-186,-114,575,-3,-57
8800,-15,-185,-112,651,-9,-59
8805,-16,-180,-119,718,-10,-62
8810,-18,-174,-114,772,-8,-74
8815,-19,-168,-120,821,-3,-88
8820,-21,-161,-115,856,7,-97
8825,-22,-159,-116,890,22,-101
8830,-17,-161,-112,917,39,-105
8835,-18,-156,-109,939,55,-112
8840,-15,-152,-106,959,77,-121
8845,-14,-150,-105,972,98,-124
8850,-14,-148,-105,980,109,-123
8855,-18,-144,-100,979,118,-123
8860,-9,-145,-101,972,118,-121
8865,-14,-142,-95,953,114,-121
8870,-19,-140,-98,939,110,-117
8875,-12,-139,-97,919,102,-111
8880,-17,-137,-93,900,90,-99
8885,-14,-135,-93,885,83,-90
8890,-11,-137,-90,877,77,-74
8895,-11,-141,-88,878,82,-62
8900,-7,-140,-87,879,86,-58
8905,-11,-136,-88,873,88,-57
8910,-10,-135,-87,866,89,-57
8915,-9,-133,-90,847,86,-62
8920,-10,-133,-88,824,87,-70
8925,-10,-138,-87,796,86,-79
8930,-12,-135,-93,772,84,-85
8935,-14,-139,-93,748,82,-92
8940,-13,-137,-90,722,87,-95
8945,-11,-137,-91,706,98,-91
8950,-13,-137,-89,683,112,-86
8955,-15,-139,-88,664,119,-85
8960,-9,-140,-88,647,124,-78
8965,-13,-141,-88,630,129,-80
8970,-15,-139,-86,621,133,-84
8975,-14,-143,-88,612,140,-85
8980,-14,-143,-89,602,148,-83
8985,-15,-142,-86,587,156,-74
8990,-17,-144,-85,576,161,-68
8995,-10,-147,-90,571,160,-63
9000,-6,-144,-89,573,155,-54
9005,-7,-152,-90,579,153,-41
9010,-3,-153,-87,587,152,-32
9015,-1,-155,-88,598,151,-26
9020,0,-152,-86,599,151,-23
9025,0,-156,-85,599,150,-16
9030,-1,-154,-86,602,144,-11
9035,0,-154,-84,609,137,-7
9040,0,-149,-76,603,133,-3
9045,-3,-157,-78,592,125,1
9050,-2,-158,-81,583,117,5
9055,-2,-162,-79,574,109,11
9060,-6,-162,-83,566,99,14
9065,-7,-162,-80,555,88,15
9070,-9,-164,-83,540,77,13
9075,-11,-165,-81,520,69,6
9080,-14,-167,-83,500,61,-1
9085,-19,-171,-83,482,57,-8
9090,-16,-171,-83,465,55,-12
9095,-16,-177,-85,445,62,-16
9100,-23,-180,-84,423,71,-19
9105,-22,-183,-83,406,82,-21
9110,-18,-186,-84,389,92,-21
9115,-20,-188,-86,376,96,-27
9120,-24,-195,-86,361,100,-30
9125,-21,-200,-84,345,97,-31
9130,-20,-209,-83,334,87,-28
9135,-16,-214,-82,334,75,-24
9140,-15,-219,-83,335,64,-22
9145,-11,-226,-84,337,60,-19
9150,-8,-231,-85,332,63,-16
9155,-12,-231,-85,328,67,-12
9160,-12,-233,-88,330,65,-9
9165,-7,-240,-84,330,55,-5
9170,-6,-244,-87,329,42,0
9175,-4,-244,-85,326,27,4
9180,-7,-245,-86,328,9,6
9185,-9,-248,-85,336,-4,7
9190,-14,-245,-81,342,-14,7
9195,-14,-244,-87,346,-23,5
9200,-16,-248,-85,353,-26,0
9205,-20,-242,-84,355,-21,-8
9210,-16,-247,-78,353,-9,-14
9215,-21,-247,-74,356,4,-21
9220,-21,-247,-70,361,16,-28
9225,-17,-249,-72,365,23,-37
9230,-17,-248,-72,369,26,-47
9235,-17,-247,-73,368,28,-55
9240,-13,-243,-71,360,29,-64
9245,-10,-241,-71,349,27,-71
9250,-8,-241,-70,342,26,-76
9255,-9,-237,-69,330,24,-78
9260,-7,-239,-73,317,22,-81
9265,-10,-238,-69,300,21,-78
9270,-10,-244,-68,283,20,-73
9275,-10,-237,-71,268,24,-69
9280,-7,-242,-72,254,29,-65
9285,-10,-243,-70,245,37,-62
9290,-12,-245,-66,242,45,-59
9295,-9,-247,-67,241,49,-58
9300,-13,-245,-70,240,57,-53
9305,-11,-245,-69,230,68,-47
9310,-13,-246,-69,219,74,-37
9315,-11,-249,-70,207,75,-27
9320,-14,-248,-75,195,69,-16
9325,-11,-248,-70,185,66,-7
9330,-12,-247,-74,180,63,3
9335,-12,-247,-69,176,60,13
9340,-10,-245,-69,180,56,22
9345,-8,-244,-74,187,53,29
9350,-7,-244,-71,194,55,37
9355,-7,-240,-67,198,55,41
9360,-6,-239,-70,203,60,44
9365,-8,-236,-74,204,64,43
9370,-7,-238,-67,197,71,43
9375,-10,-238,-67,189,78,42
9380,-9,-238,-65,179,88,36
9385,-8,-236,-70,167,93,32
9390,-12,-235,-69,158,98,28
9395,-13,-238,-70,143,105,24
9400,-13,-236,-70,130,108,22
9405,-14,-242,-69,118,109,21
9410,-13,-239,-66,106,111,21
9415,-14,-239,-75,90,111,22
9420,-13,-243,-72,73,114,24
9425,-19,-246,-73,55,115,27
9430,-18,-248,-69,45,114,28
9435,-17,-249,-65,44,114,29
9440,-16,-250,-70,52,112,27
9445,-20,-249,-66,63,111,27
9450,-16,-249,-62,72,109,25
9455,-19,-249,-63,78,108,21
9460,-18,-246,-65,76,108,16
9465,-19,-247,-64,68,107,12
9470,-17,-245,-64,64,110,9
9475,-19,-247,-61,61,113,4
9480,-21,-248,-60,58,118,-2
9485,-22,-248,-60,56,121,-8
9490,-19,-247,-62,55,123,-13
9495,-20,-245,-61,52,123,-17
9500,-20,-247,-60,48,123,-17
9505,-19,-248,-54,41,119,-20
9510,-18,-248,-54,36,117,-19
9515,-17,-250,-60,33,113,-20
9520,-19,-254,-58,30,109,-21
9525,-14,-251,-56,31,108,-20
9530,-12,-254,-62,33,107,-19
9535,-15,-252,-58,35,109,-16
9540,-14,-253,-57,37,110,-16
9545,-13,-255,-59,38,109,-14
9550,-13,-251,-60,40,107,-14
9555,-16,-251,-59,38,104,-14
9560,-17,-250,-60,37,104,-14
9565,-15,-252,-65,34,103,-16
9570,-16,-252,-66,34,102,-16
9575,-15,-250,-65,35,101,-17
9580,-16,-249,-58,32,104,-16
9585,-12,-250,-55,30,106,-16
9590,-19,-250,-50,31,107,-17
9595,-19,-251,-50,35,107,-17
9600,-14,-249,-56,42,106,-19
9605,-15,-249,-57,46,102,-18
9610,-15,-246,-56,45,98,-18
9615,-18,-247,-54,43,92,-17
9620,-15,-248,-58,38,91,-16
9625,-19,-247,-59,34,90,-16
9630,-16,-247,-58,29,89,-16
9635,-16,-247,-56,26,89,-18
9640,-18,-247,-52,27,92,-19
9645,-18,-247,-52,28,96,-17
9650,-14,-249,-55,30,102,-14
9655,-14,-249,-54,30,108,-12
9660,-16,-247,-55,28,112,-8
9665,-14,-248,-51,26,114,-6
9670,-11,-250,-45,23,113,-5
9675,-13,-252,-48,21,108,-4
9680,-12,-248,-48,19,103,-4
9685,-11,-250,-53,17,101,-5
9690,-8,-247,-57,11,99,-8
9695,-13,-247,-50,3,98,-12
9700,-10,-249,-54,-5,98,-15
9705,-12,-248,-51,-13,101,-20
9710,-13,-249,-48,-19,109,-25
9715,-14,-250,-52,-22,115,-28
9720,-15,-248,-48,-22,123,-30
9725,-17,-252,-51,-22,126,-32
9730,-14,-253,-54,-22,129,-33
9735,-19,-254,-51,-23,130,-33
9740,-16,-256,-51,-28,130,-36
9745,-18,-261,-51,-32,130,-34
9750,-15,-260,-54,-33,128,-33
9755,-16,-261,-53,-28,126,-31
9760,-17,-262,-51,-23,124,-29
9765,-14,-259,-52,-18,120,-27
9770,-17,-255,-54,-11,115,-25
9775,-19,-254,-51,-3,111,-26
9780,-15,-251,-53,5,107,-23
9785,-16,-252,-50,11,104,-21
9790,-15,-250,-51,11,101,-20
9795,-17,-248,-55,10,97,-17
9800,-17,-249,-54,5,93,-13
9805,-19,-244,-54,-1,89,-12
9810,-14,-249,-61,-7,85,-10
9815,-18,-247,-55,-16,83,-9
9820,-16,-248,-54,-24,82,-7
9825,-13,-251,-57,-30,82,-4
9830,-14,-252,-54,-32,84,-4
9835,-12,-251,-51,-33,87,-1
9840,-16,-256,-53,-34,87,1
9845,-13,-254,-54,-37,88,0
9850,-14,-251,-53,-36,87,2
9855,-9,-258,-53,-35,86,2
9860,-11,-251,-54,-34,86,3
9865,-12,-252,-50,-34,88,1
9870,-12,-256,-53,-36,89,-1
9875,-12,-252,-49,-35,91,-2
9880,-12,-256,-48,-35,94,-2
9885,-11,-254,-53,-31,97,-2
9890,-13,-257,-48,-26,101,-2
9895,-12,-254,-49,-22,105,-2
9900,-11,-260,-45,-20,108,0
9905,-14,-255,-45,-18,110,2
9910,-13,-256,-45,-18,111,4
9915,-12,-258,-46,-17,113,5
9920,-12,-256,-46,-15,113,7
9925,-14,-260,-44,-13,113,8
9930,-10,-257,-47,-8,109,8
9935,-12,-255,-43,0,107,10
9940,-14,-253,-45,6,106,11
9945,-14,-252,-44,9,105,11
9950,-13,-251,-45,10,104,12
9955,-12,-250,-44,11,103,11
9960,-12,-252,-43,8,105,12
9965,-11,-252,-41,7,107,10
9970,-12,-253,-44,6,108,7
9975,-14,-251,-44,6,111,7
9980,-13,-252,-41,5,109,5
9985,-12,-254,-42,4,108,-1
9990,-9,-254,-46,4,108,-3
9995,-13,-252,-42,8,108,-5
10000,-12,-255,-45,7,108,-6
10005,-11,-254,-47,9,111,-8
10010,-12,-256,-46,13,111,-10
10015,-12,-256,-50,20,110,-9
10020,-12,-257,-42,30,110,-8
10025,-14,-258,-45,42,111,-7
10030,-10,-258,-50,52,112,-6
10035,-11,-256,-45,60,111,-4
10040,-12,-252,-45,69,111,-3
10045,-10,-252,-46,74,114,-3
10050,-9,-254,-44,78,113,0
10055,-11,-249,-42,78,111,3
10060,-5,-255,-42,80,111,4
10065,-12,-252,-42,84,111,5
10070,-9,-250,-41,88,113,5
10075,-9,-254,-42,90,114,6
10080,-11,-253,-41,97,117,7
10085,-7,-252,-42,106,121,6
10090,-7,-252,-48,116,123,6
10095,-6,-250,-47,122,129,5
10100,-11,-248,-44,123,134,8
10105,-7,-248,-43,123,137,11
10110,-10,-250,-43,120,141,13
10115,-7,-251,-43,120,144,15
10120,-8,-248,-42,121,146,17
10125,-5,-253,-45,123,149,19
10130,-11,-253,-53,125,151,21
10135,-4,-253,-43,131,154,24
10140,-8,-252,-45,139,155,26
10145,-2,-254,-45,144,160,29
10150,-6,-250,-45,147,165,30
10155,-5,-250,-43,150,172,32
10160,-5,-251,-38,152,180,34
10165,-5,-249,-41,153,186,34
10170,-4,-249,-42,152,193,35
10175,-6,-249,-38,152,197,36
10180,-5,-249,-45,155,200,36
10185,-7,-247,-44,159,204,37
10190,-4,-246,-41,163,207,37
10195,0,-247,-44,166,209,37
10200,-4,-247,-43,168,216,37
10205,-4,-248,-44,167,222,37
10210,-6,-248,-46,166,224,33
10215,-8,-244,-51,163,227,29
10220,-8,-246,-46,158,233,27
10225,-8,-248,-47,154,239,25
10230,-9,-248,-48,150,246,21
10235,-12,-249,-51,144,251,17
10240,-17,-255,-70,136,254,12
10245,-9,-255,-53,131,257,5
10250,7,-246,-55,127,263,0
10255,-18,-253,-58,123,267,-7
10260,-21,-267,-59,122,271,-14
10265,-16,-256,-54,119,277,-22
10270,-13,-258,-53,120,282,-30
10275,-15,-257,-50,117,290,-37
10280,-20,-255,-51,113,294,-44
10285,-20,-256,-55,109,299,-52
10290,-18,-254,-45,103,302,-60
10295,-18,-253,-51,96,307,-69
10300,-17,-254,-47,88,309,-77
10305,-19,-251,-46,80,311,-85
10310,-17,-260,-47,71,313,-92
10315,-16,-249,-38,61,311,-97
10320,-16,-253,-40,46,309,-101
10325,-13,-254,-48,35,304,-104
10330,-19,-256,-38,23,296,-106
10335,-13,-252,-41,15,286,-104
10340,-10,-256,-38,7,273,-102
10345,-14,-255,-35,3,258,-98
10350,-25,-259,-38,3,244,-93
10355,-9,-251,-40,0,230,-90
10360,-27,-254,-33,-2,216,-88
10365,-19,-252,-40,-4,206,-85
10370,-19,-254,-47,-6,195,-84
10375,-16,-250,-43,-9,189,-81
10380,-16,-255,-45,-13,182,-79
10385,-15,-255,-47,-22,175,-75
10390,-11,-253,-44,-33,168,-71
10395,-16,-254,-49,-43,158,-67
10400,-18,-253,-49,-53,149,-61
10405,-8,-255,-49,-61,140,-57
10410,-14,-250,-50,-65,132,-48
10415,-15,-254,-50,-66,126,-41
10420,-11,-252,-44,-65,120,-36
10425,-9,-253,-39,-62,118,-28
10430,-12,-264,-39,-58,117,-23
10435,-8,-250,-35,-55,117,-18
10440,-8,-264,-38,-52,120,-13
10445,-8,-258,-42,-51,122,-6
10450,-12,-258,-43,-49,124,3
10455,-3,-258,-44,-48,125,9
10460,-10,-255,-47,-48,124,15
10465,-8,-251,-30,-46,122,20
10470,-9,-253,-50,-46,119,23
10475,-4,-251,-38,-42,115,26
10480,-11,-254,-46,-37,113,26
10485,-10,-253,-45,-32,114,23
10490,-9,-248,-40,-29,114,20
10495,-22,-253,-43,-29,116,17
10500,-15,-251,-50,-30,125,16
10505,-8,-252,-51,-33,131,13
10510,-8,-250,-37,-38,140,10
10515,-8,-254,-43,-46,146,9
10520,-7,-255,-43,-51,152,11
10525,-13,-254,-44,-52,156,10
10530,-9,-257,-43,-52,158,11
10535,-11,-256,-41,-48,160,13
10540,-11,-252,-37,-47,161,13
10545,-4,-254,-32,-43,158,13
10550,-12,-250,-28,-42,155,14
10555,-10,-259,-40,-40,153,14
10560,-17,-255,-42,-42,149,13
10565,-18,-253,-39,-45,144,10
10570,-18,-250,-33,-48,140,8
10575,-18,-250,-32,-50,135,7
10580,-14,-256,-31,-52,128,5
10585,-14,-252,-38,-49,123,4
10590,-28,-250,-34,-45,117,4
10595,-18,-255,-39,-42,112,1
10600,-15,-251,-41,-40,105,-1
10605,-14,-252,-42,-42,98,-5
10610,-12,-249,-45,-45,94,-7
10615,-12,-249,-48,-52,88,-8
10620,-14,-257,-43,-60,82,-10
10625,-8,-252,-52,-65,79,-11
10630,-11,-261,-35,-68,77,-12
10635,-21,-255,-42,-70,72,-11
10640,-15,-255,-42,-70,68,-10
10645,-10,-264,-38,-67,63,-9
10650,-8,-254,-61,-65,58,-9
10655,-23,-265,-41,-61,53,-6
10660,-9,-252,-44,-59,46,-6
10665,-12,-257,-38,-57,41,-5
10670,-10,-256,-39,-57,37,-3
10675,-10,-255,-41,-56,32,-5
10680,-9,-253,-41,-54,27,-3
10685,-10,-255,-37,-55,24,-3
10690,-14,-254,-48,-56,19,-4
10695,-3,-260,-42,-59,18,-4
10700,-1,-246,-50,-64,17,-5
10705,-7,-249,-46,-69,16,-5
10710,-5,-255,-33,-72,17,-6
10715,-3,-257,-52,-76,17,-7
10720,-4,-254,-52,-76,15,-10
10725,-7,-254,-41,-79,15,-11
10730,-5,-254,-46,-80,15,-11
10735,-5,-252,-45,-83,14,-12
10740,-4,-253,-43,-84,12,-12
10745,-3,-257,-41,-85,11,-13
10750,-4,-255,-42,-85,10,-14
10755,-5,-254,-39,-86,8,-12
10760,-8,-253,-43,-85,6,-12
10765,-9,-251,-46,-78,-1,-11
10770,-9,-256,-53,-71,-6,-9
10775,-4,-254,-49,-65,-8,-9
10780,-5,-252,-49,-62,-8,-6
10785,-5,-255,-47,-63,-7,-6
10790,-6,-245,-35,-62,-4,-4
10795,-6,-253,-43,-61,0,-1
10800,-8,-255,-44,-58,4,2
10805,-9,-254,-42,-55,6,3
10810,-6,-254,-43,-54,9,5
10815,-4,-254,-41,-51,8,6
10820,-6,-256,-43,-46,8,8
10825,-7,-255,-43,-43,8,8
10830,-4,-255,-46,-41,8,8
10835,-2,-254,-44,-41,7,7
10840,-7,-252,-43,-44,7,7
10845,-8,-252,-44,-45,8,8
10850,-4,-255,-44,-45,9,9
10855,-5,-251,-43,-44,12,8
10860,-7,-255,-41,-41,14,8
10865,-4,-257,-45,-39,16,8
10870,-5,-255,-46,-37,17,7
10875,-4,-256,-46,-34,20,7
10880,-3,-257,-46,-30,20,5
10885,-6,-256,-48,-25,22,5
10890,-5,-253,-47,-22,20,5
10895,-4,-256,-49,-21,21,5
10900,-4,-253,-50,-21,25,5
10905,-4,-252,-48,-20,28,5
10910,-6,-253,-46,-19,29,5
10915,-4,-251,-49,-19,34,6
10920,-7,-252,-47,-18,37,5
10925,-6,-254,-45,-20,39,7
10930,-10,-252,-48,-20,43,8
10935,-9,-254,-48,-17,44,8
10940,-9,-252,-48,-16,44,10
10945,-8,-255,-48,-12,44,11
10950,-7,-253,-46,-8,46,11
10955,-7,-253,-50,-8,45,11
10960,-6,-253,-47,-11,46,10
10965,-8,-255,-49,-16,47,11
10970,-5,-254,-48,-19,47,12
10975,-10,-252,-47,-20,46,11
10980,-6,-255,-46,-17,44,8
10985,-4,-257,-46,-11,42,10
10990,-6,-253,-43,-4,40,10
10995,-5,-253,-44,1,39,8
11000,-8,-251,-45,7,37,7
11005,-8,-251,-45,10,36,8
11010,-7,-249,-47,12,37,7
11015,-4,-251,-46,14,39,7
11020,-8,-251,-43,14,38,5
11025,-5,-251,-51,12,41,5
11030,-2,-249,-48,8,43,4
11035,-6,-251,-41,1,47,6
11040,-7,-253,-39,-3,48,5
11045,-10,-251,-46,-2,50,4
11050,-8,-252,-46,-1,53,0
11055,-8,-251,-44,-3,55,-1
11060,-8,-251,-46,-4,58,-3
11065,-9,-250,-47,-5,59,-4
11070,-9,-253,-45,-4,62,-3
11075,-7,-254,-43,-2,64,-3
11080,-9,-251,-43,0,63,-4
11085,-8,-252,-48,3,64,-4
11090,-8,-251,-47,4,64,-6
11095,-7,-249,-43,3,65,-5
11100,-11,-250,-47,0,63,-5
11105,-8,-251,-46,-5,61,-6
11110,-11,-250,-44,-9,59,-8
11115,-10,-251,-47,-12,58,-10
11120,-10,-251,-47,-10,58,-11
11125,-8,-252,-47,-9,56,-10
11130,-9,-252,-48,-7,55,-12
11135,-10,-251,-49,-6,55,-12
11140,-12,-250,-47,-9,58,-12
11145,-10,-252,-48,-15,59,-11
11150,-10,-254,-48,-20,59,-12
11155,-12,-253,-49,-25,59,-10
11160,-9,-256,-48,-27,59,-7
11165,-10,-256,-51,-26,57,-5
11170,-9,-256,-50,-23,57,-3
11175,-10,-257,-48,-19,57,0
11180,-8,-257,-51,-14,58,3
11185,-10,-258,-50,-7,56,6
11190,-9,-254,-49,-1,56,6
11195,-8,-254,-49,3,55,5
11200,-10,-252,-51,5,56,6
11205,-8,-253,-46,6,55,7
11210,-10,-252,-46,9,53,8
11215,-9,-248,-49,9,54,8
11220,-7,-249,-49,6,56,8
11225,-10,-248,-45,1,55,7
11230,-13,-248,-47,-2,55,5
11235,-10,-248,-47,-5,57,3
11240,-7,-250,-48,-16,58,1
11245,-12,-250,-48,-24,60,2
11250,-13,-249,-41,-29,63,3
11255,-11,-248,-47,-31,63,3
11260,-10,-253,-42,-36,62,1
11265,-11,-252,-43,-42,62,4
11270,-7,-254,-46,-44,58,6
11275,-10,-253,-45,-46,56,7
11280,-10,-256,-45,-49,54,11
11285,-11,-258,-47,-50,53,14
11290,-10,-253,-47,-43,50,14
11295,-6,-254,-45,-32,50,15
11300,-10,-253,-44,-21,50,14
11305,-13,-252,-47,-15,49,14
11310,-11,-252,-49,-12,52,15
11315,-5,-251,-47,-14,56,15
11320,-11,-249,-46,-20,59,15
11325,-11,-249,-49,-27,60,15
11330,-6,-253,-49,-33,61,15
11335,-10,-253,-43,-36,62,15
11340,-13,-250,-43,-35,62,14
11345,-13,-250,-43,-35,60,14
11350,-10,-251,-46,-36,57,13
11355,-13,-253,-44,-37,57,14
11360,-11,-252,-46,-36,58,13
11365,-12,-251,-47,-36,55,14
11370,-15,-252,-46,-37,52,12
11375,-13,-253,-43,-35,50,10
11380,-13,-255,-48,-31,47,9
11385,-9,-257,-50,-25,47,8
11390,-12,-256,-48,-20,47,8
11395,-10,-253,-46,-17,47,9
11400,-12,-252,-49,-15,46,9
11405,-9,-254,-44,-14,48,10
11410,-8,-252,-46,-16,50,10
11415,-10,-250,-48,-17,50,10
11420,-9,-253,-46,-15,49,10
11425,-10,-255,-43,-15,49,10
11430,-12,-253,-46,-12,46,9
11435,-6,-252,-37,-11,44,10
11440,-11,-256,-41,-7,41,11
11445,-13,-252,-45,-1,41,12
11450,-10,-256,-48,4,39,11
11455,-11,-253,-49,7,39,9
11460,-12,-258,-49,7,41,9
11465,-12,-252,-46,4,44,7
11470,-8,-251,-43,1,45,6
11475,-10,-254,-46,-1,47,5
11480,-10,-252,-44,2,48,4
11485,-9,-252,-43,4,50,3
11490,-8,-253,-45,8,51,4
11495,-11,-252,-46,9,53,3
11500,-11,-250,-43,9,54,2
11505,-10,-249,-45,13,57,2
11510,-9,-249,-43,16,59,2
11515,-10,-251,-47,18,60,4
11520,-9,-250,-43,18,61,3
11525,-11,-251,-45,15,62,3
11530,-10,-249,-44,11,61,3
11535,-10,-251,-47,4,61,2
11540,-10,-252,-43,0,61,2
11545,-20,-258,-42,-5,61,3
11550,-8,-255,-43,-9,62,3
11555,-8,-253,-43,-10,61,3
11560,-11,-256,-41,-10,61,1
11565,-9,-252,-44,-9,59,2
11570,-9,-254,-43,-5,59,1
11575,-10,-253,-45,-2,59,2
11580,-12,-253,-45,0,63,0
11585,-10,-251,-46,0,65,-1
11590,-8,-252,-46,1,66,0
11595,-8,-254,-45,3,69,-1
11600,-9,-256,-45,6,70,-1
11605,-8,-255,-44,9,71,0
11610,-8,-253,-44,10,71,0
11615,-9,-255,-45,10,71,-1
11620,-11,-253,-48,12,72,1
11625,-10,-251,-45,13,72,1
11630,-10,-250,-44,12,73,1
11635,-10,-253,-45,9,74,1
11640,-8,-255,-44,5,76,0
11645,-10,-253,-47,2,77,0
11650,-11,-255,-47,0,77,0
11655,-12,-252,-48,-2,75,-3
11660,-9,-252,-48,0,75,-2
11665,-12,-251,-44,0,76,-3
11670,-11,-253,-45,2,74,-3
11675,-9,-257,-42,2,73,-2
11680,-13,-254,-43,0,72,-2
11685,-12,-252,-45,1,73,-2
11690,-10,-253,-42,4,74,0
11695,-12,-254,-46,6,71,-2
11700,-10,-253,-46,8,71,-2
11705,-10,-251,-46,12,71,-4
11710,-12,-249,-44,15,71,-4
11715,-12,-250,-44,15,69,-3
11720,-12,-253,-43,11,71,-5
11725,-14,-252,-46,7,70,-6
11730,-14,-250,-44,2,70,-7
11735,-13,-253,-46,-4,69,-9
11740,-9,-254,-45,-5,68,-10
11745,-9,-254,-44,-5,67,-10
11750,-12,-254,-44,-1,66,-9
11755,-13,-253,-44,2,64,-8
11760,-12,-255,-45,4,63,-7
11765,-15,-255,-46,5,62,-7
11770,-12,-254,-44,8,60,-8
11775,-11,-255,-46,13,59,-9
11780,-10,-252,-44,15,61,-10
11785,-11,-249,-43,16,62,-11
11790,-13,-254,-46,14,62,-11
11795,-13,-250,-47,11,61,-10
11800,-11,-254,-46,11,61,-10
11805,-11,-251,-49,7,62,-7
11810,-12,-249,-46,3,62,-7
11815,-12,-257,-43,1,60,-7
11820,-12,-254,-43,1,58,-7
11825,-10,-255,-41,4,58,-8
11830,-12,-254,-48,7,57,-8
11835,-10,-254,-44,10,58,-8
11840,-11,-251,-45,11,59,-11
11845,-7,-255,-47,12,62,-11
11850,-11,-254,-44,13,64,-11
11855,-10,-254,-45,13,63,-12
11860,-11,-254,-47,12,64,-11
11865,-11,-253,-43,11,64,-11
11870,-13,-255,-43,9,64,-12
11875,-9,-262,-43,8,62,-11
11880,-13,-254,-42,9,61,-10
11885,-13,-254,-41,9,58,-10
11890,-13,-252,-43,9,58,-9
11895,-12,-255,-45,11,55,-10
11900,-9,-254,-42,13,55,-8
11905,-13,-251,-45,12,56,-6
11910,-8,-254,-42,12,57,-7
11915,-9,-253,-43,12,59,-5
11920,-13,-249,-40,11,59,-5
11925,-8,-255,-46,11,60,-5
11930,-9,-251,-45,10,61,-3
11935,-9,-256,-50,9,65,-3
11940,-10,-255,-44,7,68,-2
11945,-11,-254,-43,9,69,-3
11950,-11,-255,-46,9,69,-3
11955,-7,-256,-48,14,71,-4
11960,-10,-256,-45,18,71,-3
11965,-11,-253,-42,21,71,-4
11970,-11,-254,-44,23,72,-5
11975,-7,-255,-45,23,73,-6
11980,-12,-255,-47,23,75,-6
11985,-9,-253,-41,23,74,-5
11990,-7,-253,-45,22,75,-5
11995,-11,-253,-44,22,76,-4
