timestamp,acc_x,acc_y,acc_z,gyro_x,gyro_y,gyro_z
0,-10,-256,-53,-22,86,-5
5,-13,-258,-53,-23,86,-5
10,-12,-256,-56,-22,86,-6
15,-13,-256,-51,-21,83,-6
20,-16,-254,-52,-20,84,-6
25,-20,-260,-59,-19,84,-7
30,-16,-254,-51,-21,82,-5
35,-16,-255,-52,-23,80,-4
40,-12,-256,-55,-24,78,-5
45,-12,-255,-53,-25,77,-5
50,-14,-258,-52,-25,76,-4
55,-15,-257,-57,-24,75,-3
60,-15,-255,-55,-20,73,-4
65,-14,-254,-58,-14,70,-2
70,-13,-256,-57,-10,69,-2
75,-6,-250,-50,-8,68,-2
80,-15,-255,-58,-8,66,-1
85,-12,-255,-53,-9,68,0
90,-15,-255,-59,-11,68,1
95,-13,-255,-50,-13,68,1
100,-11,-255,-54,-16,70,0
105,-13,-256,-54,-18,71,-1
110,-15,-254,-51,-22,72,-2
115,-15,-255,-55,-25,75,-3
120,-14,-256,-51,-25,78,-3
125,-13,-259,-55,-25,79,-4
130,-12,-257,-53,-23,81,-4
135,-14,-259,-50,-21,82,-3
140,-13,-256,-55,-19,84,-4
145,-15,-257,-52,-17,84,-3
150,-15,-256,-53,-14,85,-4
155,-13,-257,-53,-10,83,-3
160,-14,-256,-55,-11,83,-4
165,-14,-257,-56,-10,80,-3
170,-13,-258,-56,-11,79,-3
175,-16,-255,-52,-11,78,-2
180,-13,-256,-57,-12,76,-3
185,-13,-256,-53,-12,76,-3
190,-14,-255,-56,-13,74,-1
195,-17,-256,-56,-12,74,-1
200,-14,-255,-55,-10,73,-1
205,-15,-256,-56,-10,74,-2
210,-13,-256,-54,-9,72,-1
215,-12,-254,-55,-10,70,-2
220,-15,-255,-51,-9,71,-3
225,-14,-256,-56,-9,70,-1
230,-14,-254,-50,-10,70,-2
235,-13,-254,-54,-10,69,-1
240,-15,-257,-53,-10,69,-1
245,-15,-254,-53,-10,69,-3
250,-14,-252,-52,-9,71,-2
255,-14,-254,-54,-9,70,-3
260,-15,-257,-56,-10,72,-2
265,-12,-254,-50,-9,72,-3
270,-12,-256,-56,-8,73,-4
275,-12,-253,-54,-7,75,-5
280,-13,-255,-52,-8,76,-3
285,-12,-254,-56,-9,78,-4
290,-14,-255,-53,-10,78,-5
295,-13,-256,-53,-11,78,-6
300,-13,-256,-50,-12,76,-7
305,-12,-255,-56,-14,75,-6
310,-10,-256,-53,-15,75,-7
315,-15,-256,-51,-14,75,-6
320,-17,-255,-50,-14,74,-6
325,-12,-256,-52,-12,73,-5
330,-14,-256,-51,-14,73,-4
335,-15,-255,-55,-15,70,-4
340,-14,-256,-53,-16,69,-5
345,-13,-255,-53,-18,67,-5
350,-14,-257,-54,-18,67,-4
355,-13,-257,-51,-19,68,-4
360,-11,-257,-57,-19,69,-3
365,-13,-258,-53,-19,70,-4
370,-15,-256,-56,-18,70,-4
375,-13,-257,-54,-17,69,-5
380,-14,-257,-52,-17,69,-5
385,-12,-257,-58,-14,69,-6
390,-13,-255,-54,-11,69,-5
395,-13,-254,-52,-10,70,-7
400,-12,-256,-52,-9,71,-7
405,-11,-257,-53,-7,72,-7
410,-15,-255,-52,-7,72,-6
415,-13,-257,-52,-8,74,-5
420,-14,-256,-54,-7,74,-5
425,-12,-253,-52,-8,75,-6
430,-15,-254,-50,-8,75,-6
435,-12,-257,-51,-8,75,-5
440,-10,-257,-53,-9,75,-5
445,-11,-258,-54,-9,74,-5
450,-11,-256,-52,-12,72,-5
455,-12,-258,-54,-12,73,-5
460,-11,-256,-54,-13,72,-3
465,-14,-254,-53,-14,73,-3
470,-13,-255,-55,-14,73,-1
475,-14,-256,-53,-14,76,-1
480,-13,-256,-52,-15,77,-3
485,-16,-254,-52,-13,78,-3
490,-9,-256,-48,-14,79,-2
495,-13,-254,-53,-15,80,-3
500,-17,-257,-55,-15,79,-2
505,-12,-255,-51,-14,81,-3
510,-14,-255,-52,-15,81,-3
515,-12,-256,-52,-16,81,-3
520,-12,-256,-54,-16,82,-4
525,-14,-257,-55,-15,82,-3
530,-17,-256,-56,-16,83,-4
535,-12,-254,-56,-16,84,-3
540,-15,-258,-56,-14,83,-2
545,-10,-255,-60,-12,82,-2
550,-13,-256,-56,-11,82,-5
555,-13,-256,-54,-9,82,-5
560,-14,-255,-52,-7,81,-4
565,-13,-255,-56,-7,81,-4
570,-14,-258,-54,-6,80,-4
575,-15,-254,-53,-5,81,-4
580,-14,-257,-50,-4,81,-5
585,-14,-256,-49,-6,81,-5
590,-13,-254,-54,-6,81,-4
595,-13,-254,-53,-8,80,-3
600,-12,-255,-54,-8,80,-3
605,-12,-254,-51,-8,79,-3
610,-10,-255,-54,-8,79,-2
615,-13,-256,-57,-6,81,-1
620,-14,-256,-51,-8,80,-1
625,-11,-256,-54,-6,81,-1
630,-13,-257,-55,-5,80,-2
635,-12,-256,-57,-4,78,-3
640,-11,-255,-56,-4,78,-3
645,-14,-255,-54,-4,77,-1
650,-16,-256,-54,-5,76,-2
655,-15,-255,-52,-6,76,0
660,-13,-256,-55,-6,77,0
665,-13,-256,-53,-6,76,-2
670,-16,-255,-60,-7,76,-2
675,-10,-256,-53,-6,76,-1
680,-12,-255,-52,-5,77,-2
685,-12,-255,-52,-5,76,-1
690,-12,-256,-53,-6,76,-2
695,-13,-252,-53,-7,77,0
700,-16,-254,-55,-8,75,-1
705,-14,-255,-54,-10,74,-1
710,-13,-255,-53,-11,74,1
715,-12,-254,-51,-11,73,1
720,-14,-253,-56,-12,72,1
725,-12,-256,-57,-15,73,1
730,-11,-265,-50,-16,74,2
735,-13,-255,-55,-16,75,2
740,-13,-255,-52,-17,76,1
745,-15,-256,-52,-14,76,1
750,-15,-254,-53,-12,74,0
755,-13,-256,-54,-9,74,-1
760,-15,-257,-48,-6,74,-2
765,-12,-257,-52,-5,74,-2
770,-13,-254,-54,-4,75,-2
775,-11,-255,-53,-4,76,-2
780,-13,-256,-56,-7,75,-4
785,-12,-256,-57,-8,75,-4
790,-12,-257,-59,-8,73,-5
795,-12,-256,-54,-8,72,-5
800,-11,-257,-53,-7,73,-5
805,-12,-257,-55,-5,74,-5
810,-12,-254,-55,-3,73,-3
815,-14,-256,-56,0,71,-5
820,-15,-256,-55,0,71,-4
825,-12,-254,-56,-2,72,-2
830,-14,-255,-50,-5,71,-2
835,-15,-256,-58,-7,70,-2
840,-10,-253,-53,-9,69,-1
845,-15,-253,-52,-9,67,-1
850,-14,-257,-55,-9,68,-1
855,-16,-255,-54,-7,67,-2
860,-14,-255,-51,-7,67,0
865,-14,-254,-52,-5,65,-1
870,-14,-255,-51,-4,63,0
875,-13,-256,-55,-3,63,-2
880,-11,-256,-54,-3,64,-2
885,-12,-255,-55,-6,66,-2
890,-14,-256,-53,-8,66,-2
895,-12,-255,-52,-12,69,-3
900,-14,-254,-51,-15,71,-3
905,-15,-255,-53,-17,73,-4
910,-14,-256,-56,-17,72,-4
915,-11,-257,-51,-17,72,-6
920,-15,-256,-50,-15,72,-6
925,-15,-257,-53,-13,70,-6
930,-14,-255,-51,-10,70,-5
935,-16,-257,-48,-6,68,-4
940,-15,-257,-50,-4,67,-4
945,-16,-255,-48,-3,67,-4
950,-18,-252,-60,-4,65,-5
955,-16,-256,-53,-5,63,-3
960,-13,-255,-54,-7,62,-2
965,-14,-257,-52,-8,62,-3
970,-12,-256,-53,-9,59,-3
975,-13,-253,-51,-10,59,-2
980,-12,-258,-54,-9,59,-2
985,-14,-256,-53,-10,57,-1
990,-13,-257,-55,-9,56,-2
995,-11,-258,-55,-7,55,-3
1000,-14,-254,-55,-6,56,-3
1005,-15,-255,-52,-5,55,-4
1010,-12,-256,-53,-2,54,-5
1015,-12,-256,-54,-1,54,-4
1020,-11,-257,-53,0,54,-3
1025,-13,-257,-53,-1,55,-3
1030,-14,-255,-51,-3,55,-3
1035,-14,-254,-51,-5,54,-3
1040,-15,-255,-52,-8,56,-2
1045,-15,-254,-49,-11,57,-3
1050,-12,-257,-51,-12,58,-4
1055,-17,-251,-51,-13,61,-3
1060,-12,-256,-51,-13,63,-4
1065,-16,-255,-50,-14,65,-3
1070,-14,-255,-55,-11,66,-4
1075,-15,-256,-53,-10,66,-4
1080,-13,-256,-55,-8,66,-5
1085,-12,-254,-53,-6,68,-4
1090,-14,-257,-56,-6,67,-4
1095,-13,-256,-54,-6,66,-5
1100,-13,-256,-56,-5,65,-7
1105,-15,-258,-51,-4,64,-6
1110,-16,-255,-54,-6,63,-7
1115,-16,-256,-53,-6,61,-7
1120,-11,-257,-53,-8,61,-6
1125,-13,-257,-53,-8,60,-4
1130,-12,-255,-55,-8,59,-5
1135,-15,-256,-52,-8,59,-3
1140,-15,-255,-51,-11,58,-5
1145,-11,-255,-52,-13,56,-4
1150,-14,-256,-55,-14,55,-4
1155,-12,-257,-54,-16,54,-5
1160,-13,-257,-53,-18,54,-5
1165,-13,-254,-58,-18,53,-5
1170,-14,-256,-53,-20,53,-6
1175,-14,-256,-56,-19,54,-4
1180,-13,-255,-53,-19,57,-5
1185,-13,-258,-54,-17,60,-6
1190,-14,-256,-51,-17,62,-6
1195,-13,-254,-52,-17,64,-5
1200,-15,-256,-49,-16,64,-5
1205,-12,-256,-52,-16,64,-4
1210,-17,-253,-53,-17,62,-6
1215,-16,-255,-50,-18,61,-5
1220,-12,-256,-52,-19,61,-5
1225,-12,-255,-51,-19,61,-5
1230,-13,-257,-54,-18,61,-4
1235,-13,-255,-51,-19,60,-3
1240,-14,-255,-52,-19,60,-3
1245,-13,-256,-55,-19,62,-3
1250,-11,-258,-51,-19,62,-3
1255,-13,-256,-50,-20,64,-3
1260,-12,-256,-53,-19,65,-4
1265,-12,-256,-52,-18,66,-3
1270,-13,-255,-51,-18,66,-3
1275,-10,-252,-59,-18,65,-3
1280,-15,-255,-53,-20,65,-3
1285,-11,-255,-55,-20,64,-2
1290,-14,-257,-50,-21,64,-2
1295,-12,-256,-54,-22,65,-3
1300,-12,-255,-52,-23,65,-2
1305,-16,-253,-54,-26,65,-1
1310,-14,-257,-54,-28,64,-1
1315,-13,-256,-55,-28,63,-1
1320,-13,-255,-54,-29,62,-1
1325,-9,-258,-54,-28,61,-3
1330,-13,-257,-56,-26,62,-2
1335,-14,-257,-53,-25,61,-1
1340,-14,-259,-50,-24,61,-1
1345,-13,-257,-51,-25,61,-1
1350,-17,-256,-53,-26,63,0
1355,-14,-259,-56,-26,66,-1
1360,-14,-255,-55,-25,67,-2
1365,-15,-257,-50,-25,67,0
1370,-15,-256,-53,-25,67,-1
1375,-16,-255,-54,-26,68,0
1380,-12,-256,-53,-26,68,0
1385,-12,-253,-49,-27,68,-1
1390,-16,-253,-52,-28,70,-1
1395,-14,-255,-52,-29,71,0
1400,-14,-256,-55,-30,71,1
1405,-13,-255,-53,-31,72,1
1410,-14,-254,-55,-30,70,-1
1415,-12,-257,-49,-32,70,-2
1420,-14,-254,-53,-30,70,0
1425,-15,-256,-51,-31,71,-1
1430,-14,-259,-56,-33,71,0
1435,-13,-256,-52,-35,71,1
1440,-14,-255,-51,-36,69,2
1445,-15,-255,-53,-37,70,3
1450,-14,-255,-51,-38,71,2
1455,-15,-254,-55,-41,69,2
1460,-13,-256,-52,-42,68,2
1465,-12,-255,-56,-41,66,2
1470,-15,-256,-51,-42,63,0
1475,-12,-253,-57,-44,61,4
1480,-13,-254,-57,-45,60,3
1485,-14,-255,-57,-48,61,3
1490,-15,-255,-52,-48,62,5
1495,-13,-254,-60,-50,63,4
1500,-17,-257,-51,-49,65,5
1505,-16,-255,-54,-50,66,3
1510,-14,-253,-54,-50,67,3
1515,-13,-256,-56,-48,67,3
1520,-15,-256,-55,-47,66,4
1525,-13,-256,-52,-45,67,4
1530,-12,-258,-57,-42,70,4
1535,-13,-258,-55,-40,71,3
1540,-13,-258,-55,-40,73,2
1545,-13,-257,-56,-41,75,1
1550,-15,-256,-52,-45,78,0
1555,-11,-258,-55,-50,78,-1
1560,-14,-256,-53,-54,78,-2
1565,-13,-257,-54,-58,79,-3
1570,-14,-256,-52,-61,79,-4
1575,-16,-257,-59,-60,78,-5
1580,-14,-256,-56,-57,77,-5
1585,-16,-256,-59,-53,75,-6
1590,-13,-256,-58,-50,75,-5
1595,-12,-256,-61,-45,74,-4
1600,-14,-256,-56,-42,73,-5
1605,-16,-251,-57,-42,75,-5
1610,-12,-255,-58,-43,76,-5
1615,-11,-254,-55,-44,76,-5
1620,-14,-253,-56,-47,74,-4
1625,-15,-253,-55,-48,73,-4
1630,-13,-254,-52,-52,74,-2
1635,-11,-256,-58,-54,73,-2
1640,-14,-253,-58,-55,75,-1
1645,-11,-255,-52,-57,75,-1
1650,-16,-255,-56,-58,74,-1
1655,-13,-255,-55,-60,75,1
1660,-14,-254,-57,-60,74,0
1665,-13,-257,-54,-59,74,-1
1670,-13,-256,-55,-58,73,0
1675,-12,-259,-52,-59,74,0
1680,-14,-254,-59,-56,75,2
1685,-17,-256,-56,-57,73,1
1690,-15,-256,-58,-57,73,2
1695,-14,-255,-58,-56,72,2
1700,-16,-255,-56,-55,71,3
1705,-10,-256,-55,-54,71,4
1710,-17,-255,-57,-55,71,4
1715,-11,-255,-55,-52,70,3
1720,-14,-256,-52,-51,71,3
1725,-10,-256,-58,-49,69,2
1730,-14,-253,-55,-46,69,0
1735,-14,-255,-53,-43,69,1
1740,-17,-257,-59,-42,68,2
1745,-13,-255,-55,-41,70,2
1750,-12,-255,-55,-42,72,2
1755,-17,-253,-60,-43,73,1
1760,-13,-254,-59,-44,74,0
1765,-14,-254,-61,-45,77,-1
1770,-11,-256,-59,-46,77,0
1775,-12,-254,-59,-48,77,0
1780,-12,-254,-59,-48,77,-1
1785,-15,-254,-54,-49,76,-1
1790,-14,-255,-53,-48,75,1
1795,-16,-251,-59,-50,73,1
1800,-16,-255,-56,-50,74,-1
1805,-14,-256,-54,-50,73,1
1810,-16,-253,-55,-50,74,0
1815,-18,-255,-58,-50,72,0
1820,-15,-254,-57,-50,72,-2
1825,-18,-255,-55,-51,70,0
1830,-15,-256,-54,-50,69,-1
1835,-16,-254,-56,-51,67,-1
1840,-14,-258,-57,-50,67,-3
1845,-14,-255,-56,-50,67,-3
1850,-15,-256,-55,-48,65,-2
1855,-14,-257,-55,-46,64,-2
1860,-16,-255,-54,-45,61,-4
1865,-15,-253,-54,-42,61,-4
1870,-17,-254,-59,-41,62,-4
1875,-14,-253,-55,-38,63,-6
1880,-15,-255,-58,-37,61,-5
1885,-14,-257,-59,-34,59,-5
1890,-15,-256,-59,-33,59,-5
1895,-14,-254,-60,-33,60,-5
1900,-13,-255,-61,-31,59,-5
1905,-13,-256,-60,-31,60,-5
1910,-12,-256,-60,-30,62,-5
1915,-14,-256,-62,-28,62,-5
1920,-16,-253,-60,-27,65,-5
1925,-13,-254,-61,-27,65,-4
1930,-20,-253,-65,-26,67,-3
1935,-15,-255,-57,-25,67,-2
1940,-12,-257,-59,-23,67,-3
1945,-14,-251,-59,-22,66,-1
1950,-13,-256,-56,-20,65,0
1955,-13,-259,-59,-18,67,0
1960,-15,-254,-55,-18,69,0
1965,-13,-253,-54,-18,70,1
1970,-15,-254,-55,-17,70,2
1975,-14,-256,-57,-17,68,1
1980,-13,-255,-58,-17,69,0
1985,-15,-255,-60,-15,70,1
1990,-15,-255,-57,-13,70,-1
1995,-13,-255,-54,-11,71,-1
2000,-15,-256,-58,-10,71,-1
2005,-15,-252,-58,-10,72,-2
2010,-14,-256,-60,-9,73,-1
2015,-13,-255,-56,-9,73,-1
2020,-13,-256,-60,-10,74,-1
2025,-14,-254,-58,-12,77,-1
2030,-14,-255,-58,-12,79,-2
2035,-12,-256,-59,-12,80,-3
2040,-11,-255,-59,-11,82,-2
2045,-12,-254,-56,-11,82,-2
2050,-11,-255,-59,-12,83,-2
2055,-13,-257,-60,-11,83,-3
2060,-12,-254,-60,-11,81,-2
2065,-13,-255,-55,-10,82,-1
2070,-13,-254,-56,-10,81,0
2075,-17,-254,-61,-9,81,1
2080,-14,-253,-58,-9,80,0
2085,-14,-253,-58,-9,78,1
2090,-13,-254,-58,-9,78,3
2095,-14,-254,-59,-8,77,1
2100,-14,-256,-55,-8,77,1
2105,-17,-254,-57,-10,77,1
2110,-15,-256,-58,-13,79,0
2115,-13,-253,-60,-13,81,1
2120,-18,-253,-55,-15,83,0
2125,-13,-253,-60,-17,84,1
2130,-15,-255,-55,-18,84,1
2135,-17,-251,-55,-19,84,1
2140,-13,-254,-61,-20,85,3
2145,-13,-258,-57,-20,84,2
2150,-19,-253,-60,-21,83,1
2155,-16,-254,-57,-21,83,1
2160,-15,-251,-62,-20,83,1
2165,-14,-255,-61,-20,84,1
2170,-14,-254,-61,-20,84,0
2175,-16,-254,-56,-18,83,1
2180,-13,-255,-60,-18,84,0
2185,-13,-256,-60,-16,83,1
2190,-14,-254,-60,-16,81,-1
2195,-13,-255,-62,-16,80,-1
2200,-15,-254,-59,-17,81,-3
2205,-16,-254,-60,-18,79,-3
2210,-13,-255,-54,-18,79,-3
2215,-15,-255,-57,-18,78,-4
2220,-14,-256,-61,-17,78,-4
2225,-13,-255,-58,-19,79,-3
2230,-15,-254,-57,-18,79,-4
2235,-14,-254,-56,-21,80,-4
2240,-14,-254,-62,-23,80,-3
2245,-15,-256,-61,-23,77,-3
2250,-15,-255,-55,-23,77,-3
2255,-14,-256,-53,-22,75,-3
2260,-14,-255,-60,-21,73,-4
2265,-13,-253,-60,-20,73,-5
2270,-14,-255,-61,-21,72,-3
2275,-15,-254,-60,-19,72,-2
2280,-12,-255,-60,-18,71,-2
2285,-14,-254,-60,-18,71,-1
2290,-17,-254,-56,-18,70,-1
2295,-16,-253,-60,-18,70,-2
2300,-14,-255,-59,-18,69,-3
2305,-12,-263,-60,-17,70,-3
2310,-14,-257,-59,-16,71,-1
2315,-15,-253,-60,-15,71,-1
2320,-18,-254,-60,-14,70,-3
2325,-13,-254,-57,-13,70,-3
2330,-14,-256,-57,-13,70,-3
2335,-13,-256,-59,-13,70,-4
2340,-14,-257,-62,-12,72,-6
2345,-9,-256,-62,-13,73,-6
2350,-13,-255,-59,-14,74,-6
2355,-14,-256,-58,-17,73,-7
2360,-15,-254,-59,-18,73,-7
2365,-14,-256,-58,-17,72,-8
2370,-14,-256,-61,-16,73,-7
2375,-15,-254,-57,-16,73,-9
2380,-14,-256,-60,-14,72,-10
2385,-17,-253,-57,-10,73,-8
2390,-16,-255,-57,-7,71,-8
2395,-14,-254,-61,-6,68,-9
2400,-16,-255,-57,-4,69,-8
2405,-13,-255,-62,-6,68,-6
2410,-13,-254,-58,-7,67,-5
2415,-14,-256,-58,-8,68,-4
2420,-17,-255,-58,-9,71,-4
2425,-14,-253,-58,-11,71,-4
2430,-14,-254,-61,-12,70,-2
2435,-11,-254,-58,-11,69,-3
2440,-13,-254,-58,-11,69,-2
2445,-13,-253,-59,-11,69,-5
2450,-14,-253,-58,-12,69,-4
2455,-14,-255,-58,-13,71,-4
2460,-14,-255,-57,-16,72,-5
2465,-13,-256,-63,-18,73,-4
2470,-12,-256,-57,-20,74,-4
2475,-18,-253,-60,-22,76,-5
2480,-14,-254,-59,-20,79,-4
2485,-16,-253,-55,-17,81,-4
2490,-15,-254,-58,-14,81,-4
2495,-17,-255,-57,-12,82,-4
2500,-12,-255,-59,-9,80,-6
2505,-14,-256,-59,-7,79,-5
2510,-13,-256,-60,-7,76,-5
2515,-13,-255,-60,-7,74,-4
2520,-16,-256,-58,-10,74,-3
2525,-11,-254,-59,-12,72,-4
2530,-13,-253,-59,-15,71,-4
2535,-15,-256,-59,-17,69,-3
2540,-16,-255,-61,-19,68,-4
2545,-15,-253,-58,-19,66,-5
2550,-15,-254,-57,-20,65,-5
2555,-15,-255,-59,-20,64,-5
2560,-17,-255,-61,-18,65,-4
2565,-16,-254,-63,-16,62,-4
2570,-16,-255,-59,-14,61,-4
2575,-13,-253,-62,-14,61,-3
2580,-17,-254,-61,-15,64,-1
2585,-12,-255,-60,-17,65,-3
2590,-15,-253,-60,-20,67,-2
2595,-13,-259,-62,-22,68,-2
2600,-14,-255,-58,-21,69,-4
2605,-12,-255,-61,-19,70,-5
2610,-12,-255,-58,-19,71,-5
2615,-15,-254,-53,-17,72,-7
2620,-15,-256,-56,-14,73,-6
2625,-15,-253,-57,-14,73,-7
2630,-15,-253,-60,-15,73,-9
2635,-11,-255,-60,-15,74,-10
2640,-13,-255,-59,-16,71,-9
2645,-14,-256,-58,-17,71,-10
2650,-15,-254,-59,-17,70,-9
2655,-16,-254,-61,-18,69,-10
2660,-15,-255,-60,-20,68,-9
2665,-13,-255,-57,-21,67,-8
2670,-11,-254,-64,-23,65,-8
2675,-14,-254,-58,-23,63,-8
2680,-16,-254,-57,-22,63,-8
2685,-12,-257,-60,-20,62,-8
2690,-14,-254,-63,-19,62,-6
2695,-15,-254,-57,-18,65,-5
2700,-14,-254,-61,-18,67,-5
2705,-17,-256,-61,-18,68,-5
2710,-16,-254,-60,-18,68,-6
2715,-11,-255,-62,-18,67,-4
2720,-12,-255,-61,-19,66,-4
2725,-16,-256,-63,-19,66,-5
2730,-16,-253,-61,-19,66,-5
2735,-14,-255,-61,-17,65,-6
2740,-12,-253,-61,-16,66,-6
2745,-11,-255,-62,-17,69,-7
2750,-16,-253,-60,-17,69,-6
2755,-15,-256,-63,-19,68,-7
2760,-13,-255,-61,-21,70,-9
2765,-16,-254,-63,-26,71,-7
2770,-13,-255,-61,-27,73,-8
2775,-15,-256,-62,-31,71,-7
2780,-15,-255,-61,-32,70,-8
2785,-17,-254,-65,-34,69,-8
2790,-16,-255,-64,-37,67,-7
2795,-19,-253,-62,-40,62,-7
2800,-18,-253,-64,-45,58,-7
2805,-15,-254,-65,-49,55,-7
2810,-17,-252,-64,-55,53,-5
2815,-16,-252,-65,-60,48,-4
2820,-15,-248,-69,-70,46,-3
2825,-18,-247,-73,-82,42,-4
2830,-17,-248,-70,-96,36,-5
2835,-14,-246,-73,-115,32,-3
2840,-14,-241,-75,-135,26,-2
2845,-18,-243,-78,-158,18,-2
2850,-17,-240,-80,-181,10,0
2855,-21,-233,-81,-206,1,1
2860,-20,-235,-78,-229,-5,2
2865,-21,-233,-83,-255,-13,3
2870,-22,-230,-86,-284,-17,4
2875,-21,-230,-83,-314,-22,4
2880,-20,-226,-87,-349,-27,5
2885,-22,-223,-92,-385,-32,5
2890,-24,-220,-97,-422,-37,7
2895,-24,-220,-98,-460,-40,8
2900,-23,-220,-104,-497,-41,9
2905,-24,-219,-102,-529,-39,10
2910,-20,-214,-104,-558,-36,9
2915,-19,-213,-102,-578,-36,8
2920,-21,-207,-107,-593,-38,5
2925,-20,-205,-111,-604,-43,1
2930,-19,-201,-112,-611,-50,-2
2935,-16,-193,-116,-621,-53,-8
2940,-16,-188,-115,-635,-54,-12
2945,-15,-183,-119,-656,-49,-19
2950,-16,-178,-123,-684,-37,-25
2955,-11,-173,-126,-715,-25,-32
2960,-9,-166,-127,-750,-10,-38
2965,-10,-157,-126,-780,3,-45
2970,-10,-150,-127,-804,11,-50
2975,-12,-141,-122,-824,19,-55
2980,-9,-134,-116,-833,24,-58
2985,-9,-127,-113,-833,27,-58
2990,-10,-116,-112,-830,31,-57
2995,-6,-107,-103,-825,34,-56
3000,-9,-100,-100,-819,33,-50
3005,-10,-90,-92,-817,30,-45
3010,-3,-81,-86,-821,27,-38
3015,-2,-74,-81,-827,25,-31
3020,-9,-63,-77,-836,22,-25
3025,-8,-58,-69,-843,15,-15
3030,-8,-55,-65,-851,5,-2
3035,-8,-51,-60,-857,-15,10
3040,-7,-45,-54,-858,-36,15
3045,-11,-44,-52,-862,-53,22
3050,-5,-41,-50,-868,-67,33
3055,-11,-39,-47,-877,-75,42
3060,-12,-39,-46,-891,-75,51
3065,-16,-37,-47,-916,-70,61
3070,-14,-39,-43,-945,-61,60
3075,-13,-39,-42,-972,-48,59
3080,-12,-44,-42,-995,-29,57
3085,-8,-43,-46,-1015,-10,56
3090,-5,-48,-44,-1030,11,52
3095,-2,-51,-44,-1038,35,45
3100,0,-55,-49,-1045,61,35
3105,3,-55,-52,-1051,90,23
3110,2,-58,-60,-1062,116,10
3115,4,-60,-65,-1080,140,-4
3120,7,-63,-68,-1107,156,-19
3125,11,-69,-77,-1144,160,-35
3130,7,-69,-83,-1191,153,-51
3135,12,-75,-93,-1248,137,-64
3140,12,-85,-103,-1311,123,-74
3145,12,-98,-104,-1375,111,-86
3150,17,-110,-115,-1433,107,-94
3155,14,-126,-118,-1483,110,-103
3160,14,-141,-121,-1521,122,-114
3165,12,-159,-117,-1550,146,-128
3170,9,-184,-114,-1561,182,-145
3175,4,-203,-106,-1548,218,-165
3180,-7,-229,-93,-1504,233,-187
3185,-20,-260,-83,-1424,219,-206
3190,-26,-290,-63,-1291,165,-214
3195,-32,-329,-52,-1100,82,-213
3200,-45,-363,-31,-842,-19,-203
3205,-51,-405,-25,-514,-126,-182
3210,-58,-439,-15,-121,-212,-170
3215,-64,-476,-17,330,-256,-148
3220,-68,-508,-17,826,-242,-99
3225,-71,-522,-24,1339,-178,-30
3230,-74,-532,-40,1847,-96,33
3235,-71,-537,-61,2328,-30,88
3240,-65,-501,-68,2763,5,132
3245,-62,-465,-81,3142,9,157
3250,-54,-424,-88,3468,-11,162
3255,-42,-385,-97,3750,-31,146
3260,-39,-339,-101,3983,-34,122
3265,-35,-307,-112,4149,-18,104
3270,-27,-272,-117,4224,2,89
3275,-13,-246,-128,4194,11,73
3280,-13,-205,-142,4044,7,45
3285,3,-178,-164,3835,-4,15
3290,6,-149,-180,3438,-26,-27
3295,10,-132,-185,2900,-48,-56
3300,10,-127,-180,2241,-74,-67
3305,18,-135,-160,1504,-106,-67
3310,16,-158,-146,746,-159,-64
3315,17,-181,-123,7,-222,-56
3320,17,-208,-89,-632,-267,-39
3325,14,-243,-61,-1102,-282,-27
3330,12,-264,-48,-1392,-267,-23
3335,5,-285,-47,-1543,-248,-27
3340,1,-294,-66,-1601,-248,-36
3345,1,-308,-53,-1592,-267,-39
3350,5,-318,-65,-1529,-296,-41
3355,4,-321,-69,-1417,-309,-68
3360,6,-331,-78,-1269,-276,-96
3365,11,-346,-101,-1092,-172,-120
3370,30,-352,-119,-915,-64,-131
3375,2,-342,-130,-731,9,-142
3380,-17,-328,-137,-570,57,-165
3385,-30,-320,-152,-464,85,-160
3390,-33,-308,-152,-441,72,-112
3395,-25,-307,-148,-458,56,-53
3400,-11,-308,-132,-482,45,1
3405,-26,-303,-116,-485,49,37
3410,-34,-297,-109,-471,63,80
3415,-30,-300,-107,-445,70,122
3420,-17,-293,-110,-438,71,150
3425,-34,-294,-120,-440,70,126
3430,-29,-286,-128,-446,84,122
3435,-25,-292,-124,-466,94,131
3440,-31,-288,-120,-478,140,125
3445,-34,-291,-114,-492,190,132
3450,-47,-291,-115,-466,181,170
3455,-33,-298,-115,-385,119,195
3460,-35,-293,-108,-283,76,164
3465,-42,-288,-106,-172,60,137
3470,-36,-284,-102,-59,35,127
3475,-39,-289,-109,47,14,91
3480,-28,-285,-113,143,-6,57
3485,-38,-291,-114,204,-8,21
3490,-28,-282,-114,259,-12,24
3495,-28,-289,-117,323,-29,35
3500,-32,-290,-122,388,-49,52
3505,-37,-297,-120,447,-65,93
3510,-25,-299,-128,508,-71,133
3515,-26,-304,-134,547,-58,130
3520,-15,-310,-126,591,-26,114
3525,-37,-314,-114,658,17,109
3530,-27,-319,-111,767,37,143
3535,-30,-317,-114,925,37,169
3540,-2,-299,-122,1043,27,182
3545,-9,-290,-123,1124,30,149
3550,-27,-288,-109,1154,38,111
3555,-36,-293,-100,1188,45,131
3560,-5,-293,-111,1238,50,156
3565,-8,-280,-113,1277,75,118
3570,-27,-285,-105,1283,129,51
3575,-5,-286,-98,1314,185,42
3580,6,-282,-103,1371,232,29
3585,8,-279,-104,1406,281,-12
3590,11,-289,-104,1404,331,-47
3595,-25,-289,-90,1369,383,-124
3600,-33,-302,-78,1337,421,-152
3605,-13,-293,-83,1358,429,-138
3610,-25,-288,-83,1370,417,-152
3615,-32,-290,-86,1368,393,-165
3620,-44,-290,-83,1375,359,-160
3625,-46,-296,-80,1399,322,-149
3630,-35,-292,-81,1439,295,-134
3635,-39,-289,-83,1484,277,-138
3640,-37,-286,-75,1510,269,-147
3645,-36,-286,-73,1522,266,-152
3650,-33,-285,-68,1530,263,-149
3655,-32,-280,-68,1538,255,-139
3660,-29,-275,-64,1552,244,-125
3665,-25,-274,-62,1567,229,-108
3670,-23,-273,-58,1581,218,-95
3675,-18,-242,-50,1595,217,-86
3680,5,-179,-55,1597,219,-86
3685,-17,-171,-59,1510,207,-102
3690,-45,-236,-48,1339,170,-94
3695,-33,-362,6,1215,154,-81
3700,-9,-415,32,1253,219,-75
3705,-6,-437,70,1360,265,-85
3710,-15,-490,80,1553,268,-109
3715,-9,-555,82,1806,280,-124
3720,-16,-593,28,2105,323,-165
3725,9,-639,-68,2304,398,-206
3730,-1,-620,-133,2298,490,-342
3735,8,-583,-187,2058,573,-472
3740,25,-509,-197,1625,640,-559
3745,-24,-424,-113,1165,672,-596
3750,-2,-359,-54,900,611,-513
3755,-9,-317,-14,757,483,-430
3760,-9,-290,17,634,335,-345
3765,-14,-275,31,546,203,-269
3770,-19,-263,48,500,107,-215
3775,-25,-251,22,486,49,-174
3780,-26,-233,9,477,28,-149
3785,-33,-206,-13,455,39,-136
3790,-28,-194,-31,416,69,-120
3795,-34,-180,-52,382,97,-107
3800,-27,-178,-55,352,106,-80
3805,-31,-174,-56,346,94,-59
3810,-27,-169,-59,374,63,-27
3815,-16,-175,-51,420,5,16
3820,-3,-190,-41,470,-69,46
3825,-1,-191,-30,529,-137,55
3830,1,-195,-12,597,-180,51
3835,7,-195,3,676,-197,35
3840,5,-200,23,745,-166,0
3845,7,-201,33,804,-107,-33
3850,-2,-209,65,829,-18,-59
3855,-1,-238,93,829,67,-87
3860,-1,-252,92,851,124,-115
3865,-1,-269,96,885,179,-138
3870,10,-259,107,880,246,-159
3875,0,-279,106,856,310,-171
3880,-3,-292,136,843,347,-188
3885,-5,-294,119,858,357,-194
3890,-1,-291,131,877,377,-183
3895,6,-280,111,916,384,-166
3900,10,-287,117,902,436,-143
3905,4,-284,124,894,445,-136
3910,3,-287,130,907,396,-125
3915,8,-284,119,924,327,-113
3920,7,-272,112,925,247,-95
3925,5,-274,107,913,165,-68
3930,4,-265,107,914,95,-36
3935,0,-263,91,936,53,2
3940,-7,-258,81,943,0,41
3945,-9,-256,69,934,-52,76
3950,-12,-251,63,922,-93,108
3955,-22,-246,46,890,-142,137
3960,-17,-244,45,847,-182,159
3965,-15,-236,38,810,-200,174
3970,-24,-234,35,764,-209,185
3975,-22,-232,32,717,-215,190
3980,-24,-232,31,652,-225,190
3985,-21,-230,45,587,-230,186
3990,-19,-231,59,564,-207,169
3995,-19,-237,63,576,-166,146
4000,-21,-239,73,603,-130,119
4005,-24,-245,77,638,-100,95
4010,-17,-249,90,674,-78,73
4015,-18,-250,91,705,-59,48
4020,-18,-249,94,728,-39,28
4025,-12,-252,97,739,-17,8
4030,-11,-251,94,738,10,-9
4035,-7,-252,98,730,37,-27
4040,-7,-244,100,716,60,-40
4045,-7,-242,96,696,79,-50
4050,1,-246,97,668,93,-58
4055,0,-238,97,637,101,-62
4060,0,-240,96,608,102,-66
4065,3,-238,97,562,101,-63
4070,4,-240,92,508,98,-58
4075,1,-238,86,452,95,-56
4080,0,-234,84,394,91,-56
4085,6,-235,74,333,88,-52
4090,3,-238,77,269,87,-50
4095,2,-234,74,205,89,-45
4100,-3,-234,70,137,88,-42
4105,0,-234,67,69,83,-38
4110,0,-236,64,1,82,-36
4115,1,-237,65,-65,83,-35
4120,2,-243,62,-124,84,-34
4125,4,-246,64,-174,89,-35
4130,1,-250,64,-214,94,-37
4135,3,-256,65,-242,97,-41
4140,4,-257,67,-259,96,-42
4145,2,-261,66,-263,96,-46
4150,4,-266,70,-256,95,-44
4155,-5,-270,73,-238,94,-43
4160,-4,-271,78,-210,93,-43
4165,-3,-273,79,-172,93,-43
4170,-4,-273,79,-127,92,-47
4175,-5,-275,75,-83,91,-50
4180,-7,-272,74,-41,91,-57
4185,-7,-272,74,-4,92,-62
4190,-5,-270,70,24,92,-68
4195,-5,-265,69,42,94,-74
4200,-2,-265,64,50,96,-76
4205,-3,-260,64,46,99,-77
4210,-1,-259,61,30,100,-80
4215,1,-259,63,5,102,-83
4220,-5,-256,59,-27,103,-88
4225,0,-255,57,-65,103,-90
4230,4,-254,57,-106,102,-92
4235,1,-253,55,-147,106,-94
4240,4,-253,49,-187,110,-95
4245,3,-254,53,-219,115,-98
4250,0,-255,57,-243,123,-100
4255,-1,-256,61,-256,128,-98
4260,-1,-256,61,-259,135,-95
4265,-1,-258,64,-250,138,-92
4270,-2,-258,61,-231,141,-85
4275,-4,-258,62,-205,140,-78
4280,-3,-262,66,-173,137,-69
4285,1,-261,61,-141,135,-62
4290,-2,-261,64,-109,132,-56
4295,0,-261,62,-81,130,-50
4300,-4,-260,61,-58,130,-46
4305,4,-265,66,-38,131,-40
4310,0,-262,63,-22,130,-36
4315,-2,-264,63,-12,127,-32
4320,-1,-263,60,-5,121,-30
4325,-3,-262,62,1,116,-27
4330,-5,-259,62,5,111,-24
4335,-2,-263,63,6,105,-21
4340,-2,-264,63,6,100,-19
4345,-2,-266,60,3,98,-19
4350,-2,-264,63,0,99,-22
4355,-4,-261,60,-7,102,-24
4360,-5,-263,62,-11,106,-23
4365,-3,-264,61,-15,111,-24
4370,-4,-261,64,-17,113,-27
4375,-2,-263,64,-19,116,-28
4380,-2,-262,66,-15,114,-29
4385,0,-264,64,-11,111,-28
4390,-4,-261,66,-4,108,-28
4395,-4,-259,66,5,105,-28
4400,-3,-257,65,13,101,-28
4405,-5,-257,68,21,98,-27
4410,-6,-255,65,27,95,-23
4415,1,-256,67,31,92,-21
4420,-5,-256,64,36,90,-21
4425,-5,-257,64,40,90,-20
4430,-5,-256,66,42,90,-18
4435,-4,-257,68,44,89,-16
4440,-7,-256,65,45,86,-12
4445,-5,-256,66,44,84,-9
4450,-3,-256,67,44,79,-5
4455,-4,-257,69,45,74,-3
4460,-5,-258,67,48,70,1
4465,-4,-257,69,51,67,2
4470,-7,-257,68,54,64,4
4475,-1,-261,72,58,63,5
4480,-5,-258,72,62,63,8
4485,-4,-257,71,63,63,8
4490,-3,-255,68,64,66,9
4495,-3,-256,68,62,66,9
4500,-5,-256,68,61,67,9
4505,-3,-256,68,58,71,7
4510,0,-259,72,55,74,5
4515,-5,-254,68,54,77,2
4520,-2,-256,74,51,79,0
4525,-4,-256,71,50,81,-2
4530,-3,-258,71,49,78,-3
4535,-4,-257,68,47,75,-4
4540,-4,-257,70,46,72,-3
4545,0,-256,72,44,68,-2
4550,-1,-256,71,45,63,-1
4555,-5,-257,71,45,60,2
4560,-5,-257,72,45,57,3
4565,-1,-257,72,43,58,6
4570,-1,-258,67,43,59,8
4575,-4,-257,68,44,62,8
4580,0,-256,69,45,64,7
4585,-1,-256,67,47,66,8
4590,-2,-255,70,49,66,6
4595,-2,-256,70,52,65,7
4600,-1,-257,68,53,62,6
4605,-3,-257,66,52,59,6
4610,-6,-256,66,53,56,6
4615,-3,-260,68,52,52,5
4620,-6,-255,70,51,49,6
4625,-2,-256,67,48,43,9
4630,-2,-259,57,44,38,11
4635,-4,-259,67,41,33,11
4640,-3,-255,67,39,30,11
4645,-4,-257,67,36,29,13
4650,-3,-256,70,34,31,13
4655,-2,-257,69,34,33,10
4660,-2,-256,70,35,36,10
4665,1,-256,72,35,39,9
4670,-3,-255,74,35,43,7
4675,-1,-256,72,35,48,5
4680,2,-256,70,34,52,3
4685,-2,-254,71,30,56,1
4690,0,-255,74,27,62,1
4695,-2,-256,75,22,66,-1
4700,-1,-254,77,15,70,-4
4705,1,-256,76,10,75,-4
4710,-1,-256,74,5,80,-4
4715,1,-256,73,3,81,-4
4720,-1,-256,72,2,82,-6
4725,-1,-256,71,1,80,-5
4730,-3,-255,73,2,76,-3
4735,-3,-256,76,2,73,-2
4740,-1,-256,70,4,69,0
4745,-2,-255,68,2,68,1
4750,-3,-256,71,2,65,0
4755,-1,-257,68,1,65,1
4760,-2,-256,68,-2,66,0
4765,0,-257,68,-3,67,-2
4770,-1,-255,70,-4,70,-4
4775,0,-257,69,-7,71,-8
4780,-3,-259,70,-9,74,-8
4785,-2,-258,74,-10,74,-8
4790,-2,-258,71,-10,77,-8
4795,-4,-257,69,-11,79,-8
4800,0,-259,72,-11,81,-7
4805,-5,-256,72,-9,81,-9
4810,-4,-254,75,-5,81,-7
4815,-4,-256,75,-2,81,-6
4820,-4,-254,70,0,80,-8
4825,-5,-255,75,-1,77,-7
4830,-3,-257,70,-1,75,-7
4835,-5,-256,71,-5,73,-7
4840,-3,-256,78,-7,72,-8
4845,-2,-256,71,-9,69,-8
4850,-2,-257,74,-10,69,-8
4855,-5,-258,77,-10,68,-8
4860,-2,-256,74,-10,67,-6
4865,-3,-258,75,-9,66,-6
4870,-4,-259,72,-7,67,-5
4875,-2,-256,72,-6,66,-6
4880,-4,-258,77,-3,65,-7
4885,-8,-257,71,-2,66,-6
4890,-1,-257,74,-3,67,-6
4895,-3,-256,73,-6,67,-6
4900,-2,-257,73,-6,67,-7
4905,0,-257,74,-11,68,-6
4910,-2,-257,74,-13,68,-6
4915,-2,-258,72,-15,66,-5
4920,1,-256,68,-16,69,-5
4925,-4,-257,74,-17,73,-3
4930,-3,-259,72,-16,74,-5
4935,-3,-257,70,-17,74,-6
4940,-2,-256,69,-17,75,-7
4945,-1,-257,71,-15,77,-8
4950,-2,-254,67,-15,77,-9
4955,-5,-257,70,-14,76,-9
4960,-1,-256,71,-13,77,-9
4965,-2,-257,70,-11,75,-9
4970,-1,-258,71,-11,76,-8
4975,-3,-255,71,-9,76,-7
4980,-5,-256,73,-6,75,-7
4985,-2,-259,72,-2,72,-5
4990,-2,-257,77,1,71,-6
4995,-1,-259,72,2,70,-6
5000,-3,-258,74,3,68,-4
5005,-2,-257,73,3,69,-4
5010,-3,-258,75,3,69,-4
5015,-3,-255,74,2,67,-4
5020,-3,-256,74,1,62,-3
5025,-3,-257,73,-1,60,-3
5030,-1,-257,68,-4,57,-3
5035,-4,-254,70,-9,56,-3
5040,-4,-256,69,-12,57,-1
5045,-2,-258,68,-15,59,-2
5050,-5,-256,71,-16,61,-4
5055,-1,-259,70,-16,62,-4
5060,-1,-257,73,-15,65,-4
5065,-4,-256,72,-13,66,-4
5070,-2,-257,71,-11,67,-4
5075,-3,-257,72,-8,68,-4
5080,-4,-256,74,-5,67,-4
5085,-1,-258,70,-2,68,-4
5090,-1,-258,73,-1,67,-4
5095,0,-256,74,1,64,-4
5100,-1,-253,72,1,62,-3
5105,1,-256,74,4,64,-4
5110,-5,-257,73,3,62,-3
5115,-4,-255,77,3,61,-3
5120,-2,-256,73,3,57,-1
5125,-3,-256,71,4,53,-2
5130,-2,-256,69,3,52,-2
5135,0,-256,70,3,53,-3
5140,-3,-256,75,1,53,-4
5145,-3,-256,66,-3,57,-4
5150,-2,-256,71,-6,59,-5
5155,2,-257,70,-11,63,-5
5160,1,-254,68,-14,66,-8
5165,-3,-256,74,-15,69,-8
5170,0,-257,74,-14,69,-9
5175,-1,-257,77,-12,69,-10
5180,-3,-255,74,-9,67,-10
5185,-2,-258,75,-7,67,-10
5190,-2,-256,75,-4,67,-8
5195,-2,-257,72,-1,64,-7
5200,1,-256,74,0,62,-6
5205,-1,-256,75,1,61,-6
5210,-2,-255,73,-1,61,-4
5215,-1,-255,70,-4,61,-5
5220,0,-255,73,-7,63,-6
5225,-2,-255,71,-9,62,-7
5230,2,-257,70,-12,66,-7
5235,2,-256,74,-14,67,-5
5240,1,-257,72,-15,68,-8
5245,0,-256,71,-15,71,-8
5250,2,-256,75,-12,71,-8
5255,-4,-256,72,-10,68,-6
5260,-2,-257,73,-8,66,-7
5265,-4,-254,75,-5,64,-5
5270,-3,-253,74,-5,62,-6
5275,2,-257,70,-4,60,-5
5280,-2,-256,73,-3,61,-4
5285,-2,-255,68,-3,61,-4
5290,2,-254,71,-2,63,-4
5295,-3,-256,71,-1,66,-5
5300,3,-256,70,-2,70,-7
5305,1,-255,73,-5,73,-6
5310,-2,-256,72,-9,74,-6
5315,0,-257,72,-11,73,-4
5320,1,-255,73,-12,72,-3
5325,2,-254,73,-13,71,-1
5330,0,-255,76,-12,71,-2
5335,0,-258,74,-12,69,1
5340,-2,-256,74,-12,68,1
5345,0,-258,76,-12,66,4
5350,-2,-258,72,-14,65,4
5355,-5,-256,73,-14,63,6
5360,-6,-257,72,-15,62,5
5365,-4,-256,69,-13,61,7
5370,-4,-257,66,-13,61,6
5375,-3,-257,74,-13,61,6
5380,0,-262,71,-12,63,5
5385,-3,-257,73,-11,64,4
5390,-4,-256,73,-11,68,2
5395,-3,-258,74,-10,69,0
5400,-4,-256,72,-12,72,-1
5405,-5,-257,72,-12,73,-3
5410,-3,-257,71,-13,74,-4
5415,-3,-255,70,-14,76,-6
5420,-1,-256,74,-12,78,-8
5425,-1,-258,72,-13,80,-8
5430,-5,-256,71,-10,82,-10
5435,-3,-259,75,-8,82,-9
5440,-3,-256,70,-8,81,-12
5445,-3,-256,73,-8,80,-9
5450,-2,-255,72,-8,77,-8
5455,-3,-259,74,-10,76,-9
5460,-1,-255,70,-10,74,-7
5465,-3,-257,70,-9,73,-5
5470,-1,-257,69,-7,69,-2
5475,-3,-256,72,-7,65,0
5480,-2,-254,74,-4,64,0
5485,2,-255,79,-4,64,2
5490,-5,-257,73,-6,62,3
5495,0,-255,70,-7,60,5
5500,-2,-255,70,-10,59,5
5505,-1,-257,67,-12,58,5
5510,-1,-256,77,-14,59,5
5515,-1,-257,74,-14,61,4
5520,0,-258,74,-15,63,4
5525,1,-257,74,-15,67,3
5530,-2,-257,74,-17,66,2
5535,-3,-260,79,-16,67,3
5540,-2,-258,76,-16,69,2
5545,-3,-257,73,-13,70,0
5550,-3,-257,73,-9,72,0
5555,-3,-257,73,-7,73,-2
5560,-3,-255,74,-4,73,-2
5565,0,-255,72,-5,72,-1
5570,-1,-256,72,-9,71,-1
5575,1,-255,72,-11,70,0
5580,-5,-255,74,-16,71,-2
5585,-4,-255,74,-20,73,-2
5590,-3,-255,72,-23,74,-2
5595,-2,-254,73,-22,74,-3
5600,-4,-256,72,-20,74,-1
5605,-2,-258,76,-17,75,-1
5610,-2,-256,74,-14,76,0
5615,-4,-256,75,-13,75,-1
5620,-1,-257,71,-12,75,0
5625,-1,-256,72,-11,74,-1
5630,-6,-257,73,-11,72,-1
5635,-3,-255,76,-10,70,0
5640,0,-261,73,-11,71,0
5645,-7,-256,76,-10,72,0
5650,0,-259,73,-7,72,0
5655,0,-257,73,-8,71,-1
5660,-2,-256,73,-7,71,-2
5665,-2,-257,74,-8,71,-1
5670,1,-258,71,-8,68,-1
5675,-5,-258,75,-6,67,-1
5680,-3,-256,69,-5,66,0
5685,-3,-260,72,-5,64,0
5690,-1,-255,71,-7,64,0
5695,-3,-256,71,-9,65,1
5700,-1,-259,76,-8,67,0
5705,-4,-255,74,-9,67,-1
5710,-2,-258,74,-8,68,-2
5715,-2,-257,72,-8,68,-2
5720,-1,-256,72,-8,68,-3
5725,-2,-257,74,-9,69,-2
5730,-4,-257,72,-9,71,-3
5735,-2,-255,73,-10,71,-4
5740,-3,-256,74,-11,71,-2
5745,-3,-258,77,-11,69,-1
5750,-3,-257,79,-9,68,0
5755,-1,-256,72,-9,66,-1
5760,-1,-256,72,-8,65,-1
5765,-5,-255,73,-6,64,-1
5770,-5,-255,71,-5,64,-1
5775,-4,-256,73,-4,65,-1
5780,-2,-256,73,-4,64,-2
5785,-4,-259,74,-4,63,-2
5790,-1,-259,76,-6,64,-3
5795,-3,-255,71,-7,64,-4
5800,-3,-258,73,-7,64,-3
5805,-4,-257,73,-9,66,-3
5810,-3,-256,72,-9,67,-6
5815,0,-255,73,-11,67,-5
5820,-1,-257,72,-9,67,-5
5825,-3,-256,73,-9,65,-5
5830,-3,-257,76,-9,64,-3
5835,-2,-257,77,-9,62,-5
5840,-1,-256,75,-7,60,-4
5845,-1,-256,75,-7,58,-4
5850,-1,-257,77,-5,55,-2
5855,-5,-255,71,-4,57,-4
5860,0,-256,70,-2,58,-4
5865,-4,-254,76,-1,60,-3
5870,-2,-256,77,1,58,-2
5875,-3,-258,74,1,57,-1
5880,-3,-257,77,2,56,-2
5885,-3,-256,73,2,55,0
5890,0,-259,78,2,55,1
5895,0,-256,75,4,54,2
5900,-1,-256,70,6,53,4
5905,-1,-257,74,10,51,2
5910,-1,-257,76,11,50,2
5915,0,-256,77,16,50,5
5920,-3,-256,73,18,48,7
5925,0,-256,76,19,47,6
5930,-4,-258,74,21,48,8
5935,-3,-257,73,20,49,7
5940,-3,-256,77,20,53,7
5945,0,-256,73,18,56,6
5950,0,-256,73,15,58,6
5955,-3,-257,74,13,59,4
5960,-4,-255,76,12,60,5
5965,-4,-257,73,9,61,4
5970,-1,-255,75,5,61,4
5975,-3,-256,73,2,61,3
5980,-4,-255,73,0,60,3
5985,-4,-256,75,-1,60,4
5990,-4,-256,75,-3,60,3
5995,-1,-256,76,-3,62,2
6000,-5,-255,74,-1,61,1
6005,-1,-257,80,-2,60,0
6010,0,-256,73,-1,59,-1
6015,3,-259,72,0,59,0
6020,-4,-257,69,-1,59,-1
6025,-3,-256,73,-4,58,-1
6030,-4,-255,71,-5,59,0
6035,0,-256,75,-7,58,1
6040,0,-255,74,-9,59,3
6045,-3,-255,71,-11,61,4
6050,-2,-257,69,-12,61,5
6055,-2,-255,73,-11,61,3
6060,-3,-256,72,-12,61,4
6065,-1,-256,76,-11,58,5
6070,-2,-256,73,-9,57,5
6075,1,-266,74,-6,55,5
6080,0,-256,74,-7,54,4
6085,-2,-255,76,-7,55,6
6090,-5,-253,75,-7,56,6
6095,-2,-256,74,-10,58,6
6100,2,-256,71,-13,59,6
6105,-2,-256,75,-16,61,5
6110,-3,-258,71,-19,60,5
6115,0,-256,69,-19,61,4
6120,-4,-260,72,-17,63,3
6125,-10,-254,74,-14,62,4
6130,1,-248,80,-11,64,2
6135,-2,-257,76,-6,64,2
6140,-4,-256,79,0,65,2
6145,-7,-256,79,2,64,0
6150,-8,-256,80,4,65,-1
6155,-3,-259,73,3,67,-1
6160,0,-254,66,3,68,-2
6165,-4,-251,68,2,70,-2
6170,1,-251,83,-1,73,-2
6175,-14,-258,69,-4,73,-2
6180,6,-256,73,-5,72,-2
6185,-4,-258,73,-7,72,-1
6190,1,-259,71,-9,73,-1
6195,-4,-256,73,-11,71,0
6200,0,-255,73,-11,69,0
6205,-2,-258,72,-12,67,1
6210,1,-254,73,-14,66,2
6215,4,-253,74,-13,63,0
6220,-6,-251,65,-13,62,0
6225,-4,-252,62,-15,64,-1
6230,-8,-257,71,-15,64,0
6235,-12,-256,71,-15,66,0
6240,2,-262,67,-15,67,0
6245,-11,-254,72,-16,68,1
6250,-4,-256,81,-15,68,0
6255,-6,-250,74,-16,68,2
6260,-5,-256,76,-16,65,4
6265,0,-255,76,-15,63,4
6270,-2,-256,72,-13,62,4
6275,-2,-256,77,-13,61,5
6280,-2,-252,82,-12,60,5
6285,-4,-254,69,-13,60,6
6290,0,-263,71,-15,59,7
6295,-3,-270,74,-17,60,5
6300,-6,-254,88,-20,60,4
6305,-5,-251,73,-23,61,4
6310,1,-260,71,-23,63,4
6315,-10,-259,78,-26,64,3
6320,2,-253,77,-24,64,2
6325,-9,-249,79,-23,64,1
6330,0,-254,73,-21,65,1
6335,-7,-261,90,-19,64,0
6340,-4,-257,70,-18,64,0
6345,-3,-256,73,-16,65,1
6350,-5,-257,75,-15,65,2
6355,-9,-258,76,-13,66,-1
6360,-4,-261,71,-14,65,-2
6365,-12,-252,70,-14,65,-2
6370,4,-252,70,-13,65,-3
6375,2,-256,68,-13,66,-5
6380,-3,-254,69,-10,66,-5
6385,-1,-250,75,-7,68,-6
6390,-2,-254,74,-6,68,-6
6395,-2,-264,69,-5,67,-6
6400,6,-256,77,-5,65,-6
6405,-11,-255,71,-7,62,-7
6410,-5,-256,77,-8,60,-6
6415,-3,-255,74,-12,57,-6
6420,2,-257,75,-14,55,-3
6425,-4,-255,74,-18,54,-4
6430,-3,-255,70,-22,54,-3
6435,-4,-255,79,-28,55,-3
6440,-4,-258,74,-31,55,-2
6445,-2,-256,79,-34,56,-2
6450,0,-255,78,-35,56,-3
6455,-5,-261,70,-35,57,-2
6460,-4,-255,79,-31,58,-1
6465,-2,-247,85,-27,59,-3
6470,-6,-250,76,-22,61,-3
6475,-5,-257,69,-17,65,-3
6480,7,-256,73,-15,65,-4
6485,-1,-253,83,-13,67,-3
6490,-3,-259,77,-11,70,-5
6495,-5,-256,76,-8,71,-5
6500,-5,-254,78,-6,73,-5
6505,-3,-256,79,-4,73,-7
6510,9,-250,72,-3,73,-6
6515,0,-253,71,-3,73,-4
6520,-5,-255,76,-7,73,-5
6525,2,-255,72,-11,72,-4
6530,-5,-256,80,-16,70,-5
6535,-1,-256,71,-21,68,-4
6540,-8,-256,73,-25,65,-3
6545,-1,-255,70,-27,64,-4
6550,1,-258,74,-28,63,-4
6555,-8,-255,80,-24,63,-4
6560,0,-266,77,-21,62,-4
6565,-1,-255,72,-17,61,-3
6570,-4,-256,73,-15,61,-4
6575,-2,-256,73,-10,63,-3
6580,-4,-254,72,-6,62,-3
6585,1,-248,75,-4,61,-4
6590,0,-253,70,-3,63,-3
6595,-4,-265,78,-2,64,-2
6600,-3,-253,82,-3,65,-2
6605,-7,-257,67,-5,65,-2
6610,-5,-255,73,-6,66,-2
6615,0,-257,76,-8,66,-3
6620,-4,-256,72,-11,65,-2
6625,-2,-255,73,-13,64,-2
6630,-1,-258,80,-14,65,-2
6635,-2,-255,76,-16,63,-2
6640,2,-254,78,-18,62,-2
6645,0,-256,74,-20,63,-2
6650,-5,-254,74,-21,64,-5
6655,-11,-257,69,-22,66,-5
6660,0,-258,76,-24,65,-4
6665,-1,-255,75,-25,67,-5
6670,-2,-256,73,-24,68,-5
6675,-5,-256,75,-24,70,-5
6680,1,-250,85,-24,72,-5
6685,-4,-254,75,-24,70,-6
6690,-2,-256,80,-22,70,-6
6695,-3,-256,79,-19,71,-5
6700,-1,-255,78,-19,68,-4
6705,-14,-253,80,-17,64,-3
6710,-3,-257,77,-16,61,-2
6715,-6,-256,76,-16,59,-2
6720,-1,-256,74,-18,58,0
6725,-3,-255,73,-18,56,1
6730,-6,-255,73,-21,56,-1
6735,-3,-256,71,-22,58,-3
6740,-1,-256,76,-26,60,-4
6745,-2,-255,70,-27,62,-5
6750,-1,-256,69,-28,64,-6
6755,-3,-257,71,-28,65,-5
6760,-1,-257,70,-28,68,-7
6765,-4,-255,73,-26,68,-9
6770,-4,-255,76,-22,68,-7
6775,-2,-255,70,-18,68,-7
6780,-5,-254,77,-14,68,-6
6785,-4,-256,73,-9,70,-5
6790,-3,-257,78,-6,72,-3
6795,-2,-257,73,-3,72,-2
6800,0,-258,74,0,71,-1
6805,2,-257,74,3,70,0
6810,-1,-256,72,5,69,0
6815,1,-257,71,6,68,2
6820,-3,-259,73,6,65,1
6825,-1,-257,70,4,66,3
6830,-1,-257,73,3,66,3
6835,-2,-256,71,-1,67,2
6840,-4,-256,73,-6,67,1
6845,-1,-254,70,-9,70,1
6850,-6,-256,74,-13,71,0
6855,-4,-256,76,-14,72,-2
6860,-5,-255,73,-13,72,-2
6865,-4,-256,75,-10,73,-3
6870,-5,-255,73,-6,74,-4
6875,-5,-256,73,-2,76,-5
6880,-1,-256,73,1,76,-7
6885,-13,-256,68,2,76,-7
6890,-5,-256,70,3,77,-5
6895,-2,-256,73,3,78,-3
6900,-5,-253,76,5,78,-5
6905,-3,-255,73,4,78,-5
6910,-4,-256,76,5,78,-3
6915,-4,-257,74,6,78,-2
6920,1,-256,73,7,76,-1
6925,-1,-262,72,6,77,1
6930,-2,-256,74,7,76,1
6935,-2,-257,75,8,75,2
6940,-1,-255,75,9,74,1
6945,1,-258,74,11,74,2
6950,-3,-256,73,11,71,2
6955,0,-258,76,11,71,2
6960,-4,-257,71,12,70,2
6965,-1,-259,72,14,71,2
6970,-4,-255,74,13,72,1
6975,-5,-255,75,12,73,-1
6980,-5,-256,72,12,75,-1
6985,-4,-257,75,10,77,-1
6990,-12,-261,79,9,77,-2
6995,-1,-257,76,9,81,-4
7000,-5,-256,73,11,82,-5
7005,-1,-259,73,13,84,-4
7010,-3,-257,74,15,84,-3
7015,2,-259,75,17,85,-4
7020,-4,-256,77,18,84,-3
7025,-2,-257,76,17,83,-2
7030,-5,-257,73,19,81,-1
7035,2,-257,73,20,79,-2
7040,1,-256,73,18,78,-1
7045,-2,-256,78,18,77,1
7050,0,-255,77,17,75,1
7055,-5,-256,74,17,77,3
7060,-3,-255,76,17,77,2
7065,-4,-255,78,15,78,4
7070,-7,-255,77,18,81,2
7075,-3,-256,79,17,83,3
7080,-4,-254,80,18,85,2
7085,-5,-254,74,17,87,2
7090,-1,-255,75,16,88,3
7095,-4,-254,79,16,89,3
7100,-6,-256,78,14,89,3
7105,-4,-253,76,15,87,3
7110,-5,-254,76,16,82,4
7115,-5,-256,77,15,81,4
7120,0,-255,80,16,78,4
7125,-2,-257,79,17,76,2
7130,-4,-253,78,19,73,3
7135,-3,-255,79,21,72,2
7140,-2,-256,79,22,73,2
7145,-2,-255,79,22,74,3
7150,-2,-253,75,22,76,3
7155,-2,-255,76,20,79,4
7160,1,-253,79,17,80,5
7165,-3,-255,81,15,80,6
7170,-3,-256,81,13,81,6
7175,-3,-252,77,11,82,8
7180,0,-254,78,8,82,9
7185,-3,-254,79,6,82,11
7190,-2,-257,84,4,81,11
7195,2,-255,79,2,79,14
7200,-5,-253,83,-1,76,13
7205,-2,-252,85,-5,75,13
7210,-1,-255,81,-8,74,14
7215,-3,-253,80,-13,72,16
7220,-1,-252,77,-18,71,16
7225,-1,-251,80,-22,71,16
7230,-5,-252,81,-28,72,17
7235,-5,-252,77,-35,73,17
7240,-2,-254,78,-41,73,16
7245,-4,-254,78,-47,74,17
7250,-5,-254,75,-52,75,17
7255,-5,-255,77,-56,77,16
7260,-1,-255,78,-57,79,16
7265,-4,-256,77,-61,82,14
7270,-4,-256,74,-62,86,15
7275,-5,-256,76,-62,88,14
7280,-8,-257,74,-63,89,12
7285,-7,-256,75,-63,86,12
7290,-7,-258,71,-61,83,11
7295,-5,-257,76,-59,78,12
7300,-8,-258,75,-56,71,13
7305,-4,-257,71,-53,65,14
7310,-7,-258,75,-51,59,14
7315,-5,-262,73,-49,55,15
7320,-7,-260,74,-47,50,13
7325,-6,-262,77,-44,48,14
7330,-7,-256,68,-43,46,14
7335,-7,-260,70,-40,45,15
7340,-6,-259,72,-38,44,11
7345,-6,-260,75,-35,45,10
7350,-5,-259,71,-32,47,9
7355,-5,-258,75,-28,48,6
7360,-4,-262,71,-22,47,5
7365,-9,-259,74,-17,48,2
7370,-6,-258,67,-13,51,0
7375,-6,-256,69,-10,52,-2
7380,-7,-257,74,-8,54,-4
7385,-5,-258,75,-8,57,-6
7390,-7,-257,74,-7,59,-7
7395,-7,-257,74,-7,59,-9
7400,-7,-257,74,-6,61,-11
7405,-3,-256,73,-4,62,-11
7410,-6,-256,76,-2,63,-11
7415,-6,-255,74,-1,62,-12
7420,-7,-257,74,1,63,-14
7425,-7,-261,79,2,63,-13
7430,-7,-256,74,3,62,-14
7435,-4,-257,77,5,61,-14
7440,-4,-257,75,5,60,-14
7445,-5,-256,72,4,60,-13
7450,-3,-256,75,2,58,-13
7455,-6,-256,77,1,59,-13
7460,-5,-256,76,2,59,-11
7465,-6,-256,76,2,60,-11
7470,-4,-256,79,1,59,-9
7475,-5,-257,78,1,60,-6
7480,-5,-256,78,1,58,-5
7485,-5,-254,81,2,57,-3
7490,-1,-255,77,2,54,-1
7495,-3,-256,79,2,50,0
7500,-3,-255,74,1,48,0
7505,-2,-257,73,2,47,3
7510,-3,-256,77,3,44,3
7515,-4,-254,75,5,44,4
7520,-2,-255,77,5,45,2
7525,0,-255,75,5,47,3
7530,-1,-250,79,5,50,3
7535,-4,-256,77,4,53,4
7540,0,-255,78,3,53,4
7545,1,-257,76,2,54,4
7550,-3,-254,75,0,52,4
7555,-3,-254,80,-1,53,4
7560,-4,-255,75,-4,54,4
7565,-4,-255,72,-5,55,3
7570,-4,-254,78,-9,55,4
7575,-2,-257,73,-11,56,3
7580,-6,-256,75,-13,59,4
7585,-1,-258,77,-14,64,3
7590,-1,-257,73,-15,68,2
7595,-3,-255,78,-14,72,1
7600,-3,-257,81,-13,75,0
7605,-7,-254,74,-13,80,-1
7610,-2,-255,73,-11,85,-3
7615,-6,-256,75,-8,87,-5
7620,-4,-256,78,-5,91,-7
7625,-3,-257,74,-2,94,-9
7630,0,-257,79,1,94,-11
7635,-3,-257,73,1,95,-12
7640,-2,-249,72,0,96,-14
7645,-3,-256,75,-1,96,-15
7650,-1,-254,77,-2,97,-15
7655,-5,-256,76,-3,98,-15
7660,-1,-255,78,-4,98,-15
7665,1,-256,75,-6,96,-16
7670,2,-258,78,-9,92,-14
7675,0,-256,72,-12,89,-12
7680,-2,-256,74,-16,87,-10
7685,0,-258,75,-20,84,-9
7690,-1,-256,76,-23,82,-6
7695,-3,-255,77,-26,81,-5
7700,0,-256,76,-25,81,-5
7705,-2,-254,76,-26,80,-5
7710,0,-255,77,-24,79,-1
7715,-4,-256,75,-25,77,0
7720,-5,-255,72,-26,76,1
7725,-4,-256,79,-25,76,0
7730,-3,-256,74,-25,78,0
7735,-4,-258,74,-29,77,-2
7740,-3,-257,75,-34,80,-4
7745,-4,-256,72,-39,82,-4
7750,-6,-259,76,-45,83,-5
7755,-6,-257,70,-48,83,-5
7760,-7,-257,71,-49,83,-7
7765,-5,-259,73,-48,83,-8
7770,-5,-258,78,-47,84,-11
7775,-7,-257,77,-41,85,-11
7780,-7,-257,74,-35,88,-14
7785,-7,-257,74,-28,92,-18
7790,-11,-259,73,-22,94,-20
7795,-3,-261,71,-18,97,-22
7800,-5,-258,71,-18,100,-25
7805,-4,-258,71,-21,102,-26
7810,-3,-257,72,-28,101,-29
7815,-1,-258,75,-38,98,-29
7820,-3,-256,71,-53,93,-28
7825,-4,-256,75,-75,86,-28
7830,-5,-255,73,-100,78,-28
7835,-3,-260,73,-129,71,-29
7840,-5,-253,70,-156,67,-31
7845,-7,-254,72,-188,69,-35
7850,-2,-257,68,-224,76,-40
7855,-9,-256,67,-269,86,-47
7860,-5,-254,61,-321,101,-56
7865,-5,-255,57,-374,124,-66
7870,-5,-254,55,-424,150,-78
7875,-5,-256,55,-471,180,-91
7880,-6,-255,46,-512,213,-105
7885,-6,-256,46,-544,249,-118
7890,-7,-255,39,-570,284,-131
7895,-7,-254,38,-587,310,-137
7900,-7,-253,33,-598,318,-136
7905,-6,-257,34,-603,310,-130
7910,-3,-257,36,-607,288,-119
7915,1,-258,34,-611,265,-104
7920,-3,-259,39,-613,248,-87
7925,-3,-257,45,-613,238,-73
7930,-2,-260,49,-615,232,-57
7935,-4,-257,52,-616,225,-44
7940,-1,-259,53,-616,213,-29
7945,-2,-260,55,-610,195,-14
7950,-3,-263,54,-599,168,0
7955,-3,-264,55,-581,139,17
7960,2,-270,58,-560,114,27
7965,-4,-269,60,-535,91,40
7970,-4,-268,62,-506,71,52
7975,2,-270,59,-470,58,60
7980,4,-271,69,-426,47,68
7985,2,-269,68,-380,44,71
7990,4,-269,67,-332,42,71
7995,2,-267,69,-289,43,68
8000,4,-265,66,-254,46,64
8005,2,-262,65,-230,52,56
8010,4,-257,65,-213,57,48
8015,4,-256,65,-206,58,37
8020,4,-255,63,-206,56,30
8025,4,-255,65,-211,52,24
8030,4,-251,65,-220,48,22
8035,3,-247,61,-232,43,23
8040,4,-246,64,-253,38,23
8045,2,-240,57,-282,37,22
8050,4,-240,59,-320,37,21
8055,2,-237,57,-363,46,17
8060,2,-234,60,-410,56,12
8065,4,-235,56,-462,65,5
8070,3,-234,58,-510,67,-1
8075,1,-235,59,-556,65,-2
8080,-5,-235,52,-599,59,0
8085,-4,-236,56,-638,51,4
8090,-7,-234,56,-672,43,11
8095,-6,-239,54,-703,34,23
8100,-11,-243,60,-726,22,34
8105,-13,-247,64,-735,7,43
8110,-11,-246,77,-738,-4,57
8115,-9,-245,89,-751,-12,65
8120,-9,-244,101,-790,-7,70
8125,-8,-243,103,-859,1,69
8130,-4,-242,104,-946,6,62
8135,-13,-236,97,-1052,-9,45
8140,-26,-237,81,-1177,-53,28
8145,-29,-238,66,-1338,-115,17
8150,-16,-247,53,-1530,-162,-8
8155,-3,-252,51,-1742,-168,-34
8160,6,-258,43,-1955,-132,-52
8165,3,-266,39,-2147,-86,-48
8170,-6,-275,39,-2293,-32,-30
8175,-8,-282,30,-2383,16,-24
8180,-1,-281,22,-2416,92,-13
8185,0,-290,23,-2400,192,-2
8190,23,-305,6,-2340,290,54
8195,18,-309,-5,-2275,396,87
8200,-6,-332,-16,-2215,486,136
8205,-8,-340,-28,-2150,528,175
8210,-17,-356,-44,-2097,552,207
8215,-11,-369,-64,-2059,570,239
8220,-20,-384,-59,-2039,579,262
8225,-32,-397,-48,-2004,561,271
8230,-27,-400,-32,-1977,524,253
8235,-20,-412,-19,-1968,481,207
8240,-16,-416,-16,-1970,432,144
8245,-2,-437,-11,-1987,372,78
8250,-3,-445,-12,-1995,290,26
8255,0,-453,-15,-1976,189,-10
8260,1,-462,-26,-1939,89,-38
8265,4,-466,-36,-1885,22,-56
8270,4,-459,-44,-1814,1,-74
8275,10,-448,-58,-1734,23,-87
8280,-5,-434,-57,-1660,68,-95
8285,-2,-437,-54,-1610,109,-97
8290,-9,-430,-47,-1584,142,-92
8295,-17,-425,-47,-1580,142,-91
8300,-24,-413,-50,-1585,135,-86
8305,-22,-404,-60,-1622,116,-78
8310,-32,-388,-65,-1685,104,-68
8315,-21,-383,-70,-1780,95,-51
8320,-23,-372,-74,-1879,85,-38
8325,-34,-354,-79,-1966,72,-18
8330,-22,-338,-86,-2045,43,4
8335,-16,-327,-96,-2114,8,10
8340,-26,-318,-112,-2130,-22,6
8345,-20,-323,-101,-2084,-51,-11
8350,-19,-335,-115,-1938,-83,-39
8355,-35,-327,-116,-1711,-90,-56
8360,-35,-310,-122,-1437,-85,2
8365,0,-357,-126,-1210,-88,70
8370,-23,-319,-113,-994,-99,68
8375,-38,-321,-120,-796,-111,58
8380,-8,-305,-123,-593,-118,95
8385,-41,-298,-105,-383,-129,87
8390,-11,-296,-93,-123,-145,116
8395,-30,-288,-102,158,-161,105
8400,-24,-266,-107,417,-177,115
8405,-1,-269,-80,668,-170,131
8410,-26,-261,-97,907,-155,140
8415,-10,-221,-116,1121,-144,157
8420,-21,-216,-89,1284,-130,165
8425,2,-214,-80,1433,-127,209
8430,-14,-210,-100,1558,-121,218
8435,-20,-186,-106,1617,-133,205
8440,-7,-178,-98,1650,-154,188
8445,-11,-173,-103,1699,-170,157
8450,6,-170,-105,1743,-178,139
8455,-10,-181,-89,1770,-193,90
8460,-24,-172,-105,1771,-221,31
8465,-26,-193,-104,1728,-223,-5
8470,-27,-198,-116,1651,-199,-50
8475,-23,-207,-129,1528,-155,-88
8480,-23,-217,-138,1338,-89,-122
8485,-25,-224,-150,1087,-26,-150
8490,-25,-243,-149,799,28,-154
8495,-29,-259,-140,531,39,-146
8500,-14,-279,-122,331,5,-135
8505,-6,-304,-112,206,-46,-119
8510,-1,-318,-91,152,-87,-90
8515,-1,-335,-72,183,-108,-55
8520,-4,-341,-53,261,-113,-24
8525,-6,-339,-43,362,-116,-1
8530,-11,-336,-33,448,-114,14
8535,-5,-325,-32,503,-102,33
8540,-9,-318,-29,526,-77,50
8545,-7,-311,-25,512,-54,66
8550,-7,-308,-31,451,-44,74
8555,-9,-301,-32,352,-45,86
8560,-11,-300,-36,225,-50,99
8565,-12,-297,-34,93,-58,110
8570,-11,-295,-36,-25,-71,118
8575,-13,-294,-38,-104,-92,116
8580,-14,-294,-40,-181,-106,108
8585,-12,-290,-40,-236,-115,100
8590,-10,-290,-41,-263,-120,88
8595,-9,-288,-38,-268,-121,77
8600,-5,-290,-33,-254,-109,66
8605,-8,-289,-27,-227,-90,50
8610,0,-288,-15,-187,-74,33
8615,3,-288,-14,-152,-57,11
8620,4,-282,-17,-137,-42,-13
8625,2,-275,-10,-146,-23,-36
8630,-1,-267,-21,-174,0,-52
8635,-2,-258,-23,-229,23,-69
8640,-2,-255,-29,-308,46,-81
8645,-2,-255,-35,-404,67,-93
8650,-5,-255,-33,-504,85,-106
8655,-5,-255,-41,-597,98,-119
8660,-7,-260,-44,-676,105,-126
8665,-13,-263,-42,-738,109,-127
8670,-21,-264,-41,-777,112,-120
8675,-21,-270,-42,-796,112,-104
8680,-21,-270,-40,-802,112,-91
8685,-20,-274,-40,-799,105,-85
8690,-27,-269,-41,-787,97,-92
8695,-30,-265,-44,-757,84,-89
8700,-32,-265,-42,-708,72,-83
8705,-29,-265,-50,-643,63,-74
8710,-45,-256,-56,-557,62,-76
8715,-32,-257,-53,-449,70,-73
8720,-31,-252,-60,-328,80,-70
8725,-29,-246,-64,-203,90,-76
8730,-27,-237,-68,-87,105,-86
8735,-28,-229,-67,14,117,-95
8740,-27,-219,-65,95,124,-92
8745,-26,-209,-70,159,120,-87
8750,-19,-200,-66,203,111,-82
8755,-16,-193,-63,231,100,-84
8760,-16,-185,-64,254,90,-82
8765,-11,-177,-66,267,79,-70
8770,-5,-173,-64,259,71,-53
8775,-4,-167,-64,237,67,-54
8780,2,-160,-65,207,72,-68
8785,4,-162,-68,160,87,-69
8790,4,-157,-67,95,109,-68
8795,6,-154,-68,26,133,-70
8800,10,-153,-64,-41,159,-72
8805,12,-155,-67,-104,185,-79
8810,9,-153,-64,-163,208,-88
8815,15,-157,-60,-213,227,-96
8820,6,-151,-58,-250,246,-111
8825,7,-148,-55,-266,254,-111
8830,7,-147,-55,-268,253,-102
8835,5,-145,-49,-257,248,-95
8840,4,-141,-48,-234,240,-100
8845,4,-145,-42,-199,234,-104
8850,4,-144,-45,-156,224,-103
8855,5,-150,-43,-116,211,-107
8860,-5,-142,-40,-62,205,-115
8865,-5,-143,-40,1,194,-102
8870,-10,-137,-48,65,176,-88
8875,-7,-140,-47,124,155,-81
8880,-11,-132,-50,182,133,-77
8885,-10,-131,-53,232,112,-69
8890,-14,-128,-50,272,93,-64
8895,-9,-124,-54,294,77,-44
8900,-11,-121,-55,305,66,-41
8905,-12,-118,-55,312,65,-39
8910,-14,-113,-52,319,67,-32
8915,-9,-110,-51,319,74,-27
8920,-12,-109,-53,324,91,-36
8925,-8,-111,-45,340,102,-26
8930,-6,-110,-48,358,117,-19
8935,-3,-106,-49,383,136,-25
8940,0,-107,-53,413,157,-31
8945,1,-106,-58,442,177,-37
8950,5,-109,-58,464,193,-38
8955,5,-104,-62,472,200,-39
8960,3,-103,-66,458,201,-37
8965,3,-103,-72,421,192,-33
8970,1,-106,-76,366,172,-31
8975,1,-109,-79,294,137,-29
8980,2,-112,-81,209,87,-25
8985,-4,-121,-87,121,30,-17
8990,-1,-129,-82,36,-27,-7
8995,-3,-142,-91,-40,-76,4
9000,-4,-147,-93,-108,-115,16
9005,-2,-166,-102,-173,-143,28
9010,-7,-180,-106,-232,-155,40
9015,-7,-194,-111,-293,-155,56
9020,-9,-206,-118,-356,-140,73
9025,-10,-227,-124,-424,-116,101
9030,-7,-244,-129,-490,-87,118
9035,-11,-261,-127,-551,-52,130
9040,-8,-278,-134,-599,-8,142
9045,0,-292,-134,-627,40,159
9050,-3,-310,-132,-633,91,167
9055,-1,-319,-123,-614,142,168
9060,4,-330,-119,-565,184,165
9065,2,-333,-109,-491,216,157
9070,2,-334,-102,-394,233,146
9075,-2,-331,-100,-277,239,136
9080,0,-325,-97,-146,236,125
9085,1,-318,-94,-12,230,115
9090,4,-308,-86,112,225,104
9095,2,-297,-89,218,228,95
9100,4,-283,-91,301,236,87
9105,4,-273,-86,357,255,80
9110,3,-257,-77,387,284,73
9115,2,-252,-83,396,315,64
9120,-3,-245,-71,389,342,60
9125,-5,-237,-63,371,359,55
9130,-5,-230,-61,350,365,52
9135,-10,-223,-54,332,362,51
9140,-12,-220,-50,311,349,50
9145,-13,-216,-48,287,332,49
9150,-12,-215,-45,263,315,48
9155,-17,-212,-42,238,294,49
9160,-17,-210,-37,209,271,49
9165,-18,-213,-41,177,248,48
9170,-20,-219,-43,143,226,51
9175,-22,-221,-48,109,204,54
9180,-21,-222,-48,77,187,57
9185,-22,-227,-50,47,173,63
9190,-19,-234,-52,20,163,69
9195,-23,-240,-56,-6,154,72
9200,-21,-244,-63,-30,145,77
9205,-20,-247,-63,-51,140,79
9210,-20,-253,-64,-71,137,84
9215,-19,-256,-69,-93,134,85
9220,-17,-257,-72,-112,132,84
9225,-15,-259,-71,-127,131,83
9230,-17,-262,-79,-135,132,83
9235,-13,-265,-78,-139,133,79
9240,-16,-264,-78,-134,129,77
9245,-12,-269,-78,-124,122,73
9250,-6,-270,-76,-106,113,72
9255,-13,-267,-77,-81,103,69
9260,-10,-267,-76,-55,94,66
9265,-9,-263,-77,-27,92,64
9270,-5,-265,-78,-3,92,62
9275,-9,-261,-79,18,95,61
9280,-6,-257,-74,32,101,62
9285,-3,-259,-80,41,108,61
9290,-6,-261,-79,47,114,61
9295,-7,-259,-75,51,119,60
9300,-4,-256,-73,57,124,56
9305,-4,-254,-69,66,127,55
9310,-3,-254,-71,76,129,50
9315,-7,-255,-65,89,130,47
9320,-7,-255,-63,103,128,42
9325,-11,-251,-60,119,123,40
9330,-10,-254,-60,133,115,36
9335,-17,-252,-60,142,108,34
9340,-16,-247,-60,148,101,31
9345,-18,-250,-60,147,98,28
9350,-18,-245,-59,141,93,25
9355,-18,-249,-63,130,92,21
9360,-17,-247,-63,118,89,18
9365,-18,-248,-60,107,86,16
9370,-16,-247,-61,95,83,12
9375,-19,-247,-62,88,79,10
9380,-18,-245,-64,80,74,8
9385,-17,-244,-64,72,67,8
9390,-19,-242,-66,64,61,7
9395,-13,-245,-67,57,56,7
9400,-13,-241,-69,50,51,7
9405,-15,-244,-65,42,50,7
9410,-12,-241,-67,35,52,8
9415,-12,-244,-70,24,54,10
9420,-11,-242,-70,15,55,9
9425,-11,-245,-65,3,57,8
9430,-9,-243,-68,-11,58,9
9435,-10,-251,-68,-24,59,7
9440,-7,-249,-68,-33,61,5
9445,-6,-252,-69,-41,62,1
9450,-7,-254,-65,-46,58,-6
9455,-7,-254,-69,-48,57,-9
9460,-10,-255,-68,-51,56,-12
9465,-9,-256,-70,-50,58,-18
9470,-11,-258,-74,-49,61,-23
9475,-10,-256,-69,-49,65,-27
9480,-13,-258,-71,-47,68,-29
9485,-8,-259,-72,-43,70,-31
9490,-10,-256,-76,-37,69,-34
9495,-12,-254,-68,-30,70,-34
9500,-11,-256,-71,-22,71,-36
9505,-14,-253,-67,-14,69,-36
9510,-14,-255,-64,-6,68,-34
9515,-13,-255,-64,3,63,-33
9520,-15,-251,-65,10,56,-31
9525,-15,-253,-65,17,48,-26
9530,-13,-251,-65,19,40,-23
9535,-14,-246,-63,18,34,-22
9540,-14,-246,-63,13,30,-21
9545,-11,-249,-63,6,25,-19
9550,-14,-248,-62,-5,22,-16
9555,-15,-249,-62,-18,20,-15
9560,-13,-251,-62,-31,16,-14
9565,-15,-251,-56,-41,12,-15
9570,-13,-250,-61,-48,8,-17
9575,-6,-259,-53,-54,7,-16
9580,-13,-254,-62,-56,8,-20
9585,-17,-251,-61,-55,11,-22
9590,-12,-255,-60,-52,14,-24
9595,-9,-254,-63,-49,16,-28
9600,-10,-256,-64,-48,16,-31
9605,-10,-255,-65,-48,14,-31
9610,-10,-253,-61,-45,14,-34
9615,-11,-255,-64,-41,10,-35
9620,-9,-254,-65,-34,11,-36
9625,-13,-254,-67,-27,13,-36
9630,-11,-255,-64,-18,17,-37
9635,-11,-256,-65,-10,23,-37
9640,-8,-256,-66,-4,28,-36
9645,-11,-254,-63,1,32,-35
9650,-9,-255,-64,6,32,-34
9655,-10,-255,-64,11,29,-33
9660,-9,-255,-63,17,26,-31
9665,-8,-255,-62,22,23,-29
9670,-10,-255,-64,27,22,-27
9675,-7,-256,-64,32,22,-24
9680,-9,-256,-59,37,24,-23
9685,-4,-259,-60,40,27,-23
9690,-8,-256,-61,43,28,-24
9695,-11,-255,-64,42,27,-23
9700,-8,-257,-61,41,25,-22
9705,-12,-255,-61,40,23,-24
9710,-9,-255,-62,41,20,-24
9715,-9,-257,-60,41,16,-25
9720,-12,-256,-59,43,16,-25
9725,-10,-257,-58,44,17,-26
9730,-12,-257,-60,43,19,-28
9735,-12,-254,-61,38,20,-29
9740,-12,-254,-60,31,23,-32
9745,-12,-254,-61,22,24,-32
9750,-11,-253,-61,12,27,-32
9755,-12,-253,-58,4,31,-32
9760,-11,-250,-59,0,34,-30
9765,-13,-253,-61,1,39,-30
9770,-11,-252,-61,4,43,-28
9775,-9,-253,-60,9,48,-27
9780,-10,-253,-63,14,49,-28
9785,-10,-254,-58,16,49,-26
9790,-8,-254,-66,17,48,-24
9795,-7,-252,-56,15,47,-22
9800,-9,-252,-64,10,47,-21
9805,-9,-253,-62,8,51,-21
9810,-8,-252,-63,4,53,-19
9815,-10,-254,-63,4,58,-19
9820,-8,-254,-60,3,63,-20
9825,-10,-254,-62,6,68,-21
9830,-7,-256,-61,9,66,-20
9835,-12,-254,-62,14,66,-20
9840,-9,-256,-62,17,63,-19
9845,-7,-256,-60,20,62,-19
9850,-9,-251,-62,21,59,-18
9855,-9,-253,-65,22,57,-16
9860,-9,-254,-65,20,56,-14
9865,-12,-254,-60,18,56,-13
9870,-12,-254,-58,17,54,-11
9875,-12,-253,-62,19,54,-11
9880,-12,-253,-61,19,53,-10
9885,-11,-255,-58,21,55,-8
9890,-11,-255,-63,21,58,-6
9895,-13,-255,-60,22,62,-5
9900,-14,-255,-59,24,67,-4
9905,-10,-254,-55,23,69,-4
9910,-14,-255,-60,27,73,-4
9915,-14,-255,-60,28,71,-3
9920,-13,-254,-61,29,70,0
9925,-13,-252,-62,29,68,-1
9930,-11,-256,-61,30,67,-1
9935,-11,-253,-63,30,68,-1
9940,-13,-255,-62,29,71,-2
9945,-14,-254,-60,26,73,-1
9950,-13,-253,-58,26,73,-1
9955,-9,-253,-61,27,72,-2
9960,-11,-254,-60,27,70,-2
9965,-10,-253,-63,26,70,-2
9970,-11,-254,-62,24,69,-3
9975,-12,-253,-63,21,66,-2
9980,-16,-253,-63,19,65,-3
9985,-12,-255,-64,15,65,-2
9990,-12,-254,-62,15,65,-2
9995,-13,-256,-59,14,65,-3
10000,-14,-255,-61,13,64,-2
10005,-11,-255,-57,16,63,0
10010,-13,-254,-58,18,65,2
10015,-17,-255,-59,21,68,3
10020,-13,-257,-61,26,68,2
10025,-15,-252,-65,30,69,6
10030,-12,-256,-63,34,70,6
10035,-13,-256,-61,37,72,8
10040,-13,-254,-59,37,72,8
10045,-12,-254,-61,37,74,10
10050,-14,-255,-63,35,75,9
10055,-13,-255,-61,34,76,9
10060,-14,-252,-63,33,76,10
10065,-12,-254,-61,31,74,9
10070,-11,-254,-62,29,74,10
10075,-12,-254,-60,30,75,9
10080,-13,-253,-63,29,75,9
10085,-9,-253,-57,28,75,7
10090,-12,-254,-57,26,76,8
10095,-12,-252,-56,24,76,6
10100,-10,-253,-61,21,74,5
10105,-9,-254,-60,18,74,5
10110,-14,-253,-63,14,73,5
10115,-13,-254,-63,10,73,6
10120,-14,-250,-65,6,74,5
10125,-12,-252,-63,0,74,5
10130,-15,-252,-63,-5,75,5
10135,-13,-255,-64,-10,74,5
10140,-11,-251,-61,-13,76,3
10145,-11,-256,-63,-15,77,3
10150,-11,-253,-61,-12,76,6
10155,-10,-254,-61,-9,79,6
10160,-12,-256,-59,-6,80,8
10165,-11,-253,-59,-3,79,7
10170,-13,-255,-64,-1,80,8
10175,-13,-254,-61,-1,79,9
10180,-8,-255,-63,-2,80,8
10185,-11,-254,-63,-2,80,8
10190,-10,-256,-66,-3,82,9
10195,-10,-252,-64,-3,84,10
10200,-13,-253,-63,-3,85,9
10205,-12,-252,-64,-5,84,9
10210,-10,-255,-64,-8,83,9
10215,-13,-255,-64,-8,83,8
10220,-12,-257,-62,-8,82,8
10225,-9,-253,-61,-5,84,9
10230,-13,-255,-62,-1,85,8
10235,-9,-255,-63,2,88,7
10240,-10,-254,-64,5,87,6
10245,-14,-253,-58,6,88,8
10250,-11,-254,-61,8,88,7
10255,-14,-254,-63,11,88,6
10260,-12,-253,-63,11,87,7
10265,-12,-253,-58,11,85,7
10270,-12,-255,-59,10,85,7
10275,-12,-255,-58,9,85,8
10280,-11,-255,-61,7,86,9
10285,-12,-251,-64,5,86,8
10290,-12,-255,-61,4,87,8
10295,-13,-252,-62,3,85,7
10300,-9,-254,-59,2,83,7
10305,-11,-253,-63,3,80,8
10310,-12,-256,-64,3,79,7
10315,-14,-255,-62,3,78,6
10320,-10,-250,-64,4,76,7
10325,-12,-254,-61,2,73,6
10330,-12,-253,-61,0,69,7
10335,-9,-254,-60,-1,68,6
10340,-15,-255,-60,-1,67,7
10345,-11,-255,-63,1,65,7
10350,-13,-254,-61,2,64,7
10355,-14,-253,-60,4,65,5
10360,-13,-255,-63,3,66,5
10365,-13,-254,-59,3,67,5
10370,-9,-255,-60,3,69,6
10375,-14,-255,-61,1,70,4
10380,-11,-252,-62,2,72,2
10385,-12,-254,-63,0,73,2
10390,-9,-256,-62,-2,71,1
10395,-12,-255,-64,-5,69,0
10400,-14,-255,-61,-8,67,0
10405,-11,-251,-63,-11,65,-1
10410,-13,-251,-62,-12,63,-1
10415,-11,-255,-61,-12,63,-2
10420,-14,-255,-58,-8,59,-2
10425,-13,-253,-64,-6,57,-4
10430,-14,-253,-56,-3,56,-3
10435,-14,-251,-59,-4,54,-2
10440,-16,-252,-59,-4,51,-2
10445,-14,-250,-61,-6,51,-3
10450,-13,-254,-58,-9,50,-3
10455,-13,-254,-59,-11,51,-1
10460,-12,-253,-57,-14,51,-2
10465,-13,-250,-63,-16,51,-2
10470,-12,-251,-60,-16,48,-1
10475,-13,-253,-56,-15,47,0
10480,-11,-256,-59,-14,44,0
10485,-13,-256,-61,-13,44,0
10490,-14,-258,-61,-13,44,-1
10495,-12,-254,-53,-14,43,-2
10500,-11,-253,-58,-15,44,-3
10505,-15,-255,-59,-17,44,-3
10510,-13,-257,-62,-20,44,-3
10515,-14,-255,-57,-21,43,-3
10520,-13,-257,-61,-20,41,-5
10525,-12,-255,-58,-18,41,-5
10530,-12,-256,-59,-16,40,-7
10535,-10,-256,-59,-14,40,-8
10540,-12,-256,-55,-11,39,-8
10545,-13,-255,-61,-11,40,-7
10550,-14,-254,-58,-12,40,-8
10555,-11,-254,-56,-12,42,-7
10560,-10,-254,-58,-14,42,-8
10565,-12,-255,-58,-14,43,-8
10570,-10,-256,-56,-14,44,-8
10575,-12,-255,-56,-13,44,-8
10580,-12,-255,-57,-14,44,-8
10585,-13,-257,-59,-11,45,-8
10590,-11,-255,-63,-10,47,-9
10595,-14,-253,-59,-9,46,-9
10600,-13,-255,-59,-10,44,-10
10605,-12,-253,-59,-12,43,-9
10610,-14,-253,-59,-15,39,-8
10615,-13,-254,-57,-18,37,-6
10620,-14,-252,-61,-21,36,-7
10625,-11,-254,-58,-22,36,-4
10630,-13,-256,-62,-22,40,-3
10635,-8,-255,-62,-22,41,-1
10640,-10,-255,-61,-19,41,0
10645,-10,-255,-60,-14,43,0
10650,-13,-256,-60,-9,42,0
10655,-12,-252,-57,-7,41,1
10660,-14,-252,-58,-4,43,1
10665,-11,-258,-57,-5,44,0
10670,-13,-250,-58,-7,47,-2
10675,-13,-255,-56,-10,50,-1
10680,-11,-255,-54,-10,52,-2
10685,-12,-256,-57,-11,53,-2
10690,-12,-255,-57,-10,54,-1
10695,-14,-256,-54,-7,54,-1
10700,-11,-256,-54,-2,55,0
10705,-13,-256,-53,4,55,-2
10710,-16,-256,-51,14,54,-3
10715,-15,-256,-55,24,53,-3
10720,-14,-258,-52,37,50,-2
10725,-13,-256,-53,46,45,-3
10730,-14,-257,-56,52,40,-1
10735,-15,-252,-56,56,36,0
10740,-14,-256,-55,56,36,0
10745,-10,-255,-56,49,34,1
10750,-10,-257,-56,43,39,2
10755,-11,-253,-54,36,45,3
10760,-14,-253,-54,26,50,3
10765,-10,-257,-56,16,54,0
10770,-11,-253,-58,10,53,3
10775,-6,-250,-57,3,50,3
10780,-11,-256,-60,-3,49,3
10785,-12,-255,-54,-9,49,4
10790,-11,-255,-55,-14,51,3
10795,-12,-259,-59,-16,55,4
10800,-10,-255,-59,-16,58,2
10805,-13,-256,-55,-14,61,2
10810,-12,-257,-54,-11,63,2
10815,-11,-256,-52,-8,65,2
10820,-12,-256,-55,-5,68,2
10825,-9,-258,-56,-3,73,1
10830,-14,-256,-57,-4,76,1
10835,-12,-254,-56,-5,77,1
10840,-13,-255,-55,-4,78,0
10845,-12,-257,-54,-4,76,1
10850,-12,-255,-56,-4,74,-1
10855,-13,-255,-56,-3,73,0
10860,-14,-255,-54,-5,71,-1
10865,-16,-255,-57,-5,70,0
10870,-11,-255,-56,-7,69,1
10875,-15,-253,-54,-9,69,1
10880,-13,-254,-52,-11,70,0
10885,-19,-258,-55,-12,71,2
10890,-13,-256,-53,-13,71,2
10895,-14,-254,-57,-12,69,3
10900,-11,-256,-52,-11,68,3
10905,-10,-255,-56,-10,68,1
10910,-11,-255,-54,-11,70,2
10915,-12,-252,-53,-13,70,2
10920,-15,-258,-53,-16,71,1
10925,-14,-255,-54,-19,68,3
10930,-10,-256,-54,-19,65,2
10935,-12,-256,-54,-18,63,2
10940,-14,-255,-54,-20,64,3
10945,-11,-255,-56,-19,63,3
10950,-12,-256,-55,-18,62,2
10955,-12,-256,-52,-18,64,3
10960,-12,-254,-53,-18,67,2
10965,-15,-254,-54,-19,71,4
10970,-12,-256,-54,-19,73,5
10975,-11,-254,-56,-19,73,6
10980,-14,-253,-55,-19,75,6
10985,-11,-254,-56,-20,75,7
10990,-11,-255,-53,-19,75,6
10995,-8,-255,-55,-21,73,8
11000,-11,-257,-56,-19,71,8
11005,-12,-256,-54,-17,68,8
11010,-14,-256,-56,-14,64,9
11015,-14,-257,-55,-12,62,8
11020,-11,-257,-57,-9,60,7
11025,-13,-257,-59,-9,60,6
11030,-17,-256,-59,-9,64,5
11035,-12,-256,-53,-10,69,5
11040,-14,-255,-59,-9,74,3
11045,-14,-256,-55,-10,77,3
11050,-12,-255,-58,-10,82,4
11055,-10,-257,-60,-7,86,3
11060,-14,-256,-56,-6,89,3
11065,-14,-256,-57,-4,91,2
11070,-14,-254,-57,-1,90,4
11075,-13,-254,-53,2,89,5
11080,-16,-255,-54,1,87,4
11085,-12,-256,-56,1,85,6
11090,-12,-255,-54,-2,85,5
11095,-11,-255,-57,-6,84,3
11100,-12,-257,-57,-9,84,2
11105,-12,-258,-55,-11,83,3
11110,-13,-254,-58,-12,84,2
11115,-12,-255,-54,-10,83,2
11120,-15,-255,-55,-8,84,2
11125,-10,-253,-55,-6,84,2
11130,-9,-256,-52,-2,85,2
11135,-12,-256,-55,2,85,1
11140,-12,-256,-52,5,84,2
11145,-15,-256,-53,6,84,1
11150,-15,-255,-55,5,82,-1
11155,-13,-256,-57,-1,80,1
11160,-15,-252,-55,-9,79,0
11165,-12,-255,-58,-20,80,0
11170,-13,-255,-59,-27,81,0
11175,-11,-257,-60,-33,83,0
11180,-12,-256,-58,-35,85,1
11185,-16,-257,-58,-33,88,0
11190,-13,-256,-63,-28,91,0
11195,-13,-253,-57,-25,93,-1
11200,-15,-256,-61,-18,95,-1
11205,-12,-255,-54,-14,94,-1
11210,-9,-255,-54,-10,93,0
11215,-13,-255,-52,-6,92,-1
11220,-12,-254,-54,-5,89,-1
11225,-16,-253,-57,-9,85,-1
11230,-14,-254,-55,-12,85,-1
11235,-11,-255,-55,-16,82,-2
11240,-14,-253,-59,-21,81,-2
11245,-15,-255,-55,-24,79,0
11250,-13,-256,-57,-26,79,0
11255,-16,-254,-61,-28,78,1
11260,-11,-260,-52,-28,78,0
11265,-13,-255,-55,-28,77,0
11270,-16,-256,-57,-28,75,1
11275,-13,-255,-55,-28,72,1
11280,-11,-255,-54,-27,70,0
11285,-14,-253,-55,-25,70,1
11290,-12,-256,-58,-24,70,-1
11295,-15,-253,-59,-24,71,1
11300,-12,-257,-54,-23,73,1
11305,-14,-253,-53,-23,77,1
11310,-11,-256,-49,-22,82,0
11315,-12,-254,-56,-21,85,-2
11320,-17,-255,-51,-20,86,-5
11325,-13,-257,-54,-21,87,-6
11330,-13,-258,-52,-24,87,-8
11335,-13,-256,-55,-31,83,-10
11340,-13,-258,-57,-39,81,-10
11345,-16,-255,-59,-45,75,-10
11350,-17,-255,-58,-51,70,-10
11355,-18,-255,-54,-51,65,-9
11360,-12,-257,-59,-48,63,-10
11365,-14,-254,-60,-42,63,-10
11370,-15,-256,-62,-35,63,-8
11375,-15,-255,-61,-28,64,-7
11380,-14,-253,-60,-23,65,-7
11385,-16,-256,-57,-22,65,-7
11390,-14,-252,-57,-22,64,-6
11395,-14,-253,-57,-23,64,-5
11400,-15,-252,-57,-25,62,-3
11405,-13,-255,-55,-27,61,-2
11410,-12,-255,-56,-29,61,-3
11415,-16,-254,-56,-29,61,-3
11420,-15,-253,-57,-31,61,-1
11425,-14,-253,-60,-34,61,-3
11430,-14,-256,-58,-36,62,-3
11435,-14,-251,-55,-37,62,-2
11440,-15,-254,-58,-39,59,-3
11445,-13,-256,-57,-40,57,-3
11450,-13,-256,-55,-39,55,-3
11455,-13,-255,-60,-40,51,-3
11460,-15,-256,-58,-40,50,-4
11465,-14,-255,-58,-40,49,-4
11470,-15,-255,-60,-38,47,-5
11475,-16,-255,-57,-39,50,-4
11480,-13,-255,-56,-38,53,-4
11485,-14,-255,-62,-35,54,-4
11490,-14,-255,-58,-32,55,-6
11495,-16,-253,-55,-31,56,-4
11500,-16,-253,-55,-30,57,-6
11505,-16,-255,-61,-30,57,-5
11510,-15,-254,-58,-32,57,-4
11515,-14,-257,-60,-32,58,-5
11520,-17,-255,-58,-30,57,-6
11525,-14,-254,-59,-30,56,-6
11530,-13,-256,-59,-27,54,-6
11535,-12,-255,-59,-23,52,-6
11540,-17,-256,-61,-19,50,-5
11545,-13,-258,-61,-13,49,-5
11550,-13,-254,-60,-10,48,-5
11555,-11,-255,-61,-7,48,-4
11560,-12,-255,-55,-6,48,-5
11565,-12,-255,-62,-6,50,-5
11570,-13,-254,-60,-6,50,-5
11575,-13,-252,-56,-6,50,-6
11580,-12,-255,-58,-8,51,-7
11585,-14,-256,-58,-8,50,-6
11590,-14,-254,-55,-7,52,-6
11595,-10,-255,-59,-4,54,-5
11600,-12,-253,-59,-3,56,-4
11605,-15,-253,-59,-1,57,-4
11610,-15,-254,-55,0,59,-5
11615,-13,-254,-55,0,60,-5
11620,-14,-255,-58,1,61,-4
11625,-13,-254,-60,1,60,-6
11630,-12,-253,-58,-3,61,-6
11635,-12,-255,-57,-5,60,-4
11640,-13,-255,-57,-6,62,-4
11645,-14,-256,-56,-8,61,-3
11650,-12,-257,-57,-9,62,-4
11655,-10,-257,-56,-9,62,-4
11660,-11,-257,-59,-6,63,-4
11665,-12,-256,-57,-3,63,-5
11670,-15,-254,-59,-2,62,-6
11675,-11,-255,-54,0,62,-6
11680,-13,-255,-56,1,64,-6
11685,-11,-256,-58,1,65,-4
11690,-11,-256,-58,2,63,-4
11695,-13,-255,-62,2,61,-4
11700,-14,-255,-59,3,61,-5
11705,-15,-253,-59,3,61,-4
11710,-16,-256,-56,3,62,-6
11715,-13,-254,-59,4,63,-5
11720,-12,-257,-61,5,63,-5
11725,-12,-255,-60,7,66,-5
11730,-14,-254,-54,8,69,-5
11735,-14,-255,-58,8,69,-5
11740,-11,-255,-58,9,71,-4
11745,-15,-253,-57,7,71,-4
11750,-12,-254,-57,7,70,-3
11755,-12,-257,-58,5,70,-3
11760,-11,-254,-59,3,71,-1
11765,-13,-252,-56,0,70,-2
11770,-13,-254,-59,0,70,-2
11775,-12,-255,-56,-1,70,-2
11780,-12,-254,-56,0,68,0
11785,-15,-255,-57,2,69,0
11790,-12,-253,-57,4,69,-1
11795,-14,-255,-53,3,70,0
11800,-14,-252,-57,4,71,-1
11805,-11,-255,-57,3,70,-1
11810,-11,-258,-60,1,71,-1
11815,-13,-256,-58,0,71,0
11820,-11,-256,-57,-1,70,1
11825,-15,-254,-56,-4,69,-1
11830,-16,-255,-53,-5,70,0
11835,-13,-257,-54,-6,71,-1
11840,-14,-254,-57,-5,72,-3
11845,-11,-257,-56,-4,74,-2
11850,-14,-256,-57,-4,76,-2
11855,-12,-256,-59,-3,79,-2
11860,-12,-254,-57,-2,78,-2
11865,-13,-255,-56,-3,79,-4
11870,-12,-253,-60,-1,79,-3
11875,-13,-254,-57,2,78,-3
11880,-13,-255,-58,3,79,-3
11885,-11,-257,-56,5,78,-1
11890,-11,-256,-53,6,78,-2
11895,-12,-255,-58,7,76,-2
11900,-12,-254,-55,8,76,-3
11905,-12,-253,-57,7,75,-4
11910,-13,-256,-57,7,75,-1
11915,-12,-255,-53,5,76,-2
11920,-12,-254,-56,3,78,-3
11925,-18,-254,-55,1,78,-2
11930,-16,-255,-55,0,78,-2
11935,-12,-255,-55,-2,77,-1
11940,-13,-255,-56,-2,80,-2
11945,-13,-256,-59,-1,78,-3
11950,-15,-255,-56,-1,78,-3
11955,-12,-256,-57,-1,80,0
11960,-14,-255,-60,-1,81,-1
11965,-15,-255,-56,-3,82,-2
11970,-14,-256,-51,-4,82,-3
11975,-12,-256,-58,-4,83,-2
11980,-13,-255,-55,-5,82,-2
11985,-15,-256,-61,-5,83,-3
11990,-15,-255,-51,-3,83,-4
11995,-15,-255,-54,-3,82,-3
