timestamp,acc_x,acc_y,acc_z,gyro_x,gyro_y,gyro_z
0,-7,-248,-37,50,19,-9
5,-6,-248,-38,53,16,-11
10,-7,-244,-38,53,17,-10
15,-4,-247,-39,54,16,-9
20,-5,-247,-38,54,16,-9
25,-2,-249,-33,54,16,-10
30,-8,-248,-35,52,16,-11
35,-2,-247,-37,53,15,-11
40,-6,-244,-35,54,14,-12
45,-5,-245,-38,52,15,-11
50,-7,-246,-35,51,14,-10
55,-4,-246,-38,50,13,-9
60,-6,-247,-35,49,14,-11
65,-9,-244,-33,49,13,-9
70,-5,-246,-34,50,12,-10
75,-6,-245,-33,50,11,-11
80,-5,-245,-36,50,12,-12
85,-7,-244,-37,51,13,-11
90,-5,-244,-36,50,14,-12
95,-4,-247,-40,49,15,-12
100,-6,-245,-34,48,14,-9
105,-5,-246,-32,47,14,-9
110,-6,-246,-34,47,14,-10
115,-3,-250,-38,48,14,-8
120,-7,-247,-36,50,13,-10
125,-5,-248,-38,50,13,-11
130,-9,-248,-36,50,10,-10
135,-5,-245,-33,51,8,-10
140,-7,-245,-34,50,9,-10
145,-5,-245,-36,51,7,-10
150,-5,-246,-41,50,7,-11
155,-6,-248,-30,50,6,-11
160,-5,-247,-36,50,7,-12
165,-11,-247,-31,50,8,-10
170,-2,-246,-32,52,8,-11
175,-4,-248,-38,53,9,-12
180,-9,-246,-34,55,8,-14
185,-6,-250,-35,56,8,-12
190,-3,-247,-34,58,6,-13
195,-5,-244,-33,57,6,-14
200,-6,-246,-31,58,4,-13
205,-2,-249,-36,58,4,-11
210,-4,-248,-37,58,4,-14
215,-2,-247,-38,58,3,-14
220,-9,-241,-36,59,3,-13
225,-5,-246,-36,60,3,-13
230,1,-247,-33,58,6,-16
235,-11,-243,-33,55,6,-14
240,-3,-244,-37,52,5,-13
245,-6,-245,-35,49,5,-13
250,-6,-245,-36,46,6,-13
255,-4,-246,-36,43,4,-13
260,-2,-244,-37,42,4,-13
265,-6,-248,-34,41,3,-12
270,-1,-249,-33,42,1,-10
275,-8,-245,-35,44,0,-9
280,-6,-248,-41,46,1,-10
285,-3,-248,-37,49,2,-10
290,-5,-246,-33,52,1,-11
295,-4,-244,-36,56,2,-13
300,-5,-247,-34,60,3,-12
305,-4,-246,-38,64,5,-14
310,-4,-247,-38,67,5,-13
315,-3,-247,-38,67,8,-13
320,-1,-244,-35,66,8,-14
325,-4,-248,-40,63,11,-15
330,-4,-244,-35,58,13,-12
335,-3,-243,-39,56,12,-13
340,-3,-244,-37,53,12,-13
345,-4,-242,-32,52,13,-13
350,-3,-245,-36,51,14,-12
355,-3,-247,-34,52,14,-12
360,-5,-245,-36,53,16,-11
365,-8,-246,-38,55,19,-11
370,-4,-247,-35,57,19,-13
375,-7,-246,-30,57,21,-12
380,-3,-244,-37,58,21,-11
385,-3,-248,-37,57,20,-11
390,-7,-246,-40,57,20,-11
395,-2,-249,-42,57,19,-11
400,-4,-247,-35,57,18,-11
405,-7,-245,-38,57,17,-10
410,-8,-245,-38,56,17,-11
415,-4,-245,-37,57,17,-11
420,-5,-247,-38,56,16,-12
425,-6,-245,-38,57,18,-11
430,-6,-245,-40,57,17,-11
435,-3,-243,-38,56,16,-11
440,-4,-243,-39,55,14,-11
445,-5,-247,-43,54,13,-10
450,-9,-253,-38,52,15,-10
455,-6,-244,-35,51,14,-9
460,-3,-246,-40,50,14,-10
465,-4,-246,-37,49,15,-11
470,-4,-247,-36,52,15,-10
475,-7,-246,-38,51,14,-12
480,-4,-247,-35,53,11,-11
485,-4,-244,-36,53,12,-11
490,-1,-248,-36,55,11,-12
495,-5,-246,-34,55,10,-11
500,-4,-246,-33,53,9,-12
505,-2,-242,-41,53,8,-11
510,-9,-243,-37,54,8,-11
515,-5,-249,-35,54,7,-12
520,-5,-246,-37,56,6,-15
525,-8,-245,-40,57,6,-15
530,-4,-248,-36,56,7,-13
535,-7,-243,-39,57,5,-12
540,-5,-245,-41,56,4,-12
545,-3,-250,-36,53,3,-14
550,-5,-248,-39,51,3,-13
555,-5,-243,-44,50,2,-13
560,-6,-244,-39,52,3,-12
565,-8,-246,-37,53,3,-12
570,-4,-247,-36,54,4,-11
575,-5,-244,-35,56,4,-11
580,-5,-247,-35,56,6,-10
585,-2,-247,-39,56,6,-11
590,-6,-243,-36,55,7,-11
595,-3,-243,-33,52,8,-11
600,-7,-244,-35,51,7,-11
605,-8,-244,-38,49,7,-11
610,-5,-243,-39,48,8,-13
615,-4,-244,-35,48,8,-12
620,-8,-244,-34,48,8,-12
625,-4,-245,-33,47,8,-13
630,-2,-245,-34,46,8,-11
635,-4,-247,-37,48,7,-11
640,-4,-243,-36,47,7,-10
645,-8,-248,-38,46,7,-12
650,-2,-244,-34,46,7,-12
655,-4,-246,-34,44,8,-10
660,-2,-248,-34,43,9,-10
665,0,-246,-41,42,11,-10
670,-3,-248,-35,42,10,-9
675,-5,-248,-33,43,11,-9
680,-3,-245,-33,42,12,-9
685,0,-248,-37,43,13,-9
690,-4,-248,-36,43,15,-9
695,-3,-246,-38,42,14,-9
700,-6,-246,-40,41,15,-10
705,-2,-247,-36,39,16,-10
710,-1,-249,-33,40,17,-11
715,-3,-251,-32,39,17,-11
720,-2,-247,-33,41,16,-10
725,-6,-246,-33,44,17,-10
730,-3,-247,-36,46,17,-11
735,-5,-246,-38,47,17,-11
740,-5,-248,-36,49,16,-13
745,-3,-245,-36,49,17,-13
750,-5,-242,-35,48,17,-12
755,-5,-248,-31,48,17,-12
760,-2,-245,-35,47,16,-14
765,-5,-247,-32,48,15,-13
770,-1,-247,-39,51,14,-14
775,-4,-247,-35,52,13,-12
780,-2,-247,-37,54,13,-14
785,-6,-245,-39,54,12,-13
790,-5,-250,-37,54,13,-12
795,-4,-244,-35,52,12,-11
800,-7,-247,-35,51,12,-13
805,-4,-248,-36,53,13,-12
810,-4,-250,-36,53,12,-11
815,-5,-246,-32,55,13,-11
820,-3,-245,-35,54,13,-11
825,-10,-243,-34,51,12,-10
830,-6,-246,-36,48,11,-11
835,-6,-245,-33,46,11,-11
840,-5,-247,-36,46,9,-11
845,-1,-249,-35,48,8,-12
850,-5,-244,-34,48,7,-12
855,-8,-248,-42,49,7,-13
860,-7,-249,-30,48,7,-12
865,-5,-249,-34,48,7,-13
870,-1,-248,-31,48,7,-14
875,-7,-249,-33,51,6,-14
880,-3,-246,-37,54,6,-15
885,-8,-246,-37,56,5,-16
890,-7,-244,-39,56,5,-14
895,-3,-242,-38,55,7,-14
900,-3,-245,-37,55,8,-14
905,-6,-244,-36,53,10,-13
910,-2,-247,-34,52,10,-13
915,-3,-244,-33,50,9,-13
920,-4,-244,-35,47,10,-13
925,-2,-250,-37,47,10,-12
930,2,-250,-32,47,10,-12
935,-4,-248,-36,47,10,-12
940,-3,-248,-32,47,11,-11
945,-5,-247,-39,47,12,-12
950,-4,-246,-39,48,12,-13
955,-7,-246,-36,49,12,-13
960,-1,-248,-36,50,11,-12
965,-8,-244,-39,51,13,-13
970,-4,-244,-40,52,14,-13
975,-7,-246,-37,53,13,-14
980,-2,-248,-39,53,13,-12
985,-3,-243,-46,54,11,-12
990,-1,-248,-38,54,12,-13
995,0,-248,-41,54,14,-13
1000,-3,-246,-35,54,14,-13
1005,-3,-246,-37,54,14,-13
1010,-4,-247,-39,53,13,-12
1015,-5,-243,-37,52,13,-13
1020,-2,-246,-39,50,12,-13
1025,-8,-244,-35,48,11,-14
1030,-4,-247,-39,45,10,-12
1035,-5,-253,-33,42,9,-12
1040,-6,-248,-36,40,8,-13
1045,-6,-245,-36,39,6,-13
1050,-3,-248,-41,38,6,-13
1055,-6,-245,-35,37,5,-14
1060,-2,-247,-35,37,5,-14
1065,-3,-246,-43,38,5,-14
1070,-5,-247,-38,39,6,-15
1075,-2,-243,-41,42,8,-15
1080,-1,-243,-44,44,8,-16
1085,-4,-246,-44,44,10,-16
1090,0,-247,-44,42,10,-17
1095,0,-244,-38,39,9,-19
1100,-3,-243,-38,37,9,-21
1105,-5,-242,-36,34,9,-20
1110,-1,-243,-41,32,7,-21
1115,-4,-245,-39,29,6,-22
1120,0,-244,-43,28,4,-21
1125,-2,-247,-39,27,4,-22
1130,-4,-245,-40,25,6,-22
1135,0,-246,-47,23,10,-20
1140,-1,-249,-39,23,11,-20
1145,-1,-248,-40,24,13,-20
1150,0,-244,-38,24,12,-19
1155,0,-248,-42,27,14,-20
1160,-1,-245,-39,28,13,-20
1165,-1,-248,-38,27,12,-21
1170,-3,-244,-40,26,12,-22
1175,-1,-245,-38,25,11,-22
1180,-2,-246,-42,23,10,-21
1185,-6,-245,-36,22,9,-22
1190,-3,-244,-42,22,11,-22
1195,-1,-246,-40,18,12,-22
1200,-4,-244,-39,15,13,-23
1205,-3,-246,-34,12,16,-23
1210,0,-245,-33,11,17,-23
1215,-2,-245,-35,9,18,-21
1220,-1,-246,-34,8,18,-19
1225,-1,-245,-34,8,20,-19
1230,-1,-245,-37,7,22,-19
1235,0,-246,-39,5,22,-18
1240,-2,-242,-35,4,22,-17
1245,-4,-244,-41,3,22,-17
1250,0,-245,-31,2,20,-15
1255,0,-246,-36,2,21,-16
1260,-3,-249,-37,1,21,-15
1265,-1,-251,-36,1,21,-13
1270,-3,-246,-37,0,21,-11
1275,-7,-248,-33,3,21,-12
1280,-1,-246,-39,6,22,-10
1285,0,-248,-39,9,21,-10
1290,0,-250,-39,12,21,-10
1295,-2,-247,-31,15,22,-8
1300,-9,-247,-33,19,23,-7
1305,-4,-253,-42,24,23,-7
1310,-6,-245,-37,28,22,-9
1315,-6,-248,-37,33,22,-9
1320,-5,-244,-34,37,20,-8
1325,-5,-247,-35,41,18,-8
1330,-7,-246,-35,43,17,-9
1335,-8,-246,-34,42,14,-6
1340,-7,-247,-35,43,13,-7
1345,-6,-243,-37,44,12,-6
1350,-2,-247,-30,44,9,-5
1355,-3,-244,-30,46,8,-5
1360,-8,-244,-35,49,9,-6
1365,-4,-247,-37,53,9,-5
1370,-7,-244,-36,52,10,-5
1375,-5,-244,-36,51,11,-5
1380,-7,-245,-36,52,11,-5
1385,-4,-247,-35,50,11,-6
1390,-2,-247,-34,51,11,-6
1395,-6,-246,-34,52,10,-8
1400,-5,-243,-37,53,8,-7
1405,-5,-250,-32,54,7,-9
1410,-1,-247,-41,57,6,-8
1415,-6,-248,-36,59,4,-8
1420,-7,-247,-35,61,3,-9
1425,-5,-246,-34,62,1,-11
1430,-4,-249,-33,65,-1,-10
1435,-6,-248,-31,68,-1,-11
1440,-6,-247,-34,73,-3,-11
1445,-4,-248,-34,78,-4,-14
1450,-3,-249,-35,84,-4,-14
1455,-1,-244,-35,88,-6,-14
1460,-5,-243,-43,91,-6,-14
1465,-1,-247,-43,90,-7,-15
1470,-4,-243,-40,88,-7,-15
1475,-4,-245,-40,86,-5,-14
1480,-2,-247,-37,83,-4,-16
1485,0,-244,-33,82,-5,-14
1490,-3,-246,-36,80,-7,-14
1495,0,-245,-39,80,-6,-16
1500,-1,-245,-37,80,-5,-14
1505,-1,-245,-32,80,-3,-15
1510,-2,-248,-33,80,-3,-14
1515,-3,-245,-39,79,-1,-14
1520,0,-246,-38,80,1,-14
1525,-3,-245,-37,81,3,-14
1530,-6,-247,-38,82,4,-14
1535,-4,-247,-35,84,4,-15
1540,0,-243,-37,85,4,-15
1545,-4,-247,-38,85,4,-13
1550,-6,-245,-36,85,4,-14
1555,-7,-245,-37,83,5,-16
1560,-3,-248,-35,82,6,-15
1565,-7,-245,-38,81,6,-14
1570,-1,-247,-36,81,7,-15
1575,-5,-250,-38,80,9,-15
1580,-4,-243,-37,78,9,-14
1585,-5,-245,-39,77,9,-15
1590,-2,-249,-42,76,9,-14
1595,-2,-249,-33,76,8,-16
1600,-2,-249,-36,74,8,-14
1605,-2,-249,-37,75,8,-15
1610,-4,-247,-34,76,9,-14
1615,-1,-247,-33,78,7,-16
1620,-1,-248,-36,78,8,-13
1625,-2,-247,-39,81,8,-13
1630,-3,-247,-36,81,7,-14
1635,-6,-244,-33,79,6,-15
1640,-5,-244,-35,77,4,-14
1645,-7,-244,-34,78,3,-13
1650,-7,-247,-39,77,1,-13
1655,-4,-246,-35,77,1,-14
1660,-7,-245,-33,77,-1,-15
1665,-5,-248,-38,76,0,-15
1670,-8,-247,-37,75,-1,-16
1675,-10,-245,-41,74,-1,-16
1680,-6,-248,-38,72,0,-16
1685,-3,-245,-37,72,-1,-16
1690,-5,-246,-36,71,-1,-17
1695,-4,-245,-37,69,-1,-17
1700,-3,-247,-37,70,-2,-16
1705,-6,-244,-38,70,-2,-17
1710,-6,-245,-35,69,-2,-16
1715,-3,-247,-37,70,-2,-17
1720,-3,-243,-41,69,-2,-15
1725,-1,-244,-37,72,0,-15
1730,-2,-248,-36,71,-1,-16
1735,-1,-251,-39,73,-1,-17
1740,-5,-248,-35,73,1,-14
1745,-3,-243,-38,75,1,-15
1750,-4,-246,-36,76,0,-15
1755,-3,-248,-34,76,0,-15
1760,-9,-243,-39,76,1,-16
1765,-4,-243,-37,75,2,-16
1770,-7,-244,-36,75,2,-15
1775,-6,-244,-36,73,4,-14
1780,-1,-248,-36,71,3,-15
1785,-4,-247,-42,69,3,-15
1790,-7,-245,-39,68,4,-16
1795,-4,-242,-35,68,5,-15
1800,-2,-245,-33,67,9,-13
1805,-5,-246,-36,68,7,-13
1810,-5,-244,-39,68,7,-14
1815,-8,-244,-37,65,7,-13
1820,-2,-248,-36,64,8,-13
1825,-4,-247,-40,63,9,-13
1830,-2,-241,-37,62,9,-12
1835,-3,-247,-33,61,9,-12
1840,-4,-246,-33,62,9,-12
1845,-2,-247,-41,63,10,-12
1850,-3,-247,-37,63,10,-12
1855,-3,-244,-36,62,10,-12
1860,-7,-244,-36,61,8,-13
1865,-3,-242,-38,61,8,-11
1870,-5,-248,-32,59,8,-12
1875,-6,-247,-37,60,6,-13
1880,-4,-246,-37,60,6,-13
1885,-7,-247,-35,59,7,-13
1890,-6,-246,-36,60,7,-11
1895,-3,-243,-38,59,6,-11
1900,-2,-245,-36,59,7,-11
1905,-5,-242,-32,57,6,-12
1910,-3,-247,-34,57,8,-11
1915,-1,-247,-34,54,7,-12
1920,-3,-246,-38,54,6,-12
1925,-2,-244,-37,53,6,-12
1930,-8,-242,-38,53,7,-13
1935,-4,-243,-39,53,6,-15
1940,-1,-243,-37,52,6,-15
1945,-4,-245,-38,51,7,-14
1950,-1,-245,-38,49,8,-13
1955,0,-246,-35,47,8,-12
1960,-3,-245,-34,46,9,-15
1965,-2,-245,-34,46,9,-15
1970,-1,-247,-35,47,8,-13
1975,-6,-244,-38,45,9,-13
1980,-7,-246,-34,45,10,-13
1985,-3,-247,-34,45,9,-12
1990,-2,-245,-32,46,10,-13
1995,-8,-244,-40,45,10,-12
2000,-2,-247,-37,45,9,-12
2005,-3,-247,-34,45,6,-13
2010,-2,-246,-30,48,6,-12
2015,-2,-245,-37,50,5,-12
2020,-4,-246,-37,54,5,-13
2025,-2,-245,-33,58,5,-14
2030,-5,-249,-37,60,6,-14
2035,-1,-247,-35,61,8,-14
2040,-3,-245,-39,60,8,-14
2045,-1,-249,-35,59,9,-16
2050,-3,-239,-39,58,12,-13
2055,-1,-248,-35,54,12,-12
2060,-4,-246,-33,52,14,-14
2065,-1,-247,-32,51,15,-13
2070,-2,-245,-31,50,16,-12
2075,-2,-247,-33,51,15,-13
2080,-4,-247,-34,53,16,-10
2085,-3,-247,-37,54,17,-10
2090,-6,-244,-35,55,19,-11
2095,-1,-247,-40,56,19,-11
2100,-8,-248,-35,57,19,-14
2105,-2,-251,-35,57,19,-14
2110,-6,-248,-33,56,21,-14
2115,-1,-245,-35,56,21,-14
2120,-5,-246,-37,54,22,-13
2125,-5,-244,-36,54,22,-14
2130,-6,-246,-35,54,23,-13
2135,-1,-246,-37,53,23,-13
2140,-5,-248,-39,51,23,-14
2145,-5,-246,-35,53,23,-12
2150,-3,-247,-33,52,22,-13
2155,-6,-248,-37,52,23,-15
2160,-4,-247,-32,52,23,-15
2165,-3,-243,-35,50,23,-13
2170,-2,-250,-34,49,22,-14
2175,-3,-246,-34,51,22,-13
2180,-6,-247,-35,52,22,-12
2185,-4,-248,-35,52,21,-13
2190,-5,-247,-36,54,21,-14
2195,-3,-248,-36,56,21,-13
2200,-5,-244,-29,58,21,-12
2205,-5,-242,-39,58,20,-11
2210,-5,-251,-25,59,22,-12
2215,-4,-246,-34,61,21,-13
2220,-1,-245,-38,63,21,-14
2225,-5,-245,-36,63,20,-12
2230,-6,-246,-37,63,19,-14
2235,-4,-244,-35,62,19,-13
2240,-5,-244,-35,60,18,-14
2245,-2,-246,-36,57,18,-15
2250,-3,-251,-33,53,16,-17
2255,-2,-247,-37,54,14,-17
2260,-5,-245,-40,55,14,-17
2265,-6,-245,-38,54,11,-17
2270,-3,-246,-31,53,9,-16
2275,-4,-244,-32,52,8,-15
2280,-6,-243,-37,52,8,-15
2285,-3,-245,-35,51,6,-12
2290,-7,-244,-36,50,5,-14
2295,-6,-248,-29,49,6,-13
2300,-1,-246,-34,47,5,-13
2305,-1,-248,-36,48,6,-12
2310,-7,-245,-37,49,6,-14
2315,-7,-249,-32,50,7,-15
2320,-4,-244,-37,52,8,-14
2325,0,-248,-35,54,7,-14
2330,-1,-250,-35,56,6,-13
2335,-5,-249,-36,57,5,-13
2340,-4,-247,-37,57,3,-13
2345,-4,-248,-35,56,0,-13
2350,-5,-247,-34,54,-2,-14
2355,-3,-247,-33,52,-5,-14
2360,-7,-246,-33,49,-7,-15
2365,-6,-250,-32,48,-8,-16
2370,-7,-249,-36,47,-9,-20
2375,-3,-249,-36,48,-8,-23
2380,-2,-249,-38,48,3,-25
2385,0,-250,-40,43,27,-26
2390,0,-247,-50,30,65,-30
2395,0,-246,-60,11,120,-33
2400,-2,-240,-63,-10,180,-36
2405,-2,-236,-70,-40,239,-38
2410,6,-234,-77,-82,291,-43
2415,5,-226,-74,-139,337,-54
2420,10,-224,-79,-210,375,-69
2425,9,-210,-105,-301,410,-76
2430,12,-195,-133,-430,458,-76
2435,16,-189,-154,-608,518,-74
2440,20,-180,-164,-805,576,-80
2445,21,-175,-155,-979,622,-91
2450,19,-173,-138,-1097,644,-92
2455,19,-170,-129,-1159,641,-72
2460,15,-167,-127,-1191,620,-34
2465,13,-156,-132,-1216,593,10
2470,16,-148,-145,-1248,566,53
2475,11,-144,-149,-1286,534,85
2480,9,-138,-159,-1325,497,112
2485,1,-131,-155,-1356,452,141
2490,-3,-129,-151,-1374,402,170
2495,-11,-128,-150,-1386,350,198
2500,-18,-126,-147,-1401,300,226
2505,-27,-121,-145,-1422,250,248
2510,-37,-120,-146,-1451,195,270
2515,-50,-112,-144,-1482,131,284
2520,-50,-112,-147,-1516,52,291
2525,-58,-111,-147,-1550,-33,296
2530,-61,-115,-150,-1584,-116,294
2535,-59,-110,-149,-1622,-194,285
2540,-56,-108,-153,-1657,-263,270
2545,-57,-103,-147,-1694,-330,247
2550,-55,-98,-150,-1724,-396,216
2555,-57,-98,-148,-1749,-464,181
2560,-58,-94,-149,-1770,-533,139
2565,-59,-92,-150,-1785,-597,97
2570,-54,-90,-142,-1794,-648,53
2575,-56,-89,-140,-1796,-687,11
2580,-52,-90,-132,-1789,-713,-24
2585,-55,-92,-129,-1768,-731,-54
2590,-44,-93,-128,-1733,-739,-77
2595,-32,-95,-124,-1690,-729,-90
2600,-23,-95,-121,-1642,-706,-98
2605,-7,-97,-121,-1596,-667,-86
2610,0,-104,-116,-1557,-617,-68
2615,7,-102,-118,-1521,-562,-38
2620,22,-104,-118,-1497,-500,1
2625,14,-104,-111,-1494,-425,50
2630,23,-108,-105,-1487,-362,129
2635,26,-112,-105,-1475,-309,209
2640,34,-117,-86,-1450,-264,281
2645,39,-113,-83,-1417,-227,352
2650,41,-103,-76,-1416,-197,423
2655,50,-102,-73,-1451,-167,483
2660,59,-100,-69,-1517,-133,535
2665,62,-108,-67,-1604,-95,567
2670,62,-118,-65,-1689,-56,583
2675,63,-124,-65,-1749,-22,583
2680,62,-138,-66,-1774,7,571
2685,60,-150,-67,-1742,32,536
2690,46,-173,-75,-1654,52,489
2695,32,-191,-79,-1525,64,444
2700,20,-205,-80,-1370,67,399
2705,6,-219,-81,-1200,60,355
2710,0,-239,-80,-1017,53,309
2715,-14,-247,-78,-833,56,270
2720,-17,-255,-77,-662,53,240
2725,-25,-258,-87,-525,62,199
2730,-34,-257,-83,-420,70,160
2735,-49,-265,-91,-347,64,131
2740,-49,-277,-97,-294,42,123
2745,-60,-287,-87,-246,16,118
2750,-61,-299,-85,-189,-5,134
2755,-64,-309,-86,-116,-11,171
2760,-63,-319,-84,-33,-23,212
2765,-62,-318,-92,38,-28,237
2770,-60,-309,-98,84,-38,244
2775,-64,-301,-104,99,-68,249
2780,-61,-295,-110,104,-105,258
2785,-49,-296,-116,102,-146,259
2790,-47,-289,-119,118,-199,255
2795,-36,-274,-127,148,-253,248
2800,-29,-263,-128,183,-297,222
2805,-29,-238,-129,221,-322,178
2810,-22,-215,-129,267,-332,133
2815,-20,-202,-119,321,-330,93
2820,-17,-194,-121,384,-327,60
2825,-16,-191,-117,452,-324,30
2830,-10,-191,-121,518,-316,-1
2835,-10,-187,-110,572,-299,-32
2840,-6,-191,-113,609,-279,-65
2845,-9,-193,-110,624,-256,-93
2850,-6,-200,-111,623,-233,-125
2855,-7,-204,-110,616,-215,-149
2860,-6,-209,-118,606,-198,-171
2865,-19,-216,-122,595,-179,-186
2870,-12,-223,-134,568,-168,-195
2875,-13,-226,-141,516,-190,-189
2880,-13,-227,-149,456,-196,-205
2885,-21,-229,-144,393,-192,-240
2890,-24,-232,-150,331,-186,-281
2895,-34,-230,-149,282,-189,-313
2900,-44,-236,-146,268,-194,-325
2905,-50,-240,-140,298,-201,-317
2910,-50,-251,-147,370,-202,-296
2915,-49,-256,-142,482,-205,-274
2920,-51,-254,-144,607,-202,-256
2925,-52,-252,-143,720,-197,-245
2930,-48,-242,-139,807,-202,-241
2935,-53,-235,-138,870,-209,-242
2940,-46,-232,-140,917,-223,-237
2945,-47,-232,-136,943,-242,-231
2950,-48,-226,-127,955,-267,-224
2955,-37,-228,-132,954,-301,-212
2960,-36,-227,-130,946,-324,-207
2965,-37,-226,-127,931,-346,-208
2970,-38,-225,-133,906,-359,-213
2975,-37,-230,-137,877,-365,-214
2980,-38,-231,-139,855,-355,-216
2985,-36,-238,-145,837,-339,-207
2990,-33,-236,-144,820,-320,-188
2995,-35,-240,-150,802,-300,-174
3000,-33,-251,-160,776,-283,-165
3005,-37,-255,-161,761,-266,-158
3010,-38,-256,-167,754,-253,-154
3015,-44,-252,-166,748,-235,-150
3020,-46,-247,-163,741,-213,-144
3025,-45,-246,-162,727,-195,-133
3030,-47,-244,-164,716,-185,-123
3035,-47,-244,-163,717,-186,-115
3040,-42,-250,-157,729,-200,-113
3045,-47,-247,-153,753,-215,-121
3050,-46,-257,-157,785,-229,-130
3055,-51,-261,-151,826,-243,-132
3060,-44,-267,-150,870,-249,-132
3065,-45,-272,-142,918,-250,-131
3070,-43,-273,-138,962,-244,-128
3075,-39,-274,-139,995,-233,-126
3080,-36,-270,-143,1015,-220,-128
3085,-38,-271,-142,1023,-204,-129
3090,-36,-271,-137,1024,-187,-132
3095,-38,-273,-133,1020,-174,-139
3100,-36,-270,-137,1017,-163,-150
3105,-35,-278,-132,1016,-152,-154
3110,-36,-278,-131,1015,-144,-155
3115,-35,-284,-128,1017,-138,-152
3120,-29,-289,-130,1020,-133,-151
3125,-33,-293,-124,1028,-128,-150
3130,-33,-295,-115,1039,-125,-152
3135,-31,-296,-112,1055,-125,-156
3140,-29,-294,-110,1071,-125,-161
3145,-31,-295,-107,1084,-126,-167
3150,-33,-293,-102,1099,-125,-174
3155,-29,-296,-96,1116,-123,-180
3160,-27,-292,-91,1138,-118,-188
3165,-34,-290,-96,1161,-113,-191
3170,-38,-285,-87,1178,-105,-190
3175,-37,-284,-92,1184,-97,-182
3180,-37,-281,-82,1182,-88,-174
3185,-35,-277,-79,1179,-76,-170
3190,-37,-278,-77,1179,-67,-172
3195,-36,-276,-78,1182,-58,-168
3200,-36,-273,-74,1191,-46,-167
3205,-34,-273,-75,1202,-31,-164
3210,-30,-270,-72,1214,-15,-163
3215,-28,-271,-68,1226,0,-166
3220,-18,-277,-68,1239,17,-175
3225,-23,-276,-71,1253,37,-188
3230,-31,-280,-70,1272,67,-203
3235,-39,-289,-71,1294,101,-216
3240,-50,-303,-64,1330,124,-217
3245,-55,-322,-55,1391,125,-209
3250,-51,-345,-49,1474,103,-197
3255,-59,-369,-24,1576,65,-183
3260,-64,-402,4,1705,3,-177
3265,-50,-444,8,1856,-67,-195
3270,-34,-509,-24,1990,-122,-256
3275,-26,-562,-69,2032,-156,-369
3280,-29,-618,-147,1891,-173,-461
3285,-47,-589,-193,1526,-121,-566
3290,-43,-533,-202,1054,-63,-600
3295,-28,-464,-191,660,-1,-581
3300,-23,-410,-171,434,50,-529
3305,-23,-331,-143,311,80,-471
3310,-35,-253,-114,204,96,-400
3315,-46,-177,-79,68,109,-311
3320,-51,-121,-57,-87,120,-218
3325,-50,-93,-46,-231,129,-132
3330,-48,-63,-34,-329,131,-64
3335,-43,-56,-25,-355,127,-22
3340,-37,-69,-17,-307,123,-18
3345,-30,-88,-16,-206,120,-48
3350,-31,-105,-20,-79,126,-94
3355,-26,-129,-25,48,135,-141
3360,-24,-151,-30,154,146,-177
3365,-18,-178,-33,233,150,-191
3370,-16,-190,-29,286,153,-194
3375,-11,-203,-23,316,150,-192
3380,-7,-214,-5,330,142,-189
3385,0,-226,1,337,129,-191
3390,7,-246,14,340,110,-200
3395,10,-253,19,353,85,-214
3400,11,-267,26,373,59,-237
3405,5,-273,33,405,36,-263
3410,4,-283,38,456,19,-290
3415,-4,-283,37,530,9,-319
3420,-3,-289,40,626,6,-345
3425,-12,-291,40,738,8,-363
3430,-20,-293,24,850,15,-373
3435,-24,-295,18,941,23,-373
3440,-15,-297,9,1002,26,-368
3445,-19,-291,4,1020,23,-359
3450,-17,-286,10,999,21,-344
3455,-12,-282,10,944,23,-319
3460,-11,-274,19,865,31,-290
3465,-9,-268,33,785,43,-257
3470,-13,-268,34,720,63,-227
3475,-14,-264,41,669,80,-197
3480,-19,-250,44,631,92,-169
3485,-23,-248,47,601,102,-146
3490,-23,-237,45,583,106,-125
3495,-22,-239,32,579,108,-99
3500,-22,-241,41,595,105,-82
3505,-29,-236,28,634,93,-68
3510,-28,-230,23,691,76,-52
3515,-21,-227,20,749,50,-38
3520,-15,-223,13,794,26,-25
3525,-8,-223,7,818,4,-13
3530,-2,-220,2,818,-17,-1
3535,3,-221,-1,791,-39,10
3540,8,-224,-6,753,-56,16
3545,15,-225,-9,708,-67,16
3550,25,-233,-14,658,-78,12
3555,27,-241,-20,610,-84,3
3560,28,-238,-16,568,-89,-10
3565,30,-238,-23,532,-91,-26
3570,25,-239,-31,500,-92,-45
3575,20,-237,-37,472,-91,-63
3580,15,-239,-38,442,-86,-76
3585,14,-238,-35,415,-73,-91
3590,14,-241,-32,387,-46,-106
3595,13,-241,-27,347,-21,-109
3600,5,-248,-20,297,-6,-103
3605,10,-254,-16,261,0,-89
3610,15,-257,-10,256,14,-76
3615,11,-260,-8,278,32,-66
3620,13,-261,-1,321,54,-61
3625,9,-256,-4,371,73,-62
3630,5,-254,-1,415,90,-68
3635,5,-248,1,449,102,-77
3640,4,-248,6,465,105,-89
3645,2,-250,9,460,103,-98
3650,1,-252,20,442,97,-104
3655,0,-247,16,419,89,-106
3660,-4,-237,15,398,79,-104
3665,0,-245,18,386,65,-99
3670,-3,-245,19,380,50,-97
3675,-2,-243,20,379,33,-95
3680,-3,-242,15,373,15,-92
3685,-2,-239,16,362,-6,-89
3690,-7,-239,23,341,-27,-87
3695,-11,-238,20,315,-48,-81
3700,-12,-240,16,284,-71,-74
3705,-16,-242,20,247,-90,-68
3710,-18,-241,24,211,-105,-61
3715,-15,-243,15,174,-120,-53
3720,-16,-242,15,143,-129,-44
3725,-18,-243,11,122,-139,-34
3730,-15,-244,8,112,-148,-27
3735,-15,-244,11,112,-155,-20
3740,-10,-245,10,116,-157,-17
3745,-6,-247,6,119,-158,-13
3750,-10,-240,7,119,-154,-14
3755,-7,-241,1,116,-149,-10
3760,-2,-243,1,113,-143,-10
3765,-1,-236,4,111,-133,-13
3770,-1,-242,2,108,-123,-10
3775,1,-248,0,106,-113,-12
3780,1,-249,0,107,-105,-13
3785,0,-247,4,108,-96,-12
3790,0,-246,0,109,-89,-10
3795,0,-244,4,106,-86,-8
3800,-3,-245,3,100,-82,-4
3805,-3,-252,10,90,-79,-1
3810,0,-243,13,80,-80,1
3815,0,-246,13,73,-82,0
3820,-3,-250,9,64,-86,-1
3825,-4,-246,12,55,-90,-4
3830,0,-248,13,45,-95,-7
3835,-1,-251,19,37,-99,-9
3840,-6,-250,17,34,-100,-14
3845,-4,-249,17,28,-101,-18
3850,-5,-249,21,24,-98,-19
3855,-1,-250,14,22,-97,-20
3860,-3,-246,15,22,-94,-24
3865,-5,-245,12,22,-89,-24
3870,-6,-246,13,18,-83,-25
3875,-3,-244,17,13,-78,-28
3880,-3,-241,13,5,-71,-29
3885,-3,-241,9,-7,-64,-31
3890,-4,-243,6,-17,-58,-33
3895,-6,-246,6,-27,-53,-33
3900,0,-241,5,-39,-46,-34
3905,-3,-243,6,-48,-42,-33
3910,-5,-243,3,-58,-37,-34
3915,-7,-245,8,-66,-32,-35
3920,-6,-245,5,-76,-27,-36
3925,-7,-247,14,-85,-23,-40
3930,-11,-243,6,-93,-21,-44
3935,-8,-246,8,-100,-18,-49
3940,-6,-246,4,-103,-15,-51
3945,-7,-246,7,-103,-13,-48
3950,-9,-246,6,-101,-10,-48
3955,-5,-247,10,-99,-8,-44
3960,-10,-243,10,-96,-5,-41
3965,-10,-243,8,-92,-1,-35
3970,-5,-244,9,-88,2,-29
3975,-2,-245,13,-85,5,-25
3980,-2,-250,6,-80,9,-21
3985,-3,-247,10,-74,12,-19
3990,0,-243,7,-70,16,-15
3995,1,-247,7,-67,18,-12
4000,0,-247,14,-62,19,-9
4005,0,-245,11,-55,22,-8
4010,-4,-246,8,-47,23,-6
4015,-2,-248,9,-41,25,-7
4020,-1,-249,5,-35,30,-8
4025,2,-246,10,-28,36,-7
4030,-2,-245,7,-23,41,-6
4035,-2,-247,4,-20,42,-2
4040,0,-249,7,-16,44,-2
4045,2,-247,5,-14,43,-1
4050,2,-246,7,-13,41,-2
4055,0,-245,3,-18,38,1
4060,0,-248,6,-25,33,4
4065,1,-247,8,-33,28,6
4070,2,-249,5,-40,21,8
4075,0,-253,5,-41,14,13
4080,-1,-253,3,-36,7,15
4085,-4,-258,4,-27,0,16
4090,1,-254,3,-14,-10,16
4095,0,-254,3,-4,-19,14
4100,0,-254,4,6,-25,13
4105,2,-254,5,10,-32,13
4110,2,-251,1,11,-35,14
4115,1,-253,1,8,-38,17
4120,-1,-254,3,9,-40,21
4125,2,-255,-1,11,-41,23
4130,2,-255,1,16,-40,22
4135,6,-256,2,20,-41,24
4140,1,-255,5,23,-42,22
4145,2,-257,2,22,-46,20
4150,1,-255,5,26,-48,16
4155,1,-256,1,35,-51,10
4160,2,-259,7,47,-53,5
4165,3,-258,5,61,-54,-4
4170,3,-263,7,79,-53,-11
4175,0,-261,6,98,-51,-19
4180,3,-261,8,120,-47,-25
4185,1,-256,4,143,-44,-29
4190,2,-255,5,165,-38,-33
4195,-2,-250,3,183,-35,-37
4200,2,-254,8,196,-31,-40
4205,1,-251,10,200,-26,-44
4210,0,-248,2,201,-22,-51
4215,2,-247,7,194,-15,-57
4220,2,-243,7,184,-8,-63
4225,1,-239,2,171,-1,-68
4230,3,-243,4,159,8,-70
4235,2,-241,8,149,15,-69
4240,1,-240,4,142,22,-68
4245,-5,-240,1,139,28,-61
4250,0,-243,2,138,33,-55
4255,1,-242,7,139,37,-49
4260,0,-244,6,137,40,-41
4265,0,-246,4,131,41,-34
4270,-1,-247,5,121,38,-27
4275,-2,-250,6,107,33,-20
4280,-7,-250,5,93,25,-17
4285,-5,-250,3,78,15,-14
4290,-4,-255,6,65,7,-12
4295,-7,-246,-1,53,-3,-10
4300,-9,-247,6,46,-10,-8
4305,-11,-247,3,42,-12,-6
4310,-11,-248,3,39,-15,-6
4315,-9,-250,5,41,-16,-4
4320,-2,-249,6,45,-16,-2
4325,-8,-249,12,52,-16,-1
4330,-2,-249,10,58,-14,2
4335,-3,-247,6,63,-12,3
4340,-4,-250,6,66,-12,6
4345,-6,-243,5,66,-11,6
4350,-2,-243,7,66,-10,8
4355,-10,-250,12,63,-11,9
4360,-5,-246,11,60,-10,8
4365,0,-249,4,57,-8,5
4370,-1,-248,8,53,-9,4
4375,0,-250,9,52,-10,3
4380,1,-252,6,54,-10,1
4385,0,-253,8,59,-12,-1
4390,3,-251,7,66,-13,-1
4395,0,-252,11,75,-15,0
4400,0,-251,10,83,-17,-1
4405,0,-250,6,88,-18,0
4410,2,-255,16,94,-18,1
4415,0,-255,11,95,-16,0
4420,1,-250,9,98,-16,-1
4425,1,-249,8,100,-17,0
4430,2,-250,9,101,-16,-2
4435,3,-253,4,102,-15,-3
4440,1,-248,4,102,-13,-4
4445,-1,-246,4,102,-11,-7
4450,1,-246,7,102,-7,-8
4455,3,-246,8,103,-5,-9
4460,0,-244,4,105,-2,-10
4465,0,-246,5,103,2,-13
4470,0,-246,9,98,3,-14
4475,1,-247,7,92,4,-13
4480,0,-243,6,86,7,-15
4485,1,-247,6,80,8,-18
4490,1,-245,9,73,8,-19
4495,1,-248,8,66,7,-23
4500,0,-252,10,61,7,-23
4505,3,-255,7,58,7,-26
4510,3,-253,3,58,6,-28
4515,1,-260,14,58,6,-32
4520,2,-253,8,58,10,-35
4525,0,-251,8,58,9,-37
4530,0,-255,5,57,9,-39
4535,0,-252,3,57,9,-43
4540,-1,-251,6,57,10,-46
4545,-2,-250,3,53,10,-53
4550,-5,-247,7,50,12,-56
4555,-5,-247,12,46,13,-60
4560,-6,-248,10,40,15,-60
4565,-5,-245,6,34,16,-61
4570,-10,-246,14,32,15,-61
4575,-7,-245,14,32,17,-61
4580,-6,-243,9,37,17,-59
4585,-3,-249,12,44,16,-57
4590,-4,-251,8,54,16,-56
4595,-4,-248,12,67,16,-50
4600,-1,-244,12,80,16,-45
4605,0,-249,13,88,16,-38
4610,-1,-248,12,88,17,-29
4615,0,-248,9,82,17,-23
4620,-3,-250,12,71,17,-19
4625,0,-246,11,61,17,-21
4630,0,-247,13,53,16,-22
4635,3,-250,12,49,15,-23
4640,0,-248,11,50,15,-25
4645,0,-246,8,52,14,-26
4650,0,-249,8,54,12,-26
4655,0,-249,9,54,11,-25
4660,2,-252,10,57,12,-25
4665,3,-250,9,57,10,-21
4670,3,-249,9,59,9,-20
4675,1,-250,12,60,7,-16
4680,0,-248,8,62,6,-11
4685,1,-247,7,64,5,-9
4690,1,-247,10,64,3,-5
4695,-1,-245,5,63,2,-3
4700,2,-246,9,61,0,-2
4705,1,-246,8,58,0,-2
4710,0,-246,6,56,-2,-6
4715,1,-243,4,53,-2,-7
4720,1,-246,3,51,-2,-8
4725,-1,-244,5,48,-1,-9
4730,1,-246,6,46,-1,-9
4735,4,-248,8,42,-1,-9
4740,1,-245,10,40,1,-10
4745,0,-246,8,38,4,-11
4750,0,-247,9,34,6,-10
4755,0,-250,10,34,7,-10
4760,1,-253,11,35,8,-13
4765,-1,-248,8,36,8,-12
4770,3,-251,8,39,8,-13
4775,1,-255,11,39,7,-17
4780,-1,-254,14,40,7,-17
4785,0,-248,8,40,6,-19
4790,1,-250,8,41,6,-20
4795,2,-250,9,43,6,-17
4800,1,-252,7,44,8,-18
4805,1,-252,12,47,9,-16
4810,0,-249,9,49,9,-16
4815,1,-249,14,51,10,-14
4820,-2,-250,10,54,12,-14
4825,2,-251,10,57,11,-14
4830,0,-250,8,61,10,-11
4835,0,-254,11,64,10,-12
4840,1,-252,8,69,9,-11
4845,0,-249,7,74,7,-11
4850,-4,-250,7,76,6,-12
4855,0,-248,5,77,6,-14
4860,0,-250,6,73,7,-15
4865,0,-247,5,70,6,-17
4870,-2,-248,12,64,6,-19
4875,1,-250,6,59,5,-19
4880,0,-244,11,55,4,-17
4885,0,-247,10,53,3,-18
4890,-2,-247,9,55,3,-15
4895,0,-247,12,56,2,-15
4900,0,-251,9,61,1,-15
4905,0,-246,10,61,0,-13
4910,0,-246,12,63,1,-13
4915,0,-251,10,64,-1,-12
4920,3,-251,7,63,-1,-15
4925,0,-245,11,62,0,-15
4930,0,-249,12,61,2,-14
4935,-3,-245,16,61,2,-15
4940,-1,-250,13,62,1,-15
4945,0,-251,11,65,3,-16
4950,1,-248,11,68,4,-16
4955,0,-251,13,71,5,-16
4960,-1,-250,9,74,7,-17
4965,0,-248,13,77,9,-17
4970,2,-250,9,77,11,-18
4975,1,-243,10,78,12,-18
4980,2,-249,10,79,12,-18
4985,1,-251,13,80,12,-19
4990,0,-252,10,80,10,-21
4995,-2,-253,9,81,10,-22
5000,-1,-247,15,82,9,-24
5005,0,-250,11,87,10,-25
5010,0,-249,11,90,10,-25
5015,0,-247,9,92,10,-25
5020,1,-250,13,94,11,-25
5025,-2,-245,11,96,12,-27
5030,1,-244,9,95,12,-27
5035,1,-248,11,94,15,-26
5040,0,-246,13,90,15,-25
5045,2,-243,13,86,15,-24
5050,0,-241,12,83,16,-24
5055,-1,-244,9,78,15,-24
5060,1,-246,12,72,15,-23
5065,3,-249,11,67,12,-23
5070,1,-244,11,62,9,-21
5075,1,-246,12,58,8,-21
5080,1,-248,6,55,6,-20
5085,1,-250,11,51,4,-19
5090,1,-243,6,48,3,-19
5095,0,-244,8,46,2,-18
5100,-1,-249,9,44,1,-19
5105,-1,-245,10,42,2,-18
5110,-1,-247,7,41,2,-19
5115,1,-250,8,39,2,-18
5120,1,-247,8,40,2,-16
5125,-1,-249,9,40,3,-15
5130,0,-249,10,41,5,-15
5135,1,-251,6,44,7,-14
5140,0,-245,11,47,7,-13
5145,1,-251,8,51,8,-13
5150,0,-245,12,52,7,-13
5155,-2,-248,9,53,8,-15
5160,0,-247,11,51,6,-14
5165,0,-247,6,49,7,-14
5170,1,-247,10,45,7,-14
5175,0,-250,2,42,7,-12
5180,0,-249,11,41,8,-11
5185,2,-249,6,41,9,-11
5190,0,-249,10,39,8,-11
5195,1,-249,6,41,10,-10
5200,1,-250,12,42,11,-11
5205,5,-252,8,42,10,-10
5210,3,-253,14,44,10,-9
5215,2,-250,13,45,10,-8
5220,1,-251,12,46,7,-6
5225,2,-249,11,46,5,-7
5230,1,-251,8,48,4,-10
5235,1,-250,8,51,3,-9
5240,2,-249,7,52,2,-10
5245,1,-245,10,55,2,-10
5250,2,-246,10,56,3,-9
5255,1,-243,12,58,4,-11
5260,6,-248,10,58,4,-9
5265,1,-248,10,58,5,-9
5270,0,-245,14,59,6,-10
5275,0,-246,9,59,7,-10
5280,2,-249,11,58,9,-9
5285,0,-248,9,57,9,-11
5290,0,-245,10,57,11,-11
5295,2,-251,12,58,11,-12
5300,1,-248,11,57,11,-11
5305,0,-247,9,56,14,-11
5310,0,-246,11,55,14,-12
5315,0,-251,3,55,15,-13
5320,1,-251,14,56,17,-13
5325,0,-251,11,60,18,-13
5330,1,-251,11,62,18,-14
5335,2,-251,12,63,20,-14
5340,0,-252,9,65,19,-12
5345,1,-252,12,67,17,-12
5350,2,-250,9,68,17,-11
5355,0,-247,9,69,15,-11
5360,1,-248,18,68,15,-10
5365,0,-246,11,65,14,-10
5370,-5,-243,3,62,14,-9
5375,0,-250,12,62,14,-10
5380,1,-249,13,61,14,-9
5385,0,-249,10,64,13,-9
5390,1,-249,9,69,13,-9
5395,1,-251,9,73,14,-7
5400,3,-249,9,77,15,-8
5405,1,-246,5,77,14,-5
5410,2,-247,7,76,16,-7
5415,2,-247,5,74,16,-7
5420,0,-250,6,71,16,-8
5425,2,-246,5,69,15,-10
5430,1,-244,10,68,15,-12
5435,3,-248,12,70,15,-13
5440,0,-245,10,70,15,-14
5445,2,-247,11,69,14,-14
5450,-1,-249,16,67,15,-14
5455,2,-248,17,65,18,-15
5460,-1,-246,11,62,21,-15
5465,2,-247,18,61,22,-15
5470,0,-248,16,58,25,-15
5475,1,-245,16,58,26,-14
5480,0,-248,15,57,26,-16
5485,0,-247,11,58,25,-13
5490,3,-249,11,58,23,-13
5495,1,-253,16,60,21,-13
5500,0,-252,18,61,19,-12
5505,0,-250,14,63,17,-11
5510,1,-247,12,64,16,-12
5515,2,-248,12,66,15,-11
5520,0,-249,13,67,15,-12
5525,0,-249,11,69,15,-11
5530,8,-247,14,70,14,-11
5535,0,-247,9,70,15,-13
5540,1,-248,14,68,15,-12
5545,-1,-248,12,67,15,-11
5550,1,-248,12,67,17,-11
5555,0,-248,14,65,17,-13
5560,1,-247,9,66,18,-13
5565,-2,-249,9,65,18,-12
5570,0,-246,13,67,17,-14
5575,2,-247,10,67,19,-12
5580,2,-244,12,68,19,-12
5585,3,-249,10,66,19,-12
5590,2,-250,12,64,21,-12
5595,3,-252,13,65,22,-13
5600,1,-247,11,67,24,-12
5605,0,-247,9,69,24,-10
5610,0,-252,12,72,23,-11
5615,3,-250,15,74,21,-9
5620,3,-249,13,78,21,-10
5625,1,-251,17,78,18,-10
5630,0,-252,12,79,18,-8
5635,5,-247,12,78,16,-10
5640,2,-247,11,76,15,-11
5645,1,-250,15,74,14,-11
5650,3,-251,12,70,14,-11
5655,0,-247,16,69,13,-11
5660,1,-245,13,67,13,-12
5665,0,-247,6,66,14,-12
5670,0,-247,12,65,13,-12
5675,-2,-250,11,66,12,-15
5680,-1,-250,13,68,11,-16
5685,-1,-251,11,68,10,-15
5690,-3,-243,7,67,10,-16
5695,0,-247,11,65,10,-18
5700,1,-250,14,63,11,-18
5705,0,-248,14,63,11,-17
5710,-2,-245,9,61,11,-16
5715,-1,-246,7,61,11,-15
5720,-1,-250,12,62,12,-14
5725,0,-250,11,66,13,-12
5730,1,-247,11,66,12,-14
5735,1,-246,15,65,13,-14
5740,3,-255,8,67,14,-13
5745,0,-248,9,69,15,-11
5750,-2,-248,10,70,14,-11
5755,0,-247,10,70,14,-9
5760,2,-248,12,69,15,-8
5765,0,-245,12,69,17,-8
5770,0,-246,15,68,17,-9
5775,1,-248,11,66,17,-8
5780,2,-253,15,63,20,-8
5785,3,-249,10,59,19,-8
5790,4,-249,12,56,19,-8
5795,3,-253,7,53,18,-9
5800,1,-248,13,52,17,-11
5805,1,-243,10,50,15,-10
5810,1,-248,15,48,14,-10
5815,1,-247,14,48,11,-10
5820,2,-248,11,49,10,-11
5825,1,-249,11,49,9,-10
5830,0,-245,12,48,8,-9
5835,4,-251,11,47,9,-6
5840,1,-251,11,46,8,-6
5845,0,-247,14,47,7,-6
5850,2,-251,6,45,8,-6
5855,2,-247,13,46,10,-6
5860,1,-245,10,45,10,-4
5865,1,-250,12,47,13,-5
5870,2,-249,8,47,12,-5
5875,-2,-247,15,46,14,-6
5880,2,-251,13,46,15,-6
5885,1,-248,14,46,15,-6
5890,1,-246,9,44,15,-7
5895,1,-250,10,43,17,-5
5900,3,-250,16,40,17,-5
5905,0,-249,13,38,17,-5
5910,0,-246,10,36,17,-7
5915,1,-249,11,36,17,-5
5920,0,-246,11,36,18,-5
5925,0,-250,12,36,20,-6
5930,0,-246,15,37,19,-6
5935,-1,-249,13,37,21,-4
5940,-1,-247,13,38,22,-5
5945,1,-251,10,39,21,-3
5950,0,-251,13,42,19,-4
5955,-1,-251,15,46,19,-4
5960,1,-250,10,48,17,-4
5965,4,-253,9,50,17,-1
5970,1,-249,8,49,16,0
5975,1,-247,12,47,15,0
5980,0,-246,11,45,16,-1
5985,0,-245,10,41,15,-4
5990,0,-246,11,39,13,-5
5995,0,-246,15,39,13,-5
6000,-1,-244,15,42,12,-9
6005,1,-247,20,44,11,-11
6010,2,-247,14,46,13,-10
6015,2,-248,14,49,14,-13
6020,1,-252,16,50,14,-9
6025,0,-248,15,48,15,-10
6030,0,-252,14,48,16,-9
6035,1,-248,15,49,16,-10
6040,-2,-251,15,50,16,-10
6045,0,-248,11,51,14,-10
6050,-3,-249,16,52,14,-10
6055,-3,-246,9,50,12,-9
6060,-1,-249,7,50,11,-9
6065,0,-250,11,50,11,-8
6070,0,-251,8,50,13,-6
6075,0,-248,11,51,14,-5
6080,1,-248,10,54,17,-5
6085,0,-250,14,54,18,-4
6090,0,-247,8,52,21,-6
6095,-1,-251,8,50,23,-5
6100,0,-247,8,47,24,-5
6105,0,-251,11,46,25,-4
6110,1,-248,14,41,23,0
6115,-3,-255,15,32,18,2
6120,1,-251,10,17,15,6
6125,-3,-251,12,0,8,12
6130,-1,-252,19,-18,1,15
6135,-5,-257,19,-27,-5,21
6140,-5,-256,16,-31,-11,32
6145,-8,-256,20,-25,-15,44
6150,-7,-260,18,-19,-10,62
6155,-11,-261,14,-10,3,76
6160,-13,-263,12,0,23,89
6165,-10,-263,4,13,50,101
6170,-11,-258,3,24,82,110
6175,-6,-265,3,27,112,120
6180,-6,-264,6,19,139,135
6185,-11,-261,4,-1,161,152
6190,-16,-259,2,-37,178,162
6195,-17,-254,-3,-87,187,164
6200,-16,-249,-11,-151,196,156
6205,-13,-240,-25,-226,206,143
6210,-11,-236,-41,-311,221,132
6215,-6,-226,-49,-400,233,122
6220,0,-223,-47,-481,235,109
6225,-1,-225,-37,-543,223,97
6230,0,-224,-29,-585,196,86
6235,0,-223,-22,-612,165,72
6240,0,-227,-16,-621,148,62
6245,1,-229,-8,-612,142,55
6250,1,-226,0,-585,142,49
6255,2,-233,12,-548,140,50
6260,-3,-233,20,-511,133,51
6265,-2,-235,27,-475,116,55
6270,2,-233,28,-437,95,61
6275,4,-236,30,-401,70,73
6280,1,-233,33,-378,44,86
6285,-5,-232,26,-371,16,103
6290,-2,-226,26,-385,-16,119
6295,-6,-231,20,-414,-39,134
6300,-5,-241,29,-451,-56,147
6305,-5,-230,25,-485,-72,153
6310,-5,-223,28,-516,-88,159
6315,1,-223,31,-533,-98,167
6320,2,-225,15,-551,-104,177
6325,-1,-215,17,-573,-106,190
6330,2,-223,9,-596,-100,197
6335,5,-210,6,-625,-94,203
6340,5,-219,10,-668,-85,206
6345,10,-220,9,-718,-77,206
6350,13,-229,-11,-762,-70,206
6355,14,-221,-10,-796,-62,204
6360,14,-229,-14,-814,-53,204
6365,14,-222,-22,-823,-42,207
6370,18,-221,-25,-838,-31,213
6375,25,-217,-31,-867,-19,223
6380,13,-220,-39,-916,0,235
6385,24,-209,-36,-980,18,236
6390,8,-221,-32,-1053,39,232
6395,15,-223,-28,-1121,61,232
6400,23,-226,-32,-1181,73,237
6405,17,-237,-30,-1235,90,260
6410,21,-248,-12,-1293,100,281
6415,16,-265,-15,-1366,118,297
6420,17,-280,-6,-1465,131,294
6425,12,-303,-4,-1586,132,271
6430,11,-315,14,-1720,114,239
6435,2,-325,17,-1863,85,202
6440,-3,-346,11,-2004,61,180
6445,-22,-357,7,-2107,41,163
6450,-22,-367,0,-2149,25,147
6455,-21,-366,-13,-2122,18,129
6460,-7,-351,-18,-2035,5,106
6465,-21,-336,-34,-1919,-12,67
6470,-31,-320,-45,-1793,-44,29
6475,-27,-283,-64,-1672,-73,5
6480,-18,-250,-76,-1567,-92,2
6485,3,-222,-95,-1492,-99,32
6490,5,-210,-105,-1454,-101,95
6495,15,-209,-102,-1440,-103,187
6500,8,-227,-82,-1442,-113,265
6505,-10,-248,-63,-1450,-119,301
6510,-20,-259,-58,-1461,-104,296
6515,-49,-270,-53,-1466,-64,267
6520,-56,-277,-77,-1474,-9,235
6525,-53,-285,-107,-1492,43,210
6530,-46,-306,-125,-1516,76,199
6535,-41,-329,-129,-1532,66,189
6540,-30,-349,-128,-1524,19,181
6545,-27,-366,-115,-1496,-51,179
6550,-28,-373,-98,-1452,-123,176
6555,-36,-376,-87,-1405,-183,173
6560,-35,-382,-79,-1370,-214,169
6565,-30,-382,-74,-1340,-218,168
6570,-22,-378,-80,-1302,-211,168
6575,-14,-363,-84,-1240,-198,175
6580,-13,-356,-99,-1162,-189,181
6585,-11,-352,-105,-1074,-179,181
6590,-15,-341,-125,-991,-170,175
6595,-17,-339,-139,-911,-164,161
6600,-28,-324,-157,-836,-166,147
6605,-33,-316,-168,-770,-176,133
6610,-32,-305,-172,-718,-187,123
6615,-31,-286,-178,-680,-199,121
6620,-30,-276,-186,-651,-214,123
6625,-30,-268,-191,-636,-227,129
6630,-32,-270,-195,-633,-230,135
6635,-32,-271,-193,-628,-226,134
6640,-32,-273,-194,-613,-212,124
6645,-35,-271,-196,-588,-195,107
6650,-41,-273,-193,-562,-173,86
6655,-45,-273,-192,-537,-154,72
6660,-48,-268,-193,-524,-143,62
6665,-54,-268,-194,-520,-139,60
6670,-58,-274,-187,-517,-140,64
6675,-59,-272,-180,-511,-147,73
6680,-55,-269,-182,-496,-157,81
6685,-57,-265,-176,-482,-167,89
6690,-58,-263,-177,-470,-174,86
6695,-63,-267,-174,-467,-174,79
6700,-61,-273,-181,-466,-169,74
6705,-62,-277,-179,-452,-162,71
6710,-61,-266,-173,-419,-158,73
6715,-57,-260,-175,-374,-154,86
6720,-59,-258,-172,-317,-152,103
6725,-59,-255,-170,-264,-152,125
6730,-59,-251,-171,-210,-145,143
6735,-56,-251,-178,-161,-121,155
6740,-59,-255,-184,-117,-94,162
6745,-57,-257,-192,-76,-63,170
6750,-57,-260,-197,-33,-27,178
6755,-66,-259,-199,13,9,185
6760,-61,-255,-207,39,43,195
6765,-60,-246,-205,49,74,207
6770,-58,-247,-201,43,93,216
6775,-54,-238,-196,24,102,230
6780,-53,-238,-193,2,101,245
6785,-48,-237,-185,-13,95,255
6790,-50,-238,-174,-20,81,261
6795,-50,-239,-175,-18,64,262
6800,-52,-241,-171,-3,49,256
6805,-50,-243,-165,19,37,249
6810,-49,-237,-160,48,27,250
6815,-44,-242,-156,82,25,255
6820,-44,-242,-156,113,40,259
6825,-42,-240,-146,134,58,262
6830,-40,-242,-144,145,75,257
6835,-35,-240,-138,144,93,252
6840,-31,-241,-137,138,110,244
6845,-30,-238,-130,128,128,230
6850,-27,-236,-127,122,138,216
6855,-23,-232,-122,121,150,198
6860,-22,-228,-120,123,156,177
6865,-16,-225,-110,127,157,154
6870,-11,-221,-111,131,163,130
6875,-10,-211,-102,128,177,101
6880,-10,-212,-104,112,188,75
6885,-7,-205,-100,97,190,52
6890,-14,-201,-97,89,196,25
6895,-13,-199,-92,87,205,1
6900,-14,-199,-87,101,210,-23
6905,-15,-195,-90,140,213,-45
6910,-21,-186,-86,184,217,-65
6915,-20,-186,-85,233,221,-82
6920,-20,-182,-73,287,222,-103
6925,-24,-177,-78,338,229,-123
6930,-21,-171,-79,384,239,-135
6935,-21,-172,-72,420,253,-136
6940,-25,-167,-80,451,265,-136
6945,-24,-163,-72,474,272,-132
6950,-27,-157,-75,487,276,-123
6955,-24,-155,-71,494,282,-111
6960,-29,-154,-69,497,286,-100
6965,-25,-156,-67,504,289,-93
6970,-22,-155,-66,516,287,-83
6975,-20,-154,-65,526,282,-73
6980,-22,-149,-67,536,279,-66
6985,-22,-147,-65,550,277,-65
6990,-21,-146,-65,565,283,-70
6995,-21,-146,-64,583,289,-74
7000,-20,-145,-66,606,294,-79
7005,-20,-141,-66,632,294,-84
7010,-19,-142,-65,656,290,-89
7015,-19,-138,-64,674,277,-93
7020,-24,-134,-63,689,258,-97
7025,-14,-143,-65,704,234,-99
7030,-24,-137,-66,721,211,-104
7035,-23,-135,-64,737,193,-105
7040,-24,-137,-69,746,177,-107
7045,-24,-138,-67,752,165,-105
7050,-25,-140,-73,756,151,-104
7055,-27,-141,-73,761,139,-98
7060,-27,-144,-74,765,125,-92
7065,-30,-145,-77,769,112,-91
7070,-30,-150,-85,781,96,-93
7075,-37,-146,-79,792,78,-94
7080,-38,-160,-89,812,58,-95
7085,-39,-157,-80,836,40,-96
7090,-39,-156,-83,864,19,-96
7095,-39,-155,-85,884,5,-97
7100,-38,-159,-91,896,-3,-95
7105,-40,-159,-95,906,-8,-96
7110,-36,-161,-93,918,-17,-94
7115,-36,-165,-97,927,-26,-94
7120,-34,-166,-94,930,-33,-97
7125,-37,-168,-99,925,-36,-100
7130,-36,-174,-97,915,-37,-100
7135,-35,-174,-98,904,-39,-102
7140,-30,-175,-97,889,-38,-103
7145,-32,-172,-92,875,-34,-102
7150,-31,-175,-95,865,-31,-98
7155,-34,-178,-91,856,-34,-96
7160,-33,-178,-94,850,-43,-93
7165,-30,-181,-91,845,-56,-92
7170,-28,-183,-98,843,-63,-90
7175,-23,-183,-97,841,-60,-89
7180,-22,-186,-99,839,-44,-89
7185,-19,-183,-103,831,-21,-90
7190,-19,-188,-102,829,4,-93
7195,-11,-185,-103,830,32,-96
7200,-15,-187,-102,828,60,-97
7205,-10,-186,-99,820,81,-98
7210,-12,-188,-100,806,98,-96
7215,-8,-191,-95,787,113,-95
7220,-11,-195,-95,770,124,-97
7225,-12,-195,-98,758,132,-100
7230,-9,-203,-98,752,136,-99
7235,-10,-202,-99,750,145,-103
7240,-7,-202,-100,750,158,-104
7245,-5,-206,-94,747,178,-105
7250,-5,-202,-104,740,199,-112
7255,-2,-205,-106,725,219,-120
7260,-4,-206,-101,711,236,-129
7265,-10,-204,-97,697,253,-139
7270,-15,-208,-93,680,264,-146
7275,-18,-211,-92,662,269,-148
7280,-22,-213,-86,648,267,-152
7285,-23,-216,-81,639,258,-156
7290,-24,-218,-83,636,247,-158
7295,-24,-217,-84,638,236,-160
7300,-31,-216,-84,646,229,-163
7305,-22,-215,-88,654,225,-161
7310,-26,-213,-87,659,224,-161
7315,-28,-205,-88,663,221,-161
7320,-29,-205,-84,662,216,-163
7325,-28,-206,-80,653,212,-163
7330,-29,-202,-78,641,203,-162
7335,-34,-201,-73,631,194,-159
7340,-32,-203,-77,619,182,-155
7345,-30,-205,-71,605,172,-154
7350,-31,-206,-76,596,161,-153
7355,-32,-202,-69,588,150,-148
7360,-30,-205,-73,574,143,-143
7365,-33,-204,-73,552,138,-137
7370,-32,-204,-84,526,130,-135
7375,-30,-204,-74,494,123,-136
7380,-29,-205,-74,470,115,-134
7385,-29,-208,-71,455,110,-128
7390,-24,-209,-77,444,108,-126
7395,-26,-212,-74,430,106,-121
7400,-30,-209,-69,423,95,-115
7405,-28,-211,-73,422,78,-109
7410,-26,-216,-66,417,62,-103
7415,-28,-218,-65,403,49,-96
7420,-27,-222,-66,383,37,-92
7425,-29,-218,-62,371,21,-87
7430,-26,-228,-64,368,7,-82
7435,-23,-231,-62,370,-4,-77
7440,-28,-230,-59,368,-10,-73
7445,-29,-232,-63,364,-17,-66
7450,-31,-233,-63,355,-25,-59
7455,-23,-233,-61,343,-32,-52
7460,-25,-239,-59,336,-37,-46
7465,-17,-232,-64,331,-41,-40
7470,-22,-232,-59,324,-40,-37
7475,-21,-234,-59,316,-36,-34
7480,-20,-235,-59,310,-32,-29
7485,-18,-238,-60,302,-30,-26
7490,-21,-234,-56,286,-28,-26
7495,-21,-237,-57,267,-26,-25
7500,-15,-239,-56,257,-27,-24
7505,-21,-232,-56,248,-27,-23
7510,-17,-235,-58,238,-26,-19
7515,-26,-228,-56,223,-27,-17
7520,-15,-236,-54,207,-25,-13
7525,-19,-234,-55,196,-22,-12
7530,-15,-238,-49,184,-19,-10
7535,-14,-235,-52,174,-15,-8
7540,-17,-234,-49,161,-7,-10
7545,-17,-235,-52,153,-2,-11
7550,-15,-235,-47,146,5,-12
7555,-15,-239,-48,142,7,-15
7560,-21,-236,-51,141,9,-15
7565,-18,-236,-48,142,11,-13
7570,-15,-239,-45,143,11,-17
7575,-14,-239,-46,143,15,-19
7580,-15,-237,-47,143,19,-23
7585,-10,-240,-49,142,24,-26
7590,-12,-239,-45,137,28,-27
7595,-15,-239,-45,132,33,-31
7600,-14,-241,-39,125,35,-35
7605,-11,-243,-38,122,38,-39
7610,-12,-242,-39,121,39,-43
7615,-13,-242,-44,123,43,-46
7620,-10,-244,-43,127,44,-49
7625,-10,-244,-45,131,45,-51
7630,-12,-244,-42,137,45,-52
7635,-12,-244,-43,141,46,-52
7640,-11,-242,-43,145,45,-55
7645,-10,-244,-43,145,45,-58
7650,-11,-238,-44,143,45,-59
7655,-11,-241,-41,142,48,-60
7660,-11,-241,-41,139,48,-60
7665,-12,-242,-40,136,48,-58
7670,-9,-244,-44,132,47,-58
7675,-12,-243,-48,130,42,-59
7680,-8,-245,-46,137,38,-59
7685,-14,-243,-43,144,34,-56
7690,-11,-242,-51,148,31,-56
7695,-12,-239,-43,142,31,-55
7700,-10,-236,-43,136,32,-54
7705,-9,-239,-42,138,31,-50
7710,-7,-242,-38,138,31,-49
7715,-10,-242,-33,135,32,-46
7720,-10,-241,-40,133,33,-44
7725,-10,-241,-39,118,34,-43
7730,-6,-246,-33,115,31,-39
7735,-17,-247,-41,123,29,-39
7740,-6,-247,-39,128,30,-35
7745,-9,-243,-37,133,32,-33
7750,-6,-244,-40,138,33,-32
7755,-7,-241,-34,142,34,-32
7760,-3,-242,-41,147,33,-32
7765,-10,-246,-36,152,32,-34
7770,-12,-248,-36,157,33,-33
7775,-6,-246,-34,159,28,-31
7780,-11,-248,-35,160,26,-30
7785,-9,-246,-34,160,27,-32
7790,-13,-243,-43,161,28,-34
7795,-13,-245,-40,160,31,-30
7800,-11,-247,-41,159,34,-31
7805,-10,-249,-40,161,34,-33
7810,-9,-247,-40,165,34,-33
7815,-8,-248,-40,170,34,-32
7820,-11,-246,-45,168,36,-33
7825,-10,-244,-41,163,36,-35
7830,-14,-245,-34,169,34,-30
7835,-8,-245,-41,177,33,-30
7840,-11,-247,-43,182,33,-29
7845,-10,-245,-39,186,34,-27
7850,-12,-243,-39,186,33,-27
7855,-11,-244,-36,190,34,-24
7860,-12,-241,-41,192,34,-23
7865,-12,-239,-38,192,34,-23
7870,-11,-244,-39,190,35,-20
7875,-12,-243,-34,187,38,-16
7880,-12,-241,-40,185,41,-15
7885,-12,-239,-39,186,43,-12
7890,-10,-241,-41,186,46,-7
7895,-13,-243,-42,181,50,-6
7900,-8,-241,-41,173,53,-6
7905,-10,-243,-40,162,58,-5
7910,-10,-242,-33,142,64,-6
7915,-11,-243,-37,145,61,-2
7920,-9,-245,-37,160,58,-2
7925,-13,-241,-41,168,58,-2
7930,-11,-241,-38,168,58,-2
7935,-12,-241,-37,163,58,0
7940,-9,-242,-38,154,57,-1
7945,-14,-240,-45,145,59,-3
7950,-17,-239,-43,136,58,-5
7955,-14,-243,-42,126,58,-5
7960,-11,-244,-39,117,58,-7
7965,-11,-245,-39,109,61,-5
7970,-11,-241,-37,105,63,-9
7975,-11,-248,-39,102,65,-10
7980,-10,-245,-41,100,66,-8
7985,-9,-244,-34,99,67,-10
7990,-14,-242,-42,97,69,-10
7995,-8,-244,-39,94,69,-10
8000,-11,-242,-37,89,69,-10
8005,-11,-245,-38,84,70,-13
8010,-4,-249,-36,79,71,-14
8015,-10,-249,-43,77,72,-15
8020,-8,-244,-36,74,72,-14
8025,-5,-246,-35,70,71,-14
8030,-10,-245,-35,71,71,-15
8035,-7,-241,-35,67,71,-16
8040,-6,-245,-35,64,72,-13
8045,-8,-244,-29,57,71,-12
8050,-6,-242,-34,51,70,-11
8055,-3,-243,-29,45,71,-10
8060,-10,-245,-32,40,69,-10
8065,-8,-241,-36,39,67,-12
8070,-10,-243,-35,37,66,-12
8075,-10,-245,-34,34,63,-13
8080,-12,-244,-33,33,62,-15
8085,-10,-246,-36,30,61,-16
8090,-14,-247,-33,29,61,-18
8095,-11,-246,-36,27,58,-21
8100,-11,-248,-37,27,57,-22
8105,-11,-249,-42,29,56,-21
8110,-11,-248,-29,30,56,-22
8115,-14,-245,-33,31,54,-21
8120,-13,-245,-33,32,54,-22
8125,-13,-248,-37,35,52,-20
8130,-12,-248,-36,38,54,-18
8135,-11,-248,-33,41,54,-19
8140,-10,-246,-32,42,53,-20
8145,-13,-246,-33,46,52,-20
8150,-10,-248,-31,48,50,-20
8155,-11,-245,-39,49,48,-20
8160,-12,-243,-39,51,47,-19
8165,-8,-244,-42,52,46,-19
8170,-9,-247,-36,51,45,-16
8175,-10,-246,-38,49,45,-17
8180,-11,-244,-33,49,45,-15
8185,-11,-246,-35,45,42,-15
8190,-11,-245,-36,44,43,-15
8195,-12,-246,-38,42,43,-15
8200,-7,-252,-33,40,44,-16
8205,-11,-245,-33,38,46,-17
8210,-7,-248,-37,38,47,-18
8215,-15,-246,-37,35,47,-16
8220,-12,-245,-33,35,47,-16
8225,-11,-247,-36,33,47,-16
8230,-11,-244,-30,34,44,-14
8235,-10,-244,-25,32,43,-14
8240,-10,-245,-30,31,40,-13
8245,-10,-247,-32,32,38,-12
8250,-10,-244,-38,33,36,-13
8255,-13,-246,-36,36,36,-12
8260,-8,-246,-34,39,37,-10
8265,-7,-243,-35,39,40,-9
8270,-4,-248,-30,39,42,-10
8275,-9,-245,-40,35,45,-9
8280,-6,-247,-31,30,47,-9
8285,-6,-248,-33,26,48,-9
8290,-8,-246,-28,23,50,-9
8295,-10,-245,-28,23,53,-9
8300,-3,-249,-32,26,55,-10
8305,-8,-249,-28,28,55,-9
8310,-11,-248,-27,30,57,-9
8315,-8,-247,-29,31,62,-8
8320,-3,-249,-28,32,64,-10
8325,-3,-243,-34,31,67,-9
8330,-10,-244,-26,27,69,-9
8335,-7,-247,-28,25,72,-9
8340,-11,-244,-26,22,74,-9
8345,-4,-249,-28,21,75,-10
8350,-13,-248,-28,21,76,-11
8355,-7,-247,-31,22,78,-13
8360,-9,-246,-29,24,77,-12
8365,-9,-246,-32,26,76,-12
8370,-10,-246,-28,27,75,-12
8375,-5,-249,-31,26,75,-13
8380,-8,-248,-31,24,73,-13
8385,-6,-246,-33,22,75,-13
8390,-10,-246,-32,20,76,-12
8395,-10,-246,-27,19,76,-12
8400,-9,-248,-31,21,76,-9
8405,-6,-248,-33,23,76,-9
8410,-11,-249,-31,25,76,-10
8415,-11,-245,-36,24,77,-8
8420,-12,-245,-33,24,78,-9
8425,-9,-249,-31,25,79,-7
8430,-11,-249,-30,26,80,-6
8435,-10,-247,-30,27,79,-6
8440,-12,-246,-30,28,77,-6
8445,-9,-247,-34,28,74,-6
8450,-10,-248,-31,27,73,-5
8455,-11,-247,-32,25,73,-7
8460,-8,-246,-35,22,74,-9
8465,-10,-246,-28,21,76,-9
8470,-12,-247,-31,19,79,-11
8475,-12,-247,-29,21,81,-10
8480,-10,-247,-30,24,81,-9
8485,-12,-251,-29,27,81,-9
8490,-10,-248,-31,31,80,-10
8495,-13,-244,-33,36,78,-9
8500,-9,-244,-31,39,75,-10
8505,-8,-249,-31,41,72,-8
8510,-11,-243,-34,42,70,-9
8515,-12,-249,-31,39,67,-9
8520,-13,-246,-33,38,67,-10
8525,-11,-247,-35,38,65,-10
8530,-11,-247,-32,37,63,-12
8535,-13,-248,-30,38,61,-10
8540,-11,-245,-33,38,60,-9
8545,-9,-246,-36,40,59,-9
8550,-11,-249,-29,42,58,-9
8555,-10,-246,-29,45,58,-9
8560,-11,-249,-35,49,56,-10
8565,-12,-247,-31,51,56,-9
8570,-12,-247,-37,55,53,-9
8575,-15,-245,-30,56,50,-10
8580,-11,-245,-39,56,49,-8
8585,-13,-247,-35,56,47,-8
8590,-12,-247,-34,56,46,-7
8595,-10,-246,-33,56,46,-7
8600,-11,-245,-30,57,46,-7
8605,-10,-248,-33,56,44,-7
8610,-15,-245,-37,57,43,-10
8615,-13,-246,-34,58,41,-9
8620,-11,-246,-34,59,38,-7
8625,-12,-246,-34,62,35,-8
8630,-13,-248,-30,63,34,-8
8635,-12,-246,-34,63,34,-9
8640,-12,-246,-32,63,33,-9
8645,-9,-246,-32,63,31,-8
8650,-26,-243,-39,63,29,-10
8655,-11,-247,-35,63,27,-10
8660,-10,-247,-31,65,24,-10
8665,-11,-246,-33,67,22,-10
8670,-12,-246,-34,68,20,-10
8675,-13,-246,-36,70,18,-9
8680,-12,-246,-34,70,15,-10
8685,-14,-243,-32,70,14,-9
8690,-15,-248,-33,70,12,-9
8695,-10,-248,-30,69,12,-8
8700,-13,-244,-33,67,11,-9
8705,-8,-245,-35,65,9,-6
8710,-12,-241,-32,64,8,-7
8715,-9,-247,-29,63,7,-7
8720,-14,-243,-32,62,8,-7
8725,-12,-243,-30,60,9,-7
8730,-11,-241,-34,59,9,-6
8735,-15,-244,-36,57,8,-7
8740,-11,-244,-34,54,7,-6
8745,-11,-244,-35,48,5,-8
8750,-12,-245,-40,45,3,-9
8755,-9,-246,-33,41,2,-8
8760,-11,-245,-33,39,0,-8
8765,-11,-242,-35,39,-2,-7
8770,-12,-244,-37,41,-3,-9
8775,-9,-244,-30,42,-2,-8
8780,-8,-247,-38,43,-1,-8
8785,-10,-245,-31,42,-1,-7
8790,-12,-243,-33,40,-1,-7
8795,-8,-246,-36,38,-2,-6
8800,-12,-246,-35,34,-3,-6
8805,-11,-240,-29,33,-4,-8
8810,-10,-250,-31,34,-8,-6
8815,-9,-250,-31,37,-9,-8
8820,-11,-246,-32,44,-11,-7
8825,-10,-249,-34,51,-12,-8
8830,-10,-247,-41,57,-11,-9
8835,-10,-249,-34,63,-8,-11
8840,-5,-247,-35,65,-7,-11
8845,-11,-243,-38,64,-5,-11
8850,-10,-243,-37,64,-4,-11
8855,-14,-249,-36,61,-3,-12
8860,-10,-245,-35,58,-5,-14
8865,-9,-247,-29,55,-8,-12
8870,-9,-245,-34,56,-9,-12
8875,-12,-247,-33,55,-9,-12
8880,-10,-248,-32,56,-7,-11
8885,-12,-246,-35,59,-6,-11
8890,-11,-246,-36,62,-5,-13
8895,-8,-247,-34,66,-4,-11
8900,-7,-242,-34,70,-4,-11
8905,-14,-245,-33,71,-4,-11
8910,-7,-250,-28,72,-4,-14
8915,-13,-246,-33,70,-6,-14
8920,-13,-248,-32,68,-7,-14
8925,-11,-246,-33,66,-10,-13
8930,-12,-244,-32,65,-13,-13
8935,-11,-246,-34,64,-15,-12
8940,-12,-245,-34,63,-16,-11
8945,-9,-247,-33,63,-17,-12
8950,-7,-247,-35,64,-18,-11
8955,-12,-247,-33,63,-15,-11
8960,-8,-250,-36,64,-15,-11
8965,-5,-245,-32,63,-16,-9
8970,-10,-245,-35,62,-15,-10
8975,-11,-248,-33,60,-15,-9
8980,-11,-245,-33,61,-14,-9
8985,-12,-246,-30,60,-14,-9
8990,-12,-245,-36,61,-14,-9
8995,-6,-248,-32,61,-14,-8
9000,-11,-242,-34,60,-12,-7
9005,-9,-245,-31,60,-11,-7
9010,-10,-245,-36,60,-10,-7
9015,-9,-238,-33,58,-10,-6
9020,-11,-247,-35,57,-9,-7
9025,-10,-247,-34,57,-9,-8
9030,-12,-245,-34,58,-9,-7
9035,-10,-250,-29,58,-10,-9
9040,-10,-246,-35,59,-9,-9
9045,-8,-247,-34,60,-9,-10
9050,-12,-246,-37,62,-9,-10
9055,-14,-245,-34,62,-9,-10
9060,-8,-248,-33,62,-8,-8
9065,-9,-243,-36,62,-8,-5
9070,-15,-242,-36,61,-8,-8
9075,-14,-243,-34,59,-10,-8
9080,-12,-244,-30,57,-9,-9
9085,-13,-246,-34,56,-9,-8
9090,-11,-246,-30,53,-10,-7
9095,-12,-247,-31,52,-11,-8
9100,-12,-245,-35,51,-12,-8
9105,-13,-247,-33,52,-13,-9
9110,-12,-244,-33,55,-12,-10
9115,-9,-247,-29,57,-12,-9
9120,-11,-249,-31,60,-10,-11
9125,-15,-250,-31,61,-9,-11
9130,-13,-249,-33,61,-9,-9
9135,-13,-245,-32,60,-8,-10
9140,-12,-245,-32,60,-7,-10
9145,-11,-245,-33,60,-7,-10
9150,-12,-247,-34,60,-7,-8
9155,-12,-247,-36,60,-5,-9
9160,-13,-245,-33,59,-6,-9
9165,-12,-245,-34,59,-7,-10
9170,-10,-247,-33,58,-7,-8
9175,-10,-252,-32,59,-7,-9
9180,-12,-247,-30,60,-4,-7
9185,-11,-246,-35,60,-5,-9
9190,-10,-248,-34,62,-6,-7
9195,-9,-247,-34,63,-6,-5
9200,-10,-247,-30,65,-6,-8
9205,-10,-247,-32,66,-6,-6
9210,-12,-248,-28,66,-7,-7
9215,-14,-248,-32,66,-8,-6
9220,-10,-245,-33,65,-8,-4
9225,-12,-247,-31,64,-9,-5
9230,-12,-245,-35,64,-9,-6
9235,-11,-249,-31,64,-9,-6
9240,-7,-248,-32,63,-11,-5
9245,-10,-248,-31,62,-12,-5
9250,-14,-246,-32,62,-12,-5
9255,-12,-249,-30,61,-12,-5
9260,-8,-248,-32,61,-10,-6
9265,-11,-242,-31,61,-11,-7
9270,-10,-248,-33,60,-10,-7
9275,-12,-248,-33,60,-10,-7
9280,-11,-246,-36,56,-10,-6
9285,-11,-248,-34,53,-9,-8
9290,-12,-245,-33,51,-7,-8
9295,-11,-246,-31,52,-6,-8
9300,-10,-245,-34,52,-5,-7
9305,-8,-246,-31,53,-4,-7
9310,-9,-246,-31,55,-1,-7
9315,-12,-246,-34,57,-1,-7
9320,-10,-248,-32,58,-2,-8
9325,-6,-247,-28,59,-2,-7
9330,-8,-248,-30,59,-2,-8
9335,-8,-248,-35,59,-1,-8
9340,-12,-243,-32,58,0,-9
9345,-8,-247,-32,58,1,-8
9350,-11,-247,-30,55,1,-8
9355,-10,-247,-30,53,1,-7
9360,-13,-246,-34,53,2,-7
9365,-14,-247,-29,52,1,-9
9370,-12,-246,-28,50,0,-8
9375,-12,-244,-27,48,-1,-10
9380,-15,-247,-29,48,-5,-9
9385,-17,-245,-35,49,-8,-9
9390,-15,-246,-30,52,-11,-10
9395,-10,-248,-31,57,-12,-11
9400,-12,-247,-30,61,-12,-10
9405,-12,-245,-35,64,-13,-9
9410,-10,-244,-34,66,-13,-8
9415,-13,-243,-35,66,-12,-8
9420,-13,-245,-36,64,-11,-8
9425,-9,-248,-26,62,-11,-7
9430,-7,-243,-34,60,-11,-7
9435,-12,-248,-30,57,-12,-8
9440,-11,-247,-29,54,-12,-7
9445,-14,-233,-34,54,-11,-6
9450,-13,-246,-30,52,-9,-5
9455,-10,-246,-32,53,-6,-5
9460,-7,-250,-30,54,-3,-5
9465,-12,-246,-30,57,-1,-7
9470,-8,-246,-29,59,1,-7
9475,-8,-249,-29,62,1,-9
9480,-15,-248,-31,62,2,-10
9485,-13,-247,-31,62,1,-10
9490,-11,-246,-33,62,0,-10
9495,-11,-246,-26,60,0,-10
9500,-10,-248,-33,59,2,-10
9505,-12,-248,-29,55,1,-10
9510,-10,-246,-33,50,0,-11
9515,-11,-247,-33,48,-1,-11
9520,-11,-245,-32,47,-1,-8
9525,-10,-247,-33,44,0,-10
9530,-11,-246,-33,42,1,-9
9535,-7,-248,-31,41,1,-8
9540,-12,-245,-30,40,3,-9
9545,-8,-248,-35,42,4,-8
9550,-14,-252,-37,44,5,-9
9555,-13,-247,-34,48,6,-7
9560,-14,-247,-34,49,6,-9
9565,-10,-249,-34,51,7,-8
9570,-11,-247,-34,54,8,-6
9575,-12,-247,-36,54,10,-6
9580,-12,-244,-31,55,9,-5
9585,-9,-246,-32,55,10,-5
9590,-16,-242,-31,54,12,-5
9595,-13,-246,-33,54,14,-7
9600,-11,-244,-31,54,14,-7
9605,-12,-241,-30,54,14,-6
9610,-12,-248,-30,54,14,-7
9615,-11,-247,-33,54,15,-6
9620,-9,-246,-31,54,13,-9
9625,-13,-246,-31,54,15,-11
9630,-10,-246,-32,55,14,-11
9635,-11,-246,-33,56,11,-9
9640,-10,-244,-30,57,9,-10
9645,-12,-247,-32,57,8,-8
9650,-11,-246,-32,56,6,-10
9655,-13,-248,-33,56,6,-10
9660,-15,-243,-31,56,4,-9
9665,-10,-245,-30,54,3,-8
9670,-10,-243,-34,53,4,-6
9675,-12,-248,-30,53,3,-3
9680,-12,-243,-32,55,2,-4
9685,-13,-244,-32,56,1,-6
9690,-13,-245,-33,59,1,-4
9695,-9,-248,-33,58,-1,-4
9700,-12,-245,-31,60,0,-5
9705,-12,-243,-34,63,1,-7
9710,-14,-251,-41,64,2,-5
9715,-10,-244,-36,66,4,-6
9720,-12,-246,-32,66,3,-5
9725,-11,-248,-31,65,6,-6
9730,-9,-245,-30,62,8,-6
9735,-10,-250,-29,62,9,-5
9740,-13,-244,-33,59,9,-6
9745,-10,-243,-34,58,11,-7
9750,-6,-249,-36,58,12,-8
9755,-9,-249,-33,58,13,-8
9760,-10,-246,-35,57,12,-9
9765,-13,-244,-30,58,13,-8
9770,-12,-246,-31,60,14,-7
9775,-10,-249,-32,58,15,-7
9780,-9,-246,-34,58,16,-7
9785,-8,-248,-29,60,19,-8
9790,-8,-251,-35,62,19,-7
9795,-7,-247,-28,65,21,-8
9800,-10,-244,-34,67,22,-8
9805,-8,-248,-32,68,20,-9
9810,-9,-246,-27,67,21,-9
9815,-13,-246,-31,67,20,-10
9820,-10,-245,-32,66,19,-8
9825,-12,-245,-31,64,19,-9
9830,-10,-248,-34,62,19,-7
9835,-9,-245,-32,62,19,-5
9840,-12,-246,-28,60,19,-7
9845,-7,-248,-32,59,20,-6
9850,-8,-243,-34,59,20,-8
9855,-9,-245,-31,61,19,-8
9860,-13,-247,-27,61,20,-8
9865,-11,-246,-33,61,20,-8
9870,-19,-246,-29,59,18,-7
9875,-12,-249,-30,60,17,-8
9880,-11,-247,-30,62,16,-8
9885,-11,-247,-35,62,15,-9
9890,-13,-247,-32,64,15,-10
9895,-13,-245,-29,64,14,-10
9900,-12,-247,-32,66,13,-9
9905,-14,-249,-32,66,16,-10
9910,-12,-246,-32,66,13,-10
9915,-12,-246,-31,64,13,-10
9920,-14,-247,-30,61,13,-11
9925,-11,-253,-35,58,14,-10
9930,-12,-248,-31,60,14,-10
9935,-10,-247,-30,61,13,-9
9940,-12,-246,-28,58,14,-8
9945,-9,-246,-28,54,14,-8
9950,-10,-243,-32,50,13,-9
9955,-14,-244,-27,48,11,-9
9960,-14,-248,-33,48,7,-11
9965,-10,-246,-26,49,4,-12
9970,-10,-246,-32,55,1,-11
9975,-16,-246,-37,60,0,-12
9980,-11,-244,-36,61,3,-12
9985,-13,-242,-37,61,4,-12
9990,-11,-243,-35,57,5,-10
9995,-8,-246,-32,51,7,-10
10000,-9,-245,-32,46,9,-10
10005,-12,-246,-33,41,10,-10
10010,-10,-245,-31,37,11,-11
10015,-11,-248,-27,34,11,-12
10020,-9,-251,-32,32,10,-12
10025,-15,-245,-28,35,10,-12
10030,-10,-253,-28,38,11,-12
10035,-12,-248,-31,43,12,-11
10040,-11,-248,-27,47,14,-11
10045,-11,-248,-32,53,15,-12
10050,-13,-246,-24,56,16,-12
10055,-14,-248,-29,59,15,-13
10060,-11,-248,-32,59,14,-15
10065,-13,-245,-32,58,13,-14
10070,-12,-246,-32,56,12,-15
10075,-10,-249,-34,55,12,-14
10080,-11,-248,-29,50,12,-15
10085,-12,-241,-34,48,12,-14
10090,-11,-244,-31,46,11,-13
10095,-11,-247,-31,45,10,-9
10100,-12,-248,-33,41,9,-9
10105,-10,-245,-29,41,9,-9
10110,-13,-248,-29,42,6,-8
10115,-11,-245,-32,42,6,-9
10120,-10,-248,-31,42,6,-8
10125,-15,-248,-32,45,6,-10
10130,-10,-245,-29,47,7,-10
10135,-13,-246,-31,50,8,-10
10140,-17,-245,-34,52,10,-10
10145,-14,-244,-29,54,11,-7
10150,-10,-244,-29,56,12,-9
10155,-13,-246,-35,55,11,-10
10160,-10,-246,-34,53,11,-9
10165,-15,-244,-30,48,11,-12
10170,-14,-243,-32,44,13,-12
10175,-9,-249,-34,42,12,-10
10180,-13,-244,-31,39,13,-11
10185,-15,-244,-33,38,12,-11
10190,-12,-245,-31,39,11,-11
10195,-12,-245,-30,41,11,-12
10200,-16,-246,-31,42,11,-10
10205,-13,-251,-30,44,10,-9
10210,-9,-248,-31,44,8,-10
10215,-12,-246,-29,46,8,-12
10220,-14,-247,-33,45,6,-10
10225,-11,-245,-34,46,5,-10
10230,-12,-245,-33,49,5,-11
10235,-12,-247,-35,50,4,-13
10240,-9,-248,-28,49,4,-11
10245,-14,-245,-39,47,4,-11
10250,-12,-246,-32,46,2,-11
10255,-13,-243,-32,43,3,-11
10260,-15,-246,-32,44,4,-13
10265,-11,-249,-31,43,3,-12
10270,-14,-246,-32,42,5,-12
10275,-12,-248,-33,41,5,-12
10280,-12,-246,-32,41,5,-11
10285,-11,-245,-33,42,6,-13
10290,-15,-244,-28,41,6,-12
10295,-14,-245,-30,39,6,-13
10300,-11,-247,-28,38,6,-12
10305,-9,-246,-33,35,5,-10
10310,-14,-246,-29,33,4,-10
10315,-11,-246,-29,30,4,-11
10320,-9,-249,-28,30,4,-10
10325,-13,-249,-33,33,4,-11
10330,-15,-242,-34,36,5,-12
10335,-13,-249,-30,39,4,-12
10340,-13,-244,-31,40,6,-12
10345,-10,-245,-30,39,8,-13
10350,-12,-246,-33,38,8,-12
10355,-9,-250,-33,37,8,-12
10360,-11,-247,-32,36,7,-12
10365,-9,-247,-28,35,6,-12
10370,-10,-246,-30,35,5,-11
10375,-13,-245,-30,34,5,-11
10380,-11,-248,-35,35,5,-9
10385,-14,-242,-34,34,5,-9
10390,-11,-250,-31,35,6,-9
10395,-9,-247,-35,36,7,-9
10400,-10,-247,-36,35,8,-9
10405,-7,-249,-33,38,11,-9
10410,-8,-244,-30,41,11,-11
10415,-12,-245,-31,41,13,-12
10420,-14,-243,-30,42,14,-10
10425,-10,-244,-32,42,14,-10
10430,-11,-242,-35,41,14,-10
10435,-11,-246,-33,38,14,-10
10440,-10,-248,-31,36,14,-11
10445,-12,-245,-39,35,16,-11
10450,-11,-246,-33,35,16,-12
10455,-10,-244,-29,36,18,-11
10460,-15,-245,-35,38,17,-14
10465,-9,-247,-33,39,17,-15
10470,-12,-247,-29,41,19,-15
10475,-10,-244,-34,41,17,-15
10480,-11,-246,-31,41,18,-14
10485,-13,-244,-33,43,17,-15
10490,-11,-246,-29,42,18,-13
10495,-11,-248,-31,43,17,-13
10500,-13,-247,-32,43,16,-14
10505,-13,-244,-36,43,14,-14
10510,-9,-248,-39,43,13,-13
10515,-10,-246,-33,42,13,-13
10520,-10,-248,-32,41,12,-13
10525,-14,-248,-32,41,11,-14
10530,-12,-245,-33,39,9,-13
10535,-11,-248,-33,37,8,-13
10540,-11,-248,-32,37,5,-14
10545,-11,-244,-34,37,5,-13
10550,-13,-243,-34,38,2,-13
10555,-10,-246,-32,43,1,-15
10560,-11,-246,-33,47,2,-14
10565,-8,-246,-35,49,4,-14
10570,-14,-244,-35,49,5,-13
10575,-10,-242,-36,44,6,-13
10580,-12,-242,-34,39,8,-14
10585,-12,-241,-31,34,11,-12
10590,-9,-246,-31,27,11,-11
10595,-10,-242,-32,22,11,-9
10600,-9,-245,-32,21,12,-11
10605,-12,-245,-26,19,12,-13
10610,-14,-249,-33,21,13,-12
10615,-10,-248,-28,23,15,-12
10620,-15,-239,-35,27,15,-11
10625,-9,-250,-33,28,17,-11
10630,-10,-252,-31,33,19,-11
10635,-13,-248,-32,36,20,-10
10640,-12,-247,-36,38,21,-10
10645,-10,-244,-29,42,22,-10
10650,-10,-247,-34,42,20,-12
10655,-9,-248,-32,41,22,-11
10660,-14,-245,-34,39,22,-12
10665,-16,-247,-32,37,19,-13
10670,-14,-244,-28,32,18,-11
10675,-10,-244,-33,29,17,-11
10680,-10,-248,-34,28,17,-12
10685,-10,-247,-35,27,15,-12
10690,-12,-247,-33,28,16,-10
10695,-10,-248,-35,29,16,-11
10700,-11,-245,-32,30,17,-11
10705,-9,-247,-32,31,17,-9
10710,-14,-243,-31,31,16,-9
10715,-10,-247,-29,31,17,-7
10720,-8,-248,-29,31,16,-9
10725,-16,-246,-37,34,18,-8
10730,-13,-245,-30,34,18,-7
10735,-12,-243,-32,36,16,-10
10740,-10,-247,-32,34,17,-9
10745,-8,-247,-30,35,17,-12
10750,-11,-246,-33,35,17,-10
10755,-10,-243,-31,33,17,-11
10760,-9,-246,-32,33,15,-12
10765,-10,-248,-29,33,17,-11
10770,-10,-247,-32,36,15,-13
10775,-13,-245,-33,40,15,-13
10780,-15,-246,-37,41,16,-13
10785,-13,-249,-36,42,15,-12
10790,-9,-247,-33,43,15,-12
10795,-13,-245,-32,41,14,-12
10800,-10,-248,-31,41,13,-14
10805,-10,-244,-32,41,12,-14
10810,-12,-244,-33,40,10,-14
10815,-12,-247,-34,38,9,-14
10820,-13,-244,-30,38,9,-14
10825,-13,-243,-34,36,8,-13
10830,-10,-245,-33,35,8,-14
10835,-12,-246,-33,36,9,-14
10840,-10,-245,-33,38,10,-13
10845,-8,-249,-34,40,12,-13
10850,-8,-248,-37,42,12,-12
10855,-10,-245,-32,43,12,-14
10860,-10,-245,-37,43,13,-13
10865,-13,-248,-35,44,12,-12
10870,-8,-246,-30,44,12,-12
10875,-11,-248,-33,44,12,-12
10880,-9,-248,-24,45,12,-13
10885,-7,-245,-28,47,13,-11
10890,-11,-246,-32,51,15,-12
10895,-10,-247,-36,53,15,-13
10900,-15,-244,-30,55,16,-14
10905,-15,-244,-35,54,16,-12
10910,-13,-243,-30,57,17,-14
10915,-10,-249,-31,57,14,-14
10920,-11,-245,-34,57,15,-13
10925,-11,-246,-35,58,16,-13
10930,-11,-243,-33,60,17,-13
10935,-10,-243,-35,60,17,-13
10940,-17,-253,-31,61,17,-14
10945,-13,-246,-33,59,19,-14
10950,-11,-247,-32,60,19,-14
10955,-12,-246,-35,60,18,-13
10960,-12,-243,-35,61,19,-13
10965,-14,-249,-34,62,19,-14
10970,-14,-251,-31,63,20,-15
10975,-10,-247,-32,65,20,-15
10980,-13,-247,-34,67,20,-13
10985,-14,-246,-37,69,19,-13
10990,-9,-244,-38,71,19,-13
10995,-12,-245,-29,70,18,-13
11000,-11,-245,-34,71,18,-13
11005,-11,-244,-34,71,18,-14
11010,-12,-244,-34,72,19,-15
11015,-11,-247,-35,74,19,-14
11020,-12,-243,-38,73,18,-13
11025,-15,-247,-31,72,17,-14
11030,-13,-247,-32,71,16,-13
11035,-10,-246,-32,70,15,-13
11040,-14,-245,-31,69,15,-14
11045,-12,-247,-35,67,14,-13
11050,-13,-249,-35,68,13,-14
11055,-12,-248,-36,66,12,-14
11060,-12,-246,-37,68,12,-13
11065,-10,-248,-35,69,13,-15
11070,-12,-244,-33,70,13,-12
11075,-12,-246,-37,69,14,-14
11080,-12,-248,-34,71,14,-13
11085,-7,-244,-36,70,13,-12
11090,-11,-243,-36,70,12,-14
11095,-5,-241,-31,71,13,-13
11100,-6,-242,-37,69,13,-12
11105,-14,-244,-35,68,13,-15
11110,-13,-247,-32,65,11,-15
11115,-14,-247,-30,63,10,-14
11120,-10,-248,-29,61,7,-13
11125,-11,-246,-33,61,3,-14
11130,-14,-245,-30,64,0,-15
11135,-12,-247,-38,67,-2,-15
11140,-10,-249,-33,73,-3,-14
11145,-9,-247,-38,78,-3,-14
11150,-13,-248,-41,83,-1,-16
11155,-13,-244,-35,84,0,-15
11160,-11,-242,-36,83,2,-15
11165,-11,-247,-35,83,3,-14
11170,-8,-247,-31,82,4,-14
11175,-10,-246,-31,80,4,-14
11180,-11,-246,-35,76,3,-14
11185,-8,-246,-34,73,2,-15
11190,-10,-250,-31,72,4,-15
11195,-7,-248,-33,72,6,-16
11200,-9,-248,-35,74,8,-15
11205,-5,-252,-34,75,10,-13
11210,-10,-248,-34,78,12,-14
11215,-11,-245,-29,82,13,-14
11220,-8,-248,-31,84,15,-14
11225,-10,-247,-32,88,16,-13
11230,-10,-247,-31,88,16,-16
11235,-10,-245,-30,89,16,-16
11240,-8,-245,-32,87,16,-16
11245,-8,-245,-31,85,17,-15
11250,-6,-247,-31,83,16,-13
11255,-12,-244,-36,82,16,-13
11260,-12,-247,-35,80,16,-14
11265,-11,-247,-32,77,16,-14
11270,-8,-246,-33,78,15,-14
11275,-12,-246,-30,78,16,-15
11280,-10,-248,-30,78,16,-13
11285,-13,-246,-34,78,17,-14
11290,-12,-246,-30,77,18,-15
11295,-13,-246,-31,78,19,-14
11300,-14,-247,-33,81,20,-14
11305,-7,-245,-28,85,21,-12
11310,-13,-246,-36,90,22,-13
11315,-10,-246,-32,92,23,-13
11320,-11,-245,-32,93,22,-14
11325,-12,-248,-27,94,22,-13
11330,-12,-250,-29,96,22,-14
11335,-14,-245,-33,97,23,-14
11340,-10,-246,-29,100,23,-14
11345,-12,-245,-24,103,24,-14
11350,-11,-246,-30,105,23,-14
11355,-9,-245,-32,109,22,-15
11360,-15,-244,-30,108,21,-15
11365,-15,-249,-34,108,20,-17
11370,-12,-246,-30,106,17,-16
11375,-10,-245,-29,104,16,-16
11380,-12,-242,-27,100,15,-15
11385,-13,-248,-28,98,14,-16
11390,-10,-245,-31,94,12,-14
11395,-10,-245,-30,93,10,-15
11400,-12,-246,-33,90,10,-16
11405,-14,-245,-32,89,9,-13
11410,-11,-249,-31,88,9,-15
11415,-13,-245,-30,90,8,-15
11420,-13,-241,-39,91,9,-13
11425,-11,-247,-27,92,10,-13
11430,-11,-247,-34,92,9,-15
11435,-11,-244,-31,92,9,-14
11440,-14,-244,-28,91,10,-15
11445,-12,-247,-30,89,10,-14
11450,-12,-245,-27,88,10,-15
11455,-12,-248,-30,87,10,-14
11460,-11,-250,-34,85,10,-14
11465,-12,-249,-30,87,9,-13
11470,-14,-248,-31,89,7,-12
11475,-11,-249,-29,89,7,-13
11480,-8,-245,-28,90,6,-11
11485,-12,-244,-32,89,6,-14
11490,-8,-248,-28,89,4,-14
11495,-10,-243,-26,86,6,-13
11500,-12,-246,-29,84,6,-13
11505,-10,-246,-29,80,7,-13
11510,-10,-243,-31,78,8,-13
11515,-9,-247,-25,75,8,-12
11520,-10,-244,-28,70,10,-13
11525,-11,-247,-30,67,10,-13
11530,-8,-249,-29,66,12,-14
11535,-10,-247,-30,64,13,-13
11540,-11,-246,-29,63,15,-13
11545,-9,-248,-29,64,16,-11
11550,-8,-246,-32,63,15,-16
11555,-11,-247,-29,63,15,-13
11560,-11,-244,-27,62,14,-14
11565,-11,-248,-33,61,13,-15
11570,-9,-249,-31,61,12,-14
11575,-10,-246,-29,63,13,-14
11580,-9,-252,-24,63,12,-14
11585,-11,-247,-27,63,12,-13
11590,-10,-245,-26,65,12,-14
11595,-12,-248,-29,65,14,-14
11600,-9,-246,-32,66,16,-14
11605,-12,-245,-32,66,17,-14
11610,-12,-248,-27,68,18,-15
11615,-12,-244,-32,68,15,-14
11620,-8,-248,-26,67,16,-12
11625,-9,-251,-25,68,15,-11
11630,-2,-252,-30,66,15,-13
11635,-9,-248,-31,66,15,-14
11640,-10,-243,-27,68,15,-12
11645,-9,-246,-27,68,15,-12
11650,-10,-246,-28,65,16,-13
11655,-12,-248,-28,65,17,-14
11660,-10,-245,-26,65,18,-12
11665,-12,-245,-27,66,20,-14
11670,-10,-247,-26,66,20,-14
11675,-13,-247,-28,64,21,-13
11680,-13,-244,-26,62,20,-13
11685,-6,-249,-26,59,19,-14
11690,-12,-246,-28,56,19,-15
11695,-13,-246,-24,53,17,-14
11700,-10,-250,-29,52,16,-15
11705,-11,-246,-27,50,13,-15
11710,-12,-242,-28,51,9,-14
11715,-11,-246,-29,53,7,-13
11720,-11,-247,-28,57,6,-15
11725,-11,-247,-31,61,6,-15
11730,-14,-241,-31,64,5,-14
11735,-8,-251,-33,64,6,-13
11740,-8,-248,-30,60,8,-12
11745,-12,-243,-33,58,10,-13
11750,-8,-244,-30,55,10,-14
11755,-7,-247,-29,51,12,-14
11760,-7,-246,-32,48,12,-14
11765,-8,-245,-29,45,12,-15
11770,-6,-247,-28,43,13,-15
11775,-9,-245,-30,41,13,-14
11780,-8,-245,-29,40,15,-15
11785,-8,-242,-28,42,18,-14
11790,-9,-250,-23,41,20,-15
11795,-10,-247,-24,41,21,-16
11800,-9,-248,-30,40,24,-17
11805,-7,-247,-23,39,28,-20
11810,-9,-248,-25,39,27,-19
11815,-8,-247,-27,39,27,-20
11820,-7,-247,-26,40,29,-17
11825,-7,-248,-27,43,27,-17
11830,-10,-246,-26,45,26,-20
11835,-10,-246,-31,46,24,-19
11840,-13,-243,-27,46,25,-17
11845,-16,-249,-26,44,27,-18
11850,-9,-248,-31,43,26,-17
11855,-9,-246,-28,42,27,-16
11860,-12,-249,-29,40,28,-16
11865,-10,-244,-30,41,27,-16
11870,-8,-250,-27,40,27,-13
11875,-10,-250,-28,41,27,-14
11880,-10,-248,-27,43,27,-14
11885,-13,-250,-30,43,28,-15
11890,-11,-247,-36,44,28,-14
11895,-8,-246,-30,47,30,-14
11900,-13,-250,-28,48,30,-14
11905,-7,-249,-29,51,31,-16
11910,-11,-247,-31,54,29,-15
11915,-13,-246,-26,54,27,-15
11920,-9,-248,-24,57,25,-16
11925,-9,-246,-27,57,23,-18
11930,-12,-246,-30,57,20,-16
11935,-11,-245,-29,58,20,-16
11940,-10,-245,-31,54,19,-18
11945,-11,-246,-26,51,16,-18
11950,-7,-249,-31,50,14,-18
11955,-9,-245,-29,47,13,-20
11960,-11,-247,-27,44,13,-18
11965,-7,-247,-28,41,11,-18
11970,-11,-244,-27,42,10,-18
11975,-13,-247,-29,42,10,-18
11980,-11,-247,-28,42,10,-18
11985,-10,-244,-28,45,8,-17
11990,-7,-251,-30,47,9,-17
11995,-4,-249,-27,50,11,-17
