timestamp,acc_x,acc_y,acc_z,gyro_x,gyro_y,gyro_z
0,12,-249,-67,15,102,3
5,11,-248,-72,15,100,0
10,12,-247,-69,15,100,3
15,13,-246,-68,16,99,1
20,13,-250,-69,16,98,4
25,16,-245,-68,16,95,2
30,16,-250,-65,15,92,4
35,12,-247,-69,13,88,1
40,12,-247,-65,10,84,3
45,11,-249,-69,8,80,0
50,12,-250,-65,4,78,0
55,12,-250,-63,3,75,-2
60,10,-249,-68,3,74,2
65,9,-250,-66,4,73,0
70,10,-252,-67,6,72,2
75,11,-252,-68,8,70,-1
80,11,-249,-65,10,68,2
85,11,-248,-64,10,66,0
90,11,-250,-65,8,65,1
95,10,-248,-64,4,63,-2
100,12,-250,-69,1,64,0
105,11,-250,-62,0,64,-1
110,9,-247,-62,-1,64,1
115,12,-249,-64,0,65,-1
120,11,-250,-63,1,68,0
125,15,-250,-61,1,69,2
130,14,-253,-64,5,75,3
135,13,-250,-72,7,78,1
140,12,-249,-61,7,81,4
145,15,-250,-62,10,82,3
150,14,-252,-60,12,86,5
155,17,-251,-65,14,88,4
160,14,-247,-59,14,91,7
165,14,-248,-62,15,91,8
170,16,-249,-67,16,92,7
175,12,-246,-64,14,95,6
180,16,-248,-63,13,95,3
185,17,-246,-64,12,96,2
190,14,-248,-66,11,98,1
195,17,-246,-64,7,101,0
200,12,-246,-65,3,103,0
205,15,-245,-68,-1,104,-2
210,13,-244,-66,-4,105,-1
215,14,-248,-68,-8,103,0
220,9,-248,-67,-12,101,-2
225,13,-249,-65,-14,99,-1
230,12,-251,-62,-18,97,0
235,13,-251,-68,-18,94,1
240,12,-252,-62,-18,91,-1
245,9,-253,-65,-17,89,-1
250,8,-251,-65,-16,85,-1
255,11,-252,-64,-15,84,0
260,10,-254,-64,-15,82,-1
265,8,-250,-65,-14,80,1
270,9,-253,-63,-12,77,-1
275,8,-252,-64,-9,74,2
280,11,-252,-64,-7,73,1
285,11,-249,-65,-5,68,4
290,10,-251,-65,-3,64,1
295,12,-254,-62,0,62,4
300,12,-250,-66,4,60,2
305,9,-247,-65,6,59,2
310,11,-250,-66,8,57,-2
315,10,-251,-67,8,57,-2
320,11,-248,-63,7,55,-5
325,11,-250,-62,5,53,-5
330,14,-249,-64,3,52,-6
335,14,-250,-63,3,53,-5
340,11,-249,-60,0,50,-8
345,13,-248,-63,-1,49,-6
350,14,-249,-59,-1,46,-7
355,10,-247,-63,-1,44,-5
360,10,-249,-67,-1,43,-6
365,12,-250,-61,-1,40,-5
370,12,-248,-62,-3,38,-7
375,12,-249,-63,-4,37,-6
380,12,-250,-65,-7,35,-7
385,11,-248,-63,-10,35,-5
390,10,-253,-66,-12,34,-8
395,11,-251,-65,-14,33,-6
400,11,-250,-62,-15,30,-7
405,14,-250,-64,-13,29,-6
410,11,-249,-63,-11,28,-7
415,16,-252,-66,-7,25,-5
420,15,-248,-67,-5,23,-8
425,15,-252,-66,-1,22,-6
430,14,-247,-64,2,24,-8
435,13,-251,-59,4,24,-4
440,13,-245,-62,5,25,-7
445,16,-248,-63,6,26,-4
450,15,-249,-63,5,29,-7
455,14,-249,-65,5,30,-5
460,11,-244,-65,5,33,-7
465,12,-245,-66,3,33,-5
470,12,-246,-63,-1,34,-9
475,14,-248,-61,-8,36,-6
480,15,-247,-64,-15,37,-8
485,11,-243,-63,-21,35,-6
490,14,-248,-63,-24,32,-8
495,12,-249,-66,-26,31,-6
500,13,-248,-62,-29,30,-8
505,11,-250,-62,-29,28,-4
510,15,-251,-61,-26,27,-6
515,15,-253,-59,-22,25,-4
520,17,-251,-61,-18,24,-5
525,14,-254,-62,-14,24,-2
530,13,-252,-60,-9,25,-4
535,16,-250,-62,-5,26,-3
540,14,-249,-62,-2,29,-3
545,14,-249,-60,-1,30,0
550,14,-249,-59,-1,31,-3
555,15,-249,-59,-1,33,-1
560,12,-251,-63,0,36,-3
565,14,-251,-63,-1,38,-1
570,13,-250,-62,0,37,-4
575,14,-250,-63,-1,39,-1
580,12,-251,-63,0,41,-4
585,14,-248,-61,-3,41,-3
590,11,-247,-63,-4,42,-2
595,14,-248,-63,-6,43,-1
600,16,-249,-61,-7,42,-3
605,12,-249,-64,-10,43,-1
610,16,-250,-59,-10,41,-2
615,16,-250,-62,-15,41,1
620,15,-251,-63,-15,40,-1
625,15,-252,-60,-16,37,0
630,14,-252,-59,-15,35,-1
635,13,-251,-62,-11,33,0
640,13,-251,-61,-8,31,-1
645,12,-255,-60,-4,30,-1
650,14,-255,-63,0,29,-1
655,12,-254,-59,5,31,-1
660,11,-252,-60,8,32,-3
665,11,-250,-65,11,33,-2
670,11,-249,-61,12,34,-5
675,11,-251,-60,10,34,-3
680,15,-251,-60,7,33,-5
685,14,-247,-64,1,31,-4
690,11,-247,-62,-3,32,-5
695,13,-246,-65,-6,33,-6
700,12,-246,-62,-10,33,-5
705,12,-248,-66,-13,34,-4
710,14,-250,-63,-15,34,-3
715,17,-250,-60,-16,38,-2
720,15,-251,-63,-19,41,-1
725,11,-249,-60,-20,43,-1
730,13,-247,-64,-20,45,0
735,16,-251,-60,-19,49,0
740,14,-249,-63,-20,51,2
745,13,-251,-61,-20,53,0
750,15,-249,-65,-19,56,0
755,16,-249,-63,-21,58,-2
760,14,-248,-64,-21,59,-1
765,14,-248,-63,-21,60,-2
770,14,-250,-62,-22,58,-1
775,14,-250,-63,-24,60,-1
780,15,-248,-65,-25,59,-2
785,13,-254,-62,-26,57,-3
790,13,-250,-61,-26,58,-3
795,13,-250,-63,-26,58,-3
800,12,-252,-62,-25,59,-2
805,11,-252,-63,-24,58,-3
810,12,-251,-64,-23,58,-2
815,12,-249,-62,-23,59,-2
820,10,-251,-64,-23,61,-2
825,10,-251,-64,-24,62,-3
830,12,-251,-60,-23,60,0
835,13,-251,-64,-25,59,-2
840,10,-250,-61,-24,58,0
845,13,-252,-62,-22,59,-2
850,12,-250,-59,-20,56,0
855,13,-253,-64,-19,55,0
860,11,-250,-64,-17,54,3
865,13,-249,-65,-17,54,1
870,16,-252,-65,-18,55,3
875,14,-251,-65,-18,56,2
880,14,-251,-64,-19,58,2
885,13,-250,-67,-22,60,0
890,11,-249,-66,-22,60,1
895,14,-251,-65,-22,62,-1
900,12,-249,-65,-20,64,0
905,15,-250,-65,-20,65,-3
910,12,-249,-64,-19,64,0
915,13,-250,-62,-17,65,-2
920,14,-248,-65,-17,67,0
925,15,-250,-64,-14,69,-2
930,10,-247,-68,-12,72,0
935,16,-247,-63,-14,73,-2
940,16,-250,-63,-14,76,0
945,14,-249,-67,-15,77,-2
950,15,-247,-62,-17,77,0
955,13,-249,-63,-21,76,-3
960,12,-248,-63,-24,74,-1
965,14,-249,-61,-28,72,-5
970,14,-250,-62,-29,72,-3
975,13,-249,-67,-32,73,-6
980,12,-248,-66,-34,76,-3
985,13,-252,-69,-33,79,-6
990,14,-251,-61,-30,82,-3
995,12,-250,-65,-26,84,-5
1000,15,-251,-69,-25,85,-2
1005,13,-249,-66,-23,87,-4
1010,14,-251,-64,-21,88,-1
1015,13,-250,-68,-22,87,-2
1020,14,-250,-68,-22,85,-1
1025,13,-246,-66,-22,86,-3
1030,13,-247,-67,-23,86,0
1035,14,-247,-68,-26,86,-3
1040,12,-247,-66,-28,88,0
1045,14,-246,-70,-33,88,-2
1050,12,-248,-65,-38,89,1
1055,16,-249,-68,-42,91,-1
1060,13,-248,-65,-45,94,1
1065,16,-248,-66,-46,94,0
1070,13,-250,-65,-45,96,3
1075,15,-252,-65,-44,97,2
1080,14,-251,-64,-40,96,5
1085,11,-250,-63,-37,95,3
1090,10,-249,-61,-32,90,5
1095,14,-252,-64,-29,89,3
1100,12,-250,-63,-27,86,4
1105,10,-251,-65,-27,85,2
1110,13,-253,-67,-25,85,1
1115,14,-249,-61,-24,86,-1
1120,12,-250,-61,-25,86,1
1125,12,-251,-63,-26,88,-1
1130,8,-251,-65,-27,91,-1
1135,11,-250,-66,-29,93,-2
1140,10,-247,-65,-30,94,-1
1145,11,-249,-63,-30,96,-2
1150,8,-248,-64,-32,97,0
1155,10,-247,-64,-33,97,-1
1160,9,-247,-67,-35,97,1
1165,10,-251,-68,-34,98,1
1170,10,-250,-65,-33,98,1
1175,10,-250,-65,-33,96,0
1180,12,-249,-66,-35,95,1
1185,10,-247,-71,-36,91,0
1190,14,-249,-68,-39,89,0
1195,12,-250,-69,-38,87,-1
1200,12,-249,-67,-38,82,0
1205,11,-251,-68,-37,79,0
1210,12,-247,-60,-32,76,0
1215,12,-249,-64,-29,73,-1
1220,10,-252,-64,-22,71,1
1225,8,-252,-64,-17,69,0
1230,10,-251,-63,-13,67,0
1235,9,-252,-64,-9,66,1
1240,10,-252,-65,-7,64,1
1245,11,-250,-63,-5,64,-1
1250,10,-252,-66,-5,62,0
1255,12,-252,-68,-8,59,-1
1260,10,-250,-61,-8,57,-1
1265,11,-251,-68,-11,55,-1
1270,11,-251,-61,-16,54,-4
1275,11,-253,-67,-16,55,-3
1280,11,-249,-65,-15,55,-3
1285,10,-246,-68,-15,56,-5
1290,9,-249,-64,-13,59,-5
1295,12,-251,-67,-11,60,-3
1300,11,-250,-65,-11,62,-4
1305,10,-249,-60,-8,63,-3
1310,12,-249,-67,-7,64,-4
1315,12,-248,-66,-6,65,-2
1320,13,-249,-64,-6,67,-5
1325,13,-246,-64,-4,67,-4
1330,14,-247,-64,-4,68,-5
1335,13,-248,-67,-4,67,-5
1340,15,-246,-64,-3,66,-5
1345,14,-249,-65,-4,64,-4
1350,12,-249,-62,-6,63,-4
1355,11,-250,-65,-6,62,-4
1360,13,-248,-64,-7,62,-6
1365,11,-248,-64,-9,63,-4
1370,13,-248,-67,-9,66,-7
1375,13,-251,-65,-9,66,-5
1380,11,-249,-62,-11,66,-5
1385,12,-250,-69,-13,68,-5
1390,11,-250,-63,-15,66,-6
1395,11,-250,-64,-17,65,-4
1400,11,-249,-66,-19,62,-5
1405,11,-251,-67,-22,60,-3
1410,9,-250,-66,-24,57,-6
1415,12,-251,-63,-23,56,-3
1420,11,-250,-65,-23,53,-6
1425,10,-250,-67,-21,48,-5
1430,10,-252,-68,-18,47,-6
1435,11,-251,-63,-13,47,-4
1440,11,-250,-65,-9,46,-7
1445,11,-250,-64,-5,46,-6
1450,11,-246,-68,-5,46,-6
1455,10,-250,-65,-4,46,-5
1460,11,-249,-67,-6,44,-7
1465,12,-250,-65,-7,45,-3
1470,11,-250,-64,-7,44,-4
1475,12,-248,-64,-9,44,-1
1480,11,-251,-66,-10,42,-3
1485,13,-251,-63,-8,43,-1
1490,13,-250,-64,-7,44,-4
1495,13,-248,-63,-6,45,-2
1500,14,-249,-63,-4,43,-5
1505,12,-251,-64,-2,43,-2
1510,10,-246,-60,-2,44,-6
1515,10,-248,-64,-4,44,-4
1520,11,-249,-60,-6,42,-7
1525,13,-250,-64,-8,42,-6
1530,13,-252,-67,-11,43,-8
1535,15,-250,-68,-11,43,-5
1540,12,-248,-64,-16,44,-8
1545,16,-250,-69,-20,46,-6
1550,14,-250,-67,-21,48,-9
1555,16,-254,-70,-26,53,-6
1560,13,-249,-70,-28,55,-8
1565,14,-249,-68,-28,58,-7
1570,13,-250,-67,-27,58,-8
1575,15,-252,-68,-22,59,-7
1580,12,-250,-66,-16,61,-10
1585,12,-247,-70,-11,60,-8
1590,15,-249,-67,-6,59,-10
1595,13,-246,-70,-3,61,-8
1600,14,-246,-66,-3,62,-11
1605,11,-242,-67,-5,62,-7
1610,13,-245,-68,-10,60,-8
1615,13,-246,-67,-17,62,-6
1620,12,-246,-67,-22,60,-7
1625,12,-246,-67,-27,60,-3
1630,11,-246,-68,-29,60,-6
1635,17,-252,-67,-27,61,-2
1640,17,-252,-66,-27,59,-4
1645,12,-251,-63,-24,60,-2
1650,14,-252,-63,-22,57,-2
1655,13,-251,-61,-18,54,0
1660,15,-254,-65,-16,52,-2
1665,12,-251,-64,-13,50,0
1670,16,-257,-66,-11,49,0
1675,15,-251,-66,-8,48,0
1680,14,-252,-63,-6,48,-2
1685,10,-252,-63,-2,47,-1
1690,13,-252,-66,0,48,-3
1695,12,-251,-65,2,50,-2
1700,10,-249,-65,2,49,-5
1705,13,-250,-60,1,52,-4
1710,12,-250,-66,1,55,-5
1715,14,-246,-64,0,57,-5
1720,13,-248,-65,0,59,-5
1725,14,-248,-63,-1,60,-6
1730,13,-248,-64,-3,63,-6
1735,13,-250,-60,-5,64,-4
1740,10,-250,-67,-7,64,-6
1745,12,-248,-69,-6,62,-5
1750,10,-247,-60,-5,62,-4
1755,16,-251,-65,-7,61,-4
1760,13,-248,-62,-7,59,-3
1765,16,-252,-62,-9,60,-3
1770,14,-251,-65,-9,59,-4
1775,13,-248,-65,-12,58,-3
1780,14,-249,-62,-12,56,-5
1785,11,-249,-64,-12,55,-4
1790,13,-250,-63,-12,54,-4
1795,12,-251,-68,-13,55,-5
1800,12,-250,-64,-12,57,-4
1805,13,-250,-64,-11,58,-4
1810,11,-249,-61,-10,58,-3
1815,11,-251,-63,-9,58,-4
1820,15,-250,-65,-8,60,-2
1825,14,-250,-65,-7,61,-3
1830,12,-247,-66,-4,63,-5
1835,15,-248,-64,-4,63,-4
1840,15,-246,-66,-5,63,-4
1845,11,-248,-63,-7,63,-4
1850,14,-249,-66,-10,63,-4
1855,13,-245,-64,-13,61,-5
1860,13,-248,-63,-16,60,-2
1865,11,-246,-66,-18,58,-4
1870,15,-247,-66,-19,57,-3
1875,15,-249,-63,-20,56,-4
1880,11,-251,-61,-19,54,-2
1885,12,-251,-61,-22,53,-2
1890,14,-253,-67,-22,54,-2
1895,14,-250,-63,-21,56,-3
1900,12,-253,-67,-18,57,-1
1905,14,-253,-67,-16,57,-1
1910,14,-253,-61,-14,60,-1
1915,13,-252,-63,-10,60,-3
1920,13,-251,-60,-7,60,-1
1925,14,-250,-65,-5,61,-2
1930,10,-251,-64,-4,59,-2
1935,13,-247,-65,-1,58,-3
1940,13,-251,-63,1,56,-2
1945,12,-250,-65,2,55,-6
1950,13,-249,-67,1,55,-4
1955,13,-248,-65,-3,55,-5
1960,12,-248,-65,-5,55,-3
1965,12,-248,-62,-11,57,-4
1970,9,-248,-62,-13,57,-3
1975,13,-248,-67,-16,59,-5
1980,10,-248,-62,-18,61,-2
1985,14,-250,-67,-17,63,-3
1990,13,-249,-63,-17,64,-2
1995,14,-249,-64,-16,65,-3
2000,14,-250,-67,-16,67,0
2005,13,-250,-64,-14,67,-2
2010,15,-250,-67,-13,67,2
2015,16,-250,-65,-13,65,0
2020,12,-249,-64,-11,62,2
2025,11,-251,-66,-10,59,-1
2030,12,-250,-63,-9,58,2
2035,13,-249,-69,-8,56,0
2040,11,-249,-66,-8,53,3
2045,14,-253,-68,-11,48,1
2050,12,-252,-64,-14,45,3
2055,14,-254,-68,-16,45,-1
2060,11,-252,-65,-15,44,1
2065,13,-256,-61,-8,42,-2
2070,12,-262,-59,5,37,0
2075,17,-265,-57,18,23,-6
2080,18,-271,-54,30,-3,-11
2085,16,-273,-55,35,-41,-26
2090,18,-276,-64,22,-74,-35
2095,20,-274,-85,-12,-100,-48
2100,20,-267,-100,-64,-117,-59
2105,24,-261,-118,-136,-111,-76
2110,21,-248,-134,-216,-80,-83
2115,22,-232,-140,-294,-24,-90
2120,16,-222,-139,-358,52,-82
2125,17,-215,-129,-416,124,-74
2130,12,-215,-122,-476,181,-63
2135,11,-213,-111,-541,215,-63
2140,6,-216,-99,-611,222,-64
2145,5,-218,-92,-648,206,-74
2150,6,-222,-89,-655,179,-77
2155,0,-220,-94,-633,146,-80
2160,4,-224,-96,-585,116,-71
2165,5,-220,-96,-524,95,-62
2170,7,-216,-96,-464,82,-49
2175,10,-216,-107,-416,75,-40
2180,11,-214,-104,-382,73,-28
2185,12,-215,-106,-360,67,-25
2190,9,-215,-107,-342,59,-19
2195,16,-216,-106,-328,50,-18
2200,15,-217,-110,-315,40,-16
2205,19,-217,-113,-313,32,-18
2210,16,-212,-117,-328,24,-20
2215,17,-205,-122,-363,12,-28
2220,17,-200,-129,-420,0,-36
2225,19,-200,-134,-489,-14,-49
2230,19,-200,-137,-559,-23,-60
2235,18,-196,-140,-617,-26,-75
2240,16,-194,-142,-667,-23,-83
2245,16,-194,-139,-689,-16,-94
2250,13,-189,-142,-704,-10,-100
2255,13,-187,-135,-712,-5,-108
2260,11,-178,-132,-720,-4,-113
2265,10,-176,-133,-731,-5,-120
2270,6,-167,-129,-739,-5,-125
2275,6,-165,-126,-752,-6,-131
2280,5,-160,-123,-766,-6,-137
2285,6,-156,-121,-780,-7,-141
2290,3,-152,-116,-791,-7,-140
2295,2,-148,-118,-789,-5,-139
2300,3,-149,-112,-783,-2,-131
2305,-1,-151,-105,-775,0,-120
2310,-2,-148,-99,-761,-3,-105
2315,-1,-151,-96,-749,-12,-86
2320,-5,-154,-87,-732,-23,-64
2325,-2,-161,-79,-711,-36,-42
2330,0,-163,-73,-678,-47,-18
2335,-4,-167,-71,-636,-57,6
2340,0,-174,-68,-578,-72,39
2345,3,-178,-62,-536,-87,64
2350,6,-179,-63,-502,-103,85
2355,7,-180,-76,-481,-119,97
2360,15,-181,-84,-480,-132,98
2365,18,-182,-101,-503,-138,94
2370,20,-182,-122,-553,-134,84
2375,25,-180,-139,-626,-118,69
2380,24,-178,-155,-717,-102,49
2385,26,-177,-167,-821,-82,17
2390,25,-180,-181,-944,-57,-15
2395,26,-181,-184,-1041,-35,-48
2400,17,-184,-183,-1121,-20,-80
2405,15,-181,-179,-1192,-15,-110
2410,14,-187,-163,-1241,-18,-134
2415,11,-191,-145,-1274,-15,-151
2420,13,-197,-125,-1283,-10,-158
2425,7,-208,-119,-1262,1,-155
2430,6,-213,-97,-1210,13,-141
2435,3,-219,-80,-1129,21,-111
2440,15,-231,-87,-1010,14,-82
2445,13,-225,-99,-913,3,-50
2450,5,-229,-106,-838,-4,-16
2455,22,-230,-126,-793,-10,18
2460,20,-224,-143,-787,-15,46
2465,24,-221,-153,-816,-13,69
2470,29,-215,-164,-866,-9,82
2475,32,-210,-166,-928,-7,92
2480,33,-208,-162,-994,-11,91
2485,31,-202,-160,-1051,-17,91
2490,31,-198,-151,-1093,-31,79
2495,30,-197,-141,-1120,-45,67
2500,27,-193,-129,-1128,-56,52
2505,24,-195,-117,-1120,-67,40
2510,16,-194,-103,-1102,-78,25
2515,11,-201,-79,-1063,-87,17
2520,6,-205,-58,-996,-97,6
2525,2,-210,-46,-896,-108,4
2530,4,-213,-47,-763,-124,-5
2535,1,-209,-61,-610,-130,-8
2540,5,-199,-86,-478,-113,-14
2545,12,-185,-110,-408,-82,-15
2550,16,-172,-137,-442,-36,-25
2555,17,-156,-153,-544,18,-35
2560,19,-144,-166,-686,69,-49
2565,18,-141,-171,-847,118,-57
2570,17,-135,-165,-1009,153,-65
2575,17,-137,-162,-1160,165,-63
2580,9,-141,-155,-1288,152,-60
2585,8,-147,-154,-1393,119,-47
2590,0,-154,-154,-1474,57,-28
2595,-2,-169,-147,-1533,-6,-5
2600,-2,-180,-142,-1547,-69,17
2605,-3,-189,-141,-1528,-125,39
2610,-1,-195,-143,-1496,-172,52
2615,1,-199,-139,-1452,-206,63
2620,-2,-200,-132,-1396,-227,60
2625,-3,-204,-123,-1321,-238,55
2630,-2,-208,-108,-1224,-241,40
2635,-2,-207,-91,-1112,-239,27
2640,0,-212,-80,-987,-222,7
2645,8,-216,-70,-811,-194,-7
2650,14,-213,-71,-652,-161,-26
2655,15,-213,-66,-494,-123,-42
2660,17,-207,-67,-337,-77,-63
2665,21,-205,-77,-187,-28,-80
2670,21,-191,-90,-55,15,-103
2675,20,-183,-103,44,44,-122
2680,22,-170,-117,98,59,-150
2685,22,-160,-128,109,60,-177
2690,19,-151,-142,86,53,-216
2695,15,-142,-149,25,47,-241
2700,10,-135,-156,-45,37,-267
2705,7,-132,-155,-125,29,-285
2710,3,-133,-159,-204,18,-303
2715,2,-133,-162,-276,11,-311
2720,2,-136,-164,-339,6,-315
2725,5,-140,-169,-399,11,-301
2730,3,-142,-173,-461,27,-283
2735,12,-154,-170,-521,44,-255
2740,16,-170,-160,-564,57,-228
2745,19,-189,-153,-583,57,-200
2750,32,-204,-146,-559,43,-184
2755,38,-217,-137,-498,23,-164
2760,44,-229,-134,-408,-3,-152
2765,52,-239,-142,-296,-26,-139
2770,50,-244,-146,-165,-42,-129
2775,52,-245,-146,-20,-66,-123
2780,53,-238,-158,120,-105,-129
2785,49,-234,-164,235,-157,-141
2790,44,-228,-173,321,-204,-169
2795,40,-217,-189,385,-240,-191
2800,33,-214,-195,408,-240,-215
2805,23,-207,-195,413,-225,-233
2810,16,-203,-195,399,-213,-252
2815,7,-196,-195,370,-206,-263
2820,-12,-193,-190,333,-201,-270
2825,-21,-190,-181,295,-208,-262
2830,-37,-192,-172,276,-225,-254
2835,-45,-193,-171,274,-256,-230
2840,-57,-196,-164,272,-291,-184
2845,-65,-195,-161,270,-350,-139
2850,-71,-198,-167,267,-408,-95
2855,-69,-201,-173,257,-466,-45
2860,-64,-206,-173,241,-511,-4
2865,-55,-216,-182,240,-548,41
2870,-47,-219,-186,250,-573,78
2875,-26,-228,-190,274,-586,110
2880,-19,-227,-196,302,-586,132
2885,-10,-231,-192,335,-587,140
2890,-1,-228,-200,379,-593,140
2895,10,-230,-211,422,-596,125
2900,14,-227,-205,450,-589,97
2905,18,-230,-199,496,-586,72
2910,24,-223,-206,549,-582,47
2915,27,-224,-204,571,-545,21
2920,31,-221,-210,606,-503,-2
2925,36,-220,-207,608,-426,-23
2930,34,-213,-199,602,-353,-43
2935,29,-206,-189,605,-281,-50
2940,27,-208,-188,617,-231,-49
2945,21,-202,-181,610,-205,-50
2950,12,-203,-184,588,-193,-50
2955,9,-198,-187,560,-204,-53
2960,0,-202,-185,524,-221,-56
2965,-2,-205,-180,464,-241,-67
2970,-11,-211,-186,390,-266,-86
2975,-19,-206,-187,347,-286,-101
2980,-25,-215,-193,373,-282,-92
2985,-21,-217,-204,406,-290,-72
2990,-20,-224,-213,415,-301,-52
2995,-17,-233,-210,409,-315,-45
3000,-13,-239,-217,413,-309,-41
3005,-12,-245,-215,409,-286,-45
3010,1,-254,-217,429,-257,-46
3015,5,-254,-209,471,-232,-44
3020,4,-253,-213,531,-206,-46
3025,1,-251,-204,601,-201,-54
3030,2,-248,-207,665,-198,-59
3035,-9,-248,-204,732,-186,-60
3040,-11,-248,-198,782,-188,-56
3045,-22,-247,-188,804,-197,-63
3050,-21,-256,-191,821,-196,-62
3055,-12,-255,-200,827,-181,-57
3060,-8,-257,-192,822,-154,-48
3065,-7,-257,-195,841,-133,-31
3070,-4,-255,-197,880,-121,-11
3075,-7,-251,-194,916,-121,-2
3080,-12,-256,-188,939,-129,5
3085,-16,-258,-189,941,-141,-8
3090,-14,-259,-190,927,-152,-22
3095,-13,-264,-185,909,-153,-44
3100,-12,-267,-191,913,-152,-54
3105,-10,-269,-187,927,-145,-66
3110,-8,-266,-186,957,-134,-70
3115,-5,-268,-186,989,-115,-78
3120,6,-272,-184,1018,-90,-82
3125,5,-273,-183,1047,-56,-95
3130,4,-270,-175,1073,-28,-106
3135,5,-273,-172,1094,-9,-117
3140,1,-270,-165,1115,5,-119
3145,-1,-263,-151,1131,19,-119
3150,-8,-263,-146,1130,17,-107
3155,-7,-262,-152,1113,11,-102
3160,-9,-261,-142,1078,3,-97
3165,-7,-262,-145,1035,-4,-104
3170,-14,-264,-138,988,-12,-111
3175,-10,-275,-136,947,-30,-105
3180,-5,-279,-145,912,-46,-99
3185,-1,-278,-143,881,-53,-107
3190,3,-281,-143,858,-56,-110
3195,10,-277,-147,849,-48,-115
3200,10,-275,-140,853,-38,-118
3205,13,-269,-135,860,-29,-128
3210,-13,-278,-125,871,-10,-165
3215,13,-274,-126,861,7,-160
3220,9,-279,-115,842,34,-155
3225,5,-280,-112,827,55,-160
3230,2,-284,-108,816,66,-166
3235,2,-286,-110,810,67,-175
3240,-7,-283,-113,812,59,-183
3245,-3,-277,-112,820,41,-197
3250,-4,-270,-118,831,27,-199
3255,-2,-266,-118,842,14,-205
3260,2,-266,-113,854,1,-202
3265,1,-265,-109,867,-13,-203
3270,4,-263,-106,883,-26,-204
3275,3,-259,-104,896,-33,-210
3280,9,-259,-103,900,-33,-217
3285,9,-258,-101,901,-24,-227
3290,10,-257,-95,902,-9,-234
3295,10,-259,-98,907,6,-244
3300,12,-264,-82,921,15,-249
3305,14,-262,-88,933,27,-254
3310,13,-261,-97,934,39,-249
3315,11,-272,-96,926,49,-246
3320,10,-285,-104,906,60,-235
3325,12,-304,-115,867,67,-230
3330,14,-320,-134,807,73,-216
3335,22,-339,-168,717,86,-196
3340,27,-368,-186,593,106,-167
3345,26,-398,-199,446,124,-146
3350,31,-435,-210,275,126,-142
3355,32,-455,-197,163,114,-169
3360,28,-456,-178,104,91,-212
3365,19,-433,-150,122,65,-272
3370,12,-393,-127,203,45,-328
3375,1,-339,-106,332,31,-372
3380,-2,-298,-97,488,17,-397
3385,-10,-247,-88,608,3,-401
3390,-8,-200,-77,742,-22,-385
3395,-5,-160,-71,808,-35,-349
3400,-3,-130,-65,784,-33,-303
3405,5,-117,-56,688,-27,-262
3410,7,-116,-49,539,-14,-226
3415,12,-125,-48,359,-2,-202
3420,17,-142,-45,198,15,-193
3425,21,-167,-46,79,30,-201
3430,19,-191,-50,16,42,-222
3435,18,-207,-48,5,56,-249
3440,15,-224,-45,44,72,-273
3445,13,-237,-49,122,91,-292
3450,7,-242,-46,251,111,-291
3455,6,-250,-44,370,134,-282
3460,6,-256,-47,489,161,-258
3465,6,-260,-46,606,181,-231
3470,5,-261,-43,705,193,-202
3475,1,-261,-44,783,200,-172
3480,2,-270,-48,837,203,-143
3485,1,-272,-55,859,212,-120
3490,4,-277,-61,852,224,-104
3495,5,-280,-64,815,240,-90
3500,11,-285,-68,751,252,-80
3505,12,-289,-73,693,261,-78
3510,15,-290,-70,637,263,-79
3515,16,-292,-75,596,254,-87
3520,21,-284,-69,581,240,-97
3525,24,-274,-73,585,222,-105
3530,23,-268,-70,597,204,-112
3535,26,-257,-66,612,183,-117
3540,24,-242,-66,623,170,-122
3545,22,-230,-64,620,151,-124
3550,28,-218,-61,602,144,-124
3555,28,-214,-60,564,144,-129
3560,27,-206,-56,516,150,-135
3565,29,-210,-55,455,162,-143
3570,32,-209,-54,390,178,-148
3575,34,-218,-53,329,197,-153
3580,31,-220,-56,274,218,-157
3585,33,-229,-51,226,240,-161
3590,33,-235,-48,191,259,-163
3595,35,-242,-47,163,279,-159
3600,37,-246,-43,150,294,-153
3605,36,-251,-42,148,303,-142
3610,32,-253,-40,153,307,-128
3615,34,-254,-38,162,302,-114
3620,31,-253,-34,178,292,-103
3625,27,-249,-28,197,274,-88
3630,33,-251,-33,217,252,-74
3635,33,-250,-31,235,231,-60
3640,33,-247,-28,252,211,-49
3645,32,-244,-33,267,188,-34
3650,32,-246,-29,276,164,-23
3655,31,-243,-29,283,140,-14
3660,35,-241,-32,287,106,-7
3665,36,-242,-35,286,75,2
3670,35,-243,-39,277,50,4
3675,37,-247,-37,263,31,7
3680,38,-251,-45,247,17,6
3685,37,-257,-45,233,13,4
3690,35,-260,-41,225,15,-4
3695,34,-261,-45,228,26,-13
3700,33,-266,-47,239,42,-22
3705,31,-266,-46,252,62,-27
3710,34,-266,-43,266,89,-37
3715,30,-271,-42,280,118,-43
3720,33,-268,-39,295,151,-50
3725,30,-266,-37,312,188,-54
3730,28,-267,-27,335,228,-58
3735,26,-262,-31,357,265,-56
3740,24,-257,-21,380,297,-54
3745,27,-252,-22,398,324,-39
3750,27,-242,-21,410,338,-25
3755,30,-239,-15,405,340,-7
3760,26,-233,-10,393,332,8
3765,27,-232,-7,371,318,27
3770,27,-228,-4,341,300,41
3775,26,-227,-3,304,276,57
3780,26,-225,-6,261,249,60
3785,20,-223,-9,213,223,67
3790,26,-229,-3,167,198,67
3795,26,-232,-9,125,178,72
3800,26,-234,-14,86,167,72
3805,25,-241,-9,62,160,75
3810,25,-242,-10,47,159,73
3815,25,-247,-15,36,163,75
3820,28,-251,-20,34,168,71
3825,27,-256,-18,35,176,71
3830,29,-256,-19,43,183,64
3835,27,-256,-23,51,194,60
3840,26,-257,-22,61,205,51
3845,27,-256,-24,71,217,47
3850,25,-259,-27,84,227,39
3855,27,-256,-30,93,233,36
3860,23,-251,-29,96,237,27
3865,22,-250,-30,97,236,25
3870,20,-251,-22,93,231,17
3875,21,-249,-26,93,224,20
3880,19,-250,-27,92,218,19
3885,17,-248,-25,99,211,28
3890,18,-244,-23,105,203,30
3895,19,-246,-22,113,193,39
3900,23,-249,-22,122,182,41
3905,17,-246,-22,125,173,48
3910,23,-247,-22,122,162,46
3915,22,-250,-23,120,150,50
3920,23,-253,-27,114,139,47
3925,26,-252,-30,106,133,46
3930,22,-257,-31,102,131,43
3935,19,-257,-29,100,131,42
3940,20,-256,-32,102,131,37
3945,19,-258,-35,105,136,38
3950,17,-260,-33,108,144,36
3955,21,-260,-34,115,151,39
3960,17,-261,-34,124,159,36
3965,15,-259,-27,135,164,40
3970,14,-260,-25,148,169,38
3975,13,-257,-25,160,173,42
3980,11,-256,-22,171,175,40
3985,9,-256,-23,182,175,45
3990,7,-255,-23,190,173,45
3995,8,-252,-20,193,171,49
4000,7,-252,-14,193,167,49
4005,6,-249,-18,190,165,51
4010,8,-250,-13,183,167,50
4015,8,-249,-15,176,167,54
4020,6,-247,-13,166,167,53
4025,10,-247,-16,158,168,58
4030,9,-245,-13,147,165,58
4035,12,-250,-12,134,161,61
4040,10,-248,-13,125,155,62
4045,13,-248,-14,113,145,67
4050,15,-250,-11,100,137,69
4055,16,-249,-14,92,127,72
4060,18,-250,-16,84,115,74
4065,19,-252,-18,77,108,78
4070,20,-250,-17,70,102,80
4075,21,-249,-18,60,97,82
4080,21,-250,-20,52,96,84
4085,23,-254,-23,40,95,87
4090,23,-251,-24,31,96,87
4095,22,-256,-15,23,102,88
4100,21,-254,-20,14,109,85
4105,23,-258,-19,10,115,86
4110,19,-257,-13,9,121,84
4115,19,-259,-18,6,127,82
4120,21,-258,-17,3,133,76
4125,17,-254,-19,1,137,72
4130,17,-257,-19,-1,140,66
4135,19,-255,-20,-1,141,62
4140,15,-255,-20,-1,140,57
4145,15,-256,-17,-3,140,52
4150,16,-256,-19,-4,138,46
4155,15,-254,-18,-7,138,42
4160,11,-250,-18,-10,135,38
4165,13,-254,-19,-16,135,32
4170,13,-251,-16,-21,134,29
4175,11,-249,-16,-29,134,27
4180,11,-248,-16,-35,134,27
4185,16,-251,-21,-40,134,26
4190,15,-252,-18,-45,133,30
4195,14,-251,-22,-46,132,30
4200,15,-256,-21,-48,131,31
4205,11,-255,-25,-45,129,32
4210,14,-258,-22,-43,125,32
4215,13,-255,-21,-39,122,30
4220,14,-257,-21,-35,117,30
4225,13,-258,-20,-29,113,27
4230,12,-255,-23,-24,107,27
4235,13,-256,-20,-21,102,26
4240,13,-256,-16,-17,95,29
4245,10,-253,-17,-12,89,30
4250,8,-256,-20,-10,82,32
4255,13,-253,-17,-5,79,34
4260,14,-253,-20,-2,77,35
4265,15,-252,-20,1,75,33
4270,15,-253,-16,2,73,36
4275,10,-253,-15,4,72,38
4280,12,-251,-18,3,71,42
4285,15,-254,-15,3,69,42
4290,14,-253,-16,3,68,45
4295,13,-254,-17,4,69,43
4300,14,-255,-15,2,71,45
4305,15,-257,-10,2,71,43
4310,11,-256,-12,2,71,45
4315,10,-255,-13,2,71,44
4320,11,-256,-12,0,69,46
4325,12,-255,-16,-1,67,44
4330,8,-257,-11,-4,64,45
4335,9,-256,-15,-8,62,43
4340,12,-258,-14,-13,60,46
4345,12,-260,-19,-15,55,44
4350,10,-258,-24,-14,50,43
4355,12,-262,-23,-13,46,41
4360,11,-262,-24,-10,44,42
4365,10,-261,-21,-6,42,38
4370,8,-252,-35,0,39,38
4375,11,-262,-26,5,42,33
4380,10,-260,-24,12,44,31
4385,11,-259,-22,18,48,24
4390,13,-258,-26,24,52,22
4395,15,-258,-20,28,59,15
4400,15,-255,-18,33,64,14
4405,14,-253,-21,33,67,9
4410,17,-252,-18,35,69,7
4415,16,-252,-18,36,68,0
4420,17,-253,-20,35,69,1
4425,16,-247,-18,33,69,-7
4430,16,-249,-15,29,71,-8
4435,10,-247,-17,25,74,-14
4440,13,-248,-15,18,74,-14
4445,12,-247,-14,11,78,-18
4450,12,-248,-16,2,82,-18
4455,13,-247,-10,-2,84,-21
4460,13,-248,-10,-10,86,-18
4465,7,-248,-10,-17,88,-17
4470,10,-253,-5,-23,88,-12
4475,10,-250,-8,-30,87,-12
4480,7,-257,-4,-35,86,-5
4485,7,-257,-7,-38,85,-3
4490,10,-258,-8,-40,80,4
4495,9,-256,-10,-39,78,3
4500,13,-258,-14,-38,70,6
4505,14,-260,-16,-37,65,6
4510,15,-260,-18,-35,62,9
4515,18,-260,-19,-30,62,6
4520,17,-259,-23,-24,63,9
4525,17,-259,-20,-20,67,5
4530,15,-256,-23,-15,72,5
4535,15,-258,-25,-11,76,-1
4540,16,-258,-23,-8,81,-3
4545,14,-256,-28,-3,86,-12
4550,15,-256,-25,1,94,-14
4555,17,-254,-26,3,100,-19
4560,15,-259,-26,3,103,-19
4565,15,-255,-24,3,109,-22
4570,14,-253,-24,3,114,-19
4575,15,-257,-24,1,121,-18
4580,16,-257,-23,0,123,-15
4585,14,-254,-21,-8,121,-17
4590,17,-255,-21,-10,118,-14
4595,13,-255,-19,-11,113,-13
4600,17,-251,-19,-10,110,-11
4605,15,-254,-17,-10,106,-11
4610,13,-253,-19,-6,101,-9
4615,13,-254,-13,-1,98,-10
4620,12,-251,-16,2,95,-7
4625,11,-253,-11,5,92,-9
4630,12,-254,-13,7,89,-6
4635,11,-253,-15,9,86,-6
4640,15,-252,-15,7,83,-3
4645,13,-251,-13,6,81,-1
4650,14,-254,-13,3,75,4
4655,16,-254,-15,0,68,5
4660,16,-254,-19,-1,65,9
4665,14,-257,-11,-2,65,6
4670,14,-257,-18,1,64,8
4675,16,-259,-17,5,65,5
4680,17,-260,-17,12,64,3
4685,16,-260,-18,21,67,0
4690,18,-260,-15,28,70,-1
4695,14,-259,-18,35,73,-5
4700,14,-258,-17,42,78,-5
4705,14,-258,-15,47,81,-7
4710,13,-257,-13,49,84,-6
4715,13,-258,-17,52,88,-8
4720,13,-255,-17,54,91,-10
4725,13,-257,-19,57,93,-12
4730,14,-253,-14,58,92,-11
4735,13,-256,-12,58,91,-11
4740,13,-254,-13,57,90,-9
4745,15,-254,-16,53,91,-8
4750,15,-257,-12,47,91,-4
4755,14,-256,-16,41,88,-3
4760,17,-253,-14,34,87,0
4765,15,-254,-17,27,84,2
4770,15,-253,-17,18,82,2
4775,14,-254,-17,13,77,2
4780,14,-256,-18,7,71,1
4785,13,-256,-19,1,68,-1
4790,14,-256,-17,-2,64,-3
4795,13,-254,-19,-1,59,-4
4800,14,-255,-14,2,54,-3
4805,17,-257,-14,8,54,-4
4810,12,-255,-15,13,51,-4
4815,15,-255,-17,19,48,-4
4820,15,-253,-16,23,49,-3
4825,15,-253,-18,27,51,-3
4830,15,-254,-13,32,53,-2
4835,16,-253,-14,34,55,0
4840,14,-253,-15,35,56,-1
4845,13,-252,-12,34,61,0
4850,11,-252,-12,29,62,1
4855,14,-252,-13,25,63,2
4860,14,-250,-14,19,62,1
4865,16,-254,-15,12,63,4
4870,14,-251,-16,8,64,2
4875,14,-254,-15,4,65,4
4880,14,-255,-5,1,67,5
4885,11,-254,-13,-2,69,5
4890,13,-253,-12,-4,71,3
4895,15,-255,-15,-6,72,4
4900,13,-252,-11,-7,71,3
4905,12,-258,-11,-7,70,4
4910,13,-258,-12,-4,69,3
4915,15,-259,-13,0,67,4
4920,12,-260,-16,3,64,2
4925,13,-259,-18,9,63,2
4930,15,-259,-19,12,62,-3
4935,14,-261,-20,15,62,-4
4940,16,-258,-18,18,63,-9
4945,16,-260,-21,20,65,-10
4950,17,-259,-19,22,66,-12
4955,14,-259,-13,25,65,-9
4960,14,-259,-18,31,65,-10
4965,14,-259,-17,35,64,-6
4970,13,-259,-11,41,63,-6
4975,12,-259,-11,47,61,-3
4980,11,-255,-16,52,60,-4
4985,14,-259,-11,54,62,1
4990,13,-258,-11,55,62,-2
4995,15,-252,-10,53,64,1
5000,14,-253,-12,49,65,0
5005,13,-253,-9,44,67,0
5010,13,-254,-12,40,68,-2
5015,12,-255,-13,39,69,-1
5020,16,-254,-12,36,69,-3
5025,15,-252,-11,33,71,-3
5030,16,-250,-11,31,70,-7
5035,15,-252,-14,27,69,-5
5040,13,-251,-14,25,70,-7
5045,17,-253,-13,23,68,-3
5050,15,-254,-11,21,69,-5
5055,15,-256,-10,20,68,-2
5060,13,-255,-14,19,68,-3
5065,17,-256,-8,17,65,1
5070,14,-255,-10,16,63,-1
5075,13,-252,-14,17,60,4
5080,14,-257,-11,17,55,1
5085,13,-256,-14,17,52,5
5090,14,-254,-13,18,50,3
5095,14,-258,-14,20,48,6
5100,15,-256,-13,23,49,5
5105,16,-258,-14,25,49,7
5110,13,-254,-11,25,53,3
5115,14,-257,-9,25,54,8
5120,12,-254,-12,26,55,4
5125,15,-257,-11,25,55,6
5130,13,-256,-10,25,55,3
5135,16,-255,-10,23,56,3
5140,15,-257,-9,22,54,0
5145,13,-253,-9,18,53,0
5150,15,-254,-6,15,52,-4
5155,15,-253,-11,13,50,-3
5160,13,-258,-10,8,50,-5
5165,11,-253,-7,4,49,-3
5170,13,-254,-8,2,45,-4
5175,12,-255,-6,0,39,-1
5180,14,-256,-8,0,35,-1
5185,14,-257,-12,3,31,5
5190,13,-259,-11,6,29,5
5195,14,-257,-14,11,29,10
5200,15,-255,-14,17,29,11
5205,19,-257,-12,21,31,17
5210,15,-257,-13,22,33,17
5215,16,-256,-13,22,36,21
5220,16,-257,-12,25,36,20
5225,15,-256,-10,28,39,22
5230,14,-255,-8,33,42,19
5235,12,-255,-10,39,43,18
5240,16,-253,-12,44,44,13
5245,14,-255,-6,47,49,14
5250,14,-257,-9,48,51,10
5255,12,-253,-9,45,54,11
5260,10,-251,-5,42,58,9
5265,15,-255,-8,38,61,10
5270,8,-252,-8,34,62,7
5275,9,-250,-9,31,64,7
5280,9,-252,-10,26,67,5
5285,11,-253,-7,22,68,6
5290,10,-254,-10,18,69,5
5295,10,-257,-9,16,70,6
5300,12,-257,-10,14,71,3
5305,10,-254,-8,12,70,4
5310,9,-253,-12,9,68,1
5315,12,-254,-10,7,65,2
5320,13,-252,-7,4,65,0
5325,14,-254,-7,3,63,2
5330,12,-256,-13,3,62,1
5335,13,-255,-10,3,61,3
5340,10,-253,-10,3,61,3
5345,13,-254,-9,2,60,2
5350,16,-257,-10,2,60,0
5355,15,-257,-8,2,59,0
5360,15,-257,-11,0,60,-2
5365,15,-258,-10,-2,60,-3
5370,13,-257,-7,-3,60,-5
5375,12,-255,-8,0,60,-4
5380,14,-256,-10,2,60,-4
5385,13,-259,-9,3,60,-4
5390,12,-255,-7,6,59,-4
5395,20,-253,-11,7,59,-3
5400,21,-256,1,10,61,-4
5405,26,-256,1,12,62,-4
5410,19,-256,15,14,61,-8
5415,15,-250,-19,13,62,-7
5420,20,-254,-10,12,63,-7
5425,18,-255,-14,12,62,-8
5430,13,-253,-7,11,63,-8
5435,12,-252,-7,8,64,-8
5440,12,-254,-9,5,65,-5
5445,13,-255,-4,3,63,-4
5450,15,-258,-3,1,64,-1
5455,12,-253,-8,-1,64,-2
5460,14,-253,-4,-3,62,-2
5465,15,-257,-10,-4,60,0
5470,16,-255,-8,-3,57,1
5475,14,-258,-10,1,55,0
5480,16,-256,-6,3,53,1
5485,16,-256,-11,4,52,0
5490,17,-256,-11,3,52,-1
5495,15,-254,-9,-2,52,-1
5500,14,-255,-8,-6,52,-2
5505,13,-255,-8,-8,53,-3
5510,13,-255,-12,-12,53,-3
5515,14,-255,-7,-11,52,-4
5520,12,-255,-9,-11,53,-2
5525,11,-255,-8,-9,55,-4
5530,7,-255,-8,-8,57,-4
5535,11,-256,-8,-4,59,-5
5540,13,-254,-7,-3,61,-2
5545,11,-254,-4,-4,62,-4
5550,12,-255,-6,-5,65,-2
5555,13,-254,-4,-4,66,-3
5560,12,-255,-7,-5,66,-3
5565,17,-254,-12,-3,67,-5
5570,15,-257,-8,-3,67,-3
5575,15,-256,-11,-4,68,-6
5580,14,-253,-7,-4,69,-3
5585,14,-252,-6,-5,68,-4
5590,13,-253,-9,-7,67,-1
5595,15,-254,-9,-8,66,-3
5600,14,-257,-8,-8,65,-3
5605,16,-254,-11,-9,64,-6
5610,15,-255,-7,-8,60,-4
5615,15,-257,-11,-7,58,-7
5620,14,-255,-11,-5,56,-4
5625,16,-252,-11,-5,55,-6
5630,14,-255,-9,-4,55,-3
5635,12,-254,-9,-5,57,-4
5640,15,-256,-2,-6,56,-1
5645,12,-253,-8,-6,58,-1
5650,13,-255,-7,-6,57,1
5655,14,-257,-12,-5,61,-1
5660,13,-257,-8,-6,62,2
5665,12,-256,-9,-5,64,0
5670,12,-254,-6,-5,66,1
5675,13,-255,-9,-5,70,0
5680,13,-254,-7,-5,70,2
5685,12,-256,-7,-7,71,-1
5690,14,-258,-7,-6,73,1
5695,14,-258,-11,-8,75,-2
5700,13,-254,-8,-9,75,-1
5705,14,-253,-7,-10,74,-4
5710,14,-253,-8,-11,74,-2
5715,11,-254,-6,-11,72,-5
5720,8,-253,-7,-12,70,-3
5725,11,-255,-6,-10,69,-5
5730,15,-255,-6,-8,67,-2
5735,11,-254,-3,-5,65,-5
5740,11,-254,-8,-4,62,-1
5745,11,-255,-6,-2,61,-4
5750,13,-254,-8,-3,62,-1
5755,14,-256,-8,-5,60,-3
5760,12,-253,-10,-6,60,1
5765,13,-255,-10,-9,62,0
5770,13,-255,-9,-12,61,0
5775,17,-258,-12,-14,61,-2
5780,14,-256,-8,-17,60,1
5785,12,-257,-8,-19,62,-1
5790,14,-255,-7,-21,60,1
5795,12,-256,-9,-23,59,-2
5800,11,-256,-9,-22,59,1
5805,14,-256,-5,-22,57,-1
5810,10,-252,-5,-21,58,0
5815,12,-254,-13,-20,58,-3
5820,12,-255,-8,-20,57,-2
5825,12,-255,-8,-22,58,-2
5830,14,-258,-8,-23,59,0
5835,13,-257,-6,-22,61,-1
5840,16,-255,-4,-19,61,3
5845,14,-255,-7,-18,64,0
5850,15,-258,-7,-18,66,3
5855,14,-259,-10,-14,68,1
5860,12,-256,-6,-11,70,3
5865,14,-259,-10,-11,72,1
5870,14,-256,-8,-9,72,3
5875,19,-255,-10,-8,73,0
5880,16,-258,-10,-6,73,0
5885,13,-256,-5,-6,72,0
5890,14,-254,-9,-7,69,2
5895,13,-255,-6,-8,66,-3
5900,12,-256,-7,-8,64,-1
5905,13,-256,-8,-9,62,-4
5910,13,-254,-6,-9,60,-1
5915,13,-255,-9,-10,59,-4
5920,13,-256,-6,-11,58,-3
5925,11,-253,-8,-13,59,-3
5930,14,-255,-8,-15,59,-3
5935,12,-255,-8,-16,59,-2
5940,11,-254,-8,-16,60,0
5945,14,-257,-9,-15,59,-1
5950,12,-257,-6,-14,60,2
5955,12,-255,-4,-12,60,1
5960,11,-254,-6,-10,61,3
5965,14,-253,-7,-9,60,3
5970,15,-255,-5,-7,60,3
5975,14,-255,-8,-9,61,1
5980,12,-255,-6,-10,62,3
5985,13,-253,-7,-16,62,1
5990,14,-256,-6,-18,64,2
5995,13,-257,-4,-23,62,1
6000,12,-254,-7,-26,62,1
6005,12,-253,-9,-28,63,0
6010,12,-256,-6,-30,62,0
6015,12,-257,-11,-32,62,-1
6020,12,-259,-5,-32,61,-1
6025,16,-257,-12,-29,60,0
6030,14,-255,-9,-26,59,-2
6035,15,-257,-11,-23,59,-2
6040,14,-259,-9,-20,59,0
6045,15,-257,-7,-20,59,-1
6050,13,-255,-13,-19,59,1
6055,15,-256,-11,-19,59,1
6060,13,-255,-8,-16,58,1
6065,13,-256,-10,-13,56,-1
6070,13,-255,-10,-11,57,-1
6075,12,-255,-10,-7,56,-1
6080,11,-254,-11,-5,57,-1
6085,11,-255,-7,-1,59,0
6090,10,-253,-10,1,61,0
6095,10,-256,-7,7,62,0
6100,9,-256,-5,10,66,1
6105,9,-255,-7,12,69,1
6110,10,-256,-4,12,69,-1
6115,11,-257,-8,10,69,0
6120,11,-253,-8,6,71,-2
6125,13,-253,-7,3,71,-1
6130,12,-253,-8,1,72,-1
6135,11,-257,-8,-2,71,1
6140,13,-253,-8,-5,71,-2
6145,12,-254,-7,-7,68,-1
6150,13,-255,-6,-9,67,-3
6155,13,-253,-10,-12,64,-3
6160,14,-252,-10,-13,64,-4
6165,10,-252,-8,-16,62,-3
6170,13,-257,-6,-17,62,-5
6175,12,-254,-5,-16,61,-4
6180,13,-253,-6,-15,59,-6
6185,15,-255,-9,-14,59,-3
6190,16,-255,-7,-13,59,-5
6195,11,-254,-12,-10,60,-2
6200,13,-255,-5,-6,61,-4
6205,13,-256,-7,-4,60,-3
6210,12,-257,-7,-1,61,-3
6215,16,-258,-5,0,62,-1
6220,12,-255,-7,3,63,-1
6225,14,-257,-6,4,63,1
6230,14,-257,-8,5,63,0
6235,14,-254,-3,4,64,2
6240,13,-256,-6,4,63,1
6245,14,-254,-6,4,62,3
6250,11,-253,-8,4,61,0
6255,13,-253,-6,4,63,4
6260,16,-253,-4,5,63,1
6265,15,-254,-8,3,63,3
6270,10,-257,-6,1,63,1
6275,14,-255,-7,-1,65,2
6280,13,-255,-2,0,65,-1
6285,11,-253,-8,0,66,3
6290,13,-255,-7,0,65,1
6295,12,-254,-7,-3,67,3
6300,15,-254,-5,-4,67,3
6305,12,-251,-5,-6,66,3
6310,12,-252,-6,-8,64,-1
6315,14,-252,-10,-8,65,-1
6320,13,-254,-7,-11,62,-2
6325,15,-252,-9,-14,59,0
6330,12,-251,-4,-18,57,-3
6335,14,-253,-5,-21,56,-1
6340,12,-251,-5,-25,53,-3
6345,13,-254,-6,-26,49,-1
6350,15,-257,-11,-27,48,-2
6355,15,-256,-7,-25,45,0
6360,12,-258,-7,-24,44,0
6365,14,-256,-9,-23,44,3
6370,16,-258,-6,-21,45,3
6375,15,-259,-13,-19,44,5
6380,13,-256,-7,-19,49,4
6385,14,-259,-7,-18,52,7
6390,12,-256,-6,-17,54,5
6395,12,-257,-10,-15,59,6
6400,13,-259,-10,-12,62,4
6405,9,-257,-10,-6,68,5
6410,13,-258,-8,-5,71,1
6415,11,-257,-5,-2,74,2
6420,12,-259,-8,1,77,-2
6425,11,-255,-9,2,77,-1
6430,12,-255,-6,6,75,-5
6435,11,-253,-7,9,73,-5
6440,11,-255,-4,10,72,-8
6445,12,-256,-4,11,70,-5
6450,11,-257,-7,13,65,-8
6455,11,-257,-6,15,65,-6
6460,10,-252,-9,14,60,-8
6465,10,-256,-7,15,56,-5
6470,10,-258,-2,17,53,-7
6475,11,-257,-5,19,51,-3
6480,14,-255,-9,19,48,-4
6485,11,-257,-4,21,46,-1
6490,15,-257,-11,21,46,-1
6495,15,-257,-8,22,48,3
6500,12,-258,-6,21,50,4
6505,13,-258,-8,22,50,7
6510,14,-256,-7,24,52,6
6515,14,-256,-6,26,57,8
6520,11,-255,-10,29,58,6
6525,9,-255,-9,33,57,6
6530,11,-256,-4,36,60,2
6535,9,-254,-6,38,64,1
6540,9,-253,-10,40,63,-2
6545,12,-252,-9,42,65,-2
6550,10,-253,-4,42,67,-4
6555,11,-253,-6,40,68,-3
6560,10,-251,-3,37,68,-7
6565,11,-253,-4,34,67,-5
6570,13,-251,-4,31,66,-7
6575,10,-253,-4,26,65,-5
6580,12,-252,-4,23,63,-8
6585,12,-254,-2,20,58,-4
6590,13,-251,-8,17,55,-4
6595,14,-253,1,11,51,-2
6600,14,-253,1,6,50,-3
6605,15,-255,-5,2,47,0
6610,16,-254,-5,-2,45,-1
6615,14,-255,-6,-3,43,2
6620,15,-254,-11,-2,41,1
6625,13,-254,-8,0,40,1
6630,13,-256,-6,3,40,0
6635,14,-258,-4,8,39,3
6640,16,-259,-6,11,41,2
6645,13,-257,-9,14,42,4
6650,15,-259,-7,24,43,3
6655,15,-257,-5,28,46,2
6660,12,-258,-2,33,49,1
6665,13,-256,-3,38,52,1
6670,11,-256,-1,42,57,-1
6675,11,-254,-7,45,61,-1
6680,12,-255,-3,46,66,-2
6685,15,-255,-1,47,67,-2
6690,11,-250,-1,43,69,-2
6695,12,-251,0,38,69,-1
6700,15,-252,-5,31,69,-2
6705,13,-248,-1,22,67,0
6710,12,-251,-1,13,67,0
6715,13,-251,-6,4,68,1
6720,13,-252,-2,-3,67,3
6725,12,-249,-3,-9,67,3
6730,13,-252,-4,-15,66,2
6735,11,-250,-4,-21,61,4
6740,14,-252,-5,-28,58,4
6745,15,-252,-3,-32,55,4
6750,13,-255,-4,-35,52,5
6755,13,-257,-4,-36,50,7
6760,13,-257,-6,-35,49,7
6765,12,-256,0,-34,48,7
6770,13,-258,-6,-31,46,9
6775,15,-256,-3,-28,45,8
6780,12,-259,-8,-27,45,11
6785,13,-258,-6,-25,46,10
6790,12,-256,-5,-19,46,10
6795,14,-260,0,-16,46,10
6800,10,-258,-3,-11,48,10
6805,9,-259,-5,-7,46,10
6810,9,-258,-6,-4,47,11
6815,13,-258,-4,0,47,9
6820,10,-255,-6,5,48,9
6825,11,-255,-2,5,48,8
6830,10,-256,-1,10,49,9
6835,11,-252,-6,14,51,8
6840,10,-253,-4,15,52,10
6845,11,-254,-1,15,55,7
6850,12,-253,-2,15,55,8
6855,11,-254,3,15,58,6
6860,10,-254,-1,13,59,6
6865,10,-252,-5,10,60,6
6870,8,-255,-2,7,61,7
6875,13,-255,1,4,61,5
6880,13,-255,-4,0,61,5
6885,13,-253,-4,-3,61,1
6890,11,-254,-5,-2,61,4
6895,11,-253,0,-7,61,2
6900,12,-253,-2,-9,59,2
6905,14,-253,-4,-9,57,0
6910,10,-256,0,-9,57,3
6915,11,-255,-2,-11,55,1
6920,9,-253,-4,-9,56,5
6925,12,-255,-4,-7,56,2
6930,11,-258,0,-7,57,4
6935,11,-255,-2,-6,58,1
6940,12,-256,-4,-6,60,4
6945,13,-254,-5,-4,61,2
6950,11,-255,-3,-5,61,5
6955,10,-255,-4,-5,61,3
6960,11,-254,-1,-7,61,3
6965,12,-255,-6,-9,61,0
6970,12,-255,-3,-10,61,2
6975,14,-255,-1,-12,61,-1
6980,11,-255,-6,-14,61,-1
6985,12,-255,-2,-14,63,-4
6990,10,-256,-1,-12,63,-1
6995,12,-257,-4,-10,64,-5
7000,10,-256,-3,-6,64,-3
7005,11,-253,-3,-5,66,-5
7010,12,-254,-7,-4,66,0
7015,9,-254,-3,-4,66,-3
7020,11,-255,-1,-4,64,-1
7025,10,-254,-6,-4,62,-1
7030,11,-258,-1,-4,62,0
7035,11,-256,-2,-5,61,-1
7040,10,-255,0,-7,59,1
7045,14,-257,-3,-8,58,-1
7050,12,-251,-2,-12,57,0
7055,10,-255,-3,-14,57,-2
7060,12,-255,-3,-17,54,2
7065,13,-255,-5,-19,55,-1
7070,16,-256,-3,-22,55,1
7075,12,-253,-3,-24,56,-3
7080,15,-253,-2,-25,56,-1
7085,9,-256,-2,-26,56,-4
7090,9,-254,-6,-26,58,-3
7095,12,-257,-3,-24,60,-5
7100,11,-255,-6,-22,59,-3
7105,9,-256,-2,-18,60,-6
7110,11,-257,-2,-15,59,-3
7115,9,-256,-1,-12,62,-5
7120,9,-255,-2,-9,64,-4
7125,9,-256,-2,-6,66,-7
7130,8,-256,1,-5,67,-5
7135,10,-255,-2,-5,68,-7
7140,11,-255,-2,-3,67,-6
7145,10,-257,-4,-3,65,-7
7150,11,-254,-4,-2,63,-4
7155,13,-256,-6,-2,65,-8
7160,14,-258,-7,-5,64,-6
7165,15,-256,-4,-9,65,-8
7170,14,-256,-5,-10,62,-7
7175,15,-255,-7,-12,61,-11
7180,11,-255,-6,-14,61,-10
7185,12,-257,-1,-13,59,-11
7190,12,-253,-4,-14,57,-10
7195,9,-252,-1,-14,58,-11
7200,11,-254,-5,-13,57,-10
7205,9,-255,-2,-11,57,-11
7210,11,-256,-3,-10,58,-11
7215,11,-258,-1,-9,59,-12
7220,13,-255,-1,-7,60,-10
7225,10,-255,-2,-6,61,-12
7230,13,-253,-5,-2,62,-12
7235,12,-254,-2,0,64,-14
7240,9,-258,-6,2,63,-14
7245,8,-255,-7,1,65,-16
7250,11,-257,1,0,66,-14
7255,11,-255,-2,-1,65,-15
7260,13,-257,-3,-1,66,-11
7265,10,-254,-3,1,65,-11
7270,11,-255,0,3,64,-11
7275,12,-257,-5,4,65,-11
7280,11,-258,-2,7,65,-11
7285,14,-256,-6,10,65,-13
7290,11,-257,-6,14,66,-12
7295,13,-255,-8,19,64,-11
7300,12,-257,-4,23,65,-8
7305,15,-256,-1,25,65,-9
7310,13,-259,-2,29,65,-6
7315,15,-258,-4,33,67,-5
7320,12,-256,-2,37,67,-4
7325,13,-258,0,42,67,-3
7330,10,-256,-1,45,66,-1
7335,11,-256,-2,46,63,-1
7340,11,-253,-1,47,61,-2
7345,11,-253,-4,46,60,-3
7350,15,-254,-3,43,59,-6
7355,15,-258,-3,41,59,-9
7360,12,-258,1,43,60,-12
7365,12,-261,1,47,62,-15
7370,11,-267,3,53,67,-20
7375,11,-266,3,58,65,-24
7380,9,-264,3,61,63,-29
7385,6,-264,8,57,64,-28
7390,4,-259,10,46,66,-24
7395,2,-249,14,14,67,-17
7400,5,-246,15,-37,65,-7
7405,6,-239,13,-96,60,2
7410,3,-239,8,-169,46,6
7415,7,-239,8,-260,21,0
7420,8,-238,4,-368,-12,-16
7425,8,-231,7,-493,-53,-39
7430,5,-222,6,-642,-104,-63
7435,12,-214,-8,-805,-159,-71
7440,17,-210,-14,-983,-210,-73
7445,16,-197,-23,-1215,-251,-64
7450,18,-185,-21,-1429,-276,-52
7455,18,-169,-29,-1669,-294,-33
7460,18,-166,-41,-1910,-313,-12
7465,20,-166,-54,-2132,-334,17
7470,22,-189,-63,-2299,-353,55
7475,27,-227,-73,-2359,-363,100
7480,29,-279,-75,-2268,-358,138
7485,30,-326,-64,-2010,-335,172
7490,30,-352,-61,-1624,-279,201
7495,21,-362,-55,-1097,-215,216
7500,17,-354,-48,-681,-153,214
7505,13,-330,-47,-318,-115,199
7510,5,-304,-48,-24,-104,179
7515,3,-286,-45,196,-114,159
7520,-1,-265,-44,346,-129,140
7525,-5,-259,-44,437,-145,132
7530,-7,-251,-44,492,-158,131
7535,-9,-238,-41,509,-166,136
7540,-11,-228,-32,482,-171,135
7545,-8,-226,-23,398,-169,133
7550,-9,-227,-15,303,-158,121
7555,-10,-232,-3,206,-141,113
7560,-9,-235,-2,119,-116,100
7565,-10,-240,7,54,-85,93
7570,-10,-247,12,19,-57,90
7575,-9,-248,16,14,-42,91
7580,-6,-251,11,21,-37,89
7585,0,-247,9,33,-41,96
7590,4,-243,7,34,-46,99
7595,12,-236,4,17,-56,106
7600,15,-230,-5,-22,-70,105
7605,17,-223,-10,-75,-81,107
7610,21,-219,-11,-136,-88,106
7615,23,-215,-19,-203,-86,110
7620,22,-213,-23,-266,-81,109
7625,21,-210,-27,-331,-71,111
7630,21,-209,-27,-395,-63,109
7635,21,-210,-28,-463,-65,111
7640,17,-210,-36,-539,-71,102
7645,16,-211,-33,-645,-75,98
7650,16,-213,-28,-737,-78,86
7655,17,-215,-31,-828,-78,78
7660,10,-223,-25,-915,-75,66
7665,-2,-228,-22,-994,-71,62
7670,-5,-240,-18,-1068,-73,55
7675,-7,-244,-17,-1129,-79,55
7680,1,-251,-16,-1173,-84,51
7685,4,-254,-18,-1202,-83,54
7690,7,-257,-25,-1215,-75,57
7695,5,-258,-28,-1222,-66,64
7700,10,-260,-37,-1234,-56,67
7705,13,-260,-40,-1250,-45,69
7710,16,-260,-48,-1271,-32,59
7715,13,-263,-55,-1296,-13,53
7720,12,-261,-56,-1323,7,36
7725,12,-269,-54,-1345,27,22
7730,8,-274,-55,-1351,47,3
7735,7,-280,-49,-1326,60,-5
7740,5,-282,-47,-1267,80,-3
7745,8,-285,-36,-1176,91,17
7750,5,-286,-25,-1078,89,40
7755,1,-291,-18,-963,72,74
7760,-2,-291,-8,-837,31,102
7765,-10,-293,-10,-717,-25,134
7770,-11,-284,-18,-607,-89,155
7775,-11,-267,-33,-533,-144,172
7780,-22,-240,-53,-496,-185,174
7785,-25,-208,-75,-506,-220,172
7790,-33,-173,-103,-560,-260,170
7795,-36,-149,-125,-684,-276,184
7800,-36,-137,-152,-823,-282,208
7805,-34,-145,-154,-990,-274,241
7810,-28,-190,-137,-1146,-247,279
7815,-17,-236,-105,-1251,-215,323
7820,-3,-280,-82,-1312,-190,357
7825,22,-312,-70,-1328,-167,386
7830,33,-313,-68,-1335,-130,389
7835,37,-315,-84,-1348,-88,378
7840,37,-324,-113,-1385,-42,346
7845,33,-328,-134,-1407,-13,315
7850,31,-346,-148,-1388,5,274
7855,25,-354,-150,-1304,8,244
7860,11,-364,-142,-1221,-12,207
7865,-3,-364,-133,-1167,-44,168
7870,-13,-372,-124,-1126,-76,136
7875,-28,-371,-120,-1088,-113,116
7880,-37,-366,-133,-1067,-156,94
7885,-36,-362,-157,-1042,-195,77
7890,-24,-352,-167,-1027,-234,62
7895,-16,-343,-174,-1024,-239,59
7900,-7,-336,-169,-1037,-228,57
7905,-2,-330,-160,-1045,-219,61
7910,-1,-329,-162,-1047,-212,66
7915,-1,-330,-162,-1059,-204,72
7920,-6,-335,-167,-1066,-182,76
7925,-9,-331,-168,-1059,-149,75
7930,-14,-330,-170,-1048,-108,68
7935,-26,-322,-172,-1032,-70,59
7940,-28,-314,-183,-1014,-30,49
7945,-29,-308,-182,-984,-2,45
7950,-31,-296,-184,-981,12,50
7955,-35,-291,-187,-981,17,63
7960,-30,-281,-185,-971,24,77
7965,-25,-271,-191,-966,31,94
7970,-26,-262,-193,-967,44,114
7975,-24,-265,-203,-978,65,129
7980,-22,-265,-202,-997,97,140
7985,-28,-262,-205,-1003,130,145
7990,-26,-266,-199,-1002,164,150
7995,-29,-266,-203,-984,183,157
8000,-35,-263,-195,-960,193,157
8005,-34,-264,-199,-927,190,156
8010,-36,-261,-204,-906,187,150
8015,-37,-263,-206,-899,191,153
8020,-38,-265,-206,-888,202,162
8025,-34,-263,-210,-863,217,177
8030,-33,-267,-214,-847,231,197
8035,-28,-278,-220,-831,248,217
8040,-29,-283,-221,-794,268,230
8045,-25,-285,-222,-749,276,241
8050,-21,-281,-220,-679,284,242
8055,-23,-271,-215,-614,291,229
8060,-21,-267,-219,-572,298,208
8065,-20,-263,-208,-545,300,178
8070,-22,-263,-205,-533,301,147
8075,-23,-260,-203,-523,301,108
8080,-23,-258,-209,-507,303,68
8085,-21,-251,-216,-487,310,24
8090,-21,-243,-218,-495,330,-6
8095,-15,-235,-216,-527,352,-26
8100,-15,-234,-218,-567,370,-41
8105,-12,-229,-219,-611,379,-51
8110,-6,-229,-208,-650,377,-60
8115,2,-223,-206,-677,359,-69
8120,3,-221,-203,-701,335,-81
8125,7,-220,-199,-726,302,-103
8130,5,-213,-192,-761,271,-132
8135,7,-211,-190,-801,246,-176
8140,2,-203,-179,-865,224,-215
8145,6,-205,-179,-925,211,-252
8150,3,-211,-176,-980,206,-282
8155,10,-208,-171,-1013,199,-305
8160,6,-213,-166,-1031,198,-318
8165,11,-216,-160,-1029,191,-326
8170,11,-216,-165,-1014,182,-330
8175,15,-219,-167,-983,176,-332
8180,14,-217,-179,-941,179,-323
8185,7,-219,-181,-896,200,-310
8190,8,-221,-186,-830,230,-288
8195,1,-220,-198,-786,259,-270
8200,-1,-222,-197,-770,307,-260
8205,-10,-216,-198,-747,337,-259
8210,-6,-217,-193,-717,366,-249
8215,-12,-211,-195,-700,397,-243
8220,-12,-204,-188,-702,412,-238
8225,-15,-203,-189,-712,410,-236
8230,-11,-206,-184,-728,395,-228
8235,-12,-207,-183,-743,378,-227
8240,-7,-211,-191,-735,347,-224
8245,-3,-212,-190,-721,322,-229
8250,0,-214,-193,-692,300,-232
8255,5,-218,-188,-656,284,-240
8260,10,-218,-191,-607,267,-244
8265,16,-208,-195,-549,267,-254
8270,22,-210,-188,-478,273,-260
8275,13,-204,-190,-397,275,-272
8280,16,-193,-192,-311,278,-270
8285,26,-202,-188,-238,288,-260
8290,4,-189,-199,-167,305,-236
8295,16,-177,-201,-120,334,-211
8300,20,-187,-193,-84,370,-183
8305,20,-193,-195,-54,406,-164
8310,18,-194,-192,-23,435,-145
8315,17,-197,-188,8,451,-131
8320,18,-198,-187,36,465,-114
8325,18,-201,-185,70,469,-103
8330,13,-201,-180,106,468,-89
8335,12,-200,-174,144,456,-76
8340,14,-205,-173,195,437,-62
8345,13,-204,-170,234,418,-53
8350,16,-208,-169,269,404,-36
8355,14,-202,-169,304,394,-24
8360,14,-203,-170,327,386,-14
8365,21,-204,-167,345,382,-11
8370,19,-204,-171,356,384,-5
8375,26,-202,-168,360,398,-6
8380,26,-202,-167,368,418,-5
8385,31,-203,-167,389,445,-6
8390,29,-198,-161,424,462,-6
8395,31,-197,-158,456,469,-3
8400,32,-197,-160,492,465,7
8405,37,-197,-157,526,448,17
8410,37,-194,-162,559,424,28
8415,37,-195,-159,584,394,31
8420,34,-193,-158,601,360,39
8425,32,-192,-156,611,323,38
8430,30,-191,-155,614,285,43
8435,28,-190,-140,616,244,46
8440,24,-196,-147,626,218,54
8445,21,-193,-142,645,201,59
8450,16,-197,-129,676,190,70
8455,14,-197,-129,715,188,75
8460,7,-197,-119,763,196,86
8465,1,-197,-117,814,208,92
8470,-5,-197,-107,871,223,105
8475,-7,-199,-100,933,236,113
8480,-9,-200,-95,1005,252,124
8485,-7,-197,-87,1083,272,129
8490,-5,-196,-76,1190,284,136
8495,-7,-192,-72,1289,292,140
8500,-7,-190,-70,1385,294,147
8505,-7,-180,-66,1485,290,144
8510,-3,-170,-62,1577,290,141
8515,3,-165,-63,1658,298,126
8520,4,-153,-67,1723,310,108
8525,6,-146,-70,1764,322,87
8530,8,-133,-69,1778,331,67
8535,7,-119,-72,1776,337,37
8540,8,-113,-76,1753,338,17
8545,-1,-97,-70,1718,334,-8
8550,17,-96,-75,1671,322,-27
8555,15,-88,-78,1620,308,-52
8560,15,-83,-76,1566,290,-72
8565,12,-76,-79,1515,275,-88
8570,12,-68,-70,1475,263,-89
8575,13,-57,-67,1481,245,-78
8580,15,-55,-64,1496,218,-62
8585,15,-47,-56,1517,185,-54
8590,8,-38,-53,1588,158,-42
8595,10,-34,-56,1664,136,-24
8600,14,-27,-71,1700,126,-4
8605,7,-21,-78,1675,125,4
8610,4,-17,-86,1613,133,14
8615,10,-13,-92,1527,141,23
8620,17,-17,-112,1419,146,30
8625,21,-22,-118,1296,150,29
8630,21,-25,-117,1162,156,21
8635,23,-33,-116,1021,154,5
8640,21,-41,-119,867,144,-7
8645,18,-52,-126,752,131,-18
8650,15,-66,-126,652,111,-25
8655,11,-78,-132,558,85,-31
8660,8,-90,-138,471,51,-30
8665,3,-107,-145,397,10,-24
8670,1,-122,-149,326,-41,-11
8675,-2,-139,-154,258,-93,6
8680,0,-156,-166,198,-140,26
8685,8,-183,-177,148,-182,53
8690,11,-200,-186,104,-206,75
8695,13,-224,-203,87,-224,96
8700,19,-249,-216,73,-235,117
8705,20,-269,-220,61,-243,136
8710,24,-294,-228,48,-247,155
8715,30,-322,-224,49,-243,171
8720,39,-342,-216,65,-222,185
8725,44,-364,-198,116,-180,200
8730,52,-382,-178,208,-114,214
8735,56,-391,-152,330,-10,223
8740,55,-390,-130,503,80,221
8745,54,-386,-117,660,161,208
8750,52,-374,-107,816,231,197
8755,51,-351,-101,968,296,185
8760,49,-330,-102,1110,346,174
8765,52,-309,-101,1234,388,164
8770,51,-283,-102,1334,413,151
8775,51,-258,-107,1403,431,138
8780,51,-233,-107,1440,440,115
8785,51,-212,-106,1440,447,82
8790,49,-190,-106,1412,448,53
8795,39,-168,-101,1353,444,22
8800,29,-150,-98,1271,433,-9
8805,20,-133,-94,1169,415,-36
8810,9,-126,-80,1054,393,-59
8815,-4,-120,-76,926,369,-74
8820,-12,-121,-71,788,346,-89
8825,-18,-120,-64,644,326,-98
8830,-24,-121,-59,501,315,-106
8835,-31,-122,-56,324,306,-103
8840,-31,-128,-63,171,300,-94
8845,-24,-132,-68,10,297,-85
8850,-15,-141,-83,-151,296,-73
8855,-6,-157,-95,-306,298,-58
8860,6,-169,-95,-447,294,-49
8865,19,-189,-101,-570,276,-40
8870,32,-207,-102,-674,244,-41
8875,37,-231,-102,-753,197,-40
8880,48,-251,-109,-801,142,-41
8885,52,-267,-121,-805,77,-41
8890,56,-279,-133,-759,31,-39
8895,61,-286,-141,-673,8,-31
8900,61,-293,-150,-556,11,-17
8905,66,-295,-160,-428,43,3
8910,63,-295,-162,-298,90,19
8915,57,-292,-162,-163,146,38
8920,52,-287,-154,-32,195,53
8925,44,-277,-147,88,233,70
8930,33,-269,-140,188,258,86
8935,27,-263,-139,276,276,103
8940,19,-257,-131,323,281,120
8945,12,-248,-123,345,278,135
8950,7,-247,-118,347,266,139
8955,-1,-240,-109,337,246,143
8960,-3,-240,-102,314,227,138
8965,-7,-238,-95,291,208,133
8970,-5,-236,-85,276,189,118
8975,-6,-232,-86,270,178,107
8980,-6,-228,-78,266,168,90
8985,-7,-227,-71,257,157,79
8990,-4,-227,-67,247,152,62
8995,1,-228,-63,232,147,50
9000,8,-227,-60,213,141,33
9005,10,-231,-61,189,133,22
9010,10,-230,-61,158,123,8
9015,16,-230,-64,124,109,-2
9020,15,-231,-61,89,92,-13
9025,17,-232,-67,51,73,-17
9030,16,-230,-74,18,52,-21
9035,16,-232,-81,-18,35,-19
9040,14,-234,-79,-37,22,-17
9045,10,-231,-83,-48,12,-9
9050,10,-235,-84,-54,4,-5
9055,10,-232,-83,-57,-6,5
9060,10,-237,-85,-57,-12,10
9065,12,-240,-85,-56,-12,20
9070,12,-238,-85,-55,-12,27
9075,13,-242,-87,-55,-7,38
9080,14,-240,-89,-59,-5,46
9085,17,-242,-88,-71,0,54
9090,17,-241,-90,-84,7,55
9095,21,-242,-87,-98,12,60
9100,22,-241,-92,-111,19,60
9105,23,-244,-93,-119,26,62
9110,20,-239,-92,-120,37,58
9115,27,-246,-88,-114,48,60
9120,28,-241,-90,-104,60,56
9125,26,-240,-83,-92,69,56
9130,27,-241,-84,-82,81,49
9135,32,-245,-85,-76,92,49
9140,33,-240,-85,-76,102,43
9145,35,-245,-83,-81,116,41
9150,33,-245,-87,-89,130,35
9155,33,-247,-87,-101,144,35
9160,30,-246,-90,-112,155,29
9165,29,-248,-87,-119,164,27
9170,26,-247,-88,-122,171,22
9175,23,-249,-86,-119,176,23
9180,23,-247,-87,-108,175,20
9185,18,-250,-87,-92,172,22
9190,17,-251,-84,-74,167,20
9195,13,-247,-85,-58,162,25
9200,15,-250,-86,-42,154,25
9205,12,-248,-84,-30,147,28
9210,10,-245,-82,-23,138,29
9215,12,-248,-83,-18,130,32
9220,9,-245,-82,-18,126,35
9225,8,-245,-81,-20,120,37
9230,9,-245,-79,-22,112,38
9235,9,-251,-77,-27,107,42
9240,9,-250,-79,-32,102,41
9245,7,-250,-78,-38,97,42
9250,10,-253,-83,-45,94,40
9255,13,-253,-81,-49,93,40
9260,10,-248,-81,-56,96,36
9265,15,-251,-81,-60,100,37
9270,15,-252,-78,-61,106,35
9275,14,-247,-85,-59,114,33
9280,15,-247,-83,-52,121,31
9285,17,-246,-79,-44,124,30
9290,16,-243,-83,-34,127,27
9295,17,-244,-82,-26,127,26
9300,18,-244,-78,-17,127,24
9305,20,-245,-83,-9,127,24
9310,22,-245,-83,-1,130,23
9315,22,-245,-78,3,134,25
9320,22,-247,-80,3,136,25
9325,24,-246,-80,5,136,26
9330,23,-246,-83,0,138,26
9335,24,-244,-86,-8,138,26
9340,22,-243,-86,-16,136,24
9345,20,-240,-88,-26,135,23
9350,20,-240,-90,-36,134,21
9355,22,-241,-85,-44,134,21
9360,19,-240,-86,-50,135,19
9365,19,-240,-86,-52,136,16
9370,21,-245,-82,-56,138,17
9375,18,-243,-86,-59,144,15
9380,20,-245,-84,-60,150,14
9385,23,-245,-86,-62,154,13
9390,20,-247,-83,-65,158,13
9395,22,-247,-89,-67,158,11
9400,20,-248,-85,-67,156,11
9405,19,-248,-87,-70,153,9
9410,19,-245,-87,-72,148,7
9415,19,-248,-85,-72,143,5
9420,18,-245,-86,-69,139,6
9425,17,-247,-91,-63,134,5
9430,18,-243,-84,-55,132,3
9435,18,-243,-87,-51,130,3
9440,16,-244,-86,-45,132,2
9445,17,-242,-84,-42,132,-1
9450,16,-243,-87,-37,133,-2
9455,16,-240,-85,-30,136,-2
9460,19,-241,-82,-29,139,-1
9465,22,-240,-84,-32,142,-2
9470,20,-244,-85,-40,145,0
9475,18,-240,-84,-49,149,2
9480,23,-245,-83,-61,154,3
9485,19,-244,-87,-70,158,1
9490,21,-245,-89,-77,158,4
9495,19,-245,-85,-81,157,5
9500,17,-248,-86,-80,158,7
9505,19,-244,-89,-77,157,7
9510,19,-244,-88,-75,158,11
9515,18,-244,-86,-72,161,9
9520,19,-247,-87,-65,163,12
9525,16,-242,-87,-58,165,11
9530,14,-242,-85,-52,166,14
9535,15,-245,-87,-46,166,16
9540,15,-243,-83,-42,164,17
9545,14,-241,-81,-37,161,17
9550,15,-241,-79,-32,156,19
9555,13,-243,-83,-30,152,17
9560,16,-243,-78,-30,146,17
9565,17,-244,-82,-32,144,15
9570,14,-243,-81,-34,141,17
9575,18,-242,-82,-39,137,14
9580,15,-244,-79,-43,135,15
9585,16,-243,-81,-47,134,12
9590,17,-246,-81,-49,133,13
9595,14,-246,-81,-50,132,11
9600,13,-247,-83,-47,130,14
9605,13,-246,-76,-44,125,11
9610,12,-248,-77,-39,119,14
9615,15,-251,-75,-30,114,13
9620,15,-252,-76,-22,112,17
9625,18,-252,-83,-15,111,16
9630,17,-254,-82,-13,114,18
9635,19,-252,-86,-15,115,15
9640,18,-254,-86,-18,120,16
9645,17,-252,-87,-25,123,14
9650,20,-251,-85,-28,125,16
9655,17,-253,-90,-29,126,13
9660,15,-250,-86,-26,127,15
9665,15,-250,-85,-22,126,11
9670,14,-247,-86,-14,126,14
9675,14,-244,-85,-7,127,10
9680,13,-246,-87,3,128,12
9685,13,-244,-85,11,129,10
9690,13,-242,-83,16,129,11
9695,11,-237,-86,19,128,9
9700,13,-237,-82,20,128,10
9705,13,-239,-80,16,125,7
9710,11,-239,-83,13,124,9
9715,13,-237,-79,9,123,6
9720,13,-237,-78,3,120,8
9725,13,-240,-81,-2,116,5
9730,16,-241,-81,-9,113,7
9735,13,-240,-83,-15,110,5
9740,15,-241,-80,-20,104,9
9745,13,-241,-82,-26,99,7
9750,16,-241,-82,-30,92,9
9755,14,-244,-81,-32,87,7
9760,15,-243,-79,-35,82,10
9765,13,-242,-78,-36,77,8
9770,13,-245,-80,-34,71,11
9775,13,-249,-77,-24,65,10
9780,13,-250,-76,-14,62,13
9785,18,-255,-77,3,58,11
9790,18,-254,-79,21,55,13
9795,10,-251,-82,33,57,11
9800,15,-251,-83,43,56,13
9805,14,-253,-81,47,56,10
9810,15,-252,-82,47,56,10
9815,12,-250,-82,46,55,8
9820,14,-247,-86,43,52,7
9825,13,-249,-83,40,51,2
9830,10,-248,-82,40,51,6
9835,12,-246,-82,41,50,2
9840,12,-244,-81,43,51,5
9845,13,-246,-76,45,50,5
9850,11,-243,-78,48,51,9
9855,11,-241,-76,47,50,7
9860,16,-247,-79,46,49,9
9865,13,-243,-79,43,48,9
9870,13,-246,-84,38,45,10
9875,17,-243,-83,31,43,7
9880,18,-246,-82,23,43,7
9885,16,-244,-79,15,45,3
9890,19,-246,-80,8,47,3
9895,16,-245,-81,3,45,0
9900,18,-245,-81,-2,45,1
9905,16,-245,-82,-1,46,-1
9910,16,-245,-77,2,45,-1
9915,16,-246,-77,6,45,0
9920,17,-247,-81,15,44,2
9925,16,-243,-81,26,43,0
9930,15,-246,-77,36,43,3
9935,17,-247,-79,41,46,2
9940,16,-245,-79,44,48,5
9945,16,-244,-81,43,48,3
9950,16,-246,-84,39,48,5
9955,16,-244,-83,36,47,4
9960,16,-244,-78,32,46,4
9965,16,-245,-80,27,45,2
9970,16,-244,-81,25,42,4
9975,18,-249,-82,25,40,3
9980,16,-249,-79,27,38,5
9985,16,-249,-80,30,38,6
9990,16,-250,-84,34,36,8
9995,13,-247,-78,38,33,8
10000,14,-247,-77,41,29,9
10005,17,-249,-78,43,27,8
10010,11,-244,-80,44,22,7
10015,13,-242,-78,42,19,7
10020,15,-243,-82,38,15,6
10025,16,-240,-83,34,12,3
10030,19,-244,-83,29,10,2
10035,17,-239,-78,21,5,0
10040,18,-240,-77,8,4,1
10045,20,-239,-78,-3,3,0
10050,18,-240,-83,-18,1,-1
10055,20,-245,-77,-30,2,-1
10060,21,-245,-80,-41,4,-3
10065,20,-245,-76,-47,7,-2
10070,17,-251,-76,-45,13,0
10075,17,-250,-76,-39,18,-2
10080,20,-249,-80,-27,21,1
10085,20,-251,-82,-14,24,1
10090,17,-246,-76,-2,25,1
10095,21,-246,-76,9,26,1
10100,22,-247,-84,16,24,0
10105,23,-246,-82,16,23,-1
10110,18,-244,-81,14,21,-2
10115,20,-245,-80,15,19,-2
10120,21,-248,-78,13,18,-3
10125,22,-247,-80,14,19,-3
10130,22,-247,-79,11,22,-4
10135,19,-246,-81,12,25,-2
10140,21,-246,-77,13,29,-2
10145,22,-247,-79,11,34,0
10150,19,-245,-81,9,39,-2
10155,20,-245,-80,9,45,2
10160,18,-246,-81,6,51,2
10165,21,-246,-76,6,55,3
10170,18,-243,-77,5,58,4
10175,20,-246,-77,4,58,5
10180,20,-247,-79,3,58,5
10185,18,-245,-75,2,54,8
10190,18,-242,-76,-2,52,6
10195,20,-244,-79,-8,49,9
10200,20,-243,-78,-15,43,6
10205,20,-243,-75,-20,37,6
10210,18,-243,-78,-28,32,5
10215,17,-243,-78,-35,27,7
10220,16,-242,-79,-43,23,5
10225,17,-246,-80,-43,22,8
10230,17,-248,-75,-41,21,7
10235,15,-246,-77,-35,20,9
10240,15,-248,-78,-28,24,7
10245,15,-246,-76,-18,27,9
10250,13,-247,-79,-8,31,6
10255,17,-247,-78,0,34,8
10260,13,-244,-79,7,34,6
10265,15,-249,-78,10,33,7
10270,14,-244,-80,12,29,5
10275,16,-245,-82,8,25,4
10280,17,-247,-80,4,21,1
10285,18,-248,-80,-2,17,1
10290,16,-248,-81,-5,14,-1
10295,19,-248,-83,-5,13,2
10300,17,-250,-77,-3,15,-1
10305,18,-250,-80,2,17,3
10310,18,-249,-79,4,20,3
10315,21,-248,-80,5,26,6
10320,17,-248,-79,6,30,5
10325,20,-245,-78,5,33,7
10330,20,-247,-80,5,34,4
10335,17,-246,-81,4,37,7
10340,18,-245,-77,5,39,6
10345,17,-247,-78,4,42,9
10350,17,-243,-79,3,45,6
10355,19,-244,-79,5,45,9
10360,19,-244,-81,5,47,4
10365,19,-245,-82,3,49,5
10370,18,-238,-80,0,50,3
10375,20,-243,-80,-7,51,5
10380,16,-241,-85,-16,51,2
10385,17,-243,-78,-26,51,3
10390,15,-244,-79,-35,52,-1
10395,15,-244,-84,-39,52,1
10400,17,-247,-77,-42,51,-3
10405,16,-243,-79,-36,52,-2
10410,15,-246,-81,-30,54,-4
10415,17,-243,-81,-25,56,0
10420,16,-243,-82,-19,56,-3
10425,18,-243,-80,-15,57,-1
10430,12,-243,-85,-13,53,-3
10435,15,-243,-82,-14,51,0
10440,16,-244,-77,-15,46,-4
10445,15,-244,-80,-14,43,-2
10450,17,-242,-81,-17,41,-3
10455,17,-244,-79,-17,39,-2
10460,16,-246,-80,-20,39,-3
10465,20,-248,-82,-24,39,-1
10470,19,-246,-83,-27,39,-3
10475,17,-246,-81,-29,42,-2
10480,18,-248,-83,-29,44,-4
10485,20,-247,-76,-27,44,-3
10490,20,-248,-80,-27,45,-6
10495,19,-247,-82,-29,45,-4
10500,17,-246,-83,-29,49,-6
10505,17,-244,-86,-31,52,-5
10510,19,-246,-82,-32,54,-6
10515,16,-242,-81,-33,57,-3
10520,18,-244,-85,-32,60,-5
10525,19,-244,-78,-34,65,-2
10530,16,-243,-84,-35,68,-5
10535,16,-242,-81,-36,69,-2
10540,18,-245,-82,-39,70,-5
10545,17,-243,-83,-41,71,-3
10550,15,-244,-75,-44,71,-4
10555,16,-244,-85,-46,71,-4
10560,15,-245,-80,-44,71,-6
10565,17,-248,-81,-37,73,-6
10570,13,-245,-82,-30,76,-7
10575,14,-244,-83,-24,78,-6
10580,15,-243,-84,-20,79,-8
10585,18,-245,-82,-21,80,-6
10590,16,-245,-80,-28,79,-9
10595,17,-246,-80,-37,77,-9
10600,15,-245,-81,-43,76,-10
10605,19,-244,-82,-48,73,-11
10610,19,-245,-81,-55,72,-12
10615,21,-249,-83,-62,70,-10
10620,17,-243,-83,-68,69,-9
10625,20,-246,-84,-71,68,-6
10630,19,-247,-80,-69,70,-5
10635,18,-247,-84,-65,74,-2
10640,17,-245,-83,-57,79,-1
10645,16,-248,-83,-50,84,1
10650,18,-250,-83,-41,87,4
10655,15,-245,-82,-34,91,3
10660,15,-244,-81,-27,93,4
10665,14,-245,-86,-23,94,5
10670,15,-247,-84,-21,94,5
10675,14,-245,-84,-21,94,5
10680,15,-247,-82,-21,94,4
10685,13,-246,-87,-23,94,5
10690,13,-244,-82,-24,93,5
10695,16,-245,-83,-27,95,5
10700,13,-245,-84,-29,97,5
10705,16,-247,-87,-34,98,6
10710,18,-242,-85,-36,99,5
10715,16,-245,-87,-42,98,4
10720,16,-246,-85,-43,99,3
10725,15,-242,-85,-44,96,3
10730,15,-242,-88,-44,94,3
10735,14,-244,-87,-41,90,2
10740,16,-244,-82,-37,89,3
10745,15,-241,-81,-33,87,1
10750,12,-241,-83,-28,83,4
10755,15,-243,-85,-22,80,3
10760,15,-242,-81,-21,75,3
10765,15,-242,-80,-15,72,4
10770,16,-241,-79,-14,70,4
10775,15,-244,-79,-15,69,6
10780,14,-244,-78,-19,69,6
10785,19,-244,-78,-21,69,4
10790,18,-244,-81,-27,70,6
10795,16,-243,-81,-30,74,3
10800,17,-248,-80,-31,78,4
10805,16,-248,-80,-30,81,2
10810,18,-246,-77,-27,83,3
10815,17,-244,-86,-21,85,0
10820,17,-244,-85,-16,88,0
10825,15,-246,-80,-14,91,-2
10830,16,-244,-80,-12,92,-1
10835,17,-242,-84,-12,94,-2
10840,16,-242,-82,-16,93,-2
10845,15,-242,-80,-20,93,-4
10850,15,-242,-79,-24,89,-3
10855,15,-246,-84,-30,86,-6
10860,15,-241,-85,-35,82,-4
10865,18,-243,-86,-40,79,-6
10870,16,-248,-86,-44,76,-4
10875,13,-246,-85,-46,72,-4
10880,13,-247,-82,-47,72,-3
10885,15,-242,-81,-44,70,-5
10890,16,-245,-89,-41,68,-2
10895,13,-242,-83,-34,70,-3
10900,16,-243,-85,-27,69,-1
10905,15,-244,-83,-22,69,-1
10910,16,-247,-83,-17,69,2
10915,16,-245,-83,-11,70,-1
10920,11,-241,-85,-8,72,1
10925,19,-244,-82,-7,71,0
10930,16,-245,-80,-4,70,2
10935,14,-240,-80,-3,68,-1
10940,18,-246,-81,-4,67,1
10945,15,-246,-77,-5,64,-4
10950,17,-245,-79,-6,63,-3
10955,12,-243,-80,-7,58,-7
10960,12,-245,-82,-8,54,-5
10965,18,-246,-81,-10,51,-6
10970,16,-246,-78,-12,51,-5
10975,15,-247,-81,-15,50,-6
10980,15,-245,-83,-18,52,-4
10985,17,-247,-84,-19,53,-8
10990,14,-246,-84,-19,55,-6
10995,17,-246,-81,-19,55,-8
11000,16,-247,-83,-17,57,-5
11005,15,-246,-83,-14,58,-8
11010,17,-245,-82,-13,59,-6
11015,17,-245,-83,-13,59,-7
11020,17,-246,-80,-11,59,-2
11025,17,-245,-84,-8,58,-4
11030,16,-244,-81,-6,59,0
11035,16,-247,-83,-6,59,-2
11040,19,-245,-84,-8,59,2
11045,18,-244,-82,-8,60,1
11050,18,-247,-81,-12,60,5
11055,18,-247,-81,-15,61,3
11060,21,-249,-83,-17,59,5
11065,18,-247,-84,-18,60,4
11070,17,-248,-86,-14,60,7
11075,16,-246,-85,-12,61,7
11080,17,-245,-79,-8,64,9
11085,16,-243,-87,-4,63,7
11090,16,-246,-80,-1,62,9
11095,14,-255,-78,1,62,6
11100,12,-251,-84,3,62,8
11105,23,-245,-79,5,58,5
11110,16,-235,-83,5,55,7
11115,18,-244,-72,5,55,6
11120,19,-246,-70,5,54,7
11125,18,-261,-77,3,53,3
11130,12,-240,-75,3,51,5
11135,16,-246,-79,4,51,2
11140,12,-245,-79,8,52,6
11145,14,-244,-82,10,52,2
11150,15,-244,-77,11,53,3
11155,16,-243,-81,12,55,1
11160,15,-244,-82,9,56,4
11165,14,-241,-82,5,55,2
11170,17,-243,-82,2,56,3
11175,13,-240,-84,-2,55,1
11180,13,-241,-79,-6,53,1
11185,14,-241,-82,-12,52,-3
11190,15,-240,-81,-16,53,-1
11195,14,-242,-84,-24,51,-4
11200,15,-243,-86,-29,49,0
11205,16,-246,-83,-31,47,-3
11210,18,-247,-84,-33,47,0
11215,16,-246,-85,-34,50,-2
11220,15,-247,-81,-34,52,1
11225,18,-250,-82,-27,54,0
11230,17,-250,-84,-20,56,2
11235,15,-248,-83,-13,57,1
11240,19,-247,-87,-2,59,3
11245,21,-249,-83,9,59,3
11250,17,-246,-83,18,58,3
11255,16,-247,-79,25,60,1
11260,16,-245,-83,30,61,3
11265,18,-245,-79,31,61,0
11270,15,-242,-82,33,62,1
11275,14,-241,-79,29,61,-1
11280,11,-241,-78,26,60,1
11285,13,-242,-82,21,58,-1
11290,15,-243,-76,17,56,-1
11295,13,-244,-80,12,55,-1
11300,14,-245,-82,7,56,-2
11305,14,-245,-79,2,56,-3
11310,18,-246,-82,-7,58,0
11315,13,-246,-83,-12,59,0
11320,17,-246,-80,-17,61,0
11325,15,-244,-84,-21,61,-1
11330,17,-244,-79,-22,61,0
11335,12,-245,-82,-24,61,0
11340,16,-245,-83,-25,60,-1
11345,14,-244,-83,-25,60,0
11350,16,-245,-83,-23,60,0
11355,18,-247,-82,-20,60,1
11360,16,-244,-85,-18,60,2
11365,16,-245,-79,-14,60,3
11370,16,-244,-78,-10,58,3
11375,14,-245,-80,-6,58,5
11380,14,-244,-83,-3,58,5
11385,17,-245,-84,-1,62,6
11390,10,-244,-86,0,62,7
11395,14,-245,-82,-1,61,8
11400,16,-245,-78,-3,59,6
11405,16,-244,-81,-3,58,6
11410,13,-244,-80,-5,56,6
11415,15,-245,-80,-8,56,6
11420,17,-248,-84,-8,56,7
11425,19,-244,-85,-8,56,7
11430,15,-244,-84,-9,55,4
11435,16,-246,-81,-9,54,6
11440,14,-246,-83,-7,54,4
11445,16,-247,-81,-3,54,6
11450,15,-246,-80,0,53,3
11455,15,-247,-77,3,53,5
11460,13,-246,-76,5,49,5
11465,17,-248,-80,5,49,5
11470,15,-246,-78,6,45,4
11475,14,-246,-80,1,45,6
11480,15,-250,-81,-1,46,4
11485,15,-246,-81,0,45,4
11490,16,-248,-83,0,45,1
11495,14,-246,-81,2,45,3
11500,16,-244,-78,5,48,0
11505,17,-245,-82,11,47,1
11510,14,-245,-81,16,46,0
11515,16,-243,-78,19,46,1
11520,14,-244,-79,20,47,0
11525,14,-240,-86,22,45,3
11530,13,-247,-79,20,44,1
11535,13,-245,-82,21,44,3
11540,15,-245,-81,19,45,0
11545,16,-246,-80,16,44,2
11550,17,-245,-81,12,42,-1
11555,15,-247,-84,8,42,1
11560,15,-245,-80,5,40,-2
11565,18,-247,-80,3,40,-1
11570,16,-246,-81,0,41,-2
11575,17,-246,-83,-4,40,0
11580,17,-246,-83,-6,38,-3
11585,16,-244,-81,-6,37,-1
11590,18,-246,-82,-7,36,-3
11595,14,-245,-81,-4,35,-2
11600,16,-244,-82,-3,37,-3
11605,18,-244,-83,1,39,0
11610,17,-244,-82,4,40,-2
11615,15,-239,-83,7,43,0
11620,14,-241,-83,7,45,-3
11625,16,-243,-84,9,47,0
11630,16,-243,-84,10,48,-1
11635,17,-243,-85,10,50,2
11640,18,-245,-80,10,49,-1
11645,18,-246,-84,8,50,1
11650,17,-246,-77,7,50,-1
11655,15,-245,-79,4,50,1
11660,15,-247,-81,3,47,-2
11665,14,-245,-81,4,46,0
11670,15,-243,-79,5,46,-4
11675,19,-246,-78,4,44,-1
11680,14,-245,-82,3,46,-3
11685,16,-248,-78,4,44,0
11690,14,-249,-79,4,46,-3
11695,15,-249,-77,3,48,0
11700,16,-247,-77,4,51,-4
11705,15,-248,-80,3,54,-2
11710,16,-246,-76,4,56,-4
11715,15,-246,-77,4,59,-2
11720,14,-247,-78,5,59,-4
11725,16,-246,-80,5,60,-2
11730,14,-246,-79,6,60,-5
11735,15,-247,-78,8,59,-2
11740,13,-244,-76,8,59,-4
11745,14,-245,-79,11,56,-1
11750,16,-247,-78,13,54,-3
11755,18,-245,-78,13,54,0
11760,14,-242,-79,8,54,-3
11765,13,-247,-79,4,54,-1
11770,15,-244,-75,0,52,-3
11775,13,-245,-77,-8,51,0
11780,15,-246,-81,-14,50,-3
11785,14,-244,-79,-17,52,-1
11790,12,-247,-79,-18,55,-3
11795,15,-247,-76,-16,56,-1
11800,13,-248,-73,-13,57,-3
11805,15,-248,-83,-6,59,0
11810,15,-249,-81,2,59,-2
11815,14,-246,-74,8,59,2
11820,15,-245,-79,14,58,1
11825,14,-247,-79,18,57,1
11830,14,-248,-75,24,54,-1
11835,11,-246,-80,27,53,1
11840,12,-247,-78,30,52,-1
11845,11,-245,-77,34,53,0
11850,11,-245,-78,34,55,-2
11855,15,-246,-79,31,57,0
11860,14,-248,-76,27,59,-2
11865,11,-242,-76,21,59,-2
11870,14,-245,-77,16,61,-4
11875,16,-245,-77,10,60,-4
11880,13,-246,-79,1,60,-6
11885,10,-246,-79,-5,59,-4
11890,13,-241,-78,-7,58,-5
11895,14,-245,-80,-7,59,-2
11900,15,-247,-78,-6,60,-4
11905,16,-246,-79,-4,60,-2
11910,15,-245,-82,0,61,-3
11915,13,-247,-78,2,58,0
11920,17,-244,-77,4,58,-2
11925,13,-246,-80,4,58,-1
11930,15,-246,-77,6,56,-1
11935,15,-245,-81,4,56,-1
11940,16,-244,-79,5,53,-1
11945,13,-245,-80,6,52,-2
11950,15,-248,-78,6,52,-2
11955,16,-244,-77,6,53,0
11960,14,-246,-77,6,54,-2
11965,15,-244,-78,5,55,-1
11970,16,-249,-78,5,56,0
11975,17,-246,-81,5,57,0
11980,14,-244,-79,4,61,0
11985,17,-246,-76,3,64,1
11990,16,-245,-79,2,68,1
11995,17,-247,-79,-1,69,0
