timestamp,acc_x,acc_y,acc_z,gyro_x,gyro_y,gyro_z
0,1,-241,-85,4,61,0
5,1,-242,-88,5,59,2
10,-2,-242,-83,6,57,2
15,0,-243,-84,3,57,1
20,-1,-241,-86,-3,56,1
25,0,-241,-81,-12,57,0
30,-1,-241,-83,-22,57,-1
35,-2,-240,-86,-32,58,-1
40,0,-240,-83,-44,59,-1
45,0,-243,-89,-50,59,-2
50,-1,-243,-86,-55,58,-1
55,-2,-244,-85,-58,55,-2
60,3,-243,-82,-61,52,1
65,1,-243,-81,-59,50,1
70,0,-245,-82,-55,49,4
75,-1,-246,-82,-50,50,2
80,-4,-244,-80,-45,49,3
85,-3,-248,-83,-44,48,4
90,1,-246,-85,-45,49,4
95,-1,-246,-86,-48,52,4
100,-1,-244,-88,-53,54,5
105,1,-243,-84,-58,56,3
110,-3,-244,-86,-62,59,5
115,-1,-244,-83,-63,60,4
120,-1,-244,-86,-64,60,6
125,2,-243,-83,-65,61,7
130,0,-247,-89,-66,61,8
135,-1,-242,-85,-65,63,7
140,-1,-245,-83,-67,64,10
145,-2,-246,-87,-70,67,10
150,-3,-240,-84,-75,68,12
155,-2,-244,-90,-80,68,9
160,0,-246,-88,-82,71,12
165,0,-247,-87,-86,72,11
170,-2,-242,-85,-88,72,11
175,-2,-244,-82,-88,72,8
180,-2,-245,-84,-89,71,9
185,-2,-244,-88,-89,68,5
190,-2,-243,-85,-93,62,6
195,-2,-244,-85,-98,58,4
200,-4,-242,-86,-101,56,6
205,-2,-247,-89,-100,53,4
210,-4,-243,-84,-96,51,6
215,-4,-247,-87,-94,53,5
220,-4,-244,-86,-91,54,7
225,-4,-245,-88,-92,58,6
230,-5,-243,-87,-94,63,9
235,-4,-243,-82,-96,67,7
240,-2,-246,-84,-101,68,11
245,-1,-244,-83,-105,68,8
250,1,-243,-85,-108,67,8
255,-2,-244,-89,-111,62,2
260,-2,-243,-90,-116,52,-1
265,-2,-243,-90,-123,44,-10
270,-3,-238,-92,-127,36,-8
275,-5,-242,-94,-132,30,-11
280,0,-245,-90,-136,28,-7
285,-1,-246,-89,-135,28,-6
290,-2,-247,-91,-127,30,0
295,-2,-250,-90,-112,30,1
300,-2,-248,-90,-97,32,4
305,-5,-247,-93,-81,36,5
310,-3,-246,-88,-63,41,8
315,-5,-245,-92,-56,45,6
320,-3,-246,-92,-52,49,9
325,-2,-245,-88,-53,51,6
330,-1,-243,-90,-59,51,8
335,-2,-241,-90,-63,52,4
340,-3,-245,-90,-67,51,4
345,-4,-242,-90,-74,50,-1
350,-1,-242,-86,-79,50,-1
355,-2,-240,-90,-80,49,-5
360,-1,-241,-92,-79,47,-5
365,-4,-240,-89,-78,47,-8
370,-2,-239,-90,-77,43,-7
375,-1,-241,-89,-75,41,-7
380,0,-241,-88,-75,39,-5
385,-1,-239,-93,-76,41,-6
390,-1,-240,-91,-76,40,-4
395,-1,-242,-90,-75,41,-5
400,-2,-244,-92,-74,40,-3
405,0,-243,-93,-73,43,-3
410,-2,-244,-90,-72,44,-1
415,0,-244,-90,-72,47,-3
420,-1,-245,-92,-69,49,-2
425,-3,-246,-91,-68,52,-2
430,-1,-246,-88,-68,53,-1
435,1,-245,-93,-68,55,-2
440,-1,-248,-95,-68,57,-3
445,0,-247,-95,-66,57,-3
450,1,-246,-96,-61,58,-2
455,-2,-246,-93,-55,57,-4
460,0,-246,-95,-45,58,-3
465,-2,-244,-98,-34,56,-4
470,-2,-242,-95,-24,56,-2
475,-3,-241,-96,-14,56,-3
480,-2,-240,-98,-6,57,-1
485,-4,-240,-96,-3,56,-3
490,-1,-242,-94,-2,57,-3
495,-1,-244,-91,-5,56,-6
500,-4,-237,-89,-8,54,-5
505,-3,-242,-88,-12,52,-6
510,0,-241,-92,-17,52,-5
515,-3,-243,-91,-24,53,-6
520,-1,-243,-94,-29,53,-6
525,-2,-239,-90,-34,54,-5
530,0,-243,-93,-36,55,-5
535,-3,-243,-92,-35,56,-4
540,-4,-244,-91,-34,57,-4
545,-1,-241,-96,-30,56,-3
550,-1,-242,-93,-25,55,-2
555,-2,-243,-94,-17,57,-1
560,1,-244,-94,-13,56,-2
565,1,-241,-92,-9,55,-2
570,-1,-240,-90,-6,55,-2
575,-1,-240,-95,-1,56,0
580,-2,-240,-90,1,57,-2
585,-1,-244,-90,1,57,-3
590,0,-241,-93,-4,59,-4
595,0,-242,-98,-11,60,-5
600,1,-239,-95,-22,61,-7
605,-2,-241,-94,-34,59,-6
610,-2,-238,-97,-43,58,-7
615,1,-242,-91,-49,56,-5
620,-4,-242,-96,-51,54,-6
625,-1,-244,-92,-51,53,-2
630,-1,-241,-92,-48,52,-3
635,0,-241,-92,-44,55,-1
640,-1,-244,-91,-38,57,-1
645,-4,-242,-90,-31,59,0
650,-1,-246,-93,-24,64,-2
655,-1,-246,-92,-19,65,0
660,-3,-247,-89,-11,66,-3
665,-1,-242,-93,-6,67,-2
670,-4,-244,-97,-3,67,-5
675,-3,-241,-100,-1,66,-2
680,-2,-242,-92,-2,63,-3
685,-3,-239,-96,-6,63,-1
690,-1,-244,-94,-8,63,-2
695,-1,-241,-98,-6,62,1
700,-2,-242,-93,-5,63,-2
705,-2,-237,-96,-3,64,1
710,-2,-239,-95,-4,64,-1
715,-2,-242,-96,-4,63,2
720,-2,-238,-92,-6,61,-3
725,0,-239,-94,-11,60,-1
730,-1,-240,-92,-18,61,-3
735,-2,-240,-91,-21,59,-2
740,0,-240,-89,-25,57,-5
745,-3,-243,-88,-29,56,-4
750,-2,-245,-92,-28,53,-7
755,-3,-246,-95,-28,51,-5
760,-2,-243,-93,-26,48,-8
765,-2,-248,-94,-20,45,-3
770,-3,-246,-94,-15,48,-3
775,-1,-248,-94,-9,51,2
780,-3,-247,-96,0,51,2
785,-2,-245,-95,9,53,6
790,1,-244,-94,13,54,4
795,-2,-242,-96,20,54,6
800,-3,-244,-92,23,55,4
805,-4,-240,-92,24,55,5
810,-3,-238,-93,25,54,1
815,-1,-240,-94,20,56,2
820,-4,-238,-89,16,58,1
825,-1,-238,-90,6,59,2
830,-4,-241,-92,-2,59,-2
835,-3,-235,-95,-10,57,0
840,0,-241,-92,-18,58,-2
845,1,-240,-95,-24,57,-1
850,-4,-240,-95,-27,56,-3
855,-3,-242,-96,-29,55,-1
860,-2,-243,-96,-30,54,-3
865,-2,-244,-94,-27,54,0
870,-2,-245,-100,-25,53,-2
875,-2,-245,-97,-21,53,1
880,-4,-244,-97,-14,51,-1
885,-2,-246,-92,-8,51,1
890,-1,-247,-93,-1,50,1
895,-1,-247,-93,8,51,3
900,-2,-244,-92,16,51,1
905,-2,-242,-96,25,52,3
910,-4,-242,-93,30,51,0
915,-1,-241,-89,36,53,2
920,-2,-241,-95,39,54,-2
925,-4,-239,-96,37,55,1
930,0,-240,-91,32,54,-1
935,-1,-236,-92,27,54,2
940,-2,-240,-88,21,54,0
945,-3,-238,-92,13,52,1
950,0,-239,-91,7,54,0
955,-5,-237,-93,1,53,1
960,-1,-241,-89,-3,53,-2
965,-2,-241,-92,-8,51,-1
970,-6,-238,-95,-11,53,-5
975,0,-244,-89,-12,53,-4
980,-4,-242,-93,-13,55,-5
985,0,-243,-93,-14,56,-4
990,-3,-241,-91,-11,57,-4
995,0,-243,-92,-9,57,-5
1000,0,-243,-94,-5,57,-5
1005,-2,-240,-92,-3,56,-5
1010,-2,-245,-94,1,56,-6
1015,1,-245,-92,2,52,-5
1020,-3,-245,-91,4,51,-7
1025,-1,-244,-95,5,49,-5
1030,-2,-241,-90,7,46,-5
1035,-5,-242,-93,10,46,-4
1040,-3,-245,-96,10,44,-4
1045,-1,-243,-90,9,43,-4
1050,-4,-241,-95,7,44,-2
1055,-4,-243,-97,5,45,-3
1060,-3,-243,-93,2,47,-3
1065,-5,-241,-93,-1,48,-2
1070,-4,-243,-92,-1,50,-2
1075,0,-245,-92,-1,53,-2
1080,-2,-243,-90,1,54,-1
1085,0,-241,-91,4,57,-2
1090,-1,-241,-90,6,58,0
1095,0,-243,-93,6,58,-3
1100,-2,-242,-93,7,59,-2
1105,1,-243,-88,6,58,-2
1110,-1,-243,-90,7,59,-2
1115,-2,-244,-90,5,60,-2
1120,-4,-242,-91,5,58,-2
1125,-1,-243,-90,5,57,-2
1130,-1,-244,-92,7,57,-1
1135,0,-245,-91,10,55,-3
1140,-1,-244,-88,13,56,-3
1145,-1,-245,-92,15,57,-5
1150,0,-243,-89,16,55,-4
1155,-2,-239,-92,15,53,-5
1160,-2,-242,-90,13,55,-5
1165,-2,-243,-89,10,53,-6
1170,-1,-245,-91,7,54,-5
1175,-2,-244,-85,4,56,-7
1180,-5,-245,-89,1,56,-4
1185,0,-248,-89,1,58,-5
1190,1,-244,-93,0,58,-3
1195,-2,-244,-89,3,58,-5
1200,-2,-246,-92,7,59,-2
1205,-2,-244,-88,9,59,-3
1210,0,-246,-86,11,60,-2
1215,0,-245,-87,13,58,-4
1220,-1,-242,-90,12,58,-3
1225,-4,-243,-89,9,57,-6
1230,-1,-243,-89,9,55,-5
1235,-3,-242,-92,5,54,-7
1240,-3,-241,-88,2,53,-4
1245,-6,-240,-89,-1,54,-7
1250,-1,-243,-91,-3,55,-2
1255,-1,-243,-87,-2,55,-3
1260,-1,-241,-87,-3,55,-2
1265,-2,-243,-89,0,54,-5
1270,-4,-241,-93,2,55,-3
1275,-3,-239,-93,1,55,-5
1280,-1,-242,-91,1,56,-3
1285,0,-244,-91,0,58,-6
1290,-1,-242,-91,0,60,-4
1295,-1,-241,-89,1,60,-6
1300,0,-244,-88,1,62,-3
1305,0,-245,-88,2,61,-5
1310,-3,-243,-92,0,61,-2
1315,-1,-243,-95,0,60,-4
1320,-1,-245,-93,-2,59,-2
1325,0,-245,-91,-2,59,-5
1330,-2,-246,-91,-2,60,-2
1335,-1,-244,-92,0,60,-4
1340,-2,-243,-90,3,61,-2
1345,-6,-244,-90,9,61,-2
1350,-6,-246,-88,14,61,1
1355,-1,-246,-89,19,61,-3
1360,0,-244,-86,22,60,1
1365,-1,-246,-88,22,58,-3
1370,-4,-241,-91,19,58,-2
1375,-3,-243,-88,18,55,-4
1380,0,-243,-92,15,57,-1
1385,-3,-245,-89,12,58,-4
1390,0,-241,-89,10,59,-1
1395,-4,-239,-88,7,57,-4
1400,0,-240,-92,4,59,-2
1405,-1,-243,-90,-2,58,-4
1410,-3,-238,-88,-3,56,-3
1415,-1,-243,-90,-3,57,-5
1420,-5,-242,-92,-3,56,-4
1425,-1,-243,-92,-3,57,-6
1430,-2,-244,-87,-1,57,-5
1435,1,-244,-87,5,54,-6
1440,-2,-245,-88,10,52,-4
1445,-2,-243,-85,14,52,-7
1450,0,-248,-89,19,52,-5
1455,-1,-246,-89,22,51,-5
1460,-2,-246,-92,23,54,-3
1465,-3,-242,-88,24,57,-2
1470,-3,-245,-88,21,61,-2
1475,-2,-245,-89,20,62,-2
1480,-2,-242,-89,20,63,1
1485,-2,-243,-87,19,64,0
1490,-4,-243,-86,20,65,2
1495,-5,-242,-91,21,66,2
1500,-3,-244,-87,22,67,3
1505,-1,-244,-89,21,67,2
1510,-6,-243,-86,20,66,2
1515,-5,-243,-87,15,66,-1
1520,-3,-242,-88,10,66,0
1525,-3,-242,-85,4,66,-2
1530,-4,-243,-92,-2,66,1
1535,-3,-244,-89,-8,66,0
1540,0,-246,-86,-13,63,0
1545,-3,-243,-84,-17,60,0
1550,-3,-241,-86,-20,58,0
1555,-3,-244,-87,-20,56,1
1560,-2,-245,-91,-16,54,1
1565,-5,-243,-89,-10,49,0
1570,-3,-243,-88,-4,51,1
1575,-1,-246,-87,-2,50,2
1580,-4,-243,-87,3,50,0
1585,-2,-246,-87,8,52,1
1590,-1,-245,-88,11,54,-1
1595,-3,-243,-91,12,54,0
1600,0,-243,-91,14,58,1
1605,0,-246,-90,12,60,1
1610,-1,-240,-86,8,63,1
1615,-2,-241,-90,5,64,2
1620,-1,-240,-87,0,66,1
1625,-4,-243,-89,-2,67,1
1630,-4,-241,-88,-5,66,1
1635,-2,-240,-84,-8,66,2
1640,-2,-240,-85,-11,65,1
1645,1,-243,-88,-13,64,2
1650,0,-245,-87,-14,63,0
1655,0,-245,-85,-13,62,-1
1660,-2,-243,-89,-14,63,-2
1665,-2,-245,-87,-13,62,-1
1670,-1,-245,-91,-12,60,-1
1675,-2,-247,-87,-10,59,-2
1680,1,-246,-88,-7,58,-5
1685,-1,-243,-91,-4,58,-3
1690,-3,-248,-87,-2,59,-4
1695,-3,-243,-90,0,59,-3
1700,-2,-244,-90,4,60,-3
1705,-1,-245,-88,7,61,-3
1710,-4,-245,-89,10,61,-5
1715,-3,-242,-90,12,60,-3
1720,-2,-246,-88,15,60,-4
1725,-1,-245,-89,16,61,-3
1730,-1,-244,-92,17,60,-4
1735,-4,-243,-92,19,60,-2
1740,-2,-243,-90,20,57,-5
1745,-2,-242,-84,21,56,-3
1750,-2,-244,-88,25,55,-4
1755,-3,-244,-91,23,54,-3
1760,0,-245,-87,22,55,-5
1765,0,-245,-88,20,54,-3
1770,-2,-242,-89,18,55,-5
1775,-3,-240,-88,15,55,-3
1780,-2,-243,-85,9,57,-5
1785,-3,-242,-86,4,59,-3
1790,1,-245,-87,0,60,-4
1795,0,-243,-87,-4,60,-1
1800,0,-245,-86,-5,61,-4
1805,-2,-245,-91,-4,61,-2
1810,-2,-245,-88,-3,62,-3
1815,0,-242,-92,-2,62,1
1820,0,-245,-86,1,61,-3
1825,-4,-246,-86,4,61,0
1830,-1,-242,-82,6,62,-3
1835,-3,-244,-85,8,64,0
1840,2,-246,-88,8,65,-3
1845,-2,-243,-85,7,67,-3
1850,-4,-242,-85,6,65,-5
1855,-3,-246,-85,4,66,-4
1860,-3,-244,-87,4,67,-6
1865,0,-244,-87,4,67,-6
1870,-2,-243,-89,5,67,-8
1875,2,-245,-89,6,67,-6
1880,-2,-242,-87,6,67,-8
1885,-2,-242,-86,7,66,-6
1890,0,-245,-88,6,64,-7
1895,-1,-245,-87,3,63,-4
1900,-4,-243,-85,2,63,-5
1905,-1,-245,-86,0,63,-2
1910,-3,-243,-87,-1,62,-5
1915,0,-243,-90,-2,64,-3
1920,-2,-244,-85,-3,62,-4
1925,-2,-242,-85,-2,61,-1
1930,-2,-242,-89,-3,62,-3
1935,-2,-242,-90,-3,61,-1
1940,1,-242,-89,-4,58,-3
1945,-1,-245,-89,-4,58,-1
1950,0,-244,-88,0,58,-3
1955,-1,-245,-86,0,59,-2
1960,-1,-245,-84,1,60,-4
1965,0,-245,-86,4,62,-3
1970,0,-245,-87,5,62,-4
1975,-1,-243,-88,4,64,-3
1980,0,-247,-86,2,61,-6
1985,-2,-247,-89,-2,63,-3
1990,-3,-243,-91,-2,62,-6
1995,0,-244,-85,-3,61,-5
2000,-2,-244,-88,-5,60,-6
2005,-2,-246,-87,-2,58,-4
2010,-1,-244,-86,0,58,-5
2015,-3,-243,-90,5,57,-5
2020,-2,-245,-89,7,57,-3
2025,-2,-241,-83,7,58,-2
2030,-2,-244,-87,9,57,-3
2035,-1,-244,-85,6,58,-1
2040,-6,-242,-85,4,58,-4
2045,0,-244,-92,0,58,-4
2050,-2,-245,-89,-1,60,-7
2055,-3,-247,-84,-4,59,-6
2060,-4,-242,-88,-7,60,-9
2065,-1,-241,-89,-9,58,-8
2070,-3,-239,-91,-10,57,-7
2075,-5,-241,-86,-13,56,-5
2080,-1,-246,-89,-14,55,-7
2085,-3,-243,-86,-16,53,-6
2090,1,-244,-90,-12,52,-6
2095,-4,-242,-86,-11,52,-7
2100,-1,-244,-85,-9,53,-9
2105,-1,-246,-88,-6,55,-8
2110,2,-246,-85,-2,56,-8
2115,0,-244,-87,2,56,-7
2120,1,-242,-90,8,57,-8
2125,1,-246,-85,15,55,-7
2130,-1,-243,-84,20,56,-7
2135,-1,-245,-84,25,56,-7
2140,1,-243,-82,26,57,-8
2145,-2,-246,-83,25,56,-9
2150,-1,-245,-88,23,54,-9
2155,-1,-245,-88,19,55,-9
2160,1,-245,-86,18,55,-6
2165,0,-244,-85,16,57,-3
2170,-1,-243,-86,16,58,-2
2175,-1,-242,-86,15,58,0
2180,-1,-243,-89,17,60,1
2185,0,-246,-86,17,60,0
2190,-1,-244,-85,19,59,1
2195,-4,-242,-85,17,59,0
2200,-3,-245,-85,13,60,0
2205,1,-241,-86,11,62,-1
2210,-2,-244,-83,4,64,-1
2215,-3,-244,-79,-3,62,-2
2220,-1,-244,-88,-8,61,-3
2225,-3,-243,-85,-14,60,-4
2230,-1,-247,-91,-17,61,-2
2235,-2,-244,-90,-20,60,-3
2240,0,-243,-90,-22,58,0
2245,-2,-244,-88,-22,59,0
2250,-4,-244,-90,-22,58,3
2255,0,-245,-85,-20,56,1
2260,0,-246,-84,-16,57,4
2265,2,-244,-85,-13,57,3
2270,1,-247,-88,-12,58,4
2275,0,-243,-89,-11,58,1
2280,-2,-245,-90,-8,56,1
2285,-1,-244,-85,-8,58,-1
2290,-1,-242,-89,-8,61,2
2295,1,-246,-86,-10,61,0
2300,-2,-244,-86,-12,64,1
2305,-1,-245,-84,-14,63,-3
2310,-2,-247,-86,-13,66,-1
2315,-2,-244,-88,-11,66,-3
2320,-3,-244,-87,-8,64,-1
2325,-4,-243,-85,-3,62,-2
2330,-4,-244,-85,-1,62,-2
2335,-2,-243,-87,0,59,-6
2340,-2,-243,-85,0,56,-2
2345,1,-244,-87,-4,54,-6
2350,-2,-244,-83,-7,51,-5
2355,-2,-243,-87,-9,50,-8
2360,-2,-244,-87,-14,51,-6
2365,-2,-246,-85,-16,51,-9
2370,-3,-244,-87,-20,51,-7
2375,1,-245,-84,-23,50,-9
2380,-2,-246,-86,-23,51,-6
2385,-3,-243,-87,-22,52,-7
2390,-2,-246,-87,-20,52,-4
2395,-4,-242,-88,-17,51,-7
2400,-1,-246,-89,-15,51,-5
2405,0,-244,-86,-14,50,-6
2410,-2,-242,-88,-15,50,-2
2415,-7,-240,-88,-17,50,-5
2420,-2,-243,-86,-22,50,-3
2425,0,-243,-88,-27,49,-6
2430,0,-244,-88,-30,50,-4
2435,-2,-244,-87,-34,51,-8
2440,0,-245,-88,-36,52,-5
2445,-1,-244,-87,-38,52,-8
2450,-1,-244,-88,-43,52,-4
2455,0,-244,-92,-43,53,-8
2460,1,-246,-86,-44,53,-5
2465,2,-245,-86,-42,51,-7
2470,-5,-242,-90,-40,50,-5
2475,1,-247,-87,-38,52,-4
2480,-3,-248,-88,-35,53,-3
2485,-2,-245,-87,-33,53,-5
2490,0,-245,-89,-31,55,-2
2495,-1,-244,-87,-31,54,-5
2500,0,-245,-89,-30,55,-4
2505,2,-247,-90,-29,56,-6
2510,-5,-242,-90,-30,56,-2
2515,0,-246,-91,-28,54,-4
2520,1,-246,-91,-27,52,-1
2525,-1,-244,-89,-30,52,-2
2530,-2,-246,-90,-33,49,0
2535,-1,-243,-94,-37,48,-1
2540,-3,-245,-93,-41,48,1
2545,-5,-243,-93,-42,49,-1
2550,-2,-239,-95,-41,51,-1
2555,0,-242,-93,-44,52,-4
2560,1,-238,-92,-49,55,-2
2565,-2,-236,-94,-57,57,-4
2570,-3,-237,-94,-64,59,-2
2575,0,-238,-96,-76,61,-2
2580,0,-236,-99,-91,67,0
2585,-2,-235,-100,-108,70,-3
2590,-1,-235,-99,-128,70,-1
2595,1,-237,-98,-144,69,-1
2600,-2,-237,-99,-163,70,1
2605,-2,-236,-103,-177,70,2
2610,3,-239,-105,-194,71,2
2615,2,-237,-104,-208,69,-2
2620,-1,-236,-107,-220,68,-4
2625,-1,-238,-105,-230,66,-8
2630,0,-237,-106,-236,65,-12
2635,-7,-235,-109,-243,66,-15
2640,-1,-235,-108,-246,68,-14
2645,-5,-233,-115,-249,74,-17
2650,-5,-231,-112,-252,78,-17
2655,-3,-235,-113,-257,83,-20
2660,-3,-232,-117,-263,87,-21
2665,-2,-235,-116,-273,89,-20
2670,-3,-230,-116,-279,90,-20
2675,-3,-231,-113,-283,88,-19
2680,1,-233,-117,-289,80,-19
2685,-3,-232,-116,-292,74,-20
2690,0,-229,-118,-295,63,-23
2695,1,-231,-118,-299,53,-25
2700,-3,-228,-119,-306,44,-27
2705,-1,-232,-120,-316,32,-26
2710,-4,-228,-120,-329,20,-25
2715,-6,-228,-119,-338,10,-25
2720,-7,-227,-118,-348,7,-23
2725,-4,-225,-120,-358,9,-22
2730,-3,-226,-122,-368,10,-21
2735,-3,-224,-123,-379,11,-21
2740,-4,-223,-124,-393,12,-22
2745,-5,-222,-125,-411,9,-23
2750,-5,-220,-128,-431,7,-23
2755,-6,-222,-122,-445,6,-19
2760,-6,-222,-125,-453,5,-17
2765,-5,-221,-128,-455,4,-14
2770,-1,-219,-125,-457,2,-12
2775,1,-217,-133,-459,0,-12
2780,4,-215,-129,-452,3,-19
2785,5,-213,-124,-445,10,-24
2790,5,-211,-128,-438,20,-29
2795,6,-209,-126,-434,29,-30
2800,8,-207,-127,-440,40,-32
2805,11,-206,-125,-452,48,-27
2810,14,-203,-123,-469,56,-24
2815,15,-205,-125,-491,72,-14
2820,15,-202,-125,-516,86,-7
2825,16,-199,-121,-534,101,1
2830,15,-197,-117,-548,114,7
2835,19,-196,-118,-558,130,12
2840,19,-193,-120,-566,153,14
2845,19,-185,-122,-580,182,19
2850,23,-174,-129,-602,213,19
2855,23,-163,-135,-637,242,25
2860,23,-154,-142,-686,272,26
2865,23,-146,-147,-755,293,35
2870,25,-136,-152,-815,310,41
2875,27,-125,-157,-870,326,55
2880,22,-112,-161,-919,345,72
2885,27,-103,-163,-958,364,96
2890,27,-91,-159,-988,384,121
2895,24,-82,-158,-1007,405,146
2900,25,-75,-152,-1016,423,162
2905,26,-65,-154,-1016,435,181
2910,25,-56,-144,-1000,434,187
2915,24,-51,-138,-969,422,193
2920,20,-36,-131,-921,404,188
2925,18,-27,-133,-860,378,185
2930,12,-9,-126,-794,340,173
2935,10,0,-125,-727,297,161
2940,1,8,-133,-667,250,140
2945,-5,16,-128,-644,207,132
2950,-12,28,-120,-652,167,124
2955,-13,33,-113,-674,110,116
2960,-23,33,-104,-707,62,92
2965,-28,38,-95,-765,17,68
2970,-46,40,-88,-851,-31,36
2975,-37,38,-93,-976,-80,11
2980,-50,42,-78,-1128,-128,-17
2985,-48,14,-66,-1291,-171,-41
2990,-47,3,-55,-1466,-201,-80
2995,-44,-13,-47,-1648,-220,-126
3000,-40,-30,-39,-1867,-219,-160
3005,-33,-49,-39,-2044,-199,-178
3010,-25,-65,-41,-2195,-155,-191
3015,-20,-84,-43,-2299,-96,-192
3020,-13,-101,-46,-2336,-26,-202
3025,-8,-125,-46,-2315,50,-211
3030,-4,-138,-55,-2240,135,-229
3035,8,-161,-69,-2130,221,-252
3040,14,-172,-88,-2001,305,-290
3045,19,-175,-109,-1843,388,-343
3050,21,-180,-139,-1727,430,-400
3055,29,-180,-174,-1629,439,-449
3060,30,-178,-205,-1552,423,-491
3065,34,-172,-225,-1490,391,-513
3070,27,-170,-239,-1431,348,-525
3075,25,-165,-245,-1367,302,-506
3080,17,-168,-242,-1300,246,-465
3085,17,-177,-234,-1232,176,-409
3090,14,-188,-211,-1169,87,-353
3095,12,-201,-186,-1108,30,-313
3100,8,-222,-161,-1055,-8,-293
3105,-4,-241,-143,-995,-17,-283
3110,-6,-258,-134,-935,0,-288
3115,-10,-273,-138,-881,34,-308
3120,-9,-285,-145,-839,86,-346
3125,-3,-294,-158,-802,148,-380
3130,9,-294,-168,-769,225,-395
3135,20,-292,-179,-751,300,-365
3140,25,-282,-189,-733,305,-328
3145,23,-266,-194,-669,262,-277
3150,22,-263,-184,-509,177,-218
3155,22,-251,-190,-248,65,-161
3160,39,-235,-223,34,-46,-136
3165,35,-242,-195,187,-110,-143
3170,21,-243,-160,310,-152,-167
3175,17,-244,-155,447,-197,-152
3180,32,-239,-164,495,-240,-108
3185,34,-223,-167,386,-250,-80
3190,32,-216,-175,219,-227,-55
3195,34,-214,-187,36,-174,-35
3200,37,-217,-198,-127,-100,-36
3205,39,-221,-208,-255,-22,-64
3210,44,-235,-215,-347,45,-108
3215,38,-238,-221,-400,108,-154
3220,26,-244,-217,-414,165,-189
3225,18,-246,-219,-400,203,-196
3230,10,-244,-221,-345,230,-193
3235,5,-243,-220,-266,224,-179
3240,2,-240,-229,-171,204,-165
3245,-2,-233,-232,-80,190,-142
3250,5,-227,-244,0,196,-119
3255,7,-213,-249,34,231,-104
3260,16,-197,-250,20,280,-78
3265,18,-192,-245,-23,326,-59
3270,25,-188,-233,-89,342,-44
3275,18,-193,-229,-158,341,-40
3280,19,-196,-233,-220,340,-22
3285,32,-199,-235,-290,355,7
3290,35,-203,-236,-362,385,22
3295,20,-214,-232,-415,407,36
3300,12,-215,-230,-449,421,45
3305,-13,-220,-252,-437,409,44
3310,-13,-218,-266,-429,385,64
3315,-5,-217,-281,-439,348,109
3320,15,-213,-292,-467,309,138
3325,31,-224,-284,-444,318,138
3330,51,-228,-285,-408,358,118
3335,54,-234,-289,-367,398,119
3340,48,-237,-296,-324,409,143
3345,48,-234,-300,-258,411,183
3350,54,-255,-320,-171,411,255
3355,51,-247,-316,-51,423,302
3360,35,-247,-311,104,432,359
3365,46,-256,-314,276,431,418
3370,32,-253,-300,398,426,461
3375,41,-249,-303,507,396,515
3380,41,-228,-282,594,375,548
3385,25,-211,-281,687,352,570
3390,38,-210,-272,754,332,612
3395,34,-223,-258,745,352,617
3400,30,-231,-242,688,378,576
3405,24,-253,-243,600,392,560
3410,37,-252,-245,494,399,529
3415,32,-255,-245,453,396,496
3420,32,-255,-263,466,395,482
3425,27,-250,-261,482,387,441
3430,24,-253,-274,506,364,391
3435,23,-245,-258,561,353,350
3440,28,-249,-263,631,363,318
3445,21,-231,-258,699,377,276
3450,15,-233,-253,756,384,281
3455,5,-237,-245,781,375,260
3460,-2,-228,-236,759,347,228
3465,5,-224,-226,764,302,230
3470,0,-236,-225,783,257,238
3475,6,-228,-232,783,207,219
3480,15,-239,-233,793,169,225
3485,10,-243,-226,821,148,230
3490,11,-245,-214,870,122,229
3495,10,-245,-214,924,102,224
3500,19,-234,-207,974,82,220
3505,17,-229,-208,1061,77,235
3510,19,-220,-207,1118,65,250
3515,20,-219,-205,1152,45,252
3520,18,-211,-193,1159,20,250
3525,19,-206,-193,1158,-12,239
3530,18,-208,-186,1157,-41,234
3535,21,-210,-185,1156,-63,223
3540,18,-211,-183,1162,-78,219
3545,23,-216,-176,1176,-96,212
3550,22,-217,-168,1199,-114,210
3555,26,-216,-174,1222,-137,203
3560,21,-215,-167,1263,-162,188
3565,21,-213,-166,1309,-189,165
3570,16,-207,-154,1367,-214,152
3575,13,-204,-151,1439,-252,145
3580,15,-203,-145,1502,-290,140
3585,13,-208,-141,1552,-319,129
3590,7,-211,-139,1599,-327,116
3595,9,-229,-137,1631,-324,102
3600,4,-251,-135,1638,-310,92
3605,-12,-282,-146,1608,-311,78
3610,-28,-332,-164,1511,-343,61
3615,-27,-390,-205,1335,-397,27
3620,-17,-451,-230,1069,-434,-18
3625,-2,-477,-252,734,-434,-58
3630,24,-458,-270,378,-393,-60
3635,43,-408,-260,143,-320,41
3640,43,-355,-235,240,-228,176
3645,48,-325,-220,647,-219,294
3650,51,-298,-221,1172,-236,353
3655,52,-269,-227,1696,-259,356
3660,48,-241,-221,2163,-277,317
3665,52,-194,-199,2540,-301,267
3670,40,-158,-174,2799,-291,228
3675,30,-131,-121,2910,-224,197
3680,22,-114,-81,2874,-126,179
3685,3,-98,-53,2652,14,158
3690,-6,-97,-29,2337,130,155
3695,-15,-99,-27,1945,221,140
3700,-24,-107,-12,1511,278,126
3705,-23,-129,-8,1111,271,115
3710,-24,-159,-6,795,227,106
3715,-18,-195,-12,589,166,99
3720,-11,-237,-20,505,104,98
3725,-16,-270,-35,535,41,93
3730,-16,-301,-45,668,-22,82
3735,-20,-319,-46,822,-64,66
3740,-26,-326,-48,985,-98,51
3745,-30,-332,-55,1133,-124,35
3750,-34,-326,-58,1253,-144,34
3755,-31,-322,-63,1333,-153,36
3760,-25,-306,-69,1379,-156,45
3765,-24,-287,-78,1396,-154,54
3770,-14,-274,-79,1379,-156,75
3775,-11,-258,-85,1330,-150,92
3780,-4,-242,-85,1243,-144,113
3785,3,-229,-80,1155,-134,136
3790,5,-217,-74,1070,-126,155
3795,6,-210,-66,980,-113,167
3800,7,-205,-57,898,-98,180
3805,10,-208,-64,816,-86,179
3810,7,-218,-66,741,-84,173
3815,2,-221,-68,663,-90,167
3820,-2,-226,-70,608,-94,147
3825,-1,-234,-68,594,-88,126
3830,-8,-240,-64,607,-72,97
3835,-8,-245,-66,621,-55,80
3840,-9,-244,-62,633,-36,66
3845,-12,-244,-63,655,-21,49
3850,-12,-244,-58,655,-5,51
3855,-20,-245,-61,626,12,62
3860,-20,-250,-63,591,26,72
3865,-19,-255,-61,553,27,92
3870,-23,-256,-57,528,13,118
3875,-19,-255,-55,543,-6,133
3880,-18,-253,-49,582,-30,140
3885,-18,-248,-34,630,-57,132
3890,-19,-252,-32,678,-77,106
3895,-18,-248,-22,681,-87,91
3900,-21,-250,-10,647,-84,78
3905,-22,-254,-7,596,-76,60
3910,-24,-255,-5,539,-69,38
3915,-27,-254,-10,472,-52,23
3920,-22,-249,-14,420,-33,21
3925,-25,-246,-13,385,-23,18
3930,-13,-244,-26,363,-24,-1
3935,-4,-240,-32,339,-37,-6
3940,-1,-237,-46,313,-35,4
3945,3,-236,-50,287,-31,23
3950,3,-235,-55,269,-19,26
3955,-2,-232,-64,251,-1,28
3960,-3,-226,-63,212,37,25
3965,-6,-224,-66,166,63,25
3970,-3,-224,-56,120,71,29
3975,-2,-223,-58,83,64,23
3980,-4,-227,-53,63,53,10
3985,-5,-227,-49,45,48,9
3990,-7,-236,-45,25,48,5
3995,-9,-240,-46,10,48,9
4000,-10,-239,-47,-2,45,9
4005,-10,-243,-52,-6,39,13
4010,-12,-246,-53,-3,34,9
4015,-11,-252,-59,5,29,7
4020,-9,-252,-59,24,25,1
4025,-11,-257,-62,51,23,-1
4030,-9,-259,-61,87,22,-7
4035,-8,-261,-61,125,20,-8
4040,-10,-263,-64,162,19,-14
4045,-6,-265,-61,195,19,-14
4050,-3,-264,-62,227,12,-19
4055,-4,-259,-61,262,6,-18
4060,0,-259,-63,289,3,-22
4065,-4,-258,-61,311,2,-16
4070,-3,-255,-60,327,5,-14
4075,-1,-256,-56,338,11,-10
4080,-3,-257,-56,343,16,-10
4085,-8,-256,-55,338,18,-3
4090,-8,-256,-50,328,14,-3
4095,-4,-255,-52,317,8,3
4100,-7,-255,-52,306,3,5
4105,-3,-251,-54,303,3,7
4110,-7,-253,-51,297,6,4
4115,-6,-249,-54,290,12,7
4120,-7,-246,-52,279,18,5
4125,-8,-241,-52,269,22,8
4130,-4,-240,-49,256,22,6
4135,-6,-240,-45,239,20,12
4140,-4,-238,-46,218,19,8
4145,-5,-241,-47,184,18,8
4150,-6,-241,-43,152,16,4
4155,-3,-243,-41,124,17,5
4160,-4,-244,-37,95,14,-1
4165,-2,-247,-40,64,14,-1
4170,-6,-251,-37,37,12,-6
4175,-6,-251,-39,14,11,-7
4180,-4,-257,-39,-2,7,-12
4185,-7,-258,-36,-5,5,-12
4190,-6,-257,-35,5,8,-14
4195,-9,-259,-33,22,13,-12
4200,-9,-260,-33,37,18,-12
4205,-11,-259,-31,52,22,-8
4210,-12,-256,-29,59,23,-10
4215,-9,-255,-27,59,22,-8
4220,-8,-255,-31,57,17,-9
4225,-7,-253,-25,52,14,-6
4230,-11,-244,-28,47,10,-9
4235,-13,-243,-30,40,7,-5
4240,-9,-245,-28,32,4,-7
4245,-7,-244,-29,25,2,-3
4250,-8,-243,-29,18,2,-4
4255,-9,-243,-28,7,0,0
4260,-7,-246,-27,-6,-2,-3
4265,-8,-246,-30,-21,-5,-4
4270,-10,-248,-32,-37,-8,-11
4275,-8,-250,-31,-54,-12,-14
4280,-8,-254,-30,-66,-14,-22
4285,-9,-255,-32,-74,-16,-22
4290,-11,-259,-34,-74,-20,-27
4295,-10,-258,-32,-73,-24,-29
4300,-12,-259,-38,-70,-29,-32
4305,-12,-258,-36,-67,-32,-33
4310,-10,-259,-39,-63,-37,-37
4315,-11,-259,-38,-58,-40,-40
4320,-11,-257,-39,-53,-45,-44
4325,-15,-256,-40,-51,-51,-46
4330,-13,-256,-42,-48,-56,-50
4335,-13,-255,-39,-45,-62,-46
4340,-15,-256,-37,-40,-71,-46
4345,-18,-255,-45,-37,-79,-44
4350,-19,-255,-44,-38,-90,-44
4355,-14,-255,-44,-40,-99,-47
4360,-16,-255,-43,-45,-110,-51
4365,-14,-258,-48,-54,-117,-56
4370,-16,-260,-42,-62,-122,-67
4375,-13,-261,-45,-66,-130,-75
4380,-12,-261,-44,-69,-135,-87
4385,-12,-261,-47,-67,-136,-93
4390,-11,-262,-45,-60,-132,-99
4395,-11,-260,-47,-52,-127,-101
4400,-12,-259,-48,-45,-123,-100
4405,-12,-259,-49,-37,-122,-95
4410,-14,-256,-52,-29,-125,-90
4415,-12,-257,-49,-24,-128,-85
4420,-12,-253,-44,-20,-133,-80
4425,-12,-255,-44,-16,-139,-73
4430,-12,-253,-43,-19,-146,-68
4435,-12,-255,-41,-28,-154,-64
4440,-14,-257,-40,-41,-162,-65
4445,-14,-258,-41,-57,-172,-69
4450,-12,-260,-45,-71,-186,-75
4455,-19,-260,-48,-83,-205,-85
4460,-16,-262,-40,-88,-220,-90
4465,-19,-260,-48,-87,-237,-95
4470,-16,-262,-50,-70,-250,-99
4475,-16,-264,-47,-50,-261,-102
4480,-15,-267,-48,-28,-272,-108
4485,-12,-267,-49,0,-281,-113
4490,-13,-265,-50,29,-287,-117
4495,-13,-262,-48,59,-292,-119
4500,-12,-261,-41,86,-298,-118
4505,-11,-256,-40,107,-309,-120
4510,-7,-256,-40,118,-323,-121
4515,-4,-250,-36,117,-341,-124
4520,0,-250,-35,107,-355,-122
4525,8,-247,-34,89,-369,-122
4530,11,-248,-33,63,-383,-120
4535,13,-248,-37,31,-396,-113
4540,16,-247,-40,-1,-409,-105
4545,16,-251,-42,-26,-420,-102
4550,16,-252,-43,-41,-430,-98
4555,16,-253,-49,-44,-436,-97
4560,19,-254,-47,-27,-433,-96
4565,18,-255,-48,-3,-426,-92
4570,14,-254,-45,27,-416,-86
4575,15,-254,-49,54,-407,-79
4580,15,-255,-44,83,-399,-68
4585,16,-248,-44,107,-393,-60
4590,16,-248,-42,128,-384,-50
4595,16,-244,-44,145,-375,-45
4600,15,-245,-43,152,-362,-34
4605,20,-241,-42,149,-335,-28
4610,21,-242,-37,140,-309,-19
4615,22,-241,-36,126,-280,-14
4620,24,-243,-38,110,-252,-4
4625,26,-243,-35,90,-226,1
4630,27,-244,-33,74,-206,10
4635,27,-245,-38,62,-192,18
4640,30,-244,-38,50,-181,30
4645,30,-244,-38,35,-167,40
4650,26,-240,-42,15,-149,60
4655,24,-240,-46,-13,-136,71
4660,21,-245,-49,-40,-122,87
4665,19,-249,-50,-58,-105,97
4670,18,-247,-49,-68,-93,110
4675,14,-242,-53,-69,-80,117
4680,13,-246,-51,-63,-63,130
4685,13,-246,-52,-55,-46,137
4690,10,-250,-49,-48,-29,147
4695,8,-246,-53,-46,-10,154
4700,10,-251,-53,-48,9,163
4705,5,-249,-50,-50,25,164
4710,5,-253,-50,-55,40,168
4715,-1,-250,-50,-60,52,165
4720,3,-253,-51,-67,64,167
4725,0,-256,-52,-74,71,161
4730,-1,-258,-50,-79,80,156
4735,-6,-260,-50,-81,86,150
4740,-3,-259,-45,-85,93,146
4745,-6,-260,-43,-90,99,134
4750,-6,-260,-46,-95,106,129
4755,-10,-260,-47,-99,114,115
4760,-9,-263,-45,-104,122,106
4765,-10,-262,-45,-109,130,90
4770,-12,-263,-43,-115,138,79
4775,-14,-262,-45,-115,145,63
4780,-15,-263,-47,-111,149,52
4785,-16,-264,-44,-101,150,37
4790,-22,-262,-45,-83,149,33
4795,-22,-262,-49,-61,145,27
4800,-20,-260,-44,-39,141,27
4805,-17,-261,-46,-15,137,24
4810,-21,-256,-43,8,131,28
4815,-18,-256,-45,28,129,28
4820,-12,-255,-47,40,127,34
4825,-12,-250,-47,45,128,34
4830,-12,-251,-40,40,129,36
4835,-12,-250,-45,29,131,33
4840,-10,-250,-42,17,132,33
4845,-8,-254,-40,3,135,30
4850,-10,-255,-38,-7,139,31
4855,-9,-255,-37,-14,141,25
4860,-7,-253,-36,-19,145,21
4865,-8,-254,-38,-21,150,17
4870,-7,-249,-41,-21,155,14
4875,-7,-253,-39,-22,164,8
4880,-9,-249,-42,-26,175,7
4885,-7,-252,-42,-32,185,2
4890,-7,-252,-42,-40,195,3
4895,-8,-252,-36,-46,204,1
4900,-9,-251,-39,-52,211,4
4905,-12,-249,-39,-56,216,5
4910,-9,-255,-35,-59,219,6
4915,-10,-256,-39,-62,222,6
4920,-11,-254,-41,-62,224,6
4925,-12,-258,-40,-60,227,5
4930,-12,-258,-39,-52,230,8
4935,-10,-260,-38,-43,228,8
4940,-11,-259,-41,-32,227,11
4945,-12,-258,-36,-21,227,12
4950,-12,-258,-40,-11,227,15
4955,-10,-257,-43,-4,225,15
4960,-12,-258,-42,-2,220,15
4965,-10,-258,-42,-2,216,17
4970,-11,-256,-45,-3,211,19
4975,-10,-253,-38,-3,207,19
4980,-9,-254,-42,1,203,19
4985,-7,-252,-39,7,198,16
4990,-7,-254,-40,12,196,15
4995,-5,-253,-39,20,190,12
5000,-4,-258,-37,25,187,9
5005,-4,-254,-39,28,186,3
5010,-4,-254,-40,32,186,3
5015,-5,-253,-31,31,186,2
5020,-4,-255,-34,28,188,4
5025,-2,-254,-37,24,186,4
5030,-5,-253,-40,15,185,6
5035,-6,-253,-41,8,184,7
5040,-5,-255,-36,-1,182,9
5045,-4,-254,-40,-8,181,9
5050,-5,-254,-41,-15,178,14
5055,-5,-253,-36,-22,177,15
5060,-9,-251,-40,-36,172,14
5065,-10,-251,-39,-52,168,12
5070,-12,-252,-44,-67,165,11
5075,-10,-253,-41,-84,164,9
5080,-11,-251,-41,-98,167,7
5085,-10,-254,-44,-111,170,4
5090,-11,-251,-44,-119,173,2
5095,-9,-252,-43,-125,178,2
5100,-10,-252,-41,-128,182,-1
5105,-11,-255,-46,-132,185,0
5110,-9,-255,-42,-132,186,1
5115,-8,-254,-42,-132,183,2
5120,-12,-254,-41,-130,180,5
5125,-11,-254,-42,-127,176,6
5130,-12,-252,-42,-122,169,5
5135,-9,-256,-42,-119,164,8
5140,-9,-255,-43,-115,158,7
5145,-10,-248,-45,-114,154,10
5150,-9,-251,-45,-116,149,9
5155,-9,-254,-50,-120,143,13
5160,-11,-251,-43,-127,138,12
5165,-12,-250,-46,-134,134,13
5170,-12,-256,-44,-140,134,10
5175,-11,-254,-43,-146,132,12
5180,-8,-257,-46,-144,133,10
5185,-7,-258,-47,-136,129,12
5190,-10,-252,-46,-123,127,11
5195,-10,-254,-47,-106,123,15
5200,-10,-255,-49,-87,117,13
5205,-11,-252,-44,-65,113,13
5210,-11,-252,-47,-54,108,9
5215,-7,-253,-48,-46,104,10
5220,-7,-250,-45,-45,104,6
5225,-7,-250,-46,-51,105,7
5230,-7,-250,-47,-61,104,1
5235,-9,-251,-49,-75,103,1
5240,-8,-250,-47,-89,103,-5
5245,-9,-252,-49,-100,101,-9
5250,-9,-253,-47,-109,101,-14
5255,-9,-253,-47,-111,102,-14
5260,-6,-255,-47,-112,105,-17
5265,-8,-253,-46,-111,109,-15
5270,-9,-256,-49,-108,110,-16
5275,-7,-253,-45,-104,113,-12
5280,-10,-256,-50,-100,115,-12
5285,-5,-253,-49,-95,118,-7
5290,-6,-254,-49,-91,121,-8
5295,-7,-254,-49,-88,122,-5
5300,-6,-256,-48,-85,121,-4
5305,-8,-255,-47,-84,118,-2
5310,-9,-255,-50,-87,117,-1
5315,-9,-254,-47,-91,115,1
5320,-11,-255,-46,-93,113,-2
5325,-7,-255,-49,-95,110,-1
5330,-11,-253,-46,-99,108,-2
5335,-10,-255,-46,-99,109,0
5340,-12,-253,-49,-100,110,-2
5345,-10,-252,-48,-104,113,-1
5350,-11,-248,-46,-107,116,-2
5355,-11,-252,-45,-111,120,-1
5360,-11,-249,-46,-117,119,-4
5365,-8,-251,-46,-127,119,-1
5370,-8,-254,-50,-135,119,-1
5375,-7,-253,-48,-140,119,2
5380,-7,-254,-49,-144,117,-1
5385,-5,-255,-52,-144,116,3
5390,-6,-256,-48,-139,117,0
5395,-6,-256,-53,-132,119,-1
5400,-3,-255,-51,-130,115,-1
5405,-7,-254,-52,-130,116,1
5410,-4,-254,-51,-131,120,-3
5415,-6,-254,-52,-132,121,-5
5420,-3,-255,-50,-137,126,-9
5425,-8,-251,-51,-143,126,-10
5430,-4,-254,-53,-151,129,-17
5435,-6,-254,-53,-158,131,-19
5440,-6,-250,-50,-165,131,-19
5445,-7,-253,-52,-170,132,-14
5450,-6,-251,-54,-168,132,-16
5455,-8,-253,-54,-166,131,-13
5460,-6,-251,-55,-156,131,-17
5465,-8,-252,-53,-148,124,-11
5470,-8,-252,-54,-136,120,-10
5475,-12,-248,-55,-124,110,-5
5480,-8,-253,-54,-110,99,-8
5485,-8,-253,-56,-101,92,-8
5490,-6,-253,-51,-94,86,-12
5495,-10,-253,-56,-88,82,-12
5500,-9,-254,-59,-85,77,-15
5505,-9,-252,-60,-81,74,-12
5510,-8,-255,-55,-78,73,-16
5515,-9,-251,-59,-76,73,-14
5520,-7,-253,-61,-72,73,-14
5525,-6,-252,-64,-63,74,-12
5530,-7,-251,-61,-51,74,-12
5535,-8,-251,-58,-36,73,-6
5540,-7,-252,-57,-20,76,-3
5545,-7,-250,-59,-6,77,2
5550,-7,-251,-56,4,79,3
5555,-5,-253,-56,10,79,3
5560,-6,-252,-54,10,79,3
5565,-7,-253,-55,6,82,5
5570,-9,-252,-54,0,83,3
5575,-8,-253,-56,-2,82,5
5580,-8,-250,-55,-2,82,5
5585,-8,-249,-57,0,83,6
5590,-9,-252,-53,3,81,6
5595,-7,-252,-56,5,79,8
5600,-7,-252,-53,7,77,7
5605,-9,-254,-56,8,77,9
5610,-6,-255,-59,8,75,9
5615,-5,-252,-57,6,71,10
5620,-8,-251,-54,7,70,9
5625,-7,-254,-57,7,69,11
5630,-8,-254,-55,6,70,13
5635,-8,-253,-53,5,68,13
5640,-6,-253,-56,7,68,13
5645,-8,-252,-50,11,68,12
5650,-8,-251,-55,13,68,13
5655,-8,-253,-53,18,66,12
5660,-7,-253,-55,19,65,13
5665,-8,-254,-54,20,66,15
5670,-9,-252,-56,17,66,14
5675,-8,-253,-56,14,68,15
5680,-9,-250,-54,10,69,15
5685,-8,-252,-56,7,70,14
5690,-6,-253,-53,1,72,13
5695,-9,-253,-54,0,74,12
5700,-8,-249,-55,-4,76,10
5705,-7,-251,-54,-5,77,10
5710,-7,-253,-54,-7,79,10
5715,-6,-255,-52,-8,79,8
5720,-6,-252,-50,-9,76,9
5725,-9,-255,-56,-9,74,7
5730,-11,-252,-56,-9,71,7
5735,-10,-252,-54,-9,69,6
5740,-10,-252,-55,-6,69,8
5745,-9,-253,-55,-5,69,8
5750,-9,-250,-55,-2,71,9
5755,-7,-253,-53,0,69,8
5760,-10,-252,-53,-2,70,8
5765,-9,-254,-52,-5,71,7
5770,-10,-252,-54,-10,72,5
5775,-9,-252,-54,-12,75,3
5780,-7,-254,-56,-15,75,4
5785,-9,-250,-54,-17,76,4
5790,-10,-253,-50,-18,76,5
5795,-9,-250,-50,-16,76,3
5800,-9,-253,-55,-14,75,4
5805,-8,-253,-55,-14,73,1
5810,-6,-253,-57,-10,72,3
5815,-5,-254,-57,-10,71,3
5820,-7,-254,-58,-10,70,5
5825,-9,-252,-56,-10,68,1
5830,-8,-255,-56,-9,67,2
5835,-7,-254,-57,-8,67,0
5840,-4,-253,-57,-5,66,2
5845,-7,-255,-54,-4,68,3
5850,-9,-254,-55,-2,67,4
5855,-6,-253,-58,1,66,3
5860,-7,-254,-53,4,67,6
5865,-6,-252,-53,5,67,2
5870,-9,-249,-55,5,65,5
5875,-8,-252,-54,3,65,2
5880,-8,-253,-55,0,64,3
5885,-10,-251,-55,-5,64,1
5890,-8,-251,-56,-10,62,2
5895,-8,-253,-51,-13,61,1
5900,-9,-250,-55,-16,62,5
5905,-7,-251,-55,-21,60,1
5910,-9,-252,-55,-23,60,3
5915,-7,-251,-51,-26,60,0
5920,-8,-253,-52,-29,60,3
5925,-8,-252,-54,-32,60,0
5930,-10,-251,-55,-33,60,4
5935,-9,-250,-58,-32,60,0
5940,-11,-252,-55,-30,60,3
5945,-8,-254,-57,-28,62,2
5950,-9,-252,-55,-27,62,3
5955,-11,-249,-51,-25,62,2
5960,-9,-253,-58,-26,65,5
5965,-9,-254,-53,-27,63,3
5970,-7,-255,-55,-26,62,3
5975,-9,-253,-54,-25,62,-1
5980,-10,-255,-57,-22,61,0
5985,-7,-253,-56,-15,59,-2
5990,-7,-254,-57,-9,57,0
5995,-9,-256,-52,-4,57,-3
6000,-11,-252,-56,0,56,-2
6005,-8,-252,-56,4,57,-4
6010,-9,-251,-56,6,57,-2
6015,-6,-253,-53,7,57,-4
6020,-7,-253,-56,6,58,-1
6025,-9,-250,-55,4,57,-3
6030,-6,-253,-54,3,57,-1
6035,-7,-250,-56,1,58,-2
6040,-8,-249,-56,0,56,1
6045,-11,-251,-51,-1,58,1
6050,-9,-250,-52,-2,57,2
6055,-6,-252,-54,-3,59,0
6060,-9,-247,-56,-5,58,3
6065,-7,-251,-53,-6,58,3
6070,-8,-252,-51,-6,59,4
6075,-6,-250,-53,-8,57,1
6080,-6,-254,-52,-9,58,3
6085,-10,-252,-53,-11,60,0
6090,-7,-256,-52,-13,60,1
6095,-9,-252,-50,-12,60,-1
6100,-10,-256,-52,-11,59,-1
6105,-7,-255,-55,-9,58,-3
6110,-9,-253,-55,-8,59,-2
6115,-9,-253,-55,-6,58,-5
6120,-9,-254,-53,-4,58,-2
6125,-7,-252,-51,-3,59,-5
6130,-6,-253,-54,-3,58,-5
6135,-7,-252,-53,-4,58,-6
6140,-10,-253,-52,-5,58,-7
6145,-8,-252,-53,-8,58,-8
6150,-8,-251,-56,-7,58,-7
6155,-4,-253,-56,-6,60,-7
6160,-8,-252,-53,-4,60,-5
6165,-6,-254,-56,-1,60,-4
6170,-8,-254,-56,1,61,-3
6175,-9,-251,-56,1,59,-3
6180,-7,-250,-54,3,58,-3
6185,-7,-250,-56,1,58,-4
6190,-8,-250,-55,-2,58,-4
6195,-9,-249,-57,-3,57,-3
6200,-5,-252,-57,-4,58,-3
6205,-8,-253,-55,-5,59,-3
6210,-7,-255,-56,-3,59,-1
6215,-9,-252,-55,-3,58,-2
6220,-15,-253,-47,0,56,-2
6225,-7,-251,-52,2,56,-2
6230,-6,-254,-53,5,56,-1
6235,-7,-252,-56,7,55,-1
6240,-6,-255,-55,11,54,-1
6245,-8,-250,-53,13,55,-1
6250,-9,-252,-54,13,54,0
6255,-6,-251,-52,13,53,-3
6260,-7,-253,-55,9,53,-3
6265,-8,-251,-52,8,54,-3
6270,-10,-252,-56,4,54,-3
6275,-8,-250,-55,1,54,-3
6280,-9,-251,-55,-5,55,-4
6285,-10,-250,-55,-8,55,-4
6290,-8,-248,-57,-10,56,-4
6295,-9,-250,-54,-11,57,-4
6300,-10,-253,-55,-8,58,-2
6305,-7,-252,-56,-7,57,-1
6310,-8,-251,-55,-7,57,-2
6315,-8,-252,-56,-3,60,-1
6320,-7,-253,-54,-2,59,-1
6325,-9,-255,-51,1,59,1
6330,-9,-254,-59,3,62,-1
6335,-9,-255,-53,7,61,-1
6340,-8,-252,-56,7,62,-1
6345,-8,-253,-52,8,64,-1
6350,-6,-255,-56,7,63,-1
6355,-7,-256,-54,9,62,0
6360,-7,-256,-53,10,62,-2
6365,-10,-254,-54,9,61,0
6370,-7,-253,-53,8,60,0
6375,-9,-254,-54,11,58,3
6380,-8,-254,-53,12,57,3
6385,-7,-253,-53,12,53,5
6390,-8,-251,-56,11,49,4
6395,-7,-250,-53,11,47,4
6400,-9,-252,-52,8,45,2
6405,-4,-251,-54,7,45,1
6410,-8,-251,-56,4,45,-3
6415,-9,-251,-53,3,46,-3
6420,-8,-252,-54,2,47,-5
6425,-9,-255,-53,1,49,-4
6430,-8,-253,-55,1,51,-5
6435,-9,-251,-51,1,52,-4
6440,-9,-251,-51,1,55,-5
6445,-7,-254,-51,-1,58,-2
6450,-8,-251,-54,-3,57,-4
6455,-8,-249,-54,-5,58,0
6460,-8,-251,-53,-8,60,-2
6465,-7,-252,-46,-9,62,1
6470,-10,-250,-50,-15,61,-1
6475,-6,-253,-51,-15,59,1
6480,-6,-256,-53,-17,60,0
6485,-6,-254,-53,-16,58,2
6490,-9,-255,-57,-16,59,1
6495,-7,-255,-53,-13,61,2
6500,-8,-255,-51,-12,60,0
6505,-9,-257,-52,-8,60,0
6510,-9,-256,-52,-4,60,-1
6515,-7,-253,-54,-1,59,0
6520,-10,-254,-52,5,60,-1
6525,-6,-255,-54,9,60,1
6530,-8,-250,-55,13,61,-1
6535,-8,-249,-52,11,60,0
6540,-9,-250,-50,8,59,-3
6545,-8,-250,-55,3,58,-2
6550,-10,-249,-53,-3,59,-6
6555,-8,-250,-51,-8,60,-4
6560,-8,-251,-52,-14,61,-8
6565,-8,-253,-50,-19,63,-6
6570,-8,-252,-53,-21,63,-7
6575,-8,-252,-56,-24,66,-3
6580,-10,-255,-49,-25,66,-4
6585,-7,-254,-51,-24,67,-1
6590,-5,-252,-54,-24,67,-4
6595,-10,-251,-55,-23,64,-1
6600,-7,-248,-59,-20,64,-3
6605,-9,-248,-40,-20,62,-1
6610,-9,-255,-56,-17,61,-2
6615,-11,-243,-56,-15,60,0
6620,-9,-250,-75,-13,58,-1
6625,-6,-255,-52,-11,56,1
6630,-6,-251,-53,-10,55,0
6635,-10,-254,-55,-9,53,1
6640,-8,-253,-54,-9,53,-2
6645,-11,-252,-54,-7,54,-2
6650,-8,-252,-53,-7,55,-4
6655,-8,-250,-53,-7,58,-2
6660,-8,-253,-52,-6,60,-5
6665,-8,-254,-50,-7,63,-4
6670,-7,-252,-54,-8,64,-6
6675,-7,-255,-54,-10,64,-5
6680,-7,-251,-52,-11,64,-6
6685,-8,-254,-55,-12,63,-5
6690,-7,-255,-52,-13,63,-6
6695,-8,-251,-54,-10,62,-4
6700,-6,-256,-55,-9,61,-5
6705,-4,-254,-57,-7,60,-1
6710,-7,-254,-56,-7,60,-2
6715,-7,-255,-55,-5,57,1
6720,-6,-255,-54,-6,55,-1
6725,-8,-253,-55,-4,53,-1
6730,-6,-252,-54,-1,53,-1
6735,-9,-255,-55,1,50,-1
6740,-6,-254,-54,5,50,-3
6745,-7,-254,-54,7,50,-3
6750,-9,-253,-52,9,50,-4
6755,-8,-254,-55,12,52,-2
6760,-10,-251,-51,11,52,-4
6765,-8,-250,-55,11,52,-3
6770,-5,-253,-52,10,53,-5
6775,-6,-252,-52,10,53,-4
6780,-6,-253,-51,8,56,-3
6785,-5,-253,-53,6,56,-4
6790,-10,-251,-53,2,56,-4
6795,-7,-254,-52,-1,56,-1
6800,-8,-253,-52,-1,57,-2
6805,-8,-254,-49,-4,56,0
6810,-9,-254,-51,-5,57,1
6815,-9,-253,-52,-4,58,3
6820,-10,-254,-50,-2,57,3
6825,-7,-253,-56,0,58,5
6830,-10,-255,-50,3,58,4
6835,-11,-255,-55,5,59,4
6840,-7,-255,-51,11,59,1
6845,-6,-254,-53,14,58,1
6850,-4,-254,-54,14,55,-1
6855,-8,-254,-53,16,55,-1
6860,-8,-251,-54,15,55,-4
6865,-9,-250,-53,11,54,-5
6870,-10,-251,-53,9,53,-6
6875,-7,-251,-51,5,51,-3
6880,-8,-253,-53,1,52,-3
6885,-8,-251,-52,-3,54,-4
6890,-6,-257,-49,-5,56,-3
6895,-9,-255,-53,-4,59,-3
6900,-6,-256,-54,-3,61,-3
6905,-8,-254,-49,1,63,-3
6910,-9,-251,-54,5,63,0
6915,-9,-251,-54,7,64,-3
6920,-10,-250,-54,10,64,-1
6925,-8,-251,-53,10,65,0
6930,-9,-253,-56,13,64,0
6935,-7,-253,-54,13,62,1
6940,-7,-254,-53,14,58,1
6945,-6,-254,-54,14,57,0
6950,-8,-252,-53,18,56,1
6955,-8,-253,-53,19,55,-2
6960,-7,-252,-52,22,57,0
6965,-6,-256,-52,25,58,-1
6970,-7,-253,-51,28,57,1
6975,-7,-254,-53,30,58,2
6980,-7,-254,-50,32,60,4
6985,-5,-253,-50,33,58,3
6990,-5,-253,-48,31,58,3
6995,-9,-250,-55,28,58,1
7000,-10,-252,-50,23,59,3
7005,-8,-252,-49,18,58,-1
7010,-9,-250,-50,13,58,1
7015,-9,-253,-55,6,58,0
7020,-8,-253,-50,1,58,0
7025,-7,-253,-49,-2,57,-2
7030,-8,-252,-51,-1,57,-1
7035,-8,-253,-48,-1,58,-2
7040,-7,-252,-48,1,58,0
7045,-8,-253,-53,2,56,-3
7050,-10,-255,-50,5,56,-1
7055,-6,-254,-51,8,56,-2
7060,-8,-255,-51,8,57,-2
7065,-9,-250,-50,10,57,-3
7070,-8,-255,-51,10,56,-1
7075,-7,-253,-52,11,56,-2
7080,-8,-253,-52,11,58,1
7085,-9,-252,-52,12,59,-3
7090,-9,-252,-49,10,58,0
7095,-8,-253,-52,7,58,-1
7100,-9,-250,-51,6,59,0
7105,-9,-250,-49,3,58,-2
7110,-9,-252,-50,1,59,1
7115,-8,-254,-51,0,58,-2
7120,-10,-251,-47,0,57,1
7125,-9,-255,-50,1,57,-1
7130,-6,-253,-54,3,56,3
7135,-10,-249,-51,2,54,0
7140,-11,-251,-51,2,53,4
7145,-10,-255,-49,1,54,0
7150,-9,-254,-50,1,55,2
7155,-8,-252,-50,-1,56,-2
7160,-7,-254,-52,-1,56,-2
7165,-7,-255,-49,-2,56,-5
7170,-8,-248,-49,0,56,-4
7175,-10,-253,-52,2,59,-8
7180,-10,-252,-50,2,59,-6
7185,-7,-253,-50,3,58,-9
7190,-6,-253,-49,4,58,-4
7195,-8,-251,-50,2,56,-5
7200,-9,-252,-47,0,55,-3
7205,-8,-254,-49,-5,54,-5
7210,-7,-251,-50,-6,53,0
7215,-9,-253,-50,-7,53,-3
7220,-9,-252,-49,-8,54,-1
7225,-7,-255,-50,-6,53,-1
7230,-6,-253,-49,-6,53,1
7235,-9,-253,-52,-6,53,0
7240,-7,-252,-49,-5,54,1
7245,-8,-254,-49,-3,56,-2
7250,-8,-252,-50,-4,56,-1
7255,-7,-251,-51,-2,58,-4
7260,-8,-253,-52,-2,59,-2
7265,-10,-251,-47,0,61,-4
7270,-7,-254,-48,-2,61,-1
7275,-8,-251,-51,-4,62,-3
7280,-10,-250,-50,-7,62,0
7285,-9,-251,-48,-10,62,-1
7290,-9,-250,-50,-13,63,0
7295,-9,-253,-48,-14,62,-2
7300,-9,-254,-49,-15,63,-1
7305,-9,-255,-48,-16,64,-2
7310,-9,-250,-48,-17,64,-2
7315,-9,-252,-50,-18,64,-3
7320,-9,-255,-52,-18,62,-3
7325,-8,-254,-48,-19,61,-4
7330,-9,-254,-52,-20,63,-3
7335,-9,-254,-47,-18,63,-4
7340,-7,-255,-50,-16,62,-1
7345,-10,-253,-47,-14,63,-2
7350,-8,-254,-47,-12,62,-1
7355,-7,-253,-49,-11,61,-2
7360,-9,-253,-50,-10,61,1
7365,-8,-252,-49,-12,61,-1
7370,-6,-253,-51,-11,61,0
7375,-10,-250,-51,-12,60,-1
7380,-6,-254,-51,-14,62,0
7385,-9,-254,-53,-15,64,-1
7390,-8,-254,-50,-16,65,0
7395,-9,-253,-49,-17,64,-1
7400,-9,-251,-48,-19,63,-1
7405,-9,-252,-52,-18,62,-3
7410,-6,-253,-52,-18,61,-2
7415,-11,-250,-51,-17,61,-2
7420,-12,-251,-51,-17,61,-2
7425,-9,-253,-51,-16,61,-3
7430,-10,-256,-50,-18,61,-2
7435,-7,-253,-49,-19,60,-4
7440,-8,-250,-51,-23,61,-4
7445,-9,-253,-48,-23,62,-5
7450,-7,-252,-49,-24,63,-4
7455,-7,-253,-50,-23,64,-3
7460,-8,-252,-51,-20,63,-4
7465,-9,-250,-53,-21,63,-4
7470,-8,-250,-50,-21,62,-2
7475,-8,-252,-48,-23,60,-2
7480,-10,-253,-48,-25,60,-1
7485,-6,-257,-50,-25,62,0
7490,-10,-254,-54,-25,62,-1
7495,-4,-257,-52,-26,60,-1
7500,-7,-253,-53,-25,59,0
7505,-7,-255,-51,-20,59,2
7510,-7,-254,-51,-16,59,1
7515,-7,-252,-55,-12,57,2
7520,-9,-255,-51,-9,58,1
7525,-10,-250,-52,-7,60,3
7530,-6,-253,-47,-5,61,1
7535,-10,-254,-54,-5,61,2
7540,-5,-253,-47,-5,61,0
7545,-5,-250,-48,-5,60,1
7550,-7,-253,-54,-5,59,-4
7555,-10,-251,-55,-5,59,-4
7560,-8,-253,-51,-7,59,-4
7565,-9,-249,-53,-9,58,-4
7570,-8,-251,-48,-10,58,-6
7575,-9,-250,-48,-12,58,-4
7580,-10,-251,-52,-15,58,-5
7585,-8,-252,-50,-19,60,-2
7590,-8,-252,-46,-21,58,-3
7595,-6,-254,-46,-22,58,2
7600,-8,-251,-46,-22,57,1
7605,-10,-253,-47,-24,57,0
7610,-10,-250,-54,-26,57,0
7615,-9,-250,-50,-28,57,0
7620,-8,-254,-52,-27,59,-1
7625,-8,-256,-52,-26,59,-1
7630,-9,-249,-52,-22,61,-3
7635,-9,-257,-52,-20,63,-2
7640,-9,-255,-52,-18,62,-5
7645,-7,-254,-52,-14,62,-4
7650,-8,-251,-51,-11,62,-5
7655,-6,-253,-49,-10,61,-4
7660,-8,-249,-49,-9,63,-6
7665,-7,-252,-50,-11,63,-4
7670,-10,-249,-51,-15,65,-8
7675,-7,-252,-51,-18,65,-7
7680,-9,-252,-49,-21,65,-9
7685,-10,-254,-49,-24,64,-6
7690,-10,-255,-51,-26,64,-8
7695,-10,-252,-50,-25,65,-6
7700,-6,-256,-51,-21,66,-7
7705,-9,-256,-57,-16,67,-1
7710,-7,-256,-53,-10,68,-2
7715,-8,-255,-53,-6,66,2
7720,-7,-250,-54,-3,64,-1
7725,-9,-251,-51,-4,64,1
7730,-10,-252,-51,-7,61,-2
7735,-10,-251,-54,-9,61,-1
7740,-9,-252,-51,-13,59,-5
7745,-7,-249,-52,-12,58,-3
7750,-6,-255,-49,-13,56,-7
7755,-11,-250,-51,-13,54,-4
7760,-6,-254,-50,-9,54,-6
7765,-9,-253,-53,-9,53,-3
7770,-10,-253,-48,-8,56,-6
7775,-8,-251,-48,-10,58,-5
7780,-7,-251,-46,-11,59,-5
7785,-7,-255,-50,-12,62,-2
7790,-9,-252,-49,-13,65,-5
7795,-7,-254,-49,-15,66,-1
7800,-9,-252,-50,-17,67,-4
7805,-6,-257,-51,-19,69,0
7810,-8,-253,-53,-22,69,-1
7815,-9,-254,-48,-24,68,1
7820,-6,-254,-49,-24,69,-1
7825,-10,-255,-50,-26,68,1
7830,-10,-255,-53,-25,68,-1
7835,-7,-253,-49,-26,67,0
7840,-7,-255,-53,-25,66,-4
7845,-6,-254,-54,-24,67,-2
7850,-6,-254,-57,-23,67,-4
7855,-8,-255,-52,-22,67,-3
7860,-8,-252,-51,-23,66,-8
7865,-8,-255,-51,-22,67,-7
7870,-7,-258,-51,-24,67,-12
7875,-7,-253,-50,-25,69,-12
7880,-3,-257,-53,-28,72,-19
7885,-5,-257,-51,-31,75,-19
7890,-5,-258,-53,-37,77,-26
7895,-4,-256,-55,-44,79,-26
7900,-5,-259,-55,-48,81,-29
7905,-6,-258,-53,-47,80,-28
7910,-6,-263,-50,-43,78,-29
7915,-5,-263,-52,-35,77,-24
7920,-6,-268,-54,-26,74,-24
7925,-10,-267,-55,-24,74,-19
7930,-11,-268,-54,-29,71,-21
7935,-10,-268,-57,-40,73,-20
7940,-7,-268,-58,-62,82,-28
7945,-12,-266,-58,-88,93,-32
7950,-11,-261,-62,-120,98,-38
7955,-9,-260,-66,-156,99,-44
7960,-5,-249,-70,-197,94,-52
7965,-8,-246,-73,-240,89,-58
7970,-10,-238,-73,-264,85,-61
7975,-6,-232,-69,-285,77,-56
7980,-4,-231,-69,-302,62,-54
7985,-8,-221,-68,-313,38,-46
7990,-1,-217,-67,-312,19,-37
7995,-3,-212,-62,-297,1,-24
8000,-2,-205,-58,-274,-6,-12
8005,-2,-208,-56,-253,-5,3
8010,0,-208,-56,-249,1,16
8015,1,-207,-54,-296,8,23
8020,2,-213,-54,-360,18,27
8025,-1,-213,-54,-434,35,33
8030,-1,-219,-53,-514,53,32
8035,-3,-232,-53,-591,68,27
8040,-9,-235,-47,-658,80,18
8045,-7,-249,-52,-707,93,10
8050,-8,-257,-51,-735,107,4
8055,-7,-261,-47,-736,123,-5
8060,-8,-265,-52,-704,127,-17
8065,-12,-269,-48,-655,129,-31
8070,-12,-268,-53,-596,128,-47
8075,-13,-264,-51,-534,126,-55
8080,-13,-263,-52,-470,125,-59
8085,-13,-259,-47,-423,122,-62
8090,-12,-255,-43,-395,117,-65
8095,-13,-249,-31,-382,108,-64
8100,-11,-244,-27,-374,100,-61
8105,-8,-240,-28,-373,103,-58
8110,-10,-229,-23,-381,114,-55
8115,-4,-229,-19,-410,131,-54
8120,-5,-221,-19,-464,146,-52
8125,-2,-219,-22,-537,157,-50
8130,-1,-215,-25,-617,168,-45
8135,0,-218,-24,-699,184,-40
8140,0,-224,-18,-779,199,-28
8145,1,-227,-25,-871,216,-16
8150,1,-232,-29,-944,228,0
8155,1,-237,-32,-1009,233,13
8160,-7,-234,-37,-1065,239,20
8165,-11,-238,-33,-1114,242,17
8170,-12,-240,-37,-1163,241,10
8175,-18,-239,-42,-1217,236,0
8180,-17,-238,-44,-1273,231,-1
8185,-20,-232,-42,-1335,226,-2
8190,-19,-220,-45,-1421,228,9
8195,-17,-211,-42,-1499,232,28
8200,-11,-202,-43,-1581,239,54
8205,-13,-198,-35,-1665,268,68
8210,-9,-197,-34,-1752,307,83
8215,-8,-194,-16,-1847,341,104
8220,-8,-225,-39,-1974,383,127
8225,-4,-239,-32,-2111,406,151
8230,-5,-249,-45,-2266,428,122
8235,-6,-268,-52,-2393,436,102
8240,-13,-274,-64,-2523,468,77
8245,-18,-268,-80,-2623,517,51
8250,-16,-292,-111,-2661,579,42
8255,-17,-276,-136,-2646,655,69
8260,-35,-270,-144,-2622,759,83
8265,-10,-256,-149,-2620,833,141
8270,-20,-253,-143,-2660,922,215
8275,-2,-218,-134,-2670,933,223
8280,19,-211,-133,-2638,901,217
8285,25,-220,-138,-2595,900,197
8290,34,-225,-150,-2583,916,162
8295,40,-236,-161,-2563,948,148
8300,50,-222,-172,-2550,975,162
8305,41,-218,-176,-2503,1003,149
8310,42,-199,-178,-2470,1062,155
8315,36,-205,-197,-2394,1149,195
8320,27,-227,-213,-2295,1211,209
8325,39,-231,-216,-2245,1261,234
8330,12,-248,-239,-2164,1313,246
8335,3,-255,-245,-2074,1329,207
8340,-24,-276,-238,-1951,1320,172
8345,-33,-296,-247,-1816,1227,127
8350,-49,-341,-242,-1683,1059,77
8355,-48,-332,-232,-1610,848,-19
8360,-28,-382,-250,-1552,617,-50
8365,-4,-361,-241,-1527,419,-102
8370,-2,-372,-258,-1524,270,-102
8375,2,-372,-262,-1437,176,-89
8380,2,-384,-258,-1313,102,-103
8385,18,-362,-264,-1219,64,-114
8390,5,-353,-267,-1106,102,-97
8395,15,-332,-287,-987,130,-84
8400,3,-317,-283,-851,152,-63
8405,0,-302,-275,-753,150,-67
8410,5,-288,-297,-669,118,-76
8415,4,-285,-296,-578,70,-121
8420,19,-269,-309,-505,30,-176
8425,20,-240,-310,-441,7,-224
8430,26,-225,-314,-340,-15,-249
8435,29,-207,-322,-248,-26,-279
8440,23,-196,-318,-187,-39,-311
8445,23,-194,-320,-163,-67,-353
8450,18,-179,-321,-168,-99,-384
8455,17,-177,-318,-172,-127,-398
8460,20,-185,-317,-195,-183,-404
8465,18,-188,-312,-234,-241,-404
8470,23,-196,-308,-203,-296,-391
8475,20,-212,-296,-126,-353,-387
8480,24,-229,-278,-19,-420,-384
8485,25,-229,-278,93,-496,-379
8490,26,-234,-283,184,-560,-373
8495,21,-234,-285,274,-602,-381
8500,29,-245,-291,377,-634,-384
8505,36,-251,-290,507,-660,-399
8510,32,-255,-290,700,-694,-394
8515,30,-264,-284,876,-711,-388
8520,22,-259,-276,1044,-724,-376
8525,30,-255,-276,1185,-730,-378
8530,32,-244,-273,1300,-721,-389
8535,32,-228,-275,1383,-705,-409
8540,37,-230,-268,1425,-679,-404
8545,26,-223,-260,1459,-658,-414
8550,9,-217,-259,1495,-647,-396
8555,17,-216,-252,1520,-592,-360
8560,5,-214,-248,1553,-526,-325
8565,-2,-201,-252,1567,-448,-297
8570,-5,-200,-247,1553,-355,-262
8575,-3,-198,-237,1521,-259,-231
8580,-7,-200,-232,1500,-186,-197
8585,-4,-205,-224,1489,-142,-190
8590,-2,-205,-221,1477,-133,-191
8595,-2,-209,-206,1441,-140,-194
8600,-7,-220,-198,1399,-166,-190
8605,-10,-231,-185,1366,-192,-186
8610,-12,-237,-182,1330,-215,-161
8615,-7,-245,-178,1274,-218,-118
8620,-8,-251,-172,1203,-207,-73
8625,-1,-254,-167,1120,-196,-31
8630,4,-259,-164,1041,-184,-9
8635,4,-259,-168,970,-176,0
8640,10,-254,-175,906,-179,24
8645,14,-258,-179,854,-164,51
8650,14,-258,-182,824,-138,74
8655,15,-261,-186,799,-115,102
8660,17,-265,-180,776,-97,123
8665,8,-264,-172,750,-89,121
8670,11,-268,-169,750,-87,119
8675,7,-270,-165,765,-74,120
8680,4,-279,-162,784,-53,122
8685,5,-268,-154,804,-34,131
8690,6,-280,-165,876,-15,186
8695,4,-300,-154,900,0,196
8700,-2,-307,-149,894,-14,158
8705,-9,-309,-144,877,-66,101
8710,-11,-312,-149,864,-119,55
8715,-11,-311,-154,870,-161,24
8720,-9,-311,-152,893,-190,19
8725,-7,-311,-158,931,-212,23
8730,-9,-301,-166,975,-220,32
8735,-11,-309,-158,1033,-209,52
8740,-12,-315,-155,1083,-181,37
8745,-14,-314,-143,1106,-160,3
8750,-12,-313,-143,1130,-153,-28
8755,-10,-316,-139,1167,-149,-33
8760,-3,-307,-138,1236,-140,-38
8765,-1,-291,-150,1319,-134,-48
8770,-1,-271,-155,1370,-138,-51
8775,-6,-258,-121,1362,-136,-48
8780,-4,-248,-111,1445,-128,-24
8785,-3,-241,-124,1558,-123,-29
8790,0,-232,-120,1623,-119,-58
8795,2,-224,-119,1664,-117,-89
8800,4,-212,-120,1686,-109,-110
8805,4,-201,-113,1701,-103,-105
8810,11,-197,-111,1711,-99,-80
8815,16,-185,-109,1711,-86,-49
8820,18,-168,-105,1696,-61,-22
8825,28,-162,-102,1666,-23,18
8830,33,-141,-103,1601,8,22
8835,33,-131,-104,1536,34,29
8840,34,-114,-103,1465,65,41
8845,37,-102,-97,1401,119,75
8850,35,-89,-97,1319,179,86
8855,35,-80,-90,1230,245,100
8860,26,-68,-78,1139,306,112
8865,18,-58,-66,1060,352,115
8870,14,-51,-54,1015,389,116
8875,6,-31,-40,1012,406,128
8880,7,-37,-37,1102,430,192
8885,11,-32,-31,1187,443,255
8890,8,-32,-26,1262,420,272
8895,1,-24,-17,1332,371,247
8900,4,-15,-10,1422,310,199
8905,2,-5,-29,1569,263,151
8910,-2,-3,-34,1694,236,113
8915,2,10,-50,1766,226,100
8920,7,17,-65,1820,228,91
8925,12,30,-74,1858,245,76
8930,11,35,-93,1891,274,80
8935,15,40,-105,1869,300,99
8940,18,50,-111,1795,310,101
8945,21,54,-115,1695,298,85
8950,24,60,-118,1565,265,64
8955,27,63,-112,1413,231,59
8960,29,60,-115,1255,204,71
8965,30,58,-119,1016,191,88
8970,26,50,-111,754,178,106
8975,26,43,-100,478,163,127
8980,20,38,-98,239,142,136
8985,22,25,-88,66,130,146
8990,19,9,-79,-36,127,146
8995,12,-4,-71,-84,132,151
9000,3,-22,-65,-101,137,149
9005,-3,-39,-65,-106,142,158
9010,-11,-56,-67,-135,153,161
9015,-13,-69,-61,-189,165,172
9020,-24,-89,-53,-274,178,184
9025,-34,-112,-51,-392,186,205
9030,-48,-131,-44,-539,185,218
9035,-59,-159,-47,-706,179,224
9040,-75,-184,-52,-900,165,208
9045,-83,-209,-66,-1119,143,184
9050,-95,-237,-80,-1356,109,137
9055,-95,-257,-97,-1660,86,86
9060,-91,-276,-117,-1917,71,20
9065,-84,-301,-137,-2161,60,-54
9070,-62,-325,-170,-2395,54,-132
9075,-32,-352,-204,-2628,52,-201
9080,5,-376,-246,-2864,54,-264
9085,45,-397,-260,-3085,59,-315
9090,69,-417,-256,-3235,63,-355
9095,103,-437,-235,-3252,61,-352
9100,120,-468,-209,-3008,43,-293
9105,108,-497,-187,-2575,31,-219
9110,72,-514,-170,-1934,49,-176
9115,37,-507,-161,-1116,79,-152
9120,9,-478,-151,-180,66,-110
9125,-3,-455,-139,789,4,-48
9130,-12,-413,-126,1718,-68,-20
9135,-31,-364,-117,2529,-140,-30
9140,-44,-315,-102,3173,-210,-44
9145,-48,-265,-90,3709,-267,-23
9150,-46,-225,-85,3953,-274,5
9155,-43,-185,-82,4020,-257,25
9160,-33,-140,-87,3905,-217,12
9165,-30,-104,-78,3572,-143,-33
9170,-37,-75,-84,3118,-128,-84
9175,-43,-58,-86,2564,-163,-104
9180,-42,-54,-83,1930,-213,-87
9185,-31,-60,-74,1256,-250,-26
9190,-22,-77,-60,454,-267,19
9195,-12,-100,-44,-154,-264,51
9200,-6,-122,-38,-675,-255,61
9205,-1,-146,-37,-1084,-237,66
9210,2,-179,-34,-1374,-208,69
9215,1,-203,-34,-1549,-171,70
9220,2,-227,-37,-1626,-142,63
9225,5,-251,-37,-1617,-123,53
9230,5,-269,-46,-1537,-113,34
9235,7,-283,-46,-1366,-105,16
9240,8,-295,-48,-1183,-93,-1
9245,15,-307,-57,-977,-73,-10
9250,15,-317,-56,-757,-45,-14
9255,16,-318,-61,-525,-16,-20
9260,16,-321,-69,-299,10,-27
9265,16,-319,-79,-95,30,-32
9270,15,-317,-83,82,52,-36
9275,15,-313,-87,228,74,-48
9280,14,-302,-91,380,94,-68
9285,11,-289,-92,496,110,-87
9290,9,-276,-90,602,119,-100
9295,2,-261,-94,676,119,-99
9300,-1,-250,-93,717,112,-89
9305,-2,-243,-91,712,100,-78
9310,-7,-233,-95,669,90,-65
9315,-10,-223,-86,599,80,-52
9320,-9,-217,-84,514,72,-43
9325,-9,-217,-79,393,69,-39
9330,-11,-213,-80,289,67,-38
9335,-12,-212,-70,187,67,-37
9340,-12,-212,-68,90,69,-39
9345,-12,-216,-67,2,75,-41
9350,-12,-217,-69,-79,81,-43
9355,-12,-220,-68,-156,84,-45
9360,-15,-223,-66,-227,81,-45
9365,-12,-226,-65,-293,75,-42
9370,-12,-236,-67,-364,60,-39
9375,-11,-239,-68,-415,47,-34
9380,-11,-244,-69,-453,35,-30
9385,-6,-249,-68,-472,27,-27
9390,-4,-254,-64,-475,25,-22
9395,-1,-259,-67,-464,27,-20
9400,1,-261,-68,-438,35,-19
9405,4,-262,-66,-405,46,-19
9410,5,-261,-69,-360,58,-22
9415,8,-260,-67,-299,72,-26
9420,10,-259,-68,-247,79,-30
9425,10,-254,-67,-197,82,-35
9430,10,-253,-71,-153,81,-40
9435,11,-244,-75,-119,77,-46
9440,8,-242,-71,-100,74,-50
9445,5,-236,-75,-95,72,-56
9450,3,-232,-78,-107,74,-57
9455,1,-230,-80,-134,78,-62
9460,1,-222,-81,-183,87,-65
9465,-3,-222,-83,-236,97,-65
9470,-6,-220,-88,-292,110,-61
9475,-6,-219,-85,-345,120,-58
9480,-5,-222,-90,-390,128,-52
9485,-3,-223,-91,-427,132,-52
9490,-5,-225,-91,-450,134,-48
9495,-2,-227,-90,-468,133,-49
9500,-1,-230,-90,-482,128,-48
9505,-4,-232,-89,-497,121,-49
9510,0,-235,-95,-512,115,-51
9515,-4,-236,-93,-527,104,-55
9520,-5,-241,-97,-541,94,-53
9525,1,-240,-95,-554,86,-53
9530,-2,-245,-95,-562,80,-46
9535,-1,-247,-91,-560,78,-43
9540,0,-255,-88,-546,79,-34
9545,2,-256,-86,-519,85,-29
9550,-1,-257,-81,-470,89,-24
9555,-1,-258,-82,-417,90,-21
9560,-5,-257,-81,-359,91,-17
9565,-4,-256,-85,-303,91,-16
9570,-5,-255,-79,-249,90,-10
9575,-3,-255,-82,-206,89,-9
9580,-6,-255,-84,-175,84,-6
9585,-8,-250,-87,-155,80,-13
9590,-5,-250,-90,-144,74,-11
9595,-6,-250,-91,-136,66,-12
9600,-6,-250,-91,-135,59,-8
9605,-7,-244,-90,-140,52,-6
9610,-6,-248,-93,-148,49,1
9615,-7,-245,-93,-164,49,5
9620,-6,-244,-93,-183,52,13
9625,-4,-246,-86,-202,57,15
9630,-5,-245,-88,-221,60,20
9635,-3,-245,-89,-238,58,23
9640,-4,-245,-90,-253,51,28
9645,-1,-243,-93,-267,42,26
9650,-1,-243,-90,-279,33,28
9655,0,-244,-91,-289,28,23
9660,0,-244,-94,-295,27,23
9665,-4,-239,-92,-299,29,19
9670,-5,-243,-88,-301,29,21
9675,0,-243,-82,-302,30,19
9680,1,-243,-83,-305,32,20
9685,-2,-242,-80,-309,33,17
9690,1,-246,-81,-312,36,18
9695,0,-246,-83,-311,32,16
9700,2,-248,-83,-302,24,17
9705,1,-250,-82,-289,13,13
9710,-1,-250,-85,-270,-1,15
9715,1,-250,-90,-249,-16,13
9720,1,-248,-91,-225,-27,16
9725,0,-246,-91,-197,-33,16
9730,2,-248,-86,-165,-34,22
9735,-3,-247,-88,-138,-31,19
9740,0,-250,-87,-115,-24,23
9745,-2,-248,-86,-97,-16,20
9750,-3,-251,-84,-90,-6,20
9755,-3,-254,-85,-85,2,13
9760,-3,-254,-85,-83,6,10
9765,-3,-252,-83,-81,7,3
9770,-1,-253,-84,-79,7,0
9775,1,-253,-87,-74,7,-9
9780,2,-252,-88,-69,9,-9
9785,1,-250,-91,-71,15,-15
9790,0,-250,-92,-73,21,-16
9795,4,-249,-84,-75,27,-23
9800,7,-251,-85,-76,31,-25
9805,3,-250,-82,-74,33,-28
9810,5,-249,-84,-69,33,-26
9815,6,-253,-82,-63,34,-30
9820,6,-250,-79,-54,31,-26
9825,3,-251,-87,-43,31,-25
9830,5,-248,-85,-37,28,-22
9835,6,-248,-86,-33,28,-22
9840,4,-251,-87,-33,28,-18
9845,3,-249,-89,-35,24,-20
9850,1,-248,-91,-36,23,-17
9855,6,-251,-88,-34,22,-18
9860,3,-251,-90,-27,22,-14
9865,4,-248,-87,-12,21,-14
9870,4,-248,-92,10,20,-10
9875,1,-246,-87,32,17,-9
9880,1,-245,-86,51,15,-7
9885,2,-244,-92,68,13,-8
9890,1,-244,-83,77,10,-6
9895,0,-241,-85,81,10,-6
9900,0,-242,-88,79,12,-3
9905,0,-239,-88,69,10,-3
9910,0,-239,-89,56,11,0
9915,-1,-238,-87,37,13,-2
9920,3,-238,-86,20,12,-1
9925,0,-241,-87,5,13,0
9930,0,-241,-89,-7,16,3
9935,2,-245,-87,-15,17,4
9940,2,-247,-87,-18,17,5
9945,2,-247,-91,-15,19,7
9950,3,-246,-87,-8,19,6
9955,3,-249,-84,4,20,8
9960,2,-245,-87,19,21,9
9965,1,-247,-87,34,25,6
9970,3,-249,-83,48,28,8
9975,4,-249,-88,60,31,4
9980,4,-251,-89,64,35,2
9985,1,-250,-90,63,41,2
9990,1,-247,-88,61,46,2
9995,0,-245,-93,53,48,4
10000,1,-248,-92,46,51,4
10005,0,-247,-90,41,48,4
10010,-1,-242,-91,42,49,5
10015,2,-247,-95,48,46,5
10020,-1,-243,-92,54,45,6
10025,0,-243,-91,66,44,6
10030,-2,-240,-90,78,45,4
10035,-1,-241,-88,83,42,7
10040,0,-240,-94,84,40,5
10045,-4,-237,-95,78,37,4
10050,-2,-241,-92,62,34,1
10055,-5,-237,-92,44,32,-1
10060,-4,-240,-97,24,34,-2
10065,-2,-243,-95,3,36,-2
10070,-3,-242,-94,-11,35,-5
10075,-2,-243,-96,-18,33,-3
10080,-5,-245,-96,-15,30,-4
10085,-4,-244,-100,-4,27,-1
10090,-2,-242,-93,11,23,-1
10095,-3,-243,-92,32,19,2
10100,-1,-244,-94,48,16,1
10105,0,-246,-93,60,12,2
10110,-1,-245,-87,69,8,2
10115,-3,-246,-99,74,5,3
10120,3,-245,-97,77,7,0
10125,6,-248,-91,79,8,2
10130,6,-247,-85,80,14,0
10135,-2,-243,-118,82,20,0
10140,0,-245,-101,84,26,0
10145,1,-243,-94,87,29,0
10150,2,-246,-91,93,33,-1
10155,0,-244,-90,100,39,1
10160,2,-246,-88,105,43,-3
10165,1,-242,-86,111,48,1
10170,-4,-241,-89,116,51,-2
10175,0,-243,-88,117,53,-1
10180,4,-241,-87,115,53,-3
10185,0,-236,-88,107,54,-2
10190,-1,-239,-87,94,57,-5
10195,-1,-239,-88,80,58,-4
10200,1,-239,-85,65,61,-7
10205,-3,-238,-87,48,60,-6
10210,-1,-241,-88,36,61,-8
10215,-3,-241,-85,28,61,-5
10220,1,-245,-87,21,63,-8
10225,-4,-238,-87,18,64,-6
10230,-1,-244,-87,18,66,-8
10235,-5,-244,-87,22,66,-6
10240,-5,-243,-88,28,67,-9
10245,-2,-245,-85,32,69,-6
10250,-4,-244,-87,38,70,-8
10255,-4,-242,-92,41,71,-5
10260,-2,-245,-89,38,70,-8
10265,-4,-244,-93,32,71,-6
10270,-1,-243,-91,23,72,-8
10275,-2,-241,-91,11,72,-7
10280,-2,-242,-91,4,72,-8
10285,-1,-242,-92,-4,72,-5
10290,1,-245,-90,-6,72,-5
10295,0,-244,-89,-6,70,-3
10300,-1,-244,-90,-2,70,-6
10305,-2,-242,-88,3,70,-5
10310,-2,-243,-90,9,72,-9
10315,2,-245,-86,16,74,-8
10320,-1,-243,-89,21,76,-11
10325,-1,-244,-92,23,81,-8
10330,-3,-240,-90,21,85,-11
10335,-2,-241,-93,13,88,-7
10340,-6,-245,-77,7,88,-9
10345,0,-236,-93,1,90,-6
10350,-3,-238,-92,-6,92,-8
10355,0,-238,-90,-14,92,-5
10360,0,-241,-91,-18,94,-7
10365,1,-242,-87,-20,91,-5
10370,2,-243,-85,-20,89,-10
10375,0,-242,-88,-21,87,-10
10380,-1,-244,-89,-23,86,-15
10385,-3,-244,-85,-28,83,-16
10390,-2,-245,-90,-34,81,-19
10395,0,-245,-90,-40,81,-20
10400,-2,-247,-90,-42,81,-24
10405,-1,-248,-92,-43,82,-22
10410,-2,-246,-91,-45,87,-25
10415,0,-246,-88,-43,89,-22
10420,-3,-247,-94,-36,92,-22
10425,-2,-248,-90,-25,97,-19
10430,-1,-250,-88,-9,98,-22
10435,0,-245,-90,7,100,-20
10440,-2,-246,-89,20,101,-22
10445,-3,-244,-89,30,101,-21
10450,-1,-244,-89,32,101,-21
10455,-1,-243,-91,29,97,-20
10460,-1,-246,-91,20,94,-22
10465,-3,-245,-90,10,89,-17
10470,-3,-242,-91,1,85,-19
10475,-2,-242,-91,-5,84,-17
10480,1,-246,-91,-5,82,-17
10485,-2,-243,-89,-4,79,-16
10490,-2,-243,-87,2,77,-15
10495,-5,-244,-88,14,75,-14
10500,-3,-244,-84,27,74,-15
10505,-1,-243,-85,39,74,-13
10510,0,-244,-86,48,75,-15
10515,1,-240,-87,51,74,-14
10520,2,-241,-86,45,76,-14
10525,-2,-240,-90,34,77,-14
10530,-1,-242,-86,19,78,-17
10535,-1,-242,-89,-1,78,-16
10540,-1,-240,-87,-15,79,-17
10545,0,-243,-90,-29,81,-16
10550,-1,-244,-83,-36,84,-16
10555,1,-243,-85,-37,83,-14
10560,3,-246,-84,-34,83,-13
10565,1,-244,-83,-29,85,-13
10570,1,-248,-86,-24,87,-12
10575,-3,-242,-81,-19,90,-12
10580,-2,-247,-89,-15,92,-11
10585,0,-245,-89,-11,92,-10
10590,0,-244,-89,-8,90,-10
10595,-1,-248,-86,-7,91,-11
10600,-2,-245,-90,-6,91,-11
10605,-3,-246,-91,-5,93,-11
10610,-2,-243,-89,-6,92,-10
10615,-2,-243,-90,-5,94,-10
10620,-2,-244,-85,-3,94,-9
10625,1,-245,-87,2,93,-10
10630,1,-248,-87,7,97,-11
10635,1,-246,-86,12,99,-10
10640,-3,-245,-86,15,100,-11
10645,1,-247,-84,17,100,-10
10650,1,-244,-89,18,100,-6
10655,0,-243,-91,18,98,-4
10660,-1,-248,-88,19,98,-2
10665,-2,-245,-89,20,97,-1
10670,-2,-244,-88,21,95,0
10675,2,-245,-90,22,95,0
10680,1,-247,-84,24,95,3
10685,0,-245,-89,25,96,3
10690,0,-247,-86,29,96,4
10695,0,-244,-88,35,95,2
10700,-1,-244,-84,38,95,3
10705,-1,-246,-84,40,96,3
10710,-5,-247,-84,41,97,4
10715,-1,-243,-84,38,95,2
10720,0,-245,-86,32,97,2
10725,-2,-245,-88,25,100,-1
10730,1,-247,-87,21,101,-1
10735,-4,-245,-82,20,100,-5
10740,0,-245,-85,16,96,-3
10745,-1,-243,-87,17,94,-7
10750,0,-247,-89,18,89,-4
10755,1,-244,-88,19,85,-5
10760,-1,-245,-87,24,82,-2
10765,-1,-243,-82,29,79,-2
10770,-1,-242,-83,34,77,1
10775,0,-242,-85,37,77,-1
10780,-1,-242,-84,37,80,2
10785,0,-244,-83,33,81,-1
10790,1,-241,-86,28,83,0
10795,2,-244,-85,22,83,-3
10800,-1,-244,-85,14,82,-1
10805,1,-246,-86,8,84,-5
10810,0,-246,-90,6,85,-4
10815,2,-243,-90,4,84,-6
10820,1,-244,-86,2,85,-6
10825,2,-245,-85,4,86,-8
10830,2,-246,-85,6,85,-7
10835,3,-246,-85,9,83,-9
10840,2,-246,-81,13,82,-7
10845,5,-241,-82,19,81,-7
10850,2,-245,-80,25,81,-4
10855,4,-249,-84,32,79,-5
10860,3,-247,-80,39,79,-3
10865,3,-247,-85,42,77,-6
10870,0,-247,-87,44,80,-2
10875,1,-246,-88,43,81,-5
10880,-1,-246,-87,42,83,-1
10885,2,-246,-88,38,84,-2
10890,0,-246,-83,33,87,3
10895,1,-246,-87,29,88,2
10900,-1,-245,-84,26,89,6
10905,1,-248,-87,26,90,5
10910,1,-245,-83,30,91,10
10915,2,-247,-82,30,91,7
10920,3,-247,-83,32,90,11
10925,2,-244,-84,34,88,8
10930,-2,-243,-83,35,89,12
10935,1,-242,-81,36,86,11
10940,1,-243,-82,35,86,14
10945,5,-243,-86,33,86,12
10950,1,-240,-82,25,84,13
10955,0,-239,-85,18,86,11
10960,2,-241,-84,9,88,12
10965,0,-240,-81,1,90,9
10970,-2,-242,-79,-10,92,11
10975,-2,-243,-84,-18,94,10
10980,0,-246,-78,-22,95,12
10985,0,-245,-80,-28,97,10
10990,-2,-244,-79,-30,97,11
10995,2,-245,-82,-31,98,10
11000,4,-248,-81,-28,98,12
11005,2,-245,-80,-28,97,10
11010,-3,-245,-79,-25,95,12
11015,1,-249,-78,-22,91,9
11020,-1,-245,-82,-20,90,11
11025,1,-249,-80,-18,87,8
11030,-1,-249,-81,-14,84,9
11035,1,-250,-80,-12,82,6
11040,0,-249,-80,-8,80,7
11045,1,-250,-81,0,79,3
11050,-1,-248,-83,7,79,5
11055,-3,-247,-79,16,83,3
11060,0,-247,-80,21,86,5
11065,0,-246,-79,26,86,4
11070,-1,-246,-81,24,85,6
11075,-3,-247,-80,26,83,3
11080,-3,-245,-83,24,81,5
11085,0,-247,-83,22,77,5
11090,-1,-248,-76,18,74,7
11095,3,-249,-80,16,72,6
11100,1,-246,-80,13,70,7
11105,2,-246,-79,12,67,5
11110,3,-249,-83,12,65,8
11115,5,-253,-81,13,64,9
11120,1,-250,-80,17,66,11
11125,3,-252,-80,24,70,11
11130,8,-254,-82,33,76,11
11135,5,-253,-82,44,81,9
11140,2,-251,-81,55,83,9
11145,0,-253,-81,65,86,7
11150,4,-249,-83,77,86,8
11155,2,-251,-81,88,89,9
11160,4,-247,-81,96,89,11
11165,2,-242,-82,99,89,12
11170,3,-246,-82,98,86,9
11175,1,-247,-77,91,80,8
11180,1,-243,-75,80,80,7
11185,3,-242,-76,70,78,3
11190,2,-245,-78,60,78,2
11195,-2,-244,-80,51,80,0
11200,-1,-248,-79,43,80,-1
11205,1,-248,-77,37,81,-1
11210,1,-247,-76,32,82,-1
11215,1,-244,-79,28,84,0
11220,1,-245,-77,29,86,1
11225,-1,-244,-80,31,86,3
11230,1,-246,-77,32,89,6
11235,3,-248,-79,35,91,8
11240,4,-244,-83,37,94,8
11245,-1,-246,-78,39,96,9
11250,2,-246,-78,40,98,7
11255,-2,-245,-81,40,101,7
11260,2,-244,-77,41,103,5
11265,0,-245,-80,43,104,1
11270,-1,-243,-78,42,104,0
11275,-1,-243,-82,41,101,-3
11280,1,-244,-79,35,95,-4
11285,-2,-241,-76,29,91,-3
11290,0,-244,-79,22,88,-5
11295,-1,-244,-79,15,84,-3
11300,-1,-241,-77,8,80,-3
11305,-1,-244,-76,2,80,-2
11310,-3,-246,-78,-1,82,-4
11315,1,-244,-73,-4,86,-5
11320,1,-246,-75,-6,89,-7
11325,0,-246,-80,-9,92,-9
11330,0,-246,-78,-16,95,-12
11335,2,-246,-79,-25,99,-11
11340,0,-245,-77,-32,101,-13
11345,2,-245,-79,-33,100,-11
11350,1,-250,-77,-32,98,-13
11355,-1,-247,-75,-30,96,-11
11360,-2,-249,-80,-27,92,-12
11365,-1,-247,-75,-27,85,-13
11370,-2,-247,-73,-27,81,-13
11375,-2,-245,-77,-31,71,-11
11380,-2,-246,-80,-34,63,-13
11385,-5,-244,-78,-41,58,-13
11390,-6,-246,-81,-47,50,-15
11395,-5,-246,-83,-54,45,-13
11400,-5,-245,-79,-60,42,-15
11405,-5,-245,-79,-66,39,-13
11410,-3,-246,-78,-69,36,-15
11415,-5,-244,-83,-70,34,-11
11420,-4,-246,-75,-70,30,-13
11425,-2,-249,-78,-70,27,-10
11430,-2,-246,-74,-70,25,-9
11435,-1,-250,-78,-69,27,-6
11440,0,-252,-80,-68,30,-8
11445,1,-249,-81,-64,36,-5
11450,-1,-250,-80,-55,47,-6
11455,-1,-251,-81,-45,59,-1
11460,0,-248,-82,-36,66,0
11465,2,-247,-82,-30,71,3
11470,0,-247,-79,-27,70,2
11475,2,-246,-88,-26,68,4
11480,0,-241,-85,-26,64,-2
11485,1,-240,-82,-31,59,-1
11490,-2,-239,-83,-39,53,-4
11495,-2,-241,-83,-52,43,-2
11500,-1,-240,-78,-62,36,-5
11505,-3,-238,-79,-72,29,-1
11510,1,-238,-77,-81,26,-2
11515,2,-240,-80,-93,24,3
11520,2,-238,-80,-106,26,3
11525,1,-244,-83,-121,27,8
11530,0,-240,-80,-138,33,6
11535,0,-243,-83,-147,36,8
11540,1,-244,-87,-149,38,4
11545,0,-245,-86,-144,40,6
11550,2,-246,-87,-134,40,2
11555,2,-247,-88,-123,40,4
11560,2,-248,-88,-110,40,2
11565,1,-250,-86,-96,39,6
11570,-3,-251,-82,-85,39,5
11575,3,-253,-85,-73,39,8
11580,0,-254,-81,-58,38,5
11585,0,-253,-82,-41,40,6
11590,-1,-249,-83,-25,41,3
11595,-2,-245,-85,-10,42,4
11600,0,-247,-83,0,40,2
11605,-3,-243,-84,8,40,3
11610,-1,-244,-82,8,39,1
11615,0,-240,-82,6,39,1
11620,-2,-241,-83,-3,38,-2
11625,0,-243,-81,-11,39,-1
11630,-1,-243,-84,-24,37,-3
11635,-2,-242,-82,-30,37,-2
11640,-3,-243,-84,-38,35,-5
11645,-1,-242,-85,-46,33,-5
11650,0,-243,-84,-53,31,-6
11655,-1,-244,-85,-59,26,-5
11660,-2,-241,-88,-62,23,-7
11665,0,-245,-84,-66,20,-5
11670,1,-244,-87,-65,17,-6
11675,5,-246,-82,-63,14,-4
11680,1,-245,-87,-60,14,-6
11685,-1,-245,-83,-52,13,-3
11690,2,-248,-86,-44,13,-4
11695,-1,-249,-85,-38,14,-1
11700,3,-251,-88,-32,12,-4
11705,1,-249,-88,-24,9,-3
11710,-1,-246,-86,-16,8,-5
11715,1,-246,-88,-9,7,-5
11720,-1,-247,-90,-1,7,-6
11725,3,-247,-86,6,5,-5
11730,3,-245,-88,9,5,-5
11735,2,-247,-83,11,5,-3
11740,-2,-243,-83,10,6,-4
11745,3,-246,-84,10,7,-2
11750,3,-244,-85,8,11,-2
11755,3,-245,-85,7,13,-1
11760,4,-243,-85,8,17,-2
11765,3,-243,-85,10,20,0
11770,4,-243,-85,12,26,-3
11775,3,-243,-83,12,30,-2
11780,4,-243,-85,10,34,-2
11785,3,-243,-84,6,38,-1
11790,2,-243,-86,-2,40,-4
11795,1,-241,-85,-10,42,-5
11800,4,-243,-81,-17,44,-6
11805,1,-242,-86,-22,47,-4
11810,0,-244,-87,-27,49,-5
11815,2,-245,-82,-29,50,-3
11820,1,-247,-84,-27,50,-4
11825,-1,-244,-86,-24,49,-1
11830,0,-247,-83,-20,50,-1
11835,2,-246,-84,-15,49,0
11840,3,-243,-82,-10,49,1
11845,2,-247,-80,-5,50,0
11850,0,-244,-84,-2,52,-1
11855,2,-245,-85,2,55,1
11860,4,-248,-85,6,57,1
11865,0,-244,-88,9,56,4
11870,2,-245,-85,10,55,3
11875,3,-247,-84,14,54,4
11880,2,-245,-82,17,55,5
11885,2,-245,-83,20,55,6
11890,1,-245,-83,21,56,6
11895,-1,-245,-82,22,59,6
11900,1,-244,-80,21,61,6
11905,2,-245,-87,20,64,6
11910,-1,-245,-82,18,68,6
11915,1,-245,-84,14,70,6
11920,1,-244,-83,11,73,5
11925,3,-245,-83,7,74,2
11930,1,-243,-87,4,74,3
11935,0,-249,-83,3,73,0
11940,1,-245,-83,1,73,-1
11945,2,-248,-79,2,72,-2
11950,2,-248,-80,3,71,-3
11955,0,-245,-83,5,69,-4
11960,3,-249,-82,6,67,-4
11965,-1,-245,-80,6,66,-6
11970,2,-249,-82,8,63,-5
11975,1,-247,-78,6,62,-6
11980,-1,-248,-80,3,60,-3
11985,-3,-245,-83,1,57,-2
11990,-3,-244,-84,-3,54,-1
11995,1,-246,-78,-5,50,-1
