timestamp,acc_x,acc_y,acc_z,gyro_x,gyro_y,gyro_z
0,14,-246,-76,-10,49,-2
5,12,-245,-77,-11,48,0
10,14,-247,-77,-14,46,-1
15,13,-249,-79,-16,45,-1
20,15,-251,-77,-17,43,-2
25,14,-251,-85,-17,44,-3
30,9,-246,-78,-16,45,-4
35,18,-248,-81,-13,47,-3
40,15,-247,-73,-9,50,-4
45,15,-245,-75,-7,54,-3
50,14,-244,-76,-9,56,-5
55,13,-245,-76,-9,59,-5
60,11,-243,-77,-13,61,-4
65,15,-246,-75,-16,61,-3
70,13,-246,-79,-17,61,-3
75,17,-244,-78,-20,60,-4
80,16,-246,-78,-22,58,-5
85,13,-247,-80,-26,56,-5
90,14,-246,-79,-29,55,-6
95,15,-247,-82,-35,55,-6
100,16,-248,-78,-40,53,-6
105,17,-250,-73,-44,52,-4
110,15,-247,-78,-43,52,-5
115,13,-245,-76,-43,50,-5
120,14,-245,-77,-39,52,-4
125,14,-246,-78,-34,54,-3
130,13,-246,-77,-29,55,-3
135,11,-247,-78,-23,56,-3
140,16,-249,-76,-19,56,-2
145,12,-246,-80,-16,55,-3
150,13,-245,-76,-14,56,-3
155,15,-246,-77,-13,57,-3
160,13,-244,-78,-13,56,-2
165,14,-248,-77,-15,56,-3
170,14,-247,-79,-15,57,-1
175,12,-245,-77,-16,60,-3
180,13,-246,-80,-18,62,-1
185,14,-246,-79,-20,63,-2
190,14,-248,-79,-24,64,-1
195,14,-246,-75,-29,64,-3
200,13,-247,-77,-33,65,-2
205,15,-247,-80,-36,64,-3
210,15,-246,-79,-38,67,-2
215,13,-246,-78,-39,68,-4
220,15,-247,-79,-40,69,-1
225,11,-247,-80,-40,70,-4
230,12,-248,-75,-36,70,0
235,11,-249,-78,-33,68,-3
240,13,-245,-74,-28,65,0
245,12,-248,-79,-27,63,-1
250,11,-244,-79,-25,62,1
255,15,-247,-78,-26,60,-3
260,13,-248,-76,-28,60,-2
265,12,-243,-80,-29,60,-3
270,12,-245,-81,-31,59,-2
275,12,-246,-79,-32,61,-4
280,10,-242,-81,-34,62,0
285,13,-246,-81,-33,64,-3
290,12,-245,-79,-34,64,-1
295,13,-244,-79,-32,65,-3
300,14,-244,-81,-32,66,-1
305,12,-243,-77,-33,65,-2
310,13,-247,-80,-33,64,-1
315,11,-243,-75,-32,63,-3
320,12,-244,-78,-32,61,-1
325,11,-245,-75,-31,58,-3
330,12,-243,-78,-31,58,0
335,12,-249,-79,-31,57,-3
340,16,-250,-78,-32,57,0
345,13,-247,-78,-29,55,-2
350,11,-249,-76,-28,58,-2
355,16,-248,-58,-28,58,-4
360,15,-248,-78,-25,60,-1
365,14,-247,-81,-26,64,-5
370,12,-246,-81,-27,65,-3
375,14,-247,-82,-28,65,-5
380,13,-246,-80,-31,65,-3
385,13,-245,-79,-30,64,-6
390,13,-246,-80,-29,65,-2
395,14,-247,-78,-28,65,-5
400,14,-244,-78,-25,65,-1
405,16,-245,-79,-24,65,-2
410,13,-243,-78,-24,64,0
415,15,-247,-76,-25,64,-2
420,13,-243,-78,-28,64,0
425,13,-243,-77,-30,64,-1
430,15,-245,-76,-32,63,0
435,14,-245,-80,-33,63,-2
440,14,-246,-79,-34,65,1
445,11,-245,-76,-35,66,0
450,12,-244,-78,-36,66,1
455,13,-245,-80,-38,67,-1
460,13,-245,-76,-37,70,1
465,12,-249,-77,-35,72,-1
470,14,-246,-78,-35,71,0
475,13,-245,-78,-33,73,-2
480,15,-245,-77,-35,72,-1
485,13,-245,-76,-35,72,-2
490,12,-243,-76,-36,72,-3
495,13,-246,-79,-36,73,-5
500,12,-247,-80,-38,72,-4
505,10,-245,-78,-36,70,-6
510,12,-247,-78,-36,71,-3
515,11,-248,-79,-34,70,-5
520,14,-249,-82,-33,70,-5
525,12,-248,-76,-29,69,-5
530,12,-250,-79,-26,68,-4
535,13,-247,-81,-24,67,-4
540,14,-249,-79,-22,66,-4
545,12,-249,-78,-19,65,-6
550,12,-247,-81,-18,64,-3
555,12,-249,-79,-19,62,-4
560,12,-248,-82,-20,63,-3
565,13,-248,-83,-20,62,-4
570,11,-247,-79,-21,62,-5
575,13,-246,-78,-20,64,-6
580,16,-247,-78,-19,65,-6
585,11,-248,-77,-19,65,-6
590,12,-243,-79,-16,66,-6
595,15,-245,-81,-15,68,-6
600,13,-245,-78,-12,68,-4
605,13,-242,-82,-12,67,-5
610,14,-245,-79,-10,67,-5
615,15,-244,-81,-10,67,-5
620,16,-245,-81,-10,66,-6
625,14,-243,-81,-12,67,-6
630,14,-244,-82,-17,67,-6
635,13,-246,-79,-19,66,-6
640,14,-245,-81,-22,67,-7
645,14,-242,-81,-26,69,-5
650,12,-244,-81,-33,68,-6
655,14,-246,-81,-36,68,-6
660,12,-247,-80,-40,68,-6
665,14,-246,-83,-42,66,-6
670,12,-245,-79,-42,66,-7
675,13,-246,-78,-42,64,-5
680,14,-248,-79,-37,65,-6
685,12,-250,-78,-34,66,-5
690,11,-246,-81,-30,67,-6
695,13,-246,-78,-24,67,-5
700,12,-248,-80,-18,67,-5
705,16,-247,-80,-15,67,-3
710,12,-244,-79,-11,70,-5
715,11,-244,-83,-7,70,-3
720,13,-244,-78,-6,70,-6
725,9,-241,-78,-5,70,-3
730,13,-245,-78,-2,70,-4
735,10,-246,-75,-2,70,-3
740,12,-246,-80,-5,71,-5
745,13,-245,-80,-8,69,-2
750,10,-247,-80,-12,67,-4
755,12,-247,-79,-15,66,-4
760,13,-247,-78,-18,64,-5
765,11,-247,-81,-21,62,-3
770,14,-247,-79,-25,60,-7
775,11,-247,-81,-25,58,-6
780,11,-247,-82,-26,54,-8
785,12,-247,-81,-26,53,-4
790,17,-248,-81,-23,54,-7
795,13,-247,-84,-23,54,-5
800,14,-246,-78,-19,54,-7
805,11,-245,-82,-16,54,-4
810,12,-246,-81,-16,52,-6
815,14,-244,-82,-16,51,-3
820,14,-245,-80,-14,49,-6
825,11,-247,-81,-12,49,-2
830,12,-246,-80,-13,50,-5
835,13,-243,-82,-15,49,-4
840,14,-247,-84,-17,51,-5
845,15,-245,-82,-18,52,-4
850,17,-244,-82,-22,55,-7
855,15,-245,-83,-26,56,-6
860,15,-243,-80,-27,58,-10
865,16,-246,-84,-30,59,-7
870,15,-243,-80,-30,61,-10
875,15,-245,-79,-31,61,-7
880,14,-243,-78,-30,61,-10
885,16,-245,-77,-29,62,-7
890,15,-245,-78,-26,62,-8
895,15,-245,-80,-25,63,-8
900,13,-244,-79,-25,62,-8
905,15,-245,-76,-24,61,-5
910,14,-245,-80,-23,59,-7
915,16,-248,-78,-21,58,-4
920,14,-248,-81,-21,56,-5
925,15,-249,-79,-23,55,-4
930,12,-248,-78,-22,55,-6
935,14,-250,-83,-23,55,-4
940,14,-247,-84,-24,58,-7
945,13,-249,-79,-24,60,-3
950,14,-248,-80,-24,61,-5
955,13,-248,-82,-21,63,-2
960,12,-245,-81,-21,64,-6
965,13,-244,-80,-20,64,-4
970,15,-247,-81,-19,66,-6
975,16,-245,-84,-18,64,-5
980,15,-244,-79,-19,64,-6
985,16,-246,-78,-20,63,-4
990,12,-245,-77,-20,59,-5
995,14,-244,-78,-20,60,-2
1000,11,-245,-79,-20,60,-5
1005,14,-244,-81,-20,58,-2
1010,14,-245,-82,-18,59,-4
1015,12,-245,-82,-17,61,-1
1020,13,-244,-81,-18,61,-3
1025,16,-246,-80,-16,65,1
1030,13,-246,-82,-15,66,-3
1035,15,-244,-80,-14,65,0
1040,16,-247,-85,-13,69,-3
1045,17,-244,-80,-14,68,-1
1050,14,-245,-81,-16,70,-4
1055,14,-244,-78,-17,69,-4
1060,14,-246,-85,-17,70,-6
1065,14,-245,-82,-17,70,-5
1070,15,-243,-82,-19,71,-7
1075,13,-244,-79,-17,71,-5
1080,16,-245,-78,-16,72,-5
1085,14,-246,-77,-14,72,-4
1090,14,-247,-82,-12,73,-4
1095,15,-246,-81,-9,72,-3
1100,16,-247,-79,-6,72,-2
1105,14,-247,-81,-6,72,-2
1110,13,-244,-80,-8,73,-1
1115,14,-246,-79,-9,71,-1
1120,12,-246,-80,-10,69,-1
1125,13,-244,-80,-12,69,-1
1130,14,-246,-83,-12,67,0
1135,15,-247,-78,-13,67,-1
1140,11,-246,-81,-11,64,-2
1145,12,-241,-78,-8,65,-2
1150,14,-247,-83,-7,65,-2
1155,13,-243,-79,-4,68,-2
1160,12,-248,-78,1,69,-3
1165,14,-243,-80,4,69,-2
1170,12,-245,-78,7,69,-4
1175,15,-245,-80,9,70,-3
1180,13,-244,-79,9,69,-4
1185,12,-245,-78,10,71,-5
1190,15,-244,-80,8,71,-4
1195,15,-244,-79,6,70,-5
1200,13,-245,-81,3,70,-3
1205,14,-245,-82,-1,70,-6
1210,12,-241,-83,-3,67,-5
1215,14,-244,-77,-6,65,-5
1220,12,-247,-85,-8,65,-3
1225,13,-247,-78,-8,61,-3
1230,13,-246,-77,-8,61,-1
1235,14,-247,-80,-6,59,-2
1240,15,-248,-76,-4,59,1
1245,14,-249,-71,-3,59,1
1250,14,-249,-80,-3,57,4
1255,18,-248,-79,-4,56,2
1260,13,-246,-80,-6,57,3
1265,13,-251,-80,-8,55,1
1270,16,-249,-78,-8,56,1
1275,15,-249,-83,-5,56,-1
1280,14,-245,-76,-4,58,0
1285,13,-246,-80,1,58,-2
1290,15,-247,-82,6,61,1
1295,15,-244,-79,9,65,0
1300,14,-242,-82,11,67,1
1305,12,-244,-81,12,68,0
1310,14,-247,-78,13,70,1
1315,14,-244,-83,9,72,-2
1320,13,-245,-77,6,72,-1
1325,12,-245,-82,4,71,-4
1330,11,-246,-78,-1,71,0
1335,13,-245,-76,-3,69,-4
1340,14,-247,-78,-4,68,-2
1345,13,-244,-81,-3,65,-3
1350,13,-244,-78,-3,65,-1
1355,12,-245,-82,-4,62,-4
1360,14,-247,-78,-3,58,-1
1365,12,-244,-82,-2,57,-5
1370,13,-247,-79,0,55,-2
1375,13,-247,-77,2,54,-4
1380,13,-245,-77,5,53,-1
1385,12,-246,-75,6,50,-4
1390,11,-244,-81,8,49,-1
1395,12,-247,-78,10,48,-4
1400,12,-248,-81,11,47,0
1405,14,-246,-79,10,46,-3
1410,12,-246,-76,10,45,0
1415,12,-245,-78,8,44,-3
1420,12,-245,-80,7,44,0
1425,13,-245,-78,6,44,-2
1430,13,-243,-81,4,44,0
1435,17,-244,-77,4,44,-2
1440,15,-246,-80,0,45,1
1445,16,-246,-79,-3,46,-2
1450,13,-246,-79,-6,50,0
1455,14,-245,-78,-7,50,-5
1460,15,-245,-77,-7,51,-2
1465,15,-245,-77,-6,53,-3
1470,14,-246,-81,-4,53,0
1475,16,-248,-81,-4,53,-3
1480,13,-244,-82,-3,53,-1
1485,15,-248,-78,-1,53,-3
1490,15,-245,-80,-2,53,-1
1495,14,-244,-77,-3,54,-3
1500,15,-246,-76,-3,55,0
1505,12,-246,-82,-3,53,-1
1510,13,-247,-80,-2,53,2
1515,12,-245,-77,-2,51,-2
1520,14,-246,-77,-3,50,1
1525,12,-246,-80,-3,49,-1
1530,15,-247,-76,-2,47,0
1535,10,-246,-79,-4,47,-1
1540,12,-246,-76,-2,47,2
1545,11,-244,-80,-4,46,0
1550,12,-244,-76,-4,45,2
1555,12,-245,-79,-5,45,0
1560,11,-245,-80,-4,44,0
1565,13,-247,-84,-5,42,-2
1570,10,-245,-79,-8,43,1
1575,15,-249,-77,-10,44,-2
1580,14,-247,-78,-10,45,0
1585,15,-246,-82,-11,47,-1
1590,13,-246,-75,-11,48,1
1595,16,-247,-80,-10,47,-1
1600,13,-247,-75,-8,49,1
1605,13,-246,-80,-5,49,0
1610,15,-250,-79,-4,52,-1
1615,15,-246,-80,-1,52,-2
1620,13,-245,-78,1,53,0
1625,14,-245,-74,2,52,-2
1630,13,-248,-77,1,52,0
1635,14,-248,-75,0,52,-1
1640,14,-245,-79,-2,52,0
1645,14,-245,-76,-4,51,-1
1650,14,-246,-79,-6,52,0
1655,16,-246,-78,-9,53,0
1660,13,-245,-78,-9,53,1
1665,13,-246,-79,-12,52,1
1670,17,-246,-77,-12,53,1
1675,15,-247,-74,-15,56,1
1680,16,-244,-80,-17,54,2
1685,16,-246,-78,-18,56,2
1690,16,-245,-81,-18,55,2
1695,15,-246,-73,-18,56,1
1700,15,-245,-80,-20,56,0
1705,14,-243,-80,-20,58,2
1710,18,-248,-89,-18,59,-1
1715,13,-248,-88,-18,60,-1
1720,4,-244,-80,-17,61,-1
1725,14,-247,-80,-16,62,-1
1730,12,-245,-86,-14,63,-3
1735,22,-241,-86,-13,64,-1
1740,10,-243,-81,-13,64,-4
1745,23,-247,-61,-14,64,-2
1750,16,-247,-81,-13,66,-2
1755,15,-246,-78,-12,64,-3
1760,14,-244,-77,-14,66,-5
1765,10,-244,-78,-16,66,-3
1770,13,-245,-78,-21,64,-3
1775,14,-244,-77,-23,64,-3
1780,14,-245,-79,-25,62,-3
1785,13,-244,-78,-25,60,-1
1790,13,-244,-79,-26,61,-1
1795,16,-245,-80,-22,62,0
1800,11,-246,-77,-18,63,-1
1805,14,-247,-79,-15,64,2
1810,14,-244,-75,-12,64,1
1815,14,-248,-80,-10,60,4
1820,13,-246,-80,-9,57,2
1825,16,-251,-77,-5,56,4
1830,11,-244,-77,-4,55,1
1835,15,-247,-77,-2,55,3
1840,14,-248,-78,-1,54,1
1845,15,-250,-78,-1,56,2
1850,13,-250,-80,0,58,0
1855,10,-248,-80,0,59,1
1860,13,-248,-81,-2,61,-3
1865,15,-247,-78,-3,64,-2
1870,10,-245,-77,-3,65,-4
1875,14,-246,-74,-4,66,-2
1880,11,-246,-77,-2,68,-4
1885,12,-247,-75,-2,70,-2
1890,13,-244,-78,-4,71,-3
1895,14,-246,-78,-6,72,-2
1900,12,-246,-83,-8,72,-4
1905,12,-247,-76,-8,70,-1
1910,10,-246,-78,-8,68,-2
1915,12,-248,-80,-9,66,-1
1920,13,-246,-80,-7,65,-2
1925,12,-248,-73,-7,61,1
1930,9,-246,-80,-5,60,-1
1935,11,-245,-80,-4,58,0
1940,11,-248,-76,-4,55,-3
1945,12,-247,-82,-4,52,-1
1950,12,-249,-75,-4,51,-4
1955,11,-247,-79,-4,51,-1
1960,13,-247,-78,-4,52,-5
1965,8,-243,-77,-3,55,-3
1970,14,-247,-82,-1,57,-5
1975,15,-248,-82,-2,59,-4
1980,10,-242,-79,-3,59,-5
1985,14,-248,-78,-5,60,-3
1990,13,-247,-76,-5,61,-4
1995,14,-247,-74,-5,59,-2
2000,13,-245,-79,-3,59,-4
2005,13,-244,-76,-3,58,-2
2010,14,-249,-78,-4,58,-5
2015,13,-247,-77,-6,57,-3
2020,12,-247,-78,-10,54,-3
2025,13,-250,-78,-12,55,-1
2030,12,-248,-77,-14,56,-2
2035,15,-247,-81,-14,54,-1
2040,11,-247,-79,-17,56,-3
2045,8,-248,-80,-17,57,-1
2050,13,-246,-78,-16,59,-3
2055,14,-246,-82,-17,59,-1
2060,13,-248,-77,-13,61,-3
2065,13,-248,-80,-13,60,-1
2070,12,-247,-81,-11,61,-3
2075,15,-243,-79,-9,63,-1
2080,11,-244,-81,-11,65,-2
2085,13,-245,-83,-12,65,-1
2090,13,-245,-80,-15,65,-4
2095,13,-247,-80,-14,66,-2
2100,12,-243,-80,-14,66,-3
2105,14,-245,-80,-13,66,-2
2110,10,-243,-78,-10,64,-3
2115,11,-244,-84,-11,63,-2
2120,14,-248,-81,-9,61,-3
2125,12,-246,-77,-7,60,-2
2130,13,-247,-75,-7,59,-4
2135,12,-246,-77,-7,59,-3
2140,10,-247,-77,-7,57,-5
2145,13,-247,-77,-6,57,-3
2150,11,-246,-75,-8,55,-5
2155,14,-247,-75,-9,55,-3
2160,11,-246,-78,-10,54,-5
2165,13,-246,-78,-10,55,-5
2170,13,-249,-78,-10,54,-6
2175,13,-245,-76,-11,53,-4
2180,11,-245,-81,-10,54,-5
2185,13,-247,-80,-8,53,-4
2190,13,-247,-80,-6,52,-6
2195,9,-246,-75,-7,50,-5
2200,16,-247,-74,-6,50,-4
2205,13,-248,-76,-4,48,-3
2210,10,-244,-77,-4,49,-2
2215,12,-245,-75,-6,50,-3
2220,13,-246,-77,-6,49,-3
2225,12,-244,-78,-7,51,-3
2230,12,-244,-75,-8,52,-2
2235,14,-249,-78,-10,54,-2
2240,16,-245,-79,-10,55,-1
2245,13,-245,-80,-10,58,-1
2250,15,-247,-79,-11,58,-1
2255,16,-246,-76,-11,58,-1
2260,13,-247,-81,-11,59,0
2265,14,-247,-78,-11,59,-3
2270,13,-245,-77,-10,59,-3
2275,13,-249,-78,-9,60,-4
2280,14,-248,-75,-9,57,-5
2285,13,-250,-80,-8,57,-7
2290,14,-250,-79,-6,60,-6
2295,13,-248,-78,-5,62,-7
2300,14,-245,-80,-6,63,-6
2305,15,-246,-79,-5,65,-7
2310,14,-245,-79,-6,66,-7
2315,12,-241,-79,-9,67,-7
2320,13,-241,-77,-10,67,-3
2325,13,-242,-80,-15,65,-4
2330,13,-243,-83,-18,62,-3
2335,11,-243,-79,-21,60,-3
2340,14,-248,-74,-24,59,-1
2345,12,-245,-79,-24,57,-1
2350,12,-245,-77,-24,58,1
2355,13,-243,-78,-22,58,-1
2360,13,-248,-79,-22,58,0
2365,12,-250,-76,-20,57,-1
2370,14,-249,-81,-19,56,0
2375,14,-251,-76,-16,56,0
2380,12,-248,-80,-15,56,0
2385,13,-249,-76,-12,56,-3
2390,14,-249,-80,-10,58,-1
2395,13,-248,-79,-7,59,-2
2400,11,-249,-81,-5,61,-1
2405,13,-249,-78,-4,62,-4
2410,15,-248,-75,-5,65,-2
2415,14,-247,-75,-5,64,-4
2420,11,-245,-79,-8,66,-3
2425,12,-247,-80,-9,66,-5
2430,11,-245,-78,-11,66,-3
2435,11,-248,-75,-12,66,-4
2440,12,-247,-75,-11,66,-1
2445,13,-248,-80,-10,67,-2
2450,13,-246,-76,-8,67,0
2455,13,-247,-79,-9,67,-2
2460,13,-247,-77,-8,67,1
2465,14,-246,-77,-6,65,-3
2470,9,-245,-78,-8,63,0
2475,13,-249,-76,-8,63,-3
2480,13,-246,-76,-10,61,-1
2485,12,-248,-77,-9,60,-3
2490,10,-247,-78,-7,57,0
2495,13,-250,-74,-5,57,-4
2500,10,-247,-79,-4,56,-1
2505,14,-248,-77,-3,55,-3
2510,12,-246,-80,-1,53,-1
2515,12,-247,-78,-2,51,-5
2520,13,-249,-77,-4,52,-2
2525,11,-247,-73,-8,51,-4
2530,13,-249,-80,-10,51,-3
2535,13,-249,-80,-11,53,-6
2540,15,-246,-76,-12,53,-4
2545,13,-248,-80,-11,53,-5
2550,16,-248,-74,-11,55,-1
2555,10,-246,-78,-9,56,-5
2560,11,-246,-75,-10,58,-2
2565,14,-247,-77,-11,59,-5
2570,14,-247,-79,-13,59,-2
2575,12,-246,-77,-14,60,-4
2580,14,-248,-75,-13,60,-2
2585,14,-246,-76,-9,60,-4
2590,10,-245,-81,-8,59,-3
2595,13,-246,-76,-6,60,-5
2600,14,-248,-77,-3,60,-2
2605,13,-250,-77,-2,61,-4
2610,12,-247,-77,-3,61,-2
2615,17,-249,-79,-1,61,-5
2620,14,-246,-78,-1,62,-3
2625,13,-247,-79,-3,60,-5
2630,11,-246,-80,-4,60,-4
2635,14,-246,-78,-4,61,-7
2640,13,-246,-76,-6,59,-3
2645,13,-243,-78,-8,60,-5
2650,12,-242,-75,-9,58,-3
2655,9,-245,-76,-12,58,-4
2660,13,-246,-76,-13,59,-3
2665,14,-245,-76,-15,58,-4
2670,13,-245,-74,-16,57,-2
2675,13,-247,-80,-15,57,-2
2680,11,-244,-73,-15,57,0
2685,12,-244,-81,-16,57,-2
2690,13,-243,-76,-17,57,-1
2695,10,-247,-79,-19,58,-1
2700,16,-248,-76,-19,58,0
2705,13,-247,-74,-20,58,-1
2710,10,-248,-80,-20,57,-1
2715,13,-249,-77,-17,59,-2
2720,14,-249,-75,-15,57,-2
2725,13,-252,-77,-12,57,-3
2730,13,-250,-75,-1,58,-2
2735,13,-248,-73,8,59,-4
2740,12,-247,-75,14,59,-3
2745,14,-246,-75,20,59,-5
2750,15,-243,-79,19,61,-3
2755,12,-246,-76,14,59,-3
2760,11,-246,-78,9,59,-3
2765,12,-245,-77,2,57,-5
2770,14,-248,-78,-4,54,-6
2775,14,-246,-79,-8,54,-3
2780,13,-245,-77,-12,54,-1
2785,12,-247,-74,-11,55,-1
2790,9,-245,-75,-10,54,2
2795,12,-247,-77,-11,52,0
2800,15,-250,-78,-10,51,1
2805,12,-248,-74,-11,48,1
2810,12,-247,-78,-12,46,0
2815,14,-250,-78,-12,45,1
2820,14,-250,-78,-11,44,0
2825,14,-247,-76,-9,45,-1
2830,10,-244,-76,-9,46,-1
2835,14,-243,-74,-10,48,-2
2840,13,-244,-70,-11,51,-2
2845,17,-244,-75,-13,56,-3
2850,15,-244,-74,-15,58,-4
2855,17,-247,-70,-14,63,-3
2860,18,-243,-77,-15,64,-4
2865,13,-244,-74,-16,65,-4
2870,13,-245,-72,-17,65,-7
2875,15,-245,-76,-19,65,-4
2880,13,-244,-77,-25,62,-6
2885,15,-247,-77,-29,60,-4
2890,12,-247,-77,-33,57,-4
2895,9,-244,-77,-34,56,-3
2900,13,-249,-77,-31,55,-4
2905,15,-250,-74,-26,55,0
2910,11,-247,-77,-18,57,-3
2915,12,-249,-74,-13,56,-1
2920,12,-250,-79,-9,57,-4
2925,14,-252,-79,-6,56,-2
2930,14,-252,-80,-5,55,-4
2935,15,-250,-77,-5,53,-3
2940,16,-251,-75,-5,53,-5
2945,11,-247,-78,-7,54,-4
2950,15,-247,-79,-8,53,-7
2955,13,-247,-74,-8,55,-4
2960,11,-245,-78,-6,56,-4
2965,13,-247,-81,-4,59,-3
2970,10,-247,-78,-3,63,-5
2975,12,-246,-78,-3,65,-2
2980,15,-246,-79,-4,67,-3
2985,13,-241,-80,-6,65,0
2990,14,-246,-78,-9,64,-2
2995,12,-245,-79,-12,61,-1
3000,15,-245,-79,-14,57,-2
3005,15,-246,-75,-18,54,0
3010,14,-248,-70,-19,52,-1
3015,12,-248,-72,-16,49,0
3020,17,-253,-77,-11,48,-3
3025,14,-254,-75,-4,48,-1
3030,15,-259,-75,6,45,-4
3035,13,-259,-64,16,41,-1
3040,13,-264,-59,14,29,-5
3045,13,-266,-65,0,9,-7
3050,16,-267,-75,-29,-21,-18
3055,20,-271,-86,-72,-49,-29
3060,22,-264,-98,-145,-69,-48
3065,26,-256,-114,-248,-77,-65
3070,27,-247,-130,-372,-68,-87
3075,28,-231,-150,-502,-28,-101
3080,32,-215,-166,-646,30,-112
3085,30,-204,-167,-753,106,-112
3090,29,-197,-164,-851,179,-115
3095,28,-198,-155,-954,230,-113
3100,29,-201,-150,-1053,251,-114
3105,29,-198,-150,-1130,247,-110
3110,30,-206,-143,-1170,232,-108
3115,28,-210,-141,-1164,213,-97
3120,23,-219,-131,-1110,200,-82
3125,24,-224,-125,-1014,184,-58
3130,18,-229,-121,-855,167,-46
3135,17,-229,-112,-708,145,-32
3140,15,-229,-107,-567,118,-31
3145,9,-224,-97,-436,85,-32
3150,5,-221,-99,-321,54,-41
3155,-1,-214,-97,-233,24,-45
3160,-2,-210,-103,-185,-1,-53
3165,-1,-202,-112,-174,-17,-54
3170,0,-201,-120,-199,-28,-58
3175,3,-197,-126,-244,-31,-55
3180,2,-198,-134,-306,-27,-57
3185,6,-198,-137,-348,-15,-53
3190,6,-197,-141,-370,2,-55
3195,7,-195,-146,-379,18,-50
3200,11,-194,-149,-386,27,-51
3205,10,-193,-149,-392,31,-52
3210,11,-188,-151,-399,29,-56
3215,13,-185,-149,-408,25,-57
3220,11,-183,-153,-418,22,-59
3225,15,-183,-153,-427,29,-56
3230,15,-176,-153,-435,46,-54
3235,17,-168,-156,-444,73,-43
3240,14,-162,-159,-458,105,-32
3245,19,-155,-164,-480,141,-12
3250,14,-149,-159,-507,172,5
3255,13,-142,-159,-540,194,25
3260,8,-135,-161,-578,208,43
3265,4,-132,-154,-622,212,62
3270,10,-132,-145,-656,211,79
3275,2,-131,-134,-684,201,96
3280,5,-130,-123,-705,182,108
3285,0,-130,-115,-715,152,115
3290,-3,-130,-106,-712,104,117
3295,-8,-131,-93,-702,42,114
3300,-12,-129,-91,-692,-36,102
3305,-12,-128,-91,-684,-130,84
3310,-17,-122,-93,-678,-231,63
3315,-24,-119,-93,-681,-337,34
3320,-26,-119,-87,-694,-448,0
3325,-30,-116,-91,-720,-581,-44
3330,-32,-117,-90,-769,-684,-87
3335,-30,-109,-90,-816,-775,-129
3340,-27,-110,-89,-866,-845,-172
3345,-22,-108,-90,-909,-889,-211
3350,-13,-105,-91,-941,-903,-243
3355,-11,-108,-90,-960,-886,-272
3360,-9,-106,-95,-975,-843,-295
3365,1,-105,-101,-988,-780,-312
3370,8,-102,-103,-1015,-703,-322
3375,18,-98,-112,-1066,-604,-328
3380,23,-94,-120,-1168,-518,-321
3385,30,-96,-124,-1276,-428,-296
3390,34,-101,-138,-1399,-338,-259
3395,36,-103,-139,-1539,-250,-211
3400,42,-121,-143,-1678,-164,-155
3405,46,-131,-142,-1798,-85,-97
3410,48,-141,-135,-1888,-21,-42
3415,46,-156,-136,-1939,27,4
3420,48,-168,-135,-1951,57,41
3425,53,-181,-136,-1930,68,65
3430,51,-187,-139,-1870,58,71
3435,52,-197,-145,-1804,37,65
3440,53,-198,-140,-1734,6,52
3445,52,-198,-144,-1670,-31,27
3450,48,-198,-136,-1603,-70,1
3455,44,-202,-133,-1533,-110,-25
3460,46,-198,-126,-1465,-146,-43
3465,42,-197,-122,-1399,-168,-60
3470,40,-197,-117,-1328,-173,-72
3475,36,-195,-105,-1253,-151,-82
3480,34,-195,-104,-1159,-116,-85
3485,31,-193,-102,-1082,-75,-85
3490,33,-197,-100,-1012,-36,-79
3495,24,-193,-101,-948,-2,-76
3500,16,-191,-101,-902,17,-70
3505,8,-183,-100,-866,27,-67
3510,3,-183,-94,-860,21,-65
3515,-9,-183,-89,-861,11,-67
3520,-15,-180,-88,-840,1,-58
3525,-21,-178,-83,-800,-16,-41
3530,-28,-178,-88,-734,-26,-19
3535,-29,-173,-91,-682,-37,6
3540,-33,-171,-94,-641,-52,34
3545,-27,-166,-105,-606,-70,60
3550,-24,-162,-111,-580,-87,91
3555,-22,-163,-117,-562,-109,118
3560,-15,-163,-120,-552,-137,144
3565,-18,-163,-128,-549,-174,162
3570,-16,-166,-138,-558,-225,178
3575,-11,-170,-141,-573,-297,184
3580,-10,-179,-150,-590,-357,181
3585,-5,-190,-152,-595,-407,165
3590,0,-205,-152,-572,-433,151
3595,0,-219,-161,-513,-436,130
3600,3,-224,-164,-422,-415,117
3605,3,-232,-170,-302,-376,103
3610,5,-239,-177,-178,-319,94
3615,0,-241,-184,-53,-248,82
3620,3,-239,-189,75,-177,82
3625,5,-230,-192,186,-108,69
3630,10,-224,-190,283,-62,59
3635,10,-215,-191,347,-41,41
3640,6,-214,-195,393,-39,27
3645,9,-203,-193,421,-49,10
3650,5,-193,-192,413,-82,1
3655,4,-194,-185,375,-135,-11
3660,4,-195,-179,345,-208,-16
3665,-4,-194,-178,326,-301,-27
3670,-6,-195,-179,306,-409,-32
3675,-8,-199,-177,296,-535,-37
3680,-7,-208,-177,303,-617,-30
3685,-2,-217,-182,329,-646,-17
3690,7,-225,-185,375,-625,14
3695,10,-235,-178,449,-557,44
3700,10,-236,-172,544,-465,79
3705,12,-242,-165,639,-370,111
3710,16,-242,-167,725,-295,138
3715,15,-235,-167,797,-237,142
3720,13,-229,-160,851,-210,141
3725,12,-222,-171,885,-211,125
3730,1,-215,-173,893,-210,106
3735,-10,-208,-180,884,-215,82
3740,-21,-208,-185,840,-224,59
3745,-32,-206,-194,783,-236,35
3750,-37,-214,-196,709,-251,19
3755,-41,-215,-207,620,-275,2
3760,-47,-225,-202,523,-296,-1
3765,-47,-225,-191,447,-328,-2
3770,-41,-227,-208,401,-386,9
3775,-27,-226,-204,374,-418,27
3780,-9,-228,-203,373,-438,46
3785,3,-228,-209,396,-448,59
3790,12,-236,-206,428,-440,67
3795,27,-237,-216,456,-385,53
3800,18,-237,-213,462,-304,28
3805,20,-237,-209,470,-239,-7
3810,-1,-234,-196,479,-197,-41
3815,-14,-229,-210,487,-185,-86
3820,-36,-220,-206,515,-142,-122
3825,-51,-229,-197,576,-100,-115
3830,-60,-238,-200,574,-89,-113
3835,-72,-238,-204,543,-114,-111
3840,-78,-239,-192,519,-161,-96
3845,-74,-254,-202,509,-232,-72
3850,-67,-249,-203,502,-296,-43
3855,-44,-258,-219,524,-326,1
3860,-22,-259,-224,533,-319,34
3865,-14,-255,-229,536,-289,53
3870,-9,-255,-230,573,-247,75
3875,5,-255,-238,625,-224,98
3880,7,-264,-228,674,-185,103
3885,-1,-273,-216,704,-146,97
3890,-5,-283,-217,750,-99,91
3895,-24,-294,-209,800,-41,75
3900,-35,-298,-206,859,0,60
3905,-51,-297,-205,915,28,40
3910,-60,-296,-200,966,44,29
3915,-64,-297,-192,1014,38,25
3920,-61,-296,-191,1058,20,27
3925,-52,-289,-186,1083,-2,31
3930,-35,-299,-187,1094,-26,37
3935,-26,-297,-188,1100,-32,37
3940,-17,-297,-179,1110,-25,41
3945,-11,-289,-174,1130,-12,42
3950,-3,-287,-172,1147,2,46
3955,1,-283,-165,1156,34,50
3960,1,-276,-157,1149,69,51
3965,3,-276,-159,1135,102,57
3970,2,-276,-156,1113,135,60
3975,-11,-272,-150,1085,160,62
3980,-12,-271,-151,1042,169,61
3985,-21,-268,-144,1004,162,52
3990,-20,-275,-150,959,154,41
3995,-21,-280,-152,924,145,29
4000,-19,-287,-151,905,137,17
4005,-11,-298,-153,904,127,6
4010,-9,-298,-148,918,119,-3
4015,-5,-300,-139,949,109,-10
4020,-7,-290,-139,982,100,-21
4025,-11,-280,-137,1016,92,-33
4030,-9,-272,-130,1053,87,-45
4035,-9,-269,-121,1080,81,-51
4040,-10,-262,-116,1096,70,-58
4045,-13,-258,-112,1096,55,-67
4050,-16,-259,-114,1079,39,-75
4055,-19,-258,-108,1082,18,-86
4060,-23,-256,-112,1068,-1,-100
4065,-21,-258,-112,1053,-18,-110
4070,-15,-260,-107,1042,-28,-120
4075,-12,-260,-105,1038,-31,-118
4080,-6,-260,-95,1051,-24,-119
4085,1,-264,-92,1053,-5,-122
4090,-5,-272,-108,1052,23,-129
4095,-9,-276,-116,1059,54,-127
4100,-15,-291,-136,1051,87,-131
4105,-23,-310,-151,1020,116,-137
4110,-44,-330,-215,944,127,-150
4115,-64,-387,-278,769,121,-145
4120,-31,-487,-326,504,106,-120
4125,-12,-564,-358,147,113,-126
4130,-22,-581,-314,-183,180,-161
4135,-10,-548,-234,-232,232,-203
4140,-3,-480,-190,-116,255,-248
4145,-17,-424,-174,101,256,-260
4150,-43,-365,-169,380,232,-236
4155,-62,-303,-153,724,179,-184
4160,-71,-219,-120,1107,118,-127
4165,-83,-119,-71,1442,74,-65
4170,-90,-59,-47,1594,52,-18
4175,-89,-1,-28,1484,40,33
4180,-76,4,-26,1077,41,60
4185,-57,-23,-34,660,55,76
4190,-39,-70,-45,308,70,75
4195,-18,-117,-55,65,80,67
4200,-7,-161,-63,-81,86,50
4205,7,-201,-68,-135,89,37
4210,13,-225,-69,-106,91,15
4215,18,-245,-67,-7,93,-7
4220,20,-260,-59,138,91,-36
4225,20,-267,-52,294,87,-66
4230,20,-276,-45,471,78,-95
4235,17,-276,-42,592,72,-115
4240,20,-279,-49,682,62,-138
4245,17,-276,-53,733,59,-153
4250,19,-280,-55,748,56,-172
4255,16,-284,-59,734,64,-181
4260,15,-290,-64,706,80,-193
4265,15,-296,-74,674,106,-200
4270,15,-298,-76,645,138,-205
4275,10,-300,-84,623,170,-202
4280,11,-297,-89,609,199,-196
4285,8,-290,-86,614,214,-185
4290,4,-280,-81,628,218,-185
4295,2,-267,-75,644,210,-180
4300,-6,-252,-65,665,193,-184
4305,-12,-238,-61,677,170,-184
4310,-17,-227,-56,675,140,-188
4315,-19,-211,-53,659,105,-191
4320,-22,-208,-47,630,72,-193
4325,-24,-205,-49,585,43,-194
4330,-26,-202,-49,523,21,-196
4335,-25,-202,-51,472,11,-188
4340,-25,-212,-53,417,9,-188
4345,-21,-218,-55,369,11,-181
4350,-21,-223,-54,330,14,-180
4355,-18,-230,-49,307,18,-176
4360,-15,-238,-52,303,20,-174
4365,-15,-246,-50,309,19,-171
4370,-15,-244,-54,326,17,-172
4375,-11,-258,-58,347,9,-173
4380,-8,-274,-43,373,1,-177
4385,-5,-258,-45,397,-12,-182
4390,-7,-264,-21,420,-20,-193
4395,-3,-260,-49,442,-25,-203
4400,-15,-267,-35,456,-22,-216
4405,-17,-259,-35,467,-16,-224
4410,-19,-260,-34,466,-2,-235
4415,-13,-256,-34,459,21,-242
4420,-14,-251,-35,441,48,-247
4425,-14,-251,-32,417,79,-244
4430,-13,-237,-48,382,106,-240
4435,-14,-245,-35,352,129,-226
4440,-12,-246,-34,326,144,-210
4445,-12,-248,-35,305,151,-190
4450,-11,-248,-36,296,144,-170
4455,-9,-249,-36,296,132,-150
4460,-7,-251,-42,304,115,-135
4465,-5,-254,-43,315,95,-123
4470,-6,-248,-48,329,70,-112
4475,-5,-249,-42,339,45,-108
4480,-1,-248,-47,348,23,-115
4485,-4,-248,-44,346,5,-125
4490,-3,-245,-51,340,-12,-140
4495,-2,-248,-49,327,-18,-155
4500,-3,-246,-49,314,-18,-169
4505,-4,-249,-52,297,-5,-180
4510,-3,-249,-48,282,14,-189
4515,-4,-247,-40,269,39,-191
4520,-6,-250,-36,261,67,-186
4525,-6,-251,-39,255,102,-181
4530,-6,-254,-35,255,129,-174
4535,-5,-256,-25,262,149,-163
4540,-4,-257,-36,283,162,-153
4545,-5,-252,-38,305,173,-141
4550,-4,-254,-37,333,179,-129
4555,-5,-257,-37,363,183,-118
4560,-2,-258,-40,395,179,-103
4565,1,-255,-35,424,174,-92
4570,4,-256,-39,443,168,-80
4575,4,-254,-34,456,156,-71
4580,6,-253,-33,464,145,-69
4585,11,-252,-36,463,141,-70
4590,13,-252,-33,457,139,-74
4595,13,-251,-36,447,141,-83
4600,15,-250,-34,430,148,-92
4605,12,-248,-30,408,155,-103
4610,15,-244,-29,383,165,-111
4615,10,-240,-25,355,175,-122
4620,15,-240,-17,324,188,-127
4625,16,-239,-14,294,199,-135
4630,15,-235,-13,258,208,-136
4635,15,-237,-8,233,215,-139
4640,13,-236,-4,209,219,-135
4645,16,-241,-4,187,221,-132
4650,19,-245,-5,169,221,-125
4655,18,-247,-7,152,219,-119
4660,19,-251,-5,139,215,-111
4665,21,-256,-7,132,212,-108
4670,18,-254,-7,129,208,-100
4675,19,-259,-9,130,205,-96
4680,20,-258,-13,136,204,-90
4685,18,-256,-7,140,203,-87
4690,14,-258,-10,148,204,-82
4695,15,-259,-15,154,202,-82
4700,13,-259,-10,159,201,-79
4705,13,-258,-13,163,197,-80
4710,12,-257,-13,162,196,-79
4715,12,-256,-12,160,195,-83
4720,13,-253,-14,157,196,-82
4725,14,-250,-17,152,203,-85
4730,8,-250,-13,146,209,-83
4735,10,-251,-11,136,213,-84
4740,12,-251,-12,123,217,-83
4745,11,-249,-13,111,216,-86
4750,14,-250,-12,99,212,-87
4755,13,-246,-19,89,205,-92
4760,14,-247,-17,81,198,-90
4765,14,-248,-14,76,191,-91
4770,13,-245,-20,72,182,-88
4775,17,-249,-20,70,172,-87
4780,17,-246,-24,67,165,-82
4785,20,-248,-23,61,159,-80
4790,15,-248,-23,57,156,-70
4795,14,-253,-15,58,154,-67
4800,17,-258,-19,56,153,-59
4805,15,-254,-19,56,150,-57
4810,15,-256,-19,60,148,-54
4815,15,-258,-19,65,146,-57
4820,12,-258,-22,71,143,-57
4825,12,-260,-21,77,139,-63
4830,12,-258,-25,84,137,-64
4835,10,-257,-19,90,136,-70
4840,6,-254,-25,98,133,-71
4845,7,-255,-25,103,132,-77
4850,8,-256,-22,106,133,-76
4855,8,-251,-22,109,133,-78
4860,9,-255,-20,111,133,-76
4865,8,-253,-22,112,131,-77
4870,12,-255,-18,110,130,-73
4875,13,-254,-13,108,129,-70
4880,16,-254,-13,105,128,-63
4885,16,-253,-9,106,126,-60
4890,18,-255,-11,107,123,-53
4895,17,-255,-11,105,119,-51
4900,19,-254,-12,99,115,-45
4905,20,-255,-10,90,111,-43
4910,19,-253,-9,80,109,-37
4915,18,-252,-10,65,108,-37
4920,14,-250,-13,52,108,-33
4925,15,-249,-12,39,109,-31
4930,15,-248,-8,25,111,-27
4935,13,-248,-6,9,112,-29
4940,9,-251,-5,-7,110,-28
4945,10,-248,-6,-19,108,-30
4950,8,-248,-7,-28,104,-32
4955,10,-253,-11,-34,102,-37
4960,8,-252,-11,-38,104,-38
4965,8,-256,-9,-40,107,-41
4970,10,-255,-10,-36,111,-40
4975,11,-256,-12,-29,117,-43
4980,10,-258,-16,-16,119,-42
4985,12,-257,-16,-4,124,-44
4990,11,-260,-12,8,128,-41
4995,14,-258,-10,19,129,-41
5000,15,-259,-11,26,128,-38
5005,15,-256,-15,31,127,-39
5010,15,-256,-11,32,125,-36
5015,14,-254,-14,32,122,-34
5020,15,-256,-15,29,121,-33
5025,17,-255,-15,25,120,-31
5030,14,-254,-15,23,119,-28
5035,17,-256,-16,19,116,-28
5040,14,-253,-15,16,112,-26
5045,16,-254,-16,13,111,-26
5050,14,-254,-17,11,109,-25
5055,15,-253,-19,6,106,-24
5060,16,-253,-15,4,102,-22
5065,18,-251,-14,3,99,-20
5070,18,-250,-14,2,93,-20
5075,19,-253,-9,0,84,-19
5080,19,-252,-12,-2,77,-18
5085,20,-251,-9,-7,71,-21
5090,19,-250,-11,-11,67,-20
5095,17,-252,-9,-18,65,-22
5100,17,-250,-7,-24,65,-21
5105,20,-253,-9,-32,66,-21
5110,17,-253,-10,-37,68,-22
5115,16,-252,-10,-45,73,-20
5120,20,-254,-7,-50,78,-20
5125,18,-256,-9,-54,84,-19
5130,17,-256,-9,-62,89,-18
5135,18,-253,-13,-67,97,-18
5140,17,-255,-12,-72,101,-16
5145,14,-253,-13,-78,105,-13
5150,15,-252,-17,-84,108,-13
5155,17,-253,-9,-92,111,-12
5160,15,-249,-13,-97,111,-12
5165,14,-248,-11,-103,113,-9
5170,15,-251,-15,-108,113,-10
5175,13,-253,-13,-110,113,-5
5180,11,-250,-16,-114,111,-3
5185,14,-251,-15,-114,108,0
5190,13,-253,-18,-114,105,4
5195,10,-251,-17,-113,103,7
5200,15,-257,-15,-107,102,9
5205,14,-257,-19,-100,100,15
5210,13,-255,-16,-92,97,15
5215,13,-259,-18,-82,96,19
5220,14,-260,-20,-73,94,19
5225,11,-258,-18,-59,91,21
5230,14,-260,-22,-49,90,21
5235,14,-262,-21,-41,88,23
5240,16,-262,-23,-35,88,21
5245,14,-260,-20,-27,88,21
5250,13,-261,-23,-17,88,18
5255,9,-260,-24,-9,88,18
5260,13,-260,-20,-3,90,14
5265,15,-261,-21,4,90,14
5270,14,-260,-19,11,92,9
5275,12,-258,-18,19,92,10
5280,9,-257,-21,25,91,7
5285,11,-257,-15,29,92,8
5290,8,-253,-22,32,92,4
5295,12,-254,-23,35,91,4
5300,9,-256,-22,35,91,3
5305,7,-253,-22,34,90,6
5310,12,-252,-23,33,89,2
5315,12,-254,-23,29,90,5
5320,11,-250,-21,24,90,4
5325,14,-253,-21,16,91,6
5330,14,-252,-21,9,87,5
5335,15,-254,-23,2,82,7
5340,16,-256,-21,-5,78,5
5345,15,-257,-21,-11,74,6
5350,17,-259,-22,-14,69,2
5355,17,-255,-21,-19,65,3
5360,17,-255,-19,-21,59,-1
5365,15,-253,-17,-24,53,2
5370,14,-254,-18,-28,48,0
5375,16,-255,-16,-30,42,4
5380,15,-256,-19,-32,40,2
5385,17,-257,-17,-31,40,6
5390,14,-256,-15,-28,42,3
5395,11,-253,-18,-25,43,7
5400,10,-255,-19,-22,45,4
5405,11,-254,-14,-19,46,7
5410,10,-256,-13,-15,47,5
5415,14,-256,-16,-13,48,8
5420,12,-255,-13,-8,48,4
5425,14,-257,-16,-2,47,6
5430,11,-255,-18,4,46,4
5435,11,-257,-17,9,46,7
5440,14,-257,-13,14,47,5
5445,10,-257,-16,16,47,8
5450,11,-251,-14,16,49,5
5455,12,-255,-11,16,50,10
5460,13,-254,-15,14,50,10
5465,14,-254,-18,11,51,13
5470,12,-256,-18,9,52,13
5475,16,-255,-16,8,53,15
5480,14,-256,-18,5,51,15
5485,17,-256,-20,3,52,19
5490,18,-257,-18,2,52,17
5495,18,-256,-14,1,53,18
5500,16,-258,-17,1,55,15
5505,14,-258,-18,4,54,15
5510,17,-256,-17,6,54,12
5515,16,-257,-14,9,55,12
5520,15,-256,-15,11,56,9
5525,13,-254,-14,13,58,11
5530,14,-255,-13,15,57,9
5535,13,-254,-14,18,58,10
5540,10,-254,-11,20,57,7
5545,17,-256,-14,21,56,9
5550,16,-253,-15,19,56,8
5555,13,-253,-13,20,58,8
5560,15,-255,-16,20,57,7
5565,15,-256,-12,20,57,8
5570,16,-256,-13,19,58,6
5575,15,-257,-15,19,55,9
5580,15,-254,-15,19,53,9
5585,17,-256,-15,19,51,9
5590,19,-257,-15,19,48,8
5595,14,-256,-14,17,47,10
5600,13,-254,-16,13,44,8
5605,15,-254,-17,12,41,8
5610,16,-255,-13,10,38,7
5615,18,-256,-13,8,36,5
5620,14,-256,-16,7,32,4
5625,14,-253,-16,4,28,5
5630,16,-254,-14,1,28,3
5635,13,-251,-10,-1,27,3
5640,9,-251,-17,-3,28,2
5645,9,-254,-14,-3,31,3
5650,12,-254,-13,-4,32,2
5655,10,-255,-12,-4,35,1
5660,14,-255,-13,-5,37,0
5665,13,-259,-14,-5,40,-2
5670,10,-257,-12,-1,43,-3
5675,11,-256,-11,4,47,-4
5680,9,-256,-16,9,51,-5
5685,12,-256,-13,14,56,-7
5690,13,-255,-15,19,61,-9
5695,11,-258,-16,23,65,-8
5700,12,-253,-13,25,67,-8
5705,12,-257,-14,26,68,-8
5710,13,-255,-14,25,70,-8
5715,17,-259,-11,27,73,-10
5720,14,-257,-13,28,74,-11
5725,13,-255,-12,28,76,-11
5730,19,-254,-14,28,75,-10
5735,16,-254,-12,27,75,-10
5740,17,-253,-16,23,72,-8
5745,16,-253,-16,18,70,-7
5750,14,-253,-16,15,67,-5
5755,15,-253,-17,11,62,-6
5760,16,-252,-11,8,58,-2
5765,14,-254,-14,6,52,-3
5770,16,-252,-14,1,50,0
5775,17,-255,-17,-3,46,-2
5780,19,-256,-16,-6,45,-1
5785,17,-255,-19,-9,44,-3
5790,14,-254,-16,-12,42,-2
5795,15,-256,-14,-13,43,-4
5800,16,-254,-18,-14,40,-3
5805,15,-256,-14,-13,43,-5
5810,15,-254,-15,-13,43,-2
5815,13,-254,-8,-10,43,-4
5820,12,-253,-12,-7,43,-1
5825,13,-253,-8,-6,44,-2
5830,11,-253,-14,-6,42,2
5835,13,-254,-9,-4,42,3
5840,16,-256,-14,-3,44,5
5845,10,-253,-12,-2,44,5
5850,15,-257,-8,-1,42,8
5855,13,-255,-18,-1,44,8
5860,13,-254,-11,-1,43,10
5865,14,-256,-14,-3,45,9
5870,16,-257,-17,-6,45,11
5875,13,-258,-15,-9,47,6
5880,14,-257,-17,-11,49,8
5885,15,-256,-14,-12,48,6
5890,13,-255,-12,-11,49,6
5895,13,-254,-11,-10,50,2
5900,12,-256,-13,-8,50,5
5905,13,-255,-15,-8,51,1
5910,15,-256,-10,-7,52,3
5915,13,-256,-11,-8,55,1
5920,11,-253,-18,-7,56,3
5925,11,-255,-13,-7,57,0
5930,14,-253,-15,-7,57,2
5935,14,-256,-15,-7,58,0
5940,15,-257,-13,-7,56,1
5945,16,-255,-14,-8,55,-2
5950,15,-256,-14,-10,53,-2
5955,16,-256,-13,-11,56,-5
5960,12,-256,-14,-11,55,-6
5965,12,-256,-18,-11,55,-10
5970,15,-254,-15,-12,56,-10
5975,13,-257,-15,-13,57,-13
5980,12,-257,-12,-11,58,-11
5985,13,-255,-13,-10,59,-13
5990,13,-254,-13,-9,60,-10
5995,15,-256,-13,-8,62,-12
6000,14,-255,-13,-7,63,-9
6005,13,-255,-12,-8,62,-10
6010,15,-255,-15,-7,63,-7
6015,11,-258,-12,-7,63,-7
6020,13,-254,-14,-5,63,-3
6025,15,-257,-11,-4,63,-6
6030,12,-255,-15,-2,66,-3
6035,14,-257,-12,-2,64,-6
6040,12,-256,-15,0,66,-6
6045,13,-257,-16,1,65,-9
6050,12,-256,-14,2,66,-7
6055,12,-256,-13,2,66,-10
6060,14,-256,-11,3,67,-8
6065,11,-257,-13,2,69,-9
6070,12,-253,-9,2,72,-7
6075,10,-253,-11,3,74,-8
6080,14,-255,-10,3,73,-7
6085,11,-253,-10,4,75,-9
6090,11,-254,-10,4,75,-7
6095,14,-255,-14,3,74,-8
6100,15,-253,-8,2,75,-6
6105,12,-253,-9,2,75,-9
6110,13,-255,-11,1,75,-8
6115,12,-254,-10,1,74,-10
6120,13,-257,-12,2,74,-9
6125,14,-257,-11,5,73,-11
6130,16,-257,-14,6,70,-10
6135,12,-255,-12,4,69,-12
6140,14,-253,-13,0,69,-11
6145,14,-254,-18,-4,67,-13
6150,16,-253,-14,-6,65,-12
6155,17,-253,-20,-10,62,-12
6160,18,-254,-14,-11,60,-11
6165,17,-256,-14,-12,57,-11
6170,17,-254,-11,-12,55,-9
6175,15,-255,-11,-13,51,-11
6180,15,-254,-9,-12,49,-7
6185,15,-255,-11,-10,50,-8
6190,15,-256,-12,-12,50,-5
6195,15,-255,-16,-12,49,-7
6200,11,-253,-11,-13,51,-5
6205,14,-255,-15,-13,51,-7
6210,17,-254,-19,-13,55,-6
6215,14,-253,-15,-13,60,-6
6220,15,-254,-13,-12,64,-6
6225,14,-254,-16,-12,69,-7
6230,16,-254,-14,-12,71,-5
6235,15,-256,-18,-12,73,-7
6240,15,-254,-13,-12,74,-8
6245,13,-255,-15,-13,77,-8
6250,14,-256,-14,-13,78,-8
6255,14,-257,-13,-12,79,-8
6260,16,-258,-12,-12,80,-8
6265,16,-255,-10,-10,82,-8
6270,16,-257,-11,-9,83,-7
6275,13,-256,-13,-5,80,-9
6280,17,-257,-15,-4,79,-9
6285,14,-257,-9,-4,75,-9
6290,16,-256,-16,-6,74,-8
6295,13,-253,-14,-7,74,-10
6300,15,-255,-13,-7,72,-9
6305,17,-254,-16,-8,72,-9
6310,12,-253,-17,-8,72,-10
6315,14,-255,-10,-9,72,-10
6320,14,-254,-14,-9,75,-9
6325,14,-253,-12,-9,77,-8
6330,15,-257,-8,-7,78,-7
6335,16,-257,-14,-5,80,-7
6340,13,-252,-9,-5,81,-7
6345,13,-254,-16,-4,80,-6
6350,11,-252,-12,-3,81,-6
6355,12,-253,-13,-4,80,-5
6360,11,-254,-11,-6,78,-8
6365,14,-253,-10,-8,78,-5
6370,14,-256,-9,-10,80,-5
6375,15,-257,-11,-10,78,-5
6380,12,-256,-12,-12,79,-7
6385,17,-255,-12,-12,79,-6
6390,13,-256,-11,-11,77,-8
6395,11,-256,-11,-11,76,-7
6400,15,-257,-15,-10,76,-7
6405,13,-257,-13,-10,78,-5
6410,16,-258,-13,-10,78,-7
6415,15,-256,-13,-12,77,-5
6420,17,-253,-7,-13,76,-5
6425,16,-254,-9,-16,74,-4
6430,14,-256,-14,-19,74,-5
6435,16,-256,-11,-20,73,-3
6440,14,-255,-11,-20,72,-3
6445,15,-256,-11,-19,72,-1
6450,14,-252,-12,-19,72,-2
6455,15,-253,-9,-18,70,0
6460,15,-254,-15,-17,70,-1
6465,14,-257,-13,-16,70,-2
6470,13,-254,-10,-16,70,-5
6475,15,-254,-10,-17,69,-4
6480,16,-256,-10,-18,69,-5
6485,14,-257,-11,-19,70,-5
6490,17,-257,-10,-21,71,-8
6495,15,-256,-11,-21,71,-5
6500,13,-256,-15,-22,73,-9
6505,12,-255,-12,-20,74,-7
6510,15,-255,-14,-18,76,-10
6515,14,-256,-11,-15,76,-7
6520,13,-256,-16,-13,76,-9
6525,18,-257,-14,-13,75,-7
6530,14,-256,-13,-12,73,-8
6535,11,-255,-12,-12,71,-4
6540,15,-254,-8,-12,69,-5
6545,13,-254,-9,-13,67,-1
6550,12,-255,-13,-14,64,-2
6555,18,-255,-12,-16,61,2
6560,15,-256,-10,-17,60,1
6565,16,-258,-17,-16,59,5
6570,15,-257,-13,-16,57,3
6575,15,-256,-13,-16,57,6
6580,15,-257,-11,-15,57,3
6585,13,-251,-16,-14,59,5
6590,12,-255,-13,-14,62,0
6595,14,-256,-15,-12,63,1
6600,15,-255,-15,-12,63,-1
6605,13,-256,-10,-12,65,1
6610,11,-255,-17,-10,67,-2
6615,14,-255,-12,-8,68,2
6620,13,-255,-8,-7,69,-2
6625,13,-254,-11,-5,68,1
6630,14,-256,-10,-6,68,-3
6635,11,-250,-9,-9,67,1
6640,17,-252,-7,-10,67,-3
6645,14,-257,-10,-13,65,0
6650,15,-254,-9,-17,63,-2
6655,14,-256,-9,-18,62,0
6660,14,-257,-8,-20,62,-2
6665,14,-256,-7,-21,60,1
6670,15,-254,-14,-19,57,-1
6675,16,-257,-11,-17,57,3
6680,13,-254,-17,-16,54,1
6685,14,-255,-14,-15,55,1
6690,15,-255,-15,-16,56,-1
6695,13,-256,-15,-17,55,1
6700,17,-256,-16,-17,55,-2
6705,13,-257,-15,-19,55,0
6710,13,-255,-13,-17,55,-2
6715,14,-255,-15,-15,54,-1
6720,13,-256,-11,-14,54,-3
6725,17,-257,-14,-10,54,0
6730,14,-257,-11,-8,56,-3
6735,12,-254,-12,-5,58,0
6740,14,-253,-8,-1,59,-2
6745,14,-255,-13,1,62,0
6750,13,-255,-7,3,62,-3
6755,14,-254,-13,5,62,0
6760,13,-252,-9,5,63,-1
6765,16,-255,-11,4,64,-1
6770,15,-256,-8,2,64,-2
6775,12,-253,-17,0,64,0
6780,13,-254,-13,-1,64,-4
6785,13,-253,-11,-4,63,-3
6790,13,-252,-11,-8,63,-5
6795,12,-254,-12,-12,63,-4
6800,16,-255,-8,-15,62,-5
6805,12,-255,-12,-17,61,-4
6810,13,-254,-12,-18,62,-6
6815,16,-255,-10,-19,61,-5
6820,15,-257,-15,-20,60,-5
6825,15,-253,-14,-21,57,-3
6830,16,-254,-14,-20,58,-4
6835,15,-255,-11,-20,58,-1
6840,17,-257,-16,-19,58,-1
6845,15,-255,-13,-17,59,1
6850,15,-256,-14,-14,59,0
6855,16,-259,-13,-13,59,0
6860,17,-257,-15,-10,58,1
6865,12,-257,-10,-7,58,3
6870,15,-256,-16,-6,57,2
6875,16,-257,-14,-4,58,3
6880,15,-254,-12,-4,61,2
6885,16,-256,-16,-3,62,4
6890,17,-258,-9,-1,62,1
6895,14,-253,-10,1,62,2
6900,16,-254,-14,3,64,2
6905,14,-257,-14,5,65,1
6910,14,-254,-12,8,67,2
6915,15,-252,-12,9,65,2
6920,15,-255,-15,11,64,0
6925,16,-249,-11,14,63,1
6930,15,-256,-16,15,62,1
6935,21,-258,-16,14,60,1
6940,20,-261,2,13,59,0
6945,17,-247,-13,9,59,0
6950,10,-255,-9,6,57,-2
6955,10,-251,-26,2,55,-2
6960,17,-260,-24,-2,54,-2
6965,18,-254,-26,-6,56,-3
6970,13,-257,-14,-10,58,-3
6975,12,-256,-9,-14,60,-3
6980,13,-254,-12,-15,63,-3
6985,15,-256,-12,-17,65,-2
6990,13,-255,-17,-17,67,-1
6995,15,-255,-11,-17,68,-1
7000,14,-255,-10,-16,69,0
7005,17,-259,-13,-13,67,-1
7010,14,-253,-9,-12,66,2
7015,13,-257,-12,-11,65,1
7020,18,-257,-12,-9,63,2
7025,13,-254,-7,-7,62,1
7030,13,-257,-7,-6,60,0
7035,14,-254,-12,-7,60,-1
7040,14,-255,-16,-8,59,-1
7045,12,-255,-13,-9,59,-3
7050,13,-255,-14,-11,60,-1
7055,14,-255,-13,-11,61,-5
7060,13,-253,-11,-11,64,-3
7065,14,-256,-9,-10,64,-3
7070,11,-253,-12,-9,66,-2
7075,14,-254,-8,-8,66,-3
7080,13,-253,-10,-8,66,-2
7085,16,-256,-11,-7,65,-3
7090,15,-257,-10,-7,63,-1
7095,14,-253,-9,-6,61,-2
7100,14,-254,-11,-6,62,2
7105,16,-254,-12,-5,60,1
7110,14,-254,-8,-6,58,2
7115,13,-253,-13,-9,56,0
7120,13,-254,-12,-10,56,3
7125,11,-255,-12,-11,55,2
7130,16,-256,-11,-11,56,4
7135,11,-254,-16,-12,55,2
7140,12,-254,-14,-10,54,3
7145,16,-257,-13,-11,53,1
7150,16,-256,-13,-12,51,3
7155,13,-254,-12,-12,52,-1
7160,16,-255,-14,-12,52,0
7165,15,-253,-11,-13,52,-1
7170,16,-254,-13,-12,54,0
7175,16,-258,-9,-11,55,-1
7180,13,-256,-15,-13,57,1
7185,13,-251,-8,-12,56,-1
7190,15,-255,-9,-12,56,1
7195,14,-254,-7,-12,57,-2
7200,11,-252,-9,-13,58,1
7205,9,-254,-11,-14,58,-2
7210,12,-255,-12,-17,59,1
7215,14,-257,-15,-17,61,-1
7220,13,-257,-9,-17,61,2
7225,17,-257,-12,-17,62,1
7230,15,-257,-13,-16,62,2
7235,16,-256,-10,-15,61,1
7240,13,-256,-15,-15,59,2
7245,14,-258,-16,-16,60,-1
7250,14,-255,-11,-17,59,1
7255,15,-255,-13,-17,58,-3
7260,14,-255,-10,-16,57,-1
7265,16,-257,-12,-16,56,-4
7270,13,-253,-16,-15,55,-2
7275,9,-254,-17,-13,54,-4
7280,15,-256,-9,-13,53,-1
7285,14,-255,-14,-10,53,-3
7290,13,-253,-10,-7,53,1
7295,13,-255,-11,-2,51,0
7300,12,-257,-10,1,51,3
7305,11,-254,-6,4,50,0
7310,13,-253,-16,4,51,1
7315,14,-254,-13,5,50,-3
7320,12,-254,-11,2,52,0
7325,10,-252,-14,0,52,-4
7330,12,-254,-12,-3,52,-2
7335,14,-252,-9,-7,53,-4
7340,11,-254,-13,-11,55,-2
7345,14,-257,-10,-15,55,-4
7350,13,-253,-10,-20,57,0
7355,12,-256,-8,-22,58,-2
7360,12,-255,-11,-24,58,0
7365,11,-252,-10,-24,61,-2
7370,10,-258,-14,-23,61,1
7375,11,-256,-13,-21,63,-1
7380,15,-256,-12,-16,61,1
7385,13,-255,-9,-15,62,-1
7390,14,-254,-12,-10,61,-1
7395,16,-256,-14,-5,61,-2
7400,15,-257,-16,-3,60,0
7405,14,-255,-10,0,59,0
7410,14,-253,-10,1,58,1
7415,11,-253,-12,3,57,0
7420,13,-254,-13,5,58,2
7425,14,-252,-11,4,56,-1
7430,16,-255,-10,5,55,1
7435,15,-255,-13,4,54,2
7440,13,-255,-12,3,53,3
7445,16,-256,-13,2,54,2
7450,15,-255,-10,-1,53,4
7455,14,-253,-10,-4,53,3
7460,15,-255,-10,-8,54,3
7465,12,-254,-11,-11,54,3
7470,14,-254,-11,-11,52,4
7475,13,-255,-10,-14,49,3
7480,15,-253,-12,-11,50,4
7485,14,-257,-14,-11,49,2
7490,12,-257,-12,-11,51,1
7495,12,-256,-12,-10,50,1
7500,16,-257,-10,-11,51,1
7505,12,-254,-9,-10,51,-3
7510,13,-257,-10,-9,52,-2
7515,13,-255,-14,-10,52,-3
7520,14,-257,-12,-9,54,-2
7525,16,-257,-8,-9,56,-4
7530,16,-256,-8,-9,56,-1
7535,13,-257,-6,-8,56,0
7540,15,-258,-11,-9,57,-1
7545,15,-255,-8,-9,58,1
7550,11,-256,-15,-8,56,0
7555,13,-254,-13,-6,55,-1
7560,16,-256,-11,-5,54,-1
7565,9,-253,-13,-5,53,-3
7570,17,-254,-9,-6,52,-3
7575,14,-254,-8,-4,53,-3
7580,14,-255,-12,-3,54,-3
7585,13,-254,-10,-4,55,-4
7590,12,-257,-6,-3,55,-3
7595,12,-255,-9,-3,57,-3
7600,12,-257,-11,-3,60,-5
7605,11,-254,-12,-4,61,-5
7610,13,-255,-10,-4,61,-4
7615,12,-254,-14,-5,60,-3
7620,11,-251,-11,-7,61,-2
7625,14,-255,-7,-8,61,-1
7630,13,-253,-13,-9,62,-2
7635,11,-255,-9,-11,61,0
7640,16,-254,-12,-12,61,-1
7645,13,-260,-12,-11,60,0
7650,17,-257,-10,-11,60,0
7655,14,-258,-11,-9,58,3
7660,15,-258,-9,-8,58,5
7665,16,-259,-11,-5,56,7
7670,14,-258,-15,-4,55,9
7675,12,-260,-5,1,56,10
7680,13,-257,-8,4,54,8
7685,13,-258,-11,7,54,8
7690,12,-256,-10,9,52,5
7695,11,-254,-13,12,52,4
7700,13,-254,-10,13,54,0
7705,11,-253,-12,10,54,3
7710,12,-254,-10,8,56,5
7715,13,-256,-13,5,57,8
7720,14,-257,-12,6,57,11
7725,15,-258,-8,8,59,18
7730,14,-259,-8,12,61,23
7735,13,-262,-13,16,63,32
7740,13,-263,-12,22,65,36
7745,13,-263,-7,27,68,46
7750,12,-265,-7,33,70,52
7755,12,-267,1,41,72,64
7760,15,-270,2,48,74,71
7765,11,-268,9,47,73,84
7770,17,-266,8,34,67,90
7775,18,-263,10,6,56,98
7780,18,-261,3,-45,48,105
7785,19,-260,2,-118,37,112
7790,15,-252,-9,-202,25,110
7795,13,-251,-16,-292,7,107
7800,15,-245,-22,-383,-12,96
7805,13,-238,-21,-473,-33,85
7810,10,-229,-32,-577,-64,75
7815,12,-222,-35,-659,-86,72
7820,12,-212,-39,-744,-102,66
7825,15,-200,-43,-841,-124,59
7830,15,-190,-46,-951,-155,53
7835,11,-183,-46,-1076,-195,52
7840,14,-177,-45,-1212,-241,51
7845,11,-178,-42,-1360,-283,62
7850,13,-183,-44,-1501,-331,72
7855,17,-199,-49,-1613,-380,93
7860,15,-217,-56,-1677,-410,99
7865,16,-246,-56,-1658,-418,97
7870,11,-277,-54,-1573,-397,77
7875,7,-301,-51,-1423,-355,55
7880,1,-313,-46,-1232,-297,32
7885,-2,-320,-43,-1015,-238,19
7890,-3,-319,-45,-790,-180,13
7895,-6,-307,-46,-568,-118,23
7900,-9,-302,-43,-356,-57,35
7905,-8,-292,-31,-174,-1,58
7910,-6,-278,-28,-10,23,74
7915,-8,-265,-27,78,25,93
7920,-6,-256,-25,135,8,105
7925,-4,-246,-29,167,-15,121
7930,0,-239,-35,174,-39,127
7935,1,-235,-39,153,-65,135
7940,4,-236,-35,110,-93,135
7945,7,-232,-34,57,-118,130
7950,11,-235,-32,0,-141,113
7955,10,-238,-26,-57,-167,95
7960,9,-237,-29,-116,-186,81
7965,10,-241,-28,-153,-207,79
7970,8,-244,-24,-178,-230,76
7975,9,-245,-23,-189,-253,78
7980,8,-241,-24,-198,-274,75
7985,6,-242,-24,-203,-294,74
7990,3,-241,-23,-213,-307,69
7995,-1,-239,-25,-229,-315,68
8000,-3,-235,-22,-261,-305,67
8005,-3,-237,-17,-305,-285,67
8010,-3,-235,-15,-371,-263,61
8015,-3,-240,-14,-422,-246,60
8020,-5,-241,-2,-473,-237,55
8025,-6,-239,1,-525,-231,56
8030,-7,-244,9,-575,-232,52
8035,-9,-245,14,-624,-234,54
8040,-7,-241,22,-669,-238,51
8045,-9,-241,25,-707,-246,48
8050,-9,-236,23,-738,-260,41
8055,-11,-235,23,-760,-281,36
8060,-7,-231,11,-782,-299,34
8065,-7,-232,5,-800,-314,39
8070,-8,-232,-5,-818,-327,44
8075,-5,-233,-16,-835,-335,53
8080,-3,-236,-21,-848,-342,57
8085,-5,-235,-34,-860,-345,64
8090,-4,-238,-36,-871,-345,68
8095,-5,-240,-44,-882,-344,73
8100,-7,-239,-46,-889,-340,73
8105,-5,-246,-54,-899,-338,68
8110,-5,-244,-63,-909,-331,59
8115,0,-251,-68,-915,-316,53
8120,-2,-249,-73,-924,-294,42
8125,3,-252,-72,-931,-268,30
8130,8,-253,-77,-937,-244,16
8135,8,-251,-77,-944,-221,4
8140,16,-253,-74,-959,-201,-7
8145,20,-250,-71,-974,-182,-16
8150,18,-248,-69,-989,-159,-22
8155,18,-246,-63,-1005,-130,-29
8160,15,-244,-67,-1032,-116,-30
8165,14,-247,-67,-1044,-111,-22
8170,13,-249,-67,-1037,-119,-9
8175,14,-252,-76,-1009,-138,13
8180,10,-261,-79,-953,-161,41
8185,6,-265,-90,-881,-192,73
8190,-2,-266,-101,-800,-230,106
8195,-12,-262,-109,-729,-266,140
8200,-15,-259,-117,-673,-300,173
8205,-21,-254,-133,-633,-322,201
8210,-29,-241,-145,-601,-325,208
8215,-40,-226,-159,-608,-321,203
8220,-64,-201,-168,-636,-317,193
8225,-71,-191,-170,-705,-340,186
8230,-75,-194,-176,-784,-378,193
8235,-74,-205,-162,-845,-406,213
8240,-60,-217,-148,-889,-417,247
8245,-39,-243,-117,-927,-416,295
8250,-8,-263,-98,-957,-404,348
8255,16,-283,-80,-986,-385,387
8260,47,-296,-87,-1017,-376,392
8265,62,-313,-93,-1061,-360,371
8270,71,-317,-107,-1110,-312,331
8275,74,-321,-115,-1141,-236,289
8280,72,-322,-123,-1144,-141,264
8285,53,-327,-135,-1138,-35,244
8290,32,-330,-138,-1125,60,229
8295,1,-336,-149,-1107,132,211
8300,-23,-334,-156,-1091,178,203
8305,-42,-335,-162,-1074,195,191
8310,-50,-334,-172,-1043,167,185
8315,-57,-333,-181,-1022,114,176
8320,-50,-334,-193,-994,43,178
8325,-38,-335,-203,-972,-25,179
8330,-34,-326,-195,-977,-75,170
8335,-22,-310,-197,-997,-102,158
8340,-9,-292,-186,-1042,-104,156
8345,-5,-280,-182,-1114,-90,155
8350,4,-279,-178,-1198,-55,161
8355,5,-277,-181,-1286,-7,160
8360,0,-276,-181,-1368,34,161
8365,-7,-277,-186,-1400,71,156
8370,-12,-281,-195,-1405,111,156
8375,-28,-279,-195,-1376,149,154
8380,-38,-278,-194,-1330,185,161
8385,-44,-268,-191,-1269,214,172
8390,-44,-261,-187,-1209,232,187
8395,-42,-259,-186,-1165,243,198
8400,-40,-254,-184,-1138,253,212
8405,-34,-252,-194,-1117,252,214
8410,-31,-242,-194,-1094,249,213
8415,-28,-234,-209,-1107,250,205
8420,-28,-227,-214,-1111,267,201
8425,-28,-226,-218,-1127,298,194
8430,-26,-235,-218,-1136,333,200
8435,-34,-239,-217,-1124,360,200
8440,-35,-247,-212,-1102,375,206
8445,-44,-245,-206,-1072,377,206
8450,-47,-240,-205,-1036,369,211
8455,-52,-248,-199,-1001,352,210
8460,-50,-251,-201,-959,342,208
8465,-49,-257,-201,-924,333,201
8470,-42,-259,-204,-892,327,194
8475,-40,-260,-201,-856,320,182
8480,-45,-250,-208,-813,310,178
8485,-42,-246,-207,-780,301,171
8490,-41,-247,-208,-761,294,171
8495,-38,-242,-212,-754,283,167
8500,-34,-246,-222,-758,281,170
8505,-31,-241,-220,-744,290,174
8510,-29,-238,-226,-727,306,189
8515,-19,-239,-230,-709,327,196
8520,-17,-237,-233,-684,349,205
8525,-21,-236,-226,-656,371,202
8530,-16,-237,-223,-615,389,196
8535,-17,-237,-230,-574,404,178
8540,-13,-230,-228,-531,425,161
8545,-19,-228,-229,-493,444,137
8550,-23,-224,-229,-464,464,120
8555,-19,-218,-230,-447,477,101
8560,-22,-211,-230,-445,492,95
8565,-24,-209,-222,-447,500,87
8570,-22,-203,-214,-453,498,82
8575,-24,-199,-211,-464,488,70
8580,-14,-200,-213,-476,467,59
8585,-13,-200,-209,-493,445,43
8590,-8,-201,-209,-510,425,35
8595,-7,-202,-204,-529,407,21
8600,-2,-207,-201,-549,389,6
8605,6,-210,-200,-564,368,-24
8610,7,-206,-199,-577,355,-47
8615,10,-205,-199,-585,346,-75
8620,11,-203,-197,-596,340,-92
8625,16,-199,-201,-615,334,-109
8630,16,-199,-195,-643,326,-116
8635,20,-200,-205,-671,310,-123
8640,18,-201,-205,-696,285,-128
8645,21,-206,-219,-722,254,-138
8650,18,-202,-221,-737,232,-147
8655,16,-200,-227,-739,222,-167
8660,9,-197,-225,-741,226,-180
8665,1,-194,-230,-747,230,-197
8670,-2,-192,-232,-763,249,-205
8675,-11,-189,-229,-788,274,-213
8680,-13,-191,-228,-805,305,-212
8685,-19,-196,-232,-816,335,-211
8690,-21,-200,-225,-811,362,-207
8695,-24,-202,-225,-798,382,-203
8700,-20,-204,-221,-764,384,-202
8705,-20,-206,-215,-704,373,-203
8710,-14,-203,-227,-637,355,-198
8715,-13,-200,-222,-573,337,-200
8720,-10,-201,-218,-509,319,-195
8725,-8,-196,-224,-455,302,-195
8730,1,-196,-224,-415,295,-194
8735,-1,-195,-224,-387,290,-199
8740,-1,-193,-218,-353,284,-201
8745,2,-196,-214,-306,278,-199
8750,5,-194,-214,-250,282,-190
8755,12,-190,-207,-181,291,-187
8760,13,-187,-201,-130,297,-186
8765,15,-183,-202,-89,300,-188
8770,20,-176,-198,-59,298,-184
8775,9,-174,-195,-37,295,-179
8780,10,-170,-191,-8,295,-163
8785,9,-171,-188,27,306,-146
8790,9,-172,-185,66,316,-125
8795,4,-167,-183,110,320,-105
8800,6,-170,-181,153,322,-80
8805,6,-172,-184,198,320,-62
8810,12,-176,-183,234,314,-41
8815,16,-177,-180,268,307,-29
8820,18,-179,-180,296,298,-24
8825,19,-187,-182,313,283,-27
8830,21,-189,-181,323,260,-38
8835,20,-194,-175,328,236,-53
8840,18,-199,-170,342,210,-63
8845,14,-206,-167,358,179,-77
8850,15,-209,-169,378,145,-93
8855,10,-209,-168,415,109,-98
8860,11,-213,-163,460,86,-96
8865,13,-215,-167,519,76,-84
8870,16,-211,-167,583,79,-68
8875,17,-213,-168,649,102,-44
8880,18,-209,-165,715,138,-20
8885,18,-212,-165,776,182,3
8890,18,-208,-153,836,219,18
8895,21,-210,-155,891,244,28
8900,23,-212,-147,944,256,34
8905,21,-205,-142,1004,255,38
8910,21,-202,-134,1053,247,41
8915,19,-196,-130,1096,239,48
8920,18,-194,-127,1134,231,53
8925,19,-193,-121,1166,229,56
8930,20,-189,-113,1193,234,57
8935,19,-185,-105,1216,244,57
8940,22,-182,-98,1235,254,53
8945,23,-177,-90,1260,257,49
8950,20,-174,-90,1279,249,38
8955,18,-168,-90,1294,226,33
8960,17,-166,-95,1297,199,26
8965,18,-159,-95,1295,175,25
8970,17,-153,-98,1289,163,23
8975,16,-150,-104,1278,172,25
8980,22,-145,-103,1265,195,28
8985,24,-143,-104,1255,226,32
8990,23,-135,-101,1247,257,31
8995,19,-132,-98,1239,286,34
9000,18,-130,-94,1232,312,34
9005,19,-126,-85,1233,345,37
9010,16,-122,-83,1257,373,40
9015,21,-118,-74,1302,404,45
9020,19,-114,-73,1360,435,38
9025,15,-110,-69,1420,458,30
9030,21,-99,-71,1469,472,16
9035,20,-95,-70,1494,475,9
9040,25,-89,-68,1498,479,-8
9045,25,-84,-64,1500,483,-28
9050,22,-77,-58,1527,492,-51
9055,25,-72,-57,1604,483,-63
9060,26,-57,-63,1666,470,-81
9065,26,-43,-73,1713,458,-102
9070,27,-28,-84,1743,456,-128
9075,25,-18,-93,1760,466,-138
9080,18,-4,-107,1763,487,-136
9085,9,4,-115,1738,510,-123
9090,7,10,-124,1681,537,-109
9095,-1,13,-135,1588,556,-93
9100,-7,11,-145,1470,570,-97
9105,-9,9,-160,1311,570,-107
9110,-13,-3,-169,1157,565,-118
9115,-19,-7,-176,989,546,-124
9120,-25,-25,-186,809,511,-128
9125,-29,-41,-179,629,463,-115
9130,-38,-72,-187,456,404,-101
9135,-41,-108,-189,307,339,-74
9140,-41,-135,-187,185,272,-44
9145,-38,-173,-192,94,206,-5
9150,-35,-201,-188,33,118,33
9155,-34,-229,-189,1,38,73
9160,-29,-254,-188,0,-45,112
9165,-20,-282,-186,23,-124,157
9170,-11,-301,-184,62,-199,198
9175,3,-324,-182,110,-261,239
9180,20,-340,-174,166,-301,266
9185,37,-354,-166,234,-317,287
9190,51,-365,-163,320,-299,295
9195,61,-371,-149,420,-252,298
9200,67,-372,-148,527,-173,282
9205,69,-367,-140,645,-103,266
9210,65,-356,-140,728,-35,243
9215,65,-344,-136,812,28,220
9220,61,-324,-135,910,85,191
9225,58,-301,-127,1014,129,160
9230,54,-284,-126,1120,167,121
9235,50,-264,-128,1217,194,86
9240,47,-239,-124,1294,217,47
9245,38,-206,-120,1342,235,16
9250,34,-187,-120,1362,249,-19
9255,25,-167,-114,1349,255,-38
9260,14,-148,-103,1317,254,-57
9265,10,-141,-98,1258,249,-66
9270,4,-133,-91,1178,239,-77
9275,-2,-126,-90,1079,223,-80
9280,-8,-125,-83,959,196,-83
9285,-11,-128,-81,822,164,-81
9290,-14,-131,-81,672,128,-80
9295,-15,-137,-84,510,90,-77
9300,-12,-149,-91,352,48,-73
9305,-12,-154,-93,170,20,-65
9310,-12,-165,-99,37,-2,-61
9315,-11,-177,-98,-77,-23,-51
9320,-6,-188,-109,-171,-36,-46
9325,0,-198,-113,-245,-43,-37
9330,6,-213,-118,-302,-43,-29
9335,17,-224,-123,-342,-39,-22
9340,21,-241,-127,-363,-29,-20
9345,30,-245,-132,-366,-17,-15
9350,36,-249,-135,-349,1,-14
9355,43,-257,-136,-308,17,-11
9360,47,-260,-137,-252,34,-8
9365,51,-258,-141,-190,50,1
9370,52,-260,-136,-123,65,10
9375,50,-257,-132,-58,80,24
9380,52,-252,-128,9,98,38
9385,51,-249,-125,76,118,55
9390,50,-241,-121,135,136,70
9395,45,-237,-117,187,153,87
9400,46,-235,-109,219,169,99
9405,43,-238,-101,245,184,110
9410,47,-237,-95,255,203,116
9415,42,-242,-96,256,228,121
9420,41,-249,-95,244,258,125
9425,40,-245,-91,218,288,126
9430,40,-253,-91,181,316,123
9435,39,-253,-78,136,337,122
9440,42,-246,-94,95,349,117
9445,30,-250,-92,63,355,111
9450,26,-250,-99,39,359,105
9455,21,-244,-105,23,359,103
9460,12,-248,-91,20,353,99
9465,11,-245,-90,21,349,95
9470,8,-243,-84,28,347,91
9475,4,-241,-89,32,348,88
9480,4,-238,-89,34,350,83
9485,2,-239,-90,30,350,77
9490,0,-237,-93,23,348,70
9495,2,-237,-87,13,339,62
9500,3,-234,-88,6,326,54
9505,3,-236,-94,-1,313,49
9510,4,-239,-92,-4,302,44
9515,6,-236,-93,-2,290,42
9520,8,-239,-95,0,283,42
9525,10,-238,-100,1,277,42
9530,12,-236,-97,-4,274,43
9535,12,-233,-101,-9,274,44
9540,14,-232,-102,-12,272,47
9545,15,-232,-101,-18,270,47
9550,17,-230,-98,-26,270,51
9555,17,-230,-98,-34,269,49
9560,18,-232,-95,-45,267,46
9565,19,-231,-96,-58,265,42
9570,19,-234,-98,-73,261,38
9575,21,-234,-99,-83,256,32
9580,19,-235,-96,-92,250,31
9585,21,-238,-99,-98,245,26
9590,19,-240,-103,-100,240,25
9595,19,-239,-105,-100,238,25
9600,20,-239,-105,-93,239,29
9605,19,-244,-104,-86,243,32
9610,20,-244,-109,-80,247,37
9615,23,-248,-113,-75,252,42
9620,21,-246,-105,-68,257,48
9625,21,-243,-106,-63,260,51
9630,23,-245,-108,-57,262,55
9635,24,-241,-102,-54,264,56
9640,26,-242,-101,-53,267,58
9645,22,-239,-102,-51,270,56
9650,19,-238,-100,-49,277,56
9655,22,-240,-95,-45,282,56
9660,19,-239,-94,-38,287,57
9665,22,-241,-95,-28,290,54
9670,21,-239,-93,-20,292,56
9675,19,-240,-91,-16,292,52
9680,19,-239,-90,-15,292,53
9685,18,-237,-92,-18,289,46
9690,16,-239,-93,-23,286,46
9695,19,-242,-96,-32,283,39
9700,15,-238,-99,-45,279,36
9705,13,-238,-101,-55,277,31
9710,16,-237,-102,-62,276,32
9715,17,-241,-100,-65,280,28
9720,17,-242,-103,-67,281,29
9725,15,-236,-104,-67,283,27
9730,10,-236,-105,-64,287,28
9735,11,-235,-99,-61,290,27
9740,11,-237,-100,-57,291,31
9745,11,-234,-99,-53,290,30
9750,8,-232,-95,-45,286,33
9755,11,-233,-93,-37,284,33
9760,12,-231,-96,-31,282,36
9765,13,-234,-96,-25,277,32
9770,12,-235,-92,-21,272,33
9775,11,-231,-90,-19,267,30
9780,11,-231,-92,-18,262,30
9785,12,-231,-95,-22,257,26
9790,14,-236,-89,-28,256,27
9795,13,-233,-92,-34,254,25
9800,16,-235,-91,-41,257,26
9805,17,-236,-87,-49,257,24
9810,18,-240,-88,-51,257,28
9815,17,-239,-84,-54,256,28
9820,18,-246,-84,-57,248,31
9825,18,-252,-85,-59,234,31
9830,15,-252,-83,-62,213,34
9835,15,-255,-80,-65,190,30
9840,15,-257,-84,-66,165,31
9845,12,-259,-88,-66,144,24
9850,12,-261,-90,-66,126,22
9855,12,-260,-91,-68,120,16
9860,8,-259,-93,-70,121,15
9865,11,-258,-94,-71,125,9
9870,8,-257,-94,-69,129,9
9875,7,-257,-93,-66,133,6
9880,7,-254,-94,-56,136,9
9885,6,-255,-94,-43,136,8
9890,9,-251,-93,-30,136,10
9895,7,-245,-93,-19,132,7
9900,10,-245,-86,-6,127,11
9905,10,-240,-92,1,122,11
9910,15,-242,-92,1,119,11
9915,15,-242,-91,-3,116,7
9920,13,-237,-95,-12,114,7
9925,15,-237,-96,-22,115,4
9930,16,-238,-91,-33,117,6
9935,17,-237,-95,-42,118,2
9940,18,-238,-97,-49,120,3
9945,19,-237,-93,-53,124,2
9950,18,-239,-92,-55,123,3
9955,14,-234,-90,-54,123,2
9960,14,-233,-90,-51,123,5
9965,15,-233,-90,-50,121,3
9970,16,-235,-89,-48,116,5
9975,16,-239,-83,-46,111,4
9980,14,-237,-88,-42,106,5
9985,19,-238,-85,-42,103,4
9990,15,-239,-87,-43,99,5
9995,18,-238,-87,-46,95,5
10000,16,-242,-87,-51,91,6
10005,19,-245,-88,-53,85,5
10010,17,-243,-89,-57,78,6
10015,18,-245,-91,-56,70,5
10020,18,-250,-86,-51,61,7
10025,14,-243,-89,-45,51,5
10030,13,-245,-88,-39,44,6
10035,16,-245,-91,-32,37,7
10040,13,-242,-89,-24,32,9
10045,11,-243,-90,-17,29,11
10050,15,-243,-90,-13,25,14
10055,15,-245,-94,-12,25,14
10060,16,-247,-93,-15,28,17
10065,15,-245,-94,-20,32,17
10070,16,-250,-97,-28,34,18
10075,16,-248,-95,-35,37,17
10080,16,-248,-98,-37,37,17
10085,15,-251,-98,-36,39,16
10090,18,-250,-91,-30,39,14
10095,18,-251,-95,-25,38,10
10100,13,-246,-96,-15,37,9
10105,17,-247,-96,-8,40,6
10110,15,-244,-93,-1,42,4
10115,18,-240,-93,3,46,3
10120,16,-239,-94,5,50,3
10125,17,-237,-95,6,53,0
10130,14,-238,-91,9,55,-1
10135,17,-232,-95,11,56,-1
10140,16,-235,-87,7,54,-1
10145,17,-232,-87,5,51,0
10150,18,-235,-90,3,46,0
10155,20,-238,-87,-1,41,1
10160,16,-235,-88,-2,35,3
10165,20,-239,-87,-3,30,6
10170,19,-242,-87,-2,25,6
10175,18,-242,-92,-1,20,8
10180,19,-244,-87,-1,14,7
10185,19,-245,-90,-2,8,6
10190,15,-245,-93,-1,2,5
10195,16,-244,-91,3,-4,6
10200,16,-245,-95,6,-12,4
10205,18,-249,-90,10,-18,5
10210,15,-243,-93,16,-24,5
10215,16,-245,-95,22,-30,6
10220,15,-245,-86,29,-36,4
10225,16,-243,-92,38,-38,6
10230,15,-243,-89,43,-44,4
10235,14,-245,-95,45,-47,7
10240,15,-245,-96,49,-52,6
10245,16,-244,-92,48,-54,8
10250,15,-246,-95,48,-56,8
10255,17,-244,-94,49,-57,8
10260,16,-246,-97,50,-57,7
10265,17,-246,-96,52,-55,7
10270,18,-242,-96,53,-53,6
10275,19,-244,-98,53,-49,7
10280,18,-243,-93,56,-45,3
10285,17,-239,-91,57,-42,4
10290,21,-241,-91,57,-39,0
10295,18,-240,-92,59,-37,-1
10300,15,-239,-91,62,-39,-3
10305,18,-238,-91,65,-40,-3
10310,18,-238,-88,66,-42,-6
10315,21,-238,-89,68,-41,-7
10320,19,-241,-91,68,-43,-11
10325,20,-239,-89,66,-42,-10
10330,21,-240,-86,63,-42,-11
10335,20,-240,-90,62,-40,-9
10340,19,-242,-81,60,-37,-9
10345,18,-240,-90,60,-36,-6
10350,20,-243,-84,61,-33,-6
10355,20,-244,-84,64,-31,-3
10360,20,-246,-84,69,-32,-4
10365,25,-248,-83,70,-34,-2
10370,22,-244,-86,69,-36,-3
10375,19,-244,-86,64,-39,-1
10380,21,-244,-84,58,-41,-3
10385,20,-245,-86,49,-43,-3
10390,22,-245,-91,40,-45,-7
10395,22,-244,-88,34,-44,-5
10400,20,-243,-88,28,-42,-8
10405,16,-239,-90,26,-41,-6
10410,16,-243,-87,27,-38,-9
10415,20,-245,-88,29,-35,-7
10420,18,-243,-90,31,-31,-7
10425,20,-244,-91,35,-27,-4
10430,19,-241,-84,35,-24,-5
10435,18,-244,-89,36,-19,-2
10440,17,-245,-90,35,-15,-3
10445,20,-244,-85,34,-12,-1
10450,19,-241,-87,29,-6,-3
10455,21,-242,-88,26,0,-1
10460,19,-244,-86,22,6,-4
10465,19,-242,-89,19,10,-2
10470,20,-241,-88,17,14,-4
10475,19,-243,-90,17,17,-3
10480,21,-242,-91,18,21,-5
10485,22,-242,-88,21,26,-2
10490,23,-242,-91,21,27,-4
10495,20,-239,-91,25,28,-1
10500,18,-241,-86,26,30,-3
10505,19,-241,-90,30,31,0
10510,21,-243,-91,31,30,-3
10515,20,-241,-87,32,32,0
10520,16,-243,-86,33,33,-2
10525,18,-241,-85,32,32,1
10530,16,-239,-85,32,33,0
10535,16,-242,-84,31,32,2
10540,16,-243,-86,32,32,-1
10545,19,-243,-87,30,32,4
10550,19,-242,-88,28,33,0
10555,19,-244,-86,27,33,4
10560,17,-239,-87,24,36,2
10565,18,-240,-86,19,38,5
10570,18,-241,-89,14,41,4
10575,20,-244,-83,9,41,5
10580,19,-244,-84,5,42,4
10585,22,-243,-84,3,42,8
10590,21,-245,-88,1,42,5
10595,18,-246,-85,1,41,7
10600,21,-243,-88,2,42,4
10605,16,-246,-86,4,45,8
10610,20,-244,-91,4,47,5
10615,19,-244,-87,6,48,8
10620,18,-246,-86,10,53,6
10625,19,-246,-86,12,57,6
10630,20,-244,-87,12,61,5
10635,16,-241,-87,12,65,5
10640,20,-246,-86,11,69,4
10645,19,-240,-84,9,71,5
10650,22,-244,-87,8,74,4
10655,16,-244,-88,8,74,6
10660,21,-245,-86,9,74,4
10665,19,-245,-87,11,74,7
10670,16,-241,-88,13,76,5
10675,17,-242,-85,16,75,6
10680,19,-242,-81,17,76,5
10685,17,-237,-83,19,74,5
10690,19,-242,-86,18,72,4
10695,17,-241,-83,13,70,3
10700,16,-243,-88,5,67,1
10705,20,-243,-88,-3,65,3
10710,20,-243,-85,-11,66,0
10715,19,-240,-86,-18,67,-1
10720,18,-242,-87,-29,67,-2
10725,14,-241,-89,-36,67,-1
10730,19,-247,-85,-45,68,-2
10735,18,-243,-86,-49,69,-3
10740,19,-247,-84,-48,71,0
10745,17,-248,-86,-44,72,1
10750,18,-247,-87,-34,75,0
10755,18,-244,-81,-25,77,3
10760,17,-245,-87,-16,77,2
10765,16,-244,-82,-8,76,3
10770,19,-247,-81,-4,73,4
10775,16,-246,-83,0,70,3
10780,18,-245,-80,1,70,3
10785,15,-244,-80,1,68,0
10790,17,-246,-86,0,70,2
10795,15,-243,-87,-2,73,0
10800,18,-245,-82,-4,79,0
10805,17,-246,-85,-7,83,0
10810,17,-246,-87,-9,88,0
10815,16,-245,-83,-12,92,1
10820,18,-241,-86,-12,97,1
10825,18,-244,-84,-14,97,-1
10830,21,-242,-87,-16,99,0
10835,19,-244,-88,-16,102,-2
10840,19,-246,-84,-18,103,0
10845,18,-243,-87,-17,103,-2
10850,19,-245,-87,-16,101,-1
10855,17,-243,-88,-13,100,-1
10860,15,-239,-86,-12,99,0
10865,13,-242,-86,-9,96,0
10870,16,-247,-84,-7,97,2
10875,16,-245,-85,-6,95,1
10880,15,-242,-81,-6,95,3
10885,15,-245,-81,-6,93,3
10890,15,-245,-84,-5,92,3
10895,13,-246,-81,-7,89,4
10900,15,-246,-85,-11,87,6
10905,17,-246,-88,-11,86,4
10910,14,-248,-82,-13,86,4
10915,16,-248,-83,-13,86,3
10920,13,-246,-81,-10,87,3
10925,18,-245,-82,-7,91,2
10930,13,-243,-85,-3,92,3
10935,15,-244,-83,1,96,0
10940,13,-245,-84,2,97,2
10945,12,-241,-83,2,99,0
10950,17,-240,-86,0,97,1
10955,18,-240,-84,-3,96,-1
10960,14,-241,-82,-5,93,1
10965,15,-241,-85,-7,90,-1
10970,15,-240,-84,-9,88,0
10975,17,-242,-82,-11,84,-2
10980,13,-243,-86,-14,83,0
10985,12,-243,-84,-13,81,-2
10990,14,-244,-83,-14,78,-1
10995,15,-245,-84,-15,78,-2
11000,15,-245,-90,-14,80,1
11005,14,-243,-84,-15,81,0
11010,13,-244,-85,-16,83,1
11015,16,-243,-85,-14,85,0
11020,14,-244,-86,-14,88,4
11025,18,-244,-80,-13,86,2
11030,17,-245,-85,-12,85,6
11035,16,-245,-85,-11,87,2
11040,16,-243,-80,-10,84,4
11045,17,-246,-84,-9,83,1
11050,17,-247,-82,-8,83,3
11055,16,-250,-81,-9,82,-1
11060,17,-245,-82,-7,80,2
11065,15,-247,-83,-8,78,0
11070,16,-246,-83,-6,77,1
11075,14,-245,-86,-7,77,-1
11080,14,-244,-84,-6,76,1
11085,15,-248,-89,-8,74,-1
11090,15,-244,-85,-9,74,2
11095,15,-246,-87,-8,74,-1
11100,15,-242,-86,-4,75,2
11105,13,-246,-83,-4,76,0
11110,15,-241,-89,-1,78,4
11115,15,-245,-86,1,77,2
11120,16,-245,-85,4,75,4
11125,15,-242,-83,6,74,1
11130,15,-244,-85,8,73,4
11135,18,-243,-85,9,73,2
11140,15,-245,-86,8,74,4
11145,19,-245,-84,7,75,2
11150,15,-244,-83,7,74,4
11155,16,-243,-86,7,76,1
11160,14,-245,-89,5,77,3
11165,17,-243,-83,2,77,0
11170,20,-247,-84,-1,77,1
11175,15,-246,-84,-3,78,-2
11180,19,-245,-85,-4,77,0
11185,15,-247,-85,-5,78,-1
11190,14,-246,-79,-3,79,0
11195,16,-246,-84,-2,78,-3
11200,16,-244,-89,-3,79,0
11205,15,-245,-85,-3,79,-1
11210,18,-242,-82,-4,78,0
11215,14,-240,-82,-2,76,-2
11220,15,-243,-84,-2,74,1
11225,15,-246,-83,-3,73,0
11230,17,-243,-84,-4,71,2
11235,18,-245,-80,-4,67,0
11240,16,-245,-82,-8,63,2
11245,15,-245,-87,-10,62,0
11250,13,-245,-84,-12,62,2
11255,15,-248,-84,-11,61,0
11260,16,-247,-86,-9,60,2
11265,15,-246,-87,-6,61,1
11270,16,-245,-86,-4,65,2
11275,14,-243,-86,-1,67,0
11280,17,-244,-87,1,71,0
11285,16,-241,-84,0,74,-3
11290,19,-243,-91,1,77,-2
11295,17,-239,-84,3,78,-4
11300,17,-241,-89,2,79,-2
11305,17,-237,-87,0,80,-4
11310,17,-238,-81,-4,80,-3
11315,19,-242,-84,-11,77,-3
11320,19,-238,-85,-15,75,-1
11325,18,-244,-85,-19,73,-1
11330,19,-244,-85,-21,74,1
11335,20,-243,-84,-20,73,1
11340,16,-245,-85,-20,73,1
11345,18,-249,-85,-18,74,4
11350,17,-247,-85,-11,72,5
11355,15,-247,-86,-4,69,5
11360,12,-248,-84,2,67,7
11365,17,-249,-87,8,63,6
11370,16,-249,-86,12,61,6
11375,14,-249,-86,14,59,5
11380,14,-249,-84,16,58,4
11385,14,-247,-85,17,58,4
11390,12,-246,-85,17,58,2
11395,14,-243,-88,16,57,2
11400,11,-245,-79,12,60,1
11405,16,-245,-84,6,62,0
11410,15,-244,-86,1,65,0
11415,14,-243,-86,-2,67,-1
11420,16,-243,-84,-6,68,-1
11425,15,-243,-85,-9,70,1
11430,16,-243,-88,-9,70,1
11435,15,-245,-87,-9,71,2
11440,15,-243,-86,-7,72,2
11445,18,-243,-85,-4,72,3
11450,16,-240,-87,0,69,3
11455,16,-241,-86,2,68,4
11460,17,-241,-85,4,66,4
11465,18,-239,-84,3,65,4
11470,16,-242,-85,4,63,4
11475,17,-245,-84,4,63,5
11480,18,-244,-81,4,62,5
11485,16,-245,-84,4,59,7
11490,14,-244,-83,6,57,6
11495,16,-245,-85,8,54,8
11500,16,-248,-79,10,52,6
11505,17,-247,-79,9,50,6
11510,15,-247,-82,11,51,5
11515,14,-246,-84,12,51,6
11520,14,-245,-83,13,52,4
11525,16,-246,-86,18,51,6
11530,15,-245,-83,18,52,3
11535,15,-241,-87,16,52,5
11540,16,-246,-85,15,51,2
11545,17,-244,-82,12,51,3
11550,15,-245,-82,9,51,1
11555,11,-244,-81,7,49,0
11560,15,-243,-82,7,47,-2
11565,14,-244,-84,5,47,0
11570,14,-243,-80,3,46,-2
11575,19,-247,-84,2,45,1
11580,11,-246,-85,4,45,-2
11585,15,-245,-83,1,47,1
11590,18,-245,-85,2,49,0
11595,12,-245,-82,5,49,2
11600,14,-245,-81,6,48,1
11605,18,-248,-80,7,49,3
11610,16,-246,-84,9,49,2
11615,18,-246,-85,11,47,4
11620,15,-245,-80,13,48,2
11625,15,-244,-82,14,47,4
11630,14,-244,-84,15,46,2
11635,17,-247,-82,16,44,3
11640,14,-244,-80,18,46,1
11645,17,-245,-86,19,46,3
11650,15,-246,-84,19,46,-1
11655,17,-244,-77,19,47,0
11660,16,-246,-82,18,47,-1
11665,16,-248,-81,18,46,0
11670,13,-245,-84,16,47,-2
11675,17,-246,-84,15,47,1
11680,15,-245,-82,14,45,-2
11685,17,-247,-82,12,44,0
11690,16,-245,-83,12,44,-4
11695,15,-246,-87,8,43,-1
11700,15,-244,-82,8,42,-5
11705,17,-248,-83,8,43,-2
11710,16,-244,-83,9,44,-4
11715,18,-248,-82,9,45,-2
11720,16,-246,-81,12,47,-3
11725,19,-244,-79,15,46,0
11730,18,-244,-80,17,48,0
11735,18,-246,-79,20,50,1
11740,17,-243,-80,21,53,0
11745,15,-245,-84,22,57,1
11750,16,-246,-80,21,59,0
11755,13,-245,-86,23,61,3
11760,16,-247,-81,22,62,-1
11765,19,-248,-79,21,65,3
11770,16,-242,-78,21,63,0
11775,18,-243,-82,19,63,2
11780,19,-241,-78,16,62,1
11785,16,-246,-82,16,61,3
11790,18,-245,-78,15,60,1
11795,16,-247,-84,15,61,3
11800,14,-244,-79,15,60,1
11805,14,-245,-80,14,58,4
11810,17,-245,-83,15,58,3
11815,18,-238,-85,15,57,4
11820,11,-239,-91,14,57,1
11825,22,-242,-90,13,58,3
11830,13,-248,-84,11,58,1
11835,6,-238,-104,10,62,3
11840,21,-243,-75,11,62,-1
11845,15,-245,-79,12,63,2
11850,34,-248,-83,12,62,-1
11855,15,-247,-78,15,60,0
11860,15,-247,-80,15,61,-3
11865,17,-248,-79,13,61,-2
11870,17,-244,-80,7,63,-4
11875,16,-244,-76,2,63,-1
11880,15,-243,-79,-1,65,-3
11885,17,-246,-82,-1,66,-2
11890,15,-241,-83,-2,67,-3
11895,16,-242,-83,-2,68,-1
11900,12,-241,-78,-7,70,-2
11905,16,-241,-83,-12,69,2
11910,20,-244,-86,-15,69,0
11915,17,-244,-81,-15,69,1
11920,19,-245,-83,-15,69,0
11925,18,-243,-83,-15,70,3
11930,18,-243,-84,-14,72,4
11935,17,-245,-77,-10,72,6
11940,18,-246,-79,-8,72,7
11945,18,-247,-80,-3,68,8
11950,15,-247,-79,1,65,8
11955,14,-247,-77,5,64,11
11960,18,-250,-76,6,63,9
11965,17,-247,-79,8,62,10
11970,16,-247,-76,9,61,7
11975,17,-245,-79,10,62,9
11980,17,-246,-79,9,63,7
11985,16,-249,-79,6,65,7
11990,17,-245,-83,1,66,5
11995,16,-241,-78,-1,69,5
