timestamp,acc_x,acc_y,acc_z,gyro_x,gyro_y,gyro_z
0,18,-250,12,78,-107,16
5,18,-249,12,77,-98,12
10,16,-247,11,76,-90,10
15,14,-248,13,77,-82,5
20,14,-252,13,76,-77,3
25,17,-247,13,76,-68,1
30,18,-250,17,77,-61,-1
35,17,-247,14,79,-52,-1
40,15,-247,11,81,-44,-2
45,17,-249,11,84,-40,-3
50,18,-250,12,83,-36,-2
55,18,-249,14,83,-31,-2
60,16,-249,12,81,-24,-2
65,17,-247,10,79,-19,-1
70,18,-246,24,78,-15,-3
75,17,-250,14,77,-9,-1
80,19,-248,14,76,-4,0
85,16,-253,13,76,0,-2
90,16,-249,11,77,6,-3
95,16,-249,16,77,9,-6
100,17,-249,9,79,14,-7
105,18,-247,16,82,17,-8
110,18,-250,12,83,19,-8
115,16,-249,17,86,23,-7
120,16,-246,14,88,27,-8
125,15,-248,15,90,32,-8
130,13,-247,13,91,37,-8
135,15,-247,15,94,41,-9
140,16,-247,16,94,46,-10
145,15,-247,10,93,52,-11
150,15,-247,13,92,59,-13
155,13,-244,13,90,64,-13
160,13,-247,12,86,67,-14
165,12,-246,11,81,70,-12
170,15,-247,15,75,75,-13
175,14,-247,10,68,76,-14
180,10,-245,14,62,76,-14
185,12,-248,18,56,78,-15
190,9,-244,14,54,79,-16
195,8,-247,14,51,80,-16
200,11,-246,15,50,78,-16
205,13,-250,18,49,78,-18
210,12,-248,16,50,78,-18
215,12,-247,11,50,76,-16
220,14,-246,16,50,75,-17
225,12,-248,17,50,73,-16
230,12,-245,16,51,73,-16
235,11,-246,15,49,73,-15
240,11,-247,11,47,71,-14
245,10,-249,14,43,70,-12
250,13,-249,9,37,68,-11
255,10,-248,13,30,67,-13
260,10,-245,11,26,65,-12
265,10,-247,14,22,65,-11
270,9,-249,14,18,63,-10
275,11,-251,8,16,63,-12
280,12,-250,13,14,61,-12
285,10,-247,12,14,60,-13
290,11,-247,17,14,61,-11
295,12,-252,15,17,58,-11
300,7,-251,11,21,57,-11
305,9,-250,13,29,53,-11
310,11,-248,12,34,50,-13
315,11,-253,12,40,48,-12
320,12,-250,16,45,44,-10
325,10,-248,12,49,41,-11
330,12,-248,15,53,37,-13
335,11,-248,12,54,35,-14
340,11,-247,16,54,35,-13
345,12,-248,13,50,34,-14
350,10,-249,13,46,35,-14
355,14,-249,13,42,36,-16
360,12,-245,12,36,35,-17
365,12,-248,11,29,34,-19
370,10,-246,11,23,34,-21
375,11,-247,12,16,33,-22
380,12,-247,11,10,30,-23
385,10,-246,11,6,30,-22
390,9,-245,13,0,30,-23
395,12,-247,13,-3,32,-20
400,17,-248,12,-7,34,-19
405,12,-244,10,-10,34,-20
410,12,-245,10,-14,35,-19
415,13,-245,10,-17,37,-19
420,11,-248,11,-20,38,-19
425,11,-249,10,-24,38,-20
430,11,-248,10,-23,38,-19
435,11,-248,12,-22,37,-19
440,11,-247,14,-19,35,-19
445,8,-250,9,-17,30,-17
450,11,-248,10,-14,27,-16
455,11,-252,11,-9,23,-16
460,16,-249,14,-5,21,-16
465,12,-249,14,0,21,-15
470,10,-246,15,5,20,-16
475,12,-246,10,8,23,-18
480,13,-245,10,10,25,-18
485,12,-245,9,10,28,-18
490,14,-246,6,8,29,-18
495,14,-243,11,3,27,-18
500,29,-249,4,-3,28,-18
505,12,-243,8,-11,26,-19
510,10,-247,10,-21,24,-19
515,9,-247,12,-30,23,-18
520,9,-247,10,-39,16,-19
525,11,-247,9,-43,14,-18
530,9,-248,10,-41,11,-17
535,10,-249,11,-35,6,-17
540,12,-251,8,-28,2,-15
545,8,-251,11,-17,-1,-16
550,30,-256,21,-6,-2,-14
555,9,-248,10,3,-4,-14
560,10,-248,8,11,-5,-13
565,10,-248,5,17,-7,-12
570,14,-248,6,19,-8,-11
575,13,-248,5,20,-9,-10
580,11,-250,8,16,-11,-10
585,9,-246,6,10,-13,-7
590,8,-248,8,1,-12,-8
595,10,-250,3,-8,-14,-7
600,12,-251,8,-15,-15,-7
605,11,-251,2,-24,-13,-6
610,12,-251,7,-28,-12,-7
615,14,-249,7,-29,-11,-11
620,9,-250,8,-27,-8,-10
625,8,-251,8,-19,-6,-9
630,12,-248,6,-9,-3,-10
635,11,-251,9,6,0,-9
640,12,-250,8,22,3,-9
645,10,-247,6,38,3,-9
650,10,-248,9,51,2,-11
655,11,-249,7,61,2,-11
660,16,-248,9,69,-1,-8
665,12,-247,8,74,-4,-8
670,12,-248,9,73,-6,-6
675,11,-243,8,68,-9,-6
680,12,-247,7,60,-11,-6
685,15,-248,6,51,-11,-4
690,10,-244,8,41,-12,-4
695,10,-246,8,29,-12,-5
700,10,-246,6,19,-10,-3
705,11,-248,7,9,-9,-4
710,12,-249,6,-1,-5,-3
715,8,-248,7,-4,-3,-3
720,10,-249,6,-6,0,-4
725,9,-247,6,-7,5,-6
730,11,-249,7,-7,8,-6
735,8,-248,6,-4,9,-6
740,11,-246,5,2,11,-6
745,12,-250,9,11,13,-7
750,11,-252,4,19,12,-8
755,8,-251,4,25,13,-10
760,11,-250,7,31,12,-11
765,12,-247,8,37,8,-11
770,10,-246,2,41,9,-10
775,12,-246,3,42,7,-9
780,11,-247,1,43,4,-9
785,12,-248,5,41,4,-10
790,12,-249,4,40,3,-8
795,11,-248,9,38,4,-6
800,10,-248,6,34,6,-5
805,13,-249,9,32,7,-5
810,14,-248,6,30,7,-6
815,11,-249,5,28,7,-6
820,13,-249,4,28,8,-7
825,13,-251,5,27,9,-7
830,11,-248,11,24,10,-5
835,13,-249,5,20,10,-6
840,11,-249,6,18,10,-6
845,13,-249,5,16,11,-6
850,12,-251,4,13,10,-6
855,9,-248,9,11,10,-7
860,13,-250,7,10,10,-7
865,8,-244,8,10,10,-9
870,14,-249,7,10,10,-10
875,13,-249,4,11,11,-8
880,12,-247,4,13,13,-10
885,15,-249,7,15,14,-9
890,10,-247,2,18,16,-10
895,11,-252,4,21,18,-10
900,11,-250,6,23,19,-12
905,10,-246,3,28,20,-9
910,9,-248,5,29,20,-9
915,13,-247,4,29,20,-9
920,12,-250,3,30,19,-8
925,10,-248,4,29,18,-7
930,9,-247,4,25,17,-8
935,13,-248,3,22,16,-9
940,11,-243,3,20,13,-9
945,10,-248,3,17,12,-9
950,13,-249,6,16,11,-10
955,13,-248,5,16,12,-11
960,11,-248,1,19,12,-11
965,10,-247,3,20,13,-9
970,13,-246,7,21,13,-11
975,14,-250,4,24,13,-9
980,15,-246,-4,27,16,-9
985,12,-248,5,28,16,-9
990,12,-247,4,30,15,-10
995,13,-247,4,30,16,-12
1000,13,-251,6,29,16,-11
1005,14,-250,4,28,15,-9
1010,10,-248,7,27,15,-11
1015,11,-249,4,27,16,-12
1020,14,-246,2,25,17,-11
1025,14,-250,3,25,19,-11
1030,17,-242,1,24,18,-14
1035,14,-248,5,22,19,-13
1040,11,-249,2,22,20,-13
1045,13,-248,4,20,21,-14
1050,12,-246,3,20,22,-13
1055,11,-245,2,23,21,-13
1060,17,-250,2,25,22,-14
1065,10,-250,3,26,21,-16
1070,15,-250,3,30,20,-14
1075,11,-251,7,35,19,-15
1080,10,-248,2,38,17,-14
1085,14,-250,5,43,15,-13
1090,15,-247,3,47,14,-14
1095,12,-248,3,47,13,-12
1100,10,-247,7,49,13,-12
1105,10,-244,3,47,11,-12
1110,11,-248,3,45,11,-12
1115,12,-249,7,44,11,-10
1120,11,-247,7,42,12,-10
1125,13,-252,5,42,13,-10
1130,12,-248,2,42,13,-10
1135,11,-246,3,42,14,-12
1140,12,-247,7,44,14,-11
1145,11,-249,2,46,15,-12
1150,12,-245,5,46,14,-11
1155,14,-248,2,49,13,-12
1160,12,-246,4,52,13,-12
1165,13,-247,5,52,13,-13
1170,13,-249,5,53,12,-11
1175,11,-249,4,52,14,-12
1180,14,-247,2,52,13,-11
1185,12,-250,5,50,11,-12
1190,13,-250,2,49,11,-10
1195,12,-247,4,47,10,-10
1200,13,-248,2,44,10,-11
1205,11,-248,3,42,9,-12
1210,13,-248,3,40,8,-8
1215,12,-247,3,38,8,-10
1220,9,-245,2,38,8,-10
1225,13,-250,4,38,7,-12
1230,15,-251,7,40,9,-11
1235,12,-249,6,43,8,-11
1240,12,-248,3,45,9,-14
1245,11,-248,5,49,9,-13
1250,15,-252,2,53,10,-15
1255,12,-249,6,56,10,-14
1260,15,-248,4,59,11,-15
1265,10,-248,4,62,13,-16
1270,13,-250,2,62,13,-17
1275,14,-248,5,61,13,-16
1280,9,-244,5,62,13,-14
1285,11,-251,3,62,13,-14
1290,13,-246,3,59,13,-14
1295,11,-250,2,59,14,-14
1300,13,-247,1,59,14,-16
1305,12,-248,2,58,14,-15
1310,12,-246,2,58,12,-13
1315,12,-247,5,60,12,-12
1320,12,-247,5,60,11,-13
1325,11,-245,3,59,9,-12
1330,13,-248,1,58,8,-13
1335,11,-248,5,59,6,-13
1340,15,-251,6,58,7,-13
1345,10,-246,1,58,7,-11
1350,11,-247,1,59,7,-11
1355,11,-249,3,56,7,-11
1360,11,-245,0,53,9,-11
1365,13,-250,1,53,11,-12
1370,9,-251,3,55,13,-12
1375,12,-250,4,59,15,-13
1380,12,-248,2,65,18,-15
1385,12,-251,0,68,20,-16
1390,12,-250,1,70,20,-16
1395,12,-249,3,70,21,-16
1400,11,-248,3,69,20,-13
1405,13,-251,2,68,19,-14
1410,13,-249,3,65,17,-15
1415,11,-249,3,61,14,-14
1420,11,-246,4,60,12,-12
1425,12,-248,5,60,9,-13
1430,11,-248,5,63,6,-11
1435,13,-249,4,70,4,-11
1440,10,-251,4,77,3,-11
1445,13,-246,3,82,3,-12
1450,12,-247,6,84,2,-13
1455,11,-248,4,83,4,-12
1460,12,-244,4,79,5,-12
1465,9,-246,3,71,6,-11
1470,13,-243,3,64,8,-12
1475,9,-249,4,56,8,-11
1480,12,-246,7,50,8,-13
1485,11,-249,7,45,6,-12
1490,14,-249,6,42,3,-13
1495,12,-250,2,41,1,-13
1500,9,-250,6,42,-2,-11
1505,11,-248,4,48,-2,-11
1510,13,-248,6,53,-3,-12
1515,13,-251,1,59,-2,-9
1520,11,-249,5,68,-1,-11
1525,9,-250,2,78,1,-11
1530,10,-250,9,85,5,-9
1535,13,-250,1,91,8,-10
1540,11,-251,6,96,12,-11
1545,13,-248,5,99,13,-9
1550,16,-246,2,99,15,-12
1555,13,-245,2,99,16,-11
1560,14,-249,5,95,16,-11
1565,13,-244,6,90,15,-12
1570,12,-247,6,84,13,-10
1575,10,-248,4,79,10,-11
1580,12,-247,5,74,7,-11
1585,15,-250,3,70,5,-11
1590,12,-249,5,66,4,-9
1595,14,-250,8,63,3,-10
1600,13,-249,4,63,1,-8
1605,14,-247,4,64,2,-10
1610,11,-250,5,67,3,-9
1615,11,-250,2,70,4,-9
1620,8,-249,4,74,7,-9
1625,10,-247,7,77,9,-11
1630,13,-249,2,81,12,-11
1635,12,-249,7,85,15,-12
1640,10,-247,5,86,17,-12
1645,12,-248,4,88,19,-13
1650,11,-248,6,90,18,-13
1655,14,-249,7,90,17,-14
1660,10,-246,7,91,15,-13
1665,11,-248,9,91,16,-12
1670,11,-248,3,92,17,-12
1675,13,-247,5,92,14,-12
1680,9,-247,2,90,13,-11
1685,11,-247,5,88,12,-12
1690,11,-248,5,87,13,-11
1695,14,-248,4,84,11,-12
1700,12,-247,4,83,11,-11
1705,12,-249,7,83,12,-10
1710,11,-251,1,82,12,-9
1715,9,-247,4,83,11,-11
1720,13,-248,2,85,11,-10
1725,12,-249,10,88,11,-9
1730,13,-250,7,93,12,-12
1735,11,-248,5,96,13,-9
1740,9,-247,8,98,15,-11
1745,12,-250,5,99,16,-11
1750,9,-244,2,97,16,-12
1755,12,-247,3,95,15,-12
1760,13,-244,6,92,16,-12
1765,13,-248,3,87,17,-12
1770,9,-247,3,81,15,-15
1775,11,-247,6,76,15,-14
1780,12,-249,3,71,13,-15
1785,14,-250,3,66,12,-14
1790,6,-247,4,63,12,-14
1795,13,-248,6,63,11,-12
1800,10,-250,6,63,12,-11
1805,9,-248,7,63,12,-11
1810,14,-249,10,65,11,-12
1815,11,-251,8,68,13,-12
1820,10,-250,6,71,15,-11
1825,13,-249,5,75,16,-12
1830,11,-249,9,78,17,-12
1835,14,-247,8,81,19,-13
1840,10,-248,5,81,21,-15
1845,13,-248,5,81,18,-13
1850,13,-250,9,78,18,-13
1855,12,-248,5,74,17,-13
1860,11,-248,4,71,16,-16
1865,13,-248,5,65,16,-16
1870,12,-247,2,59,15,-16
1875,14,-248,9,57,15,-15
1880,12,-245,5,54,14,-16
1885,16,-246,4,52,13,-16
1890,10,-247,4,54,13,-13
1895,12,-249,8,55,12,-14
1900,13,-247,7,58,13,-16
1905,9,-247,7,60,11,-13
1910,10,-248,9,63,11,-13
1915,9,-251,4,65,12,-14
1920,9,-249,2,66,12,-13
1925,12,-250,8,66,13,-13
1930,13,-247,6,66,13,-13
1935,11,-251,5,64,15,-12
1940,12,-250,7,65,16,-12
1945,12,-252,5,64,15,-14
1950,13,-250,7,65,16,-14
1955,9,-250,5,66,17,-13
1960,11,-247,6,67,16,-15
1965,10,-249,7,68,16,-16
1970,16,-249,8,72,15,-16
1975,9,-249,5,76,15,-16
1980,13,-248,6,78,14,-14
1985,12,-250,8,80,13,-15
1990,13,-248,5,83,12,-13
1995,10,-246,6,85,11,-13
2000,11,-248,9,86,11,-13
2005,11,-243,3,84,12,-12
2010,12,-250,8,82,12,-13
2015,11,-249,8,79,12,-13
2020,13,-249,9,75,11,-11
2025,12,-249,8,71,12,-11
2030,12,-247,10,69,12,-11
2035,11,-250,10,68,11,-14
2040,13,-249,3,65,11,-13
2045,11,-249,5,65,12,-13
2050,12,-247,8,65,12,-14
2055,13,-249,7,69,13,-13
2060,10,-250,8,74,14,-15
2065,13,-248,8,77,13,-15
2070,13,-250,12,81,14,-12
2075,12,-247,10,82,15,-12
2080,8,-248,12,81,15,-12
2085,11,-252,9,82,14,-12
2090,9,-246,8,80,16,-11
2095,14,-249,7,76,15,-11
2100,13,-246,4,75,14,-11
2105,10,-246,8,72,15,-10
2110,12,-246,7,72,14,-11
2115,12,-248,11,71,13,-12
2120,15,-250,4,70,14,-11
2125,11,-248,8,68,14,-13
2130,13,-247,6,68,12,-13
2135,9,-246,8,69,12,-14
2140,13,-253,7,70,11,-12
2145,12,-248,8,71,13,-12
2150,12,-248,7,70,13,-14
2155,12,-247,8,71,12,-15
2160,15,-251,11,71,13,-13
2165,12,-253,10,72,12,-11
2170,13,-247,7,75,13,-13
2175,12,-247,6,77,13,-13
2180,11,-250,5,80,13,-14
2185,11,-250,8,81,11,-14
2190,13,-250,10,82,12,-12
2195,12,-247,7,83,11,-13
2200,11,-249,7,85,10,-12
2205,13,-248,7,87,9,-12
2210,13,-245,9,87,10,-11
2215,13,-248,12,87,11,-10
2220,15,-248,4,89,12,-11
2225,14,-249,6,89,12,-13
2230,12,-245,8,89,12,-11
2235,13,-244,6,88,12,-12
2240,11,-248,7,88,13,-13
2245,12,-248,5,88,14,-13
2250,13,-247,13,87,14,-12
2255,14,-246,6,84,15,-12
2260,12,-249,12,83,14,-13
2265,16,-248,14,77,14,-13
2270,13,-246,10,75,13,-10
2275,13,-246,7,72,10,-11
2280,11,-250,8,70,10,-11
2285,14,-248,7,70,10,-11
2290,15,-248,13,70,8,-9
2295,8,-246,9,69,9,-10
2300,13,-248,7,70,12,-10
2305,11,-248,5,71,14,-10
2310,14,-252,26,73,16,-9
2315,11,-250,10,76,19,-10
2320,13,-250,11,78,22,-13
2325,13,-250,10,79,24,-11
2330,11,-247,11,78,27,-12
2335,14,-250,6,76,27,-13
2340,13,-248,9,75,29,-15
2345,12,-249,10,75,27,-14
2350,12,-250,8,72,26,-15
2355,12,-249,9,72,25,-15
2360,9,-250,9,72,22,-14
2365,13,-249,6,70,20,-14
2370,11,-250,11,71,18,-15
2375,10,-250,5,73,18,-14
2380,11,-246,11,77,16,-14
2385,13,-249,8,83,15,-15
2390,15,-249,14,88,14,-14
2395,12,-247,7,92,12,-13
2400,14,-249,10,95,12,-14
2405,12,-245,10,96,14,-14
2410,12,-246,9,94,14,-13
2415,11,-245,9,92,14,-12
2420,13,-248,13,87,13,-12
2425,13,-247,10,82,12,-13
2430,13,-248,11,78,10,-11
2435,12,-246,10,73,9,-13
2440,17,-249,6,69,7,-13
2445,12,-249,14,66,5,-12
2450,14,-253,8,66,4,-10
2455,10,-247,9,64,3,-11
2460,14,-252,11,65,3,-9
2465,11,-252,9,68,5,-9
2470,13,-253,10,72,7,-10
2475,10,-249,12,78,10,-11
2480,12,-250,15,84,15,-13
2485,13,-250,8,89,19,-12
2490,14,-250,7,94,21,-11
2495,14,-251,14,98,20,-11
2500,13,-250,11,98,21,-11
2505,13,-246,8,97,21,-12
2510,12,-250,11,96,19,-13
2515,11,-247,13,93,16,-12
2520,15,-250,11,91,14,-11
2525,11,-245,11,87,11,-13
2530,11,-247,8,82,9,-11
2535,14,-247,12,79,7,-11
2540,12,-245,8,74,5,-10
2545,16,-249,8,69,5,-10
2550,14,-249,10,65,6,-8
2555,11,-249,12,60,6,-7
2560,12,-251,9,57,7,-7
2565,12,-248,9,55,7,-6
2570,11,-249,9,53,9,-7
2575,11,-249,8,53,10,-7
2580,15,-250,13,52,12,-6
2585,12,-252,6,52,14,-6
2590,13,-250,7,52,16,-8
2595,14,-252,10,52,20,-7
2600,14,-251,7,49,23,-9
2605,18,-250,7,43,28,-7
2610,13,-251,10,33,34,-6
2615,15,-252,2,21,39,-2
2620,15,-250,3,6,43,1
2625,13,-251,0,-10,47,4
2630,11,-252,1,-22,47,6
2635,11,-252,4,-33,48,9
2640,12,-254,1,-37,44,12
2645,12,-252,2,-39,40,15
2650,16,-253,2,-37,33,19
2655,12,-254,1,-37,23,20
2660,10,-252,1,-35,16,23
2665,16,-252,2,-36,8,24
2670,11,-248,6,-38,2,28
2675,17,-253,3,-43,-3,31
2680,13,-249,6,-47,-5,33
2685,14,-249,1,-51,-6,37
2690,12,-246,0,-54,-4,39
2695,14,-250,0,-58,-3,41
2700,12,-244,0,-61,-2,45
2705,12,-247,0,-62,-2,47
2710,9,-245,-1,-65,-3,50
2715,14,-241,0,-65,-5,53
2720,14,-244,0,-66,-8,58
2725,11,-247,-5,-70,-14,61
2730,12,-247,-8,-74,-18,62
2735,13,-248,-7,-82,-24,69
2740,12,-239,-1,-94,-32,73
2745,12,-248,-6,-107,-38,76
2750,14,-248,-9,-123,-43,77
2755,8,-248,-10,-140,-46,80
2760,12,-248,-13,-157,-48,82
2765,13,-246,-14,-175,-45,82
2770,12,-247,-14,-191,-41,82
2775,11,-248,-14,-206,-38,83
2780,11,-248,-15,-219,-34,80
2785,11,-250,-16,-230,-30,81
2790,14,-244,-33,-235,-29,79
2795,10,-249,-21,-239,-28,75
2800,14,-246,-23,-240,-28,74
2805,13,-248,-27,-239,-28,71
2810,10,-243,-30,-238,-30,69
2815,15,-244,-26,-237,-33,65
2820,14,-243,-30,-236,-35,65
2825,13,-237,-31,-237,-34,66
2830,15,-238,-37,-243,-35,68
2835,14,-235,-38,-253,-37,69
2840,9,-233,-43,-265,-40,71
2845,12,-229,-47,-278,-43,75
2850,8,-229,-51,-293,-46,76
2855,14,-225,-53,-313,-50,76
2860,13,-223,-53,-335,-55,76
2865,14,-218,-52,-361,-59,74
2870,13,-214,-58,-390,-63,73
2875,12,-211,-63,-422,-66,71
2880,12,-204,-64,-456,-70,67
2885,13,-200,-63,-493,-73,64
2890,12,-193,-65,-531,-77,58
2895,10,-186,-60,-573,-83,53
2900,12,-181,-63,-620,-84,46
2905,12,-168,-63,-674,-83,40
2910,14,-157,-60,-735,-79,32
2915,14,-147,-55,-804,-74,21
2920,16,-140,-51,-877,-65,9
2925,16,-128,-46,-953,-57,-2
2930,17,-120,-45,-1031,-46,-11
2935,17,-109,-35,-1107,-37,-24
2940,17,-96,-33,-1185,-29,-34
2945,18,-90,-25,-1259,-20,-38
2950,11,-79,-14,-1322,-7,-40
2955,11,-70,-7,-1373,2,-43
2960,11,-63,0,-1406,7,-39
2965,12,-59,5,-1417,11,-36
2970,12,-60,8,-1400,15,-30
2975,17,-61,16,-1354,20,-27
2980,18,-65,23,-1276,25,-25
2985,15,-72,26,-1171,32,-29
2990,19,-82,30,-1038,41,-37
2995,21,-95,22,-889,53,-47
3000,22,-108,16,-738,66,-57
3005,24,-124,-1,-602,78,-69
3010,27,-133,-22,-498,88,-85
3015,30,-143,-36,-434,91,-104
3020,29,-147,-50,-410,85,-125
3025,29,-153,-61,-426,69,-146
3030,34,-166,-71,-472,49,-167
3035,30,-174,-79,-546,27,-183
3040,33,-182,-90,-648,9,-196
3045,33,-188,-96,-777,-5,-199
3050,28,-193,-93,-931,-10,-196
3055,30,-198,-96,-1106,-5,-186
3060,27,-204,-94,-1292,11,-169
3065,25,-202,-86,-1475,31,-147
3070,24,-205,-84,-1641,52,-127
3075,23,-207,-72,-1775,72,-112
3080,23,-202,-66,-1874,87,-98
3085,16,-197,-63,-1932,97,-93
3090,12,-191,-56,-1952,100,-96
3095,10,-186,-52,-1936,100,-103
3100,6,-178,-45,-1891,101,-115
3105,1,-167,-48,-1822,103,-132
3110,2,-162,-45,-1739,108,-150
3115,-5,-153,-46,-1646,117,-169
3120,-4,-152,-48,-1549,126,-184
3125,-5,-147,-56,-1453,132,-195
3130,-8,-149,-59,-1361,137,-203
3135,-4,-151,-70,-1279,142,-207
3140,-6,-153,-76,-1207,147,-206
3145,-2,-161,-81,-1155,152,-201
3150,-2,-166,-93,-1117,151,-191
3155,1,-177,-94,-1095,149,-178
3160,2,-186,-99,-1088,142,-164
3165,3,-196,-110,-1097,135,-148
3170,7,-209,-112,-1124,126,-128
3175,7,-217,-109,-1165,118,-108
3180,11,-228,-114,-1217,111,-84
3185,17,-245,-112,-1275,108,-58
3190,20,-255,-113,-1334,102,-39
3195,17,-264,-113,-1389,96,-32
3200,22,-274,-116,-1444,95,-29
3205,18,-279,-111,-1494,103,-30
3210,18,-279,-113,-1540,108,-41
3215,21,-283,-116,-1571,117,-55
3220,25,-279,-116,-1601,123,-69
3225,23,-269,-115,-1628,134,-83
3230,24,-259,-120,-1664,144,-96
3235,23,-250,-125,-1715,151,-106
3240,22,-233,-130,-1782,151,-109
3245,18,-224,-130,-1875,145,-103
3250,15,-206,-130,-1978,140,-97
3255,14,-200,-134,-2083,131,-85
3260,14,-191,-133,-2174,117,-75
3265,11,-185,-151,-2240,101,-65
3270,9,-186,-155,-2288,86,-54
3275,6,-178,-157,-2312,69,-41
3280,-2,-179,-165,-2308,64,-34
3285,0,-182,-171,-2304,56,-26
3290,-4,-185,-168,-2272,53,-19
3295,-5,-189,-180,-2180,53,-15
3300,-6,-197,-196,-2092,36,-5
3305,-6,-197,-203,-2030,18,-12
3310,-1,-198,-194,-1968,-4,-37
3315,-3,-203,-190,-1874,-21,-57
3320,0,-208,-199,-1731,-21,-72
3325,2,-210,-196,-1613,-25,-79
3330,10,-214,-189,-1508,-29,-90
3335,10,-217,-190,-1378,-34,-104
3340,19,-222,-184,-1251,-47,-109
3345,23,-225,-198,-1133,-61,-117
3350,29,-223,-188,-1063,-87,-138
3355,32,-230,-189,-987,-111,-160
3360,27,-229,-167,-886,-135,-182
3365,28,-231,-164,-697,-134,-204
3370,31,-225,-144,-413,-110,-244
3375,34,-214,-101,27,-85,-312
3380,28,-199,-106,699,-67,-437
3385,1,-194,-142,1352,-97,-551
3390,-32,-196,-240,1751,-179,-519
3395,-26,-181,-303,1651,-297,-311
3400,13,-189,-350,1062,-373,-104
3405,38,-195,-331,241,-395,-24
3410,48,-205,-329,-496,-359,-48
3415,47,-231,-255,-1125,-307,-85
3420,30,-250,-216,-1431,-205,-105
3425,16,-261,-189,-1401,-104,-108
3430,16,-256,-184,-1182,-60,-108
3435,15,-245,-187,-911,-70,-131
3440,20,-232,-198,-650,-100,-160
3445,15,-218,-200,-440,-127,-184
3450,23,-198,-213,-277,-151,-191
3455,23,-193,-202,-179,-188,-168
3460,26,-189,-204,-111,-194,-158
3465,26,-180,-201,-86,-179,-176
3470,31,-181,-203,-73,-177,-171
3475,35,-182,-212,-71,-175,-171
3480,27,-193,-201,-95,-186,-174
3485,37,-195,-207,-82,-215,-153
3490,38,-201,-235,-59,-214,-129
3495,41,-202,-224,-45,-192,-105
3500,23,-205,-219,-28,-168,-88
3505,26,-206,-229,44,-140,-57
3510,17,-207,-233,112,-120,-23
3515,11,-206,-235,151,-109,-10
3520,8,-204,-247,196,-106,-9
3525,7,-202,-245,257,-104,6
3530,15,-201,-258,318,-107,11
3535,13,-201,-251,323,-128,22
3540,13,-199,-256,328,-140,8
3545,13,-200,-258,326,-154,14
3550,26,-198,-259,313,-175,6
3555,17,-193,-263,293,-195,3
3560,23,-195,-257,305,-192,0
3565,23,-196,-259,341,-174,22
3570,18,-199,-258,388,-164,36
3575,23,-193,-261,432,-142,31
3580,22,-197,-259,477,-128,50
3585,21,-195,-262,518,-129,72
3590,25,-198,-261,562,-138,71
3595,33,-201,-260,599,-129,66
3600,34,-193,-259,635,-116,75
3605,28,-191,-260,681,-117,91
3610,35,-188,-251,732,-114,93
3615,29,-192,-250,794,-103,91
3620,26,-188,-254,858,-109,97
3625,32,-191,-244,923,-121,102
3630,27,-188,-253,994,-110,121
3635,25,-188,-243,1032,-97,138
3640,19,-186,-239,1067,-93,149
3645,15,-183,-236,1108,-88,156
3650,18,-183,-236,1152,-87,162
3655,16,-182,-228,1200,-89,163
3660,18,-181,-223,1252,-98,158
3665,16,-182,-218,1310,-100,155
3670,18,-182,-210,1353,-110,152
3675,14,-177,-206,1392,-121,150
3680,15,-183,-197,1430,-126,148
3685,14,-179,-186,1469,-120,151
3690,11,-182,-172,1521,-111,153
3695,4,-201,-169,1594,-103,156
3700,4,-219,-166,1670,-101,163
3705,-3,-234,-174,1732,-105,166
3710,-5,-245,-182,1762,-105,166
3715,-12,-256,-193,1773,-95,165
3720,-30,-265,-214,1778,-69,164
3725,-34,-276,-228,1768,-31,157
3730,-43,-284,-255,1728,-6,168
3735,-49,-288,-285,1651,26,190
3740,-55,-292,-319,1545,67,212
3745,-45,-290,-318,1405,86,228
3750,-34,-287,-318,1250,79,256
3755,-27,-289,-296,1105,65,280
3760,-9,-284,-253,1012,57,309
3765,9,-285,-206,998,30,339
3770,19,-286,-162,1054,9,372
3775,23,-288,-130,1176,-19,395
3780,24,-282,-93,1349,-51,391
3785,28,-274,-67,1547,-71,367
3790,25,-258,-56,1747,-79,324
3795,23,-240,-50,1911,-72,273
3800,19,-225,-52,1999,-44,224
3805,15,-209,-60,1995,-3,174
3810,11,-189,-66,1904,43,130
3815,4,-176,-76,1752,83,95
3820,2,-163,-88,1576,107,72
3825,-2,-158,-96,1411,116,63
3830,-7,-151,-107,1286,112,64
3835,-16,-153,-107,1217,97,61
3840,-17,-161,-109,1209,73,54
3845,-15,-172,-100,1250,46,43
3850,-12,-181,-93,1324,23,27
3855,-10,-194,-85,1410,5,9
3860,-7,-209,-69,1485,-4,-8
3865,-2,-215,-56,1529,-7,-23
3870,0,-220,-47,1529,-3,-35
3875,3,-223,-42,1487,-2,-47
3880,5,-225,-34,1406,4,-54
3885,3,-229,-32,1300,14,-56
3890,9,-231,-30,1187,21,-53
3895,7,-237,-33,1088,26,-54
3900,5,-239,-39,1014,30,-55
3905,8,-243,-42,971,37,-55
3910,3,-250,-47,958,43,-55
3915,6,-253,-45,969,44,-54
3920,8,-247,-42,994,46,-50
3925,1,-257,-49,1024,43,-45
3930,0,-255,-46,1050,39,-39
3935,1,-257,-52,1067,33,-32
3940,0,-258,-57,1070,26,-23
3945,0,-260,-53,1061,19,-16
3950,-2,-260,-54,1043,9,-14
3955,0,-258,-59,1024,2,-12
3960,-1,-256,-61,1004,-3,-9
3965,0,-253,-59,991,-3,-8
3970,-5,-248,-51,985,-1,-7
3975,0,-243,-57,983,0,-7
3980,0,-242,-57,984,3,-9
3985,1,-235,-47,980,10,-11
3990,0,-235,-44,970,14,-9
3995,0,-233,-35,954,19,-6
4000,0,-232,-27,940,27,-2
4005,1,-232,-22,928,34,-2
4010,0,-235,-20,918,42,-3
4015,0,-235,-14,909,48,-4
4020,2,-234,-17,897,54,-10
4025,3,-229,-15,878,63,-14
4030,4,-229,-12,854,72,-21
4035,5,-229,-12,830,80,-24
4040,1,-225,-14,802,93,-22
4045,6,-222,-14,772,104,-18
4050,6,-223,-9,740,118,-13
4055,6,-223,-9,706,128,-4
4060,7,-222,-14,671,133,4
4065,5,-223,-13,631,133,12
4070,2,-227,-13,592,133,18
4075,5,-229,-11,560,132,24
4080,2,-236,-12,535,131,28
4085,-1,-241,-17,517,132,31
4090,4,-242,-20,503,134,37
4095,-3,-245,-24,490,135,36
4100,-4,-248,-25,479,133,39
4105,-6,-248,-28,472,129,41
4110,-9,-252,-28,467,119,42
4115,-6,-253,-28,471,106,41
4120,-6,-251,-33,479,90,36
4125,-2,-254,-26,492,69,30
4130,-5,-253,-29,508,47,24
4135,-8,-253,-23,525,30,16
4140,-8,-254,-22,535,17,9
4145,-9,-252,-20,542,8,0
4150,-9,-250,-22,543,-1,-8
4155,-5,-249,-18,545,-12,-15
4160,-2,-253,-20,544,-21,-22
4165,0,-247,-18,535,-28,-27
4170,0,-250,-19,520,-31,-31
4175,0,-248,-18,502,-32,-36
4180,0,-244,-17,483,-34,-39
4185,4,-245,-17,464,-29,-43
4190,9,-244,-16,445,-27,-50
4195,6,-243,-15,428,-20,-55
4200,6,-241,-16,409,-12,-59
4205,8,-240,-11,392,-5,-60
4210,9,-240,-18,377,2,-60
4215,6,-241,-12,360,10,-62
4220,7,-239,-13,344,16,-63
4225,7,-241,-16,324,22,-63
4230,7,-240,-13,306,27,-63
4235,6,-242,-14,288,28,-64
4240,4,-244,-13,272,27,-65
4245,5,-243,-15,257,27,-64
4250,5,-242,-12,240,30,-65
4255,5,-241,-19,219,32,-65
4260,5,-241,-19,197,32,-63
4265,7,-243,-22,177,31,-61
4270,6,-244,-29,159,30,-59
4275,6,-243,-25,144,25,-58
4280,4,-245,-22,132,22,-57
4285,4,-246,-22,123,16,-55
4290,1,-246,-26,116,9,-52
4295,21,-241,-18,112,4,-49
4300,0,-244,-23,111,1,-46
4305,4,-246,-29,109,-2,-42
4310,1,-244,-25,107,-4,-39
4315,1,-249,-25,105,-7,-37
4320,1,-248,-28,100,-9,-38
4325,3,-248,-23,96,-13,-37
4330,2,-247,-28,92,-15,-38
4335,-1,-246,-26,87,-17,-41
4340,0,-247,-26,82,-17,-43
4345,0,-249,-23,76,-15,-46
4350,1,-251,-22,73,-13,-47
4355,3,-249,-25,69,-9,-51
4360,1,-250,-22,64,-6,-52
4365,4,-252,-20,59,-3,-51
4370,3,-248,-22,56,1,-51
4375,3,-249,-24,50,1,-50
4380,2,-246,-23,42,2,-46
4385,3,-245,-23,32,-1,-44
4390,2,-247,-23,22,-3,-42
4395,1,-246,-24,13,-4,-41
4400,3,-249,-29,4,-6,-41
4405,2,-248,-26,-3,-6,-39
4410,3,-249,-23,-8,-4,-37
4415,3,-246,-24,-11,-5,-36
4420,8,-249,-21,-11,-3,-34
4425,5,-252,-20,-11,-1,-31
4430,3,-249,-22,-12,4,-28
4435,3,-250,-22,-12,7,-27
4440,5,-251,-29,-12,11,-24
4445,5,-249,-25,-9,15,-21
4450,2,-251,-26,-6,18,-20
4455,1,-250,-29,-1,22,-17
4460,2,-250,-31,2,23,-17
4465,3,-246,-29,4,25,-16
4470,2,-247,-30,3,25,-16
4475,1,-251,-29,4,23,-18
4480,1,-245,-31,4,22,-23
4485,2,-250,-28,4,20,-26
4490,1,-247,-26,3,20,-30
4495,1,-250,-30,4,19,-33
4500,1,-246,-31,6,18,-37
4505,0,-246,-25,9,18,-40
4510,0,-242,-24,10,19,-42
4515,1,-245,-29,11,20,-41
4520,1,-244,-28,10,21,-41
4525,1,-241,-23,9,19,-39
4530,-2,-241,-24,8,21,-37
4535,3,-244,-23,6,22,-35
4540,2,-245,-22,2,22,-36
4545,0,-242,-21,-2,21,-35
4550,1,-245,-23,-10,20,-36
4555,2,-246,-22,-15,19,-38
4560,3,-252,-21,-19,17,-40
4565,3,-250,-20,-21,18,-39
4570,1,-246,-20,-24,18,-39
4575,2,-250,-21,-24,16,-38
4580,6,-252,-21,-24,14,-38
4585,1,-247,-20,-22,14,-38
4590,4,-249,-19,-20,11,-38
4595,7,-250,-20,-18,7,-36
4600,3,-254,-25,-15,5,-37
4605,4,-252,-25,-11,4,-35
4610,5,-249,-23,-7,3,-36
4615,6,-247,-25,-2,2,-34
4620,5,-248,-25,2,4,-33
4625,7,-251,-26,6,3,-31
4630,8,-249,-27,12,3,-31
4635,4,-250,-27,17,1,-31
4640,7,-251,-23,20,0,-31
4645,5,-249,-30,22,0,-32
4650,8,-249,-27,23,0,-32
4655,17,-225,-33,23,-1,-34
4660,4,-251,-25,24,-3,-33
4665,7,-251,-26,24,0,-36
4670,5,-243,-19,25,0,-38
4675,8,-250,-26,25,1,-40
4680,8,-246,-30,23,3,-40
4685,10,-247,-26,24,3,-39
4690,6,-248,-31,22,2,-41
4695,11,-247,-29,23,0,-44
4700,12,-247,-30,23,6,-42
4705,8,-245,-31,17,11,-37
4710,10,-243,-30,11,15,-30
4715,12,-241,-32,-1,19,-25
4720,13,-246,-28,-11,22,-22
4725,8,-241,-27,-20,24,-18
4730,7,-245,-32,-30,26,-15
4735,9,-244,-32,-41,27,-13
4740,7,-238,-30,-51,29,-8
4745,4,-241,-28,-59,27,-8
4750,7,-245,-32,-66,27,-6
4755,2,-243,-30,-74,31,-2
4760,5,-240,-31,-85,32,1
4765,5,-243,-30,-95,37,10
4770,3,-241,-33,-102,42,16
4775,3,-244,-33,-108,45,20
4780,2,-242,-33,-113,49,24
4785,4,-241,-32,-119,51,26
4790,0,-245,-32,-123,54,30
4795,4,-241,-29,-125,49,26
4800,1,-241,-33,-128,53,28
4805,4,-244,-31,-132,58,34
4810,3,-243,-33,-137,60,39
4815,7,-249,-32,-143,61,44
4820,6,-248,-28,-150,60,44
4825,6,-250,-33,-156,56,41
4830,8,-252,-35,-160,54,37
4835,5,-245,-30,-164,52,33
4840,8,-251,-32,-165,50,27
4845,7,-251,-30,-165,47,21
4850,5,-247,-31,-163,46,16
4855,6,-250,-31,-157,45,9
4860,3,-245,-35,-148,40,3
4865,6,-244,-27,-137,39,-2
4870,4,-247,-29,-127,36,-8
4875,4,-247,-31,-121,31,-11
4880,3,-251,-31,-115,26,-17
4885,1,-248,-32,-108,21,-23
4890,1,-248,-31,-104,13,-27
4895,1,-248,-32,-101,6,-31
4900,1,-246,-27,-96,-2,-38
4905,0,-248,-30,-93,-11,-44
4910,-3,-245,-32,-90,-19,-50
4915,-2,-247,-29,-89,-27,-54
4920,-1,-247,-31,-89,-33,-58
4925,-1,-248,-32,-87,-36,-62
4930,-1,-248,-31,-85,-38,-63
4935,-1,-249,-37,-82,-41,-66
4940,0,-253,-35,-76,-44,-64
4945,0,-250,-36,-71,-45,-63
4950,0,-251,-36,-69,-45,-65
4955,0,-249,-39,-64,-47,-61
4960,1,-251,-39,-62,-48,-62
4965,3,-251,-47,-57,-51,-64
4970,4,-249,-40,-55,-56,-64
4975,2,-248,-40,-53,-58,-66
4980,6,-249,-42,-50,-60,-65
4985,6,-247,-45,-46,-61,-66
4990,4,-249,-43,-43,-62,-66
4995,6,-251,-43,-39,-64,-64
5000,12,-250,-42,-31,-66,-66
5005,7,-246,-43,-24,-67,-62
5010,11,-244,-46,-20,-68,-59
5015,5,-240,-42,-20,-69,-59
5020,13,-242,-43,-24,-70,-55
5025,11,-238,-45,-29,-70,-54
5030,8,-242,-46,-36,-67,-53
5035,9,-239,-43,-41,-64,-51
5040,12,-243,-43,-47,-61,-49
5045,13,-246,-41,-52,-55,-46
5050,10,-242,-42,-55,-49,-43
5055,7,-244,-39,-56,-42,-38
5060,6,-242,-41,-55,-36,-36
5065,10,-245,-40,-54,-29,-36
5070,8,-247,-44,-52,-26,-31
5075,7,-246,-41,-51,-22,-26
5080,6,-247,-43,-48,-19,-22
5085,5,-249,-40,-46,-17,-19
5090,8,-245,-49,-41,-14,-17
5095,5,-243,-48,-38,-12,-16
5100,4,-242,-45,-35,-11,-14
5105,9,-243,-44,-31,-11,-14
5110,8,-244,-46,-28,-10,-13
5115,6,-242,-46,-24,-7,-11
5120,7,-241,-47,-21,-5,-9
5125,7,-239,-51,-18,-1,-10
5130,5,-243,-48,-14,-1,-7
5135,3,-241,-46,-13,1,-6
5140,5,-241,-44,-10,2,-9
5145,2,-244,-44,-10,5,-9
5150,4,-244,-46,-9,8,-10
5155,4,-244,-44,-15,8,-12
5160,3,-244,-45,-19,9,-14
5165,3,-244,-46,-24,10,-17
5170,4,-246,-46,-29,13,-19
5175,4,-242,-43,-32,15,-21
5180,2,-243,-43,-35,17,-21
5185,4,-242,-50,-37,20,-22
5190,3,-243,-45,-38,22,-22
5195,2,-245,-51,-37,24,-22
5200,3,-245,-51,-35,26,-24
5205,7,-246,-45,-32,24,-23
5210,6,-243,-48,-28,25,-25
5215,6,-246,-50,-24,26,-25
5220,5,-245,-50,-19,25,-24
5225,5,-248,-46,-14,25,-24
5230,8,-245,-48,-9,22,-25
5235,9,-244,-46,-4,20,-23
5240,8,-246,-44,0,18,-23
5245,3,-245,-47,4,15,-24
5250,7,-244,-46,10,14,-26
5255,5,-248,-50,14,11,-27
5260,5,-244,-44,19,11,-29
5265,5,-245,-46,22,9,-32
5270,11,-249,-48,25,10,-35
5275,7,-247,-48,28,10,-37
5280,8,-245,-48,30,9,-38
5285,8,-247,-46,34,8,-38
5290,7,-246,-49,40,9,-38
5295,8,-247,-48,42,10,-37
5300,7,-245,-47,46,10,-34
5305,8,-243,-50,49,9,-31
5310,8,-245,-48,50,7,-29
5315,10,-242,-48,51,7,-29
5320,9,-241,-45,52,6,-26
5325,10,-244,-48,50,6,-26
5330,9,-246,-47,49,5,-25
5335,9,-242,-48,48,5,-23
5340,9,-246,-46,49,4,-19
5345,7,-240,-50,49,4,-20
5350,8,-245,-47,50,4,-19
5355,9,-245,-48,51,6,-19
5360,7,-244,-47,52,5,-16
5365,10,-243,-45,55,6,-16
5370,9,-247,-47,57,6,-17
5375,6,-245,-44,60,6,-17
5380,9,-242,-49,62,6,-18
5385,6,-241,-49,64,5,-20
5390,7,-243,-45,65,4,-20
5395,6,-244,-49,66,4,-20
5400,7,-245,-48,66,4,-22
5405,11,-245,-45,65,2,-22
5410,7,-243,-52,64,3,-25
5415,9,-245,-46,65,1,-23
5420,6,-237,-46,64,2,-24
5425,6,-244,-49,64,1,-26
5430,7,-241,-50,63,1,-26
5435,5,-245,-45,62,1,-25
5440,5,-242,-42,62,1,-25
5445,4,-241,-50,60,3,-25
5450,1,-243,-49,62,3,-24
5455,2,-244,-49,63,4,-23
5460,4,-246,-45,63,5,-23
5465,6,-242,-49,68,6,-19
5470,4,-242,-52,72,8,-16
5475,7,-243,-46,77,8,-15
5480,7,-244,-49,80,10,-12
5485,6,-245,-49,80,11,-10
5490,5,-243,-48,77,10,-11
5495,6,-245,-49,75,11,-9
5500,8,-247,-48,69,11,-8
5505,6,-246,-51,64,9,-10
5510,9,-242,-49,60,10,-11
5515,6,-244,-51,56,11,-10
5520,7,-242,-48,54,12,-11
5525,9,-245,-45,53,13,-10
5530,7,-244,-46,53,13,-11
5535,6,-242,-47,56,14,-9
5540,5,-242,-46,59,16,-8
5545,9,-247,-47,63,17,-9
5550,7,-242,-47,66,18,-7
5555,9,-245,-47,68,20,-5
5560,5,-245,-45,73,19,-6
5565,6,-245,-46,74,19,-3
5570,6,-243,-45,74,18,-1
5575,7,-245,-46,75,17,-2
5580,4,-244,-43,74,18,-7
5585,14,-243,-39,73,17,-12
5590,7,-242,-44,72,17,-6
5595,7,-245,-44,70,15,-4
5600,6,-243,-42,70,14,-2
5605,6,-245,-45,73,12,-3
5610,3,-242,-45,74,11,-3
5615,5,-242,-47,77,12,-6
5620,5,-241,-45,78,9,-4
5625,7,-244,-48,79,8,-5
5630,6,-246,-47,80,7,-4
5635,8,-247,-44,80,6,-6
5640,4,-243,-43,81,4,-10
5645,7,-243,-44,81,4,-12
5650,6,-245,-44,81,5,-13
5655,8,-244,-44,81,4,-15
5660,6,-242,-47,80,3,-17
5665,7,-242,-47,79,4,-17
5670,7,-244,-49,76,3,-18
5675,6,-246,-46,72,3,-18
5680,8,-245,-46,68,3,-18
5685,6,-246,-44,65,4,-18
5690,7,-243,-44,63,4,-18
5695,7,-243,-43,61,4,-17
5700,5,-244,-46,61,3,-14
5705,8,-245,-43,61,4,-12
5710,7,-249,-47,63,2,-10
5715,7,-247,-46,66,2,-10
5720,8,-246,-48,70,1,-7
5725,9,-245,-53,77,1,-7
5730,9,-240,-43,81,0,-5
5735,7,-244,-47,83,-2,-5
5740,9,-244,-44,82,-3,-6
5745,10,-243,-42,79,-2,-9
5750,8,-245,-46,75,-1,-8
5755,6,-242,-47,74,0,-8
5760,7,-245,-41,73,1,-8
5765,6,-243,-45,77,5,-10
5770,7,-245,-44,77,6,-11
5775,7,-247,-41,79,9,-9
5780,6,-246,-45,77,11,-9
5785,7,-239,-42,76,10,-6
5790,6,-244,-46,73,10,-5
5795,0,-241,-40,67,10,-3
5800,10,-243,-45,62,9,-1
5805,9,-244,-48,56,8,3
5810,8,-243,-45,52,7,4
5815,11,-246,-41,48,4,6
5820,8,-245,-41,45,3,5
5825,7,-244,-50,47,2,2
5830,7,-244,-45,49,2,0
5835,7,-248,-47,53,2,-2
5840,7,-245,-46,60,4,-2
5845,3,-246,-48,65,6,-3
5850,7,-245,-44,71,9,-5
5855,7,-245,-48,76,9,-6
5860,8,-246,-46,80,11,-6
5865,9,-245,-46,82,12,-5
5870,3,-241,-46,84,13,-4
5875,10,-247,-47,88,14,-3
5880,9,-244,-47,87,14,-4
5885,7,-241,-46,87,15,-4
5890,7,-246,-50,86,14,-3
5895,7,-243,-50,84,14,-2
5900,5,-242,-43,83,14,-3
5905,6,-242,-46,83,14,-2
5910,4,-246,-48,83,14,-2
5915,6,-243,-45,82,13,-1
5920,5,-245,-43,85,13,-1
5925,3,-242,-48,86,12,1
5930,7,-243,-45,89,15,2
5935,5,-240,-47,92,15,3
5940,7,-244,-46,94,18,2
5945,5,-244,-44,94,18,4
5950,5,-244,-45,93,18,3
5955,4,-245,-45,91,18,2
5960,6,-246,-46,90,18,2
5965,6,-244,-47,87,18,3
5970,7,-242,-43,84,17,3
5975,5,-244,-46,84,17,4
5980,6,-245,-45,85,18,3
5985,5,-248,-42,89,18,5
5990,6,-247,-40,94,19,6
5995,3,-243,-44,98,20,7
6000,7,-244,-43,101,21,7
6005,5,-246,-47,101,18,8
6010,3,-242,-45,102,18,8
6015,6,-246,-40,100,17,6
6020,9,-245,-44,100,16,3
6025,10,-249,-45,98,14,0
6030,4,-242,-45,96,12,-3
6035,7,-244,-38,94,12,-4
6040,7,-246,-42,92,9,-4
6045,4,-243,-37,89,7,-6
6050,8,-246,-40,86,6,-8
6055,5,-245,-40,82,6,-11
6060,8,-244,-41,78,7,-10
6065,5,-245,-43,74,8,-10
6070,7,-245,-42,72,9,-9
6075,7,-246,-45,70,10,-7
6080,8,-245,-48,69,12,-7
6085,6,-247,-43,69,13,-7
6090,6,-245,-42,72,13,-4
6095,7,-242,-41,76,14,-3
6100,10,-243,-42,82,13,-2
6105,7,-245,-47,87,12,0
6110,8,-243,-43,88,10,-1
6115,5,-243,-40,86,9,0
6120,8,-246,-42,83,8,-1
6125,6,-243,-45,80,7,1
6130,10,-243,-39,80,5,0
6135,5,-244,-40,80,7,-1
6140,5,-247,-40,83,7,0
6145,2,-246,-40,88,7,3
6150,2,-245,-41,96,7,4
6155,2,-245,-41,106,10,5
6160,3,-246,-39,112,10,7
6165,4,-244,-42,114,11,9
6170,11,-241,-40,115,11,9
6175,2,-244,-40,112,11,10
6180,5,-246,-43,106,11,9
6185,5,-245,-41,101,12,7
6190,8,-246,-42,96,8,5
6195,7,-246,-41,92,4,2
6200,7,-247,-37,91,1,-2
6205,5,-244,-36,88,-3,-6
6210,6,-244,-38,84,-8,-9
6215,8,-247,-34,81,-12,-11
6220,9,-248,-37,78,-14,-13
6225,9,-246,-39,74,-18,-13
6230,6,-241,-36,72,-20,-14
6235,7,-245,-41,69,-20,-14
6240,4,-240,-39,69,-19,-11
6245,4,-247,-39,68,-18,-9
6250,8,-243,-41,68,-17,-9
6255,8,-244,-44,68,-16,-9
6260,6,-247,-43,65,-14,-8
6265,4,-246,-42,65,-12,-4
6270,7,-247,-40,64,-11,-3
6275,6,-243,-42,62,-9,-1
6280,3,-242,-41,63,-7,-1
6285,4,-243,-42,62,-5,2
6290,1,-245,-40,61,-3,2
6295,3,-242,-41,62,0,7
6300,5,-245,-44,61,1,9
6305,8,-247,-43,60,3,10
6310,4,-244,-46,58,3,12
6315,5,-248,-43,57,3,13
6320,3,-243,-38,55,2,13
6325,4,-246,-41,54,2,14
6330,6,-246,-44,53,3,12
6335,7,-250,-45,54,2,10
6340,5,-246,-38,54,2,9
6345,6,-246,-37,57,3,8
6350,6,-249,-42,58,3,6
6355,5,-242,-40,61,3,3
6360,6,-250,-43,61,3,0
6365,5,-243,-40,58,7,0
6370,3,-246,-44,55,7,-2
6375,2,-241,-40,53,8,-1
6380,4,-246,-43,51,11,-1
6385,7,-245,-41,49,12,1
6390,7,-241,-41,48,12,1
6395,4,-243,-44,48,13,2
6400,9,-245,-40,46,13,5
6405,7,-245,-43,43,14,4
6410,10,-245,-41,40,13,5
6415,10,-247,-38,37,14,7
6420,5,-246,-46,36,14,5
6425,6,-246,-41,35,15,9
6430,5,-243,-36,34,13,9
6435,5,-246,-38,35,18,9
6440,4,-245,-41,37,20,11
6445,8,-246,-38,40,21,14
6450,6,-246,-42,42,21,14
6455,5,-246,-41,46,20,20
6460,4,-245,-40,49,19,24
6465,10,-244,-40,53,17,28
6470,8,-249,-39,54,16,31
6475,3,-244,-37,53,16,35
6480,5,-242,-37,53,16,39
6485,4,-243,-40,52,14,41
6490,6,-244,-39,48,13,44
6495,3,-244,-38,47,12,45
6500,4,-242,-35,44,10,46
6505,5,-245,-40,44,11,48
6510,4,-243,-33,39,12,50
6515,6,-242,-34,31,11,49
6520,3,-238,-40,21,16,51
6525,3,-241,-36,10,19,55
6530,10,-252,-44,1,19,59
6535,4,-244,-36,-4,21,60
6540,3,-244,-41,-6,22,60
6545,4,-246,-37,-7,22,62
6550,3,-243,-38,-8,25,65
6555,1,-243,-38,-9,21,69
6560,3,-245,-40,-9,20,68
6565,4,-245,-39,-8,21,70
6570,2,-233,-36,-10,23,74
6575,0,-238,-35,-9,24,79
6580,2,-248,-41,-7,24,81
6585,0,-248,-39,1,28,83
6590,1,-250,-39,8,31,85
6595,9,-258,-43,14,26,86
6600,0,-255,-40,25,21,86
6605,-1,-254,-37,40,19,88
6610,-7,-253,-38,60,14,88
6615,0,-257,-39,82,9,87
6620,-1,-257,-41,100,9,95
6625,-6,-255,-39,116,7,105
6630,-2,-259,-43,130,2,108
6635,-5,-256,-47,142,-2,109
6640,0,-256,-42,157,-11,104
6645,2,-256,-40,164,-12,105
6650,2,-252,-42,162,-14,111
6655,4,-251,-44,152,-21,114
6660,3,-247,-40,135,-26,117
6665,7,-252,-33,117,-37,116
6670,3,-240,-35,101,-44,116
6675,2,-240,-35,84,-48,120
6680,0,-239,-38,69,-49,128
6685,3,-240,-37,50,-51,135
6690,2,-232,-32,27,-55,137
6695,1,-231,-31,-1,-54,140
6700,0,-231,-29,-35,-49,144
6705,0,-228,-28,-77,-43,148
6710,-1,-226,-28,-123,-34,153
6715,-1,-225,-27,-173,-24,154
6720,-1,-222,-24,-229,-14,157
6725,2,-225,-26,-289,-7,159
6730,1,-222,-22,-349,-1,162
6735,0,-223,-22,-412,4,163
6740,0,-227,-21,-472,10,164
6745,0,-226,-22,-530,15,163
6750,-1,-227,-20,-585,21,163
6755,-3,-229,-18,-636,21,161
6760,0,-234,-23,-683,20,162
6765,-1,-231,-24,-732,31,171
6770,1,-234,-25,-786,39,178
6775,-1,-232,-29,-835,40,185
6780,-1,-236,-29,-880,37,189
6785,-1,-242,-29,-922,36,192
6790,-4,-238,-32,-962,36,194
6795,0,-239,-36,-999,36,193
6800,-4,-242,-34,-1032,36,192
6805,-8,-235,-32,-1062,35,176
6810,-5,-240,-37,-1082,29,175
6815,-1,-239,-40,-1096,26,173
6820,-5,-237,-39,-1112,27,172
6825,-7,-239,-42,-1131,26,167
6830,-8,-242,-42,-1152,26,156
6835,-5,-239,-43,-1174,22,147
6840,-4,-241,-43,-1199,24,142
6845,-2,-243,-48,-1224,27,137
6850,-7,-241,-46,-1249,29,129
6855,-1,-243,-51,-1273,32,123
6860,-5,-240,-55,-1300,34,119
6865,-4,-258,-64,-1322,32,110
6870,-4,-233,-62,-1346,33,86
6875,-2,-237,-63,-1363,35,85
6880,-8,-235,-64,-1387,33,78
6885,-5,-236,-62,-1411,30,64
6890,-5,-236,-65,-1435,31,51
6895,-12,-237,-68,-1458,38,43
6900,-17,-237,-64,-1480,43,37
6905,-4,-255,-75,-1509,35,7
6910,-6,-225,-69,-1545,37,-23
6915,-3,-230,-69,-1569,48,-7
6920,-10,-231,-69,-1593,64,10
6925,-7,-229,-72,-1611,73,14
6930,-13,-229,-73,-1633,81,-14
6935,-8,-233,-84,-1646,96,-12
6940,-12,-237,-86,-1662,107,-10
6945,-10,-227,-85,-1687,129,-24
6950,-5,-229,-93,-1698,153,-4
6955,-6,-227,-89,-1715,169,1
6960,0,-231,-92,-1733,181,-8
6965,1,-229,-103,-1749,208,7
6970,1,-231,-111,-1764,230,7
6975,-3,-229,-111,-1778,241,2
6980,-6,-231,-109,-1817,256,-23
6985,-2,-223,-118,-1864,268,-16
6990,-8,-230,-125,-1908,295,11
6995,-6,-236,-124,-1956,321,32
7000,-23,-247,-129,-2007,335,14
7005,-18,-234,-144,-2084,308,-42
7010,-16,-226,-160,-2145,319,-65
7015,-8,-220,-169,-2178,373,-47
7020,-36,-213,-188,-2187,436,-15
7025,-46,-203,-206,-2168,467,-39
7030,-52,-183,-219,-2146,482,-32
7035,-55,-177,-230,-2084,538,-47
7040,-68,-179,-261,-1993,585,-45
7045,-56,-172,-238,-1952,634,-5
7050,-83,-171,-273,-1856,656,-44
7055,-73,-169,-246,-1850,613,-27
7060,-63,-194,-257,-1820,556,-7
7065,-60,-205,-252,-1771,480,44
7070,-47,-222,-247,-1721,406,133
7075,-60,-219,-232,-1670,354,178
7080,-46,-218,-226,-1544,280,194
7085,-33,-224,-236,-1403,212,209
7090,-32,-271,-254,-1300,214,254
7095,-38,-263,-266,-1251,217,299
7100,-35,-216,-251,-1231,218,386
7105,-44,-220,-254,-1159,218,390
7110,-41,-246,-270,-1114,215,357
7115,-46,-273,-271,-1137,208,333
7120,-29,-268,-288,-1218,212,271
7125,0,-123,-277,-1222,191,164
7130,-1,-126,-301,-1030,218,173
7135,-2,-219,-300,-973,238,156
7140,4,-192,-270,-1130,212,88
7145,13,-133,-292,-1177,180,26
7150,22,-132,-309,-1009,197,13
7155,26,-155,-299,-886,233,25
7160,22,-182,-290,-938,268,50
7165,15,-191,-284,-1035,290,68
7170,27,-204,-275,-1090,273,60
7175,19,-188,-277,-1101,243,45
7180,23,-179,-278,-1072,242,16
7185,23,-190,-268,-1032,254,11
7190,23,-191,-261,-1024,261,34
7195,13,-193,-256,-1024,260,53
7200,11,-196,-243,-992,250,70
7205,17,-197,-247,-915,215,88
7210,10,-187,-240,-871,211,110
7215,4,-180,-230,-847,218,139
7220,5,-173,-234,-815,185,167
7225,0,-164,-242,-782,146,180
7230,6,-155,-245,-763,112,190
7235,12,-146,-238,-771,79,192
7240,8,-132,-233,-797,49,204
7245,14,-132,-226,-834,27,237
7250,-10,-128,-210,-852,6,279
7255,14,-125,-219,-830,-43,261
7260,20,-121,-215,-831,-66,264
7265,-3,-117,-198,-848,-61,257
7270,7,-105,-196,-846,-80,278
7275,-6,-112,-197,-844,-71,314
7280,-9,-104,-188,-838,-70,306
7285,-31,-101,-187,-808,-94,278
7290,-9,-98,-193,-774,-153,283
7295,17,-109,-200,-728,-172,339
7300,1,-104,-218,-688,-141,427
7305,2,-110,-210,-607,-151,428
7310,31,-91,-216,-513,-159,425
7315,29,-114,-222,-385,-172,435
7320,38,-107,-228,-261,-194,399
7325,30,-116,-251,-123,-211,369
7330,47,-118,-236,-27,-228,334
7335,52,-125,-248,105,-202,306
7340,47,-123,-250,212,-161,300
7345,42,-129,-242,320,-144,294
7350,23,-152,-243,440,-136,296
7355,21,-137,-231,569,-125,289
7360,20,-144,-230,694,-130,273
7365,6,-137,-228,807,-117,276
7370,-3,-131,-230,898,-85,293
7375,-9,-133,-235,962,-50,311
7380,-13,-131,-233,998,-17,330
7385,-19,-131,-231,1014,15,338
7390,-22,-132,-228,1022,45,342
7395,-21,-132,-231,1026,76,333
7400,-26,-141,-229,1023,104,307
7405,-26,-141,-229,1019,125,275
7410,-24,-144,-229,1023,134,246
7415,-28,-153,-226,1036,133,217
7420,-19,-157,-233,1054,122,188
7425,-17,-159,-230,1068,106,156
7430,-12,-159,-235,1085,92,129
7435,-9,-159,-238,1093,78,104
7440,-8,-166,-240,1088,63,74
7445,-11,-177,-237,1082,48,34
7450,-10,-184,-236,1091,35,0
7455,-7,-190,-232,1117,24,-32
7460,-13,-192,-229,1166,7,-70
7465,-10,-199,-228,1225,-15,-115
7470,-14,-200,-228,1280,-35,-158
7475,-12,-200,-227,1327,-64,-177
7480,-11,-201,-229,1374,-94,-181
7485,-15,-198,-246,1405,-127,-197
7490,-16,-198,-233,1387,-167,-236
7495,-16,-198,-237,1380,-184,-265
7500,-9,-197,-240,1376,-194,-287
7505,-14,-197,-235,1377,-197,-310
7510,-11,-203,-230,1385,-197,-341
7515,-7,-202,-235,1414,-181,-378
7520,-16,-210,-228,1460,-166,-434
7525,-17,-211,-237,1518,-153,-456
7530,-15,-216,-233,1567,-144,-462
7535,-15,-223,-228,1627,-139,-467
7540,-12,-222,-230,1695,-130,-484
7545,-7,-225,-235,1740,-129,-502
7550,-9,-219,-231,1776,-127,-523
7555,-12,-217,-233,1820,-120,-569
7560,-8,-219,-230,1845,-109,-576
7565,-7,-222,-224,1862,-91,-560
7570,-11,-216,-225,1864,-75,-556
7575,-9,-219,-221,1842,-61,-555
7580,-11,-214,-221,1820,-47,-546
7585,-2,-214,-216,1795,-37,-532
7590,-12,-219,-212,1780,-31,-533
7595,-10,-220,-217,1751,-29,-507
7600,-10,-224,-212,1718,-31,-490
7605,-13,-225,-211,1686,-37,-473
7610,-9,-231,-204,1656,-42,-456
7615,-10,-232,-198,1629,-52,-434
7620,-13,-237,-193,1607,-62,-409
7625,-15,-242,-189,1594,-70,-374
7630,-6,-243,-176,1592,-74,-336
7635,-16,-252,-172,1605,-84,-330
7640,-10,-259,-163,1620,-94,-291
7645,-10,-259,-154,1645,-102,-242
7650,-6,-260,-147,1689,-106,-202
7655,-5,-261,-143,1744,-113,-170
7660,-5,-258,-136,1795,-125,-144
7665,-2,-252,-131,1837,-137,-132
7670,0,-245,-128,1873,-142,-117
7675,1,-230,-128,1906,-139,-104
7680,0,-221,-121,1934,-125,-92
7685,0,-208,-115,1953,-101,-77
7690,2,-194,-111,1967,-67,-63
7695,0,-180,-109,1961,-26,-50
7700,1,-168,-108,1924,18,-37
7705,1,-154,-106,1865,52,-28
7710,1,-141,-100,1794,83,-26
7715,2,-131,-91,1722,108,-22
7720,4,-126,-83,1658,126,-26
7725,3,-112,-76,1595,130,-31
7730,4,-107,-67,1535,120,-37
7735,8,-96,-64,1480,103,-37
7740,4,-88,-60,1429,82,-36
7745,11,-80,-54,1385,63,-38
7750,12,-71,-41,1341,55,-39
7755,13,-67,-42,1307,48,-36
7760,17,-63,-38,1284,49,-32
7765,17,-56,-39,1264,52,-34
7770,21,-59,-38,1248,58,-46
7775,23,-55,-40,1233,65,-60
7780,19,-43,-31,1215,73,-88
7785,6,-38,-34,1242,63,-86
7790,11,-37,-36,1282,44,-74
7795,15,-36,-44,1305,23,-66
7800,16,-35,-47,1306,3,-63
7805,12,-33,-52,1282,-18,-73
7810,11,-27,-49,1239,-35,-91
7815,8,-28,-50,1190,-53,-104
7820,3,-26,-48,1126,-64,-104
7825,1,-24,-43,1062,-73,-93
7830,0,-23,-44,1006,-77,-83
7835,-2,-24,-38,948,-71,-77
7840,-4,-29,-33,906,-67,-68
7845,0,-37,-33,890,-70,-60
7850,-1,-39,-27,859,-65,-78
7855,-5,-38,-19,847,-67,-102
7860,-7,-43,-12,891,-80,-106
7865,-4,-47,-18,962,-96,-95
7870,1,-57,-19,1055,-104,-86
7875,3,-63,-26,1150,-107,-97
7880,6,-68,-28,1239,-112,-124
7885,7,-78,-33,1303,-118,-170
7890,9,-91,-46,1338,-125,-225
7895,5,-100,-51,1356,-138,-265
7900,8,-112,-62,1348,-159,-294
7905,8,-124,-66,1292,-177,-314
7910,7,-140,-78,1187,-191,-323
7915,6,-159,-90,1045,-202,-331
7920,5,-177,-86,880,-208,-333
7925,6,-200,-96,705,-215,-327
7930,1,-221,-94,530,-221,-317
7935,-1,-245,-94,358,-225,-303
7940,-6,-270,-92,194,-227,-282
7945,-6,-307,-93,39,-226,-261
7950,-10,-334,-95,-106,-220,-238
7955,-9,-354,-103,-242,-205,-210
7960,-2,-387,-108,-378,-182,-177
7965,-2,-408,-127,-494,-154,-160
7970,2,-432,-133,-580,-130,-137
7975,18,-447,-138,-613,-111,-123
7980,40,-451,-136,-568,-97,-116
7985,35,-449,-136,-428,-81,-132
7990,39,-437,-127,-197,-67,-126
7995,39,-415,-115,113,-55,-114
8000,47,-383,-96,466,-52,-106
8005,45,-357,-95,831,-62,-99
8010,50,-320,-85,1181,-82,-88
8015,50,-286,-70,1494,-107,-71
8020,54,-253,-65,1743,-133,-51
8025,54,-218,-62,1908,-157,-26
8030,52,-195,-58,1974,-172,0
8035,50,-163,-50,1933,-184,24
8040,47,-139,-45,1790,-186,41
8045,40,-117,-41,1545,-179,54
8050,30,-107,-34,1223,-170,63
8055,17,-100,-25,860,-164,65
8060,7,-98,-24,490,-161,64
8065,0,-101,-11,146,-163,60
8070,-6,-117,-1,-143,-172,58
8075,-15,-135,0,-359,-182,47
8080,-19,-151,3,-499,-195,32
8085,-17,-171,-6,-566,-201,18
8090,-24,-192,-6,-574,-199,3
8095,-24,-210,-5,-536,-191,-16
8100,-26,-223,-19,-467,-179,-32
8105,-22,-232,-23,-374,-164,-48
8110,-17,-245,-27,-272,-149,-59
8115,-17,-253,-37,-172,-135,-63
8120,-11,-261,-44,-80,-124,-66
8125,-6,-268,-48,0,-118,-70
8130,-3,-271,-51,64,-117,-73
8135,1,-269,-53,111,-121,-72
8140,6,-278,-48,148,-130,-71
8145,12,-283,-51,176,-143,-68
8150,17,-287,-50,202,-156,-66
8155,20,-284,-44,223,-171,-66
8160,21,-282,-41,244,-185,-59
8165,16,-289,-43,268,-198,-51
8170,22,-275,-32,296,-210,-40
8175,26,-271,-34,332,-220,-28
8180,29,-268,-21,370,-226,-14
8185,31,-258,-21,405,-225,-5
8190,30,-253,-18,436,-220,-1
8195,29,-246,-19,454,-209,0
8200,26,-234,-27,462,-192,-3
8205,27,-231,-27,457,-170,-8
8210,22,-227,-30,436,-144,-15
8215,24,-223,-28,401,-115,-22
8220,16,-219,-28,353,-85,-31
8225,18,-220,-32,294,-55,-43
8230,17,-222,-33,230,-25,-52
8235,16,-224,-32,167,6,-60
8240,12,-230,-31,106,36,-66
8245,11,-236,-33,49,63,-77
8250,13,-239,-34,-2,87,-90
8255,12,-244,-33,-45,107,-94
8260,13,-251,-37,-77,123,-88
8265,11,-255,-36,-99,134,-73
8270,15,-256,-39,-107,140,-58
8275,15,-263,-35,-98,139,-38
8280,15,-264,-34,-80,129,-31
8285,12,-266,-32,-54,113,-21
8290,11,-265,-33,-19,92,-7
8295,10,-260,-35,25,72,7
8300,11,-261,-28,71,52,20
8305,13,-262,-31,120,30,30
8310,13,-256,-28,168,12,37
8315,14,-254,-26,210,-2,41
8320,10,-249,-25,244,-11,40
8325,9,-245,-21,269,-14,36
8330,13,-240,-19,283,-12,30
8335,12,-239,-22,287,-5,23
8340,9,-234,-22,281,6,11
8345,13,-236,-15,265,23,3
8350,9,-233,-22,244,41,-9
8355,9,-231,-21,215,59,-20
8360,8,-232,-16,184,80,-29
8365,10,-234,-15,153,101,-39
8370,10,-236,-18,126,120,-45
8375,5,-247,-8,100,134,-51
8380,6,-235,-17,82,147,-55
8385,8,-238,-18,67,157,-58
8390,8,-243,-19,57,164,-57
8395,8,-245,-19,49,169,-56
8400,6,-251,-21,46,171,-55
8405,6,-254,-18,51,173,-54
8410,3,-254,-17,59,170,-52
8415,4,-254,-19,73,167,-49
8420,4,-256,-23,89,161,-45
8425,8,-257,-24,105,154,-41
8430,10,-257,-24,121,147,-35
8435,5,-252,-23,134,139,-27
8440,9,-254,-21,146,128,-23
8445,5,-255,-23,157,117,-18
8450,6,-254,-21,162,105,-13
8455,10,-253,-28,164,95,-10
8460,6,-246,-27,162,84,-6
8465,8,-249,-18,156,75,-2
8470,7,-248,-17,154,68,1
8475,8,-248,-19,154,63,6
8480,10,-249,-20,153,62,10
8485,7,-248,-20,154,63,14
8490,9,-245,-18,150,62,16
8495,10,-245,-20,145,64,20
8500,12,-246,-15,141,65,26
8505,9,-246,-21,136,65,29
8510,10,-244,-18,127,64,30
8515,10,-244,-17,118,64,32
8520,8,-243,-20,112,62,35
8525,8,-244,-20,103,60,36
8530,10,-243,-20,95,58,38
8535,10,-245,-15,85,55,40
8540,11,-245,-15,77,52,41
8545,12,-246,-17,70,50,43
8550,12,-249,-14,65,47,41
8555,10,-246,-19,63,43,40
8560,6,-246,-15,63,42,40
8565,7,-247,-15,64,44,37
8570,7,-248,-13,67,44,35
8575,6,-250,-14,72,47,31
8580,9,-249,-17,78,51,28
8585,8,-249,-18,84,53,24
8590,7,-249,-13,86,55,21
8595,5,-249,-11,88,53,19
8600,4,-249,-15,89,54,15
8605,4,-249,-14,87,54,13
8610,4,-249,-18,87,54,12
8615,4,-249,-18,90,54,11
8620,6,-250,-17,92,56,9
8625,6,-250,-12,94,57,8
8630,3,-246,-12,96,57,7
8635,5,-248,-14,100,57,6
8640,4,-248,-16,103,55,7
8645,4,-250,-13,107,54,5
8650,6,-250,-16,111,54,5
8655,3,-251,-16,116,52,2
8660,3,-248,-17,120,50,1
8665,5,-250,-15,121,48,1
8670,8,-250,-21,120,45,0
8675,5,-246,-21,115,41,0
8680,7,-245,-18,108,34,-3
8685,9,-247,-17,99,27,-4
8690,9,-248,-20,90,22,-6
8695,9,-248,-20,80,17,-10
8700,9,-248,-21,74,12,-13
8705,7,-245,-21,69,9,-14
8710,11,-248,-22,63,5,-14
8715,10,-249,-20,60,3,-16
8720,11,-250,-15,63,3,-17
8725,11,-250,-20,66,2,-15
8730,7,-250,-22,70,0,-11
8735,7,-249,-20,76,-5,-10
8740,9,-250,-17,80,-9,-6
8745,8,-249,-17,83,-15,-6
8750,12,-248,-30,86,-20,-4
8755,5,-246,-15,86,-23,0
8760,8,-247,-18,86,-25,1
8765,7,-250,-15,86,-26,2
8770,8,-244,-20,86,-27,4
8775,8,-247,-13,84,-28,4
8780,7,-250,-14,82,-25,1
8785,9,-248,-13,78,-25,0
8790,9,-247,-15,75,-21,-3
8795,8,-249,-14,75,-18,-6
8800,10,-246,-17,76,-16,-6
8805,8,-246,-14,79,-16,-7
8810,11,-250,-15,83,-15,-7
8815,8,-248,-13,87,-16,-7
8820,8,-248,-18,92,-18,-10
8825,7,-247,-11,96,-20,-11
8830,6,-249,-11,103,-20,-13
8835,8,-250,-13,109,-23,-12
8840,9,-249,-13,118,-28,-11
8845,7,-249,-13,125,-32,-9
8850,6,-246,-16,133,-35,-9
8855,8,-249,-16,137,-43,-9
8860,9,-245,-14,142,-48,-9
8865,7,-246,-12,144,-52,-9
8870,6,-245,-17,141,-53,-8
8875,9,-244,-18,133,-55,-9
8880,6,-241,-18,123,-53,-11
8885,9,-242,-18,109,-49,-9
8890,5,-243,-21,91,-45,-10
8895,8,-245,-22,73,-42,-11
8900,11,-245,-22,54,-38,-12
8905,9,-245,-21,35,-35,-12
8910,11,-248,-22,19,-31,-13
8915,8,-247,-23,6,-26,-15
8920,13,-249,-19,-3,-23,-15
8925,8,-247,-12,-6,-21,-17
8930,8,-250,-16,-3,-19,-15
8935,10,-251,-17,6,-17,-17
8940,9,-253,-20,18,-17,-16
8945,10,-248,-18,34,-17,-14
8950,12,-250,-18,50,-18,-15
8955,8,-249,-18,66,-19,-14
8960,12,-248,-16,79,-23,-13
8965,12,-254,-17,90,-25,-13
8970,11,-248,-14,98,-27,-13
8975,13,-247,-19,103,-29,-15
8980,12,-249,-16,106,-28,-16
8985,11,-250,-15,108,-29,-18
8990,11,-250,-16,107,-26,-16
8995,11,-248,-12,107,-25,-16
9000,9,-246,-15,105,-23,-16
9005,13,-245,-13,100,-18,-16
9010,9,-248,-13,94,-14,-16
9015,6,-245,-14,88,-9,-18
9020,10,-248,-14,83,-5,-20
9025,9,-249,-15,78,-3,-19
9030,10,-250,-13,75,-1,-20
9035,8,-245,-15,75,1,-20
9040,11,-250,-16,77,2,-21
9045,11,-247,-15,82,1,-21
9050,14,-251,-16,87,1,-20
9055,9,-250,-14,90,3,-21
9060,8,-246,-15,94,4,-20
9065,11,-250,-18,98,5,-20
9070,6,-248,-14,99,5,-20
9075,8,-250,-18,98,7,-20
9080,10,-246,-16,98,7,-19
9085,10,-246,-17,94,10,-18
9090,10,-249,-14,87,12,-17
9095,13,-247,-17,79,12,-18
9100,10,-245,-19,72,13,-15
9105,13,-247,-15,64,13,-15
9110,11,-247,-13,58,14,-15
9115,10,-247,-15,53,15,-14
9120,10,-246,-13,53,16,-15
9125,8,-257,-1,51,16,-17
9130,9,-248,-11,51,17,-15
9135,9,-249,-10,50,18,-17
9140,11,-246,-10,51,18,-18
9145,8,-244,-13,52,21,-17
9150,7,-248,-15,54,21,-16
9155,9,-247,-12,55,23,-16
9160,6,-250,-8,55,24,-16
9165,10,-248,-8,56,27,-16
9170,9,-250,-9,58,28,-15
9175,6,-255,-12,60,29,-15
9180,12,-251,-12,60,28,-14
9185,10,-248,-12,61,27,-16
9190,10,-247,-10,62,28,-16
9195,9,-248,-12,62,27,-14
9200,12,-249,-15,59,27,-15
9205,9,-246,-16,58,27,-15
9210,7,-248,-13,55,27,-13
9215,11,-246,-10,54,26,-14
9220,9,-246,-16,50,24,-13
9225,11,-250,-13,46,25,-14
9230,8,-249,-15,45,24,-15
9235,8,-250,-16,46,23,-16
9240,7,-250,-16,47,23,-17
9245,11,-250,-17,47,24,-18
9250,9,-249,-15,51,25,-18
9255,8,-250,-15,50,26,-17
9260,9,-250,-13,53,28,-17
9265,11,-248,-14,53,30,-18
9270,10,-248,-15,54,33,-17
9275,10,-250,-17,55,35,-19
9280,11,-250,-14,54,38,-19
9285,7,-249,-17,55,39,-18
9290,13,-248,-14,57,39,-20
9295,12,-248,-12,60,38,-18
9300,10,-246,-15,61,35,-18
9305,12,-250,-13,62,34,-19
9310,8,-248,-14,63,32,-18
9315,9,-249,-15,63,30,-19
9320,10,-248,-11,63,29,-18
9325,11,-247,-16,65,28,-21
9330,10,-249,-10,67,28,-18
9335,9,-250,-14,66,26,-18
9340,9,-248,-12,65,25,-16
9345,9,-245,-15,63,24,-14
9350,9,-246,-13,60,25,-13
9355,10,-246,-11,56,25,-11
9360,7,-248,-14,52,26,-11
9365,10,-246,-12,48,27,-12
9370,8,-247,-11,42,27,-11
9375,9,-250,-16,37,28,-13
9380,8,-249,-14,32,26,-13
9385,10,-248,-11,31,23,-12
9390,8,-250,-12,30,21,-10
9395,10,-252,-12,29,18,-8
9400,6,-248,-9,31,17,-11
9405,5,-248,-12,34,16,-11
9410,9,-249,-9,36,15,-11
9415,9,-249,-16,41,13,-11
9420,7,-248,-12,45,13,-11
9425,3,-250,-10,49,12,-9
9430,11,-247,-8,49,14,-8
9435,12,-246,-11,52,13,-10
9440,9,-249,-9,52,12,-10
9445,9,-247,-12,49,12,-11
9450,9,-246,-16,44,12,-12
9455,7,-244,-12,40,11,-12
9460,9,-248,-15,34,12,-12
9465,8,-248,-16,25,11,-11
9470,10,-246,-11,19,13,-13
9475,9,-246,-14,11,13,-12
9480,8,-245,-11,7,15,-12
9485,12,-248,-14,3,16,-15
9490,10,-249,-12,3,16,-13
9495,8,-248,-10,4,18,-16
9500,7,-247,-14,5,17,-13
9505,9,-248,-11,8,18,-10
9510,10,-250,-9,13,17,-9
9515,8,-252,-12,16,18,-10
9520,10,-249,-16,19,16,-9
9525,8,-244,-14,18,14,-8
9530,10,-248,-12,16,14,-6
9535,12,-248,-18,14,12,-7
9540,8,-249,-14,9,13,-7
9545,9,-247,-13,6,14,-8
9550,9,-246,-23,1,15,-9
9555,9,-248,-13,0,17,-9
9560,8,-250,-13,2,19,-11
9565,10,-249,-15,5,23,-13
9570,11,-248,-16,9,27,-12
9575,8,-248,-13,12,30,-13
9580,11,-251,-16,16,33,-13
9585,11,-248,-13,22,34,-12
9590,8,-249,-17,28,32,-12
9595,13,-246,-17,30,28,-13
9600,6,-244,-15,31,24,-13
9605,7,-246,-9,31,20,-13
9610,10,-246,-13,28,17,-13
9615,11,-248,-12,27,13,-13
9620,11,-246,-14,26,12,-12
9625,7,-247,-17,28,11,-12
9630,9,-250,-17,28,10,-14
9635,8,-246,-16,29,11,-15
9640,9,-251,-16,31,12,-14
9645,10,-248,-20,31,13,-16
9650,5,-247,-12,31,14,-16
9655,7,-250,-11,30,15,-17
9660,9,-247,-16,29,16,-20
9665,12,-245,-13,28,18,-19
9670,11,-245,-11,26,18,-19
9675,12,-247,-16,24,22,-20
9680,12,-247,-18,21,24,-21
9685,11,-243,-12,15,26,-22
9690,10,-246,-16,8,28,-22
9695,11,-250,-15,3,29,-22
9700,12,-249,-21,0,31,-23
9705,12,-249,-12,-2,32,-24
9710,11,-247,-13,1,34,-22
9715,10,-248,-14,7,35,-22
9720,13,-250,-14,15,36,-20
9725,9,-245,-15,20,36,-18
9730,12,-246,-15,25,36,-18
9735,10,-249,-15,29,34,-13
9740,11,-247,-16,29,34,-12
9745,10,-246,-18,28,32,-9
9750,11,-247,-20,25,30,-9
9755,11,-247,-17,18,29,-8
9760,13,-245,-17,13,29,-9
9765,11,-248,-15,6,29,-9
9770,12,-249,-14,-1,28,-10
9775,12,-246,-20,-7,27,-10
9780,14,-250,-17,-12,26,-11
9785,11,-248,-17,-15,28,-13
9790,12,-249,-18,-17,29,-11
9795,11,-247,-19,-15,29,-13
9800,11,-247,-19,-13,29,-13
9805,8,-249,-19,-11,29,-15
9810,8,-248,-22,-9,28,-13
9815,10,-249,-25,-6,29,-13
9820,10,-248,-20,-5,29,-13
9825,10,-247,-16,-4,29,-14
9830,9,-246,-17,-4,31,-15
9835,10,-247,-19,-3,29,-14
9840,9,-247,-20,-4,29,-14
9845,7,-244,-20,-4,29,-13
9850,9,-246,-18,-3,28,-14
9855,7,-249,-20,-2,28,-15
9860,13,-247,-22,-3,26,-16
9865,10,-252,-20,0,25,-18
9870,8,-248,-20,1,23,-18
9875,13,-247,-19,3,21,-19
9880,8,-247,-20,7,21,-20
9885,10,-249,-19,10,19,-20
9890,12,-248,-23,14,16,-20
9895,9,-247,-21,18,16,-20
9900,10,-248,-19,21,15,-19
9905,8,-247,-17,23,13,-18
9910,7,-250,-19,26,11,-18
9915,10,-244,-20,30,11,-16
9920,9,-246,-21,31,10,-15
9925,15,-237,-22,27,9,-13
9930,9,-249,-16,23,8,-14
9935,7,-247,-16,19,7,-15
9940,7,-249,-20,14,5,-14
9945,9,-244,-21,9,2,-15
9950,8,-245,-20,6,-1,-14
9955,9,-248,-24,2,-3,-14
9960,9,-246,-18,-1,-4,-13
9965,11,-247,-23,-3,-5,-14
9970,9,-250,-20,-4,-6,-14
9975,12,-252,-15,-5,-5,-14
9980,8,-249,-22,-2,-6,-15
9985,13,-246,-25,-1,-4,-15
9990,8,-248,-22,0,-4,-15
9995,9,-246,-24,1,-3,-13
10000,11,-251,-20,3,-4,-13
10005,10,-250,-21,8,-3,-13
10010,12,-249,-22,10,-3,-14
10015,10,-249,-24,15,-2,-14
10020,10,-248,-19,20,-2,-14
10025,11,-248,-21,22,-1,-16
10030,11,-249,-23,23,-1,-14
10035,12,-246,-20,24,0,-16
10040,11,-245,-24,24,-1,-15
10045,10,-250,-24,23,0,-15
10050,12,-245,-19,23,-1,-15
10055,12,-246,-19,21,-2,-14
10060,9,-247,-23,19,-3,-15
10065,12,-246,-25,16,-4,-13
10070,12,-247,-19,13,-4,-14
10075,10,-247,-23,9,-7,-15
10080,11,-248,-23,9,-9,-13
10085,12,-248,-21,10,-10,-13
10090,14,-252,-23,12,-9,-13
10095,12,-245,-23,12,-10,-14
10100,12,-250,-23,14,-10,-13
10105,13,-248,-25,15,-9,-14
10110,11,-244,-26,17,-8,-15
10115,11,-248,-21,20,-6,-15
10120,12,-247,-25,21,-4,-14
10125,8,-248,-27,25,-2,-13
10130,9,-249,-23,28,0,-14
10135,10,-249,-20,32,0,-15
10140,12,-248,-21,36,-1,-15
10145,11,-249,-20,40,0,-16
10150,10,-247,-20,40,0,-17
10155,11,-246,-23,42,1,-15
10160,9,-247,-20,42,1,-14
10165,11,-248,-21,42,2,-15
10170,10,-247,-22,41,2,-16
10175,11,-248,-24,40,2,-15
10180,11,-244,-21,39,3,-15
10185,12,-248,-22,37,1,-15
10190,11,-246,-20,36,2,-13
10195,8,-246,-23,34,-1,-14
10200,8,-247,-23,34,-2,-13
10205,8,-246,-22,34,-3,-12
10210,11,-245,-23,34,-4,-13
10215,12,-247,-23,35,-4,-12
10220,12,-247,-22,36,-3,-13
10225,10,-248,-24,35,-4,-13
10230,12,-245,-22,35,-3,-13
10235,11,-247,-22,36,-1,-13
10240,12,-246,-25,36,1,-13
10245,6,-244,-25,37,2,-12
10250,9,-247,-27,37,5,-12
10255,13,-246,-22,38,6,-14
10260,13,-246,-20,38,7,-12
10265,12,-249,-21,39,8,-12
10270,12,-250,-22,41,8,-12
10275,10,-248,-23,42,8,-11
10280,10,-246,-22,45,6,-12
10285,12,-246,-26,45,5,-12
10290,12,-248,-28,46,5,-12
10295,11,-250,-25,49,5,-12
10300,9,-249,-27,51,6,-13
10305,12,-248,-25,52,9,-12
10310,11,-249,-25,54,11,-11
10315,9,-249,-21,55,12,-11
10320,10,-249,-24,58,15,-11
10325,8,-249,-24,62,17,-11
10330,10,-247,-25,65,18,-11
10335,12,-250,-24,69,18,-12
10340,11,-248,-20,70,21,-12
10345,10,-249,-23,70,20,-13
10350,22,-241,-22,70,18,-12
10355,12,-245,-25,73,16,-13
10360,9,-245,-24,74,14,-11
10365,10,-247,-21,71,11,-10
10370,11,-245,-22,72,11,-11
10375,8,-246,-23,70,10,-10
10380,13,-248,-20,71,9,-10
10385,9,-246,-22,73,8,-9
10390,14,-247,-22,76,9,-9
10395,12,-245,-24,79,10,-8
10400,11,-246,-21,81,12,-8
10405,10,-246,-20,81,12,-7
10410,11,-247,-20,78,13,-4
10415,12,-245,-21,75,13,-4
10420,11,-241,-24,69,14,-7
10425,10,-242,-23,64,14,-6
10430,13,-247,-26,57,15,-6
10435,10,-241,-22,51,15,-7
10440,11,-244,-22,47,15,-7
10445,11,-249,-21,42,15,-7
10450,10,-245,-22,41,15,-7
10455,8,-249,-22,41,14,-8
10460,10,-247,-22,44,14,-8
10465,9,-247,-22,51,15,-8
10470,7,-247,-23,57,17,-10
10475,11,-250,-20,66,16,-11
10480,12,-249,-19,76,18,-10
10485,10,-248,-21,86,19,-10
10490,10,-248,-21,94,20,-9
10495,10,-248,-19,98,22,-9
10500,12,-249,-23,100,22,-9
10505,13,-242,-22,98,23,-7
10510,10,-247,-27,94,21,-9
10515,7,-248,-25,91,21,-8
10520,9,-246,-23,85,20,-8
10525,10,-246,-26,77,20,-7
10530,10,-249,-24,71,19,-9
10535,10,-251,-24,67,19,-8
10540,7,-248,-23,65,19,-10
10545,9,-249,-27,64,19,-11
10550,10,-249,-23,67,19,-12
10555,11,-249,-22,69,18,-11
10560,8,-252,-26,73,18,-12
10565,10,-250,-19,78,19,-10
10570,7,-247,-24,81,18,-10
10575,11,-246,-22,88,19,-10
10580,8,-249,-23,95,18,-10
10585,11,-246,-21,99,19,-9
10590,10,-247,-21,103,18,-10
10595,8,-246,-22,108,19,-10
10600,11,-245,-22,109,19,-7
10605,7,-246,-21,110,20,-9
10610,12,-247,-23,108,19,-9
10615,11,-245,-21,107,18,-9
10620,10,-246,-22,103,17,-10
10625,9,-248,-22,100,15,-11
10630,9,-242,-19,98,14,-10
10635,7,-248,-20,96,13,-10
10640,10,-246,-19,94,11,-9
10645,10,-247,-20,94,10,-9
10650,9,-246,-19,94,10,-11
10655,10,-250,-18,94,11,-11
10660,7,-248,-20,93,12,-9
10665,7,-245,-22,94,12,-8
10670,8,-246,-22,94,13,-6
10675,11,-253,-20,95,14,-6
10680,9,-247,-23,99,13,-5
10685,10,-246,-22,100,16,-6
10690,8,-245,-22,100,15,-7
10695,11,-247,-19,99,15,-7
10700,11,-252,-22,99,15,-7
10705,11,-250,-18,95,14,-8
10710,11,-245,-23,91,11,-8
10715,13,-245,-21,85,10,-9
10720,11,-249,-21,81,9,-8
10725,14,-246,-26,77,8,-8
10730,10,-244,-25,73,6,-7
10735,12,-248,-18,70,7,-7
10740,13,-248,-20,66,6,-7
10745,9,-247,-22,65,5,-8
10750,8,-246,-26,62,7,-7
10755,7,-246,-22,60,9,-7
10760,11,-248,-27,57,11,-7
10765,10,-248,-20,54,11,-8
10770,11,-251,-21,50,14,-8
10775,14,-245,-9,47,13,-8
10780,11,-250,-23,46,14,-11
10785,9,-248,-21,46,16,-12
10790,8,-247,-22,48,18,-13
10795,9,-249,-15,52,18,-13
10800,11,-249,-18,58,18,-14
10805,10,-249,-16,63,18,-13
10810,9,-248,-17,69,18,-14
10815,9,-248,-19,71,20,-14
10820,10,-249,-16,75,19,-14
10825,9,-246,-15,78,20,-13
10830,6,-248,-20,79,17,-14
10835,9,-245,-16,79,15,-14
10840,13,-247,-20,78,13,-13
10845,10,-245,-20,75,10,-13
10850,11,-246,-20,73,8,-12
10855,9,-247,-20,69,4,-14
10860,11,-245,-24,66,3,-14
10865,7,-246,-19,65,1,-14
10870,11,-249,-22,65,1,-14
10875,10,-248,-20,63,-1,-15
10880,9,-246,-21,64,-1,-13
10885,9,-246,-19,64,0,-14
10890,9,-246,-18,66,2,-16
10895,8,-249,-17,68,5,-14
10900,11,-248,-22,69,8,-16
10905,10,-248,-19,70,10,-13
10910,9,-250,-17,73,12,-13
10915,12,-248,-20,76,13,-13
10920,11,-249,-19,79,14,-12
10925,11,-246,-20,82,15,-15
10930,9,-249,-13,85,15,-15
10935,10,-249,-20,87,17,-15
10940,12,-247,-18,88,16,-15
10945,11,-245,-19,86,15,-16
10950,12,-247,-17,83,13,-15
10955,12,-249,-18,79,13,-15
10960,14,-249,-19,75,13,-15
10965,12,-248,-20,71,13,-14
10970,12,-245,-16,65,13,-14
10975,10,-241,-20,60,12,-15
10980,12,-246,-17,56,13,-13
10985,10,-247,-19,53,13,-13
10990,10,-247,-20,52,13,-12
10995,10,-245,-19,51,14,-13
11000,10,-248,-21,49,16,-14
11005,10,-249,-19,51,16,-13
11010,12,-248,-19,52,16,-15
11015,9,-248,-17,56,17,-13
11020,9,-249,-19,57,17,-13
11025,10,-246,-16,60,16,-14
11030,11,-250,-16,63,17,-14
11035,10,-247,-20,66,18,-14
11040,12,-249,-18,68,19,-14
11045,11,-249,-16,67,19,-13
11050,9,-247,-15,68,18,-14
11055,10,-248,-17,67,19,-15
11060,7,-249,-18,66,18,-14
11065,11,-247,-14,64,16,-15
11070,10,-247,-20,61,17,-13
11075,12,-249,-16,59,16,-14
11080,14,-237,-25,56,15,-13
11085,9,-243,-11,55,15,-12
11090,11,-249,-21,54,14,-13
11095,12,-249,-18,54,12,-12
11100,11,-246,-19,53,12,-12
11105,13,-252,-19,53,11,-12
11110,11,-248,-18,55,11,-12
11115,9,-247,-20,55,10,-12
11120,10,-249,-20,57,10,-12
11125,9,-246,-17,61,10,-13
11130,12,-249,-19,63,11,-13
11135,11,-249,-16,65,13,-12
11140,8,-248,-19,66,15,-12
11145,7,-251,-20,69,18,-13
11150,11,-250,-20,73,20,-13
11155,12,-250,-18,78,23,-12
11160,10,-248,-17,82,26,-12
11165,9,-253,-20,85,28,-15
11170,8,-245,-16,89,29,-14
11175,10,-248,-17,90,29,-12
11180,12,-248,-18,93,30,-13
11185,9,-243,-18,93,28,-14
11190,7,-245,-22,92,27,-13
11195,11,-249,-17,89,25,-13
11200,8,-247,-20,84,22,-15
11205,11,-245,-20,80,20,-15
11210,9,-244,-19,78,17,-16
11215,10,-248,-17,78,16,-18
11220,11,-248,-19,79,12,-18
11225,10,-250,-19,80,11,-15
11230,10,-245,-19,81,10,-16
11235,11,-245,-19,82,11,-15
11240,12,-243,-20,84,12,-15
11245,11,-247,-18,85,13,-15
11250,13,-248,-18,83,13,-15
11255,12,-247,-20,78,15,-15
11260,11,-249,-17,71,14,-14
11265,10,-244,-18,61,15,-14
11270,10,-246,-19,51,15,-16
11275,9,-248,-16,41,14,-13
11280,10,-244,-18,33,15,-15
11285,7,-249,-21,28,14,-18
11290,10,-249,-17,28,16,-18
11295,11,-249,-17,30,17,-18
11300,10,-252,-20,38,20,-21
11305,12,-249,-12,46,22,-21
11310,9,-247,-19,56,23,-21
11315,11,-251,-19,67,23,-21
11320,12,-249,-19,77,23,-20
11325,13,-247,-18,82,22,-19
11330,13,-246,-22,87,21,-16
11335,14,-248,-21,87,17,-16
11340,12,-246,-20,83,16,-13
11345,12,-245,-17,80,12,-14
11350,12,-245,-18,72,11,-14
11355,9,-247,-19,64,10,-13
11360,10,-245,-16,55,9,-15
11365,12,-246,-18,47,9,-14
11370,10,-247,-13,43,9,-14
11375,8,-250,-16,38,8,-15
11380,12,-247,-17,38,8,-13
11385,8,-248,-15,39,8,-16
11390,9,-248,-19,40,9,-14
11395,10,-250,-19,44,12,-14
11400,10,-249,-14,50,13,-14
11405,9,-247,-20,56,13,-16
11410,9,-247,-17,61,15,-16
11415,13,-250,-17,67,17,-15
11420,13,-248,-16,71,18,-15
11425,13,-248,-18,73,20,-16
11430,11,-248,-17,74,20,-15
11435,10,-248,-17,74,21,-12
11440,10,-246,-14,74,19,-12
11445,13,-249,-18,72,18,-12
11450,11,-249,-17,72,15,-12
11455,9,-245,-17,72,15,-12
11460,11,-245,-17,70,14,-12
11465,13,-249,-16,69,11,-14
11470,12,-246,-20,69,10,-12
11475,9,-248,-14,68,11,-12
11480,11,-249,-16,67,9,-11
11485,12,-250,-18,68,10,-13
11490,13,-248,-18,70,11,-13
11495,8,-248,-17,73,11,-11
11500,13,-250,-17,76,14,-9
11505,11,-249,-16,82,14,-9
11510,7,-248,-14,86,15,-10
11515,10,-248,-15,88,16,-11
11520,12,-249,-21,90,17,-12
11525,11,-252,-22,90,18,-10
11530,11,-249,-20,88,18,-10
11535,10,-249,-15,84,16,-10
11540,12,-248,-18,79,15,-10
11545,10,-245,-16,74,14,-10
11550,11,-248,-15,68,13,-11
11555,10,-247,-17,63,13,-9
11560,11,-249,-16,59,10,-10
11565,12,-248,-13,56,10,-11
11570,10,-249,-18,54,10,-11
11575,7,-242,-27,54,9,-11
11580,12,-247,-10,52,8,-11
11585,11,-247,-18,50,10,-12
11590,11,-248,-17,51,9,-13
11595,8,-248,-15,51,8,-11
11600,13,-250,-18,53,8,-12
11605,10,-247,-16,53,8,-13
11610,12,-249,-17,55,7,-11
11615,8,-247,-19,57,10,-13
11620,9,-247,-17,60,11,-13
11625,10,-248,-16,64,12,-14
11630,7,-247,-22,69,13,-13
11635,12,-247,-17,74,13,-15
11640,9,-248,-19,76,14,-15
11645,10,-246,-17,79,14,-15
11650,13,-247,-20,80,14,-14
11655,12,-244,-15,81,12,-13
11660,13,-244,-18,81,12,-14
11665,16,-248,-17,81,11,-14
11670,11,-248,-17,76,11,-15
11675,12,-247,-19,71,11,-14
11680,13,-248,-20,65,9,-15
11685,15,-248,-20,61,7,-15
11690,13,-246,-19,55,5,-15
11695,14,-247,-21,49,5,-15
11700,15,-249,-20,46,5,-14
11705,14,-248,-17,43,5,-15
11710,10,-246,-17,43,5,-13
11715,11,-252,-17,44,7,-13
11720,7,-249,-17,47,7,-14
11725,10,-250,-16,52,9,-13
11730,12,-252,-19,57,13,-15
11735,12,-249,-17,63,17,-12
11740,12,-250,-16,69,16,-12
11745,12,-250,-17,77,16,-13
11750,9,-250,-18,81,17,-11
11755,11,-247,-14,86,18,-11
11760,7,-247,-17,89,16,-11
11765,12,-249,-16,92,16,-10
11770,10,-247,-18,93,15,-11
11775,11,-248,-17,94,14,-8
11780,15,-247,-12,95,14,-8
11785,12,-247,-11,96,13,-9
11790,12,-247,-20,93,12,-9
11795,12,-245,-14,91,10,-10
11800,13,-250,-12,90,11,-8
11805,9,-248,-16,90,9,-8
11810,12,-250,-15,88,10,-10
11815,8,-247,-18,87,9,-10
11820,8,-246,-17,86,10,-12
11825,13,-248,-18,84,12,-11
11830,11,-248,-17,81,13,-10
11835,9,-248,-15,79,14,-12
11840,10,-246,-11,77,15,-12
11845,11,-250,-21,75,17,-13
11850,12,-249,-16,72,15,-13
11855,13,-247,-17,70,17,-13
11860,11,-249,-16,67,16,-14
11865,11,-248,-14,65,18,-16
11870,11,-247,-18,65,18,-14
11875,16,-250,-13,64,17,-13
11880,11,-250,-16,63,17,-14
11885,12,-250,-16,62,17,-16
11890,10,-249,-15,60,18,-15
11895,8,-247,-20,59,18,-13
11900,12,-250,-15,59,21,-16
11905,11,-251,-20,61,21,-13
11910,10,-246,-16,61,19,-14
11915,11,-246,-15,62,20,-14
11920,12,-247,-14,64,20,-15
11925,10,-250,-17,66,20,-14
11930,12,-250,-16,67,18,-14
11935,12,-250,-14,71,17,-14
11940,12,-250,-14,75,16,-15
11945,12,-247,-22,79,15,-14
11950,14,-229,-17,82,14,-12
11955,9,-247,-13,84,15,-13
11960,9,-248,-13,86,13,-11
11965,14,-251,-11,87,13,-10
11970,13,-246,-16,87,12,-10
11975,10,-247,-15,83,12,-10
11980,12,-247,-16,81,13,-10
11985,13,-247,-17,79,12,-8
11990,15,-252,-11,77,12,-8
11995,10,-249,-15,76,10,-9
