timestamp,acc_x,acc_y,acc_z,gyro_x,gyro_y,gyro_z
0,6,-244,115,-23,62,11
5,6,-242,116,-23,59,10
10,6,-242,118,-22,58,10
15,4,-245,114,-20,57,11
20,6,-244,114,-20,56,11
25,7,-244,115,-20,55,11
30,4,-241,111,-19,56,11
35,4,-245,114,-21,56,9
40,5,-245,117,-24,55,9
45,5,-242,110,-26,57,10
50,8,-245,117,-25,58,10
55,4,-245,116,-24,58,10
60,4,-242,113,-21,59,9
65,4,-244,111,-21,59,7
70,6,-243,113,-23,59,7
75,4,-244,110,-24,61,8
80,4,-240,114,-24,62,7
85,5,-247,113,-25,64,5
90,5,-246,113,-25,66,4
95,6,-245,113,-24,67,3
100,4,-243,111,-23,69,2
105,2,-245,111,-23,70,0
110,5,-245,111,-20,72,-2
115,-2,-244,111,-19,71,-1
120,4,-243,117,-17,72,0
125,7,-245,113,-14,70,1
130,4,-240,114,-12,74,-2
135,5,-246,115,-7,77,-3
140,4,-244,116,1,74,-2
145,5,-245,113,3,73,-4
150,4,-244,111,-2,79,-5
155,7,-246,115,-7,85,-3
160,4,-242,117,-10,90,-4
165,4,-240,109,-4,88,-5
170,4,-243,114,0,86,-7
175,4,-245,115,3,86,-5
180,4,-245,116,1,83,-2
185,8,-245,109,-2,80,-2
190,6,-245,115,-10,82,-1
195,6,-244,114,-14,88,-3
200,4,-244,114,-15,92,-5
205,4,-244,116,-11,94,-6
210,2,-244,118,-4,92,-6
215,4,-243,116,0,90,-7
220,3,-245,116,5,88,-6
225,4,-245,111,5,88,-7
230,6,-243,110,4,89,-8
235,4,-246,116,3,91,-9
240,2,-243,119,0,95,-9
245,2,-243,113,-2,95,-11
250,-1,-241,116,-1,93,-11
255,-2,-246,113,-1,90,-12
260,3,-243,110,0,89,-12
265,2,-246,108,-2,89,-11
270,4,-246,114,-4,89,-9
275,3,-245,113,-4,88,-10
280,2,-244,113,-4,86,-6
285,5,-245,114,-3,86,-4
290,-1,-244,112,-1,84,-2
295,4,-245,115,2,77,-1
300,4,-242,117,4,74,-1
305,2,-243,111,3,75,-1
310,5,-241,117,2,79,-2
315,5,-241,110,1,80,-3
320,4,-238,115,1,82,-4
325,4,-242,113,-1,88,-4
330,5,-238,120,-2,95,-6
335,4,-242,121,-4,101,-7
340,4,-243,116,-8,103,-6
345,4,-244,115,-8,100,-6
350,4,-244,119,-4,93,-3
355,2,-245,113,-2,87,-3
360,4,-245,113,-2,86,-3
365,5,-248,111,-6,90,-3
370,4,-242,114,-10,93,-3
375,4,-244,116,-12,94,-2
380,5,-244,119,-10,94,-3
385,5,-243,116,-5,96,-3
390,3,-244,119,-3,98,-3
395,2,-244,118,-1,100,-1
400,4,-242,117,1,101,-1
405,4,-246,116,3,100,-2
410,4,-243,115,4,100,-2
415,6,-241,113,2,100,-2
420,6,-242,119,-4,103,-1
425,8,-241,113,-9,111,-3
430,5,-241,118,-16,121,-4
435,7,-244,119,-22,132,-3
440,5,-244,113,-23,138,-4
445,3,-247,117,-22,142,-1
450,4,-247,118,-18,144,-1
455,4,-247,117,-15,141,1
460,0,-242,117,-11,136,5
465,4,-246,112,-7,132,5
470,-1,-244,111,-4,128,7
475,-1,-244,113,-5,128,6
480,-2,-245,114,-8,124,7
485,-2,-247,115,-7,120,6
490,-2,-245,113,-5,113,8
495,0,-248,112,-6,104,13
500,-5,-245,112,-6,97,17
505,-3,-243,112,-2,90,17
510,-8,-243,110,7,79,17
515,-6,-249,114,15,72,17
520,-5,-245,115,20,66,20
525,-3,-243,113,27,59,22
530,-5,-246,111,33,55,22
535,-11,-245,114,36,50,25
540,-9,-251,115,43,38,30
545,-17,-248,108,50,23,35
550,-19,-248,113,57,2,44
555,-19,-246,109,64,-16,54
560,-24,-246,110,74,-33,63
565,-23,-247,112,91,-58,69
570,-7,-242,106,106,-82,75
575,3,-239,102,108,-100,76
580,5,-239,104,89,-98,75
585,2,-235,108,56,-71,71
590,3,-231,104,17,-35,64
595,1,-237,117,-17,-1,61
600,2,-242,120,-39,27,58
605,-2,-242,124,-48,49,59
610,-1,-246,124,-44,65,62
615,4,-246,125,-30,72,63
620,3,-248,119,-10,74,62
625,3,-247,117,11,66,56
630,1,-244,110,25,58,50
635,3,-246,118,27,49,47
640,-1,-249,110,23,38,41
645,-4,-246,112,13,29,38
650,-5,-247,112,7,19,32
655,-6,-248,112,4,9,29
660,-7,-250,116,10,-2,25
665,-5,-244,115,21,-15,24
670,-11,-246,117,32,-25,24
675,-5,-240,116,42,-35,26
680,-3,-244,113,49,-39,30
685,-5,-242,115,54,-40,35
690,-1,-241,112,54,-43,41
695,1,-243,110,51,-45,49
700,1,-240,109,45,-45,56
705,1,-241,113,36,-47,65
710,0,-241,109,26,-46,76
715,0,-240,113,18,-44,85
720,2,-243,112,14,-41,90
725,0,-239,114,15,-37,97
730,1,-242,112,17,-36,101
735,-3,-243,113,21,-34,104
740,2,-245,115,27,-35,104
745,-1,-243,115,33,-35,105
750,1,-241,114,36,-38,105
755,-3,-243,117,41,-40,103
760,-3,-244,116,45,-46,100
765,-3,-244,115,51,-50,98
770,-2,-241,113,54,-54,95
775,6,-240,117,57,-58,92
780,14,-240,117,54,-59,90
785,11,-242,120,48,-51,82
790,12,-238,122,48,-44,73
795,13,-238,123,59,-37,61
800,16,-237,123,76,-29,48
805,17,-234,120,89,-17,32
810,18,-234,121,92,0,16
815,15,-235,125,83,23,3
820,13,-235,124,68,43,-6
825,13,-239,125,53,62,-11
830,9,-241,128,43,73,-9
835,7,-247,127,46,77,-11
840,6,-247,125,64,70,-12
845,7,-248,126,86,55,-12
850,5,-246,120,99,43,-9
855,5,-247,122,102,30,-1
860,4,-242,117,98,17,10
865,3,-244,122,93,4,17
870,4,-241,116,94,-6,22
875,2,-241,120,95,-13,27
880,5,-242,119,94,-18,29
885,4,-238,119,92,-22,30
890,4,-238,116,85,-24,31
895,0,-236,119,73,-16,33
900,4,-236,115,61,-9,31
905,4,-234,117,49,2,30
910,3,-238,117,38,13,28
915,4,-235,119,30,27,23
920,2,-233,119,26,40,17
925,3,-233,118,21,53,9
930,4,-234,121,17,67,0
935,4,-237,119,12,79,-7
940,3,-241,121,7,92,-16
945,4,-242,120,3,102,-24
950,4,-240,125,3,110,-34
955,1,-241,124,2,118,-43
960,2,-239,123,5,123,-52
965,4,-243,118,5,127,-61
970,1,-240,122,7,127,-67
975,0,-238,119,10,127,-74
980,2,-241,119,15,125,-77
985,0,-241,120,19,121,-79
990,2,-245,123,26,117,-79
995,1,-241,124,32,115,-78
1000,1,-243,125,38,112,-74
1005,4,-238,125,43,108,-71
1010,-4,-241,123,50,106,-67
1015,1,-240,124,54,106,-61
1020,3,-237,124,56,105,-53
1025,-1,-239,124,59,105,-46
1030,-2,-236,123,58,104,-40
1035,-1,-235,121,52,104,-35
1040,1,-236,124,47,104,-31
1045,-6,-234,121,43,105,-24
1050,0,-233,118,40,105,-22
1055,-4,-238,122,36,108,-20
1060,-7,-234,122,32,109,-20
1065,-4,-235,124,27,111,-21
1070,-1,-238,120,22,112,-21
1075,-1,-237,125,16,114,-22
1080,-4,-235,118,12,114,-24
1085,-9,-236,119,8,115,-25
1090,-5,-237,124,6,117,-28
1095,-5,-240,119,5,116,-29
1100,-4,-241,123,4,117,-28
1105,-4,-240,123,4,116,-30
1110,-5,-240,129,6,114,-30
1115,-2,-240,123,9,112,-30
1120,0,-240,119,12,112,-30
1125,0,-240,125,15,111,-30
1130,-3,-238,123,17,112,-33
1135,3,-237,124,19,111,-34
1140,3,-240,125,20,113,-33
1145,1,-237,124,19,115,-33
1150,4,-240,125,20,116,-35
1155,2,-236,124,20,116,-32
1160,1,-237,126,19,117,-31
1165,1,-237,125,18,119,-31
1170,4,-237,127,20,118,-28
1175,4,-238,126,19,121,-26
1180,5,-235,124,19,123,-26
1185,4,-238,125,17,127,-25
1190,4,-237,123,15,131,-23
1195,4,-240,128,11,132,-22
1200,4,-236,126,9,134,-19
1205,2,-239,127,5,135,-16
1210,4,-239,126,3,134,-11
1215,-1,-239,120,1,133,-7
1220,1,-238,123,0,131,-4
1225,0,-238,122,2,125,-1
1230,-1,-238,124,3,119,0
1235,-3,-241,122,5,112,3
1240,0,-240,121,5,104,5
1245,-4,-240,123,3,98,6
1250,-3,-241,123,4,95,6
1255,0,-242,122,5,91,4
1260,0,-240,127,8,89,3
1265,-1,-238,124,14,87,1
1270,0,-241,122,21,88,0
1275,-2,-240,123,27,90,-4
1280,-2,-240,122,32,91,-7
1285,1,-241,125,35,93,-9
1290,0,-237,122,37,96,-13
1295,1,-238,124,35,97,-18
1300,1,-237,124,33,101,-20
1305,2,-237,125,27,105,-21
1310,3,-240,125,22,109,-21
1315,-1,-240,124,17,109,-26
1320,2,-236,125,14,110,-29
1325,-1,-233,120,11,111,-31
1330,-3,-237,123,9,112,-33
1335,2,-238,127,8,113,-34
1340,1,-240,123,8,112,-35
1345,3,-235,122,6,109,-36
1350,2,-238,122,3,105,-36
1355,-2,-236,122,0,101,-36
1360,3,-237,125,-4,97,-36
1365,-1,-234,125,-7,93,-38
1370,4,-239,124,-10,88,-36
1375,4,-239,124,-12,87,-36
1380,0,-236,125,-12,83,-33
1385,3,-236,124,-9,78,-33
1390,4,-237,127,-9,75,-31
1395,-1,-233,124,-7,72,-27
1400,1,-238,123,-6,70,-25
1405,-1,-236,124,-7,68,-22
1410,3,-236,126,-8,68,-19
1415,0,-235,122,-8,65,-16
1420,-1,-236,125,-10,65,-13
1425,-1,-238,121,-11,64,-13
1430,-2,-237,124,-11,62,-9
1435,1,-234,123,-10,62,-7
1440,0,-231,125,-8,62,-5
1445,1,-239,126,-6,62,-5
1450,-1,-238,125,-4,62,-4
1455,-3,-237,125,-2,63,-4
1460,1,-240,124,-1,63,-5
1465,-2,-237,126,-1,64,-4
1470,-1,-235,127,-2,63,-6
1475,2,-238,126,-2,63,-8
1480,-1,-236,125,-5,65,-9
1485,2,-237,124,-6,65,-11
1490,2,-236,126,-7,65,-11
1495,-2,-236,127,-7,65,-13
1500,2,-238,126,-5,65,-13
1505,3,-237,127,-3,67,-13
1510,3,-239,124,-3,65,-14
1515,3,-240,126,-2,64,-13
1520,2,-237,124,-3,64,-14
1525,2,-235,126,-7,63,-14
1530,1,-236,125,-12,65,-11
1535,4,-237,123,-17,66,-11
1540,4,-239,124,-19,66,-10
1545,3,-237,126,-20,66,-10
1550,6,-239,129,-18,66,-7
1555,1,-237,127,-17,68,-6
1560,-2,-236,124,-18,67,-5
1565,3,-239,124,-18,67,-4
1570,-1,-239,122,-16,69,-2
1575,-1,-238,128,-13,69,1
1580,0,-238,129,-10,69,1
1585,2,-237,127,-7,68,2
1590,3,-237,125,-5,66,3
1595,-1,-240,130,-3,65,3
1600,1,-239,126,-2,64,3
1605,-4,-237,124,-2,63,3
1610,-3,-241,125,-5,61,4
1615,-1,-241,123,-5,60,3
1620,-4,-239,125,-5,58,3
1625,-1,-245,126,-2,58,2
1630,-4,-235,126,1,56,2
1635,2,-238,122,4,52,3
1640,-1,-237,122,6,49,4
1645,-1,-235,124,6,48,3
1650,0,-234,118,5,45,4
1655,-6,-237,117,0,45,4
1660,0,-237,126,-5,44,5
1665,3,-237,122,-7,43,5
1670,3,-233,126,-9,42,6
1675,0,-232,124,-15,43,7
1680,3,-235,125,-17,43,9
1685,2,-236,117,-16,43,11
1690,4,-234,124,-16,43,12
1695,2,-233,121,-17,44,11
1700,4,-236,125,-21,44,13
1705,4,-237,122,-29,45,15
1710,4,-235,125,-38,44,15
1715,4,-240,123,-45,46,14
1720,4,-238,127,-48,46,15
1725,5,-238,122,-49,48,14
1730,5,-241,126,-49,46,13
1735,5,-242,127,-49,48,10
1740,5,-243,125,-50,49,8
1745,4,-240,125,-47,49,7
1750,5,-242,121,-44,50,5
1755,5,-238,125,-43,51,4
1760,4,-241,126,-40,52,5
1765,4,-239,127,-36,51,3
1770,5,-243,127,-33,51,3
1775,4,-239,125,-27,51,4
1780,5,-239,123,-23,53,5
1785,3,-241,125,-20,54,5
1790,4,-237,124,-18,57,5
1795,2,-237,125,-18,58,6
1800,1,-233,121,-19,61,5
1805,2,-239,125,-19,62,5
1810,4,-238,123,-22,64,5
1815,4,-238,121,-26,66,4
1820,0,-237,122,-31,67,2
1825,2,-239,125,-36,66,0
1830,3,-238,123,-40,67,0
1835,0,-235,125,-43,69,0
1840,-1,-238,122,-45,71,-2
1845,2,-238,128,-47,72,0
1850,2,-240,126,-49,71,0
1855,4,-244,124,-50,70,3
1860,4,-241,124,-50,66,4
1865,-2,-241,123,-49,63,5
1870,4,-241,126,-45,57,8
1875,2,-243,126,-43,51,12
1880,5,-243,124,-42,45,16
1885,4,-239,124,-41,38,19
1890,3,-244,123,-36,36,20
1895,2,-243,127,-31,32,23
1900,1,-242,127,-25,28,26
1905,4,-245,123,-18,21,31
1910,3,-238,125,-13,17,35
1915,3,-238,124,-10,13,38
1920,4,-240,124,-10,12,40
1925,3,-242,122,-7,9,41
1930,4,-239,118,-7,6,40
1935,2,-239,119,-9,3,39
1940,2,-236,119,-14,2,37
1945,4,-239,118,-23,0,36
1950,1,-236,120,-33,-4,38
1955,2,-238,122,-46,-6,39
1960,-2,-240,121,-58,-7,39
1965,1,-242,121,-67,-12,39
1970,-3,-242,118,-74,-14,36
1975,-2,-246,116,-80,-17,35
1980,0,-247,108,-90,-20,31
1985,3,-239,112,-104,-24,30
1990,-4,-244,105,-122,-28,30
1995,-5,-244,105,-145,-34,32
2000,-3,-246,99,-167,-42,38
2005,-2,-246,99,-188,-48,40
2010,-1,-250,97,-205,-53,42
2015,-4,-248,100,-217,-61,42
2020,-4,-249,93,-223,-69,40
2025,-1,-249,96,-225,-76,38
2030,0,-246,91,-226,-84,37
2035,0,-247,90,-227,-89,33
2040,2,-247,86,-224,-92,32
2045,-1,-244,83,-223,-94,27
2050,3,-246,82,-224,-95,22
2055,0,-243,85,-229,-94,17
2060,4,-243,81,-237,-93,10
2065,5,-239,78,-247,-91,2
2070,4,-238,75,-257,-87,-5
2075,4,-234,73,-269,-80,-16
2080,4,-229,71,-282,-76,-25
2085,4,-228,70,-294,-73,-35
2090,6,-232,74,-303,-73,-44
2095,4,-227,66,-311,-75,-55
2100,6,-224,65,-319,-75,-65
2105,7,-220,63,-330,-71,-77
2110,11,-218,61,-348,-68,-89
2115,10,-220,55,-367,-65,-101
2120,11,-216,53,-391,-63,-110
2125,10,-214,52,-413,-63,-119
2130,10,-208,49,-430,-61,-126
2135,12,-207,48,-443,-59,-135
2140,9,-201,45,-450,-56,-144
2145,9,-194,43,-457,-52,-152
2150,13,-190,43,-464,-47,-161
2155,16,-187,40,-475,-43,-172
2160,14,-179,37,-491,-40,-182
2165,15,-174,32,-509,-36,-192
2170,19,-167,33,-531,-35,-199
2175,16,-167,27,-557,-36,-208
2180,20,-163,30,-586,-39,-218
2185,21,-157,28,-616,-42,-228
2190,21,-152,27,-646,-43,-232
2195,25,-151,22,-677,-42,-234
2200,25,-146,24,-707,-40,-239
2205,25,-141,20,-735,-36,-246
2210,29,-139,19,-765,-25,-251
2215,27,-133,12,-796,-12,-262
2220,24,-131,11,-837,5,-283
2225,24,-129,9,-885,21,-300
2230,20,-128,13,-938,41,-314
2235,20,-132,12,-989,58,-325
2240,19,-132,20,-1033,76,-334
2245,14,-131,26,-1072,91,-336
2250,7,-133,28,-1104,99,-331
2255,4,-134,25,-1134,106,-321
2260,4,-142,27,-1166,106,-302
2265,5,-144,23,-1209,100,-278
2270,8,-152,18,-1262,92,-260
2275,13,-161,17,-1313,83,-244
2280,5,-168,21,-1354,77,-230
2285,8,-179,16,-1387,70,-215
2290,7,-188,14,-1410,59,-194
2295,6,-192,15,-1424,47,-171
2300,8,-196,18,-1432,28,-144
2305,9,-203,20,-1435,12,-120
2310,7,-209,27,-1429,-6,-99
2315,4,-213,28,-1407,-31,-80
2320,8,-218,32,-1371,-58,-61
2325,9,-222,34,-1340,-73,-43
2330,18,-225,45,-1313,-86,-28
2335,21,-229,50,-1275,-95,-18
2340,19,-233,53,-1228,-102,-18
2345,16,-234,52,-1185,-112,-18
2350,14,-236,58,-1143,-131,-18
2355,11,-241,56,-1104,-165,-18
2360,17,-244,54,-1078,-203,-23
2365,14,-251,58,-1061,-237,-31
2370,20,-255,53,-1048,-264,-46
2375,17,-257,51,-1031,-284,-64
2380,16,-264,52,-1013,-300,-84
2385,14,-269,57,-995,-306,-95
2390,10,-279,61,-975,-301,-100
2395,11,-287,62,-947,-290,-92
2400,18,-294,62,-905,-276,-72
2405,13,-295,56,-854,-255,-47
2410,9,-299,54,-802,-225,-17
2415,7,-298,52,-745,-195,25
2420,17,-313,48,-691,-161,93
2425,17,-317,59,-643,-136,133
2430,14,-317,65,-575,-113,162
2435,19,-320,69,-477,-82,204
2440,17,-318,75,-355,-45,255
2445,21,-321,80,-219,-4,306
2450,28,-315,85,-70,29,342
2455,32,-314,85,78,52,359
2460,33,-306,77,209,62,354
2465,34,-298,67,313,55,339
2470,29,-288,63,388,42,321
2475,31,-275,60,436,27,294
2480,25,-269,54,485,9,261
2485,18,-264,59,528,-8,229
2490,15,-267,46,568,-24,200
2495,9,-262,52,589,-31,170
2500,12,-268,46,589,-36,152
2505,10,-273,55,560,-42,149
2510,-2,-278,62,529,-49,157
2515,13,-294,66,508,-54,183
2520,18,-301,73,486,-71,209
2525,4,-306,78,485,-91,232
2530,7,-311,79,509,-119,269
2535,17,-312,76,546,-148,290
2540,-24,-313,68,601,-171,285
2545,-10,-315,56,632,-175,361
2550,2,-316,55,640,-179,450
2555,4,-315,65,654,-180,496
2560,5,-316,59,717,-173,526
2565,11,-316,63,799,-159,557
2570,18,-315,64,892,-146,571
2575,18,-312,62,1008,-143,563
2580,23,-310,67,1109,-150,549
2585,29,-297,74,1206,-176,524
2590,16,-294,66,1311,-219,480
2595,21,-292,68,1391,-269,456
2600,22,-285,63,1459,-320,423
2605,20,-280,67,1519,-375,374
2610,20,-284,64,1577,-437,338
2615,19,-279,68,1619,-484,318
2620,17,-276,70,1665,-519,290
2625,8,-271,71,1715,-558,256
2630,8,-280,68,1748,-599,245
2635,7,-272,68,1742,-617,240
2640,-1,-267,77,1730,-625,232
2645,3,-265,84,1719,-629,228
2650,-24,-258,76,1721,-639,207
2655,-15,-264,86,1713,-636,224
2660,-21,-265,85,1702,-628,226
2665,-8,-257,101,1693,-618,214
2670,-34,-262,90,1705,-615,184
2675,-32,-256,98,1701,-590,184
2680,-37,-253,100,1702,-562,175
2685,-32,-248,104,1701,-532,154
2690,-15,-237,115,1700,-507,120
2695,-24,-229,112,1702,-486,59
2700,-10,-227,111,1698,-439,32
2705,-5,-220,120,1689,-394,-10
2710,18,-212,129,1676,-346,-54
2715,3,-222,116,1662,-315,-115
2720,11,-220,128,1609,-258,-129
2725,15,-221,131,1553,-206,-160
2730,9,-218,136,1511,-163,-210
2735,2,-221,124,1476,-132,-247
2740,14,-231,130,1426,-89,-255
2745,24,-231,141,1366,-29,-268
2750,1,-234,147,1334,19,-312
2755,6,-250,145,1315,57,-315
2760,5,-248,150,1280,108,-328
2765,-15,-246,152,1256,162,-365
2770,-33,-255,152,1265,196,-400
2775,-18,-258,166,1276,231,-382
2780,-47,-268,181,1323,268,-402
2785,-65,-287,193,1431,280,-434
2790,-48,-292,196,1567,286,-419
2795,-42,-289,218,1724,304,-428
2800,-55,-315,200,1927,313,-449
2805,-40,-310,206,2087,339,-422
2810,-60,-308,194,2237,374,-460
2815,-34,-297,203,2358,409,-457
2820,-21,-268,218,2456,443,-504
2825,-18,-277,185,2545,454,-515
2830,3,-248,196,2538,500,-491
2835,2,-244,192,2538,532,-522
2840,6,-256,152,2449,556,-485
2845,12,-249,187,2222,574,-412
2850,55,-220,221,2068,580,-362
2855,37,-191,232,2009,572,-375
2860,8,-240,196,2014,561,-355
2865,26,-158,264,2012,589,-338
2870,221,19,544,2355,658,-531
2875,-11,-184,38,3166,821,-1342
2880,-113,-326,20,2400,712,-1284
2885,0,-306,191,1195,579,-602
2890,32,-286,244,766,532,-299
2895,26,-273,248,843,581,-271
2900,14,-258,257,1045,639,-269
2905,9,-244,251,1214,669,-273
2910,3,-218,256,1397,669,-282
2915,3,-198,237,1538,662,-299
2920,-12,-187,243,1569,676,-295
2925,-23,-185,254,1528,698,-274
2930,-23,-192,253,1442,732,-233
2935,-21,-210,254,1291,754,-180
2940,-13,-231,255,1066,763,-130
2945,4,-252,268,776,767,-70
2950,13,-274,301,463,752,-32
2955,37,-315,311,141,701,-9
2960,65,-338,337,-184,612,15
2965,77,-348,375,-451,503,-12
2970,92,-361,404,-535,389,-81
2975,96,-365,441,-321,286,-155
2980,85,-367,432,244,204,-228
2985,72,-366,392,1028,128,-293
2990,55,-347,352,1811,56,-366
2995,44,-314,311,2436,-2,-443
3000,37,-272,269,2841,-53,-512
3005,39,-224,234,3027,-96,-546
3010,39,-182,202,3047,-122,-536
3015,43,-141,176,2958,-123,-490
3020,45,-106,147,2794,-92,-423
3025,46,-78,130,2555,-32,-343
3030,44,-62,127,2250,57,-267
3035,43,-43,129,1896,155,-197
3040,33,-31,135,1511,243,-138
3045,26,-24,146,1120,311,-86
3050,16,-25,164,754,357,-36
3055,10,-33,178,440,379,10
3060,4,-41,197,203,382,50
3065,-4,-49,215,54,370,82
3070,-12,-62,223,-17,352,111
3075,-16,-66,227,-19,335,132
3080,-20,-77,232,32,324,150
3085,-24,-85,236,121,317,166
3090,-31,-88,235,232,306,178
3095,-29,-91,238,352,292,194
3100,-30,-91,237,473,275,208
3105,-26,-97,237,595,259,222
3110,-30,-98,234,713,246,233
3115,-27,-102,238,828,238,245
3120,-24,-107,239,938,240,250
3125,-20,-112,243,1037,251,248
3130,-18,-114,244,1121,273,235
3135,-14,-112,244,1184,300,217
3140,-13,-106,253,1227,329,192
3145,-11,-101,254,1253,357,163
3150,-14,-94,253,1257,384,131
3155,-12,-82,251,1238,409,103
3160,-13,-75,254,1196,428,78
3165,-9,-66,255,1138,444,57
3170,-15,-64,264,1064,456,40
3175,-8,-55,255,974,465,27
3180,-2,-52,257,875,474,15
3185,3,-54,257,766,482,2
3190,3,-51,256,661,484,-9
3195,4,-53,258,562,485,-18
3200,1,-53,256,475,481,-28
3205,1,-56,255,394,476,-37
3210,-2,-61,255,321,469,-46
3215,-6,-61,255,259,460,-54
3220,-11,-66,255,206,447,-55
3225,-16,-69,256,162,435,-55
3230,-16,-74,252,123,420,-51
3235,-22,-82,252,87,400,-45
3240,-21,-85,257,59,384,-37
3245,-28,-88,261,36,364,-22
3250,-30,-94,257,22,346,-10
3255,-28,-97,261,16,329,3
3260,-27,-98,261,20,316,12
3265,-27,-99,257,34,306,17
3270,-28,-98,257,53,303,19
3275,-26,-97,257,74,302,18
3280,-26,-92,249,104,305,15
3285,-23,-90,252,137,312,11
3290,-21,-86,250,167,322,7
3295,-18,-78,253,196,332,5
3300,-11,-74,250,225,343,-2
3305,-13,-64,249,250,354,-9
3310,-11,-61,252,268,363,-23
3315,-10,-59,247,276,366,-34
3320,-15,-49,247,271,365,-47
3325,-12,-36,245,260,360,-52
3330,-15,-48,244,242,349,-54
3335,-18,-43,247,221,338,-54
3340,-16,-40,247,197,328,-50
3345,-22,-40,250,176,316,-44
3350,-21,-39,252,154,302,-40
3355,-24,-37,255,137,290,-36
3360,-26,-41,258,124,275,-29
3365,-26,-46,256,115,258,-24
3370,-26,-48,256,111,244,-20
3375,-32,-49,254,109,230,-19
3380,-28,-56,253,109,221,-20
3385,-32,-49,246,103,214,-26
3390,-31,-61,244,91,206,-31
3395,-32,-64,244,75,204,-36
3400,-33,-65,246,53,199,-42
3405,-27,-68,242,25,194,-47
3410,-24,-70,239,-5,190,-52
3415,-22,-70,241,-37,184,-58
3420,-19,-73,238,-66,180,-67
3425,-18,-74,240,-88,175,-74
3430,-14,-84,244,-106,171,-78
3435,-17,-84,250,-119,165,-84
3440,-20,-87,243,-128,156,-86
3445,-16,-92,248,-131,149,-85
3450,-20,-92,253,-125,141,-85
3455,-21,-93,249,-116,134,-82
3460,-22,-91,249,-105,128,-79
3465,-26,-91,244,-90,123,-76
3470,-23,-93,249,-77,115,-74
3475,-27,-90,242,-64,108,-74
3480,-24,-98,244,-51,97,-72
3485,-26,-93,244,-43,87,-69
3490,-27,-93,242,-36,76,-65
3495,-28,-91,241,-35,66,-61
3500,-28,-91,242,-34,56,-58
3505,-29,-92,239,-37,50,-54
3510,-26,-90,243,-38,44,-50
3515,-28,-90,245,-35,41,-47
3520,-26,-87,242,-33,36,-44
3525,-30,-87,244,-31,34,-42
3530,-29,-89,244,-30,32,-39
3535,-28,-87,248,-28,28,-37
3540,-30,-84,246,-25,26,-32
3545,-31,-84,250,-17,23,-28
3550,-30,-83,248,-9,18,-22
3555,-29,-84,246,6,14,-15
3560,-30,-83,245,20,11,-8
3565,-32,-81,245,34,7,-3
3570,-32,-80,247,50,3,2
3575,-30,-80,251,65,1,7
3580,-30,-76,249,78,-1,13
3585,-31,-77,249,91,-4,16
3590,-29,-75,247,102,-6,23
3595,-30,-75,247,109,-9,28
3600,-29,-75,246,113,-11,32
3605,-31,-71,246,114,-13,37
3610,-25,-72,247,117,-16,42
3615,-25,-70,246,117,-18,46
3620,-27,-68,248,119,-22,48
3625,-27,-68,249,121,-26,51
3630,-24,-69,253,122,-28,50
3635,-24,-71,254,125,-35,50
3640,-21,-73,248,128,-39,53
3645,-21,-72,250,127,-44,54
3650,-22,-74,255,125,-50,53
3655,-22,-73,254,122,-55,53
3660,-20,-76,250,116,-61,53
3665,-20,-77,255,108,-66,55
3670,-21,-76,250,101,-72,55
3675,-19,-80,248,94,-78,56
3680,-17,-80,253,87,-81,58
3685,-20,-80,249,84,-87,61
3690,-20,-85,252,80,-90,62
3695,-20,-82,251,81,-94,63
3700,-16,-85,251,83,-98,65
3705,-21,-83,251,86,-102,65
3710,-18,-83,250,87,-107,67
3715,-17,-83,256,87,-110,68
3720,-21,-80,255,84,-115,68
3725,-23,-81,252,81,-120,69
3730,-23,-82,248,81,-127,69
3735,-21,-81,253,77,-132,69
3740,-21,-80,252,76,-136,67
3745,-20,-81,254,71,-139,65
3750,-19,-79,254,64,-138,63
3755,-20,-78,250,54,-135,63
3760,-19,-77,253,42,-130,60
3765,-21,-76,253,28,-126,57
3770,-15,-81,255,17,-118,52
3775,-20,-76,252,11,-110,45
3780,-20,-79,258,4,-104,44
3785,-17,-79,254,-5,-103,43
3790,-17,-79,257,-14,-102,41
3795,-15,-78,259,-19,-98,38
3800,-14,-79,257,-21,-92,35
3805,-15,-79,259,-18,-86,33
3810,-12,-80,257,-13,-79,31
3815,-16,-77,260,-3,-73,27
3820,-13,-77,257,8,-66,26
3825,-13,-83,258,17,-61,25
3830,-11,-75,257,23,-58,25
3835,-13,-76,259,22,-58,26
3840,-11,-75,257,18,-61,26
3845,-9,-74,259,11,-61,26
3850,-10,-75,258,6,-61,27
3855,-9,-72,254,0,-63,27
3860,-11,-71,253,-7,-63,27
3865,-8,-72,251,-15,-62,28
3870,-7,-72,250,-22,-61,26
3875,-7,-72,251,-31,-62,25
3880,-6,-71,254,-39,-62,22
3885,-5,-73,252,-45,-62,19
3890,-7,-72,256,-52,-61,17
3895,-4,-72,253,-57,-59,14
3900,-6,-72,254,-58,-58,11
3905,-4,-76,254,-60,-55,7
3910,-3,-78,254,-61,-53,2
3915,-6,-77,251,-62,-50,-3
3920,0,-79,257,-62,-47,-7
3925,-4,-76,254,-63,-42,-11
3930,-3,-76,255,-65,-36,-16
3935,-2,-81,256,-69,-31,-20
3940,-2,-79,256,-74,-26,-23
3945,-2,-78,255,-80,-21,-26
3950,-2,-85,254,-87,-17,-31
3955,-2,-81,255,-92,-12,-36
3960,-3,-80,257,-98,-5,-39
3965,-3,-82,256,-105,0,-43
3970,-3,-84,254,-110,4,-48
3975,-2,-85,254,-115,7,-52
3980,-1,-84,256,-120,10,-53
3985,-1,-85,255,-128,11,-53
3990,-1,-83,253,-136,13,-53
3995,-3,-84,254,-145,15,-53
4000,-3,-86,252,-155,18,-52
4005,-1,-84,254,-166,19,-51
4010,-1,-85,253,-175,20,-52
4015,0,-89,250,-185,21,-52
4020,2,-87,254,-190,21,-49
4025,1,-84,251,-198,22,-50
4030,-2,-85,253,-203,22,-46
4035,2,-88,252,-210,22,-44
4040,-4,-83,254,-216,24,-44
4045,0,-86,249,-222,25,-41
4050,2,-87,252,-227,28,-40
4055,-2,-85,249,-231,30,-37
4060,0,-88,251,-236,32,-36
4065,0,-86,249,-241,36,-35
4070,1,-90,246,-245,37,-33
4075,0,-87,249,-247,38,-33
4080,-3,-89,249,-246,39,-32
4085,2,-90,251,-247,39,-31
4090,-1,-92,253,-246,40,-29
4095,3,-92,252,-244,42,-28
4100,3,-96,249,-241,43,-26
4105,3,-95,250,-232,45,-25
4110,2,-96,249,-220,46,-22
4115,0,-92,248,-206,47,-19
4120,1,-94,245,-189,47,-16
4125,-1,-92,246,-173,48,-13
4130,3,-96,250,-156,48,-12
4135,-2,-95,247,-142,47,-10
4140,-2,-95,243,-131,45,-9
4145,-2,-94,246,-121,45,-8
4150,-3,-93,249,-114,45,-9
4155,-1,-94,249,-113,43,-10
4160,0,-96,250,-111,41,-11
4165,-3,-93,249,-110,39,-13
4170,-3,-93,249,-110,38,-16
4175,-1,-95,248,-107,37,-15
4180,-1,-91,248,-102,35,-15
4185,-3,-95,249,-100,36,-17
4190,-3,-97,247,-97,36,-18
4195,-7,-91,249,-95,37,-19
4200,-5,-93,248,-95,40,-19
4205,-5,-95,246,-96,41,-21
4210,-4,-92,248,-99,43,-19
4215,-7,-92,245,-101,45,-18
4220,-6,-92,246,-105,46,-16
4225,-6,-92,249,-108,47,-17
4230,-4,-95,249,-108,47,-16
4235,-5,-94,250,-106,49,-15
4240,-7,-94,249,-101,50,-15
4245,-3,-94,250,-96,50,-15
4250,-5,-97,249,-91,51,-16
4255,-5,-93,246,-85,53,-14
4260,-5,-93,249,-82,54,-14
4265,-4,-95,247,-78,55,-15
4270,-4,-96,250,-77,56,-15
4275,-3,-93,250,-76,57,-15
4280,-4,-96,250,-75,60,-13
4285,-4,-95,251,-75,62,-14
4290,-4,-95,254,-74,64,-14
4295,-5,-93,251,-73,65,-14
4300,-3,-96,252,-73,66,-14
4305,-4,-98,254,-74,65,-14
4310,-5,-96,251,-76,66,-15
4315,-4,-98,248,-76,66,-15
4320,-2,-97,252,-79,66,-15
4325,-6,-95,252,-82,67,-15
4330,-7,-93,251,-86,68,-15
4335,-5,-94,248,-91,69,-18
4340,-6,-97,248,-95,71,-16
4345,-4,-95,248,-100,72,-17
4350,-1,-97,248,-104,73,-18
4355,-7,-97,250,-108,75,-17
4360,-4,-95,249,-109,75,-18
4365,-5,-89,250,-111,77,-20
4370,-2,-97,249,-110,78,-19
4375,-2,-100,249,-109,78,-20
4380,-1,-98,249,-109,79,-19
4385,-1,-97,249,-104,78,-18
4390,-1,-97,251,-100,78,-21
4395,-2,-99,246,-95,79,-21
4400,-3,-101,246,-91,79,-22
4405,0,-97,246,-89,79,-21
4410,0,-97,249,-86,79,-23
4415,-5,-98,249,-84,81,-24
4420,-4,-101,242,-79,84,-25
4425,-3,-97,243,-76,86,-26
4430,-6,-98,245,-73,89,-27
4435,-4,-101,249,-68,89,-28
4440,-5,-97,246,-64,91,-27
4445,-5,-99,248,-61,94,-26
4450,-5,-99,250,-60,96,-26
4455,-2,-99,248,-59,97,-25
4460,-4,-100,249,-57,98,-25
4465,-4,-99,250,-56,100,-23
4470,-3,-100,254,-53,100,-23
4475,-3,-103,255,-48,98,-22
4480,-4,-100,251,-41,95,-21
4485,-3,-103,247,-38,92,-19
4490,-1,-104,251,-31,87,-17
4495,-3,-103,247,-26,83,-19
4500,-5,-104,251,-24,82,-16
4505,1,-105,250,-20,80,-17
4510,-2,-104,249,-21,79,-14
4515,-5,-99,251,-22,80,-16
4520,-4,-101,250,-22,80,-17
4525,-3,-102,252,-23,82,-17
4530,-2,-102,246,-24,82,-17
4535,-7,-101,246,-26,84,-18
4540,-1,-101,247,-29,86,-16
4545,-5,-102,244,-33,90,-14
4550,-7,-99,245,-37,91,-15
4555,-6,-99,246,-42,93,-15
4560,-2,-103,247,-49,96,-15
4565,-1,-101,244,-53,97,-16
4570,-4,-101,247,-56,98,-16
4575,-1,-100,247,-59,97,-15
4580,-3,-100,245,-60,98,-14
4585,-3,-104,247,-58,99,-15
4590,0,-105,245,-57,98,-15
4595,-7,-101,247,-59,97,-15
4600,-4,-100,244,-59,97,-15
4605,-5,-101,248,-61,97,-15
4610,-5,-100,243,-62,97,-13
4615,-5,-100,245,-63,94,-13
4620,-5,-99,244,-63,95,-11
4625,-3,-101,248,-64,96,-12
4630,-3,-96,244,-62,97,-10
4635,-6,-97,245,-57,94,-11
4640,-3,-100,246,-53,93,-10
4645,-5,-101,243,-47,91,-9
4650,-6,-97,243,-41,92,-8
4655,-1,-101,243,-35,93,-7
4660,-6,-101,246,-29,93,-6
4665,-1,-103,245,-23,95,-5
4670,-5,-103,243,-17,95,-5
4675,-2,-99,244,-10,96,-5
4680,-3,-100,247,-4,97,-3
4685,-5,-103,248,1,97,-1
4690,-3,-100,251,5,97,0
4695,-5,-100,249,5,94,1
4700,-3,-102,244,3,94,1
4705,-2,-96,245,-3,93,2
4710,-2,-97,249,-12,92,2
4715,-4,-97,249,-21,91,2
4720,-6,-97,247,-29,92,2
4725,-5,-101,248,-34,91,1
4730,-5,-98,248,-35,90,1
4735,-6,-98,250,-32,91,1
4740,-3,-101,249,-28,92,-1
4745,-3,-102,247,-23,93,-1
4750,-4,-98,248,-18,93,-1
4755,-3,-99,248,-13,94,-2
4760,-3,-101,248,-13,93,-3
4765,-6,-95,243,-15,94,-3
4770,-3,-94,245,-20,93,-4
4775,-7,-97,242,-28,94,-6
4780,-7,-99,249,-37,96,-6
4785,-5,-98,249,-48,96,-9
4790,-5,-95,246,-55,96,-11
4795,-5,-98,248,-60,97,-12
4800,-7,-100,246,-63,98,-13
4805,-6,-102,247,-65,99,-15
4810,-6,-101,243,-66,99,-15
4815,-4,-100,244,-62,99,-16
4820,-6,-98,248,-59,98,-15
4825,-5,-98,247,-58,99,-15
4830,-5,-103,247,-57,98,-13
4835,-8,-101,242,-56,96,-11
4840,-9,-97,245,-56,93,-11
4845,-6,-98,246,-56,93,-10
4850,-6,-100,243,-57,90,-12
4855,-9,-101,243,-55,88,-8
4860,-5,-99,247,-55,86,-9
4865,-5,-99,247,-56,83,-7
4870,-8,-102,248,-54,82,-9
4875,-9,-99,248,-53,80,-7
4880,-7,-102,247,-51,78,-7
4885,-7,-98,247,-51,77,-8
4890,-4,-100,247,-51,75,-7
4895,-5,-102,246,-51,74,-8
4900,-6,-100,245,-52,75,-9
4905,-5,-99,243,-53,72,-9
4910,-10,-97,246,-54,72,-8
4915,-8,-101,243,-56,70,-9
4920,-8,-103,246,-59,71,-11
4925,-8,-101,242,-61,69,-12
4930,-4,-104,244,-63,69,-12
4935,-6,-101,246,-62,69,-12
4940,-5,-103,246,-63,68,-13
4945,-6,-100,249,-65,69,-15
4950,-8,-100,248,-68,69,-15
4955,-10,-99,245,-70,67,-16
4960,-5,-101,243,-73,66,-16
4965,-7,-101,242,-76,64,-16
4970,-10,-100,245,-82,63,-15
4975,-10,-99,241,-86,63,-16
4980,-9,-103,245,-89,63,-17
4985,-7,-104,246,-95,62,-17
4990,-8,-100,244,-99,62,-16
4995,-7,-102,245,-103,63,-15
5000,-8,-105,245,-105,62,-15
5005,-8,-102,243,-107,62,-15
5010,-11,-103,246,-104,61,-13
5015,-7,-103,247,-101,63,-12
5020,-4,-107,241,-94,62,-12
5025,-5,-106,246,-86,64,-11
5030,-8,-104,245,-79,64,-12
5035,-9,-105,244,-76,63,-13
5040,-8,-104,245,-74,62,-12
5045,-8,-101,238,-74,62,-11
5050,-8,-101,245,-74,61,-13
5055,-5,-104,244,-73,62,-14
5060,-4,-100,247,-73,62,-16
5065,-10,-100,245,-72,63,-16
5070,-7,-102,244,-69,65,-16
5075,-5,-107,245,-66,65,-16
5080,-5,-108,245,-61,65,-17
5085,-6,-105,247,-58,65,-17
5090,-5,-107,243,-52,64,-18
5095,-6,-108,243,-48,62,-18
5100,-8,-105,241,-44,60,-18
5105,-7,-106,245,-43,59,-19
5110,-5,-104,244,-41,58,-18
5115,-4,-106,247,-40,57,-18
5120,-9,-100,246,-40,57,-20
5125,-6,-104,245,-38,56,-19
5130,-9,-101,245,-35,54,-19
5135,-6,-105,243,-32,54,-19
5140,-9,-105,246,-32,55,-19
5145,-7,-104,246,-31,55,-17
5150,-7,-107,247,-32,54,-17
5155,-7,-102,246,-33,54,-15
5160,-7,-106,240,-34,55,-16
5165,-6,-104,246,-35,53,-14
5170,-7,-105,247,-37,53,-14
5175,-7,-105,244,-38,53,-13
5180,-4,-105,244,-38,52,-14
5185,-6,-104,241,-40,51,-13
5190,-8,-104,249,-42,49,-10
5195,-5,-107,241,-43,50,-11
5200,-6,-105,243,-44,50,-11
5205,-6,-107,242,-47,48,-9
5210,-6,-105,243,-49,48,-9
5215,-5,-107,241,-52,48,-9
5220,-7,-103,249,-54,49,-10
5225,-5,-105,247,-57,50,-9
5230,-8,-107,245,-59,50,-8
5235,-6,-108,242,-61,50,-9
5240,-4,-105,245,-62,50,-10
5245,-6,-107,246,-63,52,-12
5250,-6,-105,241,-66,51,-9
5255,-3,-110,243,-64,51,-9
5260,-3,-108,243,-62,51,-9
5265,-4,-106,247,-61,54,-9
5270,-3,-109,240,-61,52,-8
5275,-4,-107,244,-58,51,-8
5280,-1,-110,244,-56,52,-10
5285,-7,-108,244,-50,51,-7
5290,-5,-109,240,-47,49,-5
5295,-4,-112,242,-43,51,-5
5300,-1,-109,242,-40,48,-5
5305,-1,-112,240,-36,47,-3
5310,-3,-108,244,-34,48,-2
5315,-4,-106,245,-32,48,1
5320,0,-111,244,-31,47,1
5325,-4,-110,244,-30,47,0
5330,-2,-109,240,-28,49,0
5335,-6,-109,244,-27,49,1
5340,-3,-108,244,-25,48,1
5345,-2,-110,239,-24,50,1
5350,-5,-111,241,-20,49,2
5355,-4,-110,242,-13,49,2
5360,-5,-109,242,-5,49,2
5365,-8,-109,245,3,51,2
5370,-4,-111,246,11,50,4
5375,-1,-112,240,18,52,6
5380,-3,-112,244,22,51,4
5385,-2,-112,241,26,51,4
5390,-4,-108,243,27,51,5
5395,2,-109,243,27,51,5
5400,-3,-108,240,25,52,5
5405,-3,-110,244,23,54,5
5410,-4,-111,243,22,55,3
5415,-3,-109,243,23,57,2
5420,-3,-108,242,26,59,2
5425,-5,-106,245,29,60,2
5430,0,-106,243,35,62,1
5435,1,-109,245,39,62,2
5440,-3,-109,240,42,65,2
5445,-2,-112,243,44,66,2
5450,-3,-110,243,44,67,4
5455,0,-111,242,43,70,5
5460,0,-109,244,41,68,5
5465,-2,-107,241,40,67,5
5470,-3,-110,239,39,69,6
5475,-4,-110,247,40,69,6
5480,-4,-108,239,40,69,6
5485,-1,-107,246,43,71,5
5490,-1,-106,246,46,72,6
5495,-5,-110,246,49,73,4
5500,-3,-108,247,53,76,4
5505,-2,-108,242,57,77,3
5510,-2,-108,246,60,77,3
5515,-3,-105,243,63,79,1
5520,-3,-110,248,65,81,0
5525,-1,-108,247,67,82,2
5530,-4,-106,245,70,84,2
5535,1,-106,248,73,86,2
5540,3,-107,244,75,86,2
5545,-2,-107,243,77,87,1
5550,-2,-104,244,79,86,2
5555,-2,-106,243,81,86,2
5560,1,-106,246,82,86,2
5565,5,-105,243,81,85,2
5570,-3,-104,243,81,86,3
5575,-3,-104,239,81,85,3
5580,-2,-103,245,80,86,3
5585,-2,-106,243,82,86,3
5590,-4,-102,247,81,87,5
5595,-3,-107,247,82,88,4
5600,-4,-105,246,84,90,4
5605,-4,-103,248,84,91,5
5610,-4,-102,244,86,91,5
5615,-7,-108,246,87,89,4
5620,-3,-103,247,89,91,4
5625,-1,-102,243,89,91,3
5630,-4,-104,246,91,91,5
5635,-7,-102,247,94,91,4
5640,-6,-99,245,95,91,2
5645,-4,-102,245,99,93,2
5650,-7,-99,245,101,93,1
5655,-3,-101,244,104,92,2
5660,-5,-101,244,106,92,2
5665,-5,-99,246,109,93,3
5670,-1,-101,241,109,93,2
5675,-4,-99,246,110,91,3
5680,-4,-103,242,109,91,2
5685,-4,-100,248,107,91,2
5690,-7,-99,249,105,91,1
5695,-5,-100,249,105,91,1
5700,-5,-99,247,103,89,2
5705,-2,-101,249,102,88,2
5710,-6,-100,252,102,88,4
5715,-6,-97,241,104,87,3
5720,-5,-98,249,104,86,5
5725,-9,-99,248,108,84,8
5730,-8,-98,246,110,82,8
5735,-5,-96,245,110,80,11
5740,-8,-94,248,108,77,12
5745,-9,-98,245,106,74,13
5750,-8,-94,252,103,70,15
5755,-11,-98,249,97,68,16
5760,-5,-96,247,92,65,18
5765,-9,-93,246,88,62,19
5770,-8,-95,247,85,59,20
5775,-10,-93,251,82,57,23
5780,-7,-95,247,79,57,25
5785,-4,-95,248,79,56,28
5790,-8,-93,252,79,56,30
5795,-6,-96,248,81,56,32
5800,-6,-95,249,82,55,32
5805,-7,-96,248,85,54,32
5810,-9,-93,247,90,54,32
5815,-5,-95,247,95,52,32
5820,-7,-96,248,99,57,31
5825,-7,-93,252,102,59,29
5830,-7,-94,251,103,61,27
5835,-8,-96,253,105,62,26
5840,-7,-92,251,102,65,24
5845,-5,-97,247,101,66,24
5850,-4,-94,248,96,68,23
5855,-5,-99,248,94,69,21
5860,-5,-96,247,91,70,19
5865,-5,-94,247,89,72,19
5870,-4,-96,250,88,70,18
5875,-2,-99,250,89,71,16
5880,-5,-97,251,89,72,16
5885,-4,-99,253,88,72,15
5890,-1,-95,250,86,72,13
5895,-2,-97,251,85,74,12
5900,0,-96,250,85,74,10
5905,-2,-98,251,83,73,11
5910,-1,-96,251,84,73,10
5915,-1,-96,253,84,73,11
5920,-2,-96,251,85,70,10
5925,-5,-95,249,86,73,11
5930,-4,-98,248,86,75,11
5935,-8,-96,252,86,76,11
5940,-8,-94,248,84,79,12
5945,-7,-96,250,81,80,13
5950,-7,-96,246,75,81,13
5955,-9,-94,248,69,83,13
5960,-5,-94,249,62,86,14
5965,-8,-90,246,55,89,13
5970,-10,-89,248,47,93,12
5975,-11,-89,249,42,95,9
5980,-10,-90,249,36,96,9
5985,-11,-90,246,32,98,6
5990,-8,-88,251,32,101,5
5995,-8,-89,248,35,102,3
6000,-6,-86,254,38,105,1
6005,-10,-91,252,43,106,-2
6010,-7,-87,245,49,108,-3
6015,-10,-85,250,55,109,-5
6020,-5,-87,249,59,110,-6
6025,-9,-86,247,63,112,-7
6030,-7,-90,251,65,111,-8
6035,-5,-89,251,65,110,-8
6040,-8,-86,251,63,110,-11
6045,-6,-85,253,65,110,-12
6050,-7,-87,249,69,109,-11
6055,-5,-88,251,76,109,-13
6060,-7,-85,251,82,106,-12
6065,-7,-88,253,88,105,-11
6070,-6,-91,250,92,101,-9
6075,-8,-91,250,96,100,-11
6080,-7,-87,252,99,96,-9
6085,-8,-87,249,102,94,-8
6090,-6,-89,249,102,93,-8
6095,-8,-92,251,104,91,-7
6100,-7,-89,247,104,89,-5
6105,-8,-91,251,103,88,-6
6110,-6,-84,253,105,89,-5
6115,-9,-87,250,106,86,-5
6120,-5,-92,252,107,85,-5
6125,-8,-88,252,108,85,-4
6130,-7,-89,252,110,87,-4
6135,-10,-89,250,109,89,-5
6140,-10,-86,250,109,89,-5
6145,-10,-86,248,107,92,-5
6150,-9,-86,252,105,95,-6
6155,-15,-83,251,98,97,-6
6160,-5,-87,250,91,99,-7
6165,-7,-83,253,81,101,-7
6170,-11,-81,253,68,104,-8
6175,-9,-79,252,51,106,-9
6180,-6,-84,253,29,110,-14
6185,-10,-78,256,4,114,-21
6190,-9,-78,256,-29,118,-26
6195,-7,-78,256,-58,121,-30
6200,-6,-79,254,-85,123,-36
6205,-8,-77,259,-105,126,-40
6210,-6,-78,259,-118,125,-45
6215,-4,-75,257,-127,124,-52
6220,-7,-70,253,-129,123,-62
6225,-5,-70,256,-134,119,-73
6230,-4,-75,255,-142,117,-83
6235,-5,-76,255,-152,115,-97
6240,-1,-74,253,-166,115,-112
6245,-3,-75,253,-186,116,-123
6250,-3,-77,251,-208,116,-132
6255,-3,-78,249,-231,115,-139
6260,-2,-81,253,-255,114,-144
6265,-2,-84,248,-275,112,-144
6270,-4,-87,254,-290,108,-142
6275,-4,-86,251,-301,101,-140
6280,-3,-91,251,-306,96,-135
6285,-2,-91,248,-308,90,-133
6290,-9,-90,251,-308,83,-132
6295,-9,-87,249,-310,74,-131
6300,-9,-89,255,-314,65,-131
6305,-9,-90,250,-316,55,-130
6310,-11,-89,250,-313,41,-131
6315,-11,-87,247,-309,29,-131
6320,-11,-86,250,-306,11,-134
6325,-12,-86,247,-306,-4,-138
6330,-10,-85,250,-313,-15,-142
6335,-13,-86,247,-325,-26,-144
6340,-15,-87,245,-341,-33,-145
6345,-10,-90,246,-358,-37,-147
6350,-16,-88,246,-371,-40,-146
6355,-12,-90,244,-379,-43,-147
6360,-13,-91,244,-381,-45,-150
6365,-14,-92,240,-380,-45,-154
6370,-13,-93,240,-381,-43,-157
6375,-12,-94,241,-384,-43,-160
6380,-13,-93,237,-393,-44,-161
6385,-13,-89,240,-399,-46,-164
6390,-12,-91,240,-405,-49,-168
6395,-9,-91,244,-411,-55,-173
6400,-11,-88,239,-416,-63,-173
6405,-9,-88,245,-423,-70,-173
6410,-8,-87,242,-430,-75,-172
6415,-5,-87,244,-439,-80,-172
6420,-4,-86,240,-447,-87,-174
6425,-5,-84,242,-459,-95,-179
6430,-9,-84,241,-478,-106,-179
6435,-9,-82,245,-496,-117,-180
6440,-6,-88,242,-515,-131,-182
6445,-6,-87,237,-537,-145,-178
6450,-10,-86,237,-557,-155,-180
6455,-6,-85,237,-578,-163,-178
6460,-5,-88,238,-595,-170,-177
6465,-2,-86,240,-616,-173,-176
6470,-5,-87,234,-633,-175,-172
6475,-4,-89,236,-652,-175,-172
6480,-3,-90,236,-666,-176,-175
6485,-2,-93,235,-676,-177,-176
6490,-5,-89,238,-687,-177,-169
6495,-3,-95,240,-697,-176,-163
6500,-1,-97,235,-703,-176,-160
6505,-6,-98,235,-706,-178,-153
6510,-1,-100,236,-715,-179,-138
6515,-6,-102,230,-721,-182,-130
6520,3,-105,235,-731,-189,-120
6525,-4,-103,230,-740,-194,-112
6530,-3,-106,236,-746,-194,-110
6535,2,-105,241,-739,-195,-122
6540,-8,-101,231,-742,-199,-125
6545,-1,-105,229,-757,-207,-110
6550,8,-107,238,-776,-215,-96
6555,6,-106,231,-787,-222,-87
6560,8,-109,239,-783,-224,-86
6565,-3,-112,227,-764,-226,-86
6570,4,-114,237,-753,-219,-56
6575,3,-119,227,-733,-208,-43
6580,4,-120,243,-722,-196,-35
6585,1,-122,244,-715,-189,-32
6590,-1,-117,249,-725,-186,-30
6595,4,-114,246,-733,-181,-31
6600,4,-109,240,-758,-183,-32
6605,4,-111,240,-787,-181,-33
6610,1,-112,239,-838,-178,-37
6615,-1,-107,235,-914,-177,-48
6620,-3,-103,247,-1002,-169,-60
6625,-1,-110,239,-1107,-159,-67
6630,2,-113,251,-1229,-146,-75
6635,1,-123,244,-1357,-131,-76
6640,2,-129,247,-1474,-115,-71
6645,5,-133,241,-1580,-102,-58
6650,-3,-131,257,-1671,-87,-37
6655,11,-142,243,-1753,-71,-10
6660,11,-140,243,-1845,-49,14
6665,15,-139,239,-1940,-28,35
6670,8,-140,248,-2027,2,51
6675,-1,-146,247,-2086,26,71
6680,-3,-158,248,-2127,45,102
6685,17,-169,248,-2152,51,132
6690,-6,-182,228,-2130,47,128
6695,3,-193,223,-2124,46,183
6700,-2,-201,218,-2112,37,258
6705,13,-214,214,-2059,11,318
6710,23,-237,209,-1975,-8,372
6715,52,-238,218,-1901,-12,449
6720,65,-239,222,-1812,3,507
6725,96,-235,229,-1684,21,526
6730,95,-242,213,-1542,37,516
6735,110,-244,203,-1452,49,528
6740,115,-250,196,-1402,57,506
6745,111,-255,191,-1373,60,451
6750,110,-267,191,-1376,47,410
6755,111,-280,195,-1405,44,385
6760,100,-289,196,-1412,58,334
6765,78,-297,202,-1391,81,269
6770,59,-300,211,-1335,100,197
6775,50,-299,221,-1247,112,126
6780,32,-296,225,-1136,130,60
6785,11,-290,234,-1006,142,1
6790,1,-282,229,-867,130,-47
6795,-11,-274,223,-743,101,-77
6800,-15,-266,222,-651,65,-91
6805,-23,-256,217,-589,22,-90
6810,-19,-255,216,-549,-21,-76
6815,-27,-251,209,-518,-67,-69
6820,-17,-247,204,-502,-110,-41
6825,-7,-253,197,-501,-147,0
6830,-3,-249,197,-517,-183,40
6835,-2,-253,187,-542,-212,74
6840,3,-253,180,-566,-229,113
6845,6,-257,176,-591,-235,141
6850,5,-262,168,-615,-232,157
6855,6,-267,164,-645,-228,174
6860,10,-270,159,-679,-221,190
6865,11,-271,157,-717,-212,201
6870,11,-274,151,-759,-204,210
6875,12,-275,140,-804,-198,226
6880,14,-282,139,-852,-198,242
6885,15,-281,140,-895,-200,258
6890,19,-283,137,-927,-201,268
6895,12,-280,140,-947,-195,272
6900,15,-283,137,-962,-189,275
6905,10,-279,140,-983,-188,279
6910,6,-282,139,-1006,-193,287
6915,5,-280,134,-1023,-205,300
6920,4,-287,139,-1031,-224,315
6925,-1,-285,135,-1031,-245,331
6930,4,-286,133,-1031,-269,352
6935,2,-284,129,-1034,-295,377
6940,0,-287,128,-1040,-323,408
6945,1,-291,132,-1046,-349,438
6950,3,-288,128,-1061,-373,466
6955,1,-285,136,-1078,-393,486
6960,0,-278,134,-1095,-409,501
6965,-2,-278,132,-1116,-429,512
6970,-7,-274,135,-1137,-452,522
6975,-2,-264,133,-1160,-482,529
6980,-10,-266,131,-1176,-522,532
6985,-12,-266,136,-1185,-571,528
6990,-17,-260,131,-1191,-628,520
6995,-15,-258,126,-1192,-691,511
7000,-19,-256,117,-1194,-759,507
7005,-27,-257,105,-1185,-828,516
7010,-34,-271,108,-1154,-889,551
7015,-25,-287,116,-1086,-924,599
7020,-17,-299,127,-960,-940,620
7025,-17,-308,133,-767,-940,598
7030,-14,-308,139,-513,-924,546
7035,0,-310,142,-226,-898,480
7040,4,-309,142,53,-859,400
7045,10,-306,147,305,-810,312
7050,18,-301,151,528,-768,222
7055,25,-297,155,719,-736,135
7060,28,-289,153,878,-709,48
7065,30,-276,151,1008,-691,-22
7070,29,-257,148,1114,-682,-69
7075,25,-239,140,1186,-667,-87
7080,23,-228,131,1219,-641,-90
7085,13,-207,122,1197,-606,-76
7090,10,-192,112,1112,-569,-50
7095,8,-180,104,973,-526,-20
7100,4,-170,101,791,-478,11
7105,4,-165,100,579,-422,34
7110,0,-161,99,352,-366,50
7115,-4,-157,103,127,-307,60
7120,-9,-162,105,-87,-251,68
7125,-15,-164,113,-279,-194,75
7130,-20,-170,110,-446,-141,80
7135,-24,-172,109,-590,-97,82
7140,-20,-181,108,-712,-53,82
7145,-27,-193,108,-821,-14,82
7150,-21,-201,103,-916,23,82
7155,-21,-210,103,-998,56,84
7160,-20,-222,101,-1062,83,86
7165,-15,-230,99,-1108,104,88
7170,-12,-247,97,-1135,119,86
7175,-9,-257,106,-1146,130,80
7180,-7,-264,106,-1135,133,68
7185,1,-266,108,-1104,129,62
7190,-3,-273,117,-1056,119,59
7195,4,-269,122,-987,101,64
7200,3,-270,125,-904,78,67
7205,6,-267,128,-815,51,74
7210,7,-266,128,-728,17,81
7215,7,-266,128,-649,-23,85
7220,6,-262,125,-577,-61,86
7225,7,-257,123,-519,-103,82
7230,9,-254,126,-473,-149,70
7235,6,-253,124,-438,-192,53
7240,6,-253,127,-411,-232,35
7245,7,-250,123,-383,-265,13
7250,4,-249,124,-352,-292,-10
7255,3,-251,123,-318,-312,-30
7260,3,-252,125,-281,-321,-47
7265,-1,-248,126,-247,-322,-70
7270,-6,-244,124,-212,-322,-92
7275,-9,-249,122,-177,-316,-111
7280,-12,-247,124,-140,-306,-125
7285,-16,-243,128,-98,-299,-129
7290,-20,-242,124,-53,-291,-131
7295,-20,-245,123,-5,-284,-136
7300,-22,-245,125,43,-275,-140
7305,-26,-242,123,87,-264,-143
7310,-29,-243,122,127,-253,-144
7315,-31,-242,127,168,-247,-138
7320,-33,-243,128,208,-245,-132
7325,-32,-241,119,248,-245,-123
7330,-35,-235,125,284,-246,-103
7335,-32,-234,126,319,-250,-79
7340,-29,-234,122,348,-256,-57
7345,-29,-230,120,371,-261,-37
7350,-25,-227,122,388,-267,-17
7355,-26,-225,119,405,-269,10
7360,-23,-225,121,423,-274,40
7365,-19,-224,116,437,-276,67
7370,-16,-222,114,447,-273,89
7375,-15,-220,111,455,-269,110
7380,-12,-219,111,459,-263,133
7385,-6,-221,109,458,-257,152
7390,-5,-226,107,459,-252,167
7395,-1,-223,101,460,-248,179
7400,2,-227,94,456,-249,189
7405,4,-225,97,447,-253,200
7410,4,-219,100,434,-257,213
7415,7,-218,101,420,-261,225
7420,9,-216,99,411,-265,234
7425,9,-217,101,405,-267,240
7430,9,-215,97,400,-268,247
7435,13,-216,95,393,-265,252
7440,15,-216,94,384,-261,252
7445,13,-215,96,367,-255,253
7450,16,-213,93,346,-244,255
7455,17,-217,89,322,-230,257
7460,19,-217,89,293,-212,256
7465,17,-215,90,262,-194,255
7470,21,-214,90,232,-177,247
7475,18,-216,92,203,-161,238
7480,17,-216,94,175,-146,227
7485,17,-214,92,150,-136,216
7490,17,-219,94,128,-127,205
7495,19,-218,101,110,-116,197
7500,21,-219,96,95,-104,189
7505,18,-221,100,82,-91,177
7510,19,-218,106,70,-79,163
7515,23,-224,96,59,-66,149
7520,21,-223,98,51,-54,133
7525,21,-220,102,44,-43,119
7530,18,-218,97,47,-32,106
7535,17,-216,98,60,-18,98
7540,18,-210,99,73,-7,92
7545,20,-209,96,85,1,86
7550,23,-205,96,93,14,79
7555,24,-204,92,95,25,69
7560,22,-199,92,96,40,58
7565,18,-203,88,86,53,49
7570,19,-200,87,78,68,40
7575,20,-201,89,69,79,32
7580,16,-197,86,56,90,27
7585,21,-200,88,43,100,24
7590,22,-201,89,37,110,18
7595,19,-198,85,38,118,10
7600,19,-201,83,39,125,2
7605,17,-199,87,40,129,-6
7610,13,-200,83,43,131,-11
7615,15,-202,87,49,135,-14
7620,16,-204,83,53,135,-20
7625,13,-202,85,54,137,-22
7630,14,-205,83,49,138,-26
7635,7,-204,84,43,140,-26
7640,7,-203,84,36,140,-27
7645,6,-209,85,24,137,-24
7650,3,-209,82,7,133,-21
7655,4,-206,84,-10,126,-17
7660,4,-210,81,-25,116,-10
7665,3,-210,86,-38,102,-3
7670,3,-218,92,-52,89,5
7675,1,-217,93,-59,69,12
7680,0,-220,95,-64,49,20
7685,-2,-219,93,-62,34,29
7690,0,-224,97,-52,19,38
7695,-6,-226,100,-43,6,46
7700,-5,-226,99,-29,-5,51
7705,-7,-228,101,-17,-17,54
7710,-10,-228,99,-4,-25,58
7715,-9,-232,101,12,-34,71
7720,-9,-230,101,29,-42,87
7725,-6,-234,98,37,-51,102
7730,-11,-231,101,49,-65,117
7735,-14,-230,101,61,-80,129
7740,-14,-226,106,68,-89,147
7745,-16,-231,100,73,-96,166
7750,-15,-228,102,76,-107,188
7755,-10,-230,102,74,-119,212
7760,-12,-228,104,60,-118,234
7765,-12,-229,101,40,-120,258
7770,-14,-234,105,28,-129,280
7775,-15,-233,104,26,-142,297
7780,-14,-234,106,37,-159,314
7785,-14,-238,110,51,-178,333
7790,-9,-239,111,74,-200,349
7795,-9,-239,117,101,-222,356
7800,-8,-238,113,131,-239,362
7805,-5,-237,114,166,-249,369
7810,-5,-239,111,200,-258,379
7815,-4,-239,119,222,-259,387
7820,1,-236,113,236,-261,392
7825,4,-236,115,247,-262,396
7830,1,-240,119,257,-265,398
7835,1,-239,123,277,-271,399
7840,6,-236,116,295,-277,401
7845,5,-240,120,302,-285,406
7850,4,-240,114,304,-288,407
7855,4,-239,120,305,-297,412
7860,7,-239,116,306,-302,417
7865,8,-238,120,310,-308,419
7870,11,-240,117,309,-311,420
7875,8,-239,117,308,-310,419
7880,10,-236,117,307,-309,416
7885,13,-238,118,309,-306,410
7890,8,-234,118,310,-303,404
7895,8,-231,113,313,-299,394
7900,6,-231,114,312,-294,386
7905,6,-230,113,307,-288,378
7910,4,-228,115,301,-281,369
7915,7,-226,110,295,-272,360
7920,5,-228,113,290,-264,349
7925,7,-227,108,279,-255,334
7930,4,-226,105,260,-244,319
7935,5,-224,112,234,-236,308
7940,4,-223,110,200,-226,299
7945,3,-226,113,166,-216,290
7950,2,-222,111,130,-207,281
7955,0,-225,119,99,-198,272
7960,-3,-224,117,74,-189,261
7965,-4,-227,116,52,-179,255
7970,-4,-227,121,36,-174,246
7975,0,-233,119,25,-171,239
7980,-5,-227,118,13,-170,235
7985,-2,-230,118,4,-168,231
7990,-4,-229,124,-4,-166,226
7995,-3,-231,117,-11,-162,220
8000,0,-236,121,-19,-159,212
8005,-1,-233,121,-25,-155,207
8010,4,-230,122,-29,-149,201
8015,4,-232,119,-33,-142,195
8020,2,-230,125,-37,-134,189
8025,5,-233,123,-45,-124,185
8030,5,-234,122,-56,-113,183
8035,9,-234,126,-63,-104,175
8040,7,-235,128,-69,-92,165
8045,5,-234,126,-73,-78,155
8050,10,-236,124,-74,-67,145
8055,11,-243,124,-76,-57,135
8060,8,-237,123,-76,-45,127
8065,6,-236,127,-80,-33,117
8070,7,-241,124,-80,-21,108
8075,6,-241,121,-77,-8,96
8080,7,-238,123,-75,8,84
8085,9,-241,125,-72,24,70
8090,8,-237,122,-67,41,58
8095,13,-242,122,-64,61,48
8100,10,-242,118,-65,79,37
8105,10,-238,121,-66,94,25
8110,9,-240,118,-67,110,12
8115,8,-243,120,-66,126,2
8120,8,-239,122,-67,139,-7
8125,11,-242,118,-66,155,-16
8130,9,-240,121,-58,169,-29
8135,6,-240,123,-49,180,-43
8140,8,-244,120,-42,193,-53
8145,5,-241,123,-34,208,-60
8150,5,-239,119,-26,221,-69
8155,5,-240,121,-19,234,-76
8160,5,-240,118,-16,247,-86
8165,4,-236,123,-12,258,-92
8170,7,-240,122,-11,269,-100
8175,4,-239,120,-13,280,-105
8180,3,-241,121,-16,289,-115
8185,3,-240,116,-17,298,-119
8190,4,-239,118,-19,310,-125
8195,2,-239,119,-22,322,-130
8200,1,-238,121,-28,328,-139
8205,-1,-242,124,-32,335,-147
8210,-2,-241,120,-32,343,-151
8215,-1,-244,128,-28,348,-156
8220,-6,-243,122,-22,355,-161
8225,-5,-244,124,-10,361,-164
8230,-6,-244,124,0,365,-169
8235,-7,-240,124,12,370,-172
8240,-7,-242,122,20,373,-173
8245,-10,-240,122,27,376,-178
8250,-8,-242,120,29,378,-179
8255,-10,-240,124,27,381,-180
8260,-8,-238,126,21,383,-180
8265,-12,-237,123,20,383,-183
8270,-8,-236,120,16,385,-184
8275,-10,-239,126,13,384,-185
8280,-9,-236,122,8,385,-185
8285,-10,-234,122,2,385,-184
8290,-6,-237,121,1,386,-184
8295,-11,-234,126,0,386,-185
8300,-6,-238,125,4,385,-185
8305,-3,-236,127,10,387,-186
8310,-9,-235,128,16,388,-186
8315,-6,-235,126,22,388,-186
8320,-5,-235,126,27,389,-186
8325,-4,-232,124,26,392,-188
8330,-4,-234,125,23,394,-193
8335,-3,-232,120,17,397,-195
8340,0,-232,127,12,402,-197
8345,0,-233,121,3,405,-200
8350,2,-232,122,-10,408,-203
8355,-1,-232,124,-25,411,-206
8360,-1,-236,124,-36,417,-207
8365,4,-237,124,-50,420,-212
8370,-1,-234,122,-60,424,-215
8375,1,-236,124,-68,429,-219
8380,0,-238,125,-72,434,-224
8385,1,-238,124,-76,438,-228
8390,2,-240,126,-75,443,-229
8395,-1,-238,125,-75,448,-233
8400,1,-240,128,-74,453,-238
8405,2,-240,126,-72,457,-241
8410,-2,-236,126,-69,463,-245
8415,0,-237,126,-68,469,-249
8420,3,-237,127,-67,474,-253
8425,2,-238,125,-70,480,-258
8430,-3,-231,124,-73,487,-262
8435,0,-238,125,-77,492,-266
8440,3,-235,124,-80,497,-270
8445,1,-243,127,-80,501,-273
8450,3,-240,125,-79,508,-278
8455,0,-236,123,-78,512,-283
8460,0,-238,126,-75,518,-287
8465,0,-238,126,-73,524,-293
8470,0,-235,125,-69,531,-296
8475,4,-235,124,-65,536,-301
8480,1,-235,127,-62,542,-307
8485,4,-237,125,-59,547,-310
8490,1,-239,126,-57,550,-314
8495,2,-235,126,-54,553,-318
8500,3,-238,125,-52,555,-321
8505,4,-236,124,-53,559,-325
8510,4,-236,124,-57,563,-329
8515,4,-234,124,-60,565,-332
8520,4,-235,125,-65,567,-337
8525,4,-234,125,-68,572,-341
8530,4,-235,123,-72,576,-345
8535,4,-235,125,-73,581,-350
8540,4,-232,123,-76,583,-355
8545,3,-239,120,-79,587,-359
8550,5,-239,121,-81,590,-363
8555,4,-236,122,-83,595,-366
8560,4,-239,123,-82,598,-371
8565,4,-238,120,-78,603,-372
8570,0,-238,123,-77,606,-376
8575,2,-238,123,-75,609,-378
8580,3,-237,125,-74,613,-379
8585,4,-240,120,-75,616,-380
8590,2,-239,124,-75,619,-384
8595,3,-242,125,-76,620,-387
8600,-3,-247,127,-75,623,-386
8605,3,-243,125,-72,624,-388
8610,-1,-241,122,-69,627,-387
8615,2,-244,123,-64,631,-389
8620,-1,-243,123,-61,633,-389
8625,0,-244,122,-57,637,-389
8630,1,-244,121,-54,639,-391
8635,-2,-245,123,-52,640,-393
8640,1,-242,121,-46,644,-392
8645,0,-244,124,-40,647,-390
8650,1,-244,126,-33,648,-390
8655,3,-243,127,-23,649,-390
8660,-1,-240,131,-12,651,-391
8665,1,-244,126,0,651,-390
8670,4,-243,123,9,653,-392
8675,1,-243,127,18,655,-392
8680,-1,-242,127,27,654,-392
8685,4,-241,123,34,654,-390
8690,1,-245,128,40,654,-391
8695,1,-242,125,48,653,-389
8700,3,-243,122,57,652,-387
8705,0,-241,128,65,651,-385
8710,1,-244,125,73,650,-384
8715,4,-241,126,81,651,-381
8720,3,-240,126,89,649,-379
8725,3,-241,126,97,647,-377
8730,0,-239,126,104,644,-375
8735,-1,-237,126,108,643,-372
8740,-1,-240,127,113,642,-368
8745,3,-238,128,116,640,-367
8750,0,-240,125,120,636,-365
8755,1,-239,127,126,636,-364
8760,-1,-236,124,131,632,-359
8765,-1,-240,127,134,627,-358
8770,-4,-234,129,134,624,-355
8775,-3,-232,127,134,621,-353
8780,-4,-235,124,133,617,-351
8785,-3,-237,127,131,612,-349
8790,-4,-235,128,128,607,-347
8795,-7,-233,127,127,603,-347
8800,-4,-233,128,124,598,-344
8805,-6,-235,127,123,592,-340
8810,-6,-233,127,121,587,-337
8815,-11,-232,129,119,583,-335
8820,-5,-234,130,115,575,-331
8825,-6,-235,130,112,568,-328
8830,-9,-230,128,107,560,-323
8835,-4,-230,130,102,554,-320
8840,-7,-233,129,98,547,-316
8845,-10,-230,129,95,542,-311
8850,-10,-233,130,90,534,-307
8855,-7,-232,132,84,530,-302
8860,-5,-233,130,78,521,-296
8865,-4,-233,132,74,514,-291
8870,-7,-235,132,71,507,-287
8875,-7,-236,129,69,498,-279
8880,-8,-238,133,67,490,-271
8885,-5,-237,132,65,481,-264
8890,-2,-236,134,64,469,-255
8895,-7,-234,132,66,458,-250
8900,-4,-230,130,65,449,-244
8905,-5,-232,130,65,439,-240
8910,-5,-231,130,66,431,-234
8915,-3,-232,131,65,425,-231
8920,-3,-231,131,65,418,-226
8925,1,-230,130,65,412,-223
8930,-1,-231,130,64,405,-220
8935,-1,-230,129,59,400,-217
8940,-2,-232,130,57,394,-215
8945,-1,-231,129,54,390,-211
8950,-3,-229,130,53,388,-210
8955,-1,-230,131,53,384,-209
8960,0,-230,131,51,379,-208
8965,-2,-229,133,51,376,-206
8970,3,-229,129,51,372,-205
8975,1,-231,130,49,370,-204
8980,4,-229,129,47,367,-203
8985,2,-233,131,42,363,-201
8990,1,-232,131,37,358,-198
8995,4,-230,134,33,354,-196
9000,3,-234,135,31,350,-192
9005,2,-231,135,30,343,-189
9010,3,-232,133,28,338,-187
9015,1,-232,132,26,332,-185
9020,3,-232,132,24,326,-181
9025,1,-230,130,22,321,-179
9030,3,-237,131,20,317,-175
9035,1,-234,133,20,313,-173
9040,3,-233,134,20,310,-170
9045,2,-233,130,23,306,-167
9050,2,-232,134,24,303,-165
9055,4,-232,130,24,299,-161
9060,4,-230,134,23,294,-158
9065,4,-231,132,21,289,-154
9070,4,-233,136,21,288,-150
9075,4,-234,139,21,287,-148
9080,5,-230,138,21,285,-144
9085,2,-233,140,22,285,-143
9090,2,-235,140,25,284,-138
9095,4,-234,138,33,278,-136
9100,4,-236,135,38,272,-130
9105,4,-236,139,42,268,-125
9110,4,-236,138,48,264,-120
9115,5,-237,132,51,261,-115
9120,6,-234,135,51,258,-111
9125,4,-236,132,50,257,-109
9130,4,-234,135,46,256,-105
9135,5,-236,131,44,252,-103
9140,3,-234,132,44,248,-100
9145,3,-233,133,45,245,-96
9150,6,-231,131,49,246,-93
9155,3,-234,134,54,244,-93
9160,3,-230,132,60,242,-90
9165,3,-234,134,63,242,-88
9170,4,-231,135,67,240,-87
9175,3,-229,134,68,239,-83
9180,0,-230,138,68,236,-81
9185,-1,-228,134,66,232,-76
9190,-1,-229,130,64,228,-73
9195,-5,-231,132,62,223,-68
9200,1,-227,134,60,222,-64
9205,2,-228,131,54,217,-59
9210,0,-227,133,48,212,-54
9215,1,-230,134,37,208,-50
9220,2,-230,137,25,202,-45
9225,2,-229,136,18,195,-39
9230,-1,-229,139,14,186,-32
9235,-1,-231,141,18,177,-26
9240,-1,-233,142,28,170,-20
9245,-2,-232,139,40,161,-13
9250,-1,-230,137,50,150,-9
9255,3,-229,134,57,134,-4
9260,0,-228,135,56,121,-2
9265,2,-229,135,48,113,0
9270,-1,-229,136,40,106,4
9275,-3,-230,134,29,99,4
9280,-4,-229,133,18,89,6
9285,-5,-230,135,12,78,8
9290,-3,-227,138,11,65,11
9295,-3,-232,136,18,55,11
9300,-2,-229,137,26,47,14
9305,-8,-230,136,31,37,15
9310,-5,-229,135,38,29,16
9315,-7,-231,142,43,23,15
9320,-6,-231,136,44,17,16
9325,-5,-232,136,40,8,18
9330,-4,-230,135,37,-3,20
9335,-7,-231,136,33,-12,25
9340,-6,-231,133,32,-23,30
9345,-2,-233,131,33,-30,32
9350,-8,-230,132,31,-36,34
9355,-6,-233,134,31,-42,36
9360,-4,-233,136,31,-48,39
9365,-5,-234,131,34,-54,43
9370,-1,-233,136,39,-56,47
9375,-5,-232,139,47,-58,49
9380,-3,-231,133,56,-59,52
9385,-5,-228,135,64,-62,57
9390,-1,-231,134,70,-65,61
9395,3,-229,136,75,-65,66
9400,1,-232,135,77,-68,71
9405,1,-228,132,75,-67,76
9410,1,-229,134,69,-69,79
9415,2,-231,131,59,-71,82
9420,3,-230,133,48,-75,85
9425,2,-229,132,38,-80,91
9430,2,-232,136,30,-85,95
9435,2,-228,138,25,-91,95
9440,1,-230,137,23,-98,97
9445,1,-229,137,20,-101,97
9450,1,-230,139,18,-102,98
9455,-3,-229,140,19,-106,99
9460,-4,-229,135,21,-110,101
9465,2,-231,134,19,-115,106
9470,2,-229,136,14,-118,108
9475,1,-228,134,11,-118,110
9480,-3,-229,139,9,-121,111
9485,2,-230,138,10,-121,112
9490,-1,-230,140,14,-123,113
9495,2,-230,136,21,-126,116
9500,-3,-229,135,26,-131,116
9505,3,-229,137,29,-132,118
9510,1,-229,139,29,-136,116
9515,3,-228,138,29,-135,118
9520,5,-230,133,22,-137,116
9525,-1,-226,139,13,-135,113
9530,1,-227,136,0,-133,114
9535,3,-229,134,-15,-135,112
9540,3,-229,134,-27,-135,111
9545,4,-230,136,-37,-137,111
9550,2,-233,132,-40,-137,111
9555,-1,-232,129,-41,-140,112
9560,1,-230,133,-39,-142,112
9565,-2,-230,134,-39,-144,114
9570,4,-233,131,-39,-150,118
9575,4,-232,135,-39,-157,123
9580,2,-230,135,-37,-164,127
9585,-1,-229,132,-36,-169,130
9590,3,-229,134,-30,-173,135
9595,4,-229,137,-28,-175,140
9600,4,-230,132,-28,-176,144
9605,1,-230,139,-29,-176,147
9610,0,-229,135,-27,-173,152
9615,1,-229,139,-24,-175,154
9620,2,-231,133,-20,-175,152
9625,0,-226,136,-19,-172,153
9630,2,-230,132,-22,-171,155
9635,-1,-228,136,-31,-172,155
9640,0,-229,135,-40,-175,155
9645,-1,-230,139,-48,-176,154
9650,2,-226,136,-55,-181,154
9655,-1,-228,135,-61,-183,156
9660,-3,-230,137,-68,-184,155
9665,-3,-229,140,-71,-188,154
9670,1,-229,137,-71,-191,154
9675,-1,-229,136,-67,-196,151
9680,-3,-230,138,-61,-197,152
9685,-6,-231,137,-54,-198,151
9690,3,-227,142,-54,-199,153
9695,0,-231,134,-57,-200,155
9700,1,-228,138,-59,-200,155
9705,4,-228,137,-63,-201,156
9710,4,-228,134,-64,-201,157
9715,-3,-229,133,-57,-197,159
9720,-3,-231,138,-46,-197,162
9725,6,-230,136,-36,-203,163
9730,4,-231,135,-34,-204,162
9735,4,-229,131,-32,-197,161
9740,1,-228,134,-34,-190,165
9745,5,-231,134,-37,-188,168
9750,7,-232,133,-38,-191,171
9755,5,-229,133,-37,-189,167
9760,4,-230,135,-38,-186,167
9765,2,-234,134,-38,-186,163
9770,-1,-233,133,-33,-181,161
9775,4,-236,131,-28,-180,163
9780,6,-238,138,-22,-181,163
9785,8,-234,132,-22,-177,159
9790,4,-233,138,-21,-170,155
9795,2,-233,133,-13,-159,150
9800,-5,-233,130,-4,-152,154
9805,-3,-232,134,7,-149,155
9810,1,-236,135,9,-152,161
9815,19,-239,136,10,-159,161
9820,9,-238,131,16,-148,148
9825,19,-238,134,23,-124,143
9830,19,-236,129,33,-102,137
9835,16,-238,134,37,-78,132
9840,11,-234,134,37,-60,126
9845,7,-236,133,34,-51,122
9850,6,-235,135,31,-48,122
9855,8,-232,139,27,-53,124
9860,9,-232,136,25,-64,124
9865,9,-231,140,22,-73,120
9870,7,-230,138,18,-80,116
9875,5,-230,137,16,-88,113
9880,6,-230,136,11,-96,108
9885,5,-227,137,5,-100,103
9890,1,-227,136,0,-106,97
9895,-4,-223,139,-3,-106,100
9900,-3,-221,135,-6,-110,107
9905,4,-223,137,-15,-118,113
9910,5,-225,138,-28,-125,118
9915,2,-223,136,-39,-126,115
9920,-2,-227,138,-47,-117,114
9925,-4,-226,137,-52,-110,117
9930,-6,-228,136,-56,-105,119
9935,-5,-229,134,-57,-101,123
9940,0,-230,134,-61,-101,125
9945,4,-230,135,-64,-99,124
9950,7,-235,129,-71,-94,115
9955,12,-239,132,-77,-78,103
9960,13,-240,131,-82,-61,88
9965,15,-238,130,-86,-40,70
9970,19,-242,129,-89,-16,54
9975,16,-244,130,-86,7,39
9980,12,-240,132,-77,33,29
9985,10,-239,131,-61,52,24
9990,8,-240,133,-40,64,23
9995,4,-238,136,-20,69,24
10000,1,-237,136,3,68,26
10005,-7,-235,138,28,62,30
10010,-10,-233,137,58,54,37
10015,-12,-228,135,89,40,45
10020,-13,-232,137,119,23,56
10025,-17,-225,137,142,0,64
10030,-19,-225,135,153,-25,73
10035,-21,-222,134,154,-51,78
10040,-21,-227,133,146,-75,82
10045,-23,-224,139,133,-96,82
10050,-24,-226,143,120,-111,80
10055,-18,-226,137,110,-123,76
10060,-17,-233,135,102,-131,73
10065,-12,-230,139,95,-135,64
10070,-10,-230,139,87,-136,59
10075,-9,-229,137,81,-137,54
10080,1,-230,141,77,-132,52
10085,4,-231,140,73,-127,46
10090,5,-230,138,71,-115,45
10095,6,-230,141,70,-104,44
10100,11,-231,140,70,-90,45
10105,17,-234,136,67,-77,46
10110,17,-230,140,62,-61,49
10115,19,-233,141,57,-44,51
10120,17,-228,140,54,-30,52
10125,20,-225,148,49,-18,50
10130,16,-229,141,43,-4,46
10135,16,-226,139,37,6,43
10140,20,-226,142,28,11,41
10145,16,-223,146,15,16,38
10150,13,-223,146,5,21,36
10155,10,-223,145,-4,24,35
10160,8,-220,149,-14,15,37
10165,5,-219,146,-26,5,40
10170,1,-217,149,-37,-6,44
10175,4,-220,147,-46,-15,49
10180,4,-216,144,-50,-23,54
10185,-1,-216,144,-57,-30,54
10190,-2,-217,146,-66,-34,55
10195,-1,-219,145,-74,-35,58
10200,4,-221,143,-82,-36,58
10205,4,-220,140,-95,-33,53
10210,4,-218,142,-105,-25,47
10215,6,-221,140,-109,-20,41
10220,4,-224,141,-113,-13,32
10225,5,-221,143,-119,0,19
10230,5,-222,141,-122,13,9
10235,13,-219,144,-121,27,0
10240,7,-224,141,-121,43,-13
10245,9,-224,146,-124,60,-26
10250,6,-224,142,-122,75,-35
10255,10,-226,140,-120,86,-45
10260,7,-226,141,-124,99,-57
10265,11,-227,144,-129,110,-65
10270,9,-229,141,-133,117,-72
10275,7,-226,140,-138,123,-79
10280,5,-229,144,-140,127,-82
10285,5,-230,142,-133,127,-79
10290,4,-230,142,-125,126,-77
10295,5,-232,144,-116,120,-74
10300,5,-232,143,-110,110,-71
10305,4,-229,145,-106,97,-67
10310,5,-234,144,-101,86,-64
10315,5,-234,142,-97,75,-62
10320,6,-234,140,-88,67,-60
10325,4,-233,141,-80,61,-61
10330,3,-233,139,-71,57,-60
10335,6,-234,140,-64,51,-59
10340,4,-233,136,-56,47,-60
10345,8,-231,135,-51,45,-61
10350,7,-231,135,-47,44,-62
10355,7,-229,133,-45,47,-63
10360,7,-231,134,-44,52,-62
10365,8,-229,135,-42,57,-61
10370,6,-231,140,-37,61,-62
10375,9,-228,137,-31,65,-62
10380,9,-231,136,-26,72,-63
10385,8,-229,135,-21,79,-63
10390,7,-229,133,-18,86,-63
10395,5,-228,136,-17,93,-61
10400,10,-229,137,-21,97,-59
10405,15,-236,132,-36,98,-68
10410,5,-231,138,-70,101,-94
10415,8,-229,140,-77,112,-93
10420,8,-233,137,-57,126,-91
10425,8,-229,138,-34,137,-93
10430,6,-226,138,-24,141,-94
10435,8,-225,140,-19,139,-91
10440,7,-225,140,-10,135,-83
10445,7,-224,137,-7,131,-78
10450,7,-225,145,-7,127,-77
10455,6,-226,145,-11,120,-78
10460,7,-223,142,-13,115,-77
10465,5,-223,139,-11,113,-79
10470,5,-225,136,-7,114,-81
10475,9,-225,139,-5,114,-84
10480,9,-228,139,-5,116,-88
10485,11,-230,139,-9,115,-92
10490,7,-233,138,-15,115,-94
10495,10,-232,136,-23,116,-97
10500,7,-229,134,-33,118,-99
10505,9,-232,139,-40,120,-103
10510,11,-233,133,-47,123,-105
10515,10,-232,139,-48,125,-104
10520,9,-231,137,-47,128,-105
10525,11,-232,136,-41,128,-103
10530,10,-231,135,-30,129,-102
10535,10,-234,138,-17,127,-100
10540,9,-230,134,-8,128,-99
10545,13,-231,137,1,132,-98
10550,13,-228,137,8,133,-98
10555,12,-225,131,12,136,-97
10560,14,-226,136,8,138,-98
10565,10,-229,135,5,141,-99
10570,13,-227,135,4,144,-102
10575,8,-227,137,3,146,-105
10580,11,-228,138,4,150,-105
10585,10,-227,138,5,155,-107
10590,6,-225,137,7,158,-108
10595,9,-227,140,11,160,-111
10600,8,-231,136,12,163,-115
10605,12,-231,136,14,167,-115
10610,8,-231,137,13,171,-116
10615,10,-230,141,13,174,-117
10620,7,-230,138,12,176,-118
10625,9,-231,137,11,177,-119
10630,8,-231,139,11,177,-118
10635,8,-230,133,11,179,-118
10640,10,-233,139,11,179,-117
10645,10,-230,136,10,180,-117
10650,10,-230,138,11,179,-117
10655,8,-228,139,13,178,-119
10660,9,-229,137,16,177,-118
10665,8,-230,135,17,175,-117
10670,9,-229,148,17,176,-118
10675,9,-229,137,18,175,-117
10680,10,-231,138,18,176,-116
10685,10,-229,136,19,175,-118
10690,12,-229,135,21,174,-117
10695,9,-231,137,19,176,-116
10700,9,-229,137,19,177,-118
10705,8,-228,138,17,180,-118
10710,8,-230,138,16,180,-119
10715,7,-226,139,17,182,-119
10720,7,-230,138,18,186,-121
10725,7,-229,138,17,188,-122
10730,9,-227,140,17,189,-122
10735,7,-229,135,15,192,-124
10740,7,-229,140,14,195,-124
10745,6,-228,137,12,197,-126
10750,8,-231,143,9,198,-127
10755,5,-229,139,6,197,-126
10760,6,-227,137,6,198,-127
10765,10,-229,140,6,198,-125
10770,8,-228,137,7,198,-125
10775,5,-230,139,8,196,-122
10780,5,-225,135,10,196,-122
10785,6,-225,137,10,194,-120
10790,6,-231,136,10,192,-119
10795,5,-230,139,8,190,-118
10800,6,-226,137,7,186,-119
10805,8,-229,137,5,182,-117
10810,7,-230,139,3,181,-114
10815,8,-229,138,1,181,-116
10820,7,-226,135,0,180,-115
10825,5,-228,140,0,180,-114
10830,9,-226,145,0,179,-113
10835,8,-228,135,1,178,-113
10840,7,-225,137,1,178,-113
10845,7,-229,139,0,177,-111
10850,6,-226,140,-3,179,-109
10855,4,-225,141,-9,180,-111
10860,8,-227,137,-13,179,-111
10865,7,-227,135,-19,180,-111
10870,8,-230,137,-25,181,-111
10875,5,-227,134,-30,182,-111
10880,5,-228,138,-32,182,-111
10885,9,-230,137,-36,183,-112
10890,11,-232,138,-38,182,-113
10895,8,-230,138,-39,183,-113
10900,7,-230,136,-41,183,-111
10905,9,-230,137,-44,182,-110
10910,6,-228,135,-46,181,-110
10915,10,-230,138,-47,181,-109
10920,10,-230,137,-47,182,-108
10925,7,-229,140,-47,181,-108
10930,6,-228,139,-45,180,-108
10935,9,-234,137,-42,180,-107
10940,7,-230,136,-41,180,-104
10945,8,-231,136,-36,179,-102
10950,6,-227,139,-33,179,-102
10955,8,-229,136,-29,178,-99
10960,10,-232,140,-27,176,-95
10965,9,-232,136,-23,174,-93
10970,9,-232,137,-21,172,-92
10975,10,-230,140,-18,171,-91
10980,7,-231,136,-16,172,-89
10985,8,-229,140,-15,171,-85
10990,10,-231,137,-12,169,-85
10995,12,-232,135,-8,166,-82
11000,8,-229,137,-5,165,-81
11005,10,-228,135,-3,163,-81
11010,8,-227,139,-3,163,-79
11015,9,-228,137,-3,163,-79
11020,9,-230,136,-5,163,-79
11025,11,-230,136,-8,163,-79
11030,9,-227,141,-10,167,-80
11035,8,-229,138,-11,168,-79
11040,11,-228,141,-14,168,-80
11045,8,-226,138,-14,171,-81
11050,11,-228,145,-13,173,-80
11055,10,-226,136,-12,173,-80
11060,10,-228,136,-13,174,-80
11065,10,-229,140,-13,177,-82
11070,7,-229,139,-16,178,-81
11075,11,-230,138,-18,179,-80
11080,10,-229,140,-21,182,-79
11085,11,-230,138,-21,184,-80
11090,12,-226,141,-21,185,-82
11095,9,-227,138,-20,185,-81
11100,9,-230,139,-18,184,-80
11105,9,-230,136,-15,184,-78
11110,9,-226,139,-14,185,-79
11115,11,-231,136,-12,184,-79
11120,8,-231,139,-12,183,-78
11125,12,-230,137,-11,181,-78
11130,11,-231,132,-11,182,-76
11135,10,-230,137,-12,182,-77
11140,11,-231,134,-13,181,-76
11145,13,-230,138,-14,182,-77
11150,10,-227,136,-15,181,-77
11155,13,-228,137,-16,182,-76
11160,11,-228,141,-17,184,-76
11165,10,-229,136,-19,184,-76
11170,13,-231,136,-19,185,-75
11175,9,-230,138,-17,185,-74
11180,12,-228,137,-15,181,-72
11185,10,-229,138,-13,181,-70
11190,11,-232,137,-11,180,-69
11195,11,-229,137,-9,180,-68
11200,11,-228,139,-12,181,-67
11205,15,-229,134,-15,183,-68
11210,12,-229,137,-20,183,-68
11215,13,-234,130,-23,186,-67
11220,12,-231,137,-23,188,-67
11225,11,-229,142,-22,188,-66
11230,11,-235,139,-22,190,-66
11235,12,-230,138,-22,190,-65
11240,10,-228,138,-21,190,-65
11245,9,-231,139,-21,190,-65
11250,10,-228,139,-22,190,-64
11255,12,-231,136,-24,189,-62
11260,8,-230,139,-27,188,-62
11265,12,-230,140,-29,187,-61
11270,8,-232,142,-31,187,-58
11275,10,-230,140,-32,185,-59
11280,12,-233,141,-31,183,-59
11285,12,-233,138,-30,181,-57
11290,13,-232,140,-30,180,-56
11295,9,-229,136,-28,179,-55
11300,11,-230,137,-26,179,-54
11305,11,-231,138,-26,179,-53
11310,13,-230,138,-28,179,-51
11315,8,-229,139,-28,178,-51
11320,12,-228,136,-29,177,-51
11325,16,-231,141,-29,177,-50
11330,10,-229,140,-28,177,-50
11335,10,-228,134,-26,176,-49
11340,10,-229,138,-24,175,-50
11345,9,-229,136,-23,175,-49
11350,11,-230,137,-20,174,-49
11355,10,-229,137,-21,175,-48
11360,12,-230,136,-20,174,-48
11365,9,-230,136,-19,173,-49
11370,12,-228,133,-17,175,-49
11375,12,-228,133,-16,175,-48
11380,11,-230,137,-16,176,-50
11385,8,-228,134,-16,174,-50
11390,9,-229,136,-17,175,-50
11395,11,-230,134,-20,176,-51
11400,9,-228,137,-21,174,-51
11405,10,-230,133,-21,175,-50
11410,10,-229,138,-22,175,-51
11415,11,-230,138,-20,174,-51
11420,8,-228,137,-18,172,-49
11425,9,-229,137,-16,171,-50
11430,10,-231,138,-11,169,-49
11435,26,-228,159,-7,168,-48
11440,20,-227,138,-5,168,-47
11445,18,-234,151,-2,165,-46
11450,14,-223,133,-2,163,-44
11455,11,-221,129,-1,162,-44
11460,13,-231,150,-3,160,-44
11465,17,-224,134,-3,160,-43
11470,12,-224,144,-5,157,-42
11475,9,-236,133,-5,158,-41
11480,12,-233,156,-5,158,-39
11485,13,-231,132,-3,158,-39
11490,9,-230,134,-3,157,-38
11495,12,-231,137,-3,156,-38
11500,11,-232,131,-3,155,-37
11505,9,-230,136,-2,156,-37
11510,15,-220,147,0,156,-37
11515,30,-239,139,0,155,-35
11520,19,-226,141,-3,154,-35
11525,8,-222,135,-2,155,-36
11530,11,-214,137,-2,154,-36
11535,10,-218,118,-4,153,-36
11540,1,-229,145,-5,154,-37
11545,7,-232,129,-6,154,-38
11550,7,-223,132,-8,153,-36
11555,19,-229,142,-8,154,-36
11560,9,-240,134,-9,155,-36
11565,10,-231,138,-9,154,-35
11570,9,-231,136,-9,153,-36
11575,13,-231,133,-9,152,-35
11580,9,-231,137,-10,151,-34
11585,25,-237,143,-10,150,-35
11590,13,-227,149,-10,149,-34
11595,15,-227,129,-12,148,-33
11600,9,-243,147,-12,147,-34
11605,16,-238,132,-10,149,-33
11610,3,-224,149,-11,146,-33
11615,14,-224,144,-10,144,-32
11620,9,-230,145,-10,143,-31
11625,11,-237,145,-9,143,-31
11630,18,-220,119,-7,141,-31
11635,16,-226,136,-5,142,-30
11640,9,-230,135,-3,143,-31
11645,12,-229,135,-3,145,-30
11650,12,-230,138,-2,145,-31
11655,11,-218,135,0,144,-31
11660,18,-222,137,2,142,-31
11665,11,-231,132,4,141,-29
11670,16,-220,134,6,140,-30
11675,6,-235,138,6,141,-30
11680,13,-230,129,7,141,-29
11685,13,-225,136,9,137,-28
11690,14,-229,136,9,136,-29
11695,7,-230,136,9,135,-29
11700,12,-231,141,7,133,-27
11705,17,-229,139,6,134,-30
11710,14,-229,141,6,135,-29
11715,11,-232,139,6,134,-31
11720,11,-228,137,6,136,-32
11725,11,-228,134,4,137,-30
11730,12,-228,135,4,135,-31
11735,6,-230,140,3,137,-33
11740,12,-226,135,1,138,-33
11745,15,-222,138,0,137,-33
11750,18,-228,146,0,137,-31
11755,11,-228,136,-1,136,-32
11760,13,-228,144,-3,137,-33
11765,8,-226,140,-3,136,-34
11770,10,-229,132,-6,137,-34
11775,17,-222,141,-7,140,-31
11780,2,-225,135,-9,140,-32
11785,11,-226,139,-9,138,-32
11790,14,-227,135,-12,137,-31
11795,10,-227,139,-13,135,-32
11800,10,-227,137,-16,134,-31
11805,12,-230,141,-19,134,-30
11810,27,-231,159,-20,134,-31
11815,12,-237,143,-22,133,-30
11820,14,-240,117,-21,132,-29
11825,21,-222,141,-19,129,-30
11830,9,-237,134,-15,129,-29
11835,14,-233,141,-11,129,-28
11840,20,-220,143,-9,126,-29
11845,12,-232,121,-9,126,-30
11850,13,-220,160,-10,124,-28
11855,10,-238,140,-13,123,-29
11860,22,-233,138,-16,122,-27
11865,13,-228,137,-16,122,-26
11870,14,-227,138,-14,122,-27
11875,15,-230,136,-11,125,-26
11880,11,-229,139,-7,126,-26
11885,8,-229,134,-4,129,-27
11890,12,-230,137,-2,132,-29
11895,27,-225,121,-1,133,-30
11900,13,-232,136,-2,136,-31
11905,12,-228,140,-3,140,-32
11910,9,-220,138,-6,139,-32
11915,8,-231,137,-7,140,-32
11920,14,-228,138,-9,137,-34
11925,12,-232,138,-9,138,-35
11930,10,-227,136,-10,136,-35
11935,17,-230,142,-10,136,-35
11940,9,-229,140,-9,136,-34
11945,10,-228,136,-9,134,-34
11950,12,-231,135,-9,134,-33
11955,13,-229,138,-8,133,-35
11960,8,-226,137,-7,131,-35
11965,10,-226,133,-8,129,-33
11970,11,-229,137,-10,127,-33
11975,13,-227,136,-10,127,-34
11980,11,-226,136,-12,124,-33
11985,10,-229,139,-12,122,-33
11990,13,-228,136,-13,121,-32
11995,9,-231,135,-14,120,-34
