timestamp,acc_x,acc_y,acc_z,gyro_x,gyro_y,gyro_z
0,9,-234,-147,-13,41,10
5,8,-234,-150,-19,41,11
10,5,-234,-149,-25,40,11
15,10,-237,-149,-26,39,12
20,4,-238,-148,-26,40,12
25,11,-241,-152,-25,38,13
30,9,-234,-148,-24,37,13
35,7,-234,-149,-24,37,12
40,12,-237,-150,-27,36,10
45,11,-236,-153,-27,37,11
50,9,-235,-149,-26,37,9
55,6,-232,-154,-24,36,6
60,8,-233,-151,-26,37,7
65,6,-233,-154,-25,36,6
70,6,-234,-154,-25,36,6
75,10,-234,-152,-27,35,3
80,8,-236,-154,-25,33,4
85,8,-231,-151,-24,30,2
90,7,-237,-152,-27,27,3
95,5,-230,-150,-28,26,2
100,8,-229,-153,-32,25,1
105,11,-232,-149,-35,25,3
110,8,-228,-151,-41,26,3
115,9,-230,-153,-46,26,4
120,8,-231,-150,-52,26,3
125,7,-232,-148,-56,24,5
130,8,-234,-149,-58,22,4
135,10,-236,-149,-60,21,3
140,11,-237,-150,-63,18,4
145,8,-236,-146,-61,15,4
150,7,-236,-151,-60,15,4
155,10,-237,-152,-58,14,4
160,8,-237,-148,-55,13,4
165,11,-235,-149,-54,12,6
170,9,-238,-150,-54,12,7
175,6,-235,-152,-56,13,6
180,7,-236,-149,-56,13,7
185,5,-237,-150,-59,14,7
190,9,-236,-149,-60,16,9
195,9,-238,-149,-62,14,8
200,5,-237,-149,-61,15,10
205,7,-238,-150,-62,14,9
210,7,-239,-150,-61,14,9
215,7,-239,-153,-64,13,8
220,13,-246,-143,-66,12,9
225,10,-236,-142,-67,10,6
230,9,-244,-149,-70,9,7
235,10,-239,-151,-69,10,8
240,10,-242,-149,-70,8,5
245,10,-240,-149,-70,7,5
250,10,-240,-148,-70,6,4
255,8,-238,-153,-71,7,3
260,9,-237,-144,-70,7,2
265,8,-239,-149,-70,9,3
270,13,-238,-147,-66,12,4
275,8,-239,-150,-64,13,4
280,7,-239,-149,-65,13,2
285,7,-239,-148,-63,15,4
290,9,-238,-153,-63,16,3
295,10,-238,-151,-63,17,5
300,8,-237,-152,-63,18,5
305,4,-240,-153,-66,17,6
310,6,-239,-154,-66,15,6
315,8,-238,-151,-67,15,6
320,6,-236,-149,-68,14,5
325,11,-237,-149,-69,15,5
330,6,-239,-150,-65,13,4
335,6,-238,-148,-64,15,3
340,11,-239,-144,-63,16,3
345,7,-239,-147,-63,18,4
350,9,-240,-146,-63,19,2
355,7,-237,-147,-64,20,1
360,9,-240,-148,-67,21,0
365,11,-234,-145,-69,20,0
370,8,-237,-149,-71,19,0
375,10,-237,-151,-72,19,0
380,10,-237,-148,-71,20,0
385,8,-235,-150,-71,20,0
390,8,-238,-151,-70,22,1
395,6,-237,-149,-70,22,0
400,8,-237,-152,-71,24,1
405,9,-241,-152,-71,24,2
410,9,-241,-153,-73,24,3
415,10,-239,-151,-77,23,3
420,7,-237,-150,-78,24,4
425,9,-239,-151,-78,24,4
430,9,-239,-148,-79,24,3
435,7,-239,-152,-77,24,3
440,9,-240,-150,-76,24,2
445,6,-239,-148,-75,25,0
450,7,-239,-153,-75,24,-1
455,7,-239,-153,-73,23,-2
460,10,-239,-150,-71,22,-3
465,6,-239,-148,-69,23,-3
470,5,-237,-147,-69,21,-2
475,5,-237,-152,-68,20,-3
480,8,-239,-152,-67,18,-5
485,5,-235,-151,-66,17,-5
490,7,-237,-152,-63,15,-6
495,4,-238,-151,-62,15,-4
500,6,-239,-154,-59,16,-5
505,7,-238,-151,-59,18,-4
510,0,-248,-143,-58,19,-5
515,7,-237,-151,-57,21,-4
520,6,-233,-154,-56,23,-3
525,10,-237,-152,-57,23,-4
530,7,-237,-151,-59,24,-3
535,7,-236,-149,-58,22,-3
540,3,-236,-152,-62,22,-4
545,7,-236,-154,-64,21,-3
550,6,-241,-153,-67,18,-3
555,7,-237,-147,-68,16,-3
560,11,-238,-155,-69,13,-4
565,8,-238,-150,-71,11,-6
570,8,-240,-150,-69,10,-5
575,6,-240,-149,-68,9,-7
580,7,-237,-151,-67,9,-6
585,7,-239,-150,-65,10,-7
590,8,-237,-154,-61,9,-7
595,4,-237,-150,-59,7,-8
600,7,-238,-150,-55,7,-10
605,7,-237,-151,-52,9,-10
610,7,-238,-150,-50,9,-10
615,18,-228,-162,-51,9,-11
620,7,-238,-149,-50,9,-10
625,5,-235,-151,-50,9,-9
630,3,-236,-154,-49,10,-9
635,6,-235,-151,-50,9,-9
640,6,-237,-156,-50,10,-9
645,6,-235,-150,-49,12,-9
650,8,-236,-155,-50,13,-8
655,9,-237,-155,-53,13,-7
660,5,-238,-152,-54,15,-7
665,7,-238,-154,-53,18,-6
670,4,-232,-153,-54,21,-5
675,7,-235,-152,-53,22,-5
680,5,-235,-152,-51,22,-6
685,9,-236,-153,-49,21,-6
690,7,-236,-150,-51,20,-8
695,6,-232,-152,-52,18,-9
700,7,-235,-152,-51,16,-9
705,9,-235,-151,-51,15,-11
710,9,-233,-152,-48,15,-11
715,4,-231,-152,-46,14,-12
720,8,-231,-152,-46,14,-14
725,5,-230,-153,-47,14,-14
730,12,-234,-152,-49,12,-13
735,5,-232,-152,-51,12,-14
740,7,-231,-149,-54,12,-13
745,6,-233,-153,-58,13,-13
750,6,-236,-151,-61,12,-11
755,7,-238,-153,-62,13,-11
760,4,-236,-155,-63,12,-11
765,6,-238,-149,-64,14,-9
770,9,-238,-154,-63,14,-9
775,7,-241,-152,-63,13,-8
780,6,-240,-153,-66,16,-8
785,3,-238,-156,-66,17,-6
790,7,-242,-152,-65,16,-5
795,4,-240,-154,-65,16,-7
800,5,-236,-154,-64,17,-6
805,6,-239,-151,-62,18,-7
810,5,-237,-153,-59,18,-7
815,9,-241,-156,-55,16,-7
820,6,-239,-149,-51,15,-8
825,3,-235,-153,-47,12,-9
830,7,-235,-156,-43,11,-10
835,6,-231,-153,-41,9,-11
840,4,-234,-152,-40,6,-11
845,7,-233,-154,-43,6,-12
850,6,-232,-154,-43,5,-11
855,4,-230,-157,-45,6,-11
860,6,-234,-154,-52,8,-10
865,8,-235,-152,-55,8,-8
870,7,-234,-156,-58,11,-9
875,6,-232,-156,-60,11,-7
880,5,-234,-153,-60,14,-6
885,7,-233,-157,-63,15,-5
890,7,-237,-157,-65,17,-5
895,5,-237,-154,-64,18,-5
900,9,-237,-148,-62,18,-5
905,7,-237,-152,-61,20,-7
910,8,-236,-153,-60,20,-5
915,5,-237,-150,-57,19,-7
920,5,-237,-152,-56,19,-6
925,5,-238,-154,-55,19,-7
930,7,-234,-150,-53,19,-7
935,6,-237,-150,-51,18,-7
940,7,-237,-152,-51,19,-9
945,6,-235,-148,-51,18,-9
950,8,-236,-161,-51,17,-9
955,4,-234,-153,-50,16,-8
960,6,-234,-154,-50,15,-9
965,8,-237,-156,-49,16,-11
970,7,-236,-155,-48,16,-10
975,7,-238,-154,-49,15,-11
980,6,-236,-152,-50,16,-10
985,5,-235,-155,-54,17,-10
990,7,-234,-154,-55,18,-8
995,7,-233,-154,-57,19,-8
1000,8,-235,-151,-59,20,-8
1005,6,-234,-155,-58,20,-7
1010,7,-237,-152,-60,21,-6
1015,8,-237,-154,-62,21,-5
1020,5,-236,-153,-64,21,-5
1025,9,-236,-154,-65,22,-5
1030,8,-236,-152,-67,20,-6
1035,7,-236,-153,-67,21,-4
1040,7,-238,-155,-65,20,-4
1045,9,-236,-157,-66,18,-3
1050,7,-238,-157,-64,18,-5
1055,6,-234,-149,-63,17,-4
1060,9,-235,-155,-61,17,-6
1065,7,-239,-158,-60,15,-7
1070,5,-235,-154,-57,16,-7
1075,6,-236,-153,-58,15,-6
1080,7,-238,-155,-57,13,-8
1085,8,-236,-153,-57,12,-7
1090,4,-237,-154,-57,14,-9
1095,7,-237,-154,-54,12,-9
1100,9,-237,-151,-53,13,-7
1105,6,-234,-151,-54,14,-7
1110,5,-239,-154,-55,16,-6
1115,6,-236,-153,-56,17,-6
1120,9,-234,-149,-55,18,-5
1125,7,-238,-154,-56,19,-5
1130,8,-238,-154,-56,20,-4
1135,7,-238,-154,-56,22,-4
1140,8,-236,-156,-54,23,-4
1145,6,-235,-152,-55,22,-3
1150,11,-236,-152,-55,23,-4
1155,5,-239,-153,-53,21,-4
1160,7,-237,-151,-55,20,-5
1165,7,-234,-158,-53,20,-5
1170,6,-234,-153,-51,18,-6
1175,7,-239,-153,-54,18,-6
1180,9,-236,-154,-51,17,-6
1185,10,-236,-155,-49,17,-7
1190,9,-234,-152,-48,17,-8
1195,7,-236,-155,-46,16,-8
1200,10,-238,-156,-43,16,-8
1205,8,-233,-153,-44,18,-7
1210,9,-233,-153,-44,19,-8
1215,5,-233,-157,-47,18,-8
1220,6,-234,-153,-52,19,-10
1225,5,-231,-153,-54,19,-9
1230,6,-235,-149,-55,19,-9
1235,7,-235,-160,-56,18,-7
1240,6,-237,-156,-55,19,-8
1245,4,-236,-155,-54,19,-8
1250,6,-234,-155,-55,20,-6
1255,7,-235,-152,-55,20,-5
1260,9,-235,-156,-57,20,-4
1265,9,-236,-151,-59,22,-4
1270,9,-235,-153,-58,23,-4
1275,6,-236,-156,-56,24,-3
1280,7,-236,-157,-56,25,-2
1285,10,-238,-156,-54,25,-4
1290,8,-236,-154,-53,25,-2
1295,7,-235,-157,-53,25,-1
1300,9,-234,-155,-53,25,-2
1305,8,-237,-158,-52,25,-4
1310,8,-239,-153,-50,23,-5
1315,6,-237,-154,-47,23,-6
1320,5,-233,-152,-42,22,-9
1325,6,-231,-153,-41,21,-10
1330,8,-234,-155,-40,19,-9
1335,7,-230,-154,-41,17,-12
1340,7,-232,-153,-44,15,-11
1345,3,-228,-153,-46,14,-12
1350,5,-233,-151,-51,13,-11
1355,9,-229,-158,-52,13,-12
1360,7,-232,-153,-54,12,-12
1365,9,-234,-155,-57,13,-11
1370,7,-231,-155,-57,14,-11
1375,6,-234,-155,-58,13,-9
1380,7,-234,-152,-58,15,-8
1385,10,-233,-159,-60,15,-7
1390,7,-238,-155,-64,17,-7
1395,11,-238,-154,-65,18,-6
1400,8,-236,-157,-69,19,-6
1405,8,-235,-154,-70,21,-5
1410,6,-237,-154,-72,21,-5
1415,8,-238,-152,-72,22,-4
1420,7,-238,-155,-69,18,-4
1425,8,-239,-160,-66,19,-4
1430,6,-239,-156,-63,17,-5
1435,6,-238,-156,-59,16,-4
1440,6,-237,-152,-56,16,-4
1445,7,-233,-154,-52,14,-3
1450,9,-236,-157,-50,15,-3
1455,8,-238,-156,-45,14,-3
1460,8,-235,-154,-43,15,-5
1465,9,-234,-158,-40,15,-4
1470,11,-234,-155,-38,15,-3
1475,9,-234,-160,-36,17,-4
1480,10,-232,-155,-38,17,-5
1485,9,-234,-155,-39,17,-4
1490,18,-227,-153,-43,17,-4
1495,8,-231,-152,-47,18,-5
1500,5,-232,-155,-51,17,-4
1505,8,-233,-154,-56,16,-4
1510,7,-233,-157,-59,16,-4
1515,9,-234,-152,-60,14,-5
1520,11,-239,-157,-61,16,-5
1525,9,-234,-158,-60,19,-6
1530,8,-236,-156,-60,19,-5
1535,6,-235,-157,-56,21,-4
1540,10,-237,-155,-54,20,-4
1545,14,-237,-145,-53,21,-3
1550,10,-239,-154,-53,22,-4
1555,7,-240,-155,-51,23,-5
1560,5,-240,-155,-49,22,-5
1565,5,-238,-155,-47,22,-5
1570,8,-236,-156,-46,22,-5
1575,8,-236,-154,-45,23,-5
1580,5,-234,-155,-45,23,-5
1585,6,-235,-155,-46,23,-7
1590,5,-237,-157,-48,22,-6
1595,9,-230,-164,-48,24,-6
1600,6,-237,-153,-49,25,-5
1605,10,-239,-151,-51,25,-5
1610,11,-237,-157,-50,28,-3
1615,10,-236,-155,-51,29,-2
1620,10,-238,-157,-52,33,-2
1625,9,-238,-154,-50,34,-2
1630,9,-236,-156,-50,34,-1
1635,6,-233,-154,-50,35,-1
1640,8,-236,-154,-49,37,-1
1645,7,-236,-155,-49,37,-2
1650,8,-237,-148,-48,37,-3
1655,7,-235,-154,-46,36,-3
1660,9,-237,-154,-46,36,-4
1665,7,-236,-152,-44,35,-5
1670,8,-235,-154,-45,34,-6
1675,10,-239,-154,-46,33,-8
1680,6,-233,-157,-47,30,-8
1685,7,-235,-152,-47,28,-9
1690,7,-235,-154,-50,27,-9
1695,9,-235,-153,-50,24,-9
1700,4,-236,-156,-49,24,-10
1705,6,-233,-152,-46,23,-10
1710,9,-236,-150,-47,25,-10
1715,5,-233,-155,-48,26,-9
1720,6,-235,-160,-50,26,-9
1725,9,-233,-158,-52,26,-9
1730,6,-237,-153,-53,26,-9
1735,8,-233,-155,-54,28,-8
1740,4,-233,-153,-55,27,-9
1745,9,-235,-151,-56,25,-7
1750,8,-236,-152,-57,25,-7
1755,10,-236,-155,-58,24,-8
1760,12,-240,-155,-58,25,-8
1765,5,-237,-155,-58,24,-8
1770,10,-238,-155,-57,25,-9
1775,7,-235,-155,-56,25,-9
1780,9,-235,-157,-53,25,-9
1785,8,-236,-159,-55,26,-9
1790,9,-237,-155,-56,25,-10
1795,9,-236,-157,-56,25,-8
1800,4,-236,-155,-55,25,-10
1805,7,-235,-156,-54,25,-10
1810,7,-238,-153,-53,26,-9
1815,8,-236,-154,-53,27,-9
1820,7,-239,-153,-52,27,-9
1825,8,-236,-155,-51,26,-10
1830,7,-238,-151,-53,28,-10
1835,7,-237,-152,-55,27,-9
1840,6,-235,-155,-56,29,-9
1845,10,-236,-156,-57,30,-9
1850,8,-238,-157,-56,31,-10
1855,10,-235,-154,-52,30,-10
1860,6,-236,-153,-50,32,-10
1865,6,-235,-155,-48,30,-10
1870,5,-234,-154,-47,30,-11
1875,4,-233,-156,-46,31,-10
1880,9,-233,-155,-45,30,-11
1885,9,-233,-160,-44,32,-11
1890,6,-233,-155,-46,34,-11
1895,5,-229,-154,-47,35,-10
1900,10,-234,-158,-50,35,-11
1905,8,-233,-155,-53,35,-10
1910,7,-234,-157,-59,36,-11
1915,6,-234,-156,-61,36,-10
1920,8,-238,-158,-65,34,-10
1925,11,-233,-158,-68,35,-12
1930,9,-237,-153,-67,33,-11
1935,7,-234,-153,-66,33,-12
1940,9,-237,-154,-60,32,-13
1945,10,-234,-152,-58,30,-13
1950,11,-233,-153,-54,31,-14
1955,10,-235,-152,-54,30,-14
1960,8,-231,-155,-56,32,-14
1965,11,-235,-157,-58,30,-13
1970,7,-233,-155,-61,29,-12
1975,7,-231,-155,-65,27,-12
1980,8,-235,-157,-68,29,-12
1985,9,-235,-159,-67,27,-12
1990,9,-237,-153,-66,28,-12
1995,8,-238,-157,-65,29,-12
2000,9,-236,-156,-61,29,-11
2005,13,-237,-154,-57,31,-11
2010,5,-234,-157,-53,32,-11
2015,5,-236,-158,-51,33,-10
2020,8,-237,-156,-48,33,-11
2025,9,-235,-154,-45,32,-11
2030,9,-237,-151,-41,34,-11
2035,7,-234,-153,-42,34,-11
2040,10,-234,-159,-41,34,-12
2045,7,-234,-157,-41,35,-11
2050,7,-232,-153,-41,34,-10
2055,8,-234,-155,-43,34,-10
2060,5,-234,-153,-46,35,-10
2065,8,-235,-157,-48,35,-10
2070,10,-232,-158,-51,34,-10
2075,6,-236,-159,-53,34,-11
2080,7,-234,-154,-53,34,-9
2085,7,-233,-150,-53,34,-10
2090,8,-236,-157,-53,34,-10
2095,7,-236,-156,-49,33,-11
2100,10,-234,-155,-50,32,-12
2105,11,-237,-153,-49,32,-14
2110,11,-233,-157,-49,29,-13
2115,10,-234,-154,-47,29,-13
2120,8,-235,-156,-47,29,-14
2125,13,-236,-155,-45,29,-14
2130,11,-234,-158,-43,29,-14
2135,8,-234,-154,-42,28,-13
2140,10,-233,-157,-41,27,-13
2145,12,-234,-156,-38,26,-14
2150,10,-234,-155,-38,26,-14
2155,9,-234,-151,-38,25,-14
2160,7,-231,-151,-41,26,-13
2165,8,-233,-154,-42,27,-13
2170,7,-232,-154,-44,27,-13
2175,8,-232,-153,-48,29,-13
2180,11,-236,-155,-51,30,-12
2185,7,-233,-154,-54,30,-13
2190,7,-231,-157,-54,30,-12
2195,7,-230,-156,-56,30,-11
2200,7,-233,-153,-55,30,-12
2205,7,-232,-151,-58,28,-13
2210,9,-236,-153,-58,28,-12
2215,8,-234,-156,-58,30,-10
2220,6,-231,-151,-56,30,-9
2225,8,-234,-159,-53,30,-8
2230,9,-233,-155,-51,30,-9
2235,8,-234,-153,-49,31,-7
2240,7,-234,-154,-47,30,-8
2245,9,-233,-152,-46,31,-7
2250,6,-231,-154,-44,32,-7
2255,9,-231,-153,-44,30,-7
2260,10,-233,-155,-46,31,-6
2265,12,-231,-156,-47,30,-7
2270,10,-232,-155,-48,30,-9
2275,7,-230,-156,-52,29,-9
2280,9,-235,-155,-55,27,-8
2285,8,-235,-156,-57,25,-9
2290,8,-231,-150,-58,24,-9
2295,10,-232,-156,-59,24,-9
2300,8,-232,-154,-59,23,-11
2305,7,-234,-156,-59,20,-12
2310,10,-233,-156,-60,19,-12
2315,10,-235,-160,-62,18,-12
2320,8,-229,-158,-62,18,-11
2325,10,-234,-159,-62,16,-12
2330,11,-233,-155,-61,16,-12
2335,8,-233,-157,-60,17,-12
2340,7,-235,-158,-59,16,-12
2345,9,-236,-155,-61,17,-13
2350,10,-235,-157,-61,17,-11
2355,9,-237,-156,-60,18,-12
2360,5,-232,-158,-59,18,-12
2365,11,-234,-154,-59,17,-13
2370,8,-237,-159,-61,17,-11
2375,11,-237,-157,-60,18,-10
2380,9,-237,-157,-61,18,-10
2385,8,-233,-155,-62,19,-8
2390,8,-233,-156,-63,19,-8
2395,7,-234,-157,-66,19,-7
2400,11,-232,-152,-69,19,-6
2405,6,-230,-154,-74,17,-5
2410,5,-230,-152,-78,18,-3
2415,5,-232,-151,-87,15,-3
2420,3,-228,-152,-94,13,-4
2425,4,-232,-150,-98,11,-1
2430,5,-235,-151,-104,10,3
2435,3,-237,-151,-111,8,7
2440,1,-235,-153,-118,8,13
2445,3,-235,-157,-131,12,19
2450,2,-236,-159,-153,16,27
2455,1,-237,-157,-172,22,37
2460,0,-239,-162,-189,33,48
2465,1,-239,-162,-204,43,62
2470,1,-231,-171,-212,62,76
2475,1,-236,-164,-213,81,91
2480,5,-236,-169,-212,102,107
2485,8,-236,-169,-214,122,120
2490,7,-236,-170,-224,141,135
2495,8,-237,-175,-243,165,148
2500,10,-234,-174,-262,188,163
2505,15,-233,-170,-275,211,178
2510,16,-228,-175,-279,237,196
2515,16,-228,-176,-276,263,213
2520,21,-223,-175,-264,284,226
2525,17,-219,-177,-249,298,237
2530,23,-209,-179,-238,309,245
2535,27,-198,-183,-239,320,256
2540,31,-194,-185,-243,336,256
2545,30,-189,-190,-242,351,255
2550,34,-181,-188,-236,369,256
2555,36,-171,-192,-229,387,256
2560,37,-169,-193,-229,404,253
2565,39,-165,-195,-246,422,248
2570,38,-165,-197,-276,440,243
2575,38,-163,-193,-314,456,241
2580,45,-169,-184,-352,466,240
2585,39,-167,-193,-385,472,239
2590,40,-165,-188,-410,470,243
2595,38,-169,-189,-421,459,243
2600,39,-170,-185,-422,443,244
2605,38,-177,-183,-415,419,244
2610,40,-176,-180,-402,391,242
2615,42,-175,-180,-392,358,238
2620,42,-180,-174,-382,324,238
2625,41,-182,-169,-386,290,236
2630,44,-174,-176,-403,255,236
2635,44,-188,-163,-433,219,236
2640,42,-192,-162,-476,181,236
2645,47,-197,-166,-529,146,237
2650,47,-204,-169,-589,111,236
2655,47,-210,-174,-647,85,236
2660,48,-216,-178,-705,60,237
2665,44,-221,-177,-756,39,239
2670,42,-225,-183,-796,21,237
2675,40,-224,-191,-825,7,235
2680,42,-223,-193,-836,2,227
2685,39,-222,-202,-834,-1,215
2690,37,-212,-199,-820,-4,199
2695,40,-210,-203,-794,-13,176
2700,34,-204,-208,-758,-28,155
2705,32,-194,-203,-707,-46,133
2710,30,-193,-203,-648,-61,110
2715,27,-191,-200,-578,-71,90
2720,24,-184,-194,-500,-80,71
2725,22,-175,-190,-422,-90,53
2730,23,-166,-180,-345,-105,40
2735,21,-154,-167,-277,-121,26
2740,24,-143,-158,-228,-142,19
2745,22,-127,-147,-191,-166,14
2750,20,-111,-138,-174,-195,10
2755,19,-94,-132,-173,-226,9
2760,19,-80,-128,-187,-260,8
2765,16,-66,-124,-213,-301,7
2770,6,-55,-119,-249,-351,6
2775,3,-48,-116,-287,-415,-1
2780,-1,-41,-110,-328,-490,-11
2785,-14,-32,-105,-375,-575,-23
2790,-17,-29,-102,-429,-662,-39
2795,-24,-23,-97,-485,-752,-59
2800,-39,-20,-94,-542,-840,-78
2805,-49,-15,-94,-591,-927,-98
2810,-59,-16,-98,-640,-1007,-114
2815,-64,-14,-105,-685,-1071,-131
2820,-67,-16,-119,-733,-1117,-146
2825,-69,-17,-130,-790,-1139,-151
2830,-68,-20,-149,-854,-1134,-141
2835,-65,-28,-173,-928,-1107,-118
2840,-64,-37,-195,-1015,-1062,-77
2845,-64,-48,-221,-1106,-1006,-22
2850,-59,-60,-244,-1190,-938,49
2855,-43,-77,-258,-1249,-857,130
2860,-20,-96,-268,-1271,-747,219
2865,4,-128,-276,-1265,-586,316
2870,29,-171,-278,-1241,-371,416
2875,42,-221,-264,-1222,-120,510
2880,33,-273,-254,-1217,132,573
2885,24,-318,-237,-1214,350,596
2890,2,-350,-236,-1196,508,579
2895,-13,-369,-219,-1151,614,541
2900,-30,-374,-203,-1065,668,483
2905,-42,-376,-177,-930,682,419
2910,-55,-375,-162,-764,652,353
2915,-65,-376,-144,-583,587,286
2920,-76,-369,-128,-404,491,236
2925,-73,-372,-122,-219,375,206
2930,-64,-361,-121,-15,259,190
2935,-53,-339,-117,222,160,183
2940,-44,-312,-113,497,87,188
2945,-35,-281,-105,795,46,202
2950,-29,-246,-118,1111,31,208
2955,-20,-207,-129,1402,44,205
2960,-17,-174,-152,1631,74,184
2965,-18,-146,-176,1761,122,164
2970,-11,-113,-194,1770,166,136
2975,-12,-86,-214,1654,193,98
2980,-12,-66,-222,1435,193,62
2985,-15,-54,-229,1127,178,35
2990,-10,-54,-225,754,149,7
2995,-16,-63,-223,360,114,-28
3000,-19,-78,-214,-18,86,-51
3005,-17,-103,-206,-334,65,-63
3010,-25,-128,-195,-574,56,-75
3015,-27,-148,-195,-727,65,-78
3020,-26,-169,-188,-799,102,-70
3025,-27,-189,-190,-802,161,-65
3030,-29,-196,-192,-761,245,-57
3035,-37,-199,-195,-686,340,-41
3040,-46,-200,-201,-611,429,-7
3045,-51,-212,-202,-553,495,52
3050,-45,-217,-201,-530,531,116
3055,-44,-226,-205,-536,549,170
3060,-30,-238,-205,-558,569,236
3065,-33,-261,-202,-575,583,297
3070,-26,-284,-196,-581,598,384
3075,-18,-305,-193,-582,604,470
3080,-17,-313,-190,-567,605,539
3085,-13,-330,-193,-510,602,618
3090,8,-338,-191,-419,592,695
3095,18,-336,-196,-274,568,688
3100,31,-322,-196,-91,531,625
3105,41,-300,-206,97,491,509
3110,57,-273,-205,247,474,390
3115,86,-261,-210,356,461,292
3120,90,-235,-215,407,453,184
3125,90,-214,-226,395,449,98
3130,90,-198,-221,317,467,27
3135,70,-195,-222,207,497,-64
3140,65,-192,-223,69,547,-80
3145,54,-195,-213,-52,588,-102
3150,38,-204,-210,-135,607,-121
3155,22,-213,-201,-181,618,-128
3160,10,-222,-197,-190,607,-130
3165,-7,-218,-205,-158,559,-163
3170,-11,-221,-213,-124,507,-158
3175,-26,-210,-213,-105,457,-153
3180,-40,-207,-205,-80,411,-164
3185,-45,-206,-199,-61,343,-164
3190,-55,-202,-206,-58,300,-108
3195,-35,-209,-210,-72,275,-13
3200,-57,-206,-204,-85,262,12
3205,-46,-209,-204,-98,246,57
3210,-41,-209,-193,-115,229,109
3215,-37,-209,-181,-149,207,165
3220,-17,-216,-187,-183,169,225
3225,6,-225,-191,-200,141,251
3230,18,-218,-194,-200,124,244
3235,38,-216,-195,-178,122,246
3240,25,-204,-209,-149,118,214
3245,46,-204,-216,-135,112,210
3250,48,-205,-225,-152,104,187
3255,32,-197,-229,-198,99,152
3260,36,-201,-235,-255,94,114
3265,5,-200,-227,-311,95,63
3270,-7,-205,-227,-355,78,45
3275,-16,-217,-234,-386,47,53
3280,-23,-226,-243,-401,23,62
3285,-41,-234,-250,-397,8,72
3290,-38,-246,-251,-383,-6,104
3295,-40,-252,-254,-369,-43,134
3300,-33,-257,-241,-350,-78,177
3305,-28,-267,-252,-323,-103,214
3310,-23,-267,-255,-284,-135,249
3315,-32,-266,-251,-238,-159,273
3320,-24,-269,-255,-183,-193,285
3325,-27,-266,-255,-121,-227,301
3330,-15,-268,-258,-60,-267,327
3335,-8,-267,-262,-2,-313,328
3340,-7,-262,-263,62,-352,321
3345,2,-256,-267,127,-392,309
3350,3,-251,-267,188,-428,289
3355,5,-245,-256,247,-451,266
3360,13,-235,-248,306,-479,239
3365,12,-234,-244,361,-508,227
3370,16,-233,-245,399,-541,227
3375,23,-234,-242,430,-568,235
3380,26,-235,-242,464,-582,243
3385,25,-240,-241,518,-580,244
3390,19,-238,-238,574,-569,230
3395,29,-239,-233,624,-556,203
3400,16,-238,-235,673,-532,173
3405,12,-232,-231,721,-499,134
3410,13,-223,-234,755,-478,102
3415,0,-213,-230,781,-459,68
3420,-1,-209,-227,784,-455,29
3425,-4,-200,-224,770,-454,-12
3430,-10,-187,-221,754,-463,-46
3435,-26,-188,-224,725,-472,-77
3440,-26,-182,-219,687,-480,-103
3445,-31,-185,-221,654,-496,-123
3450,-34,-187,-213,628,-501,-140
3455,-30,-185,-216,612,-503,-154
3460,-41,-187,-209,595,-520,-165
3465,-31,-192,-206,586,-532,-175
3470,-35,-197,-199,575,-552,-176
3475,-33,-197,-201,565,-567,-171
3480,-32,-211,-203,551,-586,-176
3485,-33,-210,-201,534,-607,-184
3490,-31,-224,-203,525,-621,-183
3495,-37,-224,-203,531,-631,-183
3500,-35,-243,-189,536,-646,-176
3505,-32,-230,-207,543,-663,-167
3510,-36,-232,-206,544,-676,-153
3515,-39,-236,-212,551,-675,-140
3520,-34,-241,-219,552,-670,-135
3525,-35,-250,-218,547,-656,-127
3530,-35,-248,-220,545,-630,-118
3535,-38,-251,-215,546,-602,-111
3540,-34,-251,-204,554,-576,-107
3545,-43,-252,-210,572,-548,-99
3550,-46,-249,-216,580,-539,-88
3555,-47,-257,-221,585,-528,-80
3560,-42,-252,-208,590,-520,-72
3565,-48,-252,-208,595,-515,-60
3570,-50,-250,-205,599,-512,-44
3575,-53,-251,-205,606,-513,-21
3580,-60,-253,-201,620,-516,8
3585,-62,-250,-200,637,-525,39
3590,-70,-250,-188,648,-537,70
3595,-73,-247,-185,652,-554,95
3600,-83,-245,-191,649,-565,112
3605,-75,-248,-192,638,-562,119
3610,-77,-243,-199,622,-551,118
3615,-72,-243,-200,615,-536,115
3620,-74,-239,-195,612,-525,106
3625,-67,-236,-193,609,-518,94
3630,-69,-241,-188,603,-507,82
3635,-69,-237,-186,592,-495,71
3640,-69,-236,-182,585,-483,60
3645,-70,-242,-179,583,-465,51
3650,-70,-240,-175,586,-448,46
3655,-69,-244,-170,585,-427,45
3660,-73,-241,-171,582,-405,46
3665,-71,-240,-165,576,-381,48
3670,-71,-241,-167,571,-359,55
3675,-72,-245,-159,578,-336,66
3680,-72,-244,-154,588,-320,79
3685,-71,-245,-156,603,-307,89
3690,-69,-245,-156,622,-290,102
3695,-67,-243,-156,639,-274,110
3700,-68,-237,-161,647,-259,117
3705,-72,-242,-155,650,-251,123
3710,-79,-237,-160,654,-249,124
3715,-82,-241,-158,654,-250,120
3720,-87,-241,-161,652,-244,115
3725,-92,-243,-163,646,-230,109
3730,-94,-245,-163,646,-206,107
3735,-96,-247,-168,649,-180,106
3740,-92,-247,-165,653,-150,112
3745,-97,-248,-165,658,-122,119
3750,-98,-252,-166,667,-93,129
3755,-95,-255,-171,675,-64,144
3760,-96,-253,-170,686,-41,157
3765,-94,-255,-170,689,-18,178
3770,-95,-256,-165,694,-4,195
3775,-93,-259,-166,698,1,211
3780,-91,-255,-156,707,1,224
3785,-88,-260,-158,719,-8,237
3790,-88,-255,-152,737,-22,249
3795,-85,-258,-150,755,-36,263
3800,-90,-253,-143,781,-48,275
3805,-91,-249,-147,804,-58,287
3810,-86,-245,-138,818,-66,299
3815,-83,-243,-135,823,-74,306
3820,-84,-238,-133,826,-83,310
3825,-78,-232,-129,818,-98,309
3830,-72,-226,-126,810,-109,310
3835,-72,-217,-120,798,-122,302
3840,-62,-216,-121,775,-135,294
3845,-64,-208,-118,748,-149,285
3850,-57,-209,-119,720,-158,276
3855,-57,-203,-116,692,-164,266
3860,-62,-200,-105,662,-172,245
3865,-59,-196,-106,634,-180,227
3870,-58,-199,-105,603,-192,210
3875,-64,-197,-101,572,-204,190
3880,-66,-197,-98,543,-213,177
3885,-72,-202,-93,518,-226,162
3890,-77,-210,-90,493,-238,151
3895,-84,-214,-86,461,-259,141
3900,-91,-223,-84,436,-284,130
3905,-90,-232,-80,420,-313,121
3910,-95,-242,-79,414,-344,114
3915,-100,-250,-76,422,-370,109
3920,-105,-256,-78,440,-400,107
3925,-107,-262,-69,466,-431,105
3930,-110,-271,-73,494,-460,101
3935,-108,-277,-70,527,-492,95
3940,-112,-280,-72,559,-522,89
3945,-110,-280,-65,599,-547,86
3950,-110,-283,-62,644,-566,79
3955,-110,-278,-60,687,-583,72
3960,-108,-273,-59,726,-591,65
3965,-103,-271,-53,755,-594,60
3970,-100,-263,-55,778,-588,55
3975,-94,-261,-52,799,-574,51
3980,-87,-252,-49,817,-559,46
3985,-86,-249,-46,829,-542,41
3990,-83,-244,-50,829,-525,35
3995,-75,-244,-50,818,-509,32
4000,-73,-240,-52,803,-489,30
4005,-73,-238,-51,788,-461,37
4010,-68,-240,-49,791,-439,33
4015,-65,-239,-53,799,-429,21
4020,-55,-235,-53,791,-415,24
4025,-61,-226,-51,780,-402,11
4030,-63,-225,-61,770,-396,-6
4035,-64,-221,-64,751,-404,-22
4040,-62,-223,-61,719,-410,-25
4045,-62,-221,-60,685,-416,-36
4050,-61,-225,-61,663,-417,-53
4055,-56,-226,-56,646,-406,-49
4060,-63,-225,-62,633,-389,-48
4065,-63,-228,-63,611,-375,-47
4070,-62,-227,-63,579,-366,-43
4075,-61,-231,-61,542,-357,-40
4080,-61,-239,-57,510,-346,-38
4085,-62,-244,-58,488,-340,-38
4090,-66,-243,-58,474,-336,-46
4095,-68,-244,-60,462,-333,-50
4100,-68,-251,-62,451,-326,-50
4105,-72,-248,-61,441,-318,-55
4110,-73,-250,-60,435,-317,-63
4115,-70,-253,-57,421,-312,-58
4120,-70,-253,-53,411,-296,-57
4125,-70,-253,-53,401,-285,-59
4130,-70,-255,-53,393,-270,-67
4135,-71,-252,-52,383,-254,-77
4140,-75,-251,-50,375,-242,-86
4145,-76,-248,-49,369,-232,-96
4150,-71,-250,-54,357,-224,-103
4155,-70,-249,-52,344,-218,-110
4160,-70,-246,-55,329,-222,-125
4165,-68,-248,-47,307,-222,-124
4170,-68,-242,-47,286,-218,-122
4175,-65,-246,-49,269,-222,-122
4180,-62,-244,-42,254,-230,-123
4185,-60,-244,-45,243,-241,-130
4190,-55,-247,-43,235,-255,-133
4195,-55,-249,-47,225,-264,-130
4200,-56,-249,-44,222,-276,-130
4205,-52,-250,-46,221,-288,-131
4210,-52,-249,-43,220,-301,-137
4215,-51,-246,-41,213,-310,-138
4220,-47,-249,-39,206,-309,-138
4225,-49,-251,-38,201,-308,-142
4230,-51,-247,-42,198,-305,-146
4235,-55,-238,-36,194,-306,-153
4240,-56,-248,-34,192,-299,-150
4245,-57,-250,-30,184,-291,-155
4250,-59,-247,-30,181,-285,-161
4255,-61,-248,-28,177,-276,-161
4260,-61,-248,-33,173,-266,-163
4265,-62,-248,-28,170,-257,-163
4270,-61,-249,-32,170,-248,-164
4275,-61,-247,-30,173,-238,-163
4280,-64,-248,-29,176,-230,-162
4285,-66,-246,-28,182,-222,-160
4290,-63,-244,-30,184,-212,-162
4295,-65,-239,-26,185,-207,-161
4300,-65,-240,-29,183,-200,-160
4305,-72,-234,-27,177,-195,-161
4310,-67,-231,-30,166,-188,-161
4315,-70,-232,-27,147,-183,-164
4320,-71,-230,-24,125,-181,-165
4325,-67,-229,-26,97,-180,-168
4330,-73,-229,-27,69,-182,-169
4335,-67,-233,-22,43,-182,-172
4340,-68,-232,-28,22,-186,-173
4345,-69,-237,-26,4,-188,-175
4350,-66,-237,-25,-10,-189,-174
4355,-66,-241,-28,-20,-185,-173
4360,-64,-239,-29,-29,-186,-172
4365,-64,-242,-24,-35,-185,-170
4370,-59,-248,-28,-41,-183,-169
4375,-65,-247,-31,-45,-180,-166
4380,-63,-252,-32,-51,-180,-162
4385,-64,-252,-32,-51,-179,-160
4390,-63,-250,-31,-49,-173,-159
4395,-59,-254,-32,-47,-169,-158
4400,-62,-251,-35,-43,-167,-157
4405,-64,-254,-36,-39,-164,-158
4410,-61,-255,-34,-34,-164,-156
4415,-56,-256,-34,-26,-163,-158
4420,-56,-256,-31,-16,-162,-160
4425,-58,-253,-33,-2,-160,-161
4430,-55,-253,-34,10,-158,-161
4435,-61,-253,-28,21,-159,-161
4440,-54,-254,-25,29,-161,-161
4445,-54,-249,-30,33,-164,-160
4450,-46,-250,-22,35,-163,-157
4455,-45,-248,-23,36,-159,-156
4460,-51,-248,-26,36,-153,-155
4465,-46,-250,-22,31,-150,-156
4470,-48,-246,-18,31,-151,-154
4475,-46,-252,-18,32,-153,-152
4480,-56,-269,-10,37,-156,-147
4485,-48,-251,-19,40,-161,-140
4490,-49,-251,-22,43,-168,-130
4495,-52,-252,-23,41,-173,-120
4500,-49,-252,-22,38,-180,-108
4505,-49,-252,-21,32,-183,-98
4510,-49,-252,-22,24,-181,-88
4515,-45,-254,-27,16,-180,-78
4520,-49,-254,-23,12,-175,-69
4525,-46,-255,-28,8,-171,-64
4530,-54,-247,-37,10,-165,-58
4535,-44,-255,-22,14,-159,-55
4540,-43,-256,-28,18,-153,-54
4545,-46,-258,-20,22,-147,-54
4550,-44,-255,-25,24,-142,-59
4555,-46,-254,-24,25,-134,-62
4560,-41,-256,-21,27,-125,-65
4565,-42,-255,-23,26,-120,-68
4570,-44,-254,-21,22,-107,-70
4575,-43,-254,-24,16,-97,-72
4580,-43,-253,-21,9,-88,-73
4585,-39,-247,-21,-3,-77,-74
4590,-39,-254,-21,-17,-65,-75
4595,-38,-252,-21,-30,-54,-75
4600,-38,-255,-19,-44,-45,-75
4605,-36,-253,-25,-59,-35,-74
4610,-32,-253,-22,-69,-32,-72
4615,-33,-252,-23,-80,-30,-73
4620,-35,-252,-21,-85,-31,-71
4625,-31,-253,-19,-91,-31,-70
4630,-32,-254,-21,-94,-34,-66
4635,-31,-255,-23,-102,-41,-60
4640,-32,-254,-24,-106,-47,-61
4645,-32,-255,-19,-109,-53,-62
4650,-35,-252,-21,-110,-58,-63
4655,-31,-255,-21,-108,-62,-64
4660,-32,-255,-18,-108,-63,-63
4665,-40,-253,-21,-105,-64,-64
4670,-37,-254,-18,-105,-60,-64
4675,-37,-255,-23,-107,-59,-63
4680,-38,-252,-22,-111,-52,-62
4685,-40,-253,-24,-115,-46,-59
4690,-39,-254,-23,-119,-42,-59
4695,-40,-256,-25,-122,-38,-59
4700,-39,-256,-26,-119,-36,-57
4705,-38,-255,-22,-115,-33,-54
4710,-42,-254,-23,-109,-32,-52
4715,-41,-254,-31,-105,-30,-51
4720,-41,-255,-25,-101,-30,-49
4725,-43,-253,-26,-98,-28,-49
4730,-40,-254,-32,-91,-29,-49
4735,-43,-254,-28,-86,-27,-50
4740,-43,-253,-24,-80,-26,-50
4745,-41,-253,-24,-77,-24,-50
4750,-45,-254,-24,-72,-22,-52
4755,-45,-255,-29,-70,-18,-55
4760,-43,-254,-23,-65,-16,-56
4765,-46,-255,-26,-62,-11,-58
4770,-45,-253,-22,-60,-7,-62
4775,-46,-253,-26,-61,-4,-63
4780,-48,-253,-22,-65,3,-63
4785,-47,-250,-24,-71,6,-62
4790,-51,-252,-23,-77,9,-61
4795,-51,-254,-22,-86,9,-60
4800,-50,-255,-23,-93,9,-56
4805,-49,-252,-22,-98,8,-56
4810,-50,-253,-26,-104,9,-54
4815,-47,-254,-19,-107,10,-55
4820,-51,-254,-19,-112,10,-57
4825,-50,-255,-20,-118,14,-62
4830,-50,-254,-26,-124,13,-67
4835,-50,-255,-25,-131,12,-72
4840,-53,-253,-28,-138,12,-77
4845,-49,-254,-33,-145,13,-84
4850,-49,-254,-31,-149,14,-88
4855,-49,-253,-31,-153,17,-94
4860,-46,-255,-30,-152,20,-95
4865,-45,-255,-33,-150,25,-97
4870,-45,-254,-27,-148,31,-98
4875,-44,-255,-25,-146,34,-98
4880,-43,-255,-27,-144,38,-100
4885,-42,-256,-23,-144,40,-102
4890,-44,-256,-23,-142,40,-102
4895,-41,-255,-29,-143,40,-104
4900,-45,-255,-26,-144,41,-104
4905,-42,-257,-19,-144,40,-106
4910,-43,-256,-21,-147,42,-108
4915,-48,-255,-24,-150,47,-112
4920,-44,-256,-22,-154,50,-115
4925,-51,-254,-21,-159,50,-112
4930,-48,-258,-27,-163,47,-106
4935,-40,-261,-23,-161,41,-96
4940,-41,-262,-25,-156,36,-93
4945,-39,-259,-25,-146,30,-83
4950,-37,-260,-30,-133,24,-76
4955,-36,-258,-27,-118,15,-65
4960,-33,-257,-30,-102,8,-55
4965,-34,-259,-30,-86,0,-43
4970,-31,-257,-28,-73,-6,-33
4975,-36,-257,-33,-62,-15,-26
4980,-35,-254,-33,-55,-21,-21
4985,-37,-253,-35,-51,-25,-16
4990,-33,-253,-34,-47,-27,-13
4995,-37,-257,-35,-45,-24,-13
5000,-39,-256,-35,-42,-20,-15
5005,-39,-255,-33,-41,-14,-18
5010,-39,-255,-33,-40,-7,-20
5015,-37,-254,-35,-37,-1,-22
5020,-39,-258,-33,-34,5,-24
5025,-40,-254,-26,-32,10,-25
5030,-39,-255,-32,-29,11,-24
5035,-41,-254,-34,-27,11,-25
5040,-39,-256,-31,-24,11,-23
5045,-40,-255,-32,-21,8,-19
5050,-35,-253,-31,-22,7,-17
5055,-37,-255,-34,-22,6,-15
5060,-39,-254,-31,-25,5,-11
5065,-38,-255,-27,-25,2,-7
5070,-40,-254,-26,-22,2,-6
5075,-38,-255,-24,-20,1,-6
5080,-39,-255,-31,-18,-2,-5
5085,-42,-256,-30,-17,-5,-4
5090,-41,-255,-30,-15,-7,-4
5095,-40,-255,-32,-10,-7,-5
5100,-39,-255,-27,-9,-8,-3
5105,-41,-253,-26,-6,-10,-3
5110,-40,-252,-31,-7,-12,0
5115,-36,-254,-26,-7,-12,2
5120,-41,-256,-27,-7,-14,5
5125,-37,-255,-28,-8,-16,7
5130,-35,-256,-30,-6,-17,10
5135,-38,-255,-31,-4,-18,11
5140,-36,-257,-28,-1,-19,16
5145,-40,-257,-30,5,-19,18
5150,-39,-254,-31,11,-18,19
5155,-41,-255,-32,16,-18,22
5160,-36,-255,-31,17,-16,24
5165,-42,-256,-29,20,-11,23
5170,-36,-258,-27,17,-7,23
5175,-37,-257,-28,16,-6,23
5180,-37,-256,-27,17,-2,22
5185,-40,-256,-24,18,1,22
5190,-41,-256,-26,15,2,21
5195,-37,-254,-20,11,3,22
5200,-37,-257,-23,10,2,23
5205,-40,-253,-18,6,1,24
5210,-40,-254,-20,3,0,27
5215,-38,-254,-23,0,-3,30
5220,-39,-256,-19,-4,-4,33
5225,-38,-256,-24,-8,-4,36
5230,-40,-256,-27,-11,-5,39
5235,-42,-254,-27,-12,-5,40
5240,-39,-255,-28,-13,-4,42
5245,-42,-257,-26,-13,-2,43
5250,-40,-255,-29,-12,-1,44
5255,-41,-252,-24,-11,1,46
5260,-39,-253,-30,-11,5,45
5265,-40,-254,-25,-10,8,44
5270,-42,-255,-25,-10,12,43
5275,-40,-254,-26,-10,16,42
5280,-38,-255,-21,-9,19,40
5285,-39,-256,-24,-9,21,38
5290,-38,-254,-21,-9,25,36
5295,-41,-253,-27,-8,28,34
5300,-41,-255,-26,-10,31,32
5305,-40,-255,-22,-10,33,29
5310,-41,-255,-23,-14,37,28
5315,-42,-254,-24,-14,38,27
5320,-41,-257,-23,-16,40,26
5325,-41,-257,-25,-18,41,25
5330,-41,-256,-25,-17,42,24
5335,-42,-256,-25,-16,43,22
5340,-43,-256,-24,-14,45,20
5345,-42,-256,-26,-11,45,20
5350,-42,-256,-27,-7,47,18
5355,-40,-257,-27,-4,48,18
5360,-41,-253,-31,-1,48,19
5365,-43,-254,-27,2,48,18
5370,-41,-255,-27,4,47,17
5375,-43,-256,-27,4,47,17
5380,-41,-254,-26,5,47,15
5385,-41,-255,-26,9,44,13
5390,-41,-255,-23,10,41,11
5395,-42,-256,-29,10,40,10
5400,-44,-254,-24,9,38,8
5405,-43,-254,-27,8,36,6
5410,-43,-255,-24,2,37,4
5415,-44,-253,-22,-3,38,3
5420,-46,-252,-25,-8,40,3
5425,-45,-255,-26,-12,43,0
5430,-46,-254,-22,-17,47,-2
5435,-46,-252,-26,-20,48,-3
5440,-46,-252,-21,-24,48,-4
5445,-46,-253,-28,-27,47,-4
5450,-47,-254,-24,-29,47,-2
5455,-45,-256,-27,-31,44,0
5460,-56,-258,-17,-30,44,1
5465,-43,-250,-26,-30,40,4
5470,-46,-255,-25,-28,37,7
5475,-46,-254,-26,-25,35,9
5480,-46,-256,-28,-22,32,13
5485,-46,-250,-26,-22,30,15
5490,-46,-256,-20,-24,28,17
5495,-45,-257,-24,-24,28,18
5500,-49,-253,-21,-24,27,18
5505,-49,-254,-25,-26,25,19
5510,-45,-255,-22,-26,21,19
5515,-54,-265,-21,-29,19,19
5520,-49,-254,-24,-30,17,21
5525,-49,-253,-19,-30,16,20
5530,-49,-254,-22,-31,14,20
5535,-48,-254,-18,-33,13,21
5540,-48,-254,-23,-33,14,18
5545,-48,-253,-22,-33,13,19
5550,-49,-255,-23,-32,14,17
5555,-46,-257,-22,-35,16,16
5560,-48,-254,-24,-35,18,16
5565,-49,-253,-36,-35,20,15
5570,-48,-255,-21,-37,22,14
5575,-47,-259,-22,-41,23,13
5580,-47,-256,-25,-44,22,13
5585,-48,-252,-20,-46,19,12
5590,-47,-255,-20,-48,16,12
5595,-46,-254,-24,-50,12,10
5600,-51,-253,-26,-52,8,10
5605,-49,-252,-24,-55,7,11
5610,-46,-256,-25,-55,6,12
5615,-47,-257,-30,-54,6,15
5620,-50,-254,-23,-53,8,17
5625,-42,-256,-27,-47,8,21
5630,-46,-255,-27,-41,8,24
5635,-43,-255,-23,-34,8,26
5640,-45,-255,-30,-26,6,28
5645,-46,-255,-26,-17,3,28
5650,-40,-255,-32,-10,-1,29
5655,-44,-255,-30,-6,-5,31
5660,-43,-255,-26,0,-5,32
5665,-42,-255,-27,2,-9,32
5670,-44,-256,-23,6,-11,31
5675,-43,-256,-20,8,-13,32
5680,-46,-257,-26,12,-14,32
5685,-40,-256,-23,15,-15,36
5690,-42,-256,-22,17,-16,35
5695,-43,-257,-28,19,-13,32
5700,-45,-256,-21,19,-10,30
5705,-42,-256,-22,17,-9,28
5710,-45,-253,-20,16,-4,29
5715,-42,-256,-19,16,0,27
5720,-47,-255,-27,15,5,26
5725,-44,-255,-20,14,12,25
5730,-42,-253,-20,12,17,25
5735,-44,-253,-22,9,22,24
5740,-43,-254,-21,4,26,23
5745,-44,-255,-24,1,28,20
5750,-43,-254,-23,-3,29,21
5755,-44,-254,-22,-7,29,21
5760,-42,-254,-20,-9,28,20
5765,-42,-254,-20,-13,26,20
5770,-43,-253,-22,-15,23,19
5775,-42,-255,-18,-19,20,20
5780,-44,-256,-22,-21,19,21
5785,-43,-256,-23,-20,16,21
5790,-46,-253,-22,-19,14,23
5795,-45,-254,-17,-21,12,25
5800,-46,-254,-20,-18,9,28
5805,-48,-250,-19,-18,9,30
5810,-47,-253,-23,-18,9,30
5815,-43,-252,-18,-18,9,31
5820,-48,-252,-19,-17,11,31
5825,-47,-254,-18,-23,14,31
5830,-51,-253,-20,-28,13,28
5835,-47,-252,-20,-27,5,13
5840,-49,-253,-17,-37,5,16
5845,-49,-250,-20,-39,17,21
5850,-50,-253,-20,-39,21,23
5855,-48,-253,-19,-38,23,20
5860,-47,-253,-18,-36,22,19
5865,-52,-250,-22,-31,21,20
5870,-48,-252,-22,-28,18,19
5875,-47,-252,-23,-25,17,21
5880,-49,-252,-19,-23,14,14
5885,-44,-254,-25,-22,6,14
5890,-48,-253,-17,-24,9,18
5895,-47,-252,-19,-24,11,21
5900,-49,-252,-20,-26,12,24
5905,-51,-255,-19,-26,16,25
5910,-48,-253,-17,-26,18,27
5915,-49,-254,-24,-25,22,27
5920,-46,-253,-21,-23,24,25
5925,-48,-254,-19,-20,27,25
5930,-47,-254,-23,-20,29,23
5935,-47,-252,-21,-19,30,22
5940,-49,-255,-18,-17,31,19
5945,-49,-256,-21,-15,29,18
5950,-49,-253,-19,-13,27,11
5955,-48,-253,-22,-16,24,10
5960,-49,-253,-17,-20,26,10
5965,-48,-251,-19,-20,27,12
5970,-48,-253,-18,-20,26,11
5975,-51,-251,-21,-19,24,9
5980,-51,-256,-20,-20,25,11
5985,-48,-254,-19,-21,26,11
5990,-50,-255,-20,-23,25,12
5995,-50,-253,-17,-24,24,12
6000,-51,-250,-21,-23,24,12
6005,-49,-254,-18,-25,24,12
6010,-52,-253,-19,-26,24,13
6015,-49,-254,-18,-27,24,13
6020,-48,-252,-24,-24,23,11
6025,-46,-254,-23,-21,22,11
6030,-48,-253,-20,-19,24,13
6035,-46,-254,-23,-18,23,14
6040,-44,-254,-21,-15,22,15
6045,-43,-253,-23,-15,22,17
6050,-47,-250,-18,-15,22,16
6055,-47,-253,-19,-15,20,17
6060,-46,-247,-14,-18,18,17
6065,-44,-251,-19,-19,17,16
6070,-50,-252,-18,-23,18,15
6075,-47,-251,-14,-28,18,14
6080,-50,-251,-16,-30,22,13
6085,-50,-251,-16,-36,25,10
6090,-50,-251,-14,-43,29,11
6095,-52,-252,-17,-52,33,8
6100,-49,-254,-15,-58,34,8
6105,-47,-257,-19,-59,35,9
6110,-53,-254,-23,-56,34,3
6115,-50,-255,-19,-51,27,2
6120,-50,-256,-23,-50,30,8
6125,-51,-257,-20,-42,31,10
6130,-49,-253,-26,-36,28,12
6135,-46,-255,-25,-30,26,13
6140,-48,-253,-19,-25,21,14
6145,-47,-251,-19,-20,21,15
6150,-48,-254,-20,-19,20,17
6155,-48,-252,-19,-18,20,18
6160,-49,-251,-23,-19,21,19
6165,-48,-247,-17,-22,22,20
6170,-51,-248,-17,-24,23,19
6175,-47,-248,-18,-29,23,17
6180,-45,-250,-17,-36,23,17
6185,-50,-251,-18,-45,24,13
6190,-50,-252,-17,-55,25,12
6195,-48,-254,-18,-61,25,9
6200,-52,-250,-17,-67,28,6
6205,-48,-255,-16,-70,29,4
6210,-47,-253,-18,-74,31,4
6215,-49,-255,-19,-75,35,2
6220,-48,-255,-18,-73,40,2
6225,-49,-254,-21,-73,45,2
6230,-50,-253,-19,-73,50,4
6235,-49,-255,-21,-71,53,4
6240,-49,-254,-20,-70,55,4
6245,-51,-256,-20,-69,55,5
6250,-48,-255,-22,-66,54,5
6255,-51,-254,-19,-63,54,5
6260,-48,-255,-19,-59,51,6
6265,-47,-253,-22,-56,49,7
6270,-50,-256,-20,-55,46,9
6275,-49,-253,-21,-56,45,10
6280,-48,-252,-21,-54,44,10
6285,-49,-253,-19,-54,42,10
6290,-48,-251,-19,-55,42,11
6295,-49,-253,-20,-55,41,10
6300,-48,-254,-18,-60,41,10
6305,-50,-251,-19,-61,40,9
6310,-51,-251,-20,-63,43,7
6315,-52,-252,-16,-68,46,4
6320,-50,-250,-17,-74,51,1
6325,-52,-250,-16,-82,54,-2
6330,-54,-253,-15,-90,56,-3
6335,-51,-251,-19,-94,57,-4
6340,-50,-251,-24,-97,57,-4
6345,-54,-249,-22,-99,54,-4
6350,-50,-250,-24,-100,52,-4
6355,-53,-250,-19,-101,48,-3
6360,-54,-251,-19,-99,45,0
6365,-49,-251,-24,-100,42,2
6370,-52,-249,-21,-101,40,5
6375,-51,-250,-22,-101,38,7
6380,-48,-252,-24,-103,37,7
6385,-55,-249,-26,-106,36,7
6390,-49,-251,-20,-109,36,6
6395,-48,-252,-26,-111,39,4
6400,-52,-252,-16,-114,41,4
6405,-53,-253,-18,-115,43,2
6410,-52,-254,-16,-119,47,1
6415,-47,-255,-22,-120,49,0
6420,-49,-255,-24,-118,50,0
6425,-51,-255,-23,-116,51,2
6430,-49,-255,-22,-112,50,2
6435,-48,-252,-28,-106,51,3
6440,-67,-254,-18,-99,51,4
6445,-49,-254,-23,-94,51,5
6450,-51,-252,-20,-88,51,5
6455,-48,-253,-22,-86,52,5
6460,-50,-252,-25,-84,52,6
6465,-49,-250,-23,-83,53,4
6470,-48,-255,-22,-82,53,6
6475,-47,-253,-23,-81,53,4
6480,-49,-250,-23,-80,54,4
6485,-49,-251,-23,-81,55,2
6490,-51,-251,-21,-84,57,0
6495,-55,-256,-17,-87,59,-3
6500,-53,-250,-21,-89,60,-6
6505,-48,-250,-24,-91,60,-7
6510,-52,-252,-20,-92,56,-7
6515,-50,-252,-24,-89,51,-6
6520,-46,-256,-28,-85,40,-10
6525,-52,-252,-26,-83,35,-5
6530,-50,-251,-24,-80,32,-3
6535,-56,-251,-25,-78,31,-4
6540,-54,-249,-24,-78,32,-8
6545,-55,-237,-34,-81,31,-14
6550,-59,-250,-24,-93,37,-17
6555,-58,-247,-26,-111,39,-24
6560,-59,-248,-28,-134,41,-34
6565,-58,-252,-29,-157,45,-42
6570,-57,-253,-27,-170,51,-48
6575,-55,-254,-28,-178,56,-53
6580,-57,-253,-32,-181,54,-57
6585,-54,-256,-36,-183,41,-59
6590,-51,-257,-41,-175,24,-59
6595,-47,-263,-40,-157,8,-56
6600,-47,-264,-42,-121,-2,-51
6605,-51,-262,-40,-77,-4,-45
6610,-48,-266,-40,-37,-6,-40
6615,-48,-262,-39,-5,-18,-34
6620,-45,-263,-37,12,-30,-34
6625,-50,-263,-37,16,-39,-37
6630,-45,-260,-36,17,-48,-39
6635,-47,-261,-35,25,-59,-45
6640,-44,-264,-28,40,-70,-47
6645,-44,-264,-30,61,-84,-45
6650,-45,-260,-32,79,-103,-41
6655,-45,-257,-30,99,-125,-36
6660,-47,-256,-26,121,-151,-32
6665,-45,-255,-21,148,-184,-32
6670,-46,-257,-29,181,-223,-33
6675,-48,-260,-29,228,-257,-35
6680,-48,-262,-29,281,-277,-40
6685,-49,-260,-29,334,-286,-44
6690,-53,-256,-26,374,-285,-51
6695,-58,-255,-27,397,-289,-63
6700,-58,-256,-22,417,-299,-78
6705,-62,-259,-21,445,-310,-98
6710,-62,-254,-25,478,-310,-117
6715,-63,-255,-21,504,-300,-134
6720,-60,-254,-18,518,-285,-145
6725,-56,-246,-13,511,-268,-148
6730,-52,-245,-15,489,-253,-145
6735,-46,-247,-12,467,-239,-137
6740,-41,-247,-9,450,-224,-126
6745,-37,-242,-8,431,-197,-114
6750,-34,-237,5,403,-160,-102
6755,-35,-227,11,365,-119,-90
6760,-32,-219,22,317,-82,-79
6765,-34,-218,28,264,-47,-65
6770,-34,-216,30,218,-14,-54
6775,-33,-215,32,178,15,-44
6780,-32,-217,33,143,40,-36
6785,-34,-211,27,114,55,-32
6790,-32,-211,26,89,65,-29
6795,-33,-209,21,62,79,-27
6800,-30,-204,17,25,107,-26
6805,-32,-199,17,-26,144,-23
6810,-34,-200,11,-93,184,-21
6815,-35,-205,5,-172,223,-8
6820,-34,-208,4,-263,259,8
6825,-31,-213,4,-362,297,27
6830,-28,-218,2,-468,334,49
6835,-25,-219,9,-576,376,67
6840,-27,-225,11,-679,422,85
6845,-21,-226,18,-775,465,105
6850,-23,-226,16,-860,499,122
6855,-27,-228,14,-925,521,136
6860,-28,-237,16,-960,534,152
6865,-30,-247,1,-967,535,164
6870,-29,-250,-9,-958,530,174
6875,-28,-255,-15,-950,529,175
6880,-32,-259,-22,-944,534,168
6885,-35,-260,-26,-946,547,154
6890,-37,-263,-37,-959,567,132
6895,-43,-265,-34,-978,588,112
6900,-43,-265,-32,-1000,608,96
6905,-44,-263,-29,-1020,632,84
6910,-40,-262,-37,-1035,661,76
6915,-46,-261,-33,-1043,695,75
6920,-43,-261,-35,-1047,728,80
6925,-45,-256,-31,-1050,754,83
6930,-49,-253,-34,-1062,775,90
6935,-48,-253,-25,-1085,790,93
6940,-46,-246,-27,-1112,801,94
6945,-42,-243,-27,-1138,819,97
6950,-41,-240,-29,-1164,835,94
6955,-40,-240,-25,-1184,846,90
6960,-39,-240,-26,-1204,856,87
6965,-42,-235,-23,-1218,853,80
6970,-35,-238,-29,-1229,830,77
6975,-37,-239,-28,-1237,796,72
6980,-37,-240,-35,-1241,764,66
6985,-37,-246,-40,-1239,737,58
6990,-36,-250,-47,-1230,721,40
6995,-38,-256,-46,-1215,704,23
7000,-35,-265,-51,-1198,696,0
7005,-39,-272,-53,-1178,687,-13
7010,-37,-280,-51,-1155,672,-24
7015,-36,-283,-48,-1127,648,-27
7020,-39,-286,-47,-1092,621,-21
7025,-43,-284,-47,-1047,593,-9
7030,-49,-286,-37,-998,568,11
7035,-59,-285,-31,-955,538,32
7040,-73,-289,-26,-909,511,54
7045,-89,-292,-23,-844,493,75
7050,-99,-293,-28,-761,487,78
7055,-100,-286,-41,-681,517,58
7060,-103,-265,-47,-614,595,11
7065,-98,-244,-59,-586,699,-53
7070,-90,-227,-84,-630,812,-133
7075,-87,-214,-119,-770,910,-226
7080,-93,-220,-149,-983,961,-325
7085,-100,-250,-165,-1231,973,-411
7090,-102,-281,-155,-1431,949,-458
7095,-88,-314,-151,-1503,895,-453
7100,-68,-323,-133,-1448,827,-408
7105,-61,-323,-132,-1306,758,-342
7110,-59,-320,-129,-1156,694,-278
7115,-52,-319,-130,-1045,641,-218
7120,-48,-321,-132,-984,607,-161
7125,-50,-321,-134,-939,606,-101
7130,-55,-324,-154,-892,636,-41
7135,-62,-326,-157,-847,682,20
7140,-68,-331,-173,-775,733,76
7145,-72,-332,-184,-700,782,123
7150,-76,-330,-190,-635,825,159
7155,-78,-325,-191,-590,854,190
7160,-79,-322,-191,-560,881,207
7165,-80,-327,-191,-544,912,222
7170,-79,-332,-193,-538,944,227
7175,-74,-332,-203,-519,976,223
7180,-64,-330,-197,-490,1014,210
7185,-61,-322,-205,-457,1059,195
7190,-58,-319,-208,-434,1106,177
7195,-57,-317,-212,-415,1153,156
7200,-55,-312,-212,-399,1196,133
7205,-49,-305,-212,-382,1232,118
7210,-50,-305,-210,-368,1270,106
7215,-40,-300,-212,-352,1316,101
7220,-40,-297,-217,-353,1355,78
7225,-39,-286,-216,-361,1392,63
7230,-37,-304,-184,-368,1423,67
7235,-47,-269,-217,-375,1451,69
7240,-54,-267,-206,-397,1468,77
7245,-46,-264,-213,-440,1470,72
7250,-45,-262,-211,-499,1470,61
7255,-37,-261,-204,-558,1486,44
7260,-50,-260,-201,-605,1520,25
7265,-51,-260,-204,-633,1555,6
7270,-59,-268,-213,-650,1591,-18
7275,-71,-269,-213,-660,1626,-52
7280,-77,-275,-215,-661,1643,-88
7285,-79,-275,-215,-651,1654,-108
7290,-86,-281,-223,-636,1654,-119
7295,-78,-284,-220,-614,1640,-109
7300,-74,-274,-217,-582,1623,-83
7305,-64,-268,-205,-540,1596,-55
7310,-59,-254,-196,-509,1564,-37
7315,-47,-247,-188,-514,1532,-9
7320,-37,-246,-183,-546,1495,31
7325,-28,-247,-173,-589,1447,69
7330,-11,-251,-168,-625,1397,109
7335,-12,-251,-160,-625,1348,136
7340,-10,-251,-166,-603,1295,165
7345,-6,-256,-161,-572,1237,182
7350,-2,-255,-166,-545,1180,195
7355,-1,-266,-146,-519,1133,209
7360,-5,-243,-149,-493,1092,219
7365,-3,-241,-148,-455,1062,236
7370,-2,-240,-147,-403,1033,265
7375,-2,-243,-153,-341,1014,307
7380,-24,-238,-135,-266,1015,335
7385,-42,-237,-126,-171,1008,340
7390,-48,-237,-115,-68,967,354
7395,-44,-226,-127,33,913,385
7400,-27,-213,-136,113,863,433
7405,-8,-193,-142,191,847,518
7410,-14,-170,-145,261,853,622
7415,-4,-148,-141,305,864,730
7420,-16,-130,-146,291,870,818
7425,-26,-123,-147,203,867,870
7430,-37,-124,-145,56,867,892
7435,-47,-125,-140,-111,871,897
7440,-59,-139,-132,-261,881,893
7445,-68,-145,-123,-373,890,879
7450,-71,-157,-110,-444,885,858
7455,-72,-163,-98,-482,860,833
7460,-76,-160,-90,-490,824,813
7465,-75,-155,-84,-486,780,797
7470,-77,-158,-77,-486,729,780
7475,-79,-155,-87,-499,688,759
7480,-83,-157,-93,-518,660,734
7485,-88,-156,-100,-540,650,712
7490,-87,-147,-109,-566,653,694
7495,-80,-142,-124,-601,663,686
7500,-74,-141,-132,-641,677,686
7505,-59,-141,-147,-690,690,699
7510,-48,-139,-142,-736,695,712
7515,-31,-137,-144,-772,691,723
7520,-22,-131,-147,-799,687,726
7525,-15,-127,-157,-830,681,725
7530,-16,-122,-161,-862,674,722
7535,-20,-126,-159,-881,663,729
7540,-19,-128,-160,-870,652,748
7545,-13,-124,-154,-831,640,775
7550,-9,-122,-150,-784,623,799
7555,1,-119,-150,-748,601,820
7560,11,-116,-147,-737,573,830
7565,17,-111,-154,-748,553,837
7570,26,-115,-154,-773,554,833
7575,28,-112,-159,-806,582,814
7580,30,-116,-152,-846,627,781
7585,28,-122,-151,-895,668,742
7590,22,-126,-151,-945,696,705
7595,16,-131,-154,-988,712,678
7600,12,-140,-149,-1016,729,663
7605,10,-145,-155,-1025,750,658
7610,9,-153,-155,-1021,778,655
7615,2,-156,-163,-1019,812,650
7620,-3,-160,-161,-1021,846,648
7625,-14,-171,-162,-1041,875,642
7630,-25,-184,-175,-1072,896,628
7635,-40,-201,-190,-1110,920,614
7640,-48,-215,-220,-1140,950,607
7645,-57,-236,-245,-1160,985,619
7650,-68,-244,-274,-1152,1007,643
7655,-72,-250,-299,-1116,1006,699
7660,-73,-246,-309,-1066,968,779
7665,-81,-232,-305,-1028,878,872
7670,-86,-225,-299,-1010,741,980
7675,-91,-230,-297,-1006,578,1067
7680,-90,-236,-296,-1000,441,1131
7685,-98,-246,-275,-972,362,1151
7690,-102,-244,-260,-893,344,1142
7695,-99,-237,-258,-766,401,1119
7700,-92,-229,-268,-648,532,1084
7705,-83,-221,-283,-579,709,1021
7710,-79,-222,-294,-573,893,926
7715,-72,-225,-299,-604,1048,802
7720,-58,-226,-294,-624,1145,673
7725,-56,-235,-287,-612,1184,547
7730,-45,-241,-279,-579,1188,428
7735,-38,-245,-261,-524,1153,304
7740,-24,-244,-258,-456,1105,208
7745,-20,-240,-258,-379,1052,112
7750,-16,-234,-254,-305,1006,41
7755,-15,-229,-253,-246,962,-14
7760,-18,-224,-256,-216,907,-48
7765,-15,-232,-258,-223,847,-64
7770,-23,-236,-275,-247,778,-77
7775,-26,-238,-286,-270,729,-59
7780,-32,-230,-284,-276,691,-21
7785,-34,-221,-279,-252,642,26
7790,-34,-206,-270,-217,572,76
7795,-33,-200,-260,-192,485,128
7800,-26,-205,-257,-192,382,174
7805,-24,-212,-249,-204,280,214
7810,-15,-231,-241,-212,185,247
7815,-14,-247,-235,-201,98,268
7820,-13,-256,-231,-163,21,274
7825,-10,-258,-230,-101,-49,268
7830,-3,-259,-231,-9,-114,241
7835,-3,-255,-235,103,-173,202
7840,-1,-243,-245,221,-222,154
7845,-7,-236,-254,329,-267,103
7850,-13,-227,-252,412,-305,55
7855,-17,-220,-263,471,-338,18
7860,-19,-218,-268,497,-367,-7
7865,-21,-218,-267,496,-393,-22
7870,-23,-219,-268,473,-414,-31
7875,-16,-226,-266,439,-426,-32
7880,-16,-224,-256,401,-430,-31
7885,-11,-229,-254,365,-427,-24
7890,-5,-232,-239,340,-412,-25
7895,-3,-230,-231,324,-393,-22
7900,3,-233,-221,325,-375,-18
7905,5,-229,-217,344,-360,-19
7910,13,-225,-211,380,-344,-17
7915,15,-222,-205,427,-327,-26
7920,11,-216,-200,485,-314,-44
7925,10,-218,-199,544,-305,-54
7930,13,-210,-200,593,-304,-65
7935,13,-210,-203,638,-308,-93
7940,15,-202,-204,670,-313,-120
7945,21,-208,-205,684,-312,-143
7950,18,-208,-206,680,-309,-170
7955,7,-201,-211,664,-299,-199
7960,15,-208,-215,630,-283,-207
7965,10,-207,-211,587,-260,-228
7970,5,-209,-204,543,-237,-254
7975,1,-209,-200,500,-212,-270
7980,4,-210,-194,464,-186,-282
7985,-5,-209,-196,427,-162,-286
7990,1,-207,-189,393,-134,-269
7995,2,-204,-183,368,-101,-284
8000,0,-204,-178,348,-56,-304
8005,-3,-201,-175,331,-13,-318
8010,-8,-201,-172,315,23,-325
8015,-19,-197,-172,297,56,-331
8020,-9,-200,-165,276,77,-322
8025,-18,-200,-164,271,92,-346
8030,-19,-200,-161,276,99,-369
8035,-21,-197,-161,282,104,-372
8040,-27,-194,-162,289,103,-360
8045,-26,-193,-166,287,101,-344
8050,-18,-194,-166,279,100,-332
8055,-34,-193,-164,264,103,-323
8060,-23,-193,-166,239,100,-293
8065,-25,-195,-164,216,95,-286
8070,-17,-192,-160,195,91,-286
8075,-21,-197,-163,177,85,-295
8080,-17,-194,-163,167,81,-298
8085,-24,-195,-164,166,72,-292
8090,-22,-201,-163,165,62,-275
8095,-27,-201,-161,178,48,-261
8100,-34,-204,-167,193,34,-250
8105,-26,-206,-167,202,22,-221
8110,-25,-206,-167,214,10,-210
8115,-28,-206,-164,227,1,-217
8120,-29,-201,-166,242,-8,-228
8125,-35,-200,-172,254,-15,-226
8130,-34,-200,-167,260,-27,-213
8135,-35,-198,-169,259,-42,-197
8140,-33,-194,-172,258,-56,-179
8145,-30,-193,-171,258,-79,-167
8150,-27,-191,-169,251,-98,-152
8155,-28,-190,-168,245,-107,-157
8160,-28,-188,-170,240,-118,-163
8165,-33,-189,-172,236,-127,-170
8170,-30,-189,-170,229,-135,-163
8175,-28,-188,-175,224,-143,-159
8180,-29,-189,-173,221,-148,-163
8185,-27,-190,-176,219,-149,-170
8190,-25,-189,-173,222,-152,-171
8195,-25,-192,-180,233,-151,-175
8200,-21,-188,-177,246,-149,-181
8205,-21,-192,-178,264,-139,-198
8210,-19,-192,-179,284,-128,-208
8215,-17,-191,-177,310,-119,-220
8220,-19,-190,-181,344,-111,-227
8225,-18,-187,-182,375,-102,-230
8230,-15,-187,-184,406,-99,-229
8235,-14,-186,-187,437,-95,-226
8240,-17,-181,-188,464,-96,-222
8245,-8,-185,-184,479,-101,-202
8250,-1,-184,-182,483,-108,-182
8255,-7,-184,-189,494,-101,-202
8260,-11,-182,-186,496,-91,-228
8265,-14,-181,-187,495,-84,-234
8270,-15,-183,-184,489,-79,-232
8275,0,-184,-195,486,-72,-234
8280,-16,-181,-184,485,-65,-244
8285,-16,-176,-180,482,-59,-252
8290,-15,-179,-179,482,-55,-258
8295,-15,-178,-179,488,-48,-262
8300,-13,-178,-177,501,-43,-266
8305,-10,-173,-178,519,-40,-273
8310,-17,-169,-174,538,-36,-291
8315,-16,-168,-175,577,-41,-287
8320,-16,-166,-180,610,-47,-277
8325,-11,-164,-180,636,-52,-271
8330,-15,-170,-168,650,-57,-268
8335,-7,-162,-176,654,-57,-266
8340,-5,-158,-175,645,-51,-264
8345,-5,-157,-182,632,-44,-266
8350,-1,-157,-177,618,-39,-263
8355,-5,-155,-180,600,-28,-261
8360,0,-158,-183,582,-22,-260
8365,1,-158,-181,563,-14,-260
8370,-3,-160,-183,539,-8,-260
8375,0,-161,-177,514,-4,-257
8380,3,-163,-179,485,0,-254
8385,2,-157,-189,456,3,-251
8390,4,-164,-176,430,7,-246
8395,4,-165,-178,407,15,-242
8400,3,-166,-178,388,26,-238
8405,7,-168,-178,370,40,-236
8410,7,-169,-179,354,54,-234
8415,9,-173,-176,339,68,-233
8420,10,-169,-176,326,80,-231
8425,7,-170,-172,315,88,-225
8430,7,-172,-172,295,92,-216
8435,9,-173,-175,270,93,-206
8440,4,-171,-176,242,95,-199
8445,7,-179,-177,209,97,-191
8450,5,-181,-175,172,100,-185
8455,5,-184,-177,132,103,-176
8460,3,-190,-174,93,105,-169
8465,9,-197,-172,51,106,-159
8470,7,-201,-176,9,104,-151
8475,8,-209,-171,-33,98,-141
8480,12,-218,-166,-71,86,-133
8485,10,-224,-169,-98,70,-126
8490,8,-229,-172,-121,52,-121
8495,11,-237,-170,-131,30,-119
8500,14,-243,-165,-131,9,-118
8505,12,-247,-165,-117,-9,-121
8510,15,-253,-162,-92,-26,-127
8515,14,-256,-159,-54,-44,-136
8520,14,-257,-158,-5,-62,-148
8525,15,-255,-156,49,-81,-163
8530,15,-252,-151,102,-99,-175
8535,15,-251,-146,148,-118,-187
8540,15,-252,-150,188,-140,-197
8545,14,-252,-150,216,-162,-207
8550,12,-248,-149,232,-188,-215
8555,12,-250,-144,243,-216,-221
8560,14,-251,-145,250,-244,-226
8565,12,-250,-146,257,-273,-234
8570,13,-251,-149,266,-299,-239
8575,15,-248,-146,275,-322,-242
8580,12,-249,-155,285,-344,-245
8585,17,-247,-151,288,-363,-248
8590,16,-244,-150,287,-381,-250
8595,15,-245,-152,284,-397,-252
8600,16,-243,-149,279,-410,-254
8605,15,-243,-151,272,-425,-257
8610,15,-241,-152,265,-437,-260
8615,18,-241,-153,261,-452,-261
8620,18,-239,-153,256,-469,-261
8625,14,-238,-155,250,-483,-265
8630,17,-235,-156,244,-499,-264
8635,20,-234,-156,239,-512,-260
8640,22,-232,-156,229,-525,-256
8645,19,-228,-157,214,-534,-251
8650,27,-233,-165,199,-541,-245
8655,29,-229,-171,179,-543,-236
8660,28,-232,-172,159,-544,-228
8665,25,-233,-172,137,-542,-219
8670,29,-232,-180,118,-540,-209
8675,30,-236,-181,104,-536,-201
8680,33,-237,-180,96,-527,-193
8685,30,-240,-186,92,-516,-190
8690,27,-238,-187,96,-502,-184
8695,26,-240,-181,99,-485,-176
8700,24,-242,-185,101,-471,-177
8705,22,-238,-181,116,-453,-179
8710,20,-239,-174,136,-430,-183
8715,16,-238,-171,160,-409,-187
8720,9,-233,-174,181,-387,-189
8725,6,-230,-171,200,-366,-191
8730,1,-226,-169,210,-346,-194
8735,0,-221,-168,210,-326,-194
8740,0,-218,-167,204,-307,-193
8745,-4,-211,-166,190,-288,-189
8750,-6,-208,-168,172,-271,-184
8755,-5,-209,-169,150,-254,-179
8760,-1,-204,-163,125,-239,-173
8765,-3,-202,-161,100,-224,-168
8770,-1,-202,-162,74,-212,-160
8775,-2,-204,-165,51,-200,-151
8780,3,-198,-162,27,-192,-142
8785,0,-203,-161,6,-186,-133
8790,2,-201,-160,-12,-177,-126
8795,6,-203,-161,-27,-168,-121
8800,10,-203,-164,-42,-158,-116
8805,13,-203,-165,-57,-151,-112
8810,16,-205,-161,-77,-146,-109
8815,15,-206,-161,-98,-145,-109
8820,17,-207,-160,-119,-148,-109
8825,13,-208,-161,-137,-159,-110
8830,17,-214,-162,-149,-171,-114
8835,16,-219,-160,-153,-190,-119
8840,11,-219,-160,-152,-211,-126
8845,9,-220,-163,-147,-234,-135
8850,10,-225,-165,-139,-259,-144
8855,5,-222,-166,-130,-284,-155
8860,0,-224,-168,-120,-306,-164
8865,-2,-224,-169,-113,-329,-170
8870,-5,-227,-171,-110,-350,-175
8875,-10,-230,-172,-107,-371,-180
8880,-10,-229,-176,-102,-391,-180
8885,-15,-229,-170,-89,-410,-182
8890,-17,-228,-165,-70,-428,-184
8895,-22,-228,-167,-45,-446,-186
8900,-21,-223,-165,-25,-462,-188
8905,-23,-223,-164,-6,-479,-188
8910,-21,-218,-163,6,-494,-188
8915,-22,-213,-167,8,-505,-187
8920,-22,-209,-164,2,-511,-183
8925,-18,-205,-159,-10,-511,-180
8930,-16,-203,-161,-23,-506,-176
8935,-12,-200,-162,-38,-499,-172
8940,-10,-197,-159,-54,-486,-167
8945,-7,-198,-159,-68,-469,-163
8950,-2,-192,-161,-83,-453,-159
8955,1,-193,-161,-101,-439,-154
8960,1,-191,-162,-124,-426,-151
8965,5,-191,-162,-152,-415,-147
8970,6,-192,-162,-186,-407,-146
8975,4,-192,-165,-216,-400,-149
8980,8,-193,-161,-246,-397,-155
8985,9,-196,-161,-269,-395,-161
8990,6,-197,-164,-288,-395,-170
8995,8,-201,-162,-301,-397,-182
9000,3,-202,-160,-306,-396,-195
9005,7,-207,-158,-309,-391,-207
9010,6,-205,-152,-307,-384,-223
9015,3,-208,-156,-302,-379,-237
9020,1,-208,-152,-293,-369,-250
9025,1,-211,-149,-281,-361,-262
9030,0,-209,-151,-268,-352,-273
9035,-1,-209,-148,-259,-342,-281
9040,-3,-213,-148,-255,-331,-287
9045,-2,-217,-147,-258,-322,-291
9050,-7,-219,-150,-266,-311,-290
9055,-7,-226,-149,-281,-298,-286
9060,-4,-232,-150,-302,-282,-276
9065,-9,-239,-150,-326,-260,-260
9070,-13,-248,-155,-351,-240,-242
9075,-11,-256,-159,-374,-218,-223
9080,-16,-261,-159,-393,-199,-200
9085,-17,-269,-160,-406,-181,-178
9090,-18,-277,-158,-412,-163,-156
9095,-18,-283,-163,-411,-149,-132
9100,-23,-295,-163,-409,-136,-113
9105,-21,-295,-161,-402,-124,-96
9110,-21,-297,-163,-389,-111,-76
9115,-26,-297,-161,-375,-99,-57
9120,-25,-301,-160,-358,-89,-37
9125,-27,-299,-156,-339,-81,-20
9130,-28,-302,-152,-316,-73,-1
9135,-25,-300,-155,-293,-71,17
9140,-24,-304,-153,-264,-71,29
9145,-17,-305,-154,-230,-70,40
9150,-20,-299,-151,-190,-72,47
9155,-19,-291,-147,-144,-74,51
9160,-20,-283,-152,-95,-76,52
9165,-18,-278,-149,-45,-79,53
9170,-13,-268,-156,0,-81,51
9175,-15,-254,-150,39,-78,47
9180,-14,-250,-150,67,-73,47
9185,-13,-240,-149,81,-65,49
9190,-15,-238,-148,85,-56,53
9195,-11,-229,-144,79,-47,58
9200,-9,-216,-158,72,-37,63
9205,-6,-220,-137,57,-27,72
9210,-5,-215,-142,43,-14,82
9215,-3,-212,-136,25,-4,90
9220,0,-208,-136,6,9,97
9225,0,-211,-135,-13,24,106
9230,0,-206,-134,-32,38,117
9235,0,-204,-135,-54,51,125
9240,0,-205,-137,-74,63,132
9245,-1,-205,-133,-90,76,139
9250,0,-205,-135,-104,89,148
9255,7,-204,-146,-110,101,154
9260,-2,-213,-141,-113,114,159
9265,-1,-215,-139,-111,126,164
9270,-2,-217,-142,-107,140,166
9275,-9,-222,-142,-100,157,164
9280,-9,-226,-148,-89,172,160
9285,-11,-234,-147,-72,186,153
9290,-18,-236,-148,-51,199,140
9295,-21,-238,-147,-27,217,124
9300,-25,-242,-149,3,233,109
9305,-27,-247,-149,33,251,93
9310,-33,-253,-151,61,269,76
9315,-36,-255,-151,86,288,59
9320,-40,-257,-151,105,307,42
9325,-46,-255,-147,122,323,29
9330,-49,-258,-151,131,334,18
9335,-53,-258,-148,136,340,11
9340,-52,-263,-151,139,340,5
9345,-52,-262,-149,140,336,1
9350,-54,-261,-152,134,327,2
9355,-54,-263,-156,124,316,5
9360,-51,-262,-152,106,298,7
9365,-46,-262,-162,84,278,10
9370,-40,-264,-165,61,256,12
9375,-41,-267,-170,42,228,16
9380,-38,-263,-168,26,197,19
9385,-29,-265,-171,28,165,24
9390,-24,-261,-171,13,136,26
9395,-18,-256,-162,9,110,13
9400,-14,-254,-164,30,87,6
9405,-13,-248,-169,60,66,-1
9410,-12,-239,-169,84,46,-9
9415,-12,-230,-168,109,24,-17
9420,-9,-223,-166,130,8,-26
9425,-9,-218,-165,144,-6,-31
9430,-11,-210,-166,147,-19,-34
9435,-9,-208,-167,144,-30,-37
9440,-11,-205,-167,135,-42,-39
9445,-8,-205,-163,126,-53,-40
9450,-11,-202,-162,119,-61,-41
9455,-7,-199,-162,112,-68,-42
9460,-15,-199,-160,110,-73,-42
9465,-15,-197,-158,108,-74,-40
9470,-15,-198,-155,106,-76,-39
9475,-14,-193,-151,102,-75,-38
9480,-19,-195,-146,96,-72,-37
9485,-18,-196,-147,88,-70,-33
9490,-17,-195,-147,76,-66,-30
9495,-20,-197,-143,63,-61,-26
9500,-16,-199,-144,49,-53,-24
9505,-17,-201,-143,34,-42,-21
9510,-16,-207,-138,19,-30,-19
9515,-17,-213,-136,8,-18,-17
9520,-19,-215,-137,-1,-4,-15
9525,-17,-218,-141,-4,12,-13
9530,-16,-219,-137,-7,28,-15
9535,-19,-225,-137,-7,43,-16
9540,-19,-227,-137,-6,56,-15
9545,-20,-227,-141,-9,65,-16
9550,-22,-229,-144,-17,70,-16
9555,-20,-233,-148,-28,74,-15
9560,-20,-233,-148,-43,77,-15
9565,-22,-238,-150,-58,79,-15
9570,-15,-243,-159,-72,79,-14
9575,-17,-245,-161,-81,82,-13
9580,-15,-249,-165,-86,83,-11
9585,-14,-253,-168,-82,81,-12
9590,-10,-253,-173,-74,79,-13
9595,-11,-248,-176,-59,75,-17
9600,-6,-251,-176,-43,70,-22
9605,-4,-248,-174,-27,69,-28
9610,-4,-246,-170,-11,66,-32
9615,-2,-243,-170,0,63,-37
9620,0,-235,-170,5,58,-41
9625,2,-233,-170,8,54,-43
9630,1,-230,-171,4,53,-45
9635,5,-226,-169,-3,49,-48
9640,6,-225,-168,-10,43,-53
9645,6,-220,-162,-16,38,-56
9650,8,-218,-161,-23,32,-59
9655,8,-215,-154,-31,27,-63
9660,8,-216,-157,-40,24,-67
9665,8,-211,-156,-54,21,-70
9670,7,-209,-153,-70,20,-71
9675,11,-211,-154,-88,22,-72
9680,7,-207,-152,-107,26,-70
9685,10,-208,-153,-129,33,-67
9690,11,-211,-152,-152,43,-63
9695,15,-211,-155,-175,54,-56
9700,14,-210,-160,-197,70,-47
9705,13,-215,-158,-217,85,-35
9710,16,-216,-165,-234,105,-25
9715,19,-218,-162,-247,124,-17
9720,20,-219,-165,-253,145,-8
9725,25,-223,-165,-258,166,4
9730,21,-224,-164,-259,189,14
9735,25,-219,-166,-261,209,25
9740,26,-220,-167,-262,229,35
9745,29,-220,-165,-263,251,44
9750,29,-220,-163,-261,271,54
9755,34,-217,-170,-263,294,61
9760,35,-218,-171,-263,317,70
9765,36,-219,-169,-265,338,77
9770,37,-220,-170,-266,357,83
9775,42,-221,-168,-268,374,87
9780,42,-220,-166,-271,387,89
9785,44,-223,-165,-274,394,91
9790,44,-227,-166,-276,393,89
9795,47,-231,-163,-274,386,87
9800,45,-231,-166,-272,373,85
9805,50,-241,-162,-268,354,78
9810,48,-242,-157,-261,331,71
9815,47,-246,-158,-252,303,63
9820,49,-252,-155,-238,278,55
9825,46,-258,-154,-223,248,46
9830,43,-258,-150,-207,215,36
9835,46,-263,-152,-188,183,25
9840,45,-268,-152,-170,152,14
9845,45,-267,-150,-148,121,4
9850,45,-273,-149,-127,93,-5
9855,47,-276,-151,-102,66,-15
9860,42,-282,-150,-75,40,-24
9865,40,-283,-151,-49,14,-36
9870,38,-282,-156,-25,-11,-47
9875,38,-284,-156,0,-33,-59
9880,34,-282,-156,21,-51,-70
9885,32,-281,-158,42,-67,-80
9890,32,-275,-159,62,-78,-88
9895,32,-276,-158,79,-85,-94
9900,31,-272,-156,95,-87,-99
9905,30,-264,-152,113,-83,-102
9910,30,-262,-154,133,-78,-104
9915,30,-260,-153,151,-73,-106
9920,24,-253,-149,169,-65,-106
9925,27,-248,-153,186,-55,-107
9930,25,-240,-150,199,-45,-106
9935,27,-237,-144,207,-37,-104
9940,25,-229,-149,205,-28,-102
9945,26,-225,-152,198,-19,-101
9950,25,-224,-150,185,-13,-99
9955,26,-220,-154,165,-12,-95
9960,27,-226,-157,140,-14,-88
9965,29,-226,-160,111,-18,-84
9970,27,-230,-163,88,-24,-78
9975,30,-238,-157,75,-30,-71
9980,27,-241,-159,72,-34,-68
9985,27,-242,-161,80,-36,-64
9990,23,-248,-161,97,-40,-63
9995,21,-243,-164,115,-45,-64
10000,19,-249,-162,133,-53,-64
10005,12,-249,-165,143,-67,-68
10010,11,-248,-168,154,-85,-72
10015,12,-248,-166,164,-102,-76
10020,9,-245,-165,172,-116,-82
10025,9,-245,-168,182,-124,-89
10030,7,-243,-170,189,-126,-91
10035,7,-239,-167,196,-119,-94
10040,8,-241,-168,198,-109,-96
10045,9,-234,-168,196,-94,-96
10050,10,-233,-169,195,-75,-95
10055,10,-229,-164,193,-53,-94
10060,11,-227,-165,189,-32,-93
10065,12,-223,-164,186,-13,-93
10070,14,-219,-159,183,2,-92
10075,20,-221,-160,180,16,-95
10080,14,-212,-158,178,27,-97
10085,16,-211,-157,171,35,-100
10090,16,-208,-153,161,40,-101
10095,16,-204,-154,146,47,-103
10100,14,-205,-152,125,50,-104
10105,14,-208,-154,101,52,-106
10110,12,-204,-150,78,52,-105
10115,13,-208,-151,54,51,-104
10120,14,-206,-149,35,46,-101
10125,21,-204,-151,19,38,-101
10130,22,-216,-150,3,28,-97
10135,18,-217,-156,-9,15,-95
10140,17,-221,-153,-19,3,-93
10145,18,-227,-153,-24,-13,-94
10150,15,-228,-150,-24,-28,-95
10155,11,-234,-149,-20,-47,-96
10160,13,-235,-149,-12,-63,-101
10165,11,-239,-151,-1,-80,-105
10170,9,-238,-150,14,-95,-108
10175,7,-240,-154,22,-110,-111
10180,5,-231,-174,29,-123,-116
10185,4,-243,-157,35,-132,-120
10190,9,-246,-157,40,-140,-124
10195,1,-245,-157,44,-146,-128
10200,-1,-244,-157,43,-151,-125
10205,0,-244,-162,43,-155,-121
10210,0,-244,-162,40,-159,-118
10215,1,-246,-160,35,-162,-113
10220,0,-247,-162,32,-165,-108
10225,0,-242,-161,28,-164,-102
10230,0,-241,-161,25,-162,-95
10235,7,-245,-149,22,-157,-90
10240,-2,-239,-157,21,-151,-84
10245,3,-238,-155,21,-146,-73
10250,1,-235,-153,24,-143,-66
10255,1,-231,-150,29,-138,-58
10260,2,-226,-154,34,-132,-51
10265,2,-222,-154,34,-129,-43
10270,3,-223,-145,32,-129,-37
10275,2,-218,-153,28,-128,-31
10280,8,-219,-152,19,-126,-27
10285,9,-216,-144,9,-124,-26
10290,8,-215,-152,-2,-120,-26
10295,11,-216,-153,-14,-115,-30
10300,12,-219,-156,-29,-111,-31
10305,14,-218,-153,-44,-104,-35
10310,15,-221,-150,-61,-96,-39
10315,15,-229,-154,-80,-87,-43
10320,16,-229,-154,-98,-77,-48
10325,12,-235,-152,-112,-69,-53
10330,15,-241,-154,-119,-60,-58
10335,13,-242,-152,-117,-52,-61
10340,17,-244,-154,-110,-44,-62
10345,11,-248,-156,-97,-39,-65
10350,9,-246,-152,-82,-35,-65
10355,9,-249,-152,-65,-33,-63
10360,7,-247,-153,-50,-33,-60
10365,8,-242,-151,-39,-34,-55
10370,4,-242,-157,-32,-40,-50
10375,7,-238,-153,-31,-46,-44
10380,6,-240,-151,-30,-55,-38
10385,7,-239,-156,-32,-62,-32
10390,7,-237,-150,-31,-72,-28
10395,7,-235,-149,-33,-81,-22
10400,6,-233,-150,-32,-91,-20
10405,10,-232,-154,-35,-98,-19
10410,9,-231,-151,-42,-104,-18
10415,7,-230,-155,-53,-107,-18
10420,11,-232,-151,-62,-107,-18
10425,12,-233,-152,-71,-102,-20
10430,13,-237,-153,-79,-94,-22
10435,10,-237,-152,-84,-84,-23
10440,14,-241,-149,-86,-73,-24
10445,12,-240,-153,-84,-61,-27
10450,11,-240,-150,-80,-49,-25
10455,9,-241,-149,-75,-38,-22
10460,11,-240,-149,-65,-30,-21
10465,9,-236,-148,-59,-21,-16
10470,9,-236,-151,-51,-13,-10
10475,13,-234,-150,-46,-7,-3
10480,12,-236,-150,-40,0,5
10485,13,-231,-151,-39,6,12
10490,12,-227,-151,-40,11,18
10495,9,-228,-149,-44,14,21
10500,10,-230,-148,-51,19,24
10505,9,-230,-149,-60,23,28
10510,9,-229,-146,-69,24,28
10515,10,-235,-153,-77,25,30
10520,10,-235,-150,-83,22,30
10525,8,-234,-148,-86,17,29
10530,7,-236,-151,-89,12,29
10535,6,-235,-147,-90,8,27
10540,3,-238,-150,-88,4,25
10545,4,-240,-152,-84,0,23
10550,2,-242,-155,-83,-3,24
10555,3,-239,-147,-81,-3,24
10560,1,-240,-152,-81,-6,23
10565,1,-235,-151,-78,-7,24
10570,0,-235,-149,-74,-8,24
10575,1,-234,-151,-75,-7,25
10580,1,-232,-153,-73,-7,24
10585,-2,-234,-149,-75,-5,24
10590,0,-235,-152,-82,-4,25
10595,0,-234,-149,-89,-2,26
10600,-1,-235,-151,-100,1,25
10605,-3,-236,-150,-110,5,25
10610,-3,-238,-149,-120,8,27
10615,-2,-241,-150,-133,13,27
10620,-3,-246,-149,-139,17,28
10625,-2,-245,-149,-139,21,29
10630,0,-251,-148,-132,22,29
10635,-1,-252,-146,-120,23,30
10640,0,-249,-149,-107,26,28
10645,1,-250,-148,-92,29,29
10650,2,-253,-145,-77,30,31
10655,2,-251,-147,-63,33,29
10660,0,-248,-147,-48,35,30
10665,1,-248,-143,-36,36,29
10670,1,-247,-146,-25,36,27
10675,2,-243,-144,-17,37,26
10680,1,-241,-143,-12,35,24
10685,1,-241,-145,-9,33,22
10690,0,-238,-148,-13,30,21
10695,1,-240,-148,-18,27,20
10700,0,-239,-144,-27,24,21
10705,1,-236,-146,-35,19,24
10710,1,-237,-145,-42,14,22
10715,2,-239,-146,-46,10,24
10720,2,-239,-150,-50,7,26
10725,1,-238,-144,-51,6,26
10730,4,-242,-147,-52,6,27
10735,2,-239,-147,-55,7,29
10740,1,-242,-146,-55,7,30
10745,7,-241,-146,-56,11,31
10750,5,-240,-145,-56,13,34
10755,3,-244,-144,-52,17,36
10760,5,-242,-148,-45,20,41
10765,3,-243,-148,-33,20,44
10770,7,-244,-144,-19,21,48
10775,9,-248,-145,-7,23,50
10780,8,-247,-151,3,23,52
10785,10,-248,-153,13,23,55
10790,6,-247,-152,21,23,57
10795,7,-248,-151,30,23,59
10800,9,-249,-151,43,24,62
10805,7,-249,-154,54,25,64
10810,9,-248,-150,67,25,68
10815,10,-246,-152,82,25,69
10820,7,-247,-153,93,26,72
10825,7,-244,-154,107,28,75
10830,9,-243,-152,117,30,79
10835,10,-242,-151,127,33,82
10840,14,-242,-153,137,37,87
10845,9,-240,-149,141,45,92
10850,11,-238,-151,146,52,96
10855,11,-236,-150,147,59,99
10860,9,-235,-150,149,68,105
10865,10,-236,-147,143,78,109
10870,11,-234,-146,139,89,114
10875,8,-232,-143,134,101,116
10880,7,-232,-143,127,110,118
10885,7,-233,-143,119,119,121
10890,6,-233,-146,110,126,122
10895,7,-235,-145,103,133,125
10900,3,-231,-146,97,139,127
10905,9,-234,-147,89,145,130
10910,8,-232,-147,77,149,130
10915,7,-235,-144,66,152,128
10920,5,-237,-141,58,156,125
10925,5,-238,-144,51,158,124
10930,8,-236,-144,45,159,121
10935,1,-238,-146,39,156,117
10940,4,-240,-142,35,152,113
10945,2,-234,-145,34,145,107
10950,2,-237,-142,31,138,102
10955,3,-235,-141,29,130,98
10960,3,-231,-146,24,121,92
10965,3,-235,-146,17,111,85
10970,2,-229,-148,11,99,79
10975,1,-233,-145,0,87,72
10980,1,-234,-146,-8,75,66
10985,4,-236,-148,-20,64,58
10990,3,-240,-149,-34,56,48
10995,2,-239,-151,-48,50,40
11000,1,-240,-147,-60,45,31
11005,0,-242,-149,-66,39,25
11010,2,-248,-146,-65,37,17
11015,1,-248,-144,-60,34,11
11020,2,-248,-142,-52,31,6
11025,1,-246,-144,-41,32,1
11030,4,-249,-144,-29,34,-3
11035,0,-246,-143,-17,36,-5
11040,1,-248,-140,-7,42,-10
11045,1,-245,-142,0,47,-12
11050,12,-242,-136,5,51,-14
11055,1,-244,-134,6,57,-14
11060,1,-244,-135,5,62,-14
11065,1,-243,-139,6,68,-15
11070,1,-244,-140,4,75,-16
11075,1,-246,-142,4,79,-18
11080,1,-249,-141,4,83,-18
11085,2,-245,-138,5,87,-19
11090,2,-242,-141,5,91,-20
11095,1,-242,-144,5,94,-19
11100,5,-246,-141,5,98,-19
11105,9,-232,-157,5,101,-18
11110,4,-243,-140,4,103,-17
11115,5,-238,-144,0,106,-17
11120,5,-239,-146,-5,109,-14
11125,7,-241,-146,-6,111,-12
11130,7,-238,-150,-11,115,-9
11135,9,-241,-147,-14,119,-8
11140,7,-237,-147,-17,122,-4
11145,6,-237,-150,-23,124,-1
11150,7,-237,-150,-24,124,3
11155,9,-238,-146,-27,124,5
11160,8,-243,-134,-29,124,6
11165,10,-240,-148,-27,125,9
11170,8,-236,-144,-24,127,10
11175,11,-237,-141,-17,131,13
11180,10,-237,-139,-9,130,13
11185,12,-237,-140,-5,132,14
11190,10,-236,-141,-3,129,14
11195,8,-236,-138,-5,129,14
11200,9,-237,-139,-5,124,15
11205,8,-234,-141,-7,120,15
11210,5,-238,-139,-7,117,15
11215,6,-234,-138,-7,112,17
11220,3,-234,-141,-8,108,17
11225,6,-236,-141,-11,103,17
11230,5,-236,-140,-16,102,17
11235,4,-236,-142,-21,100,16
11240,6,-236,-143,-29,101,18
11245,6,-242,-145,-35,103,18
11250,2,-243,-143,-44,104,17
11255,2,-243,-142,-46,103,18
11260,5,-242,-145,-48,99,17
11265,3,-244,-147,-43,95,17
11270,3,-245,-146,-37,91,16
11275,2,-238,-144,-32,86,14
11280,1,-240,-146,-27,81,16
11285,1,-239,-144,-26,75,15
11290,1,-237,-141,-28,69,14
11295,1,-238,-145,-34,64,15
11300,0,-239,-139,-41,58,13
11305,0,-238,-140,-46,55,13
11310,-1,-238,-139,-50,51,13
11315,-2,-237,-139,-56,49,12
11320,-1,-237,-138,-61,46,12
11325,0,-238,-138,-66,44,13
11330,0,-235,-137,-69,39,12
11335,0,-240,-138,-73,36,8
11340,0,-239,-140,-78,34,6
11345,0,-240,-140,-81,32,5
11350,0,-240,-135,-82,32,4
11355,0,-241,-137,-86,31,2
11360,-2,-237,-135,-90,31,1
11365,-2,-239,-139,-91,31,-2
11370,0,-241,-135,-92,31,-2
11375,0,-242,-135,-94,30,-3
11380,0,-240,-138,-95,27,-4
11385,-1,-243,-141,-93,24,-6
11390,0,-243,-141,-94,21,-7
11395,0,-243,-139,-94,17,-8
11400,1,-242,-141,-95,15,-9
11405,0,-245,-142,-99,7,-11
11410,0,-243,-138,-101,2,-10
11415,0,-242,-145,-101,-1,-12
11420,2,-244,-143,-99,-6,-15
11425,1,-240,-143,-101,-12,-18
11430,0,-240,-144,-99,-17,-21
11435,2,-240,-141,-100,-23,-26
11440,1,-241,-145,-102,-27,-29
11445,3,-244,-144,-105,-30,-33
11450,1,-241,-143,-109,-32,-38
11455,-1,-241,-146,-113,-34,-40
11460,0,-253,-150,-115,-37,-24
11465,-3,-245,-137,-147,-42,-46
11470,1,-251,-139,-148,-47,-50
11475,4,-251,-138,-136,-47,-53
11480,3,-247,-138,-122,-47,-57
11485,2,-247,-142,-109,-49,-61
11490,3,-245,-141,-99,-51,-66
11495,2,-243,-142,-92,-50,-68
11500,8,-243,-144,-88,-50,-70
11505,7,-242,-144,-87,-47,-71
11510,6,-241,-143,-85,-43,-72
11515,5,-240,-143,-85,-39,-71
11520,6,-239,-140,-85,-37,-70
11525,10,-239,-141,-90,-33,-67
11530,9,-238,-144,-92,-28,-65
11535,6,-239,-141,-99,-22,-62
11540,6,-236,-140,-103,-20,-60
11545,7,-240,-143,-107,-15,-57
11550,7,-238,-147,-113,-10,-56
11555,6,-240,-142,-117,-4,-55
11560,8,-238,-147,-120,2,-54
11565,6,-238,-139,-123,5,-56
11570,4,-237,-140,-125,9,-56
11575,4,-239,-141,-124,11,-55
11580,4,-242,-141,-124,10,-56
11585,5,-241,-140,-120,9,-55
11590,4,-241,-141,-115,5,-57
11595,4,-244,-144,-109,1,-59
11600,6,-244,-144,-101,-6,-60
11605,5,-242,-147,-94,-13,-61
11610,3,-237,-148,-93,-20,-63
11615,4,-238,-147,-94,-29,-65
11620,2,-238,-148,-95,-33,-65
11625,3,-237,-150,-96,-36,-65
11630,7,-238,-152,-92,-38,-67
11635,5,-240,-149,-90,-39,-68
11640,4,-236,-148,-87,-41,-68
11645,6,-241,-147,-87,-40,-70
11650,6,-240,-148,-91,-41,-68
11655,6,-242,-147,-95,-43,-68
11660,5,-242,-148,-98,-43,-68
11665,8,-247,-144,-98,-43,-67
11670,5,-242,-141,-97,-45,-64
11675,8,-244,-149,-93,-49,-63
11680,6,-239,-147,-85,-53,-63
11685,9,-244,-147,-77,-55,-61
11690,8,-244,-147,-69,-58,-61
11695,4,-242,-141,-62,-61,-59
11700,6,-241,-142,-56,-65,-58
11705,8,-239,-143,-48,-65,-58
11710,5,-239,-148,-45,-63,-59
11715,6,-238,-148,-44,-59,-57
11720,8,-238,-147,-46,-54,-57
11725,11,-238,-143,-50,-47,-54
11730,7,-238,-143,-56,-42,-53
11735,9,-236,-147,-63,-36,-52
11740,10,-235,-147,-69,-29,-51
11745,11,-237,-144,-71,-25,-50
11750,8,-239,-148,-73,-21,-49
11755,9,-243,-144,-74,-18,-48
11760,13,-242,-142,-74,-18,-46
11765,10,-240,-147,-72,-18,-47
11770,12,-240,-148,-72,-17,-46
11775,12,-240,-146,-69,-16,-46
11780,11,-239,-148,-67,-17,-45
11785,10,-241,-146,-65,-17,-42
11790,11,-239,-149,-61,-18,-43
11795,10,-235,-148,-63,-17,-41
11800,10,-235,-154,-65,-16,-40
11805,13,-235,-150,-66,-16,-39
11810,8,-235,-153,-66,-14,-35
11815,9,-234,-150,-67,-11,-32
11820,8,-233,-147,-67,-8,-28
11825,12,-234,-146,-67,-3,-24
11830,10,-233,-147,-63,1,-22
11835,11,-231,-146,-60,4,-20
11840,10,-232,-146,-56,6,-18
11845,8,-231,-147,-57,7,-16
11850,8,-229,-148,-60,6,-14
11855,9,-230,-145,-65,1,-10
11860,6,-229,-148,-72,-1,-10
11865,11,-228,-145,-77,-3,-7
11870,7,-230,-144,-82,-7,-7
11875,8,-224,-145,-88,-12,-5
11880,6,-227,-141,-96,-15,-4
11885,8,-226,-141,-103,-20,-4
11890,5,-223,-143,-108,-25,-3
11895,5,-220,-140,-113,-29,-2
11900,7,-220,-141,-117,-31,1
11905,6,-221,-139,-119,-33,2
11910,5,-225,-142,-124,-35,4
11915,2,-224,-141,-130,-36,6
11920,4,-227,-145,-133,-36,6
11925,2,-229,-144,-135,-34,9
11930,3,-234,-148,-135,-31,10
11935,1,-233,-147,-132,-29,11
11940,2,-238,-150,-130,-29,13
11945,2,-240,-152,-131,-29,15
11950,4,-242,-153,-133,-27,17
11955,1,-243,-154,-137,-29,22
11960,1,-249,-151,-138,-30,25
11965,5,-251,-155,-137,-34,27
11970,5,-251,-154,-132,-38,29
11975,-7,-253,-143,-125,-43,33
11980,11,-252,-154,-116,-45,34
11985,9,-251,-155,-110,-45,35
11990,9,-251,-149,-101,-42,35
11995,12,-251,-149,-94,-38,35
