timestamp,acc_x,acc_y,acc_z,gyro_x,gyro_y,gyro_z
0,-5,-222,-131,-42,70,-6
5,-2,-223,-135,-41,70,-6
10,-3,-218,-135,-39,68,-7
15,-4,-225,-137,-37,69,-8
20,-3,-222,-137,-36,68,-6
25,-7,-228,-125,-34,69,-6
30,-5,-221,-133,-29,68,-4
35,0,-224,-134,-26,69,-4
40,-2,-221,-135,-23,72,-2
45,-2,-223,-137,-21,73,-2
50,-4,-225,-133,-19,73,-1
55,-1,-223,-134,-16,74,-1
60,-3,-222,-133,-15,73,-1
65,-4,-221,-135,-14,73,-1
70,-6,-221,-132,-13,71,-2
75,-12,-221,-130,-12,72,-1
80,-6,-221,-133,-12,70,-3
85,-6,-219,-134,-14,69,-2
90,-6,-223,-132,-14,69,-1
95,-3,-221,-130,-15,70,-3
100,-4,-224,-132,-16,70,-4
105,-3,-220,-136,-18,70,-3
110,-3,-221,-135,-19,71,-3
115,-4,-221,-132,-18,72,-2
120,-3,-221,-135,-18,72,-2
125,0,-220,-134,-17,73,0
130,-2,-221,-133,-18,73,-1
135,-1,-220,-134,-18,74,0
140,-5,-218,-135,-17,75,-1
145,-3,-217,-136,-16,77,0
150,-6,-219,-135,-16,75,-1
155,-4,-221,-132,-17,75,-2
160,-5,-217,-133,-16,75,-3
165,-3,-222,-134,-19,74,-3
170,-2,-220,-138,-19,76,-4
175,0,-221,-131,-22,76,-5
180,-1,-220,-134,-23,75,-5
185,0,-221,-134,-25,74,-4
190,-3,-223,-134,-27,73,-5
195,-1,-220,-134,-28,74,-3
200,-2,-222,-136,-29,75,-4
205,-2,-220,-133,-31,75,-4
210,-1,-221,-136,-31,75,-4
215,-1,-222,-135,-30,75,-3
220,-3,-223,-137,-30,75,-3
225,-2,-222,-134,-28,75,-4
230,-2,-223,-136,-26,74,-4
235,-4,-223,-136,-25,75,-4
240,-2,-222,-136,-24,74,-5
245,-1,-224,-136,-23,74,-6
250,-5,-221,-136,-21,72,-6
255,-5,-220,-134,-19,72,-5
260,-5,-218,-132,-18,70,-5
265,-3,-220,-132,-17,71,-4
270,-1,-220,-136,-17,72,-4
275,-3,-221,-135,-17,72,-3
280,-3,-221,-137,-17,72,-3
285,-4,-216,-134,-15,71,-6
290,-6,-221,-137,-16,71,-5
295,-2,-220,-136,-18,71,-4
300,-1,-221,-134,-18,70,-4
305,-2,-221,-136,-19,71,-4
310,0,-221,-136,-19,71,-3
315,-2,-221,-138,-19,71,-4
320,-2,-220,-135,-20,72,-3
325,-4,-222,-134,-20,73,-2
330,-1,-222,-132,-19,74,-1
335,-3,-220,-132,-20,73,-2
340,-3,-221,-136,-19,73,-1
345,-1,-219,-132,-16,73,-1
350,-3,-219,-136,-14,72,-1
355,-5,-222,-135,-11,73,-3
360,-4,-221,-132,-9,72,-2
365,-5,-222,-130,-7,71,-3
370,-4,-223,-137,-5,71,-2
375,-4,-222,-135,-2,72,-4
380,-4,-220,-134,-1,74,-5
385,-3,-223,-131,-2,73,-5
390,-5,-219,-133,-2,73,-5
395,-3,-218,-133,-2,71,-6
400,0,-220,-134,-5,72,-6
405,-6,-219,-136,-6,72,-5
410,-1,-221,-133,-7,72,-4
415,-4,-222,-134,-8,72,-5
420,-5,-222,-133,-9,71,-7
425,-3,-221,-134,-10,71,-5
430,-1,-222,-131,-11,72,-5
435,-5,-219,-134,-12,73,-6
440,-3,-223,-134,-12,73,-4
445,-2,-218,-135,-12,72,-5
450,-1,-221,-133,-11,74,-5
455,-5,-221,-135,-12,73,-5
460,-4,-220,-132,-10,71,-5
465,-4,-220,-134,-12,72,-4
470,-1,-220,-135,-11,71,-4
475,-5,-221,-133,-10,71,-4
480,0,-222,-132,-8,73,-6
485,-4,-222,-133,-9,72,-6
490,-1,-221,-131,-9,72,-6
495,-5,-220,-132,-9,71,-6
500,-1,-223,-133,-8,72,-6
505,0,-219,-134,-6,72,-6
510,-5,-219,-134,-9,71,-5
515,-3,-216,-134,-9,72,-6
520,0,-220,-135,-10,73,-5
525,-4,-218,-133,-10,75,-5
530,-1,-221,-136,-11,74,-5
535,-3,-220,-131,-12,75,-3
540,-2,-219,-130,-14,75,-4
545,-3,-221,-130,-14,75,-4
550,1,-223,-131,-14,75,-4
555,-2,-222,-135,-13,73,-4
560,0,-221,-136,-13,72,-3
565,-1,-222,-131,-13,71,-2
570,-3,-221,-133,-14,73,-5
575,-4,-219,-133,-13,73,-3
580,-2,-220,-132,-13,74,-3
585,-5,-219,-133,-13,75,-3
590,-4,-222,-132,-13,76,-4
595,-2,-222,-133,-14,75,-6
600,-4,-221,-129,-14,74,-5
605,0,-222,-130,-15,75,-5
610,-5,-221,-136,-16,74,-5
615,-5,-219,-128,-16,74,-5
620,-3,-220,-131,-15,74,-6
625,-3,-222,-137,-15,74,-4
630,-2,-220,-132,-14,74,-6
635,-3,-219,-131,-13,73,-4
640,-4,-222,-137,-13,73,-5
645,-1,-219,-132,-12,73,-5
650,-3,-219,-131,-12,71,-5
655,-6,-222,-131,-12,70,-4
660,-6,-219,-134,-10,71,-4
665,-3,-218,-134,-10,68,-4
670,-1,-221,-129,-11,69,-6
675,-4,-221,-133,-11,68,-7
680,-3,-218,-132,-10,66,-7
685,-4,-218,-137,-10,67,-7
690,-2,-219,-136,-11,68,-6
695,-3,-221,-133,-11,66,-6
700,-2,-222,-133,-12,67,-6
705,0,-222,-135,-11,66,-5
710,-4,-219,-133,-12,67,-5
715,-3,-223,-134,-13,68,-4
720,-3,-220,-134,-14,69,-5
725,-2,-220,-132,-13,70,-5
730,-7,-221,-139,-13,71,-3
735,-4,-220,-134,-14,71,-3
740,-2,-222,-135,-14,74,0
745,-1,-222,-134,-16,75,-2
750,-7,-221,-135,-15,76,-3
755,-1,-221,-133,-16,77,-5
760,-4,-219,-135,-14,77,-6
765,-7,-220,-134,-15,76,-7
770,-3,-221,-130,-14,76,-6
775,0,-220,-133,-16,76,-6
780,-2,-219,-136,-18,76,-7
785,-2,-218,-131,-21,74,-6
790,-2,-224,-135,-21,73,-7
795,-5,-221,-134,-23,75,-5
800,-3,-219,-138,-22,73,-4
805,-4,-222,-135,-22,73,-3
810,0,-219,-136,-21,73,-4
815,-3,-221,-137,-20,71,-3
820,-2,-221,-133,-19,71,-5
825,-5,-223,-131,-17,70,-3
830,-2,-221,-137,-14,70,-2
835,-3,-220,-131,-12,70,-2
840,-2,-220,-132,-10,72,0
845,-4,-220,-133,-10,72,2
850,-1,-221,-135,-9,74,2
855,-5,-217,-135,-9,73,3
860,-1,-222,-135,-10,72,4
865,0,-221,-134,-10,71,5
870,-4,-222,-134,-11,71,5
875,-4,-219,-135,-13,70,4
880,-1,-223,-133,-15,69,3
885,0,-220,-133,-16,69,2
890,-4,-221,-134,-16,68,2
895,-4,-221,-133,-17,68,1
900,-2,-223,-136,-17,69,1
905,-3,-220,-132,-16,69,1
910,-2,-219,-136,-16,69,0
915,-5,-219,-132,-16,70,0
920,-5,-217,-136,-16,69,0
925,-4,-221,-137,-17,69,-1
930,-1,-221,-137,-16,68,-1
935,-1,-223,-135,-16,67,1
940,-2,-220,-130,-16,66,0
945,-2,-220,-132,-16,66,-1
950,-3,-221,-133,-15,63,1
955,-1,-221,-132,-14,64,1
960,-1,-219,-134,-13,64,0
965,-2,-219,-136,-13,64,-1
970,-2,-221,-130,-12,63,-1
975,-2,-221,-134,-11,65,-1
980,0,-220,-133,-12,65,-1
985,-2,-221,-132,-10,65,-2
990,-1,-220,-133,-11,66,-1
995,-1,-219,-135,-11,65,0
1000,-6,-217,-134,-11,66,-1
1005,-2,-221,-134,-11,67,-1
1010,-1,-222,-133,-12,67,-2
1015,-2,-221,-132,-15,68,-4
1020,-5,-219,-132,-16,68,-4
1025,-3,-218,-133,-17,67,-5
1030,-2,-220,-134,-16,67,-4
1035,-4,-218,-133,-15,68,-5
1040,-3,-219,-132,-14,68,-5
1045,-4,-218,-131,-12,68,-7
1050,-3,-220,-136,-10,67,-5
1055,-7,-221,-134,-8,68,-6
1060,-1,-222,-133,-8,67,-6
1065,-3,-219,-135,-8,68,-6
1070,-1,-219,-134,-10,68,-5
1075,-3,-218,-132,-12,67,-5
1080,-3,-221,-128,-14,68,-4
1085,-3,-219,-137,-16,67,-4
1090,-3,-219,-131,-16,68,-5
1095,-3,-220,-133,-17,67,-6
1100,-3,-220,-132,-18,66,-4
1105,-5,-220,-135,-20,66,-5
1110,-1,-224,-134,-20,67,-3
1115,-1,-221,-132,-22,66,-4
1120,-3,-221,-135,-22,65,-5
1125,-3,-221,-132,-22,65,-4
1130,-4,-221,-133,-22,66,-2
1135,-4,-220,-132,-21,67,-3
1140,-2,-221,-134,-21,66,-2
1145,-2,-222,-135,-20,67,-2
1150,-5,-221,-134,-21,67,-3
1155,-1,-222,-134,-21,68,-2
1160,-6,-220,-135,-21,69,-1
1165,-3,-220,-131,-21,68,-2
1170,-5,-223,-132,-19,70,-2
1175,-3,-221,-133,-20,68,-3
1180,-3,-221,-138,-19,70,-2
1185,-3,-222,-136,-18,70,-4
1190,-6,-220,-136,-17,70,-2
1195,-3,-222,-134,-17,69,-3
1200,-2,-221,-135,-15,70,-5
1205,0,-222,-132,-14,69,-4
1210,0,-221,-136,-12,67,-3
1215,-1,-221,-132,-11,66,-3
1220,-2,-222,-135,-10,65,-2
1225,-4,-219,-136,-10,65,-2
1230,-4,-218,-138,-13,63,0
1235,-2,-221,-134,-18,63,-2
1240,-2,-220,-137,-22,63,-1
1245,-4,-222,-140,-27,61,3
1250,-9,-226,-139,-32,59,7
1255,-9,-227,-138,-38,54,9
1260,-9,-229,-136,-45,47,14
1265,-8,-234,-142,-50,38,18
1270,-8,-237,-138,-51,23,18
1275,-4,-242,-136,-41,5,14
1280,-1,-244,-133,-25,-13,10
1285,-2,-247,-131,-1,-31,4
1290,-3,-249,-142,21,-43,-1
1295,-1,-249,-146,38,-42,-5
1300,0,-247,-153,44,-32,-6
1305,-6,-236,-155,44,-10,-4
1310,-5,-236,-159,40,16,-2
1315,-3,-227,-160,41,44,1
1320,-4,-221,-159,58,72,0
1325,-6,-214,-154,94,104,-3
1330,-7,-202,-164,136,146,-7
1335,-11,-180,-165,159,200,-5
1340,-9,-167,-167,151,266,5
1345,-10,-150,-160,116,340,21
1350,-14,-138,-155,80,409,38
1355,-10,-130,-150,40,455,55
1360,-13,-123,-147,3,475,69
1365,-12,-120,-144,-33,484,77
1370,-8,-119,-144,-79,478,82
1375,-12,-114,-143,-144,465,87
1380,-9,-117,-141,-234,446,93
1385,-10,-116,-142,-346,425,99
1390,-6,-126,-146,-471,403,103
1395,-2,-136,-148,-596,379,106
1400,-2,-143,-149,-705,354,107
1405,1,-152,-155,-797,329,107
1410,0,-158,-154,-867,307,105
1415,2,-163,-157,-917,291,107
1420,0,-166,-161,-949,278,109
1425,2,-169,-164,-967,273,114
1430,1,-175,-167,-973,271,120
1435,1,-170,-167,-965,273,125
1440,2,-167,-171,-950,277,128
1445,1,-167,-174,-932,282,133
1450,1,-161,-175,-914,290,135
1455,0,-153,-170,-896,299,136
1460,1,-148,-172,-879,308,137
1465,3,-142,-170,-866,319,140
1470,3,-136,-166,-863,330,142
1475,1,-131,-167,-866,349,145
1480,0,-127,-168,-883,369,148
1485,0,-121,-168,-913,392,151
1490,1,-119,-167,-954,415,154
1495,5,-122,-166,-1009,437,159
1500,8,-118,-167,-1066,462,166
1505,6,-119,-167,-1126,488,176
1510,8,-112,-171,-1185,520,189
1515,8,-114,-174,-1243,556,205
1520,10,-111,-172,-1300,595,222
1525,9,-112,-174,-1353,634,241
1530,6,-109,-176,-1400,673,262
1535,9,-108,-172,-1441,708,282
1540,4,-110,-164,-1476,737,298
1545,5,-109,-163,-1504,757,313
1550,4,-112,-154,-1526,767,322
1555,0,-112,-150,-1541,762,326
1560,-3,-119,-146,-1553,744,327
1565,-7,-122,-136,-1563,711,322
1570,-14,-124,-140,-1575,660,311
1575,-23,-128,-132,-1591,591,293
1580,-31,-132,-131,-1618,506,269
1585,-37,-139,-136,-1652,405,238
1590,-40,-140,-141,-1694,297,199
1595,-48,-141,-143,-1743,186,150
1600,-42,-139,-148,-1789,77,96
1605,-45,-151,-148,-1826,-27,36
1610,-46,-148,-148,-1849,-125,-27
1615,-38,-149,-150,-1855,-214,-91
1620,-27,-151,-152,-1846,-288,-152
1625,-19,-152,-156,-1822,-349,-210
1630,-4,-151,-160,-1788,-394,-262
1635,3,-152,-160,-1757,-423,-306
1640,15,-151,-166,-1716,-438,-338
1645,20,-150,-171,-1679,-439,-358
1650,21,-141,-180,-1654,-436,-365
1655,24,-138,-187,-1647,-427,-358
1660,26,-125,-203,-1666,-418,-343
1665,27,-120,-214,-1715,-404,-313
1670,28,-109,-232,-1797,-386,-272
1675,28,-101,-239,-1907,-359,-227
1680,33,-102,-236,-2030,-324,-173
1685,37,-110,-231,-2145,-288,-111
1690,30,-115,-221,-2234,-259,-51
1695,24,-127,-210,-2290,-248,4
1700,22,-138,-194,-2311,-261,54
1705,18,-146,-177,-2306,-299,95
1710,12,-144,-175,-2279,-350,122
1715,10,-146,-172,-2239,-401,128
1720,15,-148,-163,-2188,-443,117
1725,15,-149,-156,-2121,-478,85
1730,15,-151,-152,-2043,-505,43
1735,17,-157,-153,-1962,-529,-4
1740,21,-157,-162,-1884,-550,-53
1745,20,-159,-170,-1817,-566,-107
1750,24,-159,-187,-1764,-579,-165
1755,20,-157,-204,-1726,-586,-223
1760,17,-159,-219,-1705,-580,-282
1765,20,-161,-241,-1703,-556,-339
1770,15,-164,-261,-1715,-512,-390
1775,14,-171,-269,-1737,-444,-440
1780,13,-174,-276,-1748,-363,-487
1785,11,-172,-285,-1727,-278,-539
1790,3,-167,-285,-1673,-203,-575
1795,-2,-154,-278,-1598,-149,-591
1800,-16,-146,-276,-1506,-113,-579
1805,-27,-140,-268,-1400,-94,-550
1810,-34,-139,-256,-1287,-95,-504
1815,-35,-140,-249,-1182,-110,-458
1820,-48,-140,-231,-1087,-141,-411
1825,-48,-143,-221,-1008,-182,-363
1830,-51,-139,-215,-948,-229,-321
1835,-48,-134,-210,-906,-270,-288
1840,-40,-127,-206,-872,-305,-254
1845,-31,-115,-204,-847,-328,-223
1850,-18,-102,-208,-823,-342,-198
1855,-5,-82,-212,-808,-346,-180
1860,2,-77,-219,-800,-349,-171
1865,13,-61,-221,-806,-342,-176
1870,17,-58,-225,-824,-328,-193
1875,21,-52,-226,-845,-304,-212
1880,27,-51,-237,-865,-271,-237
1885,21,-52,-238,-889,-233,-266
1890,21,-58,-245,-909,-198,-291
1895,11,-62,-244,-924,-167,-306
1900,-1,-64,-251,-922,-141,-317
1905,-12,-68,-250,-903,-115,-322
1910,-24,-65,-251,-876,-95,-310
1915,-35,-62,-256,-834,-76,-286
1920,-45,-58,-257,-783,-65,-241
1925,-52,-55,-261,-734,-55,-187
1930,-50,-57,-252,-692,-45,-123
1935,-56,-57,-252,-657,-29,-73
1940,-54,-53,-251,-631,-17,-21
1945,-50,-54,-252,-597,-12,38
1950,-42,-49,-250,-559,-7,78
1955,-33,-48,-246,-527,-1,91
1960,-28,-46,-245,-512,7,91
1965,-18,-39,-241,-506,1,80
1970,-2,-36,-255,-507,-4,74
1975,2,-22,-253,-525,3,52
1980,3,-18,-250,-542,3,34
1985,6,-11,-262,-556,-5,14
1990,10,-10,-258,-559,-3,-2
1995,10,-7,-267,-552,7,-12
2000,4,-7,-263,-542,17,-15
2005,4,-10,-265,-526,26,-3
2010,0,-14,-264,-497,34,17
2015,-2,-21,-265,-466,41,40
2020,-9,-18,-255,-436,37,68
2025,-15,-22,-256,-404,38,83
2030,-17,-19,-256,-380,31,86
2035,-19,-22,-249,-355,34,101
2040,-32,-11,-251,-327,49,117
2045,-41,-16,-249,-284,66,126
2050,-45,-15,-252,-243,72,130
2055,-46,-12,-258,-223,77,128
2060,-49,-6,-258,-211,85,110
2065,-46,-5,-262,-187,81,112
2070,-45,2,-265,-165,74,119
2075,-38,5,-273,-150,60,124
2080,-33,1,-275,-158,47,106
2085,-30,10,-276,-162,31,101
2090,-23,11,-280,-164,26,96
2095,-20,9,-286,-181,42,77
2100,-18,5,-280,-205,69,59
2105,-8,-4,-283,-224,107,40
2110,-4,8,-277,-245,142,9
2115,1,8,-279,-232,170,10
2120,3,7,-271,-210,198,21
2125,2,0,-268,-186,226,35
2130,0,-5,-262,-160,251,48
2135,-4,-9,-260,-133,262,47
2140,-13,-24,-255,-113,259,31
2145,-13,0,-257,-92,253,16
2150,-20,2,-261,-45,250,21
2155,-28,8,-266,-6,241,27
2160,-24,9,-270,18,221,33
2165,-32,1,-273,45,194,14
2170,-29,10,-272,58,161,-5
2175,-29,6,-274,70,134,-28
2180,-27,-2,-276,76,110,-49
2185,-26,-12,-277,75,89,-57
2190,-26,-17,-276,11,39,-110
2195,-12,-9,-277,-21,24,-117
2200,-5,-10,-281,18,50,-111
2205,-13,-6,-286,61,84,-119
2210,-13,4,-292,101,103,-106
2215,-16,-6,-285,132,124,-90
2220,-12,3,-293,122,149,-99
2225,-15,7,-290,161,181,-87
2230,-33,-18,-296,223,214,-68
2235,-28,9,-287,232,214,-103
2240,-20,9,-290,256,202,-72
2245,-29,8,-290,296,210,-32
2250,-32,9,-293,328,219,25
2255,-42,6,-291,358,211,46
2260,-28,5,-294,389,192,39
2265,-31,0,-295,409,161,47
2270,-35,0,-289,421,118,47
2275,-30,-5,-289,438,78,41
2280,-36,-6,-291,454,51,34
2285,-25,-5,-293,466,37,37
2290,-34,-4,-292,479,32,37
2295,-32,-11,-291,496,19,22
2300,-46,-18,-283,494,5,-15
2305,-24,-16,-285,472,-16,-84
2310,-27,-12,-288,474,-10,-90
2315,-31,-22,-287,498,8,-56
2320,-36,-24,-281,517,15,-40
2325,-38,-28,-280,542,22,-37
2330,-41,-34,-279,572,25,-45
2335,-43,-37,-277,607,21,-56
2340,-45,-39,-281,630,20,-25
2345,-54,-35,-276,667,16,12
2350,-48,-33,-285,728,7,-16
2355,-44,-36,-288,772,4,-47
2360,-45,-34,-289,802,6,-63
2365,-45,-32,-287,825,5,-75
2370,-40,-32,-293,843,1,-83
2375,-44,-36,-288,861,-5,-90
2380,-44,-34,-289,881,-14,-98
2385,-48,-33,-293,899,-22,-103
2390,-48,-35,-292,921,-25,-104
2395,-48,-33,-293,945,-26,-100
2400,-52,-35,-294,970,-23,-89
2405,-48,-36,-292,994,-19,-80
2410,-39,-38,-297,1013,-12,-68
2415,-37,-39,-289,1025,4,-53
2420,-35,-41,-293,1036,27,-30
2425,-36,-56,-300,1040,50,-10
2430,-35,-64,-319,1028,66,-9
2435,-43,-67,-329,999,77,-14
2440,-47,-81,-338,972,87,-24
2445,-52,-88,-350,959,89,-35
2450,-64,-91,-364,957,93,-45
2455,-70,-85,-384,949,97,-65
2460,-52,-63,-403,909,93,-113
2465,-47,-40,-433,865,100,-116
2470,-50,-23,-458,801,130,-85
2475,-63,-21,-451,710,141,-69
2480,-59,-38,-430,633,125,-69
2485,-62,-47,-396,613,108,-61
2490,-61,-55,-372,655,86,-47
2495,-53,-58,-345,734,57,-29
2500,-54,-57,-321,821,28,-11
2505,-48,-62,-293,902,4,6
2510,-40,-68,-264,970,-9,22
2515,-34,-73,-245,1010,-10,33
2520,-35,-81,-224,1044,-3,43
2525,-32,-92,-204,1066,6,55
2530,-33,-105,-187,1089,22,67
2535,-32,-112,-169,1128,31,77
2540,-33,-114,-159,1183,28,76
2545,-30,-116,-150,1249,15,63
2550,-32,-115,-146,1316,-4,43
2555,-27,-109,-147,1377,-32,18
2560,-31,-91,-146,1430,-57,-9
2565,-30,-96,-150,1465,-78,-28
2570,-34,-93,-151,1486,-98,-47
2575,-27,-95,-152,1489,-110,-66
2580,-29,-96,-155,1477,-113,-86
2585,-30,-97,-164,1446,-112,-106
2590,-25,-103,-167,1403,-104,-125
2595,-21,-114,-166,1344,-90,-140
2600,-15,-125,-177,1280,-65,-153
2605,-12,-131,-186,1208,-36,-163
2610,-4,-142,-198,1131,-3,-169
2615,-4,-147,-210,1058,34,-174
2620,0,-150,-222,991,67,-174
2625,-3,-154,-231,945,98,-179
2630,-5,-157,-245,921,119,-182
2635,-9,-160,-251,917,132,-188
2640,-12,-157,-255,935,132,-194
2645,-18,-156,-261,969,124,-194
2650,-19,-156,-257,1017,108,-184
2655,-21,-149,-258,1069,88,-172
2660,-19,-152,-255,1120,67,-153
2665,-21,-151,-250,1167,46,-133
2670,-24,-148,-253,1205,23,-110
2675,-17,-150,-240,1246,7,-89
2680,-19,-149,-233,1292,-5,-68
2685,-18,-154,-227,1348,-14,-43
2690,-15,-150,-221,1408,-27,-30
2695,-12,-147,-221,1465,-28,-21
2700,-13,-146,-214,1517,-26,-17
2705,-14,-143,-211,1561,-26,-23
2710,-17,-135,-208,1598,-20,-34
2715,-14,-133,-209,1623,-16,-47
2720,-18,-129,-202,1630,-14,-66
2725,-19,-128,-200,1623,-7,-83
2730,-23,-122,-201,1601,3,-98
2735,-21,-129,-192,1585,23,-93
2740,-29,-129,-189,1521,23,-96
2745,-26,-132,-187,1441,30,-119
2750,-26,-134,-180,1358,36,-142
2755,-27,-137,-178,1276,42,-155
2760,-24,-141,-173,1197,46,-160
2765,-25,-144,-172,1125,51,-160
2770,-28,-152,-169,1058,57,-159
2775,-23,-153,-162,996,64,-161
2780,-25,-160,-166,946,69,-162
2785,-27,-165,-160,899,70,-161
2790,-23,-168,-165,860,72,-161
2795,-25,-174,-161,826,75,-162
2800,-24,-176,-161,807,82,-156
2805,-24,-180,-163,791,89,-147
2810,-24,-183,-162,778,96,-137
2815,-22,-186,-162,765,100,-125
2820,-21,-191,-167,756,102,-116
2825,-16,-193,-170,749,104,-106
2830,-20,-193,-165,742,105,-96
2835,-19,-196,-169,735,104,-86
2840,-18,-196,-174,731,101,-75
2845,-17,-198,-176,728,97,-64
2850,-17,-195,-178,727,91,-58
2855,-18,-193,-179,731,85,-50
2860,-17,-194,-181,739,77,-49
2865,-19,-195,-189,750,73,-50
2870,-16,-192,-187,766,75,-53
2875,-17,-190,-183,787,76,-59
2880,-16,-191,-183,811,81,-61
2885,-24,-194,-182,833,90,-66
2890,-16,-190,-183,857,96,-71
2895,-14,-192,-183,879,103,-74
2900,-15,-188,-172,896,109,-81
2905,-14,-189,-172,908,113,-87
2910,-16,-188,-170,913,118,-91
2915,-13,-192,-166,913,121,-94
2920,-12,-192,-172,913,125,-98
2925,-10,-192,-156,925,128,-88
2930,-13,-193,-154,903,119,-100
2935,-15,-193,-158,874,115,-111
2940,-10,-189,-151,842,111,-116
2945,-8,-196,-151,814,107,-119
2950,-11,-193,-151,788,100,-116
2955,-9,-192,-148,758,98,-113
2960,-12,-196,-147,729,95,-108
2965,-9,-197,-143,693,93,-108
2970,-7,-200,-141,659,90,-108
2975,-8,-199,-142,623,89,-110
2980,-7,-200,-142,587,89,-110
2985,-10,-204,-144,550,90,-110
2990,-14,-207,-141,515,87,-105
2995,-14,-204,-139,482,90,-103
3000,-11,-208,-143,450,96,-98
3005,-15,-211,-140,427,101,-95
3010,-13,-212,-144,405,110,-93
3015,-15,-208,-140,386,121,-91
3020,-16,-213,-145,372,127,-90
3025,-18,-212,-147,363,135,-89
3030,-17,-212,-148,358,140,-88
3035,-16,-210,-149,361,145,-85
3040,-16,-211,-147,368,151,-80
3045,-18,-210,-148,380,159,-75
3050,-18,-212,-150,390,165,-68
3055,-18,-212,-143,401,171,-62
3060,-19,-209,-147,408,174,-58
3065,-18,-217,-145,406,175,-56
3070,-20,-218,-145,392,174,-53
3075,-22,-218,-140,371,172,-49
3080,-24,-214,-138,346,167,-43
3085,-24,-216,-137,322,161,-35
3090,-23,-214,-132,301,155,-26
3095,-19,-213,-137,283,154,-17
3100,-21,-211,-139,273,153,-7
3105,-12,-207,-128,266,157,4
3110,-16,-204,-137,263,160,16
3115,-13,-204,-135,262,164,26
3120,-10,-202,-134,264,166,37
3125,-8,-203,-135,261,169,45
3130,-6,-198,-130,256,170,50
3135,-6,-199,-135,248,171,51
3140,-9,-199,-130,232,173,50
3145,-9,-203,-132,213,178,47
3150,-9,-207,-132,193,182,42
3155,-11,-213,-131,176,189,35
3160,-13,-218,-131,158,201,25
3165,-17,-221,-127,144,215,17
3170,-20,-224,-133,130,233,9
3175,-20,-224,-135,117,253,5
3180,-16,-227,-135,103,272,3
3185,-18,-224,-138,90,286,1
3190,-16,-220,-134,78,299,-3
3195,-16,-220,-135,71,306,-5
3200,-13,-218,-135,68,307,-7
3205,-14,-216,-128,70,306,-8
3210,-14,-219,-126,75,303,-11
3215,-14,-218,-117,80,295,-16
3220,-12,-216,-119,87,283,-24
3225,-10,-219,-117,93,270,-31
3230,-12,-219,-116,95,250,-45
3235,-16,-222,-117,94,228,-62
3240,-19,-220,-116,87,204,-77
3245,-20,-213,-116,80,182,-90
3250,-26,-213,-117,67,163,-97
3255,-28,-211,-115,54,146,-101
3260,-27,-210,-120,38,129,-104
3265,-28,-209,-121,22,114,-106
3270,-28,-207,-125,9,93,-103
3275,-28,-203,-121,-2,67,-102
3280,-27,-208,-127,-12,44,-101
3285,-23,-202,-130,-23,22,-98
3290,-24,-199,-130,-36,2,-93
3295,-21,-200,-135,-50,-17,-87
3300,-20,-203,-133,-62,-29,-78
3305,-18,-203,-136,-71,-37,-68
3310,-17,-205,-134,-77,-41,-57
3315,-13,-208,-136,-83,-40,-46
3320,-14,-208,-139,-83,-34,-35
3325,-8,-214,-137,-85,-28,-28
3330,-5,-221,-136,-89,-21,-26
3335,-5,-226,-137,-85,-11,-35
3340,-1,-233,-138,-87,0,-29
3345,-3,-235,-140,-93,16,-29
3350,0,-237,-139,-101,36,-27
3355,0,-233,-141,-106,58,-22
3360,0,-233,-144,-115,82,-14
3365,0,-226,-143,-122,107,-4
3370,0,-223,-144,-130,129,9
3375,1,-219,-146,-136,148,21
3380,-1,-216,-146,-140,161,33
3385,0,-214,-145,-139,168,41
3390,-1,-210,-140,-136,171,46
3395,-3,-213,-141,-128,168,50
3400,-2,-215,-138,-120,162,53
3405,0,-214,-135,-110,154,54
3410,-2,-214,-136,-104,147,55
3415,-5,-211,-135,-102,136,53
3420,-4,-211,-134,-106,126,54
3425,-4,-210,-139,-117,117,54
3430,-6,-209,-131,-132,108,53
3435,-6,-209,-139,-149,100,55
3440,-8,-209,-138,-168,93,56
3445,-8,-210,-141,-187,91,58
3450,-10,-208,-139,-204,88,58
3455,-11,-209,-142,-217,88,60
3460,-10,-210,-143,-226,89,64
3465,-13,-214,-143,-230,90,68
3470,-8,-210,-145,-229,92,74
3475,-12,-211,-143,-226,95,78
3480,-14,-212,-143,-220,95,81
3485,-12,-215,-141,-213,97,84
3490,-10,-216,-143,-206,97,86
3495,-12,-216,-146,-199,97,88
3500,-12,-218,-145,-194,95,88
3505,-12,-218,-140,-190,93,87
3510,-12,-217,-144,-188,90,84
3515,-15,-217,-142,-188,88,78
3520,-11,-218,-142,-189,84,74
3525,-13,-218,-142,-191,78,66
3530,-13,-219,-145,-193,74,58
3535,-13,-220,-142,-197,71,49
3540,-12,-217,-143,-200,67,40
3545,-12,-216,-142,-204,64,31
3550,-13,-218,-146,-210,64,22
3555,-12,-215,-144,-218,64,16
3560,-17,-211,-148,-223,64,10
3565,-17,-210,-146,-230,64,8
3570,-15,-207,-148,-234,66,4
3575,-16,-210,-147,-237,67,1
3580,-16,-206,-147,-240,67,2
3585,-16,-210,-147,-242,69,0
3590,-19,-205,-148,-243,67,1
3595,-15,-207,-147,-242,65,1
3600,-16,-207,-147,-243,65,3
3605,-16,-207,-148,-245,63,4
3610,-16,-208,-148,-246,61,4
3615,-12,-208,-149,-245,58,5
3620,-17,-207,-148,-246,55,4
3625,-15,-208,-152,-248,52,4
3630,-17,-207,-149,-250,52,5
3635,-15,-206,-155,-254,52,7
3640,-13,-207,-153,-258,51,8
3645,-12,-202,-152,-259,51,9
3650,-17,-210,-154,-261,51,10
3655,-13,-208,-153,-261,51,10
3660,-15,-208,-154,-259,50,11
3665,-11,-207,-154,-259,50,13
3670,-14,-205,-152,-254,51,15
3675,-13,-209,-156,-251,51,14
3680,-14,-205,-155,-246,51,16
3685,-11,-208,-152,-243,52,21
3690,-13,-206,-153,-238,51,21
3695,-10,-205,-155,-235,51,25
3700,-10,-207,-156,-232,52,26
3705,-15,-206,-155,-230,53,30
3710,-11,-201,-157,-227,53,32
3715,-8,-205,-159,-226,55,32
3720,-10,-203,-157,-222,53,33
3725,-13,-204,-156,-218,56,33
3730,-8,-206,-157,-215,55,33
3735,-12,-205,-161,-213,55,33
3740,-13,-203,-158,-209,56,33
3745,-11,-201,-156,-206,56,32
3750,-11,-206,-160,-202,55,33
3755,-15,-202,-159,-199,55,30
3760,-12,-205,-158,-197,55,30
3765,-13,-203,-160,-193,53,29
3770,-13,-203,-157,-189,52,27
3775,-14,-205,-158,-188,50,23
3780,-14,-203,-157,-186,49,23
3785,-16,-201,-160,-185,48,21
3790,-15,-201,-154,-183,48,19
3795,-13,-201,-159,-182,47,19
3800,-15,-200,-157,-181,47,18
3805,-15,-200,-160,-182,47,16
3810,-14,-200,-160,-181,47,16
3815,-15,-200,-161,-179,47,15
3820,-13,-200,-160,-178,47,15
3825,-13,-200,-159,-175,48,14
3830,-17,-198,-162,-173,47,14
3835,-14,-201,-166,-170,48,15
3840,-13,-202,-161,-165,47,14
3845,-14,-203,-162,-161,47,15
3850,-13,-198,-165,-158,48,15
3855,-16,-196,-161,-155,47,14
3860,-17,-198,-165,-154,48,16
3865,-12,-201,-164,-152,47,15
3870,-18,-197,-166,-151,48,16
3875,-16,-197,-163,-151,49,18
3880,-16,-198,-166,-149,50,18
3885,-16,-198,-165,-147,53,20
3890,-16,-197,-162,-145,54,20
3895,-12,-200,-162,-141,53,21
3900,-17,-198,-164,-138,54,19
3905,-12,-199,-167,-134,53,20
3910,-14,-200,-164,-129,53,21
3915,-14,-197,-165,-125,54,19
3920,-14,-198,-166,-123,52,20
3925,-17,-198,-164,-120,53,21
3930,-14,-197,-163,-120,56,20
3935,-15,-196,-163,-121,55,21
3940,-16,-195,-164,-121,56,23
3945,-14,-196,-165,-122,59,22
3950,-16,-196,-166,-123,59,24
3955,-15,-199,-163,-122,62,24
3960,-15,-195,-164,-121,64,25
3965,-18,-199,-164,-118,65,26
3970,-17,-197,-163,-115,67,25
3975,-18,-197,-166,-109,68,25
3980,-14,-201,-165,-103,66,23
3985,-13,-199,-172,-97,65,22
3990,-12,-198,-165,-93,64,22
3995,-12,-198,-168,-88,62,21
4000,-16,-197,-167,-82,62,20
4005,-14,-200,-167,-80,59,20
4010,-13,-195,-163,-78,59,18
4015,-15,-196,-165,-75,61,16
4020,-16,-195,-167,-73,60,14
4025,-13,-196,-165,-68,61,13
4030,-15,-194,-167,-64,63,10
4035,-14,-195,-168,-60,65,10
4040,-16,-193,-168,-57,65,7
4045,-14,-197,-166,-55,66,7
4050,-14,-197,-167,-52,67,6
4055,-14,-192,-168,-52,69,5
4060,-16,-192,-168,-52,70,7
4065,-16,-194,-164,-53,71,8
4070,-15,-195,-166,-53,72,8
4075,-14,-193,-166,-52,73,9
4080,-17,-195,-168,-50,72,10
4085,-20,-201,-162,-49,73,11
4090,-13,-196,-166,-48,73,12
4095,-13,-194,-167,-45,72,11
4100,-12,-198,-168,-42,72,12
4105,-15,-194,-166,-39,71,12
4110,-16,-196,-166,-36,71,10
4115,-17,-196,-168,-33,71,9
4120,-15,-195,-166,-30,70,8
4125,-14,-197,-162,-28,69,9
4130,-17,-195,-165,-26,69,8
4135,-16,-195,-165,-24,68,7
4140,-14,-195,-164,-22,67,7
4145,-15,-196,-168,-22,67,7
4150,-17,-194,-163,-20,68,8
4155,-18,-194,-167,-18,69,7
4160,-15,-199,-168,-17,69,9
4165,-15,-195,-168,-14,69,10
4170,-16,-196,-165,-11,70,9
4175,-19,-195,-167,-9,71,8
4180,-19,-193,-161,-7,71,9
4185,-15,-196,-170,-7,71,8
4190,-16,-196,-164,-6,72,8
4195,-19,-195,-168,-6,74,9
4200,-15,-196,-167,-7,73,8
4205,-14,-191,-166,-8,73,9
4210,-16,-196,-163,-8,73,7
4215,-15,-193,-168,-8,72,6
4220,-17,-196,-167,-8,72,6
4225,-16,-197,-165,-6,70,5
4230,-17,-196,-165,-5,69,5
4235,-19,-197,-165,-2,69,3
4240,-16,-195,-167,1,68,4
4245,-19,-195,-166,3,66,5
4250,-16,-194,-166,6,66,2
4255,-17,-195,-166,7,66,3
4260,-18,-195,-166,7,67,2
4265,-15,-195,-166,8,66,3
4270,-18,-196,-163,7,66,4
4275,-15,-193,-166,5,67,4
4280,-14,-195,-164,1,67,4
4285,-18,-198,-162,-2,65,3
4290,-15,-198,-163,-4,66,3
4295,-16,-193,-161,-6,65,1
4300,-12,-194,-164,-7,64,1
4305,-15,-196,-162,-9,64,-2
4310,-18,-196,-167,-7,63,0
4315,-13,-195,-164,-6,63,-1
4320,-17,-195,-163,-6,63,-4
4325,-17,-197,-164,-5,64,-5
4330,-20,-194,-162,-4,64,-4
4335,-15,-198,-169,-4,64,-6
4340,-18,-197,-165,-4,64,-6
4345,-14,-195,-162,-6,66,-6
4350,-13,-200,-158,-8,66,-5
4355,-17,-195,-165,-9,67,-5
4360,-13,-197,-163,-10,68,-5
4365,-14,-195,-163,-11,68,-5
4370,-16,-193,-162,-12,67,-3
4375,-17,-196,-165,-14,68,-3
4380,-18,-194,-165,-14,68,-3
4385,-18,-195,-165,-15,68,-3
4390,-21,-194,-166,-16,67,-3
4395,-16,-194,-163,-14,66,-4
4400,-15,-196,-162,-14,67,-4
4405,-18,-196,-164,-14,67,-6
4410,-13,-197,-162,-15,68,-6
4415,-16,-197,-162,-15,68,-6
4420,-19,-195,-164,-16,67,-5
4425,-16,-199,-161,-17,67,-5
4430,-16,-198,-164,-18,66,-6
4435,-16,-195,-161,-18,65,-6
4440,-14,-198,-163,-17,66,-7
4445,-18,-195,-166,-16,66,-8
4450,-14,-193,-166,-16,64,-9
4455,-17,-195,-163,-15,64,-9
4460,-16,-201,-157,-16,65,-9
4465,-17,-196,-162,-17,64,-10
4470,-15,-195,-162,-18,66,-11
4475,-17,-195,-164,-17,64,-11
4480,-18,-195,-158,-18,64,-11
4485,-17,-194,-164,-19,64,-13
4490,-17,-194,-165,-21,64,-13
4495,-18,-196,-164,-21,65,-13
4500,-16,-196,-160,-22,64,-12
4505,-19,-195,-162,-24,64,-13
4510,-15,-199,-165,-26,64,-13
4515,-16,-197,-163,-26,64,-13
4520,-24,-197,-166,-27,64,-13
4525,-15,-195,-164,-28,63,-12
4530,-16,-193,-164,-28,63,-12
4535,-17,-193,-167,-29,63,-11
4540,-16,-194,-164,-29,63,-12
4545,-16,-195,-162,-28,63,-11
4550,-16,-194,-165,-28,63,-13
4555,-17,-194,-164,-28,65,-12
4560,-18,-195,-162,-29,64,-12
4565,-14,-196,-162,-31,63,-15
4570,-19,-193,-168,-32,63,-15
4575,-15,-195,-164,-32,63,-16
4580,-17,-191,-164,-34,63,-15
4585,-16,-196,-169,-35,63,-15
4590,-16,-195,-163,-36,64,-15
4595,-17,-193,-166,-36,64,-15
4600,-15,-194,-164,-35,62,-15
4605,-13,-194,-165,-35,61,-15
4610,-18,-194,-166,-35,63,-14
4615,-18,-192,-164,-35,62,-14
4620,-16,-195,-163,-35,61,-13
4625,-17,-195,-160,-37,62,-12
4630,-16,-186,-168,-38,61,-10
4635,-18,-194,-167,-36,60,-10
4640,-17,-194,-165,-36,61,-10
4645,-13,-197,-165,-37,62,-11
4650,-16,-193,-166,-37,61,-10
4655,-16,-196,-164,-35,61,-12
4660,-16,-196,-162,-35,61,-9
4665,-15,-192,-163,-34,61,-9
4670,-13,-195,-165,-33,62,-11
4675,-15,-196,-163,-34,62,-8
4680,-14,-199,-155,-34,62,-9
4685,-14,-195,-168,-36,63,-8
4690,-17,-196,-166,-37,61,-6
4695,-13,-195,-166,-39,60,-6
4700,-16,-193,-165,-43,62,-4
4705,-18,-195,-164,-45,64,-4
4710,-15,-197,-167,-47,64,-4
4715,-17,-196,-167,-48,66,-3
4720,-16,-194,-166,-48,67,-3
4725,-17,-195,-163,-43,67,-3
4730,-14,-196,-164,-39,65,-3
4735,-16,-194,-165,-31,66,-3
4740,-16,-193,-167,-25,64,-2
4745,-15,-195,-167,-21,62,0
4750,-15,-193,-169,-19,59,0
4755,-16,-193,-167,-18,59,-2
4760,-12,-193,-165,-20,59,-1
4765,-16,-191,-165,-22,59,-3
4770,-17,-192,-167,-23,59,-4
4775,-15,-195,-166,-25,59,-6
4780,-19,-192,-169,-26,60,-8
4785,-17,-196,-166,-28,61,-9
4790,-14,-197,-165,-29,61,-9
4795,-16,-194,-163,-29,62,-9
4800,-13,-195,-171,-30,63,-11
4805,-15,-192,-164,-31,64,-10
4810,-15,-192,-164,-32,65,-7
4815,-16,-192,-169,-32,65,-7
4820,-20,-193,-165,-34,66,-4
4825,-16,-195,-164,-35,68,-3
4830,-17,-197,-166,-35,68,-1
4835,-17,-192,-166,-35,69,-1
4840,-16,-195,-166,-36,68,0
4845,-15,-196,-166,-33,68,0
4850,-15,-194,-161,-31,69,1
4855,-15,-194,-167,-28,69,1
4860,-15,-193,-167,-27,67,0
4865,-19,-191,-167,-25,65,0
4870,-15,-193,-166,-24,66,0
4875,-16,-193,-164,-23,65,1
4880,-17,-192,-166,-22,64,1
4885,-14,-194,-168,-21,64,-1
4890,-17,-195,-161,-22,64,0
4895,-17,-195,-169,-24,64,0
4900,-14,-191,-169,-24,64,-1
4905,-16,-193,-166,-23,65,-2
4910,-14,-195,-166,-23,65,-2
4915,-13,-193,-166,-22,65,-1
4920,-14,-193,-164,-21,66,0
4925,-16,-193,-167,-22,65,0
4930,-15,-193,-167,-21,66,1
4935,-15,-190,-166,-21,67,-1
4940,-17,-194,-166,-22,66,1
4945,-15,-191,-167,-22,65,2
4950,-16,-195,-166,-22,65,2
4955,-14,-193,-168,-23,67,1
4960,-16,-194,-165,-24,67,1
4965,-16,-192,-168,-26,65,2
4970,-17,-193,-164,-24,65,1
4975,-19,-191,-164,-25,66,1
4980,-16,-195,-168,-24,66,0
4985,-19,-192,-167,-24,66,1
4990,-17,-194,-168,-24,67,0
4995,-18,-194,-165,-22,66,-1
5000,-16,-193,-169,-21,65,-1
5005,-17,-195,-167,-19,64,-2
5010,-16,-196,-166,-17,64,-1
5015,-15,-194,-166,-16,64,-2
5020,-16,-195,-166,-16,65,-3
5025,-16,-192,-168,-16,64,-3
5030,-21,-191,-163,-15,63,-3
5035,-17,-190,-169,-17,62,-2
5040,-18,-192,-169,-18,65,-2
5045,-15,-191,-167,-20,64,-1
5050,-17,-191,-164,-21,64,-1
5055,-20,-192,-165,-21,65,0
5060,-15,-193,-165,-21,63,0
5065,-18,-194,-169,-21,63,0
5070,-17,-191,-168,-18,65,0
5075,-18,-190,-168,-17,64,0
5080,-14,-196,-172,-16,65,-1
5085,-18,-193,-167,-13,65,-1
5090,-15,-193,-165,-11,67,0
5095,-15,-192,-168,-8,66,0
5100,-20,-194,-168,-7,65,0
5105,-17,-193,-164,-6,68,1
5110,-20,-194,-168,-6,67,1
5115,-17,-192,-168,-4,69,1
5120,-16,-194,-166,-3,69,2
5125,-17,-196,-166,-3,71,2
5130,-16,-195,-167,-4,71,4
5135,-17,-190,-169,-6,72,3
5140,-16,-193,-165,-7,70,2
5145,-15,-195,-167,-6,72,2
5150,-17,-193,-167,-6,71,2
5155,-17,-194,-167,-6,71,2
5160,-14,-191,-165,-5,69,1
5165,-17,-194,-168,-6,70,2
5170,-19,-195,-164,-7,72,3
5175,-16,-195,-168,-6,71,2
5180,-16,-194,-166,-7,71,1
5185,-18,-193,-167,-8,73,0
5190,-18,-194,-166,-8,72,0
5195,-18,-193,-170,-10,71,0
5200,-17,-190,-167,-8,71,0
5205,-16,-193,-170,-10,72,0
5210,-16,-191,-166,-10,72,0
5215,-15,-195,-166,-9,71,1
5220,-16,-193,-167,-8,71,-1
5225,-17,-195,-170,-9,72,-1
5230,-17,-192,-166,-8,72,-1
5235,-19,-194,-165,-9,73,-1
5240,-15,-193,-170,-8,72,-2
5245,-17,-196,-165,-8,73,0
5250,-18,-193,-167,-9,73,-1
5255,-14,-193,-171,-9,75,-1
5260,-19,-195,-168,-10,75,0
5265,-16,-192,-169,-10,74,-1
5270,-19,-194,-166,-11,73,0
5275,-17,-192,-170,-11,73,0
5280,-17,-196,-163,-11,72,-2
5285,-15,-194,-166,-12,72,-1
5290,-17,-195,-166,-11,73,0
5295,-20,-192,-167,-13,73,-1
5300,-18,-192,-167,-13,72,-1
5305,-19,-191,-164,-12,73,-3
5310,-18,-191,-166,-14,73,-1
5315,-15,-194,-166,-14,73,-2
5320,-16,-191,-165,-12,74,-2
5325,-18,-195,-166,-11,74,-3
5330,-18,-193,-167,-9,74,-3
5335,-15,-192,-167,-9,72,-1
5340,-18,-192,-168,-7,73,-2
5345,-17,-193,-165,-8,74,-2
5350,-15,-193,-167,-8,73,-2
5355,-17,-194,-167,-6,72,1
5360,-15,-195,-167,-6,72,0
5365,-19,-194,-168,-3,72,3
5370,-15,-195,-165,-2,72,2
5375,-15,-193,-167,-1,72,2
5380,-18,-193,-170,0,71,1
5385,-18,-190,-165,-1,71,1
5390,-16,-193,-164,-1,70,0
5395,-16,-191,-166,-1,69,0
5400,-14,-192,-164,-2,71,-1
5405,-16,-194,-166,-3,71,-1
5410,-17,-192,-168,-4,72,-3
5415,-15,-194,-167,-4,72,-1
5420,-14,-193,-166,-5,72,-3
5425,-14,-194,-168,-6,71,-3
5430,-16,-194,-166,-8,71,-3
5435,-18,-196,-166,-9,74,-4
5440,-19,-193,-165,-9,72,-4
5445,-17,-194,-166,-7,74,-4
5450,-16,-194,-166,-7,74,-5
5455,-18,-196,-167,-3,73,-3
5460,-17,-193,-163,0,72,-4
5465,-15,-193,-165,3,70,-4
5470,-16,-196,-165,4,68,-3
5475,-15,-195,-168,4,68,-3
5480,-14,-193,-166,4,66,-2
5485,-16,-195,-167,2,67,-4
5490,-14,-192,-167,0,66,-5
5495,-16,-195,-165,-3,67,-6
5500,-12,-189,-163,-1,69,-6
5505,-16,-195,-170,-2,69,-9
5510,-18,-194,-167,-1,70,-8
5515,-15,-193,-169,3,70,-9
5520,-15,-193,-168,7,70,-10
5525,-17,-195,-166,9,71,-11
5530,-15,-195,-167,12,71,-10
5535,-18,-195,-166,14,72,-10
5540,-17,-192,-167,14,72,-9
5545,-16,-193,-167,14,72,-7
5550,-18,-195,-164,13,72,-6
5555,-15,-194,-169,13,71,-4
5560,-14,-193,-166,13,72,-4
5565,-16,-195,-166,13,74,-3
5570,-17,-192,-163,12,74,-2
5575,-18,-193,-168,12,73,-3
5580,-17,-196,-169,12,74,-3
5585,-14,-198,-166,12,74,-2
5590,-18,-193,-171,10,75,-1
5595,-18,-198,-165,10,74,-2
5600,-17,-194,-164,9,74,-2
5605,-18,-195,-163,6,74,-4
5610,-12,-191,-166,5,74,-5
5615,-16,-194,-163,3,73,-3
5620,-17,-196,-167,2,73,-2
5625,-12,-197,-165,2,71,-4
5630,-15,-192,-167,3,71,-4
5635,-17,-190,-165,3,71,-4
5640,-14,-191,-165,4,70,-3
5645,-16,-193,-163,3,70,-5
5650,-16,-191,-164,2,70,-6
5655,-18,-193,-164,1,69,-5
5660,-17,-191,-171,-1,69,-6
5665,-14,-193,-163,-4,70,-7
5670,-15,-192,-168,-6,69,-8
5675,-15,-196,-165,-8,69,-7
5680,-19,-195,-166,-10,70,-7
5685,-15,-194,-164,-10,69,-8
5690,-15,-194,-164,-10,70,-10
5695,-14,-194,-165,-10,70,-9
5700,-15,-198,-169,-8,71,-9
5705,-17,-196,-164,-6,70,-11
5710,-16,-197,-166,-5,71,-11
5715,-17,-194,-165,-2,72,-11
5720,-14,-199,-170,0,72,-12
5725,-17,-195,-166,2,72,-12
5730,-15,-194,-166,4,71,-12
5735,-17,-198,-171,5,71,-13
5740,-14,-196,-169,5,71,-12
5745,-17,-194,-164,8,71,-12
5750,-20,-194,-163,10,72,-11
5755,-17,-195,-165,12,72,-9
5760,-15,-199,-164,12,72,-10
5765,-18,-194,-162,13,71,-9
5770,-16,-196,-162,13,70,-7
5775,-17,-196,-165,11,69,-7
5780,-17,-198,-162,7,69,-7
5785,-19,-196,-162,4,70,-7
5790,-19,-196,-161,1,69,-6
5795,-15,-196,-163,-1,69,-6
5800,-18,-195,-161,-3,70,-5
5805,-18,-196,-165,-4,69,-4
5810,-18,-193,-166,-5,70,-5
5815,-15,-196,-164,-5,68,-4
5820,-15,-195,-165,-2,68,-4
5825,-16,-195,-164,0,67,-4
5830,-11,-198,-163,2,68,-4
5835,-11,-197,-166,3,68,-5
5840,-16,-191,-164,6,69,-4
5845,-17,-193,-166,6,68,-4
5850,-15,-195,-166,7,68,-4
5855,-16,-193,-166,6,68,-4
5860,-16,-194,-162,5,70,-2
5865,-16,-192,-166,2,69,-1
5870,-17,-195,-166,0,70,-1
5875,-15,-198,-159,-2,70,-1
5880,-13,-195,-167,-3,70,-1
5885,-17,-192,-162,-5,69,-1
5890,-14,-197,-160,-5,69,1
5895,-15,-195,-160,-5,67,0
5900,-15,-192,-162,-7,67,0
5905,-17,-194,-166,-7,66,0
5910,-17,-195,-163,-8,67,-1
5915,-13,-197,-159,-7,66,-2
5920,-16,-195,-164,-6,65,-4
5925,-18,-196,-162,-5,64,-3
5930,-17,-195,-164,-6,65,-1
5935,-15,-196,-165,-7,64,-2
5940,-18,-195,-166,-7,65,-3
5945,-18,-194,-170,-8,65,-3
5950,-14,-196,-164,-9,64,-3
5955,-15,-198,-163,-9,66,-2
5960,-16,-197,-166,-10,66,-3
5965,-17,-196,-162,-10,66,-2
5970,-16,-196,-164,-11,66,-3
5975,-15,-193,-163,-10,66,-3
5980,-16,-195,-161,-10,67,-4
5985,-14,-197,-163,-10,68,-4
5990,-14,-193,-166,-9,68,-4
5995,-17,-193,-163,-7,66,-5
6000,-17,-192,-162,-9,67,-4
6005,-17,-195,-167,-8,67,-4
6010,-15,-198,-161,-7,67,-3
6015,-17,-195,-168,-6,67,-4
6020,-17,-195,-164,-6,66,-5
6025,-17,-196,-164,-6,66,-4
6030,-20,-194,-167,-8,65,-4
6035,-18,-197,-164,-8,65,-4
6040,-17,-197,-165,-8,67,-3
6045,-16,-198,-163,-9,67,-2
6050,-15,-195,-168,-8,67,-3
6055,-16,-195,-165,-8,68,-3
6060,-19,-195,-168,-8,68,-2
6065,-15,-195,-164,-8,68,-3
6070,-16,-194,-161,-8,70,-3
6075,-18,-193,-164,-8,69,-3
6080,-17,-196,-163,-7,69,-1
6085,-16,-198,-164,-5,69,-1
6090,-14,-197,-163,-3,70,0
6095,-16,-195,-162,-1,70,0
6100,-19,-195,-163,-1,70,-1
6105,-14,-197,-161,1,70,1
6110,-15,-197,-161,2,72,0
6115,-15,-194,-161,2,72,-1
6120,-16,-193,-161,4,71,0
6125,-17,-199,-164,7,72,-1
6130,-17,-196,-163,9,71,-2
6135,-17,-196,-164,9,69,-3
6140,-15,-194,-164,8,69,-2
6145,-14,-199,-164,8,68,-1
6150,-14,-196,-166,7,68,-1
6155,-14,-196,-162,5,67,-3
6160,-13,-196,-159,3,67,-2
6165,-17,-192,-166,1,67,-2
6170,-17,-197,-163,-3,67,-1
6175,-17,-197,-163,-5,67,0
6180,-17,-198,-165,-7,69,1
6185,-17,-197,-162,-8,69,-1
6190,-13,-198,-164,-9,70,0
6195,-17,-195,-163,-7,70,-1
6200,-17,-199,-164,-4,71,-2
6205,-19,-191,-166,-3,71,-1
6210,-15,-192,-164,-2,70,-2
6215,-14,-192,-165,0,70,-3
6220,-16,-196,-160,-1,68,-2
6225,-18,-194,-163,-1,66,-1
6230,-14,-194,-165,-5,66,-4
6235,-14,-195,-168,-9,65,-4
6240,-14,-196,-165,-11,64,-5
6245,-13,-195,-167,-13,64,-7
6250,-17,-195,-166,-14,64,-8
6255,-16,-196,-166,-13,65,-9
6260,-17,-194,-165,-10,66,-10
6265,-17,-196,-166,-8,66,-10
6270,-18,-193,-165,-6,67,-10
6275,-16,-195,-167,-5,68,-11
6280,-18,-195,-164,-4,69,-8
6285,-14,-195,-166,-4,71,-7
6290,-17,-198,-162,-4,72,-4
6295,-18,-198,-162,-4,72,-2
6300,-18,-194,-161,-3,74,-1
6305,-18,-199,-167,-4,76,1
6310,-15,-198,-163,-3,75,2
6315,-16,-198,-164,-2,77,3
6320,-14,-198,-165,-1,75,2
6325,-17,-197,-166,2,73,4
6330,-18,-198,-160,5,73,2
6335,-19,-197,-162,6,69,2
6340,-16,-192,-164,7,68,2
6345,-16,-196,-163,8,66,1
6350,-14,-196,-160,9,66,1
6355,-14,-198,-163,8,64,0
6360,-18,-196,-162,10,65,-1
6365,-16,-202,-165,9,66,-2
6370,-15,-197,-162,7,66,-1
6375,-16,-193,-163,7,65,-1
6380,-15,-196,-163,8,67,1
6385,-18,-195,-163,5,69,0
6390,-17,-197,-160,5,67,1
6395,-16,-196,-160,6,68,1
6400,-14,-196,-163,6,69,1
6405,-16,-195,-164,5,70,0
6410,-16,-196,-161,3,71,0
6415,-18,-193,-167,3,71,2
6420,-18,-196,-164,2,71,0
6425,-16,-196,-167,1,70,0
6430,-15,-195,-163,1,71,1
6435,-15,-194,-163,2,70,-1
6440,-17,-197,-168,2,68,-2
6445,-15,-197,-165,5,66,-2
6450,-14,-197,-170,8,67,-2
6455,-16,-198,-168,10,64,-3
6460,-14,-197,-164,15,60,-4
6465,-16,-197,-166,23,58,-5
6470,-10,-199,-166,30,54,-10
6475,-11,-198,-167,36,49,-16
6480,-10,-200,-171,39,41,-27
6485,-6,-204,-171,42,29,-40
6490,-2,-211,-170,45,18,-59
6495,-6,-207,-172,44,9,-77
6500,-2,-206,-180,30,7,-97
6505,-6,-206,-180,-5,7,-122
6510,-3,-210,-183,-52,14,-155
6515,-1,-212,-191,-105,32,-196
6520,0,-211,-194,-162,65,-242
6525,1,-208,-204,-229,103,-284
6530,2,-206,-208,-313,145,-316
6535,2,-204,-211,-416,195,-338
6540,0,-204,-212,-532,248,-350
6545,-4,-201,-207,-639,298,-338
6550,-5,-191,-196,-717,346,-302
6555,-10,-182,-187,-755,388,-237
6560,-15,-170,-174,-758,430,-138
6565,-24,-162,-173,-747,487,-10
6570,-38,-157,-170,-729,560,134
6575,-40,-160,-158,-699,629,270
6580,-39,-165,-149,-642,660,360
6585,-38,-164,-146,-557,646,404
6590,-35,-169,-140,-445,592,417
6595,-32,-173,-133,-318,501,396
6600,-25,-182,-131,-193,378,344
6605,-15,-192,-122,-87,253,266
6610,-12,-198,-117,-15,139,166
6615,-11,-195,-109,-2,38,52
6620,-15,-184,-109,-60,-47,-56
6625,-20,-170,-105,-177,-112,-131
6630,-24,-158,-102,-328,-156,-170
6635,-31,-146,-105,-497,-177,-184
6640,-31,-140,-109,-665,-175,-186
6645,-30,-136,-111,-817,-143,-176
6650,-23,-137,-114,-952,-91,-151
6655,-12,-137,-123,-1073,-37,-116
6660,-4,-144,-130,-1179,11,-82
6665,2,-148,-139,-1270,42,-50
6670,9,-159,-146,-1350,59,-26
6675,12,-170,-152,-1421,70,-9
6680,13,-180,-157,-1486,75,5
6685,12,-186,-159,-1551,76,14
6690,9,-191,-160,-1609,79,20
6695,6,-194,-167,-1664,81,16
6700,12,-202,-167,-1708,87,10
6705,0,-194,-170,-1739,95,2
6710,-3,-190,-173,-1757,105,-1
6715,-6,-190,-175,-1757,112,-1
6720,-10,-188,-174,-1748,117,5
6725,-10,-183,-174,-1733,122,17
6730,-14,-177,-175,-1714,122,32
6735,-19,-174,-174,-1693,124,50
6740,-21,-172,-174,-1664,123,72
6745,-17,-169,-171,-1629,118,92
6750,-25,-167,-176,-1602,110,104
6755,-18,-162,-184,-1581,100,104
6760,-22,-158,-193,-1551,100,112
6765,-19,-153,-197,-1529,104,111
6770,-23,-153,-202,-1527,111,104
6775,-18,-149,-206,-1568,117,79
6780,-16,-140,-210,-1633,135,60
6785,-19,-138,-212,-1707,161,51
6790,-24,-138,-217,-1788,191,57
6795,-26,-133,-221,-1877,218,76
6800,-26,-141,-229,-1976,239,99
6805,-15,-148,-221,-2084,254,115
6810,-24,-161,-222,-2201,254,116
6815,-26,-172,-213,-2314,241,102
6820,-24,-177,-210,-2402,224,84
6825,-17,-181,-209,-2457,206,63
6830,-13,-174,-213,-2496,182,39
6835,-10,-155,-216,-2522,158,22
6840,-2,-124,-215,-2538,141,21
6845,11,-89,-221,-2525,151,41
6850,17,-43,-221,-2476,204,68
6855,23,-27,-227,-2381,277,99
6860,23,-19,-230,-2270,358,116
6865,16,-24,-228,-2142,425,135
6870,6,-34,-225,-2010,446,162
6875,3,-44,-231,-1845,444,202
6880,-9,-52,-247,-1665,456,264
6885,-15,-53,-271,-1507,446,322
6890,-21,-46,-284,-1421,418,369
6895,-26,-35,-301,-1416,368,395
6900,-14,-26,-325,-1486,294,373
6905,-2,-23,-345,-1588,233,329
6910,2,-25,-367,-1672,207,287
6915,5,-24,-373,-1750,198,257
6920,4,-33,-387,-1759,196,177
6925,3,-39,-381,-1729,188,107
6930,1,-45,-387,-1690,186,66
6935,11,-47,-389,-1664,191,53
6940,1,-42,-390,-1666,222,88
6945,1,-50,-393,-1634,236,79
6950,0,-61,-396,-1585,236,51
6955,4,-67,-393,-1551,212,-2
6960,8,-67,-396,-1496,178,-52
6965,3,-64,-393,-1415,157,-82
6970,1,-63,-388,-1313,142,-99
6975,-1,-61,-381,-1210,134,-110
6980,-1,-60,-376,-1112,128,-121
6985,-7,-59,-365,-1021,136,-124
6990,0,-62,-360,-938,137,-129
6995,-4,-54,-352,-859,140,-137
7000,-1,-53,-349,-782,135,-154
7005,5,-51,-345,-704,123,-178
7010,1,-42,-344,-630,105,-205
7015,2,-35,-341,-557,82,-229
7020,7,-31,-336,-501,75,-252
7025,5,-24,-330,-463,70,-267
7030,5,-16,-327,-432,70,-274
7035,5,-14,-324,-418,70,-277
7040,0,-14,-317,-407,64,-276
7045,2,-14,-314,-400,47,-273
7050,4,-8,-312,-394,30,-268
7055,5,-5,-310,-384,14,-259
7060,5,-8,-310,-361,-3,-246
7065,9,-8,-306,-324,-23,-233
7070,9,-11,-304,-278,-34,-226
7075,7,-13,-299,-225,-42,-220
7080,7,-11,-306,-168,-46,-216
7085,6,-13,-299,-111,-46,-212
7090,3,-12,-302,-49,-34,-205
7095,2,-14,-294,20,-23,-193
7100,3,-14,-292,94,-18,-188
7105,6,-18,-291,167,-12,-187
7110,3,-10,-300,234,-3,-195
7115,3,-13,-299,294,13,-201
7120,3,-12,-293,354,36,-201
7125,1,-7,-296,413,52,-195
7130,-5,-8,-298,456,64,-187
7135,-5,-1,-299,468,63,-173
7140,-5,-3,-300,450,42,-163
7145,-9,-3,-294,412,8,-154
7150,-5,-13,-292,360,-38,-140
7155,-3,-13,-284,326,-87,-134
7160,-2,-16,-289,314,-144,-128
7165,0,-24,-289,320,-194,-125
7170,0,-20,-289,347,-223,-122
7175,-6,-17,-293,398,-229,-107
7180,-6,-17,-292,469,-227,-88
7185,-8,-16,-291,549,-208,-65
7190,-9,-17,-294,631,-174,-37
7195,-6,-19,-296,703,-128,-16
7200,-7,-23,-293,761,-73,13
7205,0,-26,-291,810,-19,34
7210,0,-33,-285,859,29,49
7215,2,-37,-279,916,70,59
7220,5,-41,-279,963,113,62
7225,3,-43,-279,997,145,67
7230,3,-38,-278,1013,166,71
7235,0,-40,-275,1021,170,79
7240,2,-42,-276,1016,168,89
7245,0,-40,-270,1001,167,97
7250,-2,-42,-270,983,162,108
7255,-3,-45,-266,965,145,121
7260,-1,-47,-262,935,123,119
7265,-3,-52,-257,899,105,115
7270,-2,-51,-253,867,89,120
7275,-2,-49,-253,853,80,133
7280,-7,-51,-245,855,82,154
7285,-8,-49,-244,867,99,160
7290,-12,-49,-246,892,123,168
7295,-11,-46,-242,925,151,187
7300,-12,-48,-233,968,175,214
7305,-14,-54,-240,1007,195,237
7310,-17,-55,-237,1042,215,246
7315,-12,-56,-232,1077,229,252
7320,-13,-65,-233,1108,236,265
7325,-10,-72,-235,1137,240,272
7330,-7,-76,-232,1196,246,276
7335,-10,-87,-230,1223,229,263
7340,-7,-92,-234,1244,215,243
7345,0,-98,-234,1266,193,234
7350,-2,-105,-232,1293,178,220
7355,0,-111,-240,1313,163,197
7360,3,-115,-238,1331,145,172
7365,3,-119,-241,1341,128,156
7370,7,-124,-239,1347,116,143
7375,10,-131,-240,1349,106,128
7380,11,-132,-246,1339,98,106
7385,10,-133,-238,1327,94,75
7390,8,-138,-234,1307,96,43
7395,5,-140,-230,1289,102,15
7400,6,-138,-229,1271,108,-2
7405,10,-144,-224,1260,117,-8
7410,5,-144,-224,1254,124,-11
7415,3,-144,-219,1257,137,-20
7420,5,-147,-213,1265,153,-33
7425,2,-144,-212,1289,162,-39
7430,4,-143,-210,1321,160,-29
7435,7,-141,-209,1359,154,-10
7440,6,-139,-205,1404,152,11
7445,6,-137,-206,1458,154,34
7450,4,-134,-200,1514,156,67
7455,5,-134,-200,1571,159,115
7460,4,-131,-195,1621,159,150
7465,4,-130,-188,1667,167,174
7470,5,-128,-187,1713,169,198
7475,7,-128,-178,1754,169,221
7480,5,-122,-175,1795,167,241
7485,5,-124,-175,1829,168,266
7490,5,-112,-170,1854,174,294
7495,8,-115,-166,1878,186,328
7500,4,-117,-161,1890,198,336
7505,3,-113,-159,1888,214,342
7510,2,-112,-154,1873,229,355
7515,1,-114,-150,1858,241,362
7520,1,-117,-149,1842,253,367
7525,0,-119,-143,1831,264,370
7530,0,-118,-139,1832,277,377
7535,-3,-120,-137,1840,289,381
7540,-7,-122,-137,1848,300,362
7545,-10,-115,-131,1855,314,344
7550,-9,-118,-134,1861,331,343
7555,-11,-111,-135,1865,356,335
7560,-9,-110,-137,1863,384,329
7565,-8,-110,-136,1856,414,317
7570,-7,-106,-140,1842,444,302
7575,-11,-102,-138,1823,470,283
7580,-5,-106,-135,1796,491,263
7585,-5,-103,-137,1769,503,240
7590,-6,-99,-136,1743,509,214
7595,-10,-101,-132,1724,504,185
7600,-16,-102,-135,1715,492,150
7605,-17,-93,-130,1704,475,142
7610,-14,-103,-134,1698,451,166
7615,-18,-97,-136,1690,424,171
7620,-27,-94,-137,1679,394,160
7625,-27,-96,-140,1649,362,148
7630,-34,-92,-136,1607,326,135
7635,-34,-96,-135,1564,290,122
7640,-34,-96,-138,1528,256,112
7645,-35,-96,-134,1500,226,105
7650,-37,-98,-138,1460,202,102
7655,-45,-101,-134,1418,183,106
7660,-43,-106,-139,1369,170,113
7665,-46,-107,-136,1311,163,117
7670,-46,-112,-142,1249,159,118
7675,-45,-113,-142,1171,160,112
7680,-40,-120,-146,1093,166,99
7685,-42,-117,-145,1009,177,87
7690,-32,-127,-152,935,195,86
7695,-33,-131,-152,851,216,61
7700,-27,-137,-151,770,238,27
7705,-20,-146,-151,699,252,-3
7710,-11,-152,-151,641,263,-30
7715,-4,-161,-153,589,269,-50
7720,0,-166,-158,545,266,-65
7725,6,-172,-161,510,261,-76
7730,11,-178,-166,479,247,-83
7735,18,-181,-164,451,229,-86
7740,25,-185,-169,427,210,-87
7745,27,-190,-169,409,194,-86
7750,30,-191,-171,401,179,-88
7755,33,-198,-167,398,166,-89
7760,37,-198,-165,404,154,-84
7765,35,-205,-166,417,143,-78
7770,34,-205,-162,437,130,-75
7775,33,-210,-160,462,117,-68
7780,26,-206,-157,491,106,-65
7785,28,-211,-152,520,101,-66
7790,24,-211,-151,535,97,-47
7795,20,-208,-150,544,102,-29
7800,14,-208,-148,549,112,-14
7805,10,-207,-148,549,124,-2
7810,7,-203,-147,544,136,10
7815,3,-201,-142,539,145,22
7820,1,-204,-136,530,155,33
7825,0,-202,-140,523,159,44
7830,-1,-200,-138,513,158,53
7835,-2,-200,-140,501,157,61
7840,-1,-200,-142,488,153,69
7845,-5,-198,-140,471,146,77
7850,-5,-196,-134,453,139,85
7855,-7,-200,-137,434,131,93
7860,-7,-203,-135,416,126,102
7865,-4,-203,-135,394,120,109
7870,-2,-204,-131,375,116,116
7875,-3,-206,-133,353,113,117
7880,-3,-208,-128,334,112,119
7885,0,-208,-130,318,109,117
7890,-2,-213,-132,303,107,114
7895,-2,-210,-131,292,104,115
7900,2,-215,-130,282,100,113
7905,-2,-216,-128,278,96,109
7910,-1,-213,-132,272,91,107
7915,0,-219,-129,268,87,104
7920,0,-216,-131,261,86,103
7925,-2,-216,-131,255,87,103
7930,-2,-217,-128,246,87,100
7935,-5,-214,-129,237,88,97
7940,0,-217,-128,225,88,93
7945,-3,-214,-129,211,91,89
7950,0,-216,-131,197,92,85
7955,-2,-217,-126,183,94,83
7960,0,-221,-124,174,95,80
7965,-1,-218,-126,162,95,77
7970,-1,-219,-126,151,95,73
7975,1,-218,-128,143,95,71
7980,0,-220,-125,138,94,66
7985,0,-215,-123,133,93,65
7990,0,-222,-129,129,93,62
7995,1,-220,-124,124,93,60
8000,1,-218,-122,120,93,59
8005,0,-221,-123,115,93,56
8010,0,-220,-122,108,93,53
8015,1,-219,-125,101,93,49
8020,2,-221,-121,88,90,44
8025,2,-219,-117,77,87,37
8030,0,-220,-122,63,85,31
8035,-2,-217,-122,49,79,26
8040,0,-220,-121,33,72,19
8045,0,-219,-119,16,65,13
8050,-2,-216,-123,3,58,8
8055,-2,-218,-123,-7,52,2
8060,-3,-219,-123,-19,45,-3
8065,-3,-219,-122,-30,40,-9
8070,-6,-217,-118,-42,35,-12
8075,-9,-216,-119,-53,29,-17
8080,-6,-216,-124,-66,23,-20
8085,-8,-219,-122,-77,16,-24
8090,-1,-222,-121,-87,11,-26
8095,-8,-219,-113,-94,7,-28
8100,-5,-220,-127,-101,1,-32
8105,-3,-221,-120,-106,-3,-36
8110,-4,-223,-124,-109,-7,-37
8115,-4,-225,-121,-110,-11,-42
8120,-4,-225,-126,-111,-15,-45
8125,-5,-226,-123,-111,-19,-48
8130,-1,-228,-125,-108,-24,-50
8135,-2,-228,-125,-105,-29,-53
8140,-1,-227,-125,-101,-33,-54
8145,0,-227,-127,-97,-38,-56
8150,0,-230,-122,-91,-42,-58
8155,1,-231,-123,-85,-44,-60
8160,2,-230,-125,-80,-45,-60
8165,2,-229,-126,-73,-46,-60
8170,3,-233,-122,-65,-48,-61
8175,4,-231,-121,-59,-48,-59
8180,3,-229,-125,-54,-49,-57
8185,2,-227,-124,-50,-49,-55
8190,8,-228,-127,-48,-47,-54
8195,4,-226,-126,-48,-41,-50
8200,5,-226,-125,-49,-39,-49
8205,11,-228,-117,-50,-35,-47
8210,8,-225,-124,-51,-30,-44
8215,6,-222,-127,-52,-25,-42
8220,7,-222,-126,-55,-20,-41
8225,6,-222,-125,-60,-15,-41
8230,9,-224,-120,-63,-11,-37
8235,11,-222,-124,-67,-6,-36
8240,7,-223,-122,-73,-2,-34
8245,8,-223,-120,-79,3,-32
8250,6,-222,-124,-86,7,-31
8255,5,-224,-124,-92,12,-27
8260,7,-225,-126,-100,15,-25
8265,8,-227,-124,-107,17,-22
8270,9,-229,-124,-113,19,-20
8275,2,-226,-126,-117,23,-18
8280,6,-227,-123,-120,24,-16
8285,5,-230,-124,-119,27,-14
8290,5,-230,-126,-114,29,-13
8295,5,-229,-125,-107,33,-12
8300,5,-232,-120,-100,36,-10
8305,5,-230,-121,-91,39,-8
8310,4,-230,-118,-86,40,-6
8315,5,-231,-119,-83,43,-3
8320,5,-230,-117,-80,44,0
8325,4,-232,-120,-80,46,1
8330,6,-230,-120,-80,48,3
8335,6,-228,-118,-81,52,6
8340,4,-229,-123,-83,55,7
8345,4,-229,-119,-85,57,10
8350,2,-227,-121,-88,61,12
8355,3,-230,-119,-90,63,12
8360,4,-229,-122,-91,66,12
8365,4,-223,-125,-92,67,15
8370,1,-227,-120,-93,66,15
8375,2,-229,-125,-94,64,15
8380,1,-224,-126,-95,63,17
8385,1,-225,-125,-98,62,19
8390,2,-227,-128,-101,62,20
8395,0,-226,-126,-105,61,21
8400,0,-225,-126,-108,59,25
8405,0,-225,-128,-113,58,27
8410,2,-228,-128,-114,57,29
8415,1,-227,-128,-115,58,31
8420,-4,-230,-125,-112,61,35
8425,-1,-230,-130,-107,63,36
8430,-1,-227,-124,-100,67,38
8435,1,-230,-126,-93,69,36
8440,1,-230,-125,-87,71,38
8445,-1,-226,-125,-82,73,37
8450,1,-228,-124,-78,75,38
8455,-2,-227,-123,-76,77,39
8460,1,-230,-125,-76,78,38
8465,3,-225,-125,-77,80,37
8470,0,-226,-121,-75,84,40
8475,1,-225,-126,-76,86,42
8480,1,-228,-124,-76,88,42
8485,0,-229,-126,-73,93,40
8490,-2,-225,-129,-72,95,41
8495,0,-227,-128,-71,95,42
8500,-1,-226,-129,-69,98,43
8505,1,-225,-129,-68,100,40
8510,0,-222,-127,-67,100,39
8515,0,-226,-127,-66,101,39
8520,-2,-223,-129,-67,102,41
8525,0,-224,-129,-67,103,41
8530,-1,-225,-128,-66,104,41
8535,-6,-223,-133,-64,105,42
8540,-5,-225,-124,-61,106,43
8545,-3,-228,-129,-59,107,46
8550,-3,-223,-130,-57,107,49
8555,0,-225,-126,-54,107,50
8560,-4,-225,-128,-51,107,51
8565,-5,-225,-126,-49,108,53
8570,-2,-225,-127,-45,108,51
8575,-2,-224,-127,-46,109,50
8580,-5,-223,-128,-47,110,49
8585,-3,-224,-127,-46,111,49
8590,-3,-225,-129,-48,113,47
8595,-3,-222,-127,-49,116,46
8600,-1,-223,-130,-53,118,45
8605,-3,-219,-129,-54,121,43
8610,-4,-223,-129,-58,123,40
8615,-3,-222,-132,-60,125,39
8620,-3,-220,-128,-61,126,38
8625,-3,-222,-135,-62,128,36
8630,-3,-222,-132,-64,128,34
8635,-4,-223,-131,-65,126,32
8640,-2,-219,-130,-66,122,30
8645,-4,-221,-131,-67,119,29
8650,-9,-221,-134,-67,116,28
8655,-5,-223,-130,-69,111,27
8660,-5,-224,-129,-72,107,25
8665,-8,-221,-130,-73,101,24
8670,-7,-221,-131,-73,98,22
8675,-8,-219,-129,-74,95,20
8680,-6,-222,-128,-73,91,19
8685,-8,-223,-130,-71,90,17
8690,-7,-222,-132,-68,88,16
8695,-6,-222,-131,-67,86,15
8700,-11,-221,-129,-64,84,13
8705,-5,-222,-128,-63,82,11
8710,-4,-223,-132,-61,80,9
8715,-8,-221,-128,-60,78,9
8720,-8,-220,-132,-59,76,8
8725,-4,-223,-132,-60,74,7
8730,-6,-221,-132,-60,72,5
8735,-7,-221,-129,-60,69,4
8740,-7,-223,-132,-61,68,1
8745,-7,-222,-130,-62,67,2
8750,-5,-222,-135,-62,65,0
8755,-7,-224,-132,-64,64,-1
8760,-4,-222,-131,-66,62,-2
8765,-6,-222,-134,-68,61,-3
8770,-4,-221,-132,-69,60,-2
8775,-4,-223,-131,-71,58,-6
8780,-5,-223,-134,-70,57,-7
8785,-7,-224,-132,-68,55,-8
8790,-7,-222,-130,-63,53,-9
8795,-2,-226,-132,-59,51,-10
8800,-6,-223,-132,-54,49,-11
8805,-6,-222,-130,-48,47,-13
8810,-6,-222,-133,-44,46,-14
8815,-6,-221,-131,-39,46,-14
8820,-5,-220,-131,-35,46,-15
8825,-6,-221,-133,-33,47,-16
8830,-3,-219,-134,-33,48,-15
8835,-2,-221,-135,-34,47,-14
8840,-3,-221,-134,-36,48,-14
8845,-4,-220,-131,-37,49,-13
8850,-5,-219,-140,-38,50,-15
8855,-4,-221,-131,-37,50,-15
8860,-2,-220,-134,-36,51,-13
8865,-2,-222,-133,-36,52,-14
8870,-1,-222,-132,-34,54,-15
8875,-4,-225,-132,-32,55,-17
8880,-6,-223,-135,-30,56,-16
8885,-2,-222,-133,-27,55,-17
8890,-1,-224,-131,-25,55,-16
8895,-2,-224,-131,-22,56,-17
8900,-3,-222,-132,-18,55,-19
8905,-1,-227,-135,-15,54,-19
8910,-5,-221,-132,-12,53,-21
8915,-3,-223,-131,-8,53,-20
8920,-5,-222,-130,-6,53,-21
8925,-5,-226,-128,-1,53,-20
8930,-2,-223,-127,3,51,-21
8935,-2,-225,-133,4,50,-23
8940,-4,-221,-130,6,51,-22
8945,-4,-224,-130,8,48,-23
8950,-1,-223,-134,8,51,-23
8955,-1,-223,-135,8,53,-23
8960,-3,-221,-131,8,53,-23
8965,-3,-221,-132,9,54,-22
8970,1,-224,-132,8,55,-23
8975,-4,-221,-126,9,54,-22
8980,-1,-222,-133,9,53,-22
8985,-6,-222,-134,9,53,-21
8990,-1,-221,-136,9,54,-19
8995,-2,-221,-137,9,54,-19
9000,-3,-222,-133,9,55,-19
9005,-4,-223,-132,11,57,-17
9010,-2,-220,-133,13,56,-18
9015,-3,-221,-132,15,56,-17
9020,-2,-219,-129,16,57,-16
9025,-2,-221,-129,16,55,-16
9030,-4,-220,-131,17,56,-15
9035,-3,-222,-132,18,56,-15
9040,-5,-224,-131,17,57,-13
9045,-6,-221,-131,18,58,-15
9050,-5,-225,-132,18,57,-13
9055,-1,-222,-129,16,56,-12
9060,0,-221,-134,15,58,-11
9065,-1,-221,-128,12,59,-11
9070,-3,-221,-134,10,57,-10
9075,0,-221,-131,7,57,-10
9080,-3,-213,-139,5,57,-8
9085,0,-220,-130,3,57,-8
9090,-2,-217,-133,2,56,-7
9095,0,-221,-134,0,57,-5
9100,-1,-218,-133,0,58,-6
9105,-3,-222,-130,-1,59,-5
9110,0,-223,-135,0,59,-4
9115,0,-221,-133,-1,61,-3
9120,0,-224,-131,-1,63,-2
9125,0,-222,-135,-1,63,0
9130,-2,-223,-131,-1,66,3
9135,-2,-221,-133,-2,67,5
9140,0,-222,-127,-2,68,6
9145,0,-225,-132,-2,70,7
9150,-1,-223,-131,-2,72,8
9155,1,-221,-129,-3,75,8
9160,-2,-223,-131,-4,78,8
9165,-2,-222,-128,-5,79,7
9170,-2,-225,-131,-3,81,7
9175,-5,-224,-131,-1,85,6
9180,-2,-221,-130,-1,87,5
9185,-2,-214,-132,0,90,4
9190,-1,-222,-132,-2,93,2
9195,0,-221,-127,-5,95,1
9200,0,-218,-130,-10,94,2
9205,1,-223,-124,-14,96,2
9210,1,-222,-131,-20,96,4
9215,0,-221,-132,-25,98,3
9220,0,-219,-129,-31,98,4
9225,0,-222,-130,-36,99,5
9230,2,-224,-129,-39,98,4
9235,-1,-220,-128,-43,99,5
9240,-1,-221,-133,-43,99,7
9245,-3,-225,-133,-41,99,6
9250,-5,-224,-133,-40,98,8
9255,-3,-223,-132,-39,96,9
9260,-8,-222,-134,-38,94,10
9265,-8,-224,-129,-36,91,10
9270,-6,-224,-129,-34,89,10
9275,-10,-225,-129,-32,88,11
9280,-10,-226,-130,-30,87,10
9285,-10,-221,-128,-29,84,9
9290,-11,-225,-128,-25,82,10
9295,-10,-228,-130,-21,77,11
9300,-8,-224,-133,-19,73,10
9305,-9,-220,-129,-16,69,8
9310,-10,-221,-129,-17,65,8
9315,-8,-224,-127,-17,60,7
9320,-7,-223,-130,-19,54,7
9325,-8,-221,-134,-21,52,6
9330,-6,-222,-128,-22,50,9
9335,-6,-219,-129,-24,47,9
9340,-8,-222,-128,-27,47,8
9345,-6,-223,-129,-30,45,9
9350,-2,-223,-132,-32,44,8
9355,-2,-223,-128,-33,43,7
9360,-6,-222,-132,-34,44,6
9365,-5,-220,-130,-34,46,6
9370,-7,-220,-134,-35,47,5
9375,-3,-223,-129,-34,48,3
9380,-4,-225,-133,-33,49,2
9385,-6,-226,-131,-30,52,0
9390,-5,-226,-127,-25,52,-1
9395,-7,-224,-132,-23,54,-2
9400,-5,-225,-128,-21,54,-2
9405,-7,-225,-131,-21,56,-4
9410,-4,-224,-131,-21,57,-3
9415,-5,-224,-130,-19,59,-4
9420,-4,-225,-130,-18,61,-3
9425,-5,-224,-130,-16,63,-4
9430,-3,-223,-129,-16,64,-4
9435,-2,-222,-131,-17,66,-4
9440,-7,-219,-130,-17,67,-4
9445,-6,-222,-130,-17,67,-5
9450,-3,-226,-130,-20,66,-5
9455,-6,-220,-129,-22,65,-5
9460,-5,-220,-124,-26,65,-5
9465,-3,-221,-131,-30,66,-5
9470,-3,-223,-125,-34,65,-3
9475,-6,-221,-127,-37,65,-2
9480,-4,-223,-132,-39,65,-2
9485,-7,-218,-128,-42,64,-1
9490,-7,-222,-129,-44,64,-1
9495,-3,-221,-130,-44,63,0
9500,-5,-224,-129,-44,64,-2
9505,-6,-224,-131,-43,61,-3
9510,-8,-220,-133,-40,62,-3
9515,-9,-222,-129,-38,60,-3
9520,-7,-221,-130,-35,59,-3
9525,-7,-221,-132,-33,56,-2
9530,-5,-223,-129,-33,54,-3
9535,-8,-219,-132,-34,51,-3
9540,-8,-223,-136,-33,51,-3
9545,-7,-220,-130,-34,48,-3
9550,-8,-222,-132,-34,47,-2
9555,-6,-224,-132,-36,45,-1
9560,-10,-222,-131,-40,45,-2
9565,-7,-220,-130,-42,44,-1
9570,-7,-218,-132,-43,44,-2
9575,-5,-222,-132,-44,44,-2
9580,-3,-223,-132,-43,46,-3
9585,-4,-221,-131,-42,46,-5
9590,-4,-224,-136,-40,47,-6
9595,-4,-220,-133,-39,47,-6
9600,-5,-222,-132,-37,47,-7
9605,-4,-222,-134,-35,47,-8
9610,-8,-220,-135,-33,46,-9
9615,-5,-223,-134,-31,47,-8
9620,-3,-220,-126,-28,49,-9
9625,1,-224,-133,-27,49,-8
9630,-4,-219,-133,-25,49,-9
9635,-6,-221,-131,-26,51,-10
9640,-3,-218,-129,-27,52,-10
9645,-3,-221,-132,-29,54,-11
9650,-1,-222,-130,-30,53,-11
9655,0,-220,-136,-33,56,-12
9660,-5,-219,-131,-36,58,-13
9665,-2,-223,-133,-38,60,-14
9670,0,-219,-131,-40,61,-15
9675,-1,-219,-135,-41,64,-16
9680,-1,-220,-134,-42,64,-17
9685,-2,-221,-132,-43,67,-17
9690,0,-221,-134,-42,68,-18
9695,0,-219,-133,-40,68,-20
9700,-4,-222,-138,-41,71,-19
9705,-3,-219,-136,-39,73,-19
9710,-2,-218,-132,-37,74,-19
9715,-2,-217,-135,-36,74,-18
9720,-1,-218,-134,-34,76,-18
9725,0,-220,-139,-32,75,-17
9730,-1,-221,-134,-30,77,-17
9735,-3,-219,-134,-29,78,-17
9740,-1,-219,-133,-28,78,-17
9745,-3,-219,-134,-28,76,-17
9750,-5,-219,-129,-29,76,-17
9755,-4,-218,-132,-29,77,-15
9760,-3,-218,-134,-29,76,-16
9765,-2,-222,-133,-29,77,-17
9770,-2,-218,-134,-29,76,-16
9775,-1,-220,-132,-32,77,-16
9780,0,-221,-132,-33,78,-14
9785,0,-219,-134,-34,78,-14
9790,-3,-218,-135,-36,79,-13
9795,-1,-219,-133,-38,81,-11
9800,-4,-217,-133,-39,82,-10
9805,0,-219,-135,-40,82,-12
9810,-4,-219,-133,-41,83,-11
9815,-3,-218,-131,-43,83,-10
9820,0,-222,-134,-43,83,-12
9825,-1,-219,-134,-44,84,-9
9830,0,-223,-130,-43,84,-9
9835,0,-220,-131,-41,84,-9
9840,-1,-219,-132,-40,83,-8
9845,-2,-219,-134,-37,82,-6
9850,-5,-220,-135,-37,83,-5
9855,-3,-223,-135,-34,85,-5
9860,-2,-220,-133,-34,85,-4
9865,0,-222,-136,-32,86,-6
9870,-3,-220,-133,-30,86,-4
9875,-3,-222,-133,-27,86,-4
9880,-5,-222,-134,-26,89,-3
9885,-3,-218,-134,-24,89,-3
9890,-6,-221,-135,-22,90,-4
9895,-6,-216,-131,-21,90,-3
9900,-2,-219,-134,-21,89,-5
9905,-7,-217,-129,-25,87,-4
9910,-1,-219,-134,-30,87,-4
9915,-4,-216,-134,-33,85,-3
9920,-2,-218,-129,-36,83,-2
9925,-2,-221,-133,-40,82,-5
9930,-2,-221,-131,-43,82,-4
9935,-2,-219,-134,-46,82,-2
9940,-3,-219,-131,-47,81,-2
9945,-1,-219,-136,-47,80,-3
9950,2,-220,-130,-46,80,-4
9955,-1,-220,-136,-45,79,-5
9960,-6,-222,-135,-45,78,-7
9965,-4,-221,-135,-44,77,-7
9970,-8,-223,-136,-41,78,-10
9975,-6,-220,-136,-40,79,-10
9980,-4,-221,-136,-38,79,-10
9985,-7,-219,-133,-36,77,-10
9990,-6,-222,-135,-32,78,-9
9995,-4,-223,-133,-30,77,-9
10000,-6,-219,-135,-27,76,-7
10005,-6,-217,-135,-24,77,-8
10010,-7,-218,-133,-23,77,-8
10015,-5,-219,-135,-23,75,-8
10020,-4,-222,-137,-22,73,-6
10025,-3,-220,-135,-21,72,-5
10030,-2,-221,-137,-21,70,-5
10035,-4,-222,-136,-22,69,-6
10040,-3,-220,-135,-21,71,-8
10045,-3,-218,-132,-21,71,-8
10050,-2,-218,-135,-22,71,-9
10055,-5,-218,-137,-22,71,-9
10060,-4,-224,-138,-22,72,-11
10065,-3,-221,-136,-22,71,-11
10070,-5,-220,-134,-23,72,-10
10075,-4,-221,-134,-24,72,-9
10080,-1,-218,-137,-23,72,-10
10085,-2,-218,-132,-23,72,-10
10090,-2,-220,-137,-23,73,-12
10095,-5,-220,-138,-23,74,-12
10100,-3,-218,-133,-24,74,-14
10105,-6,-219,-136,-21,74,-12
10110,-1,-222,-136,-20,73,-14
10115,-3,-222,-133,-19,73,-13
10120,-4,-220,-134,-20,74,-13
10125,-2,-217,-134,-21,73,-13
10130,-1,-218,-138,-23,74,-14
10135,-2,-218,-136,-24,73,-13
10140,-1,-221,-137,-27,74,-11
10145,-2,-220,-136,-29,73,-10
10150,-2,-220,-139,-30,74,-10
10155,-3,-219,-134,-31,73,-11
10160,-1,-221,-135,-31,72,-11
10165,-4,-212,-135,-30,71,-10
10170,-1,-217,-137,-29,70,-10
10175,-2,-220,-137,-27,69,-9
10180,-3,-218,-140,-24,66,-9
10185,-2,-219,-135,-21,66,-7
10190,-2,-220,-133,-19,66,-8
10195,-3,-217,-139,-17,64,-8
10200,0,-219,-139,-15,63,-7
10205,-2,-219,-140,-14,64,-6
10210,-8,-218,-139,-14,64,-5
10215,-1,-220,-135,-13,65,-5
10220,0,-219,-137,-13,66,-4
10225,-3,-219,-136,-13,66,-4
10230,-7,-216,-135,-15,68,-4
10235,-4,-218,-135,-16,66,-3
10240,-2,-216,-133,-18,65,-4
10245,-1,-218,-139,-19,66,-5
10250,-2,-219,-135,-21,65,-6
10255,-1,-217,-138,-23,64,-7
10260,-3,-218,-139,-24,64,-8
10265,0,-221,-141,-24,64,-6
10270,0,-218,-136,-26,63,-4
10275,1,-216,-142,-26,64,-7
10280,-4,-219,-137,-27,66,-6
10285,-2,-218,-139,-27,68,-5
10290,-2,-217,-136,-30,70,-4
10295,-5,-219,-134,-28,70,-2
10300,0,-220,-138,-27,73,-1
10305,-1,-218,-134,-26,73,-2
10310,0,-223,-135,-24,75,0
10315,-2,-220,-140,-23,76,2
10320,-1,-216,-133,-22,77,1
10325,-4,-219,-134,-20,77,2
10330,-4,-218,-134,-21,78,2
10335,-5,-220,-137,-22,77,1
10340,-1,-218,-135,-24,77,0
10345,-6,-218,-137,-24,78,-2
10350,-5,-222,-133,-23,77,-1
10355,-2,-220,-133,-23,77,-1
10360,-3,-221,-134,-22,77,-2
10365,0,-221,-137,-22,76,-4
10370,-1,-218,-137,-20,76,-3
10375,-1,-220,-135,-19,75,-2
10380,-3,-216,-134,-17,74,-3
10385,-9,-223,-138,-16,74,-2
10390,-1,-220,-138,-15,75,-1
10395,-1,-223,-138,-16,77,-1
10400,-3,-218,-139,-16,77,-1
10405,-1,-220,-135,-17,76,-1
10410,-1,-220,-137,-17,76,-1
10415,-1,-217,-138,-17,78,0
10420,-2,-220,-135,-18,79,-2
10425,-1,-219,-135,-21,80,-1
10430,-3,-217,-136,-21,79,-1
10435,-2,-220,-138,-23,79,-1
10440,0,-220,-138,-22,80,-2
10445,0,-220,-139,-22,80,-3
10450,0,-220,-135,-21,80,-3
10455,-2,-218,-137,-19,80,-2
10460,0,-218,-135,-19,78,-2
10465,-2,-219,-140,-19,77,-3
10470,-2,-219,-140,-19,76,-1
10475,0,-218,-135,-18,77,-1
10480,-3,-218,-140,-18,78,0
10485,-3,-218,-139,-17,78,0
10490,-1,-216,-137,-16,80,-1
10495,-1,-228,-134,-15,79,0
10500,-4,-219,-134,-17,75,0
10505,-5,-219,-135,-16,75,-1
10510,-3,-218,-136,-16,75,-2
10515,-3,-219,-136,-17,77,0
10520,-1,-220,-135,-17,76,0
10525,-1,-220,-138,-16,75,1
10530,-5,-219,-136,-19,75,2
10535,-2,-219,-136,-18,74,3
10540,-3,-219,-134,-17,75,2
10545,-3,-217,-138,-16,74,1
10550,-3,-219,-135,-15,74,3
10555,-4,-219,-139,-13,75,3
10560,0,-219,-141,-11,74,1
10565,-4,-216,-131,-11,74,1
10570,-1,-218,-138,-10,73,1
10575,1,-222,-138,-10,72,1
10580,0,-219,-138,-11,72,1
10585,0,-216,-136,-14,71,0
10590,-2,-218,-137,-15,71,0
10595,-1,-222,-139,-16,71,0
10600,-1,-217,-139,-18,72,1
10605,0,-219,-134,-20,73,1
10610,-5,-220,-137,-20,73,3
10615,-1,-222,-134,-20,74,4
10620,-4,-218,-138,-20,75,4
10625,-4,-222,-136,-19,76,3
10630,-2,-219,-137,-16,78,3
10635,0,-221,-137,-14,79,2
10640,-3,-221,-139,-12,80,1
10645,-1,-223,-136,-10,80,1
10650,-1,-220,-139,-7,81,0
10655,0,-221,-135,-5,81,-2
10660,-5,-220,-136,-4,81,-4
10665,-2,-219,-135,-5,79,-4
10670,-4,-216,-134,-6,80,-2
10675,-1,-219,-137,-8,81,-1
10680,-1,-219,-136,-11,80,0
10685,-3,-216,-135,-15,79,-1
10690,-2,-221,-141,-16,80,-1
10695,0,-221,-136,-17,79,-1
10700,-2,-222,-138,-17,78,-1
10705,0,-220,-136,-16,78,-3
10710,-1,-219,-139,-12,77,-3
10715,-1,-219,-137,-8,75,-4
10720,-3,-219,-139,-2,76,-5
10725,-4,-220,-135,3,75,-4
10730,0,-220,-137,6,75,-3
10735,0,-221,-137,8,74,-2
10740,-1,-219,-135,10,75,-1
10745,-4,-217,-134,12,77,0
10750,0,-221,-133,10,77,3
10755,-2,-220,-138,8,76,5
10760,-1,-219,-136,7,76,7
10765,-7,-219,-137,5,76,6
10770,-1,-219,-134,2,75,6
10775,-4,-219,-135,1,73,6
10780,-3,-222,-136,-1,72,7
10785,-2,-219,-133,-2,73,8
10790,-3,-220,-137,-4,71,8
10795,-3,-219,-134,-4,72,8
10800,-1,-219,-131,-3,73,7
10805,-1,-219,-138,-4,74,6
10810,-4,-219,-135,-3,73,6
10815,-3,-218,-131,-2,74,5
10820,-3,-220,-134,-2,75,6
10825,0,-220,-138,-5,75,5
10830,-1,-217,-138,-4,78,4
10835,-1,-220,-135,-4,79,5
10840,-1,-220,-134,-4,79,4
10845,-2,-220,-138,-5,80,6
10850,-3,-220,-133,-7,80,6
10855,-1,-219,-133,-8,82,5
10860,0,-219,-139,-8,83,6
10865,-2,-219,-135,-8,83,6
10870,-4,-218,-135,-5,84,5
10875,-2,-220,-139,-5,85,5
10880,-2,-221,-135,-4,85,3
10885,-1,-219,-137,-4,85,4
10890,-1,-219,-136,-4,85,3
10895,-4,-218,-139,-5,84,2
10900,-3,-219,-140,-6,85,2
10905,-2,-220,-138,-6,85,2
10910,-3,-219,-135,-7,84,1
10915,0,-220,-134,-9,82,2
10920,-3,-218,-137,-10,82,2
10925,-5,-219,-138,-11,81,1
10930,-3,-218,-129,-12,80,3
10935,-6,-219,-132,-14,78,2
10940,-2,-221,-136,-15,79,2
10945,-1,-221,-141,-16,79,1
10950,-1,-220,-137,-16,79,2
10955,-4,-218,-138,-15,78,2
10960,-1,-219,-133,-13,79,1
10965,-7,-219,-135,-15,79,-1
10970,0,-219,-135,-14,78,1
10975,-2,-218,-135,-14,77,0
10980,-5,-218,-134,-14,75,1
10985,-3,-220,-135,-16,74,2
10990,0,-217,-134,-16,75,2
10995,-7,-219,-137,-18,75,2
11000,-1,-219,-135,-18,74,1
11005,-4,-216,-136,-21,74,1
11010,-1,-219,-135,-22,73,-1
11015,-4,-219,-136,-23,76,1
11020,-2,-220,-137,-24,76,1
11025,-8,-214,-134,-26,77,1
11030,-3,-217,-138,-25,78,0
11035,-6,-221,-135,-25,77,1
11040,-7,-223,-136,-26,76,3
11045,-2,-221,-135,-25,74,2
11050,-6,-219,-135,-25,72,2
11055,-2,-219,-136,-24,72,4
11060,-1,-220,-135,-23,74,4
11065,-3,-219,-134,-23,73,4
11070,-4,-220,-137,-20,73,2
11075,-4,-222,-135,-18,73,2
11080,-5,-220,-136,-17,72,1
11085,-4,-221,-136,-16,73,2
11090,-2,-221,-134,-16,74,3
11095,-4,-218,-134,-15,74,3
11100,-4,-221,-136,-15,73,2
11105,-4,-220,-138,-14,73,0
11110,-3,-221,-133,-13,73,-1
11115,-3,-222,-135,-13,74,0
11120,-6,-221,-134,-14,72,-3
11125,-1,-221,-135,-13,72,-4
11130,-3,-220,-133,-13,71,-3
11135,-3,-216,-133,-14,69,-2
11140,0,-219,-139,-15,70,-3
11145,-5,-223,-135,-15,70,-2
11150,-2,-222,-134,-14,70,-2
11155,-3,-218,-133,-15,68,-2
11160,0,-221,-136,-17,68,-3
11165,0,-222,-139,-17,68,-4
11170,-1,-220,-134,-18,68,-3
11175,-2,-220,-134,-16,70,-4
11180,-1,-214,-134,-17,68,-3
11185,-4,-217,-137,-16,69,-4
11190,0,-217,-137,-15,69,-3
11195,-2,-214,-137,-14,69,-4
11200,-2,-219,-134,-14,69,-4
11205,0,-219,-137,-14,69,-3
11210,-2,-221,-134,-14,71,-3
11215,-2,-221,-141,-15,71,-2
11220,-1,-220,-139,-15,73,-3
11225,-2,-219,-135,-15,74,-1
11230,-3,-219,-136,-16,75,0
11235,-4,-221,-137,-17,75,-3
11240,-3,-219,-134,-16,75,-2
11245,-4,-221,-136,-18,75,0
11250,-3,-223,-136,-20,74,-2
11255,-4,-219,-138,-19,75,-3
11260,-5,-219,-133,-19,75,-2
11265,-3,-219,-141,-19,76,-2
11270,-2,-218,-135,-19,75,-3
11275,0,-218,-136,-18,75,-4
11280,-3,-221,-139,-17,75,-4
11285,-3,-219,-136,-15,75,-3
11290,-1,-221,-139,-15,75,-5
11295,-2,-218,-138,-14,75,-4
11300,-3,-221,-136,-14,74,-3
11305,-7,-213,-131,-13,75,-3
11310,-2,-217,-138,-12,72,-2
11315,-5,-216,-137,-11,72,-2
11320,0,-220,-137,-11,71,-3
11325,-1,-220,-134,-12,70,-2
11330,0,-217,-137,-12,70,-4
11335,-4,-221,-133,-12,68,-3
11340,-4,-216,-135,-13,68,-4
11345,0,-221,-137,-15,69,-4
11350,-2,-219,-135,-15,69,-4
11355,0,-221,-137,-16,70,-3
11360,0,-220,-136,-16,68,-1
11365,-2,-217,-139,-18,68,-2
11370,0,-220,-137,-20,68,-2
11375,0,-221,-135,-20,68,-1
11380,-5,-222,-137,-19,69,0
11385,-2,-220,-137,-18,69,1
11390,0,-220,-136,-17,72,0
11395,-3,-219,-136,-16,74,1
11400,-4,-220,-133,-15,76,0
11405,-2,-221,-138,-12,77,-1
11410,-3,-219,-134,-10,79,-2
11415,-3,-218,-139,-8,79,-3
11420,-4,-217,-136,-7,79,-4
11425,-3,-216,-139,-7,77,-5
11430,0,-214,-134,-10,78,-5
11435,-1,-218,-137,-13,77,-4
11440,-4,-217,-136,-18,75,-4
11445,0,-217,-135,-21,74,-5
11450,0,-219,-133,-24,72,-5
11455,-3,-218,-136,-24,72,-6
11460,-3,-219,-135,-25,73,-5
11465,-2,-217,-135,-23,71,-5
11470,-1,-219,-135,-22,70,-5
11475,2,-219,-135,-20,69,-5
11480,-3,-220,-140,-17,68,-5
11485,-4,-217,-139,-14,69,-6
11490,-1,-218,-139,-11,71,-6
11495,-3,-219,-134,-10,73,-6
11500,0,-217,-136,-11,74,-4
11505,-1,-219,-133,-9,73,-4
11510,-1,-220,-139,-8,74,-4
11515,-1,-221,-140,-8,77,-2
11520,-2,-220,-131,-8,77,-1
11525,0,-222,-140,-8,75,-1
11530,-1,-221,-137,-8,74,-1
11535,-4,-219,-138,-9,73,-2
11540,-2,-217,-135,-6,72,-1
11545,-5,-219,-137,-6,73,-1
11550,-5,-220,-135,-6,71,-1
11555,-1,-219,-136,-7,73,-2
11560,-4,-216,-135,-8,73,-2
11565,-4,-218,-133,-9,73,-2
11570,-2,-218,-136,-8,74,-1
11575,-2,-218,-137,-8,75,-1
11580,0,-219,-136,-9,76,-2
11585,-1,-215,-136,-10,76,-3
11590,-2,-218,-137,-9,77,-1
11595,-3,-218,-134,-8,77,-1
11600,-1,-219,-134,-7,77,-2
11605,-4,-220,-132,-7,76,0
11610,-3,-219,-139,-7,77,0
11615,-1,-219,-136,-9,76,0
11620,-1,-220,-137,-8,77,0
11625,-3,-217,-137,-8,78,-1
11630,-2,-219,-133,-8,77,1
11635,0,-218,-134,-8,77,1
11640,-4,-219,-135,-11,78,0
11645,0,-219,-138,-12,76,1
11650,-2,-221,-137,-14,75,0
11655,-3,-219,-134,-14,75,1
11660,-6,-219,-133,-14,76,1
11665,0,-220,-138,-15,73,1
11670,-2,-217,-134,-15,75,1
11675,-4,-222,-137,-15,73,1
11680,-2,-221,-134,-13,73,3
11685,-1,-224,-130,-13,73,3
11690,-5,-222,-136,-11,71,3
11695,-4,-217,-133,-8,71,4
11700,-5,-220,-136,-6,71,2
11705,-1,-219,-138,-3,71,3
11710,-1,-221,-136,1,72,3
11715,-2,-220,-139,2,72,1
11720,-3,-221,-136,4,70,1
11725,-2,-221,-138,4,70,2
11730,-7,-216,-136,5,71,2
11735,-2,-219,-135,5,71,2
11740,-5,-221,-133,5,72,1
11745,-2,-222,-135,4,72,2
11750,-1,-218,-133,4,72,1
11755,-5,-219,-131,5,73,2
11760,0,-219,-138,5,74,1
11765,-5,-218,-135,7,74,1
11770,-2,-219,-134,6,73,1
11775,-3,-221,-135,7,73,0
11780,-2,-220,-141,7,74,-1
11785,-2,-220,-134,5,73,0
11790,-7,-215,-138,5,71,-1
11795,0,-219,-135,5,70,0
11800,-6,-218,-135,5,69,1
11805,-1,-217,-136,6,67,1
11810,-1,-221,-135,5,66,2
11815,-1,-220,-139,4,65,3
11820,-3,-223,-134,1,68,4
11825,-2,-222,-137,-1,66,3
11830,-5,-219,-138,-2,68,3
11835,-1,-219,-137,-4,70,3
11840,-3,-217,-135,-3,70,3
11845,-5,-219,-136,-4,71,1
11850,-3,-218,-137,-2,71,2
11855,1,-220,-136,-4,72,1
11860,-3,-217,-136,-3,76,1
11865,-1,-220,-137,-2,76,0
11870,-5,-223,-136,-1,77,0
11875,-5,-222,-135,0,76,-1
11880,0,-220,-136,1,77,-1
11885,-2,-219,-131,0,77,-2
11890,-1,-220,-139,1,76,-3
11895,-2,-217,-133,1,77,-1
11900,-3,-215,-138,1,75,0
11905,-1,-221,-136,1,73,-1
11910,-3,-217,-139,-2,72,-1
11915,-1,-221,-137,-4,71,-2
11920,-3,-220,-133,-5,72,0
11925,-3,-216,-134,-4,71,0
11930,1,-221,-134,-5,71,1
11935,-3,-220,-134,-4,68,1
11940,-2,-218,-138,-2,70,0
11945,-2,-218,-135,0,72,0
11950,-1,-221,-139,0,73,1
11955,-7,-216,-135,0,73,1
11960,-4,-217,-136,0,73,1
11965,-5,-218,-134,2,73,1
11970,-2,-221,-137,3,73,0
11975,-3,-217,-136,4,74,1
11980,0,-218,-135,5,74,2
11985,-2,-221,-137,6,72,2
11990,-4,-218,-133,5,71,4
11995,-2,-221,-136,4,70,6
