timestamp,acc_x,acc_y,acc_z,gyro_x,gyro_y,gyro_z
0,18,-247,-72,-48,98,-4
5,18,-247,-69,-47,96,-5
10,15,-248,-71,-44,98,-4
15,19,-249,-72,-45,99,-4
20,17,-249,-72,-48,101,-6
25,17,-247,-74,-50,104,-5
30,17,-250,-72,-52,108,-5
35,15,-247,-72,-53,110,-5
40,16,-247,-77,-54,112,-6
45,18,-250,-72,-52,112,-5
50,17,-249,-74,-50,113,-5
55,18,-247,-74,-48,113,-3
60,14,-251,-75,-45,111,-3
65,16,-247,-77,-41,109,-1
70,18,-248,-76,-38,107,-3
75,18,-248,-74,-37,104,0
80,14,-246,-77,-36,100,-2
85,15,-247,-78,-34,96,-1
90,17,-246,-75,-35,93,-2
95,15,-244,-75,-37,89,-2
100,17,-246,-72,-39,84,-4
105,17,-250,-78,-40,81,-2
110,17,-248,-75,-40,77,-6
115,17,-249,-73,-39,75,-2
120,18,-246,-77,-38,73,-5
125,16,-250,-77,-38,72,-2
130,16,-249,-72,-36,71,-4
135,15,-246,-76,-36,70,-2
140,17,-246,-76,-36,69,-4
145,17,-249,-76,-36,67,-2
150,19,-248,-75,-34,65,-4
155,16,-250,-75,-32,65,-2
160,18,-249,-79,-29,65,-4
165,21,-247,-71,-28,64,-3
170,20,-248,-79,-27,64,-7
175,17,-246,-79,-27,65,-3
180,17,-246,-79,-29,65,-6
185,18,-244,-73,-32,64,-6
190,17,-247,-78,-34,64,-9
195,18,-248,-76,-35,64,-7
200,17,-246,-75,-37,65,-9
205,19,-247,-76,-36,65,-6
210,19,-248,-75,-35,66,-9
215,18,-245,-75,-34,67,-6
220,16,-246,-79,-32,68,-9
225,18,-247,-79,-32,72,-5
230,15,-246,-77,-30,72,-8
235,16,-244,-74,-29,71,-6
240,19,-244,-75,-28,73,-7
245,18,-245,-76,-27,72,-4
250,19,-246,-77,-24,71,-8
255,17,-246,-77,-24,70,-6
260,18,-247,-73,-24,70,-8
265,19,-246,-78,-26,69,-6
270,18,-246,-77,-28,68,-9
275,17,-247,-76,-28,66,-8
280,20,-247,-78,-28,64,-10
285,20,-248,-78,-26,64,-8
290,16,-247,-78,-28,64,-11
295,19,-248,-75,-27,65,-9
300,18,-248,-77,-26,65,-10
305,18,-245,-77,-25,67,-7
310,21,-248,-78,-24,70,-11
315,18,-247,-76,-22,74,-10
320,19,-245,-75,-22,75,-8
325,16,-245,-79,-20,77,-7
330,19,-245,-77,-17,79,-9
335,21,-246,-83,-16,80,-6
340,17,-247,-75,-18,82,-8
345,16,-244,-79,-20,82,-6
350,18,-245,-79,-26,79,-5
355,16,-243,-79,-25,77,-4
360,14,-245,-78,-28,75,-5
365,15,-245,-76,-27,72,-4
370,16,-247,-75,-26,72,-3
375,16,-245,-74,-24,72,-3
380,18,-246,-80,-21,70,-3
385,16,-245,-78,-16,67,-2
390,17,-248,-74,-11,69,-2
395,18,-246,-76,-8,65,-4
400,18,-248,-79,-6,64,-5
405,17,-248,-76,-3,62,-5
410,19,-248,-76,0,61,-5
415,17,-246,-76,1,61,-3
420,16,-247,-76,2,63,-4
425,18,-245,-78,2,63,-4
430,17,-245,-74,0,67,-4
435,17,-245,-79,-1,68,-4
440,18,-245,-79,-4,68,-3
445,20,-247,-77,-5,69,-4
450,16,-246,-76,-5,69,-1
455,17,-246,-81,-6,66,0
460,16,-248,-76,-6,64,0
465,16,-245,-76,-7,60,0
470,14,-245,-80,-8,58,0
475,15,-244,-77,-10,55,-1
480,15,-250,-82,-12,52,1
485,18,-246,-79,-13,48,-1
490,17,-250,-77,-15,44,1
495,17,-246,-76,-17,41,-1
500,17,-248,-75,-19,40,1
505,15,-246,-79,-18,37,-1
510,19,-245,-73,-20,35,-1
515,17,-247,-78,-19,33,-1
520,13,-245,-76,-16,33,0
525,17,-246,-77,-12,35,-2
530,18,-248,-83,-10,34,0
535,20,-245,-79,-10,36,-4
540,17,-245,-76,-8,37,-3
545,18,-246,-76,-9,39,-6
550,18,-243,-80,-9,42,-4
555,19,-243,-77,-11,44,-7
560,17,-242,-75,-11,47,-5
565,19,-246,-77,-13,51,-10
570,17,-243,-76,-12,54,-7
575,18,-245,-77,-13,55,-10
580,16,-245,-77,-13,57,-9
585,17,-245,-76,-13,56,-11
590,17,-248,-76,-15,57,-8
595,18,-246,-73,-15,57,-10
600,18,-243,-75,-16,56,-8
605,18,-247,-78,-15,57,-10
610,20,-250,-75,-18,54,-7
615,18,-248,-75,-19,54,-10
620,17,-249,-76,-19,52,-8
625,17,-248,-77,-18,52,-8
630,16,-245,-78,-17,53,-6
635,19,-247,-79,-16,53,-8
640,18,-246,-77,-15,54,-6
645,17,-245,-77,-16,56,-8
650,16,-244,-78,-19,56,-6
655,18,-246,-76,-20,55,-8
660,19,-246,-76,-21,54,-5
665,18,-247,-76,-21,52,-8
670,23,-246,-79,-20,53,-6
675,19,-245,-77,-21,54,-8
680,18,-241,-81,-20,55,-6
685,18,-243,-79,-18,55,-8
690,18,-246,-79,-19,57,-6
695,18,-245,-77,-18,59,-8
700,20,-248,-76,-18,58,-4
705,20,-249,-76,-19,59,-6
710,18,-244,-77,-19,59,-2
715,20,-250,-78,-18,59,-5
720,17,-246,-75,-17,59,-3
725,18,-245,-77,-19,58,-3
730,21,-247,-77,-17,57,-1
735,20,-246,-77,-16,57,-3
740,19,-246,-73,-16,59,-1
745,19,-247,-73,-15,58,-3
750,17,-245,-78,-15,57,1
755,19,-244,-76,-15,58,-2
760,18,-246,-76,-16,57,0
765,19,-242,-72,-17,58,-2
770,16,-246,-78,-19,59,2
775,17,-249,-76,-19,59,-1
780,18,-246,-80,-22,59,3
785,21,-247,-80,-24,60,1
790,18,-247,-79,-25,60,2
795,18,-248,-78,-28,60,-1
800,18,-246,-76,-27,62,0
805,19,-251,-79,-27,63,-1
810,17,-250,-79,-25,62,0
815,17,-248,-74,-25,64,-2
820,18,-248,-78,-22,63,-3
825,18,-247,-77,-22,66,-3
830,18,-245,-74,-20,68,-3
835,15,-246,-78,-16,68,-5
840,16,-248,-78,-13,68,-3
845,19,-247,-78,-13,69,-3
850,20,-247,-77,-12,67,-2
855,18,-245,-80,-9,69,-2
860,18,-246,-79,-5,68,-3
865,19,-245,-76,-6,68,-3
870,17,-243,-74,-4,69,-3
875,19,-245,-76,-5,66,-2
880,17,-246,-77,-4,64,-1
885,16,-243,-74,-4,61,-2
890,18,-245,-78,-5,62,-1
895,19,-246,-76,-8,60,-2
900,18,-244,-74,-10,62,-2
905,19,-243,-74,-15,62,-3
910,19,-246,-77,-17,63,-3
915,18,-248,-77,-19,63,-1
920,18,-248,-77,-20,64,-3
925,19,-244,-79,-23,65,-4
930,19,-246,-75,-25,64,-5
935,21,-247,-80,-27,62,-2
940,19,-248,-82,-31,62,-5
945,22,-249,-78,-34,59,-3
950,19,-248,-75,-31,57,-5
955,19,-248,-77,-30,57,-4
960,20,-248,-79,-25,57,-4
965,16,-250,-80,-20,56,-3
970,18,-250,-81,-13,58,-2
975,18,-247,-79,-8,60,1
980,19,-246,-78,-2,60,1
985,20,-244,-80,4,60,2
990,19,-246,-77,6,62,1
995,18,-246,-73,8,63,3
1000,15,-244,-73,9,66,2
1005,19,-245,-78,10,67,5
1010,19,-245,-75,9,69,2
1015,19,-243,-75,7,69,3
1020,18,-247,-76,5,70,-1
1025,22,-248,-80,3,71,0
1030,18,-248,-77,0,70,-2
1035,17,-248,-75,-4,69,0
1040,17,-244,-75,-7,69,-1
1045,17,-246,-76,-10,67,1
1050,19,-247,-81,-10,66,-2
1055,19,-247,-81,-9,65,-1
1060,19,-247,-77,-8,62,-2
1065,18,-248,-76,-7,61,2
1070,17,-246,-80,-8,58,0
1075,16,-247,-77,-9,55,3
1080,20,-248,-76,-8,52,0
1085,15,-248,-79,-5,51,3
1090,17,-250,-76,-4,48,1
1095,18,-248,-81,-4,47,2
1100,18,-247,-80,-1,47,-1
1105,16,-244,-73,1,50,1
1110,15,-248,-79,4,51,-1
1115,17,-247,-75,5,51,1
1120,18,-246,-77,8,53,-2
1125,17,-247,-81,7,55,0
1130,20,-244,-79,6,57,-2
1135,21,-247,-77,3,58,-1
1140,18,-246,-78,1,59,-4
1145,18,-243,-77,-3,60,-2
1150,20,-247,-73,-4,60,-4
1155,19,-248,-76,-8,62,-1
1160,19,-247,-75,-10,62,-6
1165,20,-246,-78,-8,63,-2
1170,19,-248,-73,-8,65,-5
1175,20,-245,-79,-7,64,-2
1180,20,-246,-77,-5,65,-3
1185,19,-249,-76,-1,65,-1
1190,17,-245,-79,1,66,-2
1195,17,-245,-76,2,67,0
1200,19,-248,-75,4,67,-1
1205,19,-244,-77,5,68,-1
1210,20,-243,-78,4,67,-2
1215,18,-246,-72,4,65,2
1220,18,-245,-75,4,65,0
1225,17,-246,-78,4,63,1
1230,17,-246,-77,4,61,0
1235,16,-245,-75,3,60,2
1240,18,-243,-77,0,59,0
1245,15,-244,-76,-3,59,2
1250,17,-246,-81,-5,58,0
1255,17,-248,-77,-7,57,2
1260,17,-244,-77,-9,57,-1
1265,17,-244,-75,-8,58,0
1270,18,-247,-74,-9,59,0
1275,16,-248,-76,-11,60,2
1280,17,-245,-76,-11,61,1
1285,15,-244,-69,-12,60,2
1290,15,-247,-72,-13,62,1
1295,18,-246,-75,-12,61,2
1300,18,-248,-74,-11,61,1
1305,17,-246,-72,-10,61,4
1310,17,-246,-77,-7,59,2
1315,16,-246,-73,-5,58,5
1320,19,-247,-73,-4,56,3
1325,19,-249,-74,-3,55,5
1330,16,-248,-76,-3,52,4
1335,17,-248,-78,-4,51,6
1340,17,-248,-76,-5,49,6
1345,21,-250,-73,-6,49,4
1350,18,-247,-76,-7,47,3
1355,18,-249,-74,-6,48,1
1360,20,-249,-72,-7,47,0
1365,16,-249,-75,-5,48,-1
1370,19,-251,-73,-2,51,-2
1375,17,-246,-74,0,53,-2
1380,16,-247,-76,2,52,-1
1385,17,-247,-72,2,54,-2
1390,14,-246,-76,3,54,-1
1395,17,-249,-77,3,54,0
1400,17,-246,-73,1,52,-1
1405,18,-245,-74,-1,51,-1
1410,17,-248,-72,-1,50,-1
1415,16,-246,-71,-3,49,-2
1420,16,-246,-74,-2,49,-2
1425,18,-246,-76,0,48,-4
1430,17,-246,-75,-1,49,-4
1435,17,-247,-70,2,49,-4
1440,17,-245,-98,2,50,-4
1445,13,-246,-96,5,53,-4
1450,26,-244,-72,6,51,-4
1455,24,-240,-73,5,53,-6
1460,18,-248,-77,6,53,-5
1465,17,-248,-73,5,51,-6
1470,19,-247,-74,6,53,-6
1475,17,-247,-74,5,53,-7
1480,19,-248,-76,1,53,-7
1485,20,-245,-73,-2,53,-8
1490,18,-246,-76,-6,53,-6
1495,19,-247,-75,-8,53,-7
1500,18,-248,-72,-10,54,-4
1505,20,-247,-76,-12,55,-7
1510,19,-246,-74,-16,56,-4
1515,19,-248,-71,-19,57,-5
1520,20,-248,-76,-21,55,-3
1525,17,-247,-77,-22,55,-5
1530,17,-247,-77,-21,53,-2
1535,20,-247,-77,-21,53,-3
1540,17,-247,-76,-16,52,1
1545,18,-249,-73,-13,49,-1
1550,14,-249,-77,-8,49,2
1555,19,-248,-71,-2,49,0
1560,17,-246,-75,2,48,3
1565,17,-247,-77,7,48,1
1570,14,-247,-74,13,49,2
1575,17,-247,-74,16,50,1
1580,16,-246,-75,18,51,3
1585,17,-247,-71,18,54,0
1590,16,-247,-76,16,55,3
1595,19,-249,-75,14,58,0
1600,15,-248,-74,11,58,1
1605,17,-249,-70,9,61,-1
1610,15,-245,-73,6,63,3
1615,16,-247,-75,6,65,-1
1620,16,-245,-74,3,65,1
1625,17,-244,-74,3,64,0
1630,16,-245,-75,0,64,2
1635,16,-245,-74,0,62,0
1640,16,-248,-73,-2,60,2
1645,14,-249,-73,-2,55,0
1650,14,-247,-76,-3,53,2
1655,16,-245,-77,-2,49,0
1660,15,-246,-76,-2,47,2
1665,16,-248,-73,-1,45,1
1670,17,-251,-72,0,45,2
1675,17,-247,-77,0,45,-1
1680,16,-249,-75,1,45,1
1685,18,-249,-73,3,45,0
1690,16,-248,-72,6,47,2
1695,17,-248,-79,7,49,-1
1700,18,-247,-80,7,51,1
1705,17,-247,-77,7,53,-1
1710,20,-245,-77,8,56,1
1715,15,-245,-72,6,59,-2
1720,18,-245,-76,5,62,1
1725,18,-246,-72,1,63,-3
1730,18,-247,-78,0,62,0
1735,21,-248,-74,-4,61,-2
1740,17,-245,-75,-4,60,-1
1745,15,-245,-73,-5,61,-3
1750,16,-246,-75,-5,62,0
1755,18,-247,-77,-6,63,-1
1760,16,-246,-76,-7,62,0
1765,15,-245,-73,-8,62,-2
1770,15,-247,-75,-8,63,0
1775,17,-248,-73,-6,64,-1
1780,18,-248,-75,-5,65,2
1785,16,-247,-72,-4,65,1
1790,16,-248,-75,-3,64,2
1795,16,-246,-75,-2,62,1
1800,15,-247,-72,0,63,2
1805,16,-249,-74,3,63,1
1810,17,-248,-71,5,62,1
1815,15,-248,-69,6,62,1
1820,15,-249,-70,6,63,2
1825,16,-248,-73,8,59,1
1830,15,-245,-69,7,60,3
1835,15,-246,-74,7,60,1
1840,16,-250,-73,8,60,2
1845,15,-248,-70,8,61,2
1850,15,-247,-71,8,62,1
1855,14,-245,-72,7,61,2
1860,15,-248,-71,6,61,2
1865,16,-246,-74,6,61,3
1870,15,-249,-73,7,60,2
1875,15,-248,-71,5,58,2
1880,15,-249,-72,4,56,2
1885,17,-250,-73,2,53,0
1890,17,-248,-75,2,53,0
1895,16,-248,-72,3,52,1
1900,17,-250,-72,4,50,1
1905,15,-249,-72,6,51,2
1910,16,-247,-75,5,51,1
1915,14,-243,-74,8,53,4
1920,16,-248,-73,7,54,2
1925,19,-247,-70,9,55,2
1930,17,-250,-72,9,54,2
1935,13,-248,-69,10,55,3
1940,14,-245,-70,9,57,1
1945,18,-251,-74,10,56,2
1950,16,-246,-71,9,56,1
1955,17,-249,-71,9,56,1
1960,17,-250,-72,8,56,0
1965,16,-246,-71,7,55,0
1970,15,-244,-71,6,55,-3
1975,17,-246,-73,4,53,0
1980,16,-247,-74,4,55,-1
1985,17,-250,-69,4,54,-1
1990,15,-247,-74,3,55,-2
1995,15,-247,-71,3,55,-1
2000,16,-247,-73,2,57,-3
2005,13,-245,-67,2,57,-1
2010,14,-246,-70,3,60,-4
2015,16,-249,-72,3,60,-1
2020,16,-248,-72,4,62,-3
2025,16,-251,-70,3,61,-2
2030,16,-249,-68,3,62,-5
2035,14,-248,-69,2,59,-3
2040,14,-248,-73,4,59,-6
2045,14,-247,-74,3,57,-4
2050,16,-247,-71,5,55,-6
2055,16,-248,-76,5,54,-3
2060,15,-247,-71,5,54,-7
2065,16,-245,-72,3,53,-4
2070,14,-244,-71,2,53,-5
2075,15,-246,-69,-1,52,-3
2080,13,-246,-72,-3,53,-6
2085,15,-249,-72,-7,50,-4
2090,17,-245,-71,-10,52,-5
2095,17,-249,-71,-12,54,-2
2100,16,-247,-71,-13,54,-4
2105,15,-250,-73,-12,55,-1
2110,16,-247,-68,-12,55,-3
2115,18,-250,-79,-11,55,-1
2120,17,-247,-75,-10,54,-5
2125,18,-251,-73,-8,53,-3
2130,16,-247,-70,-7,52,-4
2135,16,-249,-75,-5,50,0
2140,16,-248,-71,-1,50,-4
2145,17,-250,-71,1,50,-2
2150,14,-247,-67,5,49,-5
2155,14,-246,-70,9,49,-2
2160,12,-246,-70,11,48,-5
2165,15,-249,-73,12,47,-2
2170,14,-246,-70,11,48,-5
2175,12,-247,-69,10,48,-2
2180,17,-247,-72,8,48,-5
2185,13,-246,-72,6,49,-1
2190,18,-249,-73,2,49,-4
2195,15,-249,-75,0,48,0
2200,17,-251,-75,-2,48,-1
2205,16,-248,-71,-4,48,3
2210,18,-247,-71,-7,48,0
2215,16,-247,-73,-5,48,3
2220,18,-251,-70,-4,47,1
2225,20,-250,-72,0,47,2
2230,16,-249,-68,5,44,0
2235,14,-248,-72,8,46,2
2240,15,-251,-70,9,44,-1
2245,19,-255,-68,11,41,0
2250,16,-257,-67,13,39,-2
2255,18,-260,-67,20,31,-3
2260,18,-260,-72,29,26,-8
2265,20,-262,-75,40,17,-12
2270,20,-266,-78,50,10,-18
2275,21,-266,-83,58,7,-19
2280,20,-265,-84,65,3,-21
2285,22,-269,-78,68,0,-19
2290,17,-268,-78,61,-16,-23
2295,17,-267,-83,39,-35,-26
2300,16,-264,-98,5,-59,-36
2305,16,-259,-104,-41,-79,-44
2310,20,-251,-103,-97,-89,-55
2315,17,-241,-108,-164,-91,-62
2320,19,-233,-111,-239,-88,-70
2325,16,-223,-119,-313,-80,-76
2330,19,-213,-119,-383,-75,-83
2335,17,-207,-121,-448,-71,-95
2340,15,-202,-124,-508,-71,-109
2345,11,-198,-123,-567,-76,-116
2350,9,-196,-123,-607,-85,-124
2355,6,-196,-122,-640,-100,-125
2360,2,-196,-122,-671,-119,-128
2365,-4,-195,-123,-702,-142,-128
2370,-1,-200,-117,-730,-168,-128
2375,-5,-198,-119,-756,-190,-125
2380,-5,-202,-116,-776,-214,-124
2385,-4,-206,-119,-780,-237,-130
2390,-5,-207,-120,-768,-262,-137
2395,2,-211,-119,-738,-290,-144
2400,4,-211,-120,-702,-312,-151
2405,5,-207,-119,-665,-330,-161
2410,6,-204,-124,-627,-343,-171
2415,12,-198,-127,-595,-352,-182
2420,13,-195,-129,-575,-357,-191
2425,16,-189,-135,-564,-356,-201
2430,16,-183,-139,-566,-355,-207
2435,19,-177,-141,-576,-348,-215
2440,19,-174,-141,-591,-337,-218
2445,16,-165,-145,-607,-323,-223
2450,16,-160,-142,-623,-314,-221
2455,16,-158,-143,-634,-311,-223
2460,13,-149,-144,-640,-313,-223
2465,11,-146,-142,-640,-318,-226
2470,4,-138,-144,-633,-327,-225
2475,3,-132,-139,-621,-339,-225
2480,3,-128,-136,-602,-353,-219
2485,-1,-118,-129,-585,-374,-215
2490,-3,-112,-123,-574,-396,-207
2495,-8,-110,-124,-565,-433,-204
2500,-12,-106,-114,-558,-473,-202
2505,-14,-99,-102,-551,-521,-205
2510,-22,-98,-90,-541,-579,-206
2515,-24,-96,-76,-527,-642,-214
2520,-25,-94,-60,-505,-706,-222
2525,-23,-92,-55,-477,-768,-238
2530,-19,-91,-47,-442,-819,-253
2535,-14,-94,-41,-409,-853,-272
2540,-11,-91,-45,-388,-874,-286
2545,-1,-94,-46,-378,-875,-303
2550,7,-94,-54,-381,-855,-304
2555,18,-93,-66,-410,-825,-299
2560,26,-87,-88,-483,-783,-283
2565,40,-85,-115,-610,-735,-263
2570,48,-79,-137,-783,-681,-236
2575,58,-84,-176,-1000,-620,-210
2580,62,-87,-215,-1261,-538,-172
2585,69,-95,-249,-1538,-423,-134
2590,69,-112,-255,-1803,-280,-92
2595,55,-127,-245,-2001,-134,-56
2600,51,-140,-217,-2114,2,-7
2605,43,-160,-188,-2150,67,21
2610,36,-168,-163,-2110,82,53
2615,29,-185,-129,-2013,53,71
2620,24,-194,-101,-1872,-17,84
2625,18,-198,-77,-1694,-111,87
2630,14,-199,-58,-1490,-219,90
2635,12,-200,-50,-1281,-324,85
2640,15,-200,-52,-1100,-416,87
2645,26,-198,-53,-960,-489,73
2650,32,-195,-60,-867,-544,53
2655,33,-191,-68,-803,-553,31
2660,33,-185,-71,-772,-523,20
2665,29,-182,-80,-760,-471,12
2670,28,-182,-86,-765,-412,15
2675,22,-179,-96,-788,-355,20
2680,19,-178,-100,-836,-308,35
2685,17,-179,-109,-891,-271,48
2690,9,-183,-106,-946,-248,67
2695,4,-188,-109,-992,-242,84
2700,2,-197,-108,-1025,-247,101
2705,-2,-203,-111,-1047,-267,108
2710,-5,-211,-110,-1054,-289,118
2715,-8,-220,-115,-1044,-310,127
2720,-8,-231,-120,-1015,-321,147
2725,-6,-237,-124,-977,-321,165
2730,-6,-247,-135,-921,-312,185
2735,0,-253,-140,-866,-288,197
2740,9,-257,-151,-819,-252,205
2745,16,-260,-153,-778,-209,205
2750,22,-255,-153,-732,-161,202
2755,32,-259,-158,-666,-89,186
2760,46,-258,-154,-608,-24,174
2765,47,-258,-147,-546,43,154
2770,51,-256,-147,-487,98,133
2775,53,-255,-139,-430,133,106
2780,52,-249,-135,-375,143,78
2785,51,-252,-134,-322,134,49
2790,50,-251,-128,-276,111,26
2795,42,-250,-130,-234,80,7
2800,32,-253,-133,-191,46,-5
2805,23,-249,-136,-145,-2,-6
2810,12,-244,-141,-95,-47,5
2815,3,-244,-146,-71,-89,25
2820,-5,-241,-158,-66,-127,54
2825,-11,-237,-164,-76,-155,82
2830,-11,-238,-168,-98,-182,107
2835,-12,-241,-171,-117,-205,125
2840,-12,-241,-177,-133,-211,136
2845,-10,-252,-180,-134,-186,153
2850,-8,-259,-183,-104,-134,169
2855,1,-266,-184,-59,-59,181
2860,5,-268,-184,-5,-3,181
2865,10,-275,-177,36,38,170
2870,16,-279,-177,81,55,153
2875,18,-277,-175,140,59,131
2880,18,-273,-170,210,47,104
2885,14,-272,-173,279,26,82
2890,17,-267,-174,344,-5,61
2895,13,-262,-176,405,-37,43
2900,10,-260,-175,463,-65,26
2905,11,-259,-179,520,-82,14
2910,1,-254,-182,579,-80,3
2915,3,-253,-183,624,-69,2
2920,-4,-247,-187,646,-47,9
2925,-7,-240,-193,650,-21,23
2930,-9,-231,-188,639,6,39
2935,-10,-222,-191,616,33,56
2940,-6,-217,-192,576,62,74
2945,-10,-215,-192,521,78,96
2950,-5,-215,-194,466,84,112
2955,-7,-213,-183,406,84,130
2960,-9,-216,-183,341,68,135
2965,-11,-223,-178,308,36,138
2970,-14,-231,-176,297,-13,129
2975,-14,-234,-175,304,-78,118
2980,-22,-239,-164,331,-154,102
2985,-24,-241,-161,354,-230,93
2990,-25,-243,-162,385,-293,85
2995,-21,-243,-172,412,-333,91
3000,-22,-245,-170,435,-351,97
3005,-17,-243,-179,452,-357,103
3010,-13,-244,-183,454,-345,104
3015,-16,-247,-183,451,-328,104
3020,-8,-248,-199,450,-299,93
3025,-11,-247,-196,431,-247,78
3030,-13,-240,-190,417,-197,58
3035,-12,-243,-184,406,-151,47
3040,-13,-249,-184,389,-119,32
3045,-15,-254,-176,376,-106,24
3050,-19,-251,-169,372,-104,17
3055,-27,-248,-163,377,-114,19
3060,-31,-242,-161,383,-140,22
3065,-36,-243,-163,393,-163,35
3070,-36,-242,-165,405,-177,49
3075,-28,-237,-172,415,-184,74
3080,-21,-242,-165,432,-180,96
3085,-16,-235,-157,456,-182,122
3090,-7,-232,-162,486,-194,143
3095,-4,-231,-155,510,-217,168
3100,7,-228,-161,518,-243,179
3105,13,-225,-168,529,-262,187
3110,17,-229,-167,523,-274,174
3115,10,-228,-171,493,-280,153
3120,11,-230,-177,468,-276,123
3125,2,-221,-178,433,-257,85
3130,-3,-215,-182,415,-213,56
3135,-6,-211,-179,384,-143,37
3140,-9,-220,-181,346,-75,22
3145,-9,-217,-183,306,-19,17
3150,-12,-225,-184,269,31,10
3155,-13,-230,-186,248,67,10
3160,-19,-238,-181,249,90,8
3165,-18,-242,-181,281,97,16
3170,-22,-247,-180,327,98,19
3175,-27,-251,-177,381,87,26
3180,-29,-248,-181,433,71,27
3185,-28,-245,-178,473,54,23
3190,-28,-241,-180,496,43,13
3195,-28,-235,-178,507,33,10
3200,-20,-235,-179,503,27,6
3205,-18,-232,-173,489,31,9
3210,-10,-227,-174,474,36,12
3215,-10,-227,-174,460,44,18
3220,-7,-229,-171,456,51,18
3225,-11,-230,-172,457,50,22
3230,-10,-237,-173,466,46,21
3235,-9,-237,-167,477,41,24
3240,-13,-245,-170,487,38,23
3245,-13,-247,-168,496,39,26
3250,-13,-253,-165,508,47,24
3255,-12,-255,-163,522,59,25
3260,-12,-259,-161,541,77,18
3265,-10,-258,-151,566,104,15
3270,-9,-257,-152,591,126,7
3275,-9,-258,-143,620,144,2
3280,-13,-251,-145,655,149,-3
3285,-16,-251,-142,679,143,1
3290,-23,-247,-139,689,124,0
3295,-22,-247,-138,688,96,8
3300,-28,-242,-134,677,71,13
3305,-29,-242,-130,662,50,19
3310,-31,-240,-128,636,25,30
3315,-25,-245,-122,598,1,51
3320,-28,-247,-121,534,-17,56
3325,-27,-247,-121,469,-30,61
3330,-13,-253,-111,413,-41,57
3335,-32,-260,-113,370,-46,40
3340,-24,-263,-112,329,-57,60
3345,-23,-267,-113,301,-60,65
3350,-19,-266,-112,276,-56,63
3355,-15,-265,-113,253,-50,57
3360,-12,-266,-114,241,-39,55
3365,-12,-270,-114,244,-20,56
3370,-12,-269,-112,252,-4,53
3375,-13,-263,-113,266,13,46
3380,-14,-262,-112,283,25,35
3385,-12,-263,-110,305,30,29
3390,-21,-260,-109,337,30,23
3395,-22,-257,-105,362,24,17
3400,-23,-252,-102,376,12,13
3405,-24,-252,-99,377,-2,10
3410,-22,-249,-97,372,-20,11
3415,-21,-252,-96,362,-38,12
3420,-15,-256,-98,353,-46,10
3425,-12,-257,-99,354,-48,6
3430,-13,-252,-102,357,-41,-5
3435,-12,-251,-105,362,-30,-17
3440,-12,-257,-106,371,-19,-27
3445,-13,-251,-108,382,-7,-39
3450,-19,-252,-104,394,2,-42
3455,-18,-251,-102,405,6,-44
3460,-14,-251,-104,416,8,-39
3465,-13,-249,-99,425,8,-36
3470,-13,-247,-97,437,4,-33
3475,-12,-241,-93,447,3,-29
3480,-12,-238,-88,460,2,-28
3485,-12,-243,-95,470,1,-31
3490,-10,-240,-96,475,4,-35
3495,-15,-240,-98,477,7,-43
3500,-19,-238,-96,483,11,-47
3505,-20,-240,-95,488,17,-54
3510,-19,-240,-94,492,23,-55
3515,-19,-238,-96,499,28,-56
3520,-20,-237,-98,506,34,-53
3525,-14,-240,-95,514,41,-49
3530,-18,-238,-98,525,47,-44
3535,-15,-243,-100,536,50,-42
3540,-16,-241,-98,547,51,-40
3545,-18,-242,-95,555,50,-41
3550,-13,-244,-95,560,48,-39
3555,-17,-239,-97,563,46,-43
3560,-17,-241,-99,561,45,-43
3565,-12,-239,-99,562,48,-50
3570,-14,-233,-96,562,56,-54
3575,-15,-230,-99,562,61,-58
3580,-10,-227,-94,564,67,-54
3585,-12,-227,-93,568,69,-51
3590,-14,-226,-88,569,68,-44
3595,-14,-231,-89,568,65,-43
3600,-18,-231,-91,565,59,-42
3605,-20,-230,-85,565,52,-45
3610,-23,-230,-86,564,48,-48
3615,-24,-234,-91,561,46,-55
3620,-23,-238,-88,561,45,-56
3625,-25,-237,-89,570,43,-58
3630,-20,-238,-86,585,37,-51
3635,-20,-238,-82,603,29,-48
3640,-19,-240,-76,624,18,-41
3645,-22,-238,-76,646,6,-38
3650,-17,-237,-77,666,-4,-32
3655,-17,-237,-79,683,-7,-33
3660,-18,-236,-80,694,-8,-30
3665,-14,-235,-80,700,-9,-34
3670,-12,-235,-77,704,-8,-35
3675,-13,-235,-74,703,-6,-41
3680,-16,-234,-73,701,-4,-43
3685,-14,-237,-75,697,1,-51
3690,-14,-234,-71,697,8,-55
3695,-13,-236,-69,697,17,-63
3700,-16,-237,-67,699,24,-64
3705,-12,-243,-61,705,29,-70
3710,-15,-246,-57,718,33,-73
3715,-18,-251,-49,733,36,-75
3720,-20,-254,-49,745,39,-67
3725,-26,-260,-47,751,39,-62
3730,-25,-268,-45,752,41,-52
3735,-26,-279,-47,740,40,-48
3740,-28,-291,-54,710,38,-40
3745,-34,-302,-58,664,29,-37
3750,-37,-316,-76,602,9,-23
3755,-45,-329,-88,508,-15,-11
3760,-38,-352,-106,361,-43,14
3765,-28,-399,-129,166,-59,33
3770,-13,-444,-146,-44,-41,34
3775,-22,-474,-126,-224,22,-2
3780,-29,-476,-94,-224,60,-46
3785,-30,-455,-71,-88,52,-94
3790,-28,-416,-65,123,6,-127
3795,-28,-368,-65,358,-59,-145
3800,-30,-324,-63,590,-116,-136
3805,-33,-263,-59,780,-148,-113
3810,-35,-200,-50,947,-165,-76
3815,-32,-156,-40,1015,-165,-44
3820,-31,-122,-30,962,-163,-12
3825,-32,-102,-19,761,-160,-7
3830,-29,-100,-10,510,-158,-12
3835,-24,-108,-10,239,-152,-35
3840,-20,-130,-8,-4,-140,-61
3845,-12,-155,-10,-195,-121,-89
3850,-9,-186,-17,-316,-97,-110
3855,-3,-207,-18,-364,-77,-127
3860,-2,-234,-27,-343,-60,-136
3865,1,-251,-30,-269,-49,-141
3870,2,-261,-31,-157,-44,-142
3875,0,-266,-33,-23,-45,-141
3880,3,-270,-33,138,-50,-138
3885,-4,-272,-33,257,-54,-138
3890,-3,-271,-36,346,-57,-139
3895,-6,-270,-33,396,-57,-143
3900,-6,-275,-36,411,-48,-144
3905,-8,-282,-37,397,-30,-145
3910,-1,-287,-45,364,-6,-148
3915,-3,-293,-41,331,18,-152
3920,2,-296,-44,303,41,-159
3925,6,-297,-47,283,68,-164
3930,6,-298,-50,268,87,-170
3935,7,-290,-52,263,101,-180
3940,4,-285,-50,267,110,-190
3945,1,-273,-48,279,112,-199
3950,0,-265,-42,292,105,-209
3955,-4,-256,-43,307,96,-217
3960,-4,-244,-35,318,80,-219
3965,-4,-240,-36,323,61,-216
3970,-10,-233,-35,318,40,-209
3975,-9,-236,-37,304,17,-191
3980,-10,-234,-42,281,-9,-176
3985,-9,-232,-40,260,-32,-163
3990,-9,-233,-32,237,-49,-154
3995,-8,-234,-29,214,-65,-148
4000,-10,-235,-28,194,-76,-146
4005,-7,-237,-30,176,-80,-146
4010,-8,-242,-30,159,-77,-150
4015,-9,-244,-31,148,-75,-155
4020,-8,-249,-32,145,-66,-163
4025,-7,-254,-33,148,-57,-168
4030,-6,-253,-36,159,-43,-180
4035,-1,-258,-31,177,-30,-185
4040,-3,-257,-32,197,-9,-189
4045,-1,-261,-35,216,11,-189
4050,-1,-260,-31,239,34,-189
4055,0,-259,-26,262,56,-182
4060,1,-259,-26,277,84,-178
4065,3,-257,-22,288,110,-168
4070,1,-255,-23,291,135,-161
4075,4,-255,-21,292,155,-148
4080,1,-249,-17,291,168,-135
4085,3,-251,-19,291,171,-122
4090,8,-254,-21,290,168,-115
4095,7,-248,-21,285,163,-106
4100,9,-246,-10,282,155,-102
4105,5,-251,-22,281,151,-94
4110,10,-253,-27,272,147,-95
4115,10,-252,-28,267,146,-94
4120,7,-252,-29,259,147,-103
4125,9,-251,-32,248,155,-106
4130,5,-249,-31,233,172,-116
4135,4,-249,-26,219,192,-118
4140,2,-248,-21,211,208,-122
4145,0,-250,-18,203,226,-119
4150,-2,-247,-15,199,239,-120
4155,-5,-251,-11,197,248,-112
4160,-10,-248,-9,190,252,-110
4165,-9,-250,-3,181,247,-103
4170,-11,-251,-7,171,243,-101
4175,-14,-249,-7,163,233,-94
4180,-16,-247,-3,152,221,-92
4185,-18,-247,-4,139,198,-86
4190,-13,-249,-8,131,177,-88
4195,-16,-251,-11,125,156,-82
4200,-12,-255,-8,117,134,-80
4205,-11,-255,-7,112,116,-71
4210,-6,-259,-7,112,101,-69
4215,-6,-260,-11,114,88,-61
4220,-3,-262,-6,122,79,-59
4225,-4,-262,-14,133,72,-55
4230,-1,-262,-11,144,68,-59
4235,1,-268,-8,159,68,-56
4240,0,-269,-8,172,75,-61
4245,3,-266,-10,188,85,-64
4250,5,-265,-8,202,101,-72
4255,6,-264,-6,213,122,-76
4260,5,-262,-7,221,146,-88
4265,5,-257,-9,221,171,-94
4270,7,-254,-8,220,196,-103
4275,6,-248,-6,214,217,-106
4280,7,-242,-5,204,230,-111
4285,4,-238,-5,192,237,-111
4290,5,-237,-1,175,237,-113
4295,4,-235,-6,160,231,-108
4300,4,-234,-11,144,225,-105
4305,7,-235,-11,125,215,-98
4310,6,-236,-11,111,199,-96
4315,7,-238,-12,97,187,-87
4320,6,-238,-12,85,172,-81
4325,11,-244,-15,76,154,-73
4330,5,-246,-13,74,136,-69
4335,5,-248,-9,78,112,-60
4340,9,-251,-17,87,94,-56
4345,6,-253,-17,94,76,-47
4350,6,-255,-13,103,61,-44
4355,9,-257,-13,112,49,-38
4360,4,-255,-13,117,41,-38
4365,1,-253,-12,120,36,-32
4370,2,-254,-10,120,35,-31
4375,-1,-253,-8,114,37,-24
4380,0,-254,-10,107,41,-22
4385,0,-252,-7,99,48,-21
4390,2,-255,-5,88,59,-22
4395,0,-255,-8,81,71,-22
4400,3,-250,-4,76,82,-28
4405,3,-253,-5,73,93,-28
4410,4,-252,-2,70,102,-30
4415,8,-250,0,71,107,-30
4420,9,-250,0,71,110,-30
4425,12,-253,-3,72,110,-27
4430,10,-250,-2,72,108,-24
4435,12,-251,-3,72,103,-21
4440,13,-250,-5,67,92,-21
4445,11,-247,-4,60,84,-18
4450,12,-249,-6,48,78,-18
4455,13,-250,-6,35,72,-18
4460,11,-248,-3,20,67,-20
4465,9,-247,-10,3,65,-22
4470,9,-245,-7,-14,65,-24
4475,10,-250,-5,-29,68,-26
4480,10,-253,-7,-43,71,-29
4485,5,-248,-8,-54,74,-31
4490,9,-252,-8,-65,80,-34
4495,7,-249,-5,-70,86,-34
4500,7,-249,-5,-73,92,-34
4505,7,-253,-3,-76,97,-32
4510,2,-250,-6,-75,99,-30
4515,4,-252,-9,-72,98,-31
4520,5,-254,-9,-68,95,-29
4525,12,-257,-7,-64,92,-28
4530,10,-253,-9,-61,91,-25
4535,10,-257,-10,-57,89,-24
4540,7,-258,-10,-54,85,-21
4545,8,-255,-12,-54,81,-21
4550,11,-257,-12,-52,77,-21
4555,12,-258,-13,-50,72,-23
4560,9,-255,-15,-51,67,-23
4565,8,-258,-15,-50,61,-24
4570,10,-260,-19,-50,58,-24
4575,9,-259,-14,-46,54,-28
4580,4,-260,-16,-44,52,-27
4585,5,-259,-12,-39,49,-29
4590,3,-260,-14,-35,51,-27
4595,0,-258,-12,-27,53,-27
4600,1,-258,-11,-20,57,-25
4605,3,-260,-10,-11,63,-24
4610,0,-260,-11,-4,68,-23
4615,2,-260,-9,2,73,-24
4620,2,-259,-12,5,76,-24
4625,1,-258,-10,5,80,-27
4630,2,-257,-10,5,84,-24
4635,3,-258,-9,3,88,-27
4640,1,-254,-10,-2,89,-25
4645,2,-255,-5,-6,91,-27
4650,5,-255,-10,-10,95,-26
4655,5,-256,-10,-14,96,-26
4660,3,-254,-13,-18,96,-24
4665,3,-254,-10,-21,98,-25
4670,6,-254,-9,-25,98,-23
4675,6,-254,-9,-25,98,-25
4680,7,-252,-7,-28,100,-21
4685,7,-254,-7,-28,102,-23
4690,12,-258,-9,-27,102,-18
4695,8,-254,-8,-24,103,-20
4700,8,-254,-8,-23,102,-19
4705,11,-257,-10,-23,102,-21
4710,8,-255,-8,-22,103,-18
4715,12,-256,-8,-22,104,-21
4720,10,-256,-11,-21,103,-20
4725,6,-255,-11,-21,105,-23
4730,11,-258,-10,-19,103,-21
4735,10,-258,-11,-17,103,-25
4740,7,-254,-11,-17,104,-23
4745,8,-254,-9,-16,104,-26
4750,7,-254,-9,-15,103,-23
4755,8,-256,-8,-16,102,-25
4760,7,-258,-12,-15,100,-25
4765,8,-257,-11,-17,98,-27
4770,7,-256,-9,-16,96,-22
4775,8,-254,-8,-16,96,-22
4780,6,-258,-8,-14,95,-18
4785,10,-258,-8,-11,93,-19
4790,7,-255,-4,-12,90,-14
4795,8,-256,-10,-11,86,-16
4800,6,-255,-5,-9,84,-10
4805,9,-255,-5,-9,82,-9
4810,7,-253,-9,-9,78,-5
4815,7,-252,-11,-9,77,-6
4820,5,-252,-9,-12,75,-3
4825,8,-254,-7,-14,75,-4
4830,6,-253,-13,-17,76,-1
4835,6,-252,-4,-19,76,-2
4840,6,-256,-8,-22,79,1
4845,8,-256,-9,-26,78,-2
4850,9,-258,-5,-27,79,-1
4855,2,-256,-3,-28,81,-5
4860,13,-256,-13,-30,84,-4
4865,-2,-252,-8,-30,89,-7
4870,9,-248,-12,-31,91,-4
4875,6,-258,-13,-32,94,-6
4880,9,-256,-9,-32,98,-4
4885,4,-255,-16,-30,98,-4
4890,9,-257,-9,-28,100,1
4895,8,-257,-11,-22,100,1
4900,8,-258,-9,-17,97,3
4905,7,-259,-10,-11,93,2
4910,8,-255,-10,-8,92,4
4915,9,-257,-7,-4,88,1
4920,10,-254,-12,-3,85,0
4925,13,-259,-14,-4,82,-1
4930,9,-258,-13,-8,79,-2
4935,8,-259,-12,-12,78,-4
4940,10,-258,-14,-18,74,-6
4945,9,-260,-15,-18,72,-8
4950,8,-259,-14,-17,71,-9
4955,7,-259,-11,-14,70,-11
4960,6,-257,-9,-9,71,-7
4965,6,-257,-13,-3,71,-8
4970,4,-254,-10,0,71,-4
4975,5,-254,-12,4,71,-4
4980,3,-256,-10,4,73,-2
4985,5,-258,-8,8,71,-3
4990,4,-250,-12,9,71,-2
4995,5,-254,-6,9,71,-2
5000,7,-253,-10,6,72,0
5005,5,-250,-6,3,72,-2
5010,4,-256,-7,0,72,-2
5015,6,-252,-6,-4,71,-4
5020,5,-253,-9,-7,71,-4
5025,8,-257,-9,-11,72,-6
5030,6,-257,-12,-15,71,-5
5035,6,-257,-14,-18,71,-7
5040,8,-258,-12,-20,73,-7
5045,8,-254,-10,-21,72,-9
5050,8,-255,-11,-19,75,-9
5055,6,-258,-11,-15,75,-10
5060,7,-257,-11,-9,77,-10
5065,6,-253,-8,-5,78,-11
5070,11,-257,-6,2,79,-11
5075,9,-256,-10,10,81,-9
5080,11,-254,-12,15,82,-10
5085,9,-254,-6,20,84,-8
5090,10,-253,-3,24,82,-8
5095,15,-254,-4,28,81,-8
5100,12,-256,-8,27,78,-8
5105,12,-253,-7,23,76,-8
5110,8,-255,-4,18,73,-11
5115,12,-253,-10,12,72,-10
5120,8,-253,-12,3,69,-11
5125,10,-252,-6,-7,67,-12
5130,8,-252,-11,-16,65,-13
5135,10,-253,-9,-26,64,-11
5140,11,-251,-10,-35,63,-13
5145,7,-254,-8,-40,65,-11
5150,10,-254,-10,-45,63,-9
5155,9,-254,-9,-48,62,-7
5160,7,-257,-10,-49,61,-6
5165,11,-257,-10,-47,59,-2
5170,11,-259,-12,-43,56,1
5175,11,-258,-13,-38,53,5
5180,11,-257,-13,-34,51,5
5185,10,-258,-15,-28,47,8
5190,11,-260,-13,-26,43,5
5195,9,-257,-12,-22,41,6
5200,7,-259,-16,-20,39,3
5205,9,-259,-13,-14,40,3
5210,9,-259,-16,-6,40,1
5215,8,-258,-14,0,42,2
5220,7,-257,-17,6,45,-2
5225,6,-259,-11,13,48,1
5230,10,-260,-13,17,51,-1
5235,6,-257,-13,23,54,1
5240,3,-259,-14,26,55,0
5245,8,-258,-9,30,57,4
5250,6,-256,-14,34,58,4
5255,2,-257,-11,38,58,8
5260,6,-254,-8,42,59,8
5265,7,-257,-7,45,60,12
5270,7,-256,-8,46,60,10
5275,8,-255,-4,49,62,13
5280,8,-254,-7,50,63,9
5285,8,-253,-4,49,64,12
5290,10,-252,-5,49,66,8
5295,9,-254,-5,45,67,9
5300,7,-248,-1,40,66,5
5305,6,-252,-1,34,66,5
5310,8,-248,0,26,63,2
5315,6,-251,-7,17,63,2
5320,4,-249,-5,10,60,-2
5325,5,-251,-5,-2,58,-1
5330,4,-252,-6,-13,58,-3
5335,5,-253,-3,-23,56,-1
5340,4,-252,-5,-30,58,-4
5345,5,-256,-7,-35,60,0
5350,6,-254,-6,-37,61,-3
5355,8,-258,-7,-36,62,0
5360,5,-258,-7,-32,63,-2
5365,5,-257,-8,-26,62,2
5370,5,-258,-9,-20,61,1
5375,6,-257,-6,-14,57,4
5380,4,-255,-8,-10,55,3
5385,6,-255,-8,-3,53,7
5390,5,-253,-7,-2,50,4
5395,6,-258,-8,0,48,5
5400,8,-256,-6,2,50,2
5405,7,-257,-8,4,52,5
5410,6,-257,-9,6,56,2
5415,7,-255,-8,8,61,4
5420,8,-254,-5,10,63,4
5425,9,-257,-9,10,66,6
5430,11,-254,-10,11,65,4
5435,12,-257,-11,9,64,5
5440,10,-255,-13,8,63,3
5445,14,-256,-12,8,59,5
5450,12,-257,-14,8,57,2
5455,10,-257,-12,8,51,4
5460,10,-256,-10,7,49,0
5465,11,-256,-8,8,48,1
5470,10,-256,-8,8,45,-2
5475,10,-256,-9,12,43,-1
5480,9,-258,-7,12,43,-4
5485,6,-253,-9,10,40,-4
5490,9,-256,-7,8,41,-3
5495,7,-254,-11,5,42,0
5500,8,-258,-7,2,45,-2
5505,4,-255,-4,-2,49,2
5510,4,-254,-5,-5,52,2
5515,4,-253,-3,-7,56,5
5520,5,-258,-5,-11,58,4
5525,2,-258,-5,-12,61,7
5530,3,-255,-6,-14,62,5
5535,6,-257,-2,-15,63,4
5540,6,-257,-4,-16,65,4
5545,4,-253,-4,-17,66,3
5550,6,-255,-6,-21,66,-2
5555,6,-252,-7,-23,67,-3
5560,5,-253,-4,-27,65,-7
5565,0,-251,-11,-31,67,-8
5570,6,-253,-6,-34,67,-9
5575,7,-253,-10,-36,66,-9
5580,8,-254,-8,-37,68,-11
5585,9,-258,-10,-38,68,-12
5590,8,-256,-8,-39,70,-11
5595,9,-254,-12,-37,69,-10
5600,10,-257,-12,-36,67,-11
5605,8,-256,-12,-33,67,-9
5610,11,-252,-14,-30,67,-10
5615,10,-258,-15,-27,66,-9
5620,9,-258,-12,-23,65,-10
5625,10,-257,-11,-19,64,-10
5630,8,-259,-9,-14,60,-11
5635,11,-257,-12,-9,57,-14
5640,9,-257,-7,-4,55,-13
5645,5,-256,-8,2,54,-15
5650,7,-258,-9,7,54,-15
5655,9,-257,-8,11,55,-18
5660,6,-257,-9,13,56,-16
5665,5,-255,-8,15,56,-15
5670,7,-252,-12,15,56,-15
5675,6,-255,-6,16,57,-15
5680,6,-253,-9,16,58,-13
5685,4,-255,-7,16,58,-16
5690,10,-256,-7,16,59,-12
5695,8,-254,-2,18,58,-13
5700,6,-252,-4,19,57,-13
5705,7,-254,-6,19,56,-15
5710,4,-252,-5,19,56,-15
5715,7,-254,-2,18,56,-15
5720,7,-255,-6,17,58,-12
5725,6,-256,-6,16,61,-14
5730,6,-253,0,16,63,-11
5735,8,-253,-5,14,65,-12
5740,9,-253,-5,11,66,-9
5745,10,-255,-6,8,68,-9
5750,7,-254,-8,6,71,-7
5755,7,-255,-4,4,71,-9
5760,9,-257,-7,0,73,-7
5765,9,-256,-4,-3,73,-9
5770,9,-255,-6,-7,73,-8
5775,10,-256,-7,-8,72,-10
5780,10,-258,-11,-11,70,-8
5785,8,-254,-12,-14,69,-11
5790,9,-256,-8,-15,68,-8
5795,6,-254,-9,-15,68,-10
5800,8,-254,-5,-17,66,-7
5805,10,-253,-6,-19,66,-8
5810,8,-254,-7,-21,65,-5
5815,10,-257,-7,-22,67,-7
5820,9,-257,-7,-22,67,-4
5825,6,-256,-7,-21,68,-5
5830,9,-255,-7,-20,71,-1
5835,8,-257,-7,-19,73,-2
5840,6,-254,-8,-18,76,0
5845,11,-256,-5,-16,77,-3
5850,4,-253,-10,-15,79,-2
5855,7,-257,-9,-13,81,-4
5860,7,-256,-6,-14,81,-3
5865,6,-256,-8,-12,80,-6
5870,7,-255,-6,-10,81,-5
5875,8,-255,-7,-10,80,-6
5880,8,-258,-6,-12,78,-4
5885,3,-253,-7,-10,79,-6
5890,9,-254,-9,-11,77,-5
5895,7,-257,-5,-8,74,-6
5900,4,-255,-5,-9,71,-4
5905,7,-255,-8,-7,71,-6
5910,8,-255,-8,-5,69,-2
5915,6,-257,-7,-3,68,-4
5920,9,-256,-9,-2,69,-2
5925,10,-258,-5,0,68,-3
5930,5,-255,-6,1,68,-1
5935,9,-256,-12,1,66,-3
5940,6,-255,-4,0,66,0
5945,8,-255,-6,1,64,-2
5950,8,-254,-8,1,64,-1
5955,8,-256,-9,2,62,-3
5960,8,-255,-4,3,61,-2
5965,8,-254,-6,2,61,-3
5970,4,-255,-13,1,60,-1
5975,8,-257,-6,0,61,-4
5980,9,-256,-6,1,62,-2
5985,7,-252,-5,0,63,-2
5990,5,-253,-7,-1,64,0
5995,10,-255,-4,-2,67,-2
6000,7,-255,-7,-4,68,-1
6005,10,-257,-6,-7,70,-4
6010,9,-254,-11,-11,69,-1
6015,6,-255,-4,-14,69,-4
6020,8,-255,-7,-16,68,-2
6025,8,-257,-9,-17,67,-4
6030,8,-257,-12,-19,66,-3
6035,9,-257,-9,-18,64,-5
6040,8,-255,-5,-15,63,-5
6045,12,-259,-7,-12,62,-5
6050,10,-255,-10,-10,61,-4
6055,7,-255,-6,-12,59,-5
6060,10,-259,-7,-10,58,-3
6065,9,-255,-8,-11,57,-6
6070,9,-258,-7,-11,57,-4
6075,9,-257,-8,-12,55,-5
6080,10,-258,-9,-10,55,-4
6085,6,-252,-4,-9,55,-5
6090,6,-255,-3,-8,54,-3
6095,8,-257,-1,-7,55,-3
6100,9,-255,-7,-5,58,-2
6105,10,-254,-6,-5,60,-3
6110,8,-256,-6,-6,61,-3
6115,8,-256,-8,-10,64,-5
6120,6,-256,-4,-10,65,-4
6125,8,-256,-4,-12,64,-6
6130,9,-254,-7,-13,66,-5
6135,10,-253,-3,-15,66,-5
6140,7,-251,-2,-18,66,-7
6145,8,-253,-4,-20,68,-7
6150,7,-254,-3,-23,66,-7
6155,8,-254,-5,-24,65,-8
6160,5,-254,-4,-25,63,-7
6165,7,-255,-9,-26,63,-8
6170,6,-255,-7,-27,63,-8
6175,10,-258,-7,-28,63,-8
6180,5,-256,-6,-27,62,-8
6185,9,-257,-6,-27,61,-9
6190,9,-255,-8,-25,60,-11
6195,8,-257,-12,-24,61,-9
6200,8,-255,-8,-25,59,-10
6205,10,-257,-5,-24,61,-7
6210,5,-254,-10,-22,62,-7
6215,9,-257,-4,-21,62,-6
6220,9,-257,-6,-21,62,-7
6225,8,-255,-8,-18,63,-7
6230,11,-256,-4,-16,63,-6
6235,8,-252,-8,-14,66,-5
6240,9,-259,-8,-13,67,-6
6245,9,-255,-7,-11,67,-3
6250,7,-256,-3,-11,67,-4
6255,10,-254,-5,-10,68,-4
6260,8,-254,-6,-9,69,-6
6265,8,-250,-7,-9,69,-4
6270,6,-257,-6,-10,71,-8
6275,8,-257,-10,-11,69,-8
6280,8,-255,-6,-11,69,-10
6285,4,-253,-7,-12,69,-10
6290,6,-254,-6,-13,68,-13
6295,8,-255,-4,-13,70,-12
6300,8,-255,-5,-11,70,-14
6305,8,-258,-8,-11,71,-11
6310,8,-256,-8,-10,71,-12
6315,6,-255,-4,-9,72,-12
6320,10,-254,-11,-8,72,-12
6325,8,-255,-3,-5,73,-9
6330,7,-254,-10,-5,71,-10
6335,7,-254,-10,-7,72,-7
6340,10,-255,-7,-6,71,-9
6345,11,-253,-9,-10,70,-6
6350,10,-255,-5,-10,68,-8
6355,7,-255,-8,-11,66,-5
6360,9,-256,-4,-11,65,-8
6365,8,-254,-2,-11,65,-5
6370,9,-255,-11,-10,64,-7
6375,7,-253,-10,-9,64,-6
6380,6,-255,-5,-8,63,-9
6385,7,-256,-6,-6,65,-7
6390,8,-257,-8,-4,66,-9
6395,11,-256,-3,-4,65,-7
6400,9,-256,-7,-2,65,-10
6405,8,-255,-8,-2,67,-7
6410,10,-256,-6,-4,69,-10
6415,8,-254,-7,-3,71,-8
6420,8,-257,-6,-4,72,-11
6425,7,-254,-5,-5,72,-11
6430,8,-254,-8,-7,72,-15
6435,6,-256,-8,-9,73,-13
6440,8,-252,-7,-13,74,-15
6445,3,-252,-5,-16,72,-14
6450,5,-254,-7,-16,73,-16
6455,5,-256,-3,-18,73,-13
6460,7,-258,-5,-17,74,-14
6465,7,-257,-4,-13,77,-11
6470,7,-259,-5,-7,79,-11
6475,9,-258,-9,-3,80,-6
6480,12,-257,-5,2,82,-8
6485,10,-255,-3,7,81,-5
6490,11,-254,-8,12,79,-4
6495,10,-250,-3,16,77,-1
6500,10,-251,-4,18,74,-2
6505,11,-254,-4,20,69,1
6510,11,-254,-3,20,64,-2
6515,9,-250,-3,19,60,0
6520,10,-252,-3,18,57,-3
6525,12,-251,2,13,54,-2
6530,11,-250,-5,12,53,-5
6535,11,-253,1,8,51,-2
6540,8,-254,-2,5,51,-4
6545,9,-255,-1,2,51,-2
6550,7,-252,-3,-2,54,-5
6555,6,-254,-2,-4,55,-1
6560,7,-254,-1,-5,56,-2
6565,7,-254,-4,-7,58,2
6570,7,-253,-3,-9,58,0
6575,7,-253,0,-12,58,2
6580,9,-254,-5,-14,60,0
6585,7,-253,1,-18,60,2
6590,11,-256,-6,-22,61,0
6595,12,-255,-2,-25,60,2
6600,12,-256,-3,-27,62,0
6605,11,-258,-6,-29,61,1
6610,8,-258,-7,-31,60,-3
6615,12,-259,-10,-33,59,-2
6620,10,-257,-13,-36,58,-7
6625,10,-257,-10,-37,58,-7
6630,10,-259,-14,-38,61,-10
6635,8,-258,-11,-35,63,-8
6640,7,-256,-13,-30,64,-10
6645,10,-255,-9,-25,66,-9
6650,9,-256,-10,-19,66,-10
6655,6,-255,-6,-13,67,-7
6660,9,-258,-9,-5,67,-6
6665,9,-257,-9,6,67,1
6670,6,-256,-7,15,68,2
6675,7,-258,-4,24,68,7
6680,6,-255,-3,30,68,7
6685,9,-258,-2,34,68,10
6690,9,-259,-7,32,67,12
6695,11,-261,-2,32,69,16
6700,8,-264,0,33,72,18
6705,9,-270,2,42,79,21
6710,10,-272,5,57,84,27
6715,12,-272,5,70,88,35
6720,11,-267,8,68,88,37
6725,9,-263,3,57,83,36
6730,2,-258,0,40,72,29
6735,1,-257,-3,6,54,26
6740,-4,-251,-2,-46,41,30
6745,1,-247,6,-129,32,42
6750,3,-246,8,-242,23,60
6755,10,-247,10,-359,4,70
6760,9,-243,10,-465,-30,58
6765,4,-239,-2,-576,-86,41
6770,4,-236,-18,-662,-135,20
6775,8,-232,-30,-752,-170,9
6780,7,-222,-43,-840,-187,0
6785,6,-213,-46,-921,-194,-2
6790,10,-205,-44,-992,-196,1
6795,9,-192,-37,-1064,-199,8
6800,10,-188,-38,-1144,-207,23
6805,13,-194,-39,-1224,-221,35
6810,13,-197,-46,-1284,-232,50
6815,14,-204,-50,-1328,-235,63
6820,13,-218,-49,-1346,-221,80
6825,17,-238,-45,-1332,-203,97
6830,16,-252,-41,-1273,-178,108
6835,17,-270,-37,-1177,-148,111
6840,17,-284,-27,-1043,-119,107
6845,17,-298,-26,-882,-94,95
6850,12,-305,-19,-706,-75,83
6855,8,-304,-19,-527,-57,68
6860,5,-303,-17,-355,-37,57
6865,6,-298,-17,-165,-12,55
6870,4,-293,-16,-27,10,60
6875,2,-282,-20,83,27,67
6880,-2,-271,-22,158,40,75
6885,-2,-261,-24,196,44,80
6890,-4,-258,-21,202,48,84
6895,-4,-250,-23,179,46,82
6900,-7,-247,-18,135,45,79
6905,-3,-246,-19,81,42,69
6910,-3,-244,-20,22,39,60
6915,-3,-242,-19,-46,30,48
6920,-6,-238,-20,-96,25,40
6925,-2,-245,-19,-135,16,34
6930,-6,-247,-22,-162,11,34
6935,-4,-250,-20,-175,3,33
6940,-9,-249,-23,-177,-2,35
6945,-4,-253,-27,-173,-10,35
6950,-5,-251,-27,-171,-18,40
6955,-3,-245,-29,-173,-25,40
6960,-2,-247,-30,-179,-29,44
6965,-3,-244,-32,-187,-34,44
6970,-3,-241,-31,-197,-34,48
6975,2,-241,-28,-211,-32,49
6980,2,-241,-33,-229,-29,51
6985,6,-242,-28,-248,-22,51
6990,9,-244,-37,-269,-14,54
6995,10,-246,-32,-291,-3,56
7000,12,-250,-34,-316,8,65
7005,14,-250,-33,-339,17,69
7010,16,-253,-31,-364,24,76
7015,15,-252,-28,-394,24,71
7020,19,-249,-31,-429,21,68
7025,17,-247,-32,-461,16,60
7030,19,-249,-34,-498,10,57
7035,16,-248,-34,-531,5,47
7040,10,-249,-37,-563,1,40
7045,10,-250,-41,-592,-1,28
7050,6,-248,-37,-607,-1,24
7055,10,-254,-40,-610,2,17
7060,9,-253,-38,-597,7,21
7065,9,-255,-43,-573,9,24
7070,7,-254,-45,-534,8,34
7075,7,-253,-40,-496,6,43
7080,7,-248,-38,-456,8,56
7085,6,-240,-36,-421,7,63
7090,1,-234,-32,-404,8,74
7095,0,-226,-30,-408,8,77
7100,-4,-221,-27,-422,4,88
7105,-6,-218,-25,-441,-4,96
7110,-9,-215,-25,-462,-15,118
7115,-7,-218,-25,-490,-30,140
7120,-8,-225,-21,-527,-45,164
7125,-3,-224,-17,-554,-61,183
7130,-1,-222,-12,-583,-74,204
7135,-2,-219,-11,-608,-81,215
7140,-7,-223,-16,-641,-86,227
7145,-1,-230,-23,-687,-92,232
7150,-1,-244,-32,-731,-96,237
7155,0,-254,-41,-773,-91,230
7160,-5,-255,-54,-805,-89,226
7165,-12,-258,-60,-832,-82,224
7170,-7,-269,-72,-856,-72,233
7175,-11,-273,-72,-871,-50,242
7180,-13,-284,-75,-869,-35,259
7185,-17,-293,-74,-833,-28,279
7190,-25,-289,-82,-767,-35,300
7195,-31,-270,-97,-683,-65,306
7200,-40,-235,-115,-610,-137,298
7205,-50,-201,-138,-574,-235,271
7210,-66,-179,-144,-610,-322,251
7215,-72,-173,-135,-713,-379,250
7220,-63,-184,-111,-893,-387,277
7225,-46,-206,-75,-1043,-340,324
7230,-19,-241,-35,-1163,-272,379
7235,12,-266,-8,-1255,-218,411
7240,27,-291,1,-1326,-186,417
7245,49,-309,-18,-1393,-175,388
7250,53,-318,-44,-1458,-161,336
7255,54,-325,-72,-1507,-124,277
7260,45,-330,-93,-1532,-60,228
7265,31,-339,-108,-1524,13,191
7270,7,-351,-114,-1460,83,178
7275,-4,-361,-120,-1384,100,172
7280,-14,-367,-119,-1309,85,172
7285,-31,-370,-116,-1258,48,167
7290,-41,-374,-123,-1237,-6,161
7295,-46,-376,-120,-1231,-64,146
7300,-63,-376,-123,-1228,-121,121
7305,-42,-370,-132,-1223,-184,113
7310,-36,-368,-148,-1220,-222,101
7315,-28,-355,-159,-1193,-223,91
7320,-13,-339,-157,-1136,-180,94
7325,-3,-330,-168,-1088,-136,99
7330,2,-328,-170,-1058,-93,113
7335,4,-323,-177,-1056,-55,124
7340,2,-321,-177,-1070,-8,131
7345,-10,-314,-177,-1093,41,130
7350,-21,-315,-179,-1119,80,119
7355,-33,-300,-168,-1132,108,105
7360,-42,-300,-166,-1168,124,101
7365,-49,-298,-162,-1199,126,106
7370,-51,-291,-160,-1228,111,114
7375,-57,-277,-167,-1249,85,121
7380,-57,-274,-172,-1287,56,130
7385,-50,-274,-180,-1317,35,141
7390,-44,-266,-176,-1313,14,151
7395,-39,-262,-179,-1322,8,154
7400,-28,-277,-202,-1351,17,155
7405,-28,-277,-198,-1334,34,155
7410,-32,-274,-199,-1327,65,154
7415,-33,-278,-209,-1321,86,155
7420,-34,-280,-207,-1284,95,152
7425,-38,-284,-207,-1238,92,151
7430,-36,-280,-206,-1168,87,147
7435,-35,-284,-207,-1094,83,144
7440,-33,-282,-211,-1024,84,137
7445,-38,-280,-210,-970,91,130
7450,-37,-280,-219,-931,103,113
7455,-45,-281,-229,-904,123,96
7460,-46,-282,-232,-889,148,78
7465,-44,-277,-237,-864,176,78
7470,-43,-265,-229,-815,206,86
7475,-41,-263,-232,-777,219,103
7480,-39,-258,-233,-737,214,120
7485,-40,-255,-230,-696,191,138
7490,-36,-257,-232,-638,164,146
7495,-36,-251,-227,-570,135,144
7500,-36,-247,-221,-505,116,129
7505,-37,-245,-217,-451,108,108
7510,-35,-243,-217,-422,116,80
7515,-36,-233,-217,-422,134,52
7520,-35,-229,-224,-451,166,30
7525,-34,-220,-223,-497,205,19
7530,-31,-223,-223,-557,246,6
7535,-29,-225,-218,-619,291,-3
7540,-27,-231,-219,-671,335,-10
7545,-22,-232,-212,-713,371,-10
7550,-17,-238,-204,-746,396,-9
7555,-15,-243,-201,-772,419,-4
7560,-16,-237,-200,-791,428,-9
7565,-11,-234,-200,-814,427,-9
7570,-12,-228,-194,-847,405,-19
7575,-10,-224,-188,-881,377,-20
7580,-7,-215,-187,-910,331,-25
7585,-6,-208,-178,-947,272,-28
7590,-3,-209,-185,-978,210,-38
7595,-2,-216,-186,-1000,154,-44
7600,2,-218,-192,-1003,130,-58
7605,1,-224,-198,-991,126,-70
7610,7,-228,-197,-961,143,-90
7615,4,-225,-194,-907,180,-109
7620,0,-217,-184,-850,234,-131
7625,-2,-215,-183,-786,280,-134
7630,-6,-218,-174,-744,327,-136
7635,-7,-215,-170,-706,351,-132
7640,-6,-216,-176,-679,362,-127
7645,-10,-217,-175,-656,363,-114
7650,-10,-219,-187,-621,351,-104
7655,-5,-222,-189,-585,333,-89
7660,-4,-222,-202,-556,316,-81
7665,-5,-227,-212,-534,305,-74
7670,-6,-229,-214,-525,314,-82
7675,-1,-232,-214,-510,333,-85
7680,-4,-235,-218,-490,362,-94
7685,-2,-237,-211,-448,396,-98
7690,-4,-236,-206,-385,423,-105
7695,-1,-230,-205,-306,443,-103
7700,-2,-230,-200,-219,456,-102
7705,2,-227,-194,-133,466,-89
7710,0,-221,-192,-57,481,-78
7715,1,-217,-186,15,501,-54
7720,4,-208,-184,78,530,-26
7725,0,-203,-181,145,549,1
7730,-1,-201,-181,190,557,24
7735,-4,-194,-181,224,555,45
7740,-2,-191,-183,244,545,57
7745,-1,-189,-185,253,538,71
7750,-5,-190,-185,263,538,81
7755,-6,-184,-184,279,538,96
7760,-10,-186,-183,299,532,106
7765,-9,-184,-184,325,518,119
7770,-5,-188,-184,353,500,127
7775,-3,-191,-186,385,491,135
7780,3,-193,-183,413,492,132
7785,5,-196,-175,448,496,126
7790,5,-196,-170,498,497,114
7795,5,-197,-164,550,491,103
7800,3,-196,-158,602,480,84
7805,14,-197,-154,656,468,78
7810,20,-195,-154,717,462,74
7815,28,-193,-157,766,458,67
7820,26,-192,-152,794,456,50
7825,30,-192,-149,812,454,38
7830,30,-190,-140,823,447,21
7835,29,-190,-133,837,438,5
7840,30,-193,-124,848,426,-16
7845,29,-193,-121,857,414,-40
7850,22,-195,-116,874,405,-65
7855,19,-196,-108,896,399,-86
7860,17,-196,-99,929,399,-105
7865,8,-192,-92,981,406,-120
7870,8,-189,-80,1043,421,-131
7875,7,-182,-71,1131,445,-133
7880,4,-178,-61,1212,463,-133
7885,-2,-167,-54,1304,473,-126
7890,-4,-158,-44,1399,482,-115
7895,-3,-145,-38,1492,490,-97
7900,-5,-134,-36,1572,501,-84
7905,-5,-124,-27,1644,512,-70
7910,-4,-111,-24,1709,525,-56
7915,-1,-100,-16,1776,544,-37
7920,3,-88,-17,1838,564,-15
7925,0,-73,-16,1905,587,8
7930,6,-62,-14,1944,599,25
7935,4,-48,-22,1972,608,42
7940,6,-34,-29,1971,605,46
7945,9,-21,-42,1935,595,45
7950,18,-15,-35,1882,594,38
7955,19,-3,-39,1854,604,21
7960,26,1,-48,1845,612,-5
7965,18,9,-59,1823,606,-49
7970,4,19,-74,1768,576,-101
7975,-11,22,-90,1700,507,-146
7980,-12,25,-108,1602,435,-153
7985,-17,29,-129,1496,366,-150
7990,-30,11,-155,1378,316,-163
7995,-28,31,-185,1250,290,-171
8000,-19,19,-207,1098,297,-170
8005,-18,9,-231,920,329,-174
8010,-15,-5,-244,721,373,-184
8015,-12,-21,-249,511,418,-198
8020,-10,-49,-241,311,460,-211
8025,-9,-79,-233,151,521,-226
8030,-8,-105,-216,38,577,-230
8035,-4,-130,-203,21,625,-222
8040,7,-149,-189,70,653,-200
8045,13,-159,-183,153,652,-176
8050,23,-171,-170,240,614,-143
8055,24,-176,-164,310,544,-106
8060,31,-184,-153,363,446,-59
8065,31,-193,-141,396,331,-8
8070,32,-206,-122,420,211,51
8075,29,-227,-108,441,83,119
8080,33,-235,-95,473,-81,172
8085,28,-244,-81,509,-213,218
8090,28,-253,-64,562,-328,260
8095,25,-260,-58,630,-419,306
8100,18,-273,-57,715,-480,366
8105,20,-283,-65,810,-513,426
8110,23,-300,-77,901,-524,490
8115,29,-314,-98,975,-515,541
8120,38,-323,-128,1014,-486,578
8125,49,-327,-157,1007,-429,587
8130,53,-329,-175,958,-309,579
8135,60,-334,-194,901,-166,558
8140,56,-334,-199,848,3,522
8145,52,-329,-189,805,173,462
8150,46,-323,-176,778,312,388
8155,34,-317,-156,762,417,298
8160,14,-310,-138,765,495,207
8165,7,-286,-125,792,555,114
8170,4,-284,-99,851,600,40
8175,-4,-260,-72,942,627,-25
8180,-25,-241,-55,1056,636,-71
8185,-23,-229,-32,1207,621,-94
8190,-33,-205,-37,1321,585,-105
8195,-34,-188,-38,1391,534,-114
8200,-38,-163,-47,1395,476,-116
8205,-30,-148,-61,1325,423,-119
8210,-31,-133,-72,1175,383,-117
8215,-30,-119,-89,955,357,-118
8220,-28,-113,-95,677,343,-110
8225,-27,-117,-101,364,332,-105
8230,-24,-133,-100,51,312,-91
8235,-23,-149,-107,-295,288,-84
8240,-18,-174,-113,-534,250,-74
8245,-13,-196,-118,-715,202,-78
8250,-14,-209,-121,-835,145,-81
8255,-12,-224,-132,-897,84,-88
8260,-10,-243,-136,-914,22,-84
8265,-8,-251,-149,-894,-40,-77
8270,1,-259,-149,-833,-96,-54
8275,-2,-264,-145,-749,-147,-34
8280,9,-263,-158,-657,-200,-3
8285,12,-264,-155,-527,-236,18
8290,19,-266,-155,-402,-267,37
8295,19,-259,-155,-260,-298,46
8300,23,-255,-147,-103,-326,57
8305,25,-253,-130,51,-349,57
8310,33,-254,-118,192,-357,55
8315,37,-258,-102,312,-345,40
8320,42,-263,-85,397,-313,25
8325,42,-271,-76,445,-267,5
8330,42,-279,-68,467,-214,-9
8335,39,-282,-66,463,-142,-20
8340,39,-283,-70,430,-80,-26
8345,32,-278,-75,383,-17,-37
8350,28,-277,-80,330,38,-46
8355,20,-267,-84,293,83,-59
8360,15,-261,-88,281,111,-67
8365,11,-262,-90,292,126,-80
8370,5,-254,-98,319,123,-88
8375,-2,-242,-104,345,110,-99
8380,-6,-229,-102,358,90,-106
8385,-7,-221,-107,352,55,-114
8390,-8,-216,-109,324,22,-113
8395,-10,-216,-107,283,-11,-113
8400,-11,-217,-107,235,-46,-108
8405,-12,-217,-107,184,-83,-104
8410,-10,-225,-101,140,-121,-92
8415,-9,-234,-102,106,-157,-81
8420,-6,-237,-100,85,-185,-67
8425,-1,-241,-97,78,-207,-58
8430,1,-239,-98,79,-221,-43
8435,4,-235,-91,82,-226,-39
8440,10,-232,-96,81,-221,-29
8445,14,-225,-94,73,-208,-24
8450,16,-219,-92,56,-191,-15
8455,18,-216,-95,35,-177,-11
8460,17,-213,-88,10,-168,-4
8465,16,-212,-85,-12,-166,0
8470,13,-210,-84,-26,-174,6
8475,11,-212,-82,-38,-187,7
8480,11,-215,-82,-46,-202,10
8485,13,-221,-80,-57,-212,9
8490,16,-224,-82,-64,-211,14
8495,19,-232,-83,-74,-199,18
8500,24,-233,-83,-88,-179,26
8505,31,-235,-95,-103,-150,34
8510,34,-234,-94,-126,-112,44
8515,37,-241,-98,-156,-66,50
8520,43,-239,-105,-190,-22,54
8525,43,-241,-106,-224,21,55
8530,48,-245,-107,-252,57,55
8535,47,-248,-110,-267,90,49
8540,45,-250,-107,-264,109,43
8545,43,-249,-103,-249,120,33
8550,35,-248,-107,-226,122,23
8555,35,-245,-105,-200,117,12
8560,28,-248,-107,-177,110,1
8565,24,-242,-106,-159,101,-10
8570,20,-245,-105,-147,92,-17
8575,15,-240,-104,-137,85,-23
8580,8,-241,-102,-130,78,-28
8585,4,-239,-97,-128,72,-32
8590,1,-240,-99,-123,69,-33
8595,-4,-238,-95,-115,63,-34
8600,-8,-237,-90,-103,55,-34
8605,-12,-235,-89,-86,45,-35
8610,-12,-236,-83,-66,32,-36
8615,-11,-237,-78,-45,21,-37
8620,-12,-237,-76,-23,13,-40
8625,-11,-236,-75,-8,7,-41
8630,-5,-238,-72,6,10,-44
8635,-2,-236,-69,13,20,-45
8640,0,-241,-67,13,30,-45
8645,5,-243,-62,12,43,-45
8650,7,-243,-64,10,53,-42
8655,10,-247,-61,11,62,-37
8660,14,-252,-64,14,68,-33
8665,20,-257,-64,24,70,-28
8670,23,-260,-60,33,72,-25
8675,24,-260,-67,43,72,-20
8680,24,-262,-67,51,71,-22
8685,24,-265,-69,57,70,-20
8690,28,-264,-77,56,69,-22
8695,28,-265,-82,52,70,-23
8700,29,-265,-85,43,72,-26
8705,25,-264,-93,30,71,-28
8710,21,-261,-91,14,68,-30
8715,25,-265,-89,-3,67,-27
8720,15,-261,-87,-15,62,-26
8725,14,-258,-89,-18,57,-18
8730,12,-255,-83,-17,49,-14
8735,12,-252,-87,-6,41,-5
8740,12,-247,-85,8,34,0
8745,11,-246,-85,21,28,5
8750,11,-240,-88,31,22,5
8755,12,-243,-86,35,22,9
8760,13,-239,-88,33,22,9
8765,14,-237,-84,28,25,10
8770,14,-237,-84,21,33,8
8775,15,-240,-87,17,42,10
8780,18,-238,-84,15,51,8
8785,15,-237,-82,17,63,9
8790,16,-239,-77,20,72,6
8795,18,-242,-75,26,80,9
8800,17,-240,-73,35,85,7
8805,17,-241,-74,43,87,9
8810,19,-243,-72,51,87,8
8815,20,-246,-73,57,88,10
8820,19,-247,-72,59,88,5
8825,19,-245,-72,58,84,5
8830,18,-243,-69,51,83,1
8835,15,-247,-69,46,80,3
8840,17,-247,-67,42,76,0
8845,16,-248,-69,40,76,2
8850,11,-248,-67,44,76,0
8855,13,-248,-67,47,79,3
8860,15,-251,-66,52,82,2
8865,13,-249,-66,55,89,5
8870,14,-247,-62,56,97,4
8875,12,-253,-65,54,105,9
8880,16,-251,-64,52,111,8
8885,12,-253,-65,46,116,12
8890,11,-255,-66,39,117,10
8895,13,-254,-68,34,117,11
8900,16,-257,-68,30,114,7
8905,14,-256,-66,26,114,7
8910,12,-258,-72,24,111,3
8915,15,-259,-73,24,113,3
8920,14,-259,-73,26,116,-1
8925,14,-257,-73,32,122,0
8930,17,-257,-73,39,128,-4
8935,15,-253,-75,47,132,-1
8940,14,-256,-71,57,135,-4
8945,16,-249,-71,66,134,-2
8950,16,-249,-72,71,133,-3
8955,15,-244,-71,75,128,1
8960,16,-243,-72,75,122,-1
8965,17,-242,-73,75,115,2
8970,16,-243,-72,69,108,0
8975,19,-243,-75,62,103,3
8980,17,-243,-77,52,99,1
8985,18,-242,-74,40,96,3
8990,16,-242,-72,28,91,1
8995,19,-242,-72,17,91,2
9000,20,-244,-69,8,91,0
9005,17,-243,-71,2,89,2
9010,21,-244,-68,0,89,2
9015,15,-245,-66,3,93,3
9020,17,-242,-72,6,97,0
9025,18,-241,-72,9,101,0
9030,16,-241,-70,10,106,-3
9035,16,-243,-73,9,113,-2
9040,15,-240,-77,7,115,-5
9045,14,-243,-71,4,116,-4
9050,14,-243,-72,5,114,-8
9055,16,-246,-71,3,110,-5
9060,12,-244,-74,3,107,-7
9065,14,-249,-73,3,106,-6
9070,14,-247,-72,3,108,-6
9075,16,-248,-74,2,109,-5
9080,18,-247,-71,1,114,-4
9085,18,-250,-73,-2,118,-2
9090,18,-252,-70,-5,124,-4
9095,20,-248,-76,-5,132,-2
9100,17,-248,-71,-5,138,-3
9105,16,-249,-73,-2,143,-1
9110,16,-249,-70,1,151,-1
9115,18,-252,-71,7,156,1
9120,17,-251,-68,15,161,0
9125,15,-250,-72,25,165,1
9130,19,-250,-71,39,168,0
9135,15,-247,-73,44,171,1
9140,15,-248,-71,48,171,1
9145,16,-246,-72,45,171,3
9150,16,-247,-75,37,168,2
9155,17,-248,-69,28,167,6
9160,13,-245,-71,21,165,5
9165,12,-246,-70,17,161,9
9170,16,-249,-71,13,160,9
9175,12,-246,-72,10,155,12
9180,10,-247,-68,11,151,13
9185,10,-245,-75,10,147,14
9190,8,-244,-70,7,141,15
9195,11,-245,-70,4,134,15
9200,9,-246,-69,0,127,13
9205,11,-249,-68,-4,120,13
9210,6,-245,-69,-8,114,11
9215,9,-248,-70,-6,108,11
9220,10,-249,-68,-5,100,10
9225,10,-252,-69,2,92,8
9230,8,-250,-70,11,84,10
9235,11,-251,-67,23,80,8
9240,10,-251,-71,35,77,10
9245,11,-248,-72,43,80,10
9250,11,-247,-72,48,82,9
9255,13,-248,-72,46,89,10
9260,14,-248,-72,43,95,10
9265,11,-245,-72,36,102,9
9270,12,-245,-72,30,104,12
9275,15,-248,-71,25,105,11
9280,15,-247,-70,20,106,10
9285,15,-246,-72,16,106,7
9290,14,-246,-67,10,103,7
9295,15,-247,-73,4,100,6
9300,14,-245,-69,0,98,5
9305,14,-245,-69,-1,95,6
9310,12,-249,-67,-4,94,6
9315,15,-249,-68,-3,93,5
9320,13,-247,-63,-1,93,8
9325,12,-249,-71,1,92,7
9330,12,-249,-66,6,91,10
9335,13,-248,-66,8,89,8
9340,15,-249,-71,7,90,8
9345,15,-252,-68,3,87,8
9350,14,-250,-72,-2,89,8
9355,10,-248,-69,-9,91,4
9360,10,-248,-73,-15,92,4
9365,12,-249,-73,-19,96,2
9370,10,-248,-71,-20,96,6
9375,11,-248,-72,-22,96,1
9380,10,-244,-71,-20,94,4
9385,12,-249,-71,-19,90,1
9390,11,-243,-70,-17,85,3
9395,11,-244,-71,-15,79,1
9400,13,-243,-67,-13,72,3
9405,12,-244,-73,-14,66,3
9410,12,-249,-73,-16,62,7
9415,14,-246,-70,-19,58,5
9420,15,-248,-75,-26,54,8
9425,13,-249,-77,-30,53,8
9430,8,-245,-77,-37,50,12
9435,16,-250,-73,-44,49,10
9440,15,-251,-74,-49,48,13
9445,15,-249,-76,-52,46,11
9450,15,-251,-71,-52,44,11
9455,14,-250,-71,-48,45,9
9460,16,-248,-71,-42,44,9
9465,13,-246,-74,-38,43,4
9470,16,-248,-75,-32,44,5
9475,17,-248,-69,-27,45,1
9480,15,-247,-72,-21,46,1
9485,16,-247,-72,-17,47,-3
9490,14,-247,-71,-13,49,1
9495,12,-246,-73,-6,47,-1
9500,14,-247,-69,-2,45,0
9505,14,-251,-71,3,45,-2
9510,14,-248,-72,5,44,2
9515,17,-249,-73,8,41,-3
9520,15,-249,-71,8,41,0
9525,12,-250,-70,7,41,-4
9530,14,-250,-74,3,43,-1
9535,16,-250,-75,0,45,-5
9540,16,-248,-72,-2,49,-4
9545,16,-245,-71,-4,52,-9
9550,16,-245,-70,-4,55,-7
9555,15,-247,-70,-5,57,-11
9560,18,-244,-77,-7,59,-9
9565,16,-246,-74,-8,65,-14
9570,16,-244,-71,-14,67,-13
9575,16,-245,-73,-22,70,-17
9580,15,-245,-76,-32,70,-14
9585,15,-247,-75,-45,70,-16
9590,16,-246,-76,-54,69,-14
9595,18,-245,-79,-61,71,-15
9600,15,-247,-75,-62,71,-13
9605,14,-245,-79,-60,73,-15
9610,18,-250,-77,-52,73,-10
9615,16,-249,-75,-44,74,-10
9620,16,-248,-72,-38,71,-7
9625,11,-246,-71,-32,65,-9
9630,12,-241,-76,-29,59,-7
9635,12,-245,-76,-25,51,-9
9640,13,-242,-75,-27,44,-7
9645,11,-244,-78,-30,36,-10
9650,10,-244,-73,-33,33,-10
9655,11,-244,-75,-39,30,-12
9660,12,-245,-74,-42,28,-12
9665,14,-246,-73,-45,28,-15
9670,16,-245,-74,-50,32,-14
9675,11,-250,-76,-54,36,-16
9680,13,-249,-79,-57,39,-15
9685,18,-253,-77,-59,45,-16
9690,14,-251,-73,-58,48,-15
9695,19,-253,-79,-59,56,-18
9700,18,-249,-79,-60,61,-16
9705,17,-250,-77,-63,63,-16
9710,16,-248,-79,-62,65,-15
9715,21,-250,-80,-59,68,-16
9720,18,-250,-78,-54,70,-14
9725,19,-248,-74,-49,72,-12
9730,19,-249,-76,-42,73,-11
9735,17,-245,-77,-36,73,-10
9740,18,-245,-74,-31,70,-8
9745,16,-245,-76,-27,66,-8
9750,16,-246,-77,-25,64,-6
9755,14,-244,-76,-24,63,-7
9760,16,-245,-77,-23,64,-7
9765,13,-243,-75,-26,67,-6
9770,17,-246,-75,-27,68,-6
9775,16,-243,-75,-31,70,-6
9780,16,-245,-78,-38,74,-6
9785,17,-248,-74,-44,75,-6
9790,17,-248,-74,-48,79,-5
9795,16,-248,-77,-50,85,-5
9800,18,-248,-73,-49,87,-3
9805,17,-248,-76,-48,88,-2
9810,18,-246,-76,-45,88,0
9815,14,-249,-71,-43,88,-1
9820,15,-247,-71,-42,89,-1
9825,17,-249,-73,-41,86,0
9830,15,-246,-73,-44,83,-2
9835,14,-245,-75,-45,80,-3
9840,13,-245,-72,-47,77,-3
9845,14,-247,-76,-49,74,-4
9850,15,-249,-74,-50,73,-5
9855,15,-248,-76,-50,73,-5
9860,13,-248,-79,-51,74,-5
9865,13,-250,-78,-50,75,-3
9870,14,-248,-79,-46,77,-4
9875,11,-247,-78,-43,77,-1
9880,13,-249,-82,-39,78,0
9885,15,-246,-80,-33,81,1
9890,16,-251,-78,-29,81,5
9895,14,-249,-78,-24,83,8
9900,16,-253,-77,-19,85,8
9905,16,-248,-74,-17,89,12
9910,17,-250,-76,-17,90,12
9915,15,-250,-75,-17,92,12
9920,16,-247,-80,-18,93,11
9925,17,-251,-80,-20,91,13
9930,14,-247,-80,-22,92,10
9935,15,-249,-78,-24,92,11
9940,15,-245,-81,-24,89,10
9945,14,-245,-79,-23,89,9
9950,12,-246,-77,-21,88,6
9955,10,-242,-79,-19,86,7
9960,15,-244,-77,-17,85,3
9965,14,-242,-77,-18,83,4
9970,11,-244,-76,-18,78,1
9975,9,-242,-76,-16,73,3
9980,13,-246,-78,-15,69,2
9985,7,-244,-75,-14,65,3
9990,11,-243,-76,-14,60,2
9995,11,-244,-78,-14,59,3
10000,13,-246,-79,-15,58,2
10005,10,-244,-75,-18,58,4
10010,11,-245,-78,-22,59,2
10015,13,-245,-78,-26,58,3
10020,14,-245,-77,-27,57,1
10025,13,-248,-72,-29,57,3
10030,14,-249,-77,-28,57,-1
10035,13,-249,-77,-24,58,1
10040,15,-250,-78,-23,59,-2
10045,13,-246,-78,-23,63,0
10050,15,-248,-78,-22,67,-3
10055,16,-247,-80,-22,71,-1
10060,13,-246,-79,-22,74,-4
10065,14,-249,-81,-23,78,-2
10070,13,-248,-74,-21,79,-3
10075,16,-244,-80,-19,80,0
10080,15,-243,-75,-19,79,-2
10085,12,-244,-78,-17,77,1
10090,15,-246,-79,-18,76,0
10095,12,-244,-77,-19,71,3
10100,15,-245,-76,-19,68,1
10105,11,-242,-77,-19,67,5
10110,15,-248,-80,-19,67,3
10115,15,-247,-74,-19,71,7
10120,16,-246,-78,-19,72,5
10125,12,-243,-79,-19,77,7
10130,15,-244,-73,-21,77,5
10135,13,-245,-80,-24,79,6
10140,15,-244,-74,-28,79,3
10145,17,-246,-81,-32,77,4
10150,15,-247,-75,-35,76,0
10155,13,-243,-75,-35,74,2
10160,15,-246,-75,-35,71,-1
10165,12,-244,-81,-36,68,1
10170,13,-245,-79,-37,63,0
10175,11,-243,-73,-37,61,1
10180,13,-246,-73,-38,58,0
10185,12,-246,-76,-38,58,4
10190,14,-247,-76,-36,59,4
10195,13,-246,-78,-32,60,8
10200,10,-250,-77,-29,61,5
10205,13,-252,-75,-26,60,8
10210,11,-250,-75,-23,59,5
10215,14,-251,-78,-17,58,9
10220,15,-248,-75,-13,58,5
10225,11,-245,-79,-12,59,6
10230,10,-248,-78,-11,60,3
10235,11,-247,-78,-11,60,4
10240,12,-246,-80,-12,61,2
10245,13,-247,-79,-14,61,2
10250,15,-249,-75,-14,62,-1
10255,14,-245,-82,-16,63,1
10260,12,-246,-79,-16,64,-2
10265,13,-246,-76,-16,68,1
10270,13,-244,-79,-17,70,0
10275,13,-249,-79,-17,72,1
10280,16,-248,-74,-15,72,1
10285,14,-249,-72,-17,74,1
10290,14,-249,-78,-17,74,2
10295,14,-246,-78,-17,75,4
10300,14,-248,-73,-17,76,3
10305,17,-248,-79,-14,75,6
10310,17,-249,-75,-14,75,4
10315,12,-250,-76,-12,74,7
10320,14,-250,-76,-9,73,6
10325,11,-246,-75,-6,72,7
10330,15,-246,-77,-2,69,6
10335,14,-247,-79,2,68,7
10340,14,-246,-77,4,66,4
10345,12,-246,-75,8,66,4
10350,13,-247,-79,10,63,3
10355,14,-244,-79,10,65,3
10360,11,-248,-80,10,65,-1
10365,12,-245,-80,6,66,0
10370,12,-246,-77,2,68,-3
10375,16,-245,-76,-2,70,-4
10380,13,-240,-78,-5,73,-4
10385,12,-245,-74,-8,75,-5
10390,12,-246,-75,-11,80,-7
10395,15,-246,-79,-13,80,-6
10400,13,-244,-72,-15,81,-6
10405,13,-246,-75,-18,84,-6
10410,14,-246,-76,-20,83,-5
10415,13,-245,-77,-23,83,-6
10420,12,-247,-72,-24,79,-7
10425,11,-249,-75,-25,76,-6
10430,12,-247,-74,-28,73,-6
10435,11,-245,-77,-31,69,-6
10440,13,-245,-83,-33,66,-5
10445,13,-246,-79,-35,65,-5
10450,9,-247,-77,-35,64,-5
10455,11,-247,-82,-34,64,-4
10460,12,-248,-76,-32,65,-4
10465,13,-248,-79,-29,65,-4
10470,12,-248,-78,-25,67,-3
10475,13,-247,-76,-20,70,-3
10480,15,-248,-80,-17,73,-2
10485,14,-247,-77,-12,75,-3
10490,16,-247,-77,-9,76,-3
10495,14,-247,-76,-4,75,-4
10500,13,-246,-75,-2,76,-2
10505,12,-246,-74,-1,77,-3
10510,12,-245,-75,0,75,-2
10515,14,-244,-77,0,74,-1
10520,14,-245,-76,-3,74,-1
10525,17,-246,-77,-7,72,-2
10530,13,-244,-79,-12,72,0
10535,14,-243,-79,-16,71,-1
10540,16,-246,-71,-21,72,-1
10545,17,-246,-78,-26,72,-2
10550,15,-244,-76,-30,73,0
10555,18,-244,-75,-33,71,-1
10560,16,-249,-76,-35,71,1
10565,14,-249,-75,-37,70,0
10570,15,-247,-75,-37,69,1
10575,18,-246,-76,-37,68,-1
10580,13,-245,-78,-36,67,0
10585,14,-247,-81,-33,65,-2
10590,17,-245,-80,-32,66,-1
10595,16,-249,-78,-29,67,-1
10600,13,-246,-77,-27,67,0
10605,14,-246,-81,-22,67,-3
10610,16,-249,-77,-17,67,-1
10615,13,-246,-77,-13,67,-4
10620,13,-244,-79,-12,68,-1
10625,14,-246,-78,-12,68,-3
10630,16,-247,-78,-12,69,0
10635,16,-248,-78,-15,71,-4
10640,17,-248,-73,-15,72,-2
10645,17,-250,-75,-14,74,-3
10650,13,-247,-80,-13,75,-1
10655,16,-248,-76,-11,76,-2
10660,18,-250,-76,-9,77,0
10665,15,-248,-74,-6,77,-2
10670,16,-248,-79,-5,76,-1
10675,14,-246,-78,-5,76,-3
10680,18,-250,-77,-2,77,-1
10685,15,-245,-79,-1,76,-4
10690,15,-247,-76,3,74,-2
10695,16,-249,-73,5,74,-4
10700,17,-246,-78,6,73,-2
10705,16,-245,-77,7,72,-6
10710,17,-246,-77,8,70,-3
10715,15,-246,-73,8,69,-7
10720,14,-243,-77,8,67,-5
10725,16,-246,-77,4,65,-8
10730,15,-245,-80,2,64,-6
10735,16,-244,-75,-2,64,-9
10740,14,-243,-81,-5,65,-8
10745,16,-244,-74,-8,65,-11
10750,16,-243,-75,-11,65,-8
10755,16,-245,-75,-15,63,-11
10760,14,-246,-75,-17,62,-8
10765,16,-245,-75,-18,60,-8
10770,16,-246,-77,-20,60,-6
10775,18,-246,-76,-21,59,-7
10780,18,-247,-75,-23,59,-4
10785,19,-248,-77,-23,60,-4
10790,18,-248,-76,-25,60,-1
10795,16,-251,-74,-22,60,-4
10800,18,-251,-76,-20,59,1
10805,14,-249,-79,-15,57,-2
10810,16,-248,-79,-9,57,0
10815,16,-250,-81,-3,55,-1
10820,14,-247,-78,0,57,2
10825,16,-247,-79,3,57,-2
10830,15,-249,-75,3,60,0
10835,18,-249,-76,3,60,-2
10840,17,-246,-80,2,61,-2
10845,14,-246,-82,0,61,-4
10850,16,-246,-77,-3,63,-2
10855,15,-245,-78,-4,66,-3
10860,15,-246,-79,-6,67,-1
10865,16,-244,-78,-8,69,-2
10870,14,-244,-78,-10,70,1
10875,15,-246,-79,-11,69,0
10880,17,-244,-77,-12,70,2
10885,16,-245,-77,-10,67,1
10890,15,-247,-78,-9,66,2
10895,12,-243,-76,-9,63,0
10900,11,-245,-73,-7,58,1
10905,14,-249,-75,-7,56,1
10910,14,-245,-77,-8,54,2
10915,14,-247,-76,-7,51,2
10920,14,-247,-77,-7,49,2
10925,13,-247,-80,-7,48,1
10930,14,-249,-75,-8,49,2
10935,14,-249,-77,-8,48,2
10940,13,-249,-77,-7,48,5
10945,15,-250,-77,-7,49,3
10950,12,-246,-78,-5,49,5
10955,14,-249,-77,-2,48,3
10960,12,-248,-74,2,49,4
10965,16,-245,-78,3,50,4
10970,13,-245,-76,3,51,5
10975,14,-247,-78,3,49,4
10980,14,-245,-78,4,48,4
10985,14,-244,-73,3,47,2
10990,14,-244,-74,1,46,3
10995,15,-247,-74,-3,47,0
11000,17,-247,-77,-6,46,1
11005,14,-245,-74,-7,46,1
11010,17,-247,-76,-10,47,1
11015,14,-249,-76,-15,47,0
11020,14,-247,-77,-17,47,1
11025,13,-246,-80,-20,49,0
11030,13,-248,-80,-21,51,1
11035,15,-248,-76,-22,53,0
11040,13,-248,-81,-21,55,1
11045,15,-246,-82,-19,56,2
11050,16,-247,-76,-15,56,1
11055,15,-248,-76,-11,55,0
11060,12,-245,-75,-7,57,-1
11065,12,-246,-77,-5,56,0
11070,11,-244,-69,-3,54,0
11075,14,-245,-74,-3,53,1
11080,11,-245,-73,-2,52,1
11085,13,-246,-76,-2,51,2
11090,15,-243,-75,-2,50,4
11095,13,-247,-78,-1,50,4
11100,14,-247,-73,-2,49,3
11105,14,-246,-72,-1,48,3
11110,10,-246,-75,-3,48,2
11115,12,-247,-79,-2,47,3
11120,12,-245,-75,-3,46,2
11125,14,-246,-76,-5,45,3
11130,12,-245,-75,-5,44,2
11135,13,-249,-73,-6,42,2
11140,13,-246,-71,-7,42,1
11145,11,-246,-76,-9,41,1
11150,13,-247,-72,-9,41,1
11155,14,-247,-81,-11,41,0
11160,13,-248,-73,-12,41,-1
11165,15,-248,-75,-14,40,1
11170,13,-249,-77,-15,39,0
11175,12,-247,-80,-16,40,1
11180,12,-247,-79,-16,42,0
11185,12,-246,-76,-16,40,2
11190,12,-245,-78,-15,41,1
11195,15,-247,-75,-13,40,3
11200,12,-247,-77,-12,43,2
11205,12,-246,-74,-10,45,4
11210,12,-246,-77,-7,45,3
11215,12,-245,-77,-8,47,5
11220,15,-246,-74,-6,49,2
11225,14,-248,-72,-4,48,5
11230,15,-248,-72,-1,48,2
11235,12,-246,-76,0,50,5
11240,11,-246,-76,3,50,2
11245,12,-244,-71,4,51,4
11250,13,-244,-76,3,52,4
11255,17,-247,-77,0,53,4
11260,11,-244,-73,-6,54,2
11265,12,-245,-79,-9,54,4
11270,15,-246,-72,-12,54,1
11275,15,-248,-74,-13,55,4
11280,13,-246,-75,-12,56,2
11285,10,-250,-73,-11,56,5
11290,12,-249,-79,-9,56,3
11295,11,-251,-75,-6,57,4
11300,10,-249,-78,-3,57,1
11305,12,-247,-79,-3,57,4
11310,11,-248,-75,-2,60,0
11315,11,-247,-78,-4,58,1
11320,12,-248,-79,-5,59,-1
11325,14,-248,-76,-4,57,1
11330,13,-245,-77,-2,58,-3
11335,14,-244,-79,-3,57,-2
11340,13,-243,-75,-6,55,-3
11345,13,-243,-75,-9,53,-1
11350,15,-244,-74,-13,51,-2
11355,14,-242,-77,-15,48,0
11360,14,-245,-79,-15,47,-3
11365,13,-246,-72,-14,49,2
11370,29,-253,-68,-11,51,1
11375,12,-236,-85,-9,51,4
11380,15,-250,-80,-8,52,3
11385,13,-247,-68,-9,53,6
11390,19,-240,-75,-9,54,3
11395,15,-250,-67,-9,53,5
11400,14,-249,-75,-7,51,3
11405,14,-249,-75,-3,52,4
11410,12,-249,-75,1,50,1
11415,12,-249,-80,4,51,2
11420,10,-247,-74,7,51,-1
11425,12,-247,-76,8,51,0
11430,12,-246,-80,10,53,-3
11435,13,-246,-76,10,52,-1
11440,11,-245,-77,9,55,-4
11445,12,-243,-76,5,56,-1
11450,13,-246,-75,3,59,-4
11455,12,-244,-77,1,60,-1
11460,14,-248,-74,-1,61,-3
11465,11,-244,-76,-4,61,-1
11470,13,-247,-72,-6,61,-2
11475,14,-247,-74,-8,59,0
11480,11,-250,-77,-9,60,-2
11485,11,-246,-75,-8,58,0
11490,13,-249,-78,-6,56,-2
11495,14,-248,-72,-6,56,2
11500,15,-249,-71,-4,54,-2
11505,11,-249,-71,-3,52,1
11510,11,-248,-71,-1,50,-1
11515,11,-246,-78,0,49,0
11520,11,-246,-75,2,48,-2
11525,12,-248,-73,5,45,0
11530,12,-250,-75,8,43,-1
11535,12,-247,-72,10,42,0
11540,13,-250,-70,12,41,-2
11545,13,-248,-70,13,41,0
11550,11,-249,-78,12,42,-2
11555,12,-250,-70,12,44,1
11560,14,-250,-72,11,44,-2
11565,13,-251,-72,10,45,0
11570,11,-246,-75,9,46,0
11575,16,-249,-73,7,48,1
11580,13,-248,-77,6,50,-1
11585,15,-246,-76,3,53,0
11590,14,-247,-72,1,55,0
11595,16,-245,-74,-1,56,0
11600,14,-246,-73,-3,56,-4
11605,15,-245,-71,-4,56,-3
11610,16,-247,-76,-5,55,-5
11615,12,-246,-78,-7,55,-2
11620,13,-246,-78,-9,53,-3
11625,15,-247,-74,-9,52,-1
11630,15,-246,-77,-9,52,-2
11635,17,-249,-77,-9,51,-2
11640,16,-248,-74,-8,53,-2
11645,14,-246,-74,-9,56,-1
11650,14,-249,-74,-7,56,-1
11655,15,-246,-76,-6,57,0
11660,16,-247,-77,-3,56,-2
11665,11,-246,-76,-1,58,-3
11670,11,-246,-73,0,59,-2
11675,14,-246,-77,2,60,-3
11680,13,-246,-76,2,59,-2
11685,14,-244,-77,3,58,-5
11690,14,-243,-73,2,58,-5
11695,13,-244,-77,1,59,-6
11700,11,-245,-72,-3,60,-8
11705,13,-244,-79,-5,59,-8
11710,11,-246,-72,-7,58,-6
11715,13,-246,-75,-8,56,-7
11720,11,-246,-73,-10,56,-5
11725,12,-247,-76,-11,54,-5
11730,13,-246,-76,-9,51,-4
11735,12,-249,-76,-7,50,-5
11740,13,-252,-73,-6,46,-3
11745,13,-250,-74,-5,45,-3
11750,11,-247,-75,-4,43,-2
11755,17,-254,-77,-3,44,-1
11760,17,-250,-76,-4,46,0
11765,16,-253,-74,-2,51,-2
11770,16,-249,-76,-4,55,1
11775,15,-248,-79,-6,57,1
11780,17,-248,-77,-6,61,2
11785,14,-247,-78,-5,62,1
11790,14,-247,-74,-4,62,2
11795,15,-243,-76,-3,63,1
11800,13,-246,-76,-2,62,2
11805,15,-244,-77,0,63,0
11810,15,-248,-77,1,64,1
11815,15,-247,-74,3,64,0
11820,14,-245,-72,0,63,3
11825,13,-247,-72,3,63,2
11830,14,-249,-77,0,63,3
11835,12,-246,-77,1,63,0
11840,12,-250,-78,0,64,3
11845,12,-246,-74,-2,65,0
11850,13,-248,-74,-6,67,1
11855,13,-247,-75,-9,68,-2
11860,14,-247,-75,-10,68,0
11865,13,-245,-74,-11,71,-2
11870,12,-248,-74,-11,72,1
11875,15,-252,-73,-9,71,-2
11880,14,-249,-72,-10,70,-1
11885,12,-248,-73,-7,68,-2
11890,9,-247,-71,-4,66,-1
11895,11,-247,-73,-2,64,-3
11900,13,-245,-71,0,63,-2
11905,11,-245,-75,2,64,-4
11910,9,-248,-75,1,62,-1
11915,14,-243,-74,0,62,-6
11920,15,-247,-77,-2,61,-4
11925,13,-246,-78,-6,60,-6
11930,14,-246,-74,-10,59,-5
11935,10,-241,-74,-13,59,-7
11940,15,-244,-70,-17,58,-5
11945,13,-247,-73,-21,56,-5
11950,11,-244,-74,-22,56,-3
11955,16,-246,-71,-22,55,-5
11960,13,-246,-69,-20,52,-1
11965,14,-250,-71,-19,52,-4
11970,12,-249,-70,-18,51,0
11975,13,-249,-68,-16,48,-3
11980,15,-250,-69,-12,45,0
11985,10,-249,-72,-10,42,-4
11990,13,-251,-67,-9,37,-3
11995,12,-252,-70,-5,33,-5
