timestamp,acc_x,acc_y,acc_z,gyro_x,gyro_y,gyro_z
0,29,-147,184,-32,59,-3
5,30,-148,182,-36,56,-4
10,28,-148,179,-36,52,-4
15,29,-146,183,-38,48,-6
20,27,-146,184,-38,44,-4
25,27,-149,181,-37,41,-8
30,41,-143,170,-38,39,-6
35,34,-150,187,-37,38,-10
40,27,-150,187,-37,35,-10
45,31,-148,178,-38,35,-12
50,29,-145,173,-38,35,-10
55,21,-140,172,-41,35,-14
60,19,-147,169,-42,36,-14
65,22,-147,179,-43,38,-16
70,27,-151,180,-42,39,-16
75,26,-149,180,-41,38,-18
80,27,-152,179,-39,41,-18
85,26,-149,178,-37,42,-20
90,26,-149,178,-36,42,-21
95,24,-148,178,-35,41,-24
100,27,-149,173,-36,39,-24
105,25,-155,173,-36,39,-26
110,28,-149,174,-36,40,-25
115,26,-151,176,-36,39,-26
120,27,-155,176,-36,40,-26
125,30,-155,177,-34,41,-27
130,31,-155,183,-31,41,-25
135,29,-155,173,-31,42,-26
140,32,-154,177,-31,43,-23
145,30,-155,175,-29,41,-23
150,31,-155,176,-27,40,-21
155,32,-156,176,-23,40,-22
160,34,-158,178,-19,41,-19
165,32,-154,176,-14,39,-20
170,30,-154,176,-10,41,-16
175,29,-152,177,-6,41,-16
180,30,-151,173,-2,43,-13
185,30,-155,181,3,43,-14
190,32,-154,178,5,44,-14
195,30,-152,176,9,45,-13
200,31,-148,180,12,47,-10
205,31,-151,179,14,50,-11
210,31,-149,181,14,51,-10
215,30,-149,181,14,54,-12
220,31,-149,178,11,57,-10
225,29,-147,180,10,59,-10
230,31,-147,181,7,60,-9
235,31,-147,179,3,61,-9
240,30,-147,181,-1,62,-10
245,29,-148,180,-2,64,-7
250,29,-145,179,-2,65,-8
255,30,-149,184,-1,64,-7
260,28,-147,181,-1,64,-5
265,29,-146,180,1,63,-4
270,32,-148,179,2,63,-3
275,29,-148,179,2,64,-1
280,30,-149,180,4,61,2
285,28,-146,178,5,61,2
290,31,-152,181,4,59,4
295,32,-148,182,6,59,4
300,29,-150,181,6,62,4
305,30,-150,177,7,62,5
310,31,-149,174,5,62,5
315,33,-151,181,7,62,5
320,30,-147,181,4,62,4
325,32,-149,179,3,64,3
330,31,-149,180,2,63,3
335,33,-149,180,-1,64,1
340,32,-148,179,-3,66,0
345,33,-149,178,-4,65,0
350,32,-149,177,-6,66,-2
355,31,-150,180,-9,66,-3
360,32,-147,182,-8,65,-4
365,32,-148,179,-9,68,-3
370,33,-149,180,-9,67,-4
375,31,-149,180,-7,66,-4
380,30,-151,178,-4,68,-6
385,30,-150,180,-3,69,-4
390,30,-149,179,-2,69,-5
395,31,-151,183,2,71,-2
400,30,-148,177,2,71,-3
405,27,-147,179,4,70,-3
410,33,-151,178,5,72,-3
415,30,-150,180,5,72,-1
420,31,-150,179,4,73,-3
425,32,-151,177,3,74,-1
430,31,-149,180,2,75,-3
435,31,-147,178,0,73,-1
440,29,-150,177,0,74,-2
445,28,-149,179,-2,73,0
450,31,-152,179,-2,73,0
455,28,-151,180,0,72,2
460,28,-149,178,2,70,3
465,29,-149,178,5,70,3
470,29,-146,176,6,70,1
475,26,-149,176,6,68,4
480,30,-147,179,7,66,1
485,30,-150,177,7,66,3
490,28,-148,181,6,65,0
495,29,-148,174,6,66,2
500,28,-147,179,7,68,0
505,29,-148,180,8,68,0
510,27,-146,179,8,69,-2
515,25,-145,181,10,69,0
520,29,-149,181,9,70,-2
525,28,-149,178,8,71,0
530,31,-149,174,9,71,-2
535,28,-148,182,8,73,0
540,28,-147,180,7,73,-3
545,29,-148,179,5,73,0
550,27,-146,182,5,74,0
555,29,-146,179,3,71,0
560,27,-147,180,1,72,-1
565,28,-147,182,0,71,0
570,29,-149,179,0,70,0
575,27,-148,176,0,69,2
580,28,-148,180,1,68,0
585,29,-150,180,0,69,3
590,30,-147,179,4,68,1
595,27,-147,179,4,67,4
600,27,-146,178,5,66,3
605,26,-145,183,3,66,7
610,30,-146,182,1,65,4
615,25,-146,177,2,64,7
620,29,-145,181,1,65,5
625,28,-146,175,0,64,8
630,26,-146,177,0,65,4
635,26,-146,180,-1,65,6
640,28,-147,178,0,64,2
645,28,-148,181,0,64,6
650,30,-149,178,2,65,5
655,27,-147,180,4,65,5
660,27,-145,178,4,63,3
665,27,-147,179,5,63,5
670,28,-148,178,7,63,2
675,28,-149,184,6,63,4
680,28,-146,179,7,64,1
685,27,-146,178,8,65,3
690,29,-145,178,8,67,2
695,27,-147,177,8,67,2
700,27,-147,180,9,69,0
705,29,-147,185,9,71,2
710,30,-144,181,10,71,1
715,28,-145,180,10,72,2
720,31,-144,182,9,73,1
725,31,-143,180,10,74,4
730,29,-144,183,8,77,1
735,30,-145,181,5,79,6
740,32,-144,178,2,81,3
745,30,-144,184,-1,83,6
750,32,-143,180,-3,84,3
755,34,-146,181,-10,87,5
760,32,-145,185,-16,87,4
765,31,-147,185,-21,87,7
770,33,-144,181,-28,86,6
775,32,-145,184,-33,83,9
780,31,-146,187,-37,79,7
785,28,-147,188,-39,75,11
790,28,-145,186,-40,71,10
795,31,-148,183,-41,66,13
800,27,-148,186,-39,60,9
805,28,-146,189,-37,55,10
810,28,-147,179,-34,51,8
815,27,-149,180,-32,47,8
820,28,-147,185,-30,43,3
825,27,-149,180,-29,41,3
830,26,-148,182,-27,38,-1
835,26,-145,180,-27,37,-3
840,25,-147,181,-25,38,-7
845,27,-150,179,-27,39,-9
850,23,-146,177,-24,39,-14
855,24,-150,180,-24,40,-15
860,24,-149,177,-22,45,-18
865,25,-149,178,-21,49,-20
870,25,-150,178,-18,51,-22
875,28,-149,176,-17,53,-21
880,28,-151,179,-17,56,-25
885,27,-151,178,-17,58,-22
890,26,-148,176,-18,61,-23
895,26,-150,177,-19,61,-22
900,25,-151,176,-19,62,-22
905,28,-151,172,-19,63,-21
910,26,-147,180,-19,63,-19
915,26,-150,176,-19,63,-18
920,25,-150,179,-19,62,-17
925,26,-151,177,-18,60,-14
930,27,-148,178,-15,59,-14
935,30,-154,181,-13,58,-10
940,28,-152,179,-9,56,-10
945,29,-151,181,-5,56,-6
950,30,-152,186,-1,54,-5
955,30,-151,178,2,53,-4
960,31,-149,180,8,53,-3
965,29,-149,179,9,53,-2
970,30,-149,182,12,52,-3
975,29,-144,177,13,54,-1
980,30,-147,185,13,55,-3
985,27,-147,179,15,53,1
990,27,-148,176,14,54,-1
995,30,-144,180,13,56,1
1000,29,-143,182,12,55,1
1005,30,-143,182,10,55,2
1010,30,-144,185,9,54,0
1015,28,-147,182,7,53,1
1020,29,-143,183,7,53,2
1025,30,-144,180,6,55,1
1030,28,-144,181,7,55,1
1035,30,-146,179,5,54,2
1040,26,-140,182,5,55,0
1045,28,-146,182,4,56,0
1050,31,-144,181,4,59,-1
1055,26,-145,181,3,61,-1
1060,31,-142,183,1,62,-1
1065,29,-144,181,1,63,0
1070,31,-144,181,1,65,-1
1075,30,-144,180,2,68,0
1080,29,-146,183,4,68,1
1085,30,-146,183,4,68,1
1090,30,-146,177,4,68,1
1095,29,-144,181,1,69,1
1100,29,-144,183,-3,66,3
1105,30,-145,181,-8,65,3
1110,30,-145,183,-12,64,2
1115,29,-147,181,-15,64,3
1120,32,-145,183,-17,64,5
1125,31,-147,181,-18,63,6
1130,32,-148,183,-19,63,6
1135,29,-146,177,-21,62,5
1140,30,-145,185,-21,64,6
1145,30,-146,178,-20,64,6
1150,29,-146,178,-18,64,5
1155,28,-145,181,-15,64,4
1160,30,-145,184,-13,66,5
1165,31,-146,182,-8,65,4
1170,31,-146,178,-4,66,4
1175,28,-146,183,-1,67,3
1180,29,-145,183,2,67,3
1185,30,-147,180,5,68,1
1190,27,-146,181,6,67,2
1195,29,-145,183,4,67,-2
1200,30,-149,179,2,68,-2
1205,27,-147,176,3,66,-3
1210,29,-146,183,-1,65,-3
1215,27,-142,183,-2,66,-4
1220,28,-145,182,-4,64,-4
1225,26,-145,185,-4,64,-5
1230,31,-147,179,-6,63,-5
1235,29,-146,182,-8,62,-6
1240,25,-146,180,-10,62,-6
1245,25,-143,187,-11,61,-6
1250,26,-148,185,-14,59,-6
1255,28,-145,182,-13,58,-6
1260,28,-145,181,-12,58,-6
1265,24,-147,178,-12,58,-7
1270,27,-147,180,-11,58,-5
1275,26,-144,178,-10,59,-7
1280,28,-148,178,-11,60,-5
1285,28,-149,179,-12,62,-5
1290,26,-148,175,-13,64,-4
1295,28,-147,179,-15,65,-3
1300,28,-147,181,-14,67,-3
1305,28,-147,177,-16,66,-2
1310,31,-150,180,-17,68,0
1315,29,-147,177,-16,68,-1
1320,29,-148,180,-17,67,2
1325,28,-147,179,-17,66,1
1330,28,-149,182,-17,65,3
1335,27,-148,177,-18,63,2
1340,26,-148,178,-15,62,5
1345,28,-149,183,-15,61,4
1350,28,-148,180,-13,59,5
1355,25,-147,180,-11,60,2
1360,27,-145,180,-12,58,4
1365,29,-144,177,-10,59,2
1370,26,-145,178,-8,60,5
1375,29,-145,182,-8,60,2
1380,26,-146,183,-5,60,4
1385,26,-146,178,-6,62,3
1390,26,-144,184,-6,62,5
1395,25,-145,177,-5,64,1
1400,28,-146,181,-4,66,3
1405,30,-150,181,-3,65,0
1410,28,-148,179,-2,66,2
1415,26,-145,181,-1,67,0
1420,26,-144,183,-2,66,2
1425,29,-149,181,-2,66,0
1430,29,-148,182,-5,66,0
1435,28,-145,180,-5,65,-1
1440,28,-148,182,-7,67,-1
1445,28,-147,177,-8,66,-2
1450,29,-148,179,-9,67,1
1455,31,-146,184,-9,65,-2
1460,29,-147,185,-9,62,1
1465,29,-145,179,-6,63,-1
1470,32,-148,181,-3,61,2
1475,29,-148,180,-1,60,0
1480,29,-149,180,1,60,1
1485,29,-149,184,1,59,1
1490,27,-146,179,1,57,1
1495,26,-145,185,2,58,-1
1500,30,-147,182,1,58,1
1505,28,-145,183,1,57,-2
1510,30,-149,182,-1,59,1
1515,25,-148,179,0,58,-3
1520,28,-147,183,2,59,-3
1525,29,-145,180,0,60,-4
1530,27,-142,182,0,61,-4
1535,29,-144,177,-2,61,-7
1540,30,-146,183,-3,59,-7
1545,29,-146,179,-4,61,-10
1550,25,-146,180,-6,61,-8
1555,27,-144,180,-7,63,-11
1560,29,-143,183,-7,63,-10
1565,25,-145,180,-8,64,-13
1570,28,-144,181,-9,63,-12
1575,28,-145,182,-10,64,-13
1580,31,-146,182,-10,65,-11
1585,27,-145,182,-11,64,-13
1590,27,-141,181,-11,66,-10
1595,30,-145,184,-10,64,-11
1600,29,-145,182,-11,63,-9
1605,33,-147,182,-10,64,-10
1610,29,-145,180,-11,63,-6
1615,29,-146,181,-11,61,-7
1620,29,-147,184,-10,60,-4
1625,28,-143,183,-10,59,-4
1630,28,-143,183,-11,58,-1
1635,27,-144,182,-13,57,-3
1640,29,-146,180,-14,56,-1
1645,27,-146,180,-15,55,-3
1650,26,-146,183,-14,55,0
1655,28,-146,182,-15,54,-2
1660,26,-144,179,-14,56,0
1665,29,-145,183,-14,55,-2
1670,29,-146,184,-14,59,-3
1675,26,-143,182,-14,59,-3
1680,28,-145,182,-14,58,-1
1685,30,-144,179,-15,58,-4
1690,29,-143,178,-15,60,-3
1695,30,-148,181,-15,60,-6
1700,28,-147,182,-16,61,-3
1705,30,-146,181,-15,61,-5
1710,32,-146,181,-14,62,-4
1715,27,-144,181,-15,63,-5
1720,28,-144,180,-13,63,-4
1725,28,-143,178,-13,62,-5
1730,28,-147,182,-12,63,-4
1735,30,-145,183,-12,64,-4
1740,32,-146,181,-12,63,-3
1745,28,-147,181,-12,62,-3
1750,30,-148,180,-13,64,-2
1755,29,-147,182,-11,63,-3
1760,30,-148,181,-12,62,-2
1765,29,-146,181,-12,62,-3
1770,31,-147,181,-13,61,-1
1775,28,-147,184,-15,59,-2
1780,28,-145,180,-15,57,-2
1785,29,-144,183,-14,59,-3
1790,30,-149,179,-12,59,-4
1795,29,-146,181,-12,56,-3
1800,31,-147,182,-11,57,-2
1805,28,-145,182,-13,57,-2
1810,27,-145,182,-14,58,-2
1815,27,-146,181,-12,56,-2
1820,27,-145,183,-11,57,-1
1825,29,-147,179,-12,58,-2
1830,28,-148,183,-12,57,-3
1835,28,-147,179,-11,57,-2
1840,27,-144,182,-9,58,-3
1845,29,-147,181,-9,58,-2
1850,28,-145,183,-8,58,-3
1855,26,-145,179,-4,57,-2
1860,30,-146,183,-5,58,-2
1865,29,-143,185,-3,60,-2
1870,28,-146,182,-4,60,-2
1875,28,-145,182,-3,61,-3
1880,28,-148,178,-2,63,-4
1885,28,-145,182,-2,64,-4
1890,29,-146,179,-2,65,-4
1895,27,-145,183,-4,66,-5
1900,28,-147,181,-3,66,-6
1905,30,-143,179,-6,66,-5
1910,29,-143,175,-8,65,-7
1915,31,-145,178,-11,66,-6
1920,30,-144,180,-11,66,-7
1925,29,-144,183,-14,65,-6
1930,28,-141,184,-13,64,-7
1935,29,-145,180,-14,64,-7
1940,29,-142,181,-13,64,-7
1945,28,-141,182,-15,64,-7
1950,30,-144,182,-14,63,-8
1955,29,-144,186,-18,63,-7
1960,31,-141,180,-21,62,-10
1965,32,-143,181,-26,62,-10
1970,30,-140,181,-30,61,-11
1975,30,-143,184,-34,61,-12
1980,28,-138,184,-39,63,-14
1985,25,-142,183,-43,63,-13
1990,29,-141,181,-48,61,-14
1995,27,-141,187,-50,62,-12
2000,27,-143,185,-51,60,-11
2005,27,-142,184,-53,62,-11
2010,30,-143,179,-52,60,-8
2015,30,-146,185,-50,56,-6
2020,28,-144,181,-48,53,-7
2025,31,-145,183,-46,51,-4
2030,31,-146,183,-43,49,-5
2035,31,-149,186,-40,45,-2
2040,28,-145,183,-38,42,-1
2045,31,-145,181,-37,40,2
2050,30,-147,182,-35,38,2
2055,28,-146,182,-33,36,6
2060,30,-148,183,-29,36,5
2065,29,-149,178,-27,35,7
2070,30,-147,180,-23,36,7
2075,29,-149,180,-22,38,11
2080,31,-151,181,-19,41,8
2085,28,-148,179,-17,43,11
2090,34,-151,181,-15,47,10
2095,32,-150,181,-12,49,11
2100,31,-149,183,-12,53,9
2105,30,-151,177,-11,57,11
2110,31,-152,183,-11,58,9
2115,30,-151,177,-14,61,11
2120,30,-151,176,-15,64,8
2125,30,-151,183,-18,67,9
2130,29,-154,180,-18,68,6
2135,28,-151,179,-18,69,7
2140,30,-149,182,-19,72,3
2145,30,-153,180,-19,75,5
2150,30,-149,179,-17,79,1
2155,29,-152,181,-16,81,4
2160,34,-149,180,-14,82,2
2165,29,-148,181,-14,82,3
2170,28,-146,179,-13,84,1
2175,28,-145,180,-11,83,6
2180,30,-149,182,-7,82,4
2185,28,-145,177,-2,83,7
2190,30,-149,178,3,82,6
2195,26,-144,183,6,80,10
2200,28,-144,179,11,80,8
2205,29,-144,179,12,78,11
2210,27,-144,180,11,75,9
2215,23,-141,181,12,76,11
2220,26,-142,183,11,74,7
2225,25,-140,182,10,74,8
2230,26,-142,181,9,73,4
2235,25,-144,183,6,73,8
2240,25,-146,185,5,71,3
2245,28,-145,184,3,71,3
2250,28,-145,186,1,69,-2
2255,27,-148,186,-3,68,-2
2260,27,-146,184,-3,66,-5
2265,27,-144,185,-5,65,-4
2270,27,-145,182,-4,65,-6
2275,28,-147,186,-4,64,-5
2280,27,-146,184,-4,62,-7
2285,29,-145,186,-3,61,-4
2290,29,-148,179,-2,62,-6
2295,29,-151,184,0,61,-4
2300,28,-146,183,1,62,-4
2305,29,-145,181,2,61,0
2310,29,-145,181,0,61,-1
2315,27,-146,179,-2,61,2
2320,25,-145,183,-2,62,1
2325,26,-147,183,-4,60,4
2330,28,-146,176,-6,59,3
2335,26,-145,179,-7,59,4
2340,27,-144,179,-8,58,5
2345,27,-144,180,-6,57,6
2350,27,-143,186,-7,58,3
2355,29,-144,183,-6,59,4
2360,29,-147,179,-4,61,2
2365,25,-141,182,-4,62,3
2370,26,-146,184,-2,63,1
2375,28,-146,184,-1,64,1
2380,29,-145,182,-1,66,-2
2385,25,-146,177,0,69,-3
2390,25,-142,184,1,69,-4
2395,26,-143,182,3,70,-5
2400,27,-144,183,2,72,-7
2405,27,-146,180,2,72,-7
2410,26,-145,181,1,72,-8
2415,27,-146,185,2,73,-7
2420,28,-146,181,1,72,-8
2425,25,-144,183,3,70,-7
2430,28,-145,181,3,69,-8
2435,28,-143,183,3,67,-7
2440,26,-145,183,-1,66,-7
2445,29,-147,182,-2,63,-6
2450,26,-142,184,-6,61,-5
2455,30,-144,183,-7,58,-4
2460,30,-145,184,-6,56,-4
2465,28,-142,181,-7,55,-3
2470,29,-145,180,-8,52,-4
2475,29,-144,184,-6,53,-3
2480,27,-144,182,-6,52,-3
2485,29,-145,179,-5,51,-3
2490,28,-141,180,-5,49,-4
2495,28,-146,183,-3,50,-3
2500,28,-145,182,-2,50,-3
2505,27,-146,182,-2,48,-4
2510,28,-143,181,0,47,-5
2515,27,-142,184,1,48,-6
2520,26,-143,184,0,48,-7
2525,29,-143,182,0,50,-6
2530,27,-141,185,-3,50,-7
2535,28,-146,182,-7,51,-6
2540,29,-144,185,-10,53,-8
2545,28,-145,181,-11,54,-10
2550,30,-144,182,-14,54,-10
2555,30,-145,181,-14,57,-11
2560,28,-144,188,-16,56,-10
2565,27,-143,186,-18,56,-12
2570,28,-143,184,-18,58,-12
2575,26,-146,183,-18,59,-13
2580,29,-143,182,-19,60,-12
2585,27,-145,183,-18,60,-12
2590,28,-146,183,-18,59,-11
2595,26,-144,183,-19,59,-11
2600,29,-144,180,-19,57,-9
2605,28,-144,179,-18,57,-9
2610,28,-143,183,-16,58,-8
2615,31,-145,183,-14,57,-8
2620,29,-143,182,-10,56,-5
2625,28,-142,186,-9,55,-6
2630,30,-143,178,-6,54,-6
2635,32,-146,183,-5,53,-7
2640,29,-143,182,-5,55,-6
2645,30,-141,181,-5,54,-5
2650,29,-144,182,-6,55,-4
2655,31,-146,176,-6,55,-6
2660,30,-144,180,-6,55,-3
2665,31,-145,180,-5,56,-6
2670,27,-145,183,-6,55,-3
2675,29,-146,182,-4,55,-5
2680,28,-147,181,-5,57,-3
2685,32,-144,179,-4,56,-4
2690,31,-145,181,-4,57,-5
2695,31,-142,183,-3,58,-6
2700,30,-143,181,-4,60,-5
2705,29,-146,185,-3,59,-5
2710,29,-143,183,-4,60,-3
2715,30,-145,180,-8,61,-7
2720,32,-145,182,-9,62,-3
2725,29,-143,180,-12,63,-5
2730,28,-144,180,-14,63,-2
2735,28,-143,180,-16,62,-4
2740,31,-144,180,-16,63,-3
2745,29,-144,181,-16,62,-4
2750,31,-143,181,-15,60,-3
2755,31,-143,183,-13,61,-3
2760,29,-142,180,-13,61,-1
2765,27,-144,184,-13,62,-3
2770,31,-144,182,-13,61,-2
2775,29,-143,183,-13,59,-3
2780,26,-142,181,-13,60,0
2785,29,-145,183,-13,59,-4
2790,31,-145,181,-11,59,-1
2795,30,-144,183,-11,61,-3
2800,29,-143,176,-12,60,-1
2805,31,-143,182,-12,60,-4
2810,41,-142,181,-15,61,-2
2815,32,-142,187,-17,63,-4
2820,23,-148,182,-17,64,-2
2825,31,-133,178,-18,66,-5
2830,38,-140,177,-22,66,-3
2835,27,-145,184,-23,65,-3
2840,28,-144,183,-25,64,-1
2845,29,-142,182,-28,63,-4
2850,28,-144,184,-29,63,-2
2855,28,-144,182,-31,59,-4
2860,31,-144,181,-32,58,-2
2865,30,-144,185,-30,59,-6
2870,29,-147,181,-29,57,-2
2875,28,-146,185,-27,57,-3
2880,28,-146,180,-24,58,-1
2885,29,-144,181,-21,59,-4
2890,30,-144,183,-19,57,-1
2895,27,-144,182,-20,58,-4
2900,30,-144,183,-19,57,-3
2905,27,-146,178,-19,58,-6
2910,30,-144,185,-19,57,-4
2915,27,-144,180,-19,57,-6
2920,28,-144,178,-19,59,-4
2925,27,-142,180,-19,60,-6
2930,26,-141,183,-19,59,-4
2935,31,-144,180,-23,59,-8
2940,28,-142,179,-25,60,-5
2945,27,-146,177,-26,58,-8
2950,28,-148,182,-29,57,-6
2955,28,-146,183,-29,57,-7
2960,28,-144,183,-30,55,-5
2965,28,-145,183,-29,53,-8
2970,28,-143,186,-27,51,-6
2975,27,-145,182,-27,51,-9
2980,28,-146,182,-25,51,-6
2985,27,-144,180,-25,51,-9
2990,28,-145,182,-23,52,-7
2995,29,-146,182,-23,53,-9
3000,29,-145,182,-22,54,-7
3005,27,-145,182,-23,56,-9
3010,27,-145,184,-23,56,-8
3015,30,-145,181,-21,54,-9
3020,28,-145,181,-21,55,-8
3025,31,-145,183,-20,55,-10
3030,24,-143,178,-20,55,-7
3035,26,-143,179,-18,53,-8
3040,27,-142,179,-18,53,-6
3045,29,-144,179,-18,50,-8
3050,30,-143,181,-18,49,-8
3055,31,-144,182,-18,49,-9
3060,32,-146,183,-16,48,-8
3065,29,-145,181,-11,48,-9
3070,31,-146,183,-5,48,-7
3075,31,-146,185,5,48,-8
3080,34,-148,183,11,50,-6
3085,28,-146,184,18,53,-8
3090,30,-148,182,22,54,-7
3095,31,-144,180,25,55,-8
3100,28,-145,183,29,56,-7
3105,31,-147,181,30,55,-7
3110,33,-145,185,29,55,-5
3115,28,-144,180,27,53,-7
3120,31,-143,182,22,52,-6
3125,30,-145,182,17,50,-7
3130,27,-143,186,12,49,-8
3135,29,-141,184,9,49,-8
3140,29,-143,182,6,49,-9
3145,31,-146,183,6,49,-9
3150,30,-142,186,6,50,-8
3155,32,-144,181,8,49,-8
3160,33,-142,182,10,53,-7
3165,31,-141,178,10,52,-9
3170,33,-142,181,8,55,-5
3175,32,-143,183,6,57,-7
3180,31,-141,185,5,58,-5
3185,30,-144,181,2,58,-6
3190,30,-143,181,3,60,-5
3195,31,-143,183,4,62,-6
3200,29,-142,181,6,61,-4
3205,31,-144,184,10,62,-5
3210,31,-144,183,12,63,-4
3215,30,-144,180,16,63,-3
3220,31,-144,183,17,63,-3
3225,31,-144,185,18,63,-4
3230,31,-143,183,16,62,-4
3235,30,-142,182,14,63,-5
3240,31,-141,183,9,63,-5
3245,30,-141,184,4,64,-4
3250,31,-143,185,-2,64,-4
3255,27,-139,185,-7,64,-4
3260,29,-143,185,-10,66,-4
3265,30,-140,184,-16,65,-4
3270,30,-141,183,-21,66,-3
3275,28,-142,185,-25,66,-4
3280,27,-142,183,-29,66,-5
3285,30,-141,183,-30,66,-5
3290,28,-141,183,-31,64,-6
3295,29,-142,183,-29,65,-5
3300,28,-141,184,-28,64,-7
3305,29,-143,185,-26,65,-6
3310,29,-141,183,-25,65,-9
3315,30,-145,180,-24,65,-7
3320,32,-143,182,-23,65,-7
3325,30,-143,185,-23,65,-6
3330,33,-145,180,-24,65,-6
3335,29,-145,183,-24,67,-5
3340,30,-143,182,-24,68,-5
3345,32,-144,182,-25,68,-3
3350,33,-145,182,-25,67,-3
3355,32,-146,184,-25,68,-3
3360,33,-144,184,-23,69,-3
3365,29,-142,185,-22,68,1
3370,30,-143,183,-22,67,-1
3375,29,-145,187,-22,67,1
3380,32,-145,181,-21,65,1
3385,33,-145,180,-21,66,3
3390,31,-143,181,-21,64,2
3395,31,-143,183,-20,64,3
3400,29,-143,183,-18,65,1
3405,29,-143,181,-16,65,4
3410,30,-143,183,-12,66,2
3415,30,-143,183,-10,65,4
3420,30,-144,182,-7,66,2
3425,27,-142,180,-3,68,4
3430,28,-143,183,0,66,1
3435,30,-142,180,3,68,3
3440,30,-142,184,3,68,2
3445,28,-145,182,4,68,4
3450,32,-142,183,2,68,2
3455,30,-142,183,1,67,3
3460,29,-145,178,-2,68,2
3465,26,-143,181,-4,69,6
3470,30,-141,186,-5,69,3
3475,28,-142,182,-5,71,6
3480,30,-147,184,1,72,4
3485,30,-145,187,7,74,7
3490,30,-146,184,15,73,5
3495,26,-145,188,21,73,6
3500,28,-143,184,27,76,4
3505,28,-143,184,32,76,6
3510,29,-147,182,35,76,2
3515,28,-144,183,37,75,4
3520,31,-144,186,35,74,1
3525,27,-141,186,31,73,2
3530,28,-144,181,28,70,-1
3535,29,-143,181,24,70,1
3540,29,-142,185,24,70,-2
3545,26,-143,185,27,69,2
3550,28,-142,182,30,71,-1
3555,28,-141,183,34,71,2
3560,29,-140,181,36,71,-2
3565,31,-144,181,37,71,1
3570,29,-141,183,35,71,-1
3575,29,-143,187,34,69,2
3580,29,-141,183,28,69,-1
3585,30,-143,186,22,68,1
3590,28,-140,184,21,68,-3
3595,31,-138,184,19,70,-1
3600,27,-139,183,19,70,-1
3605,30,-140,185,20,69,0
3610,29,-140,182,22,69,-1
3615,29,-138,185,24,69,0
3620,31,-140,184,26,67,-2
3625,28,-137,183,28,68,1
3630,28,-142,184,26,66,-2
3635,29,-140,186,26,66,-1
3640,28,-139,186,26,66,-3
3645,30,-137,182,23,66,0
3650,27,-137,187,18,67,-2
3655,27,-138,181,14,69,1
3660,29,-139,183,11,71,0
3665,33,-141,186,10,72,2
3670,31,-142,180,9,72,2
3675,30,-142,187,9,74,5
3680,29,-139,188,7,75,4
3685,32,-143,184,7,76,8
3690,29,-141,185,4,79,6
3695,30,-139,186,0,78,7
3700,30,-146,186,-2,77,6
3705,31,-146,184,-1,76,8
3710,29,-145,185,-1,73,7
3715,31,-141,185,0,73,8
3720,29,-143,184,2,72,7
3725,30,-143,183,4,71,9
3730,27,-141,181,5,69,7
3735,29,-142,182,6,70,10
3740,29,-138,181,6,71,10
3745,27,-140,182,7,72,14
3750,28,-138,183,10,73,12
3755,28,-137,183,10,73,16
3760,26,-137,181,12,74,16
3765,28,-139,185,11,74,19
3770,29,-137,182,13,76,20
3775,30,-137,182,12,77,20
3780,26,-136,187,9,76,18
3785,28,-138,184,9,77,18
3790,28,-139,183,8,78,16
3795,27,-140,186,8,80,15
3800,26,-141,184,7,82,13
3805,29,-141,186,8,81,12
3810,28,-142,188,11,81,10
3815,27,-142,185,13,81,10
3820,26,-145,186,17,80,5
3825,26,-141,188,21,80,4
3830,26,-141,185,26,78,6
3835,29,-142,185,28,75,5
3840,24,-142,187,27,73,4
3845,23,-140,186,23,68,7
3850,28,-137,183,18,67,8
3855,25,-137,183,9,63,12
3860,23,-134,183,2,59,14
3865,25,-135,186,-5,54,18
3870,26,-135,187,-11,50,21
3875,27,-133,190,-16,48,25
3880,24,-131,185,-18,46,26
3885,25,-131,187,-18,43,31
3890,25,-135,187,-16,42,33
3895,24,-133,190,-10,42,35
3900,22,-133,188,-3,43,36
3905,24,-137,189,6,45,36
3910,24,-137,189,17,47,37
3915,25,-139,188,29,48,37
3920,25,-139,186,44,50,38
3925,28,-142,187,56,51,37
3930,26,-139,185,64,51,37
3935,27,-137,184,70,51,37
3940,28,-139,184,77,51,37
3945,25,-141,180,78,49,35
3950,29,-140,179,79,47,36
3955,27,-138,180,75,45,36
3960,26,-138,183,72,41,38
3965,27,-142,178,64,39,37
3970,26,-140,183,51,37,37
3975,25,-141,180,40,34,35
3980,25,-142,182,28,31,37
3985,26,-145,183,17,30,36
3990,27,-147,186,9,29,35
3995,27,-145,182,-1,29,33
4000,25,-145,185,-8,29,34
4005,25,-149,187,-16,29,31
4010,24,-150,189,-21,28,33
4015,26,-152,187,-27,30,32
4020,25,-151,193,-29,29,33
4025,25,-149,190,-34,28,31
4030,25,-149,190,-38,28,31
4035,24,-147,191,-40,27,31
4040,22,-147,189,-41,26,31
4045,23,-148,191,-40,25,28
4050,22,-143,188,-39,24,28
4055,24,-142,189,-38,20,26
4060,24,-144,190,-35,17,27
4065,22,-143,188,-34,14,24
4070,22,-138,187,-33,11,27
4075,23,-137,186,-31,8,23
4080,22,-137,187,-30,6,24
4085,23,-137,186,-29,3,21
4090,22,-133,188,-30,3,22
4095,23,-135,184,-28,1,21
4100,22,-136,185,-26,-1,24
4105,23,-135,183,-22,-3,21
4110,24,-134,184,-17,-6,23
4115,18,-130,189,-11,-7,21
4120,26,-135,184,-8,-11,21
4125,27,-134,185,-5,-14,19
4130,26,-134,186,-5,-17,20
4135,31,-136,184,-4,-19,18
4140,30,-139,184,-6,-19,20
4145,31,-138,183,-6,-19,15
4150,30,-140,186,-6,-18,17
4155,30,-139,187,-9,-15,13
4160,32,-145,183,-9,-16,14
4165,33,-141,182,-11,-12,10
4170,33,-144,187,-13,-10,10
4175,36,-146,186,-14,-6,5
4180,35,-144,184,-16,-3,5
4185,36,-144,185,-15,-1,1
4190,34,-147,182,-14,0,1
4195,34,-143,184,-13,4,-3
4200,33,-144,184,-9,5,-2
4205,34,-143,185,-8,7,-4
4210,36,-142,186,-7,8,-3
4215,32,-140,186,-7,10,-5
4220,34,-140,190,-8,14,-3
4225,34,-140,185,-9,18,-5
4230,35,-139,183,-11,21,-4
4235,35,-138,183,-15,27,-7
4240,34,-138,183,-18,32,-6
4245,34,-135,191,-23,37,-10
4250,32,-133,188,-27,40,-7
4255,32,-134,185,-31,45,-10
4260,34,-131,190,-37,49,-9
4265,35,-134,185,-42,55,-11
4270,33,-130,186,-48,58,-8
4275,31,-133,185,-55,62,-10
4280,32,-133,184,-63,63,-8
4285,30,-134,185,-68,65,-9
4290,34,-132,182,-73,67,-6
4295,32,-133,185,-78,70,-8
4300,34,-135,183,-83,70,-6
4305,30,-134,184,-85,72,-8
4310,33,-137,184,-85,72,-6
4315,29,-137,186,-85,74,-7
4320,33,-136,185,-83,77,-4
4325,32,-135,184,-79,80,-8
4330,34,-142,188,-75,83,-6
4335,33,-137,186,-71,88,-10
4340,35,-138,184,-67,91,-9
4345,33,-139,185,-63,95,-13
4350,36,-141,188,-59,98,-11
4355,34,-140,183,-54,102,-14
4360,33,-142,189,-49,105,-13
4365,35,-146,188,-43,105,-15
4370,36,-143,188,-34,108,-14
4375,37,-143,188,-27,109,-15
4380,35,-145,185,-17,108,-12
4385,36,-143,183,-9,105,-14
4390,33,-144,181,0,105,-11
4395,32,-144,182,7,103,-12
4400,37,-147,183,12,101,-9
4405,32,-143,182,15,95,-6
4410,33,-143,180,14,93,-3
4415,33,-144,182,13,89,0
4420,35,-147,179,13,86,3
4425,33,-146,181,11,83,7
4430,32,-146,182,14,81,10
4435,35,-148,182,17,81,11
4440,30,-150,183,21,79,15
4445,30,-145,186,26,79,15
4450,29,-147,181,30,80,17
4455,29,-148,182,30,82,16
4460,30,-145,187,28,85,17
4465,27,-143,184,25,88,15
4470,28,-144,186,19,91,14
4475,27,-144,181,15,94,14
4480,25,-141,188,12,97,13
4485,26,-138,184,10,99,13
4490,24,-139,188,10,99,10
4495,24,-141,184,11,101,10
4500,23,-136,183,12,101,9
4505,25,-139,187,15,100,8
4510,24,-139,185,18,102,8
4515,26,-137,185,18,103,6
4520,25,-139,186,18,103,3
4525,26,-136,188,17,106,5
4530,25,-136,187,19,108,3
4535,26,-136,185,21,112,3
4540,25,-138,188,21,113,3
4545,26,-136,187,21,116,2
4550,26,-137,187,21,117,2
4555,29,-139,188,21,121,4
4560,26,-138,189,19,123,4
4565,27,-137,188,18,125,5
4570,27,-138,188,18,127,5
4575,28,-139,189,16,126,5
4580,25,-133,186,17,126,5
4585,27,-137,191,15,126,6
4590,26,-137,188,17,123,3
4595,26,-136,191,17,118,3
4600,27,-137,190,16,117,2
4605,24,-136,188,15,114,1
4610,26,-137,188,14,110,-1
4615,27,-139,186,10,106,-1
4620,26,-139,190,8,102,-1
4625,26,-139,186,4,98,-2
4630,24,-140,186,2,96,-3
4635,25,-137,185,1,92,-2
4640,23,-135,189,-1,88,-3
4645,28,-137,190,-3,85,0
4650,27,-140,185,-3,81,-1
4655,24,-138,183,-4,78,1
4660,27,-137,184,-5,75,0
4665,26,-136,184,-6,74,3
4670,25,-138,186,-6,73,4
4675,23,-138,183,-8,72,6
4680,25,-141,186,-8,72,4
4685,25,-140,185,-9,72,6
4690,21,-135,188,-10,72,7
4695,26,-139,187,-11,73,9
4700,23,-136,183,-12,74,8
4705,24,-138,185,-11,73,10
4710,26,-140,186,-10,74,9
4715,23,-136,191,-10,73,11
4720,24,-140,186,-10,74,10
4725,24,-138,185,-7,74,11
4730,25,-140,183,-6,76,9
4735,25,-138,189,-3,76,10
4740,25,-138,184,-2,79,8
4745,26,-139,187,0,79,8
4750,25,-138,190,0,81,5
4755,23,-138,187,0,83,5
4760,25,-140,184,2,84,3
4765,25,-140,187,1,84,5
4770,24,-137,188,1,83,2
4775,26,-140,183,-1,83,3
4780,24,-139,185,-1,82,2
4785,25,-138,184,-2,81,4
4790,24,-139,187,-2,81,3
4795,24,-136,187,-4,80,6
4800,23,-139,189,-4,79,4
4805,23,-139,183,-5,77,6
4810,25,-135,184,-6,76,5
4815,25,-137,190,-6,74,7
4820,27,-139,189,-4,71,4
4825,24,-137,190,-4,70,5
4830,25,-139,186,-6,70,5
4835,25,-137,185,-5,69,7
4840,27,-138,189,-6,69,3
4845,26,-138,186,-7,70,6
4850,24,-137,185,-6,70,3
4855,24,-135,183,-8,68,5
4860,28,-139,183,-6,68,2
4865,24,-136,185,-8,68,5
4870,24,-138,188,-7,68,2
4875,24,-136,189,-7,65,5
4880,24,-137,188,-6,65,3
4885,24,-136,190,-5,66,6
4890,25,-134,190,-2,65,4
4895,23,-135,191,-2,64,6
4900,28,-137,186,-2,63,3
4905,27,-137,192,0,64,6
4910,25,-135,191,-3,63,3
4915,25,-135,189,-4,63,6
4920,27,-133,186,-6,63,3
4925,24,-133,188,-8,63,5
4930,23,-137,189,-6,63,2
4935,27,-135,191,-7,66,4
4940,24,-136,188,-6,66,2
4945,23,-135,184,-7,65,4
4950,26,-138,186,-8,66,2
4955,26,-137,187,-8,67,3
4960,27,-139,187,-9,69,0
4965,23,-139,186,-11,71,3
4970,26,-140,185,-12,72,1
4975,25,-141,188,-13,73,4
4980,25,-140,186,-14,74,3
4985,25,-140,186,-12,74,7
4990,24,-142,188,-12,75,4
4995,25,-142,189,-12,73,8
5000,23,-142,184,-10,72,8
5005,26,-140,188,-10,70,9
5010,23,-138,185,-9,69,8
5015,23,-141,187,-8,69,10
5020,26,-139,187,-6,68,8
5025,26,-137,187,-5,69,9
5030,21,-135,187,-4,67,8
5035,26,-138,191,-3,67,7
5040,25,-139,188,-2,67,4
5045,24,-138,189,-2,68,4
5050,29,-136,185,0,69,0
5055,26,-138,188,1,70,-1
5060,26,-135,188,2,71,-4
5065,28,-135,185,3,73,-3
5070,22,-137,188,5,73,-7
5075,27,-136,185,3,73,-5
5080,25,-138,188,3,72,-7
5085,26,-138,188,4,71,-6
5090,24,-138,188,4,70,-7
5095,25,-135,189,1,68,-4
5100,24,-133,188,-1,65,-6
5105,26,-134,188,-6,65,-5
5110,26,-133,189,-11,63,-5
5115,28,-136,188,-14,63,-4
5120,25,-137,190,-14,62,-3
5125,24,-138,192,-15,63,-1
5130,22,-136,188,-14,64,-1
5135,23,-134,187,-13,66,0
5140,26,-137,187,-12,66,-2
5145,26,-140,189,-13,66,-1
5150,22,-139,190,-13,67,-3
5155,26,-141,193,-11,67,-2
5160,22,-139,191,-7,67,-5
5165,24,-142,193,3,67,-6
5170,23,-141,192,15,68,-4
5175,25,-141,192,26,70,-5
5180,23,-137,187,37,69,-3
5185,20,-137,188,47,68,-2
5190,24,-135,187,50,65,-1
5195,23,-137,183,48,64,-1
5200,23,-133,186,44,64,-1
5205,20,-133,187,35,63,-2
5210,22,-131,184,25,64,-1
5215,24,-130,190,16,65,-3
5220,23,-134,195,10,69,-4
5225,24,-136,196,10,74,-6
5230,24,-137,197,18,76,-4
5235,25,-137,200,29,82,-5
5240,24,-136,203,48,87,-4
5245,25,-134,210,65,92,-4
5250,22,-136,210,86,99,-2
5255,24,-136,207,106,105,-2
5260,23,-132,203,124,109,1
5265,21,-135,201,138,109,4
5270,19,-131,197,146,102,10
5275,19,-129,192,150,93,14
5280,16,-129,190,148,75,21
5285,16,-128,182,133,60,22
5290,18,-122,174,114,49,23
5295,14,-118,172,83,39,19
5300,14,-116,164,43,31,19
5305,16,-116,166,-1,26,16
5310,16,-114,165,-51,23,14
5315,16,-114,164,-98,22,11
5320,18,-116,169,-142,21,11
5325,19,-115,176,-179,21,10
5330,19,-120,177,-204,20,14
5335,19,-123,190,-218,23,16
5340,18,-124,190,-220,24,22
5345,21,-128,193,-211,26,23
5350,19,-132,193,-195,29,30
5355,22,-132,194,-176,35,34
5360,22,-133,194,-155,40,42
5365,23,-137,192,-138,47,45
5370,21,-137,192,-125,52,54
5375,20,-138,190,-116,58,57
5380,20,-134,187,-112,60,64
5385,21,-134,183,-111,64,65
5390,21,-134,186,-115,65,70
5395,20,-133,179,-122,61,70
5400,23,-136,183,-132,53,71
5405,21,-133,182,-140,43,69
5410,22,-132,179,-149,36,68
5415,25,-139,178,-161,26,62
5420,28,-136,176,-175,19,61
5425,28,-137,177,-189,13,54
5430,28,-138,176,-203,9,51
5435,31,-137,177,-216,7,45
5440,32,-138,177,-226,6,44
5445,33,-138,177,-233,5,39
5450,29,-135,182,-236,5,36
5455,34,-139,180,-235,9,31
5460,32,-137,181,-229,8,31
5465,31,-137,182,-225,7,29
5470,27,-136,168,-225,6,28
5475,29,-135,183,-227,1,23
5480,30,-128,173,-234,-2,22
5485,29,-137,186,-243,-5,18
5490,29,-133,171,-254,-8,18
5495,31,-156,172,-268,-12,17
5500,14,-141,180,-282,-15,22
5505,24,-134,176,-293,-16,20
5510,23,-133,176,-304,-19,26
5515,21,-135,174,-316,-22,26
5520,20,-133,180,-325,-25,31
5525,23,-135,175,-334,-30,34
5530,24,-136,176,-340,-35,42
5535,21,-137,177,-346,-41,46
5540,19,-137,178,-350,-41,56
5545,16,-137,178,-358,-41,64
5550,16,-140,181,-368,-41,75
5555,15,-136,180,-380,-39,81
5560,15,-140,182,-395,-40,92
5565,13,-139,184,-409,-45,95
5570,13,-141,187,-419,-52,104
5575,17,-147,190,-420,-65,106
5580,14,-147,194,-410,-78,112
5585,16,-148,195,-391,-91,109
5590,18,-154,194,-362,-103,109
5595,16,-153,196,-326,-111,108
5600,20,-154,193,-288,-115,112
5605,24,-156,195,-256,-117,114
5610,23,-154,192,-231,-120,122
5615,21,-148,180,-226,-124,128
5620,22,-148,179,-246,-132,144
5625,21,-143,169,-293,-145,156
5630,22,-135,168,-362,-162,171
5635,22,-136,162,-471,-171,175
5640,21,-133,165,-569,-181,176
5645,20,-132,168,-663,-186,172
5650,18,-130,173,-742,-185,166
5655,21,-132,182,-803,-183,156
5660,22,-138,186,-839,-177,149
5665,25,-143,192,-855,-166,138
5670,23,-142,193,-856,-154,131
5675,25,-144,193,-842,-135,118
5680,28,-148,193,-823,-115,109
5685,31,-152,185,-803,-94,92
5690,30,-156,185,-790,-72,78
5695,29,-156,178,-791,-54,64
5700,31,-155,175,-803,-35,52
5705,30,-158,169,-824,-11,35
5710,31,-161,165,-852,13,22
5715,31,-156,160,-882,38,5
5720,31,-159,156,-917,64,-10
5725,32,-161,153,-953,87,-28
5730,32,-157,148,-992,109,-45
5735,32,-155,144,-1036,126,-65
5740,38,-151,138,-1086,136,-81
5745,30,-150,134,-1137,141,-105
5750,35,-152,129,-1203,139,-125
5755,34,-149,130,-1254,137,-142
5760,36,-153,128,-1300,133,-157
5765,34,-156,131,-1341,131,-173
5770,37,-157,135,-1368,123,-186
5775,36,-160,138,-1382,113,-194
5780,34,-165,139,-1385,100,-197
5785,33,-169,142,-1382,90,-197
5790,35,-173,143,-1379,77,-188
5795,30,-174,138,-1380,67,-177
5800,31,-174,132,-1392,57,-161
5805,30,-177,132,-1420,50,-144
5810,31,-180,131,-1452,44,-130
5815,27,-183,130,-1486,41,-118
5820,27,-185,130,-1524,38,-110
5825,30,-191,128,-1560,32,-101
5830,27,-193,128,-1595,27,-92
5835,32,-205,129,-1621,22,-87
5840,32,-207,130,-1629,27,-89
5845,34,-211,132,-1622,38,-92
5850,34,-211,135,-1605,53,-98
5855,36,-215,131,-1577,70,-102
5860,39,-215,131,-1543,92,-107
5865,42,-217,129,-1500,111,-108
5870,41,-221,130,-1461,130,-114
5875,43,-225,124,-1421,144,-120
5880,42,-227,123,-1384,153,-129
5885,42,-229,115,-1354,159,-137
5890,37,-233,113,-1327,164,-147
5895,40,-239,114,-1301,164,-158
5900,36,-236,110,-1275,165,-168
5905,32,-238,109,-1250,159,-173
5910,30,-235,110,-1228,152,-176
5915,36,-238,107,-1207,152,-177
5920,32,-241,109,-1190,158,-175
5925,34,-242,108,-1170,160,-171
5930,32,-242,105,-1157,164,-170
5935,30,-246,109,-1145,173,-164
5940,26,-250,94,-1136,181,-161
5945,30,-256,96,-1132,186,-155
5950,31,-260,88,-1137,187,-150
5955,30,-263,78,-1148,188,-143
5960,34,-264,73,-1167,190,-139
5965,37,-269,64,-1195,194,-133
5970,37,-271,50,-1232,194,-132
5975,40,-274,45,-1275,196,-133
5980,40,-278,41,-1339,193,-140
5985,39,-281,41,-1399,180,-149
5990,40,-286,37,-1459,158,-160
5995,39,-298,40,-1514,138,-171
6000,42,-304,47,-1560,118,-183
6005,46,-315,59,-1589,104,-181
6010,47,-328,62,-1592,88,-185
6015,48,-333,71,-1562,82,-185
6020,55,-344,77,-1506,75,-187
6025,57,-350,83,-1420,77,-180
6030,60,-357,85,-1315,83,-179
6035,62,-356,89,-1193,97,-166
6040,60,-353,89,-1037,123,-151
6045,61,-344,90,-908,141,-143
6050,59,-338,86,-784,156,-135
6055,58,-335,78,-672,171,-116
6060,59,-330,76,-569,182,-110
6065,61,-326,71,-482,190,-99
6070,62,-323,66,-404,192,-104
6075,55,-314,60,-343,191,-109
6080,70,-314,56,-301,190,-116
6085,52,-302,49,-293,182,-132
6090,45,-287,41,-294,187,-143
6095,49,-287,39,-304,202,-102
6100,51,-286,35,-351,206,-79
6105,59,-283,30,-413,199,-69
6110,50,-278,33,-480,198,-80
6115,48,-275,35,-551,193,-87
6120,51,-274,33,-628,187,-91
6125,51,-272,31,-698,176,-92
6130,49,-272,40,-750,172,-107
6135,41,-272,43,-775,175,-107
6140,40,-266,35,-783,187,-89
6145,42,-278,45,-786,200,-59
6150,53,-282,37,-774,208,-44
6155,49,-285,43,-750,212,-40
6160,48,-288,47,-718,215,-36
6165,50,-293,38,-678,225,-43
6170,50,-299,43,-644,250,-55
6175,48,-297,37,-608,264,-55
6180,55,-301,32,-576,263,-38
6185,55,-298,36,-551,256,-21
6190,61,-303,26,-526,241,-22
6195,63,-301,22,-510,231,-19
6200,65,-300,24,-504,223,-17
6205,66,-301,20,-499,217,13
6210,60,-290,33,-482,224,45
6215,52,-283,37,-402,227,81
6220,69,-290,31,-315,239,107
6225,63,-288,25,-268,233,106
6230,68,-294,28,-235,241,105
6235,77,-298,17,-180,241,123
6240,75,-291,45,-133,230,168
6245,63,-282,32,-42,239,183
6250,62,-295,27,54,242,185
6255,75,-302,15,110,198,201
6260,60,-276,44,164,179,178
6265,33,-261,41,219,158,109
6270,-18,-211,55,320,145,105
6275,-23,-187,56,530,208,189
6280,-29,-176,47,643,242,262
6285,-22,-158,35,678,284,344
6290,-9,-148,43,643,339,381
6295,4,-147,41,593,377,337
6300,6,-154,33,558,386,252
6305,14,-152,22,541,375,201
6310,27,-165,15,513,365,177
6315,29,-171,8,461,359,181
6320,30,-181,0,423,362,186
6325,32,-181,-2,387,364,211
6330,29,-180,-10,343,360,233
6335,30,-180,-13,326,359,248
6340,24,-183,-14,339,375,240
6345,22,-187,-21,377,387,218
6350,24,-190,-26,410,384,190
6355,21,-191,-27,440,367,174
6360,20,-189,-27,477,349,166
6365,24,-184,-26,499,328,171
6370,23,-175,-31,525,304,178
6375,27,-168,-36,555,282,188
6380,38,-173,-35,606,263,186
6385,34,-159,-46,665,238,149
6390,31,-144,-50,741,224,112
6395,30,-137,-54,801,214,96
6400,24,-129,-65,853,201,93
6405,31,-122,-77,867,173,93
6410,31,-116,-85,830,131,77
6415,28,-100,-79,770,102,78
6420,19,-83,-79,723,94,94
6425,14,-75,-85,667,92,88
6430,7,-67,-87,609,85,57
6435,12,-65,-93,524,55,37
6440,2,-54,-88,427,19,30
6445,7,-55,-92,329,2,16
6450,4,-51,-91,235,-19,-21
6455,4,-59,-96,142,-51,-55
6460,8,-65,-91,40,-74,-58
6465,11,-69,-88,-71,-95,-47
6470,16,-79,-85,-176,-124,-44
6475,19,-88,-79,-263,-155,-60
6480,19,-92,-75,-328,-174,-78
6485,17,-103,-68,-367,-183,-95
6490,16,-109,-64,-390,-191,-102
6495,18,-115,-58,-391,-196,-109
6500,21,-122,-58,-386,-195,-115
6505,23,-128,-50,-367,-191,-115
6510,20,-133,-48,-343,-185,-106
6515,24,-138,-40,-313,-175,-95
6520,26,-147,-36,-278,-166,-82
6525,24,-150,-34,-244,-160,-73
6530,29,-159,-25,-213,-157,-63
6535,31,-163,-23,-184,-152,-56
6540,31,-174,-15,-155,-146,-44
6545,33,-185,-8,-127,-139,-38
6550,34,-191,-2,-92,-129,-28
6555,40,-198,13,-51,-117,-22
6560,39,-208,18,-7,-102,-13
6565,40,-219,36,57,-88,-10
6570,46,-236,50,123,-84,-8
6575,48,-254,57,205,-87,-18
6580,48,-264,70,301,-92,-25
6585,48,-277,82,419,-100,-30
6590,49,-292,100,559,-106,-24
6595,53,-304,109,709,-105,-11
6600,62,-323,127,863,-98,5
6605,69,-341,124,1022,-84,13
6610,69,-349,128,1174,-62,16
6615,72,-360,122,1322,-45,-3
6620,68,-365,114,1482,-34,-18
6625,66,-369,100,1590,-17,-24
6630,68,-371,94,1683,14,-15
6635,67,-367,88,1761,53,-8
6640,67,-360,86,1826,96,5
6645,65,-348,80,1874,139,15
6650,65,-341,74,1903,180,39
6655,63,-329,66,1918,209,62
6660,64,-320,67,1918,227,87
6665,63,-308,62,1900,229,103
6670,62,-296,57,1860,224,116
6675,60,-284,54,1798,219,118
6680,51,-266,56,1702,207,114
6685,49,-250,59,1613,186,100
6690,43,-236,59,1523,168,95
6695,39,-226,67,1442,152,83
6700,38,-218,74,1386,141,79
6705,31,-212,84,1357,139,71
6710,30,-211,104,1366,138,65
6715,27,-217,118,1410,145,49
6720,25,-216,153,1499,162,41
6725,25,-230,195,1643,185,29
6730,24,-239,266,1862,202,11
6735,28,-261,370,2196,224,-4
6740,26,-309,464,2832,245,-28
6745,32,-379,542,3598,282,-59
6750,37,-451,625,4559,371,-70
6755,31,-511,626,5662,442,-72
6760,21,-545,573,6772,444,-36
6765,-1,-562,478,7660,389,49
6770,-17,-553,348,8152,294,180
6775,-21,-509,167,8161,173,278
6780,7,-444,-29,7648,60,339
6785,-4,-343,-151,6679,-32,307
6790,-47,-232,-212,5430,-121,272
6795,-81,-122,-201,3777,-167,347
6800,-77,-48,-133,2463,-183,518
6805,-70,29,-27,1427,-206,668
6810,-69,84,65,725,-216,732
6815,-69,100,128,328,-184,696
6820,-68,84,174,127,-108,607
6825,-65,47,205,13,-21,496
6830,-52,-14,227,-110,71,393
6835,-31,-68,259,-300,125,274
6840,-14,-113,265,-564,140,147
6845,4,-150,260,-868,140,10
6850,27,-172,240,-1179,151,-123
6855,46,-181,235,-1503,211,-187
6860,58,-173,224,-1693,288,-219
6865,63,-156,217,-1793,381,-214
6870,65,-142,215,-1786,448,-200
6875,58,-128,210,-1691,491,-181
6880,57,-122,209,-1526,506,-142
6885,56,-108,217,-1318,498,-96
6890,46,-90,213,-1080,473,-42
6895,35,-72,220,-818,436,11
6900,24,-62,228,-546,398,66
6905,13,-58,242,-276,355,122
6910,7,-65,249,44,279,166
6915,3,-81,248,287,197,213
6920,2,-91,241,489,111,262
6925,1,-109,237,630,36,306
6930,3,-118,225,706,-18,335
6935,0,-124,218,726,-55,337
6940,1,-125,222,707,-83,317
6945,2,-124,220,665,-105,274
6950,3,-120,219,613,-119,218
6955,4,-118,222,552,-123,155
6960,7,-113,225,489,-119,99
6965,12,-110,222,423,-99,39
6970,14,-105,223,352,-66,-3
6975,23,-102,226,307,-7,-20
6980,18,-89,235,280,69,-39
6985,23,-97,232,279,143,-66
6990,14,-84,215,294,213,-80
6995,16,-89,205,331,248,-95
7000,22,-93,195,372,266,-94
7005,25,-96,188,403,285,-81
7010,17,-101,184,423,307,-63
7015,13,-101,178,425,305,-50
7020,13,-101,180,408,282,-24
7025,11,-105,172,354,237,5
7030,14,-109,175,287,193,27
7035,14,-113,171,210,142,43
7040,17,-119,172,129,94,48
7045,20,-115,172,49,45,43
7050,23,-120,178,-22,11,34
7055,23,-125,183,-79,-14,23
7060,23,-127,192,-112,-36,2
7065,26,-127,195,-126,-57,-21
7070,27,-126,198,-118,-63,-39
7075,24,-135,197,-91,-62,-60
7080,24,-130,200,-51,-58,-83
7085,15,-128,204,6,-56,-101
7090,16,-125,206,56,-51,-116
7095,12,-124,200,97,-46,-123
7100,13,-119,197,130,-41,-126
7105,14,-114,194,151,-38,-125
7110,10,-106,190,158,-30,-119
7115,12,-106,188,158,-18,-112
7120,9,-100,182,153,-6,-104
7125,5,-95,181,152,7,-88
7130,9,-98,186,155,20,-72
7135,8,-100,180,158,31,-50
7140,10,-101,177,162,40,-41
7145,9,-104,177,163,45,-29
7150,8,-101,179,162,46,-21
7155,9,-108,182,160,45,-8
7160,9,-107,181,160,39,-2
7165,9,-110,181,160,29,6
7170,14,-114,184,165,19,11
7175,16,-116,188,170,8,19
7180,12,-112,191,175,-5,20
7185,13,-112,195,180,-20,25
7190,13,-111,191,180,-33,23
7195,13,-110,196,175,-45,21
7200,17,-111,199,164,-55,16
7205,11,-109,203,156,-56,8
7210,11,-109,202,150,-69,-6
7215,17,-111,204,144,-74,-12
7220,16,-112,201,140,-76,-23
7225,16,-113,208,136,-66,-24
7230,7,-107,208,130,-55,-36
7235,10,-106,205,122,-53,-40
7240,13,-111,203,110,-52,-45
7245,14,-111,200,94,-48,-43
7250,14,-112,197,71,-40,-42
7255,13,-113,196,44,-28,-34
7260,15,-113,195,8,-18,-31
7265,14,-114,195,-22,-9,-19
7270,15,-116,195,-46,0,-14
7275,16,-117,193,-67,7,-3
7280,17,-118,194,-79,15,2
7285,17,-119,193,-88,20,11
7290,20,-121,191,-93,24,17
7295,22,-119,192,-98,28,27
7300,21,-116,192,-104,28,31
7305,22,-118,193,-110,27,38
7310,22,-117,193,-116,24,40
7315,23,-117,195,-123,19,45
7320,23,-119,197,-129,15,47
7325,26,-117,199,-137,15,57
7330,26,-117,195,-146,18,55
7335,22,-114,197,-156,6,48
7340,27,-117,196,-167,-4,44
7345,28,-122,200,-182,-14,46
7350,29,-123,198,-195,-17,40
7355,29,-122,201,-208,-18,39
7360,29,-123,199,-223,-16,33
7365,30,-124,197,-237,-15,30
7370,35,-124,199,-247,-8,19
7375,31,-125,197,-258,-1,15
7380,32,-126,194,-266,9,10
7385,31,-127,198,-272,20,7
7390,34,-126,200,-279,33,-1
7395,37,-129,196,-281,49,-6
7400,35,-128,195,-281,62,-17
7405,36,-128,193,-275,76,-20
7410,34,-131,192,-266,85,-28
7415,33,-129,192,-258,93,-31
7420,40,-130,187,-251,100,-41
7425,37,-132,186,-243,107,-49
7430,37,-134,187,-237,112,-59
7435,34,-135,187,-233,116,-64
7440,35,-135,184,-227,118,-70
7445,36,-136,187,-221,120,-76
7450,34,-139,186,-214,125,-85
7455,34,-139,183,-200,129,-90
7460,32,-141,184,-186,131,-96
7465,31,-141,183,-170,132,-98
7470,30,-143,185,-154,131,-101
7475,29,-145,184,-140,127,-101
7480,27,-144,182,-127,120,-104
7485,25,-145,183,-117,110,-98
7490,23,-145,180,-104,102,-93
7495,21,-146,179,-100,96,-84
7500,24,-150,178,-96,92,-76
7505,17,-148,179,-94,89,-66
7510,15,-145,182,-92,88,-55
7515,15,-146,185,-88,90,-40
7520,11,-146,186,-78,94,-29
7525,12,-150,188,-63,98,-15
7530,12,-150,187,-43,103,-6
7535,11,-147,188,-23,109,4
7540,11,-150,188,-2,113,10
7545,11,-147,185,18,114,14
7550,9,-144,185,25,113,14
7555,10,-142,182,31,111,13
7560,10,-146,184,29,109,9
7565,12,-145,184,27,105,4
7570,12,-141,187,26,100,0
7575,12,-144,184,25,96,-5
7580,9,-143,184,28,90,-12
7585,10,-143,185,31,84,-19
7590,14,-142,185,37,77,-27
7595,15,-142,184,43,75,-34
7600,17,-142,185,49,70,-39
7605,17,-142,187,53,66,-46
7610,19,-142,181,61,65,-51
7615,20,-139,187,67,62,-58
7620,19,-139,184,76,61,-60
7625,22,-138,185,86,57,-62
7630,24,-137,189,99,56,-63
7635,22,-140,189,113,56,-66
7640,24,-139,185,127,54,-66
7645,20,-136,189,140,53,-66
7650,24,-138,191,152,50,-63
7655,20,-135,190,162,48,-62
7660,25,-136,191,172,48,-57
7665,23,-137,194,181,44,-55
7670,22,-135,193,192,42,-47
7675,23,-134,192,202,38,-40
7680,22,-136,196,211,36,-32
7685,23,-131,195,221,33,-27
7690,19,-131,196,228,32,-20
7695,22,-129,192,231,31,-15
7700,20,-128,191,229,32,-7
7705,20,-130,187,223,34,-2
7710,18,-127,187,211,36,8
7715,18,-127,193,191,38,12
7720,17,-126,192,172,39,19
7725,16,-126,193,154,39,21
7730,20,-129,195,136,36,25
7735,16,-128,194,124,33,24
7740,15,-128,200,113,32,24
7745,17,-131,196,105,31,22
7750,17,-130,196,100,29,24
7755,19,-129,201,95,29,24
7760,19,-129,198,94,27,28
7765,21,-133,200,95,26,27
7770,21,-129,199,98,24,31
7775,17,-129,199,105,23,31
7780,18,-128,195,109,19,34
7785,22,-130,195,113,19,33
7790,17,-128,195,112,16,37
7795,17,-127,193,107,15,36
7800,18,-124,194,105,15,40
7805,20,-124,189,101,14,39
7810,20,-122,189,96,15,45
7815,20,-123,190,90,18,42
7820,24,-122,187,81,19,43
7825,21,-121,185,71,19,41
7830,22,-125,185,59,19,44
7835,18,-123,191,55,20,44
7840,20,-125,190,56,17,46
7845,17,-126,193,61,12,44
7850,19,-124,193,68,4,48
7855,22,-127,192,82,-3,50
7860,23,-125,195,102,-9,57
7865,17,-126,194,120,-11,62
7870,15,-122,197,136,-13,74
7875,17,-124,193,149,-11,80
7880,16,-123,198,153,-6,95
7885,14,-122,197,148,-8,103
7890,13,-127,200,137,-9,114
7895,16,-126,197,122,-11,115
7900,11,-125,197,107,-11,119
7905,14,-124,199,89,-8,113
7910,18,-126,199,73,-5,111
7915,20,-129,194,59,1,100
7920,21,-123,194,47,6,94
7925,21,-125,194,41,10,84
7930,24,-122,195,41,14,76
7935,29,-124,196,46,16,64
7940,25,-122,199,55,21,53
7945,33,-121,194,67,27,39
7950,33,-121,194,71,34,31
7955,36,-120,192,71,41,19
7960,35,-116,193,65,48,9
7965,36,-115,193,57,58,-1
7970,40,-114,195,44,66,-8
7975,36,-114,195,33,72,-18
7980,39,-115,196,23,78,-22
7985,37,-116,199,17,83,-28
7990,37,-118,202,14,87,-27
7995,38,-116,203,13,88,-29
8000,32,-122,202,14,89,-25
8005,30,-120,202,14,91,-23
8010,34,-124,202,14,90,-19
8015,38,-116,205,9,91,-20
8020,29,-118,197,1,91,-17
8025,35,-115,200,-8,95,-17
8030,26,-139,191,-19,99,-14
8035,28,-126,201,-30,106,-17
8040,21,-123,183,-40,110,-14
8045,31,-124,188,-44,114,-17
8050,20,-122,192,-46,117,-18
8055,22,-127,197,-44,123,-21
8060,18,-128,193,-40,126,-24
8065,18,-128,194,-33,129,-28
8070,21,-128,199,-24,129,-30
8075,14,-128,195,-15,132,-37
8080,15,-127,195,-5,133,-37
8085,15,-126,194,2,133,-42
8090,16,-127,194,8,133,-46
8095,17,-127,197,10,131,-50
8100,15,-125,194,10,130,-52
8105,16,-125,194,7,128,-54
8110,18,-127,194,2,125,-53
8115,17,-124,197,-4,125,-53
8120,19,-126,195,-10,124,-49
8125,20,-126,195,-14,122,-46
8130,23,-123,194,-19,120,-43
8135,21,-125,196,-23,118,-39
8140,24,-125,192,-25,117,-34
8145,20,-125,196,-29,113,-28
8150,23,-122,194,-31,107,-22
8155,25,-124,198,-32,104,-17
8160,25,-124,198,-33,101,-11
8165,23,-121,197,-33,96,-7
8170,23,-124,198,-30,90,-3
8175,23,-122,195,-26,83,1
8180,25,-121,192,-22,79,2
8185,23,-121,202,-18,75,6
8190,24,-120,195,-11,69,8
8195,24,-120,195,-3,64,12
8200,22,-117,198,3,60,14
8205,20,-120,195,10,57,18
8210,19,-120,194,12,53,19
8215,21,-118,198,15,53,21
8220,23,-121,200,18,51,22
8225,18,-119,197,21,51,24
8230,22,-120,198,21,56,23
8235,18,-117,187,23,59,24
8240,16,-121,199,25,63,23
8245,21,-120,199,29,66,24
8250,19,-120,201,31,68,22
8255,21,-122,197,32,70,24
8260,17,-120,198,33,72,23
8265,16,-122,198,33,73,23
8270,18,-122,199,30,73,22
8275,18,-124,195,28,73,23
8280,18,-121,197,27,69,23
8285,13,-120,193,22,69,26
8290,17,-125,194,17,66,26
8295,17,-123,195,11,62,28
8300,17,-123,193,4,60,28
8305,16,-120,198,-2,57,31
8310,14,-124,197,-6,55,31
8315,15,-124,195,-11,52,34
8320,17,-122,196,-13,51,34
8325,17,-126,195,-13,49,36
8330,15,-121,195,-11,47,35
8335,15,-125,194,-8,46,41
8340,16,-122,196,-7,45,41
8345,16,-124,193,-4,44,44
8350,20,-125,195,0,43,42
8355,17,-125,196,3,43,45
8360,17,-122,196,7,45,42
8365,19,-125,199,11,46,41
8370,16,-125,195,14,45,38
8375,17,-123,196,15,46,37
8380,17,-123,199,15,48,32
8385,16,-121,198,16,48,30
8390,18,-117,197,16,48,24
8395,18,-122,199,15,49,21
8400,17,-123,196,12,52,16
8405,18,-119,200,8,53,18
8410,18,-121,198,4,54,14
8415,22,-122,199,1,56,13
8420,21,-120,199,-4,58,8
8425,18,-120,197,-7,60,10
8430,18,-118,197,-10,61,7
8435,20,-119,200,-13,62,8
8440,21,-118,197,-13,62,5
8445,22,-121,197,-13,61,7
8450,22,-120,201,-11,61,6
8455,22,-122,197,-10,64,9
8460,21,-121,200,-8,62,7
8465,20,-121,198,-3,65,12
8470,20,-120,201,0,67,10
8475,20,-122,197,5,68,13
8480,19,-121,197,10,71,12
8485,21,-122,197,15,74,14
8490,21,-122,199,16,76,12
8495,22,-122,195,17,78,15
8500,20,-121,197,17,78,11
8505,21,-122,196,14,78,12
8510,16,-117,196,11,78,10
8515,18,-120,196,2,76,12
8520,17,-119,194,-4,76,8
8525,22,-119,193,-10,76,8
8530,18,-121,193,-15,76,3
8535,21,-123,197,-17,78,2
8540,20,-121,198,-17,77,-3
8545,19,-125,193,-16,77,-4
8550,18,-123,196,-13,78,-9
8555,19,-125,198,-7,78,-8
8560,19,-124,195,-3,80,-13
8565,19,-122,193,4,81,-9
8570,18,-126,195,12,80,-13
8575,20,-123,198,12,81,-12
8580,21,-123,201,12,82,-15
8585,17,-121,200,11,82,-14
8590,21,-121,199,10,82,-17
8595,21,-122,196,8,82,-14
8600,21,-121,201,6,85,-16
8605,18,-117,201,6,87,-17
8610,21,-120,197,5,91,-18
8615,21,-118,201,4,95,-17
8620,19,-116,199,3,96,-18
8625,23,-119,204,1,98,-15
8630,19,-119,198,-1,100,-17
8635,16,-116,199,-5,102,-14
8640,20,-118,194,-9,101,-13
8645,19,-116,194,-12,100,-11
8650,15,-116,200,-16,99,-12
8655,16,-120,196,-21,98,-9
8660,15,-120,203,-23,98,-9
8665,14,-118,199,-24,96,-7
8670,12,-118,198,-24,94,-8
8675,14,-119,195,-23,92,-6
8680,15,-119,198,-21,90,-7
8685,15,-120,198,-17,89,-8
8690,15,-121,194,-16,87,-9
8695,14,-121,197,-13,87,-9
8700,17,-117,196,-9,87,-12
8705,21,-119,199,-5,88,-13
8710,16,-117,200,-1,87,-16
8715,18,-118,198,1,89,-17
8720,20,-119,201,4,89,-19
8725,21,-120,199,6,90,-18
8730,21,-120,197,6,89,-19
8735,19,-116,199,8,87,-16
8740,19,-120,198,9,84,-13
8745,22,-120,195,11,79,-8
8750,20,-117,194,13,76,-2
8755,18,-119,200,14,71,2
8760,21,-118,199,13,67,7
8765,18,-121,194,13,60,10
8770,18,-119,193,12,57,14
8775,16,-120,194,9,51,17
8780,14,-138,202,7,47,19
8785,19,-125,196,3,44,21
8790,16,-120,199,-1,40,21
8795,15,-122,195,-4,38,22
8800,15,-122,198,-6,36,24
8805,15,-122,197,-6,36,23
8810,16,-122,195,-5,35,24
8815,15,-123,193,-3,35,24
8820,15,-125,195,2,36,26
8825,17,-125,196,5,37,26
8830,16,-124,198,9,36,27
8835,12,-121,196,14,37,27
8840,14,-124,198,17,42,28
8845,17,-122,197,21,45,27
8850,18,-123,197,24,44,27
8855,18,-122,195,29,47,25
8860,18,-121,197,33,48,27
8865,15,-120,196,37,48,25
8870,18,-121,203,41,49,27
8875,19,-117,204,46,49,26
8880,16,-118,198,53,48,28
8885,14,-118,201,59,49,27
8890,18,-120,203,64,47,29
8895,18,-117,199,69,45,27
8900,17,-115,201,70,44,28
8905,14,-116,201,72,43,27
8910,16,-116,198,69,43,29
8915,14,-115,199,65,45,24
8920,14,-114,201,60,47,25
8925,14,-113,200,53,49,21
8930,14,-114,196,45,52,22
8935,13,-116,199,37,55,18
8940,14,-114,200,30,55,18
8945,17,-118,203,25,59,15
8950,13,-115,198,20,62,16
8955,16,-114,200,16,66,14
8960,13,-116,198,12,69,15
8965,16,-114,200,8,73,9
8970,17,-119,202,5,79,11
8975,18,-117,198,2,80,7
8980,15,-117,198,-2,82,8
8985,21,-117,201,-6,83,5
8990,17,-117,199,-8,84,8
8995,15,-117,196,-12,83,3
9000,16,-117,196,-13,82,5
9005,18,-116,198,-14,80,1
9010,20,-119,201,-12,78,2
9015,18,-116,204,-8,75,-2
9020,19,-119,202,-3,70,-3
9025,18,-116,200,3,65,-6
9030,21,-117,203,12,62,-7
9035,23,-116,202,20,59,-11
9040,22,-119,201,25,58,-11
9045,20,-117,204,31,57,-16
9050,20,-115,200,35,57,-15
9055,22,-115,205,38,58,-18
9060,22,-118,198,37,59,-18
9065,21,-114,201,37,60,-21
9070,21,-114,198,34,61,-19
9075,19,-113,200,30,61,-24
9080,18,-114,197,25,61,-22
9085,14,-112,196,18,62,-25
9090,20,-114,196,12,63,-25
9095,16,-112,196,7,60,-27
9100,17,-116,194,5,61,-25
9105,15,-117,198,2,60,-26
9110,14,-115,199,3,62,-22
9115,14,-120,200,6,62,-23
9120,14,-119,199,11,62,-21
9125,17,-120,200,18,62,-23
9130,17,-121,196,23,62,-21
9135,16,-122,200,28,62,-22
9140,16,-118,200,34,64,-21
9145,19,-123,195,35,65,-23
9150,14,-117,198,34,66,-22
9155,19,-118,196,31,68,-25
9160,18,-117,201,31,68,-22
9165,21,-115,198,27,71,-24
9170,19,-116,201,23,71,-20
9175,21,-115,198,20,72,-22
9180,20,-116,198,22,73,-18
9185,20,-112,201,22,75,-18
9190,19,-113,201,24,76,-14
9195,18,-113,201,26,73,-13
9200,19,-111,200,28,71,-10
9205,15,-113,200,30,69,-9
9210,15,-111,198,30,67,-4
9215,14,-114,201,28,65,-3
9220,16,-113,198,25,60,1
9225,16,-112,202,21,60,2
9230,16,-112,201,16,59,5
9235,16,-112,200,12,57,6
9240,16,-114,203,8,56,9
9245,15,-111,200,4,55,9
9250,15,-107,203,2,56,11
9255,15,-112,195,-1,57,11
9260,17,-114,199,0,55,12
9265,15,-112,203,-1,59,12
9270,17,-113,204,-3,60,13
9275,18,-115,201,-3,61,11
9280,18,-114,199,-4,62,10
9285,19,-117,200,-4,62,6
9290,15,-114,200,-4,61,6
9295,17,-116,203,-6,59,3
9300,18,-114,200,-5,60,1
9305,18,-116,207,-4,59,-2
9310,15,-120,200,-2,61,-4
9315,16,-116,202,1,59,-4
9320,16,-115,199,4,59,-4
9325,17,-116,203,7,57,-4
9330,17,-116,203,12,55,-5
9335,15,-115,201,16,53,-5
9340,15,-116,202,21,50,-6
9345,16,-113,200,25,50,-5
9350,16,-114,201,27,47,-4
9355,19,-111,202,29,45,-3
9360,19,-115,201,30,43,-2
9365,16,-111,204,29,41,0
9370,18,-111,203,28,41,-1
9375,18,-112,200,28,41,0
9380,15,-108,203,26,42,-1
9385,16,-111,204,25,41,0
9390,14,-108,202,21,42,-1
9395,14,-111,208,16,43,-2
9400,15,-112,205,11,43,-3
9405,18,-112,204,7,44,-3
9410,14,-113,202,4,43,-5
9415,15,-111,200,0,41,-4
9420,15,-112,203,-3,40,-6
9425,16,-111,200,-5,39,-5
9430,15,-113,200,-6,38,-7
9435,16,-114,200,-5,39,-5
9440,16,-112,200,-5,38,-6
9445,15,-111,201,-4,38,-4
9450,19,-115,201,-4,39,-4
9455,21,-117,200,-4,40,-1
9460,19,-115,197,-4,42,-1
9465,15,-114,202,-3,43,1
9470,15,-111,201,-3,46,1
9475,17,-110,199,-2,47,4
9480,20,-112,199,-2,51,4
9485,19,-113,201,3,51,6
9490,17,-112,204,5,54,4
9495,19,-111,199,7,53,6
9500,19,-111,202,10,55,4
9505,19,-113,204,13,54,7
9510,18,-113,199,14,53,5
9515,18,-113,203,15,52,7
9520,20,-112,202,16,50,5
9525,17,-111,207,17,51,6
9530,16,-110,207,16,51,3
9535,19,-110,206,17,52,5
9540,18,-111,206,17,51,1
9545,19,-111,204,16,54,2
9550,19,-109,206,13,55,-2
9555,16,-108,203,10,59,1
9560,17,-113,201,6,60,-4
9565,19,-110,204,1,63,-4
9570,17,-108,200,-4,65,-9
9575,19,-109,203,-8,67,-9
9580,19,-111,200,-12,68,-12
9585,22,-110,203,-17,68,-12
9590,20,-116,200,-21,68,-14
9595,20,-113,199,-25,66,-13
9600,20,-112,204,-30,63,-15
9605,20,-114,202,-30,61,-11
9610,19,-114,200,-33,59,-13
9615,18,-115,202,-32,57,-11
9620,17,-115,204,-32,54,-12
9625,20,-115,204,-33,53,-8
9630,20,-117,201,-32,51,-8
9635,17,-114,201,-28,48,-4
9640,21,-114,202,-23,47,-5
9645,17,-117,201,-20,47,1
9650,18,-114,200,-15,46,0
9655,17,-113,200,-12,47,2
9660,20,-116,199,-11,47,3
9665,18,-112,198,-11,47,5
9670,16,-112,198,-13,49,4
9675,16,-110,197,-15,50,7
9680,17,-115,198,-13,52,5
9685,17,-113,196,-13,52,7
9690,14,-114,203,-10,55,2
9695,19,-115,202,-5,56,4
9700,19,-114,201,-4,58,0
9705,20,-114,202,1,60,0
9710,17,-111,202,5,62,-4
9715,20,-114,200,8,62,-4
9720,17,-112,202,12,62,-8
9725,22,-109,198,12,63,-9
9730,22,-112,200,11,63,-12
9735,23,-113,202,11,64,-12
9740,23,-113,202,11,64,-15
9745,23,-115,201,9,63,-13
9750,21,-112,200,10,67,-16
9755,23,-112,205,8,64,-15
9760,25,-115,202,9,63,-18
9765,21,-110,200,8,61,-17
9770,27,-114,203,6,61,-18
9775,22,-110,202,8,56,-16
9780,23,-112,202,8,55,-15
9785,23,-114,205,10,54,-13
9790,20,-113,202,10,52,-11
9795,21,-113,200,9,47,-8
9800,21,-111,199,8,45,-5
9805,18,-110,198,8,43,-2
9810,19,-113,202,6,41,-2
9815,16,-107,204,6,40,3
9820,18,-111,198,5,38,3
9825,16,-112,200,2,37,7
9830,18,-112,200,3,38,8
9835,18,-114,203,0,39,9
9840,16,-111,201,-1,40,9
9845,16,-110,201,-3,40,13
9850,15,-109,207,-6,42,12
9855,15,-111,202,-7,45,12
9860,16,-114,204,-6,46,10
9865,17,-113,204,-6,49,11
9870,17,-108,201,-5,51,9
9875,15,-110,202,-5,53,10
9880,19,-113,204,-6,55,10
9885,18,-114,202,-7,57,9
9890,18,-111,204,-8,57,9
9895,18,-112,201,-11,59,10
9900,17,-109,202,-13,62,9
9905,20,-110,201,-15,62,8
9910,18,-109,207,-17,63,9
9915,18,-109,202,-17,60,9
9920,17,-107,202,-17,60,9
9925,18,-112,203,-17,59,9
9930,17,-112,204,-17,57,9
9935,17,-112,202,-15,54,10
9940,19,-112,204,-13,51,11
9945,15,-114,203,-5,51,10
9950,16,-111,203,2,48,11
9955,16,-109,202,10,45,10
9960,19,-114,203,17,45,9
9965,19,-115,208,21,42,7
9970,19,-112,202,24,42,7
9975,22,-115,200,25,40,5
9980,18,-115,202,27,42,5
9985,18,-113,201,27,41,0
9990,16,-115,204,29,40,0
9995,18,-113,206,29,42,-5
10000,19,-115,202,30,39,-8
10005,20,-115,205,31,39,-10
10010,19,-113,203,31,38,-10
10015,22,-114,204,30,38,-14
10020,23,-113,205,30,38,-16
10025,19,-109,205,28,39,-19
10030,23,-110,204,26,43,-18
10035,21,-112,205,23,44,-20
10040,20,-111,201,22,48,-20
10045,20,-109,203,21,50,-23
10050,20,-109,203,19,55,-21
10055,22,-106,206,17,61,-22
10060,23,-109,202,15,65,-21
10065,23,-106,199,14,72,-24
10070,21,-107,200,8,77,-22
10075,23,-109,198,2,82,-24
10080,23,-107,198,-9,87,-22
10085,22,-106,199,-20,91,-25
10090,24,-106,201,-32,94,-23
10095,20,-108,199,-44,98,-25
10100,22,-107,205,-51,100,-24
10105,23,-110,205,-55,102,-28
10110,23,-110,199,-54,104,-30
10115,25,-112,206,-50,105,-35
10120,23,-110,199,-46,106,-36
10125,27,-109,202,-42,107,-41
10130,23,-110,204,-40,108,-40
10135,22,-109,202,-39,106,-43
10140,23,-111,199,-40,104,-40
10145,24,-109,198,-42,101,-40
10150,23,-109,201,-42,98,-38
10155,20,-111,201,-44,93,-38
10160,23,-112,203,-44,90,-34
10165,20,-113,200,-41,85,-32
10170,19,-116,201,-40,82,-26
10175,18,-114,198,-37,80,-26
10180,18,-113,197,-35,78,-18
10185,17,-113,197,-35,77,-17
10190,17,-115,200,-33,75,-9
10195,17,-112,201,-31,73,-6
10200,17,-111,201,-29,73,1
10205,15,-113,200,-27,72,2
10210,14,-111,200,-22,71,9
10215,13,-113,198,-21,72,10
10220,18,-112,198,-17,73,15
10225,19,-112,201,-16,73,15
10230,17,-112,199,-14,75,18
10235,17,-110,198,-14,76,15
10240,19,-112,199,-12,75,17
10245,18,-111,203,-12,75,12
10250,18,-115,200,-9,75,13
10255,19,-111,200,-8,72,9
10260,20,-112,203,-5,70,10
10265,18,-112,207,-3,68,7
10270,18,-111,205,-1,65,8
10275,19,-110,203,2,62,5
10280,19,-113,203,5,58,6
10285,16,-109,207,11,52,6
10290,20,-110,207,13,49,7
10295,15,-110,204,14,45,8
10300,19,-111,205,16,42,11
10305,16,-110,204,16,42,11
10310,19,-109,202,14,42,15
10315,20,-110,199,10,43,14
10320,20,-111,203,8,43,18
10325,16,-109,204,3,44,19
10330,17,-109,206,0,44,21
10335,16,-106,200,-2,44,20
10340,15,-110,206,0,47,23
10345,13,-108,204,2,47,21
10350,17,-111,206,5,48,23
10355,15,-111,204,8,49,23
10360,14,-109,203,11,52,23
10365,13,-108,207,12,52,22
10370,15,-108,208,13,54,23
10375,14,-110,208,14,56,20
10380,15,-108,204,12,56,20
10385,16,-112,203,11,56,19
10390,15,-110,202,7,57,18
10395,15,-111,203,2,57,17
10400,13,-107,206,-1,59,16
10405,16,-107,201,-8,60,14
10410,16,-109,202,-14,61,14
10415,17,-108,205,-19,64,11
10420,16,-111,202,-25,66,11
10425,15,-108,204,-30,68,8
10430,18,-110,204,-33,70,8
10435,20,-109,203,-32,75,5
10440,20,-112,202,-32,77,5
10445,20,-112,202,-27,80,2
10450,20,-109,204,-24,81,2
10455,21,-109,203,-21,81,1
10460,21,-111,203,-18,83,-1
10465,21,-110,204,-16,83,-3
10470,23,-113,203,-14,83,-3
10475,21,-110,201,-13,84,-1
10480,19,-110,201,-15,84,-4
10485,21,-110,204,-17,84,-5
10490,22,-111,204,-19,84,-9
10495,22,-108,204,-19,84,-10
10500,24,-108,206,-17,83,-14
10505,19,-111,205,-14,83,-19
10510,22,-109,205,-6,81,-25
10515,27,-98,200,1,80,-29
10520,14,-96,193,5,81,-33
10525,21,-105,198,11,83,-36
10530,24,-112,202,12,85,-40
10535,17,-100,200,13,83,-41
10540,27,-110,204,12,84,-45
10545,31,-111,206,8,85,-46
10550,36,-116,194,1,85,-47
10555,25,-106,201,-6,83,-48
10560,21,-108,200,-14,83,-51
10565,18,-109,199,-20,82,-48
10570,19,-109,200,-27,83,-51
10575,15,-108,204,-33,83,-49
10580,18,-106,204,-35,82,-48
10585,16,-109,200,-37,82,-46
10590,17,-109,202,-37,82,-45
10595,18,-112,202,-37,81,-39
10600,16,-111,198,-36,79,-38
10605,19,-112,202,-38,78,-32
10610,16,-111,200,-40,76,-29
10615,14,-109,200,-43,73,-24
10620,15,-111,202,-48,72,-22
10625,18,-110,198,-53,70,-18
10630,16,-110,200,-57,69,-16
10635,15,-111,200,-57,68,-11
10640,13,-112,200,-56,67,-10
10645,15,-110,198,-55,68,-5
10650,14,-110,203,-51,68,-6
10655,16,-113,199,-46,69,-2
10660,16,-113,203,-42,69,-3
10665,19,-114,203,-38,70,2
10670,16,-114,204,-36,70,0
10675,18,-115,202,-35,72,3
10680,17,-110,203,-31,71,1
10685,17,-114,198,-29,70,2
10690,19,-111,203,-26,72,-1
10695,20,-112,202,-22,70,1
10700,20,-114,205,-19,68,-2
10705,21,-111,203,-16,68,0
10710,22,-111,202,-13,65,-3
10715,19,-110,200,-12,63,-3
10720,18,-113,205,-7,60,-5
10725,21,-112,202,-5,57,-5
10730,18,-109,202,-5,56,-9
10735,17,-107,203,-7,55,-8
10740,18,-108,200,-10,55,-11
10745,17,-110,202,-14,54,-10
10750,18,-108,202,-21,54,-12
10755,16,-106,205,-27,54,-8
10760,15,-105,199,-34,56,-9
10765,14,-108,202,-41,58,-6
10770,18,-109,200,-48,59,-7
10775,15,-110,204,-55,60,-5
10780,16,-110,202,-61,61,-8
10785,15,-110,203,-68,64,-3
10790,18,-110,201,-75,62,-5
10795,18,-110,205,-80,62,-1
10800,19,-109,201,-85,60,-3
10805,20,-112,201,-89,61,0
10810,18,-109,204,-91,57,-2
10815,16,-111,204,-93,58,1
10820,17,-112,205,-93,55,-1
10825,19,-113,206,-92,55,1
10830,17,-110,204,-90,55,-2
10835,18,-110,203,-86,52,2
10840,20,-109,205,-82,52,-1
10845,19,-112,201,-77,49,2
10850,20,-109,201,-77,47,-1
10855,19,-111,203,-77,47,2
10860,20,-110,200,-78,45,1
10865,21,-109,201,-82,41,4
10870,21,-110,198,-87,40,4
10875,19,-111,200,-93,40,6
10880,19,-110,198,-98,39,5
10885,21,-112,202,-101,39,9
10890,19,-113,198,-102,36,7
10895,19,-112,203,-101,37,11
10900,19,-113,200,-96,36,11
10905,20,-111,200,-90,37,15
10910,19,-116,204,-86,38,16
10915,19,-116,197,-80,40,18
10920,17,-115,202,-77,42,17
10925,17,-117,202,-72,43,19
10930,21,-120,202,-70,48,20
10935,17,-117,199,-68,50,20
10940,19,-116,199,-69,51,18
10945,19,-117,200,-67,54,18
10950,19,-119,199,-69,58,16
10955,19,-120,194,-71,58,13
10960,17,-119,201,-71,61,9
10965,19,-114,201,-72,61,5
10970,20,-119,198,-72,65,2
10975,19,-118,202,-71,65,-2
10980,19,-116,200,-69,66,-4
10985,20,-119,200,-68,68,-6
10990,19,-119,206,-65,68,-9
10995,17,-116,203,-64,70,-11
11000,17,-113,201,-61,70,-12
11005,17,-116,203,-61,69,-13
11010,18,-115,199,-59,69,-13
11015,18,-114,199,-57,69,-12
11020,17,-113,200,-56,69,-10
11025,18,-113,200,-57,69,-9
11030,18,-111,201,-55,72,-8
11035,18,-111,202,-55,72,-5
11040,19,-113,201,-56,72,-6
11045,18,-115,202,-55,71,-5
11050,16,-114,202,-57,70,-5
11055,18,-115,200,-60,70,-3
11060,16,-115,197,-62,72,-4
11065,18,-115,202,-65,74,-3
11070,19,-114,200,-66,75,-4
11075,19,-114,202,-66,75,-6
11080,17,-117,204,-66,76,-8
11085,19,-116,198,-65,78,-10
11090,16,-116,204,-60,78,-12
11095,20,-115,201,-56,78,-14
11100,19,-115,203,-49,77,-16
11105,21,-115,202,-45,78,-19
11110,20,-114,202,-39,76,-20
11115,20,-118,204,-34,78,-21
11120,19,-114,204,-32,76,-23
11125,21,-112,201,-29,75,-28
11130,19,-112,201,-28,77,-27
11135,21,-115,204,-29,78,-29
11140,19,-112,202,-32,78,-30
11145,18,-112,200,-35,80,-33
11150,24,-115,201,-44,81,-32
11155,20,-113,198,-51,81,-34
11160,20,-112,198,-60,82,-34
11165,22,-112,197,-69,83,-37
11170,19,-112,194,-76,83,-35
11175,18,-113,194,-84,84,-36
11180,21,-114,194,-88,85,-34
11185,18,-113,194,-93,83,-37
11190,17,-120,194,-95,85,-34
11195,19,-119,196,-97,83,-33
11200,18,-121,194,-100,83,-30
11205,18,-122,194,-101,82,-29
11210,19,-123,194,-101,82,-25
11215,18,-121,193,-101,84,-25
11220,22,-125,195,-100,84,-21
11225,18,-125,195,-99,83,-20
11230,16,-127,196,-98,83,-15
11235,16,-127,194,-95,83,-16
11240,16,-125,195,-87,82,-11
11245,18,-128,194,-79,82,-12
11250,16,-127,196,-69,80,-9
11255,18,-124,197,-61,77,-10
11260,13,-124,195,-54,76,-8
11265,17,-124,195,-47,75,-9
11270,14,-123,201,-37,73,-6
11275,18,-124,199,-27,73,-7
11280,18,-121,198,-18,74,-4
11285,18,-122,199,-8,76,-6
11290,16,-121,197,2,78,-1
11295,17,-120,198,14,81,-1
11300,17,-120,198,28,85,3
11305,18,-122,201,39,86,2
11310,18,-119,198,46,89,7
11315,20,-125,196,54,89,7
11320,19,-120,193,59,89,12
11325,22,-118,198,62,88,12
11330,19,-120,195,61,87,17
11335,18,-120,196,61,86,15
11340,19,-119,198,61,85,18
11345,20,-120,198,62,83,17
11350,19,-121,196,61,79,20
11355,20,-119,196,61,75,19
11360,18,-119,194,58,71,21
11365,17,-120,197,54,64,19
11370,17,-116,196,49,58,22
11375,17,-119,196,43,54,18
11380,18,-118,199,37,49,19
11385,18,-116,199,32,46,16
11390,18,-116,196,24,45,17
11395,15,-115,201,18,44,14
11400,14,-113,203,15,45,17
11405,14,-114,200,12,44,13
11410,15,-114,202,9,44,14
11415,17,-112,205,8,47,11
11420,16,-114,204,5,50,13
11425,18,-109,203,3,54,13
11430,17,-113,207,2,57,12
11435,17,-109,203,0,59,9
11440,18,-113,203,-4,60,10
11445,19,-110,198,-9,62,5
11450,17,-112,198,-15,66,7
11455,15,-107,195,-20,70,1
11460,17,-109,203,-28,73,1
11465,18,-109,200,-38,75,-4
11470,15,-108,197,-50,79,-4
11475,15,-106,199,-59,82,-10
11480,18,-108,195,-68,84,-12
11485,16,-110,196,-75,88,-18
11490,14,-111,200,-81,90,-21
11495,15,-115,199,-82,94,-27
11500,15,-113,197,-83,96,-28
11505,15,-117,201,-83,96,-33
11510,15,-115,204,-81,97,-35
11515,12,-119,201,-78,98,-40
11520,13,-118,200,-75,99,-41
11525,12,-118,200,-69,98,-44
11530,13,-119,199,-66,96,-44
11535,15,-122,199,-63,95,-43
11540,14,-125,200,-60,94,-41
11545,11,-122,195,-54,93,-41
11550,12,-126,200,-50,93,-36
11555,14,-124,197,-48,90,-33
11560,13,-124,195,-44,86,-28
11565,14,-125,193,-40,83,-24
11570,15,-125,194,-37,77,-17
11575,16,-125,194,-35,74,-12
11580,15,-126,196,-32,68,-4
11585,14,-126,199,-28,63,-1
11590,15,-125,195,-22,59,4
11595,14,-124,195,-19,54,7
11600,18,-125,194,-15,51,11
11605,16,-123,197,-11,48,12
11610,19,-125,194,-6,46,14
11615,20,-123,197,-1,44,15
11620,19,-122,198,4,43,16
11625,19,-120,193,6,44,17
11630,19,-118,200,10,46,16
11635,22,-120,198,15,50,16
11640,21,-122,204,19,51,14
11645,21,-119,200,22,53,14
11650,19,-118,199,27,57,11
11655,24,-122,202,29,59,13
11660,22,-115,202,33,62,13
11665,22,-120,200,35,63,14
11670,19,-117,200,36,65,12
11675,18,-116,200,37,66,13
11680,25,-115,203,35,67,13
11685,18,-113,205,34,66,13
11690,20,-116,201,32,65,12
11695,20,-119,200,29,65,13
11700,19,-117,201,29,66,10
11705,21,-116,201,26,65,13
11710,19,-112,200,24,65,11
11715,16,-118,201,23,65,12
11720,17,-114,200,21,65,12
11725,17,-113,204,20,65,13
11730,15,-113,202,19,65,12
11735,16,-116,201,19,65,13
11740,17,-115,197,18,67,12
11745,15,-115,199,15,67,14
11750,17,-114,199,13,70,10
11755,16,-116,200,8,71,12
11760,17,-115,197,4,70,10
11765,16,-118,196,0,71,12
11770,17,-116,195,-6,71,11
11775,15,-115,194,-8,71,11
11780,17,-117,199,-12,70,9
11785,15,-118,198,-16,71,10
11790,16,-121,198,-19,70,8
11795,17,-119,196,-20,69,8
11800,15,-120,201,-20,70,5
11805,15,-119,197,-20,69,3
11810,16,-119,197,-16,71,-2
11815,14,-121,201,-15,70,-1
11820,16,-119,201,-11,70,-4
11825,16,-120,197,-10,70,-3
11830,13,-120,194,-8,71,-6
11835,11,-119,199,-8,72,-6
11840,13,-121,197,-6,71,-10
11845,15,-118,201,-6,70,-9
11850,13,-119,197,-4,72,-13
11855,14,-118,199,-1,73,-11
11860,14,-119,199,2,73,-13
11865,15,-120,198,8,72,-11
11870,14,-119,199,12,73,-15
11875,15,-119,197,17,74,-12
11880,14,-116,200,23,75,-14
11885,16,-120,200,26,76,-12
11890,16,-117,197,32,76,-15
11895,16,-118,198,35,76,-11
11900,15,-116,199,40,78,-14
11905,15,-114,199,40,76,-11
11910,16,-113,198,42,75,-13
11915,14,-116,197,41,74,-13
11920,18,-115,200,40,74,-14
11925,16,-113,199,39,72,-12
11930,13,-115,198,37,71,-15
11935,14,-112,205,36,72,-14
11940,14,-113,200,32,72,-17
11945,11,-114,201,29,69,-13
11950,15,-115,195,27,68,-15
11955,14,-114,200,24,68,-12
11960,17,-116,201,21,69,-15
11965,15,-112,202,20,68,-11
11970,16,-115,202,16,69,-12
11975,14,-113,198,11,69,-9
11980,16,-114,202,9,68,-9
11985,13,-116,203,4,69,-5
11990,16,-112,201,1,67,-6
11995,14,-113,197,0,67,-1
