timestamp,acc_x,acc_y,acc_z,gyro_x,gyro_y,gyro_z
0,13,-257,-48,-7,57,-22
5,14,-256,-46,-7,60,-19
10,16,-256,-45,-3,63,-20
15,16,-258,-43,1,65,-19
20,14,-255,-40,6,65,-19
25,16,-255,-43,12,67,-18
30,15,-254,-51,16,67,-17
35,16,-253,-46,20,66,-16
40,16,-251,-42,23,67,-18
45,17,-252,-48,26,67,-16
50,15,-251,-50,24,66,-18
55,15,-251,-45,22,67,-18
60,16,-250,-50,20,68,-18
65,13,-251,-47,18,67,-19
70,15,-252,-46,13,67,-19
75,13,-249,-47,8,65,-19
80,15,-249,-49,6,65,-21
85,12,-248,-48,3,63,-23
90,15,-252,-51,1,63,-24
95,12,-249,-49,-1,62,-25
100,13,-249,-49,-2,62,-24
105,12,-253,-51,-2,63,-23
110,13,-252,-52,-4,63,-23
115,14,-255,-46,-5,65,-23
120,13,-254,-45,-5,66,-21
125,10,-251,-46,-1,67,-21
130,13,-253,-48,1,68,-19
135,13,-257,-48,6,66,-21
140,13,-254,-47,11,64,-20
145,10,-255,-46,15,63,-20
150,12,-254,-51,20,62,-18
155,13,-255,-53,25,61,-17
160,14,-256,-47,28,60,-15
165,12,-254,-49,29,61,-16
170,16,-251,-48,31,58,-14
175,15,-255,-47,31,56,-14
180,13,-252,-49,30,57,-12
185,14,-252,-51,29,57,-14
190,14,-252,-51,28,58,-12
195,15,-253,-51,26,58,-13
200,13,-253,-47,25,58,-11
205,13,-253,-47,24,59,-13
210,12,-252,-48,23,59,-12
215,13,-251,-46,22,60,-13
220,14,-253,-51,20,61,-11
225,16,-252,-46,17,63,-13
230,16,-255,-51,15,66,-11
235,13,-254,-46,13,65,-13
240,15,-256,-47,11,67,-10
245,13,-252,-43,9,66,-10
250,13,-254,-51,10,69,-9
255,12,-255,-45,11,69,-11
260,14,-255,-44,14,69,-6
265,14,-254,-44,17,69,-8
270,13,-253,-43,19,68,-5
275,13,-256,-47,22,67,-5
280,12,-251,-47,26,65,-2
285,15,-255,-44,27,64,-4
290,15,-255,-43,30,61,0
295,10,-251,-43,33,57,-1
300,13,-253,-47,34,53,1
305,13,-253,-44,35,49,-2
310,13,-254,-43,32,46,1
315,11,-251,-43,32,45,-2
320,11,-251,-46,32,42,-1
325,12,-253,-45,29,41,-4
330,13,-252,-43,23,39,-2
335,9,-251,-44,20,40,-5
340,11,-251,-46,16,41,-3
345,11,-252,-44,14,44,-4
350,11,-253,-46,11,47,-5
355,10,-252,-47,8,49,-8
360,12,-254,-45,3,51,-7
365,12,-256,-47,1,53,-9
370,11,-255,-46,0,54,-7
375,11,-255,-46,-2,56,-11
380,12,-256,-43,0,58,-8
385,14,-255,-42,0,60,-9
390,15,-256,-41,4,61,-7
395,13,-258,-46,6,61,-7
400,14,-257,-44,9,61,-4
405,13,-257,-43,15,61,-5
410,10,-252,-42,17,62,-2
415,12,-257,-42,18,63,-3
420,12,-253,-41,19,63,0
425,13,-253,-47,19,63,-3
430,13,-250,-42,18,65,-2
435,12,-249,-46,15,65,-3
440,13,-252,-45,15,64,-1
445,15,-255,-42,11,65,-3
450,13,-250,-43,7,65,-2
455,13,-249,-41,5,65,-6
460,14,-253,-42,1,66,-5
465,13,-254,-45,2,65,-6
470,17,-253,-40,3,64,-5
475,12,-251,-47,4,65,-7
480,15,-253,-44,5,63,-6
485,16,-255,-42,5,63,-9
490,12,-256,-40,6,64,-8
495,11,-255,-47,8,64,-6
500,11,-253,-42,9,62,-5
505,12,-256,-45,11,60,-5
510,13,-253,-45,11,59,-1
515,13,-254,-46,12,60,-1
520,17,-255,-47,11,59,3
525,16,-255,-44,12,58,3
530,17,-253,-45,12,58,7
535,12,-252,-43,13,57,6
540,14,-251,-45,15,55,7
545,13,-253,-43,14,54,7
550,10,-253,-44,12,56,7
555,15,-255,-47,10,56,6
560,13,-253,-46,3,57,8
565,13,-250,-45,-1,57,9
570,5,-247,-45,-8,56,10
575,12,-248,-44,-13,57,12
580,13,-251,-44,-20,58,13
585,13,-251,-44,-23,61,13
590,14,-251,-39,-24,65,16
595,16,-250,-43,-26,66,15
600,14,-253,-42,-28,67,13
605,12,-253,-44,-28,69,13
610,15,-253,-41,-30,69,13
615,11,-253,-42,-31,71,12
620,13,-253,-41,-33,71,11
625,15,-250,-47,-34,74,11
630,12,-255,-46,-37,74,9
635,13,-255,-43,-40,76,8
640,13,-254,-43,-41,77,6
645,14,-254,-42,-41,76,8
650,15,-255,-42,-41,76,6
655,15,-256,-43,-38,76,7
660,13,-255,-44,-35,77,6
665,12,-252,-41,-34,76,4
670,16,-255,-41,-33,75,4
675,13,-256,-46,-32,75,6
680,16,-255,-43,-32,74,5
685,14,-252,-41,-30,75,8
690,15,-256,-40,-29,75,8
695,13,-253,-43,-30,75,9
700,14,-255,-42,-28,76,8
705,14,-255,-50,-27,77,10
710,14,-254,-45,-27,76,9
715,14,-253,-44,-26,76,12
720,13,-258,-46,-23,76,10
725,14,-255,-46,-21,78,11
730,13,-254,-47,-19,78,9
735,12,-252,-47,-18,79,10
740,11,-254,-45,-16,80,8
745,14,-256,-48,-17,79,11
750,14,-255,-48,-16,81,9
755,12,-253,-50,-16,81,7
760,11,-253,-49,-18,79,4
765,11,-254,-47,-21,80,5
770,12,-254,-47,-25,81,2
775,13,-255,-47,-27,81,4
780,10,-253,-52,-29,83,2
785,11,-256,-47,-29,82,4
790,10,-252,-44,-29,84,1
795,10,-256,-51,-28,81,2
800,9,-254,-45,-24,80,2
805,9,-255,-44,-21,76,3
810,8,-257,-44,-16,72,-1
815,9,-255,-45,-14,66,3
820,5,-256,-41,-11,62,0
825,7,-257,-43,-8,60,3
830,5,-253,-42,-6,55,1
835,9,-254,-37,-4,54,2
840,9,-258,-44,-2,54,-1
845,8,-255,-41,1,53,1
850,9,-256,-38,3,52,-2
855,10,-254,-43,4,51,-1
860,13,-253,-43,7,52,-5
865,11,-251,-42,7,51,-5
870,13,-249,-44,6,51,-8
875,14,-253,-41,3,49,-6
880,13,-254,-47,2,50,-9
885,15,-251,-42,0,50,-6
890,15,-254,-44,-3,52,-7
895,16,-253,-45,-5,52,-5
900,16,-250,-43,-7,52,-6
905,14,-250,-44,-10,52,-3
910,13,-250,-44,-11,54,-5
915,13,-252,-46,-16,53,0
920,13,-251,-45,-21,54,-3
925,16,-251,-44,-24,55,2
930,10,-251,-40,-28,55,-1
935,10,-253,-43,-32,54,1
940,12,-252,-42,-36,53,-2
945,8,-248,-44,-38,52,-1
950,8,-252,-42,-40,49,-6
955,8,-254,-44,-43,48,-4
960,9,-254,-44,-44,47,-5
965,10,-251,-41,-46,43,-3
970,10,-256,-43,-48,41,-5
975,11,-256,-42,-48,39,-2
980,12,-258,-46,-47,39,-5
985,11,-256,-42,-46,36,-2
990,10,-254,-43,-44,35,-4
995,12,-255,-46,-43,35,-1
1000,14,-255,-43,-40,35,-3
1005,12,-255,-46,-36,36,0
1010,11,-254,-44,-32,39,-1
1015,11,-255,-49,-28,41,1
1020,15,-255,-44,-24,44,1
1025,13,-255,-45,-19,45,3
1030,14,-254,-48,-15,47,2
1035,12,-255,-43,-11,49,4
1040,13,-255,-46,-7,51,2
1045,14,-253,-44,-5,52,2
1050,15,-252,-42,-3,54,0
1055,12,-251,-39,-1,55,0
1060,13,-264,-42,1,57,-1
1065,15,-251,-53,1,58,-1
1070,12,-245,-46,2,58,-1
1075,19,-254,-40,0,57,-1
1080,15,-254,-33,-2,56,-3
1085,14,-253,-43,-4,58,-1
1090,14,-249,-45,-9,56,-1
1095,11,-252,-47,-14,57,2
1100,14,-252,-45,-20,55,1
1105,9,-252,-46,-26,58,3
1110,13,-252,-41,-29,58,4
1115,13,-254,-43,-34,60,3
1120,13,-252,-43,-35,61,1
1125,13,-255,-45,-36,62,0
1130,11,-254,-45,-38,61,-1
1135,13,-254,-47,-39,60,0
1140,12,-253,-46,-40,58,-2
1145,14,-256,-45,-39,60,-1
1150,13,-254,-43,-40,58,-3
1155,12,-253,-48,-38,57,-1
1160,12,-256,-42,-36,57,0
1165,13,-254,-42,-34,56,-1
1170,13,-254,-45,-31,55,0
1175,9,-255,-46,-28,56,-1
1180,13,-255,-48,-24,56,0
1185,12,-253,-45,-21,55,1
1190,13,-253,-45,-18,57,1
1195,16,-256,-47,-18,57,0
1200,14,-254,-46,-17,59,2
1205,14,-252,-48,-15,59,0
1210,15,-253,-44,-15,58,0
1215,14,-253,-49,-16,60,-1
1220,10,-251,-46,-17,59,-1
1225,13,-253,-50,-21,59,-2
1230,11,-253,-46,-23,58,-2
1235,12,-255,-48,-23,57,-4
1240,7,-254,-43,-23,60,-2
1245,10,-254,-49,-22,60,-3
1250,11,-255,-42,-19,62,-1
1255,10,-255,-47,-18,65,-3
1260,8,-254,-46,-14,67,-2
1265,9,-254,-47,-10,68,-4
1270,9,-254,-48,-7,69,-4
1275,8,-254,-46,-7,69,-6
1280,13,-254,-44,-10,67,-4
1285,11,-250,-44,-11,68,-6
1290,13,-254,-47,-13,68,-4
1295,10,-252,-46,-15,70,-6
1300,12,-251,-43,-17,70,-6
1305,10,-253,-44,-18,68,-8
1310,12,-253,-45,-20,68,-6
1315,12,-252,-45,-20,66,-9
1320,12,-252,-45,-18,64,-7
1325,10,-253,-42,-16,62,-9
1330,11,-255,-44,-10,64,-8
1335,10,-251,-45,-8,63,-9
1340,8,-252,-41,-3,64,-6
1345,13,-253,-46,-1,67,-9
1350,11,-251,-47,1,67,-5
1355,9,-252,-43,-1,67,-5
1360,10,-252,-46,-3,65,-4
1365,11,-253,-47,-5,63,-7
1370,12,-254,-46,-10,62,-5
1375,13,-252,-45,-14,61,-9
1380,10,-251,-45,-18,57,-8
1385,13,-253,-41,-21,54,-11
1390,11,-251,-46,-23,53,-11
1395,13,-255,-43,-24,51,-14
1400,13,-252,-46,-23,51,-13
1405,10,-252,-44,-24,52,-16
1410,11,-255,-42,-24,52,-14
1415,11,-253,-46,-23,54,-18
1420,9,-253,-47,-22,54,-14
1425,12,-255,-42,-20,56,-15
1430,12,-252,-45,-21,56,-11
1435,13,-255,-44,-19,57,-12
1440,12,-256,-42,-20,58,-8
1445,15,-256,-43,-20,58,-9
1450,14,-256,-46,-17,58,-6
1455,14,-256,-45,-15,56,-8
1460,16,-253,-45,-13,54,-5
1465,13,-253,-47,-12,51,-7
1470,13,-251,-46,-12,50,-6
1475,14,-252,-47,-13,47,-8
1480,14,-253,-47,-13,44,-7
1485,12,-254,-47,-15,44,-10
1490,9,-249,-49,-18,45,-7
1495,15,-253,-46,-19,44,-10
1500,14,-253,-53,-21,44,-7
1505,14,-250,-43,-22,44,-9
1510,14,-253,-48,-23,44,-7
1515,15,-253,-47,-23,45,-9
1520,12,-250,-47,-25,45,-6
1525,12,-253,-46,-25,46,-7
1530,14,-252,-49,-24,49,-5
1535,13,-255,-45,-23,48,-6
1540,10,-251,-40,-22,49,-4
1545,12,-254,-46,-23,49,-6
1550,12,-251,-48,-21,50,-3
1555,12,-253,-47,-17,53,-6
1560,9,-252,-43,-17,56,-5
1565,13,-255,-46,-17,57,-7
1570,11,-253,-48,-17,58,-5
1575,11,-250,-50,-19,62,-7
1580,11,-253,-46,-20,67,-7
1585,13,-255,-49,-20,66,-10
1590,12,-251,-45,-22,69,-10
1595,12,-254,-50,-21,69,-12
1600,11,-254,-47,-21,70,-11
1605,15,-256,-48,-21,71,-13
1610,13,-255,-48,-19,69,-11
1615,14,-254,-48,-18,70,-12
1620,12,-254,-44,-15,70,-12
1625,13,-254,-49,-12,70,-12
1630,12,-255,-48,-9,71,-11
1635,12,-252,-45,-6,70,-10
1640,13,-257,-51,-5,71,-8
1645,10,-254,-49,-2,70,-10
1650,12,-253,-44,-2,69,-7
1655,13,-251,-44,-2,68,-7
1660,13,-252,-46,-3,70,-6
1665,15,-251,-46,-2,68,-5
1670,15,-252,-46,-2,68,-5
1675,14,-252,-45,-3,67,-6
1680,11,-252,-42,-3,66,-6
1685,13,-251,-46,-5,67,-5
1690,14,-253,-42,-2,67,-5
1695,13,-254,-44,-5,67,-7
1700,11,-253,-46,-6,64,-8
1705,10,-256,-44,-5,64,-10
1710,12,-253,-42,-7,63,-10
1715,12,-251,-46,-8,60,-11
1720,12,-253,-44,-11,58,-11
1725,12,-252,-43,-13,57,-13
1730,11,-256,-44,-15,55,-13
1735,13,-255,-46,-16,54,-14
1740,13,-252,-42,-18,53,-13
1745,11,-251,-40,-19,53,-12
1750,14,-256,-45,-18,52,-13
1755,13,-255,-41,-19,51,-11
1760,12,-254,-43,-19,52,-11
1765,15,-253,-41,-19,52,-9
1770,12,-252,-43,-22,53,-12
1775,12,-254,-43,-20,52,-10
1780,11,-255,-41,-19,53,-11
1785,12,-254,-46,-22,54,-11
1790,13,-254,-46,-23,54,-11
1795,12,-254,-43,-23,55,-9
1800,12,-255,-47,-24,55,-11
1805,11,-251,-44,-24,56,-9
1810,14,-252,-44,-23,57,-10
1815,15,-256,-43,-22,57,-8
1820,12,-253,-44,-23,57,-12
1825,12,-251,-43,-23,57,-9
1830,15,-253,-47,-24,56,-11
1835,12,-253,-43,-24,58,-9
1840,13,-254,-46,-24,59,-10
1845,13,-253,-47,-23,62,-11
1850,15,-251,-46,-22,61,-13
1855,14,-255,-47,-21,60,-11
1860,14,-251,-48,-20,61,-13
1865,12,-254,-45,-21,62,-12
1870,16,-252,-49,-21,62,-15
1875,14,-250,-44,-23,62,-13
1880,12,-253,-45,-24,61,-15
1885,14,-253,-46,-24,62,-13
1890,14,-252,-51,-25,61,-16
1895,14,-254,-47,-26,61,-13
1900,15,-254,-47,-29,61,-16
1905,12,-254,-41,-27,61,-13
1910,16,-253,-46,-26,62,-15
1915,15,-254,-46,-25,61,-13
1920,16,-256,-47,-26,62,-16
1925,17,-257,-44,-24,63,-15
1930,14,-256,-48,-21,64,-17
1935,10,-252,-49,-16,66,-15
1940,14,-256,-46,-12,66,-17
1945,15,-254,-44,-9,70,-15
1950,13,-255,-46,-8,72,-17
1955,14,-252,-47,-5,73,-15
1960,14,-253,-47,-5,74,-18
1965,13,-252,-45,-6,72,-15
1970,13,-253,-46,-8,72,-16
1975,10,-254,-47,-10,71,-13
1980,11,-253,-46,-13,68,-14
1985,14,-253,-46,-14,67,-12
1990,16,-254,-48,-14,66,-14
1995,12,-253,-47,-14,63,-11
2000,12,-252,-48,-12,62,-12
2005,14,-255,-49,-11,61,-9
2010,14,-250,-44,-11,58,-11
2015,15,-251,-44,-9,55,-8
2020,14,-254,-46,-8,54,-10
2025,16,-255,-40,-7,54,-8
2030,16,-254,-43,-8,54,-11
2035,14,-253,-45,-9,52,-8
2040,15,-256,-47,-11,54,-10
2045,15,-254,-45,-11,54,-7
2050,13,-250,-45,-14,57,-11
2055,13,-250,-47,-15,57,-7
2060,12,-250,-46,-17,58,-10
2065,15,-253,-46,-18,59,-8
2070,13,-253,-47,-19,60,-10
2075,14,-254,-44,-20,62,-8
2080,9,-255,-48,-21,63,-10
2085,15,-254,-48,-21,64,-8
2090,15,-253,-47,-20,64,-11
2095,14,-255,-46,-19,64,-9
2100,12,-255,-46,-18,64,-12
2105,14,-253,-48,-16,63,-10
2110,14,-254,-48,-15,62,-12
2115,14,-252,-44,-12,62,-9
2120,15,-251,-44,-11,62,-11
2125,14,-254,-46,-10,59,-8
2130,13,-255,-48,-6,60,-9
2135,11,-253,-47,-4,59,-7
2140,14,-253,-45,-1,58,-8
2145,15,-253,-46,-1,58,-5
2150,13,-255,-47,2,56,-7
2155,13,-251,-48,4,57,-6
2160,13,-251,-48,2,57,-6
2165,13,-250,-49,3,58,-4
2170,15,-252,-44,1,58,-5
2175,13,-252,-49,0,58,-5
2180,15,-255,-46,0,60,-6
2185,14,-253,-42,-1,60,-4
2190,13,-253,-41,-2,61,-6
2195,12,-253,-47,-4,62,-3
2200,16,-253,-44,-5,63,-6
2205,14,-255,-47,-6,64,-6
2210,12,-254,-45,-6,65,-8
2215,15,-255,-47,-8,64,-7
2220,15,-252,-47,-9,64,-8
2225,15,-255,-42,-10,64,-9
2230,14,-252,-47,-10,64,-8
2235,13,-254,-41,-10,61,-10
2240,16,-251,-42,-10,63,-8
2245,14,-253,-44,-11,61,-8
2250,13,-254,-45,-11,59,-7
2255,14,-255,-45,-11,57,-6
2260,15,-252,-47,-9,57,-5
2265,17,-255,-40,-9,56,-4
2270,16,-254,-47,-9,57,-4
2275,16,-253,-45,-10,57,-3
2280,19,-253,-46,-9,55,-2
2285,13,-253,-46,-8,55,-1
2290,16,-253,-46,-7,56,0
2295,16,-254,-44,-6,57,-1
2300,16,-252,-44,-8,57,-1
2305,14,-251,-45,-9,57,-1
2310,13,-250,-44,-11,59,1
2315,13,-250,-44,-11,60,0
2320,14,-253,-43,-13,58,0
2325,15,-250,-45,-15,60,-1
2330,13,-255,-44,-15,60,-1
2335,13,-257,-44,-16,59,-4
2340,15,-255,-44,-16,60,-4
2345,13,-253,-42,-16,60,-3
2350,13,-253,-42,-15,59,-3
2355,15,-257,-46,-16,59,-3
2360,11,-255,-42,-16,58,-1
2365,14,-254,-49,-17,58,-2
2370,16,-258,-48,-16,59,-2
2375,14,-255,-44,-16,59,-4
2380,15,-253,-46,-17,60,-2
2385,14,-252,-45,-15,61,-3
2390,16,-254,-45,-15,61,-1
2395,12,-254,-45,-14,61,-3
2400,11,-253,-43,-12,61,0
2405,16,-256,-44,-12,62,0
2410,16,-254,-47,-10,64,-1
2415,14,-250,-45,-10,64,-1
2420,14,-253,-46,-11,63,1
2425,14,-255,-44,-11,65,0
2430,13,-251,-44,-10,66,2
2435,14,-254,-45,-10,67,1
2440,15,-254,-46,-10,67,3
2445,12,-255,-44,-11,68,-1
2450,15,-252,-43,-11,68,1
2455,15,-255,-44,-13,67,-1
2460,13,-253,-49,-15,67,1
2465,15,-253,-49,-15,66,-2
2470,16,-252,-43,-16,65,-1
2475,13,-250,-45,-17,64,-2
2480,15,-253,-45,-19,64,-1
2485,14,-253,-44,-18,65,-2
2490,13,-251,-45,-20,64,0
2495,13,-255,-47,-18,65,-3
2500,14,-250,-46,-17,65,-1
2505,16,-255,-44,-17,63,-4
2510,11,-254,-43,-15,63,1
2515,14,-252,-46,-15,63,-1
2520,15,-252,-50,-15,64,0
2525,12,-249,-47,-14,62,-2
2530,15,-252,-46,-14,61,-1
2535,16,-255,-47,-12,62,-4
2540,14,-252,-43,-13,63,-1
2545,15,-252,-50,-15,63,-6
2550,12,-253,-50,-14,62,-2
2555,15,-253,-46,-15,64,-6
2560,12,-254,-50,-16,62,-4
2565,15,-256,-46,-18,64,-5
2570,14,-257,-44,-18,63,-2
2575,11,-252,-48,-19,63,-4
2580,15,-253,-48,-18,62,-1
2585,12,-255,-48,-17,65,-3
2590,14,-254,-45,-15,62,0
2595,15,-254,-43,-15,61,-2
2600,13,-254,-49,-14,61,0
2605,12,-253,-45,-12,60,-1
2610,14,-253,-42,-13,57,1
2615,12,-252,-44,-12,55,-2
2620,15,-256,-44,-11,55,1
2625,13,-255,-46,-11,56,-1
2630,15,-254,-47,-8,55,2
2635,18,-253,-46,-8,55,-2
2640,14,-254,-44,-7,56,0
2645,16,-254,-47,-6,55,-3
2650,14,-252,-47,-8,58,-3
2655,15,-253,-46,-7,58,-5
2660,14,-256,-45,-8,58,-3
2665,13,-250,-44,-11,59,-5
2670,14,-254,-45,-12,60,-4
2675,12,-253,-44,-14,62,-5
2680,12,-253,-45,-17,61,-4
2685,14,-253,-43,-17,62,-6
2690,15,-253,-47,-19,61,-6
2695,14,-253,-45,-17,63,-6
2700,14,-252,-48,-17,62,-4
2705,14,-255,-48,-18,62,-6
2710,15,-254,-47,-17,62,-2
2715,15,-256,-47,-15,60,-5
2720,15,-253,-45,-15,59,-3
2725,16,-255,-50,-13,60,-3
2730,13,-252,-46,-10,58,-3
2735,13,-252,-46,-11,59,-4
2740,21,-253,-48,-9,59,-2
2745,13,-253,-44,-7,58,-3
2750,14,-253,-43,-6,57,-2
2755,13,-253,-44,-4,59,-4
2760,13,-253,-45,-3,60,-1
2765,14,-254,-45,-2,60,-4
2770,12,-251,-46,-2,61,-3
2775,13,-255,-48,-3,60,-5
2780,13,-252,-48,-3,61,-4
2785,14,-254,-45,-3,63,-6
2790,13,-251,-45,-3,63,-4
2795,13,-254,-44,-4,63,-6
2800,14,-255,-44,-5,64,-6
2805,14,-253,-47,-7,64,-7
2810,15,-254,-45,-8,64,-6
2815,13,-253,-47,-8,63,-8
2820,16,-254,-49,-8,63,-5
2825,16,-253,-45,-9,62,-6
2830,14,-253,-44,-9,60,-6
2835,13,-251,-45,-10,58,-6
2840,13,-253,-47,-10,58,-5
2845,13,-254,-45,-12,58,-5
2850,13,-249,-44,-11,55,-6
2855,14,-254,-46,-12,55,-7
2860,15,-252,-46,-12,56,-5
2865,12,-254,-45,-9,56,-5
2870,15,-255,-46,-8,57,-5
2875,13,-253,-45,-6,59,-5
2880,14,-255,-44,-4,61,-4
2885,15,-254,-46,-2,62,-4
2890,13,-254,-47,-2,64,-4
2895,14,-254,-45,0,62,-5
2900,14,-253,-44,0,63,-6
2905,14,-255,-47,-1,62,-7
2910,16,-252,-44,-4,61,-8
2915,13,-251,-46,-6,62,-8
2920,13,-251,-43,-8,62,-9
2925,14,-251,-43,-10,58,-7
2930,14,-255,-46,-11,59,-8
2935,14,-253,-45,-11,59,-8
2940,14,-253,-45,-13,59,-9
2945,13,-252,-46,-12,58,-7
2950,10,-252,-48,-11,59,-8
2955,13,-254,-43,-11,59,-7
2960,15,-254,-43,-12,58,-7
2965,13,-255,-43,-13,58,-6
2970,14,-252,-46,-13,59,-8
2975,14,-253,-47,-12,58,-7
2980,14,-252,-46,-13,58,-6
2985,14,-252,-47,-11,59,-4
2990,14,-253,-49,-9,61,-7
2995,15,-254,-46,-8,61,-5
3000,13,-250,-46,-5,61,-6
3005,15,-255,-43,-3,61,-5
3010,14,-253,-43,-2,60,-6
3015,16,-251,-46,-1,60,-5
3020,12,-249,-45,-2,61,-5
3025,14,-254,-44,-3,60,-4
3030,14,-251,-48,-1,60,-5
3035,13,-250,-43,-4,59,-3
3040,18,-254,-44,-3,59,-4
3045,16,-253,-42,-4,60,-3
3050,15,-253,-40,-6,58,-5
3055,12,-252,-45,-8,59,-4
3060,12,-252,-43,-10,59,-5
3065,14,-254,-42,-10,58,-4
3070,17,-253,-46,-11,56,-6
3075,17,-254,-45,-11,58,-6
3080,15,-253,-44,-12,58,-6
3085,14,-254,-44,-11,57,-3
3090,13,-250,-45,-11,58,-5
3095,15,-252,-46,-12,59,-3
3100,14,-254,-43,-10,59,-8
3105,16,-252,-45,-10,59,-5
3110,15,-252,-43,-9,58,-7
3115,15,-251,-47,-8,60,-4
3120,13,-252,-43,-7,60,-8
3125,12,-255,-46,-5,61,-3
3130,13,-254,-48,-4,63,-6
3135,16,-255,-51,-3,65,-4
3140,13,-251,-45,-4,66,-7
3145,15,-253,-46,-5,66,-4
3150,16,-254,-44,-6,65,-6
3155,15,-254,-47,-9,64,-1
3160,16,-254,-41,-12,64,-3
3165,14,-256,-45,-11,63,-1
3170,15,-253,-47,-12,61,-4
3175,13,-255,-46,-12,60,0
3180,13,-256,-45,-10,61,-4
3185,14,-255,-42,-11,59,-2
3190,12,-254,-44,-11,61,-4
3195,15,-253,-44,-7,62,-3
3200,16,-254,-44,-6,61,-4
3205,15,-254,-44,-7,60,-2
3210,16,-254,-46,-5,62,-5
3215,13,-254,-46,-5,60,-2
3220,14,-253,-46,-5,60,-6
3225,13,-255,-45,-5,62,-4
3230,13,-251,-45,-5,62,-5
3235,13,-253,-44,-4,64,-5
3240,15,-255,-44,-5,64,-6
3245,13,-254,-42,-3,62,-5
3250,14,-254,-44,-4,63,-5
3255,17,-253,-43,-6,63,-4
3260,13,-250,-43,-6,63,-6
3265,11,-252,-46,-6,62,-2
3270,15,-257,-45,-9,61,-6
3275,14,-250,-43,-9,62,-3
3280,15,-251,-47,-9,62,-5
3285,16,-253,-51,-10,61,-3
3290,15,-253,-43,-9,63,-5
3295,14,-251,-46,-10,62,-2
3300,13,-255,-45,-10,60,-3
3305,12,-255,-43,-10,60,-2
3310,15,-252,-41,-9,60,-3
3315,13,-252,-43,-8,59,-1
3320,12,-255,-43,-7,60,-3
3325,12,-256,-42,-5,60,-1
3330,15,-252,-43,-3,60,-2
3335,13,-256,-44,-2,61,0
3340,14,-253,-43,-2,60,-1
3345,13,-252,-43,1,61,0
3350,14,-254,-45,1,63,-3
3355,15,-252,-44,1,61,-1
3360,12,-252,-46,0,61,-2
3365,12,-255,-45,-2,61,-2
3370,12,-252,-45,-3,61,-4
3375,17,-251,-43,-6,60,-2
3380,14,-253,-46,-8,61,-4
3385,16,-253,-43,-10,60,-4
3390,13,-253,-43,-12,60,-5
3395,13,-251,-46,-13,59,-5
3400,15,-255,-43,-14,59,-7
3405,16,-251,-43,-16,57,-5
3410,13,-253,-48,-17,55,-5
3415,14,-253,-43,-15,56,-5
3420,14,-252,-44,-15,55,-4
3425,11,-251,-38,-15,54,-4
3430,14,-256,-44,-15,55,-3
3435,14,-250,-40,-14,56,-2
3440,16,-254,-46,-12,55,-2
3445,15,-254,-47,-9,57,0
3450,16,-256,-46,-9,57,-1
3455,13,-255,-45,-7,55,1
3460,14,-252,-46,-6,58,-1
3465,13,-253,-48,-7,58,0
3470,15,-254,-44,-7,58,-2
3475,14,-253,-45,-6,58,-2
3480,17,-254,-44,-6,58,-1
3485,14,-254,-45,-6,59,-4
3490,16,-251,-41,-5,58,-3
3495,17,-254,-41,-7,58,-4
3500,15,-252,-46,-7,58,-3
3505,15,-254,-41,-7,60,-4
3510,14,-254,-46,-9,58,-5
3515,14,-252,-44,-10,60,-5
3520,15,-255,-45,-12,59,-4
3525,15,-251,-41,-13,59,-4
3530,12,-252,-44,-13,60,-3
3535,15,-252,-42,-13,58,-3
3540,14,-251,-47,-13,59,-2
3545,14,-250,-47,-11,61,-3
3550,13,-254,-44,-10,62,-2
3555,14,-252,-45,-11,62,-2
3560,13,-252,-49,-11,62,0
3565,18,-255,-46,-11,64,0
3570,15,-254,-48,-10,66,0
3575,16,-252,-44,-11,66,-1
3580,14,-253,-47,-10,65,-1
3585,15,-252,-41,-9,66,-2
3590,13,-251,-44,-9,65,0
3595,15,-254,-45,-8,65,-1
3600,16,-255,-45,-8,65,0
3605,16,-254,-43,-9,65,-2
3610,16,-254,-41,-10,64,1
3615,16,-251,-46,-10,65,-3
3620,15,-255,-45,-12,64,-1
3625,15,-254,-42,-11,61,-2
3630,16,-253,-45,-11,60,-3
3635,17,-254,-48,-12,59,-5
3640,13,-253,-41,-12,58,-3
3645,14,-254,-42,-13,58,-5
3650,16,-252,-46,-14,59,-3
3655,15,-253,-41,-15,58,-5
3660,14,-254,-44,-15,57,-3
3665,11,-254,-42,-17,56,-5
3670,13,-254,-43,-17,56,-2
3675,15,-255,-47,-16,56,-4
3680,17,-257,-44,-14,58,0
3685,12,-255,-44,-16,59,-3
3690,12,-251,-43,-15,61,-1
3695,13,-254,-44,-14,60,-3
3700,15,-256,-47,-14,62,-1
3705,15,-254,-42,-13,62,-4
3710,13,-250,-43,-12,62,-3
3715,14,-257,-44,-10,62,-5
3720,14,-255,-43,-8,63,-4
3725,12,-251,-44,-8,63,-5
3730,17,-254,-42,-8,64,-3
3735,13,-254,-47,-10,65,-5
3740,14,-255,-44,-11,65,-4
3745,13,-251,-44,-12,65,-4
3750,12,-252,-44,-11,65,-1
3755,15,-254,-46,-12,62,-1
3760,14,-254,-44,-13,60,0
3765,14,-256,-44,-15,58,-2
3770,13,-253,-43,-15,58,1
3775,14,-253,-45,-15,58,-1
3780,18,-255,-43,-14,56,1
3785,16,-256,-42,-12,57,-1
3790,15,-252,-47,-12,56,1
3795,13,-252,-43,-13,56,-3
3800,14,-254,-41,-14,57,0
3805,13,-253,-42,-13,56,-3
3810,16,-255,-43,-13,57,0
3815,10,-252,-43,-12,56,-4
3820,12,-253,-43,-12,56,-2
3825,15,-252,-43,-13,57,-4
3830,13,-255,-43,-12,56,-2
3835,14,-252,-40,-11,57,-5
3840,14,-251,-46,-11,58,-3
3845,13,-254,-43,-11,58,-5
3850,15,-254,-46,-10,60,-2
3855,14,-252,-42,-12,62,-4
3860,15,-253,-47,-15,63,-2
3865,15,-253,-45,-16,62,-5
3870,13,-253,-43,-16,62,-3
3875,13,-255,-45,-16,61,-5
3880,15,-256,-46,-14,61,-3
3885,14,-253,-45,-15,63,-5
3890,14,-255,-46,-15,63,-2
3895,15,-254,-43,-15,62,-4
3900,13,-250,-45,-15,63,-1
3905,13,-251,-50,-15,62,-3
3910,14,-255,-40,-15,61,0
3915,17,-253,-41,-17,61,-1
3920,12,-251,-44,-17,60,0
3925,15,-253,-42,-16,58,-2
3930,13,-255,-43,-17,58,-1
3935,14,-253,-43,-14,57,-3
3940,16,-254,-45,-14,56,-1
3945,16,-254,-46,-12,56,-3
3950,13,-255,-46,-12,57,-2
3955,13,-254,-44,-12,56,-4
3960,14,-253,-42,-13,58,-3
3965,15,-256,-44,-14,58,-4
3970,14,-252,-45,-15,57,-3
3975,14,-254,-44,-16,57,-4
3980,14,-252,-43,-17,58,-2
3985,12,-253,-47,-18,58,-4
3990,14,-254,-42,-20,59,-2
3995,13,-254,-48,-19,59,-5
4000,16,-253,-42,-21,59,-4
4005,13,-255,-47,-23,59,-6
4010,14,-252,-45,-24,57,-5
4015,12,-253,-40,-24,56,-5
4020,15,-254,-45,-26,56,-2
4025,15,-254,-46,-26,57,-3
4030,14,-254,-42,-23,58,-2
4035,15,-252,-46,-24,57,-2
4040,15,-253,-41,-23,56,-2
4045,11,-252,-44,-23,57,-2
4050,16,-252,-45,-22,55,-1
4055,16,-256,-45,-21,55,-1
4060,13,-253,-44,-18,56,-1
4065,12,-252,-44,-19,55,-1
4070,16,-254,-46,-15,55,-1
4075,14,-254,-45,-15,57,-1
4080,15,-251,-43,-15,57,-1
4085,14,-252,-44,-14,57,-2
4090,17,-253,-45,-14,57,-3
4095,14,-252,-44,-14,56,-4
4100,14,-253,-46,-16,56,-5
4105,16,-253,-48,-18,57,-5
4110,14,-250,-46,-19,56,-5
4115,15,-252,-43,-20,56,-5
4120,13,-251,-46,-24,56,-4
4125,13,-255,-44,-25,56,-4
4130,14,-250,-46,-27,56,-5
4135,14,-254,-46,-28,56,-4
4140,16,-255,-49,-29,55,-4
4145,14,-252,-45,-30,55,-4
4150,14,-255,-48,-30,55,-4
4155,15,-253,-43,-29,56,-2
4160,15,-254,-46,-29,58,-5
4165,15,-253,-48,-27,60,-3
4170,17,-254,-46,-25,61,-3
4175,15,-255,-41,-26,62,-2
4180,16,-257,-45,-25,61,-3
4185,16,-256,-43,-24,61,-3
4190,13,-251,-49,-25,60,-6
4195,13,-254,-44,-21,59,-5
4200,12,-254,-45,-22,59,-7
4205,14,-253,-46,-21,59,-6
4210,14,-255,-44,-20,59,-7
4215,3,-253,-42,-19,59,-6
4220,13,-254,-45,-20,62,-6
4225,6,-252,-42,-19,63,-4
4230,19,-251,-37,-19,63,-4
4235,21,-254,-43,-21,63,-2
4240,11,-248,-50,-21,62,-5
4245,20,-256,-39,-21,63,-3
4250,14,-252,-46,-23,63,-3
4255,14,-252,-42,-25,61,-2
4260,14,-253,-45,-28,61,-5
4265,16,-253,-45,-29,59,-3
4270,13,-250,-46,-30,58,-6
4275,15,-252,-48,-31,60,-6
4280,12,-253,-43,-31,58,-6
4285,15,-253,-43,-32,60,-6
4290,14,-252,-43,-32,58,-10
4295,14,-256,-43,-33,57,-9
4300,12,-255,-46,-33,57,-13
4305,12,-256,-44,-29,58,-11
4310,13,-257,-43,-21,62,-17
4315,16,-260,-46,-14,66,-16
4320,17,-259,-44,-2,68,-22
4325,19,-255,-48,11,67,-24
4330,20,-254,-44,14,64,-30
4335,20,-256,-46,9,58,-31
4340,20,-251,-50,-3,50,-36
4345,20,-252,-52,-20,43,-34
4350,19,-249,-50,-38,36,-37
4355,20,-244,-48,-54,31,-31
4360,20,-244,-45,-66,27,-34
4365,19,-245,-46,-78,24,-33
4370,16,-243,-51,-88,15,-34
4375,19,-246,-47,-95,10,-34
4380,17,-245,-42,-98,8,-38
4385,15,-244,-41,-99,9,-37
4390,18,-249,-42,-94,12,-40
4395,18,-250,-41,-89,18,-39
4400,18,-253,-41,-81,28,-43
4405,17,-253,-43,-73,36,-43
4410,15,-256,-46,-67,40,-48
4415,15,-256,-46,-65,37,-46
4420,13,-255,-42,-71,28,-52
4425,13,-255,-45,-81,16,-51
4430,9,-250,-44,-95,9,-55
4435,11,-246,-48,-116,5,-56
4440,10,-241,-45,-146,5,-61
4445,5,-234,-41,-193,7,-64
4450,6,-230,-42,-262,9,-70
4455,6,-226,-40,-351,4,-71
4460,5,-224,-39,-454,-2,-71
4465,7,-220,-43,-561,-11,-70
4470,9,-218,-48,-664,-21,-73
4475,13,-222,-50,-770,-33,-73
4480,14,-222,-55,-835,-44,-78
4485,16,-228,-57,-876,-56,-78
4490,19,-228,-59,-893,-66,-84
4495,18,-231,-70,-885,-76,-88
4500,21,-237,-72,-862,-84,-95
4505,18,-237,-72,-828,-90,-94
4510,18,-242,-73,-790,-94,-97
4515,21,-240,-75,-747,-89,-95
4520,16,-240,-70,-707,-77,-94
4525,21,-244,-71,-661,-62,-87
4530,17,-245,-71,-627,-46,-84
4535,18,-250,-69,-595,-29,-77
4540,15,-252,-68,-568,-13,-77
4545,15,-254,-65,-543,4,-71
4550,17,-255,-62,-518,19,-71
4555,14,-257,-65,-495,35,-68
4560,12,-256,-62,-475,50,-66
4565,11,-256,-59,-459,63,-61
4570,16,-257,-60,-446,73,-58
4575,14,-257,-63,-433,81,-54
4580,14,-258,-57,-424,87,-56
4585,10,-255,-59,-418,84,-54
4590,12,-256,-60,-412,79,-58
4595,14,-258,-65,-403,70,-58
4600,8,-253,-61,-390,65,-62
4605,10,-254,-65,-377,60,-63
4610,11,-253,-64,-369,55,-65
4615,13,-253,-66,-363,48,-66
4620,13,-256,-60,-359,39,-72
4625,13,-252,-65,-355,25,-74
4630,12,-255,-60,-346,21,-76
4635,12,-251,-59,-338,21,-75
4640,13,-252,-60,-335,20,-74
4645,15,-251,-61,-338,19,-76
4650,17,-249,-57,-351,19,-79
4655,15,-244,-59,-371,21,-82
4660,10,-237,-58,-404,24,-84
4665,12,-236,-52,-453,22,-82
4670,11,-236,-53,-519,15,-80
4675,12,-234,-51,-616,-1,-75
4680,10,-233,-51,-710,-19,-74
4685,7,-232,-50,-813,-41,-71
4690,5,-233,-53,-924,-71,-68
4695,0,-232,-54,-1045,-108,-59
4700,-6,-232,-55,-1178,-150,-46
4705,-5,-233,-60,-1317,-190,-30
4710,-3,-235,-71,-1459,-221,-12
4715,0,-236,-73,-1604,-241,12
4720,6,-237,-84,-1749,-245,41
4725,15,-238,-91,-1929,-231,67
4730,22,-239,-103,-2083,-207,92
4735,28,-239,-111,-2235,-178,112
4740,44,-253,-121,-2379,-146,127
4745,52,-263,-125,-2508,-115,137
4750,55,-274,-124,-2613,-85,136
4755,60,-298,-122,-2681,-58,127
4760,57,-319,-121,-2698,-28,112
4765,53,-341,-101,-2654,0,88
4770,53,-365,-109,-2546,26,55
4775,50,-380,-115,-2331,59,22
4780,48,-385,-124,-2103,81,-14
4785,40,-386,-140,-1860,96,-52
4790,37,-380,-153,-1629,103,-91
4795,28,-369,-170,-1427,100,-126
4800,21,-359,-180,-1263,94,-147
4805,14,-344,-183,-1143,90,-159
4810,12,-335,-181,-1058,89,-154
4815,6,-329,-181,-1005,95,-145
4820,4,-324,-176,-970,107,-131
4825,0,-320,-172,-941,124,-121
4830,-3,-311,-167,-921,132,-111
4835,-5,-310,-171,-896,130,-104
4840,-2,-302,-164,-865,118,-101
4845,1,-297,-161,-828,94,-104
4850,6,-292,-165,-788,61,-112
4855,8,-282,-163,-744,16,-128
4860,9,-279,-163,-695,-34,-147
4865,15,-277,-167,-642,-84,-169
4870,14,-267,-162,-584,-127,-189
4875,14,-264,-173,-507,-158,-199
4880,18,-260,-180,-445,-168,-203
4885,20,-254,-185,-388,-166,-206
4890,19,-248,-185,-334,-152,-198
4895,25,-247,-192,-286,-134,-193
4900,25,-245,-185,-246,-114,-184
4905,26,-248,-184,-216,-92,-177
4910,30,-248,-185,-194,-73,-171
4915,31,-248,-183,-179,-57,-169
4920,34,-247,-180,-167,-42,-164
4925,35,-243,-180,-154,-24,-164
4930,37,-243,-177,-145,-12,-160
4935,39,-241,-174,-135,-5,-158
4940,37,-242,-171,-122,-4,-154
4945,43,-239,-167,-106,-9,-154
4950,44,-236,-163,-88,-19,-149
4955,49,-232,-164,-68,-28,-152
4960,49,-225,-163,-46,-35,-157
4965,44,-219,-159,-26,-39,-171
4970,43,-207,-163,-4,-39,-188
4975,34,-197,-162,27,-40,-208
4980,27,-192,-164,53,-43,-224
4985,24,-181,-173,78,-44,-240
4990,15,-174,-175,103,-36,-240
4995,10,-168,-178,132,-14,-231
5000,6,-164,-182,164,19,-205
5005,5,-152,-178,203,56,-178
5010,4,-145,-184,244,93,-144
5015,7,-136,-183,281,129,-118
5020,11,-131,-184,301,161,-88
5025,9,-124,-192,291,192,-73
5030,11,-121,-204,248,211,-53
5035,15,-124,-212,180,225,-40
5040,16,-130,-209,94,237,-23
5045,22,-138,-205,5,251,-13
5050,24,-148,-198,-76,267,-5
5055,25,-158,-194,-134,284,-6
5060,26,-168,-188,-168,295,-4
5065,30,-177,-181,-178,302,-11
5070,28,-181,-174,-163,309,-14
5075,29,-182,-168,-123,313,-18
5080,27,-181,-167,-77,313,-13
5085,28,-184,-159,-28,312,-9
5090,25,-180,-156,26,309,5
5095,21,-176,-155,79,301,15
5100,18,-174,-149,130,285,29
5105,16,-168,-151,180,264,31
5110,17,-163,-145,224,238,36
5115,13,-160,-146,262,210,34
5120,10,-152,-148,291,186,34
5125,11,-147,-151,309,164,27
5130,14,-140,-151,310,152,21
5135,11,-135,-149,301,150,11
5140,11,-131,-149,284,153,4
5145,7,-124,-148,263,158,-6
5150,7,-121,-145,236,160,-10
5155,6,-121,-141,208,151,-16
5160,5,-114,-141,180,134,-13
5165,6,-116,-144,152,111,-13
5170,6,-115,-145,117,80,-10
5175,3,-114,-148,69,38,-14
5180,3,-117,-152,20,8,-16
5185,4,-119,-152,-36,-20,-19
5190,6,-124,-154,-94,-38,-18
5195,7,-130,-157,-153,-46,-20
5200,11,-134,-154,-209,-43,-19
5205,11,-140,-154,-252,-31,-20
5210,16,-149,-151,-280,-13,-16
5215,17,-159,-152,-295,10,-15
5220,20,-167,-147,-291,32,-10
5225,23,-174,-147,-267,54,-10
5230,24,-177,-147,-233,71,-5
5235,24,-181,-149,-190,82,-4
5240,31,-179,-148,-141,89,0
5245,29,-183,-149,-92,87,1
5250,30,-179,-148,-41,83,2
5255,30,-178,-144,9,71,-1
5260,29,-173,-145,62,53,-2
5265,32,-169,-143,116,29,-6
5270,31,-166,-141,168,2,-12
5275,34,-163,-144,224,-36,-20
5280,34,-154,-148,259,-66,-25
5285,30,-151,-150,277,-92,-33
5290,32,-145,-160,272,-111,-40
5295,34,-138,-162,246,-124,-51
5300,34,-137,-161,202,-132,-63
5305,30,-138,-164,148,-137,-80
5310,30,-139,-162,88,-141,-96
5315,29,-141,-159,29,-146,-111
5320,28,-139,-164,-28,-148,-127
5325,24,-147,-166,-89,-141,-135
5330,22,-150,-169,-134,-126,-138
5335,18,-156,-165,-172,-103,-139
5340,20,-158,-167,-200,-69,-134
5345,18,-164,-166,-215,-32,-130
5350,23,-171,-166,-218,7,-123
5355,21,-174,-165,-208,42,-116
5360,21,-174,-169,-184,75,-110
5365,22,-179,-163,-153,97,-104
5370,27,-179,-165,-109,116,-97
5375,27,-175,-167,-45,134,-93
5380,33,-171,-161,18,143,-89
5385,38,-169,-160,88,147,-86
5390,41,-163,-162,161,151,-83
5395,40,-160,-158,233,148,-82
5400,40,-157,-164,299,141,-82
5405,44,-148,-163,348,124,-83
5410,43,-148,-157,379,100,-86
5415,48,-145,-165,385,80,-88
5420,46,-141,-165,370,66,-95
5425,50,-139,-165,324,67,-102
5430,51,-137,-163,273,81,-106
5435,52,-142,-156,217,102,-110
5440,51,-144,-153,161,126,-110
5445,49,-146,-149,109,147,-111
5450,48,-148,-143,66,160,-112
5455,47,-154,-140,29,164,-106
5460,43,-158,-137,-3,154,-104
5465,41,-159,-139,-30,131,-98
5470,39,-163,-142,-54,93,-94
5475,36,-168,-144,-78,30,-90
5480,32,-172,-149,-96,-32,-89
5485,31,-175,-157,-109,-96,-88
5490,35,-183,-169,-121,-153,-88
5495,32,-190,-177,-136,-197,-90
5500,35,-194,-184,-152,-221,-94
5505,32,-200,-188,-168,-227,-92
5510,32,-205,-187,-178,-216,-98
5515,30,-215,-185,-183,-193,-99
5520,26,-220,-176,-175,-163,-105
5525,22,-226,-170,-146,-123,-108
5530,20,-230,-162,-108,-94,-109
5535,20,-231,-158,-59,-69,-105
5540,18,-236,-153,-2,-52,-102
5545,16,-236,-151,61,-42,-91
5550,16,-237,-153,126,-40,-81
5555,14,-232,-156,183,-49,-69
5560,18,-231,-162,230,-64,-62
5565,23,-227,-173,261,-84,-52
5570,26,-224,-182,276,-105,-48
5575,26,-220,-185,274,-126,-43
5580,33,-222,-194,260,-141,-42
5585,33,-221,-195,238,-148,-39
5590,37,-220,-200,209,-154,-40
5595,38,-223,-195,182,-153,-35
5600,44,-225,-196,156,-144,-34
5605,44,-227,-188,133,-124,-29
5610,42,-228,-183,115,-94,-26
5615,45,-231,-171,102,-61,-20
5620,43,-232,-166,95,-32,-16
5625,41,-234,-163,97,-1,-11
5630,37,-235,-155,108,15,-11
5635,34,-237,-152,132,20,-8
5640,32,-234,-149,163,15,-8
5645,34,-235,-155,195,1,-8
5650,32,-233,-162,225,-16,-10
5655,33,-228,-174,244,-31,-8
5660,33,-226,-180,247,-39,-6
5665,34,-223,-185,231,-35,-2
5670,36,-224,-182,206,-21,-2
5675,39,-222,-188,178,9,2
5680,37,-223,-183,152,37,2
5685,33,-222,-178,142,65,7
5690,35,-220,-169,145,86,10
5695,29,-218,-163,158,106,19
5700,29,-218,-160,174,121,25
5705,26,-217,-155,192,129,36
5710,24,-214,-155,209,133,43
5715,23,-210,-152,225,130,54
5720,21,-207,-149,241,123,60
5725,20,-200,-151,256,114,73
5730,19,-197,-152,270,106,75
5735,21,-192,-156,280,99,80
5740,17,-187,-154,287,93,81
5745,16,-179,-157,285,91,84
5750,18,-172,-162,271,91,84
5755,16,-164,-163,246,92,87
5760,14,-159,-162,212,93,84
5765,13,-154,-161,178,94,84
5770,10,-148,-155,142,91,83
5775,10,-145,-156,107,83,83
5780,12,-146,-157,63,77,81
5785,14,-143,-158,26,68,80
5790,12,-141,-154,-16,61,75
5795,12,-137,-154,-57,57,72
5800,13,-135,-152,-96,55,65
5805,15,-136,-153,-131,57,61
5810,20,-135,-145,-161,64,54
5815,17,-136,-142,-185,74,54
5820,18,-139,-138,-199,88,52
5825,19,-138,-134,-203,101,52
5830,18,-146,-127,-197,110,51
5835,21,-145,-121,-184,114,54
5840,18,-152,-114,-165,111,51
5845,16,-151,-112,-141,99,50
5850,16,-153,-108,-113,77,44
5855,14,-156,-106,-82,51,42
5860,12,-158,-102,-47,23,40
5865,14,-159,-99,-16,-5,45
5870,16,-163,-101,16,-28,48
5875,15,-164,-97,51,-47,57
5880,18,-166,-98,94,-49,63
5885,26,-169,-98,133,-39,72
5890,27,-169,-100,177,-19,80
5895,33,-170,-103,221,8,93
5900,34,-171,-112,268,42,103
5905,41,-174,-112,308,75,118
5910,39,-173,-114,346,98,132
5915,40,-176,-116,377,109,144
5920,41,-180,-122,405,107,151
5925,41,-182,-127,430,91,152
5930,41,-186,-131,457,66,143
5935,38,-195,-131,479,43,129
5940,40,-197,-138,500,22,112
5945,38,-202,-140,519,10,94
5950,37,-209,-141,542,9,74
5955,32,-210,-142,564,14,57
5960,25,-219,-137,591,21,44
5965,22,-224,-135,624,26,33
5970,18,-230,-132,663,24,26
5975,13,-239,-127,706,15,26
5980,5,-244,-129,761,1,29
5985,3,-249,-131,808,-15,36
5990,2,-255,-133,856,-27,44
5995,0,-263,-133,907,-35,53
6000,5,-270,-131,961,-39,58
6005,3,-278,-129,1021,-42,63
6010,0,-287,-124,1092,-45,68
6015,3,-304,-121,1184,-51,71
6020,3,-323,-114,1299,-61,78
6025,-2,-347,-98,1438,-77,86
6030,-12,-402,-52,1666,-100,101
6035,-25,-489,4,1960,-153,131
6040,-2,-514,-50,2341,-274,155
6045,3,-544,-59,2770,-380,152
6050,8,-560,-83,3195,-444,178
6055,22,-569,-128,3544,-502,212
6060,27,-560,-158,3790,-573,216
6065,36,-537,-176,3900,-650,186
6070,47,-514,-203,3873,-721,125
6075,59,-480,-252,3737,-789,25
6080,61,-429,-307,3477,-816,-41
6085,81,-376,-403,3172,-775,-21
6090,109,-337,-462,2724,-591,73
6095,129,-321,-452,2129,-229,179
6100,108,-321,-313,1489,234,239
6105,94,-324,-177,934,571,227
6110,84,-337,-104,545,753,164
6115,80,-348,-54,361,822,64
6120,68,-347,-3,329,809,-57
6125,52,-334,36,380,699,-212
6130,35,-317,59,549,558,-320
6135,13,-280,79,740,407,-402
6140,-11,-241,79,981,255,-439
6145,-31,-192,67,1239,129,-436
6150,-41,-137,32,1454,48,-396
6155,-42,-94,10,1574,24,-333
6160,-46,-39,-11,1578,50,-251
6165,-50,10,-23,1462,110,-161
6170,-44,44,-33,1237,184,-65
6175,-41,55,-26,932,252,32
6180,-31,46,-8,501,275,93
6185,-21,20,5,133,263,125
6190,-17,-9,7,-220,227,137
6195,-12,-57,15,-533,181,133
6200,-3,-117,26,-787,119,130
6205,1,-173,28,-968,52,123
6210,9,-237,25,-1065,-19,119
6215,16,-299,30,-1070,-85,114
6220,26,-349,23,-977,-139,115
6225,35,-384,16,-788,-174,113
6230,38,-401,11,-471,-182,118
6235,43,-407,6,-169,-168,121
6240,44,-401,2,131,-141,129
6245,41,-383,0,403,-112,130
6250,39,-368,3,627,-89,130
6255,35,-355,-1,789,-78,123
6260,33,-346,-2,892,-72,119
6265,32,-352,-5,944,-71,107
6270,32,-357,-5,962,-61,96
6275,33,-360,3,988,-29,67
6280,30,-346,11,1028,3,37
6285,28,-330,15,1071,35,6
6290,30,-313,21,1116,60,-18
6295,26,-290,22,1143,81,-40
6300,22,-271,12,1146,95,-51
6305,21,-257,13,1128,102,-64
6310,19,-240,5,1092,111,-66
6315,16,-227,3,1049,117,-70
6320,17,-214,-6,996,123,-68
6325,18,-202,-17,937,133,-68
6330,17,-196,-21,853,145,-64
6335,16,-190,-30,770,161,-60
6340,15,-185,-34,678,180,-49
6345,15,-179,-34,579,193,-42
6350,16,-184,-34,477,200,-29
6355,18,-185,-32,371,200,-23
6360,16,-190,-30,272,195,-11
6365,18,-196,-25,181,188,-2
6370,16,-204,-27,99,177,14
6375,16,-209,-30,26,164,29
6380,19,-216,-31,-47,151,47
6385,19,-226,-28,-104,136,57
6390,20,-234,-27,-152,125,73
6395,20,-244,-25,-196,114,82
6400,23,-250,-22,-233,100,90
6405,19,-256,-26,-257,84,90
6410,21,-261,-26,-266,71,90
6415,19,-264,-24,-258,58,84
6420,23,-271,-24,-240,49,81
6425,19,-274,-26,-211,45,69
6430,20,-279,-27,-163,45,64
6435,23,-283,-31,-110,50,53
6440,24,-285,-34,-51,54,44
6445,24,-284,-32,15,61,35
6450,24,-283,-38,78,70,29
6455,27,-284,-37,135,79,21
6460,25,-280,-32,184,88,17
6465,27,-276,-32,229,96,12
6470,24,-272,-29,268,106,10
6475,25,-268,-21,304,116,4
6480,26,-264,-18,343,126,5
6485,25,-260,-13,368,131,0
6490,21,-255,-12,389,134,0
6495,19,-253,-8,404,137,-4
6500,19,-252,-4,408,138,-3
6505,15,-245,-5,403,138,-5
6510,14,-244,-7,390,136,-4
6515,11,-244,0,369,135,-4
6520,9,-240,1,342,131,-2
6525,6,-237,-1,311,126,0
6530,6,-238,3,268,123,5
6535,5,-239,-1,231,119,5
6540,7,-241,-1,194,115,10
6545,3,-239,6,159,114,11
6550,5,-244,7,133,112,17
6555,2,-245,8,112,110,21
6560,1,-251,8,96,109,24
6565,7,-252,7,85,107,24
6570,6,-254,9,80,105,25
6575,7,-253,7,75,101,25
6580,8,-252,9,71,101,28
6585,7,-252,6,68,100,26
6590,9,-253,10,65,97,26
6595,12,-252,8,62,95,25
6600,12,-254,8,58,95,26
6605,14,-251,8,56,94,23
6610,15,-254,4,54,95,22
6615,18,-253,8,56,99,21
6620,16,-257,6,58,102,20
6625,21,-255,8,61,106,17
6630,18,-251,6,64,110,17
6635,22,-256,8,64,112,14
6640,22,-257,5,63,113,11
6645,26,-258,6,62,114,7
6650,24,-254,3,58,117,4
6655,24,-256,-2,55,119,1
6660,23,-253,-3,50,121,-3
6665,21,-253,-2,43,122,-6
6670,23,-250,-4,34,124,-10
6675,22,-249,-4,24,125,-14
6680,20,-249,-5,8,124,-13
6685,19,-249,-5,-3,121,-14
6690,18,-248,-9,-14,117,-14
6695,15,-248,-7,-23,115,-13
6700,15,-248,-6,-32,115,-11
6705,15,-248,-3,-40,114,-8
6710,11,-249,-1,-48,112,-5
6715,11,-252,-7,-53,111,0
6720,8,-251,-4,-56,108,4
6725,7,-250,-1,-58,103,8
6730,9,-249,0,-57,101,10
6735,12,-253,-6,-54,95,13
6740,9,-252,-2,-51,94,13
6745,9,-253,-3,-48,91,13
6750,10,-253,-4,-44,86,11
6755,13,-256,-1,-42,84,10
6760,9,-254,-9,-44,82,7
6765,11,-255,-8,-47,80,7
6770,12,-253,-5,-50,82,5
6775,11,-255,-9,-55,82,5
6780,14,-252,-5,-60,81,5
6785,11,-252,0,-64,83,4
6790,12,-252,-5,-64,84,4
6795,13,-253,-6,-62,84,4
6800,12,-254,-3,-61,87,1
6805,11,-254,-6,-60,86,2
6810,15,-255,-6,-59,86,-1
6815,14,-255,-6,-57,86,1
6820,13,-255,-4,-55,82,-4
6825,13,-253,-9,-53,83,-3
6830,15,-255,-5,-50,85,-5
6835,15,-254,-4,-49,86,-3
6840,16,-258,-5,-45,88,-4
6845,15,-255,-6,-44,91,-2
6850,15,-256,-6,-41,91,-2
6855,15,-257,-4,-38,92,0
6860,14,-256,-7,-36,95,-1
6865,13,-255,-8,-35,96,1
6870,16,-257,-1,-32,97,-1
6875,16,-259,-6,-31,98,-1
6880,16,-258,-7,-31,98,-4
6885,16,-257,-8,-36,97,-4
6890,15,-253,-8,-38,96,-8
6895,13,-255,-10,-45,93,-7
6900,13,-255,-9,-51,93,-10
6905,13,-256,-8,-57,96,-10
6910,11,-254,-5,-62,95,-12
6915,12,-253,-6,-68,94,-8
6920,12,-254,-6,-71,94,-11
6925,12,-254,-3,-72,92,-8
6930,14,-253,-3,-73,89,-9
6935,11,-255,-3,-73,86,-8
6940,12,-254,-3,-74,83,-12
6945,11,-254,-4,-74,80,-10
6950,14,-253,-4,-74,76,-13
6955,12,-253,-7,-75,72,-11
6960,13,-254,-5,-77,68,-12
6965,14,-252,-7,-78,64,-9
6970,14,-257,-10,-75,63,-13
6975,13,-256,-9,-75,62,-11
6980,14,-253,-5,-74,60,-11
6985,14,-254,-7,-72,63,-9
6990,19,-258,-7,-68,62,-11
6995,16,-257,-8,-64,62,-9
7000,16,-251,-9,-61,61,-12
7005,15,-255,-7,-60,62,-8
7010,15,-255,-7,-59,61,-11
7015,15,-255,-6,-58,61,-10
7020,12,-256,-6,-56,60,-11
7025,19,-257,-8,-55,58,-9
7030,16,-257,-6,-51,56,-12
7035,14,-256,-3,-49,56,-9
7040,14,-257,-11,-47,55,-11
7045,15,-256,-2,-44,56,-8
7050,18,-256,-5,-40,56,-12
7055,15,-258,-6,-41,58,-8
7060,13,-253,-10,-41,59,-11
7065,17,-255,-8,-41,61,-10
7070,16,-256,-4,-42,62,-13
7075,16,-255,-7,-43,63,-9
7080,16,-258,-6,-46,63,-13
7085,14,-255,-8,-51,62,-10
7090,17,-254,-10,-57,60,-12
7095,13,-255,-3,-63,59,-9
7100,15,-255,-8,-69,56,-10
7105,16,-253,-6,-73,54,-8
7110,15,-253,-6,-76,49,-10
7115,15,-253,-7,-79,47,-9
7120,17,-254,-6,-81,45,-10
7125,16,-250,-9,-81,44,-8
7130,17,-253,-9,-84,46,-10
7135,17,-253,-10,-85,46,-8
7140,18,-253,-8,-89,46,-10
7145,17,-252,-9,-91,47,-7
7150,16,-253,-10,-91,47,-8
7155,17,-252,-9,-94,47,-7
7160,14,-253,-10,-96,47,-10
7165,14,-254,-10,-97,47,-12
7170,16,-254,-9,-98,45,-13
7175,17,-257,-12,-96,45,-13
7180,18,-255,-14,-96,46,-15
7185,13,-254,-15,-96,46,-15
7190,15,-257,-14,-95,48,-17
7195,17,-258,-16,-90,50,-15
7200,17,-259,-10,-86,52,-16
7205,14,-259,-7,-80,52,-14
7210,17,-257,-14,-73,52,-14
7215,14,-256,-11,-66,53,-15
7220,15,-259,-12,-60,51,-18
7225,16,-259,-7,-54,50,-15
7230,14,-258,-12,-47,51,-19
7235,15,-257,-12,-42,52,-18
7240,15,-257,-9,-37,53,-19
7245,16,-255,-12,-33,56,-19
7250,18,-253,-16,-31,58,-19
7255,20,-251,-5,-29,58,-18
7260,18,-249,-13,-33,60,-20
7265,14,-264,-15,-36,61,-19
7270,18,-254,-22,-40,62,-19
7275,18,-256,-7,-44,62,-20
7280,8,-248,-17,-49,62,-22
7285,15,-253,-16,-52,63,-22
7290,18,-251,-15,-57,65,-23
7295,17,-254,-17,-60,65,-23
7300,15,-254,-17,-64,66,-23
7305,17,-253,-15,-67,67,-22
7310,14,-254,-12,-70,67,-20
7315,15,-253,-16,-71,68,-19
7320,19,-258,-9,-69,69,-19
7325,17,-259,-10,-68,70,-18
7330,16,-257,-15,-64,72,-17
7335,15,-256,-14,-57,70,-16
7340,14,-257,-12,-52,69,-16
7345,16,-257,-13,-48,69,-16
7350,18,-256,-16,-45,68,-15
7355,17,-258,-11,-43,69,-15
7360,16,-256,-12,-43,68,-15
7365,14,-254,-14,-42,68,-15
7370,15,-252,-14,-44,70,-14
7375,20,-255,-12,-44,70,-15
7380,16,-253,-16,-46,71,-15
7385,15,-253,-19,-48,72,-16
7390,15,-255,-10,-51,72,-16
7395,16,-254,-11,-54,71,-17
7400,17,-251,-11,-56,70,-17
7405,18,-251,-13,-57,69,-18
7410,15,-253,-15,-59,70,-17
7415,17,-253,-10,-60,68,-19
7420,18,-255,-17,-61,66,-17
7425,19,-256,-16,-62,67,-18
7430,14,-250,-17,-62,68,-16
7435,17,-253,-19,-62,68,-16
7440,19,-255,-13,-59,69,-15
7445,19,-256,-16,-57,70,-15
7450,19,-255,-18,-55,70,-13
7455,18,-254,-18,-54,69,-15
7460,20,-257,-17,-53,68,-13
7465,17,-255,-13,-52,67,-15
7470,17,-256,-17,-52,65,-13
7475,19,-257,-19,-52,63,-13
7480,19,-255,-15,-51,63,-11
7485,19,-254,-19,-52,62,-12
7490,19,-254,-14,-52,60,-10
7495,20,-258,-18,-51,60,-12
7500,19,-257,-13,-51,58,-10
7505,18,-256,-15,-50,58,-12
7510,18,-255,-15,-51,58,-10
7515,17,-258,-19,-51,58,-13
7520,19,-255,-15,-50,58,-11
7525,18,-257,-17,-46,57,-12
7530,18,-254,-14,-44,60,-11
7535,16,-255,-16,-40,60,-13
7540,17,-254,-18,-35,61,-9
7545,15,-256,-14,-31,60,-10
7550,17,-252,-17,-29,62,-7
7555,18,-256,-20,-27,61,-10
7560,18,-253,-18,-28,63,-7
7565,18,-253,-14,-30,64,-10
7570,17,-255,-18,-30,64,-10
7575,16,-253,-20,-30,62,-14
7580,18,-254,-18,-30,64,-12
7585,19,-255,-15,-30,64,-13
7590,19,-256,-17,-32,66,-10
7595,17,-253,-19,-33,68,-13
7600,17,-256,-16,-32,67,-10
7605,17,-255,-18,-32,68,-12
7610,14,-255,-13,-29,69,-7
7615,17,-254,-16,-29,69,-9
7620,17,-257,-11,-28,66,-5
7625,16,-259,-13,-27,65,-7
7630,17,-255,-14,-25,63,-4
7635,18,-256,-11,-24,63,-6
7640,18,-255,-14,-22,62,-4
7645,21,-257,-16,-21,61,-7
7650,19,-258,-18,-18,59,-5
7655,17,-255,-15,-15,58,-8
7660,15,-256,-18,-15,58,-5
7665,17,-254,-14,-14,57,-8
7670,17,-253,-14,-13,57,-7
7675,17,-254,-14,-14,57,-10
7680,16,-252,-12,-15,57,-8
7685,15,-255,-18,-16,57,-10
7690,17,-254,-19,-17,59,-6
7695,17,-255,-16,-16,60,-8
7700,18,-256,-18,-18,61,-8
7705,18,-253,-14,-17,62,-11
7710,18,-255,-15,-17,62,-8
7715,17,-255,-17,-16,64,-10
7720,17,-255,-13,-17,65,-7
7725,20,-258,-21,-16,66,-10
7730,18,-256,-19,-17,65,-8
7735,18,-258,-14,-18,66,-8
7740,17,-255,-16,-17,67,-7
7745,19,-254,-14,-16,65,-9
7750,20,-258,-17,-14,65,-7
7755,17,-254,-14,-11,64,-9
7760,20,-255,-14,-9,62,-7
7765,17,-253,-16,-9,64,-9
7770,17,-253,-19,-9,61,-7
7775,15,-256,-21,-8,61,-8
7780,18,-255,-19,-8,60,-5
7785,18,-256,-17,-6,60,-9
7790,15,-255,-15,-3,60,-6
7795,18,-257,-14,-1,60,-7
7800,19,-258,-17,1,61,-6
7805,17,-254,-18,2,61,-8
7810,17,-254,-15,3,63,-7
7815,20,-257,-15,3,64,-7
7820,16,-254,-18,3,66,-6
7825,18,-256,-17,4,68,-6
7830,19,-258,-17,4,66,-4
7835,18,-255,-14,4,68,-5
7840,17,-254,-18,5,69,-5
7845,17,-256,-20,7,70,-5
7850,17,-256,-19,8,71,-4
7855,18,-256,-17,11,70,-5
7860,17,-253,-18,10,71,-6
7865,20,-254,-18,11,70,-5
7870,17,-251,-22,10,68,-5
7875,17,-254,-18,8,67,-7
7880,18,-255,-17,6,65,-3
7885,16,-251,-18,3,62,-3
7890,19,-254,-15,3,59,-1
7895,18,-254,-21,4,56,0
7900,17,-255,-13,3,56,2
7905,16,-254,-14,6,54,3
7910,18,-254,-18,7,55,5
7915,17,-255,-15,8,56,3
7920,16,-255,-12,11,58,3
7925,18,-257,-15,13,60,2
7930,18,-254,-12,13,60,2
7935,16,-256,-17,14,60,-1
7940,21,-257,-12,13,61,0
7945,15,-252,-15,12,62,0
7950,14,-255,-12,12,62,-2
7955,18,-257,-11,10,63,-2
7960,18,-254,-15,11,64,-4
7965,19,-254,-16,11,64,-4
7970,16,-253,-16,11,65,-4
7975,17,-254,-16,11,64,-5
7980,20,-257,-15,11,65,-3
7985,16,-258,-14,12,64,-2
7990,17,-252,-12,10,66,-4
7995,17,-252,-15,11,66,-5
8000,21,-253,-17,11,66,-7
8005,17,-254,-15,11,67,-4
8010,16,-253,-17,12,66,-5
8015,16,-253,-12,12,67,-3
8020,19,-257,-12,12,68,-2
8025,20,-256,-15,14,67,1
8030,17,-254,-16,14,66,-1
8035,19,-255,-14,12,66,0
8040,20,-257,-11,13,64,1
8045,16,-255,-17,11,63,2
8050,17,-254,-15,11,62,2
8055,17,-255,-12,9,62,4
8060,15,-255,-14,8,62,1
8065,19,-256,-15,6,62,2
8070,17,-255,-15,4,60,-1
8075,17,-253,-17,2,60,0
8080,19,-256,-15,0,62,-1
8085,18,-254,-15,-1,62,1
8090,17,-252,-9,-1,62,-2
8095,19,-257,-14,-2,62,-1
8100,18,-253,-13,-1,64,-2
8105,16,-257,-12,-1,65,0
8110,15,-254,-11,3,66,-3
8115,16,-255,-15,5,65,0
8120,14,-252,-13,5,65,-2
8125,17,-256,-17,5,64,-2
8130,18,-254,-19,7,64,-2
8135,18,-255,-12,6,63,-1
8140,18,-255,-17,6,64,-3
8145,20,-257,-16,5,62,-1
8150,17,-253,-15,3,62,-3
8155,16,-254,-18,0,61,-2
8160,13,-254,-15,-1,63,-4
8165,15,-252,-17,0,63,0
8170,21,-256,-10,-1,62,-2
8175,17,-257,-9,0,63,1
8180,18,-257,-15,0,64,-2
8185,18,-255,-14,0,64,1
8190,18,-257,-14,0,64,-2
8195,18,-255,-13,0,66,0
8200,18,-259,-11,0,66,-2
8205,18,-255,-13,1,65,1
8210,19,-258,-13,1,65,-2
8215,17,-252,-8,0,64,-1
8220,16,-256,-15,0,64,-4
8225,19,-255,-15,-1,65,-2
8230,16,-254,-13,-2,64,-4
8235,16,-254,-13,-1,63,-2
8240,19,-255,-13,-1,63,-4
8245,17,-256,-13,0,63,-1
8250,18,-256,-13,-1,62,-5
8255,19,-254,-13,-1,62,-3
8260,18,-255,-15,-1,62,-5
8265,17,-253,-13,0,61,-2
8270,14,-254,-11,-2,61,-6
8275,18,-255,-10,-4,60,-2
8280,18,-255,-13,-6,60,-4
8285,19,-254,-14,-10,62,-1
8290,19,-257,-15,-12,60,-3
8295,19,-254,-8,-12,61,0
8300,18,-252,-14,-12,60,-1
8305,19,-253,-12,-13,59,1
8310,17,-254,-10,-14,60,-1
8315,18,-258,-13,-13,60,2
8320,21,-251,-13,-14,60,-2
8325,16,-254,-15,-16,61,0
8330,21,-252,-10,-16,60,-1
8335,18,-255,-13,-17,59,1
8340,19,-256,-14,-16,59,-1
8345,17,-253,-10,-15,59,1
8350,19,-257,-14,-17,59,-2
8355,18,-256,-14,-19,59,1
8360,15,-257,-14,-18,59,-2
8365,17,-255,-9,-18,57,0
8370,17,-252,-12,-17,59,-2
8375,18,-254,-12,-17,60,0
8380,19,-257,-16,-17,61,-3
8385,20,-255,-17,-19,62,0
8390,19,-255,-13,-20,63,-5
8395,18,-255,-13,-22,64,-1
8400,18,-256,-11,-22,65,-3
8405,19,-255,-13,-23,66,-1
8410,17,-255,-10,-23,68,-4
8415,16,-255,-14,-23,69,-2
8420,17,-253,-11,-23,68,-4
8425,17,-257,-13,-23,68,-2
8430,19,-256,-12,-22,69,-5
8435,18,-257,-11,-18,67,-2
8440,19,-258,-16,-15,65,-6
8445,16,-256,-16,-14,66,-5
8450,18,-254,-19,-13,64,-6
8455,18,-252,-17,-14,65,-6
8460,16,-253,-13,-17,64,-8
8465,17,-254,-15,-19,64,-5
8470,17,-255,-17,-24,63,-4
8475,17,-253,-17,-27,62,-1
8480,18,-255,-16,-29,60,-3
8485,16,-255,-12,-29,60,0
8490,19,-255,-8,-27,59,0
8495,17,-256,-15,-25,60,3
8500,18,-255,-9,-24,59,2
8505,18,-258,-11,-22,59,3
8510,17,-256,-13,-24,60,4
8515,18,-257,-12,-22,61,4
8520,19,-256,-12,-22,61,2
8525,17,-253,-13,-22,63,3
8530,18,-255,-10,-24,64,1
8535,16,-254,-14,-23,64,-1
8540,18,-256,-11,-23,65,-3
8545,19,-253,-14,-26,65,-2
8550,18,-255,-11,-25,65,-3
8555,18,-254,-13,-25,65,-4
8560,17,-255,-16,-25,65,-6
8565,19,-256,-17,-25,67,-7
8570,18,-254,-15,-23,65,-8
8575,15,-255,-19,-23,66,-7
8580,17,-255,-15,-21,66,-7
8585,15,-253,-12,-20,66,-6
8590,20,-257,-15,-18,68,-6
8595,19,-255,-16,-18,67,-6
8600,18,-254,-13,-17,67,-6
8605,17,-257,-14,-16,67,-5
8610,18,-257,-10,-15,67,-3
8615,20,-258,-15,-15,65,-3
8620,17,-254,-14,-15,66,-2
8625,17,-256,-15,-14,63,-1
8630,14,-254,-20,-12,63,0
8635,16,-254,-13,-15,61,0
8640,17,-255,-17,-14,59,2
8645,15,-255,-12,-15,60,2
8650,18,-255,-12,-14,58,1
8655,18,-255,-17,-14,59,0
8660,18,-253,-12,-13,59,0
8665,15,-257,-12,-13,58,0
8670,15,-256,-11,-14,61,0
8675,18,-256,-15,-15,62,0
8680,19,-255,-12,-17,63,-1
8685,16,-255,-10,-16,65,-2
8690,17,-254,-12,-15,64,-3
8695,19,-258,-15,-17,65,-4
8700,16,-256,-13,-17,66,-5
8705,17,-254,-13,-17,67,-5
8710,18,-252,-13,-18,67,-3
8715,13,-253,-14,-19,67,-5
8720,18,-257,-13,-20,68,-4
8725,17,-253,-11,-19,67,-5
8730,19,-259,-8,-21,69,-4
8735,18,-252,-14,-23,67,-5
8740,17,-252,-16,-26,66,-4
8745,17,-254,-15,-28,66,-6
8750,18,-254,-14,-28,67,-6
8755,17,-257,-15,-28,66,-9
8760,15,-257,-13,-30,65,-7
8765,16,-256,-19,-29,65,-11
8770,15,-254,-14,-29,69,-11
8775,14,-255,-15,-25,72,-14
8780,14,-256,-18,-23,75,-15
8785,16,-257,-10,-21,77,-18
8790,17,-259,-13,-15,80,-18
8795,17,-258,-17,-11,81,-21
8800,14,-258,-14,-7,85,-20
8805,18,-256,-12,-3,87,-21
8810,15,-255,-16,0,87,-19
8815,15,-254,-15,2,88,-21
8820,15,-255,-14,3,88,-17
8825,17,-255,-16,5,86,-18
8830,17,-252,-14,5,85,-15
8835,18,-253,-14,4,84,-16
8840,19,-252,-12,3,83,-12
8845,19,-254,-13,1,80,-11
8850,23,-252,-14,-2,78,-9
8855,19,-256,-10,-7,75,-11
8860,22,-250,-15,-11,71,-6
8865,22,-254,-15,-15,68,-7
8870,21,-255,-17,-20,63,-5
8875,21,-253,-15,-24,61,-6
8880,18,-249,-13,-27,58,-2
8885,21,-253,-10,-28,56,-2
8890,21,-254,-16,-30,54,2
8895,21,-255,-12,-33,51,1
8900,20,-256,-14,-36,49,4
8905,23,-255,-11,-39,49,4
8910,20,-255,-16,-39,45,7
8915,20,-255,-16,-40,43,4
8920,19,-253,-11,-42,41,7
8925,22,-255,-14,-44,39,5
8930,19,-254,-14,-47,38,6
8935,17,-256,-13,-47,37,3
8940,20,-256,-12,-49,37,5
8945,17,-253,-15,-49,39,4
8950,20,-256,-13,-48,41,7
8955,18,-255,-11,-48,43,5
8960,18,-256,-15,-47,45,8
8965,15,-258,-12,-45,48,5
8970,17,-255,-13,-45,50,7
8975,18,-256,-12,-44,51,5
8980,15,-258,-14,-42,52,7
8985,18,-257,-15,-38,54,4
8990,19,-258,-10,-37,57,6
8995,18,-257,-15,-35,60,3
9000,24,-258,-4,-33,61,3
9005,18,-257,-15,-32,62,-1
9010,13,-256,-16,-32,64,-1
9015,18,-257,-15,-31,63,-3
9020,18,-255,-15,-28,62,0
9025,17,-254,-15,-25,64,-3
9030,16,-256,-16,-23,64,-1
9035,18,-257,-16,-23,64,-2
9040,17,-254,-17,-21,61,0
9045,17,-255,-17,-22,62,-3
9050,17,-253,-19,-26,61,-1
9055,18,-254,-22,-28,59,-4
9060,18,-254,-20,-30,58,-1
9065,16,-251,-16,-35,57,-2
9070,19,-254,-18,-38,58,0
9075,20,-255,-17,-42,58,1
9080,17,-256,-17,-42,59,2
9085,19,-255,-15,-41,60,1
9090,16,-254,-19,-38,62,4
9095,20,-255,-15,-34,62,2
9100,19,-258,-15,-28,63,4
9105,15,-255,-15,-23,64,1
9110,16,-253,-16,-14,63,3
9115,19,-258,-14,-10,65,0
9120,13,-255,-17,-8,64,2
9125,16,-255,-19,-8,64,0
9130,18,-256,-13,-10,64,1
9135,16,-254,-15,-12,65,-2
9140,20,-254,-14,-13,67,-1
9145,18,-257,-16,-16,67,-1
9150,16,-254,-12,-18,69,-1
9155,18,-253,-13,-19,69,-4
9160,16,-255,-14,-19,69,-4
9165,18,-256,-17,-21,68,-5
9170,18,-253,-15,-23,68,-4
9175,19,-257,-17,-25,69,-5
9180,18,-256,-18,-24,68,-4
9185,19,-256,-15,-22,69,-4
9190,17,-253,-17,-20,70,-2
9195,20,-256,-15,-21,68,-4
9200,15,-253,-15,-19,68,-4
9205,19,-257,-14,-17,66,-5
9210,16,-252,-16,-16,65,-3
9215,16,-253,-17,-16,64,-3
9220,16,-255,-12,-15,62,0
9225,20,-255,-16,-17,60,0
9230,16,-253,-15,-17,59,1
9235,18,-256,-16,-19,59,1
9240,18,-254,-14,-19,58,3
9245,16,-254,-19,-19,57,4
9250,18,-255,-13,-19,57,6
9255,16,-252,-15,-18,58,5
9260,17,-252,-17,-19,57,2
9265,16,-256,-18,-18,56,3
9270,15,-255,-14,-18,56,4
9275,17,-254,-13,-16,56,4
9280,18,-257,-15,-14,57,5
9285,19,-257,-16,-14,59,5
9290,18,-256,-17,-13,59,3
9295,17,-254,-12,-11,60,4
9300,17,-258,-13,-10,59,4
9305,17,-257,-13,-10,59,3
9310,20,-256,-17,-9,58,4
9315,16,-255,-17,-8,58,1
9320,19,-254,-16,-9,59,2
9325,20,-256,-13,-11,57,2
9330,17,-256,-16,-13,59,2
9335,17,-254,-14,-12,57,3
9340,17,-254,-17,-13,56,3
9345,18,-254,-16,-15,56,4
9350,16,-254,-17,-15,56,3
9355,15,-253,-16,-14,54,2
9360,18,-257,-14,-13,55,4
9365,16,-254,-14,-11,54,5
9370,15,-254,-10,-12,55,5
9375,14,-255,-13,-9,56,4
9380,15,-257,-19,-10,57,5
9385,19,-256,-14,-9,58,4
9390,14,-255,-13,-6,60,3
9395,15,-253,-17,-4,62,3
9400,17,-256,-16,-2,61,4
9405,16,-255,-18,-1,62,3
9410,14,-256,-15,0,62,2
9415,16,-254,-14,1,62,2
9420,15,-257,-13,-1,63,2
9425,17,-255,-14,-3,62,3
9430,17,-253,-11,-4,63,1
9435,18,-252,-15,-6,62,2
9440,16,-256,-17,-6,61,0
9445,18,-256,-12,-10,60,1
9450,19,-255,-13,-10,60,-1
9455,19,-255,-16,-14,59,0
9460,17,-252,-14,-14,58,-2
9465,17,-256,-15,-14,57,-1
9470,17,-257,-16,-13,58,-1
9475,17,-255,-15,-12,56,0
9480,13,-255,-13,-12,57,-1
9485,18,-255,-15,-11,57,0
9490,16,-254,-18,-10,58,-1
9495,14,-257,-16,-9,59,-1
9500,15,-255,-17,-10,60,-2
9505,17,-255,-17,-10,61,0
9510,16,-256,-17,-11,60,-2
9515,20,-257,-17,-12,60,-2
9520,17,-254,-16,-12,60,-3
9525,20,-256,-19,-13,61,0
9530,17,-255,-13,-11,58,-2
9535,15,-255,-18,-11,58,0
9540,17,-255,-15,-8,58,-2
9545,18,-254,-16,-8,57,-1
9550,15,-254,-15,-7,59,-1
9555,17,-256,-18,-6,57,1
9560,18,-258,-15,-5,59,-2
9565,16,-255,-16,-6,59,1
9570,19,-255,-14,-5,60,-1
9575,14,-253,-12,-5,61,1
9580,16,-253,-19,-4,60,-2
9585,18,-256,-13,-4,61,-1
9590,14,-255,-16,-4,61,-5
9595,17,-251,-15,-4,63,-3
9600,14,-255,-16,-6,64,-6
9605,21,-258,-13,-4,65,-5
9610,15,-255,-12,-7,67,-8
9615,19,-256,-15,-6,67,-6
9620,18,-255,-16,-5,66,-9
9625,15,-257,-15,-4,67,-7
9630,17,-256,-15,-3,68,-10
9635,14,-254,-14,-2,67,-6
9640,16,-253,-15,1,68,-9
9645,18,-254,-14,1,68,-7
9650,14,-253,-18,-1,67,-9
9655,16,-252,-19,-6,66,-4
9660,18,-253,-18,-9,64,-6
9665,18,-253,-15,-12,62,-4
9670,18,-254,-16,-15,60,-6
9675,19,-253,-14,-16,59,-3
9680,18,-255,-17,-17,58,-5
9685,20,-255,-13,-17,56,-4
9690,18,-257,-15,-14,58,-6
9695,17,-254,-14,-14,57,-3
9700,18,-256,-15,-13,58,-6
9705,15,-257,-13,-14,59,-1
9710,15,-255,-13,-12,61,-5
9715,20,-257,-15,-11,59,-2
9720,17,-256,-13,-11,62,-4
9725,17,-258,-17,-11,62,-3
9730,17,-255,-15,-11,63,-6
9735,17,-256,-17,-10,64,-4
9740,16,-253,-13,-8,62,-7
9745,18,-256,-15,-10,64,-4
9750,17,-253,-15,-7,62,-7
9755,22,-260,-16,-7,61,-7
9760,16,-254,-18,-7,60,-9
9765,17,-253,-15,-7,61,-7
9770,18,-255,-17,-9,61,-9
9775,17,-255,-13,-10,62,-8
9780,20,-257,-18,-11,60,-10
9785,21,-253,-18,-13,62,-7
9790,16,-253,-17,-15,62,-8
9795,18,-255,-14,-17,62,-4
9800,18,-253,-16,-17,62,-4
9805,18,-256,-14,-19,63,0
9810,18,-254,-15,-19,63,-2
9815,16,-255,-14,-19,63,1
9820,19,-254,-16,-19,61,-1
9825,19,-255,-17,-19,60,2
9830,17,-253,-16,-18,60,1
9835,19,-255,-16,-20,57,2
9840,15,-252,-17,-21,57,0
9845,16,-255,-13,-21,57,1
9850,15,-257,-18,-20,56,-2
9855,16,-255,-14,-21,54,-1
9860,15,-258,-14,-19,56,-3
9865,17,-257,-16,-16,57,-2
9870,16,-255,-14,-13,57,-3
9875,16,-255,-19,-12,58,-1
9880,16,-254,-12,-10,61,-2
9885,19,-257,-17,-9,63,-1
9890,17,-257,-16,-8,66,-2
9895,17,-254,-15,-9,66,-1
9900,19,-255,-14,-11,66,-2
9905,15,-254,-17,-14,65,0
9910,16,-250,-17,-19,66,-3
9915,17,-256,-20,-21,65,-2
9920,17,-254,-19,-24,64,-3
9925,18,-256,-19,-25,65,-3
9930,18,-256,-17,-25,62,-4
9935,16,-257,-13,-25,61,-3
9940,15,-255,-18,-24,61,-5
9945,16,-254,-17,-23,59,-4
9950,18,-256,-16,-23,59,-4
9955,15,-254,-13,-23,60,-2
9960,17,-257,-14,-22,62,-3
9965,16,-256,-15,-20,61,-2
9970,17,-255,-16,-20,61,-2
9975,17,-257,-11,-17,61,-2
9980,15,-257,-16,-15,63,-1
9985,17,-257,-14,-13,63,-2
9990,17,-254,-15,-11,62,-1
9995,17,-256,-15,-10,63,-2
10000,17,-256,-12,-9,65,-2
10005,19,-257,-13,-8,64,-1
10010,17,-253,-16,-8,64,-3
10015,18,-255,-15,-9,64,-4
10020,17,-252,-13,-10,64,-3
10025,17,-254,-16,-12,62,-3
10030,15,-254,-17,-16,61,-3
10035,19,-254,-15,-18,60,-4
10040,16,-252,-15,-22,60,-3
10045,20,-253,-19,-25,58,-4
10050,17,-255,-18,-28,57,-3
10055,17,-256,-15,-28,58,-4
10060,15,-255,-16,-28,57,-2
10065,19,-256,-15,-27,56,-4
10070,17,-257,-15,-28,57,-2
10075,19,-254,-16,-29,57,-2
10080,16,-252,-13,-30,59,0
10085,18,-253,-16,-29,58,-3
10090,14,-256,-14,-28,58,-2
10095,17,-255,-14,-26,59,-2
10100,17,-257,-17,-25,59,-1
10105,18,-256,-16,-24,60,-3
10110,17,-254,-19,-24,61,-4
10115,19,-253,-15,-21,61,-4
10120,19,-253,-13,-19,62,-2
10125,19,-254,-13,-19,61,-4
10130,18,-257,-14,-17,61,-3
10135,17,-254,-18,-18,62,-4
10140,16,-255,-14,-18,63,-1
10145,17,-258,-18,-18,63,-2
10150,15,-255,-15,-18,63,-1
10155,18,-252,-18,-17,63,-2
10160,17,-256,-17,-16,64,-1
10165,17,-254,-17,-19,63,-2
10170,16,-254,-17,-20,63,-1
10175,17,-254,-12,-22,64,-4
10180,16,-254,-17,-24,62,-2
10185,17,-253,-16,-24,62,-5
10190,18,-255,-16,-25,61,-3
10195,17,-251,-14,-26,61,-7
10200,18,-253,-15,-27,62,-5
10205,25,-256,-24,-25,63,-8
10210,29,-258,-15,-26,64,-7
10215,10,-260,-18,-26,65,-10
10220,17,-253,-11,-25,66,-9
10225,9,-261,-16,-23,68,-11
10230,17,-254,-17,-21,69,-8
10235,15,-255,-18,-19,68,-10
10240,16,-256,-16,-19,68,-7
10245,16,-256,-16,-18,69,-10
10250,14,-254,-15,-20,68,-7
10255,17,-256,-17,-22,66,-10
10260,20,-255,-18,-25,65,-7
10265,17,-251,-16,-28,63,-9
10270,16,-255,-16,-30,61,-4
10275,12,-250,-15,-33,60,-5
10280,18,-254,-17,-33,58,-3
10285,19,-254,-16,-33,57,-3
10290,19,-256,-17,-30,55,0
10295,18,-256,-20,-26,57,-1
10300,17,-257,-13,-23,57,1
10305,16,-255,-14,-21,56,-3
10310,18,-257,-17,-18,56,-1
10315,16,-258,-16,-17,57,-4
10320,17,-254,-15,-14,58,-1
10325,14,-251,-15,-16,60,-4
10330,17,-255,-14,-16,61,-2
10335,16,-256,-14,-17,60,-4
10340,17,-255,-16,-19,62,-1
10345,19,-256,-21,-20,63,-4
10350,21,-253,-12,-20,64,-1
10355,19,-254,-15,-20,65,-4
10360,19,-257,-19,-19,64,-3
10365,19,-256,-17,-20,64,-6
10370,15,-257,-17,-20,63,-5
10375,20,-257,-16,-19,62,-8
10380,16,-255,-16,-19,63,-5
10385,18,-255,-18,-19,62,-7
10390,21,-257,-16,-21,62,-5
10395,16,-254,-15,-21,63,-7
10400,19,-256,-18,-21,63,-4
10405,18,-257,-18,-23,63,-6
10410,17,-251,-19,-23,64,-3
10415,16,-257,-19,-24,63,-6
10420,20,-254,-14,-25,62,-2
10425,17,-257,-16,-26,62,-5
10430,19,-255,-20,-26,61,-1
10435,16,-254,-19,-26,62,-1
10440,18,-255,-19,-25,60,1
10445,19,-258,-12,-22,60,-2
10450,14,-255,-18,-18,60,1
10455,18,-257,-15,-18,61,-3
10460,19,-257,-15,-15,61,1
10465,16,-254,-13,-12,61,-2
10470,16,-256,-17,-10,62,1
10475,18,-257,-16,-10,62,-2
10480,16,-258,-13,-7,63,1
10485,19,-255,-15,-8,62,-2
10490,18,-254,-18,-9,62,-2
10495,18,-253,-18,-9,62,-4
10500,16,-256,-14,-8,60,-2
10505,17,-256,-15,-11,61,-6
10510,17,-253,-15,-14,61,-3
10515,16,-251,-16,-14,62,-5
10520,15,-253,-17,-17,61,-4
10525,18,-253,-18,-17,60,-5
10530,18,-256,-12,-17,60,-4
10535,15,-253,-17,-19,59,-6
10540,18,-253,-17,-19,60,-4
10545,20,-258,-10,-19,59,-5
10550,16,-253,-18,-18,58,-4
10555,18,-255,-17,-19,59,-4
10560,19,-253,-15,-19,60,-3
10565,18,-255,-18,-19,60,-4
10570,19,-257,-17,-18,59,-2
10575,16,-255,-14,-18,59,-5
10580,16,-253,-17,-17,60,-2
10585,13,-254,-15,-16,59,-4
10590,17,-255,-15,-15,60,-4
10595,19,-255,-16,-13,58,-5
10600,18,-257,-11,-12,60,-4
10605,17,-254,-18,-11,61,-5
10610,16,-254,-12,-9,62,-5
10615,18,-254,-14,-7,62,-6
10620,18,-252,-13,-7,61,-6
10625,16,-255,-13,-7,62,-7
10630,18,-257,-13,-9,61,-7
10635,18,-255,-17,-10,59,-7
10640,17,-252,-13,-11,59,-6
10645,17,-251,-18,-12,57,-7
10650,17,-256,-19,-13,60,-8
10655,19,-255,-16,-15,58,-9
10660,18,-257,-16,-16,58,-7
10665,17,-254,-16,-17,57,-8
10670,18,-255,-14,-17,55,-7
10675,19,-256,-17,-20,55,-8
10680,16,-256,-19,-20,56,-7
10685,18,-258,-16,-19,55,-7
10690,17,-257,-18,-17,57,-7
10695,16,-253,-15,-16,59,-7
10700,17,-256,-15,-13,60,-7
10705,18,-257,-14,-10,62,-7
10710,17,-255,-14,-7,63,-7
10715,19,-256,-17,-7,62,-7
10720,16,-254,-19,-5,63,-7
10725,18,-252,-15,-4,63,-6
10730,18,-256,-16,-3,63,-6
10735,17,-254,-17,-3,63,-5
10740,20,-254,-20,-3,61,-7
10745,18,-256,-15,-3,61,-7
10750,18,-250,-18,-4,61,-7
10755,19,-254,-15,-5,61,-6
10760,18,-255,-13,-7,59,-6
10765,15,-256,-16,-10,59,-5
10770,18,-254,-15,-11,58,-5
10775,16,-254,-15,-12,58,-6
10780,18,-253,-14,-14,58,-7
10785,19,-254,-14,-16,59,-6
10790,17,-255,-11,-18,59,-6
10795,20,-257,-19,-17,61,-6
10800,19,-256,-20,-16,61,-6
10805,19,-256,-13,-16,63,-6
10810,18,-259,-15,-15,64,-7
10815,20,-257,-14,-13,63,-6
10820,19,-255,-17,-12,63,-9
10825,17,-255,-14,-11,64,-8
10830,18,-254,-13,-8,64,-8
10835,15,-255,-14,-8,64,-7
10840,18,-256,-22,-4,65,-7
10845,20,-254,-17,-3,63,-6
10850,16,-254,-17,-2,64,-7
10855,19,-254,-20,-1,63,-4
10860,18,-253,-15,2,64,-5
10865,17,-255,-19,0,64,-5
10870,19,-255,-20,-3,63,-5
10875,14,-255,-14,-5,61,-1
10880,19,-253,-17,-9,59,-2
10885,17,-256,-17,-11,58,0
10890,19,-254,-10,-11,56,-1
10895,17,-252,-14,-11,56,2
10900,16,-257,-20,-11,54,1
10905,16,-253,-14,-11,54,2
10910,19,-258,-14,-10,56,1
10915,16,-255,-11,-7,57,1
10920,15,-253,-12,-7,57,-2
10925,18,-255,-15,-7,58,0
10930,17,-253,-16,-5,59,-2
10935,19,-256,-15,-7,60,-2
10940,17,-256,-14,-9,59,-4
10945,16,-254,-16,-9,61,-3
10950,19,-254,-14,-8,63,-7
10955,16,-257,-19,-7,62,-4
10960,15,-253,-18,-8,63,-8
10965,18,-257,-17,-5,66,-7
10970,19,-256,-18,-4,66,-8
10975,19,-256,-14,-2,65,-6
10980,17,-257,-17,0,66,-8
10985,19,-256,-19,4,65,-5
10990,20,-255,-19,4,65,-7
10995,18,-255,-18,8,64,-4
11000,19,-255,-17,12,64,-6
11005,18,-256,-15,12,64,-1
11010,19,-254,-15,14,62,-4
11015,18,-255,-20,12,60,0
11020,19,-254,-13,12,58,-1
11025,16,-252,-15,10,57,1
11030,20,-254,-15,9,54,-1
11035,17,-255,-19,7,55,2
11040,19,-254,-16,6,53,0
11045,17,-251,-13,5,52,3
11050,20,-254,-15,2,54,0
11055,17,-250,-13,-1,52,1
11060,20,-254,-7,-2,53,-2
11065,14,-254,-15,-3,55,-1
11070,19,-257,-14,-2,57,-4
11075,14,-255,-10,0,58,-3
11080,17,-256,-11,3,59,-8
11085,17,-256,-15,2,59,-7
11090,17,-256,-12,4,61,-9
11095,16,-258,-14,5,61,-7
11100,17,-253,-13,6,60,-11
11105,16,-255,-16,4,62,-9
11110,14,-253,-17,4,63,-11
11115,17,-256,-13,3,62,-7
11120,15,-257,-12,4,62,-9
11125,16,-254,-17,3,61,-5
11130,18,-256,-17,3,60,-7
11135,17,-255,-19,5,60,-5
11140,15,-257,-15,5,60,-5
11145,18,-258,-18,7,58,-3
11150,18,-255,-15,8,59,-6
11155,17,-255,-16,9,61,-3
11160,19,-256,-10,13,61,-5
11165,18,-254,-14,13,61,-3
11170,18,-255,-12,15,61,-5
11175,17,-256,-15,14,63,-3
11180,18,-257,-9,15,63,-4
11185,18,-256,-15,17,64,-3
11190,18,-257,-11,16,64,-6
11195,16,-255,-13,18,64,-3
11200,18,-255,-16,17,64,-4
11205,17,-254,-16,16,63,-3
11210,17,-252,-20,15,64,-6
11215,17,-254,-15,13,61,-5
11220,16,-252,-12,11,61,-7
11225,19,-255,-8,8,59,-7
11230,18,-251,-13,6,59,-10
11235,17,-254,-17,3,56,-9
11240,17,-253,-15,1,58,-9
11245,14,-251,-10,-2,57,-8
11250,17,-254,-15,-6,56,-9
11255,17,-255,-10,-8,56,-7
11260,19,-257,-8,-9,55,-8
11265,19,-255,-14,-12,55,-6
11270,20,-254,-15,-11,54,-6
11275,18,-256,-11,-13,52,-4
11280,20,-254,-12,-11,53,-5
11285,17,-255,-13,-13,54,-2
11290,19,-257,-14,-14,52,-3
11295,17,-258,-14,-14,52,-2
11300,19,-256,-18,-15,54,-3
11305,17,-257,-15,-13,55,-1
11310,20,-254,-11,-13,58,-1
11315,20,-255,-14,-11,60,1
11320,19,-255,-18,-11,60,-1
11325,17,-255,-12,-12,61,1
11330,19,-255,-17,-10,61,-1
11335,17,-256,-12,-12,60,0
11340,18,-255,-17,-11,60,-2
11345,17,-255,-15,-12,60,-2
11350,17,-255,-17,-13,57,-4
11355,18,-253,-14,-13,57,-5
11360,20,-257,-13,-14,57,-6
11365,17,-252,-13,-13,55,-5
11370,18,-254,-18,-13,56,-7
11375,16,-252,-16,-14,57,-8
11380,18,-253,-14,-15,57,-7
11385,16,-253,-12,-16,59,-7
11390,18,-255,-14,-17,59,-8
11395,17,-253,-16,-16,59,-8
11400,17,-255,-12,-17,62,-7
11405,16,-254,-11,-19,62,-8
11410,17,-256,-13,-20,64,-8
11415,19,-257,-14,-24,66,-7
11420,17,-256,-12,-22,69,-6
11425,20,-254,-17,-21,71,-6
11430,18,-256,-11,-20,73,-5
11435,18,-254,-11,-19,73,-7
11440,17,-255,-16,-19,74,-7
11445,18,-257,-13,-16,74,-8
11450,17,-257,-15,-16,73,-7
11455,17,-255,-17,-15,70,-9
11460,19,-258,-17,-13,68,-9
11465,20,-256,-13,-9,68,-10
11470,22,-259,-14,-8,66,-10
11475,16,-252,-19,-7,67,-10
11480,19,-254,-17,-9,64,-10
11485,18,-256,-13,-11,64,-12
11490,17,-253,-16,-17,60,-9
11495,19,-252,-16,-21,60,-9
11500,16,-253,-16,-23,59,-8
11505,17,-255,-15,-25,58,-8
11510,17,-254,-13,-25,57,-5
11515,18,-254,-14,-24,59,-6
11520,17,-255,-17,-23,59,-5
11525,17,-254,-13,-24,61,-6
11530,19,-255,-14,-23,62,-3
11535,18,-256,-13,-23,62,-5
11540,19,-254,-12,-24,64,-3
11545,19,-256,-15,-24,63,-6
11550,20,-255,-10,-24,63,-5
11555,18,-255,-14,-25,64,-9
11560,18,-255,-12,-24,64,-8
11565,18,-254,-15,-23,64,-9
11570,17,-252,-15,-21,65,-8
11575,19,-255,-16,-21,62,-10
11580,18,-252,-16,-20,63,-9
11585,20,-256,-18,-21,62,-10
11590,16,-255,-15,-21,62,-7
11595,19,-254,-13,-21,62,-10
11600,22,-256,-15,-20,63,-6
11605,17,-254,-15,-20,63,-9
11610,19,-255,-15,-20,63,-6
11615,18,-254,-17,-23,63,-6
11620,18,-254,-18,-24,62,-4
11625,20,-254,-18,-21,63,-6
11630,22,-254,-14,-22,61,-2
11635,18,-257,-16,-21,61,-4
11640,17,-254,-14,-21,59,-2
11645,17,-256,-17,-20,59,-4
11650,19,-256,-13,-20,59,-2
11655,17,-256,-15,-21,59,-5
11660,17,-254,-14,-20,57,-3
11665,16,-252,-16,-21,56,-5
11670,18,-257,-13,-21,56,-2
11675,18,-258,-15,-19,57,-5
11680,16,-256,-11,-18,57,-4
11685,16,-250,-15,-16,56,-7
11690,16,-256,-15,-15,58,-4
11695,16,-254,-18,-16,60,-6
11700,18,-256,-14,-16,62,-4
11705,17,-255,-17,-17,63,-5
11710,16,-254,-15,-16,64,-4
11715,18,-254,-14,-17,65,-5
11720,17,-253,-17,-19,65,-4
11725,19,-256,-12,-20,64,-5
11730,18,-255,-16,-20,64,-3
11735,20,-254,-14,-20,64,-6
11740,17,-256,-15,-23,62,-4
11745,20,-254,-15,-23,62,-6
11750,17,-256,-17,-23,61,-4
11755,19,-255,-12,-24,61,-7
11760,19,-256,-14,-24,60,-4
11765,16,-256,-15,-26,59,-7
11770,19,-256,-15,-24,62,-3
11775,16,-253,-15,-22,62,-7
11780,20,-256,-12,-22,61,-3
11785,18,-258,-15,-20,62,-5
11790,19,-257,-17,-19,63,-4
11795,20,-254,-13,-18,62,-6
11800,20,-254,-14,-17,63,-3
11805,16,-252,-14,-18,63,-4
11810,18,-255,-15,-16,63,-3
11815,18,-253,-16,-16,64,-6
11820,18,-255,-15,-15,63,-4
11825,17,-254,-14,-16,62,-6
11830,18,-256,-11,-17,61,-5
11835,20,-255,-15,-16,62,-8
11840,18,-256,-13,-16,61,-5
11845,16,-253,-14,-17,63,-8
11850,18,-253,-16,-18,62,-6
11855,17,-257,-16,-19,61,-6
11860,17,-251,-13,-22,63,-3
11865,19,-258,-15,-22,62,-5
11870,15,-255,-16,-24,62,-3
11875,17,-253,-13,-23,62,-4
11880,19,-254,-16,-22,62,-2
11885,16,-255,-17,-22,62,-4
11890,17,-258,-14,-21,63,-3
11895,18,-255,-16,-20,63,-4
11900,17,-256,-18,-22,62,-3
11905,16,-254,-16,-22,63,-5
11910,17,-253,-17,-23,61,-2
11915,17,-256,-19,-21,62,-4
11920,17,-255,-15,-21,63,-2
11925,18,-257,-15,-21,64,-4
11930,15,-254,-12,-19,64,-2
11935,19,-258,-14,-19,63,-4
11940,18,-255,-17,-18,65,-3
11945,20,-255,-16,-17,64,-5
11950,21,-254,-16,-15,63,-5
11955,17,-256,-12,-14,63,-5
11960,20,-256,-16,-13,62,-5
11965,19,-255,-16,-12,63,-6
11970,19,-254,-16,-12,63,-5
11975,18,-254,-13,-11,61,-7
11980,20,-257,-15,-11,62,-6
11985,18,-253,-13,-12,60,-4
11990,17,-252,-14,-14,60,-2
11995,18,-254,-15,-15,60,-3
