timestamp,acc_x,acc_y,acc_z,gyro_x,gyro_y,gyro_z
0,19,-259,6,-38,10,-7
5,19,-256,0,-40,10,-7
10,21,-259,4,-41,11,-6
15,19,-258,2,-42,13,-6
20,18,-258,3,-45,15,-4
25,15,-256,7,-47,18,-4
30,17,-257,1,-47,19,-5
35,22,-256,6,-48,21,-5
40,20,-257,7,-46,20,-4
45,21,-256,1,-46,23,-3
50,20,-255,3,-45,21,-6
55,22,-258,2,-45,21,-5
60,16,-256,5,-46,18,-5
65,21,-259,3,-45,17,-5
70,22,-259,10,-45,15,-6
75,22,-255,0,-44,13,-5
80,21,-258,3,-44,14,-6
85,21,-260,4,-45,14,-6
90,19,-254,3,-43,13,-6
95,20,-260,2,-42,11,-5
100,20,-259,4,-43,12,-4
105,23,-257,1,-43,12,-4
110,20,-260,5,-43,13,-3
115,15,-257,-2,-44,15,-4
120,20,-257,4,-42,17,-5
125,18,-256,6,-43,18,-5
130,23,-258,4,-43,18,-5
135,20,-259,0,-42,20,-5
140,21,-258,7,-41,20,-6
145,22,-257,1,-44,20,-6
150,22,-258,2,-45,20,-5
155,20,-258,1,-46,19,-5
160,20,-257,1,-46,19,-7
165,21,-256,5,-47,19,-6
170,17,-257,4,-46,18,-6
175,18,-256,3,-43,16,-5
180,19,-256,2,-44,16,-4
185,20,-253,8,-43,17,-4
190,20,-256,2,-43,18,-3
195,19,-257,3,-43,18,-3
200,23,-256,4,-41,20,-1
205,21,-256,3,-42,18,-3
210,20,-260,0,-41,17,-2
215,17,-257,4,-38,18,-3
220,19,-257,3,-37,20,-1
225,19,-255,4,-39,21,-3
230,21,-256,1,-40,21,-4
235,21,-257,8,-40,21,-4
240,14,-255,3,-43,22,-4
245,19,-256,2,-46,22,-3
250,19,-255,7,-48,22,-4
255,14,-256,2,-51,20,-4
260,19,-257,7,-50,20,-3
265,21,-259,4,-51,19,-3
270,18,-256,3,-50,18,-2
275,19,-255,7,-48,17,-4
280,17,-257,1,-47,15,-2
285,18,-256,2,-46,15,-2
290,19,-258,6,-45,17,-3
295,22,-253,11,-45,15,-3
300,19,-258,4,-44,16,-4
305,21,-259,3,-43,17,-4
310,21,-256,3,-43,18,-4
315,20,-257,2,-42,18,-4
320,20,-256,1,-42,19,-5
325,22,-256,5,-43,19,-5
330,23,-257,4,-47,19,-5
335,18,-258,4,-49,19,-5
340,20,-257,10,-50,20,-5
345,18,-258,2,-53,21,-7
350,21,-259,7,-53,20,-7
355,18,-258,8,-52,18,-5
360,18,-257,4,-52,19,-4
365,21,-259,6,-50,20,-4
370,20,-260,4,-51,20,-3
375,21,-258,4,-49,19,-2
380,19,-258,6,-49,18,-3
385,21,-260,3,-48,18,-3
390,20,-257,4,-49,17,-4
395,21,-257,5,-47,17,-4
400,19,-257,7,-47,16,-3
405,18,-255,3,-47,17,-4
410,23,-258,1,-45,18,-3
415,19,-258,4,-44,18,-5
420,18,-257,3,-44,18,-5
425,20,-257,3,-45,20,-5
430,20,-257,2,-45,19,-7
435,21,-256,2,-45,20,-7
440,21,-259,2,-45,20,-6
445,20,-260,-2,-44,20,-5
450,17,-257,6,-45,20,-5
455,21,-256,7,-47,20,-5
460,17,-256,8,-47,19,-4
465,22,-256,3,-48,20,-5
470,20,-256,2,-50,19,-5
475,18,-257,4,-49,20,-4
480,20,-258,5,-48,19,-4
485,20,-256,2,-48,20,-3
490,19,-256,6,-49,20,-3
495,20,-255,6,-48,20,-2
500,23,-257,3,-50,20,-3
505,19,-256,3,-52,21,-2
510,20,-257,2,-54,23,-2
515,24,-254,9,-56,23,-2
520,19,-257,6,-56,23,-2
525,19,-257,5,-55,22,-3
530,17,-257,1,-57,21,-2
535,21,-257,3,-56,21,-2
540,19,-256,6,-57,20,-1
545,21,-257,7,-59,19,-2
550,21,-256,1,-60,17,-2
555,18,-256,1,-61,18,-2
560,24,-257,8,-60,18,-4
565,19,-250,1,-60,18,-3
570,23,-258,2,-58,19,-3
575,21,-257,0,-57,21,-5
580,21,-256,3,-55,22,-3
585,21,-259,2,-55,24,-4
590,20,-259,4,-53,24,-5
595,18,-260,3,-53,25,-6
600,17,-257,4,-54,25,-6
605,16,-256,1,-56,26,-7
610,19,-256,4,-57,25,-7
615,20,-259,6,-58,24,-7
620,20,-256,1,-59,25,-7
625,18,-256,5,-61,24,-7
630,18,-259,5,-60,22,-7
635,20,-257,4,-58,22,-6
640,18,-258,1,-57,22,-7
645,19,-257,3,-58,21,-6
650,19,-256,4,-56,21,-5
655,20,-256,0,-57,22,-5
660,21,-254,4,-59,22,-4
665,20,-257,2,-60,22,-4
670,15,-259,3,-61,23,-4
675,17,-255,1,-63,24,-3
680,21,-256,3,-66,25,-4
685,20,-256,1,-67,26,-4
690,19,-257,1,-68,25,-4
695,18,-257,1,-69,25,-4
700,18,-257,4,-69,25,-5
705,18,-257,1,-68,25,-3
710,22,-259,4,-67,26,-5
715,21,-257,4,-70,26,-5
720,22,-259,6,-70,25,-3
725,19,-258,4,-70,26,-3
730,21,-256,10,-71,26,-3
735,23,-259,2,-71,27,-4
740,19,-257,2,-71,27,-3
745,20,-259,2,-69,26,-2
750,22,-258,1,-68,26,-2
755,19,-255,2,-67,28,-2
760,18,-256,1,-67,26,-1
765,19,-255,2,-66,27,-2
770,21,-259,-1,-66,27,-2
775,19,-258,3,-69,27,-2
780,20,-257,2,-70,28,-3
785,16,-256,-7,-73,27,-5
790,18,-257,3,-74,28,-5
795,20,-257,2,-76,28,-5
800,19,-256,2,-76,28,-6
805,17,-259,3,-77,27,-6
810,20,-257,3,-76,29,-5
815,17,-256,2,-76,29,-6
820,20,-258,2,-76,29,-4
825,18,-258,5,-75,29,-4
830,18,-256,3,-75,28,-3
835,17,-257,3,-75,30,-2
840,17,-257,12,-77,30,-2
845,19,-258,0,-77,30,-3
850,18,-258,-1,-79,30,-2
855,18,-254,2,-79,33,-3
860,17,-257,0,-81,33,-3
865,18,-255,2,-80,34,-3
870,21,-258,0,-79,33,-4
875,18,-258,5,-79,33,-4
880,19,-260,0,-80,33,-4
885,20,-262,0,-77,33,-3
890,17,-263,3,-76,29,-4
895,16,-257,5,-76,29,-2
900,19,-258,1,-74,26,-1
905,19,-258,0,-69,24,-1
910,18,-258,1,-65,23,-1
915,18,-256,1,-61,23,-2
920,17,-257,0,-59,24,-1
925,21,-256,1,-57,25,-2
930,20,-258,2,-58,27,-3
935,18,-259,-2,-59,29,-4
940,18,-258,0,-61,30,-3
945,19,-256,1,-63,31,-3
950,20,-260,4,-67,32,-4
955,22,-257,-2,-71,31,-6
960,22,-257,2,-73,32,-7
965,22,-257,1,-76,32,-6
970,18,-258,3,-79,31,-7
975,19,-258,4,-79,30,-9
980,19,-259,0,-81,28,-9
985,16,-259,0,-81,26,-9
990,16,-261,6,-82,24,-9
995,16,-258,-1,-81,21,-8
1000,20,-258,2,-79,19,-6
1005,23,-263,1,-77,21,-4
1010,18,-259,3,-73,19,-3
1015,19,-258,1,-71,21,-3
1020,18,-258,-3,-71,22,-2
1025,18,-256,-1,-69,24,-1
1030,20,-258,1,-71,27,-1
1035,18,-255,-3,-72,27,-1
1040,20,-257,-2,-75,30,-1
1045,20,-258,2,-77,32,-3
1050,21,-258,1,-77,35,-2
1055,20,-258,2,-78,36,-5
1060,19,-259,0,-77,36,-5
1065,18,-260,1,-76,36,-6
1070,20,-259,1,-73,35,-8
1075,19,-260,0,-74,34,-6
1080,22,-257,-2,-75,31,-7
1085,19,-258,1,-72,30,-9
1090,23,-259,2,-72,28,-9
1095,20,-259,1,-70,28,-9
1100,23,-261,2,-70,27,-8
1105,16,-255,-3,-68,27,-8
1110,18,-256,3,-69,26,-7
1115,16,-258,1,-72,27,-7
1120,17,-256,-1,-70,26,-8
1125,18,-257,1,-70,28,-7
1130,20,-255,0,-73,28,-5
1135,17,-256,1,-72,29,-5
1140,20,-259,-3,-76,30,-6
1145,18,-256,2,-79,30,-7
1150,19,-259,0,-81,29,-7
1155,19,-259,-1,-82,30,-7
1160,18,-257,0,-84,29,-7
1165,22,-261,3,-84,30,-7
1170,19,-256,0,-84,28,-8
1175,19,-256,0,-86,27,-8
1180,19,-257,0,-86,26,-6
1185,17,-258,0,-86,24,-7
1190,20,-258,-2,-88,23,-7
1195,18,-257,1,-85,24,-5
1200,18,-260,-1,-86,23,-6
1205,21,-260,-3,-86,24,-4
1210,18,-257,-4,-83,26,-6
1215,20,-257,0,-83,26,-5
1220,18,-255,1,-78,28,-5
1225,20,-258,0,-77,29,-5
1230,22,-257,-1,-72,28,-5
1235,20,-258,-1,-70,29,-7
1240,15,-257,-6,-69,29,-6
1245,20,-260,-2,-69,27,-8
1250,20,-258,-2,-70,26,-8
1255,22,-257,-5,-70,25,-8
1260,21,-259,-3,-71,25,-8
1265,16,-260,-2,-68,24,-7
1270,17,-258,-2,-68,24,-6
1275,19,-263,-5,-64,22,-6
1280,20,-257,-1,-61,22,-5
1285,20,-259,0,-58,21,-6
1290,18,-258,-1,-55,22,-5
1295,19,-257,-7,-54,22,-6
1300,19,-258,-1,-53,23,-4
1305,20,-257,0,-53,22,-4
1310,16,-256,0,-54,23,-5
1315,19,-255,-1,-52,24,-5
1320,23,-259,-2,-51,26,-5
1325,19,-254,1,-50,25,-5
1330,17,-257,-5,-52,25,-6
1335,18,-256,-1,-53,25,-5
1340,20,-256,1,-52,23,-6
1345,19,-259,-1,-54,23,-4
1350,18,-257,-3,-56,20,-4
1355,19,-258,-5,-55,20,-3
1360,22,-262,-2,-56,19,-4
1365,20,-259,-1,-55,19,-4
1370,20,-257,2,-54,18,-5
1375,17,-258,-5,-51,18,-4
1380,20,-259,-1,-49,18,-4
1385,17,-255,0,-47,18,-5
1390,18,-260,0,-43,17,-6
1395,17,-256,0,-38,18,-4
1400,21,-257,1,-36,17,-5
1405,18,-259,-4,-37,17,-6
1410,20,-258,-1,-35,18,-4
1415,21,-258,0,-35,17,-3
1420,20,-258,-4,-36,16,-5
1425,17,-259,1,-37,16,-6
1430,15,-258,-3,-38,16,-5
1435,16,-261,-6,-39,16,-4
1440,22,-262,-2,-37,15,-4
1445,21,-260,-3,-39,15,-5
1450,18,-259,-4,-39,13,-4
1455,18,-256,0,-39,15,-4
1460,20,-258,-1,-39,15,-4
1465,19,-258,-5,-37,13,-4
1470,18,-260,0,-34,15,-4
1475,17,-256,-4,-33,16,-4
1480,19,-261,-3,-31,16,-4
1485,18,-257,-1,-33,16,-4
1490,17,-256,0,-36,15,-4
1495,16,-264,2,-37,16,-5
1500,20,-257,-1,-38,14,-6
1505,16,-257,-1,-40,14,-6
1510,15,-257,0,-41,13,-6
1515,16,-257,-2,-42,14,-5
1520,18,-258,-2,-40,12,-5
1525,16,-256,0,-37,12,-5
1530,18,-259,1,-35,12,-4
1535,16,-258,2,-33,14,-6
1540,18,-259,-4,-30,15,-5
1545,18,-262,0,-29,15,-5
1550,19,-267,0,-32,15,-6
1555,17,-258,-1,-32,13,-6
1560,18,-258,-3,-32,11,-5
1565,20,-259,0,-32,10,-4
1570,20,-257,-1,-32,9,-5
1575,21,-259,0,-33,9,-5
1580,18,-257,-2,-33,9,-5
1585,18,-257,-4,-35,9,-5
1590,16,-256,-4,-33,10,-6
1595,19,-256,-3,-32,11,-6
1600,15,-258,-12,-33,13,-7
1605,18,-259,0,-31,13,-9
1610,18,-257,0,-32,13,-9
1615,20,-261,-1,-32,15,-8
1620,18,-260,0,-31,14,-8
1625,17,-257,3,-31,15,-7
1630,16,-257,0,-32,14,-7
1635,22,-258,0,-33,13,-7
1640,16,-258,-3,-33,13,-7
1645,19,-262,-1,-32,13,-7
1650,17,-258,0,-30,13,-7
1655,18,-252,0,-30,12,-7
1660,16,-257,0,-30,11,-6
1665,17,-256,-1,-28,10,-7
1670,20,-262,0,-29,10,-6
1675,21,-260,-3,-30,9,-5
1680,16,-257,0,-31,11,-6
1685,18,-261,-1,-32,11,-6
1690,16,-257,-1,-33,10,-7
1695,20,-258,2,-34,12,-6
1700,20,-259,-1,-35,11,-6
1705,20,-259,-4,-35,12,-6
1710,18,-261,-2,-33,10,-8
1715,16,-257,2,-30,9,-7
1720,20,-258,1,-29,10,-8
1725,20,-259,0,-29,11,-9
1730,20,-257,-1,-30,10,-7
1735,21,-258,3,-30,9,-7
1740,18,-256,1,-29,9,-7
1745,19,-259,0,-28,8,-7
1750,19,-258,0,-29,10,-5
1755,14,-256,-1,-30,10,-5
1760,20,-256,-3,-29,10,-5
1765,19,-257,1,-29,10,-6
1770,19,-257,1,-30,11,-6
1775,17,-257,-1,-30,12,-6
1780,20,-258,-1,-30,12,-7
1785,20,-260,0,-33,12,-9
1790,20,-258,0,-32,13,-7
1795,21,-257,-2,-33,13,-7
1800,21,-256,1,-31,13,-8
1805,20,-259,-2,-30,13,-9
1810,22,-259,-1,-32,14,-9
1815,21,-258,0,-29,14,-9
1820,16,-260,1,-30,14,-11
1825,22,-258,0,-31,13,-11
1830,18,-257,0,-31,11,-11
1835,18,-260,0,-32,11,-11
1840,20,-256,-2,-32,10,-10
1845,20,-256,-3,-32,8,-8
1850,18,-255,-1,-31,8,-10
1855,20,-256,-3,-32,8,-7
1860,22,-258,0,-34,8,-8
1865,18,-258,-1,-35,9,-7
1870,23,-257,-1,-37,11,-9
1875,15,-257,2,-39,12,-8
1880,20,-261,-1,-42,13,-8
1885,21,-260,-4,-42,13,-8
1890,18,-261,0,-42,14,-9
1895,18,-259,0,-41,13,-7
1900,17,-258,0,-39,14,-8
1905,17,-258,1,-34,14,-9
1910,19,-260,2,-31,12,-9
1915,16,-254,-2,-29,13,-9
1920,17,-260,0,-25,13,-9
1925,20,-256,1,-25,13,-9
1930,16,-259,-3,-25,12,-7
1935,19,-256,-2,-25,12,-7
1940,19,-257,1,-28,14,-9
1945,18,-256,-1,-29,14,-6
1950,16,-255,-1,-33,14,-6
1955,22,-257,-2,-38,17,-8
1960,19,-258,1,-39,17,-9
1965,17,-257,-2,-40,18,-9
1970,20,-258,2,-41,18,-10
1975,17,-257,4,-41,17,-12
1980,19,-259,3,-43,17,-12
1985,24,-259,5,-41,16,-12
1990,21,-257,4,-41,14,-13
1995,20,-256,3,-41,13,-12
2000,19,-256,1,-40,12,-10
2005,20,-258,1,-38,11,-10
2010,20,-259,0,-38,11,-10
2015,23,-257,3,-36,10,-8
2020,21,-260,1,-34,8,-8
2025,16,-257,-2,-36,8,-8
2030,22,-258,1,-36,11,-8
2035,20,-256,3,-38,10,-10
2040,19,-260,0,-39,10,-8
2045,19,-257,1,-41,12,-8
2050,20,-259,0,-40,15,-9
2055,20,-258,1,-40,16,-11
2060,21,-260,0,-39,17,-10
2065,21,-257,2,-37,17,-8
2070,23,-260,3,-35,16,-7
2075,18,-257,0,-33,18,-8
2080,21,-257,-2,-36,18,-7
2085,23,-258,1,-37,17,-7
2090,18,-256,3,-38,18,-5
2095,20,-258,0,-40,19,-6
2100,21,-259,0,-41,17,-5
2105,19,-258,0,-44,17,-6
2110,19,-259,-1,-45,17,-6
2115,19,-258,1,-43,17,-7
2120,20,-258,2,-42,15,-7
2125,20,-257,-1,-41,16,-9
2130,19,-257,2,-39,16,-9
2135,20,-258,1,-38,15,-10
2140,21,-257,1,-38,15,-10
2145,25,-256,2,-37,15,-11
2150,20,-256,0,-38,12,-10
2155,17,-257,-1,-36,11,-11
2160,19,-256,0,-36,10,-10
2165,19,-259,1,-36,9,-10
2170,20,-258,0,-37,9,-9
2175,18,-257,1,-35,9,-10
2180,20,-255,0,-35,9,-9
2185,18,-260,2,-35,12,-10
2190,20,-256,1,-33,13,-9
2195,19,-259,3,-35,13,-8
2200,12,-260,-2,-35,15,-8
2205,20,-258,0,-38,17,-8
2210,19,-257,-1,-38,17,-7
2215,21,-259,0,-38,17,-7
2220,21,-261,0,-38,19,-7
2225,23,-259,-1,-35,17,-7
2230,19,-258,0,-35,18,-8
2235,18,-259,0,-34,15,-6
2240,19,-264,2,-34,16,-8
2245,21,-260,5,-31,16,-7
2250,20,-257,2,-31,15,-9
2255,24,-259,4,-34,14,-10
2260,21,-258,0,-34,13,-10
2265,16,-258,1,-35,13,-9
2270,20,-256,0,-36,11,-8
2275,22,-257,1,-37,11,-8
2280,19,-259,1,-35,10,-7
2285,18,-259,0,-33,12,-7
2290,20,-258,4,-32,11,-6
2295,21,-258,2,-32,11,-7
2300,20,-258,-1,-34,12,-5
2305,21,-259,0,-36,12,-5
2310,20,-256,-7,-35,11,-5
2315,18,-260,1,-37,10,-4
2320,20,-258,4,-39,10,-3
2325,19,-258,2,-40,11,-4
2330,20,-258,1,-41,11,-4
2335,23,-258,0,-42,11,-4
2340,23,-258,2,-43,13,-4
2345,24,-259,1,-43,13,-2
2350,18,-256,0,-40,14,-5
2355,23,-259,-2,-41,14,-4
2360,20,-256,-1,-39,15,-3
2365,26,-259,1,-37,16,-3
2370,21,-259,0,-38,17,-3
2375,18,-257,0,-37,16,-3
2380,20,-259,1,-38,17,-1
2385,22,-259,0,-40,17,-1
2390,23,-259,1,-42,18,-2
2395,20,-259,1,-41,17,-1
2400,20,-255,1,-39,18,-1
2405,18,-257,4,-39,17,-2
2410,22,-259,-1,-39,15,-2
2415,20,-259,3,-39,14,-1
2420,18,-256,0,-39,13,-2
2425,20,-258,0,-41,12,-3
2430,18,-257,1,-43,11,-3
2435,18,-257,1,-43,11,-3
2440,19,-259,2,-44,11,-2
2445,19,-256,2,-46,12,-2
2450,20,-259,0,-46,11,-4
2455,19,-256,2,-46,12,-2
2460,21,-258,1,-48,12,-3
2465,19,-254,1,-45,14,-1
2470,21,-260,1,-45,16,-1
2475,23,-257,3,-44,15,-2
2480,19,-257,0,-45,16,-2
2485,21,-259,0,-45,17,-2
2490,19,-257,0,-46,17,-2
2495,22,-258,5,-46,17,-3
2500,18,-258,1,-46,17,-4
2505,18,-257,1,-43,19,-4
2510,19,-257,1,-42,18,-4
2515,24,-260,2,-43,19,-2
2520,20,-259,3,-41,17,-2
2525,21,-259,1,-42,17,-2
2530,27,-255,-2,-45,16,-2
2535,20,-258,3,-45,15,-1
2540,20,-258,3,-44,15,-2
2545,23,-257,1,-43,15,-1
2550,18,-259,2,-43,16,-1
2555,22,-259,1,-43,16,-1
2560,17,-256,1,-43,16,1
2565,19,-258,1,-42,16,-1
2570,19,-259,2,-40,16,0
2575,21,-257,1,-40,16,-1
2580,21,-256,1,-40,17,-1
2585,18,-258,-8,-39,17,-1
2590,22,-258,0,-39,17,-1
2595,19,-255,0,-41,19,-1
2600,19,-259,1,-43,18,-1
2605,19,-257,2,-45,16,-2
2610,19,-258,1,-44,17,-2
2615,19,-256,-2,-46,19,-1
2620,16,-257,1,-45,20,-2
2625,23,-255,-2,-45,20,-3
2630,20,-257,2,-45,19,-2
2635,8,-255,4,-46,20,-3
2640,20,-260,0,-47,21,-3
2645,20,-259,0,-46,21,-2
2650,22,-260,1,-46,21,-1
2655,20,-256,2,-47,19,-1
2660,23,-259,1,-46,19,0
2665,18,-257,1,-46,18,-1
2670,19,-257,4,-46,18,-1
2675,19,-257,1,-46,18,-1
2680,20,-256,-2,-46,16,-1
2685,19,-257,0,-46,15,-1
2690,14,-259,2,-44,15,-1
2695,17,-258,0,-46,16,0
2700,20,-257,1,-44,16,2
2705,20,-258,1,-43,16,0
2710,19,-255,2,-43,17,-2
2715,20,-258,2,-42,18,-2
2720,18,-259,0,-42,19,-3
2725,19,-257,1,-43,18,-3
2730,18,-258,0,-43,17,-3
2735,19,-256,7,-44,17,-4
2740,21,-257,1,-45,16,-3
2745,17,-253,3,-46,17,-4
2750,18,-257,1,-46,16,-4
2755,21,-257,0,-47,17,-4
2760,18,-255,0,-48,18,-2
2765,18,-257,3,-48,16,-5
2770,18,-257,0,-46,16,-4
2775,18,-258,0,-44,15,-3
2780,22,-261,1,-43,16,-4
2785,22,-257,1,-42,17,-3
2790,19,-255,4,-43,17,-4
2795,20,-259,0,-43,18,-4
2800,25,-257,3,-45,19,-4
2805,19,-258,-1,-48,20,-3
2810,19,-258,-1,-48,20,-3
2815,20,-259,2,-50,20,-2
2820,19,-257,0,-50,20,-3
2825,20,-259,1,-49,19,-4
2830,20,-258,3,-48,19,-4
2835,22,-258,0,-48,19,-4
2840,17,-257,2,-48,16,-5
2845,19,-257,1,-48,16,-4
2850,23,-258,1,-49,13,-3
2855,21,-261,1,-49,13,-3
2860,23,-257,1,-49,12,-3
2865,21,-257,2,-48,13,-3
2870,20,-256,1,-46,12,-2
2875,20,-260,1,-45,15,-1
2880,20,-258,0,-42,15,-1
2885,20,-259,-3,-42,17,-1
2890,19,-257,2,-42,18,-1
2895,19,-254,1,-42,17,-2
2900,16,-256,1,-46,19,-4
2905,17,-259,1,-48,19,-3
2910,18,-262,0,-49,20,-3
2915,16,-258,0,-48,18,-4
2920,20,-258,3,-46,18,-5
2925,18,-259,-1,-44,18,-4
2930,20,-261,3,-40,16,-5
2935,20,-258,0,-38,16,-4
2940,18,-256,2,-38,15,-6
2945,17,-258,-4,-37,14,-4
2950,18,-255,0,-38,16,-5
2955,17,-255,2,-39,16,-4
2960,24,-256,-1,-44,16,-5
2965,18,-254,0,-44,16,-4
2970,23,-257,1,-47,18,-4
2975,19,-258,3,-47,18,-7
2980,18,-259,3,-49,18,-7
2985,17,-257,1,-50,21,-5
2990,20,-258,2,-52,21,-7
2995,20,-258,4,-56,20,-8
3000,18,-260,0,-58,19,-9
3005,18,-258,5,-59,18,-9
3010,21,-260,1,-60,16,-9
3015,18,-258,3,-58,15,-10
3020,17,-258,7,-57,15,-11
3025,21,-260,0,-54,15,-9
3030,20,-257,1,-51,15,-7
3035,22,-260,1,-47,15,-7
3040,21,-258,1,-46,16,-6
3045,17,-256,5,-47,17,-6
3050,21,-257,2,-47,16,-5
3055,20,-256,1,-47,18,-5
3060,24,-259,-1,-50,18,-6
3065,21,-256,0,-51,18,-5
3070,20,-257,2,-53,21,-4
3075,19,-258,2,-51,21,-5
3080,20,-257,0,-51,22,-6
3085,21,-256,2,-51,24,-7
3090,18,-259,1,-51,24,-6
3095,19,-257,-1,-53,23,-8
3100,20,-259,2,-53,22,-8
3105,15,-256,3,-53,21,-6
3110,21,-260,1,-55,19,-7
3115,17,-260,4,-55,18,-7
3120,18,-259,4,-54,18,-5
3125,15,-258,0,-54,18,-6
3130,18,-258,1,-55,19,-6
3135,20,-257,0,-55,18,-5
3140,20,-259,3,-57,19,-5
3145,20,-258,2,-56,21,-4
3150,17,-257,-2,-56,22,-4
3155,22,-259,-1,-56,22,-3
3160,21,-260,2,-56,23,-4
3165,23,-258,-2,-57,25,-5
3170,21,-257,-3,-56,25,-5
3175,16,-259,-4,-54,25,-6
3180,21,-255,6,-53,24,-6
3185,22,-259,1,-52,26,-7
3190,20,-257,0,-55,25,-7
3195,23,-258,1,-57,26,-9
3200,22,-258,2,-63,27,-10
3205,19,-257,0,-66,25,-10
3210,21,-257,-2,-73,25,-10
3215,21,-257,2,-76,24,-10
3220,20,-258,0,-80,22,-9
3225,25,-259,3,-83,21,-8
3230,21,-259,1,-84,21,-8
3235,12,-253,6,-83,21,-7
3240,21,-256,3,-84,21,-7
3245,20,-255,-2,-86,22,-5
3250,21,-258,0,-85,23,-5
3255,20,-260,1,-85,23,-4
3260,21,-256,-1,-86,24,-5
3265,19,-259,0,-84,25,-5
3270,17,-257,-1,-84,26,-7
3275,20,-256,0,-88,24,-8
3280,16,-255,0,-92,25,-9
3285,20,-256,-2,-99,24,-10
3290,24,-257,1,-108,23,-11
3295,18,-258,-1,-121,20,-12
3300,21,-260,-3,-135,20,-15
3305,20,-264,0,-150,18,-20
3310,25,-266,-1,-166,19,-29
3315,23,-266,-1,-189,21,-40
3320,25,-266,-2,-219,23,-56
3325,22,-265,-2,-257,28,-75
3330,24,-268,3,-306,31,-95
3335,25,-268,0,-361,33,-118
3340,28,-272,4,-416,30,-144
3345,21,-270,8,-470,26,-169
3350,24,-274,3,-516,17,-193
3355,24,-278,1,-552,10,-218
3360,22,-273,2,-578,4,-244
3365,20,-269,-6,-599,-4,-270
3370,19,-265,-5,-614,-15,-294
3375,16,-256,-10,-619,-28,-312
3380,14,-250,-16,-615,-43,-320
3385,11,-244,-21,-602,-55,-321
3390,8,-235,-27,-588,-62,-312
3395,7,-225,-30,-576,-58,-296
3400,10,-214,-24,-570,-49,-275
3405,13,-214,-37,-573,-36,-255
3410,17,-211,-34,-583,-21,-237
3415,18,-213,-35,-601,-10,-222
3420,23,-219,-27,-619,-8,-207
3425,23,-225,-22,-631,-8,-192
3430,29,-236,-21,-635,-11,-177
3435,31,-244,-16,-624,-12,-167
3440,32,-256,-7,-597,-12,-155
3445,31,-259,-7,-560,-8,-143
3450,30,-263,0,-522,2,-131
3455,33,-266,0,-493,21,-121
3460,31,-265,-1,-476,45,-115
3465,29,-267,-2,-471,70,-113
3470,26,-264,-3,-478,91,-113
3475,26,-258,0,-489,104,-116
3480,28,-256,3,-496,112,-114
3485,24,-250,1,-500,116,-111
3490,25,-246,5,-498,121,-106
3495,25,-236,0,-495,130,-105
3500,26,-231,1,-491,145,-108
3505,25,-226,-1,-488,161,-115
3510,23,-227,-7,-489,177,-124
3515,26,-227,-4,-493,187,-131
3520,25,-233,-1,-499,195,-140
3525,25,-233,-1,-513,201,-147
3530,25,-237,-4,-530,205,-154
3535,27,-240,2,-549,207,-159
3540,28,-248,1,-566,200,-164
3545,29,-249,3,-583,189,-170
3550,30,-251,4,-595,170,-170
3555,34,-258,3,-604,151,-167
3560,28,-256,2,-611,136,-159
3565,31,-260,-1,-612,123,-148
3570,31,-259,1,-615,113,-133
3575,31,-257,-1,-613,102,-118
3580,31,-256,-6,-613,82,-102
3585,28,-256,-11,-604,53,-88
3590,29,-247,-17,-591,18,-71
3595,31,-239,-23,-578,-15,-55
3600,32,-233,-23,-573,-39,-39
3605,31,-226,-30,-568,-57,-27
3610,26,-222,-26,-564,-69,-17
3615,24,-224,-29,-551,-82,-7
3620,22,-222,-32,-531,-98,3
3625,18,-221,-32,-507,-117,17
3630,14,-222,-35,-478,-134,34
3635,14,-216,-33,-453,-151,53
3640,16,-211,-33,-443,-165,77
3645,20,-206,-39,-452,-172,98
3650,27,-210,-31,-486,-169,117
3655,27,-214,-34,-537,-158,131
3660,36,-220,-28,-594,-143,142
3665,43,-231,-19,-657,-127,150
3670,53,-232,-22,-722,-112,156
3675,63,-250,-8,-790,-95,155
3680,70,-257,-3,-859,-77,151
3685,79,-267,10,-928,-59,138
3690,89,-282,14,-997,-42,118
3695,89,-297,13,-1066,-26,79
3700,74,-313,11,-1141,-3,17
3705,58,-321,0,-1221,22,-44
3710,42,-337,-24,-1299,45,-103
3715,13,-339,-43,-1377,60,-156
3720,-15,-338,-58,-1416,55,-186
3725,-29,-329,-78,-1406,29,-189
3730,-27,-317,-115,-1353,-13,-164
3735,-11,-296,-142,-1286,-52,-123
3740,1,-276,-167,-1244,-81,-80
3745,6,-270,-175,-1252,-106,-41
3750,9,-273,-167,-1305,-144,-2
3755,8,-291,-149,-1385,-200,31
3760,8,-310,-131,-1460,-267,60
3765,21,-334,-117,-1503,-327,81
3770,39,-361,-102,-1496,-358,90
3775,51,-385,-103,-1425,-351,85
3780,61,-405,-99,-1301,-321,66
3785,66,-420,-108,-1151,-280,36
3790,62,-431,-108,-996,-243,8
3795,59,-437,-113,-837,-208,-11
3800,60,-438,-118,-678,-166,-14
3805,58,-436,-126,-531,-116,-4
3810,60,-421,-138,-421,-63,15
3815,61,-418,-147,-363,-22,34
3820,55,-405,-165,-358,-3,56
3825,49,-395,-182,-401,-7,73
3830,41,-388,-179,-475,-30,86
3835,34,-382,-186,-543,-54,99
3840,25,-372,-177,-580,-71,107
3845,23,-361,-162,-569,-77,107
3850,17,-349,-144,-516,-73,101
3855,16,-341,-138,-439,-71,93
3860,19,-333,-125,-372,-82,80
3865,25,-328,-128,-337,-107,65
3870,27,-316,-129,-345,-134,47
3875,26,-314,-130,-386,-157,31
3880,25,-309,-137,-446,-178,16
3885,23,-311,-142,-509,-203,-2
3890,20,-316,-147,-562,-229,-18
3895,16,-315,-152,-599,-253,-23
3900,16,-322,-150,-612,-278,-30
3905,11,-320,-151,-593,-300,-33
3910,20,-326,-151,-552,-314,-27
3915,21,-328,-157,-497,-320,-17
3920,24,-333,-155,-446,-317,-8
3925,22,-331,-153,-408,-308,9
3930,16,-334,-156,-393,-296,33
3935,24,-336,-162,-405,-287,53
3940,24,-334,-160,-444,-287,63
3945,28,-327,-159,-499,-293,80
3950,29,-328,-162,-564,-300,90
3955,32,-323,-165,-637,-309,96
3960,38,-320,-163,-713,-315,104
3965,31,-311,-163,-790,-314,107
3970,29,-305,-164,-859,-312,100
3975,26,-295,-162,-923,-307,95
3980,35,-291,-163,-977,-291,103
3985,40,-274,-164,-1027,-278,92
3990,31,-273,-153,-1071,-258,58
3995,35,-253,-151,-1111,-231,34
4000,33,-245,-149,-1142,-204,28
4005,36,-237,-149,-1161,-186,12
4010,40,-231,-144,-1169,-171,-12
4015,36,-226,-141,-1164,-157,-27
4020,31,-214,-140,-1142,-144,-46
4025,38,-212,-138,-1108,-140,-47
4030,35,-208,-139,-1061,-136,-44
4035,31,-205,-139,-1009,-129,-46
4040,23,-202,-140,-957,-126,-42
4045,21,-193,-134,-913,-125,-18
4050,10,-190,-131,-881,-132,9
4055,25,-183,-129,-863,-144,36
4060,26,-174,-129,-856,-153,41
4065,24,-169,-127,-860,-156,33
4070,21,-163,-123,-866,-153,33
4075,31,-155,-120,-865,-146,51
4080,34,-151,-118,-857,-145,58
4085,37,-145,-118,-839,-141,53
4090,34,-138,-112,-811,-132,42
4095,31,-127,-115,-765,-118,42
4100,31,-125,-113,-704,-105,44
4105,35,-120,-105,-641,-95,42
4110,44,-114,-108,-579,-90,33
4115,65,-107,-114,-522,-82,11
4120,44,-105,-118,-487,-64,-40
4125,-10,-93,-103,-467,-28,-92
4130,-2,-83,-99,-423,-33,-71
4135,15,-81,-105,-356,-65,-17
4140,24,-78,-112,-286,-85,28
4145,36,-80,-118,-237,-86,59
4150,40,-74,-127,-210,-71,55
4155,36,-69,-133,-191,-47,22
4160,30,-71,-136,-178,-16,-6
4165,28,-72,-138,-172,19,-24
4170,28,-73,-147,-174,44,-30
4175,25,-72,-147,-178,62,-27
4180,24,-80,-149,-182,73,-25
4185,20,-80,-152,-193,77,-19
4190,23,-83,-157,-207,77,-7
4195,25,-89,-152,-221,72,13
4200,23,-92,-157,-222,68,30
4205,26,-102,-151,-216,64,43
4210,25,-102,-154,-202,61,53
4215,27,-107,-153,-180,60,69
4220,26,-112,-147,-158,58,80
4225,31,-112,-144,-135,61,84
4230,32,-115,-145,-108,69,85
4235,33,-113,-140,-74,85,85
4240,35,-113,-136,-36,108,81
4245,33,-109,-138,9,136,71
4250,31,-103,-136,58,169,58
4255,30,-97,-136,105,206,41
4260,36,-92,-145,141,238,24
4265,28,-88,-139,168,266,6
4270,27,-82,-138,183,286,-10
4275,19,-76,-141,191,295,-27
4280,17,-78,-143,190,294,-44
4285,15,-79,-143,187,281,-55
4290,12,-85,-145,189,258,-59
4295,13,-91,-146,188,229,-59
4300,16,-94,-143,190,198,-55
4305,14,-102,-146,190,171,-50
4310,11,-109,-139,194,152,-37
4315,9,-119,-145,209,138,-24
4320,15,-125,-143,225,128,-24
4325,11,-129,-142,245,124,-26
4330,6,-134,-144,274,124,-24
4335,14,-142,-142,309,127,-23
4340,15,-143,-146,342,137,-31
4345,16,-141,-151,366,149,-40
4350,15,-141,-154,382,164,-49
4355,12,-142,-153,394,177,-60
4360,15,-144,-153,401,187,-72
4365,17,-149,-156,410,190,-84
4370,21,-154,-151,424,188,-96
4375,21,-161,-154,445,182,-106
4380,20,-163,-151,468,177,-117
4385,25,-168,-148,492,172,-128
4390,28,-172,-147,516,175,-140
4395,28,-187,-144,553,182,-148
4400,30,-195,-145,613,197,-151
4405,31,-207,-136,704,212,-156
4410,34,-223,-133,828,228,-152
4415,35,-238,-134,983,244,-138
4420,38,-253,-137,1145,262,-124
4425,37,-263,-145,1294,283,-113
4430,23,-270,-149,1422,312,-92
4435,9,-270,-145,1528,340,-35
4440,47,-283,-170,1592,359,14
4445,30,-283,-172,1562,394,-25
4450,13,-275,-175,1453,420,-68
4455,5,-270,-179,1286,431,-67
4460,9,-270,-178,1074,425,-53
4465,4,-274,-166,839,400,-47
4470,15,-285,-172,612,359,-49
4475,5,-291,-175,415,305,-60
4480,18,-299,-167,262,250,-58
4485,13,-303,-164,155,200,-50
4490,7,-305,-159,98,161,-41
4495,14,-308,-157,86,140,-34
4500,13,-308,-156,120,129,-41
4505,18,-305,-152,185,132,-48
4510,29,-303,-146,269,150,-41
4515,26,-301,-144,353,167,-37
4520,26,-306,-146,432,174,-26
4525,39,-310,-151,495,160,-1
4530,38,-310,-160,511,118,9
4535,36,-313,-163,471,74,19
4540,45,-316,-174,381,30,16
4545,49,-321,-178,249,4,-8
4550,37,-326,-181,105,12,-37
4555,21,-327,-181,-26,42,-43
4560,21,-336,-174,-99,70,-34
4565,30,-345,-168,-95,88,-22
4570,29,-350,-160,-52,89,-32
4575,39,-359,-151,27,74,-46
4580,39,-355,-155,125,55,-60
4585,45,-352,-156,220,44,-76
4590,40,-336,-161,301,47,-86
4595,42,-319,-163,369,58,-90
4600,43,-303,-152,438,66,-82
4605,42,-293,-139,529,73,-69
4610,40,-280,-125,620,72,-59
4615,32,-275,-118,727,73,-45
4620,35,-274,-110,836,70,-34
4625,29,-273,-105,925,64,-21
4630,42,-278,-93,998,73,-4
4635,61,-290,-67,1049,96,12
4640,45,-315,-32,1101,142,-5
4645,28,-338,-46,1201,185,-55
4650,-1,-368,-81,1273,186,-55
4655,58,-386,-104,1282,155,-21
4660,130,-404,-144,1250,141,-2
4665,67,-435,-143,1254,281,18
4670,69,-487,-183,1332,474,109
4675,54,-533,-295,1327,522,177
4680,-29,-523,-442,1071,366,180
4685,-117,-493,-426,622,114,245
4690,-144,-486,-242,493,-82,293
4695,-85,-536,-141,902,-137,263
4700,-60,-590,-149,1237,-130,240
4705,-82,-601,-147,1115,-232,280
4710,-64,-588,-104,824,-465,365
4715,-20,-570,-61,708,-721,467
4720,26,-523,-25,862,-878,507
4725,69,-453,-38,1199,-895,470
4730,98,-353,-47,1543,-803,377
4735,124,-214,-61,1764,-644,241
4740,137,-63,-74,1796,-480,79
4745,133,65,-96,1645,-354,-51
4750,107,143,-123,1364,-298,-116
4755,83,154,-143,978,-311,-127
4760,50,119,-151,501,-369,-121
4765,20,57,-125,-4,-445,-110
4770,5,-33,-83,-419,-513,-75
4775,5,-126,-42,-635,-544,-46
4780,14,-206,1,-621,-540,-47
4785,27,-278,26,-404,-503,-68
4790,43,-332,45,-36,-454,-88
4795,52,-368,40,415,-399,-98
4800,61,-373,42,852,-347,-95
4805,59,-365,35,1218,-287,-84
4810,51,-339,25,1481,-217,-82
4815,40,-318,17,1631,-146,-77
4820,25,-308,4,1673,-79,-67
4825,12,-309,-2,1633,-28,-56
4830,1,-317,-8,1539,3,-44
4835,2,-330,-2,1398,14,-18
4840,0,-324,15,1231,11,19
4845,6,-317,21,1062,-1,50
4850,21,-295,24,888,-12,60
4855,24,-259,43,708,-22,30
4860,26,-229,54,547,-37,-4
4865,33,-205,64,437,-53,-15
4870,51,-188,67,378,-76,-23
4875,59,-179,66,372,-97,-50
4880,61,-177,57,412,-108,-73
4885,61,-178,48,505,-105,-92
4890,61,-193,37,634,-96,-103
4895,60,-202,29,787,-82,-107
4900,56,-211,17,940,-66,-99
4905,59,-222,12,1070,-50,-80
4910,46,-224,3,1168,-27,-60
4915,41,-232,0,1210,1,-44
4920,38,-240,-4,1186,21,-35
4925,36,-245,-6,1115,34,-27
4930,30,-255,-3,1020,40,-22
4935,24,-265,-2,919,42,-18
4940,18,-283,1,832,47,-18
4945,11,-293,3,771,50,-18
4950,7,-301,2,725,52,-20
4955,9,-306,5,693,47,-27
4960,1,-305,-1,662,43,-35
4965,5,-305,1,627,40,-46
4970,3,-297,-7,573,33,-59
4975,2,-290,-9,509,15,-69
4980,8,-283,-14,450,-3,-72
4985,15,-273,-18,401,-20,-79
4990,21,-262,-15,365,-31,-90
4995,28,-247,-22,330,-35,-95
5000,34,-234,-22,300,-30,-98
5005,40,-222,-19,280,-18,-93
5010,41,-211,-20,265,-5,-89
5015,41,-202,-18,263,10,-86
5020,46,-195,-20,273,22,-79
5025,45,-194,-18,289,33,-71
5030,50,-197,-17,314,37,-61
5035,47,-197,-15,342,41,-51
5040,46,-199,-14,365,44,-39
5045,44,-205,-9,373,54,-29
5050,41,-211,-9,366,72,-23
5055,39,-216,-8,339,97,-20
5060,38,-224,-3,300,123,-18
5065,24,-228,7,252,147,-19
5070,34,-240,3,207,165,-20
5075,32,-246,7,168,178,-23
5080,34,-253,9,141,185,-24
5085,37,-259,16,131,190,-27
5090,40,-264,17,130,192,-28
5095,40,-266,21,140,191,-30
5100,40,-265,19,153,192,-30
5105,38,-265,21,167,197,-30
5110,40,-259,16,174,204,-31
5115,42,-254,18,171,213,-33
5120,36,-247,12,156,222,-36
5125,38,-243,12,131,229,-41
5130,34,-239,15,101,231,-42
5135,33,-239,15,71,227,-40
5140,32,-236,14,44,223,-35
5145,31,-235,19,24,214,-31
5150,33,-238,15,14,205,-24
5155,30,-238,9,9,190,-16
5160,29,-236,14,10,175,-5
5165,32,-241,9,10,164,6
5170,31,-243,9,9,156,15
5175,36,-240,6,4,150,23
5180,32,-243,2,-3,146,28
5185,32,-243,0,-12,137,29
5190,32,-248,-2,-24,130,29
5195,31,-249,-2,-38,124,26
5200,30,-250,-7,-54,124,20
5205,32,-249,-4,-73,129,11
5210,25,-247,-9,-99,134,1
5215,29,-249,-3,-125,141,-9
5220,33,-250,-1,-156,146,-19
5225,26,-244,0,-184,152,-28
5230,30,-254,2,-210,153,-35
5235,26,-253,1,-229,154,-40
5240,27,-256,6,-244,152,-42
5245,26,-259,10,-258,148,-42
5250,21,-258,11,-266,142,-43
5255,20,-258,10,-271,134,-42
5260,15,-257,11,-262,124,-34
5265,14,-255,15,-243,114,-27
5270,13,-255,10,-223,107,-21
5275,12,-255,9,-205,103,-15
5280,9,-250,5,-194,102,-10
5285,7,-251,7,-185,103,-5
5290,6,-250,0,-180,107,1
5295,9,-252,-4,-183,111,5
5300,15,-252,1,-190,114,9
5305,14,-251,-5,-200,117,13
5310,15,-250,0,-215,116,16
5315,16,-254,0,-227,113,17
5320,23,-255,0,-237,108,22
5325,29,-256,-2,-242,103,27
5330,30,-256,-2,-243,101,31
5335,29,-257,-1,-237,101,35
5340,36,-262,2,-226,102,38
5345,33,-261,3,-205,106,40
5350,36,-259,0,-181,111,42
5355,39,-262,0,-150,120,42
5360,40,-261,1,-120,131,41
5365,41,-261,4,-92,143,38
5370,41,-262,-1,-74,155,34
5375,39,-260,-4,-60,169,29
5380,42,-261,-5,-57,181,22
5385,41,-261,-4,-53,188,15
5390,37,-261,-5,-52,192,7
5395,43,-257,7,-48,191,-2
5400,36,-260,4,-44,186,-9
5405,36,-258,2,-37,178,-17
5410,34,-260,3,-30,166,-20
5415,31,-260,1,-30,151,-23
5420,29,-259,0,-33,135,-24
5425,26,-257,-2,-40,121,-24
5430,24,-257,1,-49,104,-26
5435,24,-258,-2,-62,91,-26
5440,24,-258,1,-75,80,-24
5445,19,-257,3,-89,69,-24
5450,22,-256,-2,-101,62,-25
5455,23,-258,-2,-112,57,-23
5460,22,-257,-1,-124,54,-21
5465,20,-258,-4,-135,54,-22
5470,19,-260,-4,-150,54,-21
5475,18,-261,0,-165,54,-20
5480,14,-262,-4,-183,51,-20
5485,16,-261,-6,-202,48,-19
5490,18,-262,-7,-217,46,-20
5495,17,-266,-8,-230,45,-19
5500,14,-265,-5,-239,45,-21
5505,19,-262,-6,-246,42,-19
5510,20,-264,-10,-246,42,-21
5515,20,-261,-9,-245,41,-21
5520,23,-261,-8,-242,40,-22
5525,22,-263,-13,-237,41,-21
5530,22,-263,-12,-232,43,-20
5535,25,-264,-19,-224,43,-19
5540,25,-263,-14,-218,47,-18
5545,29,-265,-17,-210,50,-18
5550,26,-261,-17,-199,50,-16
5555,25,-267,-23,-188,52,-16
5560,29,-260,-15,-173,52,-17
5565,31,-263,-12,-156,52,-16
5570,31,-268,-15,-138,51,-17
5575,31,-261,-10,-118,51,-16
5580,31,-263,-15,-98,52,-18
5585,32,-260,-14,-78,54,-17
5590,30,-260,-12,-59,57,-15
5595,29,-260,-12,-44,59,-13
5600,27,-256,-14,-32,64,-10
5605,30,-257,-8,-24,68,-7
5610,31,-259,-15,-21,71,-5
5615,30,-257,-11,-23,72,-1
5620,34,-256,-7,-25,70,-1
5625,30,-257,-8,-29,67,1
5630,29,-257,-4,-33,63,-2
5635,28,-260,-7,-35,58,-5
5640,28,-258,-1,-36,54,-8
5645,26,-257,-8,-37,49,-12
5650,27,-259,0,-40,47,-15
5655,25,-259,-6,-43,44,-16
5660,26,-262,-7,-51,44,-17
5665,26,-260,-7,-56,43,-19
5670,21,-261,-8,-61,43,-18
5675,22,-261,-7,-62,43,-17
5680,24,-263,-13,-64,44,-14
5685,23,-262,-11,-60,45,-13
5690,23,-262,-11,-59,48,-11
5695,21,-262,-12,-61,48,-9
5700,23,-263,-12,-61,45,-9
5705,22,-263,-9,-65,40,-9
5710,21,-262,-9,-69,33,-9
5715,13,-262,-13,-69,25,-9
5720,23,-265,-9,-67,15,-7
5725,27,-265,-9,-60,6,-6
5730,25,-264,-7,-51,-1,-4
5735,25,-263,-6,-43,-9,-1
5740,27,-261,-6,-35,-17,1
5745,27,-262,-10,-30,-25,3
5750,27,-261,-9,-31,-31,6
5755,29,-261,-7,-36,-37,7
5760,28,-255,-5,-47,-42,8
5765,30,-257,-6,-58,-46,7
5770,29,-254,-6,-67,-50,6
5775,31,-257,-3,-74,-50,3
5780,33,-256,-10,-80,-51,-1
5785,35,-257,-4,-83,-50,-4
5790,35,-257,-4,-85,-49,-5
5795,36,-255,-8,-86,-46,-4
5800,41,-256,-6,-90,-40,-6
5805,39,-257,-9,-93,-31,-6
5810,35,-257,-9,-98,-22,-6
5815,38,-259,-11,-102,-13,-7
5820,39,-261,-12,-103,-6,-8
5825,36,-266,-11,-100,0,-9
5830,37,-267,-15,-96,4,-9
5835,37,-269,-18,-87,7,-9
5840,39,-270,-18,-75,8,-5
5845,36,-270,-16,-58,6,-1
5850,35,-269,-17,-41,3,3
5855,33,-273,-16,-25,0,10
5860,36,-273,-18,-15,-1,15
5865,36,-276,-17,-8,-3,18
5870,31,-274,-19,-5,-7,21
5875,35,-274,-20,-4,-12,23
5880,27,-274,-22,-2,-18,23
5885,29,-273,-19,-1,-23,23
5890,31,-273,-18,-1,-29,23
5895,28,-270,-18,2,-32,19
5900,26,-270,-23,4,-34,17
5905,26,-270,-20,8,-35,17
5910,29,-269,-17,12,-37,15
5915,27,-266,-15,21,-37,13
5920,27,-262,-17,29,-35,12
5925,26,-261,-17,37,-32,11
5930,24,-264,-25,45,-28,11
5935,25,-259,-19,51,-25,10
5940,27,-258,-18,56,-23,12
5945,25,-256,-21,59,-21,14
5950,26,-255,-18,59,-19,15
5955,29,-256,-19,59,-16,18
5960,30,-258,-23,59,-11,20
5965,32,-257,-20,58,-5,21
5970,31,-253,-19,57,1,22
5975,31,-259,-21,56,9,23
5980,32,-255,-20,56,15,21
5985,31,-257,-26,55,21,18
5990,35,-256,-22,54,29,15
5995,34,-259,-19,55,37,9
6000,33,-260,-17,56,42,6
6005,34,-261,-18,58,46,3
6010,31,-259,-20,62,48,2
6015,30,-260,-19,65,48,1
6020,28,-259,-20,71,50,1
6025,29,-262,-13,75,49,1
6030,33,-259,-10,81,49,1
6035,31,-256,-9,82,46,2
6040,32,-266,-9,81,44,6
6045,30,-260,-11,79,42,8
6050,31,-259,-9,77,39,10
6055,32,-260,-8,75,36,12
6060,33,-258,-4,76,33,15
6065,32,-258,-8,75,31,17
6070,32,-259,-3,78,29,19
6075,31,-260,-1,76,27,18
6080,31,-261,-4,74,26,18
6085,29,-256,-1,74,24,16
6090,30,-256,-1,71,23,16
6095,29,-253,0,66,20,15
6100,28,-253,2,62,21,13
6105,29,-255,-3,57,25,11
6110,29,-256,1,56,28,9
6115,28,-256,3,54,30,8
6120,27,-259,1,54,32,8
6125,26,-258,2,57,33,6
6130,27,-259,0,57,33,7
6135,29,-258,2,60,31,10
6140,23,-260,-2,63,28,12
6145,24,-264,0,65,25,15
6150,21,-264,-4,68,21,17
6155,22,-262,1,65,17,20
6160,22,-265,0,64,13,21
6165,19,-263,1,64,9,24
6170,22,-263,1,64,7,26
6175,20,-262,2,66,5,26
6180,20,-265,3,70,5,28
6185,23,-263,1,76,4,29
6190,22,-260,5,81,6,28
6195,22,-259,-1,86,7,26
6200,27,-258,10,94,11,26
6205,25,-261,0,99,17,25
6210,23,-262,3,104,19,22
6215,25,-262,1,108,22,22
6220,24,-261,4,111,23,21
6225,24,-263,2,113,24,20
6230,23,-263,2,115,24,19
6235,24,-261,4,118,26,20
6240,23,-261,2,122,25,20
6245,22,-261,0,127,26,22
6250,25,-262,2,133,24,21
6255,25,-261,-1,142,21,24
6260,26,-260,1,146,19,25
6265,24,-258,0,149,16,26
6270,23,-255,0,150,14,29
6275,26,-257,1,149,10,30
6280,23,-255,-2,144,8,33
6285,24,-257,-1,140,6,33
6290,24,-254,1,132,3,33
6295,26,-254,2,127,1,32
6300,25,-255,3,124,-2,32
6305,27,-255,4,120,-4,29
6310,24,-254,3,117,-6,29
6315,26,-253,5,115,-7,26
6320,25,-255,0,112,-9,24
6325,25,-255,2,109,-10,21
6330,24,-256,6,105,-8,19
6335,24,-256,4,102,-8,15
6340,23,-256,5,101,-5,14
6345,24,-257,8,97,0,11
6350,24,-257,8,96,4,8
6355,22,-258,5,94,7,7
6360,28,-259,11,89,9,6
6365,22,-257,10,82,10,5
6370,24,-256,8,73,10,5
6375,25,-254,6,66,7,4
6380,23,-254,7,59,6,4
6385,26,-253,7,53,5,3
6390,23,-256,7,54,4,4
6395,23,-252,9,55,3,4
6400,23,-254,5,58,3,6
6405,22,-255,12,61,4,6
6410,26,-255,9,64,6,6
6415,22,-253,8,68,8,7
6420,26,-261,6,69,8,7
6425,22,-255,10,69,10,7
6430,21,-256,9,68,11,4
6435,23,-255,14,62,11,3
6440,20,-254,12,57,13,2
6445,23,-255,9,52,15,-1
6450,21,-255,10,48,16,-2
6455,21,-256,14,41,18,-5
6460,23,-256,10,35,20,-3
6465,25,-255,11,30,20,-3
6470,22,-257,10,25,21,-4
6475,26,-249,13,21,19,-4
6480,24,-254,12,17,19,-5
6485,28,-256,12,14,16,-4
6490,25,-256,15,11,16,-6
6495,29,-255,13,11,15,-6
6500,27,-254,14,9,14,-5
6505,27,-255,14,5,15,-6
6510,29,-254,17,1,15,-8
6515,26,-254,14,-2,16,-9
6520,25,-252,19,-4,19,-9
6525,26,-257,12,-4,22,-13
6530,30,-262,16,-2,22,-14
6535,20,-253,11,1,24,-15
6540,23,-255,14,5,25,-16
6545,24,-255,13,9,26,-17
6550,27,-254,14,8,25,-15
6555,25,-255,10,5,23,-15
6560,24,-255,11,1,24,-11
6565,23,-254,13,-2,21,-10
6570,25,-258,13,-6,19,-8
6575,22,-257,14,-9,18,-6
6580,22,-255,20,-13,19,-5
6585,25,-253,16,-15,17,-5
6590,24,-256,14,-15,19,-3
6595,25,-256,14,-15,18,-4
6600,27,-256,14,-17,18,-4
6605,27,-255,12,-20,19,-4
6610,24,-256,10,-23,18,-5
6615,26,-252,16,-26,21,-7
6620,25,-255,12,-31,23,-9
6625,24,-255,14,-37,26,-13
6630,25,-253,17,-42,27,-14
6635,21,-256,21,-45,29,-17
6640,24,-254,17,-49,29,-18
6645,24,-255,13,-51,28,-19
6650,24,-255,14,-52,26,-18
6655,23,-254,15,-51,27,-17
6660,24,-254,14,-50,26,-17
6665,26,-255,14,-50,26,-17
6670,24,-254,13,-51,24,-15
6675,25,-256,13,-51,27,-13
6680,24,-253,9,-53,27,-12
6685,27,-253,17,-53,26,-11
6690,25,-256,7,-54,23,-9
6695,25,-256,10,-57,24,-8
6700,26,-255,12,-61,25,-6
6705,24,-255,13,-63,25,-5
6710,22,-255,15,-64,24,-6
6715,26,-254,12,-64,24,-4
6720,25,-253,13,-67,24,-4
6725,25,-256,13,-67,23,-5
6730,25,-255,12,-69,22,-6
6735,26,-255,16,-69,22,-6
6740,24,-257,13,-70,18,-5
6745,27,-261,12,-67,17,-5
6750,25,-257,13,-66,16,-6
6755,26,-256,8,-61,16,-6
6760,27,-256,12,-56,17,-6
6765,24,-257,15,-53,19,-6
6770,24,-254,7,-50,19,-4
6775,26,-254,10,-48,21,-5
6780,23,-254,11,-49,23,-4
6785,26,-253,12,-50,25,-3
6790,26,-253,9,-50,27,-5
6795,25,-251,6,-50,29,-7
6800,25,-254,16,-51,30,-8
6805,28,-254,11,-52,29,-10
6810,26,-256,12,-53,31,-12
6815,28,-256,9,-51,29,-10
6820,24,-256,12,-51,27,-11
6825,25,-255,10,-49,25,-11
6830,23,-255,14,-49,22,-11
6835,25,-255,13,-47,20,-13
6840,25,-257,11,-46,16,-13
6845,27,-257,12,-50,12,-12
6850,23,-255,12,-52,9,-12
6855,25,-255,12,-55,8,-11
6860,23,-255,12,-61,10,-12
6865,25,-255,12,-64,13,-9
6870,25,-256,11,-68,17,-8
6875,25,-256,14,-70,21,-8
6880,24,-256,10,-71,26,-9
6885,28,-255,10,-72,31,-8
6890,25,-253,10,-71,34,-7
6895,27,-256,13,-69,36,-7
6900,27,-256,11,-67,36,-4
6905,30,-255,9,-67,37,-4
6910,29,-252,13,-65,37,-3
6915,26,-254,13,-64,37,-1
6920,25,-254,14,-63,34,0
6925,25,-256,12,-63,31,0
6930,27,-256,10,-61,28,2
6935,28,-257,12,-63,25,4
6940,24,-258,15,-63,25,6
6945,22,-255,13,-62,25,4
6950,24,-259,14,-61,24,4
6955,26,-259,13,-57,25,5
6960,27,-258,10,-56,23,3
6965,23,-258,11,-53,22,1
6970,24,-255,10,-50,22,-1
6975,25,-255,8,-51,22,-1
6980,22,-255,9,-52,23,-2
6985,24,-256,10,-51,22,-4
6990,21,-254,12,-56,21,-5
6995,24,-256,9,-59,22,-7
7000,21,-256,6,-63,23,-8
7005,21,-256,9,-67,24,-9
7010,23,-256,11,-71,25,-9
7015,25,-258,5,-73,23,-11
7020,25,-261,10,-72,23,-9
7025,19,-256,7,-72,24,-8
7030,24,-256,9,-69,24,-7
7035,24,-258,10,-68,25,-7
7040,25,-258,9,-67,27,-5
7045,24,-258,9,-69,29,-4
7050,24,-254,6,-69,29,-3
7055,30,-259,8,-69,30,-3
7060,23,-257,5,-68,31,-2
7065,24,-255,6,-67,32,-2
7070,33,-257,10,-65,33,-2
7075,27,-254,10,-64,33,0
7080,28,-255,7,-62,34,-2
7085,27,-256,4,-60,34,-2
7090,27,-257,6,-58,33,-3
7095,25,-256,9,-57,33,-2
7100,25,-256,8,-57,31,-2
7105,25,-255,8,-54,30,-1
7110,23,-256,10,-53,29,0
7115,25,-257,9,-46,28,0
7120,25,-257,10,-42,27,2
7125,17,-254,4,-39,24,2
7130,26,-261,10,-37,23,5
7135,22,-256,9,-34,22,5
7140,23,-257,11,-34,24,6
7145,27,-258,8,-32,24,5
7150,25,-258,4,-34,26,5
7155,25,-257,5,-34,27,5
7160,27,-259,7,-34,29,4
7165,24,-258,5,-35,30,2
7170,24,-254,6,-34,30,0
7175,25,-257,9,-33,30,-1
7180,28,-258,12,-34,29,-1
7185,25,-258,6,-34,29,-2
7190,24,-257,6,-32,28,-4
7195,24,-254,8,-34,27,-6
7200,22,-255,8,-36,27,-5
7205,23,-255,10,-40,26,-5
7210,23,-255,8,-43,24,-5
7215,25,-255,10,-47,23,-4
7220,27,-258,9,-48,22,-3
7225,21,-251,13,-49,20,-1
7230,20,-257,11,-49,21,0
7235,23,-256,17,-49,22,1
7240,23,-256,13,-48,22,2
7245,22,-257,11,-49,22,3
7250,24,-256,8,-48,22,3
7255,23,-259,10,-47,24,3
7260,21,-256,8,-45,26,3
7265,24,-258,10,-39,28,3
7270,24,-257,10,-37,28,1
7275,23,-258,9,-32,28,1
7280,23,-257,10,-31,30,0
7285,24,-257,12,-30,32,-2
7290,25,-258,15,-32,33,-3
7295,25,-257,10,-32,34,-5
7300,24,-256,9,-32,35,-7
7305,25,-255,9,-31,33,-8
7310,26,-257,13,-31,32,-9
7315,22,-255,13,-31,32,-11
7320,26,-257,13,-34,31,-12
7325,23,-256,13,-34,29,-12
7330,26,-256,14,-35,29,-14
7335,21,-257,8,-39,27,-14
7340,24,-256,13,-41,24,-14
7345,23,-252,17,-41,21,-13
7350,23,-256,10,-43,18,-12
7355,23,-256,12,-43,17,-10
7360,26,-256,15,-40,15,-8
7365,22,-256,12,-41,14,-5
7370,22,-255,12,-38,14,-4
7375,21,-255,12,-41,14,-3
7380,26,-258,13,-40,14,-3
7385,23,-252,8,-41,15,0
7390,23,-254,10,-42,15,-2
7395,22,-251,17,-42,17,-1
7400,24,-250,6,-45,16,0
7405,22,-255,8,-48,17,0
7410,25,-255,8,-49,17,-1
7415,21,-255,11,-52,17,-2
7420,22,-255,9,-55,15,0
7425,20,-255,12,-56,16,-1
7430,25,-256,14,-58,16,0
7435,26,-258,11,-58,17,-1
7440,28,-259,13,-58,18,-2
7445,22,-257,10,-56,17,-1
7450,22,-257,11,-57,17,-1
7455,24,-254,7,-57,17,-2
7460,24,-256,9,-59,16,-4
7465,23,-256,12,-61,17,-4
7470,23,-256,9,-64,18,-4
7475,23,-255,9,-68,19,-3
7480,22,-255,12,-71,19,-5
7485,24,-253,10,-71,20,-6
7490,22,-255,11,-73,20,-3
7495,22,-254,9,-75,21,-4
7500,23,-256,12,-76,22,-4
7505,21,-255,6,-77,21,-2
7510,21,-255,10,-78,23,-3
7515,23,-255,11,-83,23,-5
7520,23,-255,11,-87,22,-3
7525,22,-255,6,-90,23,-4
7530,25,-255,11,-92,21,-3
7535,23,-252,13,-94,21,-3
7540,26,-258,11,-95,19,-3
7545,24,-255,13,-96,18,-4
7550,25,-257,11,-99,17,-3
7555,26,-255,15,-100,16,-4
7560,23,-258,10,-101,19,-5
7565,26,-255,5,-103,19,-6
7570,26,-256,10,-104,19,-7
7575,26,-258,6,-108,21,-8
7580,26,-256,7,-110,21,-11
7585,25,-258,8,-111,21,-10
7590,23,-254,8,-110,21,-11
7595,22,-257,7,-108,21,-12
7600,24,-259,12,-107,18,-12
7605,23,-257,1,-106,17,-12
7610,23,-258,5,-104,18,-12
7615,22,-256,16,-100,16,-10
7620,21,-258,8,-96,17,-11
7625,26,-261,5,-93,16,-11
7630,24,-258,3,-88,18,-10
7635,25,-258,3,-84,20,-10
7640,24,-258,9,-82,22,-10
7645,23,-256,1,-81,24,-10
7650,24,-260,4,-82,27,-10
7655,25,-259,8,-85,28,-10
7660,22,-256,7,-86,30,-10
7665,24,-259,8,-89,30,-11
7670,23,-257,9,-90,30,-12
7675,23,-257,6,-89,29,-11
7680,22,-260,5,-88,27,-12
7685,21,-257,4,-86,26,-14
7690,24,-258,3,-85,25,-15
7695,21,-257,7,-83,23,-15
7700,21,-260,7,-82,20,-17
7705,22,-260,5,-80,20,-16
7710,23,-260,11,-80,18,-16
7715,22,-256,4,-79,17,-15
7720,21,-256,-2,-77,16,-13
7725,28,-256,1,-78,17,-14
7730,24,-255,4,-79,17,-11
7735,24,-256,7,-81,19,-11
7740,24,-256,5,-79,21,-9
7745,24,-255,5,-80,24,-7
7750,26,-255,3,-81,27,-6
7755,26,-256,5,-79,29,-6
7760,26,-258,6,-79,32,-6
7765,27,-258,7,-80,33,-8
7770,28,-258,6,-81,34,-9
7775,25,-256,6,-80,34,-8
7780,26,-263,12,-80,35,-8
7785,26,-259,8,-76,35,-7
7790,28,-256,6,-78,32,-7
7795,26,-257,8,-76,34,-10
7800,23,-258,11,-75,34,-10
7805,24,-259,8,-76,33,-11
7810,28,-256,8,-73,32,-12
7815,27,-256,9,-71,32,-12
7820,25,-258,6,-69,31,-13
7825,25,-257,4,-66,31,-14
7830,27,-259,12,-69,31,-13
7835,31,-256,12,-71,29,-13
7840,23,-256,6,-75,27,-14
7845,26,-256,6,-77,25,-14
7850,26,-256,9,-80,24,-12
7855,27,-255,7,-78,22,-11
7860,26,-255,4,-80,21,-10
7865,26,-255,6,-79,22,-10
7870,25,-255,7,-80,22,-10
7875,28,-259,8,-81,23,-8
7880,18,-256,8,-83,22,-7
7885,24,-258,7,-87,21,-9
7890,24,-258,7,-87,20,-8
7895,22,-255,7,-87,18,-8
7900,24,-257,8,-86,16,-9
7905,24,-256,8,-84,16,-10
7910,26,-258,5,-82,16,-9
7915,24,-256,7,-81,15,-10
7920,23,-257,6,-82,17,-11
7925,24,-258,5,-83,19,-11
7930,26,-258,10,-84,19,-12
7935,23,-256,1,-84,20,-14
7940,27,-257,9,-83,20,-13
7945,25,-259,7,-80,20,-12
7950,28,-261,9,-79,19,-14
7955,21,-255,8,-77,21,-14
7960,26,-257,6,-79,22,-12
7965,25,-255,3,-80,23,-11
7970,26,-255,6,-81,25,-10
7975,26,-258,5,-84,24,-10
7980,24,-256,6,-85,24,-9
7985,26,-258,3,-89,24,-9
7990,26,-257,6,-92,25,-10
7995,25,-254,2,-95,27,-10
8000,24,-257,5,-94,29,-10
8005,26,-257,3,-95,28,-10
8010,26,-257,5,-95,29,-11
8015,24,-258,4,-95,30,-10
8020,23,-255,3,-92,29,-11
8025,27,-255,5,-93,30,-10
8030,24,-257,2,-93,30,-10
8035,25,-257,4,-93,29,-11
8040,23,-255,8,-96,29,-11
8045,24,-258,5,-98,28,-12
8050,26,-256,4,-98,27,-11
8055,25,-256,7,-98,26,-11
8060,23,-256,0,-96,24,-11
8065,26,-257,3,-94,23,-10
8070,24,-255,2,-93,21,-12
8075,24,-256,3,-89,21,-11
8080,25,-255,4,-87,20,-12
8085,23,-257,5,-84,19,-12
8090,26,-258,2,-82,19,-14
8095,25,-260,1,-82,18,-13
8100,26,-256,1,-82,22,-13
8105,24,-253,2,-79,21,-13
8110,22,-258,3,-73,22,-13
8115,27,-257,3,-65,24,-12
8120,25,-261,1,-60,25,-12
8125,26,-256,1,-55,25,-11
8130,27,-258,2,-51,26,-11
8135,23,-256,2,-51,24,-10
8140,26,-260,0,-51,22,-9
8145,23,-254,1,-52,20,-10
8150,25,-257,4,-51,18,-9
8155,20,-257,-2,-48,15,-11
8160,25,-263,3,-47,15,-10
8165,22,-257,3,-44,15,-11
8170,25,-257,2,-42,16,-9
8175,25,-256,3,-43,16,-10
8180,26,-257,0,-43,18,-10
8185,23,-259,0,-44,19,-10
8190,24,-256,1,-40,21,-9
8195,24,-254,5,-37,21,-11
8200,23,-258,3,-33,23,-8
8205,24,-257,2,-29,23,-10
8210,22,-255,4,-26,22,-9
8215,27,-259,-3,-25,22,-8
8220,23,-255,0,-25,22,-9
8225,24,-257,1,-27,21,-7
8230,24,-257,3,-29,19,-8
8235,24,-257,2,-32,19,-6
8240,24,-256,0,-30,20,-6
8245,23,-258,3,-29,20,-5
8250,22,-258,-1,-29,22,-5
8255,24,-256,2,-26,23,-6
8260,29,-259,1,-23,23,-5
8265,24,-260,4,-21,22,-4
8270,29,-259,9,-17,22,-5
8275,25,-259,0,-14,22,-7
8280,25,-259,0,-15,21,-5
8285,25,-257,1,-16,21,-7
8290,26,-259,3,-17,21,-7
8295,25,-259,2,-18,22,-6
8300,25,-260,2,-17,22,-6
8305,22,-259,3,-13,23,-5
8310,23,-261,1,-13,21,-6
8315,26,-259,1,-10,20,-7
8320,25,-260,3,-8,18,-7
8325,23,-257,5,-9,17,-8
8330,26,-257,2,-11,17,-8
8335,24,-258,2,-12,16,-7
8340,23,-255,3,-15,14,-7
8345,26,-256,0,-18,13,-7
8350,25,-257,2,-19,13,-6
8355,24,-257,3,-20,15,-7
8360,24,-256,2,-22,16,-6
8365,22,-258,0,-24,17,-7
8370,26,-260,3,-23,18,-5
8375,27,-260,1,-21,18,-5
8380,20,-255,-1,-21,15,-6
8385,26,-257,2,-19,16,-5
8390,23,-256,7,-19,14,-4
8395,24,-256,5,-17,12,-4
8400,26,-257,3,-17,12,-4
8405,24,-257,2,-18,10,-4
8410,25,-258,6,-17,8,-4
8415,26,-257,2,-19,10,-4
8420,23,-257,3,-19,9,-5
8425,27,-257,-1,-20,9,-5
8430,24,-259,5,-20,8,-4
8435,25,-259,7,-22,9,-5
8440,25,-260,2,-20,10,-4
8445,23,-257,3,-23,10,-4
8450,24,-258,6,-24,9,-3
8455,27,-258,5,-27,8,-4
8460,25,-258,6,-27,9,-3
8465,25,-258,7,-25,7,-1
8470,24,-257,5,-24,6,-1
8475,25,-256,4,-19,6,0
8480,25,-256,4,-16,7,0
8485,29,-257,4,-14,9,0
8490,23,-255,3,-13,11,-2
8495,25,-256,3,-15,14,-1
8500,23,-255,8,-17,16,-1
8505,26,-257,5,-21,17,-1
8510,26,-254,4,-26,16,-4
8515,24,-256,6,-27,18,-3
8520,26,-256,4,-28,18,-4
8525,28,-258,9,-29,17,-5
8530,24,-257,6,-27,17,-5
8535,24,-257,5,-26,16,-7
8540,23,-259,4,-24,14,-7
8545,25,-260,4,-23,12,-9
8550,26,-259,3,-22,8,-8
8555,22,-257,4,-22,4,-7
8560,23,-259,4,-21,1,-6
8565,25,-261,5,-22,-2,-5
8570,24,-257,5,-23,-2,-5
8575,21,-256,2,-21,-2,-4
8580,27,-258,6,-20,0,-4
8585,25,-259,3,-21,1,-3
8590,21,-253,4,-23,3,-3
8595,23,-257,6,-25,6,-3
8600,25,-256,3,-28,8,-3
8605,25,-257,9,-29,11,-3
8610,25,-256,9,-33,14,-3
8615,26,-256,7,-33,17,-3
8620,24,-255,4,-34,20,-3
8625,24,-256,7,-33,20,-4
8630,23,-255,6,-34,23,-4
8635,29,-258,5,-33,22,-4
8640,24,-254,7,-34,23,-3
8645,27,-256,7,-35,22,-4
8650,29,-258,7,-33,20,-4
8655,23,-257,8,-33,18,-3
8660,24,-255,10,-32,16,-5
8665,25,-259,9,-30,13,-5
8670,26,-257,7,-29,11,-6
8675,26,-257,3,-26,9,-5
8680,25,-257,4,-26,10,-4
8685,25,-256,5,-24,11,-5
8690,26,-258,5,-23,10,-5
8695,26,-257,5,-21,12,-6
8700,29,-254,6,-21,14,-5
8705,25,-257,6,-22,15,-6
8710,25,-256,7,-21,15,-4
8715,25,-255,3,-20,18,-4
8720,24,-256,2,-20,18,-2
8725,25,-255,5,-17,19,-2
8730,27,-257,3,-19,19,0
8735,22,-255,7,-18,19,1
8740,28,-256,6,-18,17,1
8745,25,-256,4,-20,16,2
8750,25,-256,8,-21,14,4
8755,25,-255,6,-22,14,3
8760,21,-259,7,-22,15,4
8765,33,-259,13,-21,15,3
8770,24,-256,6,-21,15,4
8775,24,-257,8,-18,17,1
8780,21,-256,5,-19,19,1
8785,24,-256,6,-21,20,0
8790,26,-257,8,-23,21,0
8795,25,-258,5,-23,21,-1
8800,28,-257,4,-25,22,-3
8805,23,-254,5,-28,22,-2
8810,26,-258,7,-30,20,-3
8815,20,-261,5,-31,20,-2
8820,23,-256,6,-32,20,-3
8825,24,-258,7,-35,19,-2
8830,26,-259,7,-37,19,-2
8835,22,-257,10,-39,17,-4
8840,24,-258,7,-38,18,-3
8845,25,-258,4,-36,17,-1
8850,24,-258,10,-34,15,-2
8855,24,-258,4,-30,15,-2
8860,21,-260,2,-27,15,-1
8865,22,-255,10,-26,13,-2
8870,21,-257,8,-26,11,0
8875,25,-256,8,-28,10,-1
8880,21,-254,6,-25,10,0
8885,23,-257,5,-27,11,0
8890,24,-256,9,-29,11,1
8895,27,-257,7,-31,10,1
8900,24,-256,7,-31,10,0
8905,27,-253,9,-34,12,0
8910,22,-256,5,-33,13,1
8915,26,-259,4,-33,15,1
8920,23,-255,7,-35,17,-1
8925,24,-256,9,-35,17,-1
8930,25,-256,3,-37,20,-1
8935,23,-255,7,-38,20,-1
8940,25,-257,8,-40,20,-1
8945,23,-256,4,-40,18,-1
8950,21,-257,8,-42,17,-3
8955,25,-258,6,-42,18,-4
8960,27,-258,9,-37,16,-4
8965,23,-259,8,-36,15,-3
8970,21,-257,3,-35,14,-3
8975,25,-257,8,-34,13,-3
8980,26,-253,9,-35,14,-3
8985,26,-255,8,-36,14,-2
8990,26,-257,9,-39,15,-3
8995,24,-256,7,-42,17,-2
9000,24,-254,5,-42,18,-2
9005,24,-256,5,-44,17,0
9010,25,-257,7,-47,17,-2
9015,25,-256,6,-51,16,-1
9020,26,-257,5,-51,16,-1
9025,23,-257,10,-52,14,0
9030,24,-256,9,-51,13,-1
9035,27,-252,10,-49,13,-1
9040,24,-256,8,-48,13,0
9045,24,-258,10,-46,14,-2
9050,23,-257,7,-45,14,-2
9055,22,-256,9,-44,16,-1
9060,25,-258,8,-43,17,-1
9065,27,-256,8,-46,16,-3
9070,22,-257,4,-47,18,-2
9075,22,-253,9,-48,19,-3
9080,21,-255,15,-49,20,-3
9085,28,-256,9,-50,21,-3
9090,27,-262,10,-50,20,-4
9095,25,-256,7,-50,19,-4
9100,26,-256,8,-51,19,-4
9105,25,-257,5,-50,20,-4
9110,24,-256,7,-49,20,-4
9115,24,-256,4,-50,21,-4
9120,25,-255,10,-50,21,-4
9125,25,-259,4,-48,20,-5
9130,23,-255,7,-45,20,-4
9135,28,-263,11,-43,20,-4
9140,28,-260,11,-41,22,-3
9145,23,-258,5,-39,22,-4
9150,25,-257,6,-40,21,-2
9155,23,-258,2,-39,20,-2
9160,21,-256,9,-41,19,0
9165,26,-255,8,-42,18,-1
9170,24,-256,6,-45,17,-1
9175,24,-256,7,-46,16,-1
9180,26,-257,6,-48,16,-2
9185,25,-255,5,-46,16,-3
9190,27,-256,8,-47,16,-3
9195,32,-262,7,-48,15,-4
9200,29,-256,9,-46,14,-3
9205,25,-257,6,-46,15,-5
9210,24,-257,6,-45,13,-2
9215,24,-258,8,-45,14,-2
9220,22,-256,8,-46,14,-2
9225,22,-256,8,-45,13,-2
9230,24,-257,8,-46,12,-2
9235,26,-256,5,-45,11,-2
9240,24,-253,6,-46,11,-2
9245,25,-255,8,-47,10,-3
9250,22,-251,8,-47,11,-1
9255,22,-255,8,-47,13,-1
9260,21,-255,9,-50,12,-2
9265,22,-256,5,-50,12,-1
9270,26,-256,7,-50,13,-2
9275,23,-257,9,-48,12,-1
9280,24,-255,12,-48,13,-2
9285,24,-257,5,-46,13,-2
9290,23,-257,9,-46,14,-1
9295,26,-258,6,-45,14,-3
9300,26,-259,7,-44,16,-3
9305,23,-257,5,-47,17,-3
9310,22,-257,7,-50,20,-2
9315,25,-258,5,-52,20,-1
9320,22,-257,4,-55,20,-1
9325,25,-257,7,-54,19,-2
9330,23,-258,10,-53,20,-2
9335,24,-256,8,-52,19,-3
9340,24,-257,5,-52,19,-3
9345,25,-256,6,-50,18,-3
9350,24,-256,5,-50,17,-5
9355,25,-258,8,-51,18,-4
9360,14,-255,8,-52,17,-5
9365,23,-256,6,-52,17,-5
9370,27,-256,6,-51,15,-5
9375,24,-254,7,-50,15,-3
9380,24,-256,9,-50,17,-4
9385,27,-256,6,-51,19,-3
9390,24,-257,7,-51,18,-4
9395,25,-256,6,-52,18,-4
9400,26,-254,7,-54,17,-4
9405,23,-257,6,-57,16,-4
9410,24,-258,4,-59,13,-4
9415,26,-255,3,-60,12,-4
9420,25,-257,5,-61,10,-4
9425,23,-257,8,-58,12,-4
9430,24,-256,7,-54,11,-6
9435,26,-257,8,-49,11,-7
9440,26,-258,5,-43,12,-6
9445,23,-256,9,-41,12,-5
9450,24,-257,5,-40,13,-5
9455,21,-256,8,-41,12,-5
9460,25,-254,2,-41,13,-5
9465,27,-257,6,-43,13,-5
9470,25,-254,3,-46,15,-3
9475,26,-256,9,-45,14,-4
9480,24,-258,9,-48,16,-2
9485,23,-256,8,-45,18,-2
9490,27,-256,5,-45,20,-1
9495,23,-256,7,-44,20,0
9500,22,-255,6,-46,20,0
9505,26,-256,8,-49,20,-1
9510,28,-258,8,-50,19,-1
9515,26,-257,9,-55,17,-1
9520,24,-255,9,-56,14,1
9525,22,-258,6,-56,14,0
9530,24,-257,8,-56,13,1
9535,25,-258,7,-55,13,1
9540,24,-255,5,-54,13,3
9545,25,-256,9,-53,13,2
9550,26,-256,8,-53,11,0
9555,24,-254,7,-53,12,0
9560,25,-256,7,-52,10,0
9565,20,-256,4,-50,9,0
9570,25,-257,9,-48,9,-1
9575,24,-256,8,-47,9,-2
9580,31,-254,10,-46,10,-2
9585,26,-257,7,-45,14,-2
9590,26,-256,7,-42,16,-2
9595,24,-254,7,-42,19,-4
9600,25,-257,6,-42,22,-5
9605,22,-254,5,-43,22,-5
9610,23,-257,5,-44,22,-6
9615,21,-256,9,-46,21,-5
9620,24,-255,5,-45,21,-6
9625,25,-257,7,-46,20,-5
9630,24,-254,5,-47,19,-5
9635,25,-259,9,-46,19,-4
9640,23,-256,8,-46,18,-3
9645,26,-256,8,-45,19,-3
9650,26,-258,8,-44,18,-2
9655,24,-257,3,-41,17,-3
9660,23,-257,9,-40,16,-2
9665,28,-258,6,-38,16,-1
9670,25,-256,6,-39,16,-2
9675,24,-257,4,-39,16,-2
9680,21,-257,13,-38,17,-2
9685,25,-254,8,-41,18,-1
9690,26,-254,6,-43,18,-3
9695,23,-257,6,-45,19,-2
9700,23,-256,7,-45,21,-4
9705,23,-255,6,-48,20,-3
9710,24,-256,5,-49,21,-3
9715,26,-256,5,-52,19,-3
9720,25,-260,10,-53,18,-3
9725,23,-258,9,-55,17,-3
9730,23,-258,9,-53,15,-3
9735,24,-259,9,-52,13,-1
9740,30,-259,9,-53,13,2
9745,25,-259,5,-52,12,0
9750,23,-255,4,-51,14,1
9755,24,-258,8,-50,15,-1
9760,24,-257,4,-51,13,-2
9765,23,-256,6,-51,15,-2
9770,22,-257,7,-51,17,-2
9775,25,-259,5,-50,18,-4
9780,20,-257,6,-51,17,-4
9785,26,-260,5,-49,21,-4
9790,25,-256,6,-47,21,-4
9795,21,-256,8,-48,22,-3
9800,22,-255,9,-47,23,-2
9805,24,-258,7,-46,22,-3
9810,23,-256,5,-47,21,-2
9815,21,-256,7,-47,19,-2
9820,23,-255,5,-49,18,-4
9825,24,-258,8,-52,17,-3
9830,23,-256,12,-52,19,-3
9835,25,-258,8,-54,17,-3
9840,27,-256,9,-53,18,-2
9845,23,-257,8,-53,19,-3
9850,27,-254,3,-49,18,-4
9855,24,-257,6,-49,18,-3
9860,21,-256,9,-49,19,-4
9865,24,-257,4,-50,17,-4
9870,25,-259,5,-51,17,-4
9875,23,-257,7,-52,17,-6
9880,25,-257,8,-54,18,-3
9885,22,-257,5,-54,19,-3
9890,22,-257,7,-54,19,-3
9895,26,-257,6,-55,20,-4
9900,24,-256,7,-55,22,-3
9905,19,-251,1,-56,23,-3
9910,23,-256,3,-57,23,-3
9915,25,-257,6,-58,21,-2
9920,22,-255,7,-59,22,-3
9925,21,-255,6,-58,22,-3
9930,23,-256,6,-57,23,-3
9935,25,-256,7,-58,23,-2
9940,25,-255,9,-57,21,-2
9945,27,-258,8,-58,21,-4
9950,22,-260,6,-56,20,-4
9955,23,-256,8,-53,20,-3
9960,28,-260,11,-51,20,-4
9965,23,-257,8,-49,22,-4
9970,22,-256,2,-50,23,-3
9975,25,-259,11,-53,22,-3
9980,23,-257,9,-53,21,-2
9985,23,-256,10,-58,21,-1
9990,24,-256,7,-58,22,-1
9995,23,-255,8,-61,21,-1
10000,25,-258,7,-61,22,-2
10005,24,-254,7,-60,22,-2
10010,24,-255,5,-61,22,-2
10015,26,-256,5,-60,23,-3
10020,22,-258,6,-59,22,-4
10025,23,-257,6,-57,22,-5
10030,25,-257,4,-54,22,-6
10035,21,-259,5,-51,21,-5
10040,23,-256,5,-52,22,-5
10045,24,-256,7,-48,23,-4
10050,24,-258,7,-48,23,-5
10055,23,-257,8,-47,22,-4
10060,22,-258,2,-50,20,-4
10065,24,-253,7,-52,20,-3
10070,26,-255,7,-53,21,-2
10075,23,-259,6,-54,19,-4
10080,21,-255,8,-56,20,-2
10085,25,-257,5,-55,21,-2
10090,24,-257,6,-54,22,-1
10095,23,-259,5,-52,21,-4
10100,23,-257,7,-49,21,-5
10105,24,-259,2,-50,21,-5
10110,21,-256,7,-46,22,-6
10115,23,-259,8,-44,21,-7
10120,23,-257,8,-45,20,-7
10125,24,-254,13,-46,19,-5
10130,23,-255,6,-49,18,-7
10135,23,-257,9,-50,17,-7
10140,23,-255,6,-51,15,-7
10145,23,-256,6,-52,15,-6
10150,21,-257,4,-53,16,-5
10155,23,-254,3,-52,17,-5
10160,23,-255,5,-52,19,-5
10165,22,-254,5,-53,21,-4
10170,27,-259,3,-53,22,-3
10175,22,-258,4,-55,23,-3
10180,24,-257,5,-58,23,-3
10185,23,-256,4,-61,23,-4
10190,23,-255,6,-64,24,-5
10195,23,-257,6,-64,24,-5
10200,23,-257,4,-66,22,-3
10205,23,-258,5,-64,21,-3
10210,22,-256,5,-64,19,-4
10215,18,-256,4,-59,20,-4
10220,23,-259,6,-56,19,-5
10225,26,-258,7,-55,20,-5
10230,21,-257,3,-55,22,-5
10235,25,-255,5,-55,24,-5
10240,23,-257,7,-57,25,-6
10245,23,-257,2,-58,26,-5
10250,24,-255,1,-60,27,-6
10255,25,-256,5,-61,28,-4
10260,25,-256,6,-63,30,-5
10265,25,-258,5,-64,31,-7
10270,20,-255,8,-66,29,-6
10275,26,-260,5,-67,29,-8
10280,24,-259,5,-69,27,-9
10285,24,-258,7,-71,26,-8
10290,24,-258,8,-72,26,-8
10295,23,-256,4,-73,25,-8
10300,26,-259,8,-75,27,-5
10305,24,-256,4,-72,27,-5
10310,24,-259,7,-70,24,-4
10315,21,-257,4,-69,25,-4
10320,24,-255,6,-70,26,-2
10325,22,-255,5,-70,29,-1
10330,24,-256,3,-72,29,2
10335,26,-256,4,-74,29,2
10340,23,-256,1,-78,28,3
10345,24,-257,3,-82,28,4
10350,23,-258,1,-83,27,3
10355,23,-259,3,-84,30,4
10360,23,-256,5,-83,29,2
10365,23,-256,4,-82,30,1
10370,20,-255,1,-82,29,-1
10375,22,-258,7,-80,30,-2
10380,26,-257,2,-77,30,-3
10385,23,-259,5,-77,30,-3
10390,24,-258,4,-74,30,-3
10395,21,-260,6,-70,30,-5
10400,25,-259,4,-69,30,-4
10405,25,-256,3,-68,29,-4
10410,24,-257,5,-68,30,-3
10415,24,-256,7,-67,30,-3
10420,26,-258,6,-69,29,-2
10425,22,-257,4,-69,32,-1
10430,25,-256,5,-70,35,-1
10435,23,-254,3,-72,36,1
10440,25,-257,8,-75,36,2
10445,18,-255,3,-77,38,2
10450,25,-257,7,-79,38,1
10455,24,-256,2,-82,36,2
10460,23,-258,2,-84,36,1
10465,22,-256,3,-86,35,0
10470,23,-257,2,-88,36,0
10475,23,-258,4,-85,33,1
10480,23,-256,8,-82,31,1
10485,22,-259,2,-79,29,2
10490,20,-257,1,-76,28,3
10495,22,-255,4,-72,27,2
10500,24,-258,6,-68,25,3
10505,25,-263,1,-65,23,3
10510,24,-258,4,-65,24,3
10515,26,-257,-1,-64,22,2
10520,23,-256,2,-63,21,4
10525,23,-257,0,-65,21,4
10530,21,-255,0,-67,24,2
10535,25,-261,1,-66,26,1
10540,25,-257,3,-66,27,1
10545,24,-257,7,-67,29,-2
10550,25,-259,4,-64,32,-2
10555,20,-256,3,-62,32,-4
10560,22,-259,9,-59,30,-5
10565,19,-256,2,-58,29,-5
10570,22,-257,4,-57,27,-5
10575,25,-257,3,-53,26,-5
10580,24,-256,3,-51,25,-4
10585,23,-257,2,-52,23,-4
10590,22,-255,2,-49,22,-3
10595,24,-256,4,-50,20,-3
10600,24,-257,4,-49,20,-2
10605,20,-256,5,-46,19,-1
10610,17,-253,0,-46,19,-1
10615,17,-256,0,-45,19,-1
10620,21,-256,0,-46,20,-2
10625,22,-256,2,-47,20,-3
10630,22,-257,8,-46,20,-5
10635,23,-258,3,-46,22,-5
10640,23,-256,2,-47,22,-6
10645,22,-258,5,-47,22,-4
10650,18,-258,1,-46,21,-5
10655,19,-257,3,-44,20,-5
10660,25,-259,2,-44,19,-4
10665,26,-254,5,-43,19,-3
10670,22,-257,3,-43,18,-1
10675,23,-257,0,-41,18,1
10680,23,-257,2,-41,18,0
10685,23,-256,0,-42,19,0
10690,24,-259,3,-40,20,-1
10695,23,-257,2,-40,21,-2
10700,21,-257,1,-39,22,-2
10705,23,-257,1,-39,21,-2
10710,24,-256,6,-36,20,-3
10715,23,-262,5,-36,20,-3
10720,25,-259,1,-34,19,-4
10725,22,-257,3,-35,20,-5
10730,25,-258,2,-34,19,-4
10735,22,-257,0,-33,16,-4
10740,22,-259,1,-33,16,-4
10745,22,-256,2,-32,15,-5
10750,24,-258,3,-34,14,-3
10755,21,-257,5,-34,15,-3
10760,25,-259,4,-35,15,-3
10765,24,-258,0,-34,15,-1
10770,22,-257,2,-35,15,-1
10775,20,-262,3,-36,16,-2
10780,20,-258,4,-37,13,-3
10785,25,-256,4,-38,14,-2
10790,21,-258,1,-36,14,-3
10795,25,-258,1,-35,13,-3
10800,20,-257,4,-36,12,-2
10805,20,-257,4,-36,12,-2
10810,22,-257,-1,-38,11,-2
10815,24,-259,4,-39,10,-1
10820,22,-255,5,-41,10,1
10825,22,-258,5,-42,9,0
10830,20,-257,8,-41,10,1
10835,17,-254,8,-41,11,2
10840,19,-262,1,-41,11,1
10845,25,-256,12,-40,12,0
10850,23,-252,4,-40,13,0
10855,15,-260,0,-38,13,-1
10860,18,-256,18,-37,14,-2
10865,22,-262,7,-35,13,-3
10870,27,-259,3,-33,13,-2
10875,26,-263,14,-32,14,-2
10880,26,-263,3,-31,13,-2
10885,27,-267,1,-31,12,-2
10890,23,-253,8,-32,12,-2
10895,25,-260,1,-32,12,-2
10900,24,-260,10,-30,11,-3
10905,23,-260,5,-32,11,-5
10910,28,-255,13,-32,10,-2
10915,10,-259,5,-32,10,-3
10920,18,-251,14,-37,8,-3
10925,22,-257,9,-36,9,-3
10930,30,-254,6,-38,10,-3
10935,29,-263,6,-37,10,-4
10940,16,-262,-5,-38,10,-5
10945,21,-253,-10,-41,9,-4
10950,20,-256,3,-41,11,-3
10955,29,-258,7,-42,11,-3
10960,28,-258,9,-45,11,-3
10965,16,-261,15,-47,12,-2
10970,20,-258,8,-45,12,-1
10975,23,-257,8,-45,11,-3
10980,23,-258,3,-44,11,-3
10985,23,-256,5,-43,11,-2
10990,24,-257,6,-42,10,-2
10995,24,-259,2,-41,8,1
11000,26,-259,3,-41,8,0
11005,23,-257,1,-40,6,-1
11010,28,-257,4,-42,5,-2
11015,23,-257,3,-41,4,-2
11020,21,-254,4,-40,5,-2
11025,26,-260,5,-39,7,-4
11030,26,-258,5,-39,8,-5
11035,21,-258,3,-38,9,-5
11040,21,-258,5,-39,10,-7
11045,20,-257,6,-40,12,-6
11050,22,-257,1,-42,12,-9
11055,22,-256,3,-45,13,-10
11060,20,-254,2,-47,13,-9
11065,20,-259,4,-46,13,-9
11070,24,-259,4,-43,12,-7
11075,25,-253,3,-40,12,-9
11080,21,-258,3,-36,13,-7
11085,19,-258,3,-33,14,-7
11090,19,-258,4,-32,14,-5
11095,22,-257,2,-33,16,-6
11100,22,-257,2,-36,18,-6
11105,28,-260,2,-37,19,-6
11110,22,-256,5,-38,17,-5
11115,24,-256,4,-38,19,-6
11120,23,-256,4,-40,18,-6
11125,26,-255,5,-41,19,-5
11130,21,-256,5,-42,19,-6
11135,22,-256,2,-41,19,-7
11140,20,-260,3,-42,18,-7
11145,22,-256,4,-42,18,-8
11150,28,-263,3,-44,16,-10
11155,24,-261,-2,-44,16,-11
11160,21,-258,2,-44,14,-11
11165,23,-257,6,-45,12,-12
11170,23,-259,5,-44,13,-12
11175,21,-257,5,-43,10,-13
11180,21,-257,5,-43,11,-11
11185,23,-258,2,-44,11,-11
11190,25,-259,4,-46,12,-9
11195,25,-257,6,-47,13,-9
11200,23,-257,3,-47,16,-9
11205,22,-256,8,-49,16,-9
11210,18,-254,1,-49,17,-8
11215,25,-256,2,-51,16,-9
11220,23,-256,6,-51,18,-8
11225,21,-256,4,-53,19,-8
11230,24,-256,3,-54,20,-7
11235,26,-258,3,-56,22,-8
11240,23,-256,5,-57,22,-10
11245,23,-262,4,-58,22,-9
11250,24,-256,7,-59,23,-8
11255,21,-256,6,-61,22,-10
11260,20,-256,3,-59,20,-8
11265,23,-258,5,-60,18,-7
11270,25,-258,3,-58,18,-7
11275,25,-259,5,-56,16,-4
11280,22,-258,2,-58,16,-4
11285,23,-257,4,-56,13,-5
11290,28,-256,1,-58,13,-4
11295,24,-258,2,-57,12,-5
11300,22,-259,5,-56,13,-5
11305,24,-255,4,-57,12,-5
11310,25,-256,3,-56,13,-7
11315,26,-260,6,-54,15,-7
11320,22,-261,4,-50,15,-6
11325,27,-256,2,-47,16,-7
11330,22,-257,5,-46,17,-6
11335,25,-257,2,-44,18,-6
11340,22,-255,3,-40,19,-6
11345,23,-257,3,-40,18,-5
11350,24,-257,6,-38,19,-8
11355,22,-256,5,-36,20,-9
11360,24,-257,2,-34,21,-9
11365,22,-257,3,-32,20,-9
11370,26,-258,1,-33,20,-8
11375,24,-260,7,-33,19,-9
11380,21,-258,1,-32,19,-10
11385,25,-255,3,-31,18,-10
11390,22,-256,4,-33,16,-10
11395,23,-259,2,-32,15,-8
11400,23,-258,3,-31,16,-9
11405,24,-256,3,-29,17,-9
11410,22,-257,2,-27,17,-8
11415,27,-258,6,-26,20,-7
11420,24,-255,7,-27,22,-7
11425,21,-259,-1,-27,24,-9
11430,16,-259,5,-28,26,-10
11435,26,-259,4,-29,28,-9
11440,25,-259,5,-31,29,-10
11445,21,-257,3,-31,30,-10
11450,22,-257,2,-32,31,-11
11455,24,-256,2,-32,30,-14
11460,24,-256,1,-32,30,-14
11465,24,-258,5,-32,31,-15
11470,24,-258,8,-31,30,-16
11475,23,-256,3,-35,28,-16
11480,22,-259,4,-36,27,-16
11485,31,-253,1,-35,27,-14
11490,22,-256,5,-36,25,-14
11495,26,-257,5,-37,24,-14
11500,22,-257,7,-37,24,-16
11505,19,-256,7,-33,24,-17
11510,25,-257,3,-29,25,-18
11515,21,-258,7,-26,24,-18
11520,22,-257,6,-23,25,-20
11525,21,-254,7,-21,26,-19
11530,23,-256,4,-20,29,-21
11535,22,-255,3,-21,28,-23
11540,18,-257,5,-25,29,-23
11545,24,-256,6,-29,28,-25
11550,22,-256,5,-35,27,-27
11555,24,-258,7,-38,26,-28
11560,20,-257,8,-41,25,-29
11565,20,-256,10,-42,23,-29
11570,22,-258,10,-41,21,-31
11575,22,-256,2,-41,20,-31
11580,22,-256,5,-43,19,-30
11585,18,-256,7,-43,19,-31
11590,22,-259,-1,-45,18,-33
11595,23,-255,7,-49,16,-33
11600,23,-258,6,-48,15,-34
11605,23,-256,6,-53,14,-34
11610,24,-256,5,-57,13,-34
11615,23,-255,4,-60,15,-35
11620,25,-255,5,-64,17,-36
11625,25,-253,1,-68,19,-37
11630,26,-256,8,-69,21,-38
11635,26,-253,6,-72,23,-37
11640,25,-256,4,-76,23,-38
11645,30,-257,6,-78,24,-37
11650,30,-253,4,-80,22,-37
11655,28,-259,5,-81,23,-37
11660,29,-258,2,-81,23,-36
11665,30,-256,-1,-78,24,-34
11670,25,-256,2,-77,24,-34
11675,29,-256,4,-76,26,-32
11680,24,-257,0,-73,26,-30
11685,25,-258,7,-71,26,-29
11690,25,-257,1,-70,27,-28
11695,28,-260,2,-68,30,-27
11700,23,-257,7,-67,32,-25
11705,29,-258,2,-64,35,-25
11710,27,-258,3,-62,39,-25
11715,27,-260,2,-63,42,-26
11720,27,-259,1,-61,45,-26
11725,23,-257,2,-61,47,-28
11730,27,-260,1,-58,47,-29
11735,30,-259,5,-57,47,-27
11740,29,-257,3,-54,46,-28
11745,20,-258,2,-53,47,-28
11750,26,-257,5,-50,46,-28
11755,23,-265,2,-47,47,-27
11760,25,-256,4,-46,45,-26
11765,26,-258,2,-47,44,-24
11770,30,-257,2,-47,45,-23
11775,28,-256,3,-48,44,-21
11780,27,-257,6,-49,45,-19
11785,27,-258,0,-49,44,-16
11790,25,-257,5,-47,44,-13
11795,27,-258,7,-49,45,-11
11800,21,-254,6,-48,45,-9
11805,24,-259,5,-47,44,-8
11810,24,-258,1,-49,42,-8
11815,22,-256,4,-49,42,-5
11820,23,-258,8,-49,39,-4
11825,26,-257,2,-48,36,-2
11830,23,-257,8,-45,34,-1
11835,19,-256,0,-46,30,1
11840,23,-258,6,-46,27,4
11845,21,-259,6,-44,24,6
11850,21,-258,8,-42,20,8
11855,23,-257,4,-40,18,10
11860,22,-258,4,-39,15,10
11865,24,-258,4,-40,12,9
11870,24,-256,3,-40,10,11
11875,21,-258,4,-41,8,11
11880,23,-257,3,-43,6,12
11885,22,-258,2,-47,4,11
11890,20,-256,3,-50,1,11
11895,24,-257,4,-49,1,12
11900,22,-257,1,-49,0,11
11905,25,-259,3,-46,-1,12
11910,24,-257,1,-45,-1,12
11915,25,-257,7,-43,-2,10
11920,24,-256,8,-43,-2,9
11925,22,-259,1,-43,-3,8
11930,23,-256,5,-43,-4,7
11935,27,-257,4,-43,-5,7
11940,23,-260,2,-39,-6,6
11945,24,-260,3,-38,-9,7
11950,21,-257,2,-37,-12,9
11955,20,-261,1,-36,-15,12
11960,21,-258,3,-35,-17,13
11965,22,-257,1,-34,-19,16
11970,20,-257,4,-32,-24,17
11975,25,-254,-1,-31,-26,20
11980,19,-256,0,-32,-27,24
11985,22,-257,2,-31,-29,25
11990,22,-258,0,-29,-29,27
11995,23,-257,0,-29,-27,29
