timestamp,acc_x,acc_y,acc_z,gyro_x,gyro_y,gyro_z
0,0,-249,31,-116,11,-47
5,1,-248,31,-109,11,-48
10,1,-251,31,-102,8,-50
15,1,-252,31,-93,5,-50
20,1,-250,24,-80,2,-48
25,0,-252,29,-68,-4,-45
30,0,-253,31,-56,-9,-43
35,0,-253,33,-42,-15,-39
40,3,-251,31,-28,-18,-38
45,3,-250,33,-15,-22,-36
50,1,-251,33,-4,-24,-34
55,3,-247,30,5,-25,-33
60,1,-245,33,12,-26,-33
65,1,-244,28,16,-24,-32
70,1,-241,32,16,-24,-33
75,1,-244,30,14,-21,-32
80,3,-245,27,12,-19,-31
85,2,-246,27,10,-13,-32
90,4,-244,28,10,-8,-33
95,6,-247,30,12,-4,-33
100,6,-245,27,13,-1,-35
105,7,-246,26,13,2,-36
110,6,-248,26,14,5,-37
115,4,-248,32,11,7,-38
120,6,-250,30,9,11,-41
125,5,-249,27,2,14,-40
130,8,-250,30,-2,15,-40
135,4,-249,34,-1,17,-41
140,2,-248,32,7,19,-41
145,4,-253,30,18,20,-42
150,7,-254,31,32,19,-43
155,2,-253,29,45,16,-41
160,3,-253,33,60,15,-41
165,3,-253,30,69,12,-39
170,3,-253,26,75,7,-39
175,3,-250,30,78,2,-39
180,1,-247,30,76,-1,-39
185,0,-245,28,69,-5,-40
190,1,-248,28,64,-9,-42
195,-1,-244,25,55,-10,-44
200,1,-243,31,45,-8,-44
205,0,-242,33,35,-10,-46
210,0,-242,31,29,-10,-46
215,1,-244,31,24,-6,-46
220,1,-241,32,20,-3,-47
225,0,-245,27,20,-1,-45
230,0,-244,29,21,-2,-48
235,2,-244,30,27,-4,-46
240,1,-246,28,34,-5,-47
245,4,-247,28,41,-4,-44
250,3,-247,30,47,-5,-42
255,3,-246,26,52,-2,-39
260,4,-247,27,54,0,-37
265,5,-250,23,59,2,-35
270,3,-248,28,60,1,-35
275,7,-250,27,65,4,-34
280,6,-248,27,66,5,-34
285,8,-246,26,66,7,-32
290,6,-250,26,68,8,-29
295,5,-250,27,69,11,-28
300,9,-251,28,72,12,-25
305,7,-250,29,75,15,-25
310,7,-250,30,77,18,-22
315,5,-249,30,79,19,-20
320,2,-247,30,83,18,-18
325,2,-246,30,87,21,-17
330,4,-249,27,87,21,-16
335,4,-245,29,87,20,-15
340,4,-246,23,88,18,-15
345,1,-245,28,86,15,-14
350,2,-243,31,87,13,-13
355,2,-246,31,86,11,-16
360,2,-243,28,87,11,-16
365,0,-245,29,88,10,-17
370,2,-245,29,88,10,-16
375,1,-248,30,87,10,-18
380,3,-248,33,88,10,-18
385,2,-248,30,86,10,-20
390,1,-246,36,88,12,-19
395,1,-244,34,90,11,-19
400,1,-246,31,87,11,-17
405,3,-245,31,86,11,-18
410,3,-248,32,82,9,-15
415,2,-246,33,82,10,-15
420,5,-249,30,80,9,-16
425,4,-247,33,81,7,-16
430,2,-245,32,80,6,-15
435,1,-244,33,78,6,-14
440,1,-245,31,75,5,-15
445,3,-246,36,76,6,-18
450,8,-241,37,75,7,-16
455,6,-248,33,74,10,-17
460,3,-249,33,75,14,-19
465,5,-247,35,75,16,-19
470,5,-246,31,74,18,-17
475,5,-243,32,76,20,-17
480,2,-246,28,77,20,-15
485,2,-249,31,78,20,-14
490,2,-245,29,81,19,-14
495,4,-250,30,81,17,-12
500,5,-248,33,81,15,-11
505,3,-250,30,80,11,-10
510,4,-246,30,79,9,-10
515,4,-246,34,79,7,-10
520,10,-242,32,77,4,-9
525,5,-249,28,73,4,-8
530,2,-243,30,70,4,-9
535,3,-245,35,70,4,-10
540,6,-248,34,69,6,-8
545,3,-243,28,64,7,-6
550,2,-243,29,63,9,-6
555,2,-242,31,60,9,-7
560,3,-246,29,60,10,-7
565,2,-243,29,60,11,-5
570,6,-241,31,60,10,-6
575,10,-247,32,62,9,-4
580,7,-246,31,63,8,-3
585,3,-246,33,65,7,-2
590,2,-242,40,67,5,-3
595,5,-249,29,67,5,1
600,3,-247,31,67,6,0
605,6,-246,33,65,6,1
610,6,-245,32,62,7,0
615,4,-249,32,58,9,0
620,5,-248,34,55,11,0
625,2,-246,34,56,12,1
630,4,-245,32,54,13,1
635,7,-248,32,56,15,2
640,6,-252,33,58,15,2
645,5,-248,31,60,17,3
650,4,-249,32,61,18,3
655,4,-245,34,63,21,2
660,2,-241,30,65,20,3
665,2,-246,38,69,20,4
670,2,-249,34,72,19,3
675,3,-246,31,74,19,2
680,0,-246,33,74,17,2
685,-5,-245,36,75,16,4
690,3,-244,33,75,15,3
695,0,-245,32,76,15,2
700,1,-243,29,74,15,1
705,1,-246,34,73,14,-1
710,1,-245,30,74,14,0
715,2,-245,28,72,14,-1
720,1,-248,29,71,14,0
725,2,-250,32,70,15,0
730,1,-243,43,70,15,0
735,1,-244,27,69,15,0
740,5,-249,32,71,16,1
745,3,-247,32,74,16,0
750,3,-251,29,76,15,1
755,4,-248,33,78,14,0
760,3,-249,34,81,14,0
765,1,-249,34,83,14,-1
770,1,-244,30,86,13,0
775,1,-246,33,87,13,0
780,2,-243,32,86,12,1
785,4,-245,33,84,13,2
790,1,-248,31,82,13,1
795,5,-248,33,78,13,-1
800,2,-248,35,74,13,0
805,2,-246,32,71,13,-3
810,2,-245,32,66,12,-3
815,4,-248,30,63,12,-4
820,2,-246,33,63,11,-3
825,4,-249,35,63,9,-4
830,4,-247,34,62,9,-5
835,6,-247,37,64,10,-5
840,2,-248,33,65,8,-4
845,2,-247,35,69,7,-4
850,3,-248,36,71,8,-4
855,1,-249,35,74,8,-4
860,2,-247,38,75,8,-6
865,1,-247,34,77,8,-5
870,3,-244,38,78,8,-4
875,4,-246,33,78,8,-5
880,3,-247,37,79,10,-6
885,1,-246,36,81,12,-7
890,2,-242,38,82,13,-6
895,0,-250,31,82,13,-9
900,2,-243,34,84,14,-9
905,1,-245,34,84,14,-11
910,1,-246,34,85,14,-11
915,2,-248,33,87,13,-9
920,2,-246,31,87,13,-8
925,1,-248,37,86,14,-10
930,2,-249,31,85,13,-9
935,2,-245,31,84,13,-8
940,5,-249,31,83,13,-9
945,2,-247,38,82,13,-9
950,3,-248,29,80,13,-8
955,3,-248,33,79,13,-6
960,4,-249,34,78,12,-7
965,4,-245,37,77,11,-7
970,3,-248,31,77,10,-8
975,6,-247,33,77,11,-8
980,4,-240,31,77,9,-7
985,2,-246,33,78,11,-8
990,1,-245,35,78,9,-10
995,0,-243,35,77,9,-9
1000,4,-243,35,77,9,-10
1005,3,-246,36,76,12,-10
1010,5,-246,35,74,10,-11
1015,1,-246,35,75,12,-10
1020,4,-244,37,74,12,-11
1025,1,-246,36,73,11,-12
1030,3,-254,30,73,12,-11
1035,1,-248,39,72,12,-12
1040,4,-246,36,72,13,-13
1045,3,-247,37,73,13,-11
1050,1,-245,33,75,12,-11
1055,1,-249,35,76,11,-10
1060,2,-245,37,78,12,-11
1065,2,-247,32,78,12,-11
1070,1,-246,36,81,11,-11
1075,1,-248,35,80,10,-10
1080,2,-247,35,83,12,-10
1085,2,-247,36,83,12,-9
1090,4,-249,32,83,10,-9
1095,5,-249,29,84,11,-9
1100,2,-246,38,83,13,-10
1105,1,-245,35,82,12,-10
1110,2,-245,36,82,13,-9
1115,5,-247,30,81,13,-9
1120,1,-241,37,79,11,-11
1125,2,-245,34,78,12,-12
1130,1,-247,33,77,11,-10
1135,3,-244,36,77,10,-10
1140,0,-242,37,75,11,-10
1145,4,-247,37,75,10,-11
1150,1,-246,35,74,9,-12
1155,4,-244,38,75,8,-10
1160,1,-247,35,74,8,-13
1165,4,-248,34,74,9,-12
1170,0,-246,34,74,9,-12
1175,1,-244,35,74,9,-12
1180,2,-246,36,75,8,-12
1185,3,-246,39,75,12,-12
1190,2,-246,40,75,12,-13
1195,1,-242,36,76,11,-12
1200,1,-245,35,75,11,-12
1205,2,-244,33,78,11,-13
1210,3,-245,37,78,10,-12
1215,0,-242,36,78,11,-12
1220,4,-246,35,76,10,-11
1225,1,-245,33,76,12,-12
1230,2,-242,36,76,11,-12
1235,1,-245,35,74,11,-14
1240,3,-244,42,72,10,-13
1245,1,-246,36,69,11,-11
1250,4,-246,39,68,11,-13
1255,3,-245,37,67,12,-13
1260,2,-245,39,66,11,-13
1265,3,-244,37,69,13,-14
1270,3,-247,36,68,13,-13
1275,1,-245,35,69,12,-13
1280,2,-247,38,71,13,-12
1285,3,-249,36,74,14,-11
1290,4,-244,33,76,15,-10
1295,3,-245,36,78,13,-10
1300,3,-246,37,80,14,-11
1305,2,-245,35,82,15,-11
1310,2,-245,36,85,16,-11
1315,2,-248,34,87,16,-9
1320,2,-246,38,89,17,-8
1325,1,-246,36,89,18,-8
1330,2,-248,34,90,18,-8
1335,1,-245,38,91,18,-8
1340,0,-246,38,91,18,-9
1345,2,-249,33,91,17,-9
1350,2,-247,34,91,16,-10
1355,3,-247,38,90,17,-8
1360,3,-247,37,88,15,-8
1365,1,-247,38,87,13,-9
1370,2,-247,36,86,12,-10
1375,1,-246,37,84,12,-9
1380,-1,-246,35,84,13,-11
1385,1,-246,37,83,12,-12
1390,3,-246,36,83,13,-10
1395,6,-246,38,81,12,-10
1400,3,-245,38,79,12,-9
1405,1,-246,42,78,11,-8
1410,4,-242,36,76,11,-7
1415,3,-244,36,74,11,-6
1420,4,-247,40,74,10,-6
1425,0,-244,40,73,9,-7
1430,1,-245,37,72,8,-6
1435,3,-246,37,73,9,-6
1440,2,-243,38,74,8,-7
1445,2,-245,36,74,9,-6
1450,3,-246,36,77,10,-6
1455,3,-245,40,79,13,-4
1460,2,-245,38,81,14,-6
1465,2,-245,37,85,16,-6
1470,3,-246,39,88,16,-9
1475,4,-246,37,91,17,-8
1480,3,-246,39,94,19,-9
1485,4,-245,36,93,20,-9
1490,0,-242,40,92,20,-9
1495,3,-246,39,90,19,-9
1500,2,-245,38,87,18,-10
1505,1,-244,41,85,17,-10
1510,2,-244,39,84,17,-8
1515,1,-245,37,83,15,-8
1520,1,-247,38,79,13,-8
1525,2,-245,39,75,10,-9
1530,1,-245,37,71,11,-9
1535,2,-246,36,69,11,-12
1540,1,-243,35,68,11,-11
1545,1,-247,43,69,11,-10
1550,4,-249,37,70,11,-12
1555,4,-245,36,71,11,-12
1560,3,-245,39,72,13,-14
1565,1,-244,41,72,14,-13
1570,3,-246,40,73,14,-13
1575,4,-244,36,76,13,-12
1580,5,-247,39,78,12,-14
1585,2,-249,37,82,12,-14
1590,3,-243,38,81,11,-13
1595,0,-247,39,83,9,-11
1600,2,-243,41,82,9,-9
1605,1,-247,38,82,10,-7
1610,1,-247,40,82,9,-6
1615,0,-246,35,82,12,-9
1620,1,-246,41,82,12,-9
1625,4,-245,37,80,14,-10
1630,1,-241,39,77,14,-10
1635,4,-248,41,75,15,-11
1640,1,-242,39,73,16,-11
1645,2,-245,41,74,16,-11
1650,1,-245,41,74,16,-12
1655,2,-245,39,74,17,-13
1660,3,-245,41,77,15,-13
1665,3,-246,39,77,13,-13
1670,2,-243,38,79,13,-12
1675,1,-243,39,79,12,-10
1680,3,-248,37,79,11,-11
1685,0,-246,38,78,8,-12
1690,1,-242,37,76,8,-13
1695,3,-248,38,75,9,-12
1700,1,-244,39,73,8,-12
1705,5,-246,40,72,9,-10
1710,1,-244,41,70,10,-10
1715,0,-245,37,69,10,-11
1720,1,-248,40,69,9,-11
1725,1,-244,41,71,11,-13
1730,1,-244,38,70,14,-12
1735,3,-247,44,72,12,-13
1740,1,-245,43,73,13,-13
1745,2,-247,43,74,15,-12
1750,3,-245,40,75,15,-12
1755,5,-246,40,76,14,-11
1760,5,-247,40,75,14,-12
1765,3,-247,42,75,14,-12
1770,4,-243,41,74,14,-14
1775,2,-245,40,71,14,-13
1780,4,-248,36,69,14,-12
1785,2,-244,37,65,14,-11
1790,2,-242,39,62,13,-12
1795,2,-244,42,61,12,-11
1800,0,-245,38,59,13,-11
1805,3,-246,39,59,11,-11
1810,1,-244,42,61,10,-12
1815,2,-244,39,62,10,-10
1820,2,-247,37,64,9,-10
1825,3,-244,41,67,8,-11
1830,1,-246,42,69,7,-10
1835,2,-244,41,70,7,-10
1840,3,-246,40,73,6,-12
1845,1,-245,37,74,5,-10
1850,4,-246,43,75,6,-10
1855,2,-244,38,74,8,-10
1860,5,-246,38,73,9,-9
1865,4,-248,40,72,10,-11
1870,0,-246,38,69,11,-9
1875,5,-244,38,67,12,-8
1880,3,-243,43,66,12,-9
1885,0,-246,42,64,12,-10
1890,2,-244,39,64,11,-9
1895,4,-246,41,63,12,-9
1900,1,-244,41,63,9,-10
1905,2,-246,43,64,8,-10
1910,3,-247,42,64,8,-10
1915,4,-246,36,65,9,-10
1920,1,-242,40,65,9,-9
1925,2,-242,42,67,9,-9
1930,2,-244,41,65,9,-9
1935,1,-244,41,66,10,-8
1940,1,-247,38,65,10,-8
1945,0,-245,39,64,10,-11
1950,4,-246,44,64,11,-9
1955,3,-246,40,65,11,-9
1960,0,-246,39,66,11,-9
1965,1,-246,44,66,11,-10
1970,0,-247,40,67,12,-10
1975,2,-247,40,66,12,-9
1980,3,-244,41,68,13,-11
1985,1,-244,36,69,14,-11
1990,0,-246,41,69,14,-10
1995,2,-245,42,68,14,-9
2000,4,-246,40,68,14,-10
2005,2,-245,37,66,15,-9
2010,3,-244,45,64,13,-10
2015,4,-245,42,63,13,-10
2020,5,-245,44,61,13,-10
2025,3,-246,44,59,12,-9
2030,2,-243,39,57,11,-8
2035,2,-245,41,55,11,-8
2040,3,-245,40,55,12,-7
2045,4,-245,41,53,12,-8
2050,2,-244,37,54,11,-8
2055,4,-241,38,55,9,-10
2060,1,-244,39,54,10,-9
2065,3,-244,44,55,11,-9
2070,0,-242,40,56,12,-9
2075,3,-247,40,59,13,-9
2080,2,-243,43,59,13,-9
2085,2,-246,42,59,13,-9
2090,2,-247,39,60,14,-10
2095,0,-245,44,60,13,-10
2100,0,-243,41,59,15,-9
2105,2,-244,37,59,15,-7
2110,1,-244,43,59,15,-8
2115,1,-244,38,59,15,-9
2120,4,-244,40,59,15,-9
2125,3,-245,42,58,16,-8
2130,4,-246,40,56,15,-8
2135,0,-244,37,56,15,-8
2140,2,-245,44,55,15,-7
2145,2,-243,43,54,14,-8
2150,1,-242,40,56,15,-8
2155,4,-246,38,55,13,-9
2160,2,-243,42,54,12,-8
2165,1,-246,42,54,11,-9
2170,1,-247,40,55,12,-9
2175,3,-248,42,54,11,-8
2180,2,-243,42,56,12,-7
2185,2,-244,38,56,11,-7
2190,1,-247,40,57,12,-7
2195,3,-245,44,58,12,-8
2200,2,-245,42,58,12,-7
2205,3,-246,42,60,12,-6
2210,1,-249,40,60,12,-7
2215,2,-244,39,59,11,-9
2220,4,-246,41,60,12,-9
2225,3,-243,39,60,12,-9
2230,1,-244,41,61,11,-9
2235,1,-243,42,61,11,-8
2240,4,-243,46,60,11,-6
2245,0,-244,40,61,11,-9
2250,2,-244,37,58,12,-9
2255,1,-246,37,57,11,-7
2260,2,-243,33,57,11,-7
2265,4,-247,40,58,11,-6
2270,1,-246,39,58,11,-9
2275,2,-244,39,58,12,-8
2280,2,-244,37,59,11,-7
2285,0,-246,40,58,11,-7
2290,2,-248,41,57,11,-7
2295,2,-247,43,58,11,-6
2300,0,-245,40,59,10,-7
2305,3,-243,38,57,11,-6
2310,7,-241,42,59,11,-7
2315,1,-245,41,57,11,-7
2320,0,-243,41,57,10,-6
2325,4,-246,39,58,10,-7
2330,4,-247,38,57,11,-6
2335,5,-243,42,59,10,-6
2340,1,-247,39,59,11,-6
2345,2,-244,41,59,10,-6
2350,1,-245,44,60,9,-6
2355,1,-247,43,60,9,-7
2360,0,-247,42,60,10,-6
2365,3,-245,40,60,11,-6
2370,2,-246,41,60,11,-5
2375,1,-242,44,59,12,-5
2380,1,-243,38,59,12,-5
2385,1,-244,40,60,12,-6
2390,4,-248,44,59,11,-7
2395,-1,-246,41,60,12,-8
2400,4,-245,42,59,11,-5
2405,2,-246,39,58,12,-7
2410,4,-243,43,58,12,-7
2415,2,-246,42,56,13,-8
2420,1,-244,44,56,11,-7
2425,2,-244,40,55,12,-9
2430,1,-243,42,55,11,-7
2435,0,-243,41,55,11,-9
2440,3,-246,42,56,11,-8
2445,1,-246,40,56,10,-8
2450,3,-246,41,57,10,-8
2455,0,-245,41,56,11,-10
2460,1,-247,41,57,12,-10
2465,1,-247,38,58,13,-10
2470,1,-245,42,59,12,-11
2475,-1,-245,46,60,12,-9
2480,2,-246,43,61,12,-9
2485,2,-245,43,61,13,-9
2490,1,-245,40,62,12,-9
2495,1,-245,43,63,13,-9
2500,3,-246,44,62,13,-9
2505,2,-247,39,63,13,-8
2510,1,-245,42,62,13,-11
2515,1,-247,40,61,12,-9
2520,3,-246,44,60,12,-7
2525,2,-246,42,60,11,-8
2530,3,-245,38,60,12,-10
2535,3,-245,38,60,10,-8
2540,1,-243,43,59,9,-9
2545,1,-242,42,59,9,-9
2550,4,-248,39,58,8,-10
2555,3,-247,42,61,7,-11
2560,0,-246,38,61,8,-9
2565,0,-246,43,61,9,-12
2570,2,-246,40,64,8,-11
2575,2,-246,42,65,10,-10
2580,2,-246,40,66,12,-10
2585,3,-246,39,67,13,-10
2590,4,-248,45,68,16,-11
2595,0,-243,42,68,17,-10
2600,2,-247,40,66,17,-9
2605,2,-243,43,65,16,-9
2610,2,-245,40,62,17,-10
2615,3,-245,41,62,15,-9
2620,1,-246,43,63,14,-10
2625,3,-247,43,64,14,-9
2630,2,-244,41,65,11,-10
2635,0,-243,43,63,10,-10
2640,2,-243,42,63,8,-11
2645,0,-242,41,60,7,-10
2650,0,-246,40,60,9,-9
2655,1,-244,44,62,8,-12
2660,2,-244,44,64,7,-12
2665,0,-245,40,65,10,-12
2670,1,-246,42,64,11,-13
2675,2,-246,40,63,11,-12
2680,1,-245,40,64,12,-11
2685,3,-247,41,66,12,-12
2690,3,-246,36,65,12,-13
2695,1,-246,43,65,11,-13
2700,0,-244,42,64,10,-11
2705,3,-247,42,64,8,-10
2710,2,-243,39,61,8,-13
2715,1,-245,39,61,6,-11
2720,0,-245,39,59,6,-11
2725,0,-246,39,60,7,-11
2730,2,-245,40,61,7,-12
2735,4,-249,43,60,9,-11
2740,2,-255,31,59,9,-15
2745,1,-245,45,59,13,-16
2750,1,-243,41,58,14,-16
2755,0,-245,45,57,16,-19
2760,0,-244,40,57,17,-18
2765,1,-245,41,56,20,-18
2770,3,-245,38,55,22,-15
2775,4,-247,40,49,22,-16
2780,3,-249,34,43,22,-14
2785,3,-248,40,34,22,-14
2790,0,-239,46,24,21,-13
2795,2,-244,41,9,19,-10
2800,3,-244,42,-13,16,-7
2805,1,-240,41,-39,14,-2
2810,4,-240,46,-72,12,2
2815,2,-241,45,-115,10,4
2820,4,-239,49,-164,10,8
2825,2,-237,48,-224,11,11
2830,3,-234,44,-291,13,14
2835,3,-235,43,-358,18,23
2840,1,-236,35,-412,20,28
2845,3,-237,31,-447,22,31
2850,4,-240,29,-460,25,37
2855,4,-240,23,-464,34,34
2860,3,-237,17,-460,46,28
2865,0,-237,16,-453,62,23
2870,1,-242,21,-438,68,14
2875,0,-241,19,-421,68,10
2880,-3,-238,23,-400,65,2
2885,0,-240,27,-381,57,-4
2890,3,-240,24,-366,46,-10
2895,-1,-237,26,-357,38,-10
2900,1,-238,22,-358,36,-15
2905,1,-235,24,-370,39,-16
2910,2,-237,22,-390,51,-17
2915,5,-238,27,-412,64,-17
2920,1,-239,27,-433,79,-17
2925,1,-239,24,-450,88,-14
2930,-2,-238,31,-461,93,-15
2935,2,-239,32,-463,90,-15
2940,2,-242,29,-459,84,-15
2945,1,-243,35,-455,78,-14
2950,1,-239,32,-449,66,-16
2955,1,-239,34,-441,51,-17
2960,2,-239,33,-436,33,-15
2965,1,-237,29,-436,20,-13
2970,1,-238,30,-440,13,-11
2975,0,-236,31,-450,7,-8
2980,2,-239,29,-465,7,-8
2985,2,-236,28,-482,10,-7
2990,1,-237,30,-498,13,-9
2995,0,-236,35,-513,19,-8
3000,-1,-236,31,-529,24,-8
3005,-1,-236,32,-544,30,-10
3010,0,-237,29,-554,32,-15
3015,-1,-238,31,-563,28,-18
3020,1,-237,26,-573,27,-20
3025,0,-235,32,-584,28,-23
3030,-2,-235,30,-596,28,-20
3035,2,-234,26,-608,30,-19
3040,0,-232,27,-623,36,-22
3045,2,-231,25,-640,38,-25
3050,1,-233,22,-663,41,-25
3055,1,-233,22,-685,46,-27
3060,2,-235,24,-710,52,-29
3065,5,-238,24,-734,56,-27
3070,4,-236,19,-759,61,-28
3075,0,-237,19,-784,62,-28
3080,2,-233,16,-806,60,-25
3085,4,-240,19,-825,62,-24
3090,4,-237,15,-844,63,-24
3095,5,-240,11,-862,64,-25
3100,4,-236,16,-882,66,-24
3105,5,-237,11,-900,65,-24
3110,4,-235,12,-919,63,-26
3115,4,-234,8,-937,61,-24
3120,4,-235,7,-959,57,-25
3125,3,-227,6,-985,58,-27
3130,2,-228,2,-1015,57,-28
3135,4,-230,-1,-1043,53,-28
3140,5,-230,0,-1073,50,-33
3145,6,-230,-4,-1108,50,-32
3150,3,-225,-1,-1145,54,-30
3155,3,-227,-6,-1185,55,-35
3160,4,-227,-4,-1221,52,-41
3165,2,-227,-5,-1254,49,-50
3170,0,-224,-8,-1291,47,-51
3175,4,-231,-9,-1328,46,-53
3180,5,-230,-10,-1361,45,-60
3185,2,-226,-12,-1395,42,-67
3190,2,-228,-14,-1427,41,-74
3195,1,-224,-18,-1464,44,-80
3200,3,-231,-18,-1508,48,-83
3205,4,-230,-22,-1551,48,-84
3210,5,-230,-25,-1595,54,-86
3215,5,-232,-23,-1641,59,-88
3220,5,-233,-22,-1692,62,-79
3225,6,-234,-22,-1743,67,-73
3230,6,-232,-25,-1788,65,-68
3235,5,-235,-24,-1835,64,-63
3240,7,-238,-21,-1876,57,-61
3245,4,-237,-26,-1925,55,-59
3250,1,-240,-21,-1975,45,-61
3255,0,-240,-24,-2020,32,-67
3260,3,-251,-27,-2057,17,-80
3265,3,-255,-28,-2089,2,-96
3270,5,-254,-31,-2113,-4,-114
3275,2,-256,-33,-2137,-9,-137
3280,5,-257,-34,-2158,0,-156
3285,9,-263,-41,-2172,5,-180
3290,7,-263,-47,-2177,15,-206
3295,10,-262,-47,-2172,20,-232
3300,9,-267,-52,-2157,30,-253
3305,10,-274,-58,-2129,40,-277
3310,13,-283,-62,-2082,45,-299
3315,24,-287,-66,-2025,55,-317
3320,23,-291,-68,-1962,73,-325
3325,20,-296,-68,-1895,101,-313
3330,19,-306,-83,-1822,113,-298
3335,23,-309,-88,-1743,127,-274
3340,22,-315,-98,-1659,134,-248
3345,25,-317,-111,-1562,132,-226
3350,21,-317,-122,-1451,117,-214
3355,17,-310,-134,-1333,96,-203
3360,15,-305,-154,-1210,75,-197
3365,16,-305,-174,-1094,56,-197
3370,11,-303,-187,-987,42,-202
3375,-1,-300,-199,-892,32,-217
3380,-2,-299,-215,-806,21,-231
3385,-12,-297,-226,-730,14,-239
3390,-11,-306,-237,-660,9,-238
3395,-10,-307,-237,-594,-1,-226
3400,-5,-316,-236,-516,-18,-211
3405,-2,-317,-232,-425,-41,-196
3410,3,-321,-231,-320,-62,-179
3415,5,-320,-225,-202,-80,-160
3420,8,-318,-217,-78,-97,-137
3425,14,-317,-206,45,-110,-111
3430,15,-311,-205,161,-120,-83
3435,16,-306,-198,261,-126,-54
3440,19,-302,-191,337,-130,-30
3445,23,-289,-192,388,-130,-7
3450,21,-276,-192,412,-133,6
3455,27,-264,-190,406,-136,14
3460,28,-257,-188,375,-142,17
3465,26,-251,-190,325,-150,11
3470,30,-247,-187,262,-158,1
3475,24,-245,-187,198,-162,-8
3480,24,-239,-188,134,-167,-21
3485,23,-237,-185,74,-170,-31
3490,18,-227,-179,19,-173,-44
3495,19,-226,-182,-22,-174,-58
3500,19,-229,-172,-50,-168,-67
3505,17,-228,-171,-68,-155,-74
3510,16,-222,-172,-75,-138,-77
3515,12,-219,-171,-71,-115,-72
3520,12,-222,-166,-59,-91,-64
3525,10,-223,-163,-37,-68,-54
3530,6,-218,-161,-7,-42,-38
3535,10,-215,-159,30,-17,-27
3540,9,-212,-158,70,5,-13
3545,13,-212,-158,111,26,1
3550,9,-206,-155,150,52,13
3555,13,-208,-156,184,73,28
3560,10,-201,-160,216,91,41
3565,14,-201,-154,243,105,50
3570,12,-202,-154,265,115,59
3575,9,-201,-159,284,124,66
3580,10,-201,-158,302,130,73
3585,5,-202,-157,317,132,77
3590,3,-200,-160,332,133,81
3595,3,-201,-161,345,133,89
3600,1,-201,-155,361,129,89
3605,-1,-201,-166,383,116,84
3610,0,-206,-165,406,112,85
3615,0,-207,-167,433,107,84
3620,1,-208,-166,464,94,80
3625,0,-209,-166,500,79,73
3630,5,-214,-173,534,62,65
3635,1,-215,-169,571,46,57
3640,2,-216,-167,611,30,49
3645,4,-216,-168,653,16,40
3650,4,-210,-166,692,2,35
3655,6,-214,-167,725,-11,30
3660,7,-213,-160,755,-22,25
3665,6,-211,-156,778,-35,21
3670,6,-210,-151,799,-50,17
3675,5,-207,-146,819,-61,13
3680,5,-203,-147,837,-69,13
3685,5,-200,-142,848,-74,13
3690,1,-195,-141,856,-77,17
3695,-1,-194,-140,857,-76,22
3700,1,-192,-134,852,-71,24
3705,0,-189,-141,846,-69,26
3710,2,-188,-136,830,-61,30
3715,0,-181,-139,812,-52,31
3720,1,-185,-137,791,-42,31
3725,0,-179,-138,764,-33,33
3730,1,-177,-136,738,-26,38
3735,2,-178,-132,718,-20,45
3740,3,-175,-133,698,-14,52
3745,7,-177,-132,679,-5,60
3750,1,-175,-126,666,4,67
3755,3,-175,-126,659,16,72
3760,7,-175,-125,657,27,76
3765,6,-170,-121,661,37,80
3770,9,-173,-117,668,45,83
3775,9,-170,-119,674,51,84
3780,10,-167,-113,684,53,86
3785,13,-169,-114,695,57,83
3790,13,-166,-110,702,59,81
3795,16,-157,-109,706,60,80
3800,15,-154,-108,706,62,81
3805,17,-155,-107,702,65,82
3810,20,-152,-104,696,70,83
3815,19,-150,-101,688,75,83
3820,19,-144,-103,676,78,86
3825,18,-142,-103,663,80,87
3830,17,-140,-102,650,83,89
3835,17,-131,-99,637,86,88
3840,16,-128,-98,624,92,88
3845,14,-126,-97,609,95,85
3850,15,-124,-100,593,98,81
3855,13,-119,-96,580,101,81
3860,10,-116,-97,560,106,78
3865,9,-114,-98,535,110,74
3870,12,-123,-98,511,115,71
3875,8,-110,-102,484,117,67
3880,8,-109,-105,452,120,65
3885,11,-109,-108,414,121,63
3890,11,-108,-109,368,125,57
3895,10,-109,-109,317,131,52
3900,11,-109,-108,268,135,48
3905,9,-109,-111,220,136,43
3910,10,-113,-119,172,135,38
3915,10,-114,-119,131,133,34
3920,13,-116,-122,93,131,31
3925,9,-117,-119,60,126,27
3930,14,-119,-120,35,121,23
3935,14,-124,-122,15,117,20
3940,8,-124,-118,1,113,18
3945,14,-126,-121,-8,109,15
3950,9,-126,-123,-19,104,13
3955,11,-130,-120,-37,102,8
3960,14,-131,-118,-62,98,5
3965,10,-133,-124,-98,95,4
3970,13,-135,-120,-139,93,1
3975,11,-135,-125,-182,94,0
3980,14,-143,-120,-223,92,1
3985,11,-146,-121,-255,92,4
3990,12,-155,-126,-280,88,9
3995,9,-157,-121,-294,83,14
4000,10,-163,-118,-293,78,22
4005,8,-166,-119,-280,72,29
4010,7,-169,-121,-259,68,37
4015,6,-173,-122,-228,63,44
4020,10,-180,-118,-192,58,49
4025,6,-179,-120,-157,53,55
4030,8,-178,-119,-121,48,59
4035,8,-179,-120,-87,41,61
4040,8,-179,-119,-60,32,62
4045,10,-176,-119,-40,23,63
4050,10,-180,-119,-27,12,61
4055,5,-179,-123,-23,-1,59
4060,12,-183,-124,-28,-11,56
4065,10,-180,-122,-42,-22,49
4070,8,-180,-129,-61,-29,41
4075,11,-181,-127,-85,-32,35
4080,12,-179,-128,-115,-30,27
4085,10,-177,-130,-142,-28,19
4090,10,-184,-130,-167,-26,13
4095,9,-178,-128,-186,-23,6
4100,10,-177,-127,-199,-22,1
4105,7,-179,-126,-208,-23,-4
4110,6,-177,-119,-217,-24,-6
4115,5,-176,-125,-227,-26,-5
4120,4,-174,-127,-244,-28,-5
4125,1,-172,-124,-270,-29,-5
4130,0,-174,-124,-307,-31,-4
4135,1,-172,-127,-350,-33,-5
4140,2,-177,-132,-399,-33,-3
4145,3,-183,-132,-454,-38,-1
4150,0,-184,-134,-510,-41,-1
4155,4,-186,-136,-564,-44,2
4160,4,-191,-133,-614,-43,7
4165,1,-191,-132,-653,-38,10
4170,-1,-195,-132,-681,-32,13
4175,0,-196,-131,-695,-28,16
4180,0,-202,-127,-694,-24,18
4185,0,-204,-124,-681,-25,20
4190,1,-204,-115,-654,-27,19
4195,2,-209,-104,-613,-31,18
4200,0,-206,-106,-561,-34,17
4205,3,-207,-105,-503,-38,17
4210,4,-203,-104,-441,-41,13
4215,1,-203,-99,-378,-46,10
4220,3,-203,-96,-315,-49,5
4225,9,-201,-99,-255,-53,2
4230,8,-197,-96,-200,-53,-1
4235,9,-197,-98,-152,-57,-5
4240,9,-190,-98,-112,-63,-9
4245,8,-187,-98,-77,-71,-16
4250,11,-187,-100,-49,-80,-19
4255,10,-181,-105,-27,-88,-28
4260,9,-180,-103,-16,-96,-32
4265,11,-174,-107,-15,-104,-37
4270,8,-173,-111,-21,-109,-39
4275,11,-171,-113,-37,-111,-40
4280,11,-173,-113,-57,-110,-44
4285,11,-171,-117,-78,-116,-47
4290,8,-172,-116,-98,-126,-46
4295,6,-173,-116,-117,-139,-44
4300,3,-175,-119,-137,-155,-45
4305,6,-177,-119,-153,-173,-42
4310,7,-177,-122,-171,-191,-36
4315,2,-181,-125,-184,-206,-29
4320,1,-184,-126,-195,-216,-19
4325,2,-190,-121,-199,-226,-12
4330,2,-195,-124,-197,-228,-6
4335,4,-198,-125,-182,-226,6
4340,1,-204,-122,-152,-218,16
4345,2,-211,-119,-102,-210,23
4350,1,-213,-117,-40,-201,29
4355,0,-222,-105,41,-186,30
4360,0,-223,-107,143,-171,34
4365,-5,-227,-101,257,-157,37
4370,0,-232,-99,381,-144,39
4375,1,-229,-98,504,-131,42
4380,2,-232,-96,619,-117,43
4385,1,-232,-95,721,-105,42
4390,6,-233,-97,814,-100,46
4395,4,-232,-93,891,-96,53
4400,0,-236,-98,955,-113,48
4405,-2,-237,-97,1003,-143,36
4410,0,-243,-95,1047,-178,27
4415,0,-255,-87,1082,-222,19
4420,-3,-266,-80,1125,-262,9
4425,-4,-277,-79,1194,-294,9
4430,-1,-300,-62,1297,-323,3
4435,-18,-328,-33,1442,-345,-8
4440,-35,-383,0,1626,-365,-5
4445,-42,-472,9,1835,-391,-7
4450,-55,-590,28,2045,-449,-23
4455,-20,-767,10,2294,-498,-52
4460,-43,-866,-132,2499,-406,-122
4465,50,-793,-303,2457,-295,-148
4470,-63,-587,-432,2164,-210,-21
4475,-55,-455,-458,1947,-292,-27
4480,18,-367,-425,1694,-307,-30
4485,-122,-402,-367,1306,-36,-17
4490,-66,-450,-311,1009,69,-62
4495,-11,-451,-225,766,206,-86
4500,-7,-446,-155,592,362,-22
4505,-11,-442,-74,465,472,95
4510,-1,-442,-18,395,512,207
4515,5,-444,20,394,496,295
4520,10,-440,57,453,445,340
4525,14,-433,79,529,368,342
4530,20,-418,104,593,286,316
4535,24,-389,125,640,203,271
4540,33,-352,135,696,129,202
4545,29,-309,135,766,70,120
4550,25,-261,127,851,12,39
4555,20,-205,123,941,-51,-25
4560,11,-153,98,1018,-104,-60
4565,5,-110,68,1067,-133,-83
4570,3,-82,49,1082,-141,-94
4575,-2,-67,37,1064,-139,-107
4580,0,-63,19,1027,-127,-125
4585,-6,-66,5,983,-105,-139
4590,-13,-79,1,953,-79,-152
4595,-16,-94,-2,952,-51,-156
4600,-20,-107,-7,989,-24,-152
4605,-22,-122,-7,1057,10,-141
4610,-22,-134,1,1156,43,-131
4615,-18,-147,3,1277,74,-120
4620,-11,-155,9,1402,107,-105
4625,-3,-164,15,1519,142,-90
4630,2,-166,14,1619,174,-75
4635,0,-172,17,1693,198,-55
4640,4,-170,17,1735,208,-33
4645,9,-175,15,1747,200,-10
4650,10,-183,18,1729,178,9
4655,10,-186,16,1694,141,21
4660,14,-192,8,1645,101,22
4665,15,-199,6,1582,64,17
4670,18,-211,-8,1504,34,8
4675,15,-226,-11,1405,9,-2
4680,18,-233,-21,1292,-4,-10
4685,12,-247,-30,1179,-12,-13
4690,9,-261,-33,1068,-14,-11
4695,8,-275,-38,967,-9,-7
4700,5,-291,-38,881,1,-2
4705,3,-301,-45,805,13,8
4710,-1,-310,-46,740,27,16
4715,-6,-321,-40,679,45,25
4720,-10,-327,-42,625,63,34
4725,-12,-333,-42,579,80,39
4730,-12,-332,-41,543,95,43
4735,-9,-329,-35,518,105,47
4740,-8,-325,-28,499,110,47
4745,-5,-319,-23,491,112,44
4750,-3,-311,-20,490,108,42
4755,-1,-304,-18,492,101,35
4760,0,-291,-14,498,94,29
4765,1,-276,-8,503,88,19
4770,1,-260,-9,510,84,1
4775,3,-251,-3,512,79,-16
4780,3,-239,1,507,74,-33
4785,8,-226,3,491,70,-46
4790,4,-215,5,462,67,-54
4795,4,-207,14,425,64,-53
4800,4,-201,21,384,59,-51
4805,4,-198,21,342,54,-45
4810,5,-192,26,299,50,-36
4815,3,-192,26,255,51,-24
4820,1,-190,28,215,51,-12
4825,0,-193,33,174,51,-5
4830,0,-192,29,138,48,2
4835,-1,-197,31,105,49,6
4840,-4,-198,28,76,47,8
4845,-3,-207,31,52,43,7
4850,-4,-212,25,37,38,7
4855,-7,-216,33,30,34,5
4860,-8,-220,33,28,29,5
4865,-10,-226,30,35,25,4
4870,-8,-234,32,48,20,4
4875,-10,-231,32,65,18,6
4880,-7,-241,34,89,14,8
4885,-8,-244,32,115,12,9
4890,-8,-250,30,144,9,12
4895,-6,-254,32,173,2,14
4900,-6,-251,36,200,-4,17
4905,-3,-259,29,223,-9,18
4910,0,-259,29,244,-16,16
4915,-4,-258,27,258,-24,15
4920,-6,-261,25,270,-33,19
4925,-5,-261,22,276,-40,19
4930,-5,-261,27,277,-48,17
4935,-7,-261,21,277,-56,19
4940,-3,-261,25,271,-62,17
4945,-2,-257,21,264,-69,17
4950,-5,-258,17,253,-74,15
4955,-5,-258,17,242,-79,13
4960,-8,-255,16,230,-84,10
4965,-3,-256,18,216,-84,5
4970,-7,-254,17,204,-86,1
4975,-8,-254,18,191,-83,-6
4980,-9,-253,15,181,-80,-9
4985,-10,-248,19,172,-76,-13
4990,-7,-249,16,165,-70,-17
4995,-8,-248,12,154,-62,-19
5000,-8,-247,16,148,-57,-23
5005,-3,-245,10,141,-51,-24
5010,-7,-243,9,135,-44,-23
5015,-10,-242,4,126,-35,-26
5020,-4,-240,4,116,-29,-27
5025,-6,-236,0,109,-25,-28
5030,-7,-235,1,98,-16,-28
5035,-6,-232,0,84,-12,-27
5040,-4,-233,-1,68,-9,-27
5045,-5,-235,0,52,-6,-26
5050,-6,-233,-2,36,-4,-25
5055,-6,-234,-8,20,-4,-22
5060,-1,-237,-1,3,-1,-21
5065,-1,-238,-1,-12,2,-20
5070,-2,-238,-2,-25,6,-17
5075,1,-244,0,-34,8,-16
5080,-3,-242,3,-41,9,-18
5085,-2,-246,3,-45,13,-20
5090,-3,-250,2,-47,17,-19
5095,0,-250,5,-43,19,-24
5100,-3,-249,3,-37,22,-26
5105,-4,-249,2,-29,25,-28
5110,-3,-253,7,-20,28,-30
5115,-2,-253,6,-8,32,-31
5120,-1,-256,7,3,34,-34
5125,-7,-251,9,15,33,-34
5130,-2,-255,10,26,33,-34
5135,-1,-254,9,34,34,-32
5140,0,-253,4,40,33,-32
5145,-4,-253,12,44,33,-29
5150,0,-253,10,47,35,-29
5155,-3,-253,8,46,37,-28
5160,-3,-255,12,44,39,-25
5165,-5,-249,12,39,40,-24
5170,0,-251,15,33,43,-22
5175,0,-254,16,26,45,-22
5180,-3,-254,19,21,49,-20
5185,0,-250,15,15,51,-21
5190,-2,-251,16,10,51,-21
5195,0,-253,18,8,52,-22
5200,-2,-252,17,8,51,-21
5205,0,-252,17,7,47,-22
5210,0,-250,17,6,44,-23
5215,2,-250,16,6,39,-23
5220,3,-248,17,7,37,-26
5225,1,-247,14,8,32,-28
5230,0,-246,15,8,29,-29
5235,1,-244,14,7,28,-30
5240,0,-242,13,8,25,-30
5245,1,-246,11,7,25,-30
5250,-1,-240,12,7,23,-30
5255,1,-245,11,6,22,-30
5260,-3,-245,9,6,22,-31
5265,0,-243,5,6,22,-28
5270,-3,-247,11,6,21,-28
5275,3,-242,4,7,19,-29
5280,-2,-246,10,5,18,-28
5285,-2,-246,10,5,17,-30
5290,-1,-246,12,5,16,-29
5295,-3,-247,6,4,15,-28
5300,-3,-247,6,2,12,-30
5305,-2,-245,9,2,11,-29
5310,0,-247,9,-1,10,-29
5315,0,-247,6,-3,7,-30
5320,-4,-246,6,-5,7,-30
5325,-1,-248,5,-8,5,-30
5330,0,-249,4,-12,5,-30
5335,-2,-244,7,-15,5,-31
5340,-2,-248,3,-17,4,-32
5345,0,-250,5,-18,2,-32
5350,-2,-251,4,-18,2,-32
5355,-2,-252,1,-18,1,-30
5360,0,-249,4,-17,1,-29
5365,-1,-250,2,-18,4,-27
5370,-1,-253,2,-18,7,-27
5375,0,-254,2,-15,10,-25
5380,-5,-252,0,-12,11,-24
5385,-2,-251,1,-8,11,-24
5390,0,-251,1,-5,13,-22
5395,0,-250,6,-1,14,-20
5400,-1,-251,4,2,15,-21
5405,0,-246,3,4,14,-18
5410,-1,-251,2,6,16,-18
5415,0,-248,6,8,16,-17
5420,-2,-245,4,9,14,-17
5425,-1,-248,4,8,13,-17
5430,-1,-249,4,5,11,-18
5435,-1,-246,6,3,10,-18
5440,0,-245,6,0,8,-17
5445,0,-247,2,-4,7,-19
5450,0,-249,7,-8,5,-19
5455,-2,-248,4,-12,4,-22
5460,-1,-248,2,-14,3,-22
5465,0,-249,0,-17,2,-25
5470,0,-249,4,-17,2,-27
5475,-4,-249,4,-16,1,-26
5480,-3,-249,5,-16,0,-26
5485,0,-252,5,-13,1,-26
5490,0,-248,3,-10,0,-27
5495,-2,-251,4,-5,-1,-28
5500,0,-250,5,-2,-1,-28
5505,0,-250,5,4,-2,-27
5510,0,-250,4,9,-3,-28
5515,-1,-250,3,12,-5,-27
5520,-2,-249,6,17,-6,-28
5525,-3,-249,3,19,-6,-27
5530,-6,-249,4,21,-8,-27
5535,0,-251,3,22,-8,-28
5540,0,-253,5,26,-7,-28
5545,-3,-247,8,30,-6,-28
5550,0,-248,7,33,-4,-29
5555,0,-250,3,34,-2,-28
5560,-2,-249,3,36,-2,-27
5565,0,-251,5,36,1,-28
5570,-1,-252,5,35,2,-27
5575,0,-247,7,36,2,-27
5580,0,-248,7,37,3,-28
5585,1,-251,5,34,5,-26
5590,-2,-249,1,32,4,-26
5595,0,-247,4,29,4,-26
5600,0,-250,2,29,4,-25
5605,1,-249,2,28,4,-24
5610,0,-250,3,28,3,-26
5615,-1,-249,1,28,5,-26
5620,-3,-247,2,27,3,-26
5625,0,-246,3,26,3,-26
5630,-2,-249,5,25,4,-27
5635,0,-250,1,27,5,-28
5640,0,-249,5,28,6,-27
5645,0,-249,3,30,8,-28
5650,-2,-250,4,32,8,-28
5655,-1,-249,1,34,7,-28
5660,-1,-248,3,36,7,-29
5665,1,-247,1,41,9,-30
5670,2,-250,1,45,11,-32
5675,-1,-247,1,48,11,-33
5680,0,-249,5,52,11,-35
5685,-1,-247,1,54,11,-37
5690,2,-251,4,56,12,-36
5695,2,-252,2,57,12,-35
5700,0,-250,3,56,12,-35
5705,1,-250,1,57,11,-33
5710,1,-251,4,56,11,-33
5715,1,-251,3,54,13,-33
5720,0,-247,7,51,15,-32
5725,0,-248,4,49,15,-32
5730,-1,-247,4,51,15,-33
5735,1,-251,4,53,12,-34
5740,1,-250,5,58,13,-33
5745,3,-248,6,64,11,-33
5750,1,-253,2,68,12,-32
5755,0,-252,0,75,13,-31
5760,0,-248,-1,81,13,-31
5765,0,-249,6,88,14,-31
5770,1,-250,3,96,16,-34
5775,1,-249,3,102,15,-33
5780,1,-250,3,106,16,-31
5785,-2,-249,4,108,17,-30
5790,1,-248,3,108,16,-29
5795,0,-247,5,106,18,-29
5800,1,-247,5,103,20,-29
5805,0,-248,0,97,20,-28
5810,1,-246,9,92,21,-28
5815,3,-247,3,87,20,-28
5820,0,-246,6,82,21,-27
5825,1,-248,5,77,21,-26
5830,0,-245,5,74,23,-26
5835,1,-247,3,69,22,-26
5840,3,-250,4,66,23,-25
5845,0,-247,7,63,22,-26
5850,1,-248,4,63,22,-26
5855,0,-251,3,63,23,-26
5860,3,-247,2,65,22,-25
5865,5,-251,3,63,23,-25
5870,2,-250,1,63,21,-24
5875,1,-251,4,65,19,-24
5880,1,-252,3,66,18,-24
5885,0,-249,4,68,17,-23
5890,0,-248,5,69,17,-21
5895,2,-249,4,71,16,-22
5900,0,-247,3,70,16,-22
5905,0,-251,5,71,16,-21
5910,1,-249,2,72,14,-21
5915,0,-249,1,74,15,-21
5920,1,-248,2,76,14,-22
5925,3,-247,4,77,12,-22
5930,0,-252,1,79,11,-21
5935,4,-251,1,79,10,-22
5940,2,-249,2,78,10,-21
5945,2,-252,2,79,11,-21
5950,-1,-249,4,79,13,-22
5955,1,-248,2,79,16,-23
5960,0,-252,2,78,16,-22
5965,1,-250,4,80,19,-23
5970,3,-250,5,80,21,-23
5975,1,-251,4,82,22,-22
5980,3,-252,5,82,21,-22
5985,2,-247,5,81,21,-21
5990,0,-249,4,81,18,-22
5995,1,-246,4,80,17,-20
6000,2,-251,5,79,16,-20
6005,1,-246,8,77,14,-17
6010,0,-250,5,79,14,-17
6015,2,-251,8,79,14,-15
6020,2,-248,5,79,13,-16
6025,-1,-248,4,79,14,-16
6030,1,-248,6,82,16,-15
6035,0,-250,10,83,17,-15
6040,1,-249,8,86,18,-17
6045,-1,-248,6,86,18,-20
6050,0,-248,7,87,18,-21
6055,0,-249,7,88,16,-23
6060,0,-246,6,88,16,-21
6065,0,-248,7,88,14,-24
6070,0,-246,8,90,14,-28
6075,-1,-249,6,89,15,-29
6080,0,-249,9,89,14,-29
6085,1,-247,8,88,12,-28
6090,0,-246,5,87,11,-30
6095,1,-246,6,85,9,-30
6100,-2,-246,5,84,7,-30
6105,0,-247,4,81,6,-29
6110,-1,-247,7,80,4,-29
6115,1,-248,6,78,3,-30
6120,1,-249,8,74,1,-27
6125,-2,-248,9,71,1,-27
6130,7,-247,4,68,-2,-28
6135,-2,-246,7,65,-3,-25
6140,0,-247,8,65,-5,-26
6145,2,-246,7,63,-5,-26
6150,0,-248,10,62,-4,-24
6155,-2,-247,8,62,-5,-28
6160,2,-249,8,61,-7,-27
6165,0,-247,5,61,-7,-26
6170,-5,-240,10,60,-8,-26
6175,2,-247,6,59,-9,-27
6180,1,-243,5,57,-7,-29
6185,1,-248,6,55,-6,-28
6190,1,-245,6,53,-7,-26
6195,1,-249,7,52,-8,-28
6200,2,-250,8,51,-6,-27
6205,1,-248,7,51,-5,-26
6210,2,-248,8,52,-4,-26
6215,4,-251,2,53,-4,-27
6220,4,-249,5,53,-3,-24
6225,3,-250,10,54,-3,-24
6230,4,-249,9,55,-1,-24
6235,4,-250,6,54,0,-24
6240,6,-247,5,52,1,-24
6245,2,-248,5,51,2,-23
6250,6,-250,9,50,3,-20
6255,7,-252,6,51,4,-20
6260,2,-248,8,49,6,-20
6265,4,-249,10,48,8,-18
6270,8,-247,5,49,8,-17
6275,4,-248,6,46,10,-17
6280,6,-249,7,45,12,-15
6285,2,-248,7,44,14,-14
6290,5,-246,11,45,14,-11
6295,5,-248,4,43,15,-11
6300,4,-249,5,41,16,-9
6305,5,-248,7,41,17,-8
6310,4,-248,4,43,17,-6
6315,4,-252,7,45,17,-6
6320,2,-249,7,45,17,-6
6325,3,-247,5,44,18,-5
6330,2,-246,7,45,18,-4
6335,3,-247,4,48,19,-3
6340,4,-251,3,49,18,-3
6345,1,-248,8,52,18,-2
6350,2,-249,4,56,17,-2
6355,4,-252,5,57,17,-2
6360,4,-249,9,60,17,-3
6365,2,-252,8,63,16,-2
6370,2,-249,8,65,16,-2
6375,3,-248,6,67,17,-2
6380,1,-253,6,68,16,-4
6385,2,-251,5,70,17,-4
6390,3,-248,7,76,17,-5
6395,0,-250,6,78,17,-4
6400,1,-248,8,80,17,-2
6405,2,-247,7,83,16,-3
6410,0,-251,5,84,16,-2
6415,0,-244,8,80,17,-1
6420,1,-248,12,75,17,-1
6425,0,-248,6,72,15,-1
6430,0,-245,9,66,14,-1
6435,1,-246,9,65,14,2
6440,0,-242,10,63,13,2
6445,2,-246,7,57,13,1
6450,1,-246,9,52,14,1
6455,0,-247,7,45,12,1
6460,2,-247,7,38,11,1
6465,3,-248,4,32,10,-1
6470,0,-251,7,27,9,-1
6475,0,-248,7,24,7,-3
6480,1,-250,9,23,6,-3
6485,0,-250,9,23,7,-3
6490,1,-250,7,25,7,-4
6495,1,-248,7,30,6,-5
6500,1,-249,4,35,6,-6
6505,0,-251,8,40,7,-5
6510,2,-249,5,46,7,-5
6515,1,-249,7,52,11,-6
6520,0,-250,5,56,12,-6
6525,2,-248,3,61,13,-5
6530,0,-249,4,65,12,-4
6535,0,-245,3,66,11,-5
6540,1,-248,5,69,12,-5
6545,1,-249,6,69,10,-4
6550,1,-249,7,72,9,-3
6555,10,-242,11,73,7,-4
6560,1,-250,2,72,5,-4
6565,1,-248,4,69,4,-3
6570,0,-245,1,68,3,-5
6575,1,-247,5,67,3,-7
6580,1,-247,6,65,3,-7
6585,2,-248,5,65,5,-7
6590,2,-248,7,66,6,-9
6595,2,-247,6,65,7,-6
6600,1,-250,2,65,8,-7
6605,2,-250,10,65,8,-7
6610,0,-248,2,66,9,-7
6615,1,-247,1,69,9,-7
6620,1,-247,7,69,11,-6
6625,1,-251,6,71,12,-7
6630,2,-245,3,71,12,-7
6635,1,-249,5,71,11,-6
6640,1,-247,9,69,10,-6
6645,1,-248,6,69,9,-5
6650,2,-250,9,67,10,-6
6655,1,-249,3,66,11,-5
6660,2,-252,8,63,10,-5
6665,0,-248,13,62,12,-7
6670,2,-247,7,60,12,-6
6675,0,-247,11,59,13,-6
6680,2,-251,7,60,14,-6
6685,0,-248,8,60,15,-7
6690,0,-246,10,60,18,-6
6695,0,-246,7,60,19,-6
6700,1,-250,10,61,17,-6
6705,2,-251,7,63,18,-7
6710,0,-246,8,64,16,-7
6715,1,-252,7,66,15,-7
6720,3,-247,8,68,14,-8
6725,2,-249,7,67,13,-8
6730,0,-248,6,68,13,-7
6735,1,-246,7,66,12,-6
6740,2,-251,6,66,12,-9
6745,1,-247,4,65,12,-8
6750,4,-251,10,66,12,-7
6755,1,-249,12,66,11,-5
6760,3,-249,9,67,12,-4
6765,0,-251,6,70,14,-4
6770,1,-248,3,71,16,-4
6775,2,-249,8,72,15,-5
6780,1,-251,6,71,17,-6
6785,1,-249,6,73,18,-5
6790,3,-251,5,73,18,-4
6795,1,-249,8,74,19,-4
6800,1,-249,6,76,18,-6
6805,1,-246,8,76,18,-4
6810,3,-250,8,77,20,-2
6815,0,-246,6,77,19,-3
6820,2,-250,6,76,19,-3
6825,2,-247,11,77,19,-4
6830,4,-248,8,76,16,-3
6835,3,-249,11,75,16,-4
6840,2,-249,9,73,15,-3
6845,2,-249,9,72,14,-4
6850,2,-248,7,71,14,-5
6855,2,-249,11,68,12,-3
6860,3,-250,9,68,11,-6
6865,1,-249,5,67,12,-5
6870,0,-249,7,67,11,-5
6875,4,-253,7,68,10,-6
6880,-5,-242,5,68,10,-7
6885,0,-251,9,71,10,-7
6890,-2,-247,8,70,9,-6
6895,3,-248,11,71,9,-5
6900,1,-249,8,71,9,-6
6905,0,-246,12,73,12,-4
6910,0,-246,10,73,11,-6
6915,0,-247,12,73,12,-5
6920,1,-249,9,72,10,-5
6925,2,-248,7,68,10,-6
6930,0,-248,6,66,8,-8
6935,1,-247,7,64,8,-7
6940,2,-250,7,63,7,-7
6945,1,-249,11,63,4,-8
6950,2,-247,8,62,4,-7
6955,1,-249,8,61,3,-9
6960,2,-249,9,60,4,-8
6965,1,-248,15,61,6,-9
6970,0,-248,6,62,5,-9
6975,1,-247,11,63,7,-8
6980,5,-246,12,63,7,-9
6985,0,-248,9,63,9,-10
6990,1,-251,10,65,9,-10
6995,2,-251,10,67,8,-11
7000,0,-246,8,68,9,-11
7005,-1,-248,8,67,9,-10
7010,0,-251,8,70,9,-10
7015,2,-248,10,71,9,-9
7020,1,-245,9,72,10,-8
7025,0,-248,7,72,11,-9
7030,3,-248,9,72,10,-8
7035,1,-249,10,71,10,-9
7040,0,-246,7,69,10,-9
7045,1,-249,6,68,11,-10
7050,2,-246,10,66,11,-9
7055,2,-248,10,63,10,-9
7060,0,-242,5,61,9,-9
7065,2,-247,6,58,8,-10
7070,1,-248,7,55,8,-10
7075,1,-248,6,53,8,-8
7080,3,-248,7,53,7,-9
7085,-1,-245,8,53,7,-10
7090,1,-251,9,53,6,-8
7095,2,-248,11,55,5,-9
7100,1,-248,6,55,6,-6
7105,2,-248,9,56,7,-7
7110,-1,-247,8,58,8,-9
7115,4,-250,10,57,8,-10
7120,0,-247,4,59,8,-10
7125,1,-249,9,60,9,-10
7130,3,-250,7,59,9,-9
7135,1,-251,7,62,11,-10
7140,3,-247,8,62,11,-10
7145,0,-247,13,60,10,-12
7150,2,-247,6,61,11,-13
7155,0,-247,9,62,12,-12
7160,2,-249,6,61,11,-11
7165,0,-250,6,62,11,-12
7170,0,-248,6,64,11,-12
7175,0,-246,6,62,11,-13
7180,0,-249,10,63,9,-13
7185,1,-248,9,63,9,-12
7190,1,-247,12,64,9,-12
7195,3,-248,8,62,7,-12
7200,2,-246,8,62,7,-12
7205,2,-250,11,62,6,-12
7210,1,-248,8,61,7,-13
7215,1,-248,11,58,6,-14
7220,0,-245,9,57,3,-13
7225,1,-250,12,56,5,-12
7230,1,-248,7,55,6,-15
7235,1,-251,10,55,6,-15
7240,1,-248,10,56,6,-12
7245,0,-246,5,55,7,-14
7250,2,-249,10,55,9,-14
7255,2,-250,8,55,9,-13
7260,1,-249,14,56,10,-15
7265,1,-246,12,55,9,-15
7270,1,-248,7,55,9,-14
7275,0,-247,11,56,11,-14
7280,1,-249,11,57,11,-14
7285,3,-249,9,57,11,-14
7290,0,-251,10,57,11,-15
7295,2,-250,9,57,11,-13
7300,2,-248,12,56,12,-15
7305,0,-248,11,56,11,-15
7310,0,-245,9,57,10,-14
7315,1,-249,14,55,10,-16
7320,0,-249,8,55,10,-14
7325,3,-252,9,55,8,-15
7330,2,-249,12,55,6,-16
7335,1,-244,10,55,5,-16
7340,0,-246,11,54,5,-17
7345,0,-251,12,55,5,-17
7350,1,-252,5,53,5,-17
7355,2,-252,27,53,4,-18
7360,0,-249,10,54,4,-17
7365,3,-249,11,55,6,-18
7370,1,-250,7,55,7,-19
7375,0,-249,9,55,7,-17
7380,1,-247,4,55,8,-18
7385,0,-248,10,56,10,-19
7390,2,-249,11,55,11,-18
7395,0,-245,8,56,10,-19
7400,1,-252,9,53,9,-18
7405,3,-251,7,53,10,-19
7410,0,-247,9,54,9,-19
7415,0,-249,10,53,7,-18
7420,1,-247,6,54,7,-18
7425,2,-247,5,52,8,-18
7430,2,-250,9,52,8,-18
7435,1,-249,8,53,8,-18
7440,1,-246,7,54,7,-19
7445,-2,-246,8,55,7,-20
7450,2,-249,6,58,7,-20
7455,3,-249,10,59,9,-18
7460,1,-247,5,61,11,-18
7465,1,-246,9,64,13,-18
7470,0,-250,10,66,15,-19
7475,0,-249,9,68,17,-18
7480,1,-250,7,68,18,-18
7485,4,-249,10,67,18,-19
7490,3,-249,8,66,18,-18
7495,0,-247,6,64,17,-16
7500,1,-248,5,65,19,-16
7505,1,-249,9,65,19,-17
7510,2,-250,8,66,18,-17
7515,3,-246,11,62,16,-16
7520,1,-248,7,60,14,-16
7525,2,-244,13,58,14,-15
7530,2,-246,12,58,13,-15
7535,3,-250,7,57,14,-14
7540,1,-247,11,59,15,-18
7545,1,-247,5,59,14,-17
7550,2,-248,13,58,15,-16
7555,2,-245,10,57,15,-16
7560,1,-246,10,57,16,-15
7565,0,-250,7,56,17,-16
7570,2,-249,5,54,16,-17
7575,1,-249,12,55,17,-16
7580,1,-249,6,53,16,-17
7585,3,-250,10,52,16,-17
7590,1,-248,9,52,14,-17
7595,1,-249,9,49,14,-15
7600,3,-248,9,49,11,-16
7605,2,-249,10,49,11,-15
7610,1,-249,10,48,11,-16
7615,0,-249,9,45,11,-16
7620,0,-251,10,47,12,-16
7625,3,-249,9,45,13,-15
7630,2,-250,7,44,14,-17
7635,0,-250,11,45,13,-19
7640,1,-250,11,46,13,-19
7645,3,-249,9,47,13,-21
7650,1,-249,6,50,12,-20
7655,1,-249,10,53,12,-20
7660,0,-249,8,55,12,-20
7665,0,-248,11,57,10,-21
7670,4,-249,4,59,9,-19
7675,0,-247,9,59,8,-21
7680,2,-245,10,60,8,-20
7685,0,-248,7,59,8,-19
7690,0,-246,6,56,9,-19
7695,1,-246,8,55,9,-18
7700,4,-249,7,53,8,-18
7705,3,-247,6,52,7,-16
7710,2,-250,6,51,7,-17
7715,2,-245,8,49,6,-17
7720,0,-249,5,51,6,-18
7725,2,-250,8,50,6,-15
7730,2,-248,10,50,7,-15
7735,2,-249,13,51,6,-16
7740,0,-248,7,50,7,-16
7745,-1,-247,11,49,8,-14
7750,0,-247,12,49,10,-16
7755,3,-248,7,47,8,-16
7760,3,-246,11,47,10,-17
7765,1,-250,8,46,11,-16
7770,0,-249,9,43,10,-19
7775,4,-250,10,42,10,-18
7780,3,-248,11,42,11,-16
7785,2,-249,7,41,11,-16
7790,2,-248,11,41,10,-16
7795,3,-246,11,41,11,-15
7800,1,-245,13,38,9,-15
7805,2,-244,11,38,7,-15
7810,3,-250,14,36,6,-14
7815,2,-247,11,35,6,-15
7820,1,-250,10,37,6,-13
7825,2,-249,11,37,7,-12
7830,1,-248,9,37,6,-14
7835,0,-250,7,37,6,-13
7840,1,-249,11,38,6,-15
7845,0,-249,9,39,7,-14
7850,2,-248,9,42,7,-14
7855,1,-250,8,43,8,-15
7860,1,-249,7,43,10,-15
7865,1,-249,9,43,11,-16
7870,1,-252,7,41,12,-16
7875,2,-249,10,39,13,-16
7880,3,-248,7,38,14,-16
7885,1,-246,11,36,15,-16
7890,3,-249,7,35,15,-14
7895,1,-247,5,36,14,-16
7900,3,-247,9,36,13,-15
7905,3,-249,4,37,12,-15
7910,2,-245,4,36,10,-14
7915,4,-248,5,38,12,-13
7920,2,-250,7,39,12,-13
7925,2,-248,8,40,11,-13
7930,2,-250,11,42,10,-13
7935,3,-249,8,44,12,-12
7940,3,-251,6,46,13,-12
7945,2,-251,10,49,14,-12
7950,4,-250,9,49,14,-11
7955,1,-249,7,51,16,-11
7960,3,-251,7,52,17,-12
7965,0,-248,12,52,17,-12
7970,0,-248,7,54,16,-13
7975,2,-247,6,54,16,-12
7980,2,-251,7,54,16,-11
7985,3,-250,11,55,15,-14
7990,0,-249,6,56,15,-13
7995,2,-250,5,56,16,-12
8000,3,-248,5,56,15,-11
8005,2,-249,10,56,15,-12
8010,4,-249,10,55,14,-11
8015,3,-247,9,54,12,-13
8020,3,-251,12,54,12,-11
8025,3,-249,4,51,12,-10
8030,1,-247,11,50,9,-9
8035,2,-249,7,48,10,-8
8040,3,-246,9,47,10,-11
8045,2,-249,9,48,8,-11
8050,2,-249,6,47,7,-8
8055,3,-250,6,48,6,-9
8060,3,-251,9,47,6,-8
8065,2,-249,10,48,6,-9
8070,0,-250,8,47,4,-11
8075,2,-247,5,50,6,-11
8080,1,-249,7,51,7,-12
8085,0,-250,6,52,8,-10
8090,1,-248,5,52,7,-13
8095,3,-250,6,51,6,-13
8100,0,-245,8,51,8,-11
8105,1,-247,7,51,8,-11
8110,3,-247,7,52,8,-12
8115,1,-247,4,51,10,-11
8120,0,-246,8,51,10,-10
8125,3,-248,8,50,11,-11
8130,0,-247,9,49,11,-12
8135,0,-248,7,49,11,-12
8140,0,-249,6,49,11,-11
8145,0,-247,9,47,12,-10
8150,3,-251,7,46,12,-11
8155,1,-249,10,46,11,-10
8160,0,-249,11,45,12,-10
8165,4,-248,9,44,12,-9
8170,3,-249,6,44,11,-8
8175,0,-249,9,45,11,-9
8180,1,-245,7,44,11,-9
8185,2,-249,9,44,10,-8
8190,0,-248,8,44,9,-9
8195,1,-247,9,43,9,-9
8200,3,-248,11,44,9,-10
8205,2,-249,6,43,9,-8
8210,2,-249,5,43,10,-8
8215,3,-248,8,42,10,-6
8220,1,-247,6,43,11,-7
8225,3,-248,7,42,12,-7
8230,3,-249,8,43,11,-8
8235,3,-248,8,44,11,-8
8240,3,-247,5,45,12,-8
8245,3,-246,7,45,10,-9
8250,2,-247,10,45,10,-9
8255,0,-251,8,45,10,-9
8260,-5,-248,7,45,9,-7
8265,0,-249,6,45,9,-8
8270,4,-250,6,45,9,-9
8275,1,-248,7,45,8,-7
8280,4,-249,8,44,8,-9
8285,1,-248,9,44,8,-9
8290,4,-250,7,44,9,-10
8295,-1,-241,9,44,8,-8
8300,0,-247,6,44,7,-9
8305,2,-249,9,44,6,-11
8310,2,-249,11,45,5,-9
8315,0,-250,4,45,4,-11
8320,2,-250,7,44,5,-12
8325,2,-246,7,45,6,-14
8330,2,-247,7,47,7,-13
8335,1,-247,8,46,7,-13
8340,1,-246,7,48,8,-12
8345,2,-247,9,48,8,-12
8350,1,-248,8,48,8,-13
8355,1,-248,4,49,9,-13
8360,1,-247,9,50,10,-11
8365,2,-249,4,50,11,-11
8370,4,-252,4,49,11,-11
8375,0,-248,6,50,11,-10
8380,5,-247,7,49,11,-12
8385,1,-247,5,49,10,-10
8390,1,-248,7,47,9,-10
8395,2,-248,7,47,8,-9
8400,3,-249,8,47,8,-8
8405,3,-248,4,47,8,-9
8410,2,-247,4,47,9,-11
8415,3,-250,10,48,9,-11
8420,2,-248,5,49,10,-10
8425,3,-246,8,47,12,-11
8430,1,-248,7,49,13,-10
8435,0,-247,8,49,15,-10
8440,2,-249,5,50,16,-8
8445,1,-248,7,50,17,-9
8450,1,-248,9,50,18,-10
8455,1,-248,10,50,18,-11
8460,1,-245,12,49,18,-10
8465,2,-248,6,48,18,-11
8470,3,-249,7,49,16,-12
8475,3,-250,4,52,12,-12
8480,3,-245,5,52,10,-12
8485,1,-249,7,50,10,-12
8490,2,-247,9,49,7,-11
8495,5,-250,4,50,6,-11
8500,1,-248,5,50,7,-10
8505,3,-248,7,53,7,-10
8510,2,-251,7,52,9,-12
8515,1,-251,6,53,9,-13
8520,1,-245,9,53,11,-11
8525,2,-248,5,54,12,-10
8530,4,-250,5,53,13,-12
8535,1,-246,7,50,14,-10
8540,2,-247,8,48,15,-11
8545,4,-250,8,48,14,-12
8550,0,-249,3,46,14,-11
8555,0,-245,7,44,14,-10
8560,2,-250,9,42,13,-11
8565,1,-248,8,41,13,-9
8570,1,-248,8,40,13,-7
8575,1,-249,7,41,13,-10
8580,2,-249,6,42,13,-9
8585,-2,-246,4,44,13,-8
8590,0,-247,9,46,14,-9
8595,3,-249,7,50,14,-11
8600,2,-249,8,54,15,-10
8605,0,-250,6,60,16,-10
8610,2,-249,7,65,17,-10
8615,3,-247,8,69,17,-11
8620,1,-248,6,72,16,-12
8625,1,-247,6,74,16,-12
8630,0,-248,4,76,15,-11
8635,5,-246,5,76,14,-10
8640,1,-245,6,73,14,-10
8645,5,-248,6,71,13,-8
8650,3,-248,8,68,13,-9
8655,2,-248,7,65,11,-7
8660,2,-249,6,62,9,-8
8665,2,-247,9,59,9,-8
8670,2,-250,5,56,10,-7
8675,0,-247,10,56,9,-6
8680,1,-250,7,54,7,-9
8685,2,-250,8,54,9,-8
8690,1,-244,6,54,11,-7
8695,3,-250,5,56,12,-9
8700,1,-251,7,58,13,-12
8705,0,-249,7,59,13,-10
8710,2,-248,5,60,14,-10
8715,2,-249,7,61,14,-12
8720,0,-249,6,61,13,-12
8725,2,-251,9,62,14,-13
8730,2,-250,10,62,14,-11
8735,2,-248,6,65,12,-11
8740,1,-249,6,64,14,-12
8745,-1,-250,9,66,15,-12
8750,1,-248,4,66,14,-10
8755,0,-246,8,66,12,-9
8760,1,-250,8,66,10,-10
8765,2,-248,10,66,11,-10
8770,1,-248,12,65,11,-10
8775,1,-248,8,65,11,-10
8780,0,-248,10,64,11,-9
8785,3,-251,7,63,9,-10
8790,1,-248,6,63,8,-10
8795,0,-246,5,63,8,-11
8800,1,-244,7,64,8,-10
8805,0,-246,9,65,8,-11
8810,0,-247,10,65,8,-13
8815,3,-250,7,66,9,-12
8820,4,-248,8,67,11,-12
8825,1,-246,7,67,11,-12
8830,1,-249,5,68,12,-11
8835,2,-248,8,68,13,-9
8840,3,-248,4,67,12,-11
8845,4,-247,5,67,13,-12
8850,2,-247,10,65,11,-11
8855,4,-248,9,65,8,-10
8860,0,-248,8,65,8,-10
8865,2,-245,9,64,5,-10
8870,3,-250,5,63,6,-11
8875,2,-248,6,63,6,-10
8880,2,-248,7,61,5,-8
8885,2,-252,8,61,6,-8
8890,3,-248,7,60,7,-8
8895,0,-247,8,59,7,-8
8900,1,-247,9,58,10,-8
8905,2,-250,9,57,12,-8
8910,3,-249,11,56,12,-8
8915,1,-249,6,57,13,-11
8920,2,-247,4,58,13,-13
8925,2,-249,6,58,13,-13
8930,2,-247,14,57,14,-12
8935,2,-249,11,58,15,-14
8940,1,-247,10,58,14,-14
8945,1,-250,8,59,16,-14
8950,2,-247,6,57,15,-13
8955,0,-247,5,58,16,-13
8960,2,-248,13,57,14,-12
8965,1,-249,12,55,13,-11
8970,1,-247,7,55,14,-12
8975,2,-246,8,53,13,-10
8980,1,-250,8,53,12,-10
8985,1,-250,6,52,10,-10
8990,3,-248,8,51,9,-10
8995,2,-249,9,53,9,-11
9000,3,-251,11,53,7,-12
9005,0,-247,10,55,9,-10
9010,-5,-248,8,55,9,-10
9015,2,-250,8,57,9,-10
9020,0,-246,6,58,9,-10
9025,1,-250,5,59,10,-12
9030,4,-250,5,58,10,-12
9035,3,-251,8,59,12,-12
9040,0,-247,10,57,12,-11
9045,3,-245,8,57,13,-10
9050,1,-250,8,57,13,-10
9055,1,-248,6,57,14,-10
9060,2,-245,-3,57,13,-10
9065,2,-248,8,57,13,-10
9070,3,-250,5,58,14,-9
9075,1,-250,6,58,14,-8
9080,4,-248,5,58,13,-9
9085,1,-250,3,58,13,-9
9090,4,-249,11,58,12,-9
9095,3,-249,8,58,13,-9
9100,1,-246,7,58,11,-9
9105,1,-250,9,59,11,-9
9110,1,-250,11,60,10,-11
9115,2,-247,8,60,9,-10
9120,1,-250,7,60,10,-10
9125,1,-248,11,63,9,-11
9130,1,-247,12,63,10,-9
9135,2,-248,7,64,10,-10
9140,3,-248,8,64,10,-8
9145,2,-248,9,63,10,-9
9150,4,-248,11,64,11,-9
9155,2,-248,8,63,10,-10
9160,0,-247,8,62,10,-10
9165,1,-247,10,64,11,-10
9170,1,-250,11,63,11,-9
9175,1,-249,8,61,11,-10
9180,2,-245,13,61,11,-9
9185,1,-249,12,60,10,-8
9190,0,-248,11,61,10,-9
9195,1,-248,10,61,10,-10
9200,3,-249,10,61,11,-10
9205,0,-248,10,62,10,-12
9210,1,-249,6,62,11,-12
9215,1,-248,7,61,10,-13
9220,1,-248,4,61,10,-10
9225,4,-251,7,62,10,-11
9230,3,-250,8,62,10,-11
9235,2,-250,8,59,11,-10
9240,2,-249,6,59,10,-11
9245,0,-247,6,59,11,-10
9250,2,-249,9,57,11,-11
9255,1,-252,10,57,12,-10
9260,1,-248,9,56,14,-12
9265,1,-248,10,56,13,-11
9270,1,-250,7,58,13,-11
9275,1,-252,9,57,11,-10
9280,1,-247,6,58,11,-10
9285,1,-247,6,58,11,-10
9290,4,-250,7,60,10,-11
9295,1,-247,5,61,10,-10
9300,1,-248,6,61,10,-10
9305,3,-248,6,62,9,-10
9310,1,-248,7,62,9,-12
9315,0,-249,9,61,9,-9
9320,3,-248,8,61,10,-10
9325,2,-248,10,61,11,-10
9330,2,-250,9,60,10,-10
9335,3,-248,6,60,11,-11
9340,2,-248,10,59,13,-11
9345,1,-246,12,60,12,-10
9350,0,-247,9,61,11,-10
9355,1,-249,10,61,11,-10
9360,3,-250,9,61,11,-10
9365,3,-253,11,60,9,-9
9370,0,-249,12,60,10,-9
9375,1,-246,8,59,9,-10
9380,2,-248,6,59,9,-10
9385,1,-247,7,60,7,-11
9390,1,-248,7,59,8,-11
9395,4,-250,8,60,9,-11
9400,1,-252,7,59,10,-11
9405,2,-247,8,59,12,-12
9410,0,-249,7,59,13,-12
9415,0,-246,9,60,14,-12
9420,3,-252,11,61,14,-12
9425,1,-248,4,60,16,-12
9430,1,-251,7,59,15,-15
9435,1,-249,5,60,15,-13
9440,1,-246,8,60,14,-12
9445,3,-250,9,61,15,-13
9450,1,-249,8,62,13,-11
9455,4,-249,9,63,13,-14
9460,3,-246,9,63,11,-13
9465,1,-248,11,61,9,-14
9470,3,-249,7,60,9,-14
9475,0,-247,4,61,9,-16
9480,2,-247,9,63,10,-14
9485,5,-250,11,64,11,-14
9490,1,-249,9,64,12,-15
9495,0,-249,10,63,12,-14
9500,1,-248,7,62,12,-13
9505,1,-249,7,63,14,-13
9510,0,-248,8,61,13,-13
9515,2,-248,6,60,12,-14
9520,1,-246,8,59,11,-14
9525,3,-247,9,60,11,-12
9530,1,-246,3,60,9,-14
9535,1,-250,10,60,10,-11
9540,3,-248,8,60,10,-10
9545,2,-248,8,61,10,-10
9550,0,-247,7,59,10,-8
9555,1,-249,12,59,11,-8
9560,0,-249,12,60,12,-8
9565,1,-248,6,60,14,-9
9570,2,-249,10,60,15,-10
9575,3,-248,12,58,15,-11
9580,0,-247,9,59,16,-14
9585,2,-249,9,59,16,-11
9590,0,-246,11,61,14,-13
9595,1,-247,8,61,15,-14
9600,0,-246,10,62,13,-15
9605,2,-247,12,62,11,-14
9610,5,-249,9,61,13,-14
9615,1,-249,10,60,12,-13
9620,0,-250,8,59,11,-12
9625,1,-247,8,57,11,-12
9630,1,-249,8,54,10,-11
9635,1,-246,8,52,8,-12
9640,3,-247,5,52,9,-11
9645,3,-249,7,50,7,-10
9650,3,-249,9,49,8,-11
9655,0,-251,4,50,7,-11
9660,0,-249,8,52,8,-11
9665,2,-247,10,53,9,-11
9670,0,-248,9,56,9,-11
9675,0,-249,8,58,10,-12
9680,1,-252,10,60,12,-12
9685,1,-247,12,62,12,-13
9690,1,-248,7,64,11,-13
9695,5,-248,9,63,12,-14
9700,1,-245,6,64,13,-12
9705,0,-249,10,63,12,-13
9710,2,-248,7,62,11,-13
9715,2,-248,11,60,13,-11
9720,2,-249,11,59,11,-11
9725,2,-249,9,58,11,-10
9730,1,-250,11,58,12,-11
9735,4,-249,8,57,11,-10
9740,3,-249,11,56,12,-10
9745,2,-244,9,57,12,-10
9750,2,-246,8,58,11,-9
9755,2,-248,8,57,10,-9
9760,3,-250,8,59,11,-9
9765,1,-247,10,60,9,-9
9770,2,-249,12,63,10,-9
9775,1,-250,9,65,10,-10
9780,1,-249,6,66,8,-9
9785,1,-249,8,68,8,-11
9790,1,-248,12,69,7,-8
9795,1,-248,11,68,8,-9
9800,4,-248,6,70,8,-11
9805,3,-250,12,70,10,-8
9810,2,-249,9,68,11,-9
9815,1,-250,14,66,12,-11
9820,0,-245,11,64,13,-10
9825,1,-247,6,63,13,-11
9830,1,-249,10,59,13,-11
9835,1,-248,10,57,11,-10
9840,2,-249,10,56,11,-10
9845,3,-248,9,54,11,-11
9850,3,-249,10,53,10,-11
9855,1,-249,12,54,10,-10
9860,0,-251,10,53,9,-10
9865,5,-250,7,54,9,-11
9870,1,-247,12,53,9,-10
9875,0,-248,13,54,9,-9
9880,1,-246,10,53,10,-9
9885,2,-246,12,54,12,-8
9890,1,-248,10,54,13,-9
9895,0,-249,9,54,13,-9
9900,0,-249,9,54,12,-10
9905,0,-248,8,57,12,-10
9910,0,-246,10,59,13,-10
9915,4,-248,9,60,14,-10
9920,0,-248,11,63,13,-11
9925,2,-246,11,64,14,-12
9930,0,-247,9,64,14,-11
9935,3,-248,7,64,14,-11
9940,2,-248,11,62,14,-12
9945,3,-245,10,60,14,-11
9950,0,-249,11,56,13,-10
9955,1,-247,7,54,13,-10
9960,1,-251,10,51,11,-10
9965,2,-251,7,49,9,-12
9970,-1,-247,10,48,9,-12
9975,0,-250,10,47,9,-10
9980,2,-249,10,48,7,-12
9985,0,-247,13,48,8,-11
9990,0,-246,8,51,7,-13
9995,1,-249,8,51,7,-13
10000,2,-247,12,53,8,-10
10005,0,-248,7,56,9,-10
10010,0,-248,9,57,11,-11
10015,1,-249,8,59,11,-11
10020,2,-251,5,59,12,-10
10025,1,-248,8,59,11,-10
10030,1,-249,10,61,13,-9
10035,0,-250,8,62,14,-11
10040,0,-248,9,61,15,-11
10045,1,-248,7,61,16,-10
10050,2,-248,6,61,15,-11
10055,0,-249,7,61,15,-11
10060,2,-248,14,61,14,-10
10065,4,-247,10,59,13,-10
10070,1,-248,10,58,13,-11
10075,3,-248,10,58,13,-10
10080,0,-246,10,56,12,-10
10085,0,-247,11,56,12,-12
10090,0,-246,10,56,11,-11
10095,1,-248,10,56,12,-10
10100,1,-246,9,56,11,-9
10105,4,-248,10,55,9,-11
10110,4,-248,11,55,10,-11
10115,1,-246,8,55,10,-11
10120,4,-250,5,56,9,-11
10125,0,-247,11,56,9,-10
10130,1,-248,12,57,9,-11
10135,4,-249,7,58,9,-11
10140,0,-247,8,58,10,-11
10145,1,-250,9,60,10,-11
10150,0,-247,6,59,11,-12
10155,2,-249,7,62,11,-10
10160,2,-250,9,60,12,-12
10165,3,-248,10,58,11,-13
10170,3,-249,9,57,10,-11
10175,1,-247,9,57,10,-11
10180,3,-250,10,56,11,-9
10185,2,-246,4,56,11,-10
10190,5,-249,12,55,10,-11
10195,1,-246,6,53,11,-10
10200,3,-248,9,54,11,-8
10205,1,-246,10,53,12,-10
10210,3,-246,7,53,11,-11
10215,4,-250,10,54,9,-9
10220,1,-249,8,55,10,-9
10225,0,-247,10,54,10,-8
10230,1,-248,5,57,10,-9
10235,3,-250,15,56,11,-10
10240,3,-247,8,56,10,-10
10245,2,-247,14,58,9,-10
10250,1,-248,9,58,9,-11
10255,0,-247,7,59,8,-11
10260,4,-251,10,59,10,-11
10265,2,-246,10,59,11,-10
10270,1,-249,13,59,10,-11
10275,4,-249,8,59,10,-9
10280,2,-249,9,58,10,-9
10285,0,-248,10,57,10,-11
10290,1,-248,10,56,11,-11
10295,1,-243,5,55,11,-10
10300,2,-249,11,55,12,-10
10305,0,-250,9,53,12,-10
10310,0,-248,14,52,11,-10
10315,3,-249,10,53,11,-12
10320,3,-249,12,52,9,-12
10325,1,-248,11,52,9,-12
10330,2,-248,12,52,9,-13
10335,1,-246,8,54,9,-12
10340,1,-248,12,54,10,-13
10345,2,-248,8,53,10,-12
10350,1,-247,10,55,9,-13
10355,5,-249,11,56,10,-13
10360,1,-250,11,56,9,-12
10365,1,-249,10,56,10,-12
10370,3,-250,6,57,12,-11
10375,1,-248,9,57,12,-13
10380,1,-245,12,58,12,-13
10385,3,-248,8,59,12,-15
10390,3,-249,8,58,13,-14
10395,2,-248,11,56,14,-12
10400,4,-249,10,57,14,-13
10405,2,-248,12,56,13,-12
10410,1,-245,11,53,13,-10
10415,1,-245,9,55,10,-11
10420,0,-248,8,54,11,-11
10425,1,-250,10,55,9,-10
10430,4,-249,8,55,7,-11
10435,1,-249,9,56,6,-11
10440,2,-247,9,57,5,-10
10445,3,-251,6,56,5,-11
10450,2,-249,7,59,8,-10
10455,2,-250,10,60,9,-10
10460,0,-246,9,61,10,-9
10465,1,-248,10,64,12,-11
10470,1,-248,6,66,15,-11
10475,1,-247,11,66,16,-11
10480,1,-250,8,65,16,-11
10485,1,-250,6,64,18,-11
10490,2,-250,7,63,18,-10
10495,2,-248,6,63,17,-11
10500,2,-247,8,63,15,-11
10505,0,-245,10,62,13,-11
10510,1,-246,8,61,11,-13
10515,4,-249,9,58,11,-13
10520,1,-248,10,56,9,-11
10525,2,-251,9,55,9,-11
10530,0,-245,12,54,8,-12
10535,3,-247,10,56,7,-11
10540,0,-245,8,58,8,-13
10545,2,-248,12,57,9,-14
10550,2,-246,13,59,12,-15
10555,1,-249,11,60,11,-14
10560,3,-247,9,62,12,-14
10565,3,-248,10,61,12,-13
10570,2,-250,15,60,13,-13
10575,0,-249,12,60,13,-13
10580,0,-247,10,60,13,-14
10585,0,-247,13,59,10,-13
10590,5,-246,10,59,9,-12
10595,1,-246,12,58,8,-13
10600,0,-248,12,54,7,-11
10605,2,-249,11,54,7,-11
10610,6,-250,3,51,10,-10
10615,2,-248,12,52,11,-11
10620,2,-249,13,52,10,-12
10625,2,-252,8,52,13,-12
10630,2,-250,7,53,13,-12
10635,0,-248,6,55,15,-14
10640,1,-249,12,58,14,-15
10645,2,-250,7,59,14,-13
10650,2,-248,16,61,14,-14
10655,3,-250,9,62,13,-16
10660,1,-262,4,62,12,-15
10665,2,-246,12,62,12,-16
10670,3,-249,13,62,10,-14
10675,2,-248,10,62,8,-14
10680,2,-248,7,61,9,-14
10685,2,-252,10,58,9,-13
10690,3,-247,12,57,9,-12
10695,4,-249,12,54,8,-12
10700,4,-251,9,54,8,-13
10705,2,-250,6,52,8,-13
10710,0,-249,8,53,8,-14
10715,2,-249,10,53,8,-12
10720,2,-249,11,53,10,-13
10725,1,-247,9,54,10,-12
10730,1,-249,10,55,11,-13
10735,1,-246,11,56,11,-12
10740,1,-247,11,56,12,-13
10745,2,-246,10,56,13,-12
10750,5,-251,7,55,11,-12
10755,1,-248,9,55,12,-10
10760,1,-251,4,55,13,-11
10765,2,-246,7,56,13,-9
10770,1,-248,7,55,11,-11
10775,3,-249,12,55,10,-11
10780,3,-247,10,54,11,-9
10785,4,-249,12,55,12,-9
10790,1,-247,11,56,11,-11
10795,1,-247,12,56,12,-10
10800,3,-250,9,59,12,-11
10805,2,-244,10,59,12,-11
10810,4,-249,11,61,12,-10
10815,3,-248,6,64,11,-11
10820,1,-251,13,66,9,-11
10825,0,-248,9,69,8,-11
10830,3,-249,13,71,8,-12
10835,1,-249,10,73,8,-12
10840,2,-250,12,75,9,-11
10845,1,-249,9,75,9,-9
10850,2,-246,8,75,9,-11
10855,0,-248,10,74,9,-11
10860,1,-248,9,73,9,-12
10865,0,-245,11,72,10,-11
10870,2,-247,6,69,10,-10
10875,3,-248,11,67,11,-10
10880,4,-249,9,63,11,-12
10885,2,-248,8,60,12,-11
10890,1,-248,13,55,12,-10
10895,1,-247,9,55,11,-10
10900,3,-248,11,54,11,-11
10905,3,-248,9,53,9,-10
10910,2,-243,9,53,9,-9
10915,4,-249,14,53,8,-9
10920,2,-249,12,54,8,-10
10925,1,-249,11,53,9,-10
10930,3,-248,12,54,9,-9
10935,1,-247,10,55,10,-10
10940,0,-248,11,57,11,-10
10945,2,-249,12,57,13,-10
10950,0,-250,12,58,12,-12
10955,0,-246,16,59,13,-13
10960,2,-247,7,60,14,-11
10965,2,-249,10,59,14,-11
10970,1,-246,13,61,14,-12
10975,2,-251,12,62,14,-13
10980,3,-249,12,62,14,-12
10985,1,-248,9,61,15,-12
10990,5,-249,8,59,14,-12
10995,1,-247,12,58,15,-11
11000,1,-247,14,57,13,-11
11005,1,-250,12,54,13,-11
11010,1,-247,9,51,14,-11
11015,2,-250,11,49,11,-11
11020,0,-247,13,48,11,-11
11025,1,-248,13,45,10,-12
11030,3,-249,13,45,10,-10
11035,-3,-251,17,43,10,-9
11040,1,-250,8,44,9,-11
11045,5,-252,12,46,8,-10
11050,2,-253,16,47,8,-10
11055,1,-249,9,51,8,-11
11060,4,-250,7,54,9,-11
11065,2,-248,8,57,10,-10
11070,2,-251,14,59,10,-10
11075,3,-248,10,60,11,-9
11080,3,-247,13,60,11,-10
11085,0,-246,12,62,11,-10
11090,0,-251,8,62,11,-12
11095,2,-249,11,60,10,-9
11100,3,-247,10,61,11,-10
11105,2,-251,11,60,12,-12
11110,1,-248,10,59,12,-12
11115,3,-248,10,58,12,-12
11120,3,-248,9,57,11,-11
11125,1,-250,13,58,12,-12
11130,4,-249,13,56,12,-9
11135,3,-248,10,56,12,-11
11140,1,-251,10,56,12,-10
11145,1,-247,11,56,10,-11
11150,2,-249,14,56,9,-10
11155,2,-247,16,57,9,-11
11160,4,-248,13,58,9,-12
11165,2,-246,12,59,9,-11
11170,4,-249,10,57,8,-10
11175,2,-248,12,58,9,-9
11180,2,-249,9,59,10,-11
11185,5,-250,12,58,9,-12
11190,2,-248,11,57,9,-12
11195,2,-249,13,57,9,-12
11200,1,-249,13,57,10,-11
11205,2,-250,14,57,11,-11
11210,3,-250,8,58,11,-11
11215,2,-247,11,58,11,-11
11220,1,-250,11,58,12,-10
11225,1,-250,11,57,11,-11
11230,3,-248,13,56,11,-10
11235,2,-250,14,56,11,-9
11240,2,-249,9,56,11,-9
11245,0,-250,13,56,12,-11
11250,2,-251,12,57,12,-10
11255,2,-247,11,57,10,-9
11260,2,-247,15,58,8,-9
11265,4,-249,8,59,9,-10
11270,4,-248,11,60,8,-9
11275,0,-249,11,60,9,-10
11280,4,-249,12,61,9,-9
11285,4,-249,8,61,10,-10
11290,1,-247,11,60,9,-11
11295,1,-247,10,60,10,-11
11300,2,-246,8,60,10,-11
11305,1,-246,11,59,9,-9
11310,1,-247,12,59,9,-10
11315,2,-247,8,59,9,-12
11320,1,-249,13,60,9,-12
11325,1,-250,10,59,9,-12
11330,0,-251,14,59,9,-10
11335,0,-249,9,59,9,-11
11340,3,-248,7,59,10,-10
11345,0,-247,14,58,9,-11
11350,0,-250,10,58,10,-12
11355,1,-245,11,58,10,-11
11360,0,-247,11,59,10,-11
11365,2,-249,12,58,9,-10
11370,2,-248,13,59,10,-10
11375,4,-250,10,59,12,-12
11380,2,-247,9,59,11,-10
11385,5,-251,13,59,11,-12
11390,2,-249,15,60,12,-11
11395,4,-251,11,59,12,-11
11400,2,-247,10,59,10,-12
11405,4,-250,11,59,11,-12
11410,-1,-259,8,57,10,-13
11415,1,-249,13,57,11,-13
11420,2,-248,13,56,10,-13
11425,1,-248,9,54,11,-13
11430,1,-248,10,55,11,-13
11435,4,-251,9,54,11,-12
11440,3,-249,15,53,11,-13
11445,1,-250,10,53,11,-12
11450,1,-250,10,52,12,-12
11455,2,-248,11,53,12,-13
11460,2,-248,11,53,11,-12
11465,1,-247,12,53,12,-12
11470,2,-246,11,53,13,-12
11475,0,-248,13,52,13,-12
11480,2,-248,9,54,11,-11
11485,2,-248,10,54,12,-11
11490,1,-248,9,54,12,-12
11495,3,-246,13,54,13,-11
11500,1,-248,12,54,13,-12
11505,3,-248,10,53,12,-12
11510,4,-250,9,56,11,-12
11515,2,-249,10,58,11,-13
11520,-1,-249,13,60,11,-12
11525,3,-250,10,61,10,-12
11530,5,-250,8,61,9,-12
11535,2,-249,10,62,10,-10
11540,2,-247,10,63,9,-9
11545,0,-249,12,64,10,-10
11550,2,-249,12,63,11,-13
11555,1,-248,14,63,11,-11
11560,1,-245,14,61,11,-9
11565,3,-248,10,60,11,-10
11570,1,-246,9,58,12,-10
11575,1,-250,11,57,12,-10
11580,4,-249,8,56,13,-10
11585,2,-250,12,54,12,-10
11590,2,-247,11,53,12,-9
11595,3,-247,11,53,11,-10
11600,2,-246,12,51,10,-9
11605,1,-246,10,53,8,-11
11610,4,-248,12,53,6,-12
11615,1,-248,11,56,5,-11
11620,1,-249,12,57,7,-11
11625,0,-243,9,58,7,-11
11630,1,-250,11,58,9,-12
11635,4,-249,17,59,10,-11
11640,2,-247,13,60,10,-11
11645,1,-248,12,62,12,-12
11650,1,-247,11,62,16,-12
11655,1,-246,12,61,16,-11
11660,1,-248,11,58,16,-12
11665,2,-245,7,57,17,-11
11670,2,-247,13,57,16,-11
11675,-2,-248,11,56,14,-10
11680,0,-246,12,57,14,-12
11685,1,-248,12,56,12,-11
11690,2,-244,10,54,11,-11
11695,1,-248,14,51,11,-12
11700,2,-250,15,50,10,-12
11705,2,-247,8,50,10,-11
11710,1,-246,9,50,9,-12
11715,3,-248,11,50,9,-11
11720,1,-248,12,51,9,-12
11725,2,-249,13,52,9,-11
11730,1,-246,13,53,9,-13
11735,3,-249,11,53,9,-12
11740,2,-251,12,53,10,-13
11745,4,-247,8,55,11,-13
11750,2,-251,11,56,11,-12
11755,6,-247,12,56,9,-10
11760,0,-246,7,54,8,-9
11765,2,-250,11,54,8,-10
11770,1,-249,14,53,7,-9
11775,1,-247,12,52,7,-10
11780,0,-247,9,50,7,-9
11785,2,-248,11,49,9,-9
11790,1,-248,13,49,9,-11
11795,2,-249,9,49,12,-10
11800,0,-249,8,49,13,-12
11805,1,-247,12,50,15,-12
11810,4,-250,13,53,17,-14
11815,1,-246,12,55,17,-12
11820,1,-248,10,58,17,-14
11825,3,-246,9,62,16,-15
11830,2,-248,11,63,16,-12
11835,7,-251,-3,66,15,-12
11840,5,-248,11,66,13,-10
11845,5,-249,10,64,12,-10
11850,3,-249,7,63,10,-9
11855,2,-249,9,61,10,-10
11860,4,-246,12,57,9,-10
11865,1,-248,12,55,8,-9
11870,2,-246,9,53,7,-10
11875,1,-246,8,51,7,-10
11880,1,-249,11,51,7,-9
11885,2,-251,12,53,6,-10
11890,2,-248,6,55,8,-12
11895,2,-246,12,55,8,-11
11900,2,-249,12,58,11,-11
11905,1,-248,9,60,12,-11
11910,1,-250,12,62,14,-10
11915,2,-248,13,64,14,-10
11920,2,-247,12,64,14,-10
11925,1,-245,14,64,15,-11
11930,1,-247,15,63,15,-10
11935,2,-247,12,61,16,-10
11940,5,-248,10,59,16,-10
11945,3,-250,11,58,15,-10
11950,3,-252,8,57,12,-9
11955,1,-248,10,56,12,-8
11960,2,-247,13,54,13,-8
11965,1,-247,11,54,11,-8
11970,5,-249,10,54,11,-8
11975,5,-249,15,54,10,-8
11980,1,-247,14,55,9,-7
11985,2,-250,11,55,9,-8
11990,3,-246,12,57,7,-8
11995,3,-251,11,58,7,-7
