timestamp,acc_x,acc_y,acc_z,gyro_x,gyro_y,gyro_z
0,5,-247,-15,35,8,-12
5,7,-243,-11,31,8,-11
10,5,-247,-7,31,8,-12
15,3,-248,-14,30,10,-11
20,4,-246,-10,31,9,-9
25,5,-249,-13,32,11,-9
30,6,-249,-13,33,11,-11
35,4,-248,-12,35,13,-12
40,3,-252,-12,37,13,-11
45,7,-251,-14,39,13,-11
50,7,-251,-10,40,14,-12
55,6,-252,-12,42,15,-14
60,9,-247,-17,43,15,-15
65,4,-249,-14,44,14,-15
70,5,-247,-15,44,13,-15
75,5,-247,-15,42,11,-14
80,3,-247,-15,41,10,-13
85,4,-251,-13,40,7,-11
90,6,-247,-10,41,7,-11
95,4,-247,-14,40,4,-10
100,3,-248,-14,42,4,-9
105,6,-247,-14,42,3,-10
110,2,-244,-15,43,4,-9
115,5,-250,-12,43,5,-7
120,4,-250,-10,42,7,-8
125,5,-243,-12,42,10,-8
130,4,-251,-6,42,12,-9
135,4,-248,-13,43,15,-8
140,3,-250,-13,45,16,-8
145,6,-249,-16,47,16,-10
150,5,-249,-11,49,18,-10
155,5,-249,-12,51,17,-11
160,5,-247,-11,52,15,-12
165,7,-249,-9,53,14,-12
170,7,-251,-15,55,13,-12
175,6,-252,-12,56,11,-12
180,10,-248,-11,55,10,-11
185,5,-253,-13,56,10,-10
190,5,-247,-9,56,10,-11
195,4,-247,-15,57,10,-9
200,6,-247,-10,56,11,-11
205,5,-244,-14,56,11,-10
210,4,-247,-18,55,11,-10
215,6,-246,-14,54,13,-10
220,7,-247,-12,52,14,-9
225,4,-244,-14,50,13,-9
230,4,-243,-14,47,11,-8
235,6,-240,-12,45,12,-8
240,5,-250,-14,44,12,-8
245,3,-251,-15,43,13,-9
250,4,-248,-12,43,12,-11
255,4,-246,-14,42,13,-11
260,2,-248,-11,42,13,-10
265,4,-247,-16,41,13,-13
270,2,-247,-17,39,13,-9
275,3,-248,-13,42,13,-10
280,6,-251,-13,44,14,-11
285,2,-247,-14,44,15,-11
290,2,-253,-21,44,14,-10
295,3,-249,-15,46,13,-11
300,6,-248,-14,47,12,-9
305,4,-248,-16,47,12,-10
310,3,-247,-11,46,12,-11
315,5,-249,-17,46,11,-11
320,5,-248,-11,45,11,-11
325,6,-248,-12,46,10,-9
330,4,-249,-15,47,11,-10
335,4,-251,-15,46,12,-10
340,4,-250,-11,46,12,-10
345,6,-249,-11,46,12,-11
350,4,-250,-11,47,13,-11
355,5,-249,-13,47,12,-11
360,4,-251,-11,49,13,-12
365,3,-249,-11,48,12,-12
370,4,-250,-14,49,13,-11
375,5,-250,-15,50,12,-12
380,1,-247,-13,50,11,-10
385,5,-248,-14,50,11,-12
390,5,-248,-14,50,10,-10
395,4,-248,-10,51,10,-12
400,5,-250,-14,51,11,-12
405,5,-247,-13,50,10,-12
410,7,-246,-14,52,11,-12
415,5,-248,-12,51,11,-11
420,7,-251,-15,52,12,-12
425,4,-249,-13,51,12,-11
430,4,-250,-14,52,11,-11
435,3,-245,-13,52,12,-12
440,5,-246,-14,53,10,-11
445,5,-250,-13,51,10,-11
450,5,-249,-14,51,10,-12
455,7,-248,-12,51,11,-9
460,7,-249,-18,51,10,-10
465,4,-249,-17,50,11,-9
470,7,-248,-12,48,9,-11
475,4,-246,-14,47,9,-10
480,7,-249,-15,44,8,-11
485,7,-248,-15,44,8,-11
490,7,-253,-13,43,9,-11
495,2,-249,-11,45,8,-13
500,5,-246,-11,47,7,-12
505,6,-253,-5,49,8,-12
510,7,-245,-13,50,9,-11
515,6,-246,-10,50,9,-8
520,4,-249,-10,50,9,-9
525,4,-244,-13,49,11,-10
530,4,-248,-12,49,12,-10
535,8,-248,-10,49,12,-10
540,5,-246,-13,47,13,-10
545,3,-249,-13,49,14,-10
550,4,-247,-9,49,15,-10
555,12,-250,-7,48,15,-9
560,6,-250,-12,49,15,-10
565,6,-250,-13,47,16,-10
570,6,-251,-13,48,17,-10
575,6,-250,-16,47,15,-11
580,7,-249,-14,46,15,-10
585,6,-250,-12,46,16,-11
590,8,-249,-15,46,15,-11
595,2,-246,-15,46,16,-11
600,6,-250,-16,48,15,-11
605,7,-249,-9,50,16,-13
610,11,-250,-22,52,16,-12
615,7,-246,-15,51,16,-12
620,4,-246,-16,49,15,-9
625,7,-245,-16,47,14,-11
630,5,-248,-12,44,13,-10
635,5,-246,-15,41,13,-8
640,5,-249,-8,39,11,-9
645,5,-243,-19,39,11,-8
650,5,-248,-17,38,12,-6
655,5,-250,-14,39,12,-6
660,6,-250,-16,42,14,-8
665,10,-253,-22,44,14,-10
670,6,-249,-13,45,17,-11
675,5,-247,-17,46,18,-11
680,5,-249,-15,47,17,-13
685,5,-250,-15,48,17,-15
690,5,-248,-15,49,16,-12
695,7,-247,-17,53,16,-13
700,3,-250,-15,56,16,-13
705,7,-247,-15,58,15,-12
710,8,-252,-14,58,15,-11
715,6,-250,-17,59,12,-9
720,7,-252,-18,58,11,-7
725,4,-246,-13,56,8,-8
730,9,-246,-16,54,6,-9
735,8,-247,-11,54,6,-8
740,7,-248,-17,52,7,-8
745,2,-247,-12,49,5,-4
750,7,-249,-11,48,5,-8
755,4,-249,-12,47,7,-7
760,5,-248,-14,46,9,-7
765,1,-244,-14,45,9,-6
770,5,-249,-21,46,13,-4
775,8,-249,-13,46,15,-7
780,6,-250,-15,48,15,-8
785,7,-248,-9,46,15,-8
790,6,-249,-16,46,15,-9
795,6,-251,-9,47,13,-11
800,9,-252,-15,48,12,-9
805,7,-251,-12,48,11,-11
810,5,-249,-19,48,10,-11
815,8,-247,-14,49,9,-10
820,4,-249,-15,49,9,-10
825,5,-248,-14,49,9,-12
830,5,-248,-14,49,9,-11
835,4,-247,-16,47,10,-11
840,4,-245,-10,46,10,-11
845,11,-247,-16,44,11,-10
850,8,-249,-16,40,10,-11
855,6,-247,-14,38,10,-10
860,4,-248,-14,35,10,-10
865,5,-247,-17,33,10,-10
870,6,-248,-17,33,8,-12
875,14,-247,-19,30,6,-14
880,4,-250,-16,28,5,-16
885,3,-250,-14,26,4,-19
890,4,-248,-18,23,3,-22
895,3,-251,-14,20,4,-21
900,4,-248,-15,18,3,-24
905,3,-249,-16,18,5,-26
910,6,-246,-17,17,8,-27
915,5,-248,-15,15,11,-25
920,3,-247,-20,13,11,-26
925,5,-249,-13,11,12,-25
930,-2,-251,-12,7,14,-22
935,4,-245,-13,4,16,-21
940,5,-247,-14,-1,19,-23
945,5,-245,-12,-4,20,-22
950,4,-245,-12,-6,22,-19
955,2,-245,-15,-8,22,-17
960,4,-245,-9,-6,24,-15
965,5,-247,-17,-5,23,-13
970,5,-250,-9,-2,22,-9
975,7,-250,-11,0,20,-8
980,5,-248,-9,5,21,-8
985,9,-251,-13,8,22,-9
990,6,-253,-10,8,20,-10
995,6,-247,-12,7,19,-11
1000,4,-249,-12,5,18,-12
1005,6,-247,-11,4,17,-13
1010,7,-247,-12,2,18,-15
1015,8,-249,-12,1,19,-17
1020,9,-250,-10,-2,19,-16
1025,8,-247,-13,-5,20,-16
1030,10,-246,-16,-10,22,-17
1035,6,-244,-16,-15,22,-17
1040,9,-245,-11,-20,20,-18
1045,7,-245,-13,-25,19,-17
1050,5,-244,-16,-29,21,-16
1055,7,-245,-11,-30,21,-16
1060,7,-249,-16,-31,22,-14
1065,5,-249,-12,-30,23,-14
1070,10,-248,-12,-29,24,-16
1075,6,-250,-15,-26,26,-16
1080,6,-248,-14,-25,28,-15
1085,4,-247,-16,-20,27,-15
1090,8,-252,-9,-19,28,-12
1095,7,-249,-13,-19,29,-12
1100,4,-247,-16,-20,27,-15
1105,5,-249,-15,-21,25,-12
1110,4,-247,-14,-22,24,-12
1115,8,-250,-15,-22,22,-12
1120,4,-249,-17,-24,21,-13
1125,4,-251,-19,-24,18,-11
1130,7,-248,-16,-24,18,-10
1135,3,-251,-13,-23,16,-12
1140,5,-249,-17,-21,12,-12
1145,5,-250,-10,-17,9,-13
1150,4,-247,-16,-13,7,-15
1155,6,-249,-20,-9,6,-13
1160,4,-250,-16,-4,5,-14
1165,7,-251,-14,2,4,-13
1170,5,-250,-17,7,3,-12
1175,7,-251,-16,11,4,-12
1180,6,-250,-19,16,4,-13
1185,7,-253,-15,19,2,-13
1190,7,-245,-19,22,3,-14
1195,7,-248,-21,25,2,-14
1200,5,-249,-21,26,3,-14
1205,5,-248,-21,24,3,-12
1210,7,-249,-25,23,2,-12
1215,4,-244,-19,21,2,-11
1220,7,-246,-19,21,2,-12
1225,5,-249,-24,22,2,-10
1230,9,-247,-31,23,0,-10
1235,4,-245,-22,24,-2,-10
1240,8,-247,-22,23,-3,-8
1245,8,-246,-22,19,-5,-7
1250,9,-245,-26,15,-8,-7
1255,8,-244,-24,12,-12,-8
1260,9,-247,-21,8,-12,-4
1265,6,-247,-22,4,-15,-2
1270,5,-244,-25,1,-17,-3
1275,7,-248,-23,1,-19,-2
1280,3,-246,-21,0,-21,1
1285,8,-248,-23,1,-21,0
1290,5,-250,-24,4,-20,2
1295,7,-251,-23,10,-17,0
1300,2,-247,-21,13,-16,-2
1305,4,-252,-20,17,-15,0
1310,3,-249,-25,20,-14,-4
1315,5,-249,-26,21,-12,-4
1320,7,-250,-24,23,-11,-5
1325,6,-247,-19,25,-9,-6
1330,5,-247,-26,24,-9,-8
1335,6,-250,-24,24,-9,-7
1340,6,-248,-24,23,-9,-8
1345,5,-244,-20,21,-10,-7
1350,8,-244,-22,19,-10,-6
1355,4,-245,-23,19,-11,-9
1360,4,-247,-21,18,-13,-6
1365,4,-247,-20,16,-14,-7
1370,8,-251,-20,16,-13,-6
1375,9,-250,-22,17,-14,-6
1380,5,-248,-20,18,-13,-4
1385,7,-249,-19,20,-10,-6
1390,4,-248,-26,22,-5,-6
1395,4,-248,-22,23,-3,-7
1400,4,-251,-21,24,0,-7
1405,3,-248,-20,25,1,-6
1410,5,-245,-19,27,3,-6
1415,8,-248,-25,30,6,-9
1420,5,-249,-24,32,8,-11
1425,7,-251,-22,33,8,-11
1430,8,-250,-27,35,10,-10
1435,5,-251,-21,37,10,-11
1440,5,-248,-22,38,9,-11
1445,9,-247,-24,39,9,-10
1450,7,-251,-22,39,9,-11
1455,9,-248,-18,41,11,-13
1460,4,-247,-22,43,12,-12
1465,5,-249,-23,43,13,-14
1470,5,-247,-24,43,14,-13
1475,10,-246,-21,42,15,-15
1480,8,-248,-28,41,17,-14
1485,10,-249,-24,40,17,-15
1490,4,-245,-24,38,18,-15
1495,5,-243,-27,38,18,-14
1500,5,-245,-24,38,17,-12
1505,5,-247,-25,39,19,-11
1510,8,-249,-27,40,19,-9
1515,6,-244,-26,39,18,-9
1520,6,-248,-26,39,19,-7
1525,6,-247,-24,37,20,-9
1530,4,-246,-22,37,19,-10
1535,5,-250,-25,38,20,-9
1540,5,-249,-25,37,20,-11
1545,6,-246,-23,39,21,-9
1550,3,-245,-27,41,22,-7
1555,6,-249,-23,43,22,-9
1560,8,-248,-27,44,22,-12
1565,5,-249,-24,46,21,-10
1570,3,-247,-25,47,20,-11
1575,7,-247,-19,48,20,-9
1580,3,-245,-26,49,21,-10
1585,5,-247,-24,51,19,-9
1590,5,-248,-25,53,18,-7
1595,3,-243,-23,52,20,-6
1600,3,-248,-21,52,21,-7
1605,1,-250,-20,51,20,-8
1610,4,-247,-25,51,20,-8
1615,4,-245,-23,49,20,-8
1620,5,-247,-19,48,19,-6
1625,2,-248,-23,48,19,-7
1630,5,-248,-21,46,17,-8
1635,6,-247,-23,44,16,-9
1640,6,-249,-18,45,16,-9
1645,4,-248,-20,46,17,-8
1650,6,-250,-21,45,15,-9
1655,3,-249,-23,46,14,-10
1660,2,-246,-18,47,15,-10
1665,2,-248,-21,48,14,-9
1670,4,-246,-21,49,13,-9
1675,4,-245,-20,50,12,-10
1680,4,-250,-20,51,12,-10
1685,6,-247,-19,52,12,-11
1690,4,-250,-20,51,11,-10
1695,5,-247,-25,51,11,-7
1700,7,-247,-21,52,10,-9
1705,8,-247,-21,52,9,-10
1710,6,-248,-25,53,8,-9
1715,6,-247,-22,52,8,-10
1720,2,-243,-20,51,7,-10
1725,8,-245,-21,49,6,-10
1730,5,-248,-20,48,8,-10
1735,3,-249,-18,45,7,-10
1740,4,-246,-20,44,9,-11
1745,4,-248,-19,43,7,-12
1750,8,-250,-21,42,7,-11
1755,5,-249,-24,44,7,-10
1760,4,-247,-22,44,5,-12
1765,4,-246,-24,46,6,-13
1770,6,-246,-25,47,5,-14
1775,6,-248,-22,49,6,-14
1780,5,-243,-22,49,5,-14
1785,2,-248,-27,49,5,-14
1790,3,-245,-27,49,4,-13
1795,4,-246,-26,49,4,-14
1800,4,-246,-25,49,3,-13
1805,5,-249,-21,49,5,-13
1810,5,-249,-23,49,5,-13
1815,6,-247,-19,51,5,-11
1820,4,-247,-24,50,4,-10
1825,6,-249,-24,50,4,-11
1830,4,-247,-26,47,3,-11
1835,7,-238,-17,45,5,-12
1840,7,-250,-22,42,5,-11
1845,6,-249,-23,40,4,-11
1850,6,-247,-22,39,5,-14
1855,8,-249,-24,41,6,-15
1860,4,-249,-26,42,5,-15
1865,8,-248,-22,43,5,-15
1870,8,-250,-25,43,4,-15
1875,8,-244,-18,41,3,-15
1880,7,-248,-20,39,4,-14
1885,7,-246,-22,35,4,-15
1890,13,-247,-24,32,5,-16
1895,6,-246,-20,29,3,-15
1900,6,-251,-25,29,3,-14
1905,7,-245,-22,29,4,-14
1910,4,-249,-23,30,6,-15
1915,9,-252,-26,33,6,-15
1920,5,-249,-20,37,9,-16
1925,4,-246,-24,40,12,-16
1930,4,-246,-21,42,14,-16
1935,6,-248,-17,45,15,-17
1940,8,-248,-18,45,15,-17
1945,5,-250,-19,43,16,-18
1950,7,-247,-21,40,16,-18
1955,6,-246,-22,38,15,-18
1960,6,-245,-21,36,15,-16
1965,5,-248,-23,35,13,-15
1970,8,-250,-24,31,11,-14
1975,10,-250,-20,30,10,-16
1980,5,-248,-22,30,9,-14
1985,7,-245,-24,29,8,-15
1990,6,-251,-21,31,7,-16
1995,6,-248,-16,30,6,-17
2000,4,-248,-21,33,8,-16
2005,4,-244,-22,33,7,-16
2010,6,-249,-23,35,8,-15
2015,5,-246,-20,37,9,-16
2020,5,-248,-24,39,11,-15
2025,7,-249,-23,39,12,-14
2030,6,-249,-22,39,13,-15
2035,8,-251,-22,39,14,-14
2040,6,-247,-21,41,14,-14
2045,7,-249,-20,42,14,-13
2050,13,-248,-29,42,14,-14
2055,5,-246,-25,43,14,-14
2060,7,-251,-23,42,14,-14
2065,9,-247,-24,40,14,-14
2070,6,-248,-21,40,13,-14
2075,9,-247,-24,40,12,-16
2080,6,-249,-25,38,11,-14
2085,6,-244,-26,38,10,-15
2090,7,-249,-21,35,9,-14
2095,8,-246,-28,34,9,-13
2100,7,-250,-24,32,9,-15
2105,7,-250,-22,30,9,-14
2110,7,-246,-24,28,10,-14
2115,6,-246,-22,24,12,-12
2120,5,-245,-26,22,11,-10
2125,7,-247,-26,19,10,-11
2130,4,-245,-25,19,12,-10
2135,8,-249,-22,19,12,-10
2140,7,-247,-24,20,14,-8
2145,9,-249,-22,20,14,-9
2150,7,-247,-24,24,14,-10
2155,9,-250,-21,26,14,-11
2160,5,-248,-26,31,15,-9
2165,5,-243,-28,36,15,-10
2170,9,-249,-26,40,16,-12
2175,6,-249,-26,43,15,-13
2180,6,-245,-29,45,13,-15
2185,7,-246,-24,45,13,-17
2190,4,-247,-21,45,13,-17
2195,4,-246,-29,44,11,-15
2200,7,-247,-24,44,11,-16
2205,8,-245,-21,42,11,-16
2210,9,-245,-25,39,12,-16
2215,6,-248,-26,37,12,-13
2220,4,-248,-25,36,13,-13
2225,5,-247,-23,37,13,-13
2230,6,-245,-25,36,14,-12
2235,5,-245,-24,36,16,-12
2240,5,-247,-26,36,15,-10
2245,10,-248,-27,38,15,-12
2250,7,-249,-27,38,13,-11
2255,4,-249,-25,38,13,-11
2260,9,-251,-23,39,13,-12
2265,8,-245,-23,38,13,-12
2270,7,-249,-24,39,14,-14
2275,4,-249,-21,41,12,-13
2280,4,-245,-22,43,12,-12
2285,8,-248,-22,44,11,-12
2290,5,-248,-27,44,13,-12
2295,7,-249,-24,46,13,-12
2300,7,-248,-23,47,14,-12
2305,9,-247,-25,47,13,-11
2310,10,-251,-28,45,14,-12
2315,6,-251,-16,43,14,-10
2320,7,-248,-27,41,13,-13
2325,6,-248,-26,41,15,-14
2330,8,-247,-24,41,14,-12
2335,8,-250,-22,42,14,-13
2340,6,-248,-22,45,15,-13
2345,6,-246,-25,48,15,-12
2350,5,-247,-24,48,14,-12
2355,8,-246,-27,49,15,-12
2360,6,-250,-24,50,15,-9
2365,4,-245,-24,49,15,-11
2370,2,-248,-27,50,15,-10
2375,4,-244,-26,49,16,-11
2380,9,-250,-23,48,15,-11
2385,8,-245,-23,46,15,-9
2390,3,-245,-22,42,14,-11
2395,8,-247,-26,42,14,-12
2400,7,-248,-22,40,14,-12
2405,7,-247,-25,40,14,-13
2410,4,-249,-24,40,14,-15
2415,8,-247,-23,38,13,-14
2420,8,-247,-23,39,12,-14
2425,9,-246,-21,36,12,-13
2430,7,-250,-26,36,12,-9
2435,5,-247,-26,33,10,-7
2440,4,-250,-25,30,11,-4
2445,4,-247,-27,27,12,-2
2450,8,-245,-24,23,12,-3
2455,6,-245,-29,20,12,-2
2460,9,-248,-20,16,13,1
2465,6,-248,-23,15,12,-1
2470,6,-244,-25,16,14,-2
2475,5,-243,-23,18,15,-6
2480,9,-249,-23,21,16,-7
2485,7,-247,-24,25,16,-7
2490,8,-244,-25,30,14,-8
2495,8,-248,-23,35,14,-9
2500,6,-246,-23,39,13,-10
2505,4,-243,-25,42,15,-10
2510,6,-245,-22,45,15,-10
2515,6,-246,-28,45,16,-8
2520,4,-246,-24,42,15,-6
2525,3,-245,-25,39,14,-7
2530,7,-248,-25,37,16,-10
2535,6,-250,-23,35,16,-9
2540,4,-246,-23,36,18,-12
2545,6,-247,-25,35,19,-12
2550,7,-251,-27,37,20,-13
2555,4,-249,-26,38,20,-14
2560,5,-248,-21,37,20,-14
2565,9,-249,-24,40,20,-14
2570,6,-248,-26,44,19,-14
2575,5,-247,-27,47,20,-15
2580,4,-245,-23,48,18,-15
2585,6,-246,-22,50,19,-15
2590,7,-243,-30,50,18,-13
2595,7,-248,-26,52,18,-13
2600,4,-243,-28,52,16,-11
2605,4,-246,-25,52,16,-10
2610,5,-249,-29,54,15,-12
2615,10,-246,-26,54,15,-11
2620,8,-244,-20,54,14,-7
2625,6,-250,-24,55,16,-10
2630,6,-243,-27,56,16,-8
2635,8,-243,-26,57,15,-8
2640,6,-244,-28,59,16,-7
2645,5,-248,-26,60,17,-9
2650,4,-248,-30,60,17,-9
2655,5,-247,-25,61,17,-5
2660,6,-250,-25,60,17,-8
2665,2,-250,-24,61,17,-8
2670,4,-249,-23,59,15,-10
2675,6,-247,-28,59,15,-12
2680,4,-246,-26,57,15,-11
2685,4,-247,-24,56,14,-11
2690,8,-247,-26,53,15,-10
2695,8,-248,-26,53,15,-11
2700,10,-249,-25,54,15,-12
2705,10,-249,-24,55,14,-12
2710,4,-247,-30,57,14,-12
2715,6,-248,-23,61,13,-12
2720,5,-249,-24,63,15,-11
2725,7,-249,-29,64,15,-10
2730,6,-247,-25,64,14,-12
2735,5,-249,-29,65,14,-10
2740,5,-244,-26,63,15,-11
2745,8,-247,-33,64,14,-11
2750,5,-244,-24,63,14,-10
2755,6,-245,-25,61,13,-9
2760,6,-246,-29,60,11,-8
2765,6,-244,-27,56,13,-7
2770,5,-247,-23,55,12,-7
2775,6,-249,-25,53,14,-5
2780,2,-246,-19,53,13,-7
2785,7,-247,-23,53,14,-8
2790,6,-250,-26,54,14,-8
2795,5,-248,-31,56,14,-8
2800,4,-247,-25,57,14,-9
2805,7,-249,-28,58,13,-10
2810,6,-247,-28,56,12,-11
2815,6,-248,-27,55,12,-12
2820,6,-249,-25,54,11,-12
2825,8,-249,-28,50,12,-10
2830,5,-249,-24,48,11,-10
2835,4,-246,-23,46,11,-10
2840,4,-247,-28,44,11,-13
2845,5,-249,-26,46,11,-13
2850,7,-247,-27,47,10,-12
2855,6,-251,-24,47,11,-10
2860,5,-248,-26,50,11,-12
2865,6,-248,-24,52,13,-12
2870,5,-245,-24,55,12,-11
2875,8,-251,-24,54,11,-10
2880,5,-248,-25,51,12,-10
2885,3,-252,-25,47,12,-10
2890,6,-250,-25,45,12,-11
2895,6,-246,-25,45,10,-11
2900,2,-251,-24,42,9,-10
2905,3,-250,-25,42,8,-15
2910,4,-249,-26,43,9,-18
2915,2,-249,-24,41,9,-19
2920,7,-251,-27,38,9,-21
2925,3,-247,-25,39,9,-23
2930,4,-249,-23,37,9,-22
2935,6,-251,-22,34,9,-21
2940,6,-250,-21,28,8,-18
2945,5,-246,-27,21,8,-11
2950,5,-251,-21,15,10,-8
2955,5,-251,-20,9,9,-3
2960,7,-248,-24,0,10,4
2965,7,-247,-23,-13,11,12
2970,8,-245,-24,-31,12,18
2975,6,-241,-26,-51,14,23
2980,8,-245,-24,-71,13,25
2985,10,-244,-23,-91,11,25
2990,10,-243,-21,-115,12,22
2995,16,-240,-25,-142,11,17
3000,9,-237,-27,-170,12,7
3005,15,-239,-26,-204,13,-8
3010,13,-234,-29,-247,15,-23
3015,13,-237,-29,-294,19,-39
3020,13,-237,-27,-338,25,-52
3025,15,-239,-22,-377,33,-65
3030,14,-239,-27,-415,43,-71
3035,10,-237,-27,-450,52,-74
3040,15,-242,-24,-485,56,-71
3045,11,-246,-27,-515,60,-62
3050,6,-246,-23,-538,59,-53
3055,8,-250,-23,-553,56,-43
3060,5,-246,-26,-560,51,-35
3065,5,-248,-26,-558,48,-31
3070,2,-243,-30,-547,43,-32
3075,1,-241,-31,-535,43,-37
3080,1,-242,-29,-523,43,-41
3085,2,-242,-29,-515,45,-46
3090,1,-239,-31,-511,47,-47
3095,1,-241,-30,-507,48,-46
3100,2,-241,-27,-505,50,-42
3105,0,-235,-28,-503,47,-38
3110,2,-239,-26,-500,45,-30
3115,-1,-238,-28,-500,43,-22
3120,3,-240,-27,-500,42,-15
3125,1,-239,-26,-496,39,-12
3130,3,-241,-26,-495,38,-6
3135,1,-239,-30,-490,38,1
3140,3,-241,-27,-478,39,5
3145,2,-238,-30,-466,39,5
3150,4,-244,-27,-452,38,2
3155,1,-242,-33,-436,41,-1
3160,1,-242,-32,-417,42,-5
3165,4,-240,-36,-393,43,-8
3170,4,-240,-35,-373,44,-9
3175,3,-244,-40,-352,47,-9
3180,6,-244,-43,-333,50,-9
3185,2,-243,-46,-318,50,-7
3190,6,-242,-53,-310,52,-8
3195,8,-240,-54,-306,56,-10
3200,7,-241,-59,-312,61,-3
3205,12,-240,-56,-319,62,-2
3210,10,-242,-64,-336,66,0
3215,12,-239,-64,-356,73,-1
3220,10,-236,-62,-378,76,-1
3225,7,-237,-67,-399,80,0
3230,12,-237,-66,-421,77,2
3235,9,-235,-65,-442,76,3
3240,10,-232,-64,-464,75,5
3245,6,-228,-64,-488,68,5
3250,6,-229,-62,-513,63,4
3255,8,-231,-63,-535,57,4
3260,9,-230,-64,-556,51,4
3265,7,-230,-57,-576,43,4
3270,5,-229,-61,-599,36,6
3275,7,-231,-61,-618,26,6
3280,4,-235,-59,-640,22,6
3285,6,-232,-58,-668,17,8
3290,7,-231,-57,-701,14,10
3295,11,-231,-59,-739,12,15
3300,14,-236,-58,-773,10,21
3305,14,-235,-55,-809,9,24
3310,13,-240,-52,-843,9,29
3315,14,-244,-56,-870,8,29
3320,17,-243,-54,-896,10,30
3325,19,-250,-51,-922,11,32
3330,21,-255,-59,-942,13,37
3335,15,-260,-60,-960,11,38
3340,12,-261,-64,-973,12,34
3345,15,-263,-66,-986,21,34
3350,15,-263,-70,-1003,33,25
3355,16,-263,-69,-1033,46,21
3360,20,-260,-74,-1081,58,30
3365,22,-261,-66,-1140,68,31
3370,19,-270,-63,-1199,77,18
3375,16,-271,-65,-1241,87,-4
3380,17,-266,-71,-1267,102,-34
3385,19,-261,-88,-1288,127,-67
3390,18,-253,-94,-1322,154,-91
3395,18,-250,-97,-1377,182,-107
3400,17,-245,-108,-1460,204,-124
3405,15,-240,-117,-1574,221,-143
3410,15,-236,-120,-1714,239,-161
3415,10,-234,-130,-1860,255,-170
3420,8,-245,-130,-1995,260,-178
3425,2,-242,-139,-2102,261,-187
3430,2,-251,-143,-2171,258,-195
3435,0,-253,-142,-2192,255,-205
3440,0,-257,-145,-2175,251,-216
3445,1,-259,-143,-2129,250,-226
3450,-2,-257,-143,-2064,243,-245
3455,0,-259,-147,-1997,229,-258
3460,0,-261,-145,-1943,216,-266
3465,2,-264,-147,-1902,202,-266
3470,9,-266,-152,-1881,184,-258
3475,8,-267,-153,-1872,162,-247
3480,12,-269,-157,-1865,133,-230
3485,15,-261,-172,-1860,99,-217
3490,16,-253,-182,-1854,62,-210
3495,20,-248,-197,-1842,26,-204
3500,14,-238,-208,-1829,-7,-200
3505,14,-235,-215,-1820,-35,-197
3510,13,-230,-215,-1807,-60,-195
3515,11,-230,-222,-1785,-76,-190
3520,9,-230,-216,-1750,-87,-185
3525,14,-238,-218,-1696,-90,-181
3530,14,-241,-220,-1621,-90,-179
3535,10,-244,-219,-1525,-86,-172
3540,10,-240,-216,-1412,-77,-159
3545,17,-234,-216,-1293,-68,-139
3550,13,-236,-217,-1180,-57,-112
3555,19,-237,-219,-1085,-47,-86
3560,15,-230,-213,-1006,-34,-56
3565,16,-226,-215,-943,-28,-32
3570,19,-218,-212,-894,-22,-10
3575,18,-213,-212,-857,-16,5
3580,18,-207,-206,-827,-16,13
3585,19,-199,-203,-798,-20,15
3590,18,-194,-201,-767,-24,11
3595,14,-185,-193,-735,-32,1
3600,10,-187,-195,-700,-39,-6
3605,10,-173,-195,-663,-43,-16
3610,15,-170,-192,-625,-46,-21
3615,12,-166,-195,-589,-50,-28
3620,15,-166,-193,-554,-56,-34
3625,15,-162,-196,-517,-63,-41
3630,18,-162,-195,-484,-67,-43
3635,13,-161,-195,-453,-67,-43
3640,15,-159,-193,-423,-66,-40
3645,17,-156,-188,-392,-67,-36
3650,18,-154,-193,-365,-67,-32
3655,17,-149,-192,-342,-64,-27
3660,17,-154,-191,-327,-61,-22
3665,17,-152,-186,-315,-61,-14
3670,17,-154,-187,-304,-60,-8
3675,18,-150,-186,-293,-61,-3
3680,18,-152,-185,-279,-64,3
3685,17,-148,-181,-261,-66,5
3690,15,-145,-180,-236,-61,5
3695,18,-145,-179,-211,-54,5
3700,19,-143,-182,-184,-46,8
3705,14,-138,-178,-158,-36,11
3710,18,-132,-172,-135,-27,15
3715,13,-133,-177,-115,-20,17
3720,10,-131,-174,-101,-14,20
3725,12,-131,-176,-90,-10,23
3730,10,-127,-173,-82,-8,28
3735,12,-126,-176,-78,-5,34
3740,9,-124,-180,-77,-5,39
3745,15,-126,-176,-81,-4,43
3750,12,-127,-184,-88,-4,43
3755,13,-128,-179,-96,1,39
3760,14,-128,-178,-103,7,35
3765,14,-134,-183,-108,13,31
3770,17,-133,-181,-111,18,28
3775,16,-135,-183,-110,23,26
3780,16,-137,-186,-104,31,25
3785,17,-136,-182,-89,38,23
3790,15,-133,-184,-67,46,24
3795,14,-138,-189,-44,53,25
3800,15,-136,-187,-20,62,25
3805,14,-132,-192,2,74,25
3810,17,-135,-190,23,86,27
3815,12,-131,-191,40,97,31
3820,12,-130,-187,58,110,33
3825,13,-128,-191,74,117,35
3830,12,-127,-191,87,124,34
3835,9,-125,-193,101,129,35
3840,8,-123,-193,111,129,34
3845,9,-123,-191,120,128,31
3850,4,-122,-187,124,122,29
3855,6,-114,-191,127,114,28
3860,9,-114,-192,127,104,28
3865,6,-114,-185,123,91,27
3870,10,-119,-180,119,74,26
3875,5,-109,-188,117,59,28
3880,8,-114,-190,115,43,28
3885,8,-110,-188,115,33,28
3890,11,-110,-185,115,24,30
3895,9,-109,-186,117,17,31
3900,14,-110,-186,122,14,28
3905,16,-109,-187,123,15,24
3910,18,-107,-186,122,21,22
3915,15,-105,-189,117,27,18
3920,20,-106,-189,113,32,14
3925,25,-99,-188,111,34,11
3930,21,-100,-191,108,31,5
3935,20,-98,-194,105,28,0
3940,22,-95,-194,102,25,-3
3945,16,-92,-200,100,22,-5
3950,15,-93,-196,96,20,-7
3955,17,-93,-198,91,12,-11
3960,14,-93,-198,88,0,-15
3965,16,-96,-193,91,-13,-16
3970,14,-91,-196,96,-27,-14
3975,15,-90,-193,102,-40,-11
3980,12,-83,-192,104,-49,-6
3985,12,-81,-180,105,-51,-1
3990,17,-78,-179,100,-50,4
3995,17,-78,-176,94,-44,6
4000,19,-78,-175,83,-32,8
4005,24,-73,-168,70,-17,4
4010,24,-71,-167,54,-2,2
4015,27,-65,-170,32,15,-6
4020,28,-69,-169,13,32,-13
4025,31,-64,-167,-5,52,-26
4030,34,-61,-164,-24,66,-40
4035,29,-66,-172,-39,80,-60
4040,32,-60,-166,-54,94,-80
4045,39,-60,-166,-72,107,-99
4050,37,-60,-167,-88,117,-114
4055,37,-57,-170,-101,125,-128
4060,29,-56,-166,-118,128,-136
4065,32,-55,-169,-132,124,-140
4070,30,-52,-166,-148,115,-141
4075,30,-51,-169,-164,98,-138
4080,27,-48,-167,-181,74,-133
4085,27,-52,-169,-201,45,-124
4090,23,-50,-175,-224,9,-112
4095,25,-53,-175,-251,-34,-102
4100,25,-50,-182,-277,-75,-85
4105,22,-49,-174,-307,-114,-68
4110,19,-49,-175,-336,-152,-54
4115,19,-49,-172,-362,-192,-39
4120,18,-51,-173,-386,-234,-26
4125,17,-55,-174,-404,-274,-19
4130,14,-58,-179,-418,-305,-15
4135,16,-56,-180,-431,-326,-14
4140,17,-60,-181,-440,-330,-16
4145,14,-64,-183,-449,-321,-19
4150,20,-67,-186,-454,-304,-23
4155,17,-68,-181,-455,-278,-27
4160,21,-77,-176,-447,-250,-31
4165,18,-79,-176,-430,-218,-36
4170,19,-86,-177,-400,-187,-41
4175,20,-95,-175,-362,-156,-47
4180,26,-98,-182,-321,-126,-51
4185,22,-101,-180,-284,-98,-52
4190,21,-101,-182,-254,-78,-51
4195,28,-100,-185,-229,-58,-44
4200,26,-101,-180,-213,-44,-34
4205,29,-103,-188,-199,-38,-22
4210,30,-101,-189,-186,-40,-14
4215,28,-103,-192,-168,-44,-6
4220,23,-104,-193,-142,-55,4
4225,22,-107,-198,-103,-75,10
4230,19,-108,-204,-54,-94,12
4235,20,-115,-200,5,-113,5
4240,16,-121,-209,68,-125,-7
4245,12,-127,-211,131,-132,-27
4250,8,-135,-210,184,-139,-49
4255,6,-142,-218,230,-140,-71
4260,8,-150,-214,270,-129,-95
4265,6,-153,-209,307,-111,-115
4270,5,-158,-203,348,-84,-135
4275,6,-160,-199,394,-48,-158
4280,5,-156,-199,441,-6,-175
4285,10,-158,-192,490,33,-181
4290,13,-157,-192,542,67,-178
4295,18,-158,-193,596,96,-163
4300,18,-166,-192,657,107,-143
4305,16,-161,-185,732,96,-123
4310,17,-175,-186,816,71,-104
4315,14,-187,-180,905,26,-84
4320,14,-192,-180,1002,-35,-59
4325,16,-198,-182,1103,-102,-41
4330,16,-204,-182,1210,-177,-28
4335,16,-208,-182,1312,-243,-19
4340,16,-211,-195,1413,-292,-19
4345,10,-214,-205,1506,-321,-30
4350,6,-222,-218,1598,-326,-47
4355,3,-237,-226,1689,-315,-67
4360,3,-242,-232,1780,-286,-82
4365,0,-258,-245,1869,-235,-90
4370,0,-273,-244,1955,-164,-92
4375,-2,-282,-240,2036,-74,-95
4380,0,-293,-239,2117,13,-89
4385,4,-305,-239,2208,103,-82
4390,13,-324,-237,2300,179,-72
4395,21,-340,-230,2393,231,-61
4400,24,-353,-230,2497,250,-54
4405,31,-368,-232,2626,248,-41
4410,38,-384,-229,2787,242,-14
4415,42,-395,-239,2988,224,14
4420,30,-394,-248,3222,185,42
4425,20,-374,-272,3483,112,85
4430,4,-324,-316,3813,17,129
4435,-4,-298,-330,4030,-62,166
4440,-18,-287,-325,4146,-110,191
4445,-26,-278,-300,4182,-139,184
4450,-38,-255,-272,4152,-153,179
4455,-22,-232,-250,4024,-159,198
4460,-7,-220,-251,3718,-173,246
4465,-3,-208,-253,3188,-214,278
4470,-14,-196,-245,2457,-251,250
4475,-29,-194,-207,1665,-248,170
4480,-29,-210,-168,977,-220,82
4485,-26,-215,-133,489,-180,29
4490,-24,-230,-105,204,-147,10
4495,-27,-234,-96,89,-124,23
4500,-21,-239,-84,109,-109,60
4505,-17,-232,-75,242,-104,106
4510,-13,-220,-73,449,-114,142
4515,-6,-217,-71,666,-133,161
4520,-4,-208,-69,845,-155,164
4525,-3,-200,-65,956,-177,156
4530,-1,-197,-62,993,-202,135
4535,-2,-197,-53,969,-225,113
4540,-1,-196,-52,900,-243,88
4545,2,-204,-43,813,-256,65
4550,2,-211,-38,728,-258,46
4555,4,-217,-35,661,-251,36
4560,12,-229,-34,622,-245,30
4565,17,-235,-30,613,-244,27
4570,18,-238,-28,634,-233,29
4575,26,-249,-28,684,-223,33
4580,29,-256,-25,750,-213,39
4585,31,-256,-18,829,-199,49
4590,33,-256,-15,904,-185,54
4595,36,-259,-15,971,-171,62
4600,31,-260,-14,1025,-153,72
4605,26,-259,-13,1071,-135,82
4610,21,-259,-11,1111,-123,85
4615,21,-257,-6,1149,-121,72
4620,18,-256,-11,1171,-103,70
4625,11,-254,-6,1202,-83,74
4630,8,-255,-14,1239,-78,62
4635,6,-255,-10,1264,-73,53
4640,6,-249,-10,1286,-59,56
4645,3,-247,-14,1305,-46,59
4650,1,-256,-7,1317,-37,62
4655,0,-243,-15,1319,-40,49
4660,0,-242,-12,1300,-32,48
4665,3,-242,-16,1269,-19,49
4670,2,-242,-18,1233,-3,52
4675,1,-243,-23,1196,11,58
4680,-2,-240,-24,1162,22,64
4685,-5,-249,-26,1140,35,67
4690,2,-248,-29,1136,48,55
4695,3,-251,-23,1132,70,51
4700,4,-253,-21,1127,86,57
4705,8,-250,-19,1124,91,61
4710,4,-249,-20,1116,85,65
4715,5,-251,-20,1105,76,64
4720,1,-248,-19,1088,70,59
4725,0,-248,-27,1070,67,49
4730,1,-246,-25,1040,68,39
4735,-2,-245,-30,1004,71,30
4740,3,-241,-36,965,77,23
4745,-2,-243,-38,925,86,17
4750,0,-246,-40,883,96,11
4755,0,-242,-39,845,109,0
4760,-1,-242,-37,805,119,-2
4765,0,-244,-37,775,126,-4
4770,-1,-241,-31,752,128,-5
4775,-2,-247,-36,735,127,-6
4780,-10,-241,-30,722,125,-4
4785,-12,-240,-31,703,113,1
4790,-9,-244,-28,684,98,5
4795,-12,-242,-32,668,88,10
4800,-16,-241,-28,649,71,18
4805,-15,-242,-28,628,59,23
4810,-16,-238,-29,611,46,28
4815,-15,-241,-30,599,37,33
4820,-15,-238,-22,587,32,37
4825,-16,-240,-22,575,25,40
4830,-14,-240,-22,562,22,43
4835,-9,-240,-20,548,20,42
4840,-3,-239,-17,528,22,42
4845,-8,-241,-22,505,23,38
4850,-3,-240,-18,477,29,31
4855,0,-244,-16,447,40,30
4860,3,-244,-20,419,53,24
4865,1,-247,-22,390,67,17
4870,3,-242,-19,364,81,4
4875,5,-243,-22,341,99,-8
4880,3,-240,-22,318,116,-18
4885,10,-241,-24,294,130,-27
4890,10,-241,-25,268,141,-32
4895,8,-235,-27,240,150,-35
4900,5,-237,-22,217,152,-36
4905,9,-234,-21,192,150,-34
4910,8,-236,-24,169,141,-31
4915,4,-237,-22,154,130,-29
4920,3,-236,-17,142,117,-27
4925,1,-239,-18,136,106,-27
4930,1,-239,-17,134,95,-27
4935,0,-242,-16,131,87,-28
4940,-1,-244,-15,130,81,-30
4945,-2,-244,-21,130,78,-33
4950,-2,-248,-19,131,77,-37
4955,-2,-251,-16,131,79,-39
4960,-1,-247,-11,133,78,-41
4965,-3,-248,-16,134,81,-42
4970,0,-249,-16,132,83,-43
4975,1,-250,-17,128,84,-43
4980,1,-249,-15,117,85,-44
4985,2,-244,-16,103,86,-44
4990,0,-245,-20,86,84,-44
4995,1,-242,-20,70,81,-45
5000,1,-247,-20,50,77,-49
5005,4,-246,-15,34,72,-48
5010,4,-234,-13,22,68,-49
5015,1,-247,-12,17,63,-50
5020,3,-250,-8,18,59,-48
5025,2,-248,-9,25,56,-46
5030,1,-250,-9,32,53,-44
5035,4,-248,-11,43,52,-42
5040,1,-247,-12,54,50,-38
5045,1,-249,-8,65,47,-35
5050,2,-246,-8,72,45,-35
5055,3,-248,-18,79,45,-36
5060,0,-248,-8,81,45,-37
5065,3,-248,-13,79,44,-41
5070,0,-244,-15,72,45,-42
5075,0,-246,-13,60,44,-46
5080,0,-245,-16,45,44,-48
5085,0,-242,-14,28,46,-52
5090,-2,-243,-14,17,45,-52
5095,0,-245,-14,6,45,-52
5100,1,-247,-11,0,44,-52
5105,-4,-247,-10,-3,46,-51
5110,0,-248,-7,-2,44,-49
5115,-1,-247,-12,1,44,-48
5120,0,-246,-13,4,44,-46
5125,-3,-249,-11,10,45,-42
5130,0,-248,-13,12,43,-41
5135,-4,-250,-13,14,43,-40
5140,-1,-248,-11,16,40,-38
5145,-2,-251,-13,16,39,-36
5150,-3,-250,-15,13,37,-36
5155,-5,-247,-11,13,35,-36
5160,-7,-248,-15,13,34,-38
5165,-5,-248,-11,10,31,-38
5170,-2,-248,-12,7,26,-39
5175,-5,-248,-10,5,22,-39
5180,-5,-248,-14,-1,19,-42
5185,-5,-245,-11,-4,16,-43
5190,-5,-245,-10,-9,16,-44
5195,-2,-249,-14,-13,14,-44
5200,-4,-249,-14,-16,14,-45
5205,-3,-246,-20,-19,12,-45
5210,-3,-249,-15,-21,11,-47
5215,-2,-248,-13,-21,11,-47
5220,-4,-245,-16,-19,11,-47
5225,-6,-245,-16,-20,13,-47
5230,1,-245,-17,-20,12,-44
5235,0,-246,-20,-20,12,-43
5240,2,-249,-15,-21,11,-44
5245,0,-247,-13,-23,10,-41
5250,2,-250,-17,-22,9,-41
5255,2,-251,-18,-20,7,-41
5260,4,-249,-17,-17,5,-40
5265,1,-249,-16,-11,3,-43
5270,2,-251,-18,-7,2,-43
5275,7,-254,-12,-3,3,-43
5280,1,-248,-17,1,4,-43
5285,1,-248,-19,4,5,-44
5290,1,-251,-22,9,6,-44
5295,1,-252,-22,13,9,-46
5300,1,-253,-20,18,9,-45
5305,1,-254,-19,26,11,-46
5310,1,-256,-18,37,10,-48
5315,0,-256,-17,46,10,-49
5320,2,-257,-22,58,6,-52
5325,3,-255,-18,68,6,-51
5330,-1,-248,-23,78,5,-51
5335,0,-254,-18,83,0,-50
5340,-2,-252,-19,84,-8,-49
5345,-3,-249,-18,82,-19,-47
5350,-3,-250,-16,76,-30,-47
5355,-5,-252,-17,71,-40,-47
5360,-4,-247,-18,63,-48,-48
5365,-4,-249,-14,54,-53,-47
5370,-6,-242,-14,45,-57,-47
5375,0,-244,-22,33,-57,-47
5380,1,-243,-21,20,-55,-46
5385,0,-238,-20,6,-54,-47
5390,3,-240,-21,-6,-53,-45
5395,7,-239,-12,-17,-53,-39
5400,6,-237,-15,-22,-54,-34
5405,10,-241,-17,-22,-54,-29
5410,11,-242,-18,-19,-54,-24
5415,10,-243,-14,-19,-52,-21
5420,17,-247,-14,-17,-50,-18
5425,9,-246,-15,-17,-46,-16
5430,12,-245,-20,-16,-42,-16
5435,16,-254,-17,-11,-36,-15
5440,18,-249,-14,-7,-28,-15
5445,17,-251,-16,-2,-21,-16
5450,14,-250,-17,4,-14,-15
5455,13,-251,-14,14,-6,-17
5460,17,-252,-17,22,1,-16
5465,13,-254,-10,31,9,-17
5470,11,-247,-14,40,15,-16
5475,10,-249,-10,48,19,-18
5480,8,-247,-8,51,26,-21
5485,9,-243,-15,55,30,-20
5490,8,-243,-15,55,32,-21
5495,8,-245,-13,51,32,-22
5500,5,-242,-12,45,32,-23
5505,6,-245,-10,37,32,-23
5510,0,-240,-10,31,30,-26
5515,1,-242,-12,22,27,-28
5520,0,-245,-12,17,24,-28
5525,-1,-243,-8,10,20,-28
5530,-1,-241,-8,5,16,-27
5535,-2,-245,-13,0,10,-27
5540,1,-244,-17,-6,3,-26
5545,0,-244,-13,-11,-2,-24
5550,0,-248,-17,-16,-8,-25
5555,1,-245,-21,-24,-13,-22
5560,-1,-246,-19,-31,-19,-21
5565,0,-246,-21,-35,-23,-20
5570,0,-249,-19,-40,-27,-17
5575,1,-249,-18,-38,-32,-17
5580,0,-250,-16,-35,-34,-18
5585,1,-249,-19,-34,-37,-19
5590,0,-250,-14,-32,-39,-22
5595,1,-255,-24,-31,-43,-23
5600,1,-253,-23,-31,-42,-24
5605,0,-252,-20,-29,-41,-23
5610,0,-250,-21,-32,-38,-22
5615,1,-251,-24,-33,-36,-24
5620,0,-252,-21,-31,-33,-23
5625,1,-248,-23,-26,-30,-20
5630,1,-249,-23,-19,-27,-21
5635,-2,-248,-25,-11,-22,-21
5640,1,-249,-27,-4,-17,-20
5645,1,-250,-25,-2,-14,-20
5650,3,-248,-26,0,-11,-22
5655,1,-246,-26,-1,-8,-23
5660,3,-244,-27,-3,-4,-23
5665,1,-241,-27,-6,-2,-27
5670,3,-245,-28,-10,-1,-29
5675,1,-246,-31,-14,0,-29
5680,0,-242,-31,-15,1,-29
5685,0,-245,-27,-16,1,-31
5690,1,-245,-30,-16,0,-31
5695,1,-247,-29,-17,-2,-30
5700,-1,-243,-26,-18,-5,-28
5705,2,-246,-28,-20,-6,-25
5710,1,-245,-28,-22,-7,-25
5715,1,-247,-35,-23,-6,-22
5720,4,-245,-30,-21,-5,-21
5725,1,-249,-28,-21,-5,-20
5730,2,-248,-31,-20,-4,-18
5735,1,-249,-29,-18,-3,-17
5740,4,-249,-31,-17,-2,-17
5745,3,-252,-28,-16,-2,-18
5750,1,-249,-28,-16,-2,-19
5755,4,-243,-30,-18,-2,-18
5760,5,-248,-27,-21,1,-18
5765,3,-249,-31,-22,1,-19
5770,5,-250,-31,-25,2,-19
5775,6,-249,-29,-25,1,-17
5780,6,-250,-28,-25,1,-17
5785,3,-249,-27,-22,0,-16
5790,5,-250,-28,-21,0,-18
5795,3,-251,-27,-16,-1,-17
5800,3,-246,-32,-12,-1,-19
5805,11,-249,-27,-10,-4,-19
5810,7,-247,-23,-10,-5,-17
5815,5,-249,-29,-10,-6,-18
5820,7,-250,-28,-9,-4,-18
5825,9,-245,-29,-8,-4,-18
5830,5,-247,-29,-8,-4,-19
5835,7,-249,-23,-8,-2,-17
5840,4,-250,-29,-6,-1,-17
5845,8,-250,-31,-4,1,-17
5850,5,-248,-26,0,2,-16
5855,6,-247,-27,4,4,-17
5860,4,-247,-29,9,6,-16
5865,7,-248,-30,16,8,-16
5870,1,-246,-25,22,9,-15
5875,6,-251,-27,26,11,-16
5880,5,-251,-27,29,13,-13
5885,6,-250,-28,30,12,-15
5890,5,-247,-28,33,13,-15
5895,3,-248,-27,34,12,-14
5900,7,-248,-25,32,14,-14
5905,8,-250,-26,31,13,-15
5910,7,-248,-25,30,11,-16
5915,5,-251,-28,29,12,-17
5920,4,-248,-24,29,12,-17
5925,4,-247,-25,29,12,-17
5930,4,-249,-23,32,13,-15
5935,5,-245,-29,34,13,-13
5940,3,-248,-23,36,14,-13
5945,8,-248,-28,39,13,-13
5950,3,-249,-27,43,14,-11
5955,3,-250,-31,45,16,-10
5960,3,-246,-32,45,17,-9
5965,6,-251,-26,45,17,-9
5970,5,-254,-27,43,18,-8
5975,4,-249,-31,43,17,-7
5980,5,-249,-28,42,19,-7
5985,4,-245,-22,44,18,-8
5990,4,-247,-26,44,19,-10
5995,4,-248,-28,44,19,-10
6000,2,-245,-29,46,19,-12
6005,2,-244,-30,46,19,-12
6010,4,-246,-29,45,21,-10
6015,3,-249,-23,45,20,-12
6020,2,-250,-33,45,22,-10
6025,6,-250,-27,44,23,-9
6030,2,-247,-26,45,24,-8
6035,5,-250,-27,44,26,-7
6040,5,-249,-28,45,28,-7
6045,4,-244,-25,47,29,-6
6050,6,-249,-26,49,28,-4
6055,6,-250,-28,49,30,-4
6060,3,-249,-31,51,29,-5
6065,1,-249,-28,52,30,-4
6070,5,-251,-26,55,31,-4
6075,9,-250,-27,57,31,-2
6080,0,-246,-29,59,31,-3
6085,3,-247,-25,62,31,-3
6090,4,-248,-27,65,31,-2
6095,2,-247,-28,67,31,-2
6100,4,-245,-28,70,31,-1
6105,4,-246,-30,67,31,0
6110,1,-247,-26,64,31,-2
6115,7,-247,-28,61,30,-1
6120,4,-251,-26,58,29,-2
6125,2,-245,-26,58,28,-2
6130,4,-252,-29,60,28,0
6135,1,-249,-28,64,26,-1
6140,4,-247,-30,67,25,0
6145,1,-247,-29,71,23,0
6150,4,-250,-25,73,20,0
6155,2,-246,-26,75,17,0
6160,6,-246,-25,77,13,0
6165,4,-250,-27,76,9,0
6170,4,-248,-27,77,6,0
6175,4,-246,-25,76,2,1
6180,2,-249,-28,77,-1,1
6185,4,-249,-21,74,-2,2
6190,5,-248,-26,72,-2,3
6195,4,-247,-24,72,0,2
6200,2,-249,-27,73,0,4
6205,2,-248,-25,74,1,5
6210,1,-246,-22,75,3,6
6215,-2,-244,-25,77,2,5
6220,1,-248,-24,79,1,7
6225,2,-250,-24,79,0,7
6230,4,-248,-22,79,-3,7
6235,-2,-252,-28,76,-7,5
6240,2,-247,-23,73,-7,6
6245,1,-246,-25,70,-12,5
6250,1,-249,-27,68,-15,4
6255,2,-248,-26,67,-18,4
6260,1,-248,-25,65,-22,6
6265,1,-247,-25,66,-23,6
6270,0,-246,-27,66,-27,6
6275,1,-249,-22,67,-27,5
6280,1,-247,-23,68,-28,6
6285,1,-249,-26,70,-28,6
6290,2,-246,-18,70,-27,7
6295,3,-247,-27,71,-25,6
6300,5,-253,-24,71,-22,7
6305,2,-248,-26,72,-18,7
6310,2,-244,-26,73,-14,6
6315,2,-247,-25,75,-11,5
6320,5,-247,-25,77,-7,6
6325,3,-247,-26,80,-4,3
6330,4,-245,-25,83,-1,3
6335,8,-249,-22,84,0,1
6340,11,-250,-30,84,2,-1
6345,7,-248,-23,82,2,-1
6350,7,-250,-20,82,2,-1
6355,5,-247,-22,80,2,-3
6360,4,-246,-24,78,1,-4
6365,3,-246,-23,76,2,-4
6370,6,-249,-25,75,2,-3
6375,2,-249,-23,74,3,-4
6380,5,-248,-22,75,3,-2
6385,7,-249,-24,76,3,-3
6390,5,-246,-25,77,4,-3
6395,4,-249,-23,78,4,-6
6400,6,-248,-24,78,7,-4
6405,5,-248,-24,78,8,-3
6410,5,-248,-25,78,8,-4
6415,5,-250,-23,76,9,-5
6420,4,-246,-25,76,9,-4
6425,7,-248,-28,75,10,-5
6430,6,-249,-23,74,9,-4
6435,3,-243,-24,73,11,-6
6440,4,-246,-27,72,11,-6
6445,5,-247,-26,72,12,-6
6450,3,-251,-27,71,13,-7
6455,5,-248,-27,71,13,-9
6460,3,-247,-21,72,13,-9
6465,6,-246,-22,70,12,-9
6470,2,-250,-27,66,13,-12
6475,1,-243,-26,61,14,-13
6480,1,-241,-24,57,13,-14
6485,3,-243,-23,50,13,-11
6490,1,-246,-24,46,11,-12
6495,4,-243,-20,41,10,-12
6500,3,-250,-25,37,9,-10
6505,2,-244,-22,36,9,-9
6510,1,-248,-26,32,10,-7
6515,1,-249,-27,31,10,-5
6520,4,-251,-22,31,12,-5
6525,2,-249,-27,30,12,-3
6530,1,-248,-27,31,13,-3
6535,0,-244,-23,31,12,-4
6540,1,-245,-30,31,14,-4
6545,0,-245,-23,29,13,-4
6550,1,-249,-30,27,15,-2
6555,0,-248,-32,26,15,-2
6560,2,-249,-24,25,14,-4
6565,2,-246,-23,28,13,-5
6570,2,-247,-27,28,14,-5
6575,2,-248,-24,31,12,-5
6580,4,-248,-25,31,13,-4
6585,2,-244,-27,33,13,-5
6590,4,-245,-28,33,14,-5
6595,1,-248,-25,30,15,-8
6600,6,-250,-24,27,18,-8
6605,1,-249,-26,25,20,-8
6610,0,-245,-23,21,21,-8
6615,4,-251,-26,19,23,-11
6620,2,-247,-26,19,25,-11
6625,3,-249,-21,20,23,-10
6630,4,-244,-24,21,24,-10
6635,1,-250,-24,24,25,-10
6640,4,-249,-25,26,24,-9
6645,0,-251,-23,27,24,-9
6650,3,-252,-24,28,23,-9
6655,4,-246,-21,32,21,-10
6660,4,-251,-25,33,21,-10
6665,1,-247,-25,34,21,-9
6670,2,-247,-24,34,20,-8
6675,3,-249,-26,34,20,-10
6680,2,-246,-25,34,22,-9
6685,1,-245,-23,34,22,-11
6690,2,-247,-22,35,21,-12
6695,3,-248,-26,35,23,-10
6700,3,-249,-23,36,23,-11
6705,0,-247,-21,37,23,-11
6710,2,-245,-25,39,22,-13
6715,8,-249,-35,43,22,-10
6720,3,-247,-21,46,21,-9
6725,4,-249,-28,49,21,-7
6730,1,-247,-24,49,20,-6
6735,3,-248,-26,50,19,-4
6740,3,-245,-26,48,16,-3
6745,4,-247,-26,43,15,-4
6750,3,-244,-31,38,12,-5
6755,2,-248,-25,33,12,-8
6760,-1,-246,-25,30,10,-7
6765,0,-246,-28,27,10,-8
6770,2,-244,-26,25,11,-9
6775,2,-247,-27,25,12,-8
6780,0,-248,-24,25,12,-10
6785,1,-248,-25,27,13,-8
6790,3,-250,-26,27,15,-10
6795,2,-250,-26,28,17,-11
6800,2,-246,-27,31,16,-9
6805,3,-250,-24,35,17,-8
6810,5,-250,-21,39,16,-10
6815,4,-250,-23,42,16,-9
6820,4,-251,-23,44,14,-10
6825,3,-250,-25,44,12,-8
6830,3,-250,-24,45,10,-8
6835,3,-248,-30,45,9,-8
6840,4,-246,-28,45,8,-10
6845,3,-245,-24,44,8,-11
6850,0,-245,-30,44,7,-9
6855,2,-246,-25,42,7,-10
6860,2,-246,-31,43,6,-8
6865,2,-247,-33,43,8,-8
6870,1,-242,-28,44,8,-10
6875,2,-245,-30,43,9,-10
6880,2,-245,-25,43,7,-10
6885,4,-248,-28,42,7,-10
6890,3,-246,-27,41,8,-10
6895,2,-246,-26,38,7,-12
6900,1,-246,-26,36,7,-10
6905,1,-245,-25,34,6,-12
6910,3,-249,-27,32,6,-14
6915,3,-246,-25,31,6,-14
6920,7,-250,-28,30,6,-13
6925,0,-247,-23,30,5,-13
6930,-3,-246,-25,29,5,-13
6935,0,-249,-25,28,7,-13
6940,2,-247,-27,29,7,-12
6945,4,-245,-23,29,8,-13
6950,6,-249,-29,30,8,-13
6955,3,-251,-25,31,8,-13
6960,2,-248,-27,34,10,-12
6965,2,-249,-26,33,10,-12
6970,7,-250,-23,36,10,-12
6975,0,-245,-26,36,10,-14
6980,3,-248,-20,35,9,-14
6985,3,-248,-23,31,7,-14
6990,3,-248,-27,29,6,-13
6995,1,-246,-29,27,4,-14
7000,2,-244,-25,26,3,-14
7005,2,-247,-23,25,3,-13
7010,1,-249,-28,23,3,-13
7015,1,-245,-26,20,2,-12
7020,2,-245,-29,22,2,-14
7025,4,-248,-29,24,4,-15
7030,2,-252,-24,25,4,-15
7035,6,-250,-34,29,5,-16
7040,3,-246,-28,31,7,-17
7045,4,-249,-27,33,8,-16
7050,2,-251,-26,35,9,-14
7055,1,-249,-31,38,11,-14
7060,5,-251,-27,41,13,-16
7065,2,-249,-27,43,13,-15
7070,2,-252,-27,43,13,-15
7075,1,-247,-25,45,11,-13
7080,2,-248,-29,45,12,-13
7085,2,-251,-24,45,12,-14
7090,9,-247,-27,46,11,-13
7095,3,-246,-22,46,11,-13
7100,0,-249,-28,46,12,-14
7105,3,-248,-23,47,11,-15
7110,3,-249,-30,47,11,-14
7115,2,-244,-29,47,10,-13
7120,6,-248,-29,45,9,-15
7125,0,-247,-28,45,9,-15
7130,3,-250,-29,44,10,-13
7135,4,-250,-25,44,8,-15
7140,0,-241,-36,44,8,-16
7145,5,-249,-25,44,8,-16
7150,5,-249,-27,44,7,-16
7155,2,-248,-27,45,8,-16
7160,0,-248,-27,43,8,-17
7165,6,-246,-28,43,9,-15
7170,2,-247,-29,42,10,-16
7175,4,-247,-24,42,10,-17
7180,3,-245,-25,40,10,-18
7185,1,-248,-25,40,11,-19
7190,4,-247,-26,39,13,-19
7195,1,-249,-25,40,15,-19
7200,3,-248,-28,40,16,-20
7205,2,-244,-25,42,16,-20
7210,2,-245,-28,42,18,-20
7215,2,-245,-27,42,18,-20
7220,1,-250,-31,42,18,-19
7225,2,-245,-27,41,18,-20
7230,7,-249,-31,40,17,-19
7235,4,-248,-28,41,17,-19
7240,1,-247,-29,43,16,-18
7245,2,-247,-26,46,14,-18
7250,4,-252,-27,48,13,-18
7255,5,-246,-29,50,13,-15
7260,5,-252,-32,50,13,-16
7265,2,-246,-29,48,11,-16
7270,4,-245,-27,48,12,-18
7275,1,-244,-30,48,12,-20
7280,0,-247,-31,47,12,-18
7285,3,-249,-26,49,14,-18
7290,3,-250,-30,49,15,-19
7295,2,-245,-29,49,17,-20
7300,3,-246,-30,50,18,-19
7305,2,-248,-31,53,19,-18
7310,3,-245,-32,54,18,-16
7315,4,-245,-31,56,18,-16
7320,4,-245,-28,54,18,-16
7325,2,-245,-32,51,16,-14
7330,2,-247,-28,47,15,-16
7335,3,-244,-20,43,13,-18
7340,3,-244,-29,38,13,-19
7345,5,-247,-29,36,12,-19
7350,7,-247,-25,33,12,-20
7355,1,-246,-27,32,13,-19
7360,2,-246,-28,30,13,-20
7365,2,-248,-25,31,15,-18
7370,2,-246,-28,30,16,-19
7375,2,-246,-26,32,18,-18
7380,3,-245,-23,35,17,-20
7385,3,-247,-26,37,17,-18
7390,5,-250,-25,38,19,-18
7395,5,-249,-31,40,17,-19
7400,2,-247,-29,42,15,-18
7405,1,-247,-30,43,14,-17
7410,6,-250,-25,44,13,-19
7415,3,-249,-29,44,12,-18
7420,4,-249,-23,45,12,-20
7425,6,-249,-31,47,11,-19
7430,2,-248,-24,50,11,-20
7435,2,-249,-29,52,11,-19
7440,2,-249,-27,53,11,-20
7445,2,-248,-30,55,12,-21
7450,3,-246,-29,57,11,-20
7455,0,-249,-24,59,12,-19
7460,0,-250,-30,61,11,-18
7465,5,-251,-28,62,12,-18
7470,2,-249,-29,62,13,-17
7475,3,-248,-27,61,13,-16
7480,4,-247,-28,62,12,-15
7485,3,-250,-29,60,12,-14
7490,4,-248,-28,59,12,-13
7495,1,-249,-28,60,13,-13
7500,3,-246,-25,61,12,-14
7505,4,-247,-31,61,11,-13
7510,6,-248,-30,61,13,-15
7515,2,-246,-33,62,13,-13
7520,2,-244,-28,65,13,-13
7525,2,-247,-30,67,12,-14
7530,4,-250,-27,67,13,-14
7535,7,-251,-30,67,13,-14
7540,6,-249,-27,68,14,-13
7545,4,-247,-26,68,15,-14
7550,4,-249,-27,69,15,-13
7555,3,-248,-32,71,15,-12
7560,4,-246,-31,72,16,-12
7565,4,-247,-27,74,16,-14
7570,0,-245,-28,75,16,-11
7575,7,-249,-26,76,16,-12
7580,4,-249,-26,74,15,-13
7585,2,-246,-30,71,14,-12
7590,6,-247,-25,68,13,-13
7595,5,-247,-27,65,11,-14
7600,3,-248,-27,63,10,-14
7605,4,-249,-27,62,10,-12
7610,2,-246,-24,62,8,-12
7615,5,-247,-33,62,8,-10
7620,2,-247,-26,62,8,-10
7625,2,-248,-27,63,9,-10
7630,4,-251,-27,64,9,-9
7635,2,-248,-25,66,11,-9
7640,3,-246,-24,67,12,-9
7645,5,-250,-26,67,11,-10
7650,5,-248,-25,68,10,-10
7655,6,-247,-26,69,11,-10
7660,2,-245,-29,67,13,-10
7665,2,-250,-27,66,13,-11
7670,4,-246,-27,66,13,-10
7675,1,-248,-30,66,14,-11
7680,3,-247,-27,64,13,-11
7685,4,-246,-25,64,12,-12
7690,5,-250,-25,62,12,-12
7695,4,-248,-24,63,11,-9
7700,4,-247,-29,62,12,-10
7705,2,-242,-25,62,10,-7
7710,7,-251,-28,61,11,-7
7715,4,-246,-30,61,10,-8
7720,6,-249,-26,61,9,-7
7725,4,-252,-26,59,10,-8
7730,8,-253,-31,57,10,-8
7735,4,-248,-30,57,10,-9
7740,5,-248,-26,57,9,-9
7745,4,-247,-25,58,10,-10
7750,3,-246,-23,59,9,-9
7755,5,-248,-32,58,10,-8
7760,8,-247,-23,58,11,-9
7765,4,-248,-26,59,12,-10
7770,5,-247,-27,59,12,-10
7775,4,-250,-26,60,13,-8
7780,0,-245,-30,63,14,-8
7785,4,-245,-29,63,15,-7
7790,5,-251,-29,64,18,-9
7795,4,-247,-26,64,18,-10
7800,3,-247,-26,64,18,-11
7805,2,-248,-29,62,19,-11
7810,3,-247,-27,62,19,-10
7815,3,-250,-26,63,18,-8
7820,2,-248,-30,64,19,-8
7825,5,-249,-26,63,20,-9
7830,1,-246,-26,63,19,-7
7835,4,-242,-24,63,17,-7
7840,2,-248,-29,66,18,-6
7845,2,-248,-28,67,16,-7
7850,4,-244,-27,65,15,-7
7855,3,-247,-26,63,15,-7
7860,2,-245,-27,59,15,-10
7865,5,-247,-27,56,15,-9
7870,5,-248,-27,53,14,-8
7875,1,-250,-24,52,16,-10
7880,2,-249,-27,53,15,-10
7885,6,-248,-26,57,16,-9
7890,4,-249,-18,61,16,-8
7895,4,-247,-30,64,17,-8
7900,2,-248,-28,68,18,-9
7905,5,-249,-26,71,19,-9
7910,5,-248,-30,72,18,-9
7915,6,-248,-28,72,15,-11
7920,3,-248,-25,73,14,-11
7925,5,-245,-27,72,12,-11
7930,3,-247,-25,73,10,-11
7935,3,-248,-31,70,9,-10
7940,4,-247,-24,69,9,-10
7945,1,-243,-23,68,9,-11
7950,3,-246,-24,67,9,-10
7955,4,-249,-22,67,11,-7
7960,3,-249,-26,68,12,-6
7965,3,-246,-24,68,13,-8
7970,2,-246,-22,68,13,-6
7975,6,-247,-26,67,15,-8
7980,3,-248,-25,66,16,-6
7985,3,-247,-24,65,16,-7
7990,1,-247,-27,62,15,-8
7995,3,-248,-26,59,16,-8
8000,2,-249,-24,58,17,-8
8005,3,-247,-22,58,17,-8
8010,6,-251,-26,59,16,-8
8015,2,-247,-27,58,14,-8
8020,5,-249,-27,57,14,-11
8025,3,-247,-23,58,11,-9
8030,4,-248,-25,57,11,-8
8035,4,-248,-26,57,12,-8
8040,5,-249,-26,60,10,-9
8045,4,-248,-22,61,11,-7
8050,4,-247,-28,62,12,-7
8055,4,-248,-25,64,12,-8
8060,4,-246,-25,66,13,-8
8065,4,-246,-27,67,14,-7
8070,2,-249,-25,68,15,-7
8075,4,-246,-24,69,14,-7
8080,5,-247,-24,72,15,-8
8085,5,-245,-26,72,16,-9
8090,1,-247,-29,71,15,-8
8095,5,-247,-28,70,15,-10
8100,3,-247,-20,69,16,-10
8105,2,-243,-27,70,15,-10
8110,2,-249,-23,69,15,-11
8115,3,-247,-22,69,15,-10
8120,3,-249,-25,68,15,-10
8125,3,-250,-25,67,15,-11
8130,2,-246,-25,67,16,-10
8135,3,-249,-26,65,16,-9
8140,6,-247,-24,64,13,-9
8145,3,-248,-23,64,15,-9
8150,4,-246,-26,62,15,-10
8155,2,-244,-26,62,15,-11
8160,5,-249,-25,61,14,-9
8165,2,-248,-27,60,15,-8
8170,2,-247,-26,59,14,-8
8175,3,-247,-23,60,13,-9
8180,6,-247,-26,59,11,-8
8185,4,-249,-28,57,12,-8
8190,2,-248,-28,57,12,-9
8195,7,-246,-26,56,11,-7
8200,2,-249,-24,55,12,-9
8205,4,-248,-27,57,13,-10
8210,1,-248,-29,60,11,-8
8215,3,-246,-28,61,13,-8
8220,5,-247,-25,62,15,-9
8225,5,-247,-25,64,15,-11
8230,5,-247,-24,64,16,-9
8235,3,-248,-26,64,17,-9
8240,3,-245,-25,66,17,-11
8245,0,-247,-24,68,18,-11
8250,2,-248,-26,68,17,-12
8255,3,-250,-19,67,18,-11
8260,5,-249,-30,68,15,-10
8265,3,-248,-25,68,16,-11
8270,4,-248,-24,67,17,-10
8275,4,-248,-22,64,15,-10
8280,2,-249,-23,64,14,-10
8285,3,-247,-20,63,14,-9
8290,3,-247,-24,63,12,-8
8295,1,-246,-22,63,10,-7
8300,3,-249,-21,62,10,-7
8305,3,-246,-22,60,8,-7
8310,1,-249,-26,60,7,-8
8315,1,-247,-25,58,6,-8
8320,3,-248,-26,57,8,-8
8325,4,-247,-25,58,8,-9
8330,3,-247,-24,57,8,-10
8335,5,-250,-27,57,8,-10
8340,6,-248,-24,57,8,-11
8345,1,-248,-24,59,8,-10
8350,5,-248,-24,60,11,-11
8355,3,-248,-25,61,10,-12
8360,2,-246,-22,61,11,-12
8365,8,-249,-25,61,13,-13
8370,1,-248,-22,61,15,-12
8375,4,-249,-25,62,15,-11
8380,4,-249,-22,62,16,-11
8385,1,-248,-21,63,17,-10
8390,3,-251,-26,63,17,-10
8395,4,-249,-20,64,18,-10
8400,4,-246,-22,63,17,-10
8405,3,-247,-28,64,16,-11
8410,5,-250,-24,66,15,-11
8415,4,-247,-26,66,15,-10
8420,1,-241,-23,66,15,-10
8425,3,-249,-22,65,15,-10
8430,3,-248,-23,64,14,-13
8435,3,-247,-25,62,13,-12
8440,4,-248,-24,60,11,-12
8445,2,-244,-29,59,12,-13
8450,3,-244,-26,57,12,-10
8455,2,-246,-23,55,14,-9
8460,4,-249,-23,54,14,-9
8465,5,-247,-23,51,14,-10
8470,4,-248,-24,50,15,-11
8475,0,-244,-25,50,14,-12
8480,1,-249,-23,49,15,-10
8485,3,-249,-27,51,14,-13
8490,4,-250,-26,55,15,-13
8495,4,-247,-23,58,14,-13
8500,5,-251,-29,62,15,-13
8505,3,-250,-27,63,16,-12
8510,3,-248,-23,65,15,-11
8515,6,-248,-28,65,14,-11
8520,4,-248,-24,66,13,-10
8525,6,-249,-19,66,11,-11
8530,2,-247,-27,64,8,-11
8535,5,-246,-25,62,8,-9
8540,5,-245,-24,62,8,-10
8545,6,-246,-23,60,10,-9
8550,2,-247,-26,61,11,-9
8555,3,-247,-26,63,12,-9
8560,3,-246,-23,65,14,-8
8565,2,-246,-25,68,15,-9
8570,4,-244,-22,69,15,-9
8575,1,-245,-20,69,15,-8
8580,5,-246,-21,69,15,-9
8585,2,-246,-26,67,14,-10
8590,1,-244,-23,64,15,-9
8595,3,-246,-25,61,14,-11
8600,2,-246,-21,58,14,-10
8605,1,-247,-22,55,14,-12
8610,2,-247,-28,55,13,-14
8615,3,-247,-25,54,13,-13
8620,4,-247,-21,53,13,-14
8625,6,-248,-21,54,13,-13
8630,3,-244,-21,54,13,-11
8635,3,-251,-27,55,12,-12
8640,2,-249,-13,56,13,-11
8645,1,-246,-26,57,14,-12
8650,1,-249,-21,60,15,-12
8655,3,-250,-24,61,15,-11
8660,5,-249,-26,62,16,-11
8665,7,-248,-25,63,16,-10
8670,5,-250,-22,65,16,-8
8675,6,-248,-25,63,17,-10
8680,5,-246,-20,62,17,-10
8685,2,-242,-26,61,16,-10
8690,2,-248,-24,59,15,-10
8695,4,-245,-22,58,14,-10
8700,5,-250,-23,57,13,-14
8705,3,-250,-24,56,14,-13
8710,4,-245,-22,54,12,-14
8715,3,-247,-21,54,11,-13
8720,3,-249,-25,54,11,-12
8725,3,-251,-20,54,12,-12
8730,4,-248,-23,52,12,-10
8735,6,-248,-22,51,12,-12
8740,2,-245,-17,50,13,-12
8745,4,-247,-23,50,13,-11
8750,4,-246,-25,51,14,-11
8755,2,-246,-25,50,12,-12
8760,3,-248,-24,49,14,-10
8765,4,-247,-22,49,13,-12
8770,4,-246,-22,48,13,-12
8775,7,-247,-20,48,12,-12
8780,1,-244,-23,48,9,-12
8785,3,-248,-26,48,8,-12
8790,3,-249,-28,49,10,-11
8795,2,-246,-31,49,10,-11
8800,4,-248,-27,50,8,-12
8805,4,-250,-22,51,9,-11
8810,5,-246,-25,51,9,-13
8815,4,-250,-23,53,9,-12
8820,4,-248,-23,55,11,-13
8825,1,-248,-20,55,11,-13
8830,4,-248,-22,56,11,-12
8835,5,-248,-25,56,12,-13
8840,6,-249,-20,57,12,-13
8845,3,-249,-19,57,13,-13
8850,4,-252,-31,57,13,-12
8855,4,-248,-24,55,13,-10
8860,3,-248,-23,55,12,-10
8865,1,-250,-21,56,12,-9
8870,0,-246,-25,53,12,-9
8875,2,-248,-19,52,11,-10
8880,1,-248,-23,52,12,-8
8885,5,-249,-29,53,13,-7
8890,5,-248,-23,54,13,-7
8895,5,-251,-20,54,12,-7
8900,12,-245,-25,54,11,-7
8905,5,-251,-20,54,10,-10
8910,1,-247,-27,53,10,-10
8915,3,-249,-24,52,11,-10
8920,5,-250,-22,50,10,-12
8925,4,-248,-23,49,9,-10
8930,3,-246,-22,51,10,-11
8935,3,-247,-22,51,11,-12
8940,1,-246,-20,51,11,-11
8945,4,-246,-25,52,12,-13
8950,4,-247,-26,54,10,-12
8955,1,-247,-27,52,12,-11
8960,2,-246,-22,54,11,-10
8965,3,-250,-26,54,14,-10
8970,5,-250,-24,55,13,-10
8975,3,-250,-25,54,12,-9
8980,4,-245,-24,53,12,-9
8985,4,-246,-20,54,13,-9
8990,6,-249,-25,52,14,-9
8995,4,-248,-24,52,13,-10
9000,6,-248,-24,50,12,-10
9005,6,-247,-19,47,13,-9
9010,4,-250,-19,47,13,-11
9015,1,-248,-24,47,12,-9
9020,1,-247,-25,48,14,-9
9025,3,-247,-24,50,13,-9
9030,3,-249,-21,51,13,-8
9035,2,-245,-23,52,13,-9
9040,2,-249,-24,56,14,-10
9045,7,-248,-20,57,16,-11
9050,1,-248,-23,58,15,-10
9055,1,-251,-23,56,15,-10
9060,1,-246,-30,56,16,-11
9065,2,-244,-24,56,14,-9
9070,3,-246,-20,55,15,-11
9075,3,-248,-25,53,13,-12
9080,7,-247,-24,52,13,-11
9085,3,-246,-23,49,11,-9
9090,6,-246,-21,47,12,-9
9095,2,-248,-24,42,10,-11
9100,6,-247,-23,41,11,-11
9105,1,-247,-24,38,12,-11
9110,4,-249,-25,37,13,-12
9115,1,-249,-22,37,13,-11
9120,3,-250,-24,41,14,-11
9125,2,-247,-23,45,16,-11
9130,2,-245,-23,51,15,-12
9135,4,-248,-27,56,15,-13
9140,3,-250,-26,60,15,-11
9145,1,-247,-23,64,17,-12
9150,8,-248,-27,66,14,-13
9155,3,-249,-27,65,13,-13
9160,3,-248,-24,63,11,-10
9165,6,-247,-24,62,10,-8
9170,1,-244,-29,60,7,-8
9175,3,-249,-21,57,7,-7
9180,3,-249,-22,54,5,-6
9185,5,-246,-18,53,5,-8
9190,2,-247,-23,53,6,-8
9195,3,-249,-25,54,7,-6
9200,4,-249,-22,55,7,-8
9205,2,-248,-23,56,10,-9
9210,4,-246,-23,55,12,-9
9215,2,-246,-26,55,14,-10
9220,3,-249,-22,55,15,-10
9225,5,-250,-22,55,15,-11
9230,6,-252,-25,54,15,-11
9235,4,-249,-24,52,16,-11
9240,2,-246,-25,52,15,-11
9245,4,-247,-23,51,15,-11
9250,7,-249,-28,51,13,-9
9255,5,-247,-24,52,12,-11
9260,3,-245,-28,51,13,-11
9265,3,-249,-21,53,11,-9
9270,3,-251,-24,54,12,-10
9275,6,-251,-27,55,12,-10
9280,2,-247,-22,57,11,-12
9285,4,-247,-22,58,11,-12
9290,2,-248,-25,58,12,-11
9295,4,-247,-21,59,12,-11
9300,5,-250,-20,58,13,-9
9305,4,-246,-22,56,14,-10
9310,3,-244,-23,54,15,-11
9315,3,-248,-26,54,15,-8
9320,4,-246,-28,54,15,-7
9325,1,-249,-23,53,15,-10
9330,0,-251,-18,53,14,-9
9335,3,-247,-24,54,15,-9
9340,1,-246,-26,54,15,-10
9345,6,-250,-21,55,14,-11
9350,2,-249,-23,54,13,-10
9355,3,-249,-21,52,13,-11
9360,3,-252,-16,53,13,-11
9365,0,-246,-22,52,13,-12
9370,2,-247,-27,51,14,-11
9375,4,-250,-23,51,12,-11
9380,2,-249,-24,52,13,-10
9385,5,-248,-22,51,14,-10
9390,3,-249,-22,52,16,-9
9395,6,-249,-25,51,15,-9
9400,3,-246,-19,52,14,-8
9405,3,-249,-26,53,14,-8
9410,2,-248,-21,53,13,-8
9415,3,-246,-19,52,13,-9
9420,4,-249,-27,52,11,-11
9425,4,-249,-17,52,12,-11
9430,3,-248,-16,52,10,-9
9435,7,-243,-25,53,9,-9
9440,-2,-251,-32,53,8,-10
9445,4,-246,-14,53,10,-9
9450,8,-245,-26,55,9,-9
9455,0,-248,-22,56,9,-8
9460,6,-250,-22,57,11,-10
9465,3,-248,-19,57,11,-11
9470,2,-254,-22,59,12,-11
9475,9,-252,-23,58,13,-12
9480,6,-248,-23,57,13,-11
9485,9,-251,-14,55,12,-12
9490,7,-247,-17,52,11,-12
9495,5,-247,-24,51,9,-11
9500,7,-244,-30,51,10,-10
9505,3,-247,-17,48,10,-11
9510,14,-239,-21,47,10,-11
9515,3,-246,-12,47,10,-10
9520,2,-257,-23,48,10,-10
9525,3,-247,-17,49,10,-9
9530,12,-248,-15,50,10,-12
9535,11,-250,-20,49,10,-13
9540,3,-243,-32,50,9,-13
9545,0,-253,-22,50,8,-12
9550,-2,-246,-23,50,8,-12
9555,7,-247,-22,47,6,-12
9560,8,-249,-20,48,6,-13
9565,7,-252,-12,48,6,-12
9570,5,-253,-18,48,7,-12
9575,2,-247,-27,50,9,-13
9580,3,-247,-25,50,10,-13
9585,3,-248,-21,51,11,-12
9590,3,-248,-27,51,12,-11
9595,6,-248,-23,53,12,-10
9600,3,-248,-22,52,14,-9
9605,1,-249,-28,51,14,-9
9610,5,-246,-20,52,14,-9
9615,4,-245,-23,53,15,-9
9620,0,-249,-22,53,16,-9
9625,4,-248,-21,52,15,-8
9630,1,-242,-27,52,12,-10
9635,5,-242,-24,52,13,-11
9640,1,-246,-25,52,13,-11
9645,2,-248,-23,50,11,-11
9650,3,-247,-26,48,9,-11
9655,3,-245,-23,46,9,-12
9660,3,-245,-24,44,8,-11
9665,1,-247,-22,43,9,-13
9670,2,-249,-22,44,8,-12
9675,8,-250,-20,45,8,-13
9680,2,-250,-27,43,10,-12
9685,2,-247,-23,44,11,-11
9690,3,-248,-21,44,10,-10
9695,1,-248,-27,44,11,-9
9700,5,-246,-33,43,13,-9
9705,0,-249,-20,43,14,-9
9710,4,-247,-21,42,15,-8
9715,3,-246,-25,42,17,-10
9720,4,-250,-22,44,17,-12
9725,4,-249,-21,47,17,-11
9730,3,-249,-22,47,16,-10
9735,3,-248,-21,50,14,-11
9740,6,-249,-24,50,13,-12
9745,7,-247,-27,50,12,-11
9750,4,-244,-21,47,13,-12
9755,11,-245,-25,45,10,-13
9760,3,-244,-19,41,10,-12
9765,3,-246,-22,37,10,-15
9770,2,-244,-22,34,10,-12
9775,3,-248,-22,32,9,-11
9780,4,-245,-24,30,11,-12
9785,3,-248,-27,29,12,-11
9790,3,-251,-18,29,13,-11
9795,2,-249,-19,31,12,-11
9800,3,-248,-23,32,13,-12
9805,3,-247,-23,36,14,-12
9810,2,-251,-22,39,12,-13
9815,5,-253,-26,43,12,-14
9820,2,-251,-27,48,12,-13
9825,6,-249,-24,51,11,-13
9830,4,-249,-23,54,10,-13
9835,5,-247,-24,54,9,-12
9840,4,-245,-22,53,9,-12
9845,2,-246,-22,51,8,-13
9850,3,-252,-20,48,7,-11
9855,6,-249,-26,45,6,-10
9860,2,-245,-26,43,7,-11
9865,2,-245,-23,38,7,-12
9870,1,-245,-20,37,7,-11
9875,1,-246,-17,35,10,-10
9880,3,-247,-20,38,12,-9
9885,5,-252,-22,39,14,-9
9890,3,-246,-24,41,15,-10
9895,3,-247,-20,43,15,-12
9900,2,-248,-22,44,15,-11
9905,8,-251,-21,45,14,-11
9910,2,-249,-23,44,14,-11
9915,4,-246,-27,44,13,-11
9920,5,-250,-24,43,12,-11
9925,2,-251,-21,42,10,-12
9930,4,-248,-25,43,8,-15
9935,3,-248,-28,44,8,-14
9940,3,-245,-27,44,6,-13
9945,3,-246,-25,46,7,-13
9950,4,-244,-23,45,8,-13
9955,3,-250,-23,45,9,-13
9960,4,-246,-31,45,10,-11
9965,8,-251,-23,46,11,-11
9970,0,-248,-35,44,11,-10
9975,3,-245,-24,44,13,-10
9980,2,-246,-23,43,13,-10
9985,6,-245,-23,42,13,-12
9990,3,-246,-20,41,13,-10
9995,3,-248,-29,40,14,-10
10000,5,-248,-23,38,14,-12
10005,5,-246,-24,38,12,-12
10010,6,-250,-22,37,12,-12
10015,5,-248,-22,38,12,-13
10020,4,-247,-26,39,10,-13
10025,3,-245,-27,40,9,-14
10030,3,-250,-23,42,9,-14
10035,3,-247,-28,42,10,-14
10040,3,-250,-26,41,9,-14
10045,4,-248,-23,42,9,-14
10050,3,-248,-22,42,10,-13
10055,2,-252,-25,42,10,-11
10060,3,-248,-25,44,11,-12
10065,5,-250,-19,45,12,-12
10070,4,-245,-29,47,13,-10
10075,10,-250,-22,49,14,-11
10080,7,-248,-22,51,14,-10
10085,2,-249,-26,50,13,-10
10090,2,-247,-22,52,14,-11
10095,6,-246,-23,52,14,-10
10100,5,-245,-26,51,11,-10
10105,6,-246,-26,50,11,-9
10110,5,-248,-19,50,10,-11
10115,3,-244,-24,50,11,-9
10120,2,-246,-23,49,10,-11
10125,5,-247,-23,49,10,-11
10130,5,-251,-29,49,10,-12
10135,2,-247,-23,49,10,-13
10140,1,-248,-23,49,12,-12
10145,2,-248,-21,48,11,-12
10150,3,-247,-24,47,11,-11
10155,4,-248,-22,47,13,-11
10160,1,-246,-24,48,13,-12
10165,3,-249,-23,48,12,-11
10170,3,-249,-21,48,13,-12
10175,3,-248,-23,48,13,-12
10180,11,-248,-24,48,12,-11
10185,8,-250,-23,46,11,-12
10190,5,-248,-25,46,11,-11
10195,5,-249,-24,48,12,-9
10200,5,-250,-26,49,12,-9
10205,6,-246,-21,49,12,-9
10210,2,-249,-26,50,11,-10
10215,5,-244,-23,51,11,-8
10220,3,-248,-23,52,11,-10
10225,3,-248,-29,51,10,-10
10230,5,-248,-26,50,10,-11
10235,3,-249,-26,50,9,-10
10240,1,-247,-27,49,9,-10
10245,4,-249,-25,48,9,-11
10250,2,-248,-24,45,9,-12
10255,5,-248,-22,46,9,-13
10260,3,-248,-25,47,9,-13
10265,5,-249,-25,47,10,-14
10270,3,-245,-26,47,10,-14
10275,8,-246,-25,47,11,-15
10280,6,-249,-24,48,11,-15
10285,6,-249,-25,49,12,-14
10290,5,-248,-26,50,12,-14
10295,3,-246,-24,48,12,-13
10300,4,-251,-24,48,12,-14
10305,5,-248,-27,46,11,-12
10310,6,-246,-22,46,12,-11
10315,7,-250,-24,47,11,-11
10320,3,-247,-22,47,12,-12
10325,6,-250,-20,47,12,-11
10330,5,-251,-23,45,11,-10
10335,3,-242,-26,46,11,-9
10340,5,-249,-23,45,11,-9
10345,4,-248,-26,43,10,-10
10350,3,-246,-23,42,10,-12
10355,4,-247,-24,42,11,-14
10360,4,-248,-24,43,10,-13
10365,6,-248,-24,43,11,-12
10370,0,-247,-20,43,11,-13
10375,4,-245,-30,43,11,-13
10380,3,-245,-29,44,11,-12
10385,4,-247,-22,42,10,-12
10390,5,-249,-21,42,12,-12
10395,8,-248,-23,42,12,-13
10400,4,-248,-27,43,13,-13
10405,4,-251,-27,44,12,-13
10410,6,-249,-25,43,13,-12
10415,7,-248,-26,45,14,-13
10420,3,-248,-25,44,15,-14
10425,5,-247,-22,44,15,-14
10430,2,-247,-24,44,15,-11
10435,3,-247,-23,44,15,-12
10440,3,-246,-21,44,14,-13
10445,1,-243,-26,44,14,-13
10450,6,-252,-19,45,14,-14
10455,4,-249,-25,43,13,-14
10460,6,-249,-25,44,13,-13
10465,3,-245,-26,45,12,-13
10470,7,-247,-22,43,13,-14
10475,2,-244,-22,41,12,-13
10480,3,-248,-26,39,12,-14
10485,0,-246,-26,39,11,-13
10490,4,-247,-27,40,11,-13
10495,7,-244,-20,40,10,-13
10500,0,-244,-24,42,12,-11
10505,5,-248,-23,44,11,-12
10510,1,-249,-24,43,13,-11
10515,6,-251,-23,45,14,-12
10520,4,-247,-23,45,14,-13
10525,5,-249,-22,47,15,-13
10530,3,-250,-26,50,16,-12
10535,5,-248,-25,51,16,-12
10540,2,-246,-24,56,18,-11
10545,5,-247,-25,60,18,-12
10550,4,-249,-26,61,17,-12
10555,7,-249,-28,62,16,-11
10560,4,-246,-28,60,15,-9
10565,5,-247,-28,57,13,-9
10570,6,-248,-28,54,11,-9
10575,3,-247,-23,49,10,-9
10580,1,-246,-26,46,7,-10
10585,3,-245,-28,43,8,-9
10590,1,-250,-29,42,7,-9
10595,6,-248,-22,40,10,-10
10600,5,-249,-24,41,12,-10
10605,4,-249,-25,44,14,-10
10610,6,-249,-25,47,15,-12
10615,1,-246,-21,48,18,-12
10620,4,-246,-23,52,18,-11
10625,6,-247,-20,54,19,-11
10630,5,-249,-20,55,20,-10
10635,4,-249,-25,55,19,-9
10640,6,-249,-23,57,19,-11
10645,1,-248,-24,56,16,-11
10650,3,-248,-22,57,16,-11
10655,3,-248,-23,55,14,-11
10660,6,-248,-27,55,12,-11
10665,6,-249,-24,54,13,-11
10670,2,-245,-27,54,13,-11
10675,6,-247,-26,55,12,-13
10680,6,-246,-23,56,13,-13
10685,3,-245,-26,59,13,-12
10690,2,-247,-23,59,14,-11
10695,5,-246,-24,57,13,-10
10700,3,-246,-27,55,15,-10
10705,4,-248,-28,55,15,-12
10710,3,-250,-21,53,16,-10
10715,2,-245,-25,53,15,-10
10720,6,-247,-24,53,15,-12
10725,8,-249,-27,52,14,-13
10730,4,-249,-24,53,14,-13
10735,3,-248,-24,52,14,-11
10740,2,-247,-24,52,13,-10
10745,3,-244,-22,51,13,-11
10750,4,-247,-27,51,13,-11
10755,4,-246,-24,50,12,-12
10760,7,-249,-23,50,12,-12
10765,3,-250,-24,52,14,-10
10770,7,-250,-20,52,14,-11
10775,4,-250,-23,54,14,-11
10780,5,-247,-24,54,13,-11
10785,7,-248,-24,55,15,-10
10790,7,-250,-23,54,16,-9
10795,5,-248,-23,54,16,-10
10800,8,-249,-23,56,16,-11
10805,2,-247,-27,56,15,-11
10810,4,-249,-23,56,14,-13
10815,4,-247,-28,56,14,-14
10820,3,-251,-20,55,15,-13
10825,5,-250,-27,53,14,-14
10830,4,-248,-23,52,12,-14
10835,4,-249,-23,53,10,-13
10840,1,-246,-24,52,11,-12
10845,3,-248,-21,53,11,-10
10850,3,-250,-25,53,12,-11
10855,5,-252,-20,53,11,-11
10860,4,-249,-24,55,10,-12
10865,4,-245,-22,56,11,-11
10870,4,-249,-28,58,11,-12
10875,5,-252,-24,60,12,-10
10880,1,-249,-24,61,13,-10
10885,3,-246,-24,60,14,-11
10890,6,-248,-23,60,14,-12
10895,7,-248,-24,60,14,-11
10900,6,-246,-23,59,14,-8
10905,4,-248,-23,59,13,-8
10910,3,-248,-26,58,14,-10
10915,6,-248,-22,58,14,-10
10920,4,-246,-23,56,14,-11
10925,3,-245,-26,55,13,-10
10930,5,-249,-21,54,14,-10
10935,5,-250,-22,54,14,-10
10940,3,-245,-25,55,14,-10
10945,6,-248,-25,54,13,-10
10950,6,-250,-23,52,12,-11
10955,3,-248,-23,50,11,-12
10960,6,-246,-20,50,11,-14
10965,5,-247,-18,50,11,-12
10970,4,-247,-22,49,11,-12
10975,3,-246,-24,49,11,-13
10980,4,-239,-21,50,10,-13
10985,5,-247,-24,50,11,-12
10990,7,-248,-26,49,12,-12
10995,4,-247,-24,49,11,-12
11000,2,-244,-28,49,12,-13
11005,6,-252,-27,50,12,-13
11010,2,-251,-22,50,12,-11
11015,6,-249,-29,50,11,-12
11020,3,-249,-26,51,13,-11
11025,2,-245,-27,50,14,-13
11030,2,-247,-25,51,15,-13
11035,7,-253,-20,52,16,-12
11040,2,-248,-24,53,15,-13
11045,2,-247,-25,52,15,-12
11050,3,-249,-28,52,15,-12
11055,5,-246,-27,53,14,-13
11060,5,-247,-24,54,16,-11
11065,3,-250,-24,54,14,-11
11070,2,-244,-28,55,14,-12
11075,3,-248,-26,54,13,-12
11080,6,-249,-23,53,13,-11
11085,6,-252,-27,53,13,-9
11090,5,-246,-19,53,13,-11
11095,6,-245,-24,52,13,-10
11100,5,-247,-27,51,12,-10
11105,6,-251,-22,49,11,-11
11110,4,-251,-27,48,11,-9
11115,4,-247,-23,48,11,-11
11120,1,-251,-25,48,8,-10
11125,4,-246,-20,49,9,-9
11130,5,-248,-20,51,10,-10
11135,5,-249,-22,53,10,-10
11140,7,-249,-28,53,11,-11
11145,4,-246,-23,54,13,-11
11150,6,-246,-22,55,13,-11
11155,5,-249,-25,56,15,-9
11160,2,-249,-27,56,15,-10
11165,3,-246,-25,55,14,-10
11170,2,-247,-28,54,15,-11
11175,3,-248,-25,54,17,-12
11180,6,-250,-22,54,17,-11
11185,2,-250,-26,56,17,-11
11190,1,-246,-22,56,18,-11
11195,7,-250,-22,55,17,-12
11200,8,-246,-25,55,17,-12
11205,4,-249,-25,55,17,-14
11210,7,-246,-22,55,15,-14
11215,4,-245,-25,54,15,-13
11220,5,-248,-26,53,15,-14
11225,4,-247,-24,53,14,-14
11230,5,-248,-22,51,13,-14
11235,6,-247,-28,51,13,-11
11240,0,-248,-25,50,13,-11
11245,3,-247,-28,50,13,-9
11250,2,-246,-26,50,13,-9
11255,3,-248,-20,47,13,-9
11260,4,-249,-24,45,13,-8
11265,1,-247,-23,47,12,-10
11270,4,-251,-24,48,14,-11
11275,3,-248,-23,51,15,-10
11280,4,-247,-25,54,15,-11
11285,5,-246,-23,58,15,-11
11290,3,-247,-22,61,14,-11
11295,4,-244,-27,65,13,-11
11300,5,-250,-26,65,15,-10
11305,3,-243,-24,66,14,-10
11310,4,-245,-22,66,13,-10
11315,4,-245,-27,65,11,-11
11320,5,-248,-24,63,9,-10
11325,4,-247,-22,60,8,-10
11330,3,-245,-24,57,6,-9
11335,5,-249,-24,56,6,-9
11340,2,-244,-21,53,7,-10
11345,3,-248,-20,52,7,-8
11350,5,-249,-23,53,8,-9
11355,1,-238,-23,53,9,-9
11360,5,-248,-24,54,10,-9
11365,5,-249,-23,55,12,-10
11370,3,-245,-20,58,12,-10
11375,6,-249,-24,57,13,-10
11380,4,-250,-26,58,13,-11
11385,8,-246,-24,57,13,-11
11390,2,-245,-23,54,11,-12
11395,7,-248,-18,53,12,-10
11400,5,-250,-25,52,12,-12
11405,8,-250,-25,50,11,-10
11410,6,-244,-21,51,12,-9
11415,2,-248,-25,52,11,-10
11420,7,-248,-25,54,12,-11
11425,4,-250,-21,55,11,-11
11430,5,-247,-24,55,13,-11
11435,4,-245,-26,55,12,-10
11440,4,-249,-27,56,10,-11
11445,1,-245,-23,56,12,-10
11450,7,-249,-26,56,13,-9
11455,6,-248,-23,57,13,-9
11460,6,-246,-27,57,14,-9
11465,4,-247,-23,58,14,-10
11470,5,-248,-25,58,14,-10
11475,6,-248,-25,57,15,-9
11480,6,-250,-26,57,15,-8
11485,7,-248,-19,58,15,-10
11490,2,-247,-26,57,15,-11
11495,5,-247,-24,57,15,-12
11500,6,-249,-22,58,14,-12
11505,2,-247,-23,58,13,-12
11510,3,-249,-27,59,15,-11
11515,5,-245,-30,60,14,-13
11520,6,-249,-24,60,14,-11
11525,5,-245,-25,59,14,-11
11530,5,-247,-20,59,14,-10
11535,2,-245,-23,59,13,-11
11540,5,-247,-23,58,14,-11
11545,1,-244,-25,58,15,-11
11550,7,-249,-24,59,14,-10
11555,3,-252,-26,58,13,-10
11560,6,-250,-27,59,15,-11
11565,7,-252,-27,58,12,-10
11570,4,-248,-17,57,12,-9
11575,1,-249,-28,57,12,-10
11580,3,-248,-24,55,11,-10
11585,3,-249,-23,56,11,-10
11590,3,-247,-23,56,10,-10
11595,5,-248,-25,58,10,-12
11600,4,-245,-21,58,11,-11
11605,6,-251,-24,59,13,-10
11610,8,-250,-19,60,12,-11
11615,5,-249,-21,61,13,-10
11620,8,-245,-21,61,13,-10
11625,4,-245,-23,61,14,-10
11630,6,-250,-26,61,12,-11
11635,5,-248,-22,60,13,-12
11640,5,-248,-24,62,13,-11
11645,2,-247,-25,61,14,-12
11650,4,-249,-22,60,12,-10
11655,4,-251,-25,60,12,-11
11660,6,-249,-23,60,12,-13
11665,1,-243,-23,59,13,-10
11670,3,-246,-20,60,13,-9
11675,6,-247,-16,59,12,-9
11680,4,-244,-25,60,12,-9
11685,3,-247,-24,58,12,-9
11690,4,-248,-24,58,13,-9
11695,5,-246,-26,57,13,-11
11700,4,-245,-21,56,14,-11
11705,8,-246,-24,56,14,-11
11710,6,-250,-20,56,12,-11
11715,7,-250,-19,54,12,-11
11720,3,-249,-21,52,12,-11
11725,3,-246,-23,52,13,-11
11730,4,-247,-19,53,12,-9
11735,3,-248,-23,53,11,-11
11740,3,-247,-20,53,12,-11
11745,5,-246,-24,53,12,-11
11750,3,-249,-24,52,12,-11
11755,5,-253,-19,52,12,-11
11760,7,-250,-21,54,12,-12
11765,4,-249,-25,54,13,-12
11770,1,-244,-24,53,14,-12
11775,7,-248,-22,53,13,-11
11780,3,-248,-23,52,12,-11
11785,5,-245,-26,53,13,-10
11790,5,-248,-24,54,12,-10
11795,3,-249,-24,55,13,-11
11800,5,-247,-25,55,13,-13
11805,3,-248,-23,55,14,-10
11810,5,-247,-22,54,13,-10
11815,2,-247,-25,53,14,-9
11820,3,-243,-24,53,13,-12
11825,2,-246,-21,53,13,-11
11830,7,-248,-23,52,12,-10
11835,3,-250,-25,52,12,-9
11840,6,-245,-23,52,12,-10
11845,2,-245,-20,51,12,-9
11850,6,-248,-24,52,12,-8
11855,4,-247,-22,50,11,-9
11860,3,-246,-21,51,12,-9
11865,7,-249,-22,53,11,-10
11870,4,-248,-26,54,11,-10
11875,4,-248,-23,56,12,-10
11880,5,-248,-23,57,12,-9
11885,4,-249,-24,58,12,-10
11890,0,-247,-23,57,13,-10
11895,5,-249,-23,57,13,-10
11900,5,-250,-23,57,14,-9
11905,4,-248,-25,58,13,-9
11910,5,-248,-24,58,14,-9
11915,3,-248,-25,58,16,-10
11920,6,-250,-21,58,15,-9
11925,2,-248,-20,58,17,-10
11930,8,-248,-24,58,16,-8
11935,7,-249,-22,57,17,-11
11940,5,-247,-20,56,17,-11
11945,3,-247,-23,57,19,-12
11950,2,-249,-20,56,18,-12
11955,6,-247,-21,56,19,-11
11960,2,-247,-19,55,18,-11
11965,3,-247,-22,54,16,-11
11970,7,-249,-25,54,16,-8
11975,1,-246,-21,53,16,-10
11980,3,-248,-20,53,16,-12
11985,6,-244,-27,52,14,-13
11990,3,-249,-19,52,14,-13
11995,4,-246,-23,52,13,-11
