timestamp,acc_x,acc_y,acc_z,gyro_x,gyro_y,gyro_z
0,-8,-247,-48,41,9,-13
5,-12,-247,-44,40,8,-14
10,-10,-245,-46,38,8,-14
15,-10,-244,-44,37,8,-13
20,-10,-243,-42,38,6,-13
25,-11,-242,-47,39,7,-12
30,-8,-247,-44,41,7,-12
35,-9,-249,-43,41,7,-13
40,-11,-245,-45,44,7,-11
45,-10,-247,-45,44,6,-12
50,-10,-244,-43,44,8,-14
55,-10,-243,-45,45,7,-14
60,-13,-244,-46,47,7,-15
65,-12,-246,-44,47,9,-15
70,-10,-244,-44,49,9,-14
75,-9,-245,-43,50,10,-13
80,-11,-244,-44,48,11,-12
85,-11,-243,-46,48,10,-12
90,-12,-245,-46,48,12,-13
95,-9,-244,-45,47,12,-13
100,-9,-243,-44,46,14,-13
105,-8,-245,-47,46,13,-12
110,-12,-246,-49,46,15,-12
115,-10,-249,-45,48,14,-13
120,-9,-243,-44,49,13,-12
125,-8,-247,-44,48,13,-10
130,-10,-245,-45,48,12,-11
135,-10,-242,-48,47,13,-10
140,-8,-242,-45,47,14,-8
145,-12,-240,-47,47,13,-8
150,-10,-244,-47,47,13,-9
155,-8,-245,-48,47,12,-8
160,-9,-240,-46,45,12,-8
165,-11,-242,-44,44,11,-8
170,-14,-243,-47,45,10,-9
175,-9,-244,-51,45,12,-8
180,-17,-241,-46,46,12,-7
185,-12,-243,-44,46,11,-6
190,-13,-245,-45,48,13,-8
195,-12,-244,-48,50,12,-6
200,-10,-245,-50,52,12,-9
205,-8,-243,-49,53,13,-10
210,-10,-245,-45,53,14,-10
215,-10,-247,-46,53,13,-10
220,-12,-245,-46,51,13,-11
225,-9,-247,-45,52,13,-12
230,-9,-247,-49,55,13,-11
235,-11,-245,-45,55,13,-12
240,-9,-246,-47,56,12,-11
245,-10,-244,-49,55,11,-9
250,-7,-242,-47,56,12,-9
255,-10,-242,-50,56,13,-10
260,-8,-245,-44,56,13,-8
265,-11,-246,-47,57,12,-9
270,-10,-242,-48,56,13,-9
275,-11,-244,-44,56,13,-8
280,-12,-244,-48,53,14,-9
285,-12,-244,-43,53,16,-8
290,-10,-241,-46,53,17,-7
295,-14,-243,-43,50,16,-8
300,-10,-245,-43,47,15,-10
305,-8,-246,-47,46,14,-9
310,-11,-245,-43,45,14,-7
315,-10,-245,-46,45,13,-8
320,-14,-243,-45,43,12,-7
325,-14,-245,-43,45,11,-7
330,-11,-247,-45,46,11,-7
335,-12,-243,-48,46,11,-7
340,-13,-243,-48,47,10,-8
345,-9,-248,-46,48,11,-8
350,-9,-245,-44,47,12,-8
355,-11,-246,-46,49,13,-8
360,-8,-245,-45,49,14,-7
365,-9,-246,-44,51,15,-9
370,-8,-246,-46,52,17,-10
375,-12,-244,-45,53,18,-10
380,-10,-245,-44,55,18,-9
385,-11,-243,-46,55,17,-9
390,-11,-242,-47,56,17,-10
395,-9,-250,-46,54,15,-8
400,-12,-240,-44,52,15,-9
405,-12,-242,-45,50,13,-10
410,-12,-244,-48,51,12,-10
415,-14,-242,-43,50,11,-11
420,-10,-246,-45,50,10,-12
425,-10,-244,-43,49,8,-11
430,-11,-246,-46,51,7,-12
435,-12,-247,-44,50,8,-11
440,-13,-246,-42,52,8,-10
445,-9,-244,-44,53,8,-9
450,-11,-244,-42,54,8,-8
455,-12,-243,-47,55,10,-8
460,-11,-244,-50,55,12,-8
465,-11,-244,-45,54,12,-8
470,-11,-245,-47,54,14,-10
475,-14,-242,-43,54,14,-8
480,-10,-240,-46,53,15,-9
485,-11,-245,-47,53,16,-10
490,-9,-245,-48,54,15,-9
495,-9,-246,-50,55,16,-8
500,-10,-246,-44,55,16,-8
505,-8,-249,-43,55,15,-9
510,-10,-243,-48,55,16,-8
515,-10,-245,-42,55,16,-8
520,-10,-243,-46,55,15,-8
525,-9,-244,-46,55,16,-8
530,-9,-243,-46,56,14,-10
535,-9,-246,-48,58,13,-7
540,-9,-244,-44,58,13,-8
545,-10,-246,-45,58,11,-7
550,-9,-245,-46,58,11,-10
555,-10,-243,-45,57,11,-11
560,-10,-246,-46,57,10,-11
565,-10,-247,-48,57,7,-11
570,-10,-240,-44,57,7,-11
575,-12,-246,-45,58,8,-11
580,-12,-242,-45,57,8,-11
585,-9,-242,-44,57,7,-11
590,-8,-246,-45,57,8,-11
595,-11,-242,-44,57,8,-12
600,-9,-245,-45,58,8,-12
605,-12,-242,-44,57,9,-14
610,-13,-242,-45,57,10,-13
615,-11,-244,-43,58,11,-11
620,-10,-245,-42,58,11,-12
625,-7,-243,-46,59,11,-10
630,-13,-243,-43,60,13,-8
635,-12,-242,-47,60,13,-8
640,-12,-243,-46,59,12,-9
645,-11,-242,-45,58,13,-8
650,-12,-242,-38,58,11,-7
655,-11,-245,-46,56,11,-7
660,-13,-242,-46,54,12,-7
665,-9,-244,-48,52,11,-6
670,-11,-244,-44,51,10,-7
675,-12,-243,-44,49,11,-6
680,-9,-246,-43,49,10,-7
685,-12,-243,-47,48,11,-8
690,-13,-244,-44,48,10,-9
695,-12,-243,-45,49,11,-9
700,-10,-246,-45,52,10,-9
705,-11,-248,-45,54,9,-12
710,-8,-249,-44,55,8,-12
715,-10,-247,-53,57,9,-11
720,-12,-243,-43,56,9,-12
725,-6,-243,-46,56,9,-13
730,-11,-244,-44,56,9,-10
735,-12,-244,-46,55,10,-11
740,-13,-243,-44,56,10,-10
745,-12,-245,-43,54,10,-9
750,-9,-244,-43,56,10,-8
755,-9,-242,-47,57,10,-7
760,-13,-241,-46,58,10,-6
765,-14,-243,-45,58,10,-6
770,-11,-245,-45,57,9,-6
775,-11,-243,-47,57,9,-7
780,-13,-240,-43,54,9,-6
785,-12,-242,-44,54,10,-7
790,-13,-244,-48,53,11,-5
795,-10,-245,-44,53,10,-7
800,-13,-240,-47,51,10,-5
805,-12,-246,-47,52,11,-5
810,-8,-244,-45,53,11,-7
815,-13,-244,-44,52,13,-6
820,-10,-243,-40,52,14,-7
825,-15,-245,-47,52,13,-8
830,-6,-247,-49,52,15,-6
835,-11,-246,-47,52,16,-7
840,-10,-245,-50,54,16,-8
845,-11,-247,-44,54,16,-9
850,-7,-243,-48,54,14,-8
855,-11,-245,-46,55,13,-7
860,-11,-245,-48,55,13,-7
865,-10,-243,-45,55,11,-8
870,-13,-240,-44,55,11,-8
875,-8,-242,-47,55,9,-6
880,-13,-245,-47,53,8,-7
885,-12,-244,-46,50,8,-9
890,-13,-245,-48,50,8,-8
895,-11,-242,-42,50,8,-10
900,-12,-248,-48,52,8,-9
905,-11,-243,-45,52,7,-9
910,-9,-248,-45,54,7,-10
915,-12,-245,-48,53,9,-10
920,-14,-243,-50,56,10,-10
925,-13,-245,-48,56,11,-12
930,-13,-243,-46,57,12,-10
935,-10,-247,-48,57,13,-9
940,-8,-244,-47,58,14,-9
945,-12,-245,-43,59,14,-7
950,-10,-246,-45,59,15,-8
955,-12,-244,-44,59,15,-5
960,-11,-244,-44,58,16,-7
965,-9,-247,-42,58,16,-8
970,-9,-246,-45,56,16,-10
975,-13,-243,-45,53,15,-10
980,-12,-242,-42,49,16,-9
985,-7,-245,-46,47,16,-10
990,-10,-243,-42,45,15,-10
995,-11,-240,-46,45,14,-11
1000,-13,-241,-45,43,14,-13
1005,-10,-246,-43,43,13,-11
1010,-11,-245,-45,44,13,-12
1015,-14,-246,-48,45,11,-10
1020,-12,-246,-50,45,10,-10
1025,-12,-247,-46,47,8,-11
1030,-11,-246,-45,47,9,-9
1035,-13,-241,-42,48,8,-10
1040,-9,-244,-49,49,9,-9
1045,-13,-243,-42,49,11,-9
1050,-12,-243,-43,50,10,-7
1055,-10,-244,-45,51,11,-6
1060,-12,-245,-43,49,11,-6
1065,-10,-244,-44,49,11,-5
1070,-13,-246,-45,49,11,-6
1075,-10,-242,-43,49,10,-6
1080,-12,-243,-42,49,10,-7
1085,-10,-245,-42,50,10,-7
1090,-12,-243,-46,49,10,-8
1095,-9,-246,-44,50,10,-9
1100,-12,-243,-47,50,9,-8
1105,-11,-246,-45,49,9,-9
1110,-13,-242,-46,49,8,-9
1115,-9,-244,-47,47,8,-9
1120,-13,-241,-42,46,8,-7
1125,-6,-247,-47,45,10,-8
1130,-12,-244,-49,45,11,-8
1135,-14,-244,-44,45,10,-9
1140,-12,-244,-46,45,10,-10
1145,-15,-244,-44,45,12,-9
1150,-11,-245,-50,46,12,-10
1155,-12,-242,-47,46,12,-10
1160,-11,-246,-46,47,14,-11
1165,-13,-244,-47,47,15,-11
1170,-10,-244,-45,49,16,-10
1175,-8,-244,-47,49,15,-11
1180,-10,-245,-45,49,17,-10
1185,-11,-245,-46,49,17,-9
1190,-16,-245,-45,49,16,-11
1195,-13,-242,-47,48,16,-13
1200,-10,-244,-48,48,16,-12
1205,-13,-245,-46,48,15,-12
1210,-9,-242,-45,48,14,-12
1215,-13,-243,-43,49,14,-13
1220,-14,-243,-45,49,13,-11
1225,-11,-244,-45,48,13,-11
1230,-11,-246,-48,47,12,-10
1235,-14,-245,-49,46,13,-10
1240,-10,-244,-46,48,13,-10
1245,-9,-243,-43,47,13,-9
1250,-8,-245,-45,47,12,-7
1255,-11,-246,-46,47,12,-6
1260,-14,-243,-46,48,12,-7
1265,-12,-245,-45,48,13,-6
1270,-14,-244,-47,47,12,-8
1275,-14,-246,-44,46,12,-8
1280,-10,-243,-46,48,12,-9
1285,-11,-245,-47,47,12,-9
1290,-11,-244,-43,48,10,-12
1295,-10,-244,-46,48,11,-11
1300,-11,-246,-49,48,11,-12
1305,-9,-246,-42,46,11,-14
1310,-13,-245,-47,44,13,-12
1315,-12,-246,-46,44,13,-14
1320,-12,-244,-45,43,14,-12
1325,-13,-243,-49,42,14,-14
1330,-10,-244,-45,42,14,-13
1335,-12,-242,-46,41,13,-13
1340,-13,-239,-45,42,13,-13
1345,-10,-244,-45,43,13,-12
1350,-13,-243,-44,44,12,-11
1355,-12,-240,-45,46,12,-11
1360,-11,-245,-46,45,11,-10
1365,-11,-245,-48,47,10,-9
1370,-8,-246,-44,47,11,-11
1375,-12,-244,-45,47,11,-11
1380,-9,-243,-48,46,9,-10
1385,-10,-244,-47,45,10,-10
1390,-11,-246,-44,43,10,-11
1395,-12,-245,-45,43,11,-11
1400,-13,-242,-48,43,11,-10
1405,-12,-241,-47,42,12,-10
1410,-12,-243,-45,42,11,-11
1415,-10,-247,-45,42,11,-11
1420,-10,-248,-48,41,13,-11
1425,-9,-244,-46,43,13,-9
1430,-7,-246,-47,44,13,-10
1435,-9,-246,-45,45,14,-12
1440,-8,-245,-48,48,13,-12
1445,-11,-247,-42,49,14,-10
1450,-9,-245,-48,49,14,-11
1455,-5,-244,-45,49,13,-9
1460,-9,-247,-49,48,12,-10
1465,-7,-244,-50,48,12,-10
1470,-8,-244,-47,47,12,-11
1475,-10,-248,-48,46,12,-11
1480,-12,-244,-44,44,11,-10
1485,-8,-244,-46,44,11,-9
1490,-13,-244,-46,43,11,-9
1495,-8,-245,-46,43,10,-9
1500,-15,-243,-46,42,10,-9
1505,-10,-243,-45,43,10,-9
1510,-12,-244,-45,43,12,-9
1515,-12,-243,-46,44,12,-10
1520,-11,-245,-46,43,13,-11
1525,-12,-242,-48,44,12,-10
1530,-11,-244,-47,43,13,-11
1535,-12,-244,-45,42,13,-11
1540,-12,-244,-43,42,12,-12
1545,-11,-241,-48,43,13,-11
1550,-9,-246,-48,40,12,-12
1555,-12,-245,-46,39,12,-13
1560,-14,-245,-45,37,11,-13
1565,-15,-247,-50,36,10,-14
1570,-13,-244,-44,36,9,-13
1575,-10,-246,-45,39,9,-12
1580,-12,-246,-41,41,9,-13
1585,-13,-244,-43,43,7,-13
1590,-11,-244,-44,45,8,-14
1595,-14,-245,-49,45,9,-12
1600,-14,-245,-49,47,10,-12
1605,-12,-246,-46,48,11,-12
1610,-10,-244,-46,50,11,-10
1615,-11,-242,-45,50,11,-9
1620,-13,-245,-45,50,12,-10
1625,-10,-245,-47,49,15,-12
1630,-11,-244,-43,47,15,-12
1635,-15,-241,-46,45,15,-13
1640,-14,-243,-45,40,16,-13
1645,-9,-244,-45,39,16,-14
1650,-11,-247,-46,39,15,-15
1655,-12,-243,-46,35,15,-15
1660,-12,-245,-46,35,14,-15
1665,-12,-243,-47,37,14,-15
1670,-14,-242,-49,38,13,-15
1675,-11,-243,-47,41,12,-14
1680,-11,-246,-48,42,13,-14
1685,-10,-241,-45,44,13,-14
1690,-12,-244,-46,44,12,-14
1695,-11,-244,-51,44,12,-15
1700,-11,-243,-51,44,10,-15
1705,-7,-243,-45,43,10,-14
1710,-11,-242,-50,42,10,-13
1715,-10,-240,-50,41,10,-13
1720,-14,-240,-47,40,10,-12
1725,-11,-247,-44,41,9,-8
1730,-9,-246,-45,41,9,-9
1735,-14,-241,-51,41,8,-8
1740,-13,-244,-41,41,8,-7
1745,-10,-245,-47,40,7,-10
1750,-13,-244,-47,39,6,-8
1755,-11,-243,-47,37,5,-8
1760,-12,-247,-44,37,5,-9
1765,-8,-245,-45,37,5,-9
1770,-11,-245,-49,36,6,-11
1775,-11,-245,-45,36,6,-11
1780,-14,-243,-49,36,6,-12
1785,-11,-243,-49,37,6,-11
1790,-12,-247,-50,37,7,-12
1795,-11,-245,-47,38,8,-12
1800,-11,-244,-48,39,10,-13
1805,-10,-244,-47,41,12,-14
1810,-9,-245,-48,41,14,-15
1815,-9,-244,-45,42,14,-15
1820,-12,-247,-49,44,14,-16
1825,-11,-241,-45,43,15,-16
1830,-12,-240,-49,42,14,-15
1835,-12,-243,-46,41,15,-16
1840,-12,-243,-48,39,13,-16
1845,-13,-242,-50,36,13,-13
1850,-10,-243,-46,34,12,-13
1855,-10,-242,-46,33,11,-13
1860,-16,-240,-48,34,10,-13
1865,-11,-247,-45,35,9,-12
1870,-9,-245,-47,36,8,-11
1875,-10,-245,-44,37,8,-11
1880,-10,-247,-48,38,9,-13
1885,-11,-243,-47,39,8,-13
1890,-10,-245,-48,39,8,-12
1895,-13,-243,-50,38,9,-10
1900,-12,-242,-47,36,9,-11
1905,-2,-249,-39,33,10,-10
1910,-11,-244,-45,31,9,-10
1915,-9,-242,-47,29,9,-9
1920,-9,-243,-49,30,10,-10
1925,-11,-246,-48,30,11,-10
1930,-9,-243,-46,29,10,-11
1935,-10,-244,-48,29,10,-12
1940,-7,-244,-48,30,11,-11
1945,-13,-242,-48,30,9,-12
1950,-14,-243,-49,30,10,-12
1955,-11,-242,-48,29,10,-14
1960,-9,-245,-47,29,9,-12
1965,-8,-243,-54,28,7,-14
1970,-13,-241,-51,26,8,-13
1975,-13,-244,-42,25,7,-13
1980,-10,-245,-51,24,6,-13
1985,-12,-239,-50,24,8,-12
1990,-15,-247,-48,23,7,-11
1995,-16,-243,-44,25,6,-11
2000,-15,-244,-49,25,6,-10
2005,-9,-244,-54,25,5,-9
2010,-10,-243,-49,24,7,-11
2015,-9,-242,-48,25,7,-11
2020,-11,-245,-49,26,8,-11
2025,-8,-246,-46,26,6,-10
2030,-11,-246,-51,25,6,-13
2035,-12,-243,-50,23,7,-12
2040,-9,-244,-47,22,7,-12
2045,-14,-241,-49,22,7,-11
2050,-7,-244,-48,20,7,-12
2055,-11,-243,-49,21,7,-12
2060,-12,-244,-47,20,8,-13
2065,-12,-239,-48,19,9,-13
2070,-10,-241,-46,19,9,-14
2075,-10,-243,-46,19,9,-13
2080,-10,-241,-53,18,10,-13
2085,-11,-245,-47,18,10,-14
2090,-13,-247,-46,17,9,-14
2095,-9,-244,-48,18,11,-14
2100,-10,-247,-48,20,10,-16
2105,-16,-242,-50,22,10,-15
2110,-10,-244,-47,22,10,-15
2115,-11,-241,-49,23,10,-16
2120,-10,-241,-52,25,10,-15
2125,-11,-245,-49,26,10,-15
2130,-14,-241,-51,26,12,-15
2135,-8,-241,-49,26,12,-16
2140,-10,-245,-54,28,12,-14
2145,-11,-242,-55,28,12,-14
2150,-6,-244,-49,28,12,-15
2155,-10,-238,-49,29,11,-14
2160,-8,-244,-48,29,10,-12
2165,-10,-243,-50,29,9,-11
2170,-8,-244,-50,30,10,-11
2175,-13,-245,-49,32,9,-11
2180,-7,-246,-50,33,8,-12
2185,-13,-243,-50,35,9,-10
2190,-10,-247,-49,39,10,-10
2195,-14,-242,-47,39,9,-11
2200,-9,-244,-46,41,11,-11
2205,-10,-241,-54,43,10,-10
2210,-13,-242,-48,45,10,-10
2215,-14,-244,-47,45,11,-10
2220,-11,-244,-51,44,11,-12
2225,-11,-244,-49,44,11,-11
2230,-12,-243,-49,42,10,-13
2235,-15,-240,-52,41,10,-14
2240,-13,-244,-51,40,10,-13
2245,-12,-247,-50,39,10,-13
2250,-8,-246,-47,39,9,-14
2255,-13,-246,-51,42,10,-14
2260,-13,-242,-49,43,10,-12
2265,-12,-245,-49,44,10,-9
2270,-12,-244,-53,48,11,-9
2275,-12,-242,-53,51,11,-9
2280,-12,-246,-54,54,11,-8
2285,-13,-242,-52,58,12,-8
2290,-12,-243,-51,59,14,-7
2295,-11,-242,-51,60,15,-7
2300,-11,-245,-54,59,14,-7
2305,-12,-243,-50,59,15,-8
2310,-12,-243,-51,58,16,-7
2315,-11,-246,-50,54,17,-8
2320,-13,-242,-50,52,17,-9
2325,-10,-245,-52,51,16,-12
2330,-9,-248,-50,49,15,-11
2335,-13,-246,-51,46,15,-10
2340,-13,-245,-52,45,14,-10
2345,-11,-241,-51,47,14,-9
2350,-9,-243,-53,48,14,-8
2355,-11,-241,-51,51,12,-8
2360,-11,-243,-52,55,10,-7
2365,-8,-243,-51,57,9,-8
2370,-9,-243,-53,58,9,-7
2375,-12,-245,-51,59,10,-6
2380,-10,-240,-47,61,11,-6
2385,-12,-242,-48,61,11,-6
2390,-10,-243,-51,62,11,-7
2395,-11,-243,-51,62,11,-8
2400,-14,-241,-48,63,11,-8
2405,-10,-244,-49,64,9,-7
2410,-9,-244,-46,63,9,-8
2415,-13,-244,-49,63,9,-8
2420,-11,-242,-42,63,8,-8
2425,-13,-244,-49,63,8,-7
2430,-13,-242,-47,61,7,-8
2435,-15,-243,-51,62,7,-9
2440,-11,-243,-48,63,7,-9
2445,-13,-244,-47,63,8,-7
2450,-15,-239,-48,62,9,-8
2455,-12,-243,-50,61,10,-7
2460,-10,-241,-49,61,14,-7
2465,-7,-242,-52,61,15,-6
2470,-10,-244,-47,59,16,-6
2475,-9,-243,-48,60,16,-4
2480,-9,-243,-48,60,17,-5
2485,-9,-248,-48,59,19,-5
2490,-10,-244,-52,60,19,-4
2495,-10,-244,-50,61,20,-4
2500,-12,-244,-49,61,18,-2
2505,-11,-242,-51,59,18,-3
2510,-14,-242,-51,59,16,-3
2515,-9,-245,-52,59,13,-2
2520,-10,-242,-48,57,13,-3
2525,-8,-243,-50,56,12,-2
2530,-13,-242,-50,55,12,-2
2535,-10,-241,-49,55,11,-3
2540,-12,-242,-51,55,9,-2
2545,-13,-245,-48,57,8,-4
2550,-9,-242,-52,58,9,-3
2555,-14,-244,-52,61,9,-1
2560,-10,-248,-51,62,9,-3
2565,-12,-247,-52,64,10,-3
2570,-14,-243,-51,63,9,-4
2575,-13,-244,-47,62,8,-5
2580,-11,-244,-51,62,9,-6
2585,-14,-242,-51,62,9,-6
2590,-14,-243,-51,65,8,-6
2595,-12,-246,-49,65,8,-7
2600,-15,-244,-51,66,8,-8
2605,-13,-241,-52,66,8,-9
2610,-15,-243,-48,65,9,-10
2615,-13,-242,-50,63,10,-12
2620,-13,-243,-50,60,10,-11
2625,-10,-242,-51,58,11,-12
2630,-15,-243,-53,56,13,-11
2635,-12,-240,-50,55,14,-12
2640,-9,-245,-50,54,15,-12
2645,-12,-242,-50,53,16,-11
2650,-10,-245,-48,51,16,-10
2655,-15,-242,-50,51,16,-12
2660,-12,-242,-49,49,16,-14
2665,-14,-242,-48,47,16,-14
2670,-11,-241,-48,43,14,-13
2675,-14,-240,-48,40,14,-16
2680,-17,-241,-53,37,12,-18
2685,-13,-240,-51,31,11,-19
2690,-15,-243,-51,24,10,-24
2695,-15,-244,-52,14,9,-28
2700,-13,-243,-56,4,5,-32
2705,-14,-246,-51,-6,2,-36
2710,-12,-247,-51,-13,-2,-41
2715,-14,-245,-51,-21,-6,-43
2720,5,-247,-36,-28,-8,-47
2725,-15,-244,-52,-37,-8,-50
2730,-16,-244,-43,-49,-7,-51
2735,-15,-244,-46,-63,-6,-51
2740,-15,-245,-49,-74,-6,-51
2745,-12,-239,-48,-86,-6,-53
2750,-9,-238,-46,-98,-9,-56
2755,-4,-238,-47,-119,-11,-63
2760,-3,-244,-47,-146,-12,-72
2765,-3,-242,-43,-181,-10,-86
2770,-2,-240,-37,-213,-8,-103
2775,1,-235,-38,-233,-6,-123
2780,0,-230,-37,-241,-8,-143
2785,0,-222,-40,-245,-13,-163
2790,1,-216,-43,-260,-20,-182
2795,0,-208,-50,-293,-26,-200
2800,0,-207,-53,-339,-32,-219
2805,0,-210,-53,-393,-35,-236
2810,0,-213,-56,-444,-39,-250
2815,-1,-221,-58,-483,-40,-258
2820,-3,-222,-56,-509,-38,-258
2825,-3,-227,-57,-522,-32,-249
2830,-3,-235,-56,-521,-23,-231
2835,-9,-241,-57,-517,-6,-210
2840,-10,-247,-52,-503,13,-187
2845,-13,-249,-50,-480,35,-164
2850,-16,-252,-51,-450,56,-143
2855,-18,-255,-50,-414,77,-121
2860,-20,-251,-50,-380,91,-95
2865,-17,-254,-48,-354,98,-72
2870,-17,-247,-49,-334,98,-51
2875,-17,-250,-49,-320,94,-34
2880,-17,-239,-52,-310,84,-23
2885,-15,-239,-51,-303,69,-15
2890,-14,-237,-54,-301,53,-10
2895,-10,-235,-54,-302,35,-10
2900,-10,-233,-54,-305,21,-16
2905,-9,-234,-53,-314,9,-20
2910,-10,-230,-54,-329,0,-26
2915,-13,-225,-56,-350,-7,-35
2920,-14,-225,-57,-375,-9,-44
2925,-12,-225,-56,-401,-8,-54
2930,-13,-225,-51,-426,-7,-64
2935,-14,-227,-52,-448,-5,-73
2940,-16,-225,-47,-466,-2,-78
2945,-14,-225,-53,-479,2,-81
2950,-15,-224,-56,-489,4,-80
2955,-13,-223,-55,-496,9,-79
2960,-13,-223,-57,-500,10,-74
2965,-14,-224,-62,-505,14,-66
2970,-6,-225,-64,-509,22,-58
2975,-7,-223,-66,-516,30,-50
2980,-3,-222,-72,-526,39,-43
2985,-5,-226,-74,-541,50,-35
2990,-2,-225,-78,-560,58,-25
2995,-5,-222,-78,-584,67,-21
3000,0,-225,-79,-611,72,-18
3005,-2,-226,-80,-636,77,-19
3010,-8,-221,-79,-657,82,-24
3015,-1,-228,-83,-674,86,-28
3020,-3,-226,-80,-688,88,-36
3025,-5,-224,-82,-701,90,-44
3030,0,-222,-84,-715,86,-54
3035,1,-220,-81,-736,83,-65
3040,0,-216,-83,-764,77,-77
3045,2,-215,-83,-793,68,-88
3050,7,-218,-84,-821,64,-98
3055,7,-218,-78,-843,63,-107
3060,2,-221,-86,-853,59,-116
3065,4,-230,-88,-856,58,-119
3070,3,-231,-88,-856,61,-121
3075,3,-232,-97,-854,64,-122
3080,5,-236,-102,-853,65,-117
3085,1,-241,-100,-858,66,-117
3090,4,-237,-101,-865,60,-112
3095,2,-241,-104,-880,54,-107
3100,1,-239,-101,-898,41,-103
3105,3,-238,-105,-923,27,-105
3110,-1,-229,-103,-957,17,-106
3115,0,-225,-107,-989,11,-109
3120,0,-219,-109,-1020,3,-113
3125,1,-218,-106,-1058,-3,-119
3130,-2,-218,-104,-1103,-5,-124
3135,3,-214,-103,-1144,-8,-128
3140,0,-218,-104,-1184,-13,-131
3145,-2,-219,-104,-1214,-24,-133
3150,0,-216,-105,-1243,-39,-143
3155,-1,-219,-112,-1269,-54,-155
3160,-1,-220,-116,-1291,-63,-170
3165,0,-219,-115,-1311,-68,-187
3170,-1,-221,-123,-1334,-72,-203
3175,-8,-226,-117,-1350,-68,-220
3180,-12,-228,-125,-1358,-62,-235
3185,-13,-230,-133,-1352,-54,-241
3190,-15,-237,-140,-1335,-50,-243
3195,-21,-239,-148,-1303,-42,-236
3200,-17,-242,-160,-1256,-42,-226
3205,-20,-246,-170,-1200,-41,-214
3210,-21,-246,-183,-1135,-46,-205
3215,-12,-243,-201,-1082,-55,-196
3220,-4,-242,-219,-1071,-66,-196
3225,13,-239,-232,-1114,-76,-195
3230,28,-252,-243,-1218,-109,-193
3235,36,-273,-249,-1388,-158,-204
3240,39,-302,-254,-1587,-206,-221
3245,33,-322,-252,-1765,-245,-239
3250,29,-354,-233,-1889,-275,-249
3255,16,-373,-220,-1941,-293,-246
3260,5,-383,-219,-1920,-302,-229
3265,4,-385,-217,-1826,-307,-203
3270,1,-386,-221,-1664,-295,-172
3275,2,-376,-223,-1443,-263,-134
3280,2,-354,-235,-1171,-227,-89
3285,-2,-332,-249,-871,-190,-36
3290,-2,-308,-257,-569,-152,13
3295,-2,-286,-244,-286,-114,54
3300,2,-255,-240,-46,-82,83
3305,2,-227,-231,142,-61,92
3310,2,-200,-222,275,-34,98
3315,7,-169,-205,351,1,103
3320,3,-155,-191,378,43,111
3325,1,-134,-188,362,83,132
3330,3,-126,-191,308,119,148
3335,5,-116,-193,220,165,153
3340,6,-105,-189,114,211,152
3345,11,-104,-181,6,244,146
3350,11,-105,-186,-98,264,137
3355,7,-109,-191,-191,278,126
3360,6,-113,-186,-277,287,114
3365,8,-126,-182,-354,282,103
3370,11,-126,-179,-423,265,96
3375,8,-134,-178,-478,245,98
3380,13,-140,-171,-514,227,103
3385,15,-145,-165,-535,211,105
3390,15,-147,-156,-542,190,107
3395,19,-149,-155,-533,170,104
3400,15,-149,-151,-509,158,99
3405,18,-151,-143,-469,150,95
3410,13,-145,-133,-427,142,81
3415,12,-146,-143,-390,122,67
3420,13,-142,-143,-363,103,52
3425,15,-147,-145,-345,81,32
3430,11,-144,-149,-334,60,10
3435,9,-143,-152,-333,40,-7
3440,6,-143,-159,-339,25,-20
3445,4,-146,-170,-352,25,-24
3450,6,-145,-176,-372,32,-26
3455,8,-149,-183,-391,39,-19
3460,4,-154,-186,-406,52,-5
3465,3,-154,-195,-416,65,2
3470,0,-155,-191,-424,80,7
3475,1,-159,-191,-429,89,14
3480,0,-162,-191,-427,89,17
3485,0,-167,-191,-419,89,16
3490,-2,-167,-192,-402,89,16
3495,-2,-165,-187,-373,90,19
3500,0,-168,-183,-328,90,27
3505,1,-164,-184,-272,89,36
3510,-1,-163,-183,-206,88,46
3515,0,-160,-171,-134,95,52
3520,1,-152,-165,-60,93,61
3525,1,-143,-164,7,91,70
3530,1,-137,-162,65,89,67
3535,0,-127,-162,106,90,61
3540,0,-125,-156,130,92,54
3545,-1,-118,-158,143,90,47
3550,-2,-112,-163,142,86,38
3555,-3,-107,-161,128,84,27
3560,0,-104,-163,107,81,19
3565,1,-105,-167,75,78,15
3570,0,-108,-179,37,77,13
3575,3,-111,-179,-4,83,14
3580,1,-110,-181,-48,90,17
3585,16,-120,-179,-90,99,17
3590,0,-120,-188,-131,105,26
3595,3,-124,-185,-163,113,30
3600,1,-130,-183,-185,121,35
3605,1,-131,-186,-196,129,40
3610,2,-137,-180,-196,136,46
3615,4,-142,-185,-186,142,52
3620,4,-144,-179,-165,148,58
3625,2,-143,-177,-138,159,66
3630,9,-144,-170,-105,167,73
3635,6,-145,-170,-67,173,80
3640,9,-144,-166,-23,179,85
3645,8,-137,-162,23,186,91
3650,14,-138,-157,74,194,100
3655,11,-134,-155,121,194,95
3660,13,-130,-154,160,190,82
3665,12,-126,-153,188,184,65
3670,11,-123,-157,208,177,47
3675,14,-118,-158,220,166,27
3680,16,-117,-156,226,153,4
3685,14,-115,-162,227,142,-21
3690,14,-110,-161,224,134,-47
3695,16,-112,-155,217,128,-73
3700,11,-111,-154,210,126,-93
3705,11,-116,-154,201,127,-111
3710,7,-113,-155,193,128,-127
3715,6,-116,-144,188,128,-140
3720,3,-115,-149,185,123,-149
3725,1,-114,-145,186,116,-154
3730,3,-116,-142,191,110,-157
3735,0,-117,-142,201,105,-158
3740,1,-116,-142,210,97,-155
3745,0,-115,-141,225,92,-150
3750,0,-119,-141,241,86,-141
3755,0,-114,-140,262,81,-129
3760,-4,-109,-135,286,75,-114
3765,0,-113,-133,315,68,-99
3770,-1,-110,-136,348,60,-80
3775,0,-105,-136,378,50,-68
3780,-1,-101,-131,404,42,-56
3785,2,-102,-129,423,32,-47
3790,6,-94,-130,435,22,-35
3795,5,-91,-135,440,14,-27
3800,6,-89,-140,439,10,-17
3805,8,-90,-145,432,10,-13
3810,9,-87,-149,419,9,-11
3815,14,-86,-151,398,9,-15
3820,13,-88,-156,370,11,-17
3825,15,-94,-163,332,15,-25
3830,19,-99,-165,291,16,-31
3835,19,-110,-168,248,14,-40
3840,19,-114,-171,206,13,-48
3845,20,-124,-167,172,14,-58
3850,19,-133,-167,154,9,-69
3855,16,-139,-155,158,-1,-79
3860,21,-145,-169,185,-9,-91
3865,18,-147,-171,231,-15,-101
3870,18,-146,-173,289,-17,-109
3875,20,-143,-170,351,-19,-114
3880,16,-142,-168,407,-16,-112
3885,17,-142,-167,456,-12,-110
3890,13,-141,-158,498,-6,-109
3895,12,-143,-160,531,-4,-111
3900,13,-139,-156,562,-6,-112
3905,10,-137,-151,595,-18,-117
3910,12,-133,-160,627,-33,-125
3915,16,-133,-170,651,-49,-135
3920,15,-127,-172,660,-61,-145
3925,14,-123,-184,646,-64,-149
3930,14,-129,-192,605,-59,-146
3935,11,-130,-196,541,-45,-138
3940,8,-145,-195,467,-26,-134
3945,9,-161,-197,393,-8,-128
3950,7,-179,-196,336,10,-118
3955,4,-192,-199,305,21,-107
3960,4,-196,-197,307,35,-93
3965,6,-207,-190,346,48,-78
3970,3,-209,-187,424,59,-63
3975,6,-214,-183,538,56,-57
3980,9,-217,-181,661,44,-55
3985,5,-219,-186,779,18,-51
3990,5,-222,-181,888,-10,-51
3995,8,-232,-177,986,-51,-53
4000,11,-247,-172,1073,-96,-52
4005,-1,-271,-163,1151,-135,-53
4010,2,-298,-146,1227,-161,-46
4015,-2,-350,-127,1321,-184,-41
4020,-8,-413,-109,1450,-205,-25
4025,-12,-482,-112,1634,-231,1
4030,-14,-537,-136,1887,-247,53
4035,-15,-557,-165,2217,-271,152
4040,-4,-539,-237,2591,-314,267
4045,8,-466,-344,2997,-395,331
4050,0,-361,-426,3210,-467,342
4055,31,-260,-493,3244,-529,332
4060,42,-217,-487,2990,-504,313
4065,63,-230,-402,2501,-403,277
4070,63,-260,-307,1979,-302,211
4075,32,-265,-243,1585,-274,134
4080,32,-269,-208,1406,-288,98
4085,25,-249,-194,1354,-316,45
4090,27,-226,-168,1346,-306,30
4095,17,-193,-156,1306,-286,44
4100,4,-173,-156,1219,-268,82
4105,-11,-160,-159,1095,-246,124
4110,-8,-161,-144,950,-215,160
4115,-6,-159,-132,793,-191,184
4120,-2,-164,-120,641,-176,192
4125,0,-178,-132,503,-170,183
4130,-1,-191,-126,378,-149,158
4135,0,-206,-112,274,-116,129
4140,3,-223,-103,190,-88,101
4145,0,-244,-104,127,-78,82
4150,-1,-256,-106,92,-71,68
4155,-1,-258,-92,84,-68,60
4160,2,-258,-79,100,-76,55
4165,5,-258,-70,129,-99,50
4170,4,-249,-75,177,-129,40
4175,2,-244,-70,228,-145,25
4180,7,-237,-54,286,-154,12
4185,8,-233,-53,339,-165,-2
4190,6,-225,-58,384,-175,-10
4195,5,-221,-58,419,-177,-13
4200,2,-220,-50,450,-163,-8
4205,5,-217,-41,478,-144,4
4210,6,-225,-37,505,-130,20
4215,2,-227,-42,540,-113,38
4220,-4,-233,-46,580,-89,55
4225,-2,-239,-43,625,-61,70
4230,0,-244,-42,676,-40,87
4235,-6,-246,-50,730,-26,101
4240,-9,-253,-58,785,-15,114
4245,-11,-254,-55,837,0,127
4250,-6,-257,-52,887,11,142
4255,-7,-256,-55,932,12,155
4260,-9,-254,-59,966,10,168
4265,-3,-255,-64,993,10,177
4270,-2,-253,-64,1011,14,183
4275,0,-247,-62,1021,19,189
4280,2,-251,-67,1025,21,191
4285,2,-246,-70,1019,26,190
4290,7,-243,-68,1004,37,187
4295,8,-239,-67,984,48,179
4300,10,-238,-69,959,55,167
4305,5,-233,-74,935,60,153
4310,9,-235,-74,909,70,139
4315,8,-232,-80,885,83,124
4320,11,-232,-75,860,93,112
4325,11,-231,-77,829,97,101
4330,11,-229,-77,794,96,88
4335,14,-230,-82,759,94,79
4340,14,-228,-77,722,91,66
4345,10,-227,-75,684,80,55
4350,8,-226,-80,648,69,45
4355,9,-223,-81,612,64,35
4360,6,-225,-76,574,61,28
4365,1,-225,-74,536,58,18
4370,0,-225,-67,503,54,13
4375,0,-225,-73,474,51,10
4380,-6,-223,-66,451,51,9
4385,-3,-222,-67,430,53,6
4390,-5,-220,-63,412,55,2
4395,-9,-217,-65,393,56,2
4400,-6,-212,-69,374,61,1
4405,-12,-217,-64,353,72,0
4410,-4,-223,-65,331,82,5
4415,-6,-223,-64,306,93,9
4420,-8,-224,-64,284,105,12
4425,-10,-226,-69,268,120,20
4430,-3,-229,-58,256,133,27
4435,-7,-229,-56,253,140,34
4440,-6,-235,-57,254,143,40
4445,-10,-234,-53,262,142,47
4450,-5,-231,-59,271,144,52
4455,-6,-238,-49,279,138,52
4460,-9,-239,-50,284,131,54
4465,-8,-236,-50,288,124,55
4470,-12,-239,-50,292,122,55
4475,-14,-237,-47,297,120,56
4480,-12,-236,-45,301,115,57
4485,-16,-238,-45,309,111,59
4490,-16,-241,-52,316,107,59
4495,-18,-240,-47,325,107,59
4500,-13,-240,-43,336,103,60
4505,-18,-238,-48,344,95,62
4510,-16,-239,-50,350,87,62
4515,-16,-239,-48,357,81,61
4520,-15,-237,-46,363,74,60
4525,-15,-236,-51,366,65,61
4530,-16,-233,-54,367,56,56
4535,-16,-234,-54,366,53,52
4540,-15,-235,-52,360,51,45
4545,-13,-233,-51,350,47,39
4550,-15,-235,-55,335,42,31
4555,-18,-235,-57,319,38,24
4560,-19,-234,-55,303,37,20
4565,-18,-237,-51,285,37,17
4570,-17,-237,-55,271,34,17
4575,-18,-236,-54,257,28,17
4580,-17,-237,-57,245,24,19
4585,-18,-238,-53,235,23,22
4590,-17,-238,-51,227,18,23
4595,-20,-242,-54,219,13,25
4600,-17,-238,-56,212,8,27
4605,-18,-242,-54,207,5,29
4610,-18,-241,-48,200,-1,30
4615,-17,-237,-50,188,-7,31
4620,-18,-238,-52,177,-17,31
4625,-17,-241,-54,164,-23,31
4630,-15,-239,-54,151,-28,33
4635,-18,-240,-58,137,-33,32
4640,-14,-243,-55,125,-37,32
4645,-17,-244,-57,113,-40,32
4650,-12,-245,-52,102,-40,33
4655,-15,-241,-54,93,-39,34
4660,-13,-237,-51,84,-40,33
4665,-10,-237,-55,75,-36,32
4670,-11,-239,-52,65,-31,29
4675,-7,-240,-55,54,-22,28
4680,-5,-239,-54,43,-19,28
4685,-8,-242,-51,33,-18,27
4690,-9,-238,-54,25,-11,24
4695,-5,-242,-49,18,-4,23
4700,-6,-243,-46,13,0,20
4705,-4,-243,-47,10,2,16
4710,-4,-244,-46,9,3,11
4715,-6,-242,-46,10,5,8
4720,-7,-240,-46,12,5,5
4725,-5,-240,-40,16,5,1
4730,-6,-245,-42,20,0,-3
4735,-7,-242,-45,25,-1,-5
4740,-8,-243,-44,31,-1,-5
4745,-9,-241,-45,36,-1,-6
4750,-6,-242,-44,39,-1,-4
4755,-10,-241,-46,42,0,-4
4760,-13,-241,-44,44,4,1
4765,-10,-245,-48,46,7,3
4770,-6,-246,-48,50,8,7
4775,-11,-246,-50,52,8,11
4780,-13,-246,-54,56,9,13
4785,-10,-248,-48,59,8,13
4790,-10,-242,-45,61,5,14
4795,-12,-242,-40,61,2,16
4800,-14,-245,-45,60,1,18
4805,-12,-244,-48,59,1,18
4810,-11,-238,-46,54,1,20
4815,-13,-244,-47,51,-1,20
4820,-11,-243,-48,48,0,19
4825,-11,-244,-47,43,3,21
4830,-9,-246,-52,42,6,22
4835,-9,-244,-43,40,9,21
4840,-10,-247,-52,38,14,21
4845,-10,-235,-40,39,19,20
4850,-13,-251,-52,39,22,20
4855,-8,-245,-48,42,27,19
4860,-11,-239,-49,44,30,22
4865,-8,-244,-48,47,35,22
4870,-8,-243,-54,49,39,24
4875,-11,-241,-54,50,44,23
4880,-10,-238,-50,52,47,22
4885,-5,-241,-49,51,49,22
4890,-14,-233,-63,48,51,19
4895,-8,-238,-52,45,52,17
4900,-10,-237,-50,42,56,15
4905,-12,-237,-53,39,59,13
4910,-9,-239,-49,36,60,12
4915,-8,-243,-56,31,60,10
4920,-9,-240,-54,29,59,6
4925,-10,-241,-56,25,58,5
4930,-11,-244,-58,23,56,1
4935,-9,-242,-58,23,54,0
4940,-5,-245,-55,21,54,0
4945,-12,-245,-53,24,53,0
4950,-7,-246,-51,25,52,3
4955,-12,-242,-57,27,51,5
4960,-9,-242,-58,29,52,8
4965,-11,-243,-54,30,53,11
4970,-12,-243,-58,29,53,13
4975,-9,-243,-59,29,51,15
4980,-14,-242,-57,26,50,16
4985,-17,-239,-58,21,50,18
4990,-13,-240,-58,17,50,16
4995,-18,-241,-54,13,50,15
5000,-11,-245,-60,10,47,15
5005,-17,-242,-56,7,45,14
5010,-16,-243,-55,9,44,13
5015,-14,-242,-55,10,43,11
5020,-14,-240,-53,15,40,7
5025,-14,-243,-58,20,38,4
5030,-15,-245,-53,24,35,1
5035,-13,-246,-53,29,33,-2
5040,-16,-241,-56,33,29,-2
5045,-18,-240,-53,34,26,-4
5050,-18,-241,-56,34,23,-6
5055,-13,-244,-57,38,21,-8
5060,-19,-241,-60,40,17,-12
5065,-17,-238,-58,40,12,-16
5070,-17,-241,-61,42,10,-18
5075,-19,-241,-61,42,6,-19
5080,-18,-244,-59,45,4,-18
5085,-17,-240,-60,47,1,-20
5090,-23,-244,-64,49,-4,-19
5095,-16,-240,-55,51,-4,-19
5100,-16,-242,-57,51,-5,-19
5105,-17,-239,-57,50,-7,-18
5110,-17,-240,-55,47,-8,-19
5115,-15,-242,-55,45,-8,-20
5120,-17,-237,-55,41,-9,-20
5125,-18,-240,-54,35,-9,-19
5130,-18,-238,-54,29,-7,-19
5135,-17,-241,-49,22,-6,-20
5140,-16,-241,-54,14,-4,-21
5145,-17,-241,-53,7,-2,-21
5150,-23,-239,-53,0,0,-21
5155,-14,-240,-47,-9,4,-21
5160,-11,-235,-49,-15,7,-20
5165,-15,-241,-52,-18,11,-19
5170,-17,-240,-53,-19,15,-16
5175,-12,-242,-53,-16,17,-13
5180,-13,-245,-53,-14,20,-16
5185,-8,-246,-52,-8,23,-18
5190,-12,-244,-56,-2,27,-18
5195,-12,-246,-55,3,30,-18
5200,-11,-246,-57,4,34,-19
5205,-13,-245,-54,5,36,-20
5210,-10,-243,-57,5,40,-19
5215,-9,-244,-58,4,41,-21
5220,-11,-237,-56,0,41,-23
5225,-10,-243,-57,-2,43,-26
5230,-9,-244,-54,-2,43,-27
5235,-9,-241,-58,-1,42,-29
5240,-10,-245,-57,-3,39,-30
5245,-6,-245,-55,-2,37,-32
5250,-9,-245,-57,-1,33,-35
5255,-8,-242,-56,0,30,-35
5260,-11,-242,-53,1,25,-37
5265,-10,-242,-57,2,19,-37
5270,-12,-240,-56,3,15,-38
5275,-10,-241,-56,3,11,-36
5280,-11,-239,-58,3,9,-38
5285,-13,-238,-54,3,5,-38
5290,-11,-239,-62,4,1,-38
5295,-13,-240,-59,3,1,-36
5300,-10,-239,-57,1,-1,-37
5305,-13,-240,-58,0,-2,-38
5310,-10,-244,-58,-2,-2,-38
5315,-12,-239,-61,-6,-3,-38
5320,-12,-240,-60,-6,-2,-38
5325,-12,-243,-58,-7,-1,-38
5330,-12,-243,-60,-6,-2,-38
5335,-10,-243,-59,-4,-3,-38
5340,-8,-239,-58,-1,-5,-36
5345,-8,-243,-56,4,-7,-35
5350,-7,-246,-59,9,-7,-35
5355,-7,-241,-62,14,-10,-35
5360,-10,-244,-56,18,-10,-35
5365,-8,-242,-59,19,-9,-35
5370,-6,-241,-60,21,-8,-37
5375,-5,-240,-62,21,-7,-37
5380,-4,-248,-58,21,-4,-36
5385,-4,-242,-62,20,0,-36
5390,-4,-244,-63,18,3,-33
5395,-7,-240,-62,16,8,-32
5400,-2,-242,-60,14,10,-32
5405,-5,-242,-61,13,12,-31
5410,-3,-246,-58,12,16,-31
5415,-5,-240,-62,12,18,-29
5420,-5,-242,-60,10,21,-30
5425,-7,-243,-61,9,22,-28
5430,-10,-238,-53,8,25,-27
5435,-7,-242,-71,6,28,-25
5440,-8,-238,-59,5,30,-23
5445,-10,-239,-60,4,30,-23
5450,-11,-240,-61,3,31,-22
5455,-15,-241,-59,4,31,-22
5460,-8,-241,-61,4,31,-19
5465,-10,-243,-59,5,29,-18
5470,-8,-243,-59,6,27,-16
5475,-14,-239,-61,8,25,-17
5480,-12,-242,-59,10,25,-16
5485,-10,-239,-62,14,26,-16
5490,-15,-242,-63,18,25,-15
5495,-11,-240,-62,21,24,-11
5500,-9,-243,-63,24,25,-12
5505,-8,-239,-62,28,26,-11
5510,-7,-243,-60,32,27,-10
5515,-10,-240,-63,35,27,-10
5520,-8,-243,-59,39,28,-10
5525,-10,-241,-61,43,28,-11
5530,-6,-245,-62,46,28,-10
5535,-10,-242,-59,49,28,-11
5540,-10,-243,-63,52,27,-12
5545,-15,-252,-71,56,27,-13
5550,-8,-243,-62,57,27,-16
5555,-12,-240,-64,59,26,-17
5560,-10,-244,-64,62,26,-18
5565,-8,-243,-61,63,24,-19
5570,-10,-242,-62,65,22,-20
5575,-6,-240,-62,65,20,-22
5580,-10,-242,-62,66,18,-23
5585,-10,-245,-61,67,12,-22
5590,-11,-241,-63,67,11,-23
5595,-13,-242,-62,67,10,-23
5600,-12,-241,-63,67,6,-24
5605,-15,-240,-61,68,4,-23
5610,-11,-241,-64,69,3,-22
5615,-14,-238,-59,67,3,-22
5620,-7,-239,-57,66,3,-21
5625,-13,-237,-60,64,2,-21
5630,-13,-237,-62,62,2,-21
5635,-11,-239,-63,60,2,-21
5640,-15,-241,-59,58,4,-20
5645,-13,-243,-56,55,4,-21
5650,-15,-240,-59,54,3,-21
5655,-12,-239,-60,53,5,-21
5660,-14,-240,-61,52,7,-19
5665,-10,-239,-59,49,7,-19
5670,-13,-240,-62,47,7,-19
5675,-10,-242,-61,45,7,-18
5680,-10,-243,-61,44,6,-19
5685,-11,-242,-59,44,4,-19
5690,-9,-244,-59,47,2,-21
5695,-13,-244,-62,51,1,-19
5700,-9,-245,-57,54,3,-21
5705,-5,-245,-59,59,2,-20
5710,-10,-242,-63,65,3,-20
5715,-9,-242,-64,69,4,-20
5720,-9,-241,-60,72,5,-20
5725,-4,-245,-60,75,4,-20
5730,-7,-241,-60,77,4,-19
5735,-2,-244,-57,78,5,-18
5740,-8,-240,-58,79,4,-18
5745,-7,-243,-55,80,3,-18
5750,-7,-241,-60,81,3,-15
5755,-4,-244,-61,82,4,-15
5760,-5,-243,-57,82,3,-15
5765,-22,-241,-57,82,4,-16
5770,-7,-240,-58,83,5,-16
5775,-7,-241,-58,83,5,-14
5780,-1,-242,-54,82,6,-13
5785,-4,-242,-61,80,6,-12
5790,-9,-239,-53,77,7,-13
5795,-6,-239,-60,75,7,-13
5800,-7,-243,-57,73,8,-13
5805,-7,-241,-57,70,8,-13
5810,-7,-239,-57,66,7,-14
5815,-8,-241,-55,63,7,-14
5820,-8,-243,-58,61,6,-14
5825,-11,-241,-58,58,6,-13
5830,-6,-240,-57,58,7,-16
5835,-9,-240,-58,57,8,-14
5840,-5,-240,-58,55,9,-13
5845,-10,-238,-58,55,10,-13
5850,-9,-240,-61,53,13,-14
5855,-8,-241,-60,55,16,-14
5860,-9,-243,-57,55,17,-15
5865,-9,-240,-58,57,17,-16
5870,-7,-245,-61,57,17,-15
5875,-4,-242,-62,56,17,-16
5880,-8,-243,-58,56,16,-15
5885,-9,-242,-61,56,15,-18
5890,-6,-241,-58,57,14,-19
5895,-5,-242,-59,57,13,-19
5900,-8,-242,-61,58,14,-17
5905,-7,-244,-60,60,14,-19
5910,-8,-243,-57,63,14,-17
5915,-7,-241,-60,66,15,-17
5920,-9,-242,-57,67,17,-15
5925,-9,-241,-57,68,18,-15
5930,-6,-241,-60,66,19,-14
5935,-8,-242,-57,66,20,-15
5940,-9,-241,-61,66,21,-14
5945,-11,-243,-61,65,20,-12
5950,-10,-241,-58,65,20,-10
5955,-15,-241,-62,66,21,-11
5960,-13,-240,-59,65,20,-11
5965,-11,-240,-58,66,20,-9
5970,-11,-241,-58,68,20,-8
5975,-10,-247,-69,68,19,-6
5980,-11,-242,-63,69,18,-5
5985,-10,-239,-61,72,16,-4
5990,-10,-242,-55,74,15,-2
5995,-11,-242,-61,74,14,-3
6000,-12,-241,-59,73,14,-2
6005,-9,-242,-62,68,14,-2
6010,-12,-241,-60,64,15,-1
6015,-9,-241,-56,61,15,-3
6020,-12,-243,-58,59,15,-3
6025,-10,-242,-60,57,13,-5
6030,-11,-243,-61,57,13,-4
6035,-8,-243,-56,56,12,-7
6040,-6,-245,-58,58,10,-10
6045,-9,-242,-57,59,9,-10
6050,-12,-242,-56,59,9,-12
6055,-7,-239,-58,61,9,-14
6060,-10,-241,-59,59,9,-16
6065,-10,-240,-58,57,10,-17
6070,-9,-239,-57,57,10,-14
6075,-9,-240,-61,55,10,-13
6080,-11,-245,-59,55,11,-13
6085,-8,-242,-59,56,11,-13
6090,-13,-245,-63,55,12,-11
6095,-11,-239,-56,57,12,-11
6100,-5,-239,-60,56,11,-11
6105,-11,-242,-60,57,13,-9
6110,-9,-243,-60,57,13,-8
6115,-8,-243,-62,55,12,-8
6120,-2,-244,-62,55,11,-8
6125,-8,-244,-62,53,12,-8
6130,-9,-241,-59,53,11,-8
6135,-9,-247,-57,52,10,-9
6140,-7,-245,-60,53,9,-8
6145,-8,-243,-58,54,9,-8
6150,-6,-244,-57,55,9,-9
6155,-6,-243,-58,57,7,-9
6160,-8,-243,-57,57,8,-7
6165,-4,-246,-54,59,8,-4
6170,-7,-243,-57,59,7,-2
6175,-8,-240,-56,60,7,-5
6180,-9,-243,-59,61,7,-6
6185,-8,-237,-56,61,8,-3
6190,-4,-240,-54,62,8,-4
6195,-11,-239,-70,64,9,-5
6200,-1,-256,-66,64,9,-4
6205,-8,-244,-57,64,11,-3
6210,-8,-239,-62,65,12,-2
6215,-8,-240,-59,65,12,-5
6220,-9,-239,-61,64,13,-3
6225,-10,-242,-58,62,14,-4
6230,-11,-242,-60,59,14,-4
6235,-6,-241,-61,58,13,-7
6240,-9,-243,-55,56,14,-7
6245,-8,-244,-59,57,12,-9
6250,-7,-242,-60,59,11,-9
6255,-9,-241,-60,58,9,-9
6260,-7,-243,-60,60,8,-10
6265,-10,-246,-59,61,6,-10
6270,-7,-241,-61,62,6,-11
6275,-8,-240,-57,61,5,-10
6280,-8,-242,-57,59,7,-9
6285,-9,-241,-55,59,7,-8
6290,-10,-241,-62,58,7,-8
6295,-10,-238,-58,58,8,-6
6300,-10,-241,-55,56,8,-7
6305,-8,-242,-56,56,8,-7
6310,-8,-242,-56,55,9,-7
6315,-12,-241,-58,54,11,-8
6320,-9,-244,-58,53,10,-8
6325,-13,-240,-62,54,11,-7
6330,-10,-239,-57,55,11,-8
6335,-11,-242,-58,57,12,-9
6340,-10,-243,-59,57,10,-8
6345,-10,-243,-61,57,10,-8
6350,-12,-242,-61,58,11,-9
6355,-12,-239,-61,58,13,-7
6360,-10,-243,-60,58,12,-6
6365,-10,-241,-61,58,11,-5
6370,-11,-244,-61,59,11,-7
6375,-10,-243,-58,61,11,-7
6380,-11,-242,-58,63,11,-5
6385,-10,-241,-56,64,11,-5
6390,-10,-240,-55,65,11,-4
6395,-12,-244,-60,67,10,-2
6400,-11,-243,-57,66,11,-1
6405,-9,-242,-52,65,12,0
6410,-7,-242,-53,65,11,0
6415,-10,-239,-58,64,12,0
6420,-10,-240,-54,63,10,1
6425,-11,-241,-57,62,9,-2
6430,-12,-242,-56,63,7,-3
6435,-8,-240,-58,61,6,-3
6440,-10,-241,-59,59,6,-4
6445,-10,-243,-57,59,5,-6
6450,-10,-242,-55,58,5,-5
6455,-9,-241,-57,57,5,-7
6460,-8,-240,-59,57,6,-7
6465,-17,-246,-49,58,6,-7
6470,-9,-245,-56,59,7,-8
6475,-7,-241,-56,60,7,-8
6480,-11,-243,-58,62,10,-8
6485,-13,-244,-57,62,11,-10
6490,-10,-245,-56,62,13,-8
6495,-10,-240,-59,61,14,-10
6500,-11,-236,-61,61,14,-8
6505,-12,-241,-59,61,15,-10
6510,-12,-243,-61,60,16,-8
6515,-10,-241,-62,60,17,-8
6520,-9,-242,-54,60,17,-7
6525,-12,-234,-58,60,17,-7
6530,-4,-241,-59,62,17,-8
6535,-8,-241,-56,61,17,-9
6540,-9,-243,-55,62,16,-8
6545,-9,-244,-56,62,15,-6
6550,-11,-241,-57,60,15,-7
6555,-9,-240,-58,60,14,-9
6560,-9,-243,-56,62,13,-9
6565,-7,-243,-58,62,13,-10
6570,-12,-244,-59,63,13,-10
6575,-9,-244,-57,64,11,-9
6580,-8,-241,-56,65,12,-10
6585,-6,-240,-58,64,11,-9
6590,-11,-241,-56,64,11,-11
6595,-7,-245,-55,63,12,-11
6600,-5,-239,-56,61,12,-10
6605,-11,-242,-56,61,11,-11
6610,-10,-243,-57,60,11,-11
6615,-9,-243,-55,60,11,-10
6620,-11,-243,-61,59,10,-10
6625,-9,-243,-55,57,10,-9
6630,-10,-240,-55,55,9,-10
6635,-10,-243,-58,56,9,-11
6640,-11,-242,-58,55,7,-11
6645,-10,-243,-56,56,8,-13
6650,-6,-243,-58,56,10,-13
6655,-10,-241,-59,56,9,-12
6660,-10,-237,-61,56,10,-11
6665,-9,-238,-56,56,11,-11
6670,-12,-242,-55,55,11,-11
6675,-11,-242,-58,55,10,-11
6680,-10,-241,-56,53,11,-11
6685,-8,-238,-55,54,11,-10
6690,-10,-240,-55,51,10,-9
6695,-12,-238,-61,50,11,-11
6700,-12,-241,-62,49,10,-13
6705,-8,-240,-59,47,10,-12
6710,-10,-245,-57,45,11,-11
6715,-10,-240,-56,43,10,-14
6720,-7,-240,-59,42,11,-13
6725,-9,-242,-57,42,11,-13
6730,-11,-243,-58,42,11,-13
6735,-9,-243,-56,44,12,-11
6740,-6,-244,-56,42,12,-12
6745,-9,-247,-47,44,12,-12
6750,-10,-241,-56,46,12,-12
6755,-11,-244,-60,46,12,-12
6760,-8,-242,-59,46,13,-12
6765,-9,-241,-54,45,13,-11
6770,-14,-241,-59,46,12,-12
6775,-11,-244,-60,45,12,-11
6780,-9,-241,-59,43,11,-13
6785,-7,-243,-59,44,11,-14
6790,-9,-242,-59,42,10,-12
6795,-11,-243,-56,42,11,-13
6800,-11,-243,-56,42,9,-12
6805,-7,-244,-59,44,9,-14
6810,-12,-242,-59,44,10,-13
6815,-7,-242,-63,45,10,-14
6820,-10,-239,-58,46,11,-12
6825,-9,-239,-57,46,11,-14
6830,-10,-236,-59,47,11,-14
6835,-12,-241,-53,45,10,-13
6840,-8,-239,-60,46,11,-13
6845,-13,-238,-56,44,11,-13
6850,-12,-240,-54,43,11,-14
6855,-11,-240,-55,41,10,-13
6860,-9,-242,-56,41,10,-15
6865,-10,-241,-59,40,10,-14
6870,-11,-241,-58,40,10,-13
6875,-14,-240,-56,40,11,-14
6880,-11,-244,-57,43,12,-14
6885,-13,-242,-59,44,12,-14
6890,-10,-245,-57,45,12,-14
6895,-14,-243,-59,48,14,-13
6900,-10,-246,-59,49,16,-15
6905,-12,-244,-60,51,16,-14
6910,-12,-241,-59,51,17,-14
6915,-12,-239,-61,51,18,-14
6920,-9,-242,-60,53,19,-13
6925,-10,-242,-57,51,19,-13
6930,-14,-240,-58,50,19,-15
6935,-9,-241,-60,47,18,-14
6940,-10,-242,-57,45,16,-15
6945,-9,-241,-59,44,17,-16
6950,-11,-240,-59,43,15,-17
6955,-10,-237,-63,43,15,-17
6960,-1,-244,-62,41,15,-18
6965,-9,-241,-59,41,15,-18
6970,-11,-241,-57,42,15,-16
6975,-9,-241,-57,42,18,-15
6980,-8,-246,-62,44,17,-16
6985,-9,-243,-58,46,18,-16
6990,-11,-239,-57,47,19,-15
6995,-11,-243,-61,48,19,-15
7000,-9,-242,-60,46,19,-17
7005,-9,-242,-59,46,18,-17
7010,-11,-241,-57,44,18,-18
7015,-8,-239,-56,44,16,-19
7020,-6,-246,-58,46,15,-16
7025,-11,-239,-57,49,13,-16
7030,-7,-245,-57,51,13,-15
7035,-11,-241,-59,54,12,-14
7040,-12,-241,-56,55,11,-14
7045,-9,-242,-61,57,12,-12
7050,-8,-243,-60,56,11,-13
7055,-9,-241,-56,56,10,-13
7060,-9,-242,-59,53,11,-14
7065,-9,-244,-56,50,11,-14
7070,-11,-243,-60,48,10,-12
7075,-10,-244,-55,47,10,-14
7080,-7,-240,-59,47,10,-13
7085,-8,-239,-59,46,10,-13
7090,-9,-243,-57,47,11,-13
7095,-6,-245,-54,46,10,-11
7100,-9,-242,-56,48,11,-13
7105,-12,-241,-60,49,12,-12
7110,-11,-241,-62,49,12,-12
7115,-9,-242,-57,49,12,-12
7120,-10,-243,-58,49,14,-14
7125,-9,-243,-60,48,13,-14
7130,-10,-240,-58,50,13,-15
7135,-10,-242,-58,51,14,-15
7140,-6,-245,-61,51,14,-16
7145,-9,-241,-59,52,13,-16
7150,-9,-241,-59,53,14,-14
7155,-7,-244,-60,53,13,-13
7160,-9,-242,-59,53,13,-13
7165,-10,-241,-60,54,13,-12
7170,-8,-243,-59,55,12,-12
7175,-11,-241,-43,54,12,-12
7180,-13,-240,-57,56,12,-14
7185,-10,-240,-61,57,13,-14
7190,-8,-244,-58,57,12,-13
7195,-10,-243,-60,57,14,-12
7200,-9,-243,-58,58,12,-12
7205,-6,-241,-57,57,12,-13
7210,-11,-240,-60,57,10,-12
7215,-10,-242,-59,56,9,-12
7220,-8,-244,-59,55,8,-11
7225,-9,-243,-59,54,9,-10
7230,-8,-239,-57,52,9,-9
7235,-6,-244,-59,51,8,-8
7240,-9,-241,-58,53,7,-9
7245,-11,-242,-57,55,7,-8
7250,-7,-243,-55,57,6,-9
7255,-9,-240,-56,58,5,-8
7260,-10,-242,-57,58,6,-10
7265,-10,-242,-62,59,4,-9
7270,-12,-243,-56,60,6,-11
7275,-7,-242,-58,60,5,-12
7280,-9,-243,-57,59,7,-11
7285,-11,-242,-59,59,8,-12
7290,-11,-241,-64,57,10,-13
7295,-10,-240,-58,56,11,-12
7300,-9,-239,-59,55,11,-11
7305,-10,-240,-58,56,12,-12
7310,-9,-243,-57,55,13,-11
7315,-9,-242,-57,55,14,-10
7320,-8,-242,-60,54,14,-11
7325,-5,-242,-59,53,13,-11
7330,-7,-243,-57,52,13,-11
7335,-9,-239,-60,50,14,-10
7340,-10,-243,-55,48,13,-10
7345,-8,-242,-58,47,11,-10
7350,-8,-241,-59,47,12,-10
7355,-9,-243,-59,45,11,-9
7360,-9,-240,-57,44,12,-9
7365,-8,-243,-53,44,13,-9
7370,-8,-241,-55,43,11,-8
7375,-9,-242,-54,43,12,-9
7380,-12,-240,-54,43,11,-11
7385,-11,-240,-57,45,11,-10
7390,-10,-240,-57,47,11,-10
7395,-11,-245,-61,49,11,-11
7400,-10,-244,-55,51,11,-11
7405,-6,-244,-58,52,11,-11
7410,-9,-241,-59,55,10,-12
7415,-8,-245,-60,58,11,-10
7420,-10,-245,-59,59,11,-10
7425,-7,-242,-60,59,12,-8
7430,-9,-240,-58,61,11,-8
7435,-8,-240,-60,60,11,-7
7440,-11,-238,-57,57,10,-6
7445,-11,-240,-60,55,11,-6
7450,-9,-238,-60,52,11,-6
7455,-13,-237,-59,51,12,-6
7460,-4,-240,-58,47,10,-7
7465,-11,-242,-62,44,10,-8
7470,-8,-237,-58,41,10,-7
7475,-7,-242,-59,40,11,-9
7480,-9,-241,-58,39,10,-8
7485,-11,-241,-55,40,10,-8
7490,-12,-239,-57,41,11,-10
7495,-8,-244,-57,44,11,-10
7500,-5,-244,-56,47,13,-9
7505,-8,-244,-55,50,12,-11
7510,-8,-242,-54,55,12,-11
7515,-12,-241,-56,57,12,-11
7520,-11,-245,-58,57,12,-12
7525,-6,-238,-59,58,11,-12
7530,-9,-243,-57,59,10,-12
7535,-11,-243,-55,61,12,-13
7540,-9,-241,-57,62,11,-13
7545,-7,-243,-58,65,8,-12
7550,-8,-244,-60,69,8,-11
7555,-9,-243,-58,72,7,-13
7560,-13,-241,-59,75,8,-13
7565,-9,-243,-62,77,10,-12
7570,-8,-242,-55,78,9,-10
7575,-8,-245,-56,80,8,-9
7580,-10,-239,-60,80,10,-9
7585,-8,-245,-61,79,11,-9
7590,-11,-241,-59,79,11,-9
7595,-12,-240,-61,79,11,-8
7600,-10,-241,-56,77,12,-9
7605,-8,-242,-57,74,12,-10
7610,-8,-245,-56,71,13,-10
7615,-9,-238,-61,68,11,-10
7620,-9,-243,-59,67,9,-10
7625,-12,-240,-59,65,8,-10
7630,-9,-242,-58,64,7,-9
7635,-10,-243,-57,63,5,-9
7640,-10,-242,-55,63,4,-11
7645,-10,-243,-56,63,4,-9
7650,-8,-244,-57,64,3,-10
7655,-8,-246,-59,64,3,-12
7660,-8,-241,-59,64,3,-9
7665,-11,-240,-54,64,4,-10
7670,-11,-242,-60,68,5,-11
7675,-10,-242,-55,69,7,-11
7680,-9,-241,-54,70,8,-9
7685,-6,-243,-58,70,10,-8
7690,-9,-239,-57,71,11,-8
7695,-11,-239,-59,71,12,-7
7700,-8,-242,-57,73,12,-7
7705,-8,-243,-55,72,13,-6
7710,-8,-242,-58,73,12,-6
7715,-8,-243,-57,75,12,-6
7720,-8,-239,-56,76,12,-7
7725,-20,-241,-55,75,11,-6
7730,-11,-241,-57,77,11,-6
7735,-11,-245,-56,78,12,-5
7740,-8,-241,-59,79,12,-5
7745,-11,-241,-56,82,11,-6
7750,-8,-242,-59,84,13,-6
7755,-7,-242,-58,86,12,-7
7760,-10,-242,-55,87,11,-9
7765,-9,-242,-59,87,11,-10
7770,-7,-243,-58,87,12,-8
7775,-9,-241,-60,85,11,-8
7780,-10,-240,-60,84,11,-9
7785,-8,-241,-59,82,11,-11
7790,-8,-240,-57,82,10,-10
7795,-11,-241,-56,81,9,-10
7800,-12,-238,-58,82,10,-11
7805,-10,-244,-53,81,10,-10
7810,-9,-243,-57,82,9,-9
7815,-7,-241,-58,80,9,-8
7820,-11,-240,-55,81,9,-8
7825,-12,-240,-58,80,8,-10
7830,-10,-242,-52,79,10,-9
7835,-6,-240,-64,79,10,-9
7840,-14,-240,-52,79,10,-8
7845,-11,-238,-53,80,10,-8
7850,-10,-244,-59,79,11,-9
7855,-10,-243,-55,79,11,-9
7860,-10,-243,-52,80,11,-8
7865,-12,-242,-57,80,9,-7
7870,-9,-241,-52,80,10,-8
7875,-11,-243,-57,81,10,-9
7880,-11,-240,-57,80,10,-10
7885,-9,-243,-56,81,10,-9
7890,-11,-242,-56,81,10,-11
7895,-9,-243,-54,82,10,-13
7900,-9,-242,-56,82,10,-13
7905,-11,-243,-59,83,9,-13
7910,-7,-247,-52,84,11,-13
7915,-11,-245,-56,86,12,-12
7920,-10,-245,-54,87,11,-12
7925,-8,-242,-53,86,10,-14
7930,-12,-241,-52,87,11,-14
7935,-11,-245,-55,89,11,-15
7940,-9,-245,-57,90,11,-14
7945,-14,-242,-54,89,11,-15
7950,-9,-241,-54,89,11,-13
7955,-7,-243,-53,89,12,-14
7960,-12,-243,-53,90,11,-14
7965,-9,-241,-55,88,9,-15
7970,-9,-242,-54,87,10,-15
7975,-10,-246,-54,86,9,-15
7980,-11,-244,-53,84,7,-16
7985,-8,-243,-51,82,7,-14
7990,-12,-243,-59,82,7,-12
7995,-8,-243,-56,80,7,-13
8000,-12,-245,-56,80,6,-14
8005,-10,-247,-56,80,6,-14
8010,-11,-243,-56,78,6,-14
8015,-12,-242,-54,76,6,-14
8020,-9,-241,-51,75,7,-14
8025,-14,-244,-50,72,7,-16
8030,-10,-240,-54,70,6,-18
8035,-10,-240,-51,68,5,-17
8040,-7,-245,-54,67,5,-18
8045,-11,-236,-51,66,6,-18
8050,-9,-246,-59,64,6,-18
8055,-14,-240,-50,65,6,-19
8060,-11,-243,-53,64,6,-18
8065,-11,-240,-52,65,8,-19
8070,-8,-242,-46,65,7,-20
8075,-9,-242,-54,66,7,-21
8080,-10,-244,-55,65,9,-19
8085,-12,-244,-54,66,10,-18
8090,-7,-245,-52,67,9,-18
8095,-10,-243,-54,67,10,-18
8100,-7,-245,-50,69,9,-18
8105,-9,-243,-54,71,9,-18
8110,-9,-244,-56,74,8,-18
8115,-5,-245,-53,79,8,-20
8120,-9,-244,-56,84,7,-21
8125,-10,-243,-56,88,6,-18
8130,-8,-242,-58,91,6,-19
8135,-9,-248,-53,93,6,-17
8140,-11,-240,-55,93,5,-16
8145,-9,-243,-55,89,5,-15
8150,-7,-242,-57,85,5,-14
8155,-9,-242,-54,80,6,-14
8160,-8,-240,-54,75,8,-12
8165,-11,-241,-54,71,8,-13
8170,-9,-240,-54,68,9,-13
8175,-12,-243,-49,66,10,-12
8180,-8,-240,-51,63,10,-12
8185,-7,-240,-49,61,11,-14
8190,-9,-243,-57,60,11,-13
8195,-9,-242,-51,60,13,-13
8200,-7,-243,-52,60,12,-13
8205,-12,-243,-53,61,13,-13
8210,-9,-245,-51,63,13,-15
8215,-11,-242,-53,66,10,-14
8220,-12,-239,-55,67,10,-15
8225,-7,-244,-52,68,10,-15
8230,-8,-249,-49,69,10,-17
8235,-9,-241,-52,68,10,-16
8240,-11,-244,-55,69,10,-15
8245,-8,-242,-51,69,9,-16
8250,-8,-240,-52,70,8,-17
8255,-9,-245,-52,70,8,-18
8260,-9,-242,-53,70,7,-18
8265,-6,-242,-58,70,9,-17
8270,-8,-243,-45,70,9,-16
8275,-7,-242,-54,71,9,-15
8280,-13,-242,-51,73,9,-15
8285,-9,-246,-54,75,11,-14
8290,-7,-245,-51,74,10,-14
8295,-10,-241,-53,74,10,-14
8300,-9,-240,-53,73,11,-14
8305,-10,-243,-50,73,10,-14
8310,-11,-243,-50,73,10,-14
8315,-9,-244,-53,72,9,-11
8320,-8,-240,-55,72,9,-10
8325,-10,-242,-52,72,9,-11
8330,-11,-243,-53,69,9,-10
8335,-11,-242,-53,66,8,-10
8340,-11,-241,-51,64,9,-10
8345,-8,-247,-51,63,8,-9
8350,-7,-243,-55,61,8,-10
8355,-11,-247,-54,60,9,-9
8360,-7,-244,-54,61,9,-8
8365,-8,-244,-51,61,8,-7
8370,-10,-244,-52,63,8,-7
8375,-5,-242,-59,62,9,-7
8380,-6,-246,-52,66,9,-7
8385,-9,-240,-54,66,11,-7
8390,-8,-243,-52,65,12,-7
8395,-8,-242,-49,65,13,-6
8400,-9,-244,-51,65,13,-7
8405,-7,-244,-54,64,13,-6
8410,-8,-245,-50,63,14,-9
8415,-6,-244,-50,64,15,-9
8420,-10,-246,-53,65,16,-8
8425,-9,-245,-53,66,14,-8
8430,-15,-243,-53,67,15,-8
8435,-12,-244,-51,67,16,-8
8440,-8,-242,-50,67,15,-8
8445,-9,-244,-55,64,15,-8
8450,-8,-243,-50,63,15,-9
8455,-9,-245,-52,61,16,-9
8460,-8,-241,-56,60,14,-10
8465,-9,-243,-50,59,15,-10
8470,-9,-244,-50,58,13,-10
8475,-11,-242,-48,57,13,-10
8480,-13,-248,-40,58,13,-11
8485,-20,-243,-45,57,10,-10
8490,-12,-244,-48,56,10,-12
8495,-10,-242,-56,56,10,-10
8500,-6,-244,-48,55,10,-10
8505,-9,-243,-54,57,10,-9
8510,-9,-246,-50,60,10,-8
8515,-6,-244,-54,61,10,-9
8520,-6,-245,-54,63,11,-8
8525,-9,-244,-49,64,11,-6
8530,-8,-245,-52,65,12,-4
8535,-9,-244,-53,66,12,-3
8540,-10,-242,-53,66,12,-4
8545,-9,-241,-50,64,12,-4
8550,-6,-245,-52,64,14,-4
8555,-10,-243,-54,63,12,-3
8560,-11,-243,-51,62,12,-2
8565,-11,-245,-53,61,12,-5
8570,-10,-242,-54,60,13,-3
8575,-10,-243,-55,59,13,-4
8580,-8,-242,-51,58,12,-4
8585,-10,-242,-54,56,12,-5
8590,-9,-243,-54,56,12,-5
8595,-10,-244,-53,55,12,-5
8600,-7,-242,-53,54,11,-7
8605,-12,-243,-50,54,11,-7
8610,-8,-246,-51,54,11,-6
8615,-11,-242,-50,54,11,-6
8620,-8,-241,-52,54,11,-6
8625,-7,-241,-47,54,11,-6
8630,-10,-243,-49,54,12,-7
8635,-8,-242,-48,52,12,-5
8640,-8,-245,-50,52,12,-3
8645,-7,-247,-51,53,12,-4
8650,-9,-239,-50,53,12,-3
8655,-6,-242,-49,53,12,-3
8660,-7,-244,-52,55,12,-2
8665,-10,-244,-52,54,12,-1
8670,-8,-244,-56,54,12,-2
8675,-11,-243,-52,56,12,-2
8680,-11,-241,-52,56,14,-1
8685,-9,-244,-51,55,13,0
8690,-10,-243,-51,56,12,-1
8695,-10,-244,-53,53,12,0
8700,-12,-244,-36,51,13,-1
8705,-14,-245,-56,50,12,0
8710,-10,-243,-52,50,11,1
8715,-8,-242,-50,51,12,0
8720,-10,-243,-50,52,12,-1
8725,-7,-242,-54,52,12,-2
8730,-11,-245,-52,52,11,-4
8735,-12,-242,-50,54,13,-4
8740,-9,-243,-50,55,12,-4
8745,-11,-245,-53,55,14,-4
8750,-11,-245,-55,55,13,-5
8755,-9,-239,-53,57,13,-4
8760,-11,-242,-50,55,13,-2
8765,-11,-241,-49,56,14,-5
8770,-14,-242,-52,58,14,-5
8775,-10,-246,-53,57,13,-6
8780,-11,-244,-50,56,14,-7
8785,-9,-244,-46,56,14,-6
8790,-13,-239,-50,54,13,-5
8795,-9,-244,-54,52,12,-7
8800,-14,-241,-52,52,12,-6
8805,-9,-244,-53,50,12,-6
8810,-7,-243,-41,50,11,-6
8815,-10,-244,-49,49,11,-4
8820,-11,-242,-53,48,9,-4
8825,-13,-241,-56,49,10,-4
8830,-13,-244,-51,48,11,-3
8835,-13,-244,-53,49,12,-5
8840,-10,-243,-52,51,11,-5
8845,-13,-245,-55,54,11,-4
8850,-11,-243,-53,55,11,-3
8855,-11,-244,-51,57,11,-3
8860,-12,-244,-53,60,11,-4
8865,-12,-242,-53,59,11,-6
8870,-11,-243,-51,60,11,-7
8875,-10,-241,-51,59,12,-8
8880,-12,-246,-53,57,13,-6
8885,-12,-242,-52,57,14,-5
8890,-11,-243,-53,54,15,-5
8895,-10,-243,-51,52,16,-5
8900,-11,-242,-50,50,18,-6
8905,-11,-241,-53,47,19,-9
8910,-10,-245,-52,45,18,-9
8915,-12,-240,-50,44,18,-9
8920,-11,-249,-53,46,18,-9
8925,-7,-244,-52,49,18,-9
8930,-9,-244,-52,52,16,-8
8935,-12,-239,-53,53,16,-6
8940,-13,-244,-54,54,15,-7
8945,-11,-241,-50,53,15,-8
8950,-10,-242,-51,53,14,-11
8955,-12,-239,-54,51,12,-10
8960,-10,-242,-51,48,13,-10
8965,-12,-244,-51,49,14,-11
8970,-9,-240,-53,51,13,-9
8975,-10,-243,-52,53,12,-9
8980,-6,-245,-53,55,14,-10
8985,-11,-243,-49,57,14,-9
8990,-11,-244,-50,59,13,-8
8995,-11,-245,-47,60,13,-7
9000,-9,-243,-52,61,12,-7
9005,-8,-244,-48,60,12,-8
9010,-9,-243,-50,59,12,-9
9015,-10,-244,-48,58,11,-9
9020,-11,-243,-52,57,10,-6
9025,-9,-242,-49,54,9,-9
9030,-14,-242,-57,52,6,-7
9035,-9,-243,-49,50,7,-7
9040,-11,-243,-50,48,8,-8
9045,-11,-240,-51,47,6,-9
9050,-9,-244,-51,46,6,-10
9055,-12,-245,-53,46,6,-8
9060,-8,-246,-51,47,5,-9
9065,-12,-243,-51,48,6,-8
9070,-11,-245,-53,51,7,-9
9075,-11,-243,-52,53,7,-6
9080,-13,-243,-50,55,8,-7
9085,-10,-240,-52,56,8,-7
9090,-8,-244,-51,57,9,-7
9095,-10,-242,-51,56,11,-7
9100,-11,-244,-51,54,12,-7
9105,-13,-241,-55,51,12,-9
9110,-12,-241,-53,51,13,-9
9115,-10,-246,-54,48,15,-10
9120,-11,-245,-52,49,16,-11
9125,-10,-240,-55,48,16,-11
9130,-13,-244,-55,50,16,-11
9135,-10,-242,-55,50,17,-12
9140,-13,-244,-53,51,16,-12
9145,-11,-241,-55,53,16,-12
9150,-11,-243,-52,54,16,-12
9155,-10,-242,-54,55,16,-12
9160,-12,-244,-53,56,16,-10
9165,-13,-246,-53,57,14,-10
9170,-13,-242,-52,55,14,-8
9175,-11,-242,-53,54,13,-8
9180,-14,-242,-50,52,12,-6
9185,-12,-241,-49,50,11,-7
9190,-11,-245,-53,49,11,-6
9195,-11,-243,-51,49,11,-6
9200,-12,-244,-51,49,12,-7
9205,-11,-240,-52,48,12,-8
9210,-9,-245,-55,47,12,-7
9215,-13,-242,-50,47,12,-8
9220,-9,-243,-54,47,12,-9
9225,-7,-245,-52,47,12,-9
9230,-12,-242,-52,48,13,-9
9235,-12,-239,-54,47,12,-9
9240,-15,-242,-51,48,11,-9
9245,-5,-232,-48,49,11,-10
9250,-11,-243,-55,50,10,-10
9255,-10,-242,-52,52,10,-10
9260,-10,-242,-55,53,10,-9
9265,-10,-243,-51,55,11,-9
9270,-12,-243,-54,55,12,-8
9275,-13,-243,-49,55,13,-7
9280,-12,-242,-53,56,13,-7
9285,-11,-241,-50,55,15,-6
9290,-11,-243,-53,53,13,-7
9295,-11,-242,-50,51,13,-6
9300,-9,-242,-51,50,12,-6
9305,-10,-243,-54,49,13,-7
9310,-12,-242,-49,49,14,-8
9315,-9,-243,-51,47,14,-9
9320,-10,-244,-54,46,14,-8
9325,-9,-245,-53,46,13,-8
9330,-9,-243,-52,45,14,-7
9335,-11,-245,-52,44,15,-8
9340,-11,-242,-53,44,15,-9
9345,-10,-245,-54,45,15,-9
9350,-11,-245,-49,44,15,-9
9355,-9,-243,-55,45,14,-10
9360,-11,-240,-51,44,15,-9
9365,-6,-243,-51,44,13,-11
9370,-12,-243,-53,44,12,-11
9375,-10,-242,-56,45,12,-11
9380,-11,-242,-53,47,11,-11
9385,-11,-242,-54,47,11,-13
9390,-10,-245,-51,49,10,-11
9395,-10,-241,-53,52,10,-11
9400,-11,-242,-51,54,11,-10
9405,-11,-244,-53,56,10,-10
9410,-10,-240,-51,57,11,-11
9415,-10,-244,-52,59,11,-12
9420,-13,-242,-53,58,12,-11
9425,-8,-243,-54,57,10,-11
9430,-5,-246,-52,58,11,-11
9435,-8,-242,-50,56,11,-11
9440,-10,-246,-51,55,12,-11
9445,-13,-248,-54,54,11,-10
9450,1,-258,-47,53,9,-12
9455,-9,-251,-24,51,11,-10
9460,-11,-249,-44,54,9,-9
9465,-1,-241,-48,53,10,-9
9470,-2,-239,-46,53,9,-11
9475,-9,-252,-48,53,9,-11
9480,-5,-236,-47,53,10,-11
9485,-10,-261,-49,54,9,-12
9490,-33,-240,-35,55,9,-12
9495,-4,-259,-47,54,10,-14
9500,-9,-242,-45,56,9,-15
9505,-11,-249,-53,56,9,-16
9510,-9,-246,-59,56,9,-15
9515,-13,-248,-55,56,10,-15
9520,-6,-246,-51,57,9,-15
9525,-10,-242,-50,57,10,-13
9530,-9,-243,-52,57,10,-14
9535,-9,-245,-55,56,11,-15
9540,-13,-242,-48,57,10,-14
9545,-11,-245,-57,58,10,-15
9550,-10,-245,-54,59,10,-15
9555,-9,-243,-54,58,11,-14
9560,-9,-242,-51,57,12,-14
9565,-13,-241,-54,55,13,-14
9570,-11,-242,-54,54,13,-12
9575,-9,-242,-55,52,13,-13
9580,-11,-242,-48,51,13,-11
9585,-10,-243,-53,50,12,-11
9590,-12,-241,-53,50,14,-12
9595,-9,-243,-51,50,12,-13
9600,-12,-242,-52,51,11,-12
9605,-10,-241,-53,52,11,-11
9610,-9,-243,-53,52,12,-11
9615,-10,-247,-54,52,12,-11
9620,-9,-244,-51,51,10,-11
9625,-8,-244,-51,52,11,-13
9630,-13,-244,-49,50,11,-13
9635,-7,-246,-49,50,12,-12
9640,-11,-246,-53,51,13,-14
9645,-10,-241,-55,50,14,-12
9650,-11,-244,-52,50,14,-13
9655,-12,-240,-51,50,15,-13
9660,-10,-242,-55,49,16,-11
9665,-7,-245,-51,49,14,-11
9670,-8,-242,-51,48,13,-11
9675,-9,-243,-50,46,12,-10
9680,-9,-243,-53,45,11,-10
9685,-12,-241,-50,44,9,-11
9690,-11,-240,-52,44,7,-11
9695,-8,-241,-52,44,7,-10
9700,-10,-244,-48,44,7,-10
9705,-12,-244,-52,43,6,-10
9710,-14,-241,-55,45,8,-12
9715,-9,-240,-48,45,9,-13
9720,-9,-244,-54,45,10,-13
9725,-10,-243,-53,47,10,-12
9730,-14,-243,-56,48,11,-10
9735,-10,-243,-55,47,13,-11
9740,-9,-244,-55,47,13,-9
9745,-13,-241,-51,49,13,-9
9750,-8,-243,-54,50,13,-9
9755,-10,-246,-51,50,12,-9
9760,-11,-242,-51,49,12,-8
9765,-10,-242,-52,50,13,-9
9770,-12,-239,-53,50,13,-7
9775,-11,-243,-54,48,13,-5
9780,-10,-241,-53,47,13,-4
9785,-10,-241,-54,46,15,-5
9790,-7,-242,-51,45,16,-6
9795,-10,-244,-52,43,15,-3
9800,-7,-245,-57,41,15,-4
9805,-9,-244,-52,39,14,-5
9810,-11,-241,-51,38,14,-6
9815,-11,-241,-54,37,13,-5
9820,-9,-243,-48,36,11,-6
9825,-11,-244,-56,36,10,-8
9830,-11,-245,-51,35,8,-6
9835,-11,-243,-53,33,7,-7
9840,-9,-243,-54,33,6,-7
9845,-9,-239,-44,35,5,-9
9850,-14,-246,-52,36,5,-9
9855,-11,-242,-51,38,5,-9
9860,-11,-246,-47,39,5,-9
9865,-15,-243,-53,39,5,-8
9870,-13,-242,-52,41,6,-8
9875,-11,-241,-53,42,6,-8
9880,-9,-244,-54,42,8,-7
9885,-9,-243,-52,41,8,-7
9890,-15,-244,-56,40,7,-9
9895,-12,-244,-55,41,7,-10
9900,-11,-244,-51,41,9,-10
9905,-12,-243,-53,42,8,-9
9910,-8,-242,-52,41,9,-10
9915,-10,-243,-53,40,8,-9
9920,-11,-243,-55,39,10,-9
9925,-13,-240,-52,37,10,-10
9930,-13,-243,-53,35,10,-9
9935,-10,-243,-51,36,10,-8
9940,-10,-244,-54,36,10,-8
9945,-10,-243,-52,36,9,-7
9950,-14,-242,-53,36,10,-8
9955,-13,-243,-50,37,9,-9
9960,-13,-245,-55,36,8,-9
9965,-9,-244,-52,36,9,-9
9970,-12,-243,-52,34,8,-9
9975,-11,-243,-54,33,8,-9
9980,-7,-244,-54,32,8,-9
9985,-9,-244,-52,30,8,-10
9990,-8,-244,-54,29,8,-11
9995,-11,-242,-52,26,8,-13
10000,-11,-242,-51,25,7,-12
