timestamp,acc_x,acc_y,acc_z,gyro_x,gyro_y,gyro_z
0,20,-158,157,-30,12,-3
5,24,-159,160,-31,12,-2
10,21,-159,158,-29,11,-1
15,20,-161,157,-29,12,0
20,20,-159,158,-26,13,-1
25,20,-159,161,-24,14,-1
30,21,-159,154,-25,14,-1
35,20,-159,154,-23,13,1
40,22,-157,157,-22,13,0
45,19,-156,157,-21,13,2
50,21,-157,159,-19,14,2
55,23,-160,156,-20,11,2
60,20,-162,159,-18,10,2
65,21,-159,161,-19,10,2
70,21,-160,155,-18,11,-1
75,19,-158,156,-19,11,-1
80,18,-157,160,-20,13,-4
85,19,-156,160,-20,14,-3
90,19,-158,159,-19,15,-5
95,21,-159,160,-19,14,-5
100,24,-158,164,-17,15,-5
105,20,-155,159,-14,14,-5
110,22,-158,160,-13,13,-6
115,22,-158,159,-12,11,-3
120,21,-159,162,-11,13,-4
125,20,-154,160,-10,12,-5
130,20,-156,160,-9,13,-5
135,20,-154,161,-10,13,-4
140,25,-156,157,-8,11,-3
145,21,-158,161,-9,12,-4
150,19,-154,161,-12,12,-2
155,21,-157,156,-12,12,-3
160,24,-161,163,-15,12,-4
165,19,-156,160,-17,11,-4
170,21,-158,159,-19,11,-3
175,20,-156,156,-19,10,-3
180,21,-163,166,-22,9,-2
185,22,-153,158,-21,10,-2
190,21,-156,158,-22,10,-2
195,21,-158,153,-21,10,-2
200,22,-158,160,-20,11,-4
205,23,-159,155,-21,11,-5
210,21,-155,160,-21,12,-3
215,24,-161,159,-21,12,-4
220,21,-157,155,-21,14,-3
225,23,-157,156,-21,15,-3
230,20,-158,160,-20,13,-4
235,21,-158,156,-20,14,-5
240,23,-156,161,-21,14,-4
245,22,-159,157,-22,14,-4
250,20,-156,162,-21,15,-4
255,23,-157,160,-20,13,-4
260,23,-157,159,-23,12,-4
265,22,-153,158,-22,13,-6
270,21,-154,161,-22,11,-4
275,24,-156,162,-22,12,-5
280,22,-159,158,-21,13,-7
285,21,-155,158,-22,15,-6
290,20,-158,163,-24,15,-6
295,21,-156,163,-25,15,-6
300,21,-155,158,-28,18,-6
305,23,-156,158,-30,16,-7
310,22,-158,164,-33,14,-6
315,21,-155,160,-35,13,-5
320,24,-156,162,-36,13,-5
325,23,-155,161,-35,13,-4
330,22,-162,160,-34,12,-5
335,22,-157,163,-32,12,-3
340,22,-157,158,-31,13,-3
345,24,-157,161,-31,12,-4
350,24,-158,160,-29,13,-2
355,22,-155,158,-29,14,-3
360,24,-157,160,-31,14,-4
365,23,-160,161,-32,14,-4
370,21,-156,157,-33,14,-6
375,22,-156,159,-32,12,-4
380,22,-159,161,-31,12,-6
385,22,-155,162,-30,12,-5
390,23,-157,162,-31,12,-5
395,25,-157,160,-31,12,-6
400,23,-157,162,-29,13,-6
405,19,-154,163,-30,13,-6
410,22,-157,161,-29,13,-7
415,23,-158,158,-29,14,-7
420,23,-157,161,-28,14,-8
425,19,-153,163,-28,14,-8
430,24,-157,158,-29,15,-7
435,21,-154,158,-30,15,-6
440,21,-155,159,-32,16,-6
445,21,-154,160,-33,16,-7
450,20,-157,159,-34,16,-6
455,23,-159,159,-36,16,-5
460,22,-157,162,-37,15,-5
465,22,-155,158,-37,13,-4
470,22,-156,159,-39,13,-6
475,22,-159,159,-38,15,-5
480,22,-156,163,-37,13,-5
485,20,-158,161,-36,13,-6
490,19,-156,163,-37,13,-5
495,19,-157,164,-36,16,-6
500,22,-156,160,-35,15,-7
505,23,-154,160,-35,14,-8
510,24,-157,164,-35,15,-6
515,22,-156,160,-33,15,-8
520,20,-156,158,-34,16,-8
525,22,-157,155,-34,15,-8
530,21,-156,161,-31,14,-7
535,22,-157,162,-33,14,-7
540,21,-156,160,-33,14,-6
545,24,-156,161,-33,13,-5
550,21,-154,163,-34,12,-7
555,22,-155,161,-33,13,-5
560,21,-155,159,-35,13,-5
565,23,-154,160,-35,13,-4
570,23,-158,159,-35,14,-6
575,22,-154,163,-34,14,-7
580,22,-156,163,-34,13,-8
585,24,-157,160,-32,13,-7
590,24,-158,159,-32,14,-8
595,24,-156,164,-32,14,-8
600,23,-158,162,-31,14,-7
605,22,-158,165,-31,14,-6
610,24,-156,160,-31,15,-5
615,23,-157,161,-30,15,-6
620,22,-161,159,-30,15,-6
625,22,-156,160,-29,15,-5
630,24,-154,160,-29,17,-5
635,26,-159,165,-30,14,-4
640,23,-156,154,-30,14,-4
645,25,-156,160,-29,13,-3
650,21,-155,158,-31,12,-2
655,23,-155,160,-31,10,-2
660,22,-155,159,-31,10,-1
665,24,-156,162,-31,9,-1
670,24,-157,162,-31,8,-2
675,21,-154,158,-29,10,-4
680,24,-155,163,-31,12,-3
685,23,-158,160,-29,11,-2
690,22,-153,164,-29,13,-2
695,22,-155,160,-30,14,-4
700,21,-153,160,-30,15,-4
705,23,-155,156,-34,15,-4
710,24,-154,160,-38,15,-6
715,21,-151,162,-41,17,-5
720,21,-157,162,-43,18,-5
725,20,-154,162,-44,17,-7
730,21,-154,156,-44,18,-7
735,22,-155,163,-45,16,-6
740,20,-156,161,-44,18,-6
745,23,-157,166,-42,16,-7
750,23,-156,164,-41,17,-6
755,19,-156,159,-41,17,-6
760,22,-155,162,-40,17,-5
765,19,-155,160,-38,19,-6
770,23,-157,166,-38,19,-5
775,23,-158,164,-36,19,-6
780,20,-165,159,-35,16,-2
785,24,-157,163,-34,15,-2
790,23,-157,161,-33,13,-1
795,24,-155,155,-32,11,-1
800,22,-157,157,-32,11,-2
805,23,-158,160,-32,11,-2
810,18,-154,166,-31,12,-3
815,23,-156,161,-31,12,-3
820,23,-156,159,-33,12,-4
825,22,-157,160,-32,13,-6
830,22,-155,163,-32,14,-6
835,25,-164,165,-31,14,-5
840,23,-156,164,-29,14,-4
845,25,-157,165,-29,14,-6
850,22,-155,163,-27,13,-4
855,22,-154,162,-26,12,-5
860,23,-151,166,-27,12,-4
865,24,-154,164,-26,12,-3
870,23,-156,164,-26,13,-3
875,24,-154,165,-25,13,-4
880,25,-155,164,-25,14,-5
885,22,-151,163,-24,14,-4
890,22,-154,160,-25,14,-3
895,25,-154,161,-26,14,-4
900,25,-156,159,-28,16,-5
905,22,-157,160,-29,16,-5
910,22,-155,160,-32,17,-6
915,23,-153,161,-33,17,-7
920,24,-156,158,-37,18,-5
925,24,-154,158,-37,18,-6
930,22,-151,162,-38,16,-5
935,22,-155,161,-38,15,-5
940,21,-156,162,-35,16,-6
945,23,-156,160,-35,16,-5
950,21,-155,163,-34,15,-5
955,24,-155,159,-35,16,-4
960,26,-156,164,-34,15,-5
965,20,-156,163,-36,15,-6
970,22,-151,162,-32,15,-4
975,24,-153,164,-31,17,-4
980,24,-157,159,-31,17,-3
985,22,-156,163,-30,15,-4
990,23,-154,162,-30,16,-4
995,24,-154,163,-29,15,-4
1000,23,-154,161,-29,17,-5
1005,23,-153,160,-29,17,-3
1010,23,-155,161,-30,15,-4
1015,22,-154,157,-29,15,-3
1020,22,-154,164,-30,15,-3
1025,24,-155,160,-31,16,-3
1030,23,-155,167,-30,14,-4
1035,24,-154,161,-31,14,-4
1040,23,-153,165,-31,15,-4
1045,20,-153,167,-34,15,-5
1050,24,-154,167,-34,15,-3
1055,23,-154,163,-34,16,-3
1060,24,-156,162,-33,16,-3
1065,20,-156,159,-34,17,-3
1070,22,-152,162,-37,17,-3
1075,22,-154,164,-38,17,-3
1080,25,-152,162,-39,17,-3
1085,20,-155,163,-39,15,-3
1090,21,-153,161,-39,15,-4
1095,23,-153,161,-39,14,-4
1100,23,-153,160,-40,15,-4
1105,21,-150,163,-41,16,-4
1110,23,-154,163,-42,16,-6
1115,24,-156,159,-41,18,-5
1120,23,-153,163,-43,19,-6
1125,20,-152,165,-43,19,-6
1130,22,-153,160,-41,19,-6
1135,23,-158,161,-39,18,-5
1140,24,-154,160,-39,17,-7
1145,23,-155,159,-39,16,-7
1150,22,-154,164,-38,16,-6
1155,22,-153,165,-37,14,-6
1160,21,-153,163,-37,13,-5
1165,24,-156,160,-41,15,-6
1170,21,-154,160,-40,15,-6
1175,22,-157,166,-40,14,-8
1180,23,-153,163,-41,16,-8
1185,22,-153,162,-42,17,-8
1190,23,-153,162,-43,19,-7
1195,23,-156,163,-42,20,-7
1200,20,-154,160,-44,18,-7
1205,21,-154,160,-45,18,-7
1210,24,-156,157,-45,18,-7
1215,22,-152,161,-45,18,-4
1220,23,-153,163,-45,18,-3
1225,23,-156,164,-46,18,-3
1230,22,-154,160,-43,17,-4
1235,19,-153,160,-44,15,-3
1240,22,-153,165,-44,16,-3
1245,25,-155,159,-43,15,-4
1250,22,-153,162,-43,16,-4
1255,24,-152,165,-42,17,-5
1260,21,-154,159,-43,16,-6
1265,20,-154,160,-43,17,-6
1270,22,-156,159,-45,17,-7
1275,21,-155,162,-46,16,-7
1280,21,-154,163,-48,15,-6
1285,21,-155,159,-46,15,-8
1290,23,-155,164,-48,14,-7
1295,22,-154,165,-47,14,-7
1300,18,-153,166,-43,15,-7
1305,21,-158,164,-44,15,-8
1310,22,-155,165,-43,15,-7
1315,21,-154,161,-41,16,-6
1320,22,-153,163,-41,16,-5
1325,24,-156,162,-41,16,-6
1330,21,-151,162,-39,16,-6
1335,22,-154,162,-39,16,-5
1340,21,-153,161,-37,17,-4
1345,21,-151,165,-37,17,-5
1350,23,-153,166,-37,18,-6
1355,24,-152,166,-37,17,-4
1360,24,-154,160,-37,17,-6
1365,25,-153,158,-37,18,-4
1370,23,-152,161,-38,20,-6
1375,27,-154,164,-40,19,-6
1380,30,-154,164,-42,19,-5
1385,22,-151,161,-44,18,-4
1390,20,-153,162,-43,17,-4
1395,26,-154,165,-44,16,-4
1400,26,-158,159,-45,13,-3
1405,21,-152,159,-43,12,-3
1410,23,-157,162,-44,13,-3
1415,22,-154,161,-46,12,-4
1420,21,-155,161,-44,12,-3
1425,22,-157,161,-46,11,-4
1430,23,-154,163,-44,11,-3
1435,22,-143,155,-43,10,-3
1440,21,-153,161,-44,11,-4
1445,25,-155,161,-44,11,-5
1450,23,-155,162,-42,13,-5
1455,21,-153,165,-42,15,-5
1460,21,-157,168,-43,18,-6
1465,27,-156,162,-44,17,-6
1470,23,-152,163,-43,20,-7
1475,23,-155,162,-44,21,-7
1480,20,-154,162,-46,20,-8
1485,24,-153,165,-47,19,-6
1490,23,-153,164,-45,18,-5
1495,23,-157,165,-45,17,-5
1500,21,-153,162,-45,17,-6
1505,23,-154,163,-44,16,-7
1510,21,-154,160,-42,16,-5
1515,21,-155,162,-44,16,-4
1520,23,-156,164,-45,18,-3
1525,23,-152,163,-43,20,-3
1530,24,-154,161,-42,20,-5
1535,24,-154,161,-39,18,-3
1540,24,-154,159,-38,18,-2
1545,25,-152,161,-39,16,-2
1550,20,-152,161,-37,15,-2
1555,23,-153,158,-38,15,-1
1560,21,-155,160,-41,15,-2
1565,23,-156,162,-43,17,-3
1570,23,-156,165,-44,16,-4
1575,26,-156,161,-45,16,-5
1580,22,-153,159,-44,17,-6
1585,23,-154,162,-44,19,-8
1590,21,-154,160,-42,18,-8
1595,24,-154,163,-40,20,-6
1600,24,-156,167,-37,17,-7
1605,22,-155,166,-34,15,-5
1610,24,-153,166,-32,14,-6
1615,21,-153,163,-33,11,-5
1620,21,-153,162,-33,12,-4
1625,22,-156,162,-34,13,-4
1630,21,-153,164,-35,15,-5
1635,21,-152,162,-37,15,-3
1640,23,-155,163,-36,15,-4
1645,23,-154,162,-38,16,-4
1650,23,-153,162,-39,16,-5
1655,23,-156,167,-37,17,-5
1660,23,-152,162,-37,17,-6
1665,22,-154,160,-39,17,-6
1670,24,-155,161,-38,17,-4
1675,23,-156,162,-40,17,-5
1680,22,-155,160,-43,18,-5
1685,21,-153,162,-42,19,-6
1690,23,-152,165,-44,20,-6
1695,22,-152,164,-42,21,-7
1700,23,-153,161,-42,20,-6
1705,22,-153,163,-40,20,-8
1710,22,-154,166,-39,20,-6
1715,23,-154,164,-41,20,-6
1720,18,-150,161,-40,19,-5
1725,21,-151,163,-40,17,-4
1730,25,-154,163,-41,17,-4
1735,21,-153,157,-41,17,-3
1740,24,-153,159,-40,15,-2
1745,22,-154,167,-40,15,-1
1750,23,-154,162,-39,14,-3
1755,22,-152,163,-40,14,-4
1760,23,-156,162,-39,14,-4
1765,22,-152,166,-39,14,-4
1770,22,-154,163,-39,14,-3
1775,22,-155,164,-37,14,-3
1780,23,-153,161,-39,15,-4
1785,25,-154,165,-39,14,-2
1790,24,-153,162,-43,14,-4
1795,22,-153,163,-40,16,-3
1800,24,-153,164,-40,16,-5
1805,21,-152,163,-41,18,-6
1810,23,-155,166,-43,19,-5
1815,22,-152,163,-43,20,-4
1820,21,-154,166,-44,19,-5
1825,23,-151,161,-46,19,-3
1830,23,-156,165,-46,20,-3
1835,23,-154,163,-47,20,-4
1840,22,-152,162,-49,18,-3
1845,24,-152,164,-49,16,-3
1850,25,-154,160,-52,16,-2
1855,22,-153,160,-52,17,-4
1860,20,-154,160,-52,17,-4
1865,23,-153,162,-54,17,-3
1870,24,-155,162,-54,17,-4
1875,27,-154,160,-55,18,-4
1880,25,-154,163,-53,17,-7
1885,25,-149,165,-54,16,-8
1890,22,-155,160,-54,17,-7
1895,21,-153,162,-55,15,-6
1900,22,-154,162,-57,16,-6
1905,23,-150,164,-57,15,-7
1910,24,-152,165,-57,16,-7
1915,20,-151,166,-59,15,-6
1920,21,-155,164,-60,16,-8
1925,24,-157,163,-60,17,-8
1930,23,-154,159,-59,17,-7
1935,23,-155,161,-60,19,-9
1940,19,-154,162,-61,20,-8
1945,25,-154,163,-59,21,-8
1950,23,-155,163,-60,23,-7
1955,26,-154,163,-59,24,-6
1960,23,-155,163,-59,23,-7
1965,20,-154,160,-61,24,-6
1970,21,-153,162,-59,23,-6
1975,21,-153,164,-60,22,-6
1980,20,-159,180,-60,22,-8
1985,24,-155,158,-60,21,-6
1990,23,-153,162,-61,21,-7
1995,23,-156,164,-61,21,-7
2000,25,-153,165,-63,19,-7
2005,21,-154,162,-65,20,-7
2010,25,-154,163,-66,20,-8
2015,24,-153,162,-68,19,-7
2020,23,-156,161,-67,20,-7
2025,23,-154,160,-66,21,-8
2030,21,-152,162,-68,20,-7
2035,26,-155,153,-68,20,-8
2040,23,-155,164,-68,20,-9
2045,23,-156,165,-70,21,-7
2050,24,-152,166,-71,20,-8
2055,24,-157,161,-73,22,-6
2060,24,-153,166,-74,21,-7
2065,22,-154,164,-74,20,-7
2070,23,-155,161,-74,21,-6
2075,21,-152,163,-73,21,-7
2080,23,-157,164,-72,21,-7
2085,21,-154,165,-73,21,-7
2090,23,-156,162,-71,23,-6
2095,23,-157,162,-72,23,-7
2100,21,-156,161,-72,22,-6
2105,22,-156,163,-70,23,-7
2110,23,-155,164,-70,22,-7
2115,22,-154,164,-69,22,-6
2120,23,-154,160,-69,22,-5
2125,21,-155,161,-68,22,-5
2130,23,-154,162,-66,22,-6
2135,21,-154,160,-67,23,-5
2140,22,-156,161,-71,23,-5
2145,22,-156,160,-71,23,-6
2150,20,-154,161,-72,23,-6
2155,25,-157,164,-74,25,-7
2160,20,-156,159,-72,22,-4
2165,23,-155,162,-73,23,-5
2170,22,-153,160,-72,22,-5
2175,21,-154,161,-71,22,-5
2180,19,-156,160,-73,21,-5
2185,23,-154,161,-74,20,-4
2190,23,-157,160,-74,20,-6
2195,21,-153,160,-75,20,-6
2200,23,-158,159,-74,20,-7
2205,23,-155,160,-74,21,-6
2210,23,-155,164,-77,21,-7
2215,26,-159,160,-78,21,-8
2220,21,-158,159,-78,22,-9
2225,21,-156,161,-78,23,-8
2230,22,-157,161,-80,23,-8
2235,24,-155,163,-81,25,-8
2240,22,-157,161,-82,26,-8
2245,21,-156,160,-83,27,-8
2250,23,-160,161,-81,27,-9
2255,22,-157,163,-76,27,-8
2260,25,-157,159,-74,26,-7
2265,22,-158,159,-70,26,-6
2270,24,-158,163,-67,24,-6
2275,23,-156,164,-62,23,-5
2280,23,-156,165,-61,24,-5
2285,20,-155,161,-61,23,-4
2290,23,-157,166,-61,23,-3
2295,23,-160,163,-63,22,-3
2300,22,-157,154,-63,21,-2
2305,23,-159,158,-60,20,0
2310,21,-156,158,-57,22,1
2315,21,-158,158,-52,21,2
2320,22,-157,160,-48,21,0
2325,24,-158,158,-45,21,0
2330,23,-158,161,-45,21,0
2335,23,-156,158,-47,21,0
2340,20,-154,158,-50,21,-2
2345,23,-155,158,-53,23,-2
2350,24,-157,157,-57,24,-2
2355,26,-157,162,-58,25,-3
2360,21,-155,161,-60,26,-5
2365,23,-157,162,-58,27,-6
2370,24,-159,162,-59,27,-7
2375,25,-156,162,-58,27,-6
2380,23,-156,162,-57,28,-7
2385,23,-154,158,-55,27,-8
2390,21,-157,158,-60,25,-7
2395,20,-155,162,-63,25,-8
2400,24,-154,165,-68,24,-7
2405,20,-154,163,-71,23,-7
2410,23,-155,162,-72,23,-7
2415,22,-156,160,-74,21,-10
2420,21,-153,160,-73,21,-8
2425,25,-156,163,-71,19,-10
2430,20,-155,159,-72,19,-10
2435,23,-156,163,-73,20,-10
2440,19,-154,162,-74,21,-11
2445,22,-154,161,-76,22,-12
2450,24,-155,156,-77,23,-11
2455,21,-155,159,-79,24,-12
2460,23,-154,155,-80,26,-13
2465,21,-155,157,-82,31,-14
2470,22,-155,159,-85,31,-15
2475,23,-155,158,-89,36,-16
2480,21,-154,160,-94,39,-18
2485,25,-157,157,-98,40,-20
2490,22,-157,155,-102,40,-22
2495,25,-158,160,-105,40,-22
2500,22,-156,162,-107,40,-24
2505,22,-157,161,-105,39,-24
2510,21,-156,161,-103,36,-24
2515,23,-155,161,-100,33,-23
2520,23,-156,161,-96,29,-22
2525,23,-155,159,-93,26,-22
2530,23,-154,159,-89,24,-21
2535,20,-151,161,-87,24,-22
2540,19,-153,155,-88,22,-22
2545,21,-154,163,-88,22,-23
2550,22,-156,154,-87,22,-23
2555,22,-153,162,-89,23,-26
2560,17,-150,161,-95,25,-28
2565,24,-151,161,-103,28,-31
2570,23,-151,159,-111,31,-35
2575,22,-156,162,-121,34,-38
2580,30,-152,151,-129,35,-41
2585,22,-152,156,-135,36,-44
2590,26,-156,159,-138,36,-46
2595,20,-157,160,-140,37,-47
2600,22,-156,155,-141,36,-49
2605,22,-157,160,-139,36,-48
2610,21,-158,160,-138,37,-49
2615,23,-155,156,-136,36,-49
2620,20,-153,155,-135,38,-49
2625,22,-157,155,-137,40,-49
2630,19,-156,154,-137,41,-50
2635,23,-154,157,-140,42,-48
2640,22,-156,156,-143,43,-49
2645,19,-157,155,-150,45,-48
2650,22,-156,157,-157,47,-48
2655,23,-157,159,-166,48,-48
2660,25,-156,154,-178,49,-50
2665,23,-157,155,-187,50,-52
2670,22,-155,158,-196,50,-53
2675,24,-157,156,-204,48,-56
2680,23,-158,154,-210,46,-57
2685,21,-156,155,-215,45,-57
2690,23,-156,159,-215,44,-57
2695,23,-158,159,-215,44,-57
2700,25,-163,159,-215,44,-59
2705,23,-158,158,-211,43,-59
2710,24,-159,157,-210,43,-59
2715,23,-159,157,-207,45,-59
2720,23,-161,153,-206,46,-58
2725,18,-156,156,-205,47,-57
2730,21,-158,153,-205,48,-55
2735,21,-160,154,-208,47,-52
2740,21,-157,153,-212,46,-50
2745,21,-156,157,-218,43,-45
2750,19,-157,150,-224,41,-42
2755,23,-157,155,-228,39,-39
2760,23,-157,153,-236,37,-36
2765,22,-158,150,-242,34,-34
2770,21,-160,158,-247,31,-34
2775,21,-162,149,-251,31,-32
2780,23,-158,152,-251,29,-32
2785,23,-161,153,-252,28,-30
2790,24,-164,157,-250,28,-30
2795,23,-161,154,-247,28,-32
2800,23,-162,155,-243,27,-31
2805,23,-163,153,-242,26,-31
2810,23,-160,152,-241,26,-30
2815,24,-163,155,-242,25,-28
2820,24,-164,152,-243,24,-29
2825,23,-161,152,-246,24,-28
2830,22,-161,151,-247,24,-30
2835,21,-164,151,-247,24,-31
2840,22,-163,155,-247,23,-34
2845,24,-160,149,-245,24,-34
2850,21,-163,153,-246,24,-34
2855,24,-164,155,-241,26,-35
2860,25,-163,155,-241,26,-35
2865,24,-164,151,-238,29,-35
2870,25,-166,150,-237,29,-36
2875,24,-166,152,-233,30,-36
2880,26,-165,153,-232,31,-34
2885,23,-161,150,-233,33,-35
2890,27,-162,151,-237,33,-33
2895,24,-161,150,-243,34,-32
2900,26,-163,151,-248,32,-31
2905,23,-161,147,-254,34,-31
2910,26,-166,148,-262,34,-32
2915,25,-165,153,-270,35,-34
2920,23,-163,147,-276,36,-36
2925,24,-164,148,-284,39,-39
2930,24,-167,149,-293,39,-40
2935,25,-166,148,-299,40,-42
2940,24,-167,148,-303,39,-42
2945,25,-170,148,-305,40,-45
2950,23,-169,150,-307,39,-46
2955,24,-169,146,-309,38,-48
2960,23,-170,151,-306,37,-49
2965,20,-170,149,-303,35,-52
2970,26,-173,150,-297,32,-52
2975,26,-170,151,-293,30,-51
2980,26,-173,151,-291,28,-50
2985,24,-170,147,-287,27,-50
2990,23,-172,147,-287,26,-48
2995,23,-173,149,-286,26,-44
3000,24,-169,142,-283,27,-40
3005,23,-171,148,-280,32,-45
3010,23,-173,142,-282,37,-46
3015,25,-171,147,-283,41,-47
3020,23,-173,142,-285,44,-47
3025,22,-171,142,-290,47,-47
3030,25,-174,145,-295,48,-47
3035,24,-171,143,-300,48,-45
3040,22,-171,142,-305,48,-43
3045,22,-172,142,-312,47,-41
3050,22,-170,141,-317,46,-41
3055,23,-171,144,-321,43,-38
3060,26,-175,141,-323,41,-34
3065,24,-174,148,-322,44,-37
3070,24,-171,146,-318,46,-36
3075,28,-172,145,-317,47,-36
3080,27,-174,144,-314,48,-37
3085,27,-173,146,-313,50,-39
3090,23,-174,144,-315,51,-38
3095,23,-175,139,-317,54,-42
3100,24,-175,141,-323,53,-44
3105,22,-175,135,-332,54,-49
3110,20,-178,134,-345,54,-47
3115,19,-177,132,-350,51,-49
3120,15,-186,143,-357,48,-49
3125,24,-184,138,-359,44,-44
3130,23,-182,136,-366,43,-53
3135,18,-182,136,-372,40,-56
3140,22,-182,140,-377,36,-52
3145,20,-181,138,-381,33,-50
3150,21,-182,137,-385,32,-47
3155,22,-177,141,-392,30,-43
3160,24,-182,135,-401,29,-40
3165,23,-178,139,-414,28,-41
3170,23,-177,135,-425,28,-44
3175,21,-183,147,-438,26,-43
3180,31,-182,136,-456,25,-37
3185,23,-180,133,-468,27,-42
3190,24,-179,134,-483,27,-44
3195,22,-181,130,-490,28,-39
3200,24,-182,131,-501,28,-42
3205,24,-183,131,-511,26,-43
3210,20,-180,131,-521,25,-40
3215,27,-190,126,-527,17,-21
3220,23,-191,129,-538,14,-19
3225,21,-186,129,-549,13,-25
3230,24,-190,130,-563,9,-24
3235,21,-192,127,-579,5,-17
3240,24,-192,127,-593,4,-12
3245,26,-196,128,-610,3,-8
3250,25,-201,126,-630,3,-3
3255,24,-198,129,-649,6,2
3260,24,-196,126,-666,7,1
3265,24,-199,123,-681,7,0
3270,22,-198,123,-699,6,4
3275,26,-201,122,-724,3,10
3280,21,-200,122,-747,0,14
3285,22,-200,117,-768,-3,17
3290,22,-202,118,-786,-6,15
3295,24,-202,120,-803,-7,12
3300,22,-207,117,-816,-10,8
3305,23,-205,116,-819,-12,3
3310,17,-208,115,-813,-14,-2
3315,23,-209,112,-803,-18,-7
3320,23,-209,109,-787,-18,-13
3325,24,-211,112,-768,-18,-18
3330,23,-211,106,-751,-18,-23
3335,26,-213,111,-739,-19,-27
3340,23,-208,113,-734,-19,-32
3345,25,-208,107,-739,-17,-34
3350,28,-208,104,-753,-17,-36
3355,24,-203,104,-775,-15,-35
3360,27,-209,99,-805,-14,-34
3365,25,-201,100,-843,-10,-34
3370,26,-204,96,-881,-5,-35
3375,28,-207,94,-919,-3,-36
3380,26,-212,94,-951,0,-40
3385,27,-212,97,-978,3,-41
3390,26,-216,94,-1000,5,-46
3395,26,-221,93,-1011,6,-49
3400,23,-223,93,-1012,8,-49
3405,28,-227,94,-1007,10,-48
3410,27,-227,91,-999,11,-49
3415,25,-228,88,-988,14,-49
3420,22,-230,90,-974,19,-46
3425,23,-233,87,-958,25,-43
3430,23,-239,85,-936,28,-39
3435,20,-237,85,-917,32,-31
3440,23,-237,84,-899,32,-24
3445,19,-235,83,-886,32,-14
3450,18,-234,81,-882,33,-5
3455,22,-234,83,-884,33,2
3460,22,-233,78,-891,30,13
3465,29,-233,75,-903,28,20
3470,26,-233,79,-922,26,25
3475,26,-234,73,-943,26,26
3480,28,-236,72,-963,26,25
3485,30,-237,74,-982,29,20
3490,30,-241,72,-995,32,11
3495,29,-245,72,-1003,36,1
3500,30,-249,71,-999,39,-15
3505,30,-256,70,-982,44,-31
3510,30,-262,69,-949,51,-49
3515,32,-262,71,-902,56,-67
3520,30,-262,68,-853,64,-85
3525,29,-260,63,-812,66,-97
3530,29,-261,57,-787,64,-105
3535,27,-257,59,-781,57,-110
3540,24,-256,58,-788,47,-113
3545,20,-255,54,-811,38,-110
3550,19,-255,56,-841,26,-100
3555,19,-253,58,-878,14,-90
3560,18,-250,57,-918,3,-79
3565,20,-252,55,-961,-9,-67
3570,20,-254,60,-1007,-21,-58
3575,20,-256,57,-1048,-31,-47
3580,22,-257,59,-1088,-41,-39
3585,24,-258,58,-1123,-50,-32
3590,25,-260,57,-1154,-57,-27
3595,25,-263,56,-1176,-65,-21
3600,27,-269,55,-1193,-68,-19
3605,27,-270,54,-1208,-70,-17
3610,32,-272,54,-1219,-72,-18
3615,31,-271,49,-1228,-73,-20
3620,29,-269,48,-1232,-75,-21
3625,32,-268,43,-1233,-75,-23
3630,30,-269,47,-1235,-75,-26
3635,30,-269,39,-1236,-73,-28
3640,32,-269,36,-1237,-70,-29
3645,34,-272,38,-1236,-66,-29
3650,30,-267,38,-1233,-67,-28
3655,31,-269,35,-1232,-64,-27
3660,31,-267,37,-1230,-64,-21
3665,27,-262,38,-1230,-59,-16
3670,30,-266,35,-1228,-58,-9
3675,29,-266,34,-1226,-55,-2
3680,27,-264,33,-1220,-52,2
3685,31,-268,34,-1211,-47,8
3690,25,-267,37,-1199,-41,12
3695,25,-268,33,-1184,-38,20
3700,26,-267,28,-1170,-36,28
3705,23,-266,25,-1158,-39,36
3710,25,-269,16,-1144,-45,43
3715,25,-267,8,-1134,-54,47
3720,27,-267,11,-1125,-64,54
3725,29,-269,7,-1117,-71,58
3730,29,-269,3,-1110,-76,59
3735,30,-269,2,-1103,-76,58
3740,31,-268,1,-1092,-76,55
3745,31,-268,3,-1080,-75,51
3750,31,-267,0,-1067,-76,43
3755,33,-265,2,-1054,-77,32
3760,33,-265,1,-1039,-76,22
3765,36,-266,1,-1023,-73,12
3770,40,-261,-9,-1006,-70,2
3775,31,-269,-1,-984,-64,-5
3780,37,-273,0,-952,-59,-11
3785,37,-274,-3,-916,-52,-15
3790,37,-273,-5,-878,-49,-16
3795,36,-277,-10,-835,-49,-16
3800,40,-282,-15,-791,-51,-17
3805,36,-280,-22,-750,-54,-12
3810,35,-280,-21,-716,-60,-8
3815,34,-275,-26,-686,-68,-2
3820,34,-276,-31,-660,-75,6
3825,38,-271,-35,-642,-81,7
3830,40,-267,-40,-624,-87,14
3835,36,-263,-40,-610,-91,15
3840,40,-263,-38,-600,-90,12
3845,42,-262,-44,-592,-90,5
3850,43,-257,-44,-585,-87,-2
3855,42,-256,-44,-579,-87,-13
3860,49,-256,-45,-575,-86,-22
3865,46,-255,-41,-566,-87,-33
3870,41,-256,-50,-559,-88,-47
3875,44,-254,-50,-551,-86,-57
3880,42,-256,-52,-539,-86,-68
3885,38,-255,-53,-528,-85,-75
3890,37,-256,-49,-517,-85,-78
3895,33,-259,-57,-506,-86,-79
3900,31,-263,-57,-495,-88,-73
3905,29,-264,-60,-482,-93,-68
3910,27,-270,-55,-474,-102,-56
3915,20,-265,-58,-460,-112,-41
3920,20,-268,-62,-448,-124,-24
3925,21,-269,-59,-441,-137,-4
3930,19,-269,-60,-431,-148,15
3935,17,-270,-60,-417,-156,29
3940,17,-268,-61,-413,-159,42
3945,19,-272,-62,-402,-159,53
3950,15,-270,-62,-391,-156,58
3955,19,-267,-59,-383,-150,64
3960,19,-269,-56,-369,-146,61
3965,23,-269,-64,-352,-142,56
3970,21,-268,-60,-338,-137,47
3975,26,-269,-63,-322,-134,35
3980,29,-270,-63,-308,-134,24
3985,33,-268,-60,-297,-138,12
3990,36,-270,-60,-289,-140,-1
3995,34,-271,-60,-281,-146,-12
4000,39,-269,-58,-275,-151,-20
4005,35,-276,-59,-270,-160,-25
4010,38,-278,-61,-266,-169,-26
4015,35,-280,-60,-261,-179,-23
4020,34,-281,-59,-255,-188,-19
4025,32,-284,-60,-242,-194,-12
4030,31,-288,-57,-222,-200,-2
4035,29,-292,-58,-198,-201,6
4040,26,-297,-54,-168,-199,14
4045,23,-297,-58,-132,-194,21
4050,22,-295,-54,-93,-189,27
4055,20,-295,-55,-57,-180,31
4060,19,-295,-52,-24,-167,30
4065,17,-295,-53,5,-156,29
4070,15,-295,-48,31,-142,26
4075,17,-293,-43,53,-129,24
4080,17,-296,-44,73,-112,20
4085,18,-293,-42,99,-96,21
4090,18,-291,-41,130,-86,22
4095,26,-295,-41,167,-82,29
4100,27,-294,-44,205,-82,37
4105,26,-292,-48,242,-89,48
4110,28,-294,-51,272,-102,59
4115,32,-294,-50,293,-115,71
4120,32,-296,-50,309,-127,81
4125,35,-293,-52,313,-139,89
4130,33,-298,-52,314,-149,96
4135,32,-297,-57,315,-156,99
4140,29,-303,-55,320,-160,101
4145,30,-306,-60,326,-160,100
4150,28,-309,-62,331,-156,92
4155,23,-314,-66,330,-148,85
4160,24,-317,-67,320,-140,74
4165,22,-320,-68,305,-129,64
4170,18,-324,-65,289,-119,49
4175,16,-332,-60,278,-108,34
4180,15,-331,-57,280,-100,18
4185,15,-336,-55,297,-93,8
4190,12,-335,-54,328,-89,0
4195,14,-335,-51,373,-90,-4
4200,12,-331,-55,422,-93,-5
4205,13,-328,-53,470,-95,-4
4210,13,-324,-59,514,-101,1
4215,13,-318,-53,561,-109,10
4220,13,-312,-55,606,-121,23
4225,15,-304,-58,647,-131,36
4230,8,-291,-55,685,-140,52
4235,9,-286,-59,716,-147,68
4240,13,-278,-59,738,-145,82
4245,9,-265,-60,752,-143,97
4250,13,-258,-62,760,-141,112
4255,5,-251,-63,762,-142,130
4260,7,-242,-60,761,-145,146
4265,7,-235,-65,756,-151,162
4270,6,-226,-62,747,-159,177
4275,6,-214,-63,736,-162,187
4280,4,-203,-64,728,-161,196
4285,8,-196,-65,717,-155,201
4290,7,-187,-62,709,-144,205
4295,10,-178,-60,702,-132,206
4300,14,-165,-76,698,-119,205
4305,9,-161,-61,695,-105,202
4310,10,-152,-60,691,-95,195
4315,12,-148,-60,689,-89,186
4320,13,-142,-64,684,-85,178
4325,13,-133,-68,676,-82,172
4330,13,-130,-69,660,-80,164
4335,16,-128,-78,637,-79,152
4340,16,-125,-80,607,-81,142
4345,15,-121,-82,570,-83,131
4350,17,-119,-83,520,-89,118
4355,13,-123,-80,462,-96,107
4360,23,-122,-81,402,-101,95
4365,24,-123,-78,342,-104,83
4370,26,-125,-76,289,-99,69
4375,26,-127,-76,245,-88,54
4380,27,-127,-70,208,-74,37
4385,25,-131,-66,180,-53,20
4390,27,-138,-65,163,-31,3
4395,32,-145,-60,159,-8,-14
4400,31,-153,-61,158,15,-26
4405,29,-159,-61,161,39,-38
4410,30,-165,-63,160,62,-45
4415,33,-174,-64,154,87,-53
4420,33,-180,-64,140,117,-58
4425,36,-190,-65,125,148,-62
4430,39,-195,-64,112,177,-66
4435,36,-197,-62,104,205,-73
4440,39,-208,-63,98,233,-80
4445,41,-213,-60,98,263,-85
4450,40,-218,-58,104,293,-91
4455,39,-223,-60,115,323,-93
4460,39,-228,-62,128,350,-94
4465,42,-235,-62,143,372,-89
4470,41,-236,-58,155,381,-81
4475,37,-243,-62,163,385,-70
4480,33,-245,-55,166,378,-57
4485,26,-245,-54,165,360,-42
4490,21,-247,-47,162,334,-25
4495,18,-249,-44,163,301,-3
4500,13,-250,-43,170,261,16
4505,8,-253,-38,188,220,34
4510,2,-252,-35,219,180,48
4515,0,-247,-33,258,146,54
4520,1,-246,-33,310,120,53
4525,0,-242,-38,363,104,43
4530,-1,-237,-33,416,99,23
4535,0,-231,-30,469,106,-1
4540,0,-223,-29,519,120,-28
4545,1,-219,-27,567,139,-56
4550,0,-214,-30,612,163,-79
4555,2,-206,-28,651,189,-95
4560,7,-201,-25,686,215,-102
4565,7,-199,-26,715,236,-99
4570,8,-197,-23,736,251,-86
4575,5,-197,-27,754,258,-63
4580,7,-195,-23,770,259,-30
4585,6,-194,-23,787,254,10
4590,8,-196,-15,811,249,52
4595,9,-202,-9,842,245,97
4600,11,-207,-11,884,243,140
4605,9,-212,-4,940,246,179
4610,8,-213,2,1005,248,211
4615,10,-225,12,1081,252,236
4620,17,-232,15,1166,257,253
4625,11,-223,17,1256,257,264
4630,10,-226,31,1357,252,265
4635,8,-222,44,1473,244,256
4640,7,-218,49,1602,229,241
4645,9,-209,54,1733,205,219
4650,11,-204,63,1864,171,191
4655,12,-194,66,1990,133,157
4660,20,-191,74,2111,96,119
4665,23,-183,80,2229,66,80
4670,33,-178,90,2348,48,39
4675,45,-177,110,2475,48,-7
4680,52,-178,146,2626,69,-63
4685,69,-184,217,2824,118,-123
4690,112,-200,368,3116,198,-191
4695,159,-269,525,3591,334,-303
4700,155,-406,797,4355,531,-502
4705,110,-667,1306,5873,684,-720
4710,146,-981,1329,8559,639,-915
4715,90,-1080,633,10964,634,-1278
4720,-54,-850,-124,11746,931,-1623
4725,-78,-638,-720,10986,1004,-1809
4730,-246,-598,-1002,8804,722,-1808
4735,-286,-435,-794,4965,247,-1250
4740,19,-316,-206,589,-270,-357
4745,98,-339,245,-2645,-476,28
4750,82,-458,502,-4264,-382,111
4755,48,-578,618,-4451,-159,129
4760,33,-618,633,-3646,-31,170
4765,23,-566,580,-2338,-49,280
4770,3,-457,509,-915,-167,451
4775,-8,-323,421,348,-354,636
4780,3,-161,321,1300,-564,774
4785,30,-3,222,1842,-695,830
4790,52,118,128,1941,-715,795
4795,56,200,66,1606,-640,700
4800,51,229,40,929,-519,588
4805,30,218,50,83,-398,510
4810,15,177,80,-695,-304,479
4815,7,132,116,-1262,-239,499
4820,12,90,137,-1579,-198,540
4825,15,55,139,-1695,-170,571
4830,32,27,140,-1693,-151,585
4835,35,0,131,-1617,-140,569
4840,34,-28,134,-1495,-137,547
4845,34,-80,146,-1324,-146,539
4850,51,-89,147,-1065,-157,499
4855,50,-116,152,-709,-158,434
4860,45,-130,157,-284,-143,354
4865,50,-135,168,145,-115,276
4870,46,-132,177,546,-82,171
4875,32,-132,182,884,-48,54
4880,27,-130,193,1138,-22,-37
4885,31,-123,192,1310,-7,-97
4890,28,-119,196,1402,3,-131
4895,22,-123,204,1432,17,-144
4900,26,-113,193,1421,38,-139
4905,27,-113,198,1396,62,-119
4910,24,-115,196,1371,93,-95
4915,24,-115,192,1353,136,-73
4920,23,-124,189,1345,187,-55
4925,18,-134,183,1335,244,-43
4930,14,-151,178,1337,300,-39
4935,6,-175,178,1356,344,-45
4940,-5,-191,174,1383,372,-61
4945,-13,-203,167,1402,371,-74
4950,-25,-209,160,1391,339,-85
4955,-27,-214,154,1334,281,-88
4960,-24,-220,155,1225,209,-85
4965,-24,-219,150,1080,135,-77
4970,-22,-221,153,925,73,-65
4975,-18,-223,164,788,20,-48
4980,-15,-219,176,678,-26,-33
4985,-14,-214,179,602,-67,-17
4990,-11,-205,185,554,-98,0
4995,-5,-196,184,529,-118,20
5000,-3,-188,175,517,-130,43
5005,0,-178,163,501,-130,68
5010,7,-166,153,474,-121,97
5015,13,-150,147,441,-107,121
5020,17,-140,139,394,-93,139
5025,23,-131,132,337,-77,152
5030,25,-125,127,271,-58,161
5035,25,-117,119,201,-44,163
5040,26,-114,123,126,-30,164
5045,35,-113,125,42,-26,188
5050,39,-115,129,-14,-20,173
5055,30,-112,129,-69,-9,143
5060,32,-118,136,-107,-4,120
5065,28,-117,141,-132,0,94
5070,30,-116,151,-138,3,72
5075,31,-121,157,-122,4,49
5080,35,-123,160,-91,10,17
5085,31,-125,166,-42,18,-13
5090,31,-125,167,17,27,-42
5095,33,-129,174,86,38,-66
5100,32,-130,176,154,55,-89
5105,30,-129,174,221,75,-107
5110,26,-131,177,280,99,-120
5115,21,-127,176,327,123,-128
5120,21,-123,168,365,146,-132
5125,16,-118,170,389,168,-133
5130,17,-117,167,401,185,-131
5135,12,-112,169,403,194,-128
5140,9,-111,167,398,202,-125
5145,3,-108,165,385,205,-120
5150,0,-109,167,365,199,-116
5155,0,-108,166,341,191,-110
5160,0,-110,164,312,178,-105
5165,0,-113,175,279,158,-99
5170,-1,-116,176,241,138,-96
5175,-7,-118,181,202,116,-92
5180,-7,-125,188,168,96,-88
5185,-8,-129,191,138,75,-81
5190,-6,-132,194,116,55,-71
5195,-6,-131,200,105,37,-60
5200,-4,-133,205,97,22,-49
5205,0,-134,204,97,7,-38
5210,-2,-137,200,99,-3,-25
5215,0,-133,200,96,-8,-15
5220,1,-133,196,92,-12,-5
5225,5,-135,192,80,-13,4
5230,7,-133,188,66,-8,11
5235,9,-134,185,51,-2,17
5240,11,-136,178,31,5,22
5245,14,-131,176,18,12,26
5250,13,-131,172,3,16,27
5255,20,-130,162,-8,17,26
5260,17,-129,162,-18,13,24
5265,18,-130,161,-24,8,23
5270,15,-126,158,-34,1,23
5275,14,-126,156,-43,-7,23
5280,12,-122,154,-57,-14,25
5285,11,-121,153,-77,-26,26
5290,12,-122,154,-100,-41,29
5295,13,-123,155,-126,-57,30
5300,13,-125,159,-144,-73,31
5305,16,-126,163,-158,-86,31
5310,15,-124,170,-161,-91,29
5315,16,-127,176,-153,-86,28
5320,21,-128,179,-130,-81,24
5325,19,-126,183,-100,-74,20
5330,18,-129,180,-67,-67,14
5335,19,-127,178,-44,-63,10
5340,18,-127,178,-27,-60,4
5345,14,-130,178,-20,-56,-4
5350,12,-128,178,-18,-51,-12
5355,14,-129,179,-20,-43,-22
5360,14,-128,175,-22,-34,-31
5365,12,-124,170,-28,-21,-41
5370,12,-126,175,-33,-8,-49
5375,9,-126,177,-38,3,-55
5380,6,-128,184,-47,14,-60
5385,8,-127,185,-55,19,-60
5390,7,-128,185,-63,19,-62
5395,8,-125,187,-67,18,-62
5400,8,-127,186,-72,16,-60
5405,4,-126,187,-75,14,-61
5410,9,-126,185,-77,8,-56
5415,9,-126,187,-78,2,-51
5420,13,-128,183,-83,-6,-46
5425,14,-125,176,-91,-13,-37
5430,12,-127,181,-106,-21,-31
5435,17,-128,177,-123,-30,-23
5440,26,-131,161,-144,-38,-18
5445,24,-133,175,-158,-46,-12
5450,19,-134,176,-172,-54,-9
5455,24,-135,169,-179,-61,-8
5460,22,-135,176,-182,-63,-10
5465,22,-132,172,-180,-63,-11
5470,18,-134,168,-174,-61,-16
5475,20,-133,169,-168,-59,-22
5480,22,-132,171,-160,-56,-28
5485,18,-134,170,-159,-51,-35
5490,18,-129,174,-153,-48,-41
5495,17,-125,162,-155,-46,-49
5500,18,-129,177,-155,-44,-54
5505,18,-129,176,-158,-42,-57
5510,17,-127,174,-159,-39,-60
5515,17,-131,177,-158,-36,-62
5520,20,-129,177,-160,-34,-64
5525,16,-129,173,-160,-31,-64
5530,17,-130,176,-160,-29,-66
5535,17,-130,175,-162,-24,-68
5540,19,-131,171,-160,-26,-63
5545,18,-132,175,-160,-30,-57
5550,18,-131,171,-157,-35,-54
5555,15,-133,170,-158,-40,-49
5560,17,-133,170,-156,-44,-46
5565,16,-131,170,-155,-48,-42
5570,16,-137,171,-155,-53,-40
5575,12,-132,164,-155,-57,-40
5580,14,-136,171,-156,-60,-36
5585,13,-137,170,-157,-62,-36
5590,14,-139,172,-160,-64,-33
5595,14,-139,168,-163,-65,-34
5600,16,-139,173,-169,-66,-34
5605,15,-140,171,-175,-64,-36
5610,16,-139,172,-180,-64,-38
5615,18,-142,174,-183,-60,-39
5620,15,-142,175,-187,-56,-41
5625,19,-140,168,-189,-52,-41
5630,16,-144,170,-188,-48,-45
5635,18,-143,173,-183,-45,-47
5640,23,-143,174,-179,-41,-48
5645,19,-142,173,-173,-39,-47
5650,22,-143,171,-168,-40,-46
5655,18,-142,170,-165,-43,-44
5660,21,-141,172,-162,-46,-40
5665,20,-141,174,-162,-51,-37
5670,24,-144,171,-165,-55,-34
5675,23,-143,169,-168,-59,-30
5680,24,-143,168,-174,-61,-28
5685,24,-143,171,-183,-61,-24
5690,24,-142,169,-186,-62,-22
5695,24,-144,167,-191,-63,-21
5700,25,-146,168,-197,-63,-20
5705,26,-144,165,-202,-64,-18
5710,22,-143,163,-209,-66,-15
5715,24,-146,168,-216,-67,-14
5720,25,-144,169,-221,-68,-14
5725,30,-151,162,-224,-66,-14
5730,22,-148,166,-227,-60,-19
5735,26,-151,166,-226,-58,-16
5740,27,-152,166,-226,-59,-17
5745,24,-149,174,-220,-58,-19
5750,25,-150,169,-214,-54,-23
5755,27,-150,171,-206,-51,-27
5760,25,-150,165,-196,-45,-31
5765,27,-149,167,-184,-40,-33
5770,25,-150,169,-174,-33,-36
5775,26,-148,170,-164,-26,-37
5780,26,-149,164,-157,-24,-37
5785,24,-144,169,-151,-21,-39
5790,25,-143,169,-151,-20,-38
5795,24,-147,168,-155,-19,-37
5800,24,-147,162,-162,-20,-35
5805,24,-148,162,-173,-21,-30
5810,26,-150,165,-183,-21,-28
5815,24,-151,164,-194,-21,-24
5820,26,-153,167,-205,-19,-20
5825,27,-156,162,-212,-18,-17
5830,24,-155,164,-217,-17,-13
5835,27,-154,163,-216,-16,-8
5840,27,-157,167,-210,-14,-4
5845,31,-158,158,-201,-14,-1
5850,33,-158,157,-191,-15,2
5855,26,-158,158,-178,-17,5
5860,30,-159,160,-165,-16,4
5865,29,-159,155,-152,-15,3
5870,28,-160,161,-143,-15,0
5875,29,-159,159,-134,-13,-2
5880,30,-155,165,-123,-8,-4
5885,28,-156,163,-116,-3,-6
5890,31,-157,160,-106,2,-9
5895,29,-156,159,-98,6,-13
5900,29,-151,167,-94,8,-16
5905,25,-152,164,-92,9,-19
5910,26,-154,161,-90,11,-20
5915,27,-155,162,-88,10,-23
5920,27,-153,164,-90,10,-26
5925,27,-152,164,-96,11,-27
5930,27,-154,165,-98,12,-30
5935,26,-154,164,-104,14,-31
5940,26,-151,161,-109,18,-34
5945,24,-150,164,-117,20,-35
5950,25,-154,164,-127,23,-36
5955,18,-152,165,-134,27,-35
5960,20,-152,162,-140,29,-34
5965,24,-155,164,-145,30,-32
5970,20,-154,161,-148,31,-31
5975,19,-155,164,-150,31,-26
5980,18,-157,159,-149,30,-21
5985,20,-159,165,-145,28,-18
5990,26,-159,163,-141,27,-15
5995,20,-158,160,-132,25,-11
6000,22,-159,160,-125,26,-7
6005,19,-158,157,-117,27,-4
6010,22,-162,157,-108,25,-3
6015,24,-162,158,-97,23,-1
6020,22,-159,156,-90,22,1
6025,23,-157,161,-84,20,2
6030,20,-159,163,-81,19,2
6035,23,-156,157,-79,15,2
6040,33,-158,153,-77,14,-1
6045,25,-158,159,-76,14,-1
6050,26,-158,162,-76,14,-3
6055,21,-154,162,-77,15,-7
6060,25,-155,164,-79,15,-7
6065,24,-156,159,-81,15,-9
6070,29,-159,163,-79,15,-11
6075,25,-157,163,-78,14,-14
6080,27,-158,161,-76,14,-16
6085,24,-158,164,-74,12,-16
6090,25,-156,164,-72,12,-16
6095,26,-151,155,-67,13,-17
6100,24,-157,165,-64,14,-15
6105,27,-157,163,-61,14,-15
6110,26,-155,166,-59,14,-14
6115,28,-154,164,-61,14,-14
6120,26,-155,165,-63,15,-12
6125,28,-156,164,-66,16,-10
6130,27,-155,165,-71,18,-9
6135,25,-155,165,-75,18,-8
6140,23,-151,162,-78,21,-7
6145,24,-154,164,-81,23,-6
6150,26,-159,161,-80,23,-6
6155,24,-156,162,-79,23,-4
6160,28,-156,162,-77,26,-4
6165,23,-154,162,-75,27,-3
6170,24,-158,164,-73,27,-2
6175,28,-156,161,-71,27,-2
6180,23,-158,164,-71,29,-3
6185,27,-160,162,-70,30,-3
6190,26,-156,156,-67,31,-5
6195,28,-157,162,-67,33,-4
6200,28,-157,160,-67,32,-5
6205,26,-155,159,-68,34,-6
6210,26,-157,160,-68,36,-9
6215,24,-154,162,-67,39,-10
6220,29,-156,162,-63,38,-12
6225,23,-158,160,-61,39,-13
6230,25,-157,161,-60,38,-14
6235,24,-156,162,-61,38,-13
6240,25,-157,165,-62,36,-12
6245,24,-159,164,-65,35,-11
6250,25,-157,162,-68,36,-9
6255,26,-158,163,-73,35,-8
6260,23,-151,163,-76,38,-7
6265,24,-158,157,-79,39,-6
6270,24,-159,160,-81,42,-5
6275,24,-156,161,-85,44,-5
6280,23,-158,161,-85,47,-5
6285,28,-159,161,-84,51,-4
6290,24,-156,158,-82,52,-4
6295,25,-157,161,-81,54,-3
6300,25,-159,162,-78,55,-2
6305,25,-155,160,-76,55,-3
6310,24,-155,161,-74,55,-2
6315,26,-154,164,-73,53,-3
6320,26,-154,161,-72,54,-2
6325,27,-154,162,-72,52,-2
6330,26,-152,162,-74,51,-5
6335,26,-157,162,-77,50,-6
6340,24,-155,162,-80,48,-6
6345,23,-154,162,-84,47,-8
6350,24,-154,163,-88,44,-10
6355,24,-154,164,-93,41,-10
6360,18,-157,163,-99,37,-9
6365,20,-156,161,-105,35,-10
6370,20,-158,162,-108,34,-10
6375,22,-160,163,-110,35,-13
6380,22,-162,166,-108,36,-12
6385,20,-161,161,-106,38,-13
6390,17,-161,165,-99,41,-13
6395,20,-160,161,-92,44,-12
6400,23,-159,162,-85,47,-10
6405,21,-157,160,-77,46,-8
6410,22,-157,160,-69,45,-6
6415,22,-156,163,-62,43,-2
6420,21,-156,158,-58,39,-1
6425,24,-159,157,-55,35,2
6430,24,-156,161,-52,30,5
6435,24,-154,156,-55,26,8
6440,25,-156,157,-60,21,9
6445,21,-157,155,-63,17,10
6450,29,-159,156,-65,13,12
6455,25,-155,158,-70,10,13
6460,27,-161,156,-74,6,12
6465,28,-158,158,-76,6,12
6470,29,-156,161,-76,2,13
6475,23,-158,156,-76,-2,12
6480,26,-160,151,-77,-5,13
6485,24,-157,160,-76,-8,14
6490,22,-156,153,-78,-10,16
6495,24,-158,154,-80,-13,17
6500,21,-163,155,-84,-12,20
6505,22,-161,161,-86,-11,22
6510,20,-161,157,-87,-9,22
6515,21,-163,161,-84,-7,23
6520,21,-161,160,-81,-3,23
6525,19,-160,163,-77,0,23
6530,21,-163,166,-73,2,24
6535,22,-159,162,-68,4,23
6540,23,-160,160,-62,4,23
6545,24,-163,159,-56,5,23
6550,21,-164,155,-49,7,21
6555,23,-162,155,-42,10,18
6560,23,-161,155,-35,10,15
6565,24,-162,157,-32,14,12
6570,28,-160,159,-32,18,8
6575,25,-160,158,-33,21,4
6580,20,-155,159,-31,23,1
6585,25,-160,157,-34,28,-5
6590,28,-160,158,-34,34,-8
6595,25,-158,160,-31,39,-12
6600,27,-157,158,-29,42,-16
6605,26,-155,160,-25,45,-18
6610,24,-157,161,-20,47,-21
6615,23,-155,165,-14,50,-21
6620,24,-155,162,-8,51,-23
6625,26,-156,163,-4,49,-21
6630,24,-155,160,0,49,-20
6635,23,-156,161,-2,49,-20
6640,18,-147,148,-4,49,-19
6645,24,-156,156,-8,50,-17
6650,23,-154,160,-13,51,-16
6655,24,-155,157,-22,52,-15
6660,23,-156,158,-28,51,-14
6665,24,-152,161,-34,52,-11
6670,20,-157,161,-40,50,-11
6675,21,-157,160,-47,50,-8
6680,24,-160,156,-50,47,-7
6685,24,-156,160,-55,47,-5
6690,21,-159,158,-55,46,-4
6695,24,-159,152,-56,46,-4
6700,21,-160,163,-56,44,-3
6705,21,-159,159,-52,43,-4
6710,22,-154,161,-50,44,-4
6715,22,-159,158,-49,43,-4
6720,22,-157,161,-47,42,-3
6725,20,-157,155,-48,41,-4
6730,21,-158,159,-47,42,-5
6735,23,-157,159,-46,42,-6
6740,24,-157,162,-46,44,-7
6745,22,-155,159,-47,44,-9
6750,24,-155,161,-47,47,-12
6755,20,-156,162,-45,47,-12
6760,22,-154,159,-44,49,-14
6765,24,-155,162,-44,49,-14
6770,25,-154,161,-41,51,-14
6775,22,-154,162,-40,50,-14
6780,22,-154,159,-41,49,-13
6785,21,-159,160,-42,47,-9
6790,21,-152,158,-44,46,-7
6795,20,-155,162,-46,46,-6
6800,19,-155,162,-51,44,-3
6805,18,-152,160,-54,42,-2
6810,17,-155,158,-58,41,0
6815,20,-158,164,-64,40,3
6820,17,-155,160,-68,39,4
6825,17,-156,162,-72,37,6
6830,15,-156,160,-74,38,9
6835,18,-158,161,-78,37,10
6840,17,-156,158,-78,35,12
6845,20,-160,161,-77,33,11
6850,22,-161,159,-75,31,13
6855,20,-157,160,-72,28,11
6860,19,-160,163,-70,26,12
6865,22,-159,161,-66,23,11
6870,20,-157,160,-62,22,10
6875,21,-159,158,-60,21,9
6880,21,-158,159,-56,18,6
6885,20,-158,159,-54,14,6
6890,21,-159,160,-55,11,5
6895,23,-157,157,-54,10,5
6900,21,-158,159,-54,6,5
6905,20,-158,161,-57,5,3
6910,19,-156,159,-58,3,3
6915,21,-158,155,-60,3,2
6920,19,-155,161,-60,4,2
6925,18,-157,160,-62,4,1
6930,22,-158,160,-62,5,1
6935,18,-155,160,-65,5,1
6940,22,-159,159,-69,5,2
6945,20,-157,161,-72,6,1
6950,21,-157,160,-73,6,0
6955,21,-159,161,-74,7,1
6960,24,-161,160,-74,9,-2
6965,25,-159,159,-74,9,-2
6970,20,-159,159,-74,8,-1
6975,23,-158,160,-76,9,-2
6980,17,-157,163,-75,9,0
6985,25,-157,159,-77,9,-1
6990,19,-154,161,-78,10,0
6995,20,-157,156,-78,13,-2
7000,24,-157,160,-78,16,-2
7005,22,-161,159,-78,18,-3
7010,21,-156,157,-78,20,-4
7015,24,-159,159,-77,23,-6
7020,22,-161,157,-75,25,-6
7025,25,-158,157,-71,25,-6
7030,23,-155,158,-70,22,-3
7035,22,-156,156,-67,21,-3
7040,24,-160,158,-65,23,-3
7045,17,-157,157,-62,22,-2
7050,23,-158,159,-59,22,-2
7055,24,-159,157,-59,24,-2
7060,22,-160,159,-57,22,-2
7065,24,-160,161,-57,22,-2
7070,21,-160,157,-57,21,-3
7075,21,-157,163,-55,22,-5
7080,21,-159,160,-55,22,-6
7085,19,-159,159,-53,21,-6
7090,22,-159,163,-52,20,-6
7095,21,-159,159,-52,19,-7
7100,22,-158,162,-53,20,-8
7105,22,-159,160,-54,20,-8
7110,20,-158,163,-55,19,-10
7115,19,-155,163,-58,18,-9
7120,19,-154,158,-61,20,-11
7125,21,-157,161,-67,21,-12
7130,23,-161,162,-70,24,-14
7135,22,-158,161,-72,28,-18
7140,25,-161,162,-76,31,-19
7145,21,-158,161,-76,35,-21
7150,21,-157,159,-77,36,-22
7155,22,-157,157,-75,38,-24
7160,20,-158,156,-73,39,-26
7165,24,-159,158,-72,40,-28
7170,23,-160,154,-72,40,-26
7175,21,-159,156,-71,39,-26
7180,23,-159,157,-74,36,-26
7185,21,-158,160,-73,35,-25
7190,20,-157,158,-73,34,-23
7195,20,-161,157,-74,33,-22
7200,21,-159,156,-72,32,-21
7205,21,-163,160,-71,31,-20
7210,22,-163,157,-69,30,-19
7215,19,-162,155,-70,30,-16
7220,19,-163,157,-67,29,-13
7225,17,-164,155,-64,28,-12
7230,19,-164,159,-62,27,-10
7235,20,-163,158,-62,26,-8
7240,26,-165,163,-60,24,-5
7245,17,-162,159,-54,24,-4
7250,20,-161,156,-51,24,-2
7255,21,-164,157,-45,21,-1
7260,19,-163,157,-43,18,0
7265,19,-159,155,-38,15,0
7270,22,-162,157,-36,14,1
7275,21,-161,156,-34,12,1
7280,22,-161,156,-36,13,-1
7285,20,-162,159,-35,15,-2
7290,20,-161,154,-33,18,-3
7295,18,-160,156,-31,20,-4
7300,24,-161,159,-29,22,-5
7305,22,-159,162,-26,22,-6
7310,25,-160,161,-21,21,-6
7315,25,-163,160,-19,19,-4
7320,21,-156,159,-17,16,-5
7325,22,-159,159,-14,15,-3
7330,21,-156,158,-15,13,-1
7335,22,-160,159,-17,12,1
7340,21,-157,158,-18,11,2
7345,20,-156,159,-22,11,2
7350,19,-157,155,-26,10,2
7355,23,-157,159,-33,7,4
7360,20,-156,155,-39,7,4
7365,23,-162,157,-46,7,6
7370,19,-159,158,-50,7,5
7375,20,-157,159,-54,8,5
7380,18,-157,158,-55,8,6
7385,21,-162,159,-55,9,7
7390,19,-160,158,-50,10,8
7395,19,-161,158,-47,11,7
7400,20,-163,159,-43,13,8
7405,18,-161,155,-38,13,8
7410,19,-163,156,-32,13,7
7415,21,-162,160,-27,13,7
7420,21,-163,154,-23,12,8
7425,21,-163,158,-21,10,9
7430,22,-160,156,-17,8,9
7435,21,-163,158,-15,6,8
7440,22,-164,159,-14,3,10
7445,20,-162,159,-9,1,10
7450,22,-160,158,-8,-2,13
7455,19,-158,156,-7,-3,13
7460,20,-160,159,-4,-3,15
7465,22,-162,159,-1,-6,16
7470,22,-161,160,2,-7,17
7475,22,-160,157,1,-8,20
7480,22,-158,157,1,-10,22
7485,24,-157,154,1,-10,23
7490,24,-160,156,-2,-10,23
7495,22,-159,158,-4,-8,22
7500,22,-158,157,-6,-9,23
7505,23,-157,156,-8,-7,22
7510,23,-158,158,-8,-6,22
7515,22,-162,156,-7,-3,20
7520,21,-157,163,-6,-2,19
7525,24,-158,165,-6,2,17
7530,20,-159,163,-3,4,16
7535,21,-158,160,-3,6,14
7540,25,-159,163,-3,7,13
7545,25,-160,158,-5,8,15
7550,23,-156,160,-6,8,15
7555,24,-159,161,-8,9,16
7560,22,-157,161,-9,9,18
7565,23,-159,161,-6,11,18
7570,23,-160,159,-5,10,18
7575,22,-159,158,-2,13,17
7580,21,-158,159,-3,14,18
7585,20,-159,161,-3,15,16
7590,18,-154,158,-6,18,16
7595,18,-154,158,-7,18,15
7600,22,-159,156,-12,19,13
7605,20,-157,157,-16,20,11
7610,19,-154,157,-20,21,11
7615,22,-159,158,-22,21,10
7620,20,-156,164,-26,19,9
7625,18,-157,157,-28,18,8
7630,22,-156,159,-30,16,6
7635,20,-156,162,-28,14,4
7640,22,-158,157,-26,15,3
7645,20,-157,161,-22,14,4
7650,19,-158,162,-17,14,3
7655,21,-158,160,-13,15,3
7660,19,-158,162,-7,15,4
7665,17,-158,163,-2,15,5
7670,24,-156,160,4,15,5
7675,23,-159,158,7,12,5
7680,20,-158,158,8,11,6
7685,25,-158,160,11,12,5
7690,17,-156,156,13,12,6
7695,21,-158,162,15,13,7
7700,24,-157,161,16,12,6
7705,22,-159,163,17,12,4
7710,16,-156,158,17,12,2
7715,21,-157,163,16,11,1
7720,22,-157,160,16,14,0
7725,21,-155,160,16,14,-1
7730,20,-156,161,16,14,-2
7735,22,-159,159,14,14,-3
7740,23,-159,162,12,15,-6
7745,20,-154,163,11,16,-6
7750,20,-157,164,9,16,-7
7755,21,-153,160,6,19,-8
7760,18,-153,161,4,21,-10
7765,21,-155,162,1,22,-11
7770,21,-157,163,-2,23,-11
7775,18,-155,165,-5,25,-12
7780,19,-155,161,-8,26,-13
7785,15,-147,160,-11,26,-14
7790,17,-153,160,-11,26,-14
7795,20,-154,162,-13,25,-13
7800,19,-154,158,-14,25,-12
7805,21,-157,159,-16,24,-8
7810,18,-155,154,-18,24,-6
7815,21,-155,159,-21,20,-3
7820,23,-155,161,-23,18,-1
7825,22,-152,158,-24,16,1
7830,23,-156,158,-22,14,2
7835,25,-154,161,-23,14,3
7840,18,-151,158,-20,14,2
7845,23,-153,157,-17,16,2
7850,24,-155,162,-14,17,0
7855,23,-152,162,-10,17,-2
7860,21,-155,159,-7,16,-4
7865,22,-157,164,-4,16,-5
7870,24,-156,163,-2,17,-6
7875,21,-157,161,2,18,-5
7880,20,-152,162,4,20,-6
7885,21,-152,162,8,22,-6
7890,22,-156,166,6,23,-4
7895,18,-156,165,4,25,-3
7900,18,-152,164,2,27,-2
7905,23,-158,167,-2,26,0
7910,19,-154,164,-7,26,1
7915,15,-152,170,-12,27,2
7920,18,-157,165,-21,27,4
7925,16,-153,165,-29,26,5
7930,18,-155,168,-34,27,6
7935,19,-153,165,-37,29,4
7940,18,-153,163,-37,28,4
7945,21,-157,161,-35,27,5
7950,19,-153,164,-31,26,4
7955,21,-157,160,-29,24,3
7960,19,-154,160,-28,23,3
7965,21,-156,154,-26,21,0
7970,18,-154,160,-27,20,-1
7975,17,-156,158,-29,19,-4
7980,19,-154,157,-31,18,-7
7985,22,-153,160,-33,15,-9
7990,24,-154,161,-35,13,-9
7995,18,-154,161,-38,12,-8
8000,20,-154,158,-41,11,-8
8005,22,-155,161,-38,9,-4
8010,19,-155,166,-37,7,-1
8015,19,-154,165,-33,5,1
8020,18,-153,164,-27,1,4
8025,20,-153,163,-21,-1,9
8030,21,-157,162,-11,-2,11
8035,22,-154,164,-6,-6,15
8040,21,-155,161,-2,-7,17
8045,21,-154,164,1,-8,20
8050,22,-156,161,4,-6,22
8055,25,-154,160,1,-7,21
8060,23,-155,160,-3,-4,18
8065,21,-153,165,-9,-2,17
8070,20,-154,162,-12,-2,17
8075,24,-156,162,-16,-1,15
8080,22,-152,163,-19,0,14
8085,22,-154,164,-22,1,13
8090,23,-154,163,-22,4,12
8095,20,-152,161,-24,7,9
8100,20,-155,161,-22,9,8
8105,23,-154,163,-20,12,6
8110,22,-153,164,-18,14,5
8115,21,-155,162,-16,17,2
8120,22,-152,165,-14,18,1
8125,22,-156,160,-13,20,0
8130,20,-152,159,-13,23,2
8135,20,-152,163,-15,24,1
8140,18,-150,159,-16,25,2
8145,20,-152,159,-16,26,3
8150,22,-151,159,-17,27,5
8155,21,-152,161,-18,27,5
8160,19,-152,163,-19,26,4
8165,18,-149,165,-23,28,4
8170,21,-152,159,-23,27,4
8175,20,-153,166,-23,27,3
8180,19,-153,164,-24,26,4
8185,19,-153,163,-24,25,5
8190,19,-154,161,-23,23,4
8195,20,-156,167,-24,22,3
8200,22,-154,160,-21,20,4
8205,22,-155,164,-18,18,5
8210,22,-154,162,-17,16,5
8215,20,-152,163,-13,13,4
8220,21,-153,166,-11,13,5
8225,23,-153,162,-9,11,5
8230,18,-153,164,-8,10,4
8235,15,-151,166,-7,7,3
8240,19,-150,166,-6,4,1
8245,18,-151,170,-7,3,1
8250,17,-151,167,-6,4,-1
8255,20,-154,165,-6,2,-1
8260,16,-150,166,-5,1,0
8265,18,-150,166,-7,0,-1
8270,22,-149,164,-11,3,-4
8275,19,-151,167,-14,5,-4
8280,17,-150,166,-17,7,-6
8285,20,-150,166,-20,12,-8
8290,16,-148,163,-22,13,-11
8295,21,-151,167,-25,16,-13
8300,20,-149,167,-25,19,-14
8305,20,-152,164,-27,21,-14
8310,20,-149,165,-31,24,-17
8315,21,-149,161,-35,27,-18
8320,24,-152,167,-41,30,-20
8325,22,-152,164,-43,32,-20
8330,21,-150,163,-47,33,-21
8335,23,-154,167,-49,33,-21
8340,22,-149,164,-49,32,-21
8345,19,-148,164,-49,32,-22
8350,20,-150,164,-49,32,-22
8355,26,-152,163,-47,28,-21
8360,22,-150,166,-46,26,-20
8365,20,-150,165,-43,24,-18
8370,22,-151,161,-42,20,-15
8375,20,-150,160,-42,18,-11
8380,19,-151,166,-42,15,-11
8385,24,-161,179,-44,13,-9
8390,21,-153,163,-48,12,-5
8395,22,-154,161,-48,10,-3
8400,19,-150,161,-50,9,-2
8405,21,-151,163,-54,9,0
8410,20,-153,164,-55,9,1
8415,21,-149,162,-53,10,1
8420,22,-155,163,-55,12,3
8425,22,-153,164,-52,12,3
8430,21,-154,163,-52,12,4
8435,24,-142,168,-49,14,4
8440,20,-153,163,-46,14,3
8445,24,-154,164,-43,14,2
8450,20,-151,166,-40,15,0
8455,22,-152,161,-38,13,-2
8460,24,-151,168,-34,13,-4
8465,22,-151,164,-32,12,-4
8470,21,-151,161,-31,10,-4
8475,19,-150,164,-32,9,-4
8480,22,-150,167,-32,9,-4
8485,22,-150,168,-35,10,-3
8490,21,-147,166,-34,8,-3
8495,19,-150,165,-36,11,-2
8500,25,-152,169,-37,15,0
8505,19,-151,166,-39,16,2
8510,19,-148,165,-39,20,2
8515,20,-152,164,-41,23,3
8520,19,-151,164,-43,25,4
8525,20,-149,168,-47,25,5
8530,23,-152,167,-49,26,5
8535,21,-152,166,-51,26,5
8540,18,-149,164,-54,26,5
8545,19,-153,163,-55,24,6
8550,18,-151,160,-58,22,4
8555,19,-155,164,-57,19,4
8560,20,-154,161,-56,18,1
8565,21,-151,161,-57,16,0
8570,21,-154,163,-56,17,-2
8575,22,-150,164,-55,16,-3
8580,20,-153,162,-53,17,-6
8585,22,-155,167,-50,17,-6
8590,21,-155,161,-50,18,-6
8595,20,-153,166,-48,18,-8
8600,19,-155,167,-47,17,-9
8605,20,-152,161,-45,19,-7
8610,21,-152,165,-42,18,-6
8615,20,-151,166,-39,20,-4
8620,19,-154,163,-37,19,-5
8625,21,-151,167,-37,20,-4
8630,19,-151,168,-37,21,-1
8635,21,-152,166,-38,20,-1
8640,19,-149,164,-41,21,0
8645,18,-150,168,-42,21,2
8650,18,-150,162,-44,21,3
8655,19,-150,161,-44,20,3
8660,18,-151,160,-46,20,4
8665,18,-153,158,-48,20,5
8670,20,-151,163,-47,18,6
8675,19,-151,165,-47,17,6
8680,22,-154,163,-47,17,5
8685,21,-152,160,-47,21,4
8690,18,-151,163,-46,21,1
8695,23,-153,166,-46,21,-2
8700,22,-152,161,-46,22,-6
8705,19,-152,167,-45,22,-7
8710,21,-150,164,-46,23,-8
8715,21,-152,166,-45,21,-11
8720,21,-152,164,-46,17,-13
8725,20,-150,167,-46,14,-13
8730,21,-148,165,-46,13,-14
8735,21,-151,165,-48,10,-14
8740,23,-149,166,-45,6,-12
8745,17,-153,164,-47,3,-10
8750,20,-152,165,-45,3,-10
8755,21,-151,165,-44,2,-9
8760,21,-154,166,-43,1,-7
8765,21,-152,162,-42,3,-6
8770,21,-153,165,-42,3,-5
8775,18,-153,167,-43,3,-3
8780,19,-153,167,-42,6,-2
8785,18,-156,163,-42,6,-1
8790,18,-153,165,-45,8,0
8795,22,-154,163,-43,9,-1
8800,20,-154,162,-41,10,-2
8805,21,-150,165,-40,12,-3
8810,21,-155,164,-40,13,-4
8815,20,-152,161,-37,14,-6
8820,23,-154,166,-37,15,-7
8825,17,-151,163,-34,16,-8
8830,21,-153,166,-34,17,-10
8835,23,-149,161,-33,19,-11
8840,23,-151,164,-31,18,-12
8845,22,-149,163,-30,19,-14
8850,20,-152,166,-30,18,-15
8855,22,-152,164,-30,17,-14
8860,24,-153,163,-30,17,-13
8865,22,-150,167,-34,17,-12
8870,22,-150,163,-35,15,-10
8875,24,-151,166,-36,14,-7
8880,23,-152,162,-37,13,-7
8885,22,-152,164,-37,14,-6
8890,23,-154,167,-40,14,-5
8895,21,-153,161,-40,14,-5
8900,18,-151,164,-40,14,-5
8905,23,-150,165,-41,17,-4
8910,23,-155,160,-41,20,-4
8915,20,-150,166,-41,21,-6
8920,20,-152,168,-38,24,-8
8925,21,-152,163,-36,25,-11
8930,21,-156,171,-35,26,-11
8935,21,-151,165,-36,29,-13
8940,18,-152,166,-32,31,-12
8945,23,-153,163,-34,30,-13
8950,21,-153,164,-34,29,-11
8955,22,-150,165,-35,27,-11
8960,20,-151,165,-36,25,-9
8965,21,-151,159,-38,22,-8
8970,20,-151,160,-43,21,-7
8975,21,-151,161,-46,19,-6
8980,11,-154,166,-51,19,-7
8985,21,-152,164,-56,20,-6
8990,22,-154,166,-59,20,-5
8995,19,-151,165,-58,19,-3
9000,24,-153,161,-59,17,-2
9005,21,-154,163,-56,17,-1
9010,19,-152,165,-51,14,0
9015,20,-153,163,-45,13,2
9020,21,-152,163,-42,11,2
9025,19,-149,164,-40,11,1
9030,21,-150,166,-38,11,0
9035,20,-155,162,-37,10,1
9040,21,-149,165,-39,8,1
9045,20,-150,168,-42,9,0
9050,24,-151,163,-45,10,0
9055,19,-152,166,-43,11,0
9060,22,-151,165,-46,12,-2
9065,20,-150,165,-46,13,-4
9070,18,-151,165,-46,14,-6
9075,19,-147,164,-43,14,-7
9080,22,-149,166,-42,15,-7
9085,20,-149,170,-40,16,-8
9090,17,-149,167,-39,18,-10
9095,20,-148,166,-41,21,-13
9100,17,-148,167,-44,24,-13
9105,18,-149,164,-46,27,-14
9110,19,-150,165,-48,28,-14
9115,19,-150,165,-51,27,-17
9120,18,-150,165,-54,28,-18
9125,19,-149,163,-58,28,-18
9130,19,-149,164,-62,28,-18
9135,18,-150,167,-63,29,-18
9140,20,-147,165,-65,28,-20
9145,21,-153,165,-67,26,-19
9150,17,-150,163,-67,25,-20
9155,22,-152,159,-69,25,-19
9160,23,-153,164,-67,23,-17
9165,23,-154,164,-66,20,-19
9170,22,-151,160,-67,19,-17
9175,23,-154,164,-69,18,-16
9180,20,-151,164,-68,16,-15
9185,24,-153,163,-69,14,-13
9190,23,-153,165,-68,15,-12
9195,20,-149,164,-68,15,-11
9200,24,-156,165,-66,16,-11
9205,21,-154,166,-65,17,-9
9210,21,-150,163,-64,17,-6
9215,23,-153,161,-62,19,-7
9220,23,-156,166,-61,19,-4
9225,22,-151,165,-60,19,-3
9230,23,-153,163,-59,18,-1
9235,23,-154,164,-59,18,0
9240,23,-154,162,-58,18,0
9245,23,-152,167,-58,18,1
9250,23,-151,163,-58,18,0
9255,19,-153,167,-58,18,0
9260,19,-151,159,-59,20,-1
9265,19,-150,168,-62,21,-2
9270,22,-153,164,-63,22,-2
9275,18,-150,168,-63,23,-2
9280,19,-149,168,-65,25,-4
9285,19,-150,166,-66,28,-6
9290,20,-151,167,-66,29,-8
9295,21,-151,165,-66,32,-9
9300,21,-150,168,-69,35,-11
9305,22,-152,162,-71,37,-12
9310,21,-150,166,-71,38,-13
9315,21,-151,159,-73,37,-15
9320,19,-154,161,-72,37,-14
9325,20,-153,164,-73,36,-14
9330,21,-156,162,-73,34,-15
9335,22,-154,168,-73,34,-14
9340,19,-149,166,-75,32,-13
9345,20,-154,162,-75,31,-13
9350,18,-153,168,-78,29,-13
9355,22,-151,165,-78,29,-11
9360,20,-150,160,-78,28,-10
9365,20,-153,164,-78,27,-8
9370,21,-154,167,-77,26,-7
9375,19,-152,161,-76,27,-7
9380,19,-153,164,-76,24,-4
9385,18,-152,164,-74,24,-5
9390,19,-152,162,-74,25,-6
9395,19,-155,163,-76,25,-6
9400,19,-152,163,-75,25,-7
9405,20,-153,166,-76,28,-9
9410,17,-154,164,-77,29,-10
9415,19,-152,164,-77,30,-12
9420,17,-154,164,-78,30,-11
9425,19,-154,161,-78,30,-11
9430,19,-152,161,-76,30,-12
9435,18,-153,165,-77,29,-12
9440,22,-153,162,-76,27,-12
9445,18,-152,160,-74,25,-11
9450,18,-155,166,-74,24,-11
9455,20,-155,163,-76,23,-10
9460,20,-157,163,-76,21,-10
9465,23,-153,157,-74,23,-8
9470,22,-155,164,-74,23,-6
9475,22,-154,159,-73,24,-6
9480,21,-152,163,-70,25,-6
9485,21,-157,159,-70,25,-5
9490,19,-153,164,-70,26,-4
9495,20,-152,161,-69,27,-4
9500,24,-154,161,-68,26,-3
9505,21,-152,161,-68,24,-2
9510,19,-151,159,-69,24,-2
9515,23,-156,160,-69,24,0
9520,18,-151,161,-67,23,1
9525,19,-152,160,-69,22,2
9530,21,-155,161,-69,22,1
9535,19,-153,155,-68,22,-1
9540,20,-153,166,-70,22,-2
9545,18,-154,163,-70,24,-1
9550,22,-158,160,-68,26,-3
9555,23,-155,159,-68,26,-5
9560,25,-157,165,-67,28,-6
9565,21,-156,164,-69,30,-8
9570,22,-155,162,-68,31,-8
9575,20,-153,163,-67,32,-10
9580,22,-150,147,-69,33,-11
9585,19,-154,165,-67,33,-11
9590,19,-151,166,-68,33,-9
9595,21,-155,163,-68,33,-11
9600,20,-152,163,-70,33,-9
9605,19,-152,163,-69,32,-8
9610,21,-154,162,-69,31,-9
9615,21,-153,158,-69,32,-9
9620,18,-154,163,-69,34,-8
9625,19,-155,159,-70,33,-9
9630,19,-155,163,-71,35,-10
9635,16,-156,160,-73,36,-8
9640,22,-156,163,-73,36,-8
9645,20,-155,161,-72,37,-7
9650,21,-158,158,-72,36,-8
9655,21,-154,162,-69,34,-8
9660,19,-154,164,-66,31,-6
9665,19,-155,160,-65,28,-6
9670,20,-156,160,-61,25,-6
9675,21,-154,161,-59,22,-4
9680,18,-155,164,-56,19,-3
9685,15,-157,165,-55,16,-3
9690,19,-155,164,-55,15,-2
9695,15,-157,158,-55,13,-2
9700,15,-157,160,-57,15,-2
9705,19,-154,161,-56,15,-1
9710,18,-156,160,-56,16,-2
9715,19,-158,166,-53,17,-3
9720,16,-156,161,-50,18,-1
9725,18,-159,163,-46,17,-2
9730,20,-155,163,-43,16,-2
9735,21,-158,160,-41,17,0
9740,19,-158,161,-39,18,-1
9745,18,-157,163,-39,18,-1
9750,19,-158,166,-37,17,-2
9755,22,-156,161,-35,18,-2
9760,19,-156,163,-35,18,-1
9765,23,-156,161,-34,17,-1
9770,20,-153,161,-33,17,-2
9775,20,-153,161,-32,18,-2
9780,25,-157,164,-32,18,-1
9785,19,-155,162,-32,19,-2
9790,20,-154,162,-32,19,-3
9795,22,-155,160,-30,19,-1
9800,18,-151,162,-32,20,-2
9805,20,-158,165,-33,19,-4
9810,19,-156,159,-34,21,-3
9815,19,-155,163,-35,20,-4
9820,18,-153,159,-34,18,-4
9825,19,-157,159,-32,18,-2
9830,19,-155,159,-34,19,-4
9835,17,-157,162,-34,17,-5
9840,18,-154,160,-33,18,-4
9845,20,-157,159,-34,18,-5
9850,17,-153,156,-34,17,-3
9855,23,-156,163,-35,17,-2
9860,21,-155,162,-35,16,-3
9865,16,-155,162,-36,16,-3
9870,17,-156,164,-34,15,-3
9875,20,-150,162,-31,16,-3
9880,17,-157,162,-28,15,-4
9885,21,-158,161,-23,15,-4
9890,21,-157,161,-20,14,-5
9895,19,-154,162,-17,13,-3
9900,22,-154,161,-14,14,-4
9905,21,-155,163,-11,13,-4
9910,20,-156,164,-10,12,-4
9915,19,-153,164,-10,11,-3
9920,18,-151,165,-7,9,-3
9925,21,-157,164,-10,9,-3
9930,19,-153,165,-11,7,-3
9935,19,-152,165,-12,7,-4
9940,19,-154,165,-15,7,-4
9945,20,-152,165,-17,8,-6
9950,19,-153,163,-19,10,-6
9955,20,-152,162,-22,12,-7
9960,17,-151,167,-21,15,-7
9965,18,-152,165,-24,18,-8
9970,18,-152,167,-23,21,-7
9975,18,-150,166,-24,21,-9
9980,17,-150,161,-24,21,-8
9985,17,-149,160,-26,23,-8
9990,14,-149,160,-29,22,-7
9995,19,-149,159,-30,20,-7
10000,20,-150,163,-34,20,-7
10005,21,-149,163,-37,21,-6
10010,20,-151,163,-41,21,-4
10015,19,-151,163,-47,18,-5
10020,18,-152,163,-49,18,-4
10025,19,-154,160,-52,19,-2
10030,18,-154,164,-55,19,-1
10035,20,-153,164,-56,17,-1
10040,21,-156,165,-55,16,0
10045,19,-153,168,-56,16,0
10050,21,-156,166,-56,15,4
10055,19,-153,166,-55,14,4
10060,21,-156,165,-53,14,5
10065,22,-156,163,-52,13,6
10070,20,-151,161,-51,13,7
10075,22,-157,166,-51,13,8
10080,24,-155,161,-50,11,7
10085,22,-157,165,-53,12,8
10090,18,-151,164,-57,12,8
10095,21,-154,167,-62,10,5
10100,21,-153,164,-67,10,4
10105,20,-153,162,-70,12,4
10110,21,-154,164,-72,13,2
10115,18,-152,161,-73,14,0
10120,19,-154,162,-74,16,-1
10125,19,-152,163,-73,18,-1
10130,18,-153,162,-69,20,-1
10135,21,-155,163,-66,20,0
10140,17,-155,162,-63,20,-1
10145,21,-153,160,-62,21,0
10150,20,-153,161,-61,20,0
10155,20,-153,160,-61,21,0
10160,18,-154,162,-62,21,0
10165,19,-155,158,-65,21,-1
10170,18,-156,161,-67,21,-1
10175,20,-155,160,-68,18,0
10180,30,-158,173,-68,19,-1
10185,19,-156,158,-66,18,-2
10190,20,-157,160,-64,17,-2
10195,17,-159,163,-58,18,-2
10200,18,-157,162,-53,17,-3
10205,18,-158,162,-51,15,-3
10210,21,-158,160,-47,14,-5
10215,19,-158,161,-45,14,-5
10220,18,-159,161,-45,13,-4
10225,16,-157,158,-45,12,-4
10230,17,-158,161,-44,12,-4
10235,18,-149,151,-42,9,-4
10240,18,-153,159,-41,9,-6
10245,19,-157,161,-41,7,-4
10250,20,-158,162,-41,7,-5
10255,22,-157,161,-38,7,-5
10260,20,-156,161,-34,8,-6
10265,20,-160,162,-31,10,-7
10270,17,-156,164,-29,12,-9
10275,21,-159,162,-26,14,-9
10280,18,-156,162,-24,17,-9
10285,20,-155,161,-20,18,-9
10290,19,-158,162,-18,18,-8
10295,22,-155,164,-18,17,-10
10300,21,-155,159,-17,15,-11
10305,21,-155,160,-18,14,-11
10310,19,-157,160,-21,14,-12
10315,18,-153,164,-24,13,-14
10320,18,-156,161,-27,12,-15
10325,21,-156,161,-29,13,-17
10330,19,-154,162,-30,14,-19
10335,21,-155,166,-30,14,-19
10340,19,-155,165,-28,13,-20
10345,21,-155,165,-29,13,-19
10350,17,-153,165,-26,15,-19
10355,18,-154,165,-19,17,-19
10360,22,-154,161,-16,16,-20
10365,21,-153,163,-14,18,-19
10370,21,-152,160,-11,20,-19
10375,18,-151,162,-8,22,-18
10380,19,-150,160,-10,24,-17
10385,18,-153,160,-11,25,-16
10390,17,-154,162,-18,27,-16
10395,17,-153,163,-21,27,-15
10400,18,-155,164,-26,26,-14
10405,18,-154,163,-29,25,-12
10410,17,-153,156,-30,26,-9
10415,19,-155,161,-28,23,-9
10420,16,-153,163,-26,23,-6
10425,21,-150,164,-24,21,-6
10430,18,-152,160,-20,19,-3
10435,17,-150,163,-19,17,-1
10440,16,-151,162,-19,14,0
10445,17,-151,160,-18,8,0
10450,16,-149,161,-16,1,3
10455,16,-150,166,-16,-4,2
10460,15,-152,162,-15,-12,3
10465,18,-149,163,-14,-19,3
10470,16,-151,162,-15,-28,5
10475,15,-152,166,-16,-37,7
10480,14,-148,165,-18,-45,9
10485,16,-151,169,-21,-53,10
10490,16,-148,167,-24,-58,12
10495,16,-152,168,-25,-63,13
10500,15,-152,169,-25,-66,14
10505,15,-151,168,-26,-68,15
10510,15,-149,167,-25,-67,14
10515,18,-151,166,-24,-65,14
10520,16,-151,168,-24,-60,14
10525,24,-154,166,-23,-54,14
10530,23,-153,164,-22,-48,11
10535,22,-150,162,-24,-44,9
10540,22,-151,163,-27,-35,5
10545,27,-151,164,-31,-27,4
10550,25,-151,165,-34,-21,1
10555,30,-151,165,-40,-14,-3
10560,27,-152,160,-43,-10,-5
10565,30,-147,159,-48,-5,-7
10570,31,-151,165,-50,-3,-9
10575,33,-151,163,-54,-1,-6
10580,30,-149,162,-55,0,-7
10585,30,-151,159,-58,2,-5
10590,30,-150,163,-59,3,-3
10595,28,-150,165,-62,3,-2
10600,28,-150,161,-65,4,1
10605,31,-154,162,-68,4,4
10610,28,-151,162,-71,3,6
10615,28,-152,163,-72,3,7
10620,29,-154,160,-73,3,9
10625,27,-154,162,-75,3,12
10630,25,-152,162,-75,2,10
10635,25,-155,163,-77,2,8
10640,24,-155,160,-78,3,8
10645,22,-153,163,-81,4,7
10650,25,-157,162,-82,6,2
10655,21,-153,160,-82,9,0
10660,19,-155,167,-82,12,-2
10665,20,-156,161,-82,16,-5
10670,20,-158,164,-82,18,-7
10675,18,-157,163,-82,23,-11
10680,21,-155,162,-82,27,-13
10685,17,-153,165,-82,31,-14
10690,16,-157,165,-82,34,-15
10695,17,-158,164,-80,35,-15
10700,15,-156,164,-79,36,-14
10705,19,-153,164,-79,35,-13
10710,17,-155,164,-77,35,-11
10715,18,-155,164,-75,35,-11
10720,16,-155,162,-72,35,-10
10725,18,-152,163,-70,36,-9
10730,20,-155,166,-68,35,-6
10735,18,-156,165,-65,36,-5
10740,18,-152,166,-65,36,-4
10745,22,-150,163,-66,37,-5
10750,19,-153,166,-66,38,-4
10755,24,-150,163,-68,37,-4
10760,22,-148,166,-68,37,-4
10765,20,-152,161,-70,35,-5
10770,21,-151,162,-72,33,-5
10775,20,-153,163,-73,31,-4
10780,14,-158,170,-73,28,-5
10785,23,-152,163,-75,27,-5
10790,23,-154,161,-75,25,-6
10795,18,-152,159,-73,26,-6
10800,18,-153,163,-72,26,-6
10805,22,-155,164,-73,29,-8
10810,22,-154,162,-73,30,-10
10815,22,-155,158,-72,30,-12
10820,21,-158,160,-69,31,-11
10825,20,-157,165,-71,31,-13
10830,22,-156,163,-70,31,-15
10835,21,-154,162,-71,29,-14
10840,17,-155,161,-71,29,-13
10845,19,-158,158,-71,27,-14
10850,19,-160,166,-73,25,-14
10855,19,-158,164,-72,25,-13
10860,19,-155,162,-71,25,-13
10865,22,-159,161,-65,25,-13
10870,20,-158,160,-57,22,-12
10875,19,-156,160,-47,21,-13
10880,20,-156,159,-38,20,-14
10885,19,-157,155,-33,19,-13
10890,21,-158,162,-28,19,-12
10895,15,-155,158,-24,16,-12
10900,19,-159,156,-26,16,-10
10905,17,-155,159,-25,16,-8
10910,16,-153,161,-23,13,-9
10915,18,-155,159,-23,13,-7
10920,16,-153,161,-23,12,-7
10925,18,-156,162,-22,10,-6
10930,22,-155,161,-22,9,-3
10935,18,-154,161,-24,7,0
10940,21,-155,161,-25,6,1
10945,22,-158,165,-26,4,0
10950,21,-152,162,-27,3,2
10955,21,-155,163,-28,3,2
10960,20,-155,164,-27,5,0
10965,22,-154,166,-25,6,-1
10970,22,-153,163,-23,8,-1
10975,20,-158,168,-22,11,-3
10980,24,-157,164,-16,12,-4
10985,22,-156,161,-13,12,-8
10990,21,-153,163,-11,14,-7
10995,23,-155,162,-10,16,-5
11000,21,-155,161,-12,16,-4
11005,21,-153,158,-15,15,-3
11010,22,-154,164,-21,13,-1
11015,18,-154,161,-23,11,2
11020,21,-156,161,-27,11,3
11025,21,-155,166,-30,10,5
11030,23,-153,163,-30,9,5
11035,21,-154,165,-28,10,7
11040,23,-155,163,-25,11,7
11045,19,-152,165,-21,11,6
11050,20,-154,161,-16,11,5
11055,22,-155,167,-13,12,8
11060,21,-154,164,-12,12,7
11065,24,-153,161,-11,11,6
11070,23,-154,164,-12,10,5
11075,26,-154,161,-16,11,4
11080,23,-155,162,-17,10,2
11085,24,-156,160,-21,10,1
11090,22,-153,163,-21,11,-3
11095,23,-154,158,-21,11,-4
11100,20,-151,161,-23,12,-8
11105,23,-157,161,-24,13,-10
11110,24,-156,161,-23,16,-12
11115,21,-153,165,-23,15,-13
11120,22,-150,162,-22,15,-14
11125,19,-151,160,-24,17,-15
11130,20,-153,165,-26,17,-14
11135,19,-154,160,-27,18,-14
11140,20,-154,163,-30,19,-13
11145,22,-154,164,-32,21,-12
11150,17,-155,164,-34,21,-11
11155,21,-154,165,-35,21,-11
11160,19,-155,165,-30,22,-10
11165,20,-155,162,-27,23,-9
11170,20,-154,163,-23,22,-8
11175,20,-154,163,-16,20,-7
11180,22,-156,165,-8,19,-5
11185,20,-152,162,-1,19,-4
11190,20,-154,166,4,19,-2
11195,21,-152,161,6,18,-4
11200,21,-154,162,7,18,-3
11205,20,-151,164,5,19,-4
11210,22,-151,164,0,19,-4
11215,22,-153,166,-2,20,-5
11220,19,-151,163,-3,20,-6
11225,20,-152,165,-6,22,-6
11230,25,-156,162,-7,20,-9
11235,23,-150,162,-8,21,-9
11240,21,-151,162,-7,22,-10
11245,19,-153,162,-5,23,-10
11250,23,-155,166,0,25,-13
11255,20,-151,165,4,23,-14
11260,20,-154,168,10,23,-16
11265,19,-155,165,14,22,-16
11270,21,-154,165,18,20,-16
11275,18,-153,163,20,18,-14
11280,22,-153,164,20,15,-13
11285,22,-151,165,18,15,-11
11290,20,-154,161,17,14,-9
11295,17,-148,165,14,15,-6
11300,15,-148,165,12,13,-5
11305,19,-149,164,14,12,-5
11310,18,-150,158,12,13,-2
11315,21,-148,165,12,13,-1
11320,21,-149,161,11,14,0
11325,22,-150,161,12,12,1
11330,21,-152,163,12,12,1
11335,20,-150,168,12,13,1
11340,21,-149,161,13,14,1
11345,22,-153,165,12,14,-1
11350,18,-153,165,13,13,-2
11355,21,-149,165,14,10,-3
11360,23,-151,167,15,10,-4
11365,22,-149,162,16,8,-7
11370,22,-151,161,18,9,-7
11375,21,-150,164,19,9,-9
11380,33,-146,178,17,10,-9
11385,22,-150,165,18,9,-11
11390,24,-147,163,16,10,-11
11395,19,-148,169,12,10,-11
11400,22,-148,166,7,11,-10
11405,21,-148,164,3,12,-9
11410,18,-148,165,-3,12,-5
11415,14,-146,163,-9,11,0
11420,20,-149,166,-16,10,3
11425,15,-151,163,-22,10,8
11430,17,-149,168,-27,9,12
11435,19,-153,166,-30,5,17
11440,17,-149,168,-30,6,21
11445,20,-148,169,-28,4,25
11450,20,-148,169,-22,2,25
11455,21,-150,168,-16,0,28
11460,19,-150,168,-10,-2,30
11465,19,-149,161,-4,-5,30
11470,20,-148,164,-1,-9,31
11475,21,-148,167,4,-12,31
11480,22,-146,166,2,-12,32
11485,19,-148,164,-1,-14,33
11490,23,-150,165,-7,-16,29
11495,21,-149,164,-14,-17,25
11500,22,-150,160,-20,-20,23
11505,22,-145,165,-26,-20,20
11510,21,-148,163,-26,-20,20
11515,18,-145,165,-27,-22,15
11520,23,-151,171,-24,-22,15
11525,27,-140,179,-16,-22,12
11530,28,-136,170,-7,-23,9
11535,21,-149,169,-1,-24,6
11540,21,-147,164,5,-23,4
11545,21,-146,172,8,-21,3
11550,21,-150,168,9,-21,-1
11555,21,-146,170,8,-20,-3
11560,19,-145,164,8,-18,-3
11565,18,-145,168,6,-17,-1
11570,17,-149,166,0,-17,0
11575,14,-147,163,-6,-17,4
11580,16,-148,164,-14,-16,12
11585,14,-146,163,-23,-15,21
11590,13,-146,158,-30,-15,28
11595,13,-146,164,-35,-11,37
11600,15,-149,162,-35,-8,43
11605,17,-147,166,-31,-1,47
11610,20,-151,167,-23,8,51
11615,19,-149,165,-14,18,50
11620,21,-151,170,-1,27,47
11625,24,-149,170,15,37,44
11630,25,-150,167,26,45,38
11635,27,-148,171,38,50,32
11640,31,-147,165,47,58,22
11645,31,-148,166,49,65,12
11650,32,-146,167,49,70,1
11655,34,-146,168,45,75,-13
11660,32,-143,166,37,78,-26
11665,31,-146,164,30,82,-37
11670,34,-146,162,19,84,-48
11675,36,-145,168,9,82,-55
11680,35,-145,169,0,80,-60
11685,33,-145,168,-8,79,-65
11690,31,-145,169,-12,76,-65
11695,30,-146,167,-15,74,-66
11700,31,-144,170,-15,72,-65
11705,28,-143,169,-13,73,-65
11710,28,-146,173,-10,74,-62
11715,27,-148,170,-5,76,-57
11720,25,-146,171,1,82,-55
11725,23,-144,171,4,90,-52
11730,23,-144,169,5,96,-51
11735,19,-144,168,4,105,-46
11740,21,-143,165,2,113,-43
11745,17,-142,165,-1,119,-38
11750,19,-141,169,-4,128,-33
11755,19,-143,167,-12,134,-27
11760,15,-141,164,-18,138,-19
11765,13,-141,168,-26,141,-11
11770,19,-145,162,-34,146,-1
11775,16,-144,165,-39,149,7
11780,17,-143,164,-44,151,18
11785,16,-147,169,-46,155,27
11790,18,-146,167,-43,160,34
11795,17,-147,170,-38,167,40
11800,19,-143,171,-30,173,43
11805,22,-149,173,-18,179,43
11810,22,-145,169,-9,186,42
11815,24,-147,173,2,192,40
11820,26,-146,168,13,198,38
11825,26,-146,170,20,200,35
11830,24,-146,168,26,200,31
11835,29,-145,170,29,196,27
11840,29,-145,166,25,191,24
11845,29,-143,166,19,182,18
11850,30,-144,166,9,172,14
11855,29,-145,164,-2,163,11
11860,25,-145,164,-14,152,8
11865,24,-143,165,-22,143,7
11870,22,-148,167,-28,134,6
11875,23,-146,167,-30,126,6
11880,19,-148,167,-29,119,5
11885,20,-149,170,-19,115,8
11890,14,-147,165,-7,112,10
11895,13,-147,169,7,109,13
11900,10,-149,168,20,109,15
11905,7,-149,166,29,110,22
11910,9,-145,171,38,112,29
11915,7,-143,164,40,115,35
11920,7,-142,168,39,116,42
11925,6,-141,170,35,120,49
11930,5,-139,168,31,122,56
11935,5,-141,174,26,124,64
11940,7,-142,172,18,125,68
11945,6,-141,171,12,125,69
11950,10,-141,171,9,127,69
11955,9,-143,171,4,127,69
11960,11,-142,173,1,128,66
11965,7,-143,172,-3,128,61
11970,10,-144,171,-3,127,57
11975,9,-142,172,-4,124,54
11980,6,-157,177,-3,119,47
11985,12,-145,170,0,116,42
11990,10,-146,166,3,111,37
11995,6,-142,171,3,110,32
