timestamp,acc_x,acc_y,acc_z,gyro_x,gyro_y,gyro_z
0,-4,-242,-50,45,2,-9
5,-8,-246,-51,44,3,-9
10,-12,-243,-45,45,4,-9
15,-11,-241,-49,46,4,-9
20,-12,-241,-50,47,5,-9
25,-11,-245,-51,50,6,-9
30,-9,-243,-51,51,7,-9
35,-11,-245,-47,53,9,-9
40,-12,-245,-49,55,9,-9
45,-11,-241,-46,56,9,-10
50,-9,-245,-49,56,10,-9
55,-12,-244,-46,56,10,-10
60,-12,-247,-51,57,10,-9
65,-11,-247,-50,59,10,-10
70,-10,-243,-50,59,11,-10
75,-11,-245,-48,61,11,-10
80,-11,-244,-52,60,11,-10
85,-9,-245,-47,61,11,-13
90,-12,-245,-51,61,12,-13
95,-9,-244,-49,60,12,-11
100,-13,-243,-48,59,11,-13
105,-12,-243,-48,59,11,-14
110,-13,-245,-47,59,13,-14
115,-12,-241,-49,60,11,-12
120,-11,-245,-51,59,12,-11
125,-8,-246,-48,60,12,-13
130,-11,-245,-49,59,11,-11
135,-9,-243,-48,59,12,-12
140,-12,-243,-52,60,12,-10
145,-11,-243,-50,61,11,-10
150,-10,-242,-50,60,11,-11
155,-10,-245,-51,60,11,-9
160,-13,-241,-47,61,12,-11
165,-9,-242,-48,62,12,-12
170,-13,-241,-49,61,12,-10
175,-11,-242,-49,61,11,-11
180,-4,-245,-44,61,11,-11
185,-13,-241,-50,61,11,-8
190,-11,-245,-50,60,10,-11
195,-11,-242,-51,57,9,-10
200,-13,-245,-51,56,10,-9
205,-11,-243,-48,56,9,-11
210,-9,-245,-49,56,9,-9
215,-12,-241,-48,56,8,-11
220,-13,-243,-46,57,7,-10
225,-11,-244,-46,57,6,-9
230,-10,-245,-47,56,5,-9
235,-13,-243,-45,56,6,-9
240,-10,-248,-47,57,6,-9
245,-13,-243,-48,57,4,-10
250,-13,-243,-50,59,6,-10
255,-10,-246,-48,61,5,-11
260,-14,-240,-49,62,6,-11
265,-13,-242,-50,62,7,-14
270,-11,-245,-45,62,7,-13
275,-13,-245,-48,61,7,-14
280,-14,-240,-52,59,9,-15
285,-12,-245,-49,57,10,-14
290,-9,-243,-48,56,12,-14
295,-13,-243,-47,55,12,-14
300,-11,-245,-45,54,13,-15
305,-14,-244,-50,53,14,-15
310,-13,-246,-49,53,14,-13
315,-11,-241,-47,54,15,-14
320,-13,-243,-47,54,14,-13
325,-9,-243,-50,55,15,-14
330,-9,-243,-48,56,14,-13
335,-11,-244,-50,57,15,-13
340,-11,-244,-47,56,14,-11
345,-12,-245,-47,56,14,-11
350,-10,-245,-50,57,14,-11
355,-10,-245,-47,57,13,-12
360,-11,-244,-50,57,12,-13
365,-11,-244,-51,58,11,-13
370,-9,-241,-50,57,10,-11
375,-12,-241,-48,58,10,-12
380,-11,-244,-44,56,10,-12
385,-7,-244,-51,55,8,-13
390,-11,-245,-45,55,9,-12
395,-9,-244,-50,54,7,-11
400,-10,-246,-50,53,7,-11
405,-10,-246,-47,53,7,-11
410,-11,-243,-46,52,7,-11
415,-10,-245,-48,53,9,-11
420,-10,-244,-46,53,9,-12
425,-10,-243,-47,53,10,-9
430,-13,-243,-50,53,9,-11
435,-9,-244,-49,54,8,-11
440,-11,-244,-48,53,9,-11
445,-14,-245,-48,53,9,-13
450,-13,-242,-53,53,8,-12
455,-17,-241,-38,57,9,-14
460,-11,-244,-48,57,10,-13
465,-11,-245,-44,57,9,-13
470,-7,-244,-51,58,9,-14
475,-12,-243,-49,59,9,-14
480,-10,-243,-49,57,11,-15
485,-12,-246,-50,56,11,-15
490,-12,-244,-48,56,10,-14
495,-12,-244,-47,58,12,-12
500,-11,-246,-46,57,13,-12
505,-10,-241,-51,57,14,-13
510,-11,-245,-47,57,14,-13
515,-10,-246,-48,55,14,-13
520,-11,-242,-46,53,14,-10
525,-12,-241,-50,51,14,-10
530,-11,-242,-48,48,14,-9
535,-8,-244,-45,47,13,-12
540,-12,-245,-45,47,11,-13
545,-10,-246,-46,48,12,-13
550,-11,-247,-50,49,13,-12
555,-13,-245,-49,51,12,-13
560,-12,-244,-48,53,12,-10
565,-14,-242,-43,54,13,-9
570,-12,-242,-52,55,13,-10
575,-8,-243,-49,55,12,-10
580,-11,-244,-48,57,12,-10
585,-10,-244,-46,58,14,-10
590,-12,-242,-47,57,13,-11
595,-9,-242,-44,57,13,-13
600,-12,-242,-50,57,13,-12
605,-10,-244,-50,56,13,-13
610,-14,-244,-48,57,13,-10
615,-13,-241,-50,57,13,-11
620,-9,-245,-45,57,12,-10
625,-9,-244,-47,58,12,-9
630,-12,-243,-48,57,13,-9
635,-12,-243,-48,58,12,-9
640,-6,-246,-48,58,12,-9
645,-9,-246,-49,56,11,-10
650,-10,-242,-46,56,10,-11
655,-10,-246,-47,54,8,-12
660,-11,-243,-46,53,8,-11
665,-10,-242,-49,51,7,-12
670,-13,-241,-50,50,7,-11
675,-7,-248,-37,46,7,-13
680,-13,-244,-51,45,7,-12
685,-9,-243,-49,43,6,-13
690,-11,-243,-46,45,8,-13
695,-12,-245,-49,44,9,-12
700,-9,-242,-48,45,10,-12
705,-9,-247,-46,45,11,-11
710,-13,-242,-48,46,12,-11
715,-13,-245,-48,46,13,-10
720,-10,-223,-53,47,14,-9
725,-13,-244,-47,48,15,-9
730,-14,-245,-45,50,15,-8
735,-10,-244,-47,51,15,-5
740,-8,-243,-45,52,15,-6
745,-12,-247,-52,53,14,-7
750,-11,-243,-47,55,13,-7
755,-11,-244,-45,57,13,-8
760,-11,-244,-51,58,12,-9
765,-9,-243,-51,59,10,-10
770,-15,-243,-44,59,9,-10
775,-11,-244,-48,59,9,-11
780,-9,-245,-47,57,9,-12
785,-11,-243,-50,55,9,-12
790,-13,-243,-50,54,10,-11
795,-9,-244,-49,52,10,-12
800,-10,-244,-50,52,11,-11
805,-10,-245,-49,52,9,-12
810,-13,-245,-48,52,10,-12
815,-12,-243,-46,51,11,-9
820,-11,-244,-44,51,11,-11
825,-11,-243,-47,53,10,-10
830,-9,-243,-50,54,12,-10
835,-11,-244,-48,55,12,-9
840,-11,-243,-48,56,12,-8
845,-13,-245,-47,56,12,-9
850,-9,-242,-51,58,11,-8
855,-13,-244,-51,59,11,-6
860,-12,-244,-53,57,10,-10
865,-13,-242,-51,57,9,-8
870,-7,-245,-49,57,9,-8
875,-13,-243,-48,56,8,-8
880,-14,-243,-47,56,9,-9
885,-13,-245,-49,55,7,-11
890,-12,-244,-48,56,6,-11
895,-13,-243,-48,56,5,-12
900,-11,-243,-48,57,4,-11
905,-10,-245,-48,59,4,-11
910,-11,-244,-51,61,4,-11
915,-10,-246,-48,61,5,-10
920,-15,-246,-45,63,5,-10
925,-12,-244,-47,64,6,-10
930,-14,-245,-43,64,7,-8
935,-8,-246,-46,64,8,-7
940,-12,-245,-40,64,10,-7
945,-9,-246,-46,63,11,-7
950,-11,-244,-48,62,12,-7
955,-12,-242,-50,62,13,-8
960,-8,-244,-46,60,12,-7
965,-11,-245,-49,59,13,-7
970,-10,-244,-52,58,14,-6
975,-10,-249,-46,55,14,-9
980,-10,-246,-46,52,13,-9
985,-8,-243,-47,51,11,-11
990,-11,-246,-41,48,11,-10
995,-8,-246,-48,46,11,-9
1000,-9,-244,-47,44,10,-10
1005,-12,-242,-49,43,9,-10
1010,-11,-243,-50,43,8,-11
1015,-11,-248,-48,43,8,-12
1020,-9,-246,-45,43,5,-11
1025,-10,-243,-51,46,4,-12
1030,-11,-245,-48,47,5,-11
1035,-12,-242,-47,48,4,-11
1040,-12,-241,-48,47,5,-11
1045,-11,-243,-45,45,5,-9
1050,-10,-243,-47,42,7,-10
1055,-13,-241,-49,39,7,-9
1060,-13,-246,-47,37,7,-7
1065,-11,-243,-48,37,8,-9
1070,-14,-241,-48,37,8,-9
1075,-11,-242,-46,36,8,-7
1080,-9,-246,-46,36,8,-8
1085,-15,-245,-51,36,9,-8
1090,-11,-242,-45,36,8,-7
1095,-10,-244,-47,35,9,-7
1100,-12,-246,-46,36,9,-6
1105,-16,-246,-48,36,9,-7
1110,-9,-243,-49,37,8,-7
1115,-11,-242,-48,36,9,-8
1120,-11,-243,-46,35,9,-9
1125,-11,-245,-48,34,10,-9
1130,-12,-244,-49,33,9,-11
1135,-13,-244,-47,31,9,-12
1140,-12,-247,-50,31,9,-13
1145,-12,-242,-49,30,9,-14
1150,-13,-242,-48,29,8,-15
1155,-12,-242,-45,29,9,-16
1160,-13,-245,-47,32,9,-15
1165,-13,-242,-47,33,8,-15
1170,-13,-244,-48,36,8,-14
1175,-9,-244,-46,39,9,-14
1180,-10,-246,-48,41,8,-13
1185,-12,-244,-51,43,8,-13
1190,-9,-247,-51,46,8,-13
1195,-9,-247,-47,49,10,-10
1200,-13,-242,-50,50,8,-12
1205,-9,-243,-42,50,8,-12
1210,-10,-243,-49,50,6,-13
1215,-11,-243,-49,50,6,-15
1220,-13,-242,-48,49,6,-17
1225,-11,-246,-50,48,5,-16
1230,-11,-247,-46,49,5,-18
1235,-11,-242,-48,49,5,-19
1240,-11,-246,-47,50,6,-19
1245,-13,-241,-49,51,6,-19
1250,-12,-242,-48,54,8,-19
1255,-14,-241,-45,57,8,-18
1260,-11,-245,-50,58,11,-17
1265,-13,-246,-41,57,14,-16
1270,-12,-242,-47,57,14,-16
1275,-9,-240,-47,56,17,-17
1280,-12,-241,-49,54,20,-15
1285,-11,-241,-48,51,19,-14
1290,-12,-242,-46,49,20,-14
1295,-12,-243,-48,45,21,-13
1300,-11,-244,-48,46,21,-13
1305,-13,-241,-45,46,20,-12
1310,-8,-244,-46,45,18,-12
1315,-10,-243,-49,45,16,-12
1320,-11,-243,-51,45,14,-12
1325,-9,-249,-45,44,13,-11
1330,-8,-243,-47,44,12,-11
1335,-12,-244,-48,45,11,-11
1340,-10,-242,-47,45,10,-12
1345,-12,-242,-48,46,9,-12
1350,-11,-243,-50,47,9,-11
1355,-11,-245,-52,47,9,-13
1360,-12,-244,-50,46,10,-13
1365,-13,-242,-51,47,10,-13
1370,-12,-245,-47,46,10,-14
1375,-11,-242,-48,45,11,-13
1380,-8,-246,-50,46,12,-14
1385,-13,-243,-51,44,12,-13
1390,-12,-241,-47,44,12,-13
1395,-11,-243,-49,44,12,-12
1400,-10,-244,-47,42,12,-14
1405,-11,-244,-48,41,13,-13
1410,-11,-244,-49,41,14,-12
1415,-10,-243,-48,40,14,-13
1420,-8,-244,-51,40,13,-11
1425,-11,-240,-46,43,13,-12
1430,-11,-246,-53,43,14,-12
1435,-12,-237,-50,46,13,-12
1440,-10,-244,-52,49,12,-11
1445,-9,-243,-44,53,13,-11
1450,-9,-243,-46,55,11,-10
1455,-12,-245,-48,54,10,-11
1460,-10,-246,-50,56,7,-12
1465,-11,-244,-51,57,7,-10
1470,-9,-247,-48,59,6,-10
1475,-5,-245,-50,59,5,-7
1480,-12,-244,-49,58,4,-8
1485,-13,-243,-54,59,4,-8
1490,-10,-243,-54,56,2,-9
1495,-10,-245,-51,54,1,-10
1500,-12,-244,-52,53,0,-10
1505,-11,-244,-48,51,1,-12
1510,-12,-242,-51,51,2,-13
1515,-14,-244,-51,49,3,-12
1520,-13,-243,-46,50,4,-13
1525,-9,-245,-53,52,5,-11
1530,-12,-244,-49,53,5,-11
1535,-17,-240,-53,54,6,-9
1540,-16,-244,-55,55,7,-8
1545,-12,-243,-49,54,8,-9
1550,-12,-243,-46,55,9,-8
1555,-12,-241,-51,55,9,-6
1560,-10,-245,-51,55,11,-5
1565,-11,-246,-46,57,12,-7
1570,-11,-242,-52,56,10,-6
1575,-11,-241,-47,59,11,-4
1580,-15,-245,-46,62,13,-4
1585,-16,-242,-47,63,12,-4
1590,-11,-244,-48,64,11,-5
1595,-12,-241,-47,64,10,-5
1600,-11,-242,-51,64,9,-4
1605,-10,-242,-51,64,9,-5
1610,-11,-240,-50,63,8,-7
1615,-11,-243,-50,63,6,-7
1620,-7,-244,-50,63,6,-8
1625,-10,-242,-43,61,4,-12
1630,-18,-247,-46,60,4,-11
1635,-10,-245,-46,58,3,-11
1640,-11,-243,-47,58,4,-11
1645,-14,-245,-48,59,4,-10
1650,-11,-245,-49,59,3,-12
1655,-10,-243,-50,61,4,-11
1660,-11,-245,-47,63,5,-13
1665,-11,-240,-52,66,5,-11
1670,-13,-243,-46,66,4,-11
1675,-10,-244,-48,67,4,-10
1680,-14,-244,-47,66,4,-8
1685,-14,-241,-52,67,4,-8
1690,-11,-244,-49,67,4,-7
1695,-10,-240,-48,68,4,-7
1700,-12,-243,-46,67,5,-6
1705,-12,-241,-47,68,6,-7
1710,-13,-243,-52,67,5,-6
1715,-11,-242,-50,67,5,-6
1720,-9,-246,-47,66,6,-7
1725,-10,-242,-51,66,5,-6
1730,-12,-243,-48,66,3,-8
1735,-12,-242,-47,66,3,-10
1740,-8,-247,-50,68,3,-10
1745,-13,-241,-50,67,5,-10
1750,-11,-243,-50,69,4,-9
1755,-12,-243,-50,68,4,-8
1760,-9,-245,-46,69,6,-10
1765,-9,-243,-46,71,7,-9
1770,-11,-243,-51,71,6,-10
1775,-10,-241,-51,72,8,-9
1780,-11,-242,-49,71,8,-9
1785,-16,-240,-53,70,7,-10
1790,-9,-245,-47,71,6,-11
1795,-14,-244,-47,68,6,-10
1800,-11,-244,-49,68,4,-11
1805,-8,-239,-53,66,3,-13
1810,-14,-244,-48,66,2,-13
1815,-11,-243,-47,68,1,-13
1820,-9,-247,-45,70,1,-14
1825,-12,-246,-49,72,1,-14
1830,-11,-246,-48,73,1,-15
1835,-13,-245,-46,75,0,-14
1840,-12,-245,-48,77,0,-13
1845,-11,-245,-49,78,1,-14
1850,-13,-247,-48,78,1,-13
1855,-15,-241,-48,79,2,-12
1860,-10,-245,-49,81,5,-13
1865,-12,-245,-46,82,6,-12
1870,-12,-243,-47,84,8,-12
1875,-14,-242,-47,83,9,-13
1880,-14,-240,-46,81,11,-13
1885,-11,-242,-43,79,13,-12
1890,-12,-244,-46,76,15,-13
1895,-11,-242,-44,73,15,-12
1900,-13,-247,-48,71,17,-13
1905,-9,-245,-47,69,15,-13
1910,-10,-244,-48,70,14,-11
1915,-10,-242,-50,70,13,-12
1920,-10,-245,-45,70,13,-12
1925,-9,-245,-50,71,13,-12
1930,-11,-246,-47,73,11,-13
1935,-12,-245,-48,74,9,-13
1940,-10,-246,-49,73,8,-16
1945,-9,-245,-47,72,8,-15
1950,-8,-245,-44,72,9,-17
1955,-9,-246,-49,73,8,-16
1960,-9,-244,-44,74,8,-15
1965,-13,-242,-45,73,9,-13
1970,-9,-247,-44,74,9,-13
1975,-8,-243,-43,75,8,-12
1980,-11,-240,-48,75,9,-10
1985,-10,-242,-43,75,9,-10
1990,-13,-241,-43,74,9,-9
1995,-10,-244,-47,73,9,-7
2000,-6,-246,-45,71,7,-6
2005,-11,-244,-47,71,7,-7
2010,-11,-243,-44,71,8,-6
2015,-9,-242,-44,72,8,-6
2020,-14,-248,-46,70,8,-5
2025,-11,-245,-46,71,9,-5
2030,-8,-241,-45,71,10,-4
2035,-12,-247,-44,70,10,-6
2040,-13,-244,-49,69,10,-6
2045,-11,-242,-43,68,10,-6
2050,-10,-242,-44,67,11,-8
2055,-7,-245,-47,66,12,-9
2060,-12,-244,-48,64,13,-10
2065,-10,-243,-44,64,13,-10
2070,-7,-242,-51,63,14,-9
2075,-12,-233,-48,64,12,-9
2080,-9,-247,-39,65,12,-9
2085,-9,-241,-48,64,12,-9
2090,-13,-244,-46,65,13,-9
2095,-12,-244,-45,64,13,-11
2100,-10,-241,-46,65,11,-10
2105,-10,-241,-46,63,11,-8
2110,-11,-243,-49,64,12,-9
2115,-14,-243,-47,65,12,-9
2120,-11,-246,-48,65,13,-7
2125,-10,-241,-47,65,12,-7
2130,-13,-249,-45,65,14,-7
2135,-12,-244,-47,65,14,-7
2140,-12,-243,-47,64,14,-7
2145,-11,-244,-44,61,14,-7
2150,-11,-246,-45,59,14,-8
2155,-9,-244,-46,56,14,-7
2160,-10,-245,-48,55,13,-7
2165,-9,-247,-43,55,12,-8
2170,-9,-247,-45,55,12,-10
2175,-9,-245,-47,55,11,-9
2180,-12,-247,-47,57,9,-8
2185,-12,-245,-46,57,8,-9
2190,-13,-245,-48,58,7,-11
2195,-11,-246,-46,58,6,-9
2200,-10,-244,-47,58,6,-9
2205,-14,-242,-48,60,4,-9
2210,-14,-243,-49,61,4,-8
2215,-14,-245,-45,61,4,-7
2220,-7,-246,-46,62,3,-8
2225,-13,-242,-45,61,4,-10
2230,-12,-246,-46,60,5,-10
2235,-11,-242,-44,59,6,-10
2240,-14,-246,-48,58,7,-9
2245,-14,-248,-44,58,7,-9
2250,-11,-246,-44,58,7,-8
2255,-12,-245,-44,59,8,-9
2260,-13,-244,-47,57,7,-8
2265,-13,-242,-44,58,8,-9
2270,-9,-244,-47,58,9,-9
2275,-11,-242,-46,58,9,-8
2280,-10,-244,-45,58,11,-8
2285,-11,-246,-44,57,13,-8
2290,-13,-243,-42,57,15,-7
2295,-12,-243,-51,57,15,-9
2300,-10,-245,-46,55,15,-9
2305,-9,-244,-45,54,16,-10
2310,-10,-245,-44,52,15,-8
2315,-9,-243,-44,52,15,-9
2320,-15,-246,-42,51,15,-8
2325,-7,-248,-44,49,14,-9
2330,-9,-243,-45,50,14,-9
2335,-10,-246,-42,50,12,-8
2340,-9,-244,-44,51,10,-10
2345,-9,-248,-38,51,12,-11
2350,-10,-244,-47,53,11,-10
2355,-12,-245,-46,53,9,-9
2360,-12,-242,-48,54,9,-9
2365,-14,-243,-46,55,9,-10
2370,-11,-243,-50,56,9,-10
2375,-9,-245,-49,56,8,-10
2380,-13,-242,-45,55,8,-10
2385,-15,-243,-51,56,8,-11
2390,-12,-243,-41,55,8,-11
2395,-15,-246,-44,54,9,-10
2400,-9,-244,-47,52,9,-7
2405,-22,-250,-52,52,9,-8
2410,-12,-247,-46,53,11,-9
2415,-10,-245,-45,53,12,-8
2420,-13,-245,-47,52,13,-8
2425,-12,-249,-47,52,12,-8
2430,-14,-242,-45,52,13,-9
2435,-12,-244,-41,52,15,-8
2440,-12,-246,-46,52,15,-9
2445,-9,-243,-43,53,14,-9
2450,-14,-241,-44,54,14,-9
2455,-12,-240,-46,55,15,-8
2460,-14,-245,-41,56,15,-9
2465,-12,-246,-44,56,14,-11
2470,-12,-243,-45,55,14,-11
2475,-11,-246,-45,54,14,-12
2480,-12,-246,-46,53,13,-13
2485,-15,-244,-44,53,12,-14
2490,-16,-243,-47,55,12,-15
2495,-12,-246,-51,55,12,-13
2500,-11,-245,-48,55,12,-13
2505,-12,-244,-43,54,12,-13
2510,-13,-246,-50,55,12,-13
2515,-10,-247,-47,57,12,-13
2520,-11,-245,-42,57,13,-12
2525,-14,-246,-42,57,12,-13
2530,-13,-245,-44,58,13,-15
2535,-11,-244,-46,56,14,-14
2540,-8,-246,-45,55,14,-12
2545,-13,-244,-45,54,13,-12
2550,-12,-245,-43,54,12,-12
2555,-13,-244,-47,51,12,-13
2560,-9,-244,-43,48,12,-12
2565,-12,-244,-46,48,12,-13
2570,-13,-242,-46,48,13,-12
2575,-13,-242,-46,49,13,-11
2580,-13,-242,-45,49,11,-11
2585,-10,-244,-44,49,13,-10
2590,-12,-243,-42,50,12,-7
2595,-10,-244,-45,49,15,-8
2600,-10,-245,-44,49,15,-9
2605,-12,-242,-48,49,14,-8
2610,-13,-247,-44,48,15,-8
2615,-8,-245,-41,50,16,-7
2620,-7,-251,-49,50,15,-11
2625,-12,-242,-47,52,14,-9
2630,-10,-243,-46,54,14,-9
2635,-11,-247,-47,55,14,-8
2640,-10,-244,-48,56,14,-9
2645,-9,-245,-43,57,13,-8
2650,-15,-242,-45,56,13,-10
2655,-12,-246,-45,54,14,-9
2660,-13,-242,-46,52,13,-9
2665,-8,-246,-46,52,13,-11
2670,-10,-243,-43,51,13,-10
2675,-12,-243,-44,50,12,-9
2680,-12,-242,-46,48,12,-9
2685,-11,-242,-45,47,11,-10
2690,-12,-243,-45,47,12,-11
2695,-11,-244,-45,47,12,-9
2700,-11,-244,-42,46,12,-8
2705,-8,-247,-46,47,13,-9
2710,-12,-246,-47,46,13,-10
2715,-12,-246,-49,46,11,-9
2720,-8,-247,-50,47,12,-12
2725,-8,-246,-45,47,12,-11
2730,-18,-247,-46,47,12,-13
2735,-13,-244,-49,45,12,-13
2740,-12,-242,-47,45,13,-12
2745,-13,-241,-45,44,13,-11
2750,-13,-243,-47,43,14,-11
2755,-11,-243,-41,42,13,-12
2760,-11,-243,-49,41,13,-11
2765,-14,-244,-50,41,13,-12
2770,-11,-244,-44,41,14,-10
2775,-12,-245,-44,42,13,-11
2780,-14,-243,-48,43,13,-10
2785,-12,-243,-43,47,14,-10
2790,-9,-246,-42,47,14,-10
2795,-10,-246,-45,50,13,-9
2800,-12,-243,-43,52,14,-8
2805,-12,-246,-44,53,13,-10
2810,-15,-244,-43,54,14,-9
2815,-14,-245,-46,55,13,-7
2820,-14,-243,-47,55,14,-8
2825,-14,-247,-46,54,14,-9
2830,-18,-240,-48,54,15,-9
2835,-14,-245,-49,53,14,-10
2840,-12,-245,-46,53,14,-9
2845,-13,-246,-49,51,13,-9
2850,-13,-243,-47,52,13,-11
2855,-11,-245,-46,51,13,-11
2860,-12,-242,-48,51,14,-10
2865,-9,-244,-52,49,13,-11
2870,-13,-244,-47,49,12,-8
2875,-10,-243,-47,50,13,-9
2880,-12,-244,-45,49,12,-11
2885,-11,-243,-41,48,12,-9
2890,-9,-248,-50,49,12,-11
2895,-11,-244,-45,47,11,-9
2900,-11,-245,-46,45,11,-10
2905,-9,-244,-48,46,11,-9
2910,-10,-248,-44,45,13,-10
2915,-13,-241,-44,42,11,-11
2920,-14,-241,-49,41,11,-11
2925,-10,-246,-44,41,11,-11
2930,-11,-244,-46,40,10,-11
2935,-10,-243,-45,40,9,-12
2940,-12,-244,-50,41,10,-13
2945,-8,-252,-45,41,11,-13
2950,-11,-246,-48,43,11,-14
2955,-9,-247,-47,43,11,-13
2960,-9,-245,-43,44,12,-13
2965,-12,-241,-45,43,12,-13
2970,-11,-242,-46,42,14,-14
2975,-9,-245,-47,41,14,-16
2980,-7,-245,-49,40,15,-17
2985,-10,-245,-44,39,18,-18
2990,-11,-242,-47,38,18,-20
2995,-10,-245,-52,37,18,-19
3000,-10,-244,-50,40,20,-21
3005,-8,-244,-46,42,21,-24
3010,-7,-242,-47,41,21,-23
3015,-6,-244,-51,42,23,-27
3020,-10,-242,-51,40,23,-29
3025,-7,-243,-52,35,26,-32
3030,-2,-242,-54,22,29,-35
3035,-4,-242,-55,5,30,-41
3040,-2,-244,-58,-17,32,-46
3045,0,-241,-54,-45,32,-53
3050,-2,-243,-51,-76,32,-60
3055,-3,-246,-55,-107,34,-69
3060,-3,-245,-52,-132,34,-81
3065,-2,-248,-54,-153,35,-92
3070,-2,-248,-51,-169,39,-102
3075,-1,-246,-52,-180,43,-111
3080,-4,-239,-49,-191,49,-118
3085,-5,-239,-44,-203,55,-125
3090,-9,-234,-46,-221,54,-134
3095,-8,-235,-40,-247,52,-144
3100,-5,-230,-44,-276,44,-156
3105,-6,-229,-38,-307,40,-166
3110,-11,-227,-39,-334,37,-176
3115,-10,-227,-47,-347,40,-185
3120,-15,-227,-43,-346,47,-192
3125,-15,-226,-43,-334,54,-194
3130,-20,-224,-49,-312,61,-189
3135,-24,-224,-50,-296,70,-182
3140,-21,-225,-50,-289,78,-171
3145,-21,-223,-57,-296,84,-159
3150,-23,-223,-58,-315,86,-149
3155,-23,-228,-58,-335,87,-137
3160,-20,-233,-57,-353,84,-121
3165,-19,-230,-54,-360,80,-105
3170,-16,-230,-51,-359,75,-91
3175,-13,-232,-49,-350,66,-79
3180,-11,-237,-52,-340,54,-71
3185,-10,-236,-47,-333,43,-66
3190,-12,-237,-48,-334,31,-63
3195,-9,-239,-47,-348,22,-67
3200,-9,-239,-42,-366,19,-75
3205,-10,-236,-48,-386,21,-86
3210,-12,-241,-48,-401,23,-95
3215,-8,-239,-46,-408,28,-104
3220,-7,-241,-43,-409,34,-114
3225,-9,-237,-46,-405,42,-121
3230,-7,-238,-42,-400,47,-127
3235,-8,-233,-44,-396,53,-130
3240,-9,-229,-40,-397,59,-136
3245,-8,-230,-43,-402,62,-139
3250,-2,-226,-41,-414,64,-143
3255,-6,-223,-47,-433,65,-152
3260,-10,-222,-48,-456,67,-162
3265,-9,-221,-45,-481,71,-172
3270,-6,-229,-56,-505,77,-183
3275,-8,-222,-45,-529,84,-188
3280,-6,-219,-48,-553,95,-194
3285,-7,-222,-52,-577,105,-197
3290,-9,-220,-52,-594,114,-198
3295,-8,-221,-56,-611,120,-193
3300,-10,-226,-58,-627,121,-187
3305,-8,-223,-57,-648,118,-177
3310,-8,-227,-60,-674,109,-171
3315,-9,-225,-64,-701,98,-165
3320,-7,-232,-65,-720,86,-161
3325,-6,-233,-65,-730,76,-158
3330,-8,-229,-65,-735,63,-151
3335,-7,-233,-66,-739,51,-140
3340,-6,-232,-67,-744,44,-134
3345,-5,-225,-66,-754,37,-129
3350,-5,-222,-64,-775,26,-122
3355,-4,-224,-63,-799,16,-113
3360,-2,-223,-57,-825,3,-106
3365,-6,-221,-63,-852,-8,-99
3370,-2,-223,-59,-874,-21,-91
3375,-2,-229,-65,-888,-35,-83
3380,-1,-231,-65,-897,-49,-77
3385,-2,-232,-66,-896,-56,-73
3390,0,-232,-69,-903,-54,-70
3395,3,-234,-77,-929,-47,-72
3400,1,-234,-80,-966,-27,-76
3405,1,-241,-86,-1013,-7,-78
3410,2,-240,-86,-1066,11,-88
3415,3,-241,-94,-1122,24,-97
3420,8,-247,-100,-1183,43,-100
3425,4,-251,-104,-1252,67,-107
3430,17,-252,-101,-1321,93,-113
3435,6,-247,-104,-1394,118,-121
3440,5,-250,-113,-1467,142,-130
3445,7,-247,-113,-1533,169,-139
3450,9,-241,-115,-1589,194,-149
3455,14,-238,-110,-1635,207,-158
3460,11,-231,-125,-1672,206,-164
3465,14,-228,-121,-1705,207,-171
3470,5,-220,-123,-1735,195,-180
3475,2,-215,-118,-1763,169,-187
3480,1,-214,-121,-1783,122,-190
3485,-6,-217,-129,-1792,64,-190
3490,1,-223,-143,-1785,-7,-185
3495,4,-233,-151,-1762,-73,-176
3500,12,-238,-162,-1726,-138,-170
3505,20,-244,-184,-1677,-196,-168
3510,30,-243,-192,-1635,-239,-174
3515,29,-242,-197,-1629,-268,-194
3520,35,-249,-213,-1646,-275,-210
3525,19,-252,-218,-1660,-257,-218
3530,20,-257,-225,-1676,-219,-216
3535,18,-272,-239,-1691,-188,-206
3540,10,-285,-247,-1715,-151,-197
3545,2,-298,-257,-1738,-118,-186
3550,-1,-309,-260,-1754,-87,-173
3555,-7,-316,-275,-1750,-51,-161
3560,-19,-319,-281,-1713,-3,-144
3565,-16,-321,-284,-1628,40,-103
3570,-15,-320,-278,-1500,87,-64
3575,-11,-317,-276,-1328,116,-13
3580,-7,-316,-281,-1120,139,28
3585,1,-318,-280,-885,150,58
3590,20,-314,-280,-644,141,86
3595,24,-303,-282,-416,107,106
3600,34,-285,-281,-212,61,121
3605,37,-272,-280,-37,23,129
3610,44,-255,-270,111,5,122
3615,32,-227,-253,227,-3,99
3620,26,-207,-246,314,-16,80
3625,21,-191,-237,361,-21,44
3630,22,-182,-218,364,-16,1
3635,20,-172,-210,337,-21,-18
3640,12,-160,-198,280,-17,-29
3645,13,-159,-193,206,-1,-22
3650,15,-148,-183,116,9,-15
3655,13,-145,-178,25,12,-1
3660,8,-144,-177,-58,14,13
3665,9,-142,-175,-129,17,27
3670,15,-144,-177,-184,14,37
3675,16,-146,-172,-230,5,44
3680,16,-148,-178,-267,-4,48
3685,18,-149,-181,-296,-5,43
3690,18,-154,-187,-324,2,43
3695,23,-156,-181,-355,19,41
3700,17,-163,-181,-390,38,39
3705,25,-167,-184,-432,63,32
3710,17,-173,-189,-481,93,29
3715,18,-175,-182,-527,125,35
3720,23,-179,-177,-564,159,54
3725,15,-180,-171,-589,188,58
3730,13,-183,-165,-597,210,67
3735,13,-190,-166,-581,228,80
3740,13,-187,-161,-545,242,87
3745,13,-183,-152,-494,253,80
3750,8,-175,-149,-428,256,68
3755,7,-171,-152,-346,251,74
3760,9,-168,-154,-255,249,90
3765,8,-163,-149,-166,249,93
3770,7,-148,-150,-91,246,91
3775,9,-139,-153,-31,240,86
3780,6,-135,-157,9,239,78
3785,4,-131,-149,30,247,65
3790,6,-119,-143,37,251,60
3795,1,-112,-143,38,244,57
3800,10,-112,-152,30,245,55
3805,5,-102,-146,20,251,49
3810,4,-96,-136,4,256,47
3815,4,-86,-132,-10,259,47
3820,0,-77,-128,-18,261,51
3825,6,-84,-128,-19,264,56
3830,-2,-76,-124,-17,257,46
3835,5,-70,-117,-14,247,34
3840,0,-66,-115,-12,231,28
3845,1,-59,-120,-11,221,30
3850,6,-61,-121,-12,222,34
3855,6,-59,-118,-19,235,42
3860,10,-56,-115,-29,243,44
3865,8,-51,-118,-38,253,43
3870,4,-51,-118,-44,269,51
3875,11,-51,-112,-43,279,56
3880,13,-50,-99,-39,288,57
3885,11,-46,-94,-27,292,63
3890,13,-43,-91,-11,296,73
3895,8,-40,-89,9,295,87
3900,6,-38,-83,30,295,101
3905,9,-33,-80,49,285,109
3910,12,-31,-80,68,270,115
3915,0,-25,-82,87,255,116
3920,7,-29,-78,107,237,112
3925,7,-21,-75,129,213,105
3930,5,-20,-77,158,183,92
3935,6,-19,-80,179,152,72
3940,7,-23,-84,195,123,49
3945,11,-25,-85,206,97,23
3950,8,-23,-87,212,73,-5
3955,8,-28,-91,211,45,-37
3960,0,-28,-89,202,11,-69
3965,0,-33,-92,182,-29,-104
3970,0,-40,-94,152,-75,-143
3975,-5,-50,-103,111,-132,-180
3980,-1,-61,-113,59,-194,-213
3985,-3,-70,-125,-7,-252,-247
3990,1,-82,-145,-82,-309,-279
3995,12,-100,-167,-160,-362,-309
4000,20,-108,-184,-233,-406,-337
4005,26,-125,-200,-283,-438,-353
4010,36,-146,-217,-303,-457,-357
4015,37,-163,-231,-284,-459,-343
4020,37,-170,-240,-223,-445,-318
4025,40,-189,-247,-119,-414,-276
4030,41,-187,-245,19,-365,-219
4035,43,-191,-242,182,-307,-154
4040,38,-192,-237,350,-251,-89
4045,31,-195,-227,510,-206,-33
4050,26,-198,-221,650,-175,-1
4055,19,-196,-207,759,-158,5
4060,20,-196,-198,842,-156,-10
4065,16,-190,-197,903,-170,-45
4070,14,-179,-202,944,-196,-90
4075,12,-168,-201,978,-229,-132
4080,13,-151,-208,1004,-257,-170
4085,13,-135,-215,1026,-270,-192
4090,2,-118,-235,1040,-269,-182
4095,1,-104,-257,1016,-238,-139
4100,-2,-93,-235,936,-176,-71
4105,-9,-88,-229,809,-114,-13
4110,-18,-95,-235,624,-68,41
4115,-28,-111,-227,415,-35,81
4120,-33,-132,-217,224,-16,99
4125,-26,-152,-185,94,-25,94
4130,-20,-171,-178,47,-73,72
4135,-24,-191,-182,77,-134,47
4140,-10,-195,-182,164,-171,25
4145,-5,-196,-169,272,-192,3
4150,9,-192,-158,383,-196,-3
4155,9,-190,-163,476,-186,-4
4160,17,-181,-169,542,-160,3
4165,28,-180,-162,581,-118,20
4170,34,-187,-142,597,-77,34
4175,39,-199,-136,611,-70,41
4180,45,-225,-134,632,-91,41
4185,39,-260,-118,672,-130,5
4190,50,-328,-80,756,-188,-15
4195,51,-415,-52,905,-262,-31
4200,47,-496,-53,1136,-336,-53
4205,28,-593,-56,1471,-389,-44
4210,40,-673,-82,1924,-429,8
4215,24,-716,-151,2506,-474,106
4220,7,-690,-229,3149,-508,221
4225,34,-602,-339,3832,-558,324
4230,40,-422,-529,4465,-661,321
4235,62,-247,-640,4752,-615,196
4240,15,-155,-635,4549,-380,87
4245,47,-136,-555,3834,-132,18
4250,26,-157,-437,2824,42,-48
4255,12,-190,-399,1977,86,-60
4260,2,-216,-333,1380,95,-50
4265,2,-226,-276,1092,122,-12
4270,7,-205,-165,994,145,39
4275,-15,-168,-158,976,91,96
4280,-38,-130,-201,913,-14,139
4285,-51,-122,-230,753,-73,158
4290,-41,-111,-189,514,-73,157
4295,-22,-149,-139,263,-80,137
4300,-22,-175,-154,41,-112,115
4305,-20,-199,-179,-142,-113,96
4310,-7,-215,-167,-282,-64,83
4315,8,-220,-120,-374,-14,82
4320,19,-220,-98,-421,-15,84
4325,13,-225,-118,-433,-43,85
4330,7,-226,-113,-432,-39,83
4335,13,-226,-80,-428,-10,82
4340,18,-231,-44,-417,4,80
4345,6,-231,-64,-391,-6,80
4350,2,-242,-76,-343,4,73
4355,3,-234,-63,-259,42,68
4360,7,-229,-36,-156,80,59
4365,18,-230,-18,-56,84,52
4370,1,-232,-64,49,74,52
4375,-2,-232,-70,147,81,57
4380,1,-238,-56,230,94,56
4385,0,-238,-38,299,82,52
4390,-1,-244,-45,360,39,53
4395,-17,-250,-80,421,7,52
4400,-17,-254,-69,494,-1,49
4405,-16,-255,-48,573,-13,53
4410,-12,-258,-34,658,-50,54
4415,-14,-262,-52,745,-89,58
4420,-21,-257,-69,823,-99,58
4425,-15,-256,-46,885,-90,61
4430,-9,-251,-29,931,-94,66
4435,-9,-247,-41,957,-109,74
4440,-15,-248,-60,970,-104,79
4445,-13,-246,-56,974,-80,86
4450,-2,-245,-42,975,-64,92
4455,-2,-246,-48,975,-71,96
4460,-5,-247,-70,979,-83,101
4465,-11,-249,-89,994,-81,103
4470,0,-245,-77,1013,-75,104
4475,3,-243,-85,1032,-83,106
4480,-2,-233,-104,1042,-100,106
4485,-10,-225,-124,1038,-101,105
4490,-11,-220,-132,1011,-82,102
4495,-1,-214,-115,964,-65,98
4500,-3,-213,-119,898,-61,96
4505,-14,-211,-124,818,-54,97
4510,-12,-209,-127,735,-34,100
4515,-12,-209,-122,659,-15,106
4520,-1,-212,-106,588,-11,109
4525,-7,-209,-116,518,-13,106
4530,-13,-209,-122,455,-11,114
4535,-7,-208,-114,393,1,117
4540,-7,-213,-103,338,9,118
4545,-4,-211,-97,295,5,123
4550,-7,-212,-102,262,-1,123
4555,-4,-216,-104,238,5,125
4560,-5,-218,-99,218,15,122
4565,-1,-207,-88,201,12,124
4570,-1,-219,-96,188,-2,120
4575,-5,-214,-101,179,-8,117
4580,-3,-220,-99,180,-7,110
4585,1,-226,-91,192,-11,104
4590,2,-229,-87,217,-24,98
4595,1,-233,-99,250,-35,85
4600,1,-237,-100,288,-34,73
4605,2,-239,-95,329,-26,60
4610,1,-234,-91,368,-23,48
4615,0,-233,-98,404,-23,35
4620,-1,-237,-98,434,-15,28
4625,0,-232,-98,456,0,23
4630,-2,-236,-86,469,10,21
4635,-4,-230,-83,471,13,19
4640,-10,-232,-88,465,16,20
4645,-8,-232,-87,457,26,21
4650,-11,-236,-77,449,32,24
4655,-10,-235,-72,440,30,27
4660,-13,-240,-70,438,24,30
4665,-14,-242,-73,441,23,33
4670,-18,-243,-71,452,19,33
4675,-22,-242,-60,469,9,32
4680,-15,-252,-59,493,-6,33
4685,-28,-248,-68,521,-20,32
4690,-11,-250,-64,549,-32,30
4695,-22,-244,-60,574,-43,29
4700,-18,-244,-59,594,-59,29
4705,-22,-239,-62,611,-74,29
4710,-23,-237,-65,623,-84,27
4715,-18,-236,-63,630,-89,28
4720,-17,-237,-60,632,-96,26
4725,-18,-233,-62,630,-101,24
4730,-19,-232,-58,624,-101,24
4735,-17,-229,-62,611,-100,23
4740,-14,-235,-59,594,-94,20
4745,-13,-235,-57,575,-91,16
4750,-15,-235,-55,553,-90,13
4755,-14,-236,-58,533,-85,8
4760,-13,-234,-58,521,-79,8
4765,-16,-236,-53,514,-72,4
4770,-12,-236,-54,512,-68,-1
4775,-10,-238,-55,511,-64,-3
4780,-14,-235,-56,507,-59,-8
4785,-14,-235,-59,502,-51,-11
4790,-15,-234,-52,496,-47,-9
4795,-14,-234,-54,487,-45,-9
4800,-13,-235,-60,474,-47,-10
4805,-13,-234,-61,459,-43,-9
4810,-17,-236,-52,445,-42,-10
4815,-17,-233,-53,431,-43,-10
4820,-15,-236,-55,416,-44,-9
4825,-18,-236,-55,400,-45,-9
4830,-19,-236,-51,383,-40,-10
4835,-17,-238,-44,370,-40,-7
4840,-22,-239,-46,358,-42,-4
4845,-16,-240,-50,346,-41,4
4850,-16,-241,-47,340,-40,4
4855,-18,-241,-42,335,-35,4
4860,-14,-240,-42,333,-34,6
4865,-14,-238,-41,328,-36,11
4870,-16,-240,-42,325,-36,12
4875,-13,-236,-45,319,-30,10
4880,-15,-237,-45,312,-25,8
4885,-11,-233,-28,302,-22,7
4890,-10,-238,-43,293,-18,7
4895,-10,-239,-45,284,-15,6
4900,-11,-238,-40,278,-9,3
4905,-11,-240,-40,275,-3,0
4910,-11,-236,-42,273,1,-1
4915,-8,-239,-45,273,2,-5
4920,-12,-239,-43,272,8,-8
4925,-8,-237,-41,271,17,-14
4930,-10,-237,-42,268,21,-16
4935,-8,-237,-48,263,25,-19
4940,-8,-239,-48,258,30,-19
4945,-9,-238,-44,251,39,-20
4950,-10,-239,-45,244,42,-21
4955,-3,-238,-40,236,44,-22
4960,-6,-239,-43,228,44,-24
4965,-5,-235,-44,220,45,-24
4970,-8,-236,-45,213,44,-26
4975,-8,-238,-42,206,37,-23
4980,-9,-241,-48,199,31,-22
4985,-8,-239,-44,192,28,-19
4990,-4,-245,-45,189,24,-16
4995,-11,-243,-38,184,19,-15
5000,-8,-247,-40,185,14,-14
5005,-11,-244,-43,187,11,-13
5010,-8,-245,-42,192,9,-11
5015,-5,-245,-43,198,10,-11
5020,-5,-244,-43,202,10,-12
5025,-6,-243,-43,204,12,-12
5030,-7,-242,-44,203,17,-12
5035,-9,-240,-40,200,23,-14
5040,-6,-241,-41,194,29,-14
5045,-5,-242,-42,189,32,-15
5050,-3,-242,-45,182,36,-18
5055,-6,-243,-46,176,40,-19
5060,-5,-242,-42,171,46,-21
5065,-6,-244,-44,168,46,-24
5070,-6,-243,-42,166,48,-26
5075,-3,-244,-41,165,49,-27
5080,-6,-242,-42,166,51,-29
5085,-5,-243,-40,165,50,-30
5090,-7,-241,-40,165,49,-30
5095,-5,-240,-41,163,50,-30
5100,-6,-244,-42,162,50,-30
5105,-1,-246,-37,160,51,-29
5110,-5,-242,-39,159,50,-28
5115,-6,-245,-38,157,50,-28
5120,-6,-244,-37,157,51,-26
5125,-9,-242,-34,156,53,-24
5130,-6,-243,-37,157,54,-20
5135,-10,-244,-38,157,55,-18
5140,-12,-243,-34,157,55,-15
5145,-10,-244,-34,156,58,-12
5150,-11,-244,-33,155,60,-10
5155,-9,-249,-35,152,61,-10
5160,-11,-248,-36,153,60,-8
5165,-10,-248,-39,152,60,-9
5170,-14,-246,-39,152,59,-9
5175,-14,-248,-35,153,59,-10
5180,-11,-248,-39,154,57,-12
5185,-15,-244,-39,153,54,-13
5190,-14,-246,-38,149,52,-14
5195,-18,-239,-39,140,50,-14
5200,-17,-241,-36,126,48,-15
5205,-14,-239,-41,110,44,-15
5210,-17,-239,-42,89,41,-17
5215,-13,-235,-37,66,37,-19
5220,-17,-235,-41,43,34,-20
5225,-14,-236,-44,20,30,-23
5230,-14,-238,-42,0,31,-23
5235,-13,-238,-42,-16,30,-24
5240,-12,-239,-39,-28,31,-25
5245,-12,-241,-42,-35,31,-25
5250,-13,-244,-40,-38,30,-25
5255,-14,-244,-40,-36,29,-25
5260,-12,-244,-37,-32,28,-22
5265,-9,-244,-40,-29,27,-21
5270,-10,-246,-42,-24,26,-18
5275,-6,-244,-39,-21,25,-17
5280,-11,-243,-40,-21,25,-15
5285,-9,-244,-38,-21,24,-15
5290,-11,-243,-40,-23,25,-13
5295,-4,-246,-37,-28,25,-15
5300,-9,-245,-37,-34,25,-15
5305,-9,-245,-38,-39,25,-16
5310,-11,-245,-40,-39,27,-15
5315,-7,-245,-38,-38,25,-16
5320,-9,-246,-42,-36,26,-17
5325,-9,-249,-39,-31,23,-19
5330,-11,-248,-38,-25,21,-20
5335,-12,-247,-38,-18,20,-21
5340,-11,-249,-42,-13,16,-21
5345,-13,-250,-44,-8,13,-21
5350,-12,-247,-38,-3,10,-22
5355,-13,-242,-41,0,6,-22
5360,-14,-246,-40,0,3,-23
5365,-15,-246,-41,1,0,-24
5370,-18,-243,-42,-1,-4,-26
5375,-9,-243,-43,-4,-7,-27
5380,-14,-242,-44,-9,-9,-29
5385,-18,-240,-45,-11,-12,-31
5390,-15,-241,-42,-16,-15,-33
5395,-15,-244,-47,-19,-16,-36
5400,-12,-245,-45,-21,-16,-38
5405,-16,-246,-42,-24,-17,-39
5410,-13,-246,-44,-24,-16,-39
5415,-13,-242,-44,-25,-14,-40
5420,-13,-244,-44,-24,-12,-38
5425,-12,-244,-42,-21,-8,-37
5430,-6,-246,-41,-19,-7,-37
5435,-10,-244,-44,-17,-6,-32
5440,-8,-246,-44,-13,-2,-31
5445,-9,-247,-44,-10,-1,-26
5450,-9,-246,-43,-6,2,-23
5455,-7,-244,-43,-3,3,-19
5460,-8,-245,-49,2,4,-21
5465,-9,-246,-47,7,4,-20
5470,-5,-247,-48,10,4,-20
5475,-7,-245,-47,16,6,-18
5480,-9,-243,-50,20,7,-17
5485,-7,-248,-47,24,11,-15
5490,-8,-245,-48,26,15,-15
5495,-9,-248,-45,27,16,-17
5500,-10,-248,-49,29,17,-20
5505,-9,-247,-48,28,17,-20
5510,-10,-245,-46,28,17,-21
5515,-10,-248,-44,28,17,-23
5520,-11,-246,-47,27,15,-26
5525,-11,-247,-51,26,12,-26
5530,-12,-247,-46,26,9,-28
5535,-13,-243,-50,25,7,-29
5540,-12,-245,-48,25,3,-34
5545,-11,-247,-52,25,1,-34
5550,-9,-248,-50,24,-2,-34
5555,-10,-247,-48,23,-7,-35
5560,-12,-242,-46,23,-9,-37
5565,-13,-243,-51,22,-11,-38
5570,-6,-246,-46,22,-12,-38
5575,-10,-243,-47,19,-14,-38
5580,-12,-240,-46,19,-15,-37
5585,-11,-242,-43,15,-14,-35
5590,-9,-243,-46,14,-14,-34
5595,-7,-244,-48,13,-14,-31
5600,-8,-242,-45,12,-11,-28
5605,-8,-243,-50,11,-9,-25
5610,-3,-246,-41,12,-5,-23
5615,-8,-245,-47,13,-4,-21
5620,-7,-245,-46,16,0,-19
5625,-7,-245,-45,20,4,-20
5630,-8,-249,-47,25,6,-21
5635,-9,-247,-48,31,8,-22
5640,-7,-248,-49,35,12,-23
5645,-7,-241,-44,38,14,-27
5650,-9,-245,-53,43,16,-28
5655,-11,-244,-49,45,17,-29
5660,-10,-241,-48,46,19,-29
5665,-9,-246,-46,49,19,-29
5670,-6,-247,-49,50,19,-29
5675,-10,-246,-51,49,18,-30
5680,-6,-248,-49,48,16,-30
5685,-9,-248,-49,47,14,-30
5690,-6,-246,-50,46,13,-30
5695,-7,-252,-40,45,11,-29
5700,-6,-247,-50,44,6,-30
5705,-10,-246,-45,45,4,-31
5710,-9,-246,-48,46,1,-29
5715,-11,-242,-46,45,-1,-29
5720,-8,-243,-49,45,-2,-31
5725,-8,-245,-52,46,-2,-27
5730,-7,-245,-46,47,-2,-27
5735,-6,-245,-47,47,0,-25
5740,-7,-243,-45,47,0,-26
5745,-9,-242,-45,48,3,-25
5750,-3,-245,-48,47,5,-23
5755,-10,-245,-46,46,7,-22
5760,-8,-246,-49,46,10,-22
5765,-10,-243,-46,47,11,-22
5770,-9,-245,-44,49,12,-19
5775,-11,-243,-48,48,14,-19
5780,-13,-244,-47,48,16,-19
5785,-11,-242,-46,47,15,-20
5790,-10,-245,-45,47,16,-20
5795,-8,-242,-49,47,15,-21
5800,-9,-246,-50,47,16,-22
5805,-11,-244,-49,48,16,-21
5810,-6,-243,-49,49,15,-20
5815,-9,-244,-51,51,13,-20
5820,-8,-244,-48,53,12,-19
5825,-9,-246,-47,58,11,-22
5830,-10,-245,-50,63,10,-20
5835,-6,-247,-48,67,7,-20
5840,-9,-247,-48,70,5,-21
5845,-5,-245,-48,73,4,-23
5850,-10,-242,-49,76,5,-22
5855,-8,-245,-47,78,3,-21
5860,-6,-243,-47,79,4,-20
5865,-4,-248,-49,79,6,-20
5870,-9,-243,-50,79,8,-19
5875,-9,-244,-49,79,9,-17
5880,-6,-244,-45,79,10,-18
5885,-9,-242,-51,77,12,-17
5890,-7,-243,-47,76,13,-17
5895,-5,-243,-48,75,14,-17
5900,-7,-246,-45,74,15,-16
5905,-6,-245,-48,73,14,-15
5910,-4,-246,-48,72,12,-16
5915,-5,-248,-48,71,10,-15
5920,-7,-245,-51,68,7,-14
5925,-4,-245,-49,67,5,-16
5930,-1,-243,-48,66,3,-16
5935,-8,-244,-47,68,2,-17
5940,-7,-246,-48,70,1,-17
5945,-5,-244,-45,72,2,-14
5950,-9,-241,-46,76,4,-14
5955,-9,-243,-48,81,5,-11
5960,-7,-244,-42,86,6,-10
5965,-6,-242,-40,91,6,-8
5970,-7,-244,-47,95,6,-6
5975,-7,-246,-45,95,7,-4
5980,-9,-240,-45,93,8,-1
5985,-7,-242,-46,89,9,1
5990,-7,-246,-46,83,9,1
5995,-6,-243,-45,78,11,2
6000,-10,-243,-43,73,11,3
6005,-7,-243,-45,67,12,4
6010,-5,-244,-42,63,13,3
6015,-9,-245,-45,60,12,5
6020,-6,-246,-44,59,15,6
6025,-10,-245,-45,59,17,7
6030,-5,-246,-46,58,19,7
6035,-8,-245,-46,58,21,9
6040,-7,-243,-49,57,23,10
6045,-8,-243,-42,54,25,11
6050,-5,-241,-41,54,26,12
6055,-5,-242,-42,51,27,12
6060,-8,-242,-43,50,28,11
6065,-6,-244,-41,47,30,8
6070,-8,-245,-36,45,27,6
6075,-6,-246,-45,44,25,5
6080,-6,-247,-42,44,27,3
6085,-9,-245,-45,45,28,2
6090,-9,-248,-40,49,28,1
6095,-3,-248,-40,56,28,0
6100,-8,-246,-44,62,29,-2
6105,-6,-247,-42,69,31,-3
6110,-8,-246,-44,75,32,-4
6115,-10,-246,-41,82,31,-5
6120,-10,-250,-46,87,30,-7
6125,-10,-247,-45,92,28,-7
6130,-10,-243,-41,95,27,-10
6135,-12,-242,-42,96,24,-8
6140,-11,-243,-44,96,21,-9
6145,-11,-248,-46,98,18,-7
6150,-10,-250,-42,102,16,-5
6155,-12,-245,-45,104,13,-5
6160,-12,-245,-41,109,10,-2
6165,-11,-247,-43,113,7,-2
6170,-14,-249,-45,119,5,0
6175,-15,-249,-48,126,4,0
6180,-11,-249,-45,133,1,-1
6185,-13,-248,-45,140,0,0
6190,-11,-247,-46,146,0,1
6195,-8,-245,-46,153,0,-1
6200,-8,-248,-44,157,0,0
6205,-10,-245,-48,160,0,1
6210,-8,-245,-46,161,0,0
6215,-13,-240,-49,161,0,0
6220,-12,-242,-52,158,2,-2
6225,-8,-240,-40,153,2,-1
6230,-6,-238,-43,145,4,0
6235,-7,-231,-52,135,5,2
6240,-10,-240,-44,126,6,4
6245,-9,-241,-45,118,7,3
6250,-6,-243,-44,111,7,4
6255,-5,-243,-45,109,8,3
6260,-8,-246,-46,112,9,1
6265,-9,-246,-42,115,8,0
6270,-8,-244,-43,120,8,0
6275,-5,-248,-42,128,8,-1
6280,-6,-245,-42,134,9,-1
6285,4,-248,-47,142,8,-3
6290,-9,-249,-41,146,9,-4
6295,-9,-248,-44,151,8,-5
6300,-6,-245,-42,153,9,-4
6305,-9,-245,-43,155,8,-4
6310,-8,-243,-42,155,9,-4
6315,-9,-244,-40,155,9,-4
6320,-6,-246,-41,153,9,-5
6325,-9,-243,-44,152,9,-5
6330,-9,-244,-39,148,8,-7
6335,-9,-244,-43,147,9,-10
6340,-11,-248,-38,145,8,-13
6345,-8,-243,-40,144,7,-12
6350,-12,-246,-38,143,6,-13
6355,-7,-247,-37,142,5,-13
6360,-10,-247,-37,141,6,-13
6365,-12,-246,-39,139,7,-13
6370,-10,-249,-41,137,7,-13
6375,-11,-243,-40,134,7,-11
6380,-13,-244,-37,132,8,-11
6385,-14,-244,-37,129,7,-10
6390,-8,-247,-37,126,8,-12
6395,-11,-243,-37,126,9,-12
6400,-11,-247,-36,126,9,-12
6405,-7,-249,-36,127,11,-11
6410,-8,-249,-32,130,12,-12
6415,-9,-246,-37,130,13,-12
6420,-9,-244,-37,133,15,-11
6425,-11,-247,-37,132,17,-11
6430,-12,-244,-35,131,20,-13
6435,-12,-247,-33,129,21,-13
6440,-12,-250,-33,127,25,-14
6445,-9,-247,-30,124,28,-16
6450,-8,-247,-31,119,31,-15
6455,-8,-251,-32,115,35,-16
6460,-13,-251,-31,113,37,-18
6465,-9,-250,-32,112,39,-19
6470,-8,-248,-34,112,39,-22
6475,-8,-247,-35,114,38,-25
6480,-12,-243,-37,114,36,-29
6485,-12,-242,-38,113,35,-33
6490,-12,-238,-36,105,34,-35
6495,-13,-238,-39,95,32,-36
6500,-14,-237,-37,81,34,-34
6505,-15,-236,-36,64,34,-34
6510,-15,-236,-33,48,32,-32
6515,-18,-238,-34,34,28,-25
6520,-17,-239,-36,23,25,-18
6525,-21,-241,-34,17,20,-14
6530,-20,-245,-36,16,17,-9
6535,-17,-244,-30,19,14,-6
6540,-19,-251,-31,26,10,-2
6545,-16,-252,-29,36,9,2
6550,-18,-255,-31,50,7,1
6555,-9,-251,-31,68,9,2
6560,-15,-253,-30,85,8,-1
6565,-12,-253,-28,98,9,-5
6570,-13,-251,-33,108,11,-9
6575,-13,-248,-36,114,14,-13
6580,-11,-250,-35,114,17,-18
6585,-9,-245,-35,109,20,-23
6590,-6,-243,-36,101,24,-26
6595,-8,-244,-37,95,28,-32
6600,-8,-243,-34,89,32,-39
6605,-4,-244,-35,84,35,-43
6610,0,-246,-37,79,37,-46
6615,0,-244,-36,78,35,-50
6620,-3,-245,-35,77,33,-55
6625,-2,-249,-35,77,31,-56
6630,1,-244,-33,76,27,-55
6635,-2,-245,-35,75,20,-54
6640,-3,-245,-38,72,17,-53
6645,-5,-246,-34,68,11,-51
6650,-6,-241,-36,64,6,-50
6655,-7,-243,-31,59,0,-48
6660,-9,-243,-33,58,-4,-46
6665,-11,-241,-37,55,-9,-44
6670,-10,-242,-31,52,-13,-43
6675,-9,-241,-32,50,-17,-40
6680,-9,-245,-37,46,-21,-37
6685,-12,-242,-35,42,-21,-37
6690,-11,-244,-29,38,-21,-35
6695,-12,-242,-38,34,-22,-31
6700,-11,-239,-38,32,-21,-30
6705,-10,-242,-37,29,-20,-28
6710,-10,-244,-37,28,-17,-26
6715,-9,-245,-33,25,-14,-25
6720,-9,-246,-37,23,-10,-22
6725,-8,-242,-38,21,-6,-22
6730,-10,-244,-37,20,-2,-20
6735,-5,-247,-36,21,2,-20
6740,-6,-247,-36,22,5,-22
6745,-6,-246,-35,24,8,-22
6750,-6,-247,-38,28,10,-24
6755,-5,-249,-38,31,12,-26
6760,-1,-247,-35,34,14,-28
6765,-5,-246,-36,38,15,-27
6770,-3,-247,-35,42,17,-31
6775,-2,-247,-36,44,18,-30
6780,-3,-244,-32,45,19,-32
6785,-3,-245,-37,43,20,-32
6790,-7,-244,-38,38,20,-34
6795,-4,-244,-35,33,19,-36
6800,-4,-242,-36,26,18,-36
6805,-7,-242,-33,21,16,-36
6810,-7,-245,-37,14,13,-36
6815,-7,-242,-32,7,10,-37
6820,-12,-242,-35,2,10,-36
6825,-8,-247,-25,-3,7,-33
6830,-11,-245,-29,-6,6,-33
6835,-9,-248,-31,-6,5,-31
6840,-12,-246,-31,-3,2,-30
6845,-11,-247,-32,2,2,-29
6850,-10,-248,-32,8,-2,-28
6855,-11,-251,-32,16,-2,-27
6860,-12,-249,-34,24,-2,-26
6865,-5,-250,-37,31,-1,-28
6870,-11,-247,-32,38,1,-26
6875,-8,-248,-23,42,3,-26
6880,-7,-245,-37,44,4,-24
6885,-8,-249,-38,46,8,-26
6890,-8,-244,-37,46,12,-24
6895,-6,-244,-40,44,15,-25
6900,-6,-247,-38,44,18,-24
6905,-5,-245,-40,41,21,-24
6910,-4,-247,-39,41,23,-23
6915,-4,-246,-39,42,25,-22
6920,-2,-249,-38,43,25,-21
6925,-2,-251,-41,44,27,-20
6930,-5,-244,-37,47,29,-16
6935,-2,-249,-41,50,29,-13
6940,-3,-250,-39,53,30,-9
6945,-1,-250,-40,57,31,-9
6950,0,-249,-39,60,32,-5
6955,-1,-246,-39,63,33,-5
6960,-3,-248,-38,64,33,-3
6965,-4,-243,-39,62,33,-3
6970,-4,-244,-35,59,34,-2
6975,2,-246,-38,55,34,-1
6980,-2,-246,-36,50,34,2
6985,-2,-245,-39,46,32,3
6990,-2,-248,-41,43,32,4
6995,-1,-243,-39,40,31,6
7000,-2,-247,-38,39,30,7
7005,-1,-247,-41,39,29,7
7010,-2,-248,-41,39,28,7
7015,-2,-245,-38,38,26,7
7020,-2,-247,-44,39,25,8
7025,-1,-249,-38,38,22,7
7030,-5,-251,-41,39,20,6
7035,-3,-247,-41,41,17,9
7040,0,-250,-41,42,14,7
7045,-4,-248,-41,45,12,6
7050,-3,-251,-40,46,10,8
7055,-7,-246,-45,49,6,8
7060,-6,-246,-45,52,5,7
7065,-6,-246,-41,53,4,6
7070,-4,-248,-40,53,3,9
7075,-3,-248,-45,51,2,7
7080,-7,-243,-48,49,3,5
7085,-6,-247,-46,48,4,3
7090,-5,-245,-41,46,6,4
7095,-6,-245,-41,44,8,6
7100,-1,-248,-39,44,11,6
7105,-5,-246,-38,44,15,8
7110,-3,-250,-39,45,19,8
7115,-6,-246,-42,47,23,8
7120,-10,-244,-41,48,25,10
7125,-5,-247,-40,51,28,12
7130,-5,-246,-37,55,31,14
7135,-6,-244,-40,60,32,16
7140,-7,-244,-36,63,33,17
7145,-5,-242,-47,67,34,19
7150,-3,-247,-42,70,35,20
7155,-5,-245,-40,73,37,22
7160,-6,-245,-38,75,38,26
7165,-8,-242,-37,76,41,29
7170,-5,-245,-38,76,42,32
7175,-6,-245,-40,74,44,36
7180,-3,-246,-36,72,47,37
7185,-7,-244,-36,70,49,37
7190,-8,-248,-38,69,49,39
7195,-4,-243,-35,68,50,40
7200,-3,-249,-37,69,50,39
7205,-2,-249,-35,72,48,39
7210,-8,-243,-40,74,46,37
7215,-4,-250,-39,76,41,36
7220,-6,-245,-36,75,36,35
7225,-10,-245,-37,74,32,33
7230,-7,-245,-33,73,26,32
7235,-9,-244,-36,73,22,29
7240,-11,-244,-35,70,16,29
7245,-9,-246,-38,68,14,28
7250,-9,-243,-38,67,12,28
7255,-9,-245,-34,67,9,27
7260,-12,-246,-39,68,8,24
7265,-13,-244,-32,70,7,26
7270,-11,-246,-35,71,7,27
7275,-11,-247,-29,71,8,28
7280,-9,-249,-32,71,10,30
7285,-8,-246,-30,70,12,34
7290,-9,-244,-33,69,13,35
7295,-6,-244,-29,68,15,35
7300,-7,-247,-33,65,17,37
7305,-8,-244,-29,63,19,37
7310,-6,-245,-31,61,21,35
7315,-7,-246,-29,57,22,33
7320,-9,-246,-32,52,24,32
7325,-8,-245,-35,47,27,29
7330,-8,-247,-32,43,30,29
7335,-7,-244,-33,38,31,26
7340,-10,-245,-34,35,32,22
7345,-9,-244,-38,33,34,22
7350,-9,-246,-34,29,35,21
7355,-12,-245,-34,27,34,22
7360,-14,-243,-36,27,35,19
7365,-13,-246,-35,26,33,19
7370,-14,-248,-32,26,32,21
7375,-16,-245,-35,27,32,22
7380,-15,-248,-38,28,31,25
7385,-15,-246,-34,30,30,28
7390,-15,-246,-35,32,30,27
7395,-17,-247,-38,34,30,29
7400,-16,-244,-32,35,32,30
7405,-13,-247,-34,34,32,30
7410,-16,-248,-33,34,33,30
7415,-13,-247,-36,31,33,29
7420,-17,-245,-32,30,34,29
7425,-15,-242,-29,27,36,28
7430,-15,-243,-32,26,35,29
7435,-13,-248,-32,24,37,27
7440,-16,-245,-33,22,38,26
7445,-17,-243,-33,21,39,24
7450,-13,-245,-38,18,40,24
7455,-14,-241,-36,16,40,23
7460,-16,-243,-35,14,41,22
7465,-11,-240,-32,13,41,18
7470,-14,-242,-36,13,41,17
7475,-12,-243,-32,12,41,15
7480,-15,-243,-35,10,41,15
7485,-14,-244,-39,10,41,14
7490,-15,-243,-38,9,43,13
7495,-17,-243,-37,7,44,12
7500,-19,-243,-35,6,44,11
7505,-18,-245,-38,3,46,12
7510,-16,-243,-40,2,47,11
7515,-14,-244,-37,1,46,11
7520,-18,-243,-39,-2,45,12
7525,-14,-245,-40,-4,47,11
7530,-16,-246,-39,-5,47,10
7535,-12,-247,-38,-6,46,8
7540,-14,-246,-38,-7,46,9
7545,-15,-249,-38,-7,45,7
7550,-14,-244,-43,-6,45,7
7555,-14,-245,-41,-4,44,4
7560,-11,-247,-39,-2,42,3
7565,-12,-247,-36,0,40,3
7570,-14,-250,-37,2,40,4
7575,-16,-246,-42,4,38,2
7580,-10,-245,-43,3,35,0
7585,-15,-245,-40,4,32,-1
7590,-12,-245,-41,2,30,-2
7595,-11,-245,-42,2,30,-3
7600,-10,-248,-39,1,29,-3
7605,-12,-249,-39,0,27,-3
7610,-11,-248,-39,0,27,-4
7615,-14,-244,-38,-1,26,-5
7620,-12,-242,-38,-2,28,-5
7625,-15,-244,-42,-3,26,-4
7630,-11,-248,-41,-3,28,-7
7635,-12,-245,-41,-5,28,-7
7640,-16,-244,-42,-6,29,-9
7645,-12,-242,-44,-7,29,-8
7650,-10,-245,-42,-8,31,-9
7655,-13,-242,-44,-9,31,-9
7660,-15,-244,-37,-10,33,-10
7665,-10,-248,-43,-11,33,-10
7670,-11,-243,-43,-12,34,-12
7675,-8,-247,-39,-14,36,-12
7680,-12,-242,-41,-17,37,-11
7685,-12,-248,-43,-21,37,-11
7690,-9,-243,-41,-25,38,-9
7695,-10,-242,-41,-30,36,-9
7700,-15,-243,-43,-36,34,-7
7705,-14,-242,-41,-43,32,-8
7710,-13,-243,-40,-49,29,-7
7715,-11,-241,-41,-52,25,-8
7720,-12,-244,-43,-55,22,-8
7725,-14,-245,-46,-57,18,-7
7730,-12,-248,-40,-55,17,-9
7735,-11,-236,-41,-49,15,-8
7740,-12,-246,-41,-40,11,-10
7745,-11,-249,-37,-31,8,-11
7750,-11,-252,-44,-23,8,-13
7755,-11,-251,-40,-13,7,-14
7760,-10,-248,-44,-4,7,-17
7765,-12,-248,-44,4,5,-18
7770,-13,-250,-46,11,4,-21
7775,-15,-248,-43,18,3,-21
7780,-13,-251,-46,24,1,-23
7785,-4,-245,-43,31,-1,-25
7790,-12,-251,-44,39,-4,-25
7795,-12,-251,-42,47,-5,-26
7800,-12,-248,-47,54,-6,-24
7805,-15,-248,-49,63,-6,-23
7810,-10,-252,-49,69,-6,-21
7815,-12,-247,-49,76,-5,-15
7820,-11,-249,-49,82,-4,-14
7825,-14,-246,-48,88,-4,-11
7830,-14,-247,-46,93,-3,-9
7835,-8,-246,-49,97,-3,-8
7840,-13,-245,-50,99,-4,-8
7845,-10,-245,-49,100,-3,-6
7850,-11,-243,-48,101,-2,-6
7855,-11,-245,-48,101,-3,-6
7860,-11,-245,-46,101,-1,-6
7865,-10,-246,-49,98,0,-6
7870,-13,-240,-50,94,2,-6
7875,-12,-241,-51,89,3,-7
7880,-10,-246,-46,84,4,-8
7885,-9,-243,-48,79,6,-8
7890,-14,-243,-46,75,8,-11
7895,-12,-241,-45,73,10,-9
7900,-12,-242,-43,71,13,-9
7905,-14,-242,-46,70,16,-9
7910,-11,-245,-45,71,19,-8
7915,-9,-244,-43,72,21,-8
7920,-8,-242,-42,73,22,-9
7925,-10,-244,-45,73,24,-8
7930,-12,-244,-42,73,26,-9
7935,-11,-244,-40,74,27,-7
7940,-11,-246,-41,72,27,-7
7945,-12,-244,-43,72,27,-7
7950,-9,-245,-46,72,27,-8
7955,-9,-244,-45,73,26,-8
7960,-10,-247,-39,73,24,-8
7965,-12,-246,-43,74,21,-10
7970,-10,-245,-44,75,21,-11
7975,-14,-243,-42,74,20,-13
7980,-13,-245,-40,74,18,-15
7985,-12,-243,-39,73,18,-17
7990,-13,-247,-40,74,15,-19
7995,-14,-245,-40,76,13,-21
8000,-15,-245,-41,77,12,-22
8005,-17,-248,-37,79,11,-24
8010,-18,-246,-39,81,11,-25
8015,-16,-246,-38,83,10,-26
8020,-15,-245,-43,85,12,-26
8025,-15,-245,-37,87,12,-26
8030,-15,-246,-37,91,13,-25
8035,-19,-247,-39,93,14,-25
8040,-15,-244,-36,95,15,-24
8045,-14,-245,-41,96,16,-25
8050,-15,-242,-37,96,18,-24
8055,-9,-238,-36,96,20,-24
8060,-14,-244,-34,97,20,-24
8065,-14,-245,-35,96,21,-24
8070,-16,-244,-36,94,21,-22
8075,-12,-247,-34,93,21,-25
8080,-13,-245,-37,93,21,-25
8085,-12,-245,-37,93,21,-24
8090,-15,-245,-41,92,20,-25
8095,-13,-245,-41,92,22,-26
8100,-14,-247,-41,93,20,-27
8105,-16,-244,-40,91,20,-28
8110,-15,-246,-39,91,18,-27
8115,-13,-245,-39,87,17,-29
8120,-9,-244,-41,84,15,-29
8125,-14,-243,-41,82,13,-31
8130,-15,-246,-39,80,12,-30
8135,-13,-245,-42,77,9,-30
8140,-10,-245,-41,77,8,-29
8145,-12,-243,-43,75,6,-26
8150,-12,-246,-44,75,6,-25
8155,-11,-243,-40,73,6,-26
8160,-14,-243,-41,73,6,-23
8165,-11,-242,-43,74,7,-22
8170,-12,-242,-41,74,6,-21
8175,-8,-242,-41,75,6,-18
8180,-10,-245,-41,77,6,-18
8185,-10,-244,-44,79,7,-17
8190,-10,-243,-40,81,7,-17
8195,-10,-242,-44,84,6,-18
8200,-7,-243,-44,83,6,-19
8205,-6,-245,-44,83,7,-18
8210,-7,-245,-41,84,8,-20
8215,-9,-247,-42,84,8,-20
8220,-8,-245,-43,83,9,-21
8225,-10,-246,-43,80,8,-23
8230,-8,-245,-39,79,6,-25
8235,-7,-244,-42,79,7,-23
8240,-9,-243,-38,79,6,-23
8245,-8,-248,-36,79,6,-22
8250,-9,-245,-38,81,4,-21
8255,-7,-247,-38,81,3,-20
8260,-12,-243,-37,81,4,-21
8265,-11,-244,-43,80,3,-22
8270,-10,-246,-40,78,3,-21
8275,-11,-245,-37,78,2,-21
8280,-12,-241,-39,76,2,-20
8285,-7,-249,-38,74,5,-20
8290,-14,-244,-39,72,6,-20
8295,-9,-248,-41,71,7,-18
8300,-9,-243,-39,71,10,-18
8305,-7,-248,-38,72,12,-18
8310,-10,-246,-35,75,12,-19
8315,-5,-249,-39,76,14,-21
8320,-7,-245,-35,79,14,-19
8325,-8,-246,-28,81,15,-20
8330,-8,-248,-38,82,17,-20
8335,-8,-247,-36,83,18,-20
8340,-7,-247,-39,85,20,-21
8345,-7,-246,-39,85,20,-22
8350,-7,-245,-38,84,20,-20
8355,-9,-243,-34,85,19,-20
8360,-4,-249,-35,88,18,-21
8365,-11,-244,-35,89,16,-21
8370,-9,-247,-36,93,16,-21
8375,-7,-245,-22,97,13,-23
8380,-10,-244,-36,101,12,-22
8385,-9,-247,-35,104,12,-22
8390,-13,-245,-32,108,11,-20
8395,-12,-243,-35,110,11,-20
8400,-11,-241,-35,113,9,-21
8405,-11,-245,-35,112,9,-19
8410,-13,-241,-35,112,7,-19
8415,-12,-245,-36,109,5,-19
8420,-13,-242,-36,108,3,-20
8425,-14,-246,-36,105,3,-21
8430,-16,-246,-36,102,3,-19
8435,-14,-246,-35,98,0,-20
8440,-14,-244,-37,97,1,-21
8445,-15,-245,-32,96,-1,-22
8450,-13,-249,-34,96,-2,-21
8455,-15,-244,-35,95,-3,-22
8460,-17,-244,-36,97,-2,-23
8465,-14,-246,-35,96,-2,-22
8470,-10,-248,-37,95,0,-22
8475,-12,-244,-39,93,2,-20
8480,-10,-244,-35,88,4,-20
8485,-12,-246,-40,83,7,-20
8490,-8,-248,-35,77,15,-20
8495,-11,-243,-32,71,19,-22
8500,-10,-245,-32,68,23,-22
8505,-9,-244,-35,64,26,-21
8510,-8,-244,-34,60,28,-20
8515,-6,-247,-39,58,30,-21
8520,-6,-251,-41,55,28,-22
8525,-6,-245,-34,54,28,-20
8530,-4,-246,-40,50,26,-21
8535,-6,-247,-35,48,25,-22
8540,-5,-247,-35,46,24,-23
8545,-3,-245,-36,43,22,-24
8550,-2,-247,-36,43,22,-24
8555,-3,-246,-37,43,22,-22
8560,1,-249,-39,44,24,-22
8565,-2,-249,-38,47,25,-19
8570,0,-246,-39,52,26,-16
8575,0,-249,-37,58,28,-13
8580,0,-243,-38,64,30,-10
8585,-1,-247,-40,69,31,-8
8590,0,-247,-38,71,33,-6
8595,-3,-246,-38,71,35,-1
8600,-2,-249,-41,71,37,3
8605,-3,-247,-39,70,39,5
8610,0,-247,-38,68,43,8
8615,-5,-246,-42,67,47,8
8620,-5,-247,-36,68,52,8
8625,-7,-244,-37,69,55,9
8630,-5,-249,-42,71,60,12
8635,-11,-248,-40,75,65,14
8640,-12,-250,-40,80,68,14
8645,5,-252,-40,86,72,16
8650,-8,-250,-41,92,77,15
8655,-11,-248,-41,98,80,15
8660,-8,-253,-45,103,86,14
8665,-10,-250,-42,108,88,18
8670,-11,-247,-41,114,91,19
8675,-9,-246,-42,117,93,20
8680,-7,-245,-44,121,96,19
8685,-10,-247,-41,125,97,19
8690,-12,-246,-40,128,98,19
8695,-15,-236,-46,130,97,17
8700,-12,-243,-39,132,96,18
8705,-15,-242,-35,131,94,18
8710,-12,-242,-36,129,91,18
8715,-13,-241,-34,126,87,17
8720,-14,-242,-35,120,83,16
8725,-18,-241,-34,113,78,17
8730,-17,-244,-30,106,73,17
8735,-16,-243,-28,99,69,17
8740,-14,-243,-33,92,64,20
8745,-17,-242,-31,87,58,20
8750,-18,-244,-27,83,52,21
8755,-14,-243,-28,81,46,19
8760,-13,-243,-23,81,37,19
8765,-18,-246,-27,81,29,19
8770,-15,-244,-26,82,21,19
8775,-21,-242,-27,81,13,20
8780,-20,-245,-31,79,7,17
8785,-20,-246,-28,75,0,16
8790,-19,-245,-32,70,-3,15
8795,-17,-248,-31,66,-6,14
8800,-18,-245,-33,61,-9,11
8805,-18,-246,-35,58,-10,12
8810,-17,-249,-34,56,-11,12
8815,-17,-247,-33,56,-14,15
8820,-20,-247,-36,58,-14,15
8825,-19,-247,-36,61,-16,16
8830,-19,-244,-35,64,-19,17
8835,-19,-247,-34,66,-22,18
8840,-24,-244,-38,68,-24,18
8845,-16,-245,-38,69,-26,18
8850,-18,-247,-36,68,-27,19
8855,-15,-247,-34,68,-28,21
8860,-16,-247,-32,67,-30,22
8865,-14,-246,-37,64,-32,22
8870,-17,-246,-33,65,-33,22
8875,-18,-246,-33,65,-36,21
8880,-14,-247,-28,67,-38,22
8885,-15,-248,-31,70,-38,22
8890,-16,-247,-29,72,-37,22
8895,-17,-248,-33,74,-38,20
8900,-12,-247,-34,75,-38,19
8905,-14,-245,-32,76,-38,18
8910,-15,-246,-30,77,-39,16
8915,-16,-243,-34,76,-41,13
8920,-16,-245,-31,76,-42,11
8925,-15,-242,-31,74,-44,7
8930,-16,-245,-39,73,-44,8
8935,-15,-243,-29,72,-46,6
8940,-16,-247,-33,70,-47,4
8945,-14,-245,-37,70,-49,2
8950,-15,-247,-34,70,-50,-1
8955,-13,-249,-34,70,-50,-3
8960,-17,-248,-34,72,-51,-4
8965,-13,-240,-38,74,-50,-6
8970,-15,-246,-39,77,-49,-6
8975,-15,-248,-34,79,-49,-8
8980,-16,-247,-35,80,-49,-8
8985,-16,-247,-36,83,-49,-12
8990,-12,-248,-35,85,-48,-13
8995,-17,-247,-35,85,-47,-16
9000,-14,-246,-37,85,-45,-17
9005,-13,-246,-37,85,-44,-17
9010,-13,-247,-33,82,-43,-19
9015,-8,-248,-33,81,-41,-19
9020,-12,-244,-37,81,-37,-22
9025,-12,-248,-34,80,-35,-21
9030,-8,-244,-34,79,-33,-22
9035,-10,-247,-32,77,-28,-21
9040,-10,-246,-31,75,-23,-21
9045,-9,-242,-33,72,-18,-20
9050,-7,-246,-33,69,-14,-19
9055,-9,-246,-31,69,-9,-18
9060,-9,-244,-29,68,-5,-18
9065,-6,-247,-28,68,-1,-18
9070,-10,-247,-28,67,3,-18
9075,-8,-244,-31,69,5,-18
9080,-10,-248,-33,68,8,-20
9085,-13,-246,-29,70,7,-23
9090,-7,-248,-30,70,9,-24
9095,-8,-249,-28,69,8,-25
9100,-9,-250,-30,71,7,-26
9105,-8,-250,-27,70,7,-28
9110,-13,-245,-33,69,7,-30
9115,-9,-245,-26,68,7,-32
9120,-14,-244,-28,68,7,-32
9125,-8,-248,-30,69,7,-32
9130,-13,-247,-33,69,9,-30
9135,-11,-246,-34,70,8,-32
9140,-11,-247,-27,70,9,-32
9145,-13,-244,-32,69,12,-34
9150,-12,-244,-32,67,13,-34
9155,-11,-243,-31,64,15,-34
9160,-10,-248,-30,60,17,-33
9165,-11,-246,-31,57,21,-33
9170,-10,-248,-28,58,26,-34
9175,-12,-246,-32,60,30,-30
9180,-14,-247,-32,63,34,-29
9185,-11,-250,-29,67,39,-24
9190,-9,-249,-30,71,42,-23
9195,-11,-246,-30,72,46,-24
9200,-9,-245,-36,76,47,-22
9205,-7,-245,-31,78,48,-22
9210,-10,-243,-33,78,48,-23
9215,-9,-245,-33,77,46,-24
9220,-11,-244,-31,75,45,-22
9225,-8,-245,-30,73,43,-22
9230,-11,-247,-31,71,43,-23
9235,-8,-243,-31,70,42,-23
9240,-9,-245,-28,70,41,-23
9245,-6,-247,-31,71,40,-23
9250,-7,-244,-29,70,39,-24
9255,-6,-247,-28,69,37,-23
9260,-11,-247,-28,68,36,-24
9265,-9,-247,-29,65,35,-22
9270,-13,-244,-25,64,33,-23
9275,-12,-244,-31,60,32,-22
9280,-14,-247,-26,58,30,-21
9285,-12,-251,-32,56,30,-20
9290,-13,-245,-28,55,28,-21
9295,-10,-246,-29,55,28,-21
9300,-12,-244,-31,53,28,-21
9305,-10,-246,-31,53,27,-19
9310,-12,-243,-30,51,25,-18
9315,-10,-249,-31,49,25,-17
9320,-14,-246,-32,47,26,-18
9325,-10,-248,-31,46,24,-17
9330,-13,-246,-33,46,23,-15
9335,-10,-247,-33,45,22,-15
9340,-14,-248,-30,47,23,-14
9345,-12,-246,-31,47,23,-13
9350,-12,-246,-27,47,24,-13
9355,-9,-249,-30,48,26,-12
9360,-13,-249,-31,48,27,-13
9365,-12,-245,-31,51,28,-12
9370,-11,-248,-31,51,27,-11
9375,-12,-243,-30,51,28,-12
9380,-12,-242,-36,53,26,-12
9385,-11,-245,-27,53,27,-11
9390,-11,-246,-32,52,26,-8
9395,-13,-245,-30,52,25,-10
9400,-12,-249,-26,50,23,-10
9405,-13,-250,-32,47,21,-9
9410,-10,-246,-36,45,20,-7
9415,-10,-246,-28,43,18,-8
9420,-12,-246,-29,41,17,-7
9425,-10,-248,-29,40,17,-7
9430,-14,-243,-28,39,17,-6
9435,-12,-244,-31,39,17,-4
9440,-13,-246,-29,38,16,-4
9445,-9,-249,-30,37,13,-2
9450,-10,-248,-30,39,12,-3
9455,-14,-243,-30,36,12,-1
9460,-7,-246,-29,36,12,-1
9465,-9,-246,-29,36,12,-1
9470,-10,-246,-33,36,12,1
9475,-12,-243,-30,34,12,1
9480,-9,-244,-34,35,13,2
9485,-10,-246,-27,35,13,2
9490,-12,-245,-32,35,13,1
9495,-15,-246,-29,34,13,-1
9500,-11,-247,-30,33,13,-1
9505,-9,-245,-30,31,12,0
9510,-11,-248,-27,32,12,-2
9515,-13,-246,-29,30,11,-3
9520,-12,-244,-29,29,9,-5
9525,-10,-242,-31,27,8,-7
9530,-16,-242,-32,24,7,-8
9535,-11,-244,-26,22,7,-9
9540,-11,-249,-30,20,6,-12
9545,-11,-245,-30,18,4,-12
9550,-9,-247,-29,17,3,-13
9555,-11,-244,-31,18,2,-13
9560,-13,-245,-34,19,1,-16
9565,-7,-247,-31,21,-1,-15
9570,-11,-246,-29,26,1,-15
9575,-11,-250,-35,28,1,-15
9580,-9,-251,-35,30,0,-14
9585,-10,-250,-34,34,1,-15
9590,-12,-244,-37,37,3,-17
9595,-8,-245,-34,39,5,-17
9600,-9,-248,-35,40,6,-15
9605,-14,-249,-37,41,8,-14
9610,-9,-247,-40,43,11,-14
9615,-11,-246,-35,43,14,-12
9620,-10,-250,-36,42,17,-10
9625,-5,-248,-39,41,19,-7
9630,-8,-248,-35,43,22,-5
9635,-11,-247,-36,41,26,-4
9640,-12,-246,-35,41,30,-1
9645,-10,-248,-37,40,31,2
9650,-8,-246,-35,38,36,4
9655,-10,-245,-37,36,40,7
9660,-12,-247,-33,34,42,7
9665,-7,-248,-35,32,44,9
9670,-11,-246,-35,29,45,10
9675,-9,-246,-28,29,46,11
9680,-14,-249,-33,28,47,14
9685,-10,-246,-35,28,49,14
9690,-7,-246,-33,31,49,16
9695,-10,-249,-32,33,49,17
9700,-10,-249,-32,36,50,17
9705,-10,-247,-32,38,49,16
9710,-12,-249,-34,39,48,14
9715,-10,-246,-31,42,47,13
9720,-12,-247,-33,44,45,12
9725,-13,-247,-30,46,45,11
9730,-12,-244,-34,48,44,11
9735,-13,-244,-32,49,42,9
9740,-15,-243,-31,50,40,9
9745,-13,-246,-33,49,39,8
9750,-11,-244,-31,47,38,8
9755,-10,-246,-32,46,36,8
9760,-13,-245,-33,44,35,7
9765,-12,-245,-33,41,34,6
9770,-14,-244,-33,38,34,8
9775,-17,-245,-32,33,35,7
9780,-16,-246,-33,32,36,7
9785,-16,-244,-33,31,35,7
9790,-17,-244,-29,29,36,8
9795,-17,-243,-32,26,37,6
9800,-17,-247,-28,23,37,8
9805,-17,-249,-31,20,36,6
9810,-18,-247,-28,17,34,6
9815,-16,-248,-32,14,34,6
9820,-18,-248,-30,11,33,4
9825,-18,-248,-34,8,32,5
9830,-18,-247,-35,8,28,6
9835,-16,-249,-33,9,26,7
9840,-16,-249,-37,11,23,8
9845,-17,-249,-34,14,20,10
9850,-15,-247,-35,18,17,12
9855,-15,-247,-32,22,13,12
9860,-13,-247,-34,26,13,12
9865,-15,-244,-35,28,10,11
9870,-15,-245,-33,29,8,10
9875,-15,-243,-36,28,7,7
9880,-13,-245,-34,26,6,6
9885,-14,-244,-33,25,5,4
9890,-14,-239,-35,22,7,5
9895,-17,-244,-31,21,7,2
9900,-15,-246,-34,20,9,1
9905,-12,-244,-37,20,8,2
9910,-16,-245,-32,19,9,0
9915,-16,-248,-34,18,9,-1
9920,-15,-250,-32,17,9,-2
9925,-16,-232,-36,15,9,-1
9930,-16,-248,-36,14,8,-4
9935,-14,-248,-32,12,8,-4
9940,-15,-246,-37,10,6,-4
9945,-13,-244,-33,12,4,-5
9950,-17,-244,-33,12,3,-7
9955,-17,-246,-36,14,2,-9
9960,-16,-246,-36,18,0,-11
9965,-18,-245,-33,19,-1,-13
9970,-16,-246,-37,20,-4,-15
9975,-14,-248,-37,19,-6,-16
9980,-14,-243,-37,17,-8,-18
9985,-13,-246,-37,14,-9,-19
9990,-15,-241,-35,11,-10,-21
9995,-13,-240,-36,9,-11,-22
