timestamp,acc_x,acc_y,acc_z,gyro_x,gyro_y,gyro_z
0,27,-229,-111,4,63,0
5,30,-227,-112,1,62,1
10,30,-228,-110,-2,62,-3
15,29,-227,-112,-6,60,-2
20,26,-230,-109,-8,58,-6
25,30,-229,-108,-9,58,-2
30,28,-230,-111,-12,55,-5
35,29,-228,-113,-13,53,-2
40,29,-229,-113,-13,51,-3
45,28,-230,-111,-14,50,-1
50,29,-232,-111,-12,50,-1
55,30,-233,-108,-8,49,2
60,31,-232,-108,-6,49,-3
65,27,-234,-110,-1,51,-1
70,28,-232,-108,3,49,-6
75,29,-236,-108,8,52,-5
80,30,-234,-106,12,51,-11
85,28,-231,-107,15,54,-12
90,31,-238,-108,15,54,-17
95,25,-234,-104,13,54,-17
100,26,-232,-107,11,56,-20
105,25,-234,-107,7,58,-22
110,25,-235,-106,-1,58,-27
115,26,-239,-107,-7,57,-25
120,23,-235,-105,-12,56,-28
125,28,-233,-112,-18,54,-25
130,34,-227,-97,-23,54,-25
135,29,-230,-109,-23,52,-21
140,22,-241,-108,-23,53,-22
145,27,-243,-113,-21,52,-18
150,29,-233,-102,-17,54,-17
155,21,-235,-111,-10,52,-15
160,27,-229,-110,-3,56,-15
165,33,-233,-111,3,58,-13
170,23,-232,-116,7,59,-16
175,30,-229,-108,9,62,-15
180,21,-233,-120,8,62,-20
185,28,-225,-108,3,64,-18
190,25,-227,-124,-2,64,-23
195,49,-217,-108,-11,62,-22
200,28,-228,-108,-19,60,-25
205,25,-227,-112,-28,58,-23
210,27,-225,-113,-37,56,-27
215,29,-229,-110,-44,54,-24
220,32,-227,-110,-48,49,-27
225,28,-227,-114,-50,47,-24
230,28,-228,-112,-48,45,-26
235,32,-230,-115,-44,42,-25
240,32,-232,-114,-40,37,-29
245,31,-228,-106,-34,34,-30
250,30,-236,-113,-26,31,-36
255,33,-229,-112,-20,28,-36
260,34,-232,-113,-12,27,-41
265,34,-231,-111,-6,26,-42
270,33,-230,-113,1,24,-46
275,34,-233,-110,2,26,-46
280,33,-228,-114,1,26,-51
285,34,-230,-112,-2,27,-46
290,36,-230,-112,-5,27,-48
295,34,-228,-108,-11,28,-44
300,36,-226,-108,-17,29,-43
305,35,-230,-107,-21,32,-37
310,35,-231,-112,-26,34,-33
315,36,-229,-113,-31,39,-25
320,35,-230,-111,-33,41,-20
325,34,-231,-110,-36,44,-12
330,35,-230,-112,-36,47,-10
335,37,-232,-111,-33,50,-2
340,35,-231,-108,-33,56,0
345,36,-234,-111,-30,61,6
350,36,-235,-115,-26,64,5
355,35,-235,-115,-19,71,7
360,37,-231,-114,-12,77,5
365,39,-233,-112,-6,84,3
370,39,-231,-114,0,91,-1
375,38,-232,-116,6,98,-2
380,35,-231,-110,12,106,-8
385,36,-230,-111,16,112,-9
390,37,-228,-112,19,115,-13
395,34,-229,-112,19,118,-13
400,34,-225,-114,19,120,-15
405,33,-230,-114,15,118,-13
410,32,-229,-112,13,115,-14
415,30,-230,-113,8,111,-9
420,30,-226,-107,1,103,-9
425,29,-225,-108,-8,97,-5
430,28,-225,-109,-16,92,-3
435,26,-227,-109,-27,84,1
440,26,-232,-107,-34,79,0
445,26,-229,-109,-40,76,3
450,29,-233,-108,-42,72,3
455,25,-234,-108,-43,71,8
460,24,-233,-109,-41,72,8
465,25,-234,-111,-36,71,12
470,24,-232,-110,-30,72,11
475,24,-236,-108,-27,73,14
480,21,-235,-112,-20,72,12
485,21,-235,-108,-16,76,15
490,25,-234,-112,-10,78,13
495,22,-235,-114,-5,79,12
500,27,-234,-107,-3,81,7
505,22,-232,-109,-3,84,6
510,25,-232,-114,-5,87,2
515,24,-232,-113,-7,90,-2
520,25,-230,-111,-10,94,-6
525,28,-230,-109,-12,96,-8
530,28,-229,-110,-16,98,-11
535,28,-228,-108,-21,98,-8
540,29,-228,-112,-24,99,-9
545,29,-232,-113,-27,100,-4
550,28,-230,-110,-32,101,-1
555,27,-233,-111,-34,99,3
560,32,-231,-110,-37,97,4
565,29,-228,-108,-37,96,9
570,32,-232,-109,-36,92,9
575,31,-231,-108,-32,89,13
580,32,-230,-108,-26,88,12
585,34,-229,-110,-21,87,13
590,33,-233,-111,-16,85,12
595,35,-232,-112,-9,86,14
600,31,-233,-111,-2,86,11
605,32,-233,-109,3,85,11
610,34,-230,-114,6,87,6
615,35,-234,-111,9,88,8
620,34,-232,-108,9,89,5
625,34,-230,-109,7,93,6
630,35,-231,-110,3,94,4
635,34,-231,-107,-2,94,7
640,36,-232,-111,-6,96,4
645,32,-230,-109,-12,95,7
650,35,-231,-111,-16,96,5
655,34,-229,-111,-20,93,7
660,34,-231,-110,-22,92,3
665,32,-230,-105,-25,90,6
670,32,-230,-109,-26,87,2
675,32,-230,-106,-27,85,3
680,32,-231,-106,-27,83,-1
685,31,-232,-109,-26,80,0
690,34,-230,-108,-25,76,-3
695,34,-232,-108,-23,74,-1
700,30,-229,-109,-23,68,-4
705,33,-232,-108,-23,65,-2
710,36,-231,-108,-23,60,-4
715,34,-231,-108,-25,57,0
720,31,-228,-112,-31,51,-3
725,31,-230,-110,-34,47,1
730,31,-230,-114,-37,45,-2
735,32,-230,-112,-40,41,0
740,32,-229,-113,-42,37,-2
745,32,-228,-115,-44,36,-2
750,31,-232,-113,-42,35,-6
755,31,-234,-111,-39,35,-6
760,32,-231,-112,-35,34,-11
765,31,-234,-109,-30,35,-12
770,31,-232,-113,-26,35,-16
775,33,-232,-112,-22,35,-15
780,30,-230,-114,-18,37,-19
785,32,-234,-113,-14,36,-16
790,31,-233,-111,-14,37,-18
795,31,-231,-117,-13,38,-17
800,31,-231,-112,-12,36,-18
805,31,-230,-113,-13,34,-14
810,31,-233,-112,-12,34,-15
815,29,-232,-112,-12,36,-12
820,30,-231,-115,-13,36,-12
825,31,-232,-110,-14,33,-10
830,29,-230,-110,-14,33,-12
835,29,-231,-109,-16,35,-8
840,28,-231,-107,-16,35,-10
845,29,-230,-111,-18,34,-9
850,32,-229,-113,-20,35,-11
855,29,-231,-110,-22,34,-9
860,28,-233,-110,-25,35,-10
865,28,-233,-111,-27,35,-8
870,31,-230,-108,-29,37,-9
875,28,-230,-108,-29,37,-6
880,28,-229,-112,-29,37,-7
885,29,-232,-110,-27,39,-6
890,28,-230,-114,-25,40,-7
895,30,-233,-115,-22,43,-3
900,28,-230,-112,-21,43,-4
905,31,-233,-111,-17,45,-4
910,29,-232,-114,-14,46,-6
915,32,-231,-110,-11,48,-4
920,32,-233,-109,-11,49,-8
925,31,-233,-115,-9,51,-8
930,29,-232,-111,-8,52,-11
935,27,-228,-114,-7,52,-8
940,28,-230,-109,-7,53,-12
945,31,-231,-112,-6,55,-13
950,30,-231,-113,-5,57,-13
955,29,-229,-112,-5,59,-13
960,29,-229,-114,-4,61,-13
965,28,-232,-108,-5,62,-10
970,32,-232,-112,-5,63,-11
975,30,-229,-108,-6,65,-7
980,30,-232,-111,-8,68,-7
985,32,-229,-107,-9,69,-3
990,31,-230,-105,-11,70,-3
995,31,-230,-112,-13,70,1
1000,29,-225,-110,-14,72,2
1005,32,-229,-109,-15,73,6
1010,32,-230,-108,-17,75,5
1015,32,-229,-109,-18,77,8
1020,30,-228,-106,-21,77,5
1025,33,-232,-106,-24,77,9
1030,31,-231,-111,-28,78,6
1035,32,-230,-113,-31,78,7
1040,30,-228,-109,-35,80,5
1045,32,-231,-112,-37,80,5
1050,34,-230,-111,-40,79,2
1055,33,-232,-111,-45,80,2
1060,31,-229,-110,-48,79,-2
1065,31,-230,-112,-51,78,-2
1070,34,-229,-115,-51,77,-5
1075,32,-232,-114,-53,73,-4
1080,33,-230,-114,-51,71,-8
1085,33,-233,-113,-48,69,-7
1090,32,-230,-109,-48,67,-10
1095,32,-230,-108,-46,66,-7
1100,31,-230,-113,-42,63,-11
1105,31,-232,-113,-39,63,-7
1110,32,-230,-113,-34,60,-10
1115,31,-231,-112,-29,58,-7
1120,33,-230,-114,-26,56,-6
1125,30,-231,-111,-24,55,-3
1130,31,-233,-114,-24,56,-5
1135,30,-232,-115,-23,55,-2
1140,31,-232,-112,-23,55,-3
1145,31,-230,-111,-24,53,0
1150,30,-230,-114,-26,54,-1
1155,31,-229,-112,-25,54,0
1160,32,-230,-108,-25,54,0
1165,28,-230,-113,-24,53,1
1170,31,-231,-113,-25,53,0
1175,30,-231,-112,-25,52,0
1180,30,-230,-112,-25,54,-1
1185,33,-231,-113,-24,54,1
1190,31,-232,-114,-23,55,-1
1195,31,-229,-115,-22,55,0
1200,33,-233,-110,-22,55,-3
1205,27,-229,-110,-22,55,-1
1210,31,-230,-110,-22,55,-4
1215,31,-232,-112,-26,55,-3
1220,30,-228,-111,-28,56,-4
1225,33,-230,-111,-31,55,-2
1230,31,-230,-113,-34,55,-6
1235,30,-225,-111,-35,54,-4
1240,31,-232,-114,-38,54,-6
1245,35,-229,-116,-40,55,-5
1250,30,-228,-113,-41,53,-7
1255,31,-228,-114,-42,52,-4
1260,32,-229,-115,-41,52,-6
1265,33,-232,-114,-42,52,-5
1270,31,-230,-112,-41,54,-7
1275,29,-229,-115,-40,52,-6
1280,33,-228,-114,-39,51,-8
1285,31,-231,-115,-38,51,-4
1290,34,-230,-113,-38,51,-6
1295,31,-232,-115,-37,50,-5
1300,33,-230,-115,-37,50,-6
1305,32,-229,-113,-36,50,-4
1310,30,-228,-112,-37,50,-6
1315,34,-233,-112,-37,50,-5
1320,29,-229,-114,-36,52,-6
1325,33,-229,-117,-36,52,-4
1330,30,-231,-112,-34,53,-7
1335,29,-229,-113,-33,54,-5
1340,30,-229,-112,-31,56,-6
1345,32,-231,-112,-30,56,-2
1350,32,-230,-114,-28,58,-4
1355,30,-230,-110,-26,58,0
1360,30,-231,-114,-26,59,-2
1365,29,-230,-109,-25,58,1
1370,30,-231,-113,-26,59,1
1375,30,-228,-115,-26,61,2
1380,30,-228,-111,-27,63,2
1385,30,-229,-112,-28,62,4
1390,33,-228,-113,-29,61,1
1395,32,-228,-112,-32,62,3
1400,28,-229,-113,-31,63,2
1405,31,-230,-112,-31,63,5
1410,31,-229,-110,-29,63,2
1415,31,-229,-113,-25,62,2
1420,31,-232,-112,-24,62,1
1425,29,-230,-113,-21,63,1
1430,32,-231,-111,-18,63,-2
1435,31,-231,-117,-16,63,0
1440,30,-228,-119,-13,63,-3
1445,31,-229,-115,-15,61,-2
1450,30,-231,-115,-13,60,-3
1455,30,-232,-115,-14,61,-2
1460,31,-229,-115,-14,61,-5
1465,30,-227,-114,-14,62,-3
1470,28,-229,-114,-13,62,-5
1475,30,-229,-114,-12,62,-3
1480,31,-230,-113,-11,62,-4
1485,31,-228,-110,-12,63,-4
1490,32,-231,-111,-12,63,-6
1495,29,-229,-115,-12,64,-4
1500,29,-229,-114,-12,64,-8
1505,30,-227,-114,-13,63,-4
1510,29,-230,-113,-17,64,-4
1515,31,-229,-114,-15,64,-4
1520,29,-229,-114,-17,63,-6
1525,30,-228,-115,-17,64,-5
1530,30,-229,-112,-19,65,-7
1535,31,-229,-112,-17,65,-5
1540,31,-228,-111,-18,64,-7
1545,32,-229,-116,-17,66,-3
1550,31,-230,-113,-15,65,-7
1555,32,-232,-115,-12,66,-3
1560,34,-229,-110,-9,67,-4
1565,32,-229,-116,-8,66,-3
1570,36,-231,-115,-6,67,-4
1575,33,-227,-113,-6,66,-2
1580,36,-230,-112,-4,65,-2
1585,33,-227,-109,-5,64,-1
1590,32,-230,-111,-6,64,-1
1595,36,-233,-112,-7,63,0
1600,32,-231,-108,-12,62,-3
1605,31,-231,-111,-12,61,0
1610,32,-229,-111,-15,60,-3
1615,32,-229,-111,-15,59,-3
1620,32,-228,-111,-12,59,-6
1625,30,-230,-111,-10,59,-6
1630,32,-227,-111,-8,59,-9
1635,32,-232,-111,-6,59,-8
1640,27,-228,-114,-6,58,-9
1645,31,-230,-115,-8,58,-9
1650,31,-231,-113,-10,59,-10
1655,30,-231,-115,-9,60,-6
1660,29,-230,-112,-12,60,-8
1665,30,-231,-107,-13,60,-3
1670,29,-229,-109,-16,60,-2
1675,31,-232,-114,-16,60,1
1680,30,-230,-110,-16,60,0
1685,29,-229,-114,-16,59,4
1690,31,-232,-111,-15,60,2
1695,28,-229,-115,-12,60,5
1700,30,-232,-110,-10,59,2
1705,34,-232,-115,-9,61,5
1710,31,-229,-114,-5,62,4
1715,31,-228,-112,-3,64,6
1720,36,-232,-113,-2,65,3
1725,29,-230,-114,1,65,6
1730,32,-231,-116,0,65,3
1735,32,-233,-115,-1,65,5
1740,31,-230,-113,-1,67,3
1745,32,-229,-112,-2,68,4
1750,29,-229,-115,-1,68,2
1755,32,-229,-115,0,69,4
1760,30,-228,-113,-1,69,1
1765,32,-229,-115,-1,70,3
1770,30,-230,-114,-1,68,1
1775,29,-225,-115,0,68,4
1780,30,-227,-114,1,69,1
1785,30,-228,-111,1,68,0
1790,30,-230,-113,2,66,-2
1795,32,-228,-112,1,65,0
1800,32,-229,-114,-2,65,-3
1805,32,-230,-112,-6,65,-1
1810,34,-230,-115,-10,65,-3
1815,28,-232,-113,-12,63,0
1820,30,-227,-115,-15,62,-4
1825,31,-230,-114,-18,61,0
1830,30,-231,-115,-18,62,-2
1835,29,-230,-115,-16,60,0
1840,32,-229,-113,-17,61,-1
1845,28,-233,-110,-15,61,3
1850,30,-231,-110,-12,62,1
1855,30,-232,-113,-9,61,4
1860,32,-232,-113,-4,63,0
1865,29,-231,-114,-1,63,2
1870,34,-232,-109,-1,63,-1
1875,32,-229,-113,-1,63,1
1880,31,-230,-114,-3,64,-3
1885,33,-230,-111,-5,65,-2
1890,32,-231,-113,-5,65,-5
1895,31,-230,-111,-7,63,-4
1900,29,-229,-112,-6,64,-6
1905,29,-227,-113,-5,64,-4
1910,34,-229,-111,-5,64,-8
1915,32,-231,-110,-5,63,-5
1920,28,-230,-112,-4,62,-7
1925,32,-230,-113,-2,63,-3
1930,30,-231,-110,-2,60,-5
1935,32,-231,-114,-1,60,-2
1940,31,-230,-114,-1,58,-5
1945,31,-231,-110,-2,59,-3
1950,32,-230,-114,-4,58,-5
1955,31,-228,-110,-7,58,-4
1960,31,-230,-108,-9,58,-5
1965,32,-231,-109,-12,57,-4
1970,33,-231,-111,-15,57,-6
1975,28,-229,-113,-19,56,-5
1980,29,-230,-108,-20,57,-7
1985,31,-230,-110,-21,57,-5
1990,32,-233,-113,-21,55,-7
1995,31,-230,-116,-21,55,-5
2000,31,-230,-115,-20,54,-7
2005,32,-228,-112,-20,57,-6
2010,31,-231,-113,-19,57,-8
2015,32,-230,-113,-16,58,-5
2020,31,-231,-115,-13,59,-7
2025,32,-229,-112,-10,59,-5
2030,34,-229,-113,-9,59,-6
2035,31,-230,-112,-8,60,-4
2040,32,-228,-114,-5,60,-6
2045,28,-228,-113,-5,60,-4
2050,33,-229,-114,-7,59,-8
2055,34,-229,-112,-7,61,-5
2060,28,-232,-112,-7,59,-5
2065,33,-231,-111,-8,61,-4
2070,33,-229,-109,-8,61,-5
2075,31,-230,-114,-9,58,-2
2080,29,-228,-114,-9,60,-4
2085,32,-231,-113,-8,60,-3
2090,31,-228,-113,-6,61,-3
2095,32,-229,-114,-6,60,-1
2100,28,-228,-112,-4,61,-1
2105,32,-230,-113,-3,61,0
2110,33,-228,-111,-4,62,-1
2115,33,-228,-111,-4,63,1
2120,30,-228,-112,-4,64,-1
2125,32,-228,-112,-6,63,-1
2130,28,-228,-113,-7,63,-2
2135,30,-228,-112,-9,64,0
2140,33,-231,-109,-10,64,-2
2145,32,-231,-113,-12,63,0
2150,29,-232,-111,-11,64,-2
2155,31,-229,-109,-12,63,0
2160,34,-229,-115,-12,62,-2
2165,31,-230,-112,-12,61,0
2170,30,-226,-113,-12,62,0
2175,31,-231,-107,-13,62,0
2180,29,-232,-111,-13,63,-2
2185,29,-229,-111,-14,61,1
2190,30,-231,-110,-14,63,-3
2195,32,-231,-108,-17,63,-2
2200,29,-229,-113,-18,62,-3
2205,29,-232,-111,-20,63,-2
2210,28,-231,-111,-21,62,-2
2215,32,-229,-112,-21,61,-1
2220,33,-231,-114,-19,61,-3
2225,32,-232,-114,-19,60,-1
2230,29,-230,-114,-20,61,-4
2235,30,-232,-111,-19,60,-2
2240,33,-234,-113,-20,61,-4
2245,30,-227,-111,-20,61,-2
2250,31,-228,-113,-21,62,-3
2255,28,-229,-117,-21,61,-1
2260,31,-232,-117,-20,63,-4
2265,32,-231,-112,-19,63,-1
2270,32,-230,-112,-19,64,-3
2275,31,-233,-114,-19,64,-1
2280,30,-233,-115,-18,62,-4
2285,32,-231,-115,-15,64,-1
2290,30,-230,-113,-17,63,-4
2295,28,-230,-118,-15,63,-2
2300,30,-229,-113,-13,63,-3
2305,30,-231,-115,-13,62,-1
2310,31,-230,-113,-11,61,-3
2315,31,-229,-114,-7,61,-2
2320,31,-230,-114,-7,60,-5
2325,32,-234,-114,-8,61,-3
2330,30,-231,-109,-9,60,-6
2335,30,-229,-114,-9,62,-5
2340,30,-230,-112,-10,62,-7
2345,29,-230,-110,-10,63,-4
2350,31,-231,-108,-11,61,-5
2355,28,-231,-112,-13,62,-3
2360,29,-230,-110,-14,61,-5
2365,32,-228,-110,-15,59,-3
2370,33,-230,-109,-16,58,-3
2375,31,-232,-108,-16,58,0
2380,30,-229,-112,-17,57,-1
2385,33,-232,-110,-17,58,2
2390,31,-231,-114,-18,57,-1
2395,33,-229,-111,-20,57,3
2400,33,-231,-113,-22,57,1
2405,32,-231,-109,-25,58,3
2410,30,-230,-114,-26,60,0
2415,30,-230,-112,-29,60,2
2420,32,-228,-113,-32,60,0
2425,34,-231,-110,-32,59,1
2430,31,-232,-111,-33,61,-2
2435,30,-230,-110,-32,61,-1
2440,32,-231,-113,-31,60,-3
2445,30,-231,-115,-30,60,-1
2450,31,-230,-114,-29,60,-4
2455,34,-228,-116,-26,60,-2
2460,32,-229,-115,-24,59,-4
2465,31,-230,-116,-22,62,-2
2470,31,-231,-113,-21,61,-6
2475,31,-229,-115,-20,61,-3
2480,29,-231,-113,-19,60,-5
2485,32,-229,-114,-19,60,-2
2490,29,-228,-115,-19,60,-4
2495,27,-226,-111,-21,58,-1
2500,33,-229,-114,-20,58,-3
2505,29,-230,-112,-23,57,-1
2510,30,-231,-112,-25,57,-2
2515,33,-229,-113,-24,57,0
2520,29,-228,-111,-24,56,-2
2525,29,-233,-111,-25,56,1
2530,28,-229,-111,-25,55,-1
2535,29,-229,-109,-26,57,1
2540,31,-230,-112,-26,56,0
2545,33,-232,-112,-26,56,1
2550,33,-230,-110,-27,56,-2
2555,30,-229,-113,-28,58,0
2560,31,-234,-115,-26,58,-3
2565,27,-231,-113,-26,59,-1
2570,32,-229,-112,-22,59,-4
2575,32,-230,-112,-21,59,-2
2580,30,-232,-110,-19,61,-3
2585,28,-228,-113,-18,62,-2
2590,31,-233,-112,-16,62,-5
2595,30,-228,-113,-15,64,-3
2600,29,-227,-115,-17,63,-5
2605,30,-228,-110,-18,63,-2
2610,33,-228,-114,-18,63,-5
2615,28,-227,-110,-20,63,-2
2620,33,-230,-111,-22,63,-5
2625,34,-230,-114,-22,62,-2
2630,33,-232,-112,-22,62,-3
2635,32,-229,-112,-22,62,-1
2640,30,-231,-109,-22,61,-4
2645,32,-230,-113,-22,60,-1
2650,31,-230,-113,-23,60,-3
2655,29,-229,-112,-24,59,-1
2660,32,-230,-114,-24,60,-3
2665,32,-228,-113,-26,61,-1
2670,30,-231,-114,-27,61,-4
2675,29,-229,-116,-30,60,-3
2680,31,-228,-115,-30,61,-5
2685,33,-230,-115,-31,60,-3
2690,32,-230,-113,-30,61,-4
2695,29,-230,-116,-29,61,-3
2700,31,-226,-116,-28,60,-6
2705,34,-230,-116,-30,60,-3
2710,33,-232,-111,-29,61,-6
2715,33,-231,-115,-30,61,-4
2720,32,-230,-114,-32,60,-6
2725,29,-231,-115,-32,59,-4
2730,33,-230,-110,-32,58,-7
2735,32,-228,-115,-34,59,-5
2740,32,-233,-113,-32,58,-6
2745,32,-229,-115,-32,57,-4
2750,31,-229,-116,-34,58,-7
2755,32,-229,-113,-36,59,-4
2760,30,-230,-111,-37,58,-7
2765,31,-231,-116,-41,56,-5
2770,32,-229,-115,-40,56,-6
2775,30,-230,-112,-40,54,-3
2780,31,-232,-113,-39,54,-5
2785,31,-229,-113,-38,55,-2
2790,32,-230,-115,-35,55,-4
2795,33,-231,-114,-32,56,-1
2800,30,-228,-113,-31,57,-3
2805,31,-232,-111,-30,56,-2
2810,29,-232,-114,-30,56,-4
2815,31,-227,-111,-29,56,-2
2820,30,-228,-112,-30,57,-5
2825,30,-231,-114,-33,56,-4
2830,31,-229,-115,-36,57,-6
2835,31,-230,-115,-38,57,-5
2840,30,-226,-115,-40,57,-7
2845,28,-228,-114,-41,58,-5
2850,31,-228,-114,-42,57,-7
2855,29,-230,-115,-42,56,-5
2860,30,-231,-111,-41,57,-9
2865,34,-231,-115,-40,58,-7
2870,31,-229,-113,-40,57,-10
2875,28,-227,-115,-39,58,-7
2880,31,-229,-112,-40,56,-10
2885,33,-228,-112,-42,58,-8
2890,33,-230,-111,-42,57,-10
2895,32,-230,-112,-46,56,-6
2900,29,-229,-116,-47,55,-9
2905,32,-227,-113,-50,54,-7
2910,33,-229,-115,-52,54,-10
2915,31,-231,-115,-53,54,-6
2920,31,-228,-116,-56,54,-6
2925,31,-229,-115,-58,54,-4
2930,33,-227,-114,-60,54,-6
2935,32,-230,-118,-62,55,-4
2940,32,-229,-115,-62,56,-6
2945,33,-229,-114,-61,55,-3
2950,30,-229,-116,-62,55,-5
2955,29,-229,-119,-62,55,-5
2960,35,-232,-115,-59,57,-7
2965,32,-230,-111,-59,59,-3
2970,33,-231,-112,-57,59,-6
2975,32,-229,-116,-55,59,-5
2980,31,-229,-116,-51,60,-7
2985,31,-228,-115,-48,60,-6
2990,30,-226,-115,-44,59,-9
2995,31,-227,-116,-39,59,-8
3000,28,-228,-115,-36,57,-11
3005,30,-227,-112,-32,57,-10
3010,30,-229,-116,-31,55,-12
3015,31,-230,-114,-31,54,-12
3020,30,-231,-114,-30,55,-13
3025,31,-228,-114,-29,56,-10
3030,32,-226,-117,-27,58,-11
3035,30,-231,-112,-26,58,-7
3040,33,-227,-116,-25,57,-9
3045,28,-227,-115,-24,56,-4
3050,31,-227,-114,-24,56,-5
3055,31,-227,-114,-24,55,-1
3060,31,-227,-116,-25,57,-2
3065,32,-229,-112,-27,56,1
3070,32,-229,-115,-30,55,-1
3075,31,-227,-114,-33,55,3
3080,34,-229,-114,-34,57,0
3085,32,-229,-115,-35,58,3
3090,31,-228,-115,-33,58,0
3095,33,-229,-119,-32,57,2
3100,31,-230,-115,-31,58,0
3105,32,-228,-117,-32,57,0
3110,30,-227,-113,-32,59,-3
3115,31,-230,-116,-33,59,1
3120,27,-227,-115,-34,59,-2
3125,31,-230,-116,-35,59,0
3130,33,-227,-118,-34,61,-3
3135,29,-227,-117,-34,61,-1
3140,32,-227,-116,-32,60,-4
3145,30,-228,-113,-30,60,-2
3150,30,-229,-118,-29,59,-4
3155,31,-227,-115,-29,58,-2
3160,31,-228,-116,-30,58,-5
3165,30,-227,-116,-29,57,-3
3170,29,-225,-115,-31,57,-6
3175,30,-228,-118,-31,57,-3
3180,33,-226,-118,-30,55,-6
3185,29,-228,-116,-31,55,-4
3190,32,-230,-117,-30,56,-6
3195,32,-229,-114,-30,55,-3
3200,31,-229,-116,-31,54,-3
3205,31,-229,-115,-32,54,0
3210,30,-227,-115,-31,53,-2
3215,32,-229,-118,-30,53,1
3220,32,-228,-114,-31,53,-2
3225,31,-229,-116,-32,52,0
3230,32,-228,-115,-34,54,-2
3235,31,-225,-118,-35,54,-1
3240,31,-227,-116,-35,54,-2
3245,31,-229,-118,-36,56,0
3250,30,-229,-114,-35,58,-3
3255,30,-228,-116,-32,59,-2
3260,32,-226,-115,-29,60,-3
3265,30,-230,-112,-26,60,0
3270,32,-228,-116,-22,60,-2
3275,31,-229,-113,-18,61,-1
3280,29,-228,-115,-16,59,-2
3285,32,-228,-116,-16,60,0
3290,33,-225,-112,-17,58,-1
3295,31,-226,-115,-17,59,1
3300,32,-229,-118,-16,59,-2
3305,28,-229,-114,-17,57,0
3310,31,-226,-115,-18,58,-1
3315,29,-228,-116,-21,59,0
3320,26,-227,-116,-22,57,-2
3325,30,-229,-116,-25,58,0
3330,32,-227,-112,-26,58,-2
3335,28,-226,-116,-28,59,-1
3340,31,-230,-117,-28,57,-4
3345,30,-227,-115,-28,57,0
3350,31,-228,-112,-29,58,-2
3355,31,-230,-119,-31,57,1
3360,32,-230,-116,-30,58,-2
3365,32,-227,-116,-31,59,-1
3370,30,-227,-116,-32,59,-4
3375,33,-228,-114,-32,58,-2
3380,30,-230,-117,-31,59,-5
3385,30,-225,-112,-29,59,-5
3390,32,-228,-115,-29,58,-7
3395,31,-229,-117,-29,59,-3
3400,29,-228,-117,-29,59,-7
3405,30,-230,-115,-30,59,-4
3410,30,-229,-115,-29,59,-8
3415,34,-227,-115,-30,58,-5
3420,30,-226,-117,-31,59,-7
3425,30,-228,-118,-29,59,-5
3430,31,-229,-117,-29,59,-7
3435,31,-228,-115,-30,60,-4
3440,31,-227,-116,-29,59,-6
3445,30,-227,-118,-30,58,-3
3450,31,-229,-117,-29,58,-5
3455,32,-226,-116,-28,60,-5
3460,29,-229,-115,-26,60,-7
3465,31,-230,-116,-25,59,-4
3470,30,-229,-117,-23,60,-7
3475,29,-228,-116,-21,61,-4
3480,30,-227,-116,-17,62,-7
3485,31,-227,-121,-13,62,-5
3490,30,-225,-120,-12,63,-7
3495,33,-228,-120,-9,63,-5
3500,33,-227,-116,-8,62,-8
3505,32,-230,-114,-8,64,-5
3510,30,-223,-116,-9,64,-7
3515,31,-225,-119,-10,62,-5
3520,31,-227,-119,-9,62,-7
3525,30,-226,-116,-10,62,-4
3530,30,-223,-118,-11,62,-7
3535,29,-226,-119,-11,62,-5
3540,31,-227,-115,-12,62,-7
3545,29,-229,-112,-10,63,-4
3550,32,-229,-112,-10,64,-8
3555,30,-227,-118,-10,63,-5
3560,34,-229,-118,-10,62,-8
3565,32,-225,-119,-10,61,-5
3570,31,-226,-117,-10,61,-7
3575,33,-229,-116,-12,61,-5
3580,30,-229,-117,-12,61,-7
3585,32,-226,-117,-13,61,-4
3590,33,-229,-114,-12,61,-6
3595,31,-229,-118,-9,61,-4
3600,33,-230,-118,-7,61,-7
3605,34,-228,-117,-3,62,-4
3610,33,-229,-117,1,61,-6
3615,32,-228,-116,4,63,-3
3620,32,-229,-117,6,63,-4
3625,31,-227,-116,12,64,-1
3630,30,-226,-116,15,65,-2
3635,30,-227,-114,17,66,1
3640,31,-229,-115,16,66,-2
3645,33,-229,-115,17,66,0
3650,33,-229,-116,16,65,0
3655,29,-227,-115,13,67,3
3660,33,-227,-117,9,66,0
3665,30,-228,-116,7,64,1
3670,32,-227,-116,4,64,-2
3675,30,-228,-120,3,64,0
3680,30,-227,-117,2,64,-3
3685,31,-228,-115,2,63,-2
3690,32,-228,-121,3,65,-5
3695,31,-231,-117,3,64,-2
3700,28,-228,-115,4,65,-4
3705,24,-225,-90,6,66,-2
3710,33,-229,-115,7,66,-4
3715,32,-227,-119,6,68,0
3720,31,-229,-115,6,67,-3
3725,30,-229,-111,5,67,0
3730,32,-229,-116,4,68,-1
3735,30,-227,-116,1,66,2
3740,32,-229,-114,-1,66,1
3745,31,-227,-115,-2,65,4
3750,32,-230,-117,-7,66,3
3755,31,-225,-116,-8,65,6
3760,31,-229,-114,-11,65,2
3765,29,-227,-117,-13,64,5
3770,33,-229,-114,-13,64,3
3775,33,-228,-116,-12,65,5
3780,33,-229,-118,-12,65,3
3785,32,-230,-114,-9,65,5
3790,33,-231,-118,-7,65,3
3795,29,-228,-117,-2,64,6
3800,32,-228,-115,0,66,2
3805,29,-230,-113,3,64,4
3810,31,-228,-117,6,64,2
3815,32,-225,-117,8,64,4
3820,30,-230,-116,11,64,1
3825,28,-226,-117,13,63,2
3830,29,-228,-114,13,65,0
3835,27,-226,-116,14,65,2
3840,31,-228,-113,13,64,-1
3845,30,-227,-115,12,65,1
3850,31,-230,-115,10,64,-1
3855,28,-227,-117,7,63,0
3860,31,-227,-116,5,62,-3
3865,32,-229,-117,3,62,0
3870,32,-228,-114,1,62,-2
3875,31,-228,-116,3,63,0
3880,29,-229,-114,5,63,-1
3885,33,-230,-117,4,62,1
3890,30,-230,-117,5,63,0
3895,29,-229,-117,6,62,2
3900,32,-230,-116,4,60,-1
3905,31,-231,-112,2,60,2
3910,31,-227,-114,0,60,0
3915,31,-230,-115,-3,60,2
3920,31,-230,-115,-6,59,-1
3925,30,-229,-115,-8,60,2
3930,30,-227,-117,-12,60,-1
3935,31,-228,-118,-16,59,-1
3940,29,-227,-117,-20,60,-4
3945,29,-229,-116,-28,59,-5
3950,29,-226,-117,-34,59,-7
3955,32,-228,-119,-44,60,-6
3960,33,-223,-117,-54,57,-9
3965,31,-221,-119,-67,58,-8
3970,31,-222,-115,-83,54,-10
3975,32,-218,-116,-104,51,-10
3980,35,-219,-113,-132,47,-13
3985,32,-215,-116,-170,43,-11
3990,33,-213,-115,-219,40,-13
3995,38,-210,-119,-304,41,-11
4000,35,-207,-119,-397,42,-15
4005,34,-204,-127,-506,40,-15
4010,33,-201,-129,-631,35,-19
4015,34,-204,-127,-768,24,-19
4020,33,-202,-131,-903,13,-23
4025,31,-204,-139,-1032,1,-21
4030,31,-206,-139,-1140,-11,-22
4035,31,-208,-143,-1220,-20,-17
4040,33,-211,-141,-1266,-24,-14
4045,31,-214,-146,-1271,-24,-4
4050,32,-212,-140,-1235,-19,3
4055,30,-217,-142,-1171,-8,15
4060,31,-218,-135,-1084,5,19
4065,29,-216,-135,-985,20,26
4070,29,-219,-133,-886,31,25
4075,26,-219,-128,-792,41,26
4080,27,-219,-130,-708,51,24
4085,25,-218,-128,-637,57,24
4090,23,-218,-120,-582,55,20
4095,24,-218,-122,-536,57,26
4100,23,-215,-122,-510,50,29
4105,22,-218,-119,-494,44,37
4110,21,-218,-117,-487,33,43
4115,22,-217,-120,-484,23,54
4120,22,-221,-118,-486,13,60
4125,23,-223,-118,-484,6,70
4130,25,-225,-119,-480,-1,76
4135,25,-223,-117,-478,-5,80
4140,28,-227,-121,-476,-3,85
4145,27,-225,-117,-473,2,92
4150,28,-228,-116,-473,7,89
4155,30,-228,-121,-473,12,89
4160,32,-228,-120,-474,20,82
4165,32,-230,-122,-480,27,77
4170,33,-230,-126,-485,32,69
4175,35,-228,-123,-490,37,63
4180,34,-227,-127,-491,39,54
4185,37,-226,-123,-486,37,48
4190,35,-225,-130,-477,34,40
4195,33,-220,-132,-469,31,39
4200,39,-221,-130,-462,27,36
4205,34,-215,-135,-465,26,36
4210,37,-217,-137,-470,24,34
4215,35,-214,-132,-478,23,34
4220,36,-213,-142,-488,24,32
4225,37,-211,-138,-502,28,34
4230,33,-208,-145,-516,27,34
4235,28,-204,-144,-534,29,35
4240,35,-205,-144,-550,30,32
4245,32,-204,-144,-567,28,31
4250,29,-200,-146,-585,21,25
4255,28,-199,-150,-594,15,24
4260,29,-197,-153,-601,9,20
4265,30,-198,-149,-613,4,21
4270,22,-193,-152,-626,-1,18
4275,24,-193,-159,-646,-6,19
4280,23,-191,-158,-668,-8,16
4285,22,-192,-158,-692,-12,16
4290,21,-190,-160,-715,-15,13
4295,22,-190,-163,-735,-15,12
4300,19,-192,-165,-755,-15,10
4305,19,-190,-167,-776,-16,10
4310,20,-190,-167,-793,-16,7
4315,21,-192,-167,-810,-14,8
4320,18,-190,-164,-826,-12,5
4325,19,-194,-170,-840,-9,7
4330,22,-195,-170,-850,-6,6
4335,21,-198,-168,-859,-7,9
4340,26,-198,-169,-861,-9,8
4345,23,-198,-167,-856,-10,10
4350,23,-198,-168,-849,-9,13
4355,24,-199,-169,-837,-12,18
4360,21,-202,-171,-831,-17,24
4365,22,-204,-172,-826,-28,35
4370,22,-208,-170,-820,-36,48
4375,24,-208,-170,-813,-42,63
4380,26,-213,-167,-811,-45,73
4385,27,-215,-172,-822,-51,85
4390,27,-220,-164,-847,-56,89
4395,31,-222,-170,-880,-69,94
4400,37,-229,-167,-922,-79,96
4405,41,-224,-172,-975,-89,96
4410,43,-221,-175,-1016,-91,88
4415,41,-213,-174,-1047,-80,84
4420,39,-206,-171,-1062,-62,80
4425,37,-194,-174,-1060,-41,83
4430,38,-183,-175,-1056,-19,81
4435,35,-169,-177,-1063,8,86
4440,35,-166,-181,-1100,37,85
4445,32,-162,-187,-1178,65,83
4450,31,-162,-195,-1302,98,72
4455,30,-159,-204,-1463,137,61
4460,26,-153,-217,-1683,168,53
4465,15,-151,-225,-1870,194,49
4470,11,-158,-233,-2042,212,37
4475,12,-167,-238,-2189,222,20
4480,16,-186,-243,-2315,229,-9
4485,21,-198,-251,-2415,232,-46
4490,23,-210,-257,-2489,233,-98
4495,31,-217,-269,-2528,228,-158
4500,37,-222,-285,-2521,219,-227
4505,39,-232,-292,-2469,210,-308
4510,43,-238,-304,-2331,194,-377
4515,45,-242,-305,-2154,179,-441
4520,42,-243,-312,-1919,162,-490
4525,43,-239,-311,-1653,149,-517
4530,36,-243,-307,-1372,140,-524
4535,34,-240,-312,-1088,118,-507
4540,24,-236,-311,-819,100,-474
4545,28,-233,-313,-576,66,-439
4550,24,-227,-315,-377,37,-396
4555,24,-223,-316,-227,1,-338
4560,21,-212,-317,-112,-35,-270
4565,18,-207,-318,-17,-58,-200
4570,19,-199,-316,31,-85,-137
4575,21,-192,-321,60,-107,-81
4580,20,-185,-315,71,-118,-35
4585,23,-179,-314,75,-127,16
4590,24,-170,-310,79,-131,56
4595,31,-168,-307,90,-139,95
4600,37,-158,-298,111,-136,117
4605,39,-157,-296,145,-128,134
4610,39,-151,-291,191,-113,140
4615,37,-145,-284,261,-98,137
4620,46,-142,-278,320,-78,131
4625,45,-137,-271,379,-56,125
4630,44,-137,-266,442,-30,118
4635,39,-133,-255,508,-5,117
4640,41,-133,-245,577,20,114
4645,38,-131,-242,644,47,116
4650,38,-133,-236,713,71,115
4655,32,-128,-233,780,89,117
4660,28,-130,-216,840,105,118
4665,27,-129,-215,911,121,116
4670,26,-130,-207,963,131,109
4675,25,-129,-204,1008,142,104
4680,21,-123,-197,1041,147,95
4685,20,-122,-196,1057,152,87
4690,18,-120,-198,1054,157,83
4695,15,-113,-191,1040,160,77
4700,15,-113,-191,1011,161,66
4705,12,-110,-194,971,161,56
4710,8,-107,-195,919,162,43
4715,9,-107,-190,864,156,31
4720,9,-108,-190,796,152,19
4725,10,-106,-188,742,140,8
4730,3,-104,-188,695,132,-2
4735,5,-104,-186,652,121,-12
4740,6,-103,-187,610,111,-27
4745,3,-100,-186,575,103,-42
4750,5,-104,-185,545,95,-59
4755,5,-103,-183,526,87,-69
4760,5,-103,-184,516,79,-78
4765,9,-105,-180,514,72,-81
4770,10,-101,-183,518,63,-85
4775,13,-102,-184,521,56,-89
4780,8,-97,-186,528,48,-91
4785,10,-98,-191,534,42,-95
4790,13,-94,-189,543,35,-99
4795,12,-91,-194,551,28,-95
4800,11,-88,-191,558,23,-92
4805,8,-82,-190,566,20,-83
4810,13,-85,-191,576,17,-73
4815,9,-84,-190,587,12,-61
4820,9,-80,-193,602,11,-50
4825,10,-78,-186,618,9,-43
4830,11,-75,-186,635,4,-34
4835,12,-74,-184,644,2,-18
4840,12,-72,-189,650,0,-8
4845,13,-72,-184,649,1,3
4850,12,-67,-186,645,2,15
4855,13,-65,-184,638,3,31
4860,15,-61,-182,627,4,44
4865,12,-58,-182,606,2,56
4870,13,-52,-185,578,0,71
4875,16,-51,-184,538,0,81
4880,12,-43,-185,500,-4,87
4885,12,-39,-189,459,-6,95
4890,11,-28,-186,419,-4,96
4895,11,-24,-181,383,-2,99
4900,10,-20,-172,355,5,100
4905,6,-15,-166,338,9,102
4910,7,-18,-162,330,12,99
4915,10,-17,-152,325,15,102
4920,7,-13,-152,314,14,106
4925,5,-13,-152,287,13,112
4930,7,-7,-154,245,20,108
4935,3,-5,-157,182,30,105
4940,7,-4,-158,96,46,100
4945,8,-2,-162,-8,64,96
4950,11,-2,-169,-129,84,86
4955,7,-4,-172,-258,103,74
4960,10,-4,-171,-394,123,63
4965,11,-9,-177,-536,140,53
4970,6,-16,-179,-679,154,41
4975,4,-17,-180,-817,165,26
4980,6,-23,-178,-966,168,14
4985,-1,-28,-179,-1067,162,1
4990,-1,-32,-179,-1149,150,-12
4995,-3,-34,-176,-1207,131,-25
5000,-3,-40,-178,-1244,111,-39
5005,-3,-45,-178,-1263,89,-48
5010,3,-48,-176,-1274,64,-59
5015,3,-58,-174,-1274,41,-65
5020,2,-66,-176,-1262,18,-76
5025,3,-68,-183,-1240,-1,-85
5030,5,-76,-181,-1205,-22,-91
5035,4,-82,-188,-1179,-34,-95
5040,4,-91,-192,-1163,-44,-98
5045,2,-93,-206,-1155,-51,-99
5050,3,-95,-212,-1163,-56,-97
5055,5,-102,-218,-1186,-59,-89
5060,4,-112,-224,-1217,-64,-87
5065,7,-124,-230,-1255,-72,-86
5070,15,-130,-234,-1286,-80,-83
5075,19,-145,-240,-1305,-87,-69
5080,25,-146,-245,-1286,-96,-27
5085,29,-153,-247,-1250,-95,6
5090,28,-153,-252,-1205,-95,25
5095,36,-160,-259,-1162,-94,38
5100,39,-162,-258,-1116,-89,49
5105,32,-164,-258,-1067,-71,62
5110,36,-173,-260,-1008,-57,74
5115,36,-172,-262,-933,-48,94
5120,34,-175,-264,-854,-43,115
5125,36,-171,-268,-773,-46,138
5130,36,-167,-268,-684,-49,166
5135,32,-166,-272,-574,-46,185
5140,32,-163,-271,-476,-38,203
5145,34,-157,-278,-373,-26,221
5150,35,-152,-277,-275,-9,229
5155,30,-147,-275,-184,10,237
5160,27,-142,-272,-106,32,241
5165,28,-137,-266,-36,58,246
5170,23,-131,-259,22,87,249
5175,20,-129,-259,69,115,252
5180,27,-124,-257,101,146,244
5185,18,-116,-250,122,184,228
5190,18,-106,-248,120,205,206
5195,9,-100,-246,108,221,172
5200,-1,-88,-243,85,239,147
5205,-9,-84,-240,55,249,142
5210,-15,-89,-237,15,246,159
5215,-13,-102,-230,-28,223,196
5220,-10,-112,-227,-74,175,224
5225,-2,-124,-219,-116,105,217
5230,12,-135,-219,-142,35,169
5235,10,-133,-225,-145,-17,92
5240,10,-135,-229,-123,-28,60
5245,11,-137,-228,-74,-18,61
5250,13,-140,-224,6,17,84
5255,11,-152,-225,110,55,117
5260,6,-155,-223,227,79,139
5265,11,-166,-229,336,94,142
5270,14,-172,-238,428,110,127
5275,12,-181,-238,504,129,112
5280,17,-187,-245,571,145,98
5285,24,-189,-246,638,162,91
5290,26,-194,-246,731,180,91
5295,31,-196,-244,818,187,93
5300,36,-200,-249,910,184,99
5305,37,-206,-248,996,176,104
5310,43,-208,-253,1069,166,114
5315,43,-212,-255,1137,157,125
5320,45,-213,-252,1204,152,144
5325,47,-217,-253,1276,152,163
5330,49,-221,-245,1365,156,180
5335,49,-222,-246,1472,162,201
5340,48,-223,-239,1619,172,222
5345,48,-228,-237,1749,179,231
5350,49,-239,-232,1885,184,236
5355,48,-245,-233,2019,190,234
5360,48,-252,-236,2155,195,228
5365,47,-256,-235,2298,202,218
5370,48,-261,-236,2442,207,206
5375,47,-261,-235,2585,214,190
5380,40,-269,-236,2723,223,178
5385,38,-285,-230,2861,224,170
5390,28,-281,-232,2985,226,151
5395,35,-288,-236,3093,224,133
5400,29,-295,-226,3146,226,118
5405,17,-267,-244,3160,216,101
5410,15,-238,-243,3120,195,82
5415,13,-228,-239,3057,180,45
5420,15,-223,-233,2973,167,0
5425,17,-215,-231,2849,167,-32
5430,18,-198,-222,2670,175,-61
5435,13,-197,-220,2437,174,-54
5440,10,-186,-226,2171,167,-18
5445,-1,-163,-235,1832,149,22
5450,-10,-148,-230,1554,119,75
5455,-15,-131,-229,1288,74,116
5460,-19,-119,-220,1041,28,147
5465,-29,-111,-195,830,-10,161
5470,-24,-116,-175,650,-40,166
5475,-29,-120,-154,502,-54,161
5480,-26,-139,-135,385,-62,148
5485,-23,-154,-126,307,-69,126
5490,-16,-166,-123,253,-79,95
5495,-8,-177,-108,205,-85,65
5500,-12,-195,-120,183,-89,32
5505,-9,-198,-122,181,-88,-4
5510,-5,-203,-120,194,-84,-34
5515,0,-208,-122,219,-76,-63
5520,6,-208,-126,245,-68,-95
5525,7,-208,-128,261,-61,-121
5530,10,-215,-133,269,-58,-143
5535,14,-216,-135,269,-58,-157
5540,16,-222,-140,267,-59,-167
5545,15,-227,-139,262,-62,-169
5550,16,-232,-143,266,-61,-164
5555,17,-241,-142,283,-57,-156
5560,18,-247,-136,315,-55,-144
5565,19,-254,-130,362,-51,-134
5570,20,-260,-128,418,-44,-124
5575,18,-261,-125,484,-32,-114
5580,13,-261,-117,556,-23,-98
5585,15,-265,-117,628,-15,-80
5590,14,-264,-116,699,-8,-70
5595,15,-261,-114,766,9,-56
5600,15,-261,-108,835,32,-40
5605,12,-261,-112,884,49,-33
5610,13,-261,-108,923,65,-28
5615,11,-256,-111,959,73,-30
5620,15,-250,-106,997,84,-34
5625,14,-244,-103,1038,98,-36
5630,16,-244,-102,1076,110,-32
5635,20,-236,-101,1107,123,-31
5640,23,-231,-106,1126,133,-25
5645,23,-232,-102,1129,140,-20
5650,27,-224,-105,1117,139,-13
5655,29,-223,-107,1081,140,-7
5660,32,-218,-110,1035,137,2
5665,32,-214,-109,979,136,4
5670,32,-212,-112,913,132,8
5675,37,-210,-110,839,127,12
5680,36,-208,-116,760,126,11
5685,40,-210,-114,679,127,8
5690,41,-208,-110,598,133,8
5695,45,-212,-110,517,140,4
5700,42,-216,-109,439,152,-2
5705,42,-217,-107,350,166,-8
5710,40,-221,-109,286,172,-13
5715,41,-224,-103,232,175,-25
5720,42,-226,-108,193,174,-33
5725,35,-232,-101,171,172,-42
5730,39,-235,-104,159,171,-49
5735,36,-235,-105,161,171,-55
5740,32,-233,-104,174,173,-59
5745,34,-238,-100,196,177,-63
5750,33,-240,-101,226,181,-65
5755,34,-240,-97,265,186,-68
5760,31,-238,-100,299,191,-64
5765,31,-236,-98,327,195,-62
5770,29,-236,-95,350,199,-55
5775,29,-237,-95,372,206,-53
5780,28,-239,-90,392,211,-51
5785,27,-237,-93,408,217,-50
5790,27,-236,-85,426,223,-50
5795,29,-237,-85,443,230,-51
5800,28,-238,-81,460,236,-53
5805,25,-238,-83,477,243,-59
5810,27,-240,-80,498,248,-59
5815,22,-241,-76,513,247,-65
5820,25,-238,-77,528,244,-68
5825,22,-239,-75,540,238,-72
5830,22,-235,-72,551,232,-72
5835,21,-234,-74,557,222,-72
5840,19,-232,-69,556,213,-70
5845,19,-235,-70,544,204,-68
5850,20,-234,-69,522,195,-65
5855,19,-234,-70,491,187,-63
5860,17,-236,-69,446,180,-60
5865,15,-232,-65,403,173,-61
5870,16,-236,-67,358,166,-61
5875,17,-235,-65,313,159,-63
5880,14,-233,-67,270,153,-62
5885,17,-236,-71,229,151,-64
5890,11,-235,-69,191,151,-58
5895,18,-237,-73,161,149,-55
5900,19,-238,-72,137,150,-51
5905,18,-237,-76,119,154,-46
5910,18,-238,-76,104,161,-39
5915,17,-236,-82,91,168,-35
5920,17,-237,-80,78,174,-32
5925,21,-239,-82,66,179,-32
5930,20,-238,-81,54,182,-30
5935,18,-243,-87,49,185,-28
5940,19,-240,-86,45,186,-25
5945,17,-241,-89,43,187,-22
5950,14,-239,-87,41,185,-17
5955,18,-241,-87,35,183,-13
5960,14,-244,-87,33,177,-7
5965,14,-240,-85,30,170,-8
5970,16,-243,-90,31,164,-4
5975,15,-239,-90,34,157,-7
5980,16,-240,-87,38,153,-7
5985,12,-239,-87,41,146,-12
5990,16,-242,-82,46,140,-15
5995,14,-239,-78,52,134,-17
6000,9,-239,-87,58,129,-23
6005,13,-240,-78,69,121,-35
6010,16,-239,-79,75,111,-48
6015,17,-236,-84,79,103,-57
6020,18,-234,-79,73,104,-51
6025,19,-235,-77,64,107,-51
6030,19,-239,-79,51,106,-47
6035,17,-237,-79,38,106,-50
6040,23,-235,-71,25,102,-53
6045,23,-236,-75,16,99,-59
6050,24,-238,-76,7,99,-59
6055,22,-239,-72,1,99,-62
6060,26,-238,-77,-8,100,-63
6065,27,-238,-77,-16,95,-69
6070,30,-237,-74,-28,94,-67
6075,30,-237,-77,-38,90,-69
6080,30,-242,-79,-48,89,-67
6085,29,-239,-81,-57,84,-67
6090,31,-240,-81,-66,82,-65
6095,31,-240,-81,-74,77,-63
6100,35,-241,-80,-78,78,-60
6105,31,-237,-78,-78,81,-58
6110,32,-238,-77,-78,81,-54
6115,33,-240,-79,-80,78,-55
6120,34,-238,-80,-84,76,-52
6125,33,-237,-78,-88,75,-49
6130,31,-238,-83,-86,76,-46
6135,35,-236,-78,-84,77,-47
6140,34,-239,-81,-77,77,-43
6145,34,-237,-84,-67,79,-44
6150,32,-238,-79,-57,78,-42
6155,39,-240,-85,-51,79,-43
6160,38,-236,-83,-48,77,-39
6165,39,-238,-85,-50,78,-38
6170,37,-234,-84,-55,82,-32
6175,39,-235,-85,-69,79,-35
6180,40,-236,-82,-85,78,-32
6185,36,-236,-81,-97,79,-33
6190,40,-239,-81,-111,80,-31
6195,42,-238,-85,-123,78,-33
6200,43,-236,-82,-133,78,-29
6205,43,-240,-83,-141,79,-29
6210,41,-239,-82,-147,81,-27
6215,37,-237,-82,-153,82,-26
6220,40,-236,-86,-162,86,-25
6225,38,-238,-85,-171,89,-25
6230,35,-237,-85,-182,91,-23
6235,35,-239,-84,-193,92,-26
6240,35,-237,-84,-206,90,-25
6245,31,-240,-84,-218,86,-27
6250,27,-239,-84,-228,83,-25
6255,33,-239,-84,-238,76,-27
6260,32,-237,-84,-246,67,-25
6265,32,-240,-86,-253,64,-23
6270,30,-238,-86,-257,63,-16
6275,31,-238,-86,-259,61,-16
6280,28,-239,-87,-262,58,-11
6285,29,-239,-92,-262,54,-11
6290,30,-239,-87,-264,48,-10
6295,30,-238,-91,-267,41,-11
6300,32,-239,-87,-268,37,-5
6305,30,-241,-92,-272,32,-6
6310,34,-238,-94,-276,27,-2
6315,33,-238,-94,-280,26,-4
6320,34,-236,-97,-283,27,-2
6325,33,-234,-95,-285,28,-2
6330,32,-237,-97,-288,33,2
6335,35,-232,-96,-293,35,-2
6340,36,-235,-96,-300,38,0
6345,33,-234,-97,-310,42,-4
6350,36,-238,-99,-321,42,-6
6355,34,-237,-98,-332,46,-11
6360,34,-239,-99,-344,51,-9
6365,35,-235,-97,-352,53,-14
6370,33,-237,-95,-358,56,-13
6375,30,-242,-97,-362,55,-15
6380,32,-239,-101,-364,48,-19
6385,34,-240,-105,-364,44,-26
6390,32,-238,-104,-361,44,-24
6395,30,-236,-106,-354,39,-30
6400,31,-236,-104,-344,38,-31
6405,28,-237,-108,-329,40,-34
6410,25,-233,-110,-313,39,-31
6415,26,-234,-111,-297,42,-33
6420,25,-228,-112,-286,40,-32
6425,22,-231,-111,-277,45,-29
6430,22,-229,-114,-264,48,-22
6435,22,-229,-115,-257,40,-21
6440,21,-228,-114,-258,35,-16
6445,20,-227,-112,-262,31,-12
6450,21,-228,-116,-268,26,-5
6455,21,-229,-114,-275,20,-3
6460,22,-226,-114,-286,15,1
6465,20,-228,-108,-294,9,4
6470,21,-229,-112,-298,1,7
6475,21,-227,-114,-304,0,6
6480,23,-228,-111,-303,-3,14
6485,22,-228,-114,-301,-4,12
6490,23,-227,-116,-295,-10,9
6495,21,-228,-117,-288,-7,7
6500,21,-228,-115,-280,-7,7
6505,23,-225,-119,-269,-10,1
6510,25,-230,-117,-261,-14,0
6515,28,-228,-115,-253,-16,-3
6520,25,-229,-114,-245,-13,-1
6525,26,-230,-117,-237,-17,-4
6530,30,-231,-119,-231,-17,-3
6535,29,-232,-118,-226,-17,-6
6540,30,-231,-123,-222,-20,-5
6545,29,-232,-119,-217,-25,-8
6550,32,-235,-124,-214,-30,-10
6555,30,-232,-124,-211,-30,-12
6560,28,-231,-127,-204,-33,-12
6565,29,-231,-123,-201,-37,-18
6570,27,-230,-126,-197,-39,-18
6575,27,-229,-129,-196,-37,-22
6580,24,-229,-125,-197,-38,-21
6585,22,-227,-127,-199,-41,-27
6590,24,-230,-126,-202,-42,-28
6595,25,-228,-124,-206,-40,-31
6600,27,-231,-124,-210,-38,-31
6605,26,-228,-122,-211,-34,-33
6610,27,-227,-126,-209,-32,-33
6615,23,-225,-124,-207,-29,-33
6620,24,-226,-124,-204,-28,-30
6625,26,-226,-118,-199,-29,-30
6630,27,-226,-123,-194,-27,-25
6635,27,-223,-121,-187,-29,-23
6640,29,-225,-123,-181,-31,-18
6645,30,-225,-124,-176,-32,-17
6650,35,-226,-124,-174,-31,-12
6655,29,-223,-125,-169,-35,-13
6660,31,-225,-129,-164,-38,-10
6665,36,-225,-127,-163,-36,-12
6670,30,-226,-125,-160,-34,-5
6675,33,-224,-132,-157,-37,-11
6680,34,-226,-131,-159,-39,-15
6685,29,-224,-127,-161,-37,-21
6690,32,-225,-130,-161,-34,-22
6695,37,-227,-133,-163,-36,-30
6700,36,-224,-129,-168,-30,-29
6705,31,-224,-126,-169,-21,-32
6710,37,-228,-130,-167,-16,-30
6715,29,-224,-129,-163,-13,-33
6720,33,-225,-129,-162,-12,-32
6725,34,-225,-128,-156,-9,-35
6730,35,-226,-129,-154,-6,-34
6735,35,-226,-130,-150,-7,-38
6740,33,-228,-130,-143,-4,-33
6745,31,-224,-133,-138,-3,-35
6750,29,-222,-131,-131,0,-31
6755,31,-227,-131,-121,0,-32
6760,27,-227,-130,-110,0,-28
6765,27,-223,-130,-102,1,-30
6770,29,-224,-133,-95,0,-32
6775,29,-225,-129,-88,0,-36
6780,27,-223,-136,-81,0,-37
6785,25,-222,-130,-74,2,-40
6790,24,-221,-131,-67,5,-34
6795,23,-219,-133,-61,6,-38
6800,24,-218,-130,-62,7,-38
6805,24,-222,-135,-62,7,-39
6810,22,-219,-134,-64,5,-38
6815,23,-217,-130,-66,7,-36
6820,22,-216,-134,-69,6,-37
6825,20,-222,-128,-73,9,-35
6830,21,-221,-131,-76,4,-35
6835,22,-219,-131,-79,-3,-40
6840,25,-221,-128,-82,-5,-43
6845,22,-220,-129,-91,0,-43
6850,23,-222,-123,-96,1,-40
6855,26,-225,-131,-101,-1,-43
6860,22,-224,-129,-104,-7,-46
6865,22,-223,-128,-106,-11,-51
6870,22,-225,-129,-107,-11,-49
6875,19,-225,-127,-106,-13,-55
6880,26,-223,-129,-103,-14,-55
6885,27,-227,-128,-97,-12,-54
6890,25,-227,-131,-88,-13,-51
6895,28,-227,-126,-75,-12,-55
6900,27,-225,-130,-63,-13,-57
6905,26,-225,-127,-50,-9,-58
6910,27,-227,-131,-37,-8,-51
6915,29,-223,-126,-26,-7,-54
6920,26,-224,-130,-16,-4,-49
6925,26,-225,-125,-9,-3,-49
6930,29,-226,-125,-4,-2,-46
6935,28,-226,-124,-2,-1,-48
6940,29,-228,-122,-2,-1,-45
6945,28,-226,-128,-2,0,-49
6950,29,-222,-126,-4,1,-48
6955,27,-227,-126,-3,3,-51
6960,29,-224,-123,-4,4,-48
6965,28,-225,-129,0,8,-52
6970,30,-224,-124,2,10,-48
6975,30,-225,-128,4,13,-51
6980,30,-225,-127,7,18,-48
6985,32,-227,-129,12,23,-48
6990,31,-223,-123,18,28,-44
6995,31,-224,-125,19,31,-41
7000,30,-225,-124,21,36,-35
7005,31,-223,-122,20,40,-31
7010,30,-221,-123,20,41,-25
7015,30,-223,-125,19,43,-24
7020,29,-220,-128,19,46,-19
7025,32,-221,-120,16,47,-20
7030,31,-223,-120,14,50,-18
7035,33,-223,-124,12,53,-17
7040,28,-220,-122,7,56,-14
7045,29,-219,-124,6,57,-17
7050,32,-222,-121,4,61,-13
7055,33,-223,-125,3,63,-18
7060,33,-223,-123,2,67,-17
7065,33,-221,-128,0,69,-20
7070,33,-222,-125,-3,71,-17
7075,32,-221,-125,-3,75,-20
7080,33,-222,-128,-5,77,-19
7085,32,-220,-130,-7,79,-20
7090,34,-220,-131,-7,83,-15
7095,31,-218,-125,-7,84,-14
7100,33,-219,-127,-4,86,-10
7105,33,-220,-127,-4,89,-8
7110,33,-222,-126,-3,89,-3
7115,32,-222,-131,-1,90,-3
7120,33,-220,-127,3,91,1
7125,33,-219,-130,4,91,1
7130,32,-222,-128,7,92,2
7135,34,-221,-124,9,93,0
7140,34,-222,-128,12,93,1
7145,34,-223,-128,14,93,-1
7150,33,-222,-127,17,93,1
7155,28,-223,-130,19,93,0
7160,33,-225,-126,21,95,1
7165,30,-218,-128,22,94,-1
7170,32,-224,-122,22,95,3
7175,33,-223,-126,21,95,1
7180,30,-219,-127,18,91,4
7185,29,-221,-123,14,90,4
7190,29,-224,-123,10,88,6
7195,31,-223,-124,7,88,5
7200,30,-222,-128,3,88,8
7205,29,-223,-125,-1,86,6
7210,29,-221,-127,-4,84,8
7215,28,-225,-122,-8,84,5
7220,29,-225,-125,-10,84,8
7225,28,-222,-124,-13,80,5
7230,26,-223,-132,-14,80,8
7235,28,-223,-127,-17,77,5
7240,31,-223,-129,-19,77,7
7245,26,-222,-128,-20,77,3
7250,28,-226,-125,-20,75,4
7255,29,-224,-122,-21,75,1
7260,26,-223,-126,-19,75,1
7265,29,-224,-124,-17,73,-3
7270,27,-224,-123,-16,73,-2
7275,28,-223,-125,-13,71,-4
7280,29,-224,-127,-10,71,-2
7285,28,-224,-123,-11,70,-6
7290,16,-218,-121,-9,69,-4
7295,30,-222,-129,-9,69,-5
7300,28,-223,-124,-8,66,-3
7305,31,-225,-123,-9,66,-5
7310,28,-223,-126,-7,65,-3
7315,29,-226,-128,-8,64,-4
7320,29,-222,-126,-9,63,-2
7325,27,-223,-125,-10,63,-5
7330,29,-222,-123,-12,60,-2
7335,28,-224,-122,-13,61,-6
7340,29,-222,-126,-15,60,-5
7345,31,-222,-125,-15,57,-7
7350,27,-221,-125,-14,56,-4
7355,29,-222,-127,-14,57,-9
7360,32,-224,-124,-14,56,-8
7365,26,-221,-131,-12,55,-12
7370,29,-226,-121,-10,52,-10
7375,30,-225,-130,-9,52,-13
7380,27,-223,-125,-8,51,-11
7385,29,-222,-120,-9,49,-16
7390,30,-225,-123,-11,47,-14
7395,27,-222,-125,-14,45,-15
7400,29,-224,-124,-15,43,-14
7405,30,-226,-121,-18,41,-18
7410,29,-228,-124,-21,40,-16
7415,31,-224,-127,-22,39,-18
7420,31,-226,-123,-19,37,-18
7425,31,-226,-124,-17,36,-20
7430,31,-224,-124,-14,35,-19
7435,31,-225,-121,-10,34,-20
7440,27,-225,-126,-7,35,-20
7445,29,-225,-125,-3,35,-26
7450,31,-225,-127,1,37,-24
7455,29,-223,-125,1,37,-29
7460,29,-227,-125,2,40,-29
7465,28,-223,-131,3,42,-32
7470,31,-225,-125,7,43,-30
7475,30,-223,-128,4,48,-36
7480,28,-223,-128,2,52,-39
7485,31,-224,-128,0,57,-45
7490,29,-223,-129,-2,61,-45
7495,30,-223,-128,-2,65,-47
7500,30,-226,-123,-1,67,-47
7505,29,-224,-129,0,73,-50
7510,27,-221,-126,1,75,-49
7515,31,-222,-122,2,78,-49
7520,31,-225,-125,2,80,-44
7525,29,-221,-125,3,82,-45
7530,29,-224,-127,5,82,-40
7535,31,-223,-129,10,85,-37
7540,28,-221,-129,15,88,-30
7545,33,-222,-127,18,92,-28
7550,34,-222,-127,24,94,-21
7555,29,-220,-129,29,95,-17
7560,33,-223,-129,32,98,-9
7565,29,-221,-130,37,101,-6
7570,30,-223,-126,39,103,0
7575,32,-221,-124,40,107,2
7580,31,-220,-130,39,110,7
7585,34,-225,-128,36,111,8
7590,34,-222,-126,35,114,14
7595,33,-221,-130,30,117,12
7600,33,-218,-125,27,121,16
7605,32,-221,-125,23,122,13
7610,32,-218,-120,20,124,17
7615,32,-221,-126,18,125,13
7620,35,-221,-126,19,126,12
7625,33,-222,-125,18,128,9
7630,32,-222,-128,19,129,9
7635,32,-224,-125,20,132,5
7640,32,-219,-126,22,135,8
7645,34,-222,-125,19,139,8
7650,34,-222,-125,20,138,10
7655,33,-220,-122,20,141,9
7660,33,-223,-119,19,142,13
7665,33,-223,-124,20,142,15
7670,36,-222,-121,19,142,18
7675,33,-224,-124,18,145,20
7680,37,-225,-122,19,145,23
7685,37,-222,-119,20,146,24
7690,35,-225,-125,19,148,29
7695,36,-224,-119,18,149,31
7700,36,-225,-119,19,148,36
7705,36,-228,-123,18,147,36
7710,35,-227,-118,20,146,39
7715,36,-226,-125,21,145,37
7720,35,-226,-124,21,143,37
7725,36,-229,-121,19,140,36
7730,34,-226,-123,20,137,36
7735,32,-224,-121,18,136,35
7740,35,-226,-122,19,133,35
7745,35,-224,-119,20,132,35
7750,34,-226,-121,21,128,36
7755,33,-224,-120,22,123,32
7760,33,-226,-121,23,122,33
7765,32,-224,-119,22,119,30
7770,31,-224,-124,24,116,31
7775,34,-225,-119,25,113,25
7780,31,-226,-123,24,106,24
7785,32,-224,-119,23,102,19
7790,29,-224,-120,22,98,17
7795,31,-224,-122,22,96,17
7800,30,-225,-121,22,90,17
7805,28,-225,-119,24,86,15
7810,31,-223,-121,26,83,15
7815,28,-223,-124,29,80,12
7820,27,-223,-124,31,80,14
7825,28,-224,-122,35,77,13
7830,29,-222,-123,33,76,13
7835,28,-226,-118,31,74,11
7840,27,-225,-122,28,71,13
7845,29,-225,-124,26,66,9
7850,28,-224,-121,23,64,11
7855,26,-226,-122,20,63,9
7860,28,-225,-120,17,60,12
7865,25,-222,-120,18,57,11
7870,30,-226,-122,18,56,13
7875,29,-227,-123,21,54,11
7880,26,-222,-118,23,53,12
7885,31,-225,-123,26,51,11
7890,31,-222,-121,29,50,13
7895,32,-224,-122,31,49,10
7900,30,-223,-127,29,47,12
7905,32,-228,-119,31,47,9
7910,31,-224,-117,31,47,10
7915,30,-227,-119,31,45,8
7920,33,-225,-120,27,46,9
7925,29,-224,-121,27,45,6
7930,29,-223,-120,26,45,6
7935,30,-223,-118,25,44,5
7940,34,-222,-121,24,44,7
7945,32,-226,-120,21,45,7
7950,31,-224,-116,22,45,9
7955,32,-226,-115,19,47,10
7960,32,-224,-120,18,46,11
7965,32,-226,-120,16,46,8
7970,34,-225,-121,19,48,11
7975,32,-224,-117,19,50,9
7980,31,-228,-119,19,48,9
7985,30,-226,-118,22,50,7
7990,30,-230,-121,24,51,8
7995,34,-228,-120,27,53,7
8000,32,-228,-124,24,53,9
8005,32,-228,-123,23,56,8
8010,28,-226,-117,23,57,12
8015,29,-225,-121,20,56,7
8020,29,-227,-120,20,56,8
8025,30,-229,-117,16,57,5
8030,28,-226,-117,15,58,6
8035,29,-226,-114,15,58,5
8040,31,-227,-117,14,58,4
8045,31,-227,-119,16,58,0
8050,32,-227,-119,17,60,0
8055,33,-229,-119,21,60,0
8060,34,-224,-118,24,60,1
8065,30,-225,-118,27,62,0
8070,32,-225,-119,31,61,3
8075,33,-225,-119,34,63,1
8080,32,-226,-119,33,65,6
8085,31,-228,-120,33,67,6
8090,28,-227,-119,31,66,9
8095,31,-226,-120,32,66,9
8100,32,-225,-117,31,65,10
8105,32,-226,-119,29,65,9
8110,31,-227,-118,30,67,11
8115,30,-228,-122,29,70,10
8120,30,-227,-120,28,70,14
8125,30,-228,-117,27,71,10
8130,30,-231,-119,25,70,9
8135,30,-224,-116,21,71,8
8140,32,-225,-120,17,73,9
8145,30,-227,-118,14,75,8
8150,31,-228,-117,10,74,7
8155,32,-226,-119,8,75,7
8160,27,-222,-120,6,79,6
8165,28,-227,-120,5,80,7
8170,30,-222,-119,4,79,7
8175,32,-227,-119,5,80,6
8180,30,-227,-122,6,81,8
8185,31,-225,-116,7,82,8
8190,32,-227,-121,6,83,11
8195,28,-227,-117,8,81,9
8200,27,-225,-115,8,79,10
8205,30,-224,-116,6,78,9
8210,30,-228,-119,5,76,8
8215,28,-223,-117,5,77,7
8220,28,-225,-116,4,75,7
8225,30,-224,-115,1,73,6
8230,27,-222,-120,-1,74,7
8235,29,-227,-117,-2,73,7
8240,32,-228,-118,-4,74,7
8245,29,-227,-118,-3,72,6
8250,29,-226,-119,-2,70,5
8255,31,-229,-118,-2,69,3
8260,29,-226,-120,0,70,4
8265,29,-229,-119,2,71,3
8270,29,-227,-117,7,69,5
8275,30,-228,-120,10,69,2
8280,33,-228,-120,15,68,3
8285,31,-227,-120,14,66,1
8290,31,-228,-119,16,65,0
8295,30,-227,-117,16,65,-2
8300,29,-226,-120,16,66,-4
8305,28,-226,-115,14,66,-6
8310,30,-226,-116,11,66,-6
8315,33,-228,-119,8,67,-7
8320,31,-227,-114,6,67,-7
8325,32,-231,-113,5,68,-7
8330,32,-226,-117,4,68,-6
8335,32,-228,-116,3,69,-7
8340,32,-228,-116,1,68,-6
8345,31,-230,-114,0,69,-6
8350,30,-227,-118,-2,68,-5
8355,32,-228,-113,-3,67,-6
8360,32,-229,-116,-1,65,-5
8365,30,-228,-113,-3,65,-5
8370,30,-229,-115,-2,65,-6
8375,31,-230,-117,0,66,-8
8380,33,-230,-116,0,66,-8
8385,28,-229,-115,0,67,-10
8390,31,-230,-115,2,66,-9
8395,33,-229,-116,1,67,-9
8400,31,-229,-118,2,67,-10
8405,31,-226,-118,3,66,-9
8410,30,-227,-115,1,67,-8
8415,31,-227,-116,1,66,-9
8420,29,-226,-119,1,67,-8
8425,31,-228,-116,1,67,-9
8430,33,-225,-116,0,66,-8
8435,32,-225,-119,1,64,-10
8440,33,-225,-117,2,63,-7
8445,30,-226,-121,3,64,-5
8450,31,-224,-115,3,62,-5
8455,31,-226,-118,3,62,-5
8460,32,-227,-122,4,61,-4
8465,30,-227,-117,3,61,-5
8470,30,-225,-118,3,60,-4
8475,31,-227,-116,4,58,-4
8480,30,-226,-118,3,57,-3
8485,29,-225,-117,0,57,-4
8490,31,-225,-117,-1,55,-3
8495,30,-225,-117,-3,55,-2
8500,31,-228,-116,-5,56,-3
8505,29,-229,-114,-6,55,-3
8510,31,-227,-119,-8,56,-3
8515,31,-228,-118,-9,56,-4
8520,32,-229,-114,-11,57,-4
8525,32,-231,-115,-12,56,-5
8530,30,-227,-117,-14,56,-4
8535,30,-226,-113,-14,56,-4
8540,31,-228,-116,-12,55,-3
8545,33,-229,-116,-12,58,-3
8550,32,-225,-117,-14,58,-4
8555,33,-226,-118,-16,61,-3
8560,32,-228,-115,-14,61,-3
8565,32,-228,-115,-13,61,-2
8570,31,-232,-114,-14,60,-3
8575,31,-227,-118,-15,63,-4
8580,31,-227,-118,-17,60,-3
8585,32,-227,-116,-18,61,-3
8590,30,-228,-119,-20,60,-2
8595,33,-227,-118,-20,62,-4
8600,31,-227,-118,-22,62,-4
8605,32,-227,-116,-23,62,-5
8610,30,-227,-117,-24,63,-5
8615,32,-228,-114,-22,62,-5
8620,30,-227,-116,-21,60,-4
8625,29,-226,-117,-22,59,-3
8630,31,-228,-117,-21,61,-3
8635,30,-227,-114,-20,61,-4
8640,28,-228,-117,-20,62,-3
8645,31,-227,-115,-20,61,-3
8650,32,-226,-115,-18,61,-3
8655,28,-227,-117,-17,62,-3
8660,32,-228,-117,-17,63,-3
8665,29,-228,-119,-16,62,-3
8670,33,-227,-115,-13,63,-5
8675,30,-227,-119,-13,64,-5
8680,30,-228,-116,-12,64,-3
8685,31,-229,-115,-11,64,-5
8690,29,-228,-116,-12,64,-2
8695,32,-227,-116,-10,64,-3
8700,31,-227,-122,-10,65,-4
8705,32,-228,-117,-10,65,-1
8710,30,-226,-118,-10,64,-2
8715,31,-226,-117,-8,62,-3
8720,30,-225,-119,-10,64,-2
8725,33,-227,-117,-12,62,-2
8730,31,-227,-115,-14,61,-1
8735,29,-225,-117,-13,62,0
8740,30,-225,-117,-15,62,1
8745,31,-223,-117,-19,64,2
8750,31,-223,-120,-23,64,2
8755,30,-223,-119,-26,62,6
8760,30,-226,-117,-28,62,7
8765,32,-224,-117,-28,59,8
8770,31,-227,-114,-29,62,8
8775,31,-230,-114,-30,60,6
8780,32,-226,-116,-30,59,2
8785,30,-226,-120,-33,61,-1
8790,32,-230,-118,-32,60,-3
8795,33,-227,-119,-30,60,-5
8800,30,-226,-118,-30,60,-7
8805,34,-228,-118,-28,60,-5
8810,33,-224,-115,-29,61,-6
8815,32,-226,-118,-29,59,-6
8820,34,-226,-118,-34,59,-7
8825,34,-225,-120,-39,58,-5
8830,32,-225,-117,-46,57,-5
8835,31,-224,-118,-52,54,-5
8840,36,-226,-116,-58,53,-4
8845,32,-223,-117,-62,52,-4
8850,36,-227,-118,-65,50,-1
8855,34,-224,-120,-67,49,-1
8860,31,-225,-119,-68,50,-1
8865,31,-224,-115,-67,49,-1
8870,35,-226,-118,-67,50,-2
8875,33,-225,-118,-66,50,0
8880,35,-226,-115,-64,49,-1
8885,31,-226,-116,-62,52,0
8890,29,-225,-118,-60,52,-1
8895,30,-225,-117,-58,53,1
8900,29,-227,-121,-56,54,-1
8905,30,-229,-120,-52,56,-1
8910,29,-226,-119,-46,59,-3
8915,31,-230,-119,-41,59,-3
8920,29,-231,-119,-36,60,-5
8925,29,-230,-118,-33,63,-4
8930,28,-229,-119,-31,65,-5
8935,30,-231,-124,-30,65,-5
8940,29,-233,-119,-32,66,-6
8945,30,-234,-118,-33,65,-5
8950,28,-232,-119,-32,65,-6
8955,28,-229,-121,-33,64,-4
8960,29,-231,-119,-35,69,-4
8965,27,-231,-123,-37,71,0
8970,26,-232,-119,-32,70,0
8975,24,-230,-117,-24,71,3
8980,26,-231,-119,-12,72,3
8985,29,-232,-117,-2,74,5
8990,30,-230,-115,9,76,5
8995,27,-229,-117,17,75,4
9000,29,-229,-116,20,77,3
9005,29,-228,-116,21,78,5
9010,29,-227,-119,23,78,1
9015,28,-225,-114,25,76,1
9020,29,-224,-119,26,74,-1
9025,32,-226,-115,27,72,-1
9030,31,-224,-116,28,69,-2
9035,33,-226,-116,26,67,-3
9040,31,-226,-117,24,64,-7
9045,30,-225,-118,20,62,-8
9050,31,-224,-116,14,59,-11
9055,29,-226,-120,10,55,-12
9060,35,-225,-117,4,53,-14
9065,28,-224,-116,-4,51,-16
9070,34,-227,-114,-10,48,-20
9075,34,-227,-119,-16,47,-20
9080,31,-226,-117,-20,48,-21
9085,41,-229,-114,-24,48,-20
9090,30,-226,-118,-26,49,-22
9095,31,-227,-119,-29,49,-22
9100,30,-225,-120,-29,51,-22
9105,32,-229,-120,-29,52,-23
9110,31,-228,-122,-27,53,-23
9115,33,-228,-119,-25,54,-21
9120,30,-228,-119,-24,54,-23
9125,31,-228,-118,-22,54,-22
9130,32,-228,-116,-18,56,-24
9135,31,-229,-118,-14,54,-24
9140,30,-224,-117,-9,55,-24
9145,30,-229,-121,-6,55,-23
9150,30,-226,-116,-2,53,-24
9155,32,-225,-120,0,53,-23
9160,32,-223,-117,3,51,-24
9165,33,-226,-120,3,51,-23
9170,32,-224,-118,2,47,-24
9175,32,-223,-117,-1,48,-21
9180,31,-224,-121,-4,47,-21
9185,33,-222,-117,-6,43,-18
9190,36,-224,-119,-12,41,-19
9195,37,-223,-119,-17,39,-16
9200,39,-220,-119,-23,39,-15
9205,36,-224,-117,-30,36,-14
9210,37,-222,-120,-36,37,-12
9215,37,-224,-118,-43,39,-9
9220,35,-225,-117,-48,39,-10
9225,34,-224,-118,-51,40,-7
9230,34,-223,-118,-51,40,-7
9235,37,-226,-114,-53,41,-6
9240,37,-230,-116,-53,40,-7
9245,38,-226,-119,-51,40,-4
9250,36,-227,-117,-49,41,-7
9255,34,-224,-118,-47,41,-6
9260,32,-226,-117,-45,41,-5
9265,34,-227,-117,-44,42,-2
9270,33,-228,-117,-44,40,-4
9275,30,-225,-115,-47,42,-4
9280,32,-229,-118,-48,45,-4
9285,32,-226,-117,-47,49,-1
9290,30,-231,-118,-49,51,-2
9295,29,-228,-120,-51,54,0
9300,29,-229,-123,-50,57,-2
9305,27,-233,-120,-49,59,-2
9310,27,-231,-120,-45,62,-3
9315,29,-231,-124,-40,65,-2
9320,27,-232,-120,-33,66,-3
9325,31,-232,-123,-25,66,-2
9330,26,-227,-124,-16,66,-3
9335,27,-227,-121,-8,65,1
9340,28,-229,-120,-1,67,-1
9345,26,-228,-122,7,67,3
9350,27,-229,-122,13,66,1
9355,26,-222,-118,21,65,5
9360,28,-227,-119,27,64,4
9365,28,-229,-114,30,62,6
9370,25,-224,-119,33,63,6
9375,27,-224,-119,32,61,10
9380,28,-225,-119,29,61,10
9385,27,-227,-117,24,60,14
9390,30,-223,-118,20,61,12
9395,28,-225,-116,15,62,14
9400,28,-224,-116,9,63,13
9405,30,-224,-117,2,63,16
9410,30,-225,-115,-5,66,15
9415,30,-223,-120,-12,67,16
9420,31,-226,-117,-18,70,14
9425,28,-226,-116,-25,72,15
9430,28,-226,-117,-32,73,12
9435,31,-226,-120,-35,74,12
9440,30,-228,-121,-36,75,9
9445,31,-228,-122,-36,74,10
9450,31,-229,-117,-36,73,8
9455,28,-222,-118,-37,70,7
9460,30,-226,-118,-36,69,3
9465,30,-227,-118,-34,65,5
9470,31,-229,-117,-31,64,1
9475,31,-226,-119,-27,59,1
9480,34,-230,-117,-26,55,-3
9485,31,-227,-118,-26,53,-1
9490,34,-226,-119,-24,51,-5
9495,31,-225,-117,-28,46,-5
9500,34,-224,-116,-31,43,-8
9505,31,-225,-117,-37,40,-7
9510,32,-224,-118,-40,38,-11
9515,32,-224,-120,-45,37,-12
9520,32,-227,-120,-49,34,-14
9525,31,-226,-116,-53,32,-13
9530,32,-228,-117,-52,31,-16
9535,30,-225,-118,-52,32,-16
9540,32,-227,-120,-51,27,-20
9545,32,-227,-117,-48,27,-18
9550,30,-226,-117,-46,27,-21
9555,34,-228,-118,-43,27,-18
9560,33,-228,-118,-39,26,-20
9565,34,-229,-122,-35,27,-19
9570,31,-227,-117,-32,27,-22
9575,28,-227,-118,-30,28,-21
9580,32,-227,-122,-27,28,-24
9585,32,-226,-121,-26,31,-22
9590,31,-226,-119,-24,31,-26
9595,31,-227,-118,-22,32,-25
9600,31,-227,-119,-21,35,-27
9605,34,-228,-120,-19,37,-24
9610,32,-226,-120,-17,37,-25
9615,33,-227,-120,-15,39,-22
9620,33,-227,-122,-13,40,-21
9625,35,-228,-121,-12,42,-18
9630,33,-231,-120,-10,43,-18
9635,35,-226,-123,-10,45,-12
9640,32,-226,-121,-8,47,-11
9645,34,-226,-123,-5,50,-7
9650,36,-227,-124,-4,51,-6
9655,36,-226,-122,0,53,-4
9660,37,-226,-122,2,55,-4
9665,36,-225,-121,5,59,-1
9670,33,-228,-123,6,62,-2
9675,32,-228,-119,9,63,1
9680,34,-223,-118,8,64,0
9685,33,-226,-115,7,66,2
9690,33,-226,-116,5,68,2
9695,31,-224,-116,5,70,4
9700,34,-225,-120,1,71,3
9705,33,-226,-117,0,71,5
9710,30,-226,-119,-2,73,3
9715,31,-228,-115,-4,74,6
9720,33,-226,-118,-7,76,5
9725,30,-227,-118,-7,76,8
9730,30,-226,-117,-11,78,6
9735,30,-227,-116,-13,81,10
9740,29,-226,-123,-16,82,9
9745,29,-228,-118,-18,82,11
9750,26,-225,-122,-20,83,8
9755,30,-229,-120,-25,84,10
9760,26,-224,-119,-27,86,7
9765,28,-226,-122,-30,86,9
9770,28,-226,-119,-32,85,6
9775,26,-225,-119,-35,84,9
9780,29,-228,-117,-33,85,8
9785,30,-228,-119,-33,85,9
9790,24,-223,-119,-31,85,5
9795,29,-227,-123,-29,86,8
9800,28,-228,-121,-28,85,6
9805,29,-227,-119,-25,85,6
9810,27,-226,-119,-22,84,3
9815,29,-225,-119,-20,83,6
9820,28,-225,-124,-18,82,2
9825,28,-226,-120,-14,81,3
9830,29,-226,-121,-11,79,-1
9835,29,-226,-123,-9,76,1
9840,28,-227,-123,-5,75,-3
9845,29,-226,-119,-1,73,-1
9850,31,-226,-118,2,72,-4
9855,30,-225,-118,6,69,-4
9860,30,-226,-120,8,66,-8
9865,28,-227,-119,9,65,-4
9870,27,-225,-118,10,63,-9
9875,33,-225,-118,11,62,-9
9880,32,-228,-121,10,59,-12
9885,32,-227,-120,12,58,-11
9890,31,-228,-122,10,57,-14
9895,33,-228,-120,11,55,-13
9900,31,-226,-120,10,56,-14
9905,30,-226,-119,9,55,-12
9910,32,-228,-117,9,54,-15
9915,34,-227,-123,7,53,-14
9920,30,-224,-117,6,51,-17
9925,30,-225,-121,3,51,-14
9930,32,-225,-117,0,51,-16
9935,32,-226,-118,-2,50,-13
9940,33,-227,-115,-4,50,-15
9945,31,-225,-116,-4,50,-13
9950,32,-228,-119,-4,49,-15
9955,32,-227,-118,-3,49,-12
9960,34,-226,-119,-2,49,-15
9965,33,-228,-119,-2,49,-12
9970,31,-226,-117,-1,49,-13
9975,33,-226,-118,0,49,-11
9980,33,-225,-118,0,48,-12
9985,33,-227,-120,2,48,-7
9990,31,-225,-117,3,47,-7
9995,32,-226,-118,3,49,-5
10000,31,-226,-120,4,49,-6
10005,31,-224,-122,2,49,-1
10010,35,-225,-119,1,47,-2
10015,34,-227,-119,-2,48,0
10020,32,-226,-118,-5,49,-1
10025,35,-228,-122,-6,50,2
10030,35,-227,-120,-8,50,-1
10035,34,-227,-117,-10,49,1
10040,32,-225,-117,-11,49,-1
10045,34,-227,-116,-10,49,0
10050,34,-229,-116,-8,48,-3
10055,33,-229,-118,-7,48,-1
10060,31,-226,-117,-5,48,-3
10065,34,-228,-118,-4,47,-1
10070,35,-226,-116,-4,46,-3
10075,33,-227,-118,-3,45,-1
10080,29,-224,-121,0,45,-5
10085,32,-226,-118,-2,43,-4
10090,32,-230,-119,1,42,-7
10095,34,-226,-116,1,41,-4
10100,30,-227,-118,3,40,-6
10105,30,-227,-116,4,39,-3
10110,29,-223,-119,7,38,-5
10115,32,-226,-119,9,40,0
10120,32,-226,-117,11,41,1
10125,26,-227,-117,13,39,4
10130,28,-228,-116,14,42,3
10135,28,-226,-117,13,43,7
10140,32,-226,-114,14,43,7
10145,30,-227,-119,12,43,11
10150,31,-226,-119,12,43,9
10155,31,-227,-118,9,43,12
10160,29,-227,-116,5,42,11
10165,27,-226,-119,2,41,13
10170,29,-229,-116,-2,40,9
10175,30,-229,-117,-5,38,11
10180,30,-227,-115,-8,38,6
10185,29,-230,-114,-10,35,7
10190,30,-229,-117,-13,33,1
10195,31,-228,-116,-11,33,2
10200,31,-228,-117,-11,31,-2
10205,31,-227,-115,-12,29,-2
10210,28,-227,-118,-10,24,-6
10215,28,-227,-116,-8,25,-5
10220,30,-226,-117,-7,23,-7
10225,31,-227,-113,-6,23,-6
10230,29,-226,-118,-4,23,-6
10235,29,-226,-120,-3,22,-4
10240,30,-222,-116,-1,21,-7
10245,30,-226,-119,-1,23,-1
10250,29,-225,-119,-3,22,-2
10255,31,-227,-118,-5,20,-2
10260,25,-225,-118,-9,19,-3
10265,30,-229,-116,-14,16,-3
10270,30,-226,-120,-20,16,-6
10275,30,-224,-117,-23,18,-2
10280,32,-227,-117,-28,17,-3
10285,33,-228,-118,-33,16,-2
10290,32,-228,-117,-37,17,-5
10295,31,-226,-120,-37,17,-3
10300,30,-227,-119,-38,19,-4
10305,32,-230,-118,-36,19,-4
10310,30,-230,-120,-35,20,-4
10315,29,-227,-122,-32,21,-2
10320,31,-228,-119,-30,20,-7
10325,32,-229,-118,-26,19,-7
10330,28,-226,-118,-24,19,-10
10335,31,-227,-123,-21,20,-8
10340,31,-230,-117,-17,22,-8
10345,30,-225,-118,-16,22,-7
10350,32,-226,-119,-14,23,-8
10355,34,-229,-121,-14,22,-6
10360,31,-226,-120,-11,24,-9
10365,27,-227,-120,-8,25,-8
10370,29,-224,-122,-6,26,-10
10375,31,-228,-120,-4,27,-9
10380,27,-225,-124,-2,29,-11
10385,30,-229,-122,-1,28,-9
10390,30,-229,-118,-2,30,-9
10395,29,-223,-121,-2,29,-9
10400,31,-226,-115,-4,32,-10
10405,28,-226,-116,-6,32,-10
10410,28,-225,-118,-6,32,-12
10415,29,-228,-117,-9,34,-10
10420,25,-225,-118,-13,34,-11
10425,32,-226,-116,-15,33,-8
10430,28,-227,-118,-18,35,-9
10435,30,-228,-118,-18,36,-7
10440,26,-226,-117,-20,37,-8
10445,30,-228,-120,-18,39,-5
10450,30,-227,-119,-18,41,-5
10455,29,-227,-117,-16,43,-1
10460,31,-224,-118,-14,45,-3
10465,28,-228,-117,-14,47,2
10470,30,-228,-116,-12,51,2
10475,31,-229,-116,-11,54,5
10480,30,-227,-116,-10,56,5
10485,31,-225,-119,-8,57,7
10490,29,-226,-119,-9,60,8
10495,27,-227,-119,-7,62,12
10500,30,-225,-123,-5,63,11
10505,31,-227,-118,-7,63,16
10510,30,-224,-120,-8,62,17
10515,33,-226,-122,-8,62,19
10520,29,-222,-116,-10,62,19
10525,30,-223,-120,-11,62,22
10530,32,-225,-119,-13,62,19
10535,30,-225,-120,-16,63,19
10540,29,-223,-116,-17,62,16
10545,28,-224,-119,-20,62,16
10550,30,-225,-116,-21,60,14
10555,29,-227,-117,-22,59,13
10560,32,-228,-120,-23,59,9
10565,29,-225,-117,-25,57,9
10570,30,-229,-116,-26,55,6
10575,30,-228,-116,-24,54,5
10580,27,-226,-117,-24,55,1
10585,31,-233,-115,-24,53,2
10590,29,-228,-118,-22,53,-2
10595,32,-229,-115,-19,54,-1
10600,30,-227,-114,-17,54,-2
10605,31,-227,-117,-17,53,0
10610,31,-228,-114,-17,54,-1
10615,28,-228,-120,-17,54,2
10620,30,-229,-116,-18,54,1
10625,30,-227,-116,-19,54,4
10630,29,-230,-119,-18,55,3
10635,33,-228,-116,-20,56,5
10640,27,-229,-116,-22,56,6
10645,31,-228,-117,-22,57,7
10650,30,-226,-118,-22,57,5
10655,31,-226,-117,-22,57,6
10660,31,-228,-116,-21,56,5
10665,33,-229,-118,-20,56,7
10670,31,-227,-117,-21,55,6
10675,29,-226,-118,-21,55,7
10680,30,-227,-118,-22,55,6
10685,30,-226,-117,-22,56,8
10690,28,-230,-117,-24,55,8
10695,30,-228,-115,-24,56,9
10700,28,-227,-116,-24,55,8
10705,29,-228,-118,-21,57,9
10710,28,-226,-116,-20,58,7
10715,29,-228,-112,-17,58,9
10720,28,-228,-117,-15,60,7
10725,29,-226,-117,-12,59,8
10730,29,-228,-116,-12,59,5
10735,32,-228,-118,-11,58,6
10740,31,-226,-118,-10,59,3
10745,28,-227,-116,-11,60,1
10750,27,-227,-115,-12,59,-1
10755,31,-229,-117,-15,57,-1
10760,28,-226,-118,-17,56,-3
10765,26,-228,-117,-19,56,-1
10770,28,-225,-118,-21,55,-5
10775,29,-227,-119,-23,55,-4
10780,27,-228,-119,-22,54,-7
10785,28,-230,-118,-22,53,-4
10790,26,-227,-118,-22,53,-6
10795,28,-227,-121,-21,51,-5
10800,27,-226,-120,-20,51,-8
10805,32,-226,-115,-21,50,-7
10810,27,-227,-121,-24,50,-9
10815,28,-227,-121,-27,50,-7
10820,27,-225,-117,-30,48,-6
10825,27,-225,-120,-32,48,-5
10830,28,-230,-115,-32,47,-6
10835,28,-228,-120,-32,47,-5
10840,29,-225,-118,-31,48,-6
10845,29,-227,-117,-29,48,-5
10850,27,-228,-120,-28,48,-8
10855,30,-226,-120,-26,48,-8
10860,26,-227,-119,-25,48,-10
10865,29,-226,-119,-25,50,-9
10870,29,-224,-119,-24,51,-8
10875,26,-225,-121,-24,50,-9
10880,30,-225,-120,-25,52,-9
10885,26,-219,-126,-26,52,-8
10890,27,-224,-118,-29,51,-10
10895,29,-226,-118,-29,53,-9
10900,27,-227,-118,-29,54,-10
10905,28,-224,-118,-32,53,-7
10910,30,-228,-118,-32,54,-7
10915,29,-226,-116,-31,54,-7
10920,29,-228,-115,-29,53,-8
10925,29,-225,-115,-30,53,-6
10930,30,-227,-120,-32,52,-7
10935,30,-225,-119,-32,53,-6
10940,29,-225,-120,-35,53,-7
10945,32,-228,-117,-38,54,-6
10950,30,-228,-121,-40,53,-9
10955,30,-225,-119,-42,52,-7
10960,29,-224,-116,-47,52,-7
10965,30,-229,-116,-49,51,-7
10970,28,-224,-120,-52,50,-8
10975,30,-228,-119,-55,50,-7
10980,30,-229,-120,-59,49,-8
10985,28,-228,-121,-61,50,-7
10990,31,-228,-120,-64,50,-6
10995,30,-230,-123,-64,51,-5
11000,30,-226,-124,-63,52,-6
11005,31,-227,-122,-60,54,-6
11010,28,-228,-121,-53,56,-5
11015,29,-226,-119,-46,57,-5
11020,30,-228,-123,-39,59,-5
11025,31,-228,-122,-33,60,-5
11030,31,-227,-122,-25,59,-5
11035,31,-227,-119,-22,61,-5
11040,29,-226,-123,-18,61,-6
11045,31,-228,-121,-18,62,-5
11050,29,-226,-120,-19,60,-7
11055,31,-227,-117,-20,59,-7
11060,30,-226,-123,-21,57,-9
11065,29,-224,-120,-21,56,-10
11070,30,-227,-125,-22,56,-11
11075,31,-227,-123,-21,57,-10
11080,27,-223,-120,-21,56,-11
11085,29,-223,-121,-20,55,-11
11090,30,-228,-118,-20,58,-13
11095,24,-224,-123,-18,58,-12
11100,31,-224,-121,-15,57,-15
11105,29,-226,-118,-15,58,-14
11110,29,-224,-120,-13,57,-15
11115,30,-227,-118,-9,60,-16
11120,30,-226,-121,-7,61,-16
11125,31,-227,-123,-3,61,-15
11130,30,-228,-121,0,62,-14
11135,29,-227,-118,2,63,-12
11140,27,-229,-120,3,64,-11
11145,32,-224,-117,2,64,-10
11150,26,-228,-120,2,64,-10
11155,29,-225,-120,1,66,-7
11160,30,-227,-119,-1,67,-7
11165,28,-226,-122,-4,67,-6
11170,29,-225,-121,-5,70,-5
11175,27,-225,-120,-6,70,-4
11180,29,-228,-121,-6,72,-4
11185,28,-226,-121,-7,74,-4
11190,29,-226,-123,-7,74,-4
11195,28,-225,-122,-6,77,-4
11200,29,-225,-122,-3,78,-3
11205,30,-226,-118,0,80,-3
11210,30,-224,-120,1,79,-4
11215,28,-223,-124,0,80,-2
11220,30,-225,-120,1,81,-2
11225,26,-224,-123,1,80,-1
11230,31,-227,-120,0,79,0
11235,29,-224,-121,-1,80,0
11240,31,-228,-122,-4,80,2
11245,28,-224,-123,-4,79,1
11250,27,-227,-120,-7,79,0
11255,29,-225,-122,-7,78,3
11260,28,-225,-121,-9,76,4
11265,31,-224,-119,-8,75,2
11270,29,-226,-120,-7,75,2
11275,30,-228,-120,-6,74,3
11280,29,-227,-117,-5,74,2
11285,28,-226,-120,-4,72,2
11290,30,-227,-119,-2,72,0
11295,27,-228,-117,-1,71,0
11300,28,-226,-118,-1,71,-1
11305,29,-225,-120,-1,70,0
11310,31,-224,-121,-2,69,-1
11315,26,-226,-122,-3,68,-3
11320,28,-225,-116,-4,67,-2
11325,29,-230,-118,-5,68,-3
11330,29,-228,-118,-6,66,-4
11335,26,-225,-119,-5,65,-6
11340,27,-226,-123,-4,64,-7
11345,31,-226,-122,-3,64,-8
11350,28,-226,-120,-1,64,-8
11355,31,-227,-119,2,64,-8
11360,28,-228,-119,3,63,-8
11365,28,-228,-117,5,61,-9
11370,29,-226,-119,6,59,-9
11375,29,-226,-120,9,58,-9
11380,30,-227,-119,9,56,-8
11385,31,-228,-121,9,57,-8
11390,30,-223,-120,9,55,-7
11395,28,-224,-118,7,54,-7
11400,31,-230,-116,5,52,-7
11405,27,-228,-119,4,53,-8
11410,29,-225,-120,1,52,-7
11415,29,-226,-121,-1,53,-8
11420,31,-228,-120,-2,52,-7
11425,29,-230,-115,-3,52,-8
11430,28,-227,-118,-6,52,-8
11435,29,-226,-118,-6,53,-9
11440,27,-226,-117,-6,53,-9
11445,31,-228,-115,-6,53,-9
11450,30,-227,-119,-4,53,-8
11455,30,-226,-122,-4,53,-8
11460,30,-227,-120,-4,53,-9
11465,29,-226,-120,-2,55,-11
11470,31,-223,-119,-1,54,-9
11475,31,-226,-116,0,52,-8
11480,33,-227,-123,0,52,-8
11485,29,-224,-121,2,53,-7
11490,32,-226,-118,1,53,-7
11495,27,-226,-120,0,53,-5
11500,31,-228,-119,0,52,-5
11505,26,-226,-120,0,53,-4
11510,30,-226,-118,-1,55,-3
11515,32,-227,-118,-2,54,-2
11520,30,-226,-120,-3,54,-2
11525,32,-227,-119,-2,55,-2
11530,30,-227,-121,-3,55,1
11535,26,-227,-116,-2,57,-1
11540,31,-225,-118,0,55,-2
11545,29,-229,-119,1,58,-2
11550,30,-226,-122,1,60,-2
11555,30,-227,-122,2,60,-3
11560,28,-225,-123,-1,60,-4
11565,30,-227,-118,-3,60,-4
11570,29,-226,-120,-5,62,-5
11575,27,-225,-117,-6,61,-5
11580,31,-225,-120,-8,62,-4
11585,26,-226,-117,-8,62,-6
11590,29,-224,-118,-8,63,-6
11595,29,-225,-118,-10,63,-6
11600,29,-226,-120,-10,62,-8
11605,28,-226,-118,-10,64,-7
11610,28,-226,-118,-11,64,-7
11615,31,-228,-120,-10,65,-9
11620,30,-226,-121,-11,66,-6
11625,28,-225,-121,-11,64,-6
11630,27,-227,-119,-11,64,-4
11635,28,-226,-121,-8,65,-5
11640,27,-226,-116,-8,65,-4
11645,29,-227,-118,-6,64,-5
11650,31,-225,-121,-4,66,-4
11655,28,-227,-119,-3,66,-3
11660,28,-226,-117,-2,66,-2
11665,27,-228,-119,-3,66,-3
11670,31,-224,-115,-3,66,-1
11675,31,-227,-119,-2,65,-3
11680,30,-229,-117,-2,63,0
11685,27,-230,-117,-3,64,0
11690,28,-228,-117,-3,63,1
11695,28,-228,-118,-4,64,0
11700,31,-231,-119,-6,64,0
11705,29,-226,-116,-9,64,0
11710,28,-227,-118,-10,66,2
11715,29,-230,-117,-12,68,1
11720,31,-229,-117,-14,69,2
11725,32,-227,-117,-15,68,0
11730,27,-228,-117,-14,68,2
11735,30,-229,-121,-13,69,0
11740,31,-229,-116,-13,71,2
11745,30,-225,-122,-13,73,0
11750,29,-228,-116,-12,70,2
11755,32,-229,-117,-13,71,1
11760,29,-228,-116,-13,69,1
11765,30,-227,-120,-13,70,1
11770,31,-228,-122,-13,68,2
11775,29,-226,-120,-14,67,-2
11780,33,-227,-122,-14,66,0
11785,31,-226,-123,-14,63,-2
11790,29,-227,-117,-13,63,-1
11795,28,-227,-116,-13,63,-3
11800,28,-226,-118,-15,62,-2
11805,30,-225,-118,-13,60,-6
11810,29,-225,-118,-13,58,-5
11815,30,-228,-119,-12,58,-4
11820,28,-224,-115,-15,59,-3
11825,30,-224,-118,-15,57,-4
11830,31,-229,-117,-14,56,-1
11835,28,-225,-116,-16,55,-2
11840,29,-224,-118,-15,53,2
11845,28,-227,-117,-13,53,1
11850,29,-226,-116,-13,53,3
11855,30,-225,-117,-12,52,1
11860,29,-225,-114,-11,53,2
11865,30,-227,-117,-11,54,1
11870,28,-227,-119,-10,52,3
11875,32,-227,-116,-9,52,2
11880,34,-230,-119,-9,52,3
11885,29,-229,-118,-8,53,1
11890,30,-230,-117,-8,55,1
11895,25,-225,-119,-7,55,1
11900,29,-229,-120,-8,56,2
11905,29,-226,-117,-8,55,0
11910,28,-225,-120,-7,56,0
11915,29,-226,-119,-8,56,0
11920,26,-225,-120,-7,56,0
11925,29,-228,-118,-7,57,-2
11930,29,-228,-117,-6,58,1
11935,29,-227,-118,-6,57,-2
11940,30,-227,-117,-7,56,0
11945,29,-225,-120,-6,57,-2
11950,28,-230,-119,-6,57,0
11955,27,-227,-118,-7,55,-1
11960,26,-226,-117,-7,55,0
11965,30,-229,-116,-8,56,-2
11970,27,-226,-121,-9,55,-1
11975,32,-226,-120,-10,55,-3
11980,30,-229,-118,-11,56,-1
11985,29,-223,-117,-13,57,-2
11990,29,-227,-116,-12,57,0
11995,30,-228,-116,-13,58,-2
