timestamp,acc_x,acc_y,acc_z,gyro_x,gyro_y,gyro_z
0,11,-252,28,-12,67,-6
5,13,-253,29,-10,67,-6
10,13,-253,26,-10,66,-8
15,13,-252,29,-10,64,-6
20,15,-251,26,-11,64,-7
25,13,-250,26,-12,62,-7
30,12,-251,26,-13,62,-7
35,15,-253,29,-17,62,-6
40,13,-250,26,-19,64,-7
45,17,-252,28,-21,64,-6
50,13,-254,28,-18,66,-6
55,17,-257,24,-18,67,-5
60,13,-254,27,-16,67,-5
65,14,-251,25,-14,66,-6
70,13,-252,24,-15,63,-7
75,17,-251,35,-15,60,-6
80,15,-255,26,-16,59,-6
85,13,-252,27,-18,55,-3
90,14,-255,28,-17,55,-3
95,15,-254,24,-16,56,-3
100,13,-251,27,-16,57,-4
105,14,-253,28,-13,61,-5
110,14,-255,28,-10,62,-5
115,14,-254,28,-6,67,-6
120,12,-253,26,-4,68,-7
125,14,-250,27,-5,70,-7
130,11,-249,26,-6,70,-8
135,14,-251,25,-8,71,-7
140,13,-251,25,-10,72,-9
145,14,-251,29,-12,72,-9
150,13,-250,29,-15,71,-8
155,11,-250,25,-17,70,-9
160,15,-252,27,-20,68,-8
165,11,-251,26,-20,66,-8
170,15,-252,27,-20,64,-7
175,15,-252,23,-18,63,-7
180,15,-252,25,-18,62,-6
185,11,-256,24,-19,62,-5
190,14,-255,26,-18,62,-6
195,12,-254,25,-19,62,-4
200,11,-251,23,-20,64,-4
205,13,-252,24,-23,66,-4
210,15,-252,28,-24,66,-4
215,12,-251,23,-23,66,-2
220,13,-251,25,-22,66,-2
225,14,-253,30,-20,67,-4
230,14,-257,28,-19,67,-2
235,12,-253,25,-17,65,-3
240,13,-251,21,-16,65,-3
245,12,-255,28,-15,64,-2
250,13,-253,31,-14,63,-3
255,12,-252,31,-14,62,-3
260,13,-251,25,-11,62,-4
265,14,-253,30,-10,64,-4
270,13,-254,30,-9,63,-5
275,12,-250,29,-9,64,-6
280,15,-254,28,-9,63,-5
285,12,-250,31,-10,63,-5
290,13,-252,28,-10,64,-5
295,12,-250,30,-12,66,-6
300,9,-251,32,-13,67,-6
305,13,-251,31,-14,67,-5
310,14,-252,29,-13,67,-5
315,13,-252,26,-13,67,-4
320,16,-253,24,-12,65,-4
325,12,-250,27,-12,64,-5
330,17,-253,27,-12,64,-3
335,15,-249,24,-14,63,-3
340,12,-250,27,-13,60,-3
345,16,-253,26,-14,58,-3
350,15,-257,26,-16,57,-2
355,16,-253,27,-19,54,-2
360,14,-254,23,-20,54,-2
365,12,-250,26,-19,54,-2
370,12,-252,26,-20,57,-4
375,10,-249,25,-18,59,-4
380,10,-248,26,-18,60,-5
385,13,-251,28,-17,62,-6
390,12,-251,26,-17,64,-7
395,15,-251,26,-18,65,-5
400,12,-249,25,-18,65,-6
405,19,-251,32,-19,66,-6
410,12,-252,25,-20,67,-6
415,16,-255,29,-21,67,-6
420,13,-251,28,-21,67,-5
425,14,-256,28,-20,68,-5
430,14,-250,27,-19,67,-5
435,15,-253,25,-17,67,-5
440,12,-253,26,-16,66,-6
445,13,-253,28,-14,64,-4
450,12,-251,26,-13,64,-5
455,10,-250,27,-14,65,-4
460,13,-253,27,-13,65,-4
465,13,-252,26,-13,66,-6
470,12,-252,25,-13,68,-5
475,16,-253,24,-15,67,-5
480,16,-250,27,-15,66,-5
485,11,-251,26,-16,66,-5
490,13,-253,28,-17,67,-6
495,11,-253,26,-17,64,-6
500,14,-251,26,-17,63,-6
505,11,-253,29,-17,63,-6
510,13,-254,28,-15,61,-6
515,18,-253,35,-16,59,-4
520,14,-251,24,-16,59,-4
525,15,-253,28,-15,60,-5
530,10,-249,28,-16,62,-5
535,15,-254,26,-16,63,-6
540,13,-253,28,-15,64,-4
545,13,-248,26,-16,64,-5
550,12,-253,27,-14,65,-4
555,15,-252,27,-14,65,-5
560,11,-254,23,-14,64,-5
565,12,-249,26,-15,65,-6
570,12,-250,29,-15,64,-6
575,12,-252,26,-15,64,-6
580,12,-251,27,-13,64,-4
585,15,-252,30,-13,64,-6
590,14,-253,25,-11,63,-4
595,12,-252,28,-12,64,-6
600,13,-250,28,-11,65,-4
605,13,-252,26,-13,66,-5
610,15,-253,27,-12,65,-5
615,14,-250,31,-12,65,-5
620,13,-251,26,-12,64,-5
625,14,-253,23,-12,63,-5
630,14,-253,26,-14,62,-6
635,14,-252,24,-14,63,-6
640,12,-254,26,-15,65,-5
645,13,-251,29,-15,65,-6
650,14,-253,28,-15,65,-5
655,13,-254,26,-15,64,-6
660,14,-252,26,-15,63,-6
665,14,-253,30,-16,63,-6
670,16,-254,31,-18,63,-5
675,14,-254,29,-17,62,-4
680,14,-253,28,-18,64,-5
685,11,-252,25,-19,65,-4
690,13,-252,28,-17,64,-3
695,12,-250,24,-17,64,-3
700,14,-254,31,-15,64,-3
705,12,-254,28,-15,64,-3
710,15,-253,28,-13,63,-2
715,12,-248,26,-13,61,-2
720,16,-254,26,-14,63,-2
725,13,-255,33,-12,63,-2
730,13,-251,27,-12,64,-2
735,13,-250,27,-12,65,-3
740,9,-251,27,-12,64,-4
745,12,-251,27,-13,63,-4
750,12,-254,29,-17,62,-5
755,13,-253,28,-18,61,-5
760,13,-253,35,-18,62,-3
765,14,-250,28,-19,62,-5
770,16,-255,26,-20,64,-4
775,13,-254,24,-17,64,-6
780,12,-255,28,-16,65,-6
785,13,-252,28,-14,65,-6
790,11,-254,23,-13,64,-5
795,13,-250,29,-13,64,-6
800,13,-251,27,-13,63,-5
805,11,-249,26,-12,64,-5
810,10,-250,28,-14,64,-4
815,13,-250,29,-16,64,-4
820,13,-251,31,-18,64,-4
825,13,-252,28,-19,62,-4
830,14,-251,28,-18,62,-3
835,13,-255,25,-18,64,-4
840,16,-253,28,-18,63,-2
845,11,-251,30,-19,61,-4
850,13,-253,28,-17,61,-4
855,13,-252,29,-17,59,-4
860,13,-256,27,-17,60,-5
865,14,-255,27,-17,62,-6
870,15,-254,29,-17,62,-4
875,14,-251,27,-17,61,-5
880,10,-253,22,-17,61,-5
885,14,-250,28,-15,60,-5
890,13,-252,27,-14,61,-7
895,15,-253,26,-13,61,-7
900,14,-251,24,-12,63,-6
905,14,-252,30,-12,64,-8
910,12,-250,27,-14,65,-8
915,15,-252,28,-16,65,-8
920,13,-253,25,-17,66,-8
925,12,-251,24,-18,66,-8
930,14,-252,26,-19,67,-7
935,15,-253,27,-17,67,-7
940,17,-252,32,-16,66,-6
945,14,-249,31,-15,64,-5
950,12,-250,27,-15,63,-4
955,14,-252,26,-16,59,-4
960,15,-253,27,-18,55,-2
965,15,-254,26,-18,53,-3
970,15,-254,24,-19,51,-2
975,13,-253,23,-18,51,-2
980,15,-253,25,-16,51,-1
985,14,-254,26,-15,54,-2
990,10,-253,23,-13,56,-2
995,11,-253,28,-12,60,-4
1000,14,-254,31,-11,61,-1
1005,14,-252,28,-10,63,-4
1010,9,-249,30,-8,63,-3
1015,13,-249,27,-10,63,-5
1020,10,-253,27,-12,62,-4
1025,14,-252,26,-14,62,-6
1030,9,-253,26,-16,62,-6
1035,11,-253,27,-18,63,-7
1040,12,-253,27,-19,63,-7
1045,14,-251,26,-18,61,-6
1050,11,-252,27,-18,61,-6
1055,7,-251,29,-16,62,-6
1060,12,-255,28,-17,64,-5
1065,13,-251,28,-16,62,-7
1070,16,-251,29,-17,61,-3
1075,13,-250,25,-18,60,-3
1080,15,-254,28,-20,58,-1
1085,13,-252,24,-22,58,-3
1090,13,-253,27,-23,56,-2
1095,13,-250,27,-24,58,0
1100,13,-249,27,-22,57,0
1105,14,-252,27,-20,57,0
1110,13,-253,26,-18,55,0
1115,16,-251,26,-16,56,0
1120,13,-251,24,-15,57,1
1125,13,-250,27,-14,56,0
1130,13,-253,26,-14,58,0
1135,13,-256,29,-12,60,-2
1140,14,-253,25,-12,61,-1
1145,14,-251,26,-11,62,-2
1150,13,-252,29,-11,63,-3
1155,14,-251,27,-12,63,-4
1160,13,-250,29,-12,63,-3
1165,14,-251,26,-12,64,-2
1170,13,-252,27,-13,64,-1
1175,11,-251,31,-14,63,-3
1180,14,-252,28,-13,62,-1
1185,11,-249,28,-14,60,-3
1190,13,-252,33,-13,59,-1
1195,11,-254,26,-12,58,-2
1200,13,-256,30,-11,58,-2
1205,14,-255,27,-10,58,-4
1210,12,-255,31,-6,56,-3
1215,12,-253,28,-3,56,-4
1220,21,-250,24,-2,55,-4
1225,12,-250,25,-1,55,-4
1230,10,-253,29,-2,53,-3
1235,14,-250,26,-2,55,-4
1240,14,-254,26,-3,56,-3
1245,14,-252,26,-5,58,-3
1250,14,-251,28,-6,59,-3
1255,12,-250,29,-8,60,-5
1260,16,-251,23,-10,60,-3
1265,12,-249,24,-11,61,-5
1270,14,-254,27,-11,58,-2
1275,16,-248,18,-10,58,-3
1280,13,-251,28,-11,57,-4
1285,12,-252,29,-9,57,-3
1290,13,-252,26,-8,58,-2
1295,13,-251,30,-6,58,-3
1300,13,-252,28,-7,58,-2
1305,15,-253,25,-6,57,-3
1310,14,-252,26,-6,59,-2
1315,12,-252,28,-5,58,-4
1320,14,-251,27,-6,59,-2
1325,11,-251,29,-7,58,-4
1330,14,-253,27,-7,60,-2
1335,12,-253,29,-8,61,-3
1340,13,-249,32,-9,60,-5
1345,12,-252,26,-10,61,-5
1350,16,-252,28,-10,60,-4
1355,12,-248,26,-12,60,-5
1360,12,-255,29,-12,60,-5
1365,14,-248,24,-11,59,-5
1370,15,-250,29,-9,57,-4
1375,14,-252,24,-12,56,-5
1380,14,-251,29,-10,55,-4
1385,9,-249,25,-10,54,-5
1390,14,-253,30,-10,55,-2
1395,14,-254,29,-12,54,-2
1400,12,-251,28,-12,54,-2
1405,15,-253,29,-11,54,-3
1410,15,-250,28,-9,54,-2
1415,12,-253,28,-10,55,-4
1420,11,-249,27,-13,55,-2
1425,11,-255,28,-15,54,-2
1430,11,-251,30,-15,55,-1
1435,14,-251,25,-17,56,-1
1440,12,-253,26,-17,56,1
1445,13,-250,26,-18,55,-1
1450,13,-250,23,-17,56,-2
1455,13,-251,28,-17,57,-1
1460,11,-253,29,-16,57,1
1465,12,-250,32,-16,57,-1
1470,16,-251,27,-17,57,-1
1475,14,-250,28,-17,59,-2
1480,15,-252,27,-17,59,-1
1485,11,-250,32,-16,60,-4
1490,14,-252,29,-15,61,-3
1495,14,-252,27,-12,62,-4
1500,10,-254,31,-13,61,-3
1505,13,-254,28,-14,59,-5
1510,11,-251,29,-15,61,-4
1515,14,-254,28,-15,61,-5
1520,14,-251,31,-16,62,-4
1525,17,-253,31,-17,63,-4
1530,13,-253,28,-18,62,-3
1535,13,-253,29,-16,62,-5
1540,10,-251,26,-17,61,-3
1545,12,-251,27,-17,61,-6
1550,14,-254,29,-16,62,-5
1555,12,-250,27,-15,64,-6
1560,11,-252,28,-14,63,-3
1565,11,-249,27,-14,61,-4
1570,11,-250,27,-16,60,-4
1575,11,-251,30,-16,57,-4
1580,13,-251,27,-16,57,-3
1585,14,-253,25,-16,57,-3
1590,14,-253,30,-15,58,-3
1595,14,-253,24,-15,58,-3
1600,8,-246,26,-15,60,-1
1605,12,-252,27,-15,60,-3
1610,14,-253,30,-15,61,-3
1615,17,-252,33,-13,60,-4
1620,14,-251,27,-11,59,-2
1625,13,-251,28,-9,59,-2
1630,12,-250,26,-8,58,-1
1635,14,-251,28,-6,59,-2
1640,14,-253,35,-5,57,-1
1645,14,-255,30,-5,58,-2
1650,11,-249,27,-3,58,-1
1655,14,-252,26,-3,57,-1
1660,13,-249,29,-4,58,0
1665,14,-252,28,-5,56,-1
1670,11,-251,27,-8,57,2
1675,12,-251,26,-11,55,-1
1680,15,-252,23,-12,57,3
1685,14,-251,23,-15,57,0
1690,12,-251,25,-18,54,1
1695,14,-251,27,-21,54,-1
1700,14,-253,28,-22,54,0
1705,10,-249,20,-24,53,-1
1710,13,-250,28,-26,53,0
1715,12,-253,24,-26,55,-1
1720,12,-252,27,-27,59,0
1725,13,-254,28,-27,61,-3
1730,11,-251,24,-25,64,-2
1735,13,-253,28,-25,65,-5
1740,9,-253,27,-25,66,-2
1745,13,-252,28,-22,67,-4
1750,12,-252,31,-21,67,-3
1755,11,-255,24,-20,67,-4
1760,13,-253,29,-20,67,-3
1765,12,-251,28,-20,66,-4
1770,9,-250,28,-20,64,-3
1775,11,-251,28,-19,64,-3
1780,11,-253,24,-22,61,-3
1785,12,-252,28,-23,59,-4
1790,15,-252,26,-26,58,-1
1795,12,-250,24,-27,59,-2
1800,13,-253,24,-27,61,0
1805,16,-251,29,-26,62,-2
1810,13,-252,25,-24,63,-1
1815,13,-253,26,-21,63,-2
1820,15,-256,30,-19,63,-2
1825,15,-255,28,-17,63,-2
1830,13,-254,25,-16,63,-1
1835,12,-251,26,-14,62,-2
1840,15,-252,26,-14,61,-2
1845,14,-250,27,-15,62,-3
1850,13,-251,24,-16,62,0
1855,11,-251,28,-15,62,-1
1860,10,-252,27,-16,63,0
1865,13,-252,26,-17,61,-1
1870,19,-256,31,-15,61,-2
1875,11,-251,28,-14,61,-2
1880,11,-251,26,-14,61,-3
1885,14,-251,28,-13,62,-5
1890,12,-251,29,-12,64,-5
1895,12,-252,30,-12,64,-5
1900,13,-253,24,-13,63,-4
1905,13,-251,24,-13,63,-6
1910,13,-255,27,-14,64,-4
1915,14,-251,25,-13,64,-7
1920,14,-252,24,-15,64,-5
1925,13,-254,22,-14,64,-7
1930,15,-253,23,-16,66,-6
1935,11,-251,26,-18,67,-7
1940,14,-252,25,-18,67,-6
1945,14,-251,25,-18,67,-8
1950,12,-253,25,-18,66,-7
1955,15,-251,24,-19,65,-8
1960,11,-254,26,-20,63,-6
1965,15,-252,24,-21,62,-8
1970,14,-253,24,-22,62,-5
1975,13,-253,25,-21,61,-6
1980,14,-255,26,-19,61,-4
1985,12,-252,26,-18,60,-5
1990,13,-252,25,-15,63,-3
1995,15,-254,24,-14,62,-3
2000,13,-252,29,-14,64,-5
2005,12,-255,27,-13,65,-4
2010,15,-253,25,-13,68,-4
2015,14,-253,29,-14,70,-5
2020,14,-252,29,-16,69,-5
2025,13,-251,26,-16,72,-7
2030,12,-253,25,-17,70,-5
2035,14,-254,25,-15,71,-8
2040,14,-253,30,-15,70,-5
2045,10,-249,31,-15,70,-7
2050,13,-253,27,-16,69,-6
2055,12,-250,27,-14,69,-8
2060,12,-251,29,-15,69,-8
2065,15,-254,30,-13,71,-9
2070,12,-251,28,-13,74,-8
2075,13,-251,29,-12,76,-8
2080,10,-248,29,-12,77,-7
2085,14,-256,29,-11,77,-9
2090,13,-253,30,-13,75,-8
2095,12,-252,28,-14,73,-8
2100,13,-252,28,-15,69,-8
2105,14,-253,29,-17,66,-9
2110,11,-251,26,-19,63,-7
2115,13,-251,28,-21,61,-6
2120,12,-250,28,-22,59,-5
2125,13,-253,24,-24,60,-6
2130,12,-251,29,-25,60,-5
2135,13,-252,29,-28,61,-5
2140,14,-256,26,-27,61,-3
2145,12,-251,26,-27,64,-4
2150,14,-254,30,-26,67,-3
2155,11,-254,26,-25,67,-4
2160,14,-252,30,-23,70,-3
2165,11,-252,26,-21,72,-5
2170,14,-251,29,-20,73,-2
2175,13,-251,29,-17,73,-4
2180,13,-253,25,-17,72,-4
2185,12,-252,24,-16,71,-5
2190,13,-253,32,-15,71,-3
2195,11,-251,29,-16,68,-5
2200,12,-252,27,-14,67,-4
2205,14,-255,28,-13,67,-6
2210,15,-255,27,-14,67,-4
2215,13,-253,29,-13,64,-5
2220,14,-248,24,-14,63,-5
2225,14,-252,28,-14,63,-6
2230,13,-253,26,-17,62,-5
2235,13,-253,27,-16,62,-6
2240,12,-256,29,-16,63,-4
2245,15,-254,27,-15,63,-5
2250,15,-252,30,-13,62,-4
2255,19,-246,22,-13,63,-5
2260,13,-253,24,-10,61,-4
2265,11,-252,29,-10,61,-5
2270,13,-255,25,-8,61,-3
2275,15,-252,23,-6,62,-5
2280,14,-253,27,-7,64,-5
2285,13,-254,29,-8,65,-6
2290,11,-252,28,-8,65,-5
2295,12,-252,23,-9,65,-6
2300,14,-249,22,-10,67,-5
2305,13,-253,24,-13,68,-6
2310,11,-252,25,-17,70,-4
2315,13,-253,24,-18,69,-6
2320,14,-252,25,-20,68,-5
2325,11,-250,29,-20,67,-5
2330,14,-252,29,-20,67,-4
2335,12,-252,27,-19,68,-5
2340,15,-252,31,-19,69,-4
2345,14,-253,31,-17,69,-3
2350,12,-248,31,-16,68,-4
2355,12,-249,30,-15,70,-5
2360,13,-250,29,-13,69,-4
2365,14,-252,30,-13,69,-4
2370,13,-250,27,-12,67,-3
2375,12,-249,29,-14,68,-3
2380,8,-250,28,-15,68,-3
2385,13,-250,27,-16,66,-6
2390,14,-252,27,-16,66,-5
2395,11,-251,26,-17,64,-6
2400,10,-254,27,-18,65,-4
2405,11,-251,26,-18,65,-4
2410,12,-251,25,-19,64,-3
2415,15,-252,30,-18,65,-4
2420,13,-254,28,-16,66,-3
2425,11,-251,28,-14,65,-4
2430,15,-254,29,-15,64,-3
2435,14,-252,25,-15,65,-4
2440,12,-253,25,-15,64,-2
2445,14,-253,23,-16,64,-4
2450,14,-253,26,-17,64,-2
2455,11,-251,27,-16,65,-5
2460,14,-256,29,-15,65,-3
2465,12,-250,30,-15,67,-5
2470,10,-252,26,-15,66,-3
2475,11,-253,29,-14,66,-4
2480,10,-251,27,-13,65,-3
2485,14,-252,28,-12,64,-4
2490,13,-251,28,-12,63,-4
2495,16,-253,26,-11,62,-5
2500,8,-250,30,-10,64,-2
2505,12,-251,28,-10,63,-4
2510,13,-252,27,-11,63,-3
2515,13,-251,29,-11,64,-4
2520,11,-250,28,-12,65,-5
2525,15,-252,26,-13,67,-5
2530,14,-254,29,-13,66,-5
2535,14,-254,27,-13,66,-6
2540,13,-256,29,-15,65,-6
2545,14,-254,26,-17,66,-7
2550,13,-252,29,-19,65,-5
2555,11,-250,26,-21,63,-7
2560,13,-252,30,-21,62,-5
2565,12,-250,32,-22,63,-5
2570,12,-251,26,-20,62,-4
2575,14,-253,27,-18,63,-6
2580,15,-253,26,-16,63,-5
2585,17,-250,26,-15,62,-6
2590,12,-254,25,-14,61,-4
2595,14,-250,27,-14,61,-5
2600,12,-252,25,-14,62,-2
2605,14,-251,30,-15,61,-4
2610,12,-253,26,-14,62,-3
2615,14,-254,28,-16,63,-4
2620,12,-252,27,-18,65,-3
2625,12,-253,23,-18,64,-5
2630,14,-254,29,-17,66,-3
2635,14,-252,24,-16,65,-5
2640,10,-249,26,-16,65,-6
2645,16,-254,32,-17,65,-6
2650,14,-253,28,-17,63,-6
2655,15,-252,27,-17,63,-7
2660,14,-250,26,-18,64,-5
2665,13,-253,24,-19,64,-6
2670,13,-248,27,-19,65,-4
2675,12,-252,28,-20,66,-7
2680,12,-253,29,-18,67,-5
2685,14,-252,26,-17,68,-4
2690,12,-251,22,-15,65,-4
2695,13,-251,24,-15,64,-5
2700,14,-251,26,-17,58,-4
2705,14,-254,24,-18,53,-4
2710,13,-252,27,-19,52,-3
2715,11,-253,25,-19,50,-4
2720,13,-253,26,-18,51,-3
2725,13,-252,27,-15,54,-4
2730,12,-249,26,-12,55,-3
2735,11,-251,31,-10,59,-5
2740,12,-250,32,-6,64,-3
2745,15,-253,25,-3,65,-6
2750,11,-251,30,0,69,-4
2755,14,-253,29,0,71,-6
2760,13,-251,27,-1,71,-5
2765,12,-252,27,-3,70,-7
2770,12,-251,27,-6,70,-8
2775,12,-253,31,-10,69,-8
2780,13,-252,25,-14,67,-7
2785,12,-250,28,-16,65,-7
2790,13,-250,26,-17,65,-6
2795,12,-253,25,-20,65,-7
2800,11,-252,24,-22,65,-6
2805,14,-250,31,-23,65,-8
2810,15,-252,26,-23,64,-5
2815,14,-253,27,-22,64,-7
2820,14,-253,29,-21,64,-5
2825,11,-252,30,-18,63,-6
2830,14,-252,26,-17,63,-5
2835,13,-253,28,-14,64,-4
2840,13,-250,22,-14,64,-2
2845,14,-252,26,-12,64,-5
2850,17,-255,26,-11,63,-3
2855,13,-254,24,-10,62,-4
2860,12,-253,29,-10,60,-4
2865,12,-250,25,-10,61,-5
2870,12,-253,26,-8,63,-3
2875,11,-250,28,-9,62,-5
2880,14,-253,25,-9,63,-4
2885,13,-256,29,-10,62,-5
2890,15,-255,25,-11,62,-4
2895,15,-252,25,-12,62,-5
2900,10,-250,28,-12,62,-3
2905,12,-252,31,-12,63,-5
2910,10,-242,29,-13,64,-3
2915,12,-252,25,-15,66,-6
2920,14,-251,26,-14,65,-4
2925,13,-249,25,-15,66,-5
2930,12,-252,30,-15,66,-4
2935,15,-252,30,-14,66,-5
2940,17,-254,28,-13,65,-6
2945,13,-252,30,-12,65,-7
2950,13,-250,27,-12,65,-6
2955,14,-251,22,-12,66,-6
2960,14,-256,30,-12,67,-7
2965,14,-251,31,-12,68,-8
2970,14,-253,29,-12,66,-6
2975,13,-252,25,-13,63,-7
2980,10,-251,24,-15,63,-6
2985,13,-253,28,-16,61,-7
2990,15,-253,26,-16,62,-6
2995,12,-254,26,-17,61,-6
3000,13,-251,25,-17,63,-5
3005,15,-252,31,-16,63,-4
3010,13,-253,27,-15,63,-3
3015,11,-252,29,-15,62,-5
3020,12,-251,27,-14,62,-2
3025,14,-255,26,-15,63,-5
3030,13,-253,30,-15,63,-5
3035,14,-251,26,-15,61,-6
3040,11,-252,29,-14,63,-4
3045,13,-254,30,-14,64,-6
3050,13,-251,29,-13,63,-5
3055,14,-253,25,-13,63,-5
3060,15,-253,24,-13,63,-4
3065,13,-254,29,-13,64,-7
3070,15,-256,28,-13,65,-4
3075,14,-252,28,-14,63,-6
3080,12,-252,27,-16,63,-5
3085,13,-254,27,-17,64,-5
3090,14,-251,25,-20,63,-3
3095,12,-250,25,-19,63,-5
3100,13,-255,26,-18,65,-3
3105,12,-250,27,-19,66,-5
3110,15,-253,27,-17,65,-5
3115,15,-253,25,-17,66,-6
3120,14,-255,27,-15,67,-6
3125,12,-241,22,-15,67,-7
3130,13,-252,25,-13,65,-5
3135,14,-253,28,-13,64,-6
3140,13,-254,25,-12,63,-5
3145,12,-251,28,-13,62,-7
3150,13,-253,27,-13,59,-5
3155,12,-250,29,-14,60,-7
3160,12,-253,28,-12,61,-6
3165,11,-248,28,-14,62,-5
3170,15,-254,27,-14,61,-5
3175,9,-251,26,-16,61,-6
3180,12,-254,27,-15,63,-5
3185,17,-254,27,-15,64,-6
3190,12,-252,26,-14,67,-5
3195,15,-252,30,-13,68,-6
3200,13,-253,25,-12,67,-5
3205,16,-255,24,-11,67,-6
3210,14,-250,33,-9,69,-6
3215,13,-251,32,-11,69,-7
3220,11,-252,28,-10,67,-5
3225,12,-254,30,-10,67,-6
3230,14,-252,30,-9,65,-5
3235,14,-250,27,-10,63,-6
3240,13,-250,27,-12,64,-5
3245,11,-250,25,-14,63,-5
3250,11,-253,28,-18,63,-3
3255,14,-250,29,-21,62,-5
3260,14,-252,29,-21,61,-5
3265,13,-253,27,-22,61,-6
3270,13,-253,24,-20,62,-5
3275,13,-253,31,-20,63,-6
3280,13,-254,27,-20,65,-5
3285,16,-252,30,-19,66,-6
3290,13,-252,28,-15,66,-6
3295,12,-252,27,-15,66,-7
3300,12,-251,27,-14,66,-6
3305,13,-255,30,-13,65,-7
3310,16,-252,29,-13,64,-6
3315,13,-253,29,-14,64,-6
3320,14,-251,28,-14,64,-5
3325,11,-250,27,-14,64,-6
3330,12,-253,27,-15,64,-4
3335,10,-255,27,-17,63,-4
3340,14,-251,28,-16,63,-3
3345,15,-255,25,-16,63,-5
3350,12,-253,33,-14,65,-4
3355,11,-253,26,-13,63,-3
3360,14,-250,29,-13,64,-3
3365,14,-253,29,-13,64,-4
3370,13,-254,25,-12,64,-3
3375,11,-252,28,-11,65,-4
3380,14,-251,27,-11,64,-2
3385,11,-250,26,-12,63,-5
3390,12,-253,29,-12,63,-4
3395,11,-252,28,-14,65,-5
3400,13,-253,25,-14,64,-5
3405,13,-252,28,-15,64,-5
3410,13,-255,29,-15,63,-5
3415,13,-254,28,-15,63,-7
3420,12,-251,31,-15,63,-5
3425,13,-253,31,-17,64,-6
3430,14,-253,29,-16,64,-6
3435,15,-254,27,-16,65,-6
3440,14,-253,27,-16,65,-5
3445,17,-252,25,-17,66,-6
3450,13,-250,26,-17,65,-5
3455,20,-252,31,-16,66,-6
3460,15,-249,27,-17,65,-5
3465,12,-252,27,-15,66,-4
3470,12,-252,25,-15,63,-2
3475,13,-254,27,-15,62,-4
3480,9,-250,29,-15,62,-4
3485,14,-252,28,-14,63,-4
3490,13,-253,25,-13,65,-2
3495,13,-254,27,-13,64,-4
3500,12,-252,28,-12,65,-3
3505,15,-254,29,-10,65,-5
3510,12,-248,24,-9,63,-5
3515,13,-251,23,-8,63,-5
3520,16,-256,28,-8,64,-5
3525,13,-251,29,-10,64,-5
3530,11,-253,31,-11,64,-6
3535,12,-251,27,-11,64,-6
3540,13,-251,26,-14,64,-6
3545,13,-250,32,-13,67,-6
3550,13,-249,29,-13,68,-6
3555,15,-251,28,-12,70,-6
3560,14,-253,27,-12,71,-5
3565,13,-251,27,-12,70,-6
3570,15,-252,23,-13,66,-5
3575,12,-253,28,-14,63,-5
3580,14,-254,24,-14,59,-5
3585,13,-253,26,-15,56,-4
3590,13,-250,27,-15,56,-3
3595,11,-252,27,-15,54,-4
3600,11,-251,30,-17,57,-4
3605,14,-253,28,-17,58,-5
3610,19,-249,29,-17,60,-5
3615,13,-253,33,-13,62,-5
3620,15,-252,31,-12,64,-5
3625,13,-252,30,-10,67,-7
3630,12,-251,32,-9,66,-6
3635,14,-252,29,-10,66,-7
3640,10,-251,32,-11,64,-5
3645,11,-253,27,-13,63,-8
3650,14,-253,30,-14,63,-6
3655,12,-252,30,-15,63,-6
3660,14,-256,33,-17,63,-6
3665,14,-250,26,-18,63,-7
3670,14,-251,26,-19,63,-7
3675,13,-250,25,-21,63,-8
3680,13,-251,24,-22,63,-7
3685,13,-251,26,-24,62,-8
3690,12,-252,27,-26,61,-7
3695,16,-253,25,-27,59,-7
3700,11,-249,23,-29,58,-6
3705,13,-250,32,-31,56,-6
3710,14,-252,27,-30,56,-4
3715,14,-252,26,-29,57,-5
3720,12,-254,27,-28,57,-5
3725,14,-253,22,-26,58,-6
3730,16,-254,26,-24,59,-5
3735,12,-253,28,-20,59,-6
3740,13,-252,26,-17,60,-4
3745,14,-249,28,-14,61,-6
3750,16,-255,27,-13,62,-4
3755,14,-250,26,-14,63,-5
3760,15,-253,32,-16,62,-6
3765,14,-252,28,-18,62,-6
3770,13,-250,27,-20,63,-5
3775,19,-249,29,-23,61,-5
3780,18,-252,26,-24,61,-5
3785,12,-249,27,-26,62,-6
3790,16,-254,25,-26,62,-4
3795,11,-249,29,-25,61,-5
3800,13,-251,27,-22,62,-4
3805,15,-251,28,-21,63,-5
3810,14,-254,28,-19,63,-4
3815,13,-253,29,-18,62,-3
3820,16,-255,29,-17,62,-4
3825,11,-250,32,-16,63,-5
3830,13,-250,24,-16,62,-5
3835,12,-250,26,-17,62,-5
3840,15,-253,26,-21,61,-4
3845,13,-251,26,-24,61,-5
3850,12,-252,25,-26,60,-5
3855,11,-251,29,-28,59,-4
3860,13,-253,26,-29,60,-4
3865,12,-252,25,-31,59,-4
3870,14,-251,26,-32,57,-4
3875,12,-250,26,-30,57,-3
3880,12,-255,28,-28,58,-3
3885,15,-253,27,-23,58,-3
3890,15,-252,25,-20,58,-3
3895,15,-252,32,-18,57,-4
3900,13,-255,29,-16,59,-4
3905,13,-251,28,-15,60,-2
3910,14,-252,28,-14,61,-2
3915,13,-252,27,-14,61,-3
3920,12,-251,26,-16,63,-3
3925,13,-251,25,-17,63,-3
3930,15,-251,29,-19,64,-4
3935,14,-250,29,-22,66,-3
3940,13,-254,25,-24,65,-3
3945,15,-253,29,-22,64,-4
3950,14,-253,26,-23,63,-3
3955,12,-251,25,-24,62,-4
3960,13,-252,26,-22,61,-5
3965,15,-252,28,-22,60,-3
3970,13,-254,30,-21,61,-4
3975,12,-253,28,-20,60,-3
3980,12,-249,27,-18,59,-2
3985,13,-253,28,-18,59,-3
3990,14,-252,29,-20,57,-2
3995,14,-251,27,-20,56,-2
4000,9,-254,29,-18,54,0
4005,12,-252,26,-18,53,-1
4010,15,-253,26,-19,52,-2
4015,14,-254,24,-19,53,-1
4020,12,-254,30,-20,55,-1
4025,11,-251,28,-19,56,0
4030,14,-251,27,-20,58,0
4035,14,-253,27,-18,59,-2
4040,13,-251,28,-19,59,-2
4045,11,-251,25,-19,61,-2
4050,16,-252,27,-20,62,-2
4055,11,-255,26,-21,60,-2
4060,11,-251,25,-21,61,-2
4065,12,-250,24,-22,58,-2
4070,13,-251,28,-20,58,-3
4075,15,-253,32,-20,58,-2
4080,13,-253,29,-18,58,-2
4085,13,-253,31,-17,58,-3
4090,14,-253,26,-15,56,-1
4095,17,-255,29,-14,56,-2
4100,14,-250,29,-13,56,-1
4105,11,-252,24,-11,55,-1
4110,15,-258,40,-10,55,-1
4115,15,-254,30,-10,57,0
4120,12,-252,26,-9,57,-1
4125,15,-254,26,-10,56,-4
4130,14,-251,26,-12,56,-3
4135,12,-252,27,-14,56,-4
4140,11,-252,26,-16,56,-3
4145,13,-251,28,-18,55,-4
4150,13,-253,26,-19,55,-4
4155,10,-250,28,-21,56,-5
4160,11,-251,26,-21,55,-4
4165,15,-251,27,-21,54,-3
4170,14,-253,25,-20,53,-4
4175,13,-254,27,-18,55,-4
4180,13,-254,26,-16,57,-4
4185,15,-253,25,-14,59,-4
4190,14,-252,29,-14,60,-2
4195,12,-252,30,-14,59,-5
4200,17,-254,30,-13,59,-3
4205,14,-253,27,-13,62,-3
4210,11,-251,25,-13,63,-4
4215,15,-253,22,-16,63,-5
4220,12,-254,27,-16,62,-4
4225,15,-252,29,-17,61,-4
4230,16,-251,31,-19,61,-5
4235,13,-251,27,-20,61,-5
4240,12,-253,26,-21,60,-4
4245,14,-255,30,-23,62,-4
4250,11,-252,24,-25,62,-4
4255,11,-253,28,-23,61,-4
4260,9,-253,27,-23,60,-5
4265,12,-253,32,-22,60,-5
4270,12,-253,30,-20,62,-4
4275,14,-254,28,-18,62,-4
4280,14,-255,29,-18,62,-4
4285,11,-251,26,-13,63,-4
4290,12,-252,30,-14,64,-4
4295,11,-251,28,-13,64,-4
4300,16,-252,28,-12,65,-5
4305,18,-253,26,-12,63,-6
4310,11,-250,24,-15,61,-5
4315,13,-252,28,-18,60,-5
4320,12,-250,28,-20,58,-5
4325,8,-255,23,-22,57,-6
4330,12,-249,27,-23,55,-4
4335,16,-254,28,-25,56,-5
4340,12,-253,22,-27,56,-3
4345,16,-254,31,-28,56,-3
4350,14,-249,27,-29,57,-1
4355,14,-252,23,-27,58,-2
4360,14,-255,29,-26,59,-2
4365,13,-252,23,-23,61,-3
4370,14,-254,31,-21,63,-3
4375,11,-252,29,-18,63,-5
4380,13,-253,28,-14,61,-5
4385,14,-252,25,-12,60,-6
4390,12,-252,27,-11,59,-4
4395,10,-252,27,-11,58,-5
4400,12,-255,26,-13,58,-6
4405,14,-252,24,-16,58,-5
4410,14,-254,25,-18,59,-6
4415,14,-251,27,-20,59,-7
4420,12,-251,31,-25,62,-5
4425,15,-248,26,-28,63,-5
4430,14,-249,26,-31,64,-5
4435,17,-252,25,-32,63,-6
4440,14,-250,28,-33,64,-5
4445,15,-252,26,-34,63,-6
4450,14,-252,27,-31,61,-4
4455,14,-252,25,-29,60,-3
4460,14,-252,26,-28,55,-4
4465,14,-253,25,-27,53,-4
4470,12,-251,25,-26,50,-3
4475,13,-255,29,-26,48,-3
4480,13,-253,25,-24,47,-3
4485,13,-253,27,-25,49,-2
4490,13,-253,25,-22,51,-3
4495,12,-252,26,-21,53,-4
4500,14,-252,28,-21,56,-3
4505,13,-255,26,-20,59,-4
4510,14,-250,23,-21,60,-2
4515,13,-252,24,-22,62,-4
4520,12,-252,27,-25,64,-5
4525,10,-247,26,-27,64,-5
4530,15,-250,28,-29,64,-5
4535,16,-252,24,-32,62,-5
4540,15,-250,27,-35,61,-6
4545,17,-253,30,-37,60,-6
4550,14,-251,26,-36,59,-5
4555,13,-252,27,-35,57,-5
4560,12,-254,26,-34,57,-6
4565,11,-251,25,-32,56,-6
4570,11,-253,27,-33,55,-7
4575,13,-251,28,-33,56,-6
4580,14,-251,20,-32,58,-6
4585,13,-251,23,-32,58,-5
4590,13,-251,20,-33,58,-4
4595,15,-252,27,-35,61,-5
4600,15,-254,25,-37,59,-5
4605,16,-253,18,-35,60,-4
4610,15,-251,23,-36,60,-5
4615,13,-252,23,-34,60,-4
4620,11,-251,23,-32,59,-4
4625,13,-251,26,-30,58,-5
4630,14,-254,25,-28,57,-3
4635,14,-256,26,-25,57,-3
4640,11,-253,27,-22,60,-4
4645,18,-250,26,-21,62,-4
4650,16,-249,25,-19,61,-4
4655,14,-252,27,-19,64,-3
4660,13,-251,26,-21,64,-4
4665,12,-252,24,-21,65,-5
4670,13,-250,30,-24,66,-4
4675,13,-250,27,-24,65,-5
4680,15,-255,28,-27,65,-4
4685,12,-252,27,-26,65,-6
4690,14,-252,26,-27,64,-6
4695,12,-252,26,-29,63,-6
4700,14,-254,25,-31,61,-5
4705,11,-253,29,-31,62,-6
4710,11,-254,26,-32,61,-6
4715,14,-251,26,-32,61,-7
4720,15,-253,27,-32,60,-7
4725,13,-252,24,-30,59,-7
4730,14,-254,28,-29,59,-7
4735,15,-254,24,-26,59,-6
4740,12,-253,23,-25,58,-7
4745,13,-254,19,-26,59,-6
4750,13,-253,29,-26,57,-6
4755,13,-253,21,-25,58,-5
4760,11,-251,25,-23,58,-4
4765,13,-254,28,-23,57,-4
4770,13,-251,27,-23,59,-5
4775,12,-251,22,-24,59,-4
4780,12,-250,27,-25,61,-4
4785,15,-253,25,-25,61,-5
4790,12,-250,30,-27,61,-6
4795,12,-254,26,-28,62,-6
4800,12,-253,25,-30,62,-6
4805,15,-252,27,-32,62,-4
4810,9,-248,28,-32,63,-6
4815,15,-252,28,-33,63,-5
4820,11,-254,26,-33,62,-4
4825,13,-251,27,-33,62,-5
4830,16,-253,27,-32,62,-5
4835,13,-251,24,-30,60,-4
4840,14,-250,23,-29,61,-6
4845,14,-249,20,-30,61,-6
4850,17,-254,23,-30,60,-5
4855,16,-249,25,-30,61,-5
4860,15,-254,22,-31,62,-5
4865,13,-252,24,-32,60,-5
4870,6,-256,26,-33,60,-5
4875,10,-249,26,-32,60,-5
4880,12,-252,24,-33,61,-6
4885,14,-249,23,-32,61,-5
4890,16,-253,24,-31,60,-6
4895,16,-253,24,-30,60,-4
4900,15,-253,24,-29,60,-3
4905,12,-251,20,-26,60,-3
4910,15,-253,26,-26,60,-4
4915,15,-251,29,-26,60,-4
4920,14,-253,26,-25,62,-5
4925,14,-253,19,-28,63,-3
4930,11,-249,23,-28,65,-4
4935,14,-253,23,-31,64,-3
4940,15,-253,21,-30,62,-3
4945,13,-253,24,-32,63,-2
4950,11,-249,21,-33,63,-2
4955,12,-253,24,-34,64,-3
4960,13,-251,22,-32,65,-3
4965,14,-255,25,-31,64,-3
4970,14,-253,25,-31,64,-3
4975,14,-255,25,-28,63,-2
4980,14,-255,25,-24,64,-3
4985,12,-252,27,-24,64,-2
4990,13,-255,24,-22,65,-5
4995,14,-253,27,-21,66,-4
5000,12,-251,25,-21,67,-6
5005,13,-252,24,-22,67,-5
5010,12,-251,23,-22,65,-4
5015,11,-250,24,-23,66,-5
5020,13,-251,25,-25,64,-4
5025,13,-251,25,-26,64,-5
5030,15,-253,22,-25,65,-5
5035,12,-251,24,-28,65,-4
5040,12,-252,24,-28,63,-5
5045,13,-251,21,-29,64,-5
5050,11,-252,23,-30,65,-6
5055,13,-256,24,-32,65,-5
5060,11,-253,26,-33,64,-6
5065,12,-253,23,-33,64,-5
5070,15,-251,19,-34,64,-5
5075,14,-252,23,-35,65,-6
5080,13,-252,22,-34,66,-6
5085,16,-256,20,-35,66,-6
5090,14,-255,24,-37,68,-6
5095,13,-254,22,-37,69,-4
5100,12,-252,22,-35,70,-4
5105,14,-254,22,-33,71,-2
5110,12,-252,22,-33,72,-3
5115,12,-256,21,-35,72,-2
5120,12,-252,21,-39,74,-3
5125,15,-254,21,-39,76,-3
5130,15,-255,22,-40,75,-2
5135,14,-253,24,-39,73,-3
5140,13,-255,19,-36,72,-1
5145,16,-251,26,-33,72,-2
5150,13,-254,26,-30,71,-3
5155,15,-256,17,-27,73,-2
5160,15,-255,20,-25,76,-3
5165,18,-254,23,-23,78,0
5170,17,-253,18,-22,78,0
5175,15,-253,20,-23,78,0
5180,15,-255,21,-24,76,0
5185,13,-251,21,-25,76,1
5190,16,-252,24,-26,74,2
5195,16,-252,27,-26,73,4
5200,13,-252,21,-25,72,5
5205,14,-250,26,-24,72,6
5210,17,-252,23,-23,73,7
5215,14,-252,23,-23,74,10
5220,14,-250,26,-20,73,9
5225,15,-251,23,-19,71,12
5230,14,-253,26,-17,71,12
5235,14,-250,22,-17,72,13
5240,13,-249,29,-17,72,14
5245,15,-249,24,-16,73,14
5250,14,-249,25,-16,74,14
5255,13,-251,27,-14,76,14
5260,12,-253,29,-11,76,13
5265,12,-249,25,-10,75,15
5270,12,-249,26,-7,75,13
5275,13,-250,29,-4,70,13
5280,12,-248,27,-4,67,12
5285,13,-249,28,-3,65,12
5290,13,-250,28,-4,62,14
5295,11,-250,23,-6,62,16
5300,10,-252,26,-8,62,16
5305,12,-249,29,-10,61,17
5310,10,-247,28,-10,59,18
5315,10,-248,26,-12,59,20
5320,11,-249,28,-10,57,21
5325,9,-250,30,-10,55,22
5330,10,-249,27,-10,56,21
5335,9,-248,29,-10,55,22
5340,10,-245,31,-12,55,23
5345,11,-249,31,-16,52,23
5350,8,-248,22,-20,51,24
5355,11,-248,27,-25,48,26
5360,7,-249,33,-30,47,24
5365,8,-248,30,-34,48,26
5370,9,-248,31,-38,49,25
5375,9,-249,29,-37,52,26
5380,7,-246,35,-36,54,26
5385,10,-249,31,-29,58,27
5390,9,-250,37,-24,58,29
5395,9,-248,31,-17,60,32
5400,7,-249,35,-12,59,34
5405,9,-248,32,-11,54,36
5410,7,-246,28,-9,51,39
5415,7,-245,26,-11,50,42
5420,8,-244,29,-15,49,45
5425,10,-245,24,-22,47,49
5430,10,-243,29,-29,45,49
5435,8,-244,27,-36,46,51
5440,8,-245,28,-42,50,51
5445,11,-247,28,-44,53,52
5450,12,-248,33,-41,57,52
5455,8,-247,33,-36,60,55
5460,9,-245,31,-27,61,58
5465,10,-248,39,-18,61,58
5470,10,-247,34,-7,58,57
5475,9,-244,31,0,54,61
5480,11,-247,30,5,48,65
5485,6,-243,30,4,41,70
5490,11,-243,32,0,35,75
5495,12,-242,28,-6,32,81
5500,13,-242,30,-23,30,85
5505,10,-241,30,-39,31,93
5510,9,-241,30,-57,33,96
5515,11,-241,27,-74,34,99
5520,10,-238,29,-90,38,101
5525,9,-236,30,-104,43,104
5530,10,-241,30,-121,46,108
5535,7,-241,33,-136,48,112
5540,7,-238,30,-152,46,114
5545,8,-240,28,-166,39,116
5550,6,-240,32,-183,34,118
5555,12,-242,35,-202,31,124
5560,7,-241,30,-220,33,123
5565,7,-243,34,-233,36,128
5570,6,-242,37,-245,41,125
5575,2,-246,31,-252,45,126
5580,8,-246,41,-253,48,128
5585,5,-244,43,-252,52,125
5590,6,-245,42,-252,55,119
5595,6,-246,43,-250,62,117
5600,9,-244,47,-252,65,115
5605,3,-239,47,-256,68,111
5610,9,-238,45,-272,72,110
5615,7,-234,46,-300,75,102
5620,7,-233,45,-349,80,98
5625,10,-230,49,-406,88,100
5630,10,-229,51,-475,94,97
5635,8,-230,51,-560,103,102
5640,9,-232,46,-661,110,106
5645,6,-231,51,-776,113,115
5650,10,-232,49,-904,114,127
5655,7,-243,45,-1039,114,141
5660,6,-247,44,-1181,108,158
5665,3,-256,41,-1326,96,180
5670,5,-261,27,-1470,76,206
5675,9,-270,27,-1637,40,232
5680,10,-277,19,-1765,0,251
5685,8,-288,14,-1877,-42,274
5690,15,-299,9,-1977,-83,287
5695,17,-309,-1,-2069,-124,302
5700,13,-321,-16,-2159,-160,315
5705,15,-327,-23,-2253,-191,327
5710,12,-332,-33,-2343,-219,330
5715,8,-341,-47,-2427,-243,327
5720,-2,-342,-49,-2506,-261,316
5725,-7,-347,-52,-2583,-273,309
5730,-16,-354,-52,-2655,-270,310
5735,-25,-356,-50,-2726,-249,321
5740,-23,-355,-55,-2760,-218,337
5745,-29,-370,-50,-2777,-174,353
5750,-25,-377,-46,-2773,-127,363
5755,-16,-383,-47,-2746,-85,367
5760,-16,-386,-52,-2693,-60,350
5765,-10,-388,-61,-2610,-56,323
5770,-10,-387,-63,-2494,-67,283
5775,-7,-390,-76,-2352,-81,238
5780,-3,-386,-85,-2201,-89,187
5785,-5,-388,-89,-2049,-88,137
5790,-5,-385,-93,-1898,-78,82
5795,-7,-379,-91,-1714,-70,43
5800,-8,-366,-92,-1553,-54,12
5805,-13,-358,-93,-1379,-30,-3
5810,-14,-342,-96,-1200,5,-13
5815,-11,-326,-104,-1022,42,-19
5820,-8,-306,-108,-856,77,-27
5825,-10,-285,-109,-707,107,-40
5830,-10,-266,-109,-587,135,-54
5835,-6,-253,-114,-496,161,-59
5840,-1,-234,-110,-441,186,-62
5845,-4,-218,-112,-420,206,-69
5850,-3,-209,-106,-431,222,-75
5855,-2,-197,-105,-464,233,-78
5860,1,-195,-98,-511,238,-84
5865,2,-189,-97,-565,237,-89
5870,-4,-186,-98,-624,235,-89
5875,4,-185,-99,-683,234,-82
5880,-3,-184,-99,-739,229,-80
5885,-1,-186,-97,-788,226,-73
5890,-3,-186,-98,-821,222,-63
5895,4,-194,-97,-838,215,-52
5900,1,-199,-90,-840,203,-45
5905,-1,-199,-93,-827,189,-36
5910,0,-203,-91,-801,169,-30
5915,-3,-210,-95,-773,150,-29
5920,-3,-212,-100,-746,132,-25
5925,1,-215,-96,-722,113,-18
5930,-1,-218,-102,-705,94,-15
5935,-2,-224,-111,-694,76,-12
5940,-5,-221,-111,-690,58,-19
5945,-7,-224,-113,-693,44,-14
5950,-2,-222,-117,-705,32,-8
5955,-6,-233,-117,-721,19,-5
5960,-11,-237,-117,-740,9,-8
5965,-7,-240,-115,-755,10,6
5970,-7,-241,-119,-764,14,9
5975,-8,-247,-118,-757,26,11
5980,-8,-252,-118,-742,45,19
5985,-7,-254,-117,-710,63,26
5990,-8,-255,-120,-667,79,26
5995,-8,-259,-121,-612,94,28
6000,-6,-258,-116,-550,105,24
6005,-6,-258,-116,-482,112,14
6010,-6,-257,-118,-414,118,15
6015,-4,-254,-115,-350,122,14
6020,-2,-254,-113,-287,125,5
6025,0,-252,-113,-223,126,-3
6030,1,-245,-109,-176,127,-19
6035,7,-243,-112,-135,125,-37
6040,4,-236,-109,-99,122,-71
6045,-1,-226,-108,-70,123,-87
6050,7,-223,-106,-45,120,-100
6055,-1,-217,-106,-25,111,-119
6060,-2,-214,-108,-7,103,-135
6065,0,-203,-111,7,95,-148
6070,-1,-197,-116,17,87,-158
6075,-8,-192,-117,24,80,-168
6080,-8,-191,-120,28,74,-167
6085,0,-184,-123,24,67,-157
6090,-5,-183,-126,16,58,-167
6095,-10,-177,-129,5,54,-160
6100,-9,-175,-130,-14,55,-149
6105,-4,-179,-140,-37,56,-139
6110,-12,-175,-137,-68,54,-140
6115,-11,-172,-136,-98,55,-132
6120,-8,-176,-137,-128,60,-122
6125,-8,-180,-138,-157,63,-112
6130,-6,-181,-140,-181,63,-107
6135,-8,-180,-140,-200,65,-100
6140,-11,-183,-136,-215,66,-95
6145,-7,-184,-139,-218,68,-89
6150,-6,-181,-139,-215,69,-89
6155,2,-187,-137,-209,68,-85
6160,-9,-184,-134,-200,65,-92
6165,-4,-188,-135,-183,69,-85
6170,-4,-188,-136,-162,70,-79
6175,-4,-187,-134,-142,72,-75
6180,-7,-188,-133,-121,78,-78
6185,-6,-185,-137,-107,78,-84
6190,-7,-183,-135,-87,83,-83
6195,-7,-182,-141,-67,88,-76
6200,-7,-185,-139,-48,89,-72
6205,-6,-188,-145,-42,89,-61
6210,-5,-189,-149,-42,90,-56
6215,-7,-190,-149,-48,88,-47
6220,-4,-196,-155,-60,86,-44
6225,-3,-198,-155,-76,87,-35
6230,-1,-200,-156,-95,90,-32
6235,-1,-208,-154,-117,93,-28
6240,-2,-209,-153,-138,100,-26
6245,1,-211,-150,-150,108,-24
6250,0,-218,-150,-148,114,-25
6255,3,-222,-147,-128,124,-25
6260,4,-223,-145,-96,128,-29
6265,2,-221,-140,-52,131,-31
6270,7,-223,-137,5,133,-34
6275,3,-218,-133,67,133,-44
6280,7,-219,-134,139,135,-46
6285,7,-211,-131,207,139,-41
6290,3,-204,-131,267,141,-49
6295,5,-198,-137,317,143,-58
6300,2,-196,-129,351,146,-60
6305,1,-187,-135,374,150,-61
6310,2,-182,-138,380,156,-56
6315,-2,-176,-134,370,156,-56
6320,1,-177,-143,348,158,-50
6325,-4,-174,-147,315,158,-41
6330,-5,-174,-143,274,156,-36
6335,8,-174,-148,227,154,-28
6340,-7,-173,-145,176,146,-36
6345,-9,-177,-145,137,144,-25
6350,-7,-178,-140,103,144,-14
6355,-7,-180,-141,74,145,-7
6360,-7,-184,-143,54,147,-2
6365,-9,-185,-139,41,146,3
6370,-8,-190,-141,34,148,5
6375,-7,-189,-132,37,149,11
6380,-7,-191,-129,45,151,11
6385,-7,-192,-129,56,155,16
6390,0,-183,-129,70,157,16
6395,-7,-193,-129,83,157,20
6400,-9,-192,-128,91,158,21
6405,1,-194,-128,97,156,23
6410,-12,-193,-132,89,150,16
6415,-7,-194,-133,82,148,23
6420,-5,-196,-134,73,148,29
6425,-8,-195,-134,59,146,34
6430,-7,-200,-134,41,141,35
6435,-7,-200,-138,26,136,39
6440,-10,-202,-129,15,131,40
6445,-7,-204,-136,5,127,44
6450,-6,-207,-129,0,125,45
6455,-4,-210,-130,1,123,47
6460,-2,-213,-130,5,120,48
6465,-3,-209,-128,13,117,53
6470,-2,-213,-132,22,116,52
6475,-2,-212,-127,29,115,56
6480,4,-214,-125,37,117,55
6485,-2,-212,-129,45,118,59
6490,0,-215,-129,48,117,60
6495,-3,-211,-130,51,116,63
6500,4,-220,-133,52,114,62
6505,3,-218,-134,54,113,64
6510,3,-218,-131,53,112,60
6515,5,-223,-131,52,113,61
6520,2,-219,-137,50,111,58
6525,6,-223,-134,51,111,60
6530,3,-223,-131,54,111,57
6535,-2,-221,-134,61,108,58
6540,-1,-223,-135,68,107,54
6545,1,-226,-134,82,104,54
6550,0,-225,-133,95,98,51
6555,-1,-225,-136,108,96,53
6560,2,-223,-132,121,91,49
6565,-2,-223,-131,131,91,50
6570,-2,-222,-132,139,89,48
6575,-1,-219,-128,141,90,47
6580,0,-223,-133,139,92,42
6585,-2,-220,-132,132,91,43
6590,-1,-221,-133,120,93,38
6595,0,-223,-131,107,96,38
6600,-1,-225,-135,90,100,33
6605,-3,-232,-142,75,102,30
6610,0,-227,-134,64,101,23
6615,0,-228,-135,55,103,21
6620,4,-233,-135,51,103,15
6625,0,-229,-133,50,101,12
6630,-1,-229,-132,56,100,5
6635,-2,-226,-129,63,99,1
6640,-1,-227,-132,71,96,-6
6645,-2,-224,-132,80,95,-10
6650,-1,-226,-126,86,95,-15
6655,0,-221,-129,90,89,-19
6660,-2,-219,-130,89,85,-23
6665,-4,-221,-132,85,82,-23
6670,-2,-220,-130,75,78,-27
6675,-4,-217,-128,66,76,-26
6680,-2,-218,-128,56,71,-28
6685,-4,-219,-130,40,69,-25
6690,-4,-220,-130,27,68,-24
6695,-4,-222,-129,12,63,-22
6700,-2,-225,-130,-1,59,-22
6705,-6,-224,-133,-15,55,-19
6710,-3,-223,-131,-27,53,-21
6715,-1,-222,-127,-40,51,-19
6720,-1,-233,-134,-47,50,-22
6725,-2,-228,-131,-51,51,-21
6730,2,-231,-131,-49,50,-25
6735,0,-232,-130,-44,52,-23
6740,0,-231,-129,-32,52,-26
6745,-1,-229,-131,-22,56,-27
6750,3,-230,-128,-9,59,-31
6755,2,-232,-130,5,63,-28
6760,5,-228,-125,15,65,-29
6765,-2,-224,-128,22,67,-29
6770,5,-224,-127,25,68,-28
6775,2,-222,-129,25,65,-19
6780,2,-220,-128,24,63,-19
6785,1,-220,-126,22,60,-13
6790,1,-219,-125,25,56,-14
6795,-1,-215,-124,25,51,-9
6800,3,-216,-126,25,49,-8
6805,-2,-211,-123,23,49,-6
6810,2,-218,-119,20,50,-6
6815,-1,-218,-125,12,51,-4
6820,-1,-216,-123,-1,51,-8
6825,0,-217,-125,-15,53,-4
6830,-3,-222,-124,-32,56,-5
6835,-3,-226,-125,-45,58,-2
6840,1,-226,-128,-54,60,-2
6845,-1,-225,-125,-60,59,1
6850,1,-228,-122,-63,60,1
6855,0,-231,-125,-62,60,5
6860,0,-232,-123,-57,60,3
6865,-1,-229,-125,-50,56,6
6870,3,-231,-123,-39,53,4
6875,2,-231,-124,-27,48,7
6880,2,-227,-125,-15,44,5
6885,0,-230,-119,-5,39,8
6890,2,-227,-122,3,38,5
6895,-1,-226,-122,5,40,7
6900,-1,-226,-124,6,46,3
6905,-1,-224,-122,4,51,3
6910,-2,-226,-126,-2,56,-2
6915,-1,-224,-126,-9,61,-1
6920,-4,-224,-125,-15,63,-4
6925,-6,-224,-122,-20,67,-5
6930,5,-218,-117,-21,67,-7
6935,-4,-227,-124,-22,68,-5
6940,-5,-224,-118,-21,69,-6
6945,1,-224,-118,-18,70,-2
6950,0,-225,-118,-16,70,-3
6955,-1,-224,-121,-16,68,0
6960,1,-228,-122,-15,66,-1
6965,-1,-224,-120,-18,65,0
6970,1,-226,-125,-23,64,-2
6975,2,-226,-125,-25,64,1
6980,5,-226,-121,-27,66,-2
6985,5,-225,-119,-26,69,-1
6990,4,-225,-118,-21,71,-4
6995,4,-227,-120,-15,74,-3
7000,5,-225,-120,-7,78,-6
7005,2,-221,-121,0,79,-7
7010,3,-221,-120,3,78,-11
7015,4,-222,-123,2,77,-10
7020,5,-221,-121,-4,75,-13
7025,4,-219,-124,-10,74,-11
7030,3,-221,-127,-19,72,-13
7035,6,-220,-127,-27,67,-10
7040,-9,-228,-118,-37,66,-10
7045,2,-225,-126,-49,62,-7
7050,0,-223,-124,-57,58,-9
7055,0,-226,-126,-61,56,-5
7060,-2,-224,-124,-65,54,-4
7065,-2,-227,-117,-66,55,0
7070,0,-228,-121,-63,58,-1
7075,1,-227,-122,-61,59,3
7080,2,-233,-119,-57,61,1
7085,0,-226,-121,-54,63,5
7090,1,-230,-123,-50,67,5
7095,-1,-227,-124,-45,69,7
7100,1,-228,-123,-41,72,6
7105,2,-227,-123,-33,72,8
7110,0,-228,-125,-26,72,5
7115,0,-227,-122,-20,70,8
7120,0,-227,-124,-15,68,4
7125,-1,-224,-125,-12,67,6
7130,1,-228,-124,-10,68,3
7135,2,-224,-127,-11,69,5
7140,1,-224,-123,-13,68,1
7145,0,-223,-123,-14,68,2
7150,-1,-220,-121,-18,71,-2
7155,2,-219,-122,-21,72,0
7160,-1,-217,-121,-23,71,-3
7165,1,-222,-119,-24,70,-2
7170,4,-218,-120,-28,67,-6
7175,1,-218,-121,-32,66,-5
7180,2,-219,-125,-37,65,-7
7185,-1,-216,-123,-43,61,-4
7190,-3,-214,-124,-49,61,-7
7195,1,-218,-124,-58,61,-7
7200,1,-215,-128,-67,59,-9
7205,-1,-220,-125,-76,58,-7
7210,3,-220,-123,-86,57,-10
7215,1,-217,-126,-94,56,-8
7220,-6,-216,-127,-102,56,-10
7225,0,-216,-122,-104,53,-10
7230,1,-217,-125,-107,48,-12
7235,0,-217,-123,-103,46,-10
7240,0,-220,-121,-99,42,-12
7245,2,-215,-124,-98,39,-9
7250,1,-217,-123,-97,40,-13
7255,3,-219,-126,-96,41,-12
7260,-1,-221,-128,-97,41,-14
7265,0,-216,-122,-98,42,-13
7270,-1,-216,-127,-101,42,-14
7275,0,-218,-124,-99,41,-11
7280,1,-219,-127,-100,40,-11
7285,0,-219,-123,-100,40,-9
7290,3,-221,-122,-100,38,-10
7295,3,-221,-128,-102,36,-4
7300,1,-224,-122,-107,32,-6
7305,0,-223,-130,-113,32,-1
7310,1,-228,-125,-120,31,-4
7315,4,-231,-128,-128,32,-1
7320,6,-231,-130,-133,33,-4
7325,3,-231,-130,-132,36,-3
7330,4,-232,-127,-130,37,-7
7335,0,-234,-125,-124,37,-6
7340,8,-237,-126,-112,36,-11
7345,5,-235,-128,-99,33,-11
7350,2,-231,-129,-84,29,-13
7355,-3,-232,-129,-69,27,-12
7360,0,-231,-127,-58,26,-16
7365,-2,-229,-121,-51,26,-12
7370,3,-236,-132,-46,27,-13
7375,0,-230,-129,-46,27,-9
7380,-1,-229,-130,-47,28,-9
7385,-3,-228,-125,-53,29,-3
7390,-1,-227,-130,-59,30,-2
7395,-4,-227,-127,-65,30,3
7400,-3,-227,-128,-72,30,3
7405,-3,-227,-130,-80,28,10
7410,0,-227,-128,-88,26,9
7415,-3,-226,-131,-95,24,12
7420,-1,-226,-130,-99,23,10
7425,0,-225,-128,-104,22,13
7430,-2,-224,-131,-109,19,12
7435,-3,-227,-128,-113,20,15
7440,-1,-227,-130,-115,19,13
7445,-2,-228,-128,-117,20,16
7450,-3,-226,-128,-118,21,13
7455,-1,-228,-127,-119,21,15
7460,0,-224,-128,-120,20,13
7465,-3,-225,-125,-121,22,14
7470,3,-228,-125,-123,22,12
7475,0,-226,-123,-123,22,14
7480,-3,-225,-126,-117,23,11
7485,-1,-226,-127,-109,24,13
7490,0,-227,-126,-101,25,10
7495,1,-227,-128,-92,27,13
7500,2,-229,-128,-86,28,11
7505,2,-227,-128,-83,33,15
7510,2,-225,-129,-82,38,12
7515,2,-227,-128,-86,43,15
7520,3,-230,-133,-91,47,13
7525,5,-230,-131,-96,52,15
7530,4,-230,-128,-101,53,13
7535,6,-229,-132,-103,54,15
7540,4,-231,-129,-101,55,12
7545,5,-232,-127,-98,56,14
7550,4,-232,-128,-91,57,10
7555,5,-231,-127,-80,59,11
7560,5,-231,-125,-65,62,7
7565,9,-229,-123,-51,64,6
7570,6,-228,-123,-36,69,-1
7575,3,-226,-126,-23,74,-1
7580,2,-226,-128,-11,79,-7
7585,1,-225,-129,-3,84,-8
7590,1,-219,-125,0,86,-12
7595,-3,-216,-129,-3,86,-12
7600,-3,-218,-130,-7,85,-14
7605,-3,-216,-127,-16,81,-10
7610,-4,-215,-131,-25,76,-11
7615,-3,-216,-128,-36,72,-6
7620,-4,-218,-127,-47,68,-5
7625,-5,-217,-129,-57,66,-1
7630,-4,-215,-124,-63,65,-2
7635,-3,-216,-124,-68,64,3
7640,-6,-217,-126,-64,67,2
7645,-1,-217,-126,-58,69,6
7650,-3,-217,-126,-50,73,4
7655,-5,-218,-128,-43,76,7
7660,-3,-217,-128,-33,79,4
7665,-3,-214,-130,-24,81,5
7670,-4,-215,-128,-18,82,1
7675,-3,-217,-128,-14,80,2
7680,-5,-217,-128,-13,78,-1
7685,-5,-215,-131,-16,75,0
7690,-4,-214,-130,-19,69,-5
7695,-5,-213,-132,-23,64,-4
7700,-4,-212,-130,-26,62,-9
7705,-3,-212,-129,-29,61,-7
7710,-3,-215,-130,-31,62,-12
7715,-2,-216,-128,-31,65,-9
7720,0,-214,-130,-32,72,-11
7725,0,-215,-129,-36,76,-8
7730,0,-219,-128,-36,81,-8
7735,-5,-217,-130,-37,85,-3
7740,-1,-221,-132,-38,87,-3
7745,-1,-216,-133,-40,87,4
7750,1,-225,-133,-43,85,5
7755,-1,-224,-135,-46,84,13
7760,-1,-226,-133,-49,83,15
7765,-1,-226,-132,-52,81,21
7770,1,-229,-129,-51,78,21
7775,0,-230,-129,-49,76,26
7780,0,-230,-127,-42,75,23
7785,4,-233,-130,-33,73,27
7790,1,-234,-132,-21,72,24
7795,0,-233,-130,-10,74,26
7800,1,-232,-126,4,76,22
7805,3,-232,-129,15,81,22
7810,0,-233,-129,25,86,16
7815,1,-231,-128,34,90,14
7820,0,-228,-128,39,94,6
7825,-2,-227,-130,40,96,6
7830,-5,-225,-134,39,97,0
7835,-3,-223,-136,37,98,-1
7840,-5,-220,-135,34,97,-7
7845,-4,-221,-135,30,98,-7
7850,-3,-218,-135,25,103,-10
7855,0,-219,-134,23,105,-8
7860,-2,-215,-132,19,110,-13
7865,-4,-214,-137,16,112,-11
7870,-4,-213,-131,13,115,-13
7875,-2,-215,-132,10,118,-11
7880,-2,-214,-135,9,117,-13
7885,-3,-211,-130,7,117,-10
7890,-2,-212,-133,4,116,-12
7895,0,-213,-130,0,114,-7
7900,1,-209,-135,-5,115,-9
7905,-1,-208,-135,-13,115,-6
7910,-3,-204,-131,-20,115,-8
7915,0,-204,-139,-29,115,-8
7920,-1,-207,-134,-37,115,-12
7925,-1,-210,-134,-44,112,-11
7930,-1,-212,-131,-46,107,-15
7935,-4,-211,-130,-49,104,-15
7940,-4,-211,-132,-47,97,-19
7945,-3,-209,-130,-43,91,-17
7950,-3,-211,-134,-41,85,-20
7955,-4,-215,-135,-38,83,-17
7960,-5,-213,-133,-34,80,-18
7965,-10,-213,-145,-33,79,-15
7970,-2,-217,-133,-30,79,-18
7975,-4,-220,-134,-24,81,-15
7980,-3,-221,-136,-21,82,-18
7985,-3,-220,-134,-19,83,-15
7990,-5,-222,-135,-17,84,-18
7995,-2,-224,-133,-14,82,-16
8000,-2,-226,-134,-10,81,-21
8005,0,-229,-132,-3,79,-21
8010,-2,-225,-133,5,78,-25
8015,3,-229,-130,15,75,-26
8020,-10,-231,-130,26,72,-31
8025,-1,-227,-133,39,68,-32
8030,0,-225,-134,50,61,-36
8035,1,-227,-131,59,59,-36
8040,2,-225,-135,66,55,-40
8045,-1,-224,-133,72,58,-40
8050,2,-224,-131,74,60,-45
8055,-1,-218,-136,75,65,-44
8060,-1,-218,-130,73,64,-47
8065,2,-219,-136,69,65,-46
8070,1,-216,-131,65,63,-49
8075,-3,-214,-134,60,59,-47
8080,0,-217,-129,54,54,-51
8085,-2,-211,-131,51,49,-48
8090,-1,-211,-133,46,42,-51
8095,-1,-213,-127,45,36,-49
8100,-1,-211,-132,42,28,-51
8105,-3,-210,-130,42,22,-49
8110,-3,-208,-132,41,15,-50
8115,-2,-210,-127,42,13,-48
8120,-2,-209,-128,44,13,-49
8125,-5,-208,-128,43,15,-47
8130,-1,-209,-129,42,23,-49
8135,0,-209,-128,41,30,-47
8140,-2,-210,-126,42,38,-51
8145,3,-208,-125,43,45,-51
8150,0,-206,-129,43,53,-56
8155,4,-208,-126,45,59,-58
8160,2,-205,-123,48,63,-64
8165,5,-205,-125,54,64,-68
8170,4,-204,-127,62,65,-74
8175,7,-204,-127,70,61,-79
8180,7,-202,-123,76,59,-85
8185,3,-203,-128,81,55,-88
8190,4,-200,-131,83,49,-95
8195,3,-201,-130,85,42,-95
8200,5,-205,-128,82,37,-100
8205,2,-204,-133,77,32,-96
8210,1,-202,-130,71,26,-96
8215,4,-208,-135,62,22,-88
8220,2,-213,-130,53,20,-85
8225,4,-213,-130,45,21,-73
8230,0,-216,-128,33,25,-68
8235,-1,-220,-126,27,30,-58
8240,7,-216,-138,24,37,-51
8245,5,-222,-124,27,43,-41
8250,5,-222,-127,35,49,-39
8255,6,-223,-125,50,54,-32
8260,7,-225,-128,72,56,-33
8265,8,-225,-126,98,57,-31
8270,6,-222,-121,131,56,-34
8275,5,-219,-122,166,55,-34
8280,6,-218,-127,199,55,-41
8285,5,-214,-126,228,56,-47
8290,2,-209,-129,258,54,-57
8295,3,-204,-131,272,50,-61
8300,2,-198,-131,276,48,-70
8305,2,-197,-135,273,47,-73
8310,1,-192,-133,262,47,-84
8315,0,-189,-131,244,46,-88
8320,4,-185,-136,225,52,-97
8325,2,-182,-132,204,57,-101
8330,0,-180,-131,181,60,-112
8335,-2,-176,-132,158,61,-118
8340,-2,-179,-128,134,61,-128
8345,-3,-178,-132,111,55,-130
8350,-3,-175,-128,94,46,-134
8355,-2,-175,-127,80,38,-132
8360,-1,-173,-127,73,28,-133
8365,1,-174,-123,71,19,-127
8370,3,-174,-124,75,13,-125
8375,1,-173,-116,83,10,-119
8380,2,-169,-116,97,8,-117
8385,4,-167,-116,113,9,-110
8390,9,-170,-115,129,13,-110
8395,6,-167,-112,148,19,-106
8400,9,-164,-113,161,29,-110
8405,4,-163,-114,175,42,-108
8410,6,-164,-114,183,52,-113
8415,7,-165,-117,183,58,-113
8420,8,-167,-115,181,61,-115
8425,9,-164,-115,176,61,-114
8430,8,-167,-116,172,58,-116
8435,9,-169,-114,170,52,-114
8440,8,-169,-114,171,46,-115
8445,8,-172,-115,176,39,-110
8450,9,-178,-114,184,31,-112
8455,8,-180,-113,196,23,-109
8460,17,-178,-106,209,16,-107
8465,6,-183,-115,227,10,-103
8470,8,-190,-114,245,6,-104
8475,7,-196,-111,266,5,-96
8480,5,-198,-107,291,6,-96
8485,5,-203,-105,321,6,-91
8490,8,-206,-105,358,10,-90
8495,6,-214,-101,398,18,-81
8500,6,-220,-97,447,29,-74
8505,7,-223,-100,499,46,-61
8510,12,-227,-102,560,66,-56
8515,8,-232,-105,624,90,-45
8520,12,-236,-103,699,119,-41
8525,15,-240,-101,760,140,-30
8530,14,-243,-102,815,160,-23
8535,19,-246,-104,862,177,-14
8540,24,-252,-108,902,193,-12
8545,26,-253,-112,937,203,-6
8550,27,-256,-113,964,208,-5
8555,33,-259,-108,985,206,2
8560,31,-260,-111,1008,196,2
8565,31,-262,-114,1027,176,6
8570,32,-263,-112,1046,151,5
8575,29,-267,-109,1065,117,6
8580,28,-267,-104,1091,92,8
8585,29,-271,-106,1112,69,16
8590,28,-270,-106,1135,55,19
8595,21,-275,-106,1160,45,25
8600,17,-279,-107,1187,36,27
8605,13,-288,-101,1217,29,32
8610,12,-290,-101,1257,23,33
8615,5,-297,-91,1306,19,31
8620,10,-302,-77,1365,15,23
8625,5,-310,-74,1440,13,17
8630,-1,-318,-60,1527,19,6
8635,-5,-328,-41,1626,30,-8
8640,-6,-346,-19,1780,43,-25
8645,-7,-364,16,1956,59,-40
8650,-9,-388,59,2197,82,-52
8655,-8,-416,101,2535,114,-52
8660,-8,-455,170,3007,156,-48
8665,-7,-515,245,3660,206,-37
8670,-5,-614,199,4440,253,-29
8675,-7,-700,95,4969,272,4
8680,-8,-744,55,5089,262,80
8685,-24,-733,9,5109,237,159
8690,-10,-650,-86,5225,161,200
8695,6,-563,-179,5329,13,193
8700,-8,-430,-312,5228,-68,167
8705,8,-296,-411,4867,-82,146
8710,30,-132,-436,4273,-58,91
8715,1,-26,-430,3477,-40,9
8720,-5,32,-368,2492,-38,-55
8725,-4,35,-265,1357,-48,-64
8730,-2,3,-145,134,-47,-75
8735,6,-38,-61,-1061,2,-87
8740,15,-101,47,-2107,92,-84
8745,23,-171,136,-2917,177,-68
8750,20,-236,194,-3456,216,-76
8755,20,-287,214,-3783,214,-92
8760,13,-323,211,-3856,185,-112
8765,14,-348,191,-3793,143,-123
8770,24,-356,178,-3599,103,-134
8775,31,-353,181,-3258,75,-140
8780,30,-357,157,-2777,67,-150
8785,39,-358,156,-2172,88,-152
8790,36,-327,139,-1468,138,-150
8795,29,-324,112,-700,198,-125
8800,24,-302,90,96,254,-94
8805,23,-274,66,859,286,-54
8810,22,-249,42,1520,294,-20
8815,24,-219,16,2074,282,1
8820,21,-200,8,2298,258,15
8825,17,-176,-1,2306,226,27
8830,19,-165,3,2123,190,32
8835,14,-153,4,1796,154,41
8840,13,-155,3,1384,122,44
8845,8,-168,14,942,103,52
8850,7,-180,18,523,96,55
8855,6,-193,22,163,99,64
8860,1,-211,29,-127,101,65
8865,3,-219,35,-341,98,70
8870,6,-241,55,-508,85,72
8875,6,-259,61,-571,69,78
8880,10,-271,64,-573,51,80
8885,6,-280,63,-521,31,82
8890,6,-289,59,-429,9,84
8895,2,-302,57,-310,-15,85
8900,-2,-295,43,-180,-39,78
8905,1,-301,29,-55,-56,73
8910,2,-287,20,58,-69,61
8915,7,-290,6,149,-76,52
8920,6,-280,-15,219,-78,37
8925,2,-263,-15,266,-77,20
8930,4,-258,-25,296,-71,2
8935,12,-259,-30,303,-62,-13
8940,11,-251,-36,291,-46,-23
8945,12,-243,-31,265,-29,-27
8950,12,-242,-29,226,-9,-40
8955,20,-239,-28,176,10,-45
8960,17,-230,-22,121,30,-59
8965,17,-229,-11,63,46,-62
8970,15,-228,12,4,62,-62
8975,3,-216,22,-52,70,-64
8980,24,-226,7,-99,71,-67
8985,19,-229,22,-138,65,-58
8990,17,-231,27,-169,51,-56
8995,24,-232,33,-184,37,-51
9000,10,-230,31,-184,22,-56
9005,2,-246,27,-172,13,-46
9010,28,-233,19,-149,5,-34
9015,1,-247,32,-112,-5,-22
9020,28,-249,22,-66,-16,-10
9025,18,-245,20,-16,-23,3
9030,11,-252,29,36,-26,13
9035,14,-252,26,86,-27,25
9040,14,-252,24,130,-27,33
9045,12,-250,22,168,-22,40
9050,14,-265,39,193,-19,43
9055,1,-239,17,211,-14,47
9060,14,-268,19,220,-7,45
9065,11,-254,24,223,-3,46
9070,11,-257,17,222,5,42
9075,16,-254,19,218,10,41
9080,11,-257,22,216,19,38
9085,11,-258,17,217,27,35
9090,0,-265,22,224,34,29
9095,14,-283,17,237,46,25
9100,12,-266,13,253,64,19
9105,11,-265,12,277,81,15
9110,11,-265,10,299,96,6
9115,5,-265,3,327,103,1
9120,9,-265,11,356,103,-8
9125,10,-263,13,381,98,-11
9130,8,-264,11,404,89,-16
9135,6,-256,15,420,80,-16
9140,7,-254,12,429,70,-16
9145,3,-250,9,432,63,-12
9150,7,-255,14,426,58,-12
9155,-2,-244,21,414,57,-8
9160,7,-248,12,392,58,-5
9165,6,-245,15,370,58,-1
9170,9,-245,13,344,56,1
9175,9,-244,6,315,54,4
9180,13,-243,14,287,56,3
9185,19,-247,17,260,64,5
9190,17,-243,17,230,75,2
9195,15,-242,20,203,89,5
9200,11,-247,21,176,100,4
9205,16,-246,20,152,108,7
9210,15,-242,15,129,114,9
9215,19,-246,15,108,119,14
9220,16,-244,18,88,121,15
9225,18,-245,18,74,120,17
9230,12,-246,16,60,118,15
9235,13,-249,14,48,116,16
9240,13,-255,14,34,113,14
9245,9,-252,14,17,111,12
9250,9,-247,19,3,110,8
9255,4,-251,15,-11,104,5
9260,5,-255,15,-23,98,-1
9265,1,-255,13,-32,90,-4
9270,4,-256,14,-41,84,-10
9275,0,-258,12,-46,76,-13
9280,0,-259,14,-47,73,-18
9285,-2,-257,18,-45,73,-20
9290,-3,-257,17,-41,76,-23
9295,2,-259,12,-33,81,-25
9300,2,-259,16,-22,86,-29
9305,5,-259,13,-15,89,-28
9310,8,-260,13,-4,94,-29
9315,8,-258,14,4,95,-27
9320,11,-254,16,13,97,-30
9325,11,-260,13,20,97,-28
9330,12,-255,17,26,97,-26
9335,15,-254,15,29,95,-24
9340,12,-254,14,29,92,-23
9345,16,-253,16,24,90,-20
9350,15,-251,12,17,82,-20
9355,12,-251,12,4,73,-16
9360,15,-249,12,-12,66,-17
9365,14,-250,15,-27,60,-14
9370,13,-248,12,-45,54,-15
9375,15,-251,13,-60,50,-13
9380,11,-248,14,-75,46,-13
9385,10,-252,13,-87,43,-10
9390,12,-255,14,-100,43,-9
9395,8,-255,14,-105,43,-6
9400,9,-255,14,-106,46,-6
9405,8,-254,13,-103,48,-6
9410,7,-259,19,-94,51,-7
9415,8,-258,18,-83,55,-5
9420,7,-260,16,-69,60,-8
9425,9,-258,19,-54,64,-6
9430,7,-260,15,-38,68,-8
9435,6,-259,21,-22,68,-6
9440,7,-260,16,-6,69,-7
9445,8,-258,16,11,68,-5
9450,9,-258,18,28,65,-7
9455,11,-257,15,37,62,-6
9460,9,-258,16,43,60,-6
9465,12,-257,14,45,58,-5
9470,13,-257,17,42,54,-5
9475,13,-255,13,39,50,-3
9480,14,-255,17,35,44,-3
9485,14,-257,18,28,37,-1
9490,14,-257,19,20,27,-3
9495,11,-254,20,11,18,-4
9500,9,-257,22,1,6,-5
9505,12,-257,20,-7,-6,-7
9510,10,-252,23,-13,-10,-11
9515,9,-255,23,-19,-10,-15
9520,12,-256,24,-22,-9,-19
9525,9,-255,22,-22,-7,-19
9530,13,-255,14,-23,0,-21
9535,15,-251,14,-24,14,-20
9540,14,-256,14,-25,34,-23
9545,13,-252,12,-27,52,-24
9550,13,-252,11,-31,69,-26
9555,12,-252,8,-33,79,-24
9560,12,-252,12,-33,85,-23
9565,9,-248,13,-31,81,-21
9570,10,-248,15,-30,74,-21
9575,11,-249,18,-28,68,-17
9580,13,-254,19,-26,59,-15
9585,9,-251,23,-22,51,-12
9590,11,-255,20,-19,44,-9
9595,11,-252,22,-15,35,-8
9600,11,-255,21,-9,27,-10
9605,10,-256,23,-1,20,-9
9610,9,-258,18,9,20,-13
9615,11,-259,15,19,22,-13
9620,11,-257,17,35,26,-15
9625,9,-256,18,47,26,-15
9630,12,-258,14,56,32,-17
9635,12,-255,13,62,40,-18
9640,14,-255,18,61,49,-18
9645,19,-251,6,52,56,-16
9650,12,-250,14,41,60,-16
9655,14,-250,15,28,59,-15
9660,14,-254,16,16,56,-16
9665,13,-249,15,6,51,-15
9670,12,-251,14,-4,47,-16
9675,12,-252,14,-11,44,-16
9680,12,-254,15,-17,38,-16
9685,13,-252,14,-19,38,-15
9690,9,-255,14,-18,35,-13
9695,12,-254,20,-14,35,-10
9700,15,-255,20,-8,36,-8
9705,12,-255,20,-5,37,-6
9710,14,-253,22,0,38,-6
9715,13,-253,23,3,40,-4
9720,14,-251,21,3,41,-5
9725,15,-251,24,3,41,-4
9730,15,-253,25,0,44,-4
9735,11,-253,24,-9,48,-4
9740,14,-255,24,-18,54,-5
9745,12,-254,26,-30,58,-4
9750,14,-252,28,-38,61,-5
9755,13,-254,20,-44,63,-5
9760,12,-257,16,-46,66,-9
9765,11,-257,18,-44,68,-9
9770,15,-255,17,-41,70,-12
9775,9,-255,16,-37,70,-13
9780,12,-260,17,-32,69,-14
9785,12,-258,15,-26,67,-13
9790,10,-257,20,-21,64,-15
9795,9,-255,21,-14,61,-16
9800,7,-253,21,-8,58,-16
9805,14,-256,22,-3,56,-16
9810,13,-257,21,2,56,-18
9815,12,-253,18,9,57,-19
9820,10,-252,13,14,59,-21
9825,11,-250,14,21,61,-22
9830,9,-250,13,29,64,-21
9835,14,-250,15,34,65,-18
9840,13,-252,17,39,67,-17
9845,11,-251,21,38,68,-14
9850,16,-251,24,33,68,-11
9855,15,-250,25,25,67,-7
9860,5,-253,31,17,65,-5
9865,15,-250,27,7,65,-3
9870,16,-251,29,1,62,-3
9875,14,-252,22,-7,55,-1
9880,14,-252,22,-15,48,0
9885,14,-253,22,-23,41,3
9890,12,-256,13,-36,36,2
9895,14,-255,11,-52,38,1
9900,13,-253,14,-64,44,0
9905,14,-258,13,-78,55,-3
9910,12,-252,16,-85,61,-6
9915,14,-253,19,-88,66,-8
9920,14,-253,18,-91,70,-9
9925,14,-252,24,-86,69,-8
9930,12,-252,20,-79,65,-9
9935,10,-253,26,-68,61,-8
9940,12,-254,24,-54,53,-7
9945,12,-254,25,-40,50,-7
9950,10,-254,22,-23,51,-10
9955,11,-257,20,-5,52,-12
9960,13,-256,18,9,56,-13
9965,9,-253,18,21,58,-15
9970,9,-252,16,24,60,-14
9975,9,-247,17,21,63,-13
9980,11,-249,19,12,62,-13
9985,11,-248,16,2,63,-11
9990,11,-247,14,-8,62,-10
9995,11,-249,15,-17,62,-5
10000,14,-247,15,-24,62,-1
10005,15,-248,17,-32,62,4
10010,14,-250,22,-42,61,7
10015,14,-253,26,-47,59,12
10020,15,-255,32,-44,58,14
10025,13,-255,30,-34,55,16
10030,13,-258,40,-21,50,18
10035,12,-252,36,-10,39,19
10040,13,-258,26,-4,23,20
10045,12,-256,25,-3,4,21
10050,14,-256,18,-9,-7,22
10055,16,-258,11,-21,-2,20
10060,14,-255,12,-39,18,16
10065,11,-257,6,-59,39,15
10070,12,-257,8,-76,54,10
10075,8,-252,9,-93,61,5
10080,11,-254,6,-109,60,-3
10085,12,-252,10,-130,59,-7
10090,11,-249,10,-154,57,-13
10095,10,-251,11,-176,53,-18
10100,9,-252,14,-194,49,-21
10105,12,-255,15,-207,46,-21
10110,11,-256,20,-202,46,-23
10115,15,-257,22,-185,51,-23
10120,14,-260,25,-153,58,-25
10125,9,-260,19,-105,64,-27
10130,8,-260,19,-50,70,-30
10135,10,-256,22,14,73,-34
10140,9,-255,15,58,76,-37
10145,10,-254,17,90,82,-37
10150,7,-247,18,105,87,-34
10155,12,-245,17,106,87,-31
10160,13,-243,15,99,87,-28
10165,12,-238,16,83,83,-23
10170,11,-244,13,58,74,-17
10175,12,-244,13,33,66,-9
10180,17,-248,11,10,60,-2
10185,21,-246,12,-10,55,3
10190,12,-251,13,-27,53,8
10195,14,-254,9,-38,51,10
10200,15,-251,13,-46,48,15
10205,15,-255,13,-53,49,17
10210,15,-256,19,-62,51,18
10215,16,-254,27,-69,52,20
10220,12,-255,31,-71,53,22
10225,15,-255,35,-66,54,22
10230,16,-256,31,-54,55,21
10235,15,-255,35,-39,58,19
10240,13,-256,33,-25,55,15
10245,16,-255,30,-8,51,10
10250,11,-255,21,-1,47,5
10255,13,-254,19,-4,46,2
10260,13,-256,15,-18,48,-2
10265,12,-254,11,-40,54,-1
10270,15,-257,9,-69,60,-3
10275,15,-254,3,-100,68,-7
10280,12,-255,4,-130,75,-13
10285,10,-253,9,-153,79,-18
10290,10,-252,10,-175,81,-22
10295,12,-254,14,-189,79,-26
10300,10,-251,15,-198,74,-27
10305,11,-253,15,-197,68,-29
10310,9,-255,17,-183,61,-30
10315,9,-257,16,-156,56,-31
10320,11,-259,18,-117,56,-30
10325,8,-259,17,-68,60,-28
10330,10,-260,17,-15,65,-28
10335,11,-260,15,34,71,-28
10340,10,-256,13,72,78,-27
10345,11,-242,15,97,87,-26
10350,10,-250,15,107,95,-25
10355,10,-246,15,105,101,-21
10360,10,-244,17,90,103,-15
10365,13,-245,14,70,98,-10
10370,10,-246,14,54,89,-5
10375,12,-245,13,33,77,0
10380,13,-247,12,14,67,5
10385,13,-249,9,-10,56,9
10390,16,-252,11,-30,50,12
10395,13,-253,12,-50,44,14
10400,18,-250,17,-66,39,17
10405,15,-254,16,-80,37,19
10410,15,-254,18,-86,40,22
10415,18,-256,23,-87,47,22
10420,16,-257,32,-73,54,23
10425,16,-257,37,-53,58,20
10430,16,-256,36,-30,59,18
10435,16,-257,29,-7,54,14
10440,16,-256,31,11,50,12
10445,15,-256,21,21,47,8
10450,17,-256,16,20,51,3
10455,14,-255,13,8,58,0
10460,12,-252,10,-19,66,-2
10465,12,-252,7,-53,71,-2
10470,10,-251,6,-93,73,-5
10475,13,-252,5,-141,76,-12
10480,11,-249,7,-178,80,-16
10485,11,-252,9,-202,81,-19
10490,12,-255,13,-214,77,-22
10495,10,-257,13,-211,72,-23
10500,12,-260,15,-197,64,-22
10505,9,-258,16,-170,56,-21
10510,9,-259,19,-132,52,-20
10515,8,-259,15,-86,52,-19
10520,10,-258,15,-39,56,-18
10525,10,-258,12,7,62,-17
10530,8,-253,12,43,69,-15
10535,10,-253,12,74,76,-14
10540,13,-249,14,84,84,-11
10545,12,-247,14,84,89,-8
10550,14,-249,15,75,92,-5
10555,9,-246,13,59,93,-3
10560,7,-245,14,37,87,0
10565,13,-247,14,14,79,3
10570,13,-250,14,-3,69,5
10575,9,-251,13,-14,59,7
10580,13,-255,15,-21,54,8
10585,16,-256,13,-24,51,10
10590,13,-253,12,-27,50,11
10595,14,-254,13,-30,48,12
10600,14,-255,17,-33,45,14
10605,14,-256,17,-35,42,16
10610,12,-251,16,-32,40,16
10615,15,-253,20,-28,42,14
10620,11,-257,23,-21,47,12
10625,12,-257,20,-15,51,9
10630,11,-256,21,-10,50,9
10635,13,-257,14,-11,47,4
10640,11,-256,14,-20,45,2
10645,10,-256,10,-44,48,-3
10650,12,-257,7,-72,55,-4
10655,12,-255,9,-101,63,-10
10660,10,-256,7,-130,67,-14
10665,9,-259,11,-148,69,-19
10670,12,-256,5,-159,67,-22
10675,9,-255,10,-162,68,-27
10680,11,-257,10,-157,70,-29
10685,10,-256,12,-141,72,-32
10690,12,-258,12,-117,72,-32
10695,10,-259,15,-89,72,-31
10700,10,-257,15,-57,73,-30
10705,12,-257,12,-16,76,-30
10710,10,-254,14,17,77,-29
10715,12,-254,14,46,77,-30
10720,8,-252,13,66,77,-28
10725,6,-249,12,77,78,-27
10730,13,-249,13,78,79,-24
10735,15,-245,12,69,80,-21
10740,11,-247,12,57,83,-15
10745,10,-247,15,41,82,-10
10750,11,-252,16,27,75,-5
10755,13,-249,14,16,64,-1
10760,14,-249,12,7,56,6
10765,15,-251,13,0,51,8
10770,14,-250,12,-7,45,13
10775,16,-254,14,-17,44,12
10780,16,-254,14,-26,41,15
10785,13,-254,15,-35,42,16
10790,18,-254,17,-38,43,19
10795,13,-255,18,-36,43,19
10800,14,-254,17,-31,44,19
10805,15,-258,24,-24,45,16
10810,15,-257,25,-15,46,16
10815,14,-255,22,-9,50,10
10820,13,-256,25,-5,54,9
10825,15,-257,19,-6,57,3
10830,14,-256,18,-10,57,0
10835,13,-253,13,-20,54,-6
10840,15,-254,9,-34,56,-8
10845,16,-257,6,-54,62,-12
10850,13,-259,7,-75,71,-15
10855,13,-257,2,-95,75,-19
10860,13,-260,1,-111,70,-22
10865,11,-257,9,-123,66,-27
10870,13,-256,5,-130,65,-32
10875,12,-257,9,-131,65,-36
10880,10,-258,11,-125,68,-33
10885,12,-255,12,-111,68,-34
10890,10,-256,12,-91,68,-32
10895,11,-255,12,-65,70,-31
10900,11,-255,13,-36,74,-27
10905,11,-255,12,-4,77,-27
10910,9,-253,14,29,81,-23
10915,12,-253,13,55,82,-21
10920,8,-250,12,74,84,-16
10925,12,-248,15,83,82,-15
10930,10,-250,13,80,81,-9
10935,12,-249,17,72,79,-8
10940,12,-250,16,60,75,-3
10945,14,-247,15,48,71,-2
10950,13,-250,14,42,66,2
10955,13,-253,12,34,62,5
10960,16,-254,14,29,59,9
10965,12,-252,11,22,57,10
10970,17,-254,9,17,58,13
10975,13,-255,12,12,59,12
10980,17,-257,8,6,62,13
10985,17,-257,14,2,65,10
10990,16,-256,11,1,64,11
10995,17,-258,13,0,63,9
11000,15,-258,12,2,61,10
11005,13,-255,12,2,56,8
11010,13,-255,12,2,54,8
11015,14,-254,13,0,55,5
11020,13,-254,16,1,56,5
11025,13,-253,20,2,59,3
11030,12,-255,21,4,61,4
11035,14,-254,24,8,64,1
11040,11,-247,24,13,69,-1
11045,13,-250,27,18,70,-5
11050,3,-252,31,21,67,-6
11055,12,-254,22,23,64,-10
11060,14,-252,23,21,60,-9
11065,13,-252,19,19,57,-11
11070,14,-252,15,12,53,-9
11075,13,-253,11,-3,53,-10
11080,14,-253,11,-20,59,-10
11085,11,-254,9,-41,66,-11
11090,10,-254,3,-63,71,-10
11095,10,-253,0,-85,72,-13
11100,12,-255,8,-105,71,-13
11105,10,-252,9,-116,67,-16
11110,10,-254,8,-120,65,-14
11115,10,-256,9,-118,63,-16
11120,9,-256,11,-107,63,-16
11125,9,-259,14,-89,65,-18
11130,9,-258,13,-67,67,-17
11135,10,-257,14,-41,65,-16
11140,8,-260,12,-11,65,-15
11145,9,-258,16,17,66,-14
11150,10,-256,12,45,66,-12
11155,12,-253,11,66,68,-12
11160,9,-255,13,83,71,-8
11165,8,-251,13,88,72,-10
11170,9,-250,14,85,74,-7
11175,10,-250,12,76,75,-8
11180,12,-251,13,65,74,-6
11185,12,-250,18,54,70,-5
11190,13,-250,16,43,67,-3
11195,12,-252,13,34,62,-2
11200,14,-253,17,23,60,1
11205,13,-253,12,12,57,1
11210,17,-251,13,2,57,4
11215,14,-254,13,-8,58,5
11220,18,-254,13,-13,59,7
11225,13,-252,13,-18,59,6
11230,13,-254,12,-25,58,8
11235,15,-252,14,-30,57,7
11240,18,-253,16,-34,56,8
11245,14,-251,20,-35,57,5
11250,15,-254,24,-33,57,7
11255,15,-251,26,-30,59,4
11260,14,-251,28,-24,62,4
11265,13,-254,30,-20,60,-3
11270,16,-251,29,-14,56,-3
11275,12,-258,28,-4,51,-9
11280,12,-255,25,3,45,-10
11285,13,-254,22,4,40,-13
11290,11,-256,14,0,36,-14
11295,14,-254,12,-12,36,-15
11300,15,-257,11,-28,45,-14
11305,14,-258,0,-44,58,-17
11310,13,-257,1,-61,70,-15
11315,11,-256,2,-77,77,-17
11320,8,-254,-1,-90,78,-18
11325,13,-254,-1,-102,74,-22
11330,12,-251,4,-112,72,-21
11335,10,-254,10,-116,72,-24
11340,10,-252,12,-117,71,-23
11345,10,-256,13,-110,67,-24
11350,10,-256,13,-95,62,-21
11355,12,-258,15,-73,58,-22
11360,10,-257,13,-46,55,-18
11365,9,-253,16,-15,55,-18
11370,9,-257,13,19,58,-14
11375,13,-257,17,47,61,-13
11380,12,-251,10,69,67,-8
11385,14,-253,13,84,71,-7
11390,15,-253,13,88,76,-2
11395,13,-251,12,84,77,-2
11400,14,-249,14,76,76,2
11405,15,-248,15,65,75,2
11410,14,-250,15,53,71,7
11415,13,-252,13,41,66,6
11420,16,-252,16,29,63,10
11425,18,-254,12,18,57,9
11430,15,-254,14,9,52,12
11435,14,-256,13,3,51,11
11440,16,-256,14,-2,54,14
11445,17,-259,15,-6,55,10
11450,13,-258,17,-4,61,12
11455,16,-256,16,-1,65,10
11460,18,-258,16,8,69,11
11465,14,-255,15,17,72,5
11470,14,-254,19,25,74,7
11475,18,-254,16,30,70,3
11480,13,-249,21,32,68,4
11485,13,-252,23,33,62,1
11490,16,-249,24,32,58,3
11495,12,-249,23,28,56,0
11500,14,-250,20,18,58,4
11505,14,-248,23,5,59,0
11510,13,-248,25,-10,61,2
11515,11,-250,23,-24,59,-1
11520,12,-250,21,-37,54,-1
11525,12,-252,17,-48,49,-3
11530,9,-255,16,-60,40,-3
11535,11,-252,21,-67,36,-6
11540,11,-257,12,-76,34,-4
11545,11,-257,11,-85,37,-7
11550,12,-258,6,-93,42,-6
11555,14,-260,3,-98,56,-10
11560,13,-260,1,-103,69,-9
11565,13,-257,-1,-102,81,-13
11570,10,-258,3,-96,88,-13
11575,9,-259,5,-87,90,-17
11580,11,-257,8,-74,90,-16
11585,11,-258,8,-60,89,-19
11590,7,-257,12,-44,86,-18
11595,10,-248,7,-29,86,-19
11600,9,-254,14,-11,84,-16
11605,10,-257,13,10,83,-16
11610,12,-257,14,30,79,-12
11615,11,-255,12,53,75,-13
11620,9,-254,13,69,67,-7
11625,13,-253,9,81,62,-6
11630,13,-255,15,88,57,-2
11635,12,-252,13,82,54,-1
11640,9,-246,12,72,53,4
11645,13,-248,12,57,54,4
11650,14,-250,12,43,59,7
11655,12,-251,15,30,64,7
11660,11,-250,14,16,70,7
11665,14,-252,18,5,74,4
11670,17,-253,16,-4,78,6
11675,15,-254,18,-13,80,3
11680,16,-253,20,-15,79,6
11685,16,-254,21,-13,77,3
11690,14,-257,18,-9,73,4
11695,14,-256,19,-4,71,1
11700,15,-254,17,4,69,4
11705,16,-254,15,8,65,2
11710,15,-253,20,12,60,4
11715,14,-255,19,14,55,2
11720,13,-250,23,13,52,3
11725,12,-252,18,9,46,0
11730,10,-250,19,3,44,2
11735,10,-251,20,-6,43,-2
11740,10,-252,19,-19,42,-1
11745,11,-252,21,-31,41,-5
11750,12,-253,21,-42,43,-3
11755,12,-253,20,-49,40,-5
11760,12,-253,21,-55,37,-6
11765,9,-254,11,-61,36,-9
11770,9,-252,12,-65,37,-8
11775,11,-257,12,-68,42,-11
11780,10,-254,7,-74,49,-10
11785,12,-257,10,-75,60,-15
11790,7,-252,8,-74,69,-14
11795,11,-255,7,-68,75,-19
11800,11,-258,9,-59,80,-19
11805,12,-255,11,-45,83,-22
11810,9,-258,14,-32,83,-20
11815,11,-255,12,-16,80,-22
11820,10,-255,14,-2,76,-18
11825,11,-256,14,11,74,-18
11830,12,-254,17,24,68,-12
11835,11,-251,13,33,64,-11
11840,13,-253,13,38,60,-4
11845,16,-253,14,39,59,-4
11850,13,-251,14,36,57,1
11855,14,-253,12,31,55,1
11860,16,-251,12,26,56,6
11865,15,-252,13,23,58,4
11870,18,-254,14,18,61,8
11875,14,-254,13,16,64,5
11880,16,-254,13,11,65,7
11885,15,-253,13,8,66,3
11890,15,-254,18,3,67,5
11895,16,-256,14,-1,69,0
11900,17,-255,14,-1,73,1
11905,13,-256,19,-1,76,-2
11910,15,-253,18,1,80,-1
11915,13,-253,15,5,83,-6
11920,9,-254,16,6,84,-4
11925,14,-255,17,9,82,-7
11930,15,-255,19,12,79,-6
11935,12,-254,19,15,75,-9
11940,10,-254,23,16,70,-8
11945,9,-252,24,17,63,-12
11950,10,-254,23,15,56,-11
11955,14,-253,19,9,49,-14
11960,11,-253,23,-1,45,-12
11965,11,-253,20,-9,43,-16
11970,10,-254,18,-17,41,-13
11975,12,-256,16,-25,40,-13
11980,11,-254,17,-31,40,-9
11985,13,-254,12,-36,41,-13
11990,9,-252,9,-41,48,-12
11995,14,-253,8,-44,60,-14
