timestamp,acc_x,acc_y,acc_z,gyro_x,gyro_y,gyro_z
0,-2,-259,56,10,72,-8
5,1,-261,58,11,71,-9
10,2,-261,57,12,71,-8
15,0,-260,56,10,70,-9
20,1,-259,56,10,70,-8
25,8,-259,67,9,71,-8
30,1,-258,57,10,68,-8
35,0,-259,57,9,67,-8
40,0,-262,58,6,67,-10
45,1,-260,58,6,68,-9
50,1,-258,58,5,68,-10
55,1,-260,58,4,68,-10
60,0,-256,55,4,70,-9
65,0,-261,59,4,70,-9
70,1,-260,59,4,70,-9
75,0,-260,59,5,71,-7
80,1,-259,56,4,70,-7
85,-2,-261,56,5,70,-6
90,-1,-261,56,5,69,-4
95,1,-263,62,4,68,-3
100,0,-262,61,5,68,-3
105,0,-261,58,4,67,-1
110,-1,-260,55,4,65,-1
115,-1,-261,56,3,68,-2
120,1,-263,57,4,66,-2
125,-1,-260,59,4,67,-3
130,1,-261,53,2,68,-2
135,2,-263,59,3,66,-4
140,0,-258,58,3,66,-3
145,0,-258,57,3,66,-3
150,0,-261,58,5,66,-4
155,0,-259,58,7,65,-4
160,-1,-259,59,8,67,-4
165,0,-258,60,9,66,-5
170,0,-261,57,9,67,-4
175,-2,-258,58,10,66,-3
180,-1,-258,55,10,67,-2
185,3,-261,60,9,67,-1
190,2,-260,58,8,68,0
195,1,-262,61,5,66,1
200,0,-259,59,3,68,1
205,2,-259,61,1,68,-1
210,0,-258,62,1,68,-1
215,2,-260,59,-1,69,-2
220,1,-261,60,-2,67,-2
225,0,-257,60,-3,67,-1
230,3,-259,57,-2,68,1
235,-2,-261,59,-2,67,0
240,5,-256,57,-3,68,-1
245,0,-259,60,-4,69,0
250,1,-259,57,-5,69,-1
255,1,-262,58,-6,68,-1
260,0,-257,59,-8,66,-2
265,0,-260,55,-8,66,-1
270,0,-263,58,-10,67,-3
275,-1,-257,59,-12,67,-1
280,0,-258,56,-13,67,-3
285,1,-261,58,-13,68,-2
290,1,-259,59,-13,68,-3
295,0,-259,59,-12,67,-1
300,0,-260,58,-12,69,-1
305,0,-260,58,-11,69,0
310,0,-258,60,-12,69,-1
315,0,-258,57,-11,70,-1
320,0,-262,59,-12,70,0
325,0,-260,58,-12,71,-1
330,0,-261,59,-12,70,0
335,0,-262,60,-14,72,0
340,0,-259,56,-15,71,-2
345,1,-260,56,-15,72,-1
350,3,-267,57,-16,71,-1
355,0,-258,60,-17,71,-3
360,0,-264,54,-17,72,-2
365,1,-261,57,-16,71,-2
370,0,-261,58,-17,70,-3
375,0,-261,56,-16,71,-2
380,0,-261,61,-16,70,-3
385,0,-262,59,-14,71,-4
390,0,-258,55,-14,70,-3
395,1,-261,58,-13,71,-2
400,2,-264,57,-11,71,-3
405,1,-259,59,-11,72,-3
410,0,-259,60,-7,71,-1
415,2,-260,59,-8,71,-1
420,0,-259,59,-7,71,0
425,-1,-257,59,-6,71,0
430,1,-262,59,-6,72,-1
435,1,-261,60,-6,71,-1
440,-2,-258,54,-6,71,0
445,0,-259,59,-5,70,1
450,0,-260,56,-5,69,2
455,0,-263,60,-5,68,2
460,5,-253,60,-5,67,0
465,0,-261,57,-3,67,-1
470,0,-260,57,-4,67,-2
475,0,-262,62,-5,67,-2
480,0,-261,58,-5,64,-2
485,0,-257,61,-6,65,-3
490,1,-262,61,-8,68,-3
495,1,-260,57,-9,65,-4
500,0,-262,55,-10,66,-4
505,0,-260,55,-13,66,-3
510,1,-263,59,-13,67,-2
515,0,-258,59,-12,69,-2
520,1,-258,57,-12,68,0
525,2,-260,56,-12,68,-1
530,1,-259,57,-11,68,-1
535,0,-259,57,-12,68,-2
540,1,-260,56,-12,68,-2
545,-1,-260,57,-12,68,-2
550,1,-261,58,-13,69,-2
555,0,-261,58,-12,69,-3
560,0,-260,58,-14,68,-2
565,1,-259,55,-14,68,-2
570,0,-258,56,-16,68,-3
575,1,-258,58,-16,68,-5
580,0,-259,59,-16,68,-5
585,1,-259,55,-17,69,-5
590,1,-263,57,-16,68,-5
595,0,-259,58,-16,68,-5
600,2,-258,59,-16,68,-4
605,-1,-260,56,-14,68,-4
610,-2,-260,58,-13,67,-5
615,0,-258,59,-15,67,-6
620,-1,-260,60,-13,68,-6
625,0,-262,59,-12,68,-6
630,2,-262,55,-14,67,-5
635,-1,-259,57,-15,69,-5
640,3,-258,56,-15,70,-6
645,0,-261,57,-14,69,-6
650,-1,-263,58,-15,69,-6
655,1,-263,56,-15,69,-5
660,0,-258,59,-15,69,-5
665,0,-259,56,-15,67,-6
670,1,-260,60,-15,67,-6
675,2,-256,52,-12,66,-7
680,0,-260,62,-11,67,-8
685,-2,-259,52,-10,65,-6
690,0,-261,58,-8,66,-5
695,0,-258,61,-8,65,-6
700,0,-263,56,-8,65,-7
705,1,-257,60,-8,65,-5
710,0,-259,58,-8,66,-5
715,0,-259,57,-8,66,-5
720,2,-261,56,-11,66,-4
725,1,-259,58,-11,67,-4
730,0,-261,58,-11,68,-5
735,0,-258,56,-13,68,-4
740,1,-261,61,-14,69,-3
745,1,-264,59,-15,68,-4
750,0,-257,57,-13,68,-5
755,0,-260,55,-13,68,-4
760,1,-261,59,-12,68,-5
765,1,-261,57,-10,69,-4
770,1,-258,60,-9,69,-6
775,1,-262,58,-8,68,-5
780,0,-261,57,-6,68,-5
785,3,-264,57,-5,69,-4
790,0,-260,56,-5,69,-4
795,0,-259,61,-4,68,-5
800,1,-259,60,-4,69,-4
805,0,-261,59,-5,69,-4
810,2,-260,56,-6,69,-3
815,2,-258,58,-7,68,-4
820,0,-262,60,-9,69,-5
825,0,-258,59,-10,68,-5
830,0,-262,56,-11,68,-4
835,0,-260,55,-13,68,-6
840,0,-259,56,-14,68,-6
845,0,-258,59,-15,68,-6
850,0,-264,58,-14,68,-7
855,1,-258,56,-12,68,-6
860,1,-260,56,-10,67,-7
865,1,-259,58,-7,66,-7
870,0,-262,60,-6,66,-8
875,-1,-260,59,-4,67,-8
880,0,-260,61,-2,65,-7
885,1,-260,62,0,66,-7
890,0,-260,60,1,66,-7
895,5,-250,60,0,66,-5
900,2,-260,58,0,67,-4
905,0,-258,59,-2,67,-4
910,1,-257,60,-5,66,-4
915,2,-258,58,-7,67,-2
920,0,-261,61,-6,66,-2
925,0,-260,61,-7,66,-1
930,0,-259,56,-7,68,-1
935,0,-259,58,-9,66,-3
940,-2,-260,55,-9,66,-3
945,1,-260,63,-10,66,-3
950,0,-263,60,-11,66,-5
955,0,-260,59,-11,67,-5
960,0,-259,60,-11,66,-4
965,-2,-259,56,-12,66,-5
970,0,-261,59,-13,67,-5
975,0,-263,58,-13,67,-5
980,2,-261,57,-13,68,-4
985,1,-259,60,-12,67,-5
990,0,-261,55,-10,67,-3
995,1,-261,55,-10,68,-3
1000,0,-258,60,-10,66,-4
1005,2,-260,60,-10,68,-2
1010,-2,-257,53,-10,68,-3
1015,0,-258,61,-11,69,-2
1020,0,-261,56,-10,69,-3
1025,0,-260,59,-9,69,-3
1030,-2,-262,62,-8,69,-4
1035,0,-260,55,-8,71,-2
1040,-2,-260,60,-9,70,-4
1045,1,-263,58,-9,71,-5
1050,0,-260,58,-9,71,-5
1055,0,-259,61,-8,70,-6
1060,1,-262,59,-8,70,-6
1065,0,-262,58,-9,71,-6
1070,2,-263,56,-9,71,-5
1075,0,-262,62,-8,72,-5
1080,2,-259,58,-8,73,-5
1085,0,-260,60,-5,72,-4
1090,1,-261,58,-5,71,-4
1095,0,-260,57,-4,70,-4
1100,-2,-259,57,-3,72,-4
1105,0,-259,60,-4,70,-3
1110,7,-254,71,-3,69,-2
1115,-1,-261,57,-2,70,-3
1120,0,-257,60,-4,69,-2
1125,1,-260,60,-5,68,-3
1130,0,-260,61,-7,68,-4
1135,-2,-258,61,-7,68,-3
1140,0,-261,58,-7,68,-4
1145,0,-258,57,-10,68,-4
1150,1,-260,60,-10,69,-6
1155,1,-262,61,-11,69,-4
1160,0,-257,62,-13,69,-5
1165,1,-258,60,-12,69,-6
1170,2,-264,60,-12,70,-5
1175,0,-261,61,-13,70,-6
1180,0,-260,57,-12,70,-3
1185,-1,-259,59,-13,71,-4
1190,-1,-261,61,-12,71,-4
1195,0,-263,61,-12,71,-3
1200,0,-262,59,-12,71,-3
1205,2,-260,58,-12,70,-3
1210,3,-263,59,-11,70,-3
1215,1,-260,60,-13,71,-2
1220,0,-264,59,-12,71,-2
1225,-2,-259,61,-12,70,-1
1230,1,-261,57,-12,69,-1
1235,0,-260,57,-12,68,-2
1240,1,-257,58,-11,69,-3
1245,-1,-257,60,-11,70,-2
1250,1,-258,59,-12,70,-3
1255,-2,-259,56,-10,70,-3
1260,2,-258,58,-12,70,-3
1265,0,-262,60,-11,70,-2
1270,1,-260,59,-12,70,-4
1275,1,-260,61,-12,70,-3
1280,0,-260,60,-12,71,-5
1285,0,-259,58,-13,70,-3
1290,0,-258,59,-13,71,-3
1295,2,-262,59,-14,70,-3
1300,1,-261,60,-14,70,-1
1305,0,-261,60,-13,69,-2
1310,0,-259,57,-14,69,-3
1315,0,-258,63,-13,69,-4
1320,2,-260,61,-13,68,-4
1325,0,-260,58,-14,68,-4
1330,2,-262,61,-13,67,-4
1335,0,-260,61,-12,67,-3
1340,0,-262,60,-13,66,-2
1345,0,-258,59,-12,66,-1
1350,0,-261,57,-11,66,-4
1355,0,-259,62,-12,66,-3
1360,1,-260,55,-13,66,-2
1365,0,-259,59,-12,66,-1
1370,1,-261,60,-12,67,-1
1375,0,-259,58,-11,67,-2
1380,1,-259,62,-11,68,-1
1385,-1,-258,57,-12,68,-1
1390,1,-260,61,-12,67,-1
1395,0,-259,60,-12,66,0
1400,1,-262,60,-11,67,-2
1405,1,-262,61,-11,68,-1
1410,-1,-259,61,-11,68,-2
1415,1,-263,59,-12,68,-1
1420,0,-260,59,-11,69,-3
1425,0,-257,58,-12,69,-4
1430,2,-259,56,-13,69,-4
1435,0,-263,65,-14,70,-4
1440,1,-260,56,-14,71,-5
1445,4,-262,59,-15,73,-5
1450,0,-260,59,-15,73,-4
1455,1,-261,55,-13,72,-3
1460,1,-262,57,-13,72,-4
1465,1,-259,60,-12,73,-3
1470,1,-259,56,-10,74,-3
1475,0,-260,61,-9,73,-4
1480,1,-259,58,-7,73,-3
1485,1,-262,62,-6,72,-3
1490,0,-259,59,-4,73,-2
1495,0,-261,57,-3,73,-2
1500,0,-259,59,-3,72,0
1505,2,-259,61,-3,72,-1
1510,2,-261,60,-4,71,-1
1515,0,-261,56,-5,70,0
1520,-1,-262,59,-6,69,0
1525,0,-263,62,-8,68,-1
1530,-1,-264,55,-9,70,-3
1535,3,-263,56,-10,69,-5
1540,0,-262,59,-10,68,-4
1545,-2,-259,57,-10,68,-3
1550,8,-254,63,-8,66,-4
1555,1,-262,60,-7,66,-5
1560,1,-261,59,-5,64,-6
1565,1,-261,58,-4,66,-6
1570,1,-260,61,-2,65,-6
1575,3,-260,59,0,65,-7
1580,0,-260,58,0,66,-8
1585,0,-260,59,2,65,-9
1590,1,-260,60,2,67,-8
1595,0,-256,57,1,68,-8
1600,1,-260,56,0,71,-7
1605,0,-259,61,0,71,-8
1610,-1,-257,62,-1,71,-7
1615,0,-258,60,-3,71,-8
1620,0,-261,61,-5,73,-5
1625,1,-258,61,-7,73,-4
1630,1,-257,58,-8,74,-4
1635,1,-260,59,-9,73,-4
1640,3,-262,58,-10,71,-5
1645,1,-261,60,-11,70,-5
1650,0,-259,60,-13,70,-5
1655,0,-265,57,-14,70,-5
1660,1,-259,57,-15,70,-5
1665,0,-260,58,-16,69,-4
1670,1,-260,56,-17,69,-5
1675,1,-260,59,-16,69,-4
1680,0,-259,59,-17,71,-3
1685,0,-262,62,-16,71,-4
1690,0,-261,60,-15,70,-4
1695,0,-258,60,-15,69,-3
1700,1,-258,58,-15,69,-2
1705,0,-258,58,-13,70,-3
1710,0,-260,62,-12,71,-3
1715,2,-260,61,-11,72,-3
1720,0,-259,61,-12,71,-2
1725,0,-261,60,-12,71,-2
1730,1,-259,59,-11,72,-2
1735,0,-259,60,-11,72,-4
1740,2,-261,60,-11,73,-3
1745,1,-259,61,-11,72,-5
1750,-2,-257,59,-13,71,-4
1755,0,-262,59,-14,72,-4
1760,0,-261,61,-15,71,-5
1765,4,-259,67,-16,72,-6
1770,0,-260,59,-16,71,-5
1775,2,-260,57,-16,72,-4
1780,0,-261,58,-14,73,-3
1785,1,-260,61,-12,72,-3
1790,-1,-259,61,-11,73,-4
1795,0,-260,61,-9,72,-3
1800,0,-262,58,-8,71,-3
1805,1,-260,61,-6,70,-3
1810,0,-259,58,-5,70,-3
1815,0,-259,61,-4,69,-3
1820,0,-260,57,-5,69,-2
1825,0,-258,60,-6,67,-2
1830,0,-257,62,-9,68,-1
1835,0,-258,58,-9,69,-1
1840,1,-260,60,-9,70,-1
1845,0,-259,61,-11,69,-2
1850,0,-260,61,-12,68,-1
1855,0,-261,59,-12,68,-2
1860,1,-260,61,-13,67,-2
1865,1,-260,58,-12,67,-3
1870,-3,-259,62,-12,67,-2
1875,7,-257,59,-12,67,-1
1880,-1,-257,60,-13,68,-2
1885,0,-261,61,-14,66,-2
1890,1,-257,62,-14,66,-3
1895,1,-261,62,-17,68,-2
1900,2,-261,59,-17,70,-2
1905,0,-262,58,-18,68,-4
1910,2,-261,56,-17,67,-2
1915,-1,-261,58,-17,67,-3
1920,0,-261,59,-17,67,-2
1925,0,-257,57,-16,68,-2
1930,0,-258,60,-15,69,-4
1935,2,-259,61,-14,70,-4
1940,0,-262,60,-11,70,-5
1945,0,-261,61,-12,70,-3
1950,0,-262,60,-11,70,-3
1955,2,-262,59,-11,70,-4
1960,0,-261,61,-9,69,-4
1965,1,-259,56,-12,69,-5
1970,0,-260,61,-12,67,-6
1975,-1,-257,58,-14,67,-4
1980,0,-257,61,-15,67,-5
1985,1,-258,58,-16,67,-5
1990,1,-260,57,-17,67,-5
1995,1,-259,56,-17,66,-5
2000,0,-259,61,-17,66,-6
2005,2,-263,56,-16,67,-7
2010,0,-259,60,-16,67,-6
2015,1,-263,61,-17,67,-7
2020,0,-264,59,-16,65,-6
2025,1,-260,60,-15,66,-7
2030,0,-262,58,-14,67,-7
2035,3,-264,63,-13,68,-7
2040,1,-261,59,-12,69,-6
2045,2,-261,61,-11,69,-7
2050,2,-262,61,-10,70,-7
2055,1,-258,58,-11,70,-5
2060,0,-259,61,-11,71,-5
2065,0,-261,58,-11,71,-5
2070,-2,-259,61,-11,72,-6
2075,2,-260,60,-11,73,-6
2080,0,-258,58,-11,72,-6
2085,0,-260,60,-10,72,-6
2090,-2,-262,59,-9,72,-6
2095,1,-260,59,-9,72,-5
2100,1,-258,60,-10,71,-4
2105,1,-260,59,-11,71,-7
2110,1,-262,59,-11,70,-6
2115,3,-259,60,-11,71,-6
2120,1,-260,60,-13,70,-5
2125,-3,-260,57,-13,71,-6
2130,0,-261,56,-15,69,-7
2135,1,-262,55,-14,70,-7
2140,1,-258,57,-15,71,-7
2145,0,-258,60,-16,70,-7
2150,-2,-259,56,-14,69,-7
2155,2,-261,63,-14,70,-7
2160,0,-259,61,-13,70,-7
2165,0,-262,56,-12,70,-8
2170,0,-259,62,-10,70,-8
2175,-2,-262,59,-10,68,-8
2180,2,-261,55,-8,70,-8
2185,1,-260,61,-8,69,-7
2190,0,-259,58,-7,69,-10
2195,0,-258,57,-5,68,-10
2200,-6,-255,50,-4,68,-9
2205,0,-259,58,-6,68,-9
2210,0,-259,59,-6,67,-7
2215,0,-259,62,-8,68,-8
2220,0,-260,58,-10,69,-9
2225,0,-259,59,-12,69,-9
2230,0,-260,56,-16,68,-10
2235,-2,-261,60,-16,67,-12
2240,0,-261,59,-17,67,-11
2245,0,-262,58,-15,68,-11
2250,1,-262,59,-14,68,-11
2255,1,-263,59,-12,69,-11
2260,1,-260,61,-10,68,-12
2265,2,-261,58,-8,68,-11
2270,0,-258,59,-5,68,-11
2275,0,-259,63,-4,68,-11
2280,1,-258,57,-4,69,-12
2285,1,-259,59,-5,70,-12
2290,2,-259,63,-6,70,-12
2295,2,-260,62,-8,71,-11
2300,2,-258,60,-12,71,-9
2305,0,-259,59,-15,73,-9
2310,1,-256,62,-18,72,-7
2315,0,-260,60,-20,73,-7
2320,3,-262,64,-23,72,-6
2325,1,-261,59,-24,71,-7
2330,2,-259,61,-25,71,-6
2335,1,-262,64,-24,69,-6
2340,-2,-261,60,-23,68,-7
2345,3,-259,62,-23,67,-8
2350,2,-261,63,-23,66,-9
2355,-1,-264,57,-23,65,-10
2360,1,-260,56,-22,63,-9
2365,0,-260,58,-23,62,-9
2370,0,-260,60,-21,62,-9
2375,2,-260,59,-21,62,-8
2380,1,-265,58,-21,63,-6
2385,1,-260,55,-22,64,-4
2390,1,-261,57,-22,63,-2
2395,1,-261,60,-21,65,-2
2400,0,-260,60,-22,66,-3
2405,2,-262,56,-21,65,-3
2410,1,-261,57,-21,67,-4
2415,1,-259,56,-20,67,-3
2420,1,-260,60,-20,67,-3
2425,1,-258,59,-21,67,-5
2430,1,-261,61,-20,68,-6
2435,0,-261,62,-19,68,-7
2440,2,-262,60,-18,69,-7
2445,1,-260,59,-18,70,-8
2450,1,-258,61,-18,71,-8
2455,1,-262,59,-17,72,-8
2460,1,-261,60,-17,70,-6
2465,3,-261,57,-17,71,-6
2470,1,-262,58,-18,71,-6
2475,1,-258,58,-17,69,-6
2480,0,-262,59,-17,70,-5
2485,0,-258,59,-16,70,-4
2490,1,-261,61,-16,69,-5
2495,0,-260,59,-16,68,-5
2500,0,-259,60,-16,68,-5
2505,-2,-258,63,-14,68,-5
2510,1,-261,58,-14,68,-4
2515,2,-259,59,-13,68,-5
2520,2,-263,60,-13,69,-6
2525,2,-260,62,-14,68,-6
2530,2,-262,58,-15,68,-6
2535,0,-258,62,-14,68,-6
2540,1,-260,61,-15,68,-6
2545,1,-260,61,-16,69,-5
2550,1,-260,60,-17,70,-4
2555,0,-259,59,-17,70,-5
2560,0,-256,58,-19,70,-6
2565,0,-262,57,-19,69,-6
2570,1,-260,60,-20,69,-5
2575,0,-260,59,-22,68,-6
2580,-1,-259,56,-24,69,-5
2585,0,-259,60,-23,67,-6
2590,0,-260,57,-25,67,-7
2595,1,-259,57,-25,68,-6
2600,0,-259,60,-24,68,-5
2605,1,-257,56,-24,68,-5
2610,0,-257,60,-23,67,-5
2615,2,-259,59,-21,70,-4
2620,1,-261,57,-21,71,-3
2625,1,-261,59,-20,71,-3
2630,1,-259,57,-20,72,-3
2635,8,-262,58,-19,73,-3
2640,2,-259,57,-18,74,-3
2645,2,-258,54,-18,75,-4
2650,1,-258,59,-18,76,-3
2655,1,-261,59,-16,77,-4
2660,1,-260,59,-16,78,-5
2665,1,-260,57,-16,78,-5
2670,0,-260,59,-17,78,-4
2675,1,-260,62,-18,78,-4
2680,0,-258,58,-17,76,-4
2685,-1,-258,60,-18,76,-4
2690,1,-262,58,-20,76,-4
2695,0,-260,59,-20,76,-3
2700,1,-260,58,-20,75,-1
2705,1,-261,61,-20,75,-1
2710,0,-260,60,-21,74,-1
2715,-1,-260,60,-23,74,0
2720,0,-258,60,-24,74,1
2725,1,-260,59,-22,76,0
2730,0,-260,57,-20,76,3
2735,0,-261,58,-20,76,0
2740,2,-262,58,-19,78,1
2745,4,-261,61,-19,77,1
2750,2,-261,59,-18,77,0
2755,4,-262,58,-18,78,-2
2760,1,-261,59,-19,79,-2
2765,3,-259,56,-18,78,-3
2770,1,-260,59,-19,78,-3
2775,1,-260,58,-21,76,-3
2780,1,-257,59,-20,77,-4
2785,0,-261,62,-22,78,-1
2790,1,-258,57,-21,76,-1
2795,0,-262,57,-22,75,-1
2800,0,-257,56,-23,74,0
2805,0,-258,62,-24,73,1
2810,0,-258,59,-23,73,1
2815,2,-262,59,-25,72,1
2820,1,-259,58,-24,72,1
2825,1,-258,60,-28,71,1
2830,0,-259,57,-29,70,1
2835,1,-262,57,-31,69,0
2840,1,-259,59,-33,70,0
2845,0,-261,60,-34,70,-1
2850,0,-260,58,-36,70,0
2855,1,-261,47,-36,70,0
2860,1,-258,57,-37,71,2
2865,2,-260,55,-36,72,2
2870,0,-258,59,-36,71,3
2875,2,-261,59,-36,71,3
2880,2,-262,57,-35,71,4
2885,0,-258,57,-32,70,3
2890,1,-263,57,-31,69,2
2895,1,-259,58,-29,71,3
2900,1,-262,58,-28,69,3
2905,1,-260,62,-27,68,1
2910,1,-262,57,-28,67,1
2915,1,-263,57,-28,68,0
2920,0,-259,55,-28,67,-2
2925,0,-261,54,-30,66,-1
2930,0,-261,57,-32,66,-1
2935,0,-261,59,-35,66,-2
2940,2,-259,54,-36,66,-2
2945,0,-259,55,-37,64,-2
2950,0,-260,58,-37,65,-3
2955,0,-257,56,-36,65,-3
2960,0,-259,57,-35,65,-2
2965,-10,-266,64,-32,65,-1
2970,0,-261,56,-28,66,-1
2975,0,-263,60,-25,66,-1
2980,-1,-260,59,-22,65,-2
2985,1,-259,57,-19,66,-2
2990,0,-259,56,-20,68,-1
2995,1,-259,62,-20,67,-1
3000,1,-262,54,-21,69,-1
3005,0,-259,59,-22,69,-2
3010,1,-257,61,-25,69,-1
3015,0,-260,57,-27,70,-1
3020,-1,-259,62,-28,70,-1
3025,1,-263,58,-31,70,0
3030,2,-261,58,-34,69,-1
3035,0,-261,57,-36,67,0
3040,0,-259,58,-38,66,0
3045,0,-258,61,-39,65,0
3050,0,-263,59,-39,64,0
3055,0,-260,56,-39,66,-1
3060,1,-261,56,-39,66,0
3065,2,-258,58,-38,66,-1
3070,2,-261,58,-39,66,-2
3075,2,-262,58,-39,65,-3
3080,0,-261,56,-38,63,-5
3085,0,-261,60,-39,64,-6
3090,0,-258,56,-39,64,-8
3095,1,-260,56,-39,64,-8
3100,0,-259,56,-39,63,-8
3105,0,-259,55,-38,62,-7
3110,1,-262,51,-38,63,-9
3115,1,-261,55,-37,64,-7
3120,0,-261,55,-35,63,-6
3125,0,-259,56,-35,62,-5
3130,0,-258,55,-33,63,-2
3135,1,-261,57,-33,63,-3
3140,-1,-262,58,-33,63,-1
3145,2,-260,57,-31,63,0
3150,1,-261,54,-30,63,-1
3155,-2,-264,55,-29,64,-2
3160,0,-263,54,-27,65,-1
3165,2,-263,58,-25,66,-1
3170,1,-263,56,-25,66,0
3175,1,-261,51,-23,67,-2
3180,0,-260,55,-21,68,-3
3185,1,-262,53,-20,67,-4
3190,1,-261,55,-19,68,-5
3195,0,-260,57,-18,68,-7
3200,0,-261,53,-17,68,-8
3205,1,-263,59,-17,71,-8
3210,-1,-259,54,-16,73,-8
3215,0,-263,55,-18,72,-10
3220,1,-262,56,-17,72,-9
3225,0,-261,58,-18,74,-9
3230,0,-258,57,-18,73,-8
3235,1,-261,58,-15,73,-9
3240,3,-259,57,-16,72,-7
3245,-1,-260,59,-15,73,-7
3250,0,-258,56,-14,73,-6
3255,0,-259,56,-14,73,-7
3260,1,-258,57,-14,72,-7
3265,2,-262,56,-13,71,-6
3270,1,-261,57,-12,72,-7
3275,1,-261,57,-12,70,-8
3280,1,-264,57,-14,70,-6
3285,0,-262,60,-14,69,-7
3290,2,-261,53,-14,67,-9
3295,-1,-261,61,-15,67,-7
3300,1,-263,54,-16,65,-9
3305,0,-259,53,-17,63,-9
3310,1,-260,54,-17,64,-7
3315,1,-259,54,-16,64,-7
3320,1,-262,55,-15,65,-7
3325,1,-259,57,-14,64,-6
3330,2,-263,56,-11,65,-5
3335,0,-261,54,-9,63,-4
3340,2,-259,54,-6,64,-5
3345,1,-260,54,-4,63,-4
3350,-1,-260,56,-1,65,-5
3355,0,-262,55,-1,64,-4
3360,0,-259,53,1,64,-3
3365,0,-259,57,1,65,-4
3370,0,-262,53,0,67,-4
3375,0,-262,54,0,67,-3
3380,1,-263,54,-1,68,-4
3385,0,-264,56,-2,68,-5
3390,0,-258,53,-3,68,-5
3395,0,-263,58,-4,69,-4
3400,6,-259,52,-3,70,-5
3405,2,-261,58,-4,71,-6
3410,1,-263,57,-2,69,-5
3415,2,-258,58,-1,71,-5
3420,2,-259,56,-2,70,-4
3425,2,-258,57,-2,70,-5
3430,1,-258,61,-2,70,-4
3435,1,-263,58,-1,70,-3
3440,1,-265,56,-1,70,-4
3445,2,-260,55,-3,70,-3
3450,3,-259,55,-3,69,-3
3455,1,-262,56,-4,69,-3
3460,1,-263,59,-4,69,-3
3465,1,-261,58,-5,69,-4
3470,1,-260,59,-6,69,-3
3475,1,-258,58,-6,68,-2
3480,2,-260,63,-5,68,-3
3485,2,-263,55,-4,68,-4
3490,2,-261,58,-4,67,-4
3495,0,-258,62,-3,67,-4
3500,1,-260,55,-5,67,0
3505,1,-260,61,-6,68,-1
3510,0,-257,56,-7,67,-1
3515,2,-261,55,-8,68,-3
3520,2,-261,58,-9,68,-2
3525,0,-261,61,-10,69,-3
3530,2,-263,55,-13,68,-2
3535,3,-265,54,-16,68,-2
3540,0,-262,55,-16,68,-4
3545,0,-260,55,-17,70,-2
3550,0,-263,56,-19,71,-1
3555,1,-262,55,-19,69,-2
3560,2,-262,54,-17,70,-3
3565,0,-262,56,-17,71,-3
3570,1,-260,55,-16,71,-3
3575,1,-264,54,-15,70,-3
3580,3,-263,58,-14,70,-4
3585,1,-260,53,-12,70,-4
3590,3,-259,57,-10,70,-3
3595,1,-260,57,-9,70,-2
3600,1,-259,55,-9,69,-1
3605,1,-260,57,-9,68,0
3610,3,-261,53,-9,69,-3
3615,4,-261,68,-10,69,-3
3620,1,-263,56,-9,70,-3
3625,0,-261,55,-11,69,-2
3630,0,-261,58,-11,68,-1
3635,5,-260,56,-11,69,-2
3640,2,-263,54,-10,69,-2
3645,0,-262,54,-9,70,-2
3650,3,-265,55,-9,70,-4
3655,-1,-262,58,-7,69,-5
3660,1,-265,57,-6,69,-5
3665,1,-262,52,-3,68,-4
3670,2,-261,56,-2,68,-5
3675,2,-262,52,-1,67,-4
3680,1,-262,57,-1,66,-4
3685,2,-259,57,1,67,-4
3690,4,-261,57,2,67,-4
3695,2,-260,59,2,68,-4
3700,1,-257,56,3,69,-4
3705,0,-258,59,2,70,-5
3710,4,-258,53,0,70,-3
3715,0,-262,59,-1,71,-1
3720,2,-259,57,-1,71,-1
3725,-2,-260,59,-2,71,-2
3730,-2,-258,57,-4,70,-1
3735,1,-260,57,-3,68,-2
3740,0,-259,57,-4,69,-3
3745,2,-262,57,-5,68,-4
3750,1,-262,58,-6,67,-4
3755,1,-262,58,-7,69,-5
3760,0,-263,55,-7,69,-4
3765,1,-262,58,-8,69,-5
3770,1,-261,55,-8,70,-4
3775,0,-260,57,-9,69,-4
3780,2,-262,53,-9,70,-3
3785,1,-261,57,-7,69,-3
3790,0,-263,55,-6,70,-3
3795,0,-259,56,-6,71,-3
3800,0,-261,58,-4,72,-1
3805,-1,-260,57,-2,72,0
3810,0,-258,57,-2,71,-2
3815,1,-260,56,-2,70,0
3820,0,-260,56,-2,71,-2
3825,0,-261,55,-1,70,-2
3830,0,-262,56,-1,69,-2
3835,1,-258,63,-1,70,-3
3840,0,-261,55,-1,69,-2
3845,0,-259,55,0,68,-2
3850,1,-259,55,-2,69,-2
3855,1,-262,59,-2,68,-3
3860,0,-261,54,-2,68,-5
3865,1,-262,59,-1,68,-4
3870,0,-259,57,-2,69,-3
3875,-1,-257,56,-2,69,-4
3880,0,-261,56,-1,70,-4
3885,1,-260,55,0,71,-4
3890,1,-258,62,-1,72,-6
3895,0,-258,55,0,72,-4
3900,1,-260,60,1,73,-5
3905,1,-263,58,1,72,-4
3910,2,-260,54,1,71,-5
3915,1,-260,59,1,72,-4
3920,1,-259,57,1,73,-4
3925,0,-262,60,-1,71,-4
3930,2,-261,61,-2,71,-5
3935,1,-262,59,-3,72,-5
3940,1,-261,60,-3,72,-5
3945,1,-259,54,-3,72,-5
3950,1,-260,57,-3,74,-4
3955,0,-260,59,-4,74,-5
3960,0,-259,60,-3,73,-4
3965,1,-262,57,-4,72,-4
3970,-1,-260,59,-3,71,-4
3975,0,-258,59,-3,71,-4
3980,1,-259,56,-3,71,-5
3985,0,-258,54,-3,71,-4
3990,0,-260,59,-4,71,-4
3995,0,-259,57,-5,71,-4
4000,-1,-260,58,-4,69,-1
4005,0,-258,60,-5,70,-1
4010,1,-258,59,-5,68,-2
4015,1,-260,58,-5,67,-2
4020,3,-259,57,-5,67,-3
4025,2,-261,58,-4,68,-1
4030,0,-259,56,-5,67,-1
4035,0,-260,58,-5,68,-1
4040,1,-261,56,-4,67,-3
4045,1,-262,60,-2,69,-2
4050,7,-258,63,0,69,-2
4055,1,-262,60,0,70,-1
4060,0,-260,57,-1,72,-1
4065,-1,-261,58,-1,74,-2
4070,0,-261,56,-2,75,0
4075,1,-261,57,-1,75,0
4080,1,-260,56,-2,76,-1
4085,2,-258,59,-2,75,-2
4090,0,-262,58,-2,74,-1
4095,1,-257,54,-4,72,-2
4100,1,-263,55,-6,72,-4
4105,0,-259,55,-6,70,-4
4110,1,-262,56,-7,69,-5
4115,3,-262,60,-7,66,-2
4120,1,-260,56,-5,65,-1
4125,1,-263,60,-2,65,-1
4130,1,-261,58,0,65,-1
4135,1,-261,56,2,67,0
4140,1,-261,59,5,67,-1
4145,0,-261,60,5,69,-3
4150,2,-258,54,5,69,-4
4155,0,-258,58,4,69,-5
4160,1,-261,51,2,68,-8
4165,0,-259,55,-1,67,-7
4170,1,-258,56,-5,67,-9
4175,-1,-258,55,-9,66,-7
4180,-1,-257,56,-14,65,-5
4185,-2,-259,55,-17,65,-6
4190,0,-260,54,-18,64,-4
4195,0,-262,58,-19,64,-2
4200,3,-263,57,-17,64,-2
4205,0,-260,57,-15,62,0
4210,-2,-260,62,-12,62,1
4215,0,-262,62,-8,64,1
4220,0,-264,61,-2,63,1
4225,0,-259,63,0,63,0
4230,0,-264,61,4,64,1
4235,0,-259,59,5,63,0
4240,1,-261,58,4,64,-1
4245,0,-261,57,2,63,-2
4250,0,-260,56,0,62,-3
4255,0,-258,58,-4,62,-4
4260,1,-262,56,-8,62,-4
4265,1,-263,60,-10,63,-4
4270,1,-259,56,-12,64,-5
4275,4,-263,59,-12,64,-6
4280,1,-261,56,-10,65,-5
4285,2,-259,58,-7,67,-4
4290,2,-261,58,-4,69,-6
4295,1,-262,57,-2,69,-6
4300,1,-260,59,0,69,-5
4305,2,-261,59,2,70,-5
4310,1,-262,59,4,70,-6
4315,0,-261,60,5,70,-7
4320,5,-263,60,5,70,-8
4325,0,-262,56,5,70,-9
4330,0,-262,59,4,69,-9
4335,0,-261,57,2,69,-9
4340,1,-261,56,1,67,-10
4345,0,-259,59,0,66,-11
4350,0,-262,58,0,68,-12
4355,1,-262,58,0,68,-11
4360,0,-260,58,0,67,-11
4365,1,-259,62,2,68,-10
4370,0,-258,59,4,65,-10
4375,-5,-258,57,6,65,-10
4380,0,-261,59,7,66,-9
4385,2,-258,58,8,67,-8
4390,0,-260,59,10,67,-7
4395,1,-260,61,10,66,-6
4400,1,-258,59,12,67,-6
4405,1,-259,61,11,68,-5
4410,3,-259,60,10,67,-4
4415,1,-259,62,8,67,-4
4420,1,-256,60,5,66,-5
4425,1,-261,61,4,65,-4
4430,1,-259,61,3,64,-4
4435,2,-259,61,-1,63,-5
4440,1,-259,60,-3,63,-6
4445,1,-258,59,-6,63,-5
4450,2,-260,57,-9,63,-7
4455,0,-259,57,-11,63,-8
4460,0,-260,59,-13,63,-8
4465,0,-257,58,-13,64,-8
4470,2,-259,55,-14,65,-9
4475,3,-260,56,-14,65,-7
4480,1,-262,54,-14,67,-6
4485,1,-259,59,-14,69,-5
4490,1,-259,54,-14,70,-6
4495,-1,-260,60,-13,71,-6
4500,1,-261,57,-13,72,-5
4505,1,-259,58,-12,73,-4
4510,3,-261,57,-12,73,-4
4515,0,-257,57,-11,74,-4
4520,1,-262,60,-11,74,-4
4525,1,-257,58,-11,74,-4
4530,2,-263,57,-13,74,-4
4535,1,-259,61,-12,73,-5
4540,1,-260,59,-14,73,-7
4545,0,-260,60,-15,74,-7
4550,3,-262,56,-16,72,-7
4555,0,-262,58,-17,74,-8
4560,2,-264,57,-17,74,-9
4565,1,-261,57,-16,74,-9
4570,0,-261,56,-17,74,-8
4575,-3,-261,57,-17,72,-9
4580,0,-258,57,-16,73,-8
4585,2,-258,57,-15,74,-8
4590,2,-262,60,-14,75,-7
4595,0,-262,60,-12,74,-6
4600,0,-268,66,-11,73,-6
4605,2,-261,61,-10,73,-6
4610,0,-259,59,-10,72,-6
4615,0,-260,57,-8,71,-5
4620,0,-261,60,-7,71,-4
4625,0,-258,59,-6,70,-5
4630,1,-261,59,-7,68,-3
4635,0,-262,62,-7,69,-3
4640,2,-258,60,-6,69,-4
4645,2,-259,58,-7,69,-5
4650,2,-261,54,-7,67,-3
4655,0,-260,59,-8,67,-3
4660,1,-258,59,-9,67,-4
4665,1,-258,59,-11,69,-3
4670,1,-262,59,-12,68,-4
4675,1,-261,58,-13,68,-3
4680,3,-259,57,-15,67,-4
4685,1,-261,61,-15,65,-3
4690,1,-257,55,-18,67,-3
4695,0,-262,57,-18,66,-1
4700,0,-262,60,-18,67,-2
4705,-2,-272,49,-17,65,-1
4710,1,-260,58,-17,65,-2
4715,4,-261,58,-17,63,-2
4720,1,-262,58,-16,65,-2
4725,1,-263,58,-15,65,-2
4730,0,-259,58,-14,65,-1
4735,2,-259,57,-12,65,-1
4740,1,-261,59,-11,66,-2
4745,1,-261,61,-11,66,-3
4750,2,-261,60,-11,67,-3
4755,-1,-261,59,-12,67,-4
4760,0,-259,57,-12,69,-2
4765,2,-262,59,-10,69,-3
4770,3,-261,61,-11,69,-4
4775,2,-259,62,-12,70,-3
4780,1,-259,60,-12,71,-3
4785,0,-260,58,-13,72,-3
4790,0,-259,56,-14,71,-3
4795,2,-261,61,-13,71,-1
4800,0,-259,60,-14,72,-3
4805,3,-259,61,-12,70,-4
4810,1,-258,61,-13,71,-3
4815,5,-260,58,-14,68,-4
4820,1,-259,55,-16,69,-5
4825,2,-265,61,-17,68,-5
4830,2,-260,60,-19,66,-5
4835,1,-262,61,-20,66,-4
4840,0,-261,58,-22,64,-7
4845,2,-262,61,-23,64,-7
4850,0,-261,61,-24,64,-8
4855,0,-260,56,-24,64,-8
4860,1,-261,59,-22,64,-7
4865,0,-259,57,-19,65,-6
4870,0,-260,59,-19,68,-4
4875,2,-259,60,-19,71,-1
4880,3,-260,59,-18,73,2
4885,1,-257,58,-21,74,4
4890,2,-260,59,-25,75,7
4895,1,-259,55,-31,74,10
4900,3,-259,59,-39,74,11
4905,2,-260,58,-49,75,13
4910,1,-262,55,-61,77,16
4915,-1,-263,58,-68,80,17
4920,1,-260,61,-71,85,20
4925,2,-264,52,-69,87,21
4930,1,-258,62,-62,90,20
4935,3,-260,54,-57,87,17
4940,1,-259,57,-56,83,13
4945,0,-259,55,-62,75,9
4950,0,-260,53,-75,70,5
4955,2,-257,56,-101,66,4
4960,-1,-261,55,-131,67,5
4965,1,-262,56,-163,69,9
4970,0,-258,59,-188,79,15
4975,-2,-260,61,-204,94,23
4980,0,-260,56,-209,111,29
4985,4,-258,53,-211,128,31
4990,1,-261,50,-216,138,26
4995,1,-257,50,-228,135,19
5000,-1,-258,52,-246,126,10
5005,-2,-256,56,-271,113,4
5010,1,-256,57,-299,103,-2
5015,-1,-256,57,-327,98,-5
5020,1,-257,54,-353,101,-2
5025,0,-258,53,-378,106,2
5030,3,-258,59,-398,111,8
5035,3,-260,55,-415,116,11
5040,1,-256,55,-426,117,15
5045,-1,-260,54,-436,116,16
5050,-1,-256,53,-445,113,15
5055,1,-258,57,-452,107,15
5060,0,-255,56,-456,100,15
5065,-1,-258,55,-461,93,15
5070,0,-256,51,-463,88,14
5075,1,-255,56,-465,81,15
5080,0,-254,55,-466,76,17
5085,-3,-253,58,-468,70,19
5090,-2,-254,55,-467,64,22
5095,-2,-255,52,-466,58,26
5100,0,-257,52,-464,53,33
5105,0,-255,55,-462,50,42
5110,0,-254,55,-462,50,52
5115,-3,-253,51,-463,48,63
5120,1,-256,50,-463,46,71
5125,0,-254,52,-466,44,80
5130,0,-256,50,-467,42,87
5135,-3,-255,52,-469,39,92
5140,-4,-255,52,-469,35,97
5145,-1,-256,52,-466,31,102
5150,0,-256,46,-461,28,107
5155,-4,-256,40,-456,27,112
5160,-4,-255,41,-451,30,115
5165,0,-256,43,-449,33,119
5170,-1,-256,38,-452,37,120
5175,-2,-253,36,-459,42,118
5180,-2,-255,38,-470,45,118
5185,-1,-255,39,-484,47,117
5190,-4,-254,35,-499,47,118
5195,0,-256,35,-511,47,118
5200,-2,-256,33,-524,48,117
5205,0,-253,30,-536,47,118
5210,0,-255,31,-546,49,119
5215,1,-256,34,-554,50,119
5220,1,-255,29,-561,54,116
5225,0,-255,32,-568,57,112
5230,0,-256,34,-572,61,108
5235,0,-255,33,-572,64,104
5240,0,-249,30,-571,69,101
5245,1,-251,30,-572,71,100
5250,0,-254,26,-570,75,101
5255,1,-260,29,-570,80,99
5260,0,-260,29,-569,89,99
5265,-4,-262,25,-566,98,101
5270,-1,-266,26,-566,105,101
5275,-1,-269,27,-561,114,101
5280,-4,-266,21,-554,118,100
5285,-3,-260,26,-544,120,100
5290,-2,-255,25,-536,121,97
5295,-9,-242,30,-529,119,100
5300,-4,-235,37,-530,118,106
5305,-5,-227,39,-540,118,122
5310,0,-231,42,-563,125,151
5315,3,-239,50,-595,132,185
5320,1,-254,51,-638,141,221
5325,5,-272,53,-689,151,249
5330,6,-300,43,-743,160,257
5335,9,-317,21,-810,170,246
5340,3,-329,1,-898,180,213
5345,-3,-330,-15,-1009,188,157
5350,-17,-317,-41,-1154,188,101
5355,-19,-293,-61,-1339,185,62
5360,-31,-269,-71,-1577,183,43
5365,-30,-256,-71,-1873,177,53
5370,-41,-259,-68,-2207,151,90
5375,-48,-266,-71,-2552,102,148
5380,-44,-280,-74,-2885,31,206
5385,-40,-293,-79,-3182,-46,253
5390,-34,-302,-81,-3433,-119,278
5395,-27,-312,-72,-3636,-177,277
5400,-19,-321,-66,-3781,-213,261
5405,-9,-333,-52,-3871,-230,229
5410,1,-346,-36,-3893,-224,181
5415,7,-361,-10,-3853,-200,133
5420,15,-392,10,-3752,-159,99
5425,19,-414,27,-3584,-117,88
5430,14,-426,26,-3354,-80,94
5435,18,-446,13,-3076,-52,113
5440,6,-448,-12,-2770,-23,133
5445,-2,-452,-48,-2464,-2,149
5450,-14,-447,-81,-2182,9,145
5455,-26,-446,-117,-1944,15,120
5460,-36,-429,-149,-1760,19,71
5465,-40,-421,-179,-1627,17,6
5470,-34,-396,-194,-1528,17,-63
5475,-32,-384,-199,-1429,17,-130
5480,-25,-372,-205,-1303,31,-182
5485,-26,-364,-207,-1152,50,-212
5490,-27,-350,-208,-985,76,-224
5495,-28,-336,-203,-817,103,-218
5500,-33,-323,-200,-656,130,-207
5505,-29,-309,-194,-516,153,-192
5510,-30,-291,-189,-410,173,-175
5515,-34,-273,-186,-343,188,-159
5520,-35,-260,-184,-309,205,-143
5525,-33,-255,-174,-295,224,-128
5530,-30,-249,-173,-288,237,-113
5535,-30,-242,-171,-282,247,-99
5540,-29,-240,-164,-276,250,-80
5545,-27,-239,-163,-266,248,-60
5550,-27,-236,-153,-252,238,-39
5555,-21,-237,-150,-241,225,-20
5560,-22,-241,-140,-231,209,-6
5565,-21,-237,-135,-218,192,-4
5570,-17,-239,-120,-197,180,-9
5575,-14,-248,-115,-163,168,-20
5580,-13,-253,-102,-115,157,-33
5585,-10,-257,-80,-46,156,-42
5590,-10,-259,-65,43,156,-53
5595,-9,-263,-47,149,157,-60
5600,-5,-265,-29,266,154,-62
5605,0,-270,-6,389,152,-68
5610,4,-270,4,512,149,-74
5615,13,-268,18,635,149,-76
5620,12,-261,20,749,148,-80
5625,18,-261,25,849,153,-87
5630,18,-253,20,928,158,-101
5635,14,-243,13,981,162,-121
5640,16,-234,2,1004,161,-145
5645,10,-219,-2,1000,152,-171
5650,12,-208,-19,967,134,-198
5655,14,-202,-29,910,111,-226
5660,14,-191,-51,840,85,-257
5665,16,-180,-60,760,56,-285
5670,13,-171,-73,675,28,-309
5675,10,-163,-82,594,-4,-325
5680,14,-157,-81,519,-42,-334
5685,0,-147,-95,452,-87,-337
5690,-2,-139,-98,390,-132,-322
5695,-12,-132,-96,332,-172,-299
5700,-14,-126,-95,270,-213,-266
5705,-21,-125,-102,217,-242,-232
5710,-28,-121,-103,164,-255,-196
5715,-25,-120,-103,110,-247,-159
5720,-21,-119,-105,52,-218,-128
5725,-23,-116,-108,-2,-173,-108
5730,-18,-117,-105,-47,-116,-90
5735,-15,-125,-107,-82,-56,-80
5740,-12,-129,-103,-108,3,-79
5745,-13,-133,-102,-118,61,-80
5750,-11,-143,-105,-114,116,-89
5755,-8,-146,-98,-106,174,-92
5760,-5,-151,-102,-85,223,-95
5765,-1,-155,-102,-50,266,-101
5770,0,-157,-99,-9,300,-113
5775,1,-157,-103,42,326,-133
5780,0,-159,-102,90,336,-153
5785,-2,-154,-110,125,339,-153
5790,0,-156,-108,147,331,-146
5795,0,-152,-111,163,317,-138
5800,0,-146,-111,167,295,-131
5805,-1,-139,-115,163,267,-119
5810,-6,-130,-122,147,236,-104
5815,-7,-126,-118,117,204,-87
5820,-7,-116,-124,76,168,-72
5825,-7,-109,-120,30,132,-58
5830,-3,-99,-123,-22,98,-44
5835,-3,-96,-126,-81,67,-28
5840,-3,-96,-124,-141,40,-16
5845,-4,-86,-126,-206,20,-5
5850,-3,-85,-128,-267,9,3
5855,-4,-85,-126,-318,2,5
5860,-4,-81,-125,-358,2,3
5865,-1,-82,-122,-400,3,4
5870,-5,-80,-123,-440,4,2
5875,-9,-79,-124,-472,1,-4
5880,-11,-83,-121,-496,-7,-5
5885,-12,-86,-119,-511,-17,-9
5890,-13,-90,-124,-524,-27,-18
5895,-13,-95,-125,-543,-35,-25
5900,-16,-102,-128,-571,-44,-33
5905,-14,-113,-125,-598,-50,-38
5910,-17,-123,-125,-635,-53,-38
5915,-14,-133,-125,-671,-54,-34
5920,-16,-142,-118,-697,-51,-26
5925,-17,-149,-117,-708,-48,-16
5930,-16,-158,-114,-700,-47,-5
5935,-18,-163,-118,-678,-50,5
5940,-14,-169,-113,-643,-52,19
5945,-16,-170,-111,-609,-56,34
5950,-12,-179,-111,-576,-58,55
5955,-9,-189,-101,-540,-56,83
5960,-3,-196,-98,-498,-52,108
5965,-4,-204,-92,-453,-42,125
5970,-1,-210,-93,-406,-30,137
5975,-4,-217,-92,-362,-15,141
5980,-5,-226,-84,-321,-3,142
5985,-7,-235,-90,-287,6,143
5990,-8,-244,-90,-252,10,150
5995,-6,-249,-91,-217,9,161
6000,-6,-254,-92,-181,4,176
6005,-15,-258,-95,-138,-1,191
6010,-4,-253,-100,-91,-8,205
6015,-3,-252,-101,-37,-14,220
6020,1,-252,-100,18,-20,233
6025,5,-247,-104,70,-22,234
6030,5,-243,-104,113,-18,226
6035,0,-236,-112,145,-10,211
6040,3,-234,-111,163,-1,194
6045,0,-225,-118,173,9,172
6050,0,-223,-121,174,21,147
6055,-11,-215,-120,166,27,120
6060,-9,-216,-114,149,29,96
6065,-11,-219,-108,140,31,71
6070,-13,-224,-103,136,30,54
6075,-12,-226,-94,142,27,44
6080,-14,-233,-92,167,16,43
6085,-13,-235,-85,209,6,48
6090,-11,-240,-82,262,-4,63
6095,-10,-242,-82,324,-14,82
6100,-13,-244,-79,390,-31,108
6105,-9,-240,-76,453,-54,135
6110,-8,-239,-85,508,-74,152
6115,-8,-228,-81,549,-92,162
6120,-8,-235,-87,571,-108,178
6125,-7,-235,-89,574,-120,190
6130,-10,-241,-93,567,-130,200
6135,-3,-246,-95,553,-135,202
6140,-2,-255,-98,542,-129,197
6145,-1,-260,-94,547,-113,181
6150,1,-265,-92,564,-92,164
6155,1,-274,-89,596,-71,145
6160,4,-281,-88,643,-45,124
6165,4,-284,-88,697,-14,99
6170,2,-287,-87,752,13,76
6175,0,-288,-88,802,37,51
6180,2,-288,-94,843,62,28
6185,0,-284,-89,873,84,6
6190,1,-284,-92,890,99,-18
6195,0,-279,-92,894,110,-38
6200,-2,-280,-86,886,114,-57
6205,-3,-276,-91,878,111,-76
6210,-8,-280,-83,876,107,-94
6215,-10,-282,-87,881,97,-110
6220,-21,-292,-93,898,85,-122
6225,-11,-291,-74,933,79,-130
6230,-14,-294,-72,992,77,-137
6235,-14,-301,-66,1070,77,-140
6240,-17,-309,-57,1164,80,-146
6245,-17,-319,-51,1275,85,-148
6250,-19,-341,-20,1409,93,-143
6255,-20,-396,34,1594,107,-120
6260,-23,-388,-42,1867,98,-106
6265,-32,-379,-62,2144,59,-161
6270,-33,-418,-22,2330,42,-210
6275,-34,-441,-30,2561,86,-173
6280,-35,-450,-33,2851,119,-120
6285,-25,-463,-26,3186,119,-104
6290,-20,-486,-14,3531,116,-100
6295,-11,-499,0,3890,126,-106
6300,-5,-495,-3,4261,158,-119
6305,-4,-459,-24,4599,203,-145
6310,-15,-398,-69,4778,256,-166
6315,-12,-341,-124,4663,306,-159
6320,-4,-295,-152,4179,357,-138
6325,-6,-264,-152,3395,396,-117
6330,10,-266,-124,2483,413,-98
6335,4,-262,-85,1615,401,-98
6340,10,-278,-40,931,353,-112
6345,15,-293,1,508,290,-143
6350,14,-305,30,342,220,-184
6355,20,-307,59,378,150,-224
6360,17,-299,64,531,93,-258
6365,14,-290,64,723,52,-283
6370,7,-283,55,885,33,-299
6375,7,-275,37,980,27,-314
6380,2,-266,25,992,36,-324
6385,6,-260,10,922,59,-332
6390,0,-256,8,793,86,-345
6395,-7,-256,5,631,105,-352
6400,-12,-255,7,469,116,-347
6405,-10,-262,4,334,127,-330
6410,-9,-269,14,237,139,-302
6415,-13,-272,18,191,149,-268
6420,-12,-272,30,195,158,-239
6425,-8,-272,40,244,159,-215
6430,-13,-264,45,326,155,-197
6435,-16,-261,45,420,146,-184
6440,-16,-254,49,512,139,-167
6445,-12,-249,47,588,137,-150
6450,-7,-243,46,632,148,-135
6455,-10,-240,44,639,168,-119
6460,-8,-241,46,617,186,-106
6465,-8,-240,47,563,202,-93
6470,-5,-239,52,496,213,-84
6475,-9,-240,46,427,221,-77
6480,-7,-242,47,361,223,-70
6485,-3,-244,45,304,220,-66
6490,-10,-247,52,257,211,-64
6495,-17,-248,50,220,194,-60
6500,-16,-252,47,196,168,-49
6505,-16,-255,45,182,142,-38
6510,-17,-256,46,177,116,-26
6515,-17,-260,47,178,92,-15
6520,-14,-262,41,187,72,-7
6525,-16,-260,40,195,56,-2
6530,-15,-260,37,199,43,4
6535,-7,-260,36,197,30,9
6540,-7,-260,30,190,19,14
6545,-9,-259,31,175,8,16
6550,-6,-257,26,158,-2,18
6555,-1,-256,25,141,-15,23
6560,1,-256,25,122,-23,30
6565,0,-255,25,106,-27,39
6570,2,-257,26,91,-33,49
6575,5,-258,23,75,-37,58
6580,9,-258,26,62,-39,64
6585,8,-258,23,49,-39,65
6590,7,-256,25,31,-38,62
6595,13,-255,26,15,-34,57
6600,13,-256,26,2,-33,53
6605,14,-256,30,-7,-26,47
6610,15,-257,33,-8,-18,44
6615,12,-254,36,-3,-10,40
6620,10,-255,35,2,-2,38
6625,10,-257,40,9,7,37
6630,13,-259,38,18,15,34
6635,11,-256,40,25,21,33
6640,10,-256,46,32,25,29
6645,7,-257,46,40,31,25
6650,5,-257,47,53,38,23
6655,15,-264,47,64,46,23
6660,4,-254,53,78,56,25
6665,5,-260,47,93,67,29
6670,2,-260,48,109,79,36
6675,2,-257,51,120,85,42
6680,2,-259,51,128,92,45
6685,1,-261,48,131,92,49
6690,5,-261,47,132,85,54
6695,1,-266,50,133,77,59
6700,3,-262,47,133,65,64
6705,5,-267,52,139,55,69
6710,4,-265,52,151,48,71
6715,4,-266,55,167,39,70
6720,4,-265,56,186,31,68
6725,2,-262,62,206,25,63
6730,5,-262,63,222,19,56
6735,5,-263,63,237,17,47
6740,2,-263,63,251,19,36
6745,3,-257,64,264,22,27
6750,2,-258,64,271,27,18
6755,4,-256,63,275,33,13
6760,3,-258,69,276,38,10
6765,0,-256,64,274,41,9
6770,0,-253,63,268,43,10
6775,0,-253,62,259,43,11
6780,2,-256,62,245,41,14
6785,-2,-254,63,225,39,18
6790,-2,-253,63,206,38,22
6795,-1,-255,61,190,37,27
6800,-6,-254,63,176,37,31
6805,-2,-253,62,165,40,35
6810,-4,-256,61,158,45,37
6815,-1,-254,59,153,52,39
6820,-1,-254,63,153,58,42
6825,0,-255,63,154,65,39
6830,-2,-254,64,152,73,36
6835,-4,-254,60,150,80,33
6840,0,-255,63,146,86,27
6845,-1,-252,58,139,90,24
6850,-2,-253,59,130,93,18
6855,0,-254,57,116,92,12
6860,-2,-249,54,99,89,6
6865,-3,-245,52,80,84,0
6870,-1,-251,55,57,78,-5
6875,-3,-249,52,30,72,-12
6880,0,-250,50,0,67,-19
6885,-4,-251,50,-33,65,-25
6890,-3,-251,49,-68,64,-28
6895,-1,-252,53,-102,64,-34
6900,-3,-255,53,-130,68,-39
6905,-2,-254,48,-151,72,-42
6910,-1,-257,53,-164,77,-46
6915,0,-258,55,-165,84,-48
6920,-2,-260,56,-158,92,-51
6925,0,-263,57,-142,102,-52
6930,0,-267,55,-119,112,-54
6935,-1,-267,55,-95,121,-52
6940,-1,-267,57,-68,128,-50
6945,-4,-267,53,-45,135,-50
6950,0,-268,54,-23,141,-47
6955,0,-267,50,-6,146,-46
6960,-1,-268,50,8,150,-42
6965,-2,-269,49,18,152,-39
6970,0,-267,44,24,152,-36
6975,1,-266,46,30,150,-32
6980,2,-263,36,33,148,-29
6985,0,-264,43,37,146,-26
6990,0,-264,36,41,145,-23
6995,0,-265,37,46,145,-18
7000,0,-261,39,51,147,-13
7005,0,-261,35,56,147,-10
7010,-2,-260,35,61,147,-8
7015,0,-260,38,66,145,-9
7020,0,-259,38,70,142,-9
7025,-2,-259,38,72,136,-12
7030,0,-258,39,74,127,-12
7035,0,-261,40,73,117,-13
7040,0,-258,41,76,105,-13
7045,0,-258,40,76,90,-14
7050,0,-260,45,78,77,-14
7055,-2,-258,43,79,65,-14
7060,-1,-256,46,83,53,-11
7065,0,-256,47,85,40,-10
7070,0,-261,50,87,32,-7
7075,-3,-261,50,89,28,-4
7080,1,-262,50,92,22,-4
7085,3,-257,42,95,17,-1
7090,0,-262,53,96,17,0
7095,-1,-260,55,96,17,3
7100,0,-260,56,98,18,6
7105,2,-263,53,101,21,9
7110,1,-262,60,104,24,14
7115,1,-260,61,108,28,16
7120,3,-261,60,111,36,19
7125,1,-260,60,116,42,22
7130,3,-258,63,119,47,21
7135,3,-257,65,121,52,18
7140,6,-260,63,124,56,13
7145,4,-257,66,127,59,13
7150,4,-256,66,129,62,11
7155,5,-256,67,131,64,10
7160,1,-256,63,135,68,11
7165,5,-260,67,136,71,8
7170,3,-256,67,134,71,8
7175,4,-258,67,128,72,8
7180,3,-258,69,121,72,7
7185,2,-258,67,115,72,6
7190,2,-258,69,107,73,6
7195,3,-256,73,100,72,6
7200,0,-257,69,94,73,5
7205,4,-258,68,91,71,4
7210,2,-262,70,87,65,2
7215,1,-256,69,82,64,1
7220,1,-260,66,73,63,-1
7225,3,-258,65,63,60,-1
7230,0,-254,65,52,58,-3
7235,1,-256,62,41,56,-3
7240,1,-258,59,29,51,-4
7245,1,-258,61,18,47,-5
7250,0,-256,59,3,42,-6
7255,0,-257,59,-13,36,-7
7260,0,-256,58,-29,31,-8
7265,0,-256,56,-46,27,-10
7270,0,-255,56,-64,24,-10
7275,1,-256,56,-80,22,-12
7280,1,-256,56,-93,21,-12
7285,-1,-257,58,-106,20,-13
7290,0,-256,60,-117,20,-11
7295,1,-256,58,-126,21,-9
7300,1,-256,56,-130,24,-7
7305,0,-252,58,-135,24,-2
7310,0,-256,58,-138,24,2
7315,1,-259,57,-136,26,7
7320,2,-261,57,-136,26,10
7325,1,-259,57,-135,25,11
7330,0,-264,61,-131,24,15
7335,0,-264,54,-125,23,15
7340,-1,-265,58,-121,21,16
7345,-3,-263,58,-115,22,15
7350,-2,-265,57,-110,20,14
7355,1,-267,53,-106,19,14
7360,0,-268,52,-100,20,14
7365,0,-266,52,-96,20,10
7370,0,-267,53,-93,20,10
7375,0,-265,52,-93,23,7
7380,0,-265,49,-98,25,9
7385,-2,-266,47,-100,29,8
7390,0,-265,50,-103,32,6
7395,0,-264,48,-109,35,7
7400,0,-264,45,-115,37,7
7405,-2,-264,47,-121,37,8
7410,1,-269,49,-128,38,8
7415,0,-265,45,-133,36,9
7420,-1,-264,45,-138,35,8
7425,0,-265,50,-143,33,7
7430,-3,-264,47,-147,32,3
7435,0,-265,49,-148,29,1
7440,-3,-267,49,-147,28,0
7445,1,-265,52,-139,29,-2
7450,0,-266,49,-133,30,-5
7455,-1,-264,51,-125,33,-6
7460,0,-264,53,-119,37,-5
7465,0,-263,49,-111,39,-5
7470,0,-263,49,-102,42,0
7475,-1,-265,52,-92,45,0
7480,-1,-264,49,-83,45,1
7485,-2,-262,47,-75,49,2
7490,-2,-263,49,-69,49,4
7495,-1,-265,50,-64,51,5
7500,-1,-264,48,-58,50,6
7505,0,-265,45,-54,51,6
7510,-2,-264,48,-52,50,5
7515,-5,-262,49,-50,52,4
7520,-1,-262,45,-48,50,3
7525,0,-263,46,-47,51,1
7530,-2,-264,44,-45,51,0
7535,-1,-265,48,-44,50,0
7540,0,-262,43,-44,50,-1
7545,-1,-263,45,-46,49,-2
7550,-2,-263,40,-47,48,-6
7555,0,-263,44,-46,50,-8
7560,-5,-261,49,-47,51,-10
7565,-2,-263,43,-46,52,-13
7570,-2,-263,44,-46,54,-14
7575,-3,-264,48,-47,55,-15
7580,0,-264,43,-45,57,-16
7585,0,-266,48,-44,60,-17
7590,0,-264,51,-43,64,-18
7595,0,-264,51,-40,68,-19
7600,-1,-261,50,-38,70,-19
7605,-1,-262,46,-36,72,-20
7610,-1,-262,48,-33,75,-21
7615,-5,-262,53,-29,76,-22
7620,-2,-261,48,-26,76,-22
7625,1,-264,46,-25,75,-24
7630,0,-262,45,-23,75,-24
7635,1,-262,47,-23,75,-25
7640,-1,-263,54,-22,73,-26
7645,2,-264,51,-22,71,-28
7650,0,-262,50,-23,70,-28
7655,1,-265,50,-23,69,-31
7660,-1,-262,48,-25,67,-31
7665,1,-262,48,-25,65,-33
7670,-2,-264,50,-27,64,-33
7675,0,-262,47,-29,64,-33
7680,0,-268,51,-31,64,-34
7685,0,-261,54,-31,64,-33
7690,0,-261,51,-31,64,-33
7695,1,-262,52,-31,62,-33
7700,0,-263,50,-30,61,-31
7705,0,-260,48,-27,61,-28
7710,0,-263,49,-27,60,-28
7715,0,-264,47,-26,59,-27
7720,2,-264,48,-24,57,-24
7725,1,-265,48,-23,57,-24
7730,1,-263,44,-23,57,-23
7735,1,-266,47,-23,56,-22
7740,1,-263,47,-21,58,-22
7745,1,-267,46,-21,56,-21
7750,1,-266,48,-21,58,-22
7755,1,-267,47,-21,58,-22
7760,1,-266,48,-19,58,-22
7765,2,-264,47,-18,60,-23
7770,3,-265,46,-14,62,-22
7775,3,-263,50,-12,64,-21
7780,2,-262,52,-8,65,-21
7785,4,-262,51,-5,67,-22
7790,1,-261,48,-3,68,-22
7795,5,-262,49,-1,69,-22
7800,1,-263,49,0,70,-21
7805,4,-261,49,-1,70,-21
7810,2,-262,52,2,69,-20
7815,1,-259,50,2,69,-20
7820,2,-260,51,0,70,-19
7825,2,-259,52,-2,69,-18
7830,0,-261,52,-3,68,-18
7835,4,-263,51,-6,68,-17
7840,8,-264,48,-7,66,-15
7845,1,-264,52,-8,66,-14
7850,1,-260,54,-11,66,-14
7855,1,-262,50,-12,65,-14
7860,3,-262,49,-13,64,-13
7865,3,-264,52,-12,64,-13
7870,2,-262,49,-13,65,-12
7875,0,-261,46,-13,65,-12
7880,4,-262,49,-13,65,-11
7885,1,-260,46,-13,65,-11
7890,1,-262,45,-13,63,-11
7895,2,-260,49,-15,63,-12
7900,2,-264,47,-14,63,-12
7905,2,-262,48,-13,63,-13
7910,1,-260,47,-15,63,-12
7915,2,-264,47,-14,65,-11
7920,1,-261,49,-15,65,-11
7925,2,-260,47,-14,66,-11
7930,1,-262,49,-14,67,-10
7935,1,-264,53,-13,67,-9
7940,1,-259,49,-12,67,-10
7945,3,-259,53,-13,67,-7
7950,-6,-273,55,-14,67,-7
7955,0,-260,52,-13,69,-6
7960,0,-263,53,-15,69,-5
7965,3,-264,52,-16,70,-3
7970,0,-261,51,-15,70,-3
7975,1,-260,51,-16,70,-1
7980,0,-262,52,-18,70,-2
7985,1,-263,51,-19,70,-2
7990,1,-263,52,-19,71,-1
7995,0,-265,52,-20,71,-2
8000,0,-262,47,-21,72,-2
8005,1,-262,51,-22,72,-2
8010,1,-262,49,-22,73,-1
8015,-1,-265,48,-22,73,-1
8020,0,-261,51,-22,74,-1
8025,0,-265,53,-22,75,-1
8030,2,-261,49,-21,76,1
8035,0,-262,50,-19,79,-1
8040,-1,-262,48,-19,80,-1
8045,0,-260,47,-17,85,-1
8050,2,-263,48,-14,86,-1
8055,1,-260,45,-13,88,-2
8060,7,-261,54,-14,91,0
8065,1,-259,46,-13,93,0
8070,1,-262,47,-12,94,-1
8075,0,-260,50,-13,95,-2
8080,0,-264,52,-14,96,-1
8085,0,-259,48,-18,97,-1
8090,1,-264,45,-20,97,0
8095,3,-261,47,-21,97,1
8100,0,-263,53,-23,96,1
8105,3,-263,48,-24,97,0
8110,0,-261,50,-23,97,2
8115,2,-264,52,-23,95,1
8120,2,-263,52,-23,94,0
8125,4,-263,48,-20,93,-3
8130,4,-264,49,-19,93,-3
8135,2,-263,49,-18,93,-4
8140,1,-263,49,-19,92,-4
8145,1,-260,51,-17,93,-5
8150,2,-261,53,-17,94,-5
8155,1,-264,49,-17,91,-6
8160,2,-260,50,-16,91,-4
8165,2,-262,41,-14,91,-5
8170,2,-263,49,-11,88,-8
8175,4,-263,50,-11,87,-9
8180,2,-262,49,-9,84,-10
8185,3,-263,48,-6,83,-9
8190,2,-261,52,-3,79,-9
8195,2,-262,49,1,77,-9
8200,0,-261,50,4,76,-7
8205,1,-261,47,5,74,-7
8210,1,-262,51,7,72,-4
8215,0,-257,49,8,69,-4
8220,0,-260,48,7,67,-2
8225,2,-260,48,4,65,-1
8230,2,-260,47,1,65,0
8235,3,-260,49,-3,65,-1
8240,3,-261,51,-5,65,1
8245,3,-261,50,-9,65,0
8250,4,-261,51,-13,64,-1
8255,5,-260,49,-17,66,-2
8260,4,-261,51,-18,68,-4
8265,4,-260,50,-20,70,-5
8270,4,-262,49,-20,75,-5
8275,5,-269,48,-20,80,-6
8280,3,-261,49,-20,85,-5
8285,2,-260,48,-17,89,-4
8290,1,-263,50,-13,93,-4
8295,1,-261,45,-8,96,-1
8300,5,-261,49,-6,98,-1
8305,1,-260,48,-2,100,1
8310,4,-265,45,-4,101,1
8315,3,-264,44,-3,100,2
8320,2,-262,48,-6,99,3
8325,2,-261,49,-7,99,2
8330,-1,-262,45,-10,96,3
8335,1,-262,51,-13,94,1
8340,2,-261,48,-14,90,0
8345,1,-261,48,-14,87,2
8350,1,-261,49,-14,85,2
8355,1,-261,44,-15,82,3
8360,1,-261,47,-16,82,3
8365,1,-263,51,-18,79,4
8370,1,-264,52,-20,80,4
8375,2,-262,49,-22,79,4
8380,3,-264,55,-23,80,4
8385,0,-262,48,-25,82,6
8390,0,-262,48,-29,87,5
8395,3,-265,50,-29,91,6
8400,1,-266,50,-29,96,8
8405,0,-265,53,-24,101,5
8410,0,-267,50,-16,106,5
8415,0,-264,54,-8,110,4
8420,-3,-264,53,1,114,3
8425,1,-262,53,10,117,2
8430,-1,-261,54,16,117,2
8435,-2,-262,50,20,116,1
8440,-2,-261,55,23,115,-2
8445,-4,-262,50,27,114,-1
8450,0,-260,53,30,111,-3
8455,-4,-258,53,31,109,-3
8460,-2,-260,54,31,105,-1
8465,-3,-261,46,31,103,0
8470,0,-263,50,28,101,0
8475,0,-260,48,25,99,2
8480,0,-260,52,22,96,4
8485,0,-259,54,16,92,4
8490,1,-259,51,14,91,5
8495,1,-258,53,9,87,6
8500,0,-262,53,4,84,6
8505,0,-259,53,-1,82,7
8510,1,-258,52,-4,81,4
8515,-1,-262,50,-7,79,4
8520,1,-262,50,-9,78,2
8525,1,-258,56,-9,75,1
8530,2,-260,50,-9,77,1
8535,0,-259,52,-8,76,0
8540,1,-260,51,-9,77,0
8545,1,-262,51,-7,77,0
8550,2,-259,48,-7,77,0
8555,0,-261,53,-4,76,-1
8560,1,-261,48,-4,76,1
8565,0,-261,50,-3,73,3
8570,0,-262,53,-5,73,3
8575,0,-263,47,-5,72,5
8580,1,-262,50,-6,70,7
8585,0,-261,50,-5,69,10
8590,-1,-263,50,-5,67,11
8595,0,-260,53,-4,64,12
8600,-1,-267,42,-4,62,12
8605,0,-263,52,-3,60,12
8610,1,-265,50,-1,58,13
8615,0,-262,49,1,57,15
8620,1,-263,50,2,56,18
8625,4,-263,46,3,53,20
8630,-1,-264,49,2,53,22
8635,0,-261,49,3,53,21
8640,1,-265,52,5,54,21
8645,0,-264,48,6,53,20
8650,1,-264,47,8,53,20
8655,-2,-263,52,10,54,20
8660,0,-264,51,11,56,21
8665,0,-262,50,13,56,19
8670,1,-260,48,14,55,19
8675,0,-259,53,16,54,21
8680,0,-264,49,17,52,19
8685,0,-262,50,19,51,18
8690,0,-262,50,20,50,19
8695,1,-261,49,20,48,17
8700,0,-263,51,22,46,18
8705,3,-267,63,23,44,18
8710,0,-258,50,23,42,19
8715,1,-265,50,23,42,18
8720,0,-261,48,21,39,18
8725,0,-261,53,21,37,17
8730,0,-260,52,21,36,17
8735,2,-262,48,21,36,18
8740,0,-261,52,23,34,18
8745,-1,-264,51,23,34,18
8750,0,-260,50,23,35,18
8755,0,-264,50,24,34,18
8760,-1,-262,51,23,35,17
8765,0,-261,47,23,37,17
8770,-2,-261,52,24,37,17
8775,-1,-258,50,24,37,16
8780,-7,-257,54,23,38,15
8785,0,-258,48,22,39,15
8790,-5,-259,51,21,42,14
8795,-1,-261,55,21,43,14
8800,0,-262,52,20,43,12
8805,-2,-260,55,20,44,10
8810,0,-258,50,20,44,8
8815,-4,-261,46,19,46,7
8820,0,-261,49,19,47,5
8825,-2,-260,51,21,49,3
8830,0,-263,51,21,51,2
8835,0,-263,57,22,54,3
8840,0,-261,52,24,57,3
8845,1,-265,54,25,61,1
8850,-1,-258,55,27,64,0
8855,0,-262,53,30,69,-1
8860,-3,-259,54,32,73,-2
8865,0,-262,49,34,77,-6
8870,0,-261,52,35,80,-7
8875,0,-262,53,35,83,-9
8880,-1,-259,51,34,87,-9
8885,0,-257,53,33,89,-11
8890,0,-261,55,33,93,-13
8895,0,-262,52,32,94,-13
8900,0,-261,56,31,97,-13
8905,0,-259,50,30,99,-16
8910,1,-262,53,29,101,-17
8915,-1,-260,57,27,100,-17
8920,0,-261,57,27,100,-18
8925,3,-262,52,26,100,-21
8930,1,-260,59,28,99,-22
8935,0,-262,57,27,96,-23
8940,0,-260,56,26,96,-24
8945,2,-263,58,26,94,-26
8950,1,-261,56,25,93,-27
8955,0,-259,57,24,94,-29
8960,0,-259,57,25,95,-30
8965,0,-262,58,23,96,-29
8970,1,-257,55,21,97,-29
8975,0,-260,56,18,97,-30
8980,0,-262,56,14,98,-30
8985,0,-259,56,13,99,-32
8990,0,-261,56,11,99,-31
8995,2,-261,60,8,98,-31
9000,0,-263,58,8,97,-31
9005,1,-260,54,8,98,-31
9010,0,-260,55,9,97,-30
9015,-1,-259,57,8,95,-29
9020,2,-262,57,8,93,-30
9025,1,-258,59,8,91,-28
9030,1,-263,52,8,88,-28
9035,-1,-260,59,8,85,-27
9040,1,-258,59,6,83,-26
9045,0,-259,56,5,78,-27
9050,2,-260,54,2,73,-26
9055,1,-261,57,-1,71,-26
9060,2,-259,56,-4,69,-25
9065,1,-260,60,-8,68,-25
9070,1,-261,56,-8,64,-23
9075,2,-261,59,-11,62,-23
9080,0,-260,53,-12,62,-22
9085,3,-260,53,-13,63,-22
9090,2,-263,55,-11,63,-20
9095,0,-263,55,-9,65,-19
9100,5,-264,55,-7,66,-18
9105,5,-261,54,-3,69,-17
9110,2,-261,54,0,71,-16
9115,4,-260,53,3,72,-15
9120,3,-261,53,5,75,-15
9125,3,-261,52,8,77,-12
9130,3,-262,53,9,78,-12
9135,4,-264,57,10,80,-10
9140,2,-261,47,11,81,-10
9145,5,-262,51,10,81,-9
9150,2,-263,52,10,82,-8
9155,2,-261,55,9,81,-7
9160,2,-260,55,8,79,-6
9165,3,-259,57,8,81,-7
9170,0,-260,54,7,79,-6
9175,0,-261,54,7,77,-5
9180,0,-263,55,8,76,-6
9185,5,-264,59,9,76,-6
9190,2,-258,51,10,74,-6
9195,2,-260,54,12,73,-8
9200,0,-259,53,13,72,-7
9205,-2,-262,56,15,70,-6
9210,0,-259,59,17,70,-8
9215,1,-262,56,17,66,-7
9220,0,-260,55,18,64,-7
9225,-1,-261,55,18,62,-6
9230,-2,-259,58,17,62,-7
9235,0,-262,57,18,61,-6
9240,0,-263,54,17,61,-5
9245,-2,-262,60,15,59,-6
9250,-1,-253,57,15,59,-5
9255,0,-262,60,15,60,-4
9260,-1,-258,54,15,61,-5
9265,-2,-258,55,16,60,-6
9270,-2,-258,56,16,61,-6
9275,0,-259,59,15,63,-5
9280,-2,-258,58,17,64,-4
9285,-2,-260,56,16,64,-6
9290,0,-260,59,16,65,-6
9295,-1,-259,59,14,65,-6
9300,-4,-258,58,12,66,-6
9305,0,-257,54,11,65,-7
9310,1,-258,53,10,65,-7
9315,0,-257,55,8,65,-7
9320,0,-260,57,6,66,-7
9325,0,-259,55,5,66,-8
9330,-1,-258,61,2,66,-7
9335,0,-259,56,3,65,-6
9340,1,-262,58,1,66,-6
9345,0,-257,55,0,63,-4
9350,0,-260,59,0,62,-4
9355,1,-259,57,-1,61,-3
9360,6,-259,67,-2,58,-3
9365,1,-262,56,-4,57,-3
9370,0,-261,59,-2,56,-1
9375,0,-260,59,-2,55,2
9380,0,-261,61,-1,53,2
9385,0,-259,60,-1,53,2
9390,1,-258,59,2,55,2
9395,0,-259,60,3,55,2
9400,1,-258,60,2,54,1
9405,1,-260,57,4,57,0
9410,6,-260,58,5,59,-1
9415,1,-260,61,7,59,-1
9420,2,-259,62,7,60,-2
9425,2,-260,59,6,61,-4
9430,3,-260,57,5,63,-7
9435,3,-257,61,5,62,-7
9440,2,-260,55,7,62,-8
9445,2,-258,53,7,61,-7
9450,2,-261,57,8,58,-8
9455,3,-260,55,9,57,-10
9460,2,-261,54,10,55,-9
9465,2,-264,57,12,54,-8
9470,4,-260,56,11,53,-11
9475,0,-259,55,11,52,-12
9480,1,-259,56,10,53,-12
9485,1,-258,53,9,51,-13
9490,1,-263,59,9,50,-10
9495,0,-259,56,10,51,-9
9500,1,-261,59,10,50,-9
9505,1,-260,55,10,51,-9
9510,1,-260,54,8,53,-8
9515,1,-259,60,7,53,-9
9520,0,-259,57,5,56,-11
9525,1,-259,59,4,58,-13
9530,0,-257,60,4,61,-14
9535,0,-259,59,6,63,-15
9540,0,-259,62,6,68,-19
9545,0,-257,58,5,71,-20
9550,0,-258,58,0,72,-20
9555,2,-258,57,-5,76,-19
9560,0,-258,60,-11,79,-18
9565,3,-260,62,-15,80,-16
9570,-2,-258,58,-19,85,-14
9575,3,-262,61,-22,88,-10
9580,2,-264,62,-26,90,-7
9585,0,-261,62,-26,93,-4
9590,5,-263,58,-24,93,-3
9595,2,-265,59,-23,92,-1
9600,5,-262,61,-20,92,-1
9605,7,-263,58,-15,92,0
9610,3,-262,61,-12,91,-2
9615,7,-261,56,-7,89,-2
9620,5,-261,58,-5,88,-3
9625,5,-261,59,-3,85,-5
9630,6,-256,60,-3,83,-6
9635,5,-260,58,-6,81,-7
9640,7,-259,58,-10,78,-7
9645,3,-257,58,-15,74,-8
9650,3,-257,56,-21,73,-5
9655,3,-259,61,-27,69,-6
9660,1,-256,61,-34,68,-4
9665,0,-256,58,-40,67,0
9670,2,-259,62,-44,64,2
9675,0,-257,60,-48,67,5
9680,1,-258,59,-51,68,7
9685,1,-257,65,-53,70,10
9690,-1,-257,60,-54,71,12
9695,-2,-259,59,-54,75,13
9700,0,-261,54,-54,77,15
9705,2,-264,58,-50,81,15
9710,0,-261,60,-46,85,14
9715,0,-261,55,-40,87,13
9720,-1,-261,57,-36,88,11
9725,3,-261,55,-32,91,10
9730,0,-262,54,-29,95,11
9735,0,-262,60,-27,97,10
9740,0,-263,58,-28,100,9
9745,-1,-260,55,-29,104,9
9750,3,-263,53,-32,106,7
9755,2,-263,57,-33,109,5
9760,1,-265,57,-32,109,3
9765,1,-265,59,-29,110,-2
9770,1,-264,55,-27,110,-4
9775,2,-262,55,-21,109,-6
9780,0,-265,54,-16,105,-11
9785,0,-260,55,-12,103,-15
9790,1,-261,56,-7,99,-18
9795,1,-268,51,-4,95,-19
9800,1,-260,58,-1,90,-20
9805,0,-258,53,0,87,-22
9810,0,-260,57,-1,82,-20
9815,0,-257,57,-2,80,-19
9820,-1,-261,55,-6,78,-14
9825,-2,-258,57,-11,76,-10
9830,-3,-259,58,-14,75,-6
9835,-6,-258,55,-16,73,-1
9840,-3,-259,60,-17,73,4
9845,-3,-260,61,-19,72,6
9850,-3,-261,57,-19,72,8
9855,-4,-262,61,-18,70,11
9860,0,-261,61,-16,68,11
9865,-3,-263,59,-14,66,11
9870,0,-264,55,-13,64,10
9875,0,-258,57,-10,61,8
9880,1,-261,57,-10,58,5
9885,0,-261,60,-11,55,2
9890,0,-263,62,-11,53,-3
9895,0,-262,59,-11,49,-8
9900,0,-263,47,-12,49,-10
9905,1,-262,59,-11,50,-13
9910,0,-260,58,-10,53,-13
9915,0,-261,59,-9,56,-13
9920,0,-261,61,-8,60,-15
9925,0,-262,56,-7,63,-15
9930,0,-261,61,-4,68,-14
9935,-6,-260,61,-1,74,-13
9940,-2,-264,63,3,80,-12
9945,0,-259,62,6,85,-11
9950,-1,-260,61,11,91,-10
9955,1,-264,57,17,96,-8
9960,0,-265,57,23,101,-7
9965,-1,-263,56,29,104,-8
9970,0,-262,52,33,106,-9
9975,2,-261,58,35,106,-7
9980,6,-261,57,40,106,-6
9985,4,-262,56,44,104,-5
9990,6,-263,59,48,102,-4
9995,2,-259,58,54,98,-2
10000,5,-259,56,56,94,1
10005,5,-260,56,56,90,1
10010,17,-260,56,49,81,1
10015,11,-261,58,49,75,2
10020,12,-259,58,47,64,3
10025,10,-260,57,42,55,5
10030,10,-259,59,32,44,5
10035,12,-256,60,21,35,7
10040,13,-253,59,8,22,15
10045,13,-251,55,-12,12,22
10050,12,-245,56,-37,5,29
10055,11,-246,56,-69,1,35
10060,11,-242,54,-103,-2,40
10065,12,-247,55,-137,-3,42
10070,11,-244,57,-165,-2,42
10075,9,-250,61,-188,-2,41
10080,5,-254,62,-203,-3,37
10085,2,-257,60,-209,-3,31
10090,4,-258,64,-210,-3,22
10095,1,-262,63,-205,-3,11
10100,3,-272,66,-193,-4,-1
10105,0,-270,65,-176,-4,-9
10110,-3,-274,63,-157,-2,-16
10115,-4,-276,64,-134,1,-20
10120,0,-275,62,-112,5,-21
10125,-8,-275,59,-87,12,-14
10130,-9,-274,57,-63,18,-6
10135,-9,-274,57,-43,25,4
10140,-9,-270,48,-27,32,18
10145,-13,-266,49,-16,39,32
10150,-11,-263,49,-12,43,45
10155,-12,-263,46,-12,44,53
10160,-10,-261,47,-18,46,59
10165,-12,-259,47,-24,45,62
10170,-12,-258,45,-29,45,59
10175,-12,-261,48,-37,42,50
10180,-12,-260,48,-45,41,42
10185,-6,-258,48,-49,42,32
10190,-11,-258,51,-52,42,19
10195,-8,-260,52,-53,44,8
10200,-6,-258,47,-52,48,0
10205,-6,-261,53,-49,54,-5
10210,0,-262,49,-44,60,-8
10215,-1,-260,51,-39,66,-8
10220,-1,-259,51,-38,72,-9
10225,0,-257,48,-37,77,-8
10230,1,-259,53,-37,80,-5
10235,0,-260,52,-37,83,-4
10240,3,-259,55,-39,83,-1
10245,2,-261,56,-40,84,-2
10250,3,-260,56,-41,86,-4
10255,4,-259,53,-43,85,-5
10260,5,-261,53,-43,83,-5
10265,5,-258,60,-43,84,-10
10270,4,-258,56,-41,82,-12
10275,3,-260,55,-40,82,-15
10280,2,-258,58,-36,81,-18
10285,5,-263,58,-32,80,-19
10290,3,-263,57,-27,82,-20
10295,2,-261,59,-24,82,-21
10300,2,-266,57,-20,82,-21
10305,3,-265,57,-16,81,-21
10310,1,-265,55,-12,81,-21
10315,0,-263,51,-10,80,-19
10320,4,-264,53,-7,79,-19
10325,1,-266,57,-7,78,-20
10330,1,-263,55,-9,78,-20
10335,1,-264,53,-10,76,-20
10340,1,-261,52,-13,76,-19
10345,0,-261,52,-15,76,-19
10350,1,-262,48,-18,74,-20
10355,-4,-263,49,-23,73,-20
10360,1,-260,46,-26,73,-21
10365,-2,-259,51,-31,72,-22
10370,0,-261,49,-33,72,-22
10375,0,-260,51,-34,72,-21
10380,0,-260,52,-33,71,-23
10385,0,-261,51,-31,71,-23
10390,0,-262,50,-31,71,-25
10395,0,-259,53,-31,72,-25
10400,0,-259,55,-29,72,-26
10405,1,-262,51,-30,73,-24
10410,0,-260,54,-28,73,-21
10415,0,-261,54,-26,73,-18
10420,1,-262,54,-25,71,-16
10425,1,-261,56,-24,70,-14
10430,4,-264,56,-22,68,-14
10435,3,-263,55,-20,69,-11
10440,1,-262,55,-18,67,-11
10445,4,-257,52,-16,66,-11
10450,3,-265,54,-16,63,-10
10455,0,-265,51,-16,63,-10
10460,0,-263,50,-13,64,-10
10465,1,-262,55,-10,63,-10
10470,1,-264,53,-8,64,-10
10475,3,-264,53,-6,65,-11
10480,3,-262,52,-3,65,-13
10485,2,-261,54,-1,65,-12
10490,0,-260,50,1,66,-13
10495,3,-262,54,2,68,-14
10500,2,-262,52,3,67,-13
10505,2,-259,53,3,68,-13
10510,3,-261,54,3,68,-11
10515,1,-259,52,3,69,-9
10520,5,-264,52,2,69,-9
10525,2,-262,56,2,68,-8
10530,3,-262,53,0,68,-8
10535,1,-264,53,-2,68,-8
10540,1,-263,52,-2,68,-7
10545,1,-264,57,-2,69,-9
10550,5,-262,51,-2,70,-7
10555,1,-259,53,0,69,-8
10560,0,-263,53,3,70,-9
10565,1,-265,52,6,71,-8
10570,0,-263,53,8,72,-10
10575,0,-262,52,11,73,-10
10580,1,-260,57,11,74,-10
10585,2,-264,55,13,75,-10
10590,1,-263,55,14,76,-11
10595,2,-263,55,14,76,-11
10600,1,-260,50,14,75,-10
10605,0,-260,52,13,76,-11
10610,0,-262,52,11,76,-9
10615,0,-260,52,10,76,-9
10620,1,-260,53,9,77,-10
10625,0,-261,56,7,74,-10
10630,0,-260,55,7,72,-10
10635,0,-260,54,8,71,-10
10640,0,-262,59,8,69,-9
10645,-1,-259,53,9,68,-9
10650,0,-260,53,10,68,-11
10655,0,-259,54,10,69,-11
10660,1,-261,59,9,70,-11
10665,0,-259,59,8,71,-12
10670,-1,-261,58,7,71,-9
10675,0,-259,54,6,72,-10
10680,-3,-259,56,5,73,-8
10685,0,-262,58,5,73,-8
10690,4,-263,54,5,73,-8
10695,1,-263,55,5,71,-6
10700,0,-262,55,6,72,-8
10705,0,-262,54,7,69,-8
10710,2,-262,54,8,68,-10
10715,1,-262,57,10,65,-11
10720,1,-261,55,12,64,-13
10725,1,-260,57,14,64,-16
10730,0,-258,52,16,61,-17
10735,0,-262,54,18,60,-16
10740,0,-263,54,21,60,-16
10745,1,-260,57,21,60,-14
10750,1,-260,52,21,61,-15
10755,2,-261,57,21,62,-15
10760,4,-263,56,19,64,-15
10765,4,-261,57,18,66,-13
10770,3,-258,52,15,67,-13
10775,4,-258,54,12,71,-12
10780,1,-259,55,9,72,-13
10785,2,-263,55,8,73,-14
10790,3,-258,54,5,74,-15
10795,5,-260,56,2,74,-15
10800,3,-262,56,2,75,-15
10805,1,-257,55,0,75,-15
10810,4,-261,54,0,76,-15
10815,4,-263,55,0,76,-14
10820,3,-260,56,0,78,-15
10825,2,-257,53,1,76,-14
10830,2,-260,57,0,77,-15
10835,3,-263,56,0,77,-16
10840,2,-262,56,1,76,-16
10845,1,-257,53,1,75,-17
10850,1,-260,55,1,74,-16
10855,2,-258,56,2,74,-15
10860,3,-261,53,0,73,-16
10865,3,-263,55,0,73,-14
10870,2,-262,57,1,74,-14
10875,3,-261,58,1,72,-14
10880,2,-260,56,1,73,-15
10885,3,-260,56,1,73,-14
10890,2,-260,57,1,72,-14
10895,0,-259,56,1,72,-13
10900,1,-262,57,0,74,-11
10905,1,-258,56,0,74,-12
10910,3,-261,53,0,74,-11
10915,1,-260,55,-1,74,-10
10920,2,-260,57,-2,74,-9
10925,0,-261,55,-4,74,-10
10930,2,-261,57,-4,74,-10
10935,1,-261,55,-5,74,-11
10940,3,-261,58,-4,74,-10
10945,2,-261,53,-3,73,-9
10950,1,-261,62,-2,74,-10
10955,1,-262,53,-3,73,-11
10960,0,-260,60,-2,73,-10
10965,3,-260,56,-1,73,-11
10970,1,-260,58,0,72,-9
10975,0,-259,53,0,72,-10
10980,0,-260,53,0,71,-10
10985,2,-260,54,-1,71,-10
10990,0,-260,58,-1,71,-10
10995,1,-259,58,0,71,-8
11000,0,-259,56,-2,71,-9
11005,2,-261,55,-1,71,-8
11010,1,-259,56,-2,69,-8
11015,0,-259,57,-2,70,-9
11020,1,-259,54,-2,69,-10
11025,1,-260,57,-1,68,-8
11030,4,-262,54,-2,69,-7
11035,0,-260,57,-1,70,-8
11040,1,-261,54,-1,70,-10
11045,2,-259,57,-1,69,-9
11050,2,-260,55,-3,70,-9
11055,3,-260,52,-3,69,-8
11060,4,-260,56,-2,69,-8
11065,3,-258,60,-4,70,-7
11070,2,-260,59,-4,69,-9
11075,2,-261,58,-3,69,-9
11080,2,-260,59,-4,68,-10
11085,4,-263,59,-3,69,-8
11090,7,-263,57,-3,70,-8
11095,1,-260,60,-3,70,-7
11100,5,-262,58,-4,69,-7
11105,1,-261,61,-6,69,-7
11110,1,-259,60,-6,68,-6
11115,5,-263,60,-9,68,-4
11120,0,-261,58,-10,69,-5
11125,0,-259,57,-10,69,-6
11130,3,-262,57,-9,70,-6
11135,1,-260,57,-9,70,-5
11140,2,-262,56,-10,70,-4
11145,2,-262,57,-10,71,-4
11150,3,-260,59,-9,71,-4
11155,2,-260,57,-7,68,-5
11160,0,-257,57,-9,69,-4
11165,3,-259,56,-8,68,-4
11170,2,-259,56,-8,68,-4
11175,4,-262,58,-10,68,-4
11180,3,-257,54,-11,68,-4
11185,1,-261,58,-11,68,-3
11190,1,-259,55,-12,67,-4
11195,2,-260,56,-12,68,-5
11200,2,-261,54,-14,68,-6
11205,4,-263,51,-14,69,-5
11210,2,-256,56,-14,70,-7
11215,2,-260,56,-12,71,-6
11220,1,-260,54,-11,72,-5
11225,2,-258,54,-9,71,-6
11230,1,-261,56,-5,73,-6
11235,1,-259,58,-3,73,-4
11240,3,-262,57,0,74,-5
11245,0,-258,60,2,73,-5
11250,3,-260,57,3,72,-4
11255,4,-261,59,4,72,-5
11260,3,-262,55,5,72,-4
11265,3,-263,57,4,72,-3
11270,2,-259,57,4,70,-2
11275,2,-258,53,3,69,-2
11280,3,-263,58,1,67,-1
11285,1,-261,58,0,67,-1
11290,0,-261,55,-3,66,-3
11295,1,-260,55,-4,68,-1
11300,3,-262,56,-6,67,-1
11305,1,-259,58,-8,68,-1
11310,6,-258,56,-9,69,0
11315,3,-266,53,-10,69,0
11320,3,-263,59,-10,70,0
11325,3,-259,52,-12,72,0
11330,1,-260,56,-12,72,-1
11335,2,-262,57,-12,73,-1
11340,1,-259,57,-11,75,0
11345,1,-262,53,-12,74,0
11350,1,-261,56,-10,74,0
11355,3,-261,53,-9,74,-1
11360,0,-261,57,-8,74,-2
11365,0,-260,54,-7,74,-2
11370,2,-261,56,-4,74,-4
11375,1,-260,58,-3,72,-3
11380,2,-261,55,-2,74,-3
11385,3,-260,55,-2,74,-3
11390,1,-259,58,-1,72,-3
11395,3,-261,58,-1,72,-5
11400,2,-262,58,0,73,-4
11405,5,-258,60,-1,72,-3
11410,1,-261,57,-2,71,-1
11415,3,-259,55,-3,70,-2
11420,2,-264,56,-5,71,-3
11425,2,-263,52,-6,71,-3
11430,2,-261,58,-8,69,-1
11435,1,-259,58,-10,70,-2
11440,3,-263,53,-10,67,-2
11445,0,-262,57,-10,68,-2
11450,1,-259,58,-11,66,-2
11455,1,-262,55,-11,65,-3
11460,3,-260,59,-12,64,-4
11465,0,-259,55,-11,64,-4
11470,0,-259,59,-11,64,-3
11475,4,-261,54,-12,64,-2
11480,1,-258,58,-13,64,-2
11485,2,-262,58,-14,63,-1
11490,1,-263,56,-13,63,-3
11495,1,-260,56,-13,65,0
11500,3,-262,56,-14,66,-1
11505,1,-260,58,-13,68,-1
11510,3,-262,61,-12,68,1
11515,1,-261,60,-12,69,1
11520,1,-259,58,-8,69,4
11525,5,-261,59,-7,70,3
11530,3,-269,60,-6,71,2
11535,2,-261,58,-4,71,1
11540,6,-264,56,-6,70,1
11545,3,-257,57,-7,69,2
11550,4,-258,57,-9,68,2
11555,4,-258,59,-12,67,1
11560,3,-261,58,-15,65,1
11565,1,-261,59,-19,65,-1
11570,4,-260,55,-20,65,0
11575,2,-258,61,-21,65,-1
11580,1,-263,64,-21,65,0
11585,3,-263,60,-21,65,0
11590,4,-260,57,-22,66,2
11595,2,-259,58,-22,65,3
11600,4,-260,57,-21,66,3
11605,5,-262,59,-18,68,3
11610,0,-261,55,-17,68,4
11615,2,-259,58,-16,68,4
11620,4,-260,55,-14,69,4
11625,5,-261,56,-14,70,4
11630,3,-259,55,-15,72,4
11635,0,-261,55,-17,73,4
11640,4,-262,49,-20,75,5
11645,1,-259,56,-23,76,4
11650,1,-261,56,-25,77,4
11655,1,-259,58,-28,75,4
11660,2,-260,55,-32,74,2
11665,1,-260,53,-33,75,3
11670,1,-262,57,-34,74,4
11675,0,-260,60,-33,75,3
11680,0,-259,56,-31,76,3
11685,-1,-263,59,-28,75,5
11690,0,-260,57,-26,76,5
11695,2,-259,57,-23,76,5
11700,2,-263,53,-21,75,5
11705,1,-262,55,-21,76,3
11710,0,-259,54,-21,75,1
11715,0,-263,56,-22,76,1
11720,-1,-259,59,-23,77,0
11725,1,-260,58,-25,77,0
11730,2,-259,55,-29,77,-1
11735,2,-259,54,-33,77,2
11740,2,-259,56,-36,78,2
11745,0,-259,57,-40,79,2
11750,-8,-265,55,-40,78,1
11755,2,-264,55,-40,78,2
11760,3,-260,60,-41,78,2
11765,1,-262,54,-39,77,1
11770,0,-261,55,-35,75,0
11775,0,-261,57,-32,73,-2
11780,1,-260,60,-30,71,-3
11785,1,-261,58,-29,69,-4
11790,1,-258,56,-29,68,-5
11795,1,-261,58,-29,68,-5
11800,3,-258,58,-31,68,-4
11805,1,-258,54,-34,68,-4
11810,1,-261,57,-35,71,-3
11815,0,-258,56,-36,71,-2
11820,0,-259,56,-37,71,-2
11825,1,-259,58,-39,70,-1
11830,1,-261,57,-42,70,-1
11835,2,-262,58,-44,68,-2
11840,3,-261,56,-45,67,-1
11845,1,-257,57,-47,65,-1
11850,1,-261,55,-47,64,-3
11855,2,-262,55,-46,65,-5
11860,1,-262,64,-47,65,-6
11865,2,-263,59,-46,65,-6
11870,1,-260,56,-45,65,-9
11875,1,-262,57,-41,67,-10
11880,3,-262,55,-41,67,-9
11885,1,-262,55,-38,68,-8
11890,1,-262,56,-36,71,-9
11895,3,-263,51,-34,74,-8
11900,0,-262,56,-31,76,-7
11905,1,-258,54,-31,79,-8
11910,1,-263,54,-30,78,-7
11915,0,-260,54,-31,79,-4
11920,1,-261,51,-31,79,-4
11925,4,-260,55,-32,78,-3
11930,4,-259,59,-31,75,-2
11935,1,-260,54,-34,74,-1
11940,2,-261,51,-37,73,0
11945,3,-260,59,-42,72,-1
11950,1,-260,54,-46,69,0
11955,2,-259,56,-47,70,-1
11960,3,-260,58,-49,68,-1
11965,4,-261,58,-51,70,0
11970,3,-263,58,-49,69,-2
11975,1,-261,53,-47,69,-2
11980,2,-262,54,-45,70,-3
11985,3,-263,55,-39,71,-4
11990,4,-266,53,-33,71,-5
11995,3,-267,54,-29,70,-4
