timestamp,acc_x,acc_y,acc_z,gyro_x,gyro_y,gyro_z
0,16,-254,-38,-20,58,-5
5,17,-252,-36,-21,58,-5
10,19,-252,-33,-20,58,-6
15,19,-253,-35,-20,58,-5
20,16,-254,-32,-21,56,-6
25,13,-254,-29,-20,57,-3
30,18,-253,-37,-21,57,-5
35,10,-255,-36,-21,59,-3
40,15,-253,-26,-20,62,-5
45,15,-255,-34,-19,64,-4
50,18,-255,-35,-19,64,-6
55,17,-256,-37,-18,64,-5
60,17,-255,-33,-20,65,-6
65,19,-255,-36,-19,63,-4
70,17,-255,-33,-19,63,-8
75,17,-254,-31,-18,63,-5
80,17,-255,-37,-17,62,-8
85,20,-260,-60,-15,63,-7
90,19,-257,-34,-14,64,-9
95,16,-251,-33,-14,62,-9
100,19,-253,-36,-13,60,-11
105,19,-254,-34,-14,60,-8
110,17,-254,-37,-15,59,-10
115,17,-255,-30,-15,59,-9
120,19,-254,-34,-15,57,-11
125,17,-251,-32,-16,57,-8
130,18,-253,-33,-18,55,-8
135,17,-253,-32,-18,55,-7
140,15,-253,-30,-20,55,-8
145,17,-254,-34,-18,55,-4
150,16,-253,-34,-18,56,-7
155,17,-254,-36,-17,56,-5
160,17,-257,-34,-16,56,-8
165,19,-255,-33,-12,55,-4
170,15,-253,-34,-12,55,-6
175,17,-256,-37,-12,56,-4
180,14,-255,-31,-11,55,-7
185,19,-255,-33,-11,55,-6
190,17,-254,-33,-10,57,-7
195,16,-253,-35,-10,58,-6
200,16,-255,-36,-11,59,-7
205,18,-255,-33,-10,58,-7
210,18,-255,-35,-11,58,-10
215,17,-253,-35,-11,58,-8
220,16,-253,-33,-14,59,-12
225,18,-253,-35,-14,58,-9
230,15,-253,-35,-14,57,-12
235,16,-253,-34,-15,57,-11
240,19,-253,-35,-15,59,-12
245,17,-252,-33,-13,61,-9
250,15,-254,-38,-15,64,-12
255,16,-252,-32,-16,63,-9
260,17,-256,-38,-17,63,-10
265,17,-254,-33,-17,63,-8
270,17,-252,-35,-17,64,-10
275,17,-254,-34,-16,63,-8
280,18,-255,-32,-14,65,-9
285,17,-256,-35,-13,65,-8
290,19,-257,-34,-10,64,-8
295,16,-256,-32,-11,62,-7
300,17,-253,-33,-8,61,-9
305,16,-254,-34,-8,59,-7
310,19,-253,-34,-8,58,-8
315,20,-254,-34,-9,56,-9
320,15,-254,-38,-9,57,-10
325,16,-253,-34,-9,56,-8
330,17,-253,-34,-10,55,-9
335,18,-251,-32,-10,55,-9
340,19,-253,-32,-12,56,-11
345,18,-252,-36,-15,56,-12
350,17,-254,-33,-16,56,-12
355,19,-252,-33,-18,57,-11
360,18,-253,-35,-21,56,-14
365,18,-254,-36,-24,58,-14
370,17,-251,-37,-22,57,-15
375,15,-254,-36,-24,59,-17
380,19,-255,-35,-24,57,-18
385,16,-255,-40,-24,57,-17
390,19,-256,-38,-22,57,-17
395,15,-256,-40,-20,57,-18
400,15,-259,-38,-17,59,-17
405,18,-256,-40,-13,61,-16
410,16,-255,-39,-10,63,-16
415,17,-258,-34,-4,65,-14
420,19,-256,-36,-2,66,-14
425,20,-253,-35,2,66,-14
430,21,-254,-32,1,66,-11
435,18,-252,-36,0,65,-12
440,19,-254,-35,-5,66,-8
445,16,-250,-33,-10,62,-10
450,18,-251,-37,-14,61,-7
455,17,-253,-31,-18,58,-6
460,17,-252,-33,-23,60,-3
465,21,-253,-31,-24,60,-4
470,20,-253,-31,-25,61,-4
475,21,-254,-33,-24,60,-6
480,20,-255,-30,-24,60,-4
485,19,-254,-31,-24,59,-8
490,19,-253,-32,-25,59,-7
495,18,-251,-29,-27,59,-10
500,21,-254,-31,-30,57,-8
505,20,-255,-31,-32,54,-9
510,21,-254,-33,-35,52,-7
515,22,-255,-35,-37,48,-9
520,19,-255,-32,-39,47,-8
525,21,-256,-29,-39,44,-11
530,18,-255,-33,-39,42,-8
535,19,-255,-30,-36,43,-11
540,19,-256,-32,-34,42,-8
545,19,-257,-31,-30,42,-10
550,17,-256,-32,-28,42,-6
555,19,-252,-37,-28,43,-9
560,17,-250,-32,-28,43,-4
565,19,-253,-33,-29,45,-5
570,19,-250,-35,-31,46,-2
575,19,-252,-33,-34,48,-4
580,18,-251,-36,-38,52,-2
585,17,-254,-36,-40,51,-4
590,16,-251,-33,-44,53,-1
595,18,-253,-35,-44,53,-4
600,16,-254,-35,-45,53,0
605,20,-252,-36,-43,53,-2
610,17,-254,-31,-40,54,0
615,20,-255,-37,-41,54,-2
620,19,-254,-33,-41,54,0
625,18,-254,-35,-40,54,-4
630,20,-254,-34,-39,55,-2
635,18,-255,-34,-40,55,-4
640,17,-253,-34,-41,54,-1
645,19,-254,-35,-40,54,-4
650,23,-253,-35,-39,54,-3
655,20,-257,-38,-41,55,-6
660,19,-253,-36,-40,56,-3
665,18,-255,-38,-39,56,-5
670,17,-253,-35,-36,57,-4
675,17,-252,-37,-35,57,-7
680,19,-255,-36,-35,58,-5
685,19,-254,-39,-35,58,-9
690,16,-252,-37,-34,58,-8
695,19,-253,-37,-32,60,-9
700,15,-253,-44,-33,59,-7
705,18,-254,-38,-31,60,-10
710,15,-255,-38,-30,60,-10
715,16,-253,-41,-29,63,-10
720,18,-253,-37,-28,62,-8
725,15,-253,-39,-26,61,-9
730,19,-254,-40,-25,60,-5
735,18,-254,-39,-25,62,-8
740,17,-255,-38,-24,62,-5
745,16,-255,-40,-22,63,-7
750,18,-257,-37,-22,63,-5
755,17,-253,-40,-18,62,-7
760,23,-257,-40,-16,64,-6
765,17,-253,-37,-13,65,-5
770,16,-254,-36,-10,66,-6
775,19,-257,-36,-9,66,-7
780,17,-254,-39,-8,65,-5
785,16,-252,-36,-6,64,-9
790,19,-253,-36,-6,64,-6
795,16,-252,-35,-6,64,-9
800,18,-252,-34,-8,62,-8
805,18,-251,-37,-7,61,-8
810,20,-253,-39,-8,61,-8
815,16,-253,-33,-9,62,-8
820,18,-251,-37,-10,62,-8
825,18,-253,-36,-11,60,-8
830,19,-256,-35,-11,59,-7
835,17,-251,-38,-12,59,-10
840,19,-254,-39,-12,60,-9
845,19,-256,-35,-14,58,-9
850,18,-257,-38,-13,58,-8
855,17,-256,-39,-13,57,-8
860,19,-257,-36,-13,55,-9
865,19,-254,-41,-12,53,-7
870,18,-257,-37,-10,51,-9
875,18,-255,-37,-6,51,-8
880,18,-256,-36,-4,52,-6
885,17,-253,-38,-2,51,-6
890,19,-254,-40,2,53,-6
895,18,-258,-32,4,52,-6
900,17,-254,-34,6,54,-6
905,17,-253,-36,5,54,-6
910,15,-252,-34,7,55,-7
915,20,-254,-37,5,55,-4
920,18,-256,-39,5,56,-6
925,19,-255,-33,3,56,-5
930,17,-253,-36,2,58,-6
935,19,-254,-36,2,59,-5
940,15,-253,-33,1,61,-6
945,22,-250,-36,1,61,-3
950,17,-252,-35,0,61,-5
955,21,-254,-34,0,60,-4
960,19,-255,-35,-1,62,-6
965,19,-255,-35,-2,60,-2
970,20,-254,-36,-2,57,-6
975,19,-254,-34,-3,58,-3
980,19,-255,-35,-3,58,-6
985,21,-256,-33,-2,58,-3
990,18,-253,-31,-1,59,-6
995,21,-254,-34,-1,59,-4
1000,20,-256,-33,-1,58,-7
1005,19,-253,-34,0,58,-4
1010,19,-253,-37,-1,56,-8
1015,22,-256,-33,1,55,-5
1020,18,-255,-34,0,54,-8
1025,21,-254,-34,1,54,-5
1030,18,-254,-37,1,55,-6
1035,19,-254,-35,3,54,-2
1040,17,-252,-33,4,54,-3
1045,21,-257,-38,4,53,0
1050,20,-253,-38,5,53,-2
1055,19,-255,-37,4,52,0
1060,19,-250,-38,3,53,-4
1065,20,-253,-38,0,52,0
1070,19,-255,-32,-2,51,-2
1075,20,-249,-34,-2,52,0
1080,19,-253,-34,-4,53,-4
1085,20,-253,-32,-6,54,-1
1090,21,-255,-32,-8,54,-5
1095,19,-253,-35,-10,55,-2
1100,18,-252,-36,-12,56,-4
1105,20,-254,-36,-11,55,0
1110,16,-253,-33,-11,56,-3
1115,17,-254,-34,-11,57,-1
1120,17,-254,-35,-9,58,-3
1125,20,-255,-34,-7,61,0
1130,19,-257,-34,-4,62,-3
1135,17,-256,-35,-1,61,0
1140,18,-255,-37,2,62,-2
1145,18,-255,-33,3,64,0
1150,20,-256,-34,5,63,-1
1155,17,-254,-38,8,65,2
1160,20,-253,-34,8,66,0
1165,20,-253,-33,8,66,2
1170,20,-255,-37,6,67,-1
1175,19,-253,-35,5,65,1
1180,17,-253,-35,4,64,-1
1185,20,-253,-33,3,64,1
1190,18,-257,-38,-1,64,0
1195,17,-252,-36,-3,63,2
1200,20,-255,-35,-5,62,-1
1205,17,-253,-38,-7,62,2
1210,17,-252,-35,-8,62,0
1215,20,-252,-31,-9,62,2
1220,19,-251,-34,-12,60,1
1225,15,-252,-34,-15,58,2
1230,19,-254,-36,-16,58,2
1235,19,-253,-34,-19,59,2
1240,19,-254,-34,-19,59,3
1245,20,-256,-33,-20,57,4
1250,17,-254,-30,-18,58,2
1255,17,-254,-35,-16,60,5
1260,18,-256,-33,-14,59,3
1265,15,-254,-35,-13,59,4
1270,17,-255,-33,-12,59,3
1275,20,-254,-33,-10,59,4
1280,18,-255,-35,-10,60,1
1285,17,-255,-32,-10,62,2
1290,17,-255,-33,-12,63,2
1295,18,-254,-35,-13,62,0
1300,17,-251,-38,-17,62,-1
1305,17,-252,-35,-18,62,0
1310,20,-254,-36,-21,61,-1
1315,16,-253,-35,-20,61,-2
1320,19,-253,-35,-23,61,-2
1325,18,-254,-34,-22,61,-2
1330,19,-254,-34,-21,61,-1
1335,18,-256,-37,-22,60,-1
1340,16,-253,-32,-22,61,-1
1345,18,-256,-30,-21,62,-1
1350,19,-256,-35,-21,61,1
1355,16,-251,-35,-22,59,0
1360,18,-252,-36,-21,59,1
1365,15,-254,-34,-21,61,1
1370,18,-253,-38,-21,61,0
1375,16,-254,-35,-19,62,0
1380,16,-252,-35,-19,62,2
1385,17,-254,-34,-17,62,1
1390,18,-256,-35,-16,63,3
1395,18,-253,-32,-15,64,1
1400,18,-255,-34,-14,63,3
1405,18,-253,-35,-13,63,0
1410,20,-253,-35,-17,62,0
1415,18,-253,-37,-18,61,-2
1420,19,-254,-33,-23,61,0
1425,21,-256,-34,-24,60,-2
1430,18,-251,-36,-26,59,0
1435,17,-253,-33,-26,58,-1
1440,17,-253,-33,-27,59,0
1445,18,-251,-33,-28,59,-2
1450,19,-254,-39,-28,57,0
1455,15,-254,-32,-29,59,-2
1460,18,-253,-37,-28,58,0
1465,21,-255,-34,-27,57,-2
1470,17,-256,-35,-24,59,3
1475,16,-251,-35,-23,59,0
1480,20,-255,-38,-21,60,2
1485,19,-254,-35,-20,61,-1
1490,18,-254,-32,-18,61,3
1495,15,-253,-33,-18,61,0
1500,16,-254,-37,-17,62,4
1505,17,-255,-33,-17,62,0
1510,17,-254,-34,-15,59,3
1515,17,-256,-37,-16,60,1
1520,16,-252,-34,-17,61,3
1525,19,-252,-33,-18,61,0
1530,17,-256,-36,-19,60,3
1535,19,-252,-39,-21,60,-1
1540,17,-253,-37,-21,60,2
1545,19,-254,-35,-23,60,0
1550,16,-255,-31,-25,60,2
1555,16,-256,-34,-25,61,0
1560,14,-254,-36,-27,61,1
1565,19,-254,-31,-27,62,-2
1570,14,-252,-32,-26,61,0
1575,18,-256,-37,-27,61,-3
1580,14,-254,-31,-28,61,0
1585,17,-255,-31,-26,61,-2
1590,19,-256,-38,-26,63,-1
1595,18,-255,-36,-25,63,-3
1600,18,-254,-35,-24,63,-2
1605,16,-254,-34,-23,64,-5
1610,17,-256,-35,-22,65,-3
1615,17,-253,-39,-22,65,-6
1620,16,-254,-39,-22,64,-4
1625,17,-253,-34,-21,63,-8
1630,17,-253,-38,-19,63,-6
1635,18,-252,-38,-19,63,-7
1640,16,-254,-38,-17,62,-5
1645,18,-256,-37,-15,63,-6
1650,14,-255,-33,-14,62,-4
1655,18,-255,-38,-13,63,-4
1660,16,-255,-38,-12,67,-2
1665,16,-252,-35,-13,67,-2
1670,19,-255,-36,-13,68,-1
1675,19,-256,-38,-15,68,-3
1680,18,-254,-35,-14,67,-1
1685,21,-255,-39,-15,67,-4
1690,18,-254,-36,-17,66,-3
1695,20,-254,-38,-15,67,-4
1700,18,-255,-40,-16,67,-3
1705,16,-255,-35,-15,65,-6
1710,17,-253,-35,-16,65,-6
1715,18,-256,-33,-15,64,-8
1720,17,-253,-32,-15,64,-7
1725,16,-255,-37,-15,62,-10
1730,19,-254,-39,-14,62,-8
1735,21,-255,-30,-13,62,-8
1740,17,-254,-34,-14,60,-7
1745,18,-254,-30,-15,60,-7
1750,19,-254,-36,-14,61,-6
1755,19,-257,-33,-13,59,-7
1760,19,-254,-35,-13,60,-8
1765,16,-254,-33,-12,60,-8
1770,17,-253,-34,-11,61,-6
1775,17,-255,-39,-12,61,-6
1780,18,-253,-39,-12,62,-5
1785,19,-256,-35,-12,63,-7
1790,18,-255,-39,-13,64,-7
1795,20,-256,-38,-14,65,-6
1800,21,-254,-36,-13,65,-6
1805,21,-253,-37,-15,66,-6
1810,19,-255,-38,-15,65,-6
1815,16,-253,-33,-15,63,-4
1820,22,-256,-36,-16,63,-3
1825,19,-256,-36,-14,63,-4
1830,19,-254,-36,-14,63,-3
1835,18,-252,-32,-12,61,-2
1840,19,-253,-34,-13,61,-2
1845,18,-255,-35,-14,62,0
1850,19,-254,-34,-13,60,-1
1855,17,-254,-35,-13,58,0
1860,19,-252,-35,-10,59,0
1865,17,-253,-33,-10,60,1
1870,21,-256,-36,-8,59,-2
1875,19,-254,-36,-8,60,0
1880,18,-257,-35,-5,60,-1
1885,15,-253,-33,-4,59,-2
1890,18,-255,-34,-3,59,-3
1895,18,-255,-33,-4,59,-2
1900,19,-254,-36,-5,59,-3
1905,17,-255,-36,-8,58,-2
1910,19,-254,-34,-9,57,-3
1915,16,-252,-36,-10,58,-2
1920,18,-254,-33,-11,58,-4
1925,16,-251,-33,-13,58,-3
1930,18,-254,-32,-15,58,-5
1935,18,-256,-39,-15,58,-3
1940,18,-256,-36,-16,59,-4
1945,18,-253,-35,-18,60,-2
1950,19,-255,-32,-20,60,-6
1955,18,-254,-35,-19,61,-5
1960,17,-253,-30,-20,60,-7
1965,21,-254,-42,-20,61,-4
1970,19,-254,-33,-19,60,-7
1975,18,-255,-37,-16,59,-4
1980,17,-256,-36,-15,57,-7
1985,19,-254,-36,-13,58,-5
1990,17,-253,-34,-10,59,-6
1995,19,-255,-39,-8,61,-3
2000,20,-254,-37,-8,61,-6
2005,19,-253,-35,-7,60,-3
2010,18,-254,-37,-6,60,-5
2015,18,-255,-37,-7,59,-2
2020,20,-255,-38,-9,59,-6
2025,16,-256,-33,-10,60,-2
2030,20,-256,-31,-9,59,-5
2035,20,-254,-31,-11,59,-2
2040,18,-254,-34,-12,62,-4
2045,18,-253,-36,-12,61,-4
2050,18,-254,-37,-14,62,-6
2055,17,-253,-32,-15,63,-4
2060,18,-253,-35,-15,62,-8
2065,18,-252,-37,-16,63,-6
2070,18,-254,-35,-14,63,-7
2075,15,-252,-37,-16,64,-5
2080,19,-255,-35,-17,64,-6
2085,14,-252,-38,-15,64,-4
2090,19,-255,-30,-17,65,-5
2095,18,-254,-34,-15,65,-2
2100,17,-255,-35,-13,65,-5
2105,19,-255,-31,-11,66,-2
2110,19,-253,-35,-8,66,-5
2115,18,-256,-35,-6,68,-3
2120,19,-254,-38,-4,68,-4
2125,20,-255,-32,-4,66,-1
2130,20,-256,-35,-4,65,-4
2135,17,-255,-34,-4,64,-3
2140,20,-255,-32,-5,62,-6
2145,18,-255,-35,-7,61,-3
2150,19,-255,-34,-8,62,-7
2155,21,-255,-32,-11,60,-4
2160,18,-254,-32,-12,61,-6
2165,19,-254,-35,-14,61,-5
2170,15,-252,-34,-14,61,-6
2175,18,-255,-40,-16,62,-4
2180,18,-255,-35,-17,61,-6
2185,17,-253,-35,-17,63,-4
2190,17,-253,-36,-18,62,-6
2195,19,-253,-32,-19,62,-3
2200,18,-253,-29,-21,62,-6
2205,17,-253,-30,-20,62,-3
2210,20,-253,-38,-19,62,-4
2215,18,-258,-38,-17,63,-4
2220,18,-253,-38,-16,62,-5
2225,19,-253,-37,-16,63,-5
2230,20,-254,-32,-14,64,-7
2235,16,-252,-35,-13,62,-6
2240,17,-253,-38,-14,63,-8
2245,17,-255,-36,-13,62,-7
2250,15,-258,-34,-12,62,-9
2255,19,-255,-36,-10,64,-7
2260,17,-253,-36,-8,66,-9
2265,20,-255,-35,-7,66,-7
2270,20,-253,-35,-7,66,-8
2275,15,-254,-33,-8,66,-8
2280,16,-254,-37,-9,66,-7
2285,20,-255,-37,-10,64,-6
2290,17,-254,-35,-11,65,-6
2295,18,-255,-36,-12,64,-6
2300,17,-255,-34,-13,62,-7
2305,18,-252,-34,-12,62,-7
2310,20,-254,-32,-13,61,-8
2315,16,-255,-36,-14,61,-6
2320,17,-255,-32,-13,60,-6
2325,18,-251,-33,-15,60,-5
2330,18,-255,-33,-14,60,-5
2335,16,-253,-31,-12,58,-6
2340,22,-256,-34,-12,59,-6
2345,18,-254,-33,-11,58,-6
2350,15,-252,-36,-11,58,-6
2355,18,-254,-34,-10,58,-7
2360,20,-252,-34,-8,57,-7
2365,18,-253,-36,-8,58,-6
2370,19,-255,-34,-8,57,-5
2375,20,-254,-35,-7,58,-7
2380,17,-252,-35,-8,59,-5
2385,14,-252,-36,-8,58,-6
2390,19,-255,-33,-9,58,-6
2395,21,-254,-32,-10,60,-6
2400,18,-254,-35,-13,60,-6
2405,18,-253,-34,-13,62,-7
2410,19,-252,-34,-15,62,-5
2415,16,-254,-35,-16,62,-6
2420,19,-255,-38,-16,62,-5
2425,18,-255,-39,-17,63,-7
2430,19,-253,-39,-17,63,-3
2435,20,-252,-33,-16,61,-6
2440,20,-253,-33,-16,61,-4
2445,20,-254,-34,-16,61,-4
2450,18,-253,-34,-14,60,-2
2455,20,-255,-34,-15,59,-5
2460,20,-253,-32,-16,58,-1
2465,17,-252,-36,-16,57,-4
2470,18,-255,-32,-18,57,-1
2475,20,-253,-36,-17,59,-3
2480,14,-254,-33,-16,59,-2
2485,17,-254,-35,-15,60,-5
2490,18,-253,-36,-13,58,-2
2495,18,-255,-34,-15,59,-4
2500,19,-252,-34,-16,61,-2
2505,18,-254,-40,-15,60,-5
2510,18,-254,-39,-17,61,-1
2515,17,-253,-33,-17,62,-5
2520,18,-257,-36,-18,62,-2
2525,21,-254,-36,-19,61,-4
2530,16,-253,-35,-19,60,-3
2535,18,-255,-34,-20,61,-5
2540,18,-254,-35,-20,60,-3
2545,19,-256,-38,-19,60,-6
2550,19,-255,-33,-19,60,-4
2555,19,-254,-36,-20,59,-5
2560,18,-252,-36,-19,59,-4
2565,19,-255,-38,-18,58,-5
2570,18,-255,-34,-18,58,-2
2575,19,-254,-38,-18,58,-4
2580,20,-254,-36,-18,59,-2
2585,19,-254,-35,-15,59,-5
2590,20,-256,-38,-16,58,-2
2595,17,-254,-37,-16,58,-4
2600,19,-254,-34,-15,58,-2
2605,19,-254,-37,-15,60,-4
2610,19,-253,-36,-15,60,-2
2615,18,-253,-38,-14,58,-5
2620,18,-254,-40,-14,60,-3
2625,19,-253,-39,-13,60,-5
2630,17,-255,-37,-13,61,-3
2635,16,-253,-39,-13,60,-6
2640,18,-255,-37,-13,61,-5
2645,17,-256,-37,-12,62,-8
2650,17,-254,-35,-14,62,-4
2655,21,-252,-34,-16,63,-7
2660,19,-254,-41,-18,61,-5
2665,17,-253,-35,-16,60,-6
2670,17,-255,-35,-16,60,-4
2675,17,-253,-38,-16,60,-7
2680,18,-253,-36,-15,61,-3
2685,18,-253,-38,-17,61,-4
2690,20,-257,-37,-15,61,-3
2695,19,-259,-32,-15,60,-4
2700,17,-257,-36,-15,61,-1
2705,18,-252,-36,-13,60,-4
2710,16,-255,-34,-14,60,-3
2715,20,-257,-38,-13,60,-4
2720,19,-256,-35,-12,60,-2
2725,17,-254,-31,-12,59,-3
2730,17,-255,-33,-11,58,-3
2735,20,-255,-36,-11,57,-4
2740,21,-255,-32,-10,58,-3
2745,18,-250,-36,-11,58,-3
2750,17,-251,-32,-11,57,-3
2755,20,-255,-34,-11,57,-5
2760,19,-252,-35,-11,60,-4
2765,16,-255,-36,-14,59,-5
2770,18,-251,-37,-15,58,-4
2775,20,-254,-36,-17,60,-6
2780,18,-254,-34,-17,61,-3
2785,17,-255,-35,-19,60,-6
2790,18,-253,-37,-18,60,-6
2795,16,-254,-36,-19,60,-5
2800,19,-256,-33,-20,61,-5
2805,19,-255,-36,-21,60,-5
2810,17,-255,-35,-21,60,-4
2815,18,-252,-36,-19,60,-6
2820,18,-254,-35,-19,60,-5
2825,19,-251,-37,-19,62,-5
2830,17,-251,-33,-19,62,-5
2835,22,-258,-34,-17,61,-5
2840,18,-256,-31,-16,61,-5
2845,18,-253,-34,-16,60,-6
2850,17,-254,-35,-14,60,-7
2855,20,-255,-33,-12,60,-5
2860,19,-253,-35,-10,61,-4
2865,21,-255,-34,-9,62,-4
2870,19,-254,-36,-9,63,-6
2875,18,-256,-34,-8,64,-4
2880,19,-255,-35,-10,67,-5
2885,19,-253,-40,-12,67,-3
2890,19,-254,-37,-13,66,-5
2895,17,-253,-37,-15,65,-4
2900,19,-253,-35,-15,64,-5
2905,22,-256,-37,-16,61,-5
2910,19,-253,-36,-19,60,-5
2915,17,-252,-37,-20,61,-4
2920,19,-253,-34,-19,60,-5
2925,19,-254,-34,-19,59,-5
2930,17,-257,-35,-17,58,-5
2935,20,-256,-35,-13,60,-4
2940,18,-253,-35,-13,59,-6
2945,20,-255,-35,-13,59,-4
2950,17,-250,-35,-12,59,-6
2955,19,-257,-35,-13,60,-3
2960,18,-253,-38,-11,59,-3
2965,19,-254,-31,-11,58,-2
2970,21,-256,-34,-11,58,-4
2975,18,-255,-36,-11,59,-2
2980,19,-253,-37,-11,58,-5
2985,17,-253,-38,-9,57,-2
2990,20,-255,-35,-10,60,-5
2995,18,-257,-38,-10,62,-2
3000,20,-253,-37,-9,64,-5
3005,19,-253,-33,-9,61,-3
3010,20,-255,-37,-10,63,-5
3015,18,-255,-35,-10,63,-3
3020,19,-254,-35,-9,63,-4
3025,19,-254,-36,-10,62,-2
3030,22,-255,-32,-10,63,-4
3035,21,-252,-36,-10,64,-1
3040,18,-252,-32,-10,63,-2
3045,19,-252,-34,-10,63,1
3050,20,-255,-35,-10,61,-3
3055,21,-253,-35,-11,60,0
3060,19,-255,-32,-12,61,-2
3065,17,-251,-36,-14,61,0
3070,20,-253,-35,-14,58,-1
3075,19,-252,-36,-13,57,0
3080,20,-252,-29,-13,58,-3
3085,14,-253,-36,-13,58,0
3090,19,-257,-32,-11,58,-3
3095,21,-256,-35,-9,58,0
3100,18,-256,-32,-8,59,-3
3105,18,-254,-33,-8,59,0
3110,19,-256,-33,-8,60,-3
3115,18,-253,-38,-8,61,-2
3120,17,-255,-31,-8,60,-4
3125,19,-254,-34,-10,61,-1
3130,18,-255,-36,-11,59,-4
3135,16,-250,-34,-13,59,0
3140,15,-256,-35,-14,58,-4
3145,19,-255,-34,-16,58,-2
3150,19,-253,-31,-18,57,-5
3155,22,-254,-37,-20,57,-3
3160,19,-253,-36,-21,59,-5
3165,19,-253,-34,-23,57,-4
3170,18,-254,-32,-23,58,-7
3175,16,-254,-35,-23,59,-3
3180,18,-254,-35,-21,60,-4
3185,17,-254,-37,-19,61,-3
3190,19,-254,-37,-19,61,-4
3195,18,-253,-37,-17,61,-1
3200,16,-253,-35,-16,59,-4
3205,19,-253,-34,-12,60,-2
3210,19,-252,-34,-10,60,-3
3215,18,-253,-37,-10,60,0
3220,18,-254,-35,-8,59,-3
3225,17,-256,-37,-8,61,-1
3230,18,-256,-37,-9,61,-2
3235,17,-250,-36,-9,61,0
3240,18,-252,-38,-9,61,-1
3245,16,-254,-37,-10,60,0
3250,18,-254,-40,-11,59,0
3255,19,-256,-35,-13,57,1
3260,20,-254,-37,-14,58,2
3265,18,-253,-36,-18,57,3
3270,19,-256,-34,-17,57,2
3275,20,-255,-36,-18,57,3
3280,21,-254,-36,-19,60,3
3285,19,-253,-34,-19,59,4
3290,17,-252,-33,-16,57,1
3295,18,-254,-35,-17,57,1
3300,19,-252,-37,-15,57,2
3305,22,-250,-37,-14,57,1
3310,19,-253,-36,-15,55,-1
3315,19,-257,-31,-14,57,-1
3320,16,-256,-35,-16,58,-2
3325,19,-253,-35,-14,57,0
3330,21,-256,-33,-14,58,-1
3335,18,-254,-32,-14,57,-2
3340,16,-253,-34,-15,59,-3
3345,18,-252,-35,-14,60,-4
3350,18,-255,-32,-13,60,-4
3355,17,-254,-35,-12,62,-3
3360,16,-252,-35,-11,60,-2
3365,17,-254,-34,-13,61,-3
3370,18,-253,-38,-14,60,-5
3375,18,-255,-37,-16,61,-3
3380,19,-255,-38,-18,62,-2
3385,16,-253,-33,-19,64,-2
3390,20,-253,-35,-22,63,-2
3395,17,-251,-37,-25,65,-3
3400,19,-254,-32,-27,65,-4
3405,20,-255,-38,-29,65,-5
3410,18,-254,-34,-30,66,-6
3415,20,-256,-33,-31,64,-6
3420,16,-253,-36,-34,63,-6
3425,21,-254,-34,-35,61,-7
3430,16,-253,-36,-37,61,-7
3435,22,-255,-36,-36,61,-9
3440,17,-253,-38,-35,63,-9
3445,18,-252,-37,-34,61,-11
3450,17,-252,-38,-33,60,-11
3455,17,-251,-38,-33,61,-14
3460,19,-253,-35,-34,60,-13
3465,16,-250,-36,-33,62,-15
3470,16,-254,-34,-31,63,-12
3475,20,-253,-36,-25,65,-11
3480,19,-257,-33,-16,66,-6
3485,21,-255,-38,-2,68,-4
3490,22,-258,-40,11,65,4
3495,20,-259,-39,20,61,4
3500,24,-258,-39,26,54,8
3505,22,-257,-40,24,48,7
3510,22,-255,-39,12,47,7
3515,22,-252,-36,-5,44,4
3520,24,-255,-40,-34,38,2
3525,23,-250,-37,-66,25,-8
3530,20,-251,-37,-109,11,-15
3535,24,-247,-38,-146,-1,-24
3540,25,-246,-36,-180,-12,-30
3545,24,-243,-35,-211,-23,-39
3550,24,-242,-36,-239,-34,-42
3555,23,-241,-36,-266,-43,-47
3560,19,-236,-43,-291,-47,-48
3565,20,-237,-40,-316,-48,-51
3570,21,-236,-41,-340,-46,-47
3575,19,-238,-42,-364,-42,-49
3580,21,-236,-43,-388,-33,-47
3585,18,-237,-42,-405,-23,-52
3590,16,-239,-45,-415,-9,-51
3595,15,-239,-45,-417,4,-56
3600,15,-242,-43,-414,17,-55
3605,16,-246,-43,-405,27,-61
3610,12,-250,-41,-390,35,-60
3615,11,-254,-37,-372,41,-63
3620,10,-252,-40,-350,48,-61
3625,13,-257,-48,-328,57,-64
3630,11,-257,-50,-301,69,-62
3635,12,-256,-50,-270,77,-63
3640,10,-256,-52,-247,84,-61
3645,11,-256,-47,-229,88,-64
3650,17,-258,-49,-215,90,-63
3655,15,-254,-47,-206,91,-67
3660,15,-254,-50,-196,92,-63
3665,14,-252,-46,-190,90,-64
3670,11,-249,-51,-186,87,-61
3675,15,-254,-48,-183,81,-60
3680,17,-247,-43,-185,76,-55
3685,18,-244,-45,-187,71,-55
3690,20,-248,-42,-187,68,-48
3695,19,-246,-47,-188,68,-46
3700,22,-244,-41,-189,68,-39
3705,25,-248,-41,-190,68,-38
3710,23,-248,-45,-190,69,-34
3715,23,-245,-44,-189,72,-37
3720,22,-244,-47,-190,76,-35
3725,22,-247,-41,-194,80,-39
3730,23,-245,-39,-200,84,-37
3735,23,-246,-41,-214,87,-40
3740,20,-245,-42,-228,88,-37
3745,22,-245,-38,-243,88,-37
3750,21,-247,-35,-261,90,-34
3755,21,-246,-34,-278,94,-34
3760,20,-248,-31,-297,97,-32
3765,23,-246,-35,-317,101,-32
3770,23,-248,-33,-339,102,-29
3775,22,-244,-35,-362,105,-28
3780,24,-246,-35,-387,109,-24
3785,23,-246,-36,-411,113,-26
3790,19,-247,-29,-441,114,-26
3795,23,-247,-33,-462,114,-31
3800,23,-249,-31,-485,115,-38
3805,23,-248,-32,-506,111,-45
3810,24,-250,-37,-528,109,-48
3815,24,-249,-36,-552,102,-56
3820,23,-251,-30,-575,96,-58
3825,25,-250,-33,-599,87,-64
3830,25,-249,-35,-620,78,-68
3835,22,-249,-35,-642,66,-70
3840,21,-246,-38,-668,49,-69
3845,24,-245,-37,-692,38,-70
3850,28,-244,-41,-718,27,-69
3855,25,-243,-42,-750,18,-66
3860,25,-242,-47,-788,9,-60
3865,30,-245,-50,-828,-1,-58
3870,27,-246,-49,-873,-10,-56
3875,31,-249,-57,-923,-18,-55
3880,27,-249,-59,-978,-23,-60
3885,30,-248,-63,-1035,-29,-69
3890,27,-254,-68,-1104,-45,-76
3895,26,-248,-75,-1161,-61,-83
3900,25,-247,-87,-1219,-78,-86
3905,27,-245,-80,-1281,-94,-90
3910,27,-241,-82,-1345,-111,-92
3915,29,-243,-80,-1415,-127,-88
3920,29,-250,-84,-1491,-139,-86
3925,29,-248,-79,-1573,-145,-85
3930,36,-259,-85,-1660,-148,-87
3935,39,-258,-90,-1752,-144,-95
3940,38,-262,-95,-1848,-128,-106
3945,40,-270,-101,-1922,-112,-120
3950,38,-274,-105,-1987,-96,-137
3955,38,-285,-113,-2033,-82,-155
3960,36,-292,-122,-2055,-72,-174
3965,30,-299,-128,-2048,-64,-194
3970,28,-307,-139,-2015,-55,-215
3975,27,-311,-144,-1955,-50,-231
3980,25,-313,-156,-1872,-45,-245
3985,25,-317,-166,-1771,-34,-248
3990,23,-320,-174,-1662,-18,-248
3995,27,-320,-174,-1526,-7,-243
4000,21,-322,-177,-1414,1,-239
4005,29,-319,-156,-1310,0,-233
4010,22,-317,-171,-1210,-12,-229
4015,24,-314,-163,-1118,-37,-223
4020,29,-313,-164,-1033,-69,-215
4025,31,-308,-160,-952,-104,-206
4030,36,-299,-159,-883,-138,-201
4035,34,-293,-158,-824,-170,-195
4040,36,-286,-153,-778,-199,-195
4045,36,-277,-156,-737,-217,-198
4050,36,-269,-164,-713,-234,-201
4055,35,-262,-159,-693,-249,-202
4060,35,-258,-162,-672,-261,-201
4065,33,-252,-169,-652,-275,-199
4070,35,-250,-166,-634,-285,-200
4075,31,-243,-170,-616,-292,-195
4080,35,-239,-170,-599,-294,-194
4085,30,-232,-170,-585,-289,-186
4090,31,-228,-173,-572,-278,-179
4095,33,-225,-171,-561,-262,-171
4100,33,-221,-177,-557,-249,-166
4105,33,-215,-182,-553,-239,-158
4110,35,-219,-175,-554,-229,-157
4115,33,-213,-176,-553,-221,-150
4120,34,-212,-177,-553,-214,-147
4125,35,-215,-181,-547,-206,-140
4130,32,-212,-181,-542,-197,-139
4135,35,-214,-180,-534,-189,-133
4140,29,-210,-184,-525,-184,-135
4145,31,-209,-178,-517,-175,-134
4150,26,-208,-178,-510,-171,-139
4155,26,-208,-187,-504,-168,-139
4160,9,-206,-183,-502,-165,-146
4165,24,-207,-184,-503,-162,-148
4170,23,-205,-180,-504,-161,-154
4175,24,-205,-181,-508,-157,-155
4180,19,-205,-182,-515,-153,-158
4185,16,-202,-184,-520,-147,-157
4190,17,-202,-183,-521,-144,-157
4195,16,-199,-175,-515,-139,-151
4200,18,-202,-177,-500,-137,-148
4205,18,-200,-177,-485,-137,-140
4210,21,-201,-179,-470,-134,-136
4215,21,-199,-175,-456,-128,-126
4220,25,-204,-177,-439,-118,-120
4225,24,-203,-174,-420,-104,-106
4230,26,-200,-179,-397,-85,-101
4235,27,-198,-176,-374,-67,-89
4240,30,-197,-181,-353,-49,-83
4245,34,-195,-179,-331,-31,-74
4250,34,-195,-182,-312,-13,-71
4255,35,-192,-180,-300,1,-68
4260,38,-190,-177,-294,13,-69
4265,36,-184,-178,-290,24,-68
4270,36,-183,-178,-294,37,-70
4275,37,-175,-177,-298,47,-70
4280,35,-175,-174,-303,59,-74
4285,37,-174,-173,-307,68,-73
4290,35,-169,-172,-308,79,-78
4295,33,-166,-170,-310,88,-76
4300,31,-164,-168,-310,99,-79
4305,31,-164,-167,-312,107,-78
4310,29,-161,-164,-313,112,-76
4315,29,-162,-167,-315,117,-70
4320,28,-161,-159,-317,121,-68
4325,26,-156,-163,-323,122,-60
4330,26,-159,-160,-329,123,-57
4335,27,-159,-158,-337,125,-53
4340,28,-156,-157,-345,128,-53
4345,26,-159,-155,-352,131,-51
4350,27,-161,-158,-354,134,-53
4355,25,-160,-158,-349,140,-50
4360,28,-158,-160,-338,143,-50
4365,29,-161,-162,-325,144,-48
4370,24,-158,-169,-317,144,-45
4375,23,-157,-164,-311,139,-42
4380,22,-159,-167,-307,132,-41
4385,22,-159,-167,-303,125,-39
4390,20,-161,-162,-299,115,-37
4395,22,-160,-164,-290,105,-36
4400,20,-160,-162,-274,91,-31
4405,17,-158,-159,-254,81,-25
4410,17,-158,-159,-235,71,-22
4415,18,-158,-159,-214,63,-14
4420,15,-158,-157,-194,52,-8
4425,16,-159,-155,-175,43,-1
4430,15,-159,-157,-154,30,3
4435,12,-161,-154,-136,15,9
4440,15,-166,-154,-118,-1,13
4445,10,-163,-154,-98,-15,17
4450,13,-161,-163,-81,-30,20
4455,12,-166,-159,-61,-45,25
4460,13,-164,-162,-50,-55,29
4465,13,-162,-167,-44,-59,31
4470,11,-160,-167,-43,-64,35
4475,10,-159,-165,-44,-66,37
4480,13,-165,-165,-47,-67,42
4485,15,-162,-164,-48,-70,44
4490,14,-163,-164,-50,-77,49
4495,14,-161,-167,-49,-82,50
4500,12,-159,-169,-49,-89,52
4505,14,-159,-168,-50,-97,54
4510,15,-157,-164,-52,-105,55
4515,16,-156,-162,-55,-112,56
4520,17,-154,-160,-56,-116,59
4525,17,-155,-167,-59,-123,59
4530,17,-152,-165,-66,-129,60
4535,21,-153,-164,-72,-138,56
4540,19,-158,-166,-75,-148,53
4545,19,-155,-163,-72,-158,43
4550,22,-161,-168,-67,-163,37
4555,22,-161,-167,-60,-159,30
4560,21,-161,-167,-49,-154,26
4565,27,-165,-169,-37,-141,19
4570,27,-165,-171,-20,-125,19
4575,26,-165,-169,1,-109,16
4580,29,-163,-169,18,-94,19
4585,28,-162,-167,34,-82,16
4590,28,-163,-172,45,-73,16
4595,29,-163,-173,50,-66,13
4600,27,-163,-174,48,-64,15
4605,26,-162,-173,42,-62,11
4610,24,-161,-172,34,-63,9
4615,22,-162,-174,26,-64,6
4620,16,-162,-174,20,-65,7
4625,17,-163,-170,18,-67,6
4630,16,-164,-174,21,-71,10
4635,14,-162,-174,29,-73,13
4640,14,-158,-172,37,-76,21
4645,13,-159,-175,48,-76,27
4650,13,-161,-175,61,-76,37
4655,16,-162,-177,72,-71,45
4660,18,-161,-180,83,-63,54
4665,24,-162,-185,88,-50,54
4670,25,-160,-187,87,-32,55
4675,26,-161,-193,82,-9,51
4680,33,-156,-192,74,13,49
4685,31,-157,-194,59,34,40
4690,34,-159,-193,42,50,34
4695,30,-156,-191,21,62,23
4700,37,-160,-192,-1,68,17
4705,32,-162,-192,-24,68,6
4710,29,-164,-188,-49,65,1
4715,29,-165,-189,-62,59,-8
4720,25,-166,-186,-69,54,-10
4725,26,-170,-183,-72,51,-16
4730,24,-171,-187,-72,51,-16
4735,25,-172,-187,-71,55,-18
4740,17,-176,-186,-66,60,-15
4745,16,-178,-183,-54,60,-15
4750,16,-177,-182,-35,55,-12
4755,13,-179,-178,-9,46,-13
4760,12,-177,-180,27,33,-9
4765,15,-179,-182,57,18,-9
4770,11,-176,-183,84,8,-2
4775,16,-174,-185,107,3,1
4780,18,-172,-185,122,4,7
4785,19,-172,-187,135,9,7
4790,21,-173,-185,144,18,11
4795,21,-170,-186,147,27,8
4800,21,-170,-183,145,36,6
4805,24,-171,-181,140,41,-3
4810,29,-171,-183,128,44,-8
4815,25,-170,-183,117,40,-19
4820,24,-170,-182,100,34,-25
4825,28,-171,-186,81,28,-38
4830,27,-173,-184,61,23,-46
4835,26,-175,-182,43,16,-56
4840,23,-173,-181,30,7,-61
4845,22,-178,-183,23,0,-67
4850,19,-181,-180,23,-6,-70
4855,18,-179,-185,27,-12,-74
4860,18,-180,-184,31,-15,-74
4865,20,-183,-185,39,-14,-75
4870,19,-186,-187,47,-9,-72
4875,15,-184,-190,58,-4,-72
4880,16,-185,-187,72,3,-69
4885,17,-188,-185,87,7,-68
4890,11,-189,-184,105,9,-65
4895,13,-186,-185,124,10,-65
4900,12,-188,-186,147,11,-63
4905,13,-187,-188,168,10,-62
4910,13,-190,-193,186,11,-59
4915,12,-185,-190,199,12,-60
4920,18,-186,-193,203,16,-60
4925,18,-191,-193,203,17,-65
4930,22,-191,-194,198,23,-69
4935,20,-188,-195,190,26,-75
4940,25,-190,-191,179,34,-80
4945,22,-189,-193,167,42,-87
4950,19,-188,-183,156,47,-90
4955,18,-191,-182,151,48,-93
4960,17,-193,-182,152,44,-95
4965,21,-196,-183,161,35,-95
4970,14,-194,-185,169,24,-92
4975,13,-195,-184,181,14,-90
4980,14,-197,-185,189,5,-87
4985,12,-196,-191,199,-3,-84
4990,11,-200,-188,211,-12,-81
4995,9,-198,-190,224,-22,-79
5000,9,-197,-189,239,-29,-76
5005,11,-199,-189,255,-35,-70
5010,10,-202,-186,274,-35,-61
5015,13,-198,-185,293,-29,-53
5020,11,-198,-185,306,-23,-45
5025,12,-198,-182,320,-18,-37
5030,15,-198,-182,331,-12,-30
5035,17,-199,-182,340,-5,-25
5040,17,-198,-180,349,-2,-21
5045,18,-200,-177,356,1,-20
5050,18,-201,-173,366,0,-20
5055,21,-200,-175,373,-2,-22
5060,26,-200,-177,380,-9,-30
5065,24,-198,-180,383,-14,-33
5070,24,-195,-176,381,-19,-37
5075,25,-196,-178,374,-19,-37
5080,22,-194,-175,367,-16,-39
5085,22,-195,-172,363,-15,-39
5090,22,-195,-169,365,-16,-40
5095,19,-194,-169,375,-20,-38
5100,18,-194,-170,389,-23,-37
5105,18,-190,-172,401,-23,-33
5110,21,-188,-180,405,-16,-35
5115,22,-189,-180,398,-2,-30
5120,21,-189,-173,384,12,-31
5125,22,-188,-172,371,28,-32
5130,19,-188,-169,365,39,-36
5135,20,-186,-167,364,46,-37
5140,15,-186,-167,368,51,-42
5145,18,-184,-163,374,56,-42
5150,16,-184,-161,379,60,-45
5155,20,-179,-169,382,64,-43
5160,18,-179,-168,383,68,-43
5165,21,-180,-167,381,73,-38
5170,20,-181,-166,374,78,-37
5175,21,-179,-171,365,86,-35
5180,21,-179,-168,354,95,-39
5185,23,-179,-163,345,104,-39
5190,24,-177,-171,333,114,-43
5195,21,-176,-169,324,124,-41
5200,21,-177,-169,314,132,-45
5205,20,-177,-166,306,136,-43
5210,23,-175,-166,303,137,-45
5215,18,-172,-166,306,136,-41
5220,19,-171,-167,312,137,-41
5225,19,-166,-172,315,138,-38
5230,20,-164,-170,311,143,-39
5235,17,-156,-170,305,152,-34
5240,20,-157,-169,295,163,-36
5245,19,-152,-173,282,173,-30
5250,16,-147,-165,268,181,-28
5255,19,-144,-160,256,186,-21
5260,17,-140,-155,248,190,-20
5265,15,-137,-154,251,191,-10
5270,12,-133,-146,262,178,-5
5275,9,-133,-146,277,153,7
5280,5,-130,-142,297,114,13
5285,6,-132,-140,317,66,26
5290,11,-131,-147,331,24,35
5295,10,-128,-157,328,-5,49
5300,12,-131,-158,303,-14,56
5305,12,-132,-161,261,-4,66
5310,14,-136,-154,210,22,71
5315,16,-141,-147,162,55,81
5320,16,-145,-145,118,93,84
5325,13,-150,-139,96,119,90
5330,16,-157,-127,84,136,89
5335,20,-168,-121,83,147,92
5340,20,-172,-119,90,148,91
5345,15,-179,-118,112,144,92
5350,19,-184,-117,149,133,90
5355,16,-195,-118,194,118,93
5360,17,-201,-122,253,101,93
5365,17,-204,-129,316,82,97
5370,17,-205,-140,377,65,100
5375,22,-212,-146,447,55,106
5380,24,-215,-149,504,51,105
5385,24,-221,-150,561,52,105
5390,25,-222,-153,619,58,100
5395,24,-219,-150,674,67,96
5400,23,-216,-145,727,78,88
5405,21,-213,-139,777,86,85
5410,17,-211,-135,827,88,78
5415,15,-206,-125,876,86,73
5420,14,-200,-118,924,74,67
5425,10,-200,-114,980,61,69
5430,8,-197,-106,1017,41,66
5435,5,-199,-104,1051,16,66
5440,2,-192,-103,1080,-12,62
5445,4,-193,-95,1105,-43,63
5450,0,-194,-103,1124,-74,59
5455,-1,-196,-99,1142,-103,60
5460,-5,-201,-96,1159,-131,60
5465,-2,-208,-92,1181,-157,64
5470,-7,-214,-87,1213,-183,71
5475,-10,-229,-80,1264,-221,83
5480,-8,-251,-72,1325,-256,98
5485,-12,-279,-51,1405,-298,121
5490,-28,-341,5,1536,-356,146
5495,-49,-449,80,1771,-460,182
5500,-26,-518,52,2132,-646,215
5505,-27,-570,32,2575,-857,234
5510,-19,-617,4,3047,-1028,270
5515,-7,-682,-47,3455,-1161,314
5520,1,-694,-97,3738,-1273,284
5525,-3,-645,-133,3824,-1361,177
5530,7,-599,-216,3673,-1388,72
5535,56,-516,-240,3401,-1378,3
5540,75,-545,-510,3010,-1315,0
5545,126,-437,-602,2433,-1052,54
5550,137,-372,-576,1675,-456,146
5555,103,-382,-346,906,332,257
5560,95,-413,-134,237,812,266
5565,96,-453,-12,-201,956,197
5570,94,-497,67,-304,885,29
5575,89,-489,96,-50,659,-159
5580,74,-455,103,393,438,-358
5585,68,-406,93,977,241,-532
5590,50,-304,55,1565,96,-661
5595,26,-184,12,1979,14,-732
5600,-1,-54,-18,2118,14,-721
5605,-22,59,-17,1980,81,-635
5610,-41,143,4,1650,170,-485
5615,-131,142,14,1229,241,-303
5620,-54,192,47,770,270,-111
5625,-49,181,52,288,234,90
5630,-21,117,22,-314,168,197
5635,0,22,-11,-812,108,222
5640,7,-78,-28,-1234,55,192
5645,32,-181,-39,-1503,-4,139
5650,4,-261,-20,-1586,-59,93
5655,10,-332,-6,-1477,-95,62
5660,5,-379,7,-1194,-102,52
5665,6,-406,19,-801,-84,49
5670,6,-423,19,-372,-58,57
5675,8,-422,26,46,-29,62
5680,17,-411,26,502,-9,58
5685,17,-389,18,837,13,41
5690,11,-354,10,1118,36,30
5695,6,-314,1,1339,48,24
5700,4,-283,-7,1479,48,27
5705,3,-257,-21,1526,34,30
5710,0,-244,-29,1487,15,39
5715,5,-248,-46,1390,-3,44
5720,15,-260,-42,1270,-14,51
5725,17,-271,-48,1156,-15,37
5730,15,-267,-41,1030,-11,13
5735,13,-263,-41,918,-12,-15
5740,13,-261,-35,816,-19,-40
5745,11,-256,-36,726,-31,-64
5750,12,-257,-34,650,-43,-82
5755,11,-258,-36,589,-55,-99
5760,9,-254,-38,555,-62,-104
5765,8,-257,-37,552,-68,-107
5770,10,-248,-37,571,-67,-96
5775,14,-243,-36,596,-57,-84
5780,14,-239,-40,615,-38,-66
5785,18,-231,-38,614,-15,-53
5790,15,-224,-38,595,11,-37
5795,21,-219,-30,558,36,-30
5800,22,-219,-28,514,56,-20
5805,25,-215,-20,466,70,-15
5810,24,-216,-16,420,80,-9
5815,30,-221,-12,373,86,-6
5820,31,-225,-7,332,87,-1
5825,30,-227,-8,296,86,0
5830,31,-232,-4,258,80,5
5835,33,-241,-4,233,75,4
5840,28,-244,-7,215,70,8
5845,28,-252,-6,204,66,5
5850,27,-255,-7,199,60,8
5855,27,-257,-5,197,57,6
5860,25,-257,-5,196,54,9
5865,26,-260,-5,196,56,7
5870,24,-260,-4,201,59,8
5875,21,-260,0,211,60,3
5880,25,-259,-5,220,61,1
5885,19,-258,-2,235,67,-5
5890,19,-255,-6,248,71,-6
5895,19,-254,-3,262,74,-10
5900,17,-254,-2,277,70,-11
5905,16,-252,0,294,63,-17
5910,15,-250,0,309,55,-19
5915,13,-249,-2,320,45,-24
5920,10,-249,-2,324,37,-21
5925,6,-247,-5,324,32,-21
5930,7,-245,-5,322,28,-16
5935,8,-246,-4,314,29,-15
5940,6,-243,-3,306,31,-7
5945,7,-245,-5,293,36,-4
5950,10,-249,-4,276,46,4
5955,11,-248,-9,257,57,9
5960,13,-251,-4,238,68,13
5965,13,-255,-6,222,84,14
5970,17,-257,-3,203,95,16
5975,19,-258,-5,188,106,13
5980,19,-259,-4,175,121,10
5985,20,-258,-1,165,133,3
5990,23,-259,5,156,145,0
5995,22,-259,5,145,155,-9
6000,22,-258,7,138,162,-12
6005,19,-259,10,129,169,-20
6010,22,-255,9,119,173,-24
6015,22,-258,9,105,173,-31
6020,18,-255,11,87,171,-33
6025,17,-252,10,67,168,-38
6030,17,-251,14,49,165,-40
6035,14,-250,11,31,161,-43
6040,17,-246,9,19,159,-41
6045,11,-246,13,10,158,-39
6050,12,-243,12,3,157,-33
6055,11,-243,7,-6,160,-29
6060,11,-240,8,-19,163,-22
6065,11,-240,6,-34,164,-15
6070,9,-240,6,-52,165,-8
6075,10,-238,2,-70,166,-2
6080,11,-243,3,-86,165,3
6085,11,-242,5,-103,166,3
6090,9,-246,-2,-112,167,4
6095,13,-245,5,-113,166,2
6100,11,-248,3,-109,164,0
6105,9,-248,0,-104,164,-1
6110,9,-247,-7,-98,161,-4
6115,9,-249,-9,-92,160,-8
6120,12,-250,-8,-86,157,-12
6125,12,-254,-13,-82,155,-14
6130,12,-254,-8,-77,155,-19
6135,15,-255,-10,-72,158,-20
6140,14,-254,-12,-75,161,-21
6145,17,-253,-10,-76,164,-25
6150,15,-257,-8,-75,167,-28
6155,14,-255,-10,-71,163,-30
6160,15,-258,-8,-65,159,-36
6165,10,-257,-4,-59,152,-39
6170,10,-257,-4,-53,145,-42
6175,13,-258,-8,-50,137,-42
6180,9,-255,-8,-53,130,-43
6185,12,-257,-7,-60,120,-42
6190,12,-254,-4,-66,114,-41
6195,13,-257,-7,-73,109,-38
6200,11,-254,-6,-82,107,-37
6205,13,-252,-6,-92,105,-31
6210,18,-255,-9,-102,103,-29
6215,16,-250,-5,-111,105,-22
6220,17,-253,-8,-117,107,-21
6225,19,-254,-11,-120,110,-17
6230,16,-253,-8,-119,112,-14
6235,18,-251,-7,-116,115,-9
6240,18,-253,-5,-109,117,-9
6245,19,-254,-3,-100,118,-5
6250,16,-251,-2,-90,122,-5
6255,16,-250,-4,-77,124,-1
6260,16,-254,-2,-64,126,-1
6265,15,-251,-2,-54,126,1
6270,15,-249,-2,-46,125,-1
6275,18,-253,-2,-38,124,0
6280,13,-251,-4,-35,122,-5
6285,15,-252,-10,-37,119,-5
6290,15,-251,-10,-44,117,-11
6295,13,-254,-7,-53,116,-12
6300,14,-252,-10,-66,118,-16
6305,12,-252,-7,-77,116,-18
6310,15,-256,-5,-88,115,-22
6315,13,-254,-10,-100,112,-24
6320,17,-255,-1,-106,110,-32
6325,13,-257,-1,-111,107,-32
6330,15,-257,-6,-112,104,-37
6335,16,-257,-4,-113,102,-37
6340,16,-259,-7,-110,100,-39
6345,14,-258,-3,-104,98,-33
6350,16,-260,-8,-96,96,-35
6355,14,-259,-10,-86,95,-30
6360,14,-260,-6,-75,91,-31
6365,13,-259,-10,-66,88,-25
6370,16,-259,-9,-58,88,-24
6375,13,-256,-12,-54,86,-18
6380,15,-255,-12,-50,87,-18
6385,15,-257,-17,-52,88,-14
6390,16,-257,-9,-54,91,-13
6395,20,-257,-7,-57,90,-9
6400,17,-256,-11,-61,91,-9
6405,14,-257,-9,-65,89,-6
6410,14,-254,-11,-70,85,-6
6415,15,-256,-9,-74,84,-2
6420,13,-251,-8,-79,81,-5
6425,14,-250,-7,-82,76,-1
6430,14,-251,-5,-85,72,-3
6435,13,-250,-6,-90,68,-3
6440,15,-253,-10,-96,63,-6
6445,14,-250,-7,-103,58,-3
6450,12,-249,-11,-107,54,-6
6455,13,-251,-13,-114,51,-5
6460,16,-252,-12,-122,51,-7
6465,14,-251,-8,-129,51,-4
6470,14,-249,-13,-135,53,-7
6475,17,-252,-11,-141,55,-4
6480,17,-251,-11,-144,57,-6
6485,16,-256,-15,-145,57,-4
6490,13,-252,-13,-144,59,-6
6495,17,-255,-11,-141,59,-5
6500,15,-254,-15,-136,59,-7
6505,17,-256,-13,-133,59,-4
6510,15,-255,-14,-128,60,-7
6515,14,-255,-20,-121,60,-6
6520,14,-257,-16,-114,61,-10
6525,14,-254,-13,-110,60,-9
6530,14,-256,-14,-110,58,-13
6535,14,-257,-15,-110,57,-12
6540,13,-258,-14,-113,57,-15
6545,13,-257,-16,-113,57,-13
6550,16,-259,-12,-113,59,-15
6555,14,-258,-15,-109,59,-14
6560,16,-260,-15,-104,61,-15
6565,14,-260,-16,-98,62,-14
6570,14,-259,-14,-92,63,-14
6575,15,-260,-16,-82,64,-11
6580,16,-261,-14,-74,64,-14
6585,15,-258,-15,-67,65,-12
6590,14,-260,-13,-60,66,-13
6595,13,-259,-14,-54,67,-12
6600,16,-257,-11,-50,67,-13
6605,16,-258,-14,-46,67,-11
6610,15,-259,-14,-43,66,-12
6615,15,-259,-14,-40,65,-10
6620,16,-256,-17,-39,62,-11
6625,15,-258,-16,-39,60,-11
6630,19,-257,-17,-36,57,-10
6635,18,-254,-20,-35,54,-10
6640,18,-255,-19,-35,48,-10
6645,16,-256,-20,-35,44,-8
6650,19,-253,-23,-37,38,-8
6655,22,-256,-22,-39,34,-7
6660,20,-256,-22,-41,29,-8
6665,22,-258,-29,-42,26,-8
6670,22,-258,-23,-42,26,-8
6675,20,-258,-27,-39,26,-7
6680,21,-258,-22,-38,30,-8
6685,19,-258,-21,-33,34,-8
6690,19,-256,-17,-24,40,-10
6695,17,-256,-17,-15,49,-9
6700,18,-252,-14,-4,54,-11
6705,18,-256,-15,8,61,-11
6710,19,-254,-11,15,69,-13
6715,17,-252,-9,21,77,-12
6720,17,-249,-6,25,84,-14
6725,19,-250,-6,23,88,-16
6730,18,-249,-6,17,90,-16
6735,17,-249,-2,8,89,-17
6740,20,-252,-6,-2,86,-15
6745,18,-249,-7,-13,84,-16
6750,18,-249,-6,-24,82,-17
6755,20,-251,-8,-34,77,-17
6760,21,-249,-7,-43,72,-15
6765,19,-252,-6,-51,69,-17
6770,21,-252,-6,-59,67,-15
6775,19,-251,-8,-65,65,-14
6780,25,-252,-10,-72,64,-10
6785,24,-256,-12,-76,65,-10
6790,21,-256,-14,-79,68,-7
6795,23,-257,-12,-84,70,-5
6800,22,-255,-15,-86,74,-3
6805,17,-257,-20,-87,77,-3
6810,19,-257,-17,-89,79,0
6815,16,-256,-13,-89,84,0
6820,17,-256,-15,-88,88,3
6825,15,-255,-18,-87,91,1
6830,14,-256,-17,-85,97,4
6835,14,-253,-17,-82,98,2
6840,14,-253,-14,-82,100,2
6845,14,-256,-13,-80,102,1
6850,13,-254,-20,-80,103,1
6855,15,-253,-12,-82,103,0
6860,13,-253,-17,-87,104,1
6865,13,-249,-16,-92,104,-2
6870,10,-251,-18,-98,105,0
6875,13,-254,-15,-107,104,-5
6880,12,-253,-14,-113,104,-5
6885,12,-253,-19,-120,101,-8
6890,12,-252,-15,-126,104,-10
6895,13,-255,-15,-131,101,-13
6900,12,-253,-16,-134,102,-13
6905,14,-254,-20,-137,102,-18
6910,12,-252,-18,-137,101,-17
6915,13,-253,-22,-135,101,-21
6920,16,-254,-21,-135,103,-20
6925,16,-258,-19,-129,101,-24
6930,16,-257,-24,-124,100,-22
6935,14,-257,-20,-117,96,-26
6940,16,-258,-19,-111,95,-24
6945,16,-261,-25,-102,93,-27
6950,16,-259,-23,-98,91,-24
6955,18,-259,-22,-91,88,-27
6960,19,-259,-24,-86,83,-24
6965,21,-259,-20,-81,79,-26
6970,17,-256,-24,-78,77,-25
6975,19,-256,-26,-76,73,-26
6980,22,-257,-26,-75,70,-23
6985,21,-258,-25,-72,66,-23
6990,21,-256,-23,-71,62,-20
6995,18,-253,-20,-70,57,-20
7000,20,-256,-22,-71,52,-16
7005,20,-254,-19,-68,49,-18
7010,18,-255,-24,-67,42,-14
7015,18,-254,-22,-66,39,-15
7020,20,-254,-22,-64,34,-10
7025,17,-255,-20,-63,31,-11
7030,18,-254,-22,-63,28,-6
7035,19,-256,-20,-63,27,-5
7040,15,-254,-23,-63,25,-1
7045,14,-258,-21,-62,23,-2
7050,16,-257,-22,-61,22,3
7055,15,-256,-22,-58,23,1
7060,16,-258,-19,-55,25,4
7065,16,-257,-23,-51,26,1
7070,14,-257,-25,-51,29,3
7075,15,-256,-22,-49,30,-1
7080,17,-258,-23,-49,32,1
7085,14,-256,-24,-47,33,-2
7090,15,-256,-24,-47,35,-2
7095,17,-254,-27,-45,38,-6
7100,15,-255,-26,-43,44,-6
7105,18,-256,-26,-43,47,-9
7110,16,-253,-25,-41,52,-8
7115,18,-256,-21,-41,54,-12
7120,15,-251,-25,-41,56,-11
7125,18,-254,-23,-40,61,-14
7130,20,-253,-29,-40,62,-13
7135,20,-255,-22,-39,64,-14
7140,17,-253,-23,-37,67,-13
7145,21,-255,-25,-33,68,-16
7150,17,-255,-24,-30,71,-12
7155,18,-255,-24,-29,73,-16
7160,17,-255,-26,-26,75,-13
7165,16,-253,-24,-22,76,-15
7170,15,-255,-25,-22,78,-14
7175,18,-257,-22,-22,76,-17
7180,18,-258,-19,-20,77,-15
7185,15,-253,-20,-20,76,-16
7190,14,-254,-21,-21,75,-16
7195,15,-256,-24,-22,73,-15
7200,20,-259,-22,-23,74,-14
7205,18,-256,-25,-23,73,-15
7210,17,-255,-25,-24,73,-15
7215,19,-256,-22,-24,72,-15
7220,22,-255,-26,-21,73,-14
7225,19,-258,-21,-19,73,-15
7230,18,-254,-25,-20,77,-13
7235,20,-254,-23,-20,77,-13
7240,20,-253,-23,-19,78,-12
7245,20,-255,-24,-21,76,-12
7250,21,-255,-25,-24,76,-11
7255,18,-255,-27,-25,75,-12
7260,18,-251,-19,-24,75,-9
7265,19,-255,-22,-24,71,-9
7270,20,-255,-22,-24,71,-9
7275,20,-256,-23,-24,70,-8
7280,21,-257,-23,-23,68,-9
7285,22,-254,-22,-21,65,-8
7290,22,-254,-21,-21,64,-7
7295,21,-257,-27,-18,63,-6
7300,18,-253,-23,-16,62,-5
7305,21,-257,-18,-16,63,-5
7310,19,-253,-24,-15,61,-5
7315,20,-255,-22,-14,60,-3
7320,18,-256,-21,-14,58,-1
7325,19,-257,-20,-14,58,-1
7330,14,-253,-21,-17,58,0
7335,18,-254,-23,-17,58,1
7340,15,-253,-24,-18,59,1
7345,17,-256,-18,-17,60,1
7350,17,-256,-21,-18,59,2
7355,17,-255,-19,-17,58,3
7360,19,-256,-24,-16,56,4
7365,17,-253,-24,-16,55,5
7370,15,-252,-22,-16,55,4
7375,18,-254,-23,-17,53,5
7380,21,-255,-25,-17,54,5
7385,19,-252,-24,-16,53,7
7390,21,-254,-23,-18,51,5
7395,17,-254,-26,-18,49,5
7400,19,-256,-23,-22,49,4
7405,16,-253,-23,-23,48,7
7410,18,-253,-20,-26,48,5
7415,18,-257,-22,-26,47,6
7420,16,-255,-20,-27,48,3
7425,18,-256,-23,-26,49,4
7430,16,-255,-24,-26,47,2
7435,16,-253,-21,-27,49,4
7440,15,-255,-23,-28,50,2
7445,17,-254,-18,-27,50,5
7450,17,-256,-20,-27,52,1
7455,14,-256,-23,-26,54,2
7460,16,-253,-25,-27,56,1
7465,17,-254,-21,-27,56,0
7470,19,-256,-24,-28,58,-1
7475,16,-255,-19,-28,59,-1
7480,16,-254,-21,-30,60,-4
7485,15,-256,-24,-29,63,-1
7490,16,-257,-25,-29,63,-4
7495,17,-256,-26,-30,62,-2
7500,16,-254,-24,-27,63,-5
7505,17,-257,-25,-26,63,-4
7510,16,-253,-22,-24,62,-6
7515,20,-258,-23,-24,59,-4
7520,17,-255,-22,-21,60,-6
7525,18,-255,-27,-19,60,-4
7530,18,-257,-25,-17,57,-7
7535,15,-255,-20,-16,57,-4
7540,16,-257,-18,-14,55,-7
7545,17,-256,-23,-15,56,-3
7550,17,-254,-22,-14,56,-7
7555,18,-258,-22,-14,56,-2
7560,18,-257,-24,-15,56,-4
7565,19,-254,-24,-15,56,-3
7570,19,-254,-24,-16,58,-6
7575,21,-256,-24,-16,57,-5
7580,22,-256,-24,-17,57,-8
7585,17,-254,-23,-16,59,-6
7590,20,-255,-25,-18,59,-8
7595,16,-254,-26,-18,60,-6
7600,18,-256,-22,-19,62,-9
7605,19,-257,-22,-20,62,-7
7610,17,-253,-23,-21,61,-9
7615,19,-256,-24,-21,64,-6
7620,17,-255,-25,-24,66,-9
7625,17,-254,-25,-24,67,-5
7630,20,-258,-18,-23,66,-7
7635,19,-259,-21,-24,67,-5
7640,20,-256,-22,-26,69,-8
7645,19,-256,-23,-25,69,-5
7650,19,-251,-19,-25,69,-7
7655,16,-253,-21,-24,69,-5
7660,17,-253,-23,-24,68,-9
7665,20,-256,-21,-23,68,-5
7670,17,-255,-24,-24,65,-10
7675,20,-255,-22,-22,64,-8
7680,21,-252,-23,-24,62,-9
7685,19,-253,-26,-24,60,-8
7690,20,-258,-24,-25,58,-8
7695,19,-251,-24,-24,59,-8
7700,20,-253,-25,-23,58,-8
7705,17,-255,-25,-23,58,-5
7710,19,-254,-27,-25,58,-7
7715,21,-253,-25,-26,58,-4
7720,18,-254,-28,-28,56,-6
7725,19,-252,-23,-30,54,-3
7730,18,-254,-24,-30,54,-5
7735,20,-253,-21,-31,53,-4
7740,20,-254,-23,-31,53,-5
7745,18,-255,-24,-30,54,-3
7750,20,-256,-22,-29,55,-5
7755,17,-255,-19,-29,56,-1
7760,16,-257,-22,-29,56,-2
7765,18,-253,-21,-29,57,0
7770,19,-256,-23,-29,57,-2
7775,19,-255,-25,-32,56,-2
7780,19,-254,-27,-32,54,-4
7785,17,-255,-25,-32,53,-4
7790,20,-255,-23,-34,53,-6
7795,22,-251,-37,-36,53,-5
7800,15,-263,-25,-35,52,-6
7805,9,-259,-20,-34,54,-5
7810,21,-257,-24,-32,56,-5
7815,18,-256,-29,-31,57,-3
7820,20,-256,-31,-28,58,-5
7825,16,-256,-26,-25,61,-4
7830,19,-253,-26,-24,63,-4
7835,16,-254,-26,-22,64,-3
7840,19,-257,-23,-20,65,-3
7845,18,-256,-26,-21,67,-4
7850,17,-254,-27,-22,67,-4
7855,18,-255,-25,-21,67,-2
7860,19,-257,-27,-21,69,-3
7865,18,-255,-26,-22,70,-3
7870,19,-255,-21,-22,69,-5
7875,18,-256,-27,-21,68,-5
7880,18,-251,-25,-18,66,-3
7885,18,-253,-26,-19,67,-3
7890,19,-254,-25,-21,66,-3
7895,15,-253,-27,-21,64,-4
7900,16,-254,-28,-22,64,-5
7905,17,-254,-24,-21,63,-4
7910,18,-253,-23,-23,62,-4
7915,18,-251,-24,-24,62,-3
7920,18,-251,-25,-25,62,-4
7925,20,-254,-30,-24,63,-2
7930,16,-253,-24,-24,63,-2
7935,16,-254,-23,-22,63,-2
7940,19,-256,-23,-21,64,-2
7945,18,-255,-27,-21,62,-2
7950,17,-255,-24,-21,62,-3
7955,21,-256,-23,-18,63,-2
7960,16,-254,-26,-17,62,-3
7965,18,-255,-22,-17,63,-2
7970,19,-256,-26,-17,63,0
7975,16,-253,-24,-16,64,-1
7980,17,-255,-26,-17,64,-1
7985,19,-254,-23,-17,63,-2
7990,19,-256,-26,-17,64,-1
7995,18,-254,-28,-18,64,-2
8000,17,-255,-27,-18,63,-2
8005,19,-255,-30,-19,62,-3
8010,17,-254,-26,-19,61,-2
8015,19,-255,-25,-20,62,-4
8020,17,-254,-26,-20,62,-3
8025,20,-257,-27,-22,63,-4
8030,19,-257,-27,-22,61,-4
8035,20,-255,-25,-22,61,-6
8040,20,-257,-24,-21,61,-5
8045,17,-255,-24,-18,62,-5
8050,15,-256,-24,-17,63,-3
8055,17,-257,-25,-14,64,-4
8060,17,-256,-24,-11,64,-2
8065,19,-255,-23,-10,63,-4
8070,20,-255,-25,-10,63,-3
8075,18,-255,-27,-10,63,-4
8080,19,-252,-23,-8,63,-2
8085,20,-254,-22,-8,64,-5
8090,19,-253,-26,-9,65,-3
8095,18,-253,-26,-10,65,-5
8100,20,-256,-25,-10,66,-4
8105,15,-253,-24,-12,65,-6
8110,17,-254,-26,-13,64,-6
8115,18,-254,-20,-14,64,-8
8120,20,-254,-23,-13,64,-7
8125,17,-256,-23,-13,63,-7
8130,17,-255,-25,-14,63,-5
8135,21,-256,-24,-14,64,-7
8140,19,-255,-24,-14,64,-4
8145,20,-254,-28,-13,64,-6
8150,18,-253,-23,-13,64,-3
8155,19,-255,-26,-12,64,-5
8160,17,-258,-25,-11,62,-2
8165,21,-257,-25,-12,63,-3
8170,17,-255,-25,-12,62,0
8175,19,-256,-30,-13,59,-1
8180,20,-253,-25,-11,61,2
8185,17,-257,-25,-10,62,0
8190,17,-254,-26,-10,63,2
8195,18,-257,-24,-9,62,0
8200,20,-256,-28,-9,62,2
8205,18,-255,-25,-9,64,0
8210,17,-256,-22,-9,62,1
8215,19,-254,-25,-7,64,-2
8220,19,-252,-25,-6,63,-1
8225,18,-256,-24,-5,62,-3
8230,19,-256,-25,-3,63,-1
8235,19,-254,-25,-4,63,-3
8240,19,-255,-21,-4,62,-1
8245,17,-255,-23,-5,62,-4
8250,16,-253,-21,-5,61,0
8255,18,-255,-24,-6,61,-3
8260,15,-252,-29,-6,62,-1
8265,16,-254,-24,-7,61,-5
8270,18,-255,-24,-11,60,-1
8275,16,-254,-25,-12,61,-3
8280,18,-256,-25,-13,60,0
8285,17,-255,-25,-13,61,-2
8290,19,-256,-26,-14,60,2
8295,17,-257,-24,-13,61,-1
8300,18,-257,-28,-13,60,0
8305,17,-254,-27,-12,60,-2
8310,17,-253,-31,-12,59,0
8315,20,-258,-26,-12,59,-2
8320,18,-255,-28,-12,60,0
8325,16,-254,-25,-13,59,-1
8330,19,-255,-25,-12,60,1
8335,16,-253,-20,-9,60,0
8340,19,-256,-21,-7,59,3
8345,19,-256,-24,-5,61,2
8350,18,-256,-23,-2,62,3
8355,18,-256,-22,1,62,3
8360,20,-256,-27,4,62,4
8365,19,-256,-24,6,61,1
8370,21,-255,-25,7,60,3
8375,18,-258,-24,7,59,0
8380,17,-253,-25,6,58,2
8385,15,-252,-24,3,58,0
8390,19,-253,-25,1,60,0
8395,20,-255,-23,-2,58,-2
8400,19,-243,-29,-4,57,-1
8405,18,-253,-24,-9,57,-3
8410,18,-252,-21,-10,57,-2
8415,19,-252,-20,-11,58,-2
8420,16,-251,-25,-12,58,-2
8425,19,-255,-25,-13,59,-3
8430,18,-254,-21,-14,59,-3
8435,18,-254,-27,-15,60,-3
8440,18,-256,-23,-15,61,-2
8445,20,-253,-25,-17,62,-2
8450,19,-257,-23,-17,64,-2
8455,19,-256,-24,-18,63,-1
8460,18,-254,-26,-17,63,0
8465,18,-254,-26,-15,63,-2
8470,19,-257,-25,-14,64,-1
8475,19,-255,-27,-13,62,0
8480,18,-254,-21,-11,62,0
8485,16,-256,-26,-11,62,1
8490,19,-257,-27,-10,62,3
8495,21,-253,-23,-10,60,4
8500,19,-253,-24,-10,59,5
8505,18,-254,-22,-12,59,4
8510,19,-255,-23,-13,58,4
8515,17,-253,-25,-13,59,3
8520,22,-255,-23,-13,60,3
8525,17,-254,-26,-13,58,2
8530,21,-257,-23,-11,58,0
8535,16,-254,-22,-11,59,0
8540,17,-256,-24,-7,61,0
8545,17,-258,-21,-4,61,2
8550,19,-257,-21,-2,62,1
8555,17,-254,-25,1,63,4
8560,17,-254,-25,2,63,4
8565,14,-256,-20,1,64,5
8570,18,-253,-23,1,65,4
8575,18,-255,-24,-2,64,5
8580,19,-254,-26,-5,63,6
8585,19,-255,-24,-10,61,7
8590,17,-254,-26,-14,59,6
8595,17,-252,-25,-16,57,8
8600,17,-254,-25,-18,58,7
8605,21,-256,-23,-21,57,8
8610,19,-254,-24,-22,57,6
8615,19,-255,-27,-23,57,6
8620,20,-258,-24,-21,57,4
8625,18,-253,-25,-22,57,4
8630,18,-256,-28,-21,57,4
8635,16,-256,-25,-20,60,3
8640,17,-255,-22,-19,62,2
8645,16,-258,-19,-16,62,4
8650,16,-257,-19,-13,62,1
8655,15,-253,-23,-13,66,4
8660,19,-255,-26,-11,65,1
8665,17,-257,-23,-9,65,3
8670,17,-254,-26,-9,64,2
8675,18,-254,-24,-10,63,2
8680,18,-254,-22,-9,65,0
8685,16,-255,-29,-9,63,1
8690,18,-254,-27,-10,63,0
8695,17,-256,-24,-12,63,2
8700,16,-254,-24,-13,62,-1
8705,16,-254,-24,-14,62,1
8710,16,-254,-22,-17,61,-1
8715,17,-252,-25,-18,60,0
8720,18,-256,-25,-19,58,-2
8725,16,-253,-23,-20,58,-1
8730,15,-252,-24,-23,56,-2
8735,13,-253,-23,-24,55,0
8740,18,-252,-22,-26,56,-1
8745,20,-257,-22,-26,56,2
8750,19,-257,-23,-26,56,0
8755,16,-256,-23,-29,57,2
8760,17,-256,-24,-27,58,0
8765,18,-257,-26,-26,59,1
8770,17,-256,-25,-26,59,-1
8775,17,-253,-25,-25,60,2
8780,18,-256,-25,-22,59,0
8785,14,-255,-27,-20,61,1
8790,17,-254,-24,-21,61,0
8795,19,-256,-25,-19,62,3
8800,17,-255,-28,-17,63,0
8805,17,-256,-23,-16,62,4
8810,16,-254,-24,-16,62,0
8815,19,-257,-24,-17,63,3
8820,17,-253,-27,-16,64,0
8825,18,-253,-25,-17,63,3
8830,20,-254,-23,-18,63,0
8835,17,-255,-28,-21,63,2
8840,17,-257,-24,-22,63,-1
8845,17,-255,-22,-23,63,1
8850,15,-251,-27,-25,63,-2
8855,18,-254,-26,-25,64,0
8860,18,-254,-24,-25,63,-2
8865,18,-257,-24,-27,64,0
8870,18,-257,-29,-26,62,-3
8875,19,-256,-23,-27,63,-1
8880,18,-257,-24,-27,63,-4
8885,17,-253,-22,-25,64,1
8890,16,-256,-23,-24,64,-3
8895,17,-256,-25,-21,64,0
8900,20,-257,-27,-18,64,-2
8905,19,-256,-28,-15,64,-1
8910,17,-255,-28,-15,64,-2
8915,16,-257,-29,-14,63,-1
8920,18,-255,-28,-15,62,-3
8925,19,-254,-31,-16,63,0
8930,19,-252,-26,-17,63,-1
8935,18,-255,-24,-17,63,2
8940,18,-253,-26,-19,61,1
8945,17,-253,-26,-17,62,3
8950,17,-257,-26,-16,63,3
8955,17,-254,-23,-13,65,4
8960,17,-253,-25,-10,64,3
8965,16,-257,-23,-9,63,4
8970,17,-256,-19,-6,63,1
8975,18,-257,-24,-4,62,3
8980,17,-257,-24,-5,60,0
8985,17,-255,-26,-4,59,2
8990,10,-252,-24,-6,59,-1
8995,19,-254,-23,-7,58,0
9000,17,-255,-22,-8,58,-1
9005,18,-252,-25,-10,57,1
9010,19,-255,-22,-11,57,-2
9015,18,-254,-25,-13,56,-1
9020,18,-254,-28,-16,56,-1
9025,18,-255,-23,-18,58,0
9030,16,-253,-26,-21,58,-3
9035,16,-254,-26,-21,58,0
9040,17,-254,-25,-21,58,-2
9045,17,-255,-26,-22,59,-1
9050,18,-255,-25,-21,59,-2
9055,16,-253,-28,-20,60,-1
9060,19,-257,-28,-19,61,-1
9065,18,-256,-23,-19,63,-1
9070,18,-257,-25,-19,63,-1
9075,17,-256,-25,-18,64,1
9080,15,-253,-24,-16,66,1
9085,18,-255,-27,-14,66,2
9090,17,-253,-28,-11,66,1
9095,18,-255,-23,-10,66,2
9100,19,-258,-27,-10,65,2
9105,13,-255,-27,-9,64,2
9110,17,-256,-26,-10,64,2
9115,21,-254,-23,-10,64,2
9120,17,-254,-24,-8,63,4
9125,19,-253,-24,-8,63,4
9130,16,-254,-25,-7,60,4
9135,17,-255,-24,-8,60,4
9140,18,-256,-28,-7,60,2
9145,17,-254,-21,-8,59,1
9150,17,-254,-23,-8,58,-1
9155,15,-252,-28,-9,57,-1
9160,16,-253,-26,-9,58,0
9165,16,-255,-26,-11,57,-1
9170,18,-252,-22,-14,59,0
9175,17,-253,-25,-16,56,-2
9180,13,-254,-24,-20,58,-3
9185,17,-251,-27,-21,57,-3
9190,17,-255,-25,-22,57,-4
9195,18,-255,-29,-22,57,-3
9200,16,-255,-25,-23,59,-4
9205,17,-253,-26,-23,57,-6
9210,16,-254,-24,-24,57,-3
9215,16,-255,-25,-23,59,-5
9220,16,-254,-24,-24,58,-4
9225,14,-255,-26,-24,58,-5
9230,18,-258,-26,-23,60,-3
9235,14,-256,-28,-20,60,-2
9240,15,-254,-28,-16,62,-1
9245,14,-256,-23,-15,63,-3
9250,15,-256,-26,-12,65,-3
9255,17,-255,-25,-9,65,-4
9260,15,-258,-24,-6,65,-3
9265,17,-257,-24,-5,65,-4
9270,16,-256,-25,-3,65,-2
9275,18,-256,-27,-1,65,-3
9280,19,-256,-23,-2,64,-3
9285,19,-255,-24,-2,64,-4
9290,16,-252,-24,-1,64,-5
9295,18,-255,-23,-1,63,-6
9300,20,-254,-25,-3,63,-4
9305,18,-251,-24,-4,62,-7
9310,17,-251,-26,-6,61,-5
9315,19,-252,-25,-7,62,-7
9320,19,-254,-27,-9,62,-3
9325,18,-254,-24,-11,61,-5
9330,16,-256,-29,-13,60,-3
9335,17,-257,-24,-16,58,-2
9340,18,-255,-30,-19,57,-2
9345,17,-253,-25,-21,58,-3
9350,17,-252,-25,-21,57,0
9355,18,-255,-24,-20,56,-3
9360,17,-254,-25,-21,57,1
9365,17,-253,-23,-20,57,-4
9370,16,-253,-21,-18,56,0
9375,16,-258,-25,-15,58,-2
9380,15,-256,-27,-13,57,1
9385,18,-256,-23,-11,61,-1
9390,14,-254,-28,-12,61,1
9395,16,-257,-27,-10,61,-2
9400,18,-256,-27,-7,61,0
9405,17,-252,-25,-6,61,-4
9410,16,-256,-25,-4,62,0
9415,16,-257,-24,-4,62,-3
9420,18,-257,-28,-4,64,0
9425,15,-252,-30,-4,63,-4
9430,17,-255,-22,-5,62,-2
9435,17,-253,-23,-6,63,-3
9440,20,-253,-23,-8,61,-2
9445,18,-254,-24,-11,61,-5
9450,19,-254,-26,-12,59,-3
9455,19,-257,-22,-14,60,-6
9460,17,-255,-26,-14,60,-5
9465,17,-254,-25,-17,58,-8
9470,20,-255,-26,-18,62,-5
9475,17,-253,-29,-18,62,-6
9480,16,-257,-25,-16,63,-4
9485,16,-254,-27,-15,63,-6
9490,17,-257,-27,-13,64,-4
9495,16,-255,-22,-12,64,-6
9500,16,-256,-26,-11,63,-3
9505,17,-255,-24,-8,65,-5
9510,17,-254,-28,-8,64,-3
9515,15,-259,-25,-6,64,-5
9520,18,-254,-25,-5,63,-2
9525,17,-256,-30,-6,63,-4
9530,15,-253,-29,-9,63,-2
9535,16,-253,-26,-9,62,-4
9540,17,-255,-26,-13,60,-1
9545,14,-255,-26,-15,60,-3
9550,17,-256,-25,-15,59,-1
9555,17,-254,-26,-14,59,-2
9560,17,-255,-22,-13,58,-2
9565,14,-254,-25,-12,58,-3
9570,15,-254,-23,-10,59,-1
9575,18,-252,-25,-8,59,-3
9580,19,-257,-24,-6,60,-1
9585,16,-255,-22,-4,61,-4
9590,17,-255,-22,-4,61,-2
9595,18,-254,-22,-4,61,-4
9600,15,-254,-26,-4,61,0
9605,17,-257,-25,-6,61,-3
9610,15,-255,-25,-5,62,-2
9615,17,-255,-26,-6,59,-4
9620,15,-253,-24,-7,59,-3
9625,17,-256,-26,-7,60,-6
9630,17,-257,-23,-6,60,-4
9635,17,-253,-26,-5,61,-6
9640,17,-255,-28,-4,61,-3
9645,18,-254,-25,-3,63,-6
9650,17,-257,-25,-4,62,-6
9655,17,-253,-27,-3,63,-4
9660,17,-255,-25,-4,64,-2
9665,15,-253,-28,-6,63,-5
9670,16,-255,-25,-5,65,-3
9675,17,-256,-27,-7,65,-4
9680,17,-255,-24,-6,65,-2
9685,15,-255,-24,-7,64,-2
9690,19,-257,-25,-8,64,0
9695,19,-256,-27,-7,64,-1
9700,16,-253,-24,-7,63,-1
9705,16,-254,-26,-7,59,-1
9710,18,-254,-27,-7,60,-1
9715,18,-257,-21,-7,60,-1
9720,16,-255,-22,-6,59,-2
9725,16,-255,-24,-7,58,-1
9730,17,-254,-22,-8,58,-1
9735,17,-253,-23,-6,57,-1
9740,18,-256,-26,-7,56,0
9745,18,-255,-22,-5,56,-2
9750,16,-255,-28,-4,56,-1
9755,14,-253,-23,-5,56,-2
9760,18,-251,-22,-5,55,-2
9765,16,-253,-22,-7,55,-2
9770,16,-255,-24,-10,57,-1
9775,17,-253,-23,-11,56,-1
9780,19,-253,-25,-12,56,-2
9785,18,-255,-27,-13,57,-2
9790,17,-255,-22,-13,59,0
9795,15,-252,-24,-14,60,-2
9800,17,-254,-23,-16,60,1
9805,20,-253,-26,-15,60,-2
9810,15,-256,-24,-14,60,-3
9815,17,-258,-19,-14,60,-2
9820,18,-257,-22,-14,61,-2
9825,18,-257,-23,-14,61,-1
9830,16,-255,-24,-15,63,-2
9835,17,-255,-23,-14,63,0
9840,17,-255,-23,-12,62,-1
9845,18,-256,-25,-12,62,0
9850,15,-256,-20,-12,61,0
9855,17,-255,-26,-10,62,0
9860,17,-257,-21,-8,61,-1
9865,18,-256,-23,-6,62,-1
9870,21,-259,-26,-5,61,0
9875,15,-255,-25,-3,59,1
9880,18,-254,-22,-1,60,-1
9885,20,-252,-27,-2,60,0
9890,14,-252,-25,-2,59,0
9895,18,-256,-26,-3,59,0
9900,19,-256,-27,-2,57,-1
9905,18,-253,-20,-2,55,-2
9910,16,-253,-27,-4,54,-3
9915,15,-254,-23,-6,56,-2
9920,16,-254,-26,-8,56,-4
9925,16,-254,-22,-11,56,-1
9930,16,-255,-25,-12,59,-3
9935,14,-255,-25,-15,59,-1
9940,18,-255,-26,-16,58,-3
9945,17,-252,-23,-17,58,-1
9950,17,-256,-22,-18,58,-2
9955,17,-255,-22,-19,57,1
9960,17,-253,-25,-20,56,-1
9965,15,-255,-23,-19,56,2
9970,15,-254,-22,-19,57,0
9975,15,-255,-26,-18,58,2
9980,17,-256,-24,-17,60,-2
9985,15,-255,-20,-16,61,1
9990,15,-256,-22,-14,60,-1
9995,17,-254,-21,-14,61,2
10000,18,-254,-24,-11,62,0
10005,17,-257,-27,-9,64,0
10010,15,-254,-22,-8,63,-2
10015,18,-254,-22,-8,63,0
10020,17,-254,-23,-7,63,-3
10025,16,-257,-22,-7,62,-2
10030,17,-251,-23,-9,63,-5
10035,19,-257,-23,-9,62,-1
10040,19,-254,-25,-10,62,-3
10045,17,-253,-23,-12,62,-1
10050,16,-254,-28,-14,61,-2
10055,18,-253,-25,-16,61,-1
10060,16,-254,-26,-20,62,-2
10065,17,-253,-25,-21,62,-1
10070,16,-255,-25,-20,62,-3
10075,16,-258,-20,-21,61,0
10080,17,-253,-27,-19,62,-3
10085,18,-257,-21,-18,62,0
10090,15,-256,-24,-17,62,-3
10095,18,-254,-26,-16,63,-1
10100,17,-255,-25,-14,62,-3
10105,17,-255,-24,-12,63,-2
10110,17,-257,-24,-12,64,-6
10115,15,-252,-23,-10,64,-3
10120,16,-255,-26,-9,63,-6
10125,16,-254,-27,-7,65,-4
10130,17,-256,-24,-4,64,-6
10135,16,-252,-23,-2,64,-3
10140,16,-254,-24,1,65,-6
10145,19,-254,-25,0,65,-3
10150,18,-252,-26,0,63,-5
10155,18,-255,-27,-3,63,-2
10160,19,-258,-24,-5,62,-3
10165,15,-254,-25,-5,61,1
10170,18,-256,-24,-4,59,-4
10175,19,-254,-23,-6,58,-1
10180,15,-252,-24,-6,59,-3
10185,16,-255,-20,-7,56,0
10190,17,-254,-24,-6,56,-3
10195,15,-256,-23,-4,56,1
10200,14,-254,-23,-3,55,-3
10205,17,-256,-21,-2,53,-1
10210,16,-253,-21,-1,55,-2
10215,14,-254,-23,-1,56,0
10220,17,-256,-22,-2,54,-4
10225,19,-255,-24,-3,55,-1
10230,16,-254,-22,-5,57,-3
10235,16,-254,-20,-6,57,-2
10240,13,-252,-23,-7,57,-5
10245,19,-254,-21,-9,58,-5
10250,19,-257,-23,-10,59,-6
10255,18,-256,-23,-11,57,-6
10260,17,-255,-24,-11,58,-8
10265,16,-255,-23,-13,58,-6
10270,17,-253,-24,-13,59,-9
10275,18,-255,-25,-11,59,-7
10280,17,-253,-27,-12,59,-9
10285,18,-255,-28,-10,60,-6
10290,15,-252,-24,-9,60,-8
10295,17,-255,-25,-5,62,-8
10300,18,-255,-24,-4,63,-8
10305,16,-254,-24,-3,62,-5
10310,20,-254,-25,-4,63,-6
10315,19,-257,-23,-4,60,-3
10320,18,-256,-26,-3,60,-4
10325,17,-251,-24,-5,59,-2
10330,20,-254,-26,-6,57,-3
10335,14,-256,-24,-4,57,-1
10340,17,-255,-24,-3,56,-2
10345,14,-255,-25,-2,54,-2
10350,18,-257,-22,-1,53,-1
10355,17,-255,-22,1,53,-1
10360,18,-256,-25,1,53,-1
10365,14,-254,-21,0,52,-1
10370,17,-253,-24,-1,52,0
10375,18,-254,-24,-2,53,-2
10380,18,-257,-24,-2,53,-2
10385,16,-256,-22,-5,53,-2
10390,17,-255,-23,-6,53,-3
10395,17,-259,-23,-7,56,-2
10400,19,-256,-25,-8,58,-3
10405,13,-254,-26,-9,59,-3
10410,18,-256,-24,-8,63,-2
10415,18,-256,-25,-7,65,-2
10420,18,-254,-23,-5,65,-2
10425,15,-254,-22,-4,66,-3
10430,17,-254,-25,-2,64,-2
10435,17,-255,-24,-1,63,-2
10440,16,-256,-21,-1,63,-1
10445,18,-252,-21,0,63,-2
10450,16,-255,-20,0,62,-1
10455,18,-257,-19,2,60,-2
10460,17,-255,-23,2,60,-2
10465,18,-255,-18,6,60,-2
10470,14,-254,-23,7,59,0
10475,20,-256,-25,8,59,-1
10480,18,-255,-23,9,59,-1
10485,17,-255,-23,10,59,-3
10490,18,-255,-20,8,58,-1
10495,17,-253,-22,8,59,-4
10500,16,-257,-23,8,58,-1
10505,17,-258,-21,6,58,-2
10510,17,-255,-26,7,59,-2
10515,20,-256,-24,6,61,-3
10520,17,-254,-23,4,63,-2
10525,18,-254,-23,3,61,-3
10530,16,-253,-22,1,61,0
10535,18,-251,-23,-2,62,-2
10540,16,-254,-22,-3,61,1
10545,19,-256,-23,-4,62,-1
10550,18,-253,-22,-4,61,1
10555,18,-254,-19,-5,61,-3
10560,17,-255,-24,-5,61,-1
10565,17,-254,-21,-4,60,-2
10570,16,-257,-24,-3,61,2
10575,14,-256,-21,0,59,0
10580,15,-256,-21,3,58,2
10585,15,-255,-19,6,58,1
10590,17,-256,-19,10,57,5
10595,15,-256,-20,12,56,3
10600,15,-254,-17,12,58,6
10605,17,-255,-21,14,56,4
10610,16,-256,-24,16,58,6
10615,18,-255,-19,16,56,5
10620,18,-254,-21,20,56,8
10625,17,-251,-21,18,56,7
10630,17,-255,-23,17,56,8
10635,17,-253,-23,14,57,6
10640,17,-254,-21,11,58,8
10645,16,-254,-24,8,58,6
10650,19,-250,-23,5,59,6
10655,14,-250,-19,2,60,4
10660,14,-256,-21,-1,61,4
10665,19,-252,-24,-3,60,2
10670,18,-255,-20,-6,61,5
10675,15,-255,-20,-9,62,0
10680,17,-254,-23,-11,61,3
10685,14,-253,-22,-14,61,0
10690,16,-257,-17,-15,60,1
10695,18,-257,-21,-15,60,-3
10700,19,-255,-25,-16,59,0
10705,16,-255,-21,-19,59,-1
10710,17,-253,-22,-17,58,1
10715,16,-256,-22,-16,56,-3
10720,16,-256,-20,-15,58,1
10725,19,-256,-22,-14,59,-2
10730,17,-256,-21,-13,59,1
10735,19,-256,-22,-11,60,-2
10740,16,-255,-22,-9,59,-1
10745,16,-254,-20,-7,57,-2
10750,16,-253,-24,-4,58,2
10755,15,-257,-21,-3,55,0
10760,18,-255,-25,0,54,2
10765,17,-254,-22,1,55,0
10770,14,-254,-22,3,53,2
10775,15,-250,-24,3,54,0
10780,15,-252,-21,0,54,3
10785,12,-254,-27,-3,55,0
10790,15,-255,-23,-6,55,1
10795,14,-251,-23,-9,53,-2
10800,15,-253,-20,-10,54,0
10805,14,-253,-21,-12,53,-2
10810,11,-253,-19,-13,53,0
10815,17,-252,-20,-14,53,-1
10820,15,-255,-20,-13,55,-1
10825,15,-257,-16,-12,57,-3
10830,17,-252,-20,-12,57,0
10835,17,-253,-22,-12,56,-2
10840,16,-254,-22,-11,52,0
10845,17,-255,-24,-12,55,-1
10850,16,-256,-19,-12,55,0
10855,16,-255,-21,-13,55,-1
10860,18,-256,-20,-11,57,1
10865,16,-253,-21,-10,57,0
10870,16,-256,-22,-10,57,2
10875,16,-257,-23,-8,57,-1
10880,18,-259,-24,-7,58,2
10885,16,-255,-20,-4,57,-1
10890,17,-254,-26,0,59,0
10895,16,-254,-23,1,60,-1
10900,17,-257,-26,3,57,0
10905,18,-251,-23,3,57,-1
10910,18,-255,-21,3,55,1
10915,17,-256,-23,2,56,-2
10920,18,-256,-25,-1,54,-1
10925,17,-257,-23,-3,53,-1
10930,16,-255,-24,-5,53,1
10935,13,-251,-23,-6,51,-1
10940,18,-253,-23,-8,51,2
10945,18,-254,-21,-12,54,1
10950,17,-255,-23,-14,54,2
10955,18,-254,-23,-15,53,3
10960,14,-255,-21,-14,54,4
10965,18,-256,-20,-15,54,5
10970,15,-254,-17,-14,57,6
10975,16,-259,-20,-11,57,5
10980,16,-256,-21,-8,58,6
10985,16,-257,-20,-7,57,4
10990,15,-257,-23,-5,57,3
10995,16,-255,-18,-6,58,4
11000,20,-256,-22,-8,58,3
11005,16,-258,-24,-10,58,1
11010,16,-255,-24,-10,57,0
11015,17,-254,-23,-13,59,-2
11020,13,-257,-24,-14,58,-3
11025,16,-254,-25,-15,59,-3
11030,18,-256,-23,-15,59,-5
11035,15,-256,-19,-16,59,-5
11040,16,-252,-19,-18,61,-6
11045,16,-252,-22,-17,59,-5
11050,16,-252,-21,-19,60,-5
11055,15,-255,-22,-20,62,-2
11060,16,-255,-18,-19,62,-3
11065,15,-255,-21,-18,63,-3
11070,19,-256,-22,-17,63,-2
11075,15,-257,-21,-16,64,-1
11080,14,-255,-22,-16,64,-2
11085,13,-253,-21,-12,66,-1
11090,15,-257,-22,-13,63,-3
11095,15,-255,-24,-11,65,-1
11100,17,-256,-23,-11,65,-2
11105,18,-256,-20,-11,63,-1
11110,17,-255,-23,-9,63,-2
11115,16,-255,-23,-9,64,-1
11120,17,-257,-23,-10,63,-3
11125,15,-254,-22,-10,62,-2
11130,19,-255,-25,-10,62,-3
11135,16,-254,-21,-11,60,-2
11140,17,-255,-23,-11,59,-4
11145,19,-257,-23,-12,59,-3
11150,18,-255,-27,-14,60,-4
11155,17,-255,-22,-15,58,-3
11160,14,-254,-22,-16,59,-5
11165,18,-251,-22,-17,59,-4
11170,15,-255,-19,-16,60,-5
11175,16,-255,-22,-16,60,-4
11180,17,-254,-23,-16,60,-5
11185,16,-255,-24,-17,61,-3
11190,16,-255,-22,-19,61,-5
11195,14,-255,-24,-18,62,-4
11200,15,-256,-18,-19,61,-6
11205,17,-257,-20,-19,61,-4
11210,14,-258,-20,-21,61,-4
11215,15,-258,-18,-21,61,-4
11220,14,-255,-20,-21,60,-6
11225,15,-253,-20,-21,62,-4
11230,17,-254,-20,-19,63,-5
11235,15,-255,-21,-18,64,-2
11240,17,-256,-23,-18,63,-4
11245,14,-253,-17,-15,64,-2
11250,18,-255,-21,-14,65,-4
11255,16,-255,-24,-13,65,0
11260,17,-257,-20,-12,67,-2
11265,18,-254,-25,-10,68,-1
11270,15,-254,-23,-9,67,-5
11275,18,-252,-24,-9,66,-4
11280,16,-254,-19,-8,65,-6
11285,17,-258,-23,-9,65,-4
11290,17,-255,-23,-11,64,-7
11295,17,-257,-21,-13,63,-5
11300,16,-253,-17,-13,62,-7
11305,17,-253,-22,-13,61,-5
11310,15,-252,-20,-15,61,-7
11315,16,-253,-21,-13,62,-5
11320,15,-254,-23,-14,60,-5
11325,16,-255,-24,-14,60,-3
11330,15,-256,-22,-15,61,-5
11335,18,-257,-21,-17,62,-2
11340,16,-253,-22,-17,61,-4
11345,15,-255,-22,-18,64,-1
11350,18,-254,-21,-18,63,-3
11355,16,-255,-26,-19,64,-2
11360,15,-256,-24,-21,65,-5
11365,17,-257,-19,-20,63,-4
11370,15,-256,-25,-18,63,-6
11375,16,-255,-20,-17,63,-4
11380,14,-253,-20,-16,63,-5
11385,12,-254,-21,-16,63,-4
11390,13,-254,-20,-13,62,-7
11395,18,-257,-24,-12,63,-6
11400,15,-255,-22,-11,62,-6
11405,14,-255,-21,-10,63,-6
11410,17,-255,-22,-9,63,-7
11415,18,-254,-23,-12,64,-6
11420,17,-255,-22,-11,65,-8
11425,17,-255,-23,-13,64,-3
11430,16,-252,-21,-16,64,-5
11435,17,-254,-20,-17,63,-2
11440,18,-256,-21,-18,61,-3
11445,17,-254,-25,-19,60,-1
11450,18,-255,-20,-18,63,-1
11455,16,-254,-21,-18,62,0
11460,14,-254,-18,-17,61,-2
11465,18,-254,-21,-14,60,0
11470,17,-255,-21,-11,60,-1
11475,17,-254,-22,-10,61,-1
11480,15,-256,-21,-8,61,-3
11485,18,-257,-19,-7,62,-2
11490,16,-254,-19,-7,63,-3
11495,14,-257,-18,-8,62,-2
11500,24,-247,-21,-9,64,-3
11505,23,-256,-15,-7,62,-2
11510,25,-252,-26,-6,66,-6
11515,27,-257,-17,-6,66,-3
11520,19,-255,-27,-5,66,-6
11525,19,-252,-20,-5,67,-4
11530,15,-254,-24,-5,68,-5
11535,16,-256,-21,-6,67,-5
11540,17,-256,-23,-7,68,-6
11545,17,-257,-17,-8,68,-4
11550,17,-256,-23,-9,67,-5
11555,18,-256,-21,-12,67,-5
11560,15,-252,-20,-14,66,-6
11565,16,-256,-22,-16,66,-4
11570,17,-254,-23,-17,66,-5
11575,18,-252,-22,-18,65,-4
11580,15,-255,-19,-19,64,-3
11585,16,-255,-20,-18,65,-3
11590,17,-253,-18,-19,64,-2
11595,15,-255,-20,-18,62,-2
11600,16,-256,-22,-15,62,0
11605,15,-255,-19,-14,62,0
11610,17,-256,-20,-11,63,0
11615,14,-255,-25,-9,64,0
11620,17,-255,-23,-9,63,0
11625,16,-255,-18,-10,63,0
11630,16,-257,-21,-11,62,-1
11635,16,-258,-23,-10,62,-3
11640,16,-255,-20,-10,62,-2
11645,18,-256,-22,-10,60,-1
11650,17,-253,-22,-10,60,-1
11655,17,-259,-23,-13,60,-3
11660,16,-253,-20,-13,59,-3
11665,17,-256,-19,-14,59,-3
11670,16,-256,-21,-15,58,-2
11675,16,-254,-21,-16,59,-3
11680,15,-255,-20,-16,58,-2
11685,16,-254,-23,-17,58,-2
11690,17,-256,-20,-19,60,-1
11695,17,-255,-23,-18,59,-2
11700,14,-255,-22,-18,60,0
11705,16,-255,-20,-18,61,0
11710,16,-256,-19,-16,62,1
11715,17,-254,-21,-15,62,-1
11720,17,-257,-23,-13,64,-1
11725,16,-254,-17,-10,64,-1
11730,16,-256,-22,-9,64,0
11735,18,-256,-23,-8,66,-2
11740,17,-256,-20,-8,65,0
11745,17,-254,-21,-7,65,-3
11750,12,-253,-16,-6,65,-1
11755,16,-255,-20,-7,65,-3
11760,18,-255,-20,-9,63,-3
11765,16,-251,-20,-9,62,-4
11770,18,-253,-22,-11,60,-2
11775,15,-255,-21,-14,60,-4
11780,15,-254,-20,-13,61,-3
11785,15,-253,-26,-14,61,-5
11790,16,-258,-25,-14,61,-3
11795,16,-253,-19,-14,59,-4
11800,17,-255,-25,-14,58,-2
11805,17,-255,-20,-17,60,-4
11810,16,-256,-23,-17,59,-1
11815,16,-252,-22,-17,58,-2
11820,19,-259,-21,-16,58,0
11825,16,-252,-18,-14,58,-1
11830,16,-255,-21,-13,59,2
11835,16,-256,-20,-13,61,0
11840,16,-255,-20,-13,61,2
11845,17,-254,-20,-14,60,0
11850,16,-254,-18,-14,60,4
11855,18,-256,-21,-14,61,0
11860,18,-255,-22,-15,61,1
11865,17,-254,-23,-16,62,0
11870,16,-255,-23,-15,62,2
11875,16,-256,-19,-13,62,-1
11880,15,-257,-21,-13,61,1
11885,16,-255,-20,-11,61,-2
11890,16,-256,-21,-11,61,0
11895,14,-251,-22,-11,61,-3
11900,19,-256,-24,-10,60,-1
11905,16,-255,-21,-10,59,-5
11910,15,-253,-25,-10,59,-3
11915,17,-254,-23,-12,60,-4
11920,17,-255,-18,-13,57,-2
11925,17,-257,-23,-13,58,-4
11930,17,-254,-23,-14,56,-1
11935,21,-254,-23,-14,59,-4
11940,18,-256,-21,-16,59,-2
11945,14,-255,-22,-17,60,-5
11950,15,-255,-19,-18,58,-2
11955,15,-254,-20,-20,57,-3
11960,14,-253,-22,-23,56,-1
11965,17,-255,-25,-23,57,-4
11970,14,-254,-24,-24,59,-2
11975,16,-255,-22,-25,60,-4
11980,14,-256,-22,-24,62,-2
11985,15,-257,-27,-23,63,-5
11990,15,-255,-22,-21,64,-2
