timestamp,acc_x,acc_y,acc_z,gyro_x,gyro_y,gyro_z
0,-9,-232,-116,-23,67,-3
5,-8,-232,-119,-24,65,-4
10,-9,-233,-117,-22,67,-2
15,-9,-234,-115,-21,67,-2
20,-13,-229,-113,-18,66,-1
25,-9,-234,-115,-16,67,0
30,-13,-228,-115,-15,66,1
35,-12,-230,-114,-13,67,0
40,-10,-231,-117,-12,66,1
45,-10,-229,-114,-10,65,1
50,-11,-229,-114,-11,66,1
55,-8,-231,-114,-10,65,0
60,-10,-231,-115,-11,67,0
65,-10,-229,-112,-11,65,-2
70,-9,-230,-116,-11,66,-2
75,-10,-230,-115,-11,66,-2
80,-12,-232,-113,-10,66,-2
85,-10,-231,-116,-10,66,-2
90,-1,-228,-104,-11,67,-2
95,-12,-230,-115,-12,66,-1
100,-10,-230,-114,-13,68,1
105,-14,-232,-114,-14,70,1
110,-12,-231,-115,-16,69,1
115,-10,-230,-115,-17,69,1
120,-14,-232,-114,-17,70,2
125,-11,-231,-116,-19,71,1
130,-9,-233,-115,-16,72,2
135,-12,-230,-115,-17,72,3
140,-11,-233,-115,-18,71,3
145,-9,-235,-112,-18,71,2
150,-10,-232,-116,-17,72,1
155,-10,-231,-112,-19,70,3
160,-10,-231,-115,-19,70,2
165,-11,-229,-117,-20,70,2
170,-8,-229,-112,-18,69,3
175,-10,-231,-114,-17,69,1
180,-11,-232,-117,-15,68,2
185,-9,-232,-117,-14,68,1
190,-10,-229,-114,-13,67,0
195,-12,-231,-115,-12,65,-2
200,-9,-231,-115,-13,66,-1
205,-6,-232,-112,-14,66,-2
210,-9,-229,-117,-16,66,-1
215,-11,-232,-116,-15,67,-2
220,-10,-231,-114,-15,65,-3
225,-9,-233,-116,-13,65,-2
230,-9,-231,-115,-10,67,-2
235,-11,-231,-115,-6,67,-2
240,-12,-236,-124,-4,67,-3
245,-10,-233,-116,-3,67,-1
250,-11,-231,-114,-1,67,0
255,-11,-229,-112,-1,66,-1
260,-11,-230,-114,-1,67,-3
265,-9,-232,-115,2,65,-4
270,-12,-231,-116,3,66,-3
275,-10,-230,-117,5,66,-3
280,-12,-232,-115,5,66,-2
285,-8,-231,-110,4,68,-2
290,-10,-233,-117,5,68,-2
295,-10,-231,-113,5,68,-2
300,-11,-229,-116,5,68,-2
305,-14,-228,-114,6,69,-1
310,-9,-231,-117,6,70,-1
315,-11,-230,-115,7,70,-1
320,-11,-232,-114,8,70,0
325,-9,-228,-110,9,70,-2
330,-9,-230,-114,10,71,-3
335,-9,-230,-114,10,70,-2
340,-8,-231,-116,10,70,-3
345,-12,-232,-116,11,70,-2
350,-15,-233,-112,11,70,-3
355,-11,-231,-113,10,72,-3
360,-9,-230,-113,9,72,-4
365,-10,-229,-113,8,71,-4
370,-10,-234,-118,8,72,-4
375,-11,-234,-115,8,71,-4
380,-8,-233,-111,7,71,-2
385,-11,-230,-114,9,70,-3
390,-13,-228,-115,9,70,-2
395,-12,-230,-112,9,71,-3
400,-11,-231,-113,10,72,-1
405,-10,-232,-112,11,71,-2
410,-11,-231,-114,12,72,-2
415,-10,-231,-114,12,72,-2
420,-9,-233,-115,14,74,-2
425,-8,-231,-113,16,74,-3
430,-10,-232,-112,15,75,-4
435,-10,-232,-109,17,73,-2
440,-9,-233,-116,17,72,-2
445,-10,-232,-116,18,72,-1
450,-10,-228,-114,18,71,-3
455,-10,-233,-110,17,73,-1
460,-7,-228,-122,15,73,0
465,-10,-230,-114,13,71,-1
470,-14,-231,-112,11,71,-2
475,-10,-233,-110,10,72,-2
480,-10,-232,-112,8,72,-1
485,-9,-231,-111,8,73,-1
490,-10,-234,-110,8,72,-2
495,-10,-231,-112,6,74,-2
500,-8,-234,-108,6,74,-2
505,-11,-228,-111,5,75,-1
510,-11,-232,-111,4,76,-2
515,-12,-230,-114,2,75,-1
520,-11,-231,-114,2,75,-2
525,-9,-233,-113,2,74,-2
530,-13,-227,-113,4,72,-2
535,-12,-230,-114,5,70,-3
540,-12,-231,-113,7,70,-3
545,-9,-230,-112,8,71,-4
550,-10,-229,-110,8,69,-6
555,-10,-230,-114,5,70,-6
560,-8,-233,-114,5,69,-6
565,-10,-225,-113,2,69,-8
570,-11,-234,-113,1,69,-9
575,-8,-232,-116,0,70,-10
580,-11,-233,-114,0,70,-10
585,-11,-236,-108,1,71,-10
590,-10,-234,-113,2,73,-10
595,-11,-232,-109,5,73,-12
600,-10,-232,-114,6,71,-12
605,-10,-232,-117,10,71,-11
610,-9,-233,-114,11,69,-10
615,-11,-231,-112,13,69,-11
620,-13,-231,-113,13,67,-12
625,-13,-232,-112,13,67,-11
630,-12,-232,-114,14,66,-10
635,-11,-233,-112,13,65,-7
640,-15,-234,-112,12,65,-7
645,-11,-234,-111,11,63,-7
650,-10,-232,-115,10,64,-6
655,-7,-233,-113,10,64,-5
660,-10,-233,-111,11,64,-5
665,-9,-234,-115,11,66,-5
670,-10,-232,-114,12,67,-5
675,-13,-224,-105,13,69,-4
680,-9,-234,-110,15,69,-4
685,-13,-233,-110,16,69,-5
690,-12,-234,-112,16,70,-5
695,-15,-229,-113,17,69,-5
700,-9,-233,-110,16,71,-5
705,-12,-229,-108,14,73,-6
710,-11,-230,-110,11,72,-5
715,-8,-232,-110,10,72,-5
720,-10,-234,-114,6,72,-6
725,-9,-230,-111,2,72,-6
730,-13,-233,-110,1,72,-8
735,-9,-233,-116,0,72,-8
740,-10,-230,-113,0,72,-9
745,-12,-230,-112,1,71,-9
750,-9,-231,-110,1,70,-7
755,-11,-234,-114,3,71,-9
760,-9,-232,-116,4,70,-10
765,-11,-232,-112,6,71,-10
770,-9,-230,-108,8,70,-10
775,-10,-232,-111,10,71,-11
780,-8,-235,-117,12,69,-9
785,-7,-233,-115,13,69,-10
790,-6,-233,-111,15,69,-8
795,-12,-233,-111,16,69,-9
800,-11,-231,-113,16,69,-9
805,-8,-233,-112,17,69,-9
810,-9,-234,-112,19,69,-7
815,-10,-237,-110,19,68,-7
820,-10,-234,-109,19,68,-6
825,-9,-231,-109,19,68,-6
830,-9,-236,-110,19,70,-5
835,-10,-233,-111,19,72,-4
840,-11,-234,-112,18,74,-6
845,-12,-232,-107,19,74,-6
850,-11,-235,-112,19,74,-7
855,-12,-233,-112,17,75,-6
860,-7,-233,-108,17,75,-7
865,-11,-230,-108,15,77,-6
870,-10,-235,-115,15,76,-6
875,-9,-229,-113,16,76,-6
880,-11,-230,-111,16,76,-6
885,-9,-231,-110,15,74,-8
890,-11,-233,-111,16,73,-7
895,-8,-235,-110,15,74,-8
900,-11,-230,-107,16,72,-8
905,-9,-236,-111,16,72,-7
910,-14,-232,-110,14,71,-7
915,-9,-236,-112,13,71,-7
920,-9,-231,-111,13,72,-6
925,-9,-236,-111,14,72,-6
930,-12,-235,-107,15,72,-7
935,-10,-235,-113,15,70,-7
940,-10,-233,-109,15,70,-6
945,-12,-233,-111,14,72,-6
950,-11,-233,-108,13,71,-6
955,-12,-234,-112,12,72,-7
960,-10,-234,-109,12,71,-7
965,-8,-235,-111,12,71,-7
970,-10,-235,-107,12,73,-6
975,-9,-235,-113,10,73,-5
980,-13,-232,-107,8,72,-5
985,-10,-233,-108,9,73,-6
990,-8,-231,-110,7,73,-7
995,-10,-231,-110,6,73,-8
1000,-10,-228,-109,6,70,-9
1005,-8,-241,-105,6,72,-9
1010,-7,-232,-109,5,72,-8
1015,-8,-231,-111,6,72,-8
1020,-10,-233,-111,6,73,-8
1025,-11,-232,-109,4,72,-9
1030,-11,-233,-110,4,71,-8
1035,-7,-234,-110,4,71,-9
1040,-10,-233,-111,4,69,-8
1045,-10,-235,-114,3,70,-10
1050,-10,-236,-109,1,69,-9
1055,-11,-235,-110,3,70,-8
1060,-11,-230,-109,2,70,-9
1065,-12,-234,-111,2,69,-9
1070,-11,-232,-112,2,69,-9
1075,-9,-231,-109,2,70,-8
1080,-10,-233,-112,4,69,-9
1085,-10,-235,-109,1,72,-8
1090,-8,-234,-111,2,71,-6
1095,-8,-238,-106,4,71,-7
1100,-9,-231,-110,4,72,-9
1105,-10,-236,-109,3,70,-9
1110,-11,-235,-105,2,72,-8
1115,-8,-236,-106,2,73,-8
1120,-10,-234,-108,2,72,-9
1125,-8,-232,-108,1,71,-9
1130,-11,-234,-113,2,72,-7
1135,-6,-233,-112,2,71,-9
1140,-9,-236,-112,3,72,-7
1145,-10,-236,-110,2,72,-7
1150,-9,-234,-113,2,71,-7
1155,-13,-233,-105,2,70,-7
1160,-11,-234,-110,1,70,-7
1165,-12,-235,-113,3,71,-8
1170,-9,-233,-107,3,73,-8
1175,-11,-234,-113,3,71,-8
1180,-12,-233,-109,4,71,-7
1185,-11,-233,-108,3,70,-6
1190,-8,-235,-111,3,70,-7
1195,-9,-233,-106,4,70,-7
1200,-9,-232,-110,3,70,-8
1205,-5,-240,-105,3,71,-7
1210,-11,-234,-106,2,70,-7
1215,-9,-235,-113,1,71,-7
1220,-11,-230,-117,0,71,-7
1225,-10,-233,-106,1,70,-7
1230,-12,-228,-108,0,68,-7
1235,-9,-235,-105,1,68,-7
1240,-9,-237,-110,2,69,-6
1245,-7,-234,-115,2,70,-6
1250,-11,-232,-110,2,70,-6
1255,-10,-235,-109,3,70,-6
1260,-9,-232,-107,4,71,-6
1265,-12,-233,-108,5,72,-6
1270,-6,-234,-107,6,72,-6
1275,-7,-235,-111,5,71,-7
1280,-9,-235,-110,8,72,-7
1285,-9,-233,-110,8,72,-6
1290,-10,-234,-109,8,71,-6
1295,-10,-236,-107,8,69,-6
1300,-12,-231,-109,6,70,-5
1305,-12,-235,-110,6,70,-5
1310,-9,-235,-108,6,70,-4
1315,-11,-233,-105,4,70,-4
1320,-10,-232,-111,3,69,-5
1325,-8,-237,-110,4,69,-5
1330,-6,-235,-111,3,69,-6
1335,-10,-235,-107,4,71,-5
1340,-5,-234,-109,3,72,-4
1345,-6,-236,-104,2,70,-2
1350,-10,-235,-107,0,70,-3
1355,-8,-236,-109,1,70,-3
1360,-13,-235,-107,0,71,-2
1365,-9,-232,-109,-1,71,-2
1370,-11,-233,-109,-1,70,-2
1375,-8,-233,-114,-1,71,-1
1380,-8,-235,-112,-1,70,0
1385,-12,-234,-107,-2,69,-3
1390,-11,-236,-106,-3,70,-2
1395,-9,-235,-104,-4,70,-3
1400,-10,-233,-109,-6,69,-3
1405,-10,-234,-109,-7,71,-6
1410,-8,-234,-110,-8,72,-5
1415,-10,-232,-108,-8,69,-5
1420,-9,-236,-109,-8,70,-6
1425,-10,-233,-109,-9,70,-9
1430,-12,-234,-107,-7,69,-9
1435,-9,-233,-110,-5,71,-8
1440,-2,-229,-103,-4,72,-7
1445,-6,-234,-112,-3,71,-7
1450,-8,-235,-109,-1,72,-7
1455,-10,-236,-111,0,72,-6
1460,-7,-235,-109,2,71,-4
1465,-11,-236,-111,3,72,-5
1470,-11,-233,-107,4,71,-3
1475,-11,-234,-109,5,70,-2
1480,-8,-233,-108,4,71,0
1485,-9,-234,-106,4,71,1
1490,-9,-234,-104,5,70,2
1495,-9,-233,-111,5,69,2
1500,-11,-235,-107,5,69,1
1505,-8,-235,-110,5,69,1
1510,-10,-234,-109,8,67,1
1515,-9,-233,-108,8,67,0
1520,-9,-234,-106,8,68,0
1525,-10,-234,-109,11,68,0
1530,-8,-235,-106,12,67,0
1535,-10,-233,-111,12,67,0
1540,-13,-235,-109,11,68,-2
1545,-11,-235,-106,10,67,-1
1550,-6,-237,-116,9,68,-1
1555,-9,-233,-107,7,69,-2
1560,-10,-235,-110,6,70,-2
1565,-9,-233,-107,3,70,-3
1570,-11,-235,-107,2,70,-3
1575,-8,-236,-111,2,70,-2
1580,-10,-232,-106,0,71,-3
1585,-10,-237,-106,1,68,-3
1590,-9,-232,-105,0,68,-2
1595,-8,-237,-105,0,70,0
1600,-12,-235,-108,2,69,-1
1605,-8,-235,-110,3,69,-2
1610,-10,-234,-107,4,68,-2
1615,-9,-236,-107,5,68,-2
1620,-8,-235,-107,7,68,-1
1625,-11,-234,-109,7,68,-1
1630,-9,-234,-107,8,66,-1
1635,-13,-238,-105,8,67,-2
1640,-8,-234,-106,7,66,-1
1645,-8,-236,-105,7,66,-1
1650,-11,-234,-108,7,65,-1
1655,-5,-228,-106,6,65,-1
1660,-10,-235,-105,4,63,0
1665,-6,-235,-105,2,64,-1
1670,-8,-237,-107,2,63,-1
1675,-9,-237,-109,2,65,-1
1680,-12,-234,-106,3,66,-1
1685,-11,-234,-108,3,66,1
1690,-11,-234,-106,4,66,0
1695,-7,-235,-105,3,65,-1
1700,-9,-236,-104,5,66,-2
1705,-9,-232,-105,4,67,-2
1710,-12,-233,-104,4,68,-3
1715,-9,-234,-107,4,69,-2
1720,-9,-235,-109,3,69,-2
1725,-9,-234,-105,2,69,-3
1730,-9,-235,-107,1,69,-3
1735,-10,-236,-106,2,68,-2
1740,-8,-237,-108,1,69,-1
1745,-10,-235,-105,0,68,-1
1750,-8,-237,-108,-1,69,-1
1755,-7,-236,-109,1,69,-3
1760,-12,-233,-105,1,68,-3
1765,-6,-236,-102,2,68,-2
1770,-11,-237,-103,2,68,-1
1775,-12,-235,-106,2,68,-1
1780,-8,-238,-106,1,68,-1
1785,-9,-233,-106,1,68,0
1790,-11,-232,-103,1,67,-1
1795,-11,-237,-105,1,67,-2
1800,-14,-234,-102,0,67,-1
1805,-8,-237,-107,0,67,-2
1810,-10,-232,-107,-1,68,-3
1815,-10,-235,-109,-2,69,-3
1820,-10,-233,-106,-4,69,-1
1825,-10,-235,-108,-4,71,-2
1830,-8,-234,-105,-5,71,-2
1835,-10,-235,-108,-7,71,-3
1840,-9,-237,-102,-7,70,-2
1845,-12,-235,-108,-9,70,-1
1850,-10,-235,-108,-8,69,-1
1855,-10,-235,-105,-9,70,-2
1860,-9,-234,-105,-8,70,-2
1865,-10,-237,-108,-8,72,-2
1870,-8,-235,-110,-9,70,-1
1875,-12,-234,-113,-6,70,-1
1880,-10,-234,-108,-6,70,-3
1885,-13,-233,-101,-6,70,-1
1890,-10,-233,-104,-8,68,-2
1895,-8,-234,-107,-7,69,-2
1900,-9,-236,-105,-7,69,-1
1905,-11,-233,-103,-6,69,-3
1910,-10,-236,-105,-8,69,-3
1915,-10,-236,-107,-7,67,-2
1920,-10,-235,-103,-8,67,-2
1925,-10,-235,-104,-8,69,-3
1930,-9,-235,-107,-8,68,-3
1935,-9,-233,-103,-8,68,-2
1940,-10,-237,-107,-9,69,-3
1945,-10,-238,-103,-9,70,-3
1950,-8,-236,-106,-9,71,-3
1955,-12,-236,-106,-9,71,-2
1960,-10,-234,-105,-9,69,-3
1965,-10,-237,-105,-8,69,-2
1970,-8,-232,-104,-9,71,-2
1975,-10,-234,-108,-9,71,-2
1980,-11,-233,-106,-8,71,-2
1985,-9,-239,-109,-9,70,-2
1990,-7,-236,-105,-8,70,-1
1995,-9,-235,-102,-8,71,-1
2000,-7,-235,-103,-8,70,0
2005,-12,-234,-106,-9,69,-1
2010,-11,-235,-108,-11,69,-2
2015,-11,-234,-104,-10,70,-1
2020,-7,-233,-107,-11,70,0
2025,-10,-237,-106,-11,70,-1
2030,-8,-237,-108,-10,70,-1
2035,-9,-236,-107,-10,69,0
2040,-14,-234,-107,-9,70,0
2045,-11,-235,-105,-10,70,-1
2050,-10,-235,-106,-10,71,0
2055,-12,-233,-102,-10,71,0
2060,-9,-235,-105,-10,70,0
2065,-11,-235,-105,-12,69,-1
2070,-10,-232,-106,-14,69,-2
2075,-11,-236,-107,-15,68,-2
2080,-8,-236,-105,-17,69,-3
2085,-11,-236,-105,-19,69,-1
2090,-17,-236,-116,-20,69,-2
2095,-9,-235,-105,-20,68,-2
2100,-9,-235,-105,-22,68,-4
2105,-10,-236,-107,-21,66,-2
2110,-10,-236,-108,-23,66,-2
2115,-11,-234,-105,-24,66,-2
2120,-12,-235,-101,-26,65,0
2125,-11,-233,-107,-27,65,-1
2130,-12,-237,-102,-28,66,-2
2135,-9,-237,-106,-28,65,0
2140,-12,-236,-102,-29,66,0
2145,-11,-234,-103,-30,68,-1
2150,-9,-234,-107,-31,67,0
2155,-11,-231,-108,-33,68,-2
2160,-9,-236,-106,-35,68,-2
2165,-9,-236,-106,-35,68,-1
2170,-11,-234,-105,-35,69,-3
2175,-10,-238,-103,-38,70,-1
2180,-8,-234,-103,-39,69,-2
2185,-7,-237,-107,-41,70,-3
2190,-9,-235,-108,-43,72,-1
2195,-7,-238,-106,-45,71,0
2200,-6,-238,-101,-47,72,0
2205,-9,-235,-105,-49,72,1
2210,-11,-234,-105,-51,72,3
2215,-10,-236,-109,-53,73,4
2220,-10,-236,-106,-55,74,4
2225,-12,-237,-109,-58,73,3
2230,-12,-235,-106,-60,72,4
2235,-13,-236,-107,-63,72,5
2240,-12,-234,-108,-63,73,4
2245,-12,-235,-106,-62,72,4
2250,-12,-231,-109,-63,70,4
2255,-8,-236,-105,-63,70,3
2260,-10,-234,-106,-64,70,1
2265,-8,-232,-108,-65,70,1
2270,-10,-231,-108,-66,68,1
2275,-11,-233,-108,-69,67,0
2280,-10,-234,-107,-72,68,-2
2285,-10,-233,-108,-73,67,-1
2290,-10,-233,-104,-75,68,-1
2295,-8,-236,-109,-75,68,-4
2300,-12,-234,-110,-75,66,-4
2305,-9,-235,-106,-71,66,-4
2310,-11,-235,-110,-69,67,-3
2315,-10,-235,-107,-67,66,-2
2320,-10,-232,-109,-64,67,-2
2325,-10,-234,-111,-62,66,-2
2330,-10,-231,-110,-61,66,0
2335,-11,-236,-108,-61,65,1
2340,-12,-233,-109,-60,65,2
2345,-11,-233,-110,-61,64,2
2350,-11,-233,-108,-62,64,2
2355,-12,-232,-110,-64,63,2
2360,-12,-233,-107,-66,64,3
2365,-9,-234,-108,-67,66,4
2370,-13,-233,-108,-70,66,4
2375,-11,-233,-108,-71,67,4
2380,-12,-234,-108,-71,68,4
2385,-11,-235,-109,-68,69,4
2390,-11,-234,-110,-67,70,3
2395,-9,-236,-112,-64,70,3
2400,-9,-233,-112,-63,72,2
2405,-10,-233,-111,-60,72,1
2410,-8,-234,-109,-60,73,2
2415,-9,-233,-112,-60,73,2
2420,-9,-236,-109,-59,72,3
2425,-8,-233,-111,-60,72,2
2430,-11,-233,-109,-62,72,1
2435,-10,-232,-109,-62,73,2
2440,-10,-231,-115,-63,74,2
2445,-12,-234,-110,-63,71,0
2450,-9,-232,-112,-65,72,1
2455,-8,-233,-106,-64,71,1
2460,-11,-234,-111,-65,71,-2
2465,-8,-233,-107,-63,70,0
2470,-9,-235,-112,-61,69,-1
2475,-9,-231,-113,-57,68,-1
2480,-11,-233,-111,-54,68,-2
2485,-11,-233,-110,-53,68,-1
2490,-10,-234,-114,-49,68,-1
2495,-9,-232,-111,-45,66,-1
2500,-10,-232,-110,-41,65,-2
2505,-9,-233,-113,-39,64,-2
2510,-12,-231,-111,-36,65,-4
2515,-12,-230,-113,-37,64,-4
2520,-10,-233,-115,-39,63,-4
2525,-11,-232,-109,-40,64,-4
2530,-13,-224,-115,-42,64,-3
2535,-11,-231,-111,-45,64,-4
2540,-12,-231,-111,-49,64,-4
2545,-10,-231,-111,-53,64,-2
2550,-8,-232,-109,-54,64,-1
2555,-10,-236,-111,-55,66,-2
2560,-10,-233,-112,-55,67,-2
2565,-11,-230,-112,-57,68,-3
2570,-10,-231,-111,-57,69,-3
2575,-10,-231,-112,-56,68,-3
2580,-10,-230,-112,-57,69,-4
2585,-12,-234,-111,-58,69,-4
2590,-8,-231,-111,-58,69,-4
2595,-10,-231,-111,-59,68,-4
2600,-9,-233,-115,-62,69,-4
2605,-12,-230,-111,-65,69,-3
2610,-12,-230,-112,-66,70,-2
2615,-9,-231,-113,-67,68,-3
2620,-10,-235,-113,-70,69,-3
2625,-12,-231,-112,-69,68,-1
2630,-11,-233,-111,-69,69,0
2635,-16,-232,-110,-67,70,1
2640,-11,-232,-111,-66,69,2
2645,-8,-234,-113,-65,69,1
2650,-11,-231,-113,-63,68,3
2655,-11,-234,-111,-61,70,1
2660,-12,-233,-111,-58,70,2
2665,-8,-232,-115,-58,71,2
2670,-9,-231,-113,-57,69,1
2675,-12,-232,-111,-56,70,1
2680,-11,-233,-114,-55,70,1
2685,-10,-230,-111,-57,72,0
2690,-10,-229,-111,-57,71,1
2695,-12,-230,-113,-58,70,1
2700,-10,-226,-114,-58,70,0
2705,-9,-232,-112,-58,71,-1
2710,-11,-229,-111,-59,72,0
2715,-10,-233,-115,-59,72,1
2720,-11,-229,-113,-60,72,1
2725,-14,-228,-115,-61,73,1
2730,-12,-234,-115,-63,73,-1
2735,-13,-231,-114,-64,74,0
2740,-11,-232,-114,-65,73,0
2745,-5,-229,-119,-67,73,0
2750,-9,-232,-115,-68,73,0
2755,-10,-234,-113,-67,73,-1
2760,-10,-235,-112,-66,72,0
2765,-11,-233,-113,-65,72,-1
2770,-10,-232,-113,-64,71,-1
2775,-11,-230,-109,-63,71,0
2780,-9,-230,-115,-61,70,0
2785,-14,-229,-112,-59,71,0
2790,-11,-232,-111,-60,70,-2
2795,-8,-233,-115,-60,70,-2
2800,-7,-232,-113,-60,69,-2
2805,-12,-229,-114,-60,67,0
2810,-10,-229,-116,-61,68,-1
2815,-9,-231,-118,-59,67,-1
2820,-8,-231,-114,-60,68,-2
2825,-10,-232,-117,-59,69,-2
2830,-11,-230,-117,-59,68,-1
2835,-9,-232,-116,-59,69,-3
2840,-13,-230,-120,-58,68,-3
2845,-12,-229,-116,-58,69,-3
2850,-8,-229,-117,-57,69,-2
2855,-14,-230,-109,-57,69,-4
2860,-15,-229,-118,-58,67,-4
2865,-12,-230,-114,-58,68,-5
2870,-9,-228,-119,-60,70,-5
2875,-10,-231,-118,-60,68,-5
2880,-9,-234,-115,-61,69,-5
2885,-10,-231,-116,-62,68,-6
2890,-11,-228,-115,-63,66,-7
2895,-9,-231,-114,-64,67,-7
2900,-9,-230,-115,-64,67,-7
2905,-9,-230,-114,-65,68,-9
2910,-15,-230,-116,-64,67,-10
2915,-9,-230,-114,-64,66,-9
2920,-10,-230,-115,-62,67,-9
2925,-11,-231,-120,-61,68,-9
2930,-12,-231,-117,-63,69,-8
2935,-11,-231,-118,-61,68,-7
2940,-9,-233,-119,-59,67,-8
2945,-8,-233,-117,-58,67,-6
2950,-9,-231,-115,-55,69,-6
2955,-10,-230,-118,-52,68,-5
2960,-8,-229,-122,-50,68,-7
2965,-6,-221,-122,-48,68,-5
2970,-8,-232,-120,-45,67,-6
2975,-12,-226,-114,-47,67,-6
2980,-13,-230,-117,-44,67,-6
2985,-10,-226,-119,-44,68,-4
2990,-9,-231,-115,-45,68,-5
2995,-11,-228,-116,-46,68,-6
3000,-12,-225,-117,-45,69,-7
3005,-10,-229,-114,-45,69,-6
3010,-10,-230,-119,-47,69,-7
3015,-10,-231,-117,-48,68,-7
3020,-11,-231,-115,-49,68,-6
3025,-12,-231,-116,-51,68,-6
3030,-9,-230,-115,-52,68,-5
3035,-8,-230,-117,-53,68,-5
3040,-9,-230,-120,-55,69,-3
3045,-12,-229,-118,-55,71,-4
3050,-9,-230,-120,-55,71,-3
3055,-6,-229,-115,-54,70,-2
3060,-10,-230,-119,-54,72,-2
3065,-9,-230,-119,-55,72,0
3070,-9,-229,-118,-55,72,1
3075,-4,-223,-120,-54,72,2
3080,-10,-230,-122,-52,72,1
3085,-8,-230,-119,-51,70,1
3090,-8,-229,-118,-47,69,-1
3095,-9,-229,-120,-45,70,1
3100,-8,-227,-121,-42,68,-2
3105,-12,-229,-121,-40,66,-3
3110,-12,-227,-118,-38,67,-5
3115,-9,-228,-117,-40,68,-4
3120,-5,-229,-118,-41,68,-5
3125,-10,-231,-117,-42,68,-6
3130,-10,-228,-117,-43,69,-7
3135,-10,-228,-119,-43,70,-10
3140,-11,-231,-121,-45,71,-10
3145,-6,-231,-117,-44,71,-10
3150,-9,-229,-116,-41,72,-10
3155,-11,-227,-117,-40,72,-10
3160,-9,-230,-121,-40,73,-9
3165,-11,-229,-120,-38,71,-10
3170,-10,-231,-117,-36,71,-9
3175,-12,-229,-116,-34,69,-8
3180,-14,-229,-115,-35,68,-8
3185,-10,-230,-121,-34,67,-7
3190,-12,-229,-123,-34,66,-7
3195,-10,-232,-122,-33,66,-5
3200,-9,-230,-122,-35,64,-5
3205,-11,-229,-121,-34,65,-6
3210,-8,-230,-123,-33,66,-4
3215,-8,-226,-120,-32,67,-3
3220,-12,-229,-118,-30,67,-3
3225,-13,-230,-121,-29,68,-3
3230,-8,-229,-120,-27,69,-3
3235,-7,-227,-122,-26,69,-1
3240,-11,-227,-120,-25,70,-3
3245,-8,-227,-122,-24,70,-3
3250,-11,-230,-121,-24,69,-4
3255,-8,-227,-118,-25,70,-3
3260,-9,-228,-118,-25,69,-4
3265,-7,-227,-120,-27,69,-3
3270,-7,-227,-116,-26,68,-3
3275,-8,-229,-118,-25,68,-4
3280,-9,-228,-124,-24,68,-5
3285,-9,-232,-121,-25,67,-6
3290,-5,-229,-127,-25,67,-6
3295,-9,-227,-120,-24,67,-5
3300,-11,-230,-121,-22,67,-5
3305,-6,-231,-120,-22,66,-7
3310,-9,-226,-122,-23,66,-7
3315,-10,-227,-121,-23,66,-7
3320,-10,-227,-119,-24,67,-8
3325,-7,-230,-118,-24,66,-8
3330,-9,-228,-122,-23,66,-9
3335,-8,-225,-116,-23,66,-7
3340,-12,-225,-121,-22,66,-7
3345,-6,-229,-119,-22,67,-8
3350,-10,-230,-119,-22,66,-8
3355,-9,-228,-119,-25,67,-8
3360,-10,-229,-119,-23,67,-6
3365,-14,-226,-118,-24,67,-4
3370,-9,-229,-121,-25,66,-4
3375,-10,-227,-117,-26,66,-3
3380,-10,-229,-118,-24,67,-3
3385,-13,-226,-118,-25,68,-3
3390,-12,-226,-120,-23,68,-2
3395,-10,-229,-121,-23,68,0
3400,-15,-224,-115,-22,68,-1
3405,-10,-232,-121,-21,69,-2
3410,-5,-230,-122,-19,70,-2
3415,-8,-229,-121,-17,70,-1
3420,-10,-229,-121,-16,69,-3
3425,-8,-225,-119,-15,70,-2
3430,-10,-228,-122,-14,71,-2
3435,-11,-230,-119,-14,71,-3
3440,-9,-231,-122,-13,72,-1
3445,-11,-227,-118,-13,70,-1
3450,-9,-231,-120,-13,70,-1
3455,-13,-227,-117,-12,71,1
3460,-9,-227,-118,-11,71,1
3465,-9,-231,-120,-9,71,-1
3470,-12,-227,-120,-7,72,0
3475,-10,-228,-118,-5,72,0
3480,-9,-228,-119,-3,73,-1
3485,-12,-229,-118,-2,73,0
3490,-13,-225,-121,-1,74,1
3495,-13,-229,-121,-2,74,1
3500,-11,-226,-121,-2,72,1
3505,-11,-228,-119,-2,71,0
3510,-10,-229,-121,-2,71,1
3515,-12,-227,-119,-2,71,0
3520,-9,-228,-121,-2,71,0
3525,-5,-229,-117,-2,70,-1
3530,-4,-228,-121,0,70,-1
3535,-9,-229,-122,2,69,-1
3540,-9,-227,-121,2,69,-1
3545,-8,-229,-118,2,69,-1
3550,-10,-226,-116,3,68,-1
3555,-10,-228,-119,4,70,-2
3560,-11,-228,-123,5,68,-2
3565,-10,-230,-117,6,68,-1
3570,-11,-231,-121,6,68,-1
3575,-11,-232,-122,7,70,-1
3580,-8,-228,-120,7,71,-1
3585,-11,-230,-118,8,70,-2
3590,-8,-227,-116,8,70,-4
3595,-10,-229,-114,7,70,-3
3600,-11,-227,-119,8,70,-3
3605,-11,-228,-119,7,71,-3
3610,-11,-229,-124,9,69,-3
3615,-13,-225,-120,9,69,-3
3620,-8,-231,-116,10,68,-4
3625,-9,-231,-119,11,70,-4
3630,-10,-228,-117,12,70,-3
3635,-12,-230,-117,13,70,-4
3640,-9,-231,-118,14,71,-4
3645,-13,-228,-120,15,69,-4
3650,-11,-227,-121,17,69,-5
3655,-9,-230,-118,16,68,-6
3660,-10,-231,-122,16,67,-5
3665,-6,-231,-118,15,68,-5
3670,-8,-226,-119,15,68,-5
3675,-11,-228,-119,14,68,-4
3680,-11,-229,-115,13,68,-3
3685,-9,-228,-118,12,67,-4
3690,-9,-228,-118,12,68,-4
3695,-10,-231,-120,12,68,-4
3700,-12,-229,-115,12,68,-3
3705,-9,-230,-117,13,68,-4
3710,-11,-229,-117,12,69,-3
3715,-8,-231,-119,13,69,-3
3720,-10,-228,-119,14,70,-3
3725,-11,-240,-117,14,72,-3
3730,-8,-227,-117,15,71,-3
3735,-8,-229,-119,16,70,-4
3740,-12,-228,-117,15,70,-4
3745,-11,-228,-117,17,70,-5
3750,-8,-230,-115,16,71,-4
3755,-10,-229,-115,16,70,-5
3760,-11,-228,-116,15,70,-5
3765,-9,-230,-120,17,71,-4
3770,-10,-229,-118,17,71,-6
3775,-8,-231,-117,17,71,-5
3780,-9,-231,-118,16,70,-4
3785,-9,-231,-118,16,70,-5
3790,-9,-229,-116,14,71,-6
3795,-10,-229,-121,15,71,-5
3800,-14,-230,-116,14,70,-7
3805,-11,-230,-116,16,70,-6
3810,-10,-228,-118,16,69,-7
3815,-8,-229,-118,17,70,-6
3820,-11,-231,-115,17,70,-5
3825,-10,-229,-114,18,70,-4
3830,-9,-228,-120,18,69,-5
3835,-7,-233,-121,19,70,-4
3840,-10,-233,-118,17,69,-4
3845,-6,-232,-117,17,69,-3
3850,-5,-229,-120,16,70,-3
3855,-10,-230,-118,14,69,-4
3860,-6,-232,-118,14,71,-3
3865,-6,-234,-117,12,70,-4
3870,-11,-230,-118,11,70,-3
3875,-11,-230,-116,10,71,-2
3880,-9,-229,-117,10,71,-3
3885,-12,-229,-117,9,72,-2
3890,-10,-231,-120,9,72,-3
3895,-9,-231,-111,9,72,-2
3900,-10,-231,-119,11,72,-3
3905,-12,-232,-117,13,70,-3
3910,-14,-229,-117,13,69,-5
3915,-11,-229,-117,14,68,-3
3920,-11,-229,-119,15,68,-4
3925,-13,-227,-118,15,69,-5
3930,-10,-229,-121,14,67,-4
3935,-11,-228,-117,12,69,-4
3940,-10,-231,-122,10,69,-6
3945,-13,-231,-115,4,69,-6
3950,-4,-231,-116,3,71,-6
3955,-10,-230,-115,3,71,-8
3960,-7,-230,-118,3,71,-9
3965,-9,-232,-116,5,72,-7
3970,-10,-230,-115,6,73,-9
3975,-8,-230,-120,9,74,-8
3980,-11,-231,-119,12,74,-7
3985,-10,-231,-119,14,73,-9
3990,-8,-231,-118,17,71,-8
3995,-8,-229,-120,19,71,-9
4000,-12,-231,-119,20,71,-7
4005,-9,-230,-114,20,70,-7
4010,-11,-231,-118,20,68,-5
4015,-9,-230,-115,21,67,-5
4020,-7,-231,-119,17,68,-6
4025,-9,-230,-115,17,68,-4
4030,-8,-232,-114,16,67,-4
4035,-9,-231,-116,15,67,-3
4040,-10,-229,-120,14,68,-2
4045,-8,-231,-118,15,70,-2
4050,-8,-230,-114,18,70,-2
4055,-7,-230,-114,19,70,-2
4060,-6,-233,-113,22,70,-1
4065,-11,-229,-113,21,70,-1
4070,-10,-233,-116,23,71,-2
4075,-8,-231,-116,24,71,-4
4080,-8,-232,-116,22,70,-3
4085,-8,-230,-114,21,72,-2
4090,-11,-231,-116,20,71,-2
4095,-9,-229,-116,18,73,-2
4100,-12,-228,-114,17,73,-4
4105,-9,-233,-114,16,72,-5
4110,-7,-232,-115,15,72,-4
4115,-10,-231,-117,14,72,-5
4120,-11,-231,-114,14,71,-6
4125,-7,-229,-116,12,71,-6
4130,-10,-231,-116,13,69,-6
4135,-11,-229,-115,15,70,-6
4140,-8,-233,-115,15,69,-7
4145,-9,-232,-118,16,69,-7
4150,-12,-230,-117,16,69,-7
4155,-9,-231,-112,18,68,-7
4160,-5,-230,-114,18,67,-6
4165,-9,-232,-112,19,69,-6
4170,-9,-230,-114,21,69,-7
4175,-9,-229,-113,22,69,-7
4180,-10,-232,-113,22,68,-7
4185,-8,-233,-117,23,67,-6
4190,-9,-234,-113,23,68,-6
4195,-9,-231,-114,22,68,-6
4200,-12,-231,-113,23,66,-4
4205,-13,-229,-116,22,68,-4
4210,-8,-231,-112,20,67,-2
4215,-12,-232,-118,19,68,-2
4220,-11,-228,-115,18,67,-3
4225,-11,-232,-113,18,69,-4
4230,-8,-232,-116,19,68,-4
4235,-7,-231,-115,19,69,-4
4240,-10,-231,-118,20,68,-6
4245,-11,-232,-111,20,70,-5
4250,-13,-228,-118,19,70,-5
4255,-10,-231,-114,19,72,-6
4260,-7,-234,-112,20,71,-6
4265,-9,-232,-117,20,70,-4
4270,-5,-226,-107,19,72,-5
4275,-10,-234,-116,19,71,-4
4280,-9,-232,-115,18,71,-5
4285,-12,-231,-114,16,71,-4
4290,-11,-232,-112,16,70,-5
4295,-11,-234,-114,16,71,-3
4300,-9,-230,-115,16,70,-3
4305,-9,-232,-113,14,70,-3
4310,-9,-232,-113,15,72,-4
4315,-12,-230,-111,15,71,-3
4320,-10,-232,-114,16,71,-3
4325,-11,-229,-114,16,71,-3
4330,-10,-232,-115,16,70,-3
4335,-9,-232,-113,15,71,-2
4340,-8,-232,-114,13,69,-2
4345,-10,-231,-112,13,68,-2
4350,-10,-230,-112,12,70,-4
4355,-12,-231,-110,9,69,-3
4360,-11,-233,-107,8,68,-3
4365,-11,-231,-117,6,68,-3
4370,-9,-232,-112,5,67,-3
4375,-8,-230,-114,3,68,-4
4380,-12,-228,-113,4,69,-4
4385,-13,-232,-114,1,68,-4
4390,-9,-232,-111,1,69,-4
4395,-10,-231,-113,3,68,-3
4400,-10,-231,-112,2,69,-4
4405,-11,-232,-116,2,69,-4
4410,-10,-232,-115,3,68,-4
4415,-11,-233,-114,4,69,-5
4420,-9,-234,-115,5,68,-3
4425,-7,-232,-116,5,69,-3
4430,-6,-231,-116,5,69,-3
4435,-10,-232,-116,5,69,-3
4440,-10,-231,-115,6,69,-2
4445,-9,-233,-114,7,69,-2
4450,-9,-233,-113,7,69,-4
4455,-8,-231,-111,8,69,-4
4460,-11,-231,-113,9,68,-4
4465,-8,-232,-114,11,68,-5
4470,-10,-233,-115,11,68,-5
4475,-8,-234,-109,9,68,-6
4480,-8,-233,-110,10,68,-5
4485,-8,-231,-113,9,69,-5
4490,-6,-227,-106,8,69,-6
4495,-6,-235,-111,7,69,-4
4500,-9,-230,-116,5,68,-4
4505,-9,-233,-112,4,68,-4
4510,-8,-232,-112,4,70,-3
4515,-8,-232,-115,4,69,-2
4520,-8,-231,-114,4,70,-2
4525,-10,-232,-114,3,70,-1
4530,-10,-233,-110,3,70,-1
4535,-8,-232,-113,3,71,0
4540,-9,-230,-115,5,70,-1
4545,-9,-229,-113,5,71,0
4550,-7,-231,-112,6,69,0
4555,-8,-232,-112,7,70,0
4560,-11,-232,-112,5,69,-1
4565,-9,-232,-114,6,68,-3
4570,-10,-233,-113,6,70,-3
4575,-11,-235,-113,6,71,-2
4580,-12,-233,-111,6,70,-2
4585,-5,-234,-111,5,68,-3
4590,-10,-231,-110,6,68,-2
4595,-8,-233,-113,6,68,-4
4600,-12,-228,-117,6,69,-4
4605,-12,-234,-115,6,70,-4
4610,-10,-234,-111,5,71,-3
4615,-10,-234,-112,5,70,-4
4620,-12,-232,-110,6,71,-3
4625,-11,-233,-110,6,69,-3
4630,-11,-233,-111,6,69,-2
4635,-9,-232,-111,7,69,-3
4640,-8,-230,-109,7,69,-4
4645,-7,-232,-112,5,69,-4
4650,-11,-233,-113,5,67,-2
4655,-10,-230,-109,5,67,-2
4660,-10,-231,-110,5,68,-3
4665,-10,-231,-112,3,67,-2
4670,-12,-231,-115,2,68,-2
4675,-11,-235,-108,2,69,-3
4680,-9,-235,-111,1,70,-3
4685,-7,-233,-109,-1,71,-2
4690,-11,-232,-111,-2,70,-2
4695,-10,-234,-112,-3,70,-2
4700,-8,-234,-110,-4,69,-2
4705,-12,-232,-107,-5,71,-2
4710,-11,-233,-110,-5,72,-1
4715,-10,-232,-110,-5,72,-1
4720,-8,-233,-112,-5,72,-1
4725,-11,-235,-113,-5,73,-2
4730,-7,-239,-115,-6,72,-1
4735,-9,-233,-112,-5,72,-3
4740,-11,-233,-112,-6,70,-2
4745,-10,-231,-113,-4,70,-3
4750,-10,-232,-112,-5,71,-5
4755,-12,-230,-112,-5,70,-3
4760,-9,-234,-114,-5,69,-4
4765,-10,-230,-110,-7,69,-4
4770,-10,-233,-112,-9,69,-5
4775,-8,-232,-111,-11,68,-6
4780,-7,-231,-110,-11,68,-5
4785,-9,-231,-112,-10,69,-8
4790,-8,-236,-114,-11,69,-7
4795,-13,-230,-112,-12,70,-8
4800,-12,-233,-114,-11,69,-8
4805,-9,-232,-113,-12,70,-9
4810,-10,-231,-111,-9,70,-9
4815,-8,-230,-111,-9,69,-9
4820,-10,-231,-114,-9,67,-8
4825,-8,-234,-107,-7,69,-9
4830,-10,-233,-112,-5,70,-10
4835,-11,-234,-109,-4,68,-7
4840,-8,-234,-112,-4,68,-5
4845,-8,-234,-113,-5,67,-4
4850,-9,-232,-109,-7,68,-4
4855,-8,-233,-109,-8,67,-4
4860,-12,-233,-110,-9,69,-5
4865,-8,-232,-109,-14,67,-3
4870,-9,-236,-110,-16,66,-2
4875,-7,-233,-111,-21,65,-2
4880,-10,-231,-106,-24,67,-4
4885,-10,-232,-111,-27,66,-2
4890,-9,-231,-106,-28,66,-3
4895,-11,-230,-107,-28,64,-1
4900,-8,-231,-105,-26,63,-3
4905,-9,-232,-107,-28,61,-3
4910,-13,-231,-108,-31,59,-3
4915,-10,-232,-112,-35,59,-3
4920,-10,-230,-108,-40,59,-2
4925,-17,-234,-106,-46,59,-2
4930,-13,-233,-109,-51,58,-1
4935,-10,-234,-109,-55,59,-2
4940,-11,-236,-107,-57,60,-1
4945,-13,-231,-109,-61,60,-1
4950,-11,-231,-110,-62,60,-1
4955,-12,-228,-111,-64,59,0
4960,-10,-230,-111,-68,60,2
4965,-8,-232,-105,-69,60,2
4970,-7,-231,-112,-72,59,5
4975,-10,-229,-109,-75,59,7
4980,-9,-231,-106,-79,57,9
4985,-7,-232,-102,-82,54,9
4990,-10,-232,-108,-88,50,10
4995,-8,-231,-103,-91,49,8
5000,-5,-231,-108,-95,46,6
5005,-6,-232,-106,-103,41,4
5010,-9,-232,-103,-108,38,3
5015,-9,-231,-108,-115,34,0
5020,-9,-231,-106,-120,32,-2
5025,-14,-228,-111,-128,29,-3
5030,-11,-229,-106,-135,28,-3
5035,-16,-231,-122,-143,29,-5
5040,-10,-231,-105,-152,32,-6
5045,-11,-231,-105,-159,34,-7
5050,-11,-230,-107,-165,37,-7
5055,-10,-231,-110,-171,41,-4
5060,-9,-231,-110,-178,44,-2
5065,-8,-225,-109,-184,47,-2
5070,-12,-228,-111,-190,51,-2
5075,-9,-228,-110,-193,54,-3
5080,-8,-230,-113,-199,58,-2
5085,-9,-225,-114,-207,59,-2
5090,-8,-227,-116,-215,63,-2
5095,-6,-227,-114,-223,65,-1
5100,-8,-226,-116,-233,68,0
5105,-10,-225,-111,-241,70,1
5110,-11,-224,-118,-250,71,1
5115,-9,-228,-116,-256,71,1
5120,-12,-226,-117,-261,72,3
5125,-11,-225,-118,-264,71,6
5130,-7,-225,-117,-267,71,7
5135,-10,-225,-116,-270,71,7
5140,-10,-228,-119,-272,72,7
5145,-10,-219,-113,-276,71,7
5150,-13,-222,-118,-281,68,5
5155,-12,-227,-118,-287,68,5
5160,-11,-224,-117,-294,69,4
5165,-11,-224,-118,-304,68,2
5170,-11,-226,-117,-314,70,0
5175,-13,-224,-118,-326,70,-2
5180,-11,-224,-116,-336,70,-5
5185,-9,-225,-118,-348,70,-4
5190,-9,-226,-117,-358,70,-3
5195,-8,-223,-118,-369,70,-3
5200,-11,-224,-120,-378,70,0
5205,-8,-223,-116,-389,70,1
5210,-11,-227,-118,-400,70,0
5215,-9,-222,-117,-408,70,0
5220,-10,-221,-117,-418,70,3
5225,-8,-223,-117,-428,71,0
5230,-10,-224,-119,-439,72,-1
5235,-9,-223,-121,-450,74,-1
5240,-9,-221,-117,-462,75,-1
5245,-7,-222,-120,-475,75,-2
5250,-15,-217,-112,-488,77,-3
5255,-10,-220,-121,-499,78,-2
5260,-9,-224,-117,-513,78,-2
5265,-9,-223,-118,-525,78,-3
5270,-10,-224,-120,-535,78,-2
5275,-10,-223,-121,-545,77,-2
5280,-12,-220,-124,-555,76,-2
5285,-7,-224,-120,-562,74,-2
5290,-7,-221,-121,-568,73,0
5295,-8,-223,-122,-574,73,1
5300,-9,-222,-127,-579,72,3
5305,-7,-227,-126,-585,71,2
5310,-10,-222,-128,-591,68,4
5315,-8,-220,-126,-596,69,6
5320,-6,-218,-129,-603,67,9
5325,-8,-216,-131,-610,70,11
5330,-9,-216,-130,-619,71,13
5335,-7,-215,-131,-629,74,14
5340,-6,-215,-132,-639,75,16
5345,-8,-212,-136,-648,78,18
5350,-8,-211,-138,-659,81,18
5355,-9,-210,-135,-668,87,22
5360,-12,-209,-140,-681,90,23
5365,-6,-205,-137,-697,95,27
5370,-5,-205,-136,-712,100,30
5375,-7,-203,-138,-729,103,34
5380,-10,-201,-143,-749,107,35
5385,-9,-201,-147,-771,110,38
5390,-10,-197,-146,-794,114,39
5395,-10,-198,-146,-817,119,41
5400,-9,-201,-144,-840,124,41
5405,-9,-198,-147,-860,132,40
5410,-9,-201,-148,-878,138,40
5415,-9,-197,-150,-898,145,40
5420,-10,-200,-148,-916,150,38
5425,-9,-196,-148,-934,152,34
5430,-10,-195,-151,-952,155,34
5435,-7,-197,-153,-972,156,33
5440,-8,-194,-155,-993,157,31
5445,-8,-192,-152,-1012,155,29
5450,-5,-193,-157,-1029,155,28
5455,-9,-190,-160,-1047,154,29
5460,-8,-193,-157,-1065,154,29
5465,-7,-191,-159,-1082,151,31
5470,-17,-194,-159,-1101,150,32
5475,-7,-189,-161,-1119,146,31
5480,-7,-191,-162,-1138,144,30
5485,-6,-188,-165,-1154,140,31
5490,-7,-188,-172,-1167,137,27
5495,-10,-189,-171,-1180,135,24
5500,-9,-184,-174,-1192,136,21
5505,-7,-183,-176,-1204,134,18
5510,-8,-182,-175,-1216,138,16
5515,-7,-180,-181,-1227,141,14
5520,-9,-183,-181,-1236,145,16
5525,-9,-179,-185,-1240,149,19
5530,-9,-181,-185,-1242,153,23
5535,-7,-181,-186,-1242,159,28
5540,-9,-182,-189,-1236,166,32
5545,-8,-182,-193,-1226,171,37
5550,-10,-179,-194,-1212,176,39
5555,-13,-180,-200,-1197,182,41
5560,-12,-181,-201,-1186,189,44
5565,-13,-178,-197,-1177,196,47
5570,-9,-177,-202,-1172,202,49
5575,-9,-169,-198,-1169,207,51
5580,-6,-175,-199,-1165,210,51
5585,-10,-175,-195,-1163,209,55
5590,-7,-177,-197,-1160,206,56
5595,-5,-176,-196,-1159,201,56
5600,-6,-177,-199,-1162,194,55
5605,-9,-182,-199,-1161,185,52
5610,-9,-183,-194,-1157,173,45
5615,-11,-184,-194,-1145,163,39
5620,-14,-184,-196,-1126,152,30
5625,-14,-184,-194,-1101,140,22
5630,-16,-183,-197,-1071,127,16
5635,-16,-180,-197,-1042,115,10
5640,-14,-181,-204,-1017,102,3
5645,-22,-177,-209,-995,85,-2
5650,-19,-171,-214,-971,69,-7
5655,-18,-169,-218,-941,56,-9
5660,-18,-157,-229,-907,45,-8
5665,-19,-153,-234,-873,37,-1
5670,-15,-152,-242,-845,33,11
5675,-12,-146,-250,-824,31,22
5680,-9,-140,-257,-811,30,30
5685,-5,-131,-258,-803,30,38
5690,-3,-133,-270,-796,31,42
5695,1,-130,-272,-791,31,49
5700,0,-131,-277,-783,30,59
5705,3,-129,-282,-771,27,72
5710,5,-128,-280,-756,29,86
5715,6,-129,-282,-741,31,99
5720,6,-133,-284,-729,34,108
5725,8,-134,-285,-717,40,119
5730,8,-138,-283,-707,44,123
5735,10,-147,-281,-704,50,115
5740,12,-159,-276,-715,65,94
5745,8,-167,-272,-740,84,64
5750,5,-176,-272,-770,109,31
5755,2,-181,-270,-802,131,0
5760,-3,-184,-271,-824,143,-23
5765,-4,-183,-271,-828,148,-32
5770,-8,-177,-273,-812,149,-27
5775,-6,-173,-277,-777,149,-9
5780,-4,-168,-278,-725,152,15
5785,0,-170,-279,-658,155,40
5790,2,-167,-279,-581,159,58
5795,-2,-165,-280,-492,163,70
5800,-2,-165,-281,-397,163,79
5805,-2,-158,-286,-301,164,86
5810,-3,-155,-282,-206,166,94
5815,0,-153,-279,-115,169,105
5820,-2,-155,-279,-30,177,120
5825,-2,-153,-279,47,186,134
5830,0,-150,-271,111,193,146
5835,-1,-154,-272,163,204,157
5840,-2,-155,-266,200,213,165
5845,-3,-154,-262,225,220,164
5850,-4,-150,-257,245,222,155
5855,0,-147,-252,265,220,142
5860,-2,-147,-249,287,215,128
5865,-2,-147,-246,315,209,115
5870,-4,-140,-243,349,198,103
5875,-2,-144,-237,375,187,96
5880,-4,-140,-234,406,177,91
5885,-3,-137,-240,437,164,87
5890,-6,-135,-235,462,156,82
5895,-15,-128,-238,484,143,77
5900,-3,-125,-240,507,130,73
5905,-7,-120,-236,527,119,70
5910,-7,-115,-235,547,110,71
5915,-5,-117,-231,568,101,77
5920,-9,-108,-232,583,95,71
5925,-10,-98,-232,595,90,69
5930,-9,-99,-232,601,84,69
5935,-7,-91,-226,606,80,73
5940,-12,-89,-227,608,77,77
5945,-10,-84,-228,608,77,84
5950,-12,-84,-223,606,77,91
5955,-12,-78,-222,604,73,96
5960,-13,-74,-223,600,69,102
5965,-13,-70,-217,595,67,111
5970,-11,-70,-216,591,62,120
5975,-6,-68,-214,590,59,130
5980,-7,-63,-211,593,61,136
5985,-9,-59,-211,601,66,140
5990,-10,-56,-211,612,70,144
5995,-9,-52,-208,619,78,142
6000,-6,-52,-205,628,89,150
6005,-3,-49,-199,621,103,146
6010,-6,-46,-200,611,114,140
6015,-1,-42,-192,595,124,134
6020,-5,-35,-190,572,131,133
6025,-5,-29,-186,545,136,126
6030,-3,-27,-182,514,141,117
6035,-9,-24,-181,477,141,109
6040,-6,-22,-181,433,137,98
6045,-8,-16,-180,387,130,84
6050,-8,-18,-179,337,119,70
6055,-9,-15,-178,286,103,56
6060,-10,-16,-178,237,82,40
6065,-10,-10,-176,190,60,25
6070,-8,-14,-176,152,36,9
6075,-10,-15,-174,120,11,-5
6080,-11,-17,-173,96,-15,-16
6085,-11,-18,-174,80,-40,-26
6090,-14,-17,-171,72,-61,-33
6095,-9,-20,-168,67,-80,-38
6100,-12,-23,-167,63,-92,-40
6105,-12,-21,-168,56,-99,-42
6110,-14,-22,-160,49,-103,-42
6115,-13,-28,-157,40,-101,-44
6120,-14,-30,-157,28,-100,-43
6125,-15,-31,-152,15,-98,-40
6130,-17,-31,-147,1,-98,-39
6135,-17,-34,-149,-16,-98,-38
6140,-15,-34,-144,-32,-99,-39
6145,-12,-35,-146,-50,-105,-38
6150,-15,-35,-143,-72,-113,-41
6155,-12,-36,-143,-97,-122,-46
6160,-15,-34,-144,-124,-131,-52
6165,-9,-36,-145,-154,-139,-56
6170,-12,-38,-149,-187,-144,-61
6175,-8,-39,-153,-224,-147,-67
6180,-8,-38,-158,-263,-145,-72
6185,-7,-43,-159,-306,-135,-77
6190,-7,-49,-164,-345,-125,-83
6195,-2,-49,-173,-380,-115,-89
6200,-2,-52,-175,-409,-107,-99
6205,-2,-57,-182,-429,-103,-107
6210,-3,-65,-186,-438,-103,-119
6215,-1,-70,-183,-435,-108,-133
6220,1,-86,-190,-415,-113,-149
6225,0,-88,-182,-376,-120,-168
6230,-2,-93,-184,-321,-125,-186
6235,-7,-100,-177,-253,-129,-197
6240,-10,-109,-179,-179,-129,-209
6245,-14,-112,-185,-98,-127,-221
6250,-17,-116,-190,-18,-122,-232
6255,-23,-115,-210,51,-117,-247
6260,-27,-109,-233,95,-111,-257
6265,-30,-102,-260,101,-99,-265
6270,-33,-89,-298,69,-75,-261
6275,-29,-88,-320,4,-35,-253
6280,-24,-91,-340,-71,15,-246
6285,-27,-113,-341,-123,60,-249
6290,-21,-131,-339,-109,93,-264
6295,-19,-145,-339,-42,111,-286
6300,-12,-162,-328,65,114,-301
6305,-3,-185,-303,204,101,-309
6310,2,-217,-278,338,77,-307
6315,7,-243,-256,522,42,-301
6320,13,-269,-222,713,1,-294
6325,17,-290,-196,900,-48,-289
6330,18,-296,-166,1074,-84,-282
6335,16,-292,-150,1233,-124,-275
6340,8,-283,-125,1379,-148,-265
6345,3,-276,-114,1508,-151,-251
6350,-4,-263,-106,1611,-130,-240
6355,-12,-255,-111,1676,-94,-239
6360,-18,-256,-115,1693,-49,-248
6365,-28,-282,-127,1683,-9,-274
6370,-37,-352,-129,1686,8,-329
6375,-47,-432,-173,1747,0,-415
6380,-64,-510,-270,1826,-29,-534
6385,-82,-616,-359,1828,-35,-671
6390,-58,-591,-482,1858,-34,-768
6395,-18,-213,-696,1786,38,-771
6400,-11,139,-845,1202,132,-614
6405,-45,287,-885,324,229,-371
6410,-75,229,-773,-409,241,-172
6415,-103,53,-559,-790,167,-6
6420,-71,-138,-387,-680,83,59
6425,-30,-272,-284,-262,18,57
6430,-18,-344,-209,206,-6,106
6435,5,-376,-140,695,-44,183
6440,26,-376,-83,1212,-114,244
6445,54,-355,-57,1706,-192,274
6450,68,-316,-48,2127,-234,270
6455,66,-270,-47,2405,-236,257
6460,48,-227,-73,2472,-203,256
6465,36,-193,-103,2292,-118,260
6470,25,-169,-128,1906,7,240
6475,9,-148,-128,1408,133,180
6480,7,-149,-112,937,217,109
6485,5,-164,-94,593,262,29
6490,1,-187,-74,430,280,-32
6495,-1,-221,-57,450,284,-74
6500,-5,-241,-49,594,283,-99
6505,-4,-257,-45,809,285,-104
6510,-4,-264,-38,1043,283,-91
6515,-13,-257,-34,1217,257,-90
6520,-14,-246,-26,1351,222,-77
6525,-11,-229,-24,1459,182,-45
6530,-9,-212,-25,1547,142,-1
6535,-13,-201,-25,1606,104,42
6540,-15,-191,-31,1631,73,71
6545,-15,-184,-29,1617,51,86
6550,-19,-184,-42,1566,37,83
6555,-23,-189,-49,1484,31,63
6560,-18,-192,-60,1379,31,34
6565,-12,-203,-71,1260,36,1
6570,-2,-216,-83,1137,39,-31
6575,-2,-227,-92,1016,43,-63
6580,1,-235,-113,911,48,-93
6585,3,-247,-119,819,52,-118
6590,10,-256,-129,740,56,-138
6595,16,-265,-135,677,61,-154
6600,24,-273,-142,627,68,-169
6605,29,-272,-146,590,75,-177
6610,33,-274,-148,574,92,-176
6615,33,-271,-150,588,112,-166
6620,35,-264,-147,644,134,-154
6625,28,-258,-143,744,154,-140
6630,18,-252,-139,875,168,-131
6635,16,-246,-136,1014,175,-123
6640,1,-236,-139,1136,180,-124
6645,-5,-223,-131,1224,184,-122
6650,-11,-212,-129,1278,190,-119
6655,-19,-201,-136,1288,198,-118
6660,-23,-194,-135,1258,209,-116
6665,-23,-194,-135,1193,212,-111
6670,-25,-192,-137,1102,211,-110
6675,-26,-195,-134,1000,200,-110
6680,-20,-197,-136,897,185,-114
6685,-22,-199,-136,801,162,-120
6690,-20,-200,-139,707,126,-112
6695,-17,-205,-133,617,95,-105
6700,-16,-202,-132,537,71,-98
6705,-13,-205,-123,480,61,-86
6710,-12,-207,-117,449,58,-73
6715,-13,-208,-107,440,67,-63
6720,-11,-210,-99,447,84,-59
6725,-6,-208,-97,462,104,-49
6730,-7,-209,-94,473,126,-47
6735,-6,-208,-94,472,145,-59
6740,-7,-207,-92,463,155,-69
6745,-3,-207,-90,451,156,-75
6750,0,-208,-96,426,154,-75
6755,1,-207,-96,393,149,-72
6760,5,-207,-104,351,143,-66
6765,4,-214,-102,305,132,-60
6770,3,-216,-104,259,122,-54
6775,2,-217,-105,215,114,-44
6780,6,-219,-101,178,110,-34
6785,1,-223,-105,152,107,-24
6790,0,-228,-102,134,106,-13
6795,0,-231,-105,127,105,-1
6800,-9,-231,-104,122,100,13
6805,-9,-237,-106,120,95,25
6810,-8,-238,-101,119,90,38
6815,-7,-241,-98,119,83,51
6820,-11,-239,-103,123,75,61
6825,-11,-239,-99,126,66,72
6830,-11,-240,-102,130,58,80
6835,-7,-239,-104,132,50,84
6840,-7,-237,-103,134,41,84
6845,-3,-238,-100,136,36,85
6850,-3,-237,-101,134,35,82
6855,-3,-238,-106,131,37,78
6860,0,-239,-100,125,41,75
6865,1,-238,-102,119,47,71
6870,-2,-243,-104,113,52,65
6875,0,-240,-99,110,59,61
6880,2,-242,-98,108,68,56
6885,1,-238,-98,108,75,55
6890,2,-242,-99,109,83,53
6895,1,-240,-100,113,90,51
6900,1,-241,-97,114,96,52
6905,1,-239,-96,115,100,53
6910,-2,-241,-95,118,108,56
6915,-2,-238,-96,120,111,59
6920,-4,-239,-96,121,116,62
6925,-3,-237,-93,119,117,64
6930,-2,-238,-95,114,116,63
6935,-3,-237,-92,106,115,59
6940,-3,-239,-93,96,111,57
6945,-4,-238,-94,82,106,55
6950,-2,-236,-99,65,101,56
6955,-2,-238,-94,47,97,57
6960,-2,-237,-99,29,93,58
6965,-2,-238,-99,18,89,62
6970,-2,-236,-100,10,85,64
6975,0,-240,-105,10,79,67
6980,-3,-239,-102,18,77,70
6985,-4,-242,-97,31,74,73
6990,-1,-237,-107,46,70,74
6995,-3,-237,-104,59,67,76
7000,0,-234,-108,70,64,76
7005,-2,-234,-114,76,63,75
7010,0,-233,-113,78,66,74
7015,-2,-233,-107,72,72,71
7020,0,-233,-111,63,81,67
7025,1,-236,-108,51,92,62
7030,2,-236,-109,38,103,55
7035,4,-236,-107,28,113,47
7040,2,-238,-103,24,121,38
7045,2,-239,-104,27,129,28
7050,0,-238,-100,37,134,23
7055,0,-239,-99,54,137,21
7060,-2,-238,-99,64,135,11
7065,-3,-240,-97,70,134,5
7070,-7,-236,-97,74,127,4
7075,-7,-236,-94,73,123,0
7080,-13,-234,-96,69,119,3
7085,-11,-232,-92,62,110,8
7090,-6,-228,-82,52,103,13
7095,-13,-231,-89,39,91,17
7100,-17,-232,-90,25,77,20
7105,-15,-234,-90,14,59,23
7110,-15,-238,-89,0,44,25
7115,-12,-235,-91,-11,29,23
7120,-11,-239,-92,-20,17,23
7125,-15,-239,-94,-28,8,19
7130,-9,-244,-93,-32,3,14
7135,-5,-239,-96,-33,1,11
7140,-6,-241,-95,-34,2,6
7145,-7,-240,-99,-32,2,4
7150,-5,-241,-100,-31,6,0
7155,-7,-241,-97,-30,9,-1
7160,-5,-244,-99,-29,14,-1
7165,-3,-242,-98,-27,18,-1
7170,0,-246,-100,-25,24,2
7175,-1,-246,-102,-25,27,5
7180,0,-243,-96,-26,33,8
7185,0,-244,-98,-26,40,9
7190,-1,-242,-98,-26,45,12
7195,-1,-234,-100,-26,51,13
7200,-5,-242,-99,-24,54,14
7205,-5,-241,-99,-19,58,14
7210,-5,-239,-102,-15,59,12
7215,-8,-237,-96,-9,62,10
7220,-8,-235,-99,-3,63,6
7225,-8,-237,-95,1,64,2
7230,-9,-231,-97,2,64,-1
7235,-7,-232,-100,1,63,-3
7240,-13,-232,-101,-2,60,-3
7245,-14,-231,-100,-6,61,-2
7250,-10,-235,-99,-12,60,0
7255,-11,-233,-100,-18,58,3
7260,-8,-233,-102,-25,58,7
7265,-9,-237,-98,-30,57,12
7270,-13,-233,-100,-37,56,16
7275,-10,-232,-104,-43,55,20
7280,-10,-240,-97,-47,55,23
7285,-8,-234,-102,-50,55,26
7290,-8,-235,-98,-52,55,29
7295,-9,-237,-98,-51,54,31
7300,-10,-237,-102,-52,55,33
7305,-7,-233,-102,-52,54,34
7310,-7,-236,-102,-53,56,35
7315,-13,-234,-101,-53,56,36
7320,-10,-236,-102,-54,55,38
7325,-14,-236,-101,-56,54,38
7330,-12,-237,-96,-57,52,40
7335,-13,-235,-98,-59,48,38
7340,-15,-234,-99,-60,45,41
7345,-11,-237,-101,-64,42,41
7350,-15,-235,-100,-65,38,41
7355,-16,-237,-94,-71,35,41
7360,-18,-237,-97,-72,30,42
7365,-18,-236,-100,-72,27,42
7370,-15,-233,-101,-74,23,42
7375,-16,-236,-102,-76,20,41
7380,-17,-234,-101,-77,15,40
7385,-15,-233,-98,-79,14,38
7390,-13,-234,-102,-83,12,37
7395,-9,-236,-103,-85,13,32
7400,-9,-238,-103,-88,13,29
7405,-8,-240,-104,-90,16,24
7410,-8,-236,-101,-92,23,20
7415,-4,-241,-104,-94,30,15
7420,-5,-239,-103,-95,36,10
7425,-4,-240,-98,-95,43,5
7430,-4,-237,-103,-94,53,2
7435,0,-239,-103,-94,62,0
7440,-3,-239,-104,-92,69,-3
7445,-2,-239,-103,-91,76,-7
7450,-6,-236,-100,-89,82,-9
7455,-4,-235,-98,-88,87,-9
7460,-9,-236,-102,-85,89,-9
7465,-11,-237,-103,-82,88,-8
7470,-9,-237,-99,-81,88,-4
7475,-9,-237,-104,-82,87,-3
7480,-12,-238,-97,-81,85,0
7485,-11,-240,-100,-83,81,2
7490,-12,-237,-94,-84,78,6
7495,-12,-237,-103,-85,75,10
7500,-13,-238,-103,-88,73,13
7505,-11,-238,-101,-87,71,18
7510,-9,-238,-102,-89,73,19
7515,-6,-235,-103,-90,76,20
7520,-5,-237,-105,-89,77,23
7525,-10,-243,-109,-90,82,22
7530,-7,-236,-106,-91,84,22
7535,-3,-242,-105,-89,88,22
7540,-4,-239,-106,-87,92,20
7545,0,-239,-102,-87,95,19
7550,-4,-237,-104,-83,98,20
7555,-5,-241,-103,-80,99,20
7560,-5,-241,-104,-74,104,20
7565,-6,-241,-105,-70,106,18
7570,-4,-240,-109,-66,109,18
7575,-8,-239,-108,-61,110,16
7580,-6,-238,-108,-57,109,14
7585,-3,-239,-105,-52,108,13
7590,-3,-235,-108,-50,105,11
7595,-7,-235,-107,-47,101,11
7600,-12,-233,-103,-46,96,10
7605,-7,-230,-105,-46,91,9
7610,-9,-230,-105,-48,87,9
7615,-10,-235,-105,-52,81,6
7620,-11,-234,-104,-57,77,6
7625,-13,-232,-107,-62,74,6
7630,-11,-235,-106,-66,72,7
7635,-19,-225,-111,-69,72,6
7640,-13,-233,-105,-71,74,8
7645,-14,-231,-103,-75,75,8
7650,-13,-235,-107,-78,77,10
7655,-12,-233,-104,-79,79,10
7660,-11,-235,-108,-81,80,10
7665,-10,-237,-107,-80,82,9
7670,-13,-234,-106,-80,83,9
7675,-10,-235,-107,-78,86,8
7680,-10,-235,-105,-77,87,7
7685,-9,-235,-108,-75,88,7
7690,-9,-235,-106,-72,90,9
7695,-8,-236,-109,-69,93,7
7700,-7,-237,-108,-65,95,8
7705,-7,-235,-107,-62,97,7
7710,-8,-233,-105,-59,97,8
7715,-9,-234,-109,-55,100,8
7720,-7,-237,-105,-53,102,9
7725,-9,-232,-106,-51,103,10
7730,-8,-236,-108,-49,103,11
7735,-7,-237,-107,-48,105,12
7740,-12,-231,-108,-46,106,13
7745,-10,-233,-107,-46,106,13
7750,-6,-234,-108,-46,106,14
7755,-7,-232,-109,-46,103,13
7760,-8,-231,-108,-46,103,14
7765,-9,-233,-104,-46,102,14
7770,-7,-233,-108,-47,100,14
7775,-8,-230,-105,-47,98,15
7780,-10,-233,-108,-48,98,15
7785,-8,-230,-105,-51,99,15
7790,-9,-234,-109,-55,98,15
7795,-11,-234,-109,-59,100,17
7800,-11,-234,-108,-60,97,17
7805,-10,-234,-105,-62,95,15
7810,-14,-234,-105,-63,94,17
7815,-10,-239,-109,-62,95,17
7820,-12,-236,-104,-59,94,17
7825,-13,-238,-109,-58,95,18
7830,-10,-237,-107,-54,95,17
7835,-9,-239,-111,-50,96,17
7840,-11,-238,-103,-45,98,17
7845,-10,-235,-111,-41,99,17
7850,-3,-235,-100,-36,100,18
7855,-11,-236,-111,-33,101,19
7860,-9,-235,-107,-31,103,19
7865,-9,-234,-109,-31,104,18
7870,-9,-235,-109,-29,107,20
7875,-10,-233,-112,-30,107,20
7880,-9,-231,-111,-31,107,19
7885,-11,-230,-107,-33,106,20
7890,-7,-232,-113,-33,103,19
7895,-7,-233,-108,-36,100,17
7900,-9,-235,-106,-39,98,16
7905,-9,-233,-110,-40,95,13
7910,-10,-235,-107,-43,91,11
7915,-12,-236,-106,-45,89,11
7920,-11,-234,-110,-47,85,11
7925,-8,-236,-109,-48,85,11
7930,-14,-235,-107,-47,85,12
7935,-11,-236,-112,-46,84,14
7940,-11,-234,-107,-43,85,16
7945,-14,-236,-108,-40,84,16
7950,-13,-234,-107,-39,84,17
7955,-14,-233,-112,-38,82,17
7960,-15,-232,-108,-36,82,18
7965,-10,-231,-109,-34,80,16
7970,-11,-233,-109,-35,80,16
7975,-13,-234,-110,-36,78,14
7980,-9,-233,-106,-35,76,13
7985,-12,-230,-112,-36,73,12
7990,-9,-231,-110,-36,72,9
7995,-15,-227,-109,-36,72,9
8000,-8,-231,-112,-37,72,7
8005,-15,-236,-110,-36,73,9
8010,-11,-237,-112,-36,74,6
8015,-10,-232,-113,-36,75,7
8020,-9,-235,-110,-36,76,6
8025,-7,-236,-107,-36,81,8
8030,-11,-234,-109,-37,82,6
8035,-8,-233,-109,-35,85,6
8040,-9,-232,-108,-34,86,6
8045,-9,-238,-110,-32,87,5
8050,-12,-234,-108,-31,87,5
8055,-11,-232,-112,-31,89,3
8060,-10,-232,-110,-30,89,2
8065,-9,-235,-108,-31,87,2
8070,-9,-236,-117,-30,85,2
8075,-12,-231,-110,-30,84,3
8080,-12,-234,-107,-32,80,3
8085,-10,-232,-108,-33,78,2
8090,-9,-235,-109,-35,76,3
8095,-11,-232,-107,-38,75,3
8100,-12,-235,-108,-39,70,4
8105,-12,-234,-110,-41,67,1
8110,-12,-233,-111,-44,62,0
8115,-11,-233,-108,-45,60,-1
8120,-10,-234,-114,-47,57,-2
8125,-9,-234,-111,-48,54,-3
8130,-11,-232,-110,-50,52,-4
8135,-9,-230,-107,-52,50,-4
8140,-10,-230,-111,-54,49,-5
8145,-10,-232,-110,-56,49,-8
8150,-8,-231,-109,-60,49,-9
8155,-11,-232,-110,-63,50,-8
8160,-8,-230,-112,-69,53,-9
8165,-11,-231,-114,-75,57,-10
8170,-5,-234,-114,-78,58,-11
8175,-8,-232,-113,-82,60,-11
8180,-14,-232,-105,-85,63,-9
8185,-10,-231,-110,-88,67,-9
8190,-10,-235,-112,-89,67,-10
8195,-11,-232,-111,-90,68,-7
8200,-12,-232,-118,-90,70,-7
8205,-10,-234,-113,-88,71,-6
8210,-10,-232,-107,-87,72,-5
8215,-8,-233,-111,-87,74,-3
8220,-11,-233,-111,-87,75,-2
8225,-11,-235,-114,-86,75,-3
8230,-7,-233,-110,-88,74,0
8235,-9,-229,-110,-89,74,0
8240,-10,-232,-115,-88,73,0
8245,-11,-233,-110,-89,73,-1
8250,-12,-231,-110,-91,73,1
8255,-8,-233,-111,-92,71,1
8260,-12,-231,-111,-92,72,1
8265,-9,-230,-113,-93,70,0
8270,-10,-232,-115,-94,70,-1
8275,-10,-229,-114,-94,69,-1
8280,-12,-232,-112,-93,69,0
8285,-11,-233,-108,-93,69,1
8290,-11,-232,-109,-90,70,0
8295,-9,-233,-114,-88,68,1
8300,-12,-232,-113,-83,66,1
8305,-9,-232,-113,-81,64,2
8310,-11,-232,-111,-79,62,4
8315,-10,-233,-111,-75,60,5
8320,-9,-232,-113,-73,58,4
8325,-10,-233,-112,-69,58,5
8330,-11,-233,-112,-65,56,4
8335,-12,-233,-115,-64,54,4
8340,-10,-235,-116,-63,55,5
8345,-9,-233,-114,-61,56,5
8350,-10,-233,-116,-56,57,6
8355,-12,-232,-118,-53,59,4
8360,-12,-230,-117,-51,61,4
8365,-9,-232,-114,-47,62,4
8370,-11,-229,-114,-45,64,4
8375,-9,-233,-114,-44,66,2
8380,-11,-228,-115,-45,66,1
8385,-10,-232,-118,-45,68,0
8390,-9,-227,-113,-43,70,-1
8395,-3,-231,-125,-46,70,-2
8400,-8,-231,-118,-48,69,-4
8405,-8,-229,-112,-49,71,-3
8410,-10,-229,-121,-51,69,-4
8415,-11,-232,-117,-54,69,-3
8420,-10,-231,-114,-58,69,-4
8425,-11,-228,-114,-60,68,-5
8430,-10,-235,-114,-62,67,-5
8435,-12,-233,-116,-65,68,-4
8440,-12,-233,-114,-65,65,-6
8445,-14,-230,-117,-65,65,-5
8450,-12,-228,-118,-64,63,-4
8455,-11,-231,-117,-61,62,-5
8460,-14,-229,-114,-58,62,-5
8465,-11,-228,-117,-55,60,-5
8470,-8,-229,-118,-53,59,-5
8475,-12,-230,-113,-53,59,-4
8480,-11,-229,-118,-53,58,-6
8485,-9,-234,-116,-54,58,-7
8490,-10,-231,-113,-54,58,-8
8495,-8,-229,-119,-54,60,-10
8500,-12,-231,-117,-54,61,-10
8505,-6,-226,-114,-52,63,-12
8510,-7,-231,-118,-50,65,-13
8515,-7,-231,-118,-50,66,-14
8520,-6,-230,-117,-50,66,-13
8525,-5,-234,-119,-48,65,-14
8530,-8,-231,-117,-46,66,-14
8535,-12,-229,-115,-47,66,-15
8540,-9,-233,-118,-46,67,-16
8545,-14,-231,-116,-45,67,-16
8550,-11,-231,-117,-43,66,-17
8555,-11,-232,-120,-43,66,-15
8560,-10,-228,-112,-43,65,-15
8565,-10,-232,-114,-43,65,-15
8570,-9,-229,-114,-43,64,-17
8575,-10,-229,-117,-43,63,-16
8580,-8,-229,-116,-44,62,-16
8585,-13,-230,-119,-45,60,-16
8590,-10,-229,-117,-44,59,-13
8595,-8,-227,-114,-45,58,-13
8600,-12,-231,-117,-47,58,-14
8605,-7,-230,-114,-48,58,-13
8610,-11,-229,-113,-50,59,-12
8615,-16,-227,-125,-49,58,-12
8620,-13,-228,-117,-50,61,-12
8625,-7,-229,-123,-48,63,-11
8630,-9,-227,-116,-48,65,-11
8635,-11,-229,-118,-47,65,-11
8640,-10,-230,-116,-46,66,-10
8645,-6,-228,-117,-47,69,-11
8650,-9,-230,-118,-47,71,-13
8655,-7,-232,-119,-47,72,-11
8660,-10,-228,-120,-48,73,-11
8665,-8,-230,-116,-49,73,-13
8670,-11,-232,-115,-48,76,-13
8675,-9,-229,-121,-49,76,-12
8680,-6,-231,-120,-47,77,-13
8685,-9,-229,-117,-47,78,-12
8690,-11,-229,-117,-47,78,-13
8695,-8,-229,-120,-49,78,-13
8700,-9,-233,-115,-51,78,-14
8705,-8,-232,-116,-51,80,-12
8710,-8,-229,-119,-53,79,-13
8715,-10,-230,-119,-54,78,-14
8720,-7,-232,-119,-53,78,-14
8725,-11,-227,-119,-52,78,-12
8730,-10,-231,-117,-50,76,-14
8735,-7,-230,-117,-47,75,-13
8740,-11,-228,-118,-44,75,-10
8745,-8,-232,-117,-44,73,-10
8750,-10,-228,-119,-44,72,-11
8755,-11,-232,-115,-44,72,-9
8760,-10,-229,-120,-45,70,-7
8765,-13,-227,-119,-47,69,-8
8770,-6,-229,-119,-47,68,-6
8775,-10,-231,-116,-47,68,-6
8780,-5,-230,-116,-47,68,-5
8785,-9,-229,-125,-48,68,-4
8790,-11,-225,-116,-47,67,-4
8795,-9,-229,-120,-46,69,-5
8800,-11,-232,-119,-45,66,-4
8805,-9,-229,-119,-44,67,-4
8810,-9,-229,-117,-42,67,-4
8815,-7,-227,-120,-41,66,-4
8820,-11,-230,-120,-41,65,-3
8825,-7,-227,-122,-41,63,-3
8830,-10,-228,-125,-44,62,-5
8835,-11,-227,-117,-45,61,-6
8840,-10,-226,-118,-47,63,-5
8845,-8,-228,-120,-50,60,-5
8850,-12,-226,-116,-53,60,-7
8855,-8,-229,-120,-56,60,-7
8860,-8,-228,-122,-59,60,-9
8865,-10,-227,-119,-60,60,-12
8870,-9,-229,-119,-61,60,-11
8875,-9,-229,-118,-62,61,-11
8880,-10,-230,-117,-62,59,-13
8885,-9,-228,-119,-61,58,-13
8890,-11,-227,-122,-61,58,-13
8895,-10,-228,-118,-57,57,-14
8900,-13,-226,-122,-57,56,-12
8905,-8,-228,-123,-54,55,-12
8910,-10,-227,-124,-53,57,-9
8915,-10,-229,-120,-49,57,-9
8920,-10,-227,-124,-45,57,-7
8925,-11,-226,-124,-44,56,-7
8930,-10,-224,-121,-44,56,-8
8935,-9,-230,-122,-43,56,-8
8940,-4,-224,-126,-44,55,-7
8945,-11,-225,-120,-45,55,-6
8950,-9,-227,-120,-46,56,-5
8955,-10,-227,-122,-48,56,-5
8960,-9,-230,-122,-48,55,-5
8965,-8,-231,-120,-50,55,-4
8970,-7,-228,-124,-50,56,-1
8975,-10,-228,-123,-50,54,1
8980,-8,-231,-122,-48,55,3
8985,-8,-227,-123,-46,57,3
8990,-9,-228,-124,-43,57,7
8995,-10,-231,-122,-41,58,6
9000,-4,-233,-120,-36,58,5
9005,-10,-226,-121,-32,59,6
9010,-9,-228,-122,-29,58,4
9015,-10,-227,-122,-25,58,4
9020,-8,-226,-124,-23,57,2
9025,-8,-227,-122,-20,56,0
9030,-9,-227,-118,-18,56,0
9035,-7,-227,-119,-15,56,-2
9040,-8,-228,-126,-14,58,-3
9045,-8,-228,-120,-11,58,-2
9050,-12,-235,-113,-8,57,-4
9055,-10,-223,-124,-7,58,-4
9060,-9,-226,-122,-5,59,-5
9065,-11,-227,-122,-3,59,-4
9070,-9,-228,-124,-4,60,-2
9075,-6,-229,-124,-3,60,-4
9080,-7,-227,-117,-1,59,-1
9085,-8,-226,-124,-2,61,2
9090,-11,-225,-121,-1,62,2
9095,-12,-229,-120,-1,62,2
9100,-14,-228,-124,-2,63,4
9105,-10,-232,-122,-4,65,5
9110,-7,-227,-123,-5,65,6
9115,-9,-230,-118,-6,66,8
9120,-8,-227,-121,-4,67,9
9125,-11,-226,-125,-2,66,10
9130,-10,-225,-129,1,64,11
9135,-11,-228,-120,3,65,12
9140,-11,-226,-122,5,65,9
9145,-9,-227,-122,4,65,9
9150,-9,-223,-120,1,64,7
9155,-9,-224,-121,-4,64,7
9160,-6,-226,-126,-8,64,6
9165,-8,-227,-123,-13,66,7
9170,-9,-230,-122,-14,68,5
9175,-11,-232,-125,-16,70,5
9180,-6,-226,-120,-15,71,5
9185,-7,-229,-125,-12,73,5
9190,-5,-230,-121,-9,72,6
9195,-9,-229,-121,-6,74,7
9200,-9,-229,-123,-3,74,7
9205,-13,-228,-120,-2,73,8
9210,-11,-229,-121,0,71,6
9215,-12,-227,-122,-1,70,6
9220,-9,-230,-121,-2,68,5
9225,-8,-230,-123,-3,68,6
9230,-11,-230,-119,-5,67,7
9235,-12,-226,-116,-6,67,6
9240,-12,-228,-115,-6,67,5
9245,-14,-228,-124,-8,68,5
9250,-11,-228,-117,-9,68,6
9255,-9,-232,-123,-9,67,4
9260,-14,-226,-121,-7,68,4
9265,-11,-225,-116,-6,69,3
9270,-11,-229,-117,-6,70,4
9275,-11,-228,-120,-7,69,4
9280,-12,-226,-122,-4,70,4
9285,-11,-229,-120,-6,71,3
9290,-10,-227,-122,-5,71,2
9295,-11,-226,-119,-9,71,2
9300,-10,-226,-120,-9,71,3
9305,-8,-226,-119,-9,70,1
9310,-9,-227,-119,-10,70,1
9315,-10,-228,-122,-11,72,0
9320,-11,-226,-124,-12,71,1
9325,-8,-228,-122,-11,71,0
9330,-10,-226,-120,-12,69,0
9335,-10,-227,-122,-11,67,-1
9340,-8,-229,-119,-11,66,-1
9345,-8,-226,-117,-12,66,-2
9350,-11,-229,-118,-12,65,-1
9355,-10,-230,-120,-13,63,-2
9360,-12,-226,-121,-13,63,-3
9365,-14,-227,-120,-13,62,-4
9370,-10,-228,-121,-12,62,-4
9375,-11,-231,-119,-11,60,-5
9380,-10,-226,-120,-11,60,-6
9385,-11,-231,-121,-10,62,-5
9390,-10,-226,-120,-8,61,-5
9395,-12,-228,-121,-8,63,-5
9400,-9,-231,-122,-6,64,-5
9405,-9,-229,-123,-5,65,-6
9410,-13,-225,-119,-4,65,-6
9415,-11,-227,-121,-4,67,-6
9420,-12,-228,-122,-4,66,-6
9425,-13,-226,-121,-4,66,-6
9430,-9,-229,-119,-6,66,-6
9435,-12,-227,-118,-8,65,-9
9440,-8,-228,-119,-11,63,-8
9445,-9,-227,-122,-12,64,-7
9450,-10,-227,-117,-16,63,-8
9455,-12,-225,-120,-17,62,-7
9460,-13,-226,-118,-20,64,-7
9465,-11,-229,-118,-21,65,-6
9470,-9,-229,-120,-20,65,-6
9475,-9,-229,-117,-19,65,-7
9480,-8,-231,-122,-20,67,-7
9485,-9,-231,-119,-20,66,-6
9490,-10,-228,-119,-19,67,-7
9495,-8,-229,-121,-16,66,-6
9500,-9,-228,-118,-14,67,-6
9505,-10,-228,-125,-13,66,-6
9510,-8,-229,-120,-11,68,-7
9515,-9,-227,-122,-12,66,-7
9520,-13,-227,-122,-13,66,-6
9525,-11,-227,-123,-12,66,-6
9530,-8,-227,-121,-13,66,-7
9535,-12,-223,-118,-14,66,-6
9540,-11,-226,-120,-17,67,-6
9545,-10,-227,-123,-18,67,-5
9550,-9,-228,-122,-17,68,-6
9555,-9,-227,-118,-18,70,-5
9560,-12,-228,-118,-18,69,-5
9565,-10,-228,-117,-17,70,-6
9570,-13,-230,-120,-16,72,-7
9575,-11,-230,-120,-17,71,-6
9580,-12,-226,-118,-18,71,-6
9585,-9,-228,-118,-17,71,-6
9590,-12,-228,-119,-19,72,-6
9595,-6,-230,-127,-22,72,-6
9600,-12,-224,-117,-21,71,-6
9605,-10,-233,-121,-22,72,-6
9610,-14,-226,-122,-21,72,-9
9615,-10,-230,-121,-22,71,-9
9620,-9,-227,-122,-22,70,-8
9625,-10,-230,-121,-22,71,-8
9630,-9,-229,-120,-19,71,-10
9635,-6,-227,-122,-19,72,-9
9640,-9,-225,-121,-19,71,-8
9645,-11,-231,-122,-19,70,-8
9650,-12,-227,-122,-20,70,-8
9655,-13,-230,-120,-19,70,-9
9660,-13,-228,-124,-20,70,-9
9665,-9,-228,-119,-20,70,-7
9670,-11,-230,-117,-21,70,-7
9675,-13,-226,-124,-21,73,-9
9680,-11,-228,-121,-20,72,-8
9685,-12,-227,-122,-20,72,-8
9690,-13,-226,-122,-20,74,-8
9695,-12,-225,-122,-21,73,-7
9700,-10,-231,-120,-21,73,-10
9705,-6,-225,-112,-20,73,-9
9710,-13,-229,-123,-21,73,-8
9715,-11,-227,-119,-19,73,-9
9720,-8,-227,-119,-18,73,-9
9725,-13,-225,-121,-16,73,-9
9730,-10,-227,-120,-17,73,-9
9735,-14,-226,-122,-16,73,-9
9740,-10,-226,-119,-16,74,-9
9745,-10,-228,-124,-15,74,-9
9750,-8,-227,-121,-14,74,-8
9755,-10,-225,-120,-15,75,-9
9760,-7,-227,-125,-14,74,-10
9765,-8,-228,-118,-14,74,-10
9770,-11,-227,-121,-15,74,-10
9775,-9,-226,-121,-16,73,-11
9780,-8,-229,-123,-18,72,-10
9785,-9,-227,-121,-18,70,-12
9790,-9,-230,-120,-20,71,-11
9795,-9,-229,-118,-22,70,-12
9800,-11,-227,-121,-24,70,-12
9805,-13,-229,-123,-24,71,-12
9810,-11,-232,-123,-24,70,-10
9815,-10,-227,-120,-22,71,-10
9820,-8,-230,-121,-20,72,-11
9825,-11,-228,-122,-17,72,-10
9830,-13,-226,-123,-13,71,-8
9835,-9,-228,-122,-10,72,-9
9840,-7,-230,-121,-8,71,-9
9845,-10,-225,-120,-6,70,-9
9850,-11,-223,-122,-6,69,-9
9855,-8,-227,-123,-8,68,-10
9860,-10,-227,-122,-10,69,-11
9865,-9,-225,-123,-14,69,-13
9870,-12,-224,-123,-17,69,-14
9875,-8,-229,-118,-16,69,-14
9880,-11,-226,-124,-16,70,-13
9885,-10,-229,-120,-14,69,-13
9890,-10,-227,-121,-11,70,-14
9895,-11,-229,-118,-7,71,-15
9900,-11,-232,-121,-3,71,-15
9905,-10,-229,-120,0,71,-15
9910,-10,-225,-123,3,70,-16
9915,-8,-230,-122,5,69,-16
9920,-11,-223,-116,5,69,-15
9925,-9,-227,-120,6,68,-15
9930,-9,-227,-119,6,67,-14
9935,-8,-228,-121,5,68,-13
9940,-11,-226,-118,7,67,-12
9945,-10,-230,-120,7,67,-10
9950,-12,-227,-120,6,66,-11
9955,-12,-227,-121,5,67,-10
9960,-9,-229,-120,6,68,-10
9965,-7,-228,-122,6,67,-10
9970,-9,-226,-120,7,69,-10
9975,-9,-227,-124,8,69,-8
9980,-9,-227,-121,10,69,-9
9985,-9,-227,-123,11,69,-8
9990,-7,-228,-123,12,69,-7
9995,-11,-224,-121,14,69,-7
10000,-11,-227,-119,13,70,-8
10005,-7,-226,-119,12,70,-8
10010,-8,-228,-122,13,72,-9
10015,-9,-229,-119,12,72,-11
10020,-9,-228,-119,12,70,-10
10025,-11,-228,-121,10,70,-10
10030,-2,-232,-117,11,70,-10
10035,-10,-230,-124,10,69,-11
10040,-10,-227,-120,10,68,-11
10045,-10,-226,-117,9,67,-12
10050,-10,-230,-120,11,68,-12
10055,-10,-226,-120,10,68,-12
10060,-7,-229,-118,10,65,-11
10065,-9,-227,-119,11,65,-13
10070,-11,-230,-119,11,66,-13
10075,-9,-228,-119,11,66,-13
10080,-8,-229,-117,10,67,-12
10085,-9,-225,-120,10,66,-11
10090,-10,-226,-120,13,67,-12
10095,-9,-232,-122,12,67,-11
10100,-9,-227,-120,13,68,-9
10105,-7,-229,-115,13,68,-9
10110,-9,-226,-119,14,69,-10
10115,-10,-234,-115,14,69,-9
10120,-7,-228,-120,15,70,-8
10125,-8,-226,-121,16,69,-8
10130,-8,-228,-117,16,70,-8
10135,-9,-230,-118,16,70,-7
10140,-7,-229,-119,15,71,-6
10145,-5,-232,-121,13,70,-6
10150,-9,-230,-118,11,70,-6
10155,-10,-230,-120,10,69,-6
10160,-8,-230,-117,9,68,-5
10165,-9,-228,-115,7,68,-4
10170,-7,-228,-117,7,70,-4
10175,-10,-228,-117,7,70,-5
10180,-9,-230,-120,7,71,-5
10185,-10,-228,-117,9,71,-3
10190,-8,-228,-120,8,71,-2
10195,-8,-231,-116,7,71,-1
10200,-6,-231,-119,7,69,-3
10205,-8,-228,-118,7,71,-4
10210,-8,-231,-116,7,69,-4
10215,-7,-228,-120,9,69,-4
10220,-8,-229,-119,11,69,-3
10225,-8,-227,-118,11,69,-3
10230,-10,-229,-122,11,70,-3
10235,-10,-229,-117,11,68,-3
10240,-5,-231,-117,10,68,-2
10245,-8,-229,-119,9,68,-3
10250,-13,-229,-114,9,67,-1
10255,-8,-229,-116,6,69,-2
10260,-9,-228,-116,6,68,0
10265,-9,-232,-119,6,67,-1
10270,-7,-229,-117,5,67,-1
10275,-12,-226,-120,5,67,-1
10280,-8,-230,-118,4,67,-2
10285,-8,-229,-116,5,67,-1
10290,-7,-230,-116,3,67,-1
10295,-11,-228,-117,4,67,1
10300,-7,-229,-114,3,68,1
10305,-10,-227,-118,2,69,2
10310,-7,-230,-119,1,70,3
10315,-6,-231,-118,0,70,5
10320,-4,-231,-118,-2,70,6
10325,-10,-229,-121,-2,72,6
10330,-7,-230,-118,-4,71,6
10335,-7,-228,-121,-4,71,11
10340,-5,-229,-118,-2,71,11
10345,-11,-229,-119,-3,72,10
10350,-7,-231,-120,-4,70,12
10355,-7,-236,-131,-4,70,13
10360,-6,-231,-122,-3,71,15
10365,-7,-232,-120,-1,70,16
10370,-10,-231,-121,-1,70,18
10375,-5,-231,-121,1,72,19
10380,-9,-233,-121,3,70,20
10385,-11,-228,-118,6,71,22
10390,-11,-229,-119,7,73,22
10395,-11,-230,-120,8,72,22
10400,-12,-226,-116,9,71,22
10405,-11,-229,-120,9,72,22
10410,-10,-230,-116,8,70,21
10415,-10,-230,-115,8,70,19
10420,-11,-227,-117,7,68,18
10425,-8,-229,-117,8,67,17
10430,-6,-230,-120,5,67,15
10435,-12,-229,-115,3,67,13
10440,-11,-229,-118,3,66,11
10445,-9,-225,-118,0,64,10
10450,-10,-223,-118,-2,64,9
10455,-9,-229,-115,-2,64,6
10460,-9,-229,-115,-2,63,4
10465,-14,-232,-117,-3,61,4
10470,-9,-228,-118,-2,60,4
10475,-9,-229,-119,-3,59,3
10480,-9,-230,-116,-3,59,3
10485,-10,-228,-120,-2,60,3
10490,-9,-229,-120,-3,59,2
10495,-11,-232,-118,-4,58,3
10500,-11,-229,-115,-4,56,3
10505,-11,-231,-117,-5,54,4
10510,-14,-231,-117,-5,53,4
10515,-7,-230,-116,-6,51,4
10520,-12,-228,-106,-5,51,5
10525,-10,-231,-116,-3,48,4
10530,-6,-231,-117,-4,48,4
10535,-9,-228,-120,-4,47,4
10540,-10,-228,-114,-4,47,6
10545,-9,-231,-116,-4,47,5
10550,-9,-228,-115,-4,46,5
10555,-12,-231,-116,-5,47,6
10560,-9,-229,-119,-6,46,5
10565,-8,-232,-118,-6,47,7
10570,-9,-231,-117,-8,47,7
10575,-13,-232,-117,-5,50,7
10580,-11,-230,-120,-5,50,8
10585,-13,-230,-117,-6,51,8
10590,-10,-233,-118,-4,53,8
10595,-12,-232,-115,-3,52,10
10600,-10,-231,-120,-1,54,11
10605,-9,-232,-118,-1,53,11
10610,-10,-228,-116,1,55,11
10615,-9,-228,-119,1,54,11
10620,-11,-228,-118,1,55,13
10625,-11,-228,-117,-1,57,14
10630,-10,-227,-118,-1,58,13
10635,-9,-228,-118,-1,57,12
10640,-12,-230,-119,0,57,10
10645,-9,-230,-119,2,59,9
10650,-9,-231,-121,3,59,9
10655,-10,-231,-118,5,61,10
10660,-10,-233,-121,8,59,10
10665,-8,-231,-119,12,62,9
10670,-8,-228,-117,15,62,9
10675,-11,-230,-118,17,63,10
10680,-13,-230,-119,21,63,11
10685,-11,-228,-115,23,64,12
10690,-10,-229,-117,24,65,13
10695,-12,-231,-117,24,65,17
10700,-12,-229,-117,24,67,16
10705,-10,-229,-117,21,67,18
10710,-8,-231,-114,18,68,18
10715,-12,-231,-118,17,69,19
10720,-10,-230,-118,15,69,18
10725,-13,-228,-118,13,70,19
10730,-10,-230,-121,14,71,18
10735,-8,-231,-115,13,71,19
10740,-12,-230,-117,12,71,19
10745,-15,-225,-117,12,71,18
10750,-9,-230,-116,15,70,18
10755,-11,-231,-116,15,70,17
10760,-9,-231,-117,14,71,17
10765,-11,-231,-117,12,70,16
10770,-8,-231,-116,12,69,15
10775,-8,-230,-120,10,71,17
10780,-10,-228,-115,10,71,17
10785,-11,-232,-121,8,73,16
10790,-10,-230,-115,7,71,16
10795,-12,-229,-116,7,72,15
10800,-12,-230,-120,8,72,14
10805,-14,-227,-119,8,74,14
10810,-15,-231,-114,9,72,14
10815,-14,-230,-118,10,72,12
10820,-11,-232,-114,11,73,12
10825,-10,-232,-117,10,73,12
10830,-12,-231,-116,10,72,12
10835,-11,-233,-118,10,73,12
10840,-10,-233,-115,10,72,9
10845,-11,-231,-113,11,73,10
10850,-12,-233,-115,10,70,9
10855,-11,-233,-115,12,69,9
10860,-14,-230,-117,13,70,7
10865,-12,-228,-115,12,69,9
10870,-10,-233,-116,13,69,8
10875,-12,-231,-115,14,67,7
10880,-15,-230,-116,14,67,6
10885,-13,-228,-112,14,66,7
10890,-10,-230,-113,14,65,7
10895,-12,-230,-112,11,66,7
10900,-4,-230,-118,11,64,5
10905,-12,-233,-114,9,64,7
10910,-15,-230,-115,8,64,6
10915,-11,-233,-114,6,63,6
10920,-10,-232,-117,5,63,4
10925,-13,-232,-114,4,64,6
10930,-12,-230,-114,5,64,4
10935,-14,-227,-118,5,64,3
10940,-12,-230,-115,6,64,4
10945,-13,-231,-118,6,65,4
10950,-14,-231,-114,6,65,4
10955,-11,-232,-116,6,66,5
10960,-14,-231,-112,7,65,3
10965,-11,-232,-112,6,64,3
10970,-12,-230,-116,8,65,2
10975,-12,-227,-116,6,66,2
10980,-10,-230,-113,7,67,1
10985,-14,-234,-118,6,64,1
10990,-14,-229,-116,8,66,1
10995,-13,-230,-114,8,65,2
11000,-11,-233,-116,8,65,1
11005,-15,-233,-113,9,64,1
11010,-19,-238,-110,8,65,-1
11015,-14,-231,-114,8,66,0
11020,-11,-233,-114,7,65,-1
11025,-10,-231,-115,6,63,-1
11030,-14,-230,-114,5,63,-2
11035,-13,-231,-113,4,66,-2
11040,-15,-232,-112,5,65,-2
11045,-10,-236,-113,4,64,-2
11050,-11,-230,-113,3,65,-3
11055,-13,-230,-120,2,65,-3
11060,-12,-231,-112,3,66,-2
11065,-12,-231,-112,2,67,-3
11070,-14,-231,-113,1,67,-4
11075,-13,-229,-112,2,66,-4
11080,-9,-233,-114,1,67,-5
11085,-13,-232,-114,0,68,-4
11090,-13,-230,-113,0,68,-5
11095,-15,-230,-119,-1,67,-5
11100,-15,-232,-116,-3,69,-4
11105,-12,-230,-116,-4,68,-5
11110,-13,-234,-113,-6,69,-5
11115,-13,-228,-112,-6,66,-7
11120,-18,-234,-122,-5,66,-6
11125,-14,-231,-114,-5,68,-6
11130,-11,-233,-115,-4,68,-6
11135,-12,-230,-115,-4,67,-6
11140,-13,-231,-114,-1,68,-5
11145,-13,-231,-111,-1,67,-6
11150,-13,-230,-117,-1,68,-5
11155,-11,-231,-114,0,68,-5
11160,-13,-232,-114,0,69,-4
11165,-14,-231,-118,0,69,-5
11170,-12,-233,-115,0,68,-4
11175,-12,-230,-114,-1,69,-4
11180,-12,-236,-115,-2,70,-4
11185,-10,-230,-113,-2,71,-4
11190,-10,-232,-113,-2,72,-4
11195,-13,-230,-114,-2,72,-5
11200,-11,-232,-112,-2,73,-2
11205,-12,-233,-112,-2,71,-3
11210,-11,-234,-113,-2,71,-3
11215,-10,-228,-113,-2,71,-3
11220,-10,-229,-113,-3,70,-3
11225,-10,-233,-111,-5,72,-2
11230,-11,-228,-123,-6,72,-1
11235,-13,-230,-112,-7,71,-1
11240,-13,-230,-112,-8,71,-2
11245,-15,-233,-114,-6,72,-2
11250,-10,-230,-116,-7,72,-1
11255,-12,-230,-115,-8,73,0
11260,-13,-232,-115,-8,73,1
11265,-12,-232,-114,-7,73,1
11270,-11,-232,-114,-6,74,0
11275,-12,-233,-114,-6,74,0
11280,-13,-232,-112,-7,75,0
11285,-12,-232,-116,-7,75,0
11290,-10,-231,-111,-6,74,1
11295,-11,-234,-112,-6,74,0
11300,-9,-234,-115,-6,73,0
11305,-12,-230,-113,-4,74,0
11310,-13,-230,-115,-4,72,-1
11315,-12,-230,-114,-2,73,-3
11320,-8,-228,-115,-2,73,-3
11325,-12,-228,-112,-1,72,-2
11330,-10,-236,-112,-1,72,-2
11335,-10,-230,-109,-3,71,-2
11340,-12,-231,-113,-4,70,-1
11345,-12,-231,-113,-6,71,-1
11350,-14,-231,-114,-8,71,-2
11355,-13,-229,-115,-12,70,-1
11360,-13,-232,-116,-13,71,-1
11365,-14,-230,-116,-15,71,-2
11370,-14,-232,-114,-16,70,-3
11375,-14,-233,-115,-16,72,-3
11380,-12,-231,-115,-14,71,-3
11385,-12,-233,-115,-13,71,-3
11390,-16,-231,-117,-12,71,-4
11395,-13,-230,-116,-10,72,-4
11400,-12,-233,-113,-9,71,-4
11405,-13,-231,-114,-10,71,-3
11410,-13,-226,-114,-12,72,-3
11415,-11,-230,-116,-15,70,-5
11420,-12,-230,-112,-17,70,-6
11425,-12,-231,-115,-19,71,-7
11430,-15,-232,-113,-19,71,-8
11435,-12,-230,-113,-19,71,-7
11440,-14,-231,-113,-18,72,-8
11445,-18,-235,-111,-17,71,-8
11450,-13,-231,-116,-15,73,-9
11455,-14,-228,-118,-13,72,-7
11460,-12,-235,-115,-9,72,-9
11465,-11,-232,-116,-8,71,-7
11470,-12,-234,-114,-5,69,-6
11475,-11,-231,-114,-5,70,-4
11480,-13,-231,-119,-4,69,-2
11485,-12,-232,-111,-5,67,-2
11490,-12,-230,-113,-8,66,0
11495,-12,-233,-117,-8,67,-1
11500,-11,-233,-115,-10,67,-1
11505,-11,-231,-112,-12,67,-1
11510,-13,-232,-113,-14,65,-1
11515,-13,-231,-114,-15,66,-1
11520,-13,-235,-113,-15,65,-2
11525,-10,-232,-112,-13,64,-3
11530,-15,-229,-110,-13,67,-3
11535,-12,-231,-112,-12,67,-3
11540,-14,-229,-117,-12,67,-5
11545,-10,-232,-114,-13,68,-6
11550,-11,-234,-112,-14,69,-5
11555,-12,-231,-112,-16,70,-5
11560,-11,-230,-113,-19,69,-5
11565,-13,-230,-115,-22,70,-4
11570,-9,-229,-112,-23,71,-4
11575,-10,-231,-115,-24,71,-5
11580,-13,-230,-113,-25,73,-5
11585,-14,-232,-111,-26,73,-4
11590,-15,-230,-114,-26,73,-4
11595,-11,-231,-114,-27,74,-5
11600,-10,-232,-115,-27,74,-4
11605,-14,-229,-113,-27,73,-4
11610,-10,-233,-113,-25,72,-4
11615,-14,-232,-111,-26,73,-5
11620,-12,-230,-114,-27,72,-4
11625,-11,-233,-112,-28,71,-5
11630,-14,-228,-114,-27,69,-4
11635,-12,-231,-113,-27,70,-4
11640,-12,-229,-110,-30,69,-5
11645,-12,-231,-114,-30,68,-5
11650,-11,-232,-116,-28,69,-3
11655,-10,-232,-115,-26,70,-3
11660,-13,-233,-116,-27,69,-3
11665,-7,-227,-116,-26,69,-3
11670,-12,-231,-117,-25,67,-3
11675,-11,-233,-119,-26,67,-4
11680,-16,-233,-116,-26,67,-5
11685,-12,-230,-114,-27,66,-4
11690,-11,-233,-115,-29,66,-4
11695,-11,-232,-113,-29,66,-4
11700,-12,-232,-115,-30,65,-3
11705,-13,-229,-114,-30,65,-3
11710,-13,-231,-113,-31,66,-3
11715,-14,-229,-115,-32,67,-3
11720,-13,-233,-116,-31,69,-2
11725,-11,-232,-115,-32,70,-3
11730,-12,-229,-114,-33,69,0
11735,-13,-233,-113,-31,70,0
11740,-13,-230,-115,-31,70,0
11745,-12,-228,-116,-31,69,0
11750,-12,-231,-115,-29,68,-1
11755,-12,-231,-114,-28,69,-1
11760,-12,-234,-116,-26,70,-4
11765,-13,-233,-116,-26,69,-2
11770,-11,-231,-116,-27,69,-3
11775,-12,-237,-112,-28,68,-2
11780,-15,-230,-116,-30,66,-2
11785,-12,-232,-114,-30,66,-3
11790,-13,-231,-114,-32,66,-3
11795,-12,-232,-115,-33,67,-3
11800,-12,-231,-117,-34,67,-3
11805,-13,-231,-114,-35,67,-3
11810,-12,-233,-117,-35,67,-3
11815,-10,-231,-111,-35,66,-4
11820,-10,-229,-112,-34,65,-3
11825,-11,-230,-115,-32,68,-3
11830,-12,-230,-117,-32,67,-2
11835,-11,-232,-111,-32,66,-2
11840,-12,-229,-115,-32,67,-2
11845,-13,-230,-115,-33,67,-2
11850,-11,-229,-111,-34,66,-1
11855,-11,-229,-115,-34,67,-1
11860,-12,-232,-114,-35,66,-2
11865,-14,-230,-115,-36,66,-4
11870,-13,-231,-116,-36,66,-4
11875,-10,-231,-117,-35,65,-4
11880,-16,-233,-113,-34,65,-3
11885,-12,-230,-115,-35,66,-3
11890,-12,-230,-116,-36,66,-5
11895,-12,-231,-118,-35,66,-3
11900,-12,-230,-116,-36,67,-4
11905,-11,-231,-113,-37,66,-5
11910,-12,-233,-121,-37,66,-5
11915,-12,-231,-118,-35,67,-4
11920,-11,-232,-115,-35,67,-4
11925,-11,-230,-117,-35,66,-4
11930,-12,-230,-116,-37,66,-3
11935,-11,-231,-117,-37,66,-5
11940,-12,-229,-116,-36,65,-4
11945,-13,-230,-115,-37,67,-3
11950,-11,-232,-115,-37,68,-4
11955,-12,-230,-118,-37,68,-4
11960,-14,-232,-117,-38,68,-4
11965,-11,-229,-113,-37,68,-4
11970,-10,-230,-116,-38,67,-4
11975,-11,-231,-114,-38,67,-4
11980,-14,-225,-116,-36,68,-4
11985,-13,-230,-116,-36,67,-5
11990,-15,-235,-109,-37,68,-4
11995,-12,-230,-116,-38,68,-4
