timestamp,acc_x,acc_y,acc_z,gyro_x,gyro_y,gyro_z
0,29,-256,-98,-23,12,-20
5,27,-254,-100,-28,14,-21
10,27,-255,-101,-31,16,-21
15,27,-254,-101,-34,16,-21
20,28,-256,-104,-34,18,-23
25,27,-255,-99,-33,17,-23
30,27,-257,-99,-33,16,-21
35,28,-256,-103,-34,16,-22
40,28,-254,-100,-33,17,-22
45,26,-256,-103,-35,17,-22
50,29,-255,-98,-34,18,-23
55,27,-255,-100,-33,17,-22
60,27,-255,-99,-33,15,-23
65,25,-254,-100,-32,14,-22
70,32,-256,-103,-31,14,-22
75,26,-245,-105,-31,15,-21
80,29,-258,-99,-30,14,-19
85,30,-257,-97,-31,15,-19
90,26,-254,-99,-31,17,-18
95,29,-255,-99,-31,17,-18
100,28,-255,-99,-32,16,-17
105,29,-256,-99,-31,14,-19
110,32,-257,-101,-31,11,-20
115,26,-253,-105,-27,7,-23
120,28,-256,-99,-26,5,-25
125,30,-256,-94,-26,7,-28
130,29,-254,-101,-25,5,-30
135,29,-255,-100,-26,7,-32
140,29,-256,-97,-29,9,-34
145,31,-253,-100,-30,10,-37
150,29,-255,-99,-32,9,-41
155,31,-256,-103,-35,8,-44
160,31,-254,-101,-35,4,-46
165,30,-257,-101,-35,2,-51
170,30,-256,-97,-31,0,-53
175,30,-254,-102,-27,-1,-58
180,28,-256,-106,-22,-1,-62
185,27,-257,-103,-16,-2,-65
190,30,-255,-105,-9,-3,-69
195,30,-255,-102,-1,-5,-73
200,31,-255,-105,2,-7,-78
205,29,-256,-105,0,-8,-83
210,31,-252,-105,-4,-10,-88
215,30,-251,-103,-12,-12,-95
220,31,-251,-102,-24,-14,-102
225,28,-252,-100,-40,-16,-110
230,30,-254,-100,-60,-16,-119
235,31,-253,-101,-78,-18,-130
240,29,-256,-102,-94,-17,-140
245,28,-252,-101,-107,-14,-150
250,29,-254,-102,-114,-8,-159
255,31,-256,-101,-115,-1,-167
260,29,-256,-100,-114,10,-174
265,25,-257,-101,-110,23,-180
270,31,-259,-104,-103,36,-184
275,29,-259,-101,-94,49,-191
280,28,-258,-102,-81,61,-197
285,31,-261,-103,-70,73,-204
290,31,-257,-102,-62,81,-211
295,25,-255,-94,-54,89,-217
300,35,-258,-102,-44,93,-225
305,33,-257,-102,-36,93,-232
310,33,-259,-100,-25,96,-238
315,31,-257,-102,-16,97,-244
320,33,-260,-99,-5,98,-246
325,30,-259,-96,3,98,-245
330,30,-258,-97,6,97,-244
335,27,-258,-96,8,99,-244
340,27,-256,-94,5,99,-240
345,25,-254,-95,3,97,-235
350,27,-256,-99,-2,93,-230
355,25,-258,-97,-4,87,-226
360,26,-259,-93,-8,81,-222
365,24,-260,-96,-8,75,-217
370,22,-260,-90,-4,68,-214
375,20,-262,-94,5,62,-211
380,26,-258,-94,19,55,-213
385,21,-259,-97,33,51,-214
390,24,-262,-98,49,49,-217
395,27,-260,-96,64,47,-222
400,30,-267,-99,75,45,-226
405,25,-258,-97,82,45,-230
410,27,-256,-97,85,47,-234
415,26,-256,-96,85,52,-239
420,31,-257,-96,82,55,-243
425,34,-256,-98,78,58,-244
430,32,-256,-99,73,60,-246
435,40,-257,-100,69,64,-248
440,38,-255,-95,67,68,-252
445,41,-255,-94,65,71,-256
450,42,-255,-96,67,71,-262
455,53,-259,-95,73,71,-268
460,43,-258,-92,84,70,-273
465,46,-263,-90,100,67,-280
470,40,-258,-88,126,63,-284
475,42,-259,-91,156,56,-286
480,45,-261,-93,188,44,-285
485,40,-260,-91,218,32,-280
490,41,-258,-91,239,21,-274
495,38,-258,-90,253,8,-261
500,36,-260,-88,255,-3,-250
505,36,-261,-89,253,-10,-237
510,38,-261,-86,241,-17,-222
515,34,-259,-92,229,-21,-207
520,37,-261,-88,214,-25,-191
525,38,-258,-91,199,-33,-173
530,39,-258,-89,184,-41,-156
535,45,-261,-91,170,-51,-143
540,41,-263,-93,162,-60,-137
545,41,-259,-92,157,-66,-133
550,45,-259,-90,153,-68,-132
555,49,-260,-90,153,-68,-134
560,51,-260,-86,151,-67,-134
565,50,-258,-88,151,-64,-139
570,52,-256,-90,150,-58,-144
575,54,-259,-86,146,-54,-152
580,56,-257,-83,148,-52,-161
585,54,-257,-84,151,-51,-172
590,58,-257,-84,158,-51,-183
595,55,-256,-84,169,-53,-193
600,60,-257,-81,182,-55,-206
605,60,-257,-83,196,-57,-216
610,61,-259,-83,210,-57,-224
615,60,-257,-79,218,-62,-229
620,65,-258,-82,226,-64,-234
625,64,-253,-81,231,-63,-241
630,62,-255,-81,234,-62,-243
635,63,-255,-84,232,-62,-244
640,64,-255,-81,225,-58,-243
645,62,-255,-76,217,-59,-241
650,64,-253,-78,210,-61,-241
655,65,-254,-76,203,-64,-241
660,64,-254,-78,199,-66,-239
665,64,-255,-78,197,-67,-238
670,64,-256,-79,195,-63,-233
675,62,-258,-71,198,-57,-231
680,60,-256,-77,205,-49,-230
685,64,-263,-77,217,-40,-223
690,63,-261,-75,230,-31,-220
695,63,-260,-74,248,-25,-218
700,62,-257,-74,269,-22,-214
705,65,-257,-75,287,-24,-212
710,64,-256,-74,299,-26,-209
715,64,-254,-75,308,-31,-206
720,66,-251,-74,306,-35,-205
725,67,-250,-76,296,-37,-206
730,66,-245,-72,278,-38,-207
735,67,-245,-78,250,-35,-210
740,68,-243,-80,220,-31,-211
745,68,-242,-77,186,-25,-209
750,71,-245,-78,153,-18,-208
755,73,-246,-76,122,-10,-205
760,75,-244,-77,98,-2,-203
765,74,-248,-71,79,4,-200
770,74,-247,-72,65,8,-195
775,75,-248,-75,58,11,-192
780,78,-248,-75,53,11,-190
785,74,-252,-74,50,8,-190
790,73,-251,-73,55,2,-191
795,75,-254,-73,58,-4,-195
800,75,-255,-74,62,-10,-198
805,73,-256,-70,68,-16,-201
810,73,-254,-69,77,-20,-205
815,71,-253,-73,80,-23,-205
820,71,-255,-74,85,-27,-205
825,73,-257,-73,86,-27,-206
830,71,-256,-75,85,-27,-202
835,71,-256,-74,83,-25,-200
840,78,-255,-73,83,-24,-199
845,71,-256,-72,81,-23,-196
850,71,-256,-76,81,-24,-193
855,69,-255,-74,81,-26,-190
860,71,-258,-74,78,-27,-185
865,69,-258,-74,71,-28,-178
870,70,-256,-73,64,-29,-171
875,70,-256,-74,56,-29,-165
880,71,-255,-71,49,-25,-160
885,74,-256,-72,44,-22,-156
890,76,-256,-71,41,-20,-152
895,76,-256,-71,40,-19,-144
900,73,-257,-65,42,-20,-140
905,73,-257,-70,41,-20,-137
910,74,-256,-69,42,-21,-135
915,74,-254,-67,44,-22,-132
920,72,-255,-66,45,-20,-129
925,78,-252,-67,46,-16,-125
930,76,-254,-66,45,-13,-124
935,76,-253,-66,44,-7,-120
940,80,-252,-66,41,-5,-113
945,79,-250,-66,37,-3,-109
950,74,-253,-68,33,-3,-107
955,80,-254,-66,29,-5,-108
960,80,-253,-65,28,-6,-105
965,80,-253,-62,24,-11,-103
970,79,-254,-66,22,-18,-99
975,80,-254,-68,21,-24,-98
980,81,-254,-67,19,-30,-94
985,78,-253,-68,19,-36,-92
990,78,-253,-66,20,-39,-90
995,78,-252,-70,19,-41,-90
1000,86,-264,-64,18,-41,-90
1005,80,-254,-71,17,-39,-88
1010,80,-256,-67,15,-39,-90
1015,80,-254,-66,12,-40,-90
1020,83,-257,-65,8,-38,-91
1025,79,-255,-65,5,-35,-92
1030,82,-253,-63,2,-34,-91
1035,83,-255,-65,-1,-29,-90
1040,82,-253,-66,-4,-24,-88
1045,81,-255,-65,-3,-22,-88
1050,78,-265,-58,-4,-18,-88
1055,83,-252,-68,-1,-14,-87
1060,81,-252,-68,5,-13,-86
1065,81,-251,-65,8,-11,-85
1070,84,-251,-63,11,-9,-82
1075,84,-250,-68,14,-6,-79
1080,82,-256,-67,17,-3,-72
1085,85,-254,-68,18,2,-70
1090,82,-253,-66,22,4,-66
1095,81,-250,-66,27,6,-65
1100,82,-251,-66,29,7,-61
1105,83,-253,-66,27,9,-56
1110,85,-252,-65,22,11,-53
1115,84,-252,-65,15,17,-51
1120,82,-250,-64,5,23,-49
1125,82,-251,-65,-8,29,-43
1130,80,-251,-65,-25,33,-39
1135,83,-254,-65,-39,38,-31
1140,80,-255,-64,-54,37,-27
1145,81,-256,-67,-65,38,-24
1150,78,-256,-66,-73,37,-22
1155,79,-257,-68,-75,35,-23
1160,78,-257,-66,-75,33,-24
1165,79,-257,-68,-68,34,-25
1170,77,-256,-63,-60,34,-24
1175,77,-257,-67,-52,34,-24
1180,80,-257,-67,-42,36,-21
1185,83,-257,-62,-32,38,-19
1190,79,-254,-65,-25,40,-18
1195,79,-255,-63,-21,42,-17
1200,78,-253,-63,-18,43,-17
1205,82,-256,-61,-16,43,-14
1210,76,-255,-63,-14,41,-13
1215,79,-255,-63,-14,40,-12
1220,81,-256,-65,-13,38,-10
1225,80,-256,-59,-13,37,-9
1230,80,-257,-66,-14,35,-10
1235,79,-257,-63,-11,35,-8
1240,79,-256,-62,-9,34,-9
1245,80,-257,-61,-5,32,-7
1250,78,-257,-61,1,28,-7
1255,77,-256,-63,6,23,-5
1260,76,-254,-65,10,19,-3
1265,78,-256,-63,11,16,-1
1270,80,-252,-67,11,14,1
1275,80,-250,-72,8,12,2
1280,80,-255,-68,4,12,3
1285,78,-251,-67,0,14,5
1290,81,-253,-62,-6,14,6
1295,77,-249,-65,-11,13,8
1300,77,-252,-64,-14,12,8
1305,77,-252,-63,-17,13,8
1310,78,-252,-65,-19,13,7
1315,84,-257,-64,-21,15,7
1320,78,-254,-61,-19,14,8
1325,81,-255,-61,-18,16,7
1330,81,-255,-66,-16,19,8
1335,80,-255,-63,-14,20,11
1340,77,-252,-64,-13,24,12
1345,83,-256,-67,-12,26,14
1350,84,-254,-62,-20,28,15
1355,81,-255,-67,-26,29,17
1360,80,-254,-65,-33,28,21
1365,81,-254,-65,-38,27,22
1370,79,-254,-64,-42,24,22
1375,82,-254,-65,-42,20,23
1380,79,-257,-65,-42,17,22
1385,84,-264,-63,-39,12,19
1390,81,-255,-63,-36,11,17
1395,79,-253,-64,-33,9,13
1400,78,-255,-62,-29,7,10
1405,77,-255,-67,-28,7,8
1410,76,-254,-63,-30,10,8
1415,80,-252,-65,-30,16,9
1420,78,-255,-66,-31,19,10
1425,79,-254,-61,-32,25,12
1430,76,-255,-63,-31,28,14
1435,76,-256,-61,-34,33,17
1440,77,-255,-66,-36,35,17
1445,77,-255,-64,-39,34,19
1450,76,-254,-65,-44,35,20
1455,81,-254,-63,-49,33,22
1460,80,-256,-63,-54,32,22
1465,74,-253,-64,-57,31,23
1470,77,-258,-61,-59,29,24
1475,75,-256,-64,-60,29,23
1480,78,-258,-63,-58,28,25
1485,81,-257,-64,-56,26,25
1490,78,-254,-65,-55,26,27
1495,74,-252,-66,-53,25,28
1500,79,-254,-63,-52,25,29
1505,73,-253,-66,-52,28,30
1510,79,-255,-64,-51,30,31
1515,77,-256,-63,-51,31,30
1520,77,-255,-63,-52,34,32
1525,76,-254,-63,-52,34,32
1530,75,-254,-63,-52,36,32
1535,78,-257,-67,-52,35,32
1540,76,-253,-63,-50,34,34
1545,80,-256,-63,-47,33,34
1550,78,-256,-64,-47,33,35
1555,77,-254,-64,-47,32,34
1560,78,-256,-64,-46,31,35
1565,75,-253,-61,-47,30,35
1570,78,-255,-63,-44,29,36
1575,77,-255,-65,-44,26,35
1580,77,-255,-66,-43,26,34
1585,77,-254,-64,-45,25,35
1590,77,-254,-64,-44,24,34
1595,79,-251,-75,-46,22,35
1600,75,-256,-64,-47,20,35
1605,78,-255,-66,-48,19,35
1610,71,-260,-66,-48,19,38
1615,81,-259,-68,-49,21,37
1620,76,-252,-65,-49,20,39
1625,75,-257,-62,-49,24,38
1630,74,-255,-63,-47,26,38
1635,71,-254,-62,-47,29,36
1640,74,-252,-62,-48,31,36
1645,74,-256,-63,-51,32,35
1650,72,-254,-53,-54,34,35
1655,73,-256,-62,-59,32,34
1660,74,-255,-66,-60,32,35
1665,76,-258,-63,-64,30,33
1670,74,-256,-66,-66,27,32
1675,73,-254,-61,-64,27,32
1680,73,-258,-65,-63,24,31
1685,70,-256,-65,-62,22,30
1690,73,-258,-64,-59,22,31
1695,72,-257,-67,-53,23,29
1700,73,-257,-62,-51,24,29
1705,75,-258,-62,-48,25,29
1710,73,-257,-63,-47,28,27
1715,70,-253,-64,-46,30,27
1720,72,-256,-65,-45,33,27
1725,67,-255,-65,-42,33,28
1730,74,-260,-63,-38,34,30
1735,73,-255,-63,-37,34,32
1740,73,-255,-64,-34,33,30
1745,72,-258,-67,-33,32,29
1750,72,-254,-64,-31,30,27
1755,71,-257,-60,-33,28,25
1760,72,-256,-64,-33,25,23
1765,72,-258,-64,-34,23,21
1770,71,-255,-64,-35,24,21
1775,74,-253,-66,-36,23,21
1780,68,-256,-65,-37,21,21
1785,72,-256,-64,-34,19,19
1790,73,-255,-64,-34,18,16
1795,74,-254,-66,-33,17,14
1800,73,-254,-65,-33,15,12
1805,76,-256,-63,-34,12,9
1810,71,-254,-64,-37,11,6
1815,71,-254,-64,-43,10,6
1820,80,-256,-60,-50,10,7
1825,74,-253,-64,-57,10,9
1830,75,-258,-64,-64,11,10
1835,68,-256,-64,-69,12,13
1840,71,-256,-64,-71,13,15
1845,72,-257,-60,-68,14,15
1850,72,-257,-63,-65,12,16
1855,72,-257,-66,-60,13,16
1860,72,-260,-64,-54,12,14
1865,74,-257,-65,-48,12,13
1870,71,-258,-62,-42,13,13
1875,74,-256,-63,-35,14,12
1880,74,-256,-65,-31,10,11
1885,74,-255,-64,-27,6,10
1890,72,-255,-64,-24,5,9
1895,74,-254,-65,-22,3,8
1900,71,-255,-65,-22,4,6
1905,74,-254,-63,-23,4,6
1910,73,-253,-62,-28,7,6
1915,73,-254,-62,-32,10,6
1920,74,-255,-61,-39,14,6
1925,69,-254,-63,-43,17,6
1930,65,-255,-58,-48,19,6
1935,73,-256,-65,-53,21,7
1940,72,-254,-64,-57,20,7
1945,75,-257,-62,-60,20,6
1950,74,-254,-63,-62,18,7
1955,75,-255,-64,-59,16,8
1960,71,-253,-67,-61,14,7
1965,75,-255,-62,-58,12,7
1970,75,-256,-63,-57,11,7
1975,75,-254,-66,-57,12,6
1980,72,-255,-60,-56,13,4
1985,75,-255,-64,-56,15,4
1990,72,-255,-62,-56,16,2
1995,78,-255,-63,-56,17,-1
2000,75,-254,-63,-54,18,-1
2005,77,-255,-65,-55,19,-4
2010,74,-255,-63,-57,20,-7
2015,77,-254,-64,-59,21,-10
2020,75,-253,-65,-58,23,-15
2025,75,-256,-66,-59,25,-20
2030,76,-256,-63,-59,27,-23
2035,72,-256,-63,-58,29,-29
2040,72,-259,-62,-59,28,-33
2045,72,-259,-63,-59,28,-38
2050,73,-259,-61,-57,26,-42
2055,72,-262,-64,-53,24,-46
2060,73,-261,-63,-45,19,-51
2065,70,-262,-63,-38,14,-56
2070,71,-261,-60,-35,8,-62
2075,69,-259,-61,-35,1,-67
2080,70,-258,-65,-39,-7,-74
2085,67,-259,-63,-47,-15,-83
2090,68,-257,-64,-56,-21,-90
2095,68,-257,-63,-65,-26,-97
2100,66,-257,-66,-70,-32,-104
2105,64,-255,-64,-72,-35,-108
2110,64,-255,-65,-73,-38,-113
2115,63,-254,-68,-71,-37,-118
2120,64,-252,-66,-69,-33,-122
2125,65,-249,-70,-67,-29,-125
2130,64,-248,-72,-62,-20,-128
2135,67,-251,-70,-54,-9,-131
2140,76,-248,-76,-43,1,-136
2145,67,-248,-75,-35,7,-145
2150,71,-249,-69,-34,11,-155
2155,71,-249,-74,-43,11,-168
2160,72,-247,-72,-59,7,-184
2165,74,-249,-71,-83,2,-202
2170,71,-251,-70,-113,-4,-218
2175,72,-254,-70,-141,-12,-236
2180,73,-255,-70,-168,-15,-254
2185,73,-253,-65,-193,-15,-272
2190,71,-259,-67,-216,-14,-290
2195,69,-258,-78,-236,-9,-306
2200,68,-258,-67,-251,-5,-318
2205,68,-262,-65,-259,-2,-319
2210,66,-261,-69,-259,1,-322
2215,65,-262,-66,-256,8,-324
2220,65,-264,-67,-244,17,-322
2225,65,-263,-69,-232,26,-316
2230,64,-261,-71,-222,38,-308
2235,63,-260,-69,-212,48,-298
2240,62,-259,-72,-205,51,-291
2245,64,-262,-71,-201,51,-281
2250,66,-261,-74,-199,46,-270
2255,62,-257,-70,-200,41,-264
2260,65,-256,-74,-206,35,-261
2265,64,-256,-77,-213,29,-261
2270,68,-257,-72,-221,22,-265
2275,66,-257,-74,-232,10,-269
2280,67,-256,-73,-242,-3,-280
2285,65,-257,-70,-251,-17,-295
2290,70,-256,-73,-256,-32,-311
2295,73,-256,-74,-261,-47,-323
2300,69,-252,-68,-267,-59,-336
2305,71,-255,-70,-272,-67,-352
2310,70,-252,-66,-275,-74,-368
2315,70,-250,-68,-274,-79,-381
2320,72,-253,-68,-269,-82,-392
2325,71,-252,-67,-264,-84,-400
2330,75,-255,-66,-256,-85,-403
2335,75,-252,-67,-247,-84,-407
2340,73,-250,-65,-234,-86,-410
2345,80,-255,-65,-219,-91,-412
2350,81,-256,-65,-200,-104,-405
2355,78,-255,-67,-184,-119,-405
2360,80,-255,-69,-169,-134,-411
2365,77,-254,-65,-155,-148,-413
2370,80,-257,-69,-139,-161,-418
2375,81,-255,-69,-124,-173,-422
2380,82,-254,-69,-106,-189,-427
2385,81,-256,-74,-92,-202,-436
2390,81,-252,-71,-83,-214,-444
2395,83,-254,-72,-83,-223,-449
2400,92,-255,-74,-92,-228,-453
2405,93,-251,-75,-105,-229,-455
2410,91,-248,-71,-112,-230,-459
2415,93,-251,-71,-112,-235,-462
2420,95,-253,-69,-109,-245,-471
2425,93,-251,-68,-103,-257,-487
2430,95,-254,-65,-95,-274,-507
2435,97,-250,-64,-87,-295,-530
2440,97,-247,-65,-84,-321,-550
2445,97,-248,-66,-90,-343,-572
2450,99,-244,-65,-107,-355,-590
2455,97,-241,-71,-124,-361,-602
2460,96,-239,-69,-140,-362,-615
2465,101,-242,-68,-158,-358,-625
2470,101,-240,-65,-180,-353,-625
2475,98,-239,-79,-195,-349,-632
2480,102,-248,-72,-208,-344,-642
2485,106,-247,-73,-208,-346,-656
2490,105,-251,-75,-204,-357,-665
2495,108,-251,-80,-194,-369,-680
2500,105,-251,-79,-183,-380,-696
2505,104,-251,-81,-173,-384,-718
2510,102,-252,-85,-170,-379,-736
2515,105,-246,-88,-173,-370,-751
2520,107,-245,-82,-183,-359,-757
2525,105,-245,-91,-196,-351,-761
2530,109,-245,-89,-201,-346,-767
2535,108,-238,-86,-205,-346,-768
2540,113,-243,-87,-214,-353,-771
2545,114,-245,-82,-212,-368,-781
2550,119,-247,-82,-205,-380,-793
2555,121,-246,-82,-196,-391,-805
2560,124,-248,-77,-191,-404,-817
2565,126,-245,-73,-191,-411,-827
2570,128,-244,-74,-189,-422,-833
2575,128,-242,-72,-189,-429,-837
2580,128,-227,-74,-190,-436,-840
2585,128,-234,-75,-194,-447,-847
2590,128,-230,-70,-204,-460,-851
2595,129,-223,-75,-211,-479,-861
2600,129,-217,-70,-227,-497,-870
2605,127,-208,-81,-248,-516,-881
2610,128,-200,-86,-278,-530,-890
2615,130,-198,-84,-319,-535,-897
2620,128,-198,-89,-372,-532,-903
2625,128,-198,-83,-432,-525,-907
2630,128,-196,-87,-495,-519,-911
2635,129,-204,-89,-554,-511,-912
2640,130,-205,-85,-606,-505,-908
2645,131,-211,-87,-644,-499,-905
2650,137,-209,-88,-674,-493,-899
2655,135,-215,-84,-702,-485,-890
2660,134,-216,-86,-718,-482,-889
2665,139,-218,-86,-722,-483,-897
2670,137,-219,-85,-722,-490,-911
2675,132,-220,-89,-724,-498,-927
2680,134,-218,-85,-726,-505,-947
2685,139,-217,-87,-733,-508,-966
2690,137,-219,-89,-744,-506,-978
2695,137,-212,-92,-751,-505,-992
2700,140,-211,-95,-760,-494,-998
2705,141,-210,-98,-767,-485,-999
2710,146,-208,-96,-772,-469,-997
2715,144,-208,-100,-781,-453,-992
2720,146,-203,-106,-785,-441,-994
2725,155,-198,-103,-784,-426,-995
2730,154,-204,-105,-793,-410,-986
2735,156,-197,-106,-806,-400,-992
2740,164,-208,-97,-814,-388,-996
2745,162,-193,-108,-836,-372,-1004
2750,165,-186,-104,-870,-356,-1020
2755,163,-184,-112,-904,-341,-1049
2760,169,-184,-121,-942,-329,-1080
2765,168,-187,-125,-986,-319,-1108
2770,177,-186,-124,-1022,-304,-1132
2775,179,-194,-128,-1051,-288,-1156
2780,185,-197,-128,-1066,-267,-1176
2785,193,-204,-137,-1069,-235,-1191
2790,198,-209,-139,-1054,-195,-1204
2795,207,-213,-151,-1023,-144,-1215
2800,210,-216,-152,-984,-80,-1224
2805,213,-224,-155,-929,-13,-1216
2810,217,-218,-154,-851,56,-1198
2815,217,-209,-155,-764,118,-1169
2820,220,-193,-156,-688,180,-1133
2825,218,-172,-164,-631,239,-1097
2830,216,-153,-158,-603,298,-1060
2835,214,-136,-159,-605,342,-1030
2840,212,-126,-157,-637,376,-1005
2845,213,-123,-159,-692,393,-991
2850,208,-120,-162,-757,399,-982
2855,206,-118,-154,-825,395,-976
2860,204,-126,-158,-889,386,-969
2865,201,-126,-152,-944,374,-962
2870,197,-130,-156,-980,366,-953
2875,198,-134,-155,-998,361,-948
2880,194,-139,-159,-994,356,-951
2885,193,-140,-154,-972,355,-960
2890,194,-142,-160,-936,355,-973
2895,192,-141,-167,-893,355,-986
2900,193,-142,-167,-852,355,-995
2905,193,-137,-171,-817,355,-999
2910,194,-132,-173,-793,356,-1004
2915,192,-130,-174,-774,360,-1007
2920,197,-128,-173,-769,365,-1003
2925,198,-128,-165,-772,373,-998
2930,200,-125,-162,-781,384,-983
2935,204,-126,-156,-799,399,-962
2940,207,-125,-150,-818,413,-937
2945,208,-121,-150,-840,427,-910
2950,207,-121,-146,-864,443,-883
2955,211,-116,-147,-888,462,-858
2960,217,-116,-148,-908,482,-835
2965,215,-116,-152,-914,500,-813
2970,225,-118,-161,-908,513,-793
2975,229,-116,-165,-885,523,-774
2980,234,-114,-166,-842,527,-760
2985,235,-119,-167,-784,529,-748
2990,235,-115,-176,-716,528,-738
2995,240,-112,-174,-652,526,-729
3000,243,-110,-171,-600,527,-720
3005,242,-104,-169,-563,530,-709
3010,245,-104,-168,-546,531,-700
3015,234,-92,-165,-548,533,-693
3020,240,-95,-160,-567,536,-688
3025,237,-92,-157,-597,541,-682
3030,237,-92,-154,-632,548,-675
3035,235,-91,-156,-666,553,-668
3040,234,-94,-154,-697,557,-661
3045,235,-96,-151,-727,565,-653
3050,232,-95,-153,-748,570,-645
3055,231,-95,-157,-761,572,-641
3060,230,-97,-155,-761,567,-637
3065,233,-100,-157,-752,560,-636
3070,227,-96,-156,-734,549,-639
3075,226,-96,-161,-718,537,-642
3080,223,-96,-160,-707,521,-643
3085,226,-93,-156,-701,506,-645
3090,228,-92,-154,-703,495,-644
3095,229,-85,-155,-712,486,-643
3100,234,-84,-152,-730,475,-644
3105,235,-84,-152,-750,463,-646
3110,234,-83,-147,-773,450,-648
3115,238,-85,-150,-793,434,-648
3120,237,-84,-152,-808,419,-648
3125,246,-95,-145,-817,404,-645
3130,248,-87,-146,-817,392,-643
3135,251,-90,-148,-812,382,-642
3140,251,-87,-153,-806,374,-642
3145,248,-89,-150,-797,373,-638
3150,245,-87,-156,-781,376,-629
3155,242,-83,-152,-767,379,-617
3160,242,-81,-157,-753,381,-603
3165,233,-84,-153,-746,382,-592
3170,232,-83,-149,-741,386,-578
3175,228,-83,-149,-736,394,-561
3180,229,-81,-141,-729,406,-543
3185,230,-80,-138,-724,417,-528
3190,231,-79,-135,-714,430,-514
3195,234,-83,-127,-699,444,-504
3200,231,-83,-129,-682,455,-500
3205,234,-86,-128,-657,463,-498
3210,232,-89,-127,-626,467,-501
3215,232,-90,-129,-592,471,-507
3220,232,-94,-129,-556,473,-515
3225,233,-95,-132,-505,475,-522
3230,234,-100,-139,-448,482,-525
3235,236,-93,-149,-387,490,-517
3240,238,-100,-145,-329,494,-512
3245,244,-98,-150,-273,490,-505
3250,242,-95,-154,-211,474,-503
3255,246,-90,-157,-146,453,-506
3260,246,-85,-163,-86,426,-510
3265,248,-80,-156,-38,394,-522
3270,251,-73,-153,-5,358,-537
3275,251,-67,-152,8,324,-555
3280,252,-60,-141,6,297,-573
3285,259,-56,-140,-15,282,-589
3290,259,-53,-140,-37,273,-599
3295,264,-52,-132,-60,268,-603
3300,266,-56,-136,-66,262,-603
3305,267,-56,-138,-48,251,-600
3310,267,-57,-146,-20,234,-597
3315,268,-62,-143,17,209,-594
3320,263,-61,-147,57,182,-593
3325,261,-61,-153,97,149,-594
3330,260,-60,-153,132,116,-600
3335,263,-50,-160,160,87,-605
3340,259,-48,-144,181,61,-606
3345,255,-41,-141,191,42,-603
3350,255,-35,-135,193,29,-601
3355,258,-32,-135,185,23,-601
3360,256,-30,-126,175,23,-601
3365,260,-27,-123,154,31,-606
3370,261,-23,-117,134,44,-606
3375,264,-25,-114,114,56,-604
3380,266,-23,-113,103,61,-606
3385,265,-23,-115,104,62,-606
3390,267,-20,-118,115,60,-609
3395,267,-24,-120,134,59,-609
3400,264,-17,-124,151,57,-612
3405,265,-14,-126,157,53,-615
3410,263,-13,-121,159,48,-618
3415,261,-14,-121,151,62,-618
3420,268,-20,-117,127,93,-613
3425,265,-16,-113,92,124,-607
3430,263,-10,-118,54,138,-601
3435,259,-10,-116,29,128,-600
3440,258,-6,-114,29,113,-609
3445,256,-6,-117,52,101,-626
3450,253,-2,-120,76,93,-640
3455,254,0,-120,95,87,-649
3460,255,0,-117,101,84,-656
3465,256,0,-116,91,91,-662
3470,261,1,-120,73,104,-665
3475,262,0,-109,53,119,-660
3480,266,0,-111,37,133,-655
3485,268,1,-107,28,137,-652
3490,271,0,-108,35,121,-654
3495,274,0,-110,64,84,-661
3500,275,0,-116,113,36,-671
3505,279,0,-118,167,-5,-686
3510,280,-1,-123,214,-33,-701
3515,279,-1,-127,242,-47,-708
3520,275,0,-124,255,-47,-713
3525,270,3,-126,262,-35,-723
3530,272,5,-127,265,-21,-731
3535,273,7,-125,261,3,-736
3540,272,15,-128,244,40,-735
3545,270,17,-125,216,81,-725
3550,266,20,-122,185,120,-716
3555,270,19,-121,165,150,-708
3560,261,21,-116,157,169,-700
3565,264,23,-123,155,180,-697
3570,267,25,-121,158,185,-693
3575,266,18,-126,162,188,-691
3580,265,19,-126,157,188,-684
3585,264,21,-131,149,188,-679
3590,269,16,-131,132,186,-669
3595,268,20,-132,119,188,-668
3600,266,26,-133,103,186,-663
3605,273,29,-135,95,187,-665
3610,275,31,-131,87,190,-663
3615,277,35,-132,79,198,-665
3620,270,37,-135,74,205,-671
3625,273,37,-139,66,207,-677
3630,273,39,-136,60,208,-682
3635,273,38,-138,54,211,-687
3640,272,38,-132,47,220,-696
3645,270,36,-136,36,231,-707
3650,265,36,-136,18,235,-718
3655,259,33,-136,3,240,-736
3660,255,33,-132,-7,234,-746
3665,256,27,-135,-14,229,-749
3670,255,24,-133,-14,229,-757
3675,265,23,-135,-8,235,-746
3680,272,21,-135,4,253,-725
3685,277,18,-133,20,278,-695
3690,285,20,-130,41,316,-661
3695,296,22,-133,70,360,-630
3700,303,29,-132,105,400,-598
3705,313,33,-137,136,434,-572
3710,321,39,-139,163,459,-544
3715,332,45,-137,192,475,-505
3720,345,48,-138,216,474,-453
3725,351,51,-134,230,448,-388
3730,360,55,-134,233,390,-311
3735,356,55,-136,235,308,-239
3740,350,56,-132,244,212,-174
3745,343,58,-132,260,108,-118
3750,335,58,-133,273,1,-71
3755,328,61,-124,281,-100,-29
3760,318,64,-116,276,-180,4
3765,310,62,-112,253,-227,23
3770,295,69,-100,205,-240,29
3775,285,74,-92,130,-218,33
3780,272,79,-87,29,-168,35
3785,261,79,-83,-85,-98,43
3790,258,77,-72,-202,-19,61
3795,253,72,-70,-308,65,86
3800,246,65,-70,-399,148,116
3805,240,57,-71,-464,223,151
3810,239,47,-77,-498,286,188
3815,240,37,-84,-499,325,227
3820,240,28,-88,-463,333,257
3825,237,25,-92,-388,327,272
3830,241,16,-97,-282,312,279
3835,245,18,-99,-168,295,276
3840,246,15,-101,-71,279,269
3845,251,17,-104,-3,272,262
3850,256,19,-106,30,269,256
3855,255,27,-105,29,269,248
3860,261,24,-108,1,273,236
3865,263,32,-105,-52,275,223
3870,264,35,-111,-116,276,212
3875,266,35,-110,-187,277,205
3880,264,34,-110,-251,279,203
3885,263,32,-112,-301,276,203
3890,266,29,-112,-331,271,204
3895,264,24,-114,-337,258,201
3900,265,18,-116,-325,241,195
3905,269,15,-120,-299,218,190
3910,273,11,-122,-265,192,183
3915,278,9,-125,-227,170,178
3920,280,6,-124,-183,155,175
3925,280,3,-121,-143,145,172
3930,278,2,-123,-102,139,171
3935,276,0,-116,-69,134,171
3940,283,2,-119,-45,130,167
3945,285,2,-115,-33,126,164
3950,283,3,-113,-29,125,159
3955,286,5,-107,-33,126,156
3960,284,5,-106,-45,128,149
3965,285,7,-102,-60,131,137
3970,282,6,-102,-74,134,124
3975,281,4,-96,-89,138,111
3980,279,5,-97,-102,142,98
3985,281,3,-97,-112,143,87
3990,279,3,-100,-119,142,82
3995,279,0,-102,-121,141,77
4000,276,0,-105,-119,142,76
4005,274,0,-106,-108,147,75
4010,278,0,-110,-94,153,75
4015,280,-3,-107,-70,163,73
4020,277,-1,-111,-39,175,71
4025,279,2,-115,-4,187,67
4030,276,5,-117,29,200,63
4035,274,10,-115,57,211,58
4040,277,13,-119,76,222,49
4045,272,18,-120,78,228,43
4050,272,18,-120,65,231,37
4055,270,20,-120,34,229,33
4060,267,23,-119,-5,225,30
4065,270,19,-116,-44,216,26
4070,267,24,-115,-81,205,25
4075,265,20,-114,-110,196,27
4080,268,21,-112,-133,189,29
4085,267,19,-111,-149,185,31
4090,269,16,-109,-161,186,35
4095,269,13,-105,-165,192,37
4100,271,11,-106,-167,205,40
4105,270,13,-105,-163,218,44
4110,273,11,-102,-155,231,43
4115,271,7,-97,-142,243,40
4120,276,8,-96,-128,251,38
4125,276,7,-93,-113,253,31
4130,275,8,-94,-96,253,28
4135,279,12,-90,-82,251,22
4140,281,15,-93,-71,248,17
4145,282,14,-88,-60,246,13
4150,281,14,-87,-52,244,9
4155,282,16,-89,-47,243,9
4160,282,12,-92,-43,242,9
4165,281,19,-87,-36,242,10
4170,283,17,-92,-31,242,12
4175,280,17,-91,-30,237,17
4180,276,19,-89,-30,234,20
4185,281,22,-87,-28,229,23
4190,282,16,-87,-24,222,28
4195,282,18,-86,-15,216,32
4200,281,23,-82,-7,212,35
4205,284,22,-85,0,208,39
4210,280,19,-88,5,208,48
4215,283,23,-91,3,208,56
4220,284,24,-86,-5,208,64
4225,281,25,-88,-19,209,73
4230,281,22,-86,-36,208,82
4235,280,23,-82,-53,204,87
4240,280,22,-86,-69,192,90
4245,276,24,-81,-82,176,90
4250,276,20,-83,-91,156,91
4255,275,20,-81,-99,135,89
4260,273,15,-80,-107,115,88
4265,273,16,-81,-111,97,87
4270,274,13,-78,-115,83,89
4275,272,12,-79,-116,73,89
4280,271,9,-75,-114,64,90
4285,270,9,-81,-113,55,89
4290,272,9,-77,-113,49,85
4295,271,6,-80,-111,42,81
4300,274,6,-81,-108,38,74
4305,274,5,-77,-106,32,67
4310,275,2,-81,-104,28,58
4315,270,1,-85,-98,28,48
4320,271,8,-83,-92,30,39
4325,267,1,-84,-84,34,29
4330,265,2,-89,-77,38,21
4335,265,0,-89,-69,40,14
4340,265,2,-89,-62,40,6
4345,266,-2,-87,-55,38,0
4350,269,0,-92,-42,35,-6
4355,267,0,-84,-26,30,-12
4360,267,0,-87,-5,24,-21
4365,270,0,-88,14,20,-27
4370,269,1,-85,34,18,-30
4375,271,3,-85,55,18,-31
4380,272,5,-84,72,17,-28
4385,274,6,-88,90,15,-29
4390,271,10,-86,100,9,-31
4395,274,13,-83,103,-2,-34
4400,273,14,-87,97,-21,-39
4405,274,13,-88,80,-44,-44
4410,276,16,-86,53,-72,-50
4415,279,16,-84,20,-100,-55
4420,283,15,-80,-20,-127,-61
4425,282,14,-78,-59,-149,-69
4430,284,5,-75,-92,-164,-74
4435,287,9,-81,-120,-173,-78
4440,287,3,-80,-137,-176,-77
4445,283,6,-81,-144,-174,-74
4450,285,3,-84,-146,-166,-72
4455,284,4,-83,-138,-155,-68
4460,280,2,-89,-127,-143,-66
4465,279,2,-91,-113,-134,-61
4470,276,4,-90,-103,-126,-58
4475,276,6,-95,-89,-122,-54
4480,270,5,-85,-69,-121,-50
4485,272,5,-96,-48,-122,-45
4490,278,6,-100,-33,-124,-38
4495,275,5,-99,-19,-125,-31
4500,276,10,-101,-6,-122,-27
4505,277,10,-97,8,-117,-29
4510,278,13,-98,26,-112,-29
4515,275,20,-100,34,-107,-30
4520,276,25,-102,44,-101,-31
4525,275,23,-100,48,-97,-30
4530,275,23,-103,28,-93,-29
4535,277,11,-91,-9,-91,-31
4540,275,17,-97,-58,-88,-35
4545,275,15,-99,-101,-87,-42
4550,276,14,-96,-132,-92,-47
4555,271,14,-98,-148,-97,-55
4560,275,9,-95,-148,-102,-62
4565,274,11,-101,-143,-105,-69
4570,271,5,-96,-154,-103,-71
4575,269,9,-96,-157,-100,-75
4580,270,10,-94,-137,-94,-80
4585,272,10,-96,-99,-85,-82
4590,274,7,-100,-52,-78,-82
4595,278,10,-100,-9,-74,-77
4600,277,13,-100,26,-72,-72
4605,279,15,-100,48,-69,-68
4610,282,19,-104,59,-63,-67
4615,285,20,-106,59,-53,-62
4620,284,20,-105,42,-45,-55
4625,286,15,-104,3,-34,-41
4630,287,18,-107,-43,-23,-29
4635,288,17,-101,-78,-17,-26
4640,282,17,-101,-100,-11,-24
4645,284,16,-102,-113,-11,-23
4650,284,14,-104,-123,-13,-21
4655,282,14,-95,-128,-15,-16
4660,281,17,-101,-135,-16,-10
4665,277,14,-99,-142,-14,-6
4670,280,13,-99,-144,-7,-1
4675,278,10,-101,-147,4,-1
4680,279,14,-104,-144,18,-3
4685,277,11,-104,-142,34,-7
4690,276,8,-108,-137,51,-12
4695,273,11,-108,-135,67,-16
4700,269,10,-103,-125,80,-19
4705,270,7,-101,-109,85,-19
4710,272,9,-103,-86,87,-20
4715,270,10,-104,-60,84,-19
4720,272,11,-102,-35,83,-18
4725,272,10,-107,-14,78,-14
4730,271,13,-101,2,76,-12
4735,272,16,-97,13,77,-9
4740,274,16,-97,15,82,-4
4745,273,17,-99,10,86,-1
4750,274,19,-98,-1,98,2
4755,276,19,-97,-18,114,3
4760,276,13,-101,-34,132,5
4765,271,18,-98,-48,153,8
4770,276,15,-96,-59,175,12
4775,275,17,-97,-68,193,14
4780,278,16,-99,-69,209,17
4785,277,16,-95,-61,224,20
4790,282,13,-98,-52,235,24
4795,279,11,-95,-35,239,33
4800,280,15,-96,-18,238,42
4805,278,15,-95,5,231,49
4810,280,13,-93,22,220,54
4815,282,11,-92,38,202,59
4820,283,13,-93,46,183,62
4825,281,12,-90,48,162,62
4830,283,12,-87,48,141,63
4835,282,12,-82,47,118,60
4840,284,6,-78,51,96,56
4845,283,6,-76,62,72,44
4850,285,3,-78,72,54,31
4855,283,3,-82,80,45,17
4860,286,0,-81,87,47,4
4865,279,0,-83,94,59,-6
4870,286,0,-85,108,74,-13
4875,283,0,-87,133,88,-21
4880,284,0,-90,167,98,-28
4885,281,2,-93,208,106,-34
4890,280,3,-94,249,111,-39
4895,277,9,-99,282,117,-42
4900,277,6,-94,301,118,-42
4905,273,13,-94,302,120,-38
4910,273,16,-96,287,121,-32
4915,272,17,-94,259,124,-27
4920,272,19,-95,221,130,-21
4925,270,20,-93,178,136,-14
4930,272,20,-90,131,146,-8
4935,271,19,-88,88,156,2
4940,273,18,-89,48,162,11
4945,274,16,-90,18,161,23
4950,272,18,-83,-3,154,33
4955,275,14,-89,-9,142,44
4960,278,13,-86,-4,128,52
4965,276,6,-86,11,107,57
4970,279,7,-84,34,88,59
4975,273,7,-79,61,66,57
4980,276,6,-87,84,50,51
4985,277,5,-87,106,40,44
4990,278,5,-86,122,43,37
4995,279,7,-89,132,62,30
5000,281,5,-90,133,92,27
5005,280,9,-88,126,125,27
5010,286,7,-95,116,155,29
5015,283,8,-94,108,171,31
5020,287,13,-95,108,175,31
5025,287,13,-99,112,167,32
5030,287,14,-99,116,144,36
5035,288,12,-98,119,112,44
5040,290,12,-101,115,74,51
5045,290,12,-98,106,36,60
5050,291,13,-98,94,2,69
5055,287,12,-94,82,-22,78
5060,287,11,-91,73,-37,85
5065,290,7,-91,63,-48,87
5070,288,10,-92,57,-55,91
5075,289,11,-92,47,-54,96
5080,285,22,-101,30,-42,102
5085,284,14,-93,5,-24,109
5090,287,15,-93,-23,2,115
5095,287,15,-96,-48,31,119
5100,293,16,-98,-68,57,124
5105,290,15,-96,-81,72,131
5110,293,16,-104,-94,72,136
5115,295,12,-99,-108,63,141
5120,291,9,-98,-128,48,146
5125,288,7,-99,-145,34,150
5130,287,8,-88,-161,28,151
5135,283,5,-89,-172,27,151
5140,280,4,-85,-178,30,151
5145,281,6,-81,-183,31,153
5150,280,8,-78,-187,28,153
5155,282,7,-77,-196,26,156
5160,280,5,-78,-206,24,163
5165,278,5,-77,-224,27,166
5170,277,8,-80,-241,36,169
5175,275,9,-76,-259,49,171
5180,274,4,-79,-274,72,171
5185,279,3,-78,-283,97,172
5190,282,1,-75,-291,128,174
5195,281,1,-74,-299,163,175
5200,282,2,-74,-305,194,177
5205,285,0,-75,-304,224,178
5210,286,2,-74,-291,244,177
5215,285,1,-79,-269,249,175
5220,288,-3,-79,-241,244,168
5225,282,-1,-86,-216,227,163
5230,281,-2,-90,-193,204,159
5235,276,-4,-91,-170,178,153
5240,277,-7,-88,-148,157,145
5245,273,-1,-87,-130,143,134
5250,270,-1,-85,-111,139,125
5255,269,1,-89,-98,140,114
5260,262,4,-86,-86,146,104
5265,269,1,-86,-73,155,101
5270,269,2,-87,-63,162,98
5275,269,3,-91,-54,170,97
5280,270,3,-87,-51,177,100
5285,273,5,-88,-51,185,103
5290,273,2,-88,-61,196,107
5295,278,3,-82,-80,206,111
5300,276,3,-81,-100,216,114
5305,277,1,-91,-120,220,117
5310,279,-1,-78,-134,218,119
5315,278,0,-78,-141,212,123
5320,274,0,-78,-141,203,127
5325,272,-1,-77,-137,194,128
5330,271,-3,-76,-131,185,127
5335,264,-1,-71,-123,177,126
5340,266,-3,-70,-117,171,119
5345,258,-1,-72,-108,164,109
5350,259,-5,-67,-102,155,96
5355,259,0,-65,-96,144,86
5360,262,0,-65,-98,132,75
5365,267,0,-62,-102,118,66
5370,271,1,-62,-106,100,60
5375,273,0,-64,-111,86,55
5380,273,1,-64,-115,74,53
5385,278,-1,-65,-119,64,54
5390,277,-2,-70,-125,62,58
5395,274,-4,-67,-130,64,62
5400,280,-8,-66,-134,75,65
5405,277,-7,-67,-134,91,66
5410,271,-13,-76,-132,111,65
5415,274,-9,-71,-129,130,65
5420,274,-9,-71,-117,145,62
5425,274,-10,-68,-101,157,57
5430,274,-11,-67,-82,168,54
5435,275,-10,-67,-59,173,48
5440,274,-12,-69,-36,173,44
5445,275,-10,-69,-14,168,40
5450,274,-12,-76,4,158,33
5455,276,-9,-73,16,143,26
5460,274,-7,-71,21,128,21
5465,270,-6,-71,19,114,14
5470,272,-4,-72,12,101,6
5475,272,-6,-68,2,92,-2
5480,272,-6,-70,-8,83,-10
5485,268,-3,-69,-18,81,-18
5490,274,-7,-67,-27,84,-23
5495,273,-8,-63,-33,90,-31
5500,271,-5,-67,-39,99,-36
5505,273,-6,-65,-39,107,-40
5510,275,-6,-63,-38,114,-40
5515,272,-3,-65,-33,116,-40
5520,273,-18,-68,-23,115,-36
5525,273,-12,-64,-10,113,-33
5530,274,-12,-66,7,106,-29
5535,276,-13,-66,27,99,-27
5540,275,-14,-61,50,89,-29
5545,274,-10,-65,78,77,-34
5550,276,-16,-65,107,66,-39
5555,274,-10,-64,140,58,-48
5560,274,-11,-64,170,46,-56
5565,273,-9,-68,196,35,-62
5570,275,-11,-68,219,19,-66
5575,274,-8,-69,235,2,-67
5580,274,-3,-67,242,-13,-70
5585,274,-1,-72,244,-27,-71
5590,272,1,-70,234,-41,-71
5595,276,1,-74,216,-53,-69
5600,274,1,-72,195,-62,-68
5605,274,1,-71,173,-68,-66
5610,276,3,-75,151,-72,-65
5615,276,1,-72,127,-72,-64
5620,279,1,-70,110,-71,-65
5625,286,-5,-68,97,-70,-65
5630,281,-4,-65,94,-67,-65
5635,283,-5,-63,100,-64,-66
5640,280,-10,-64,118,-58,-70
5645,290,-15,-60,156,-52,-72
5650,287,-19,-56,211,-43,-74
5655,291,-24,-57,287,-36,-74
5660,294,-28,-56,373,-34,-73
5665,294,-29,-60,463,-42,-71
5670,298,-28,-67,550,-64,-69
5675,289,-27,-75,629,-92,-69
5680,285,-25,-68,695,-122,-70
5685,281,-10,-93,742,-145,-75
5690,279,-2,-95,762,-157,-86
5695,274,3,-96,752,-154,-99
5700,273,16,-102,717,-143,-112
5705,274,21,-99,664,-125,-122
5710,272,25,-100,596,-103,-130
5715,269,27,-94,525,-82,-133
5720,269,28,-96,451,-62,-130
5725,268,28,-91,378,-43,-123
5730,270,20,-86,307,-29,-113
5735,271,17,-85,242,-17,-101
5740,275,11,-78,188,-10,-88
5745,276,9,-82,145,-6,-76
5750,275,3,-78,117,-6,-64
5755,275,1,-77,98,-5,-50
5760,278,1,-77,92,-4,-37
5765,276,-1,-78,88,-2,-25
5770,277,-5,-79,89,-1,-14
5775,281,-2,-75,86,2,-6
5780,279,-3,-70,83,2,-1
5785,282,-5,-74,81,-1,-1
5790,284,-1,-78,79,-8,-7
5795,287,-2,-80,74,-17,-15
5800,286,0,-77,72,-27,-24
5805,287,0,-79,66,-38,-35
5810,289,0,-79,58,-45,-46
5815,286,1,-80,46,-49,-54
5820,284,0,-84,38,-49,-60
5825,284,2,-78,28,-44,-65
5830,284,0,-81,24,-37,-69
5835,288,0,-78,25,-27,-72
5840,285,0,-77,31,-15,-74
5845,289,0,-77,41,-4,-76
5850,287,0,-76,53,7,-75
5855,287,0,-76,67,17,-73
5860,288,0,-77,79,25,-69
5865,287,0,-77,89,32,-63
5870,287,2,-77,95,38,-56
5875,285,3,-78,93,45,-49
5880,286,1,-73,86,55,-40
5885,288,1,-76,76,64,-31
5890,284,1,-78,62,75,-23
5895,282,1,-78,50,85,-14
5900,280,1,-81,38,92,-5
5905,283,0,-78,28,95,-2
5910,281,0,-77,19,93,4
5915,281,-1,-81,16,88,8
5920,282,0,-77,14,81,7
5925,278,0,-75,11,75,9
5930,279,0,-73,13,70,6
5935,280,-1,-71,13,69,3
5940,278,-2,-73,15,67,0
5945,279,0,-75,16,68,-3
5950,278,1,-71,11,70,-3
5955,283,1,-69,3,68,-4
5960,279,-2,-78,-8,67,-1
5965,282,1,-75,-22,64,0
5970,282,-2,-80,-32,55,3
5975,284,-4,-75,-43,46,3
5980,283,-6,-76,-49,35,5
5985,284,-4,-78,-52,27,7
5990,284,-11,-81,-49,20,6
5995,282,-11,-80,-44,17,4
6000,281,-10,-81,-33,18,1
6005,280,-8,-83,-21,21,-3
6010,277,-10,-84,-6,29,-12
6015,279,-4,-80,9,40,-18
6020,278,-6,-74,20,47,-24
6025,279,-4,-78,28,54,-27
6030,278,-1,-72,34,62,-29
6035,281,-3,-78,38,66,-30
6040,279,-1,-75,37,69,-26
6045,278,2,-74,33,70,-24
6050,278,0,-74,25,67,-20
6055,275,0,-75,15,65,-15
6060,279,0,-74,7,62,-10
6065,278,-14,-74,-3,58,-5
6070,277,0,-77,-12,53,-2
6075,275,-2,-73,-17,49,1
6080,278,-3,-73,-20,47,3
6085,276,-4,-70,-21,44,2
6090,280,0,-74,-18,42,1
6095,275,0,-72,-15,42,0
6100,273,0,-70,-13,41,-1
6105,278,0,-70,-12,42,0
6110,279,-1,-68,-15,41,3
6115,278,0,-71,-22,41,3
6120,277,-2,-69,-28,39,5
6125,279,2,-69,-36,35,8
6130,284,0,-69,-45,30,10
6135,277,0,-70,-47,24,12
6140,277,0,-73,-49,18,9
6145,280,-2,-75,-50,14,6
6150,278,-1,-74,-49,12,5
6155,277,-1,-75,-46,10,2
6160,279,0,-76,-42,10,0
6165,276,0,-76,-39,9,-4
6170,275,0,-74,-34,11,-7
6175,273,1,-74,-28,14,-10
6180,276,1,-72,-27,17,-14
6185,280,0,-71,-24,20,-17
6190,276,1,-67,-23,20,-18
6195,277,3,-67,-26,19,-19
6200,280,1,-69,-34,16,-17
6205,278,2,-69,-42,9,-15
6210,280,1,-67,-53,-1,-13
6215,279,0,-67,-61,-14,-10
6220,280,2,-71,-65,-26,-6
6225,273,1,-77,-63,-38,-5
6230,284,-1,-70,-62,-50,-6
6235,283,-3,-73,-55,-61,-7
6240,283,-4,-74,-49,-70,-7
6245,281,-1,-80,-43,-76,-10
6250,280,0,-78,-36,-80,-13
6255,279,0,-76,-29,-81,-17
6260,281,4,-81,-24,-79,-22
6265,281,1,-78,-24,-76,-25
6270,280,1,-83,-26,-72,-29
6275,278,2,-83,-34,-67,-30
6280,281,4,-90,-45,-62,-33
6285,280,0,-83,-54,-57,-33
6290,278,3,-81,-62,-53,-33
6295,278,2,-79,-69,-49,-31
6300,279,0,-76,-77,-44,-30
6305,278,0,-78,-80,-38,-26
6310,279,1,-80,-84,-32,-24
6315,279,1,-76,-90,-26,-20
6320,276,0,-79,-93,-21,-17
6325,281,-1,-77,-97,-17,-14
6330,279,1,-81,-100,-13,-12
6335,279,2,-77,-102,-13,-7
6340,281,1,-76,-103,-11,-4
6345,278,1,-73,-104,-10,-3
6350,279,1,-79,-103,-11,0
6355,280,2,-73,-101,-12,1
6360,281,0,-76,-104,-13,2
6365,275,0,-76,-105,-16,3
6370,282,0,-75,-107,-19,4
6375,279,0,-73,-111,-20,5
6380,282,0,-74,-116,-23,6
6385,280,0,-76,-122,-24,6
6390,280,0,-74,-126,-26,6
6395,277,0,-78,-132,-27,5
6400,278,0,-77,-136,-27,3
6405,279,1,-78,-139,-28,3
6410,280,0,-78,-142,-30,1
6415,279,0,-79,-143,-31,0
6420,280,-4,-77,-143,-33,1
6425,278,-1,-79,-140,-33,1
6430,280,-1,-78,-134,-33,0
6435,282,0,-76,-128,-30,-1
6440,280,-5,-80,-123,-27,-1
6445,280,-5,-78,-115,-26,-1
6450,281,-7,-79,-110,-22,-1
6455,283,-3,-79,-105,-20,-2
6460,284,-4,-77,-97,-21,-2
6465,280,0,-77,-91,-20,-4
6470,282,-6,-75,-83,-20,-3
6475,281,0,-80,-76,-19,-4
6480,283,-1,-81,-70,-19,-3
6485,282,-2,-81,-70,-17,0
6490,284,-2,-81,-69,-16,0
6495,282,-2,-80,-68,-15,2
6500,280,0,-83,-68,-14,1
6505,279,-1,-81,-73,-14,1
6510,283,-1,-81,-75,-12,0
6515,281,1,-78,-78,-9,1
6520,285,0,-78,-83,-4,0
6525,281,0,-77,-87,-1,0
6530,281,-1,-81,-91,2,1
6535,281,0,-77,-94,3,2
6540,282,0,-84,-99,4,3
6545,283,0,-79,-100,5,5
6550,279,-2,-77,-99,3,7
6555,282,1,-79,-97,3,7
6560,282,0,-77,-96,2,7
6565,284,-3,-78,-95,2,6
6570,284,-2,-79,-96,5,6
6575,282,0,-74,-93,10,4
6580,281,-1,-79,-93,14,3
6585,281,-1,-77,-92,21,2
6590,279,-1,-79,-94,25,3
6595,277,0,-78,-92,25,3
6600,279,-3,-77,-88,23,2
6605,278,-1,-80,-82,18,2
6610,276,-2,-85,-76,12,2
6615,278,-1,-77,-69,9,0
6620,277,-2,-84,-65,9,-1
6625,280,0,-77,-63,11,-2
6630,280,0,-83,-62,15,-3
6635,282,0,-77,-63,24,-1
6640,279,-2,-74,-62,32,1
6645,282,-1,-77,-66,38,0
6650,281,0,-81,-72,39,-1
6655,282,-2,-77,-78,38,0
6660,279,2,-75,-83,35,2
6665,279,-2,-77,-86,33,2
6670,282,-3,-79,-86,30,3
6675,280,-1,-77,-86,26,2
6680,280,0,-78,-85,23,1
6685,280,0,-75,-83,18,0
6690,281,0,-80,-79,15,-3
6695,280,0,-76,-76,13,-5
6700,279,0,-81,-74,12,-5
6705,281,-1,-79,-73,10,-4
6710,282,0,-75,-72,9,-4
6715,279,-1,-77,-70,10,-2
6720,283,-4,-74,-66,9,-2
6725,281,1,-80,-64,10,-4
6730,281,-1,-85,-60,9,-4
6735,280,0,-81,-58,10,-6
6740,278,0,-79,-56,11,-6
6745,278,2,-80,-52,13,-6
6750,279,-2,-79,-53,17,-6
6755,280,0,-72,-53,18,-8
6760,281,0,-73,-55,22,-8
6765,280,1,-78,-54,23,-6
6770,279,0,-77,-58,23,-6
6775,279,1,-78,-60,20,-5
6780,279,0,-82,-60,18,-4
6785,281,0,-79,-62,17,-3
6790,278,0,-74,-63,18,-3
6795,278,-1,-77,-65,19,-2
6800,279,0,-78,-68,20,-1
6805,281,-2,-79,-71,21,-1
6810,279,0,-80,-73,20,-3
6815,280,-4,-80,-71,20,-3
6820,280,-3,-75,-68,22,-3
6825,284,5,-88,-66,22,-2
6830,280,-3,-75,-66,21,-2
6835,281,0,-77,-66,19,-1
6840,280,-1,-75,-66,17,-1
6845,279,0,-78,-65,14,1
6850,280,-1,-79,-63,12,1
6855,280,-3,-78,-59,11,1
6860,281,0,-77,-58,10,1
6865,278,0,-82,-58,12,-1
6870,281,0,-80,-60,15,-1
6875,278,2,-75,-61,17,-2
6880,280,1,-79,-65,20,-3
6885,280,1,-77,-67,23,-4
6890,277,0,-79,-72,24,-3
6895,279,0,-80,-77,26,-3
6900,277,0,-80,-80,26,-1
6905,283,0,-77,-83,25,0
6910,281,-4,-76,-82,21,2
6915,279,-2,-78,-81,15,2
6920,281,-2,-83,-79,12,1
6925,282,-1,-76,-75,9,-1
6930,281,-3,-78,-69,9,-3
6935,280,-2,-79,-62,9,-5
6940,279,0,-80,-58,11,-8
6945,280,0,-79,-57,15,-7
6950,281,-1,-76,-59,16,-9
6955,282,0,-77,-60,20,-10
6960,280,-1,-77,-65,20,-9
6965,275,1,-77,-66,23,-9
6970,281,1,-78,-71,21,-8
6975,279,0,-78,-75,21,-8
6980,283,-3,-78,-75,21,-9
6985,279,2,-76,-75,21,-8
6990,279,-1,-77,-74,20,-10
6995,278,0,-76,-72,21,-10
7000,280,1,-78,-68,22,-11
7005,279,0,-78,-66,20,-10
7010,280,-1,-79,-63,20,-8
7015,281,0,-77,-60,18,-8
7020,277,-2,-77,-59,17,-7
7025,279,1,-79,-57,17,-7
7030,280,1,-79,-57,14,-7
7035,281,0,-78,-55,13,-7
7040,280,-1,-79,-54,11,-7
7045,279,-2,-77,-53,10,-6
7050,279,-1,-76,-52,10,-7
7055,280,-1,-79,-50,10,-5
7060,281,0,-81,-46,12,-6
7065,282,0,-78,-42,13,-5
7070,278,1,-75,-41,16,-6
7075,279,0,-79,-40,18,-6
7080,280,-1,-78,-41,20,-7
7085,281,0,-80,-43,22,-5
7090,279,0,-80,-44,22,-5
7095,284,0,-80,-47,22,-5
7100,279,0,-75,-50,21,-5
7105,281,0,-80,-53,20,-4
7110,282,0,-80,-55,20,-2
7115,280,0,-76,-56,18,-3
7120,282,-1,-80,-55,15,-1
7125,283,-2,-75,-50,11,0
7130,278,-3,-81,-46,6,-1
7135,278,0,-81,-40,1,-1
7140,278,-1,-81,-35,-5,-1
7145,280,0,-82,-30,-9,-3
7150,279,0,-78,-28,-14,-3
7155,276,-3,-77,-28,-17,-2
7160,279,-1,-81,-36,-22,-2
7165,275,-1,-81,-43,-25,-2
7170,278,1,-82,-53,-30,-3
7175,278,1,-83,-63,-33,-4
7180,277,2,-80,-75,-36,-5
7185,281,0,-82,-89,-39,-6
7190,279,0,-81,-106,-42,-6
7195,279,1,-82,-119,-45,-4
7200,275,3,-79,-129,-46,-4
7205,276,1,-77,-135,-45,-4
7210,280,1,-75,-139,-38,-4
7215,277,4,-80,-143,-30,-8
7220,278,3,-79,-142,-15,-10
7225,281,3,-80,-140,3,-10
7230,282,2,-80,-137,23,-9
7235,279,0,-71,-135,38,-7
7240,276,-1,-80,-131,49,-4
7245,271,-12,-77,-129,55,-2
7250,271,1,-74,-122,59,1
7255,270,3,-100,-116,59,5
7260,272,-11,-64,-104,58,7
7265,270,-9,-72,-90,56,9
7270,284,-21,-53,-76,52,9
7275,279,-14,-73,-60,49,6
7280,274,-12,-87,-42,44,3
7285,278,-5,-71,-27,36,-3
7290,283,-13,-79,-14,26,-12
7295,276,-2,-77,-4,14,-21
7300,274,-21,-100,7,1,-31
7305,280,-1,-79,20,-9,-41
7310,272,0,-82,39,-11,-53
7315,281,-4,-84,59,-9,-61
7320,281,-4,-88,79,0,-65
7325,283,-1,-84,94,14,-66
7330,283,0,-88,105,34,-63
7335,284,-2,-85,110,56,-58
7340,285,2,-89,110,78,-50
7345,284,0,-88,101,99,-40
7350,288,4,-83,86,118,-30
7355,290,8,-93,62,132,-22
7360,293,7,-84,32,143,-17
7365,302,4,-79,-2,150,-12
7370,291,10,-87,-37,154,-10
7375,292,7,-91,-70,156,-11
7380,293,6,-83,-100,158,-13
7385,291,4,-86,-124,157,-18
7390,287,7,-85,-141,157,-20
7395,285,6,-83,-154,154,-20
7400,286,7,-83,-160,154,-18
7405,285,6,-84,-162,162,-15
7410,285,6,-80,-162,176,-6
7415,286,10,-82,-159,200,3
7420,281,10,-82,-155,223,15
7425,288,9,-75,-150,243,30
7430,285,9,-78,-143,257,45
7435,286,8,-80,-136,261,58
7440,285,9,-80,-130,264,68
7445,285,8,-79,-124,264,78
7450,286,8,-73,-120,261,83
7455,286,6,-80,-119,249,87
7460,287,4,-75,-121,232,85
7465,285,3,-78,-131,213,80
7470,286,5,-76,-143,196,75
7475,284,3,-72,-153,183,70
7480,282,1,-75,-163,174,64
7485,285,2,-73,-172,173,61
7490,284,0,-71,-180,178,57
7495,284,-3,-70,-188,186,54
7500,285,-7,-68,-197,197,50
7505,280,-5,-74,-214,209,46
7510,277,-2,-71,-232,226,45
7515,278,-4,-70,-244,248,47
7520,275,-1,-68,-251,266,50
7525,276,-1,-73,-254,282,52
7530,273,2,-71,-253,292,59
7535,273,0,-70,-255,301,65
7540,268,1,-72,-259,306,69
7545,268,1,-69,-264,308,69
7550,263,2,-67,-268,311,72
7555,264,6,-66,-271,312,75
7560,264,8,-65,-274,310,80
7565,269,8,-63,-277,304,83
7570,268,6,-59,-277,293,86
7575,268,8,-55,-274,278,87
7580,274,8,-53,-269,263,81
7585,276,4,-51,-262,242,81
7590,273,3,-49,-259,215,77
7595,281,2,-46,-266,180,73
7600,282,1,-50,-284,142,64
7605,276,0,-45,-304,105,59
7610,281,-2,-51,-322,70,52
7615,281,-7,-49,-333,39,45
7620,280,-8,-51,-334,13,34
7625,275,-9,-51,-322,-4,21
7630,276,-14,-52,-303,-16,7
7635,275,-14,-53,-280,-19,-7
7640,272,-12,-55,-256,-21,-18
7645,274,-12,-57,-230,-20,-25
7650,272,-16,-61,-205,-19,-31
7655,273,-11,-65,-182,-19,-32
7660,275,-9,-66,-164,-22,-34
7665,277,-9,-66,-149,-30,-35
7670,278,-14,-66,-143,-42,-40
7675,276,-11,-64,-143,-57,-53
7680,279,-13,-56,-149,-78,-66
7685,278,-15,-52,-159,-109,-81
7690,280,-17,-53,-172,-142,-97
7695,278,-16,-46,-189,-178,-109
7700,279,-24,-45,-206,-214,-121
7705,278,-14,-44,-220,-247,-142
7710,275,-12,-41,-225,-279,-161
7715,277,-15,-38,-220,-311,-175
7720,274,-13,-41,-214,-342,-184
7725,274,-10,-46,-206,-369,-191
7730,270,-8,-44,-198,-394,-197
7735,269,-9,-47,-194,-416,-209
7740,267,-7,-48,-188,-434,-223
7745,264,-4,-47,-185,-453,-236
7750,260,0,-49,-186,-472,-248
7755,257,1,-48,-194,-493,-259
7760,256,0,-47,-208,-519,-272
7765,256,1,-45,-229,-551,-285
7770,252,1,-46,-251,-585,-302
7775,250,1,-44,-269,-624,-324
7780,244,3,-47,-281,-666,-350
7785,243,1,-48,-286,-715,-379
7790,246,-1,-50,-287,-772,-407
7795,247,-5,-51,-293,-836,-431
7800,247,-4,-52,-301,-908,-451
7805,249,-6,-59,-311,-982,-471
7810,250,-8,-57,-313,-1055,-495
7815,255,-12,-67,-306,-1124,-519
7820,257,-13,-74,-296,-1194,-541
7825,264,-11,-82,-282,-1262,-555
7830,269,-10,-87,-272,-1323,-563
7835,280,-5,-99,-270,-1367,-564
7840,285,-2,-110,-276,-1389,-558
7845,289,5,-119,-290,-1391,-549
7850,293,3,-123,-305,-1370,-534
7855,300,8,-123,-322,-1335,-512
7860,300,14,-125,-335,-1289,-486
7865,297,20,-123,-340,-1238,-455
7870,294,23,-120,-339,-1182,-419
7875,292,30,-112,-332,-1127,-375
7880,288,31,-109,-326,-1081,-330
7885,288,38,-105,-322,-1039,-286
7890,285,47,-105,-328,-1005,-249
7895,285,49,-107,-349,-975,-219
7900,286,52,-101,-377,-949,-189
7905,283,49,-99,-405,-925,-161
7910,284,48,-102,-427,-898,-134
7915,275,57,-102,-432,-867,-107
7920,279,49,-100,-419,-837,-78
7925,280,55,-104,-386,-808,-46
7930,281,56,-107,-341,-783,-15
7935,285,60,-117,-290,-762,15
7940,282,64,-128,-240,-746,38
7945,287,66,-129,-200,-732,57
7950,290,68,-138,-168,-718,72
7955,294,69,-136,-140,-703,84
7960,293,69,-144,-113,-690,91
7965,303,59,-131,-84,-681,98
7970,297,65,-147,-58,-677,103
7975,299,61,-150,-33,-677,106
7980,299,60,-154,-11,-680,110
7985,292,61,-161,8,-689,115
7990,297,58,-168,30,-701,124
7995,298,58,-172,48,-715,131
8000,294,60,-174,71,-734,143
8005,294,58,-175,87,-749,148
8010,291,55,-176,108,-758,152
8015,292,59,-172,122,-762,150
8020,292,63,-165,130,-762,146
8025,293,67,-170,134,-762,141
8030,292,64,-172,133,-762,151
8035,294,65,-176,126,-756,167
8040,293,65,-174,116,-739,194
8045,292,66,-176,95,-711,229
8050,286,63,-184,71,-680,269
8055,281,60,-185,49,-649,308
8060,276,55,-181,33,-620,349
8065,276,49,-179,28,-589,390
8070,270,40,-176,37,-558,431
8075,270,31,-172,56,-531,469
8080,268,28,-170,87,-506,500
8085,271,15,-167,132,-486,535
8090,271,10,-164,195,-473,560
8095,276,4,-160,277,-459,580
8100,278,0,-168,365,-454,602
8105,283,-2,-164,446,-465,620
8110,288,-1,-166,521,-483,639
8115,288,-4,-164,597,-497,659
8120,290,-7,-165,675,-502,671
8125,290,-4,-173,746,-495,681
8130,289,0,-182,797,-482,684
8135,291,3,-190,821,-466,693
8140,283,3,-190,829,-444,708
8145,280,4,-195,832,-408,722
8150,277,2,-200,833,-360,734
8155,267,3,-196,831,-309,745
8160,257,5,-194,823,-264,756
8165,252,4,-192,801,-229,767
8170,243,7,-191,771,-200,779
8175,242,6,-188,730,-176,794
8180,240,4,-181,678,-158,813
8185,232,2,-173,619,-150,836
8190,229,-2,-162,543,-151,853
8195,223,-3,-151,457,-166,868
8200,217,-5,-150,364,-189,878
8205,211,-19,-149,281,-215,881
8210,205,-15,-147,212,-239,881
8215,204,-18,-152,168,-257,879
8220,202,-22,-159,147,-270,877
8225,194,-27,-161,140,-281,872
8230,193,-26,-169,143,-296,863
8235,189,-29,-173,163,-309,847
8240,175,-28,-174,204,-314,824
8245,178,-32,-173,268,-312,796
8250,169,-28,-170,334,-310,768
8255,156,-24,-170,380,-312,746
8260,161,-22,-165,395,-331,726
8265,160,-20,-164,379,-361,708
8270,161,-24,-160,344,-392,681
8275,164,-27,-156,301,-418,647
8280,170,-31,-158,244,-444,604
8285,171,-41,-154,181,-483,567
8290,177,-50,-149,127,-535,541
8295,183,-64,-150,99,-592,529
8300,194,-74,-147,108,-637,531
8305,199,-85,-152,154,-673,540
8310,209,-92,-166,225,-702,552
8315,217,-97,-168,308,-723,564
8320,230,-100,-176,399,-734,578
8325,236,-99,-190,493,-733,589
8330,238,-100,-201,580,-721,592
8335,248,-92,-211,655,-697,588
8340,251,-87,-212,713,-662,580
8345,255,-85,-223,748,-624,566
8350,261,-83,-225,759,-584,544
8355,260,-71,-223,746,-553,512
8360,260,-68,-221,708,-527,477
8365,257,-66,-217,649,-513,441
8370,255,-65,-205,570,-506,409
8375,253,-68,-199,480,-510,391
8380,249,-67,-197,390,-521,385
8385,246,-66,-192,304,-535,377
8390,239,-65,-189,242,-552,373
8395,230,-67,-185,203,-573,374
8400,228,-71,-182,192,-592,380
8405,225,-72,-184,199,-601,394
8410,218,-77,-191,209,-603,419
8415,214,-82,-187,219,-596,450
8420,211,-82,-188,233,-580,479
8425,210,-90,-190,255,-559,509
8430,211,-88,-192,284,-531,542
8435,212,-90,-194,314,-499,573
8440,209,-92,-197,337,-469,597
8445,209,-86,-204,344,-440,620
8450,210,-82,-203,334,-415,636
8455,211,-81,-202,330,-390,649
8460,212,-82,-206,315,-372,672
8465,218,-81,-201,278,-342,691
8470,211,-79,-202,230,-310,707
8475,210,-78,-207,191,-297,730
8480,208,-75,-208,174,-305,746
8485,208,-69,-211,180,-326,748
8490,207,-67,-209,205,-345,738
8495,207,-71,-207,242,-355,722
8500,205,-70,-212,275,-367,700
8505,199,-71,-201,292,-377,681
8510,205,-59,-208,290,-377,661
8515,198,-70,-197,274,-367,644
8520,197,-71,-191,247,-353,635
8525,195,-69,-182,213,-338,635
8530,198,-70,-176,173,-319,645
8535,198,-71,-179,133,-294,663
8540,200,-67,-180,95,-264,685
8545,199,-71,-177,63,-231,713
8550,197,-74,-178,37,-202,742
8555,194,-74,-177,16,-167,766
8560,195,-77,-183,10,-127,795
8565,182,-81,-183,14,-84,821
8570,191,-80,-189,26,-42,840
8575,186,-84,-190,49,-13,851
8580,180,-84,-190,73,4,845
8585,177,-87,-193,103,10,824
8590,172,-89,-195,136,5,797
8595,168,-94,-197,175,-7,772
8600,169,-100,-201,220,-32,745
8605,168,-84,-219,269,-70,714
8610,173,-115,-212,321,-120,680
8615,157,-105,-210,365,-177,650
8620,166,-112,-203,399,-219,624
8625,152,-132,-194,422,-252,606
8630,175,-120,-215,432,-271,594
8635,178,-133,-208,433,-277,586
8640,178,-138,-211,419,-270,580
8645,188,-137,-209,398,-254,569
8650,192,-127,-216,381,-242,568
8655,203,-139,-214,366,-231,567
8660,218,-131,-199,351,-224,550
8665,210,-150,-208,345,-218,518
8670,213,-166,-215,344,-202,513
8675,213,-157,-206,347,-201,531
8680,206,-152,-208,359,-214,511
8685,211,-154,-212,374,-225,496
8690,195,-145,-214,381,-238,502
8695,196,-140,-203,380,-241,512
8700,193,-132,-198,374,-232,532
8705,195,-134,-193,363,-212,554
8710,183,-128,-192,357,-187,554
8715,199,-125,-216,360,-158,541
8720,177,-120,-201,371,-136,535
8725,184,-113,-188,376,-129,561
8730,183,-117,-193,377,-138,564
8735,170,-129,-184,382,-152,521
8740,145,-122,-186,385,-170,483
8745,174,-131,-189,377,-192,471
8750,171,-143,-189,362,-218,446
8755,178,-147,-183,352,-236,411
8760,162,-146,-187,345,-244,377
8765,168,-150,-189,337,-230,374
8770,175,-149,-188,321,-200,384
8775,174,-158,-181,307,-160,377
8780,164,-155,-179,291,-107,382
8785,188,-162,-176,269,-50,418
8790,183,-164,-176,256,-5,420
8795,180,-162,-173,252,35,413
8800,180,-163,-173,250,65,430
8805,182,-166,-180,247,89,460
8810,185,-166,-183,241,107,494
8815,189,-155,-193,230,124,530
8820,189,-160,-186,221,136,563
8825,193,-155,-186,211,145,592
8830,195,-150,-187,201,148,614
8835,197,-148,-189,190,151,625
8840,197,-145,-187,182,150,627
8845,198,-147,-190,174,146,623
8850,195,-147,-192,167,140,613
8855,193,-145,-191,160,133,599
8860,194,-149,-192,155,129,584
8865,196,-150,-193,150,127,567
8870,188,-152,-190,150,127,550
8875,183,-148,-187,152,126,534
8880,178,-152,-184,156,124,518
8885,175,-154,-184,166,122,506
8890,169,-157,-183,174,127,497
8895,166,-159,-183,185,140,492
8900,165,-164,-184,196,162,490
8905,166,-166,-179,208,191,491
8910,167,-169,-183,230,230,494
8915,163,-176,-179,258,275,498
8920,159,-176,-177,295,321,505
8925,158,-178,-184,343,364,513
8930,160,-179,-181,391,403,525
8935,159,-180,-185,435,435,541
8940,160,-179,-187,469,461,565
8945,157,-177,-191,488,483,596
8950,162,-178,-185,498,498,630
8955,164,-174,-190,492,505,669
8960,174,-176,-190,472,505,708
8965,169,-169,-190,441,495,741
8970,173,-167,-185,403,473,771
8975,173,-167,-184,362,441,788
8980,175,-162,-183,325,399,800
8985,172,-159,-184,290,356,806
8990,170,-156,-181,266,316,807
8995,168,-148,-173,256,292,802
9000,166,-149,-178,254,284,797
9005,171,-150,-166,264,298,787
9010,171,-151,-165,288,330,777
9015,170,-149,-166,318,376,757
9020,172,-147,-166,343,426,737
9025,171,-149,-162,361,479,717
9030,175,-152,-163,367,526,697
9035,184,-153,-163,362,572,680
9040,189,-157,-154,349,612,670
9045,192,-161,-155,331,644,662
9050,192,-160,-159,319,666,659
9055,193,-164,-155,307,673,660
9060,196,-166,-159,296,667,655
9065,195,-165,-162,284,655,653
9070,192,-168,-175,273,640,652
9075,188,-166,-173,269,626,653
9080,177,-168,-180,272,606,656
9085,167,-167,-184,278,588,661
9090,158,-167,-188,277,569,669
9095,147,-160,-183,264,551,679
9100,139,-165,-187,245,538,686
9105,131,-163,-185,214,529,692
9110,120,-163,-172,176,526,698
9115,122,-160,-176,134,529,700
9120,119,-159,-167,93,535,705
9125,119,-158,-161,51,545,708
9130,118,-161,-157,12,560,708
9135,112,-159,-151,-26,577,708
9140,114,-154,-148,-56,590,707
9145,116,-153,-152,-80,601,706
9150,114,-157,-142,-97,606,700
9155,117,-158,-144,-103,607,696
9160,118,-159,-144,-110,604,691
9165,118,-159,-138,-118,602,685
9170,119,-164,-145,-126,593,683
9175,123,-167,-150,-135,581,684
9180,123,-169,-150,-149,562,686
9185,123,-177,-152,-168,538,685
9190,122,-177,-154,-184,505,688
9195,126,-183,-157,-201,465,691
9200,124,-188,-155,-222,418,688
9205,124,-196,-157,-239,365,682
9210,123,-203,-156,-252,302,669
9215,119,-208,-159,-258,235,649
9220,119,-215,-163,-256,163,624
9225,123,-224,-161,-249,90,598
9230,116,-225,-166,-240,23,570
9235,120,-232,-170,-235,-38,541
9240,121,-231,-170,-231,-86,514
9245,124,-234,-176,-235,-114,494
9250,125,-234,-171,-246,-123,480
9255,127,-227,-173,-262,-111,473
9260,128,-224,-176,-282,-82,475
9265,129,-221,-172,-301,-38,482
9270,133,-215,-176,-317,10,496
9275,132,-213,-168,-325,65,517
9280,133,-208,-170,-325,118,540
9285,136,-205,-163,-315,172,568
9290,141,-209,-157,-292,220,595
9295,140,-213,-155,-262,269,621
9300,142,-214,-154,-224,310,646
9305,148,-215,-148,-181,347,671
9310,146,-218,-142,-136,375,694
9315,150,-222,-142,-96,394,710
9320,145,-226,-137,-57,400,723
9325,145,-229,-136,-25,397,728
9330,144,-234,-135,11,384,728
9335,140,-236,-134,49,368,725
9340,136,-237,-134,88,350,717
9345,131,-239,-137,127,327,712
9350,128,-239,-137,163,306,700
9355,125,-240,-138,197,287,687
9360,121,-238,-139,221,275,672
9365,118,-233,-142,247,260,661
9370,112,-234,-145,269,247,650
9375,109,-231,-147,289,234,641
9380,109,-228,-149,306,226,636
9385,104,-227,-154,326,219,631
9390,102,-222,-157,342,215,624
9395,105,-223,-154,356,211,612
9400,96,-218,-155,367,204,601
9405,99,-216,-153,372,194,587
9410,96,-213,-150,368,184,572
9415,97,-214,-147,358,172,556
9420,94,-207,-142,342,159,542
9425,96,-210,-142,312,151,530
9430,96,-206,-139,274,146,522
9435,94,-207,-139,229,143,517
9440,93,-210,-137,180,145,514
9445,95,-214,-136,133,150,514
9450,88,-214,-132,95,154,515
9455,93,-219,-128,70,155,512
9460,93,-224,-130,55,148,514
9465,89,-228,-127,48,139,512
9470,89,-234,-129,57,123,509
9475,91,-235,-128,70,101,507
9480,87,-238,-126,98,79,504
9485,93,-243,-128,133,56,504
9490,89,-246,-129,172,33,498
9495,95,-247,-131,209,14,488
9500,95,-246,-134,247,0,478
9505,93,-244,-136,279,-7,465
9510,96,-239,-139,299,-10,459
9515,98,-236,-134,308,-9,451
9520,98,-233,-135,307,-2,446
9525,95,-232,-137,300,7,439
9530,100,-230,-136,286,16,434
9535,97,-229,-136,267,26,426
9540,97,-226,-137,247,34,420
9545,93,-226,-137,226,42,414
9550,95,-229,-136,210,44,413
9555,91,-228,-137,199,42,411
9560,92,-230,-136,194,38,409
9565,91,-232,-138,191,33,409
9570,87,-231,-136,192,26,410
9575,86,-237,-134,194,19,411
9580,82,-234,-134,199,14,414
9585,84,-233,-134,201,14,418
9590,87,-234,-135,202,18,426
9595,85,-236,-130,198,28,433
9600,83,-231,-132,191,42,442
9605,87,-235,-128,178,58,452
9610,81,-229,-131,162,73,462
9615,84,-229,-132,144,87,471
9620,86,-228,-132,123,99,476
9625,80,-229,-134,104,109,479
9630,82,-229,-132,87,114,478
9635,82,-228,-137,71,113,480
9640,79,-226,-134,61,113,480
9645,81,-230,-133,52,109,480
9650,75,-226,-132,48,101,481
9655,101,-218,-113,44,95,479
9660,75,-229,-130,45,88,478
9665,77,-231,-129,44,82,479
9670,72,-236,-129,46,76,478
9675,68,-237,-128,41,69,476
9680,69,-241,-128,40,66,470
9685,64,-241,-127,37,63,461
9690,62,-245,-125,33,62,453
9695,64,-247,-119,33,59,445
9700,62,-249,-121,33,54,436
9705,63,-251,-121,30,49,429
9710,67,-247,-124,26,42,426
9715,60,-254,-121,23,32,424
9720,60,-252,-126,19,22,422
9725,59,-252,-126,14,14,417
9730,62,-250,-125,7,11,413
9735,59,-247,-129,3,11,407
9740,60,-244,-128,-2,11,401
9745,62,-242,-129,-3,15,397
9750,60,-243,-130,-4,19,396
9755,61,-238,-133,-7,27,397
9760,61,-238,-127,-12,38,398
9765,64,-233,-131,-18,49,401
9770,62,-237,-128,-26,64,402
9775,63,-239,-125,-29,78,402
9780,62,-237,-127,-30,89,407
9785,59,-236,-127,-26,101,408
9790,63,-240,-125,-22,115,410
9795,59,-238,-119,-13,124,414
9800,60,-243,-117,-2,133,414
9805,59,-244,-122,6,140,413
9810,60,-246,-114,14,146,410
9815,60,-247,-117,23,151,408
9820,58,-254,-116,33,155,407
9825,51,-249,-113,46,159,406
9830,51,-249,-113,63,162,403
9835,54,-248,-114,76,165,402
9840,52,-248,-118,88,163,400
9845,52,-250,-116,97,160,399
9850,46,-248,-118,103,157,397
9855,50,-248,-118,106,155,394
9860,49,-244,-117,106,150,392
9865,49,-246,-117,104,144,391
9870,51,-248,-118,99,136,391
9875,47,-244,-118,91,130,389
9880,48,-245,-122,80,124,384
9885,49,-243,-120,70,118,379
9890,47,-243,-120,60,114,374
9895,49,-243,-120,51,109,370
9900,50,-244,-120,45,108,369
9905,50,-240,-120,42,109,366
9910,51,-241,-124,38,111,363
9915,48,-239,-124,34,116,358
9920,47,-239,-120,27,121,351
9925,50,-244,-121,18,125,345
9930,49,-243,-123,5,130,343
9935,47,-244,-124,-8,134,337
9940,50,-247,-124,-23,136,331
9945,50,-244,-121,-34,136,324
9950,50,-250,-123,-41,133,323
9955,48,-251,-118,-51,129,322
9960,49,-254,-121,-55,125,317
9965,47,-254,-119,-56,123,312
9970,49,-252,-120,-49,120,307
9975,48,-254,-119,-41,115,302
9980,44,-256,-122,-29,108,297
9985,46,-255,-124,-9,96,293
9990,40,-256,-121,12,82,290
9995,39,-253,-123,32,72,282
10000,37,-256,-120,52,57,276
10005,42,-256,-124,67,45,269
10010,39,-257,-123,79,34,261
10015,38,-256,-125,89,25,252
10020,32,-256,-124,101,12,253
10025,31,-259,-122,110,-3,247
10030,29,-260,-125,116,-19,245
10035,30,-258,-130,121,-34,243
10040,28,-257,-123,121,-42,234
10045,27,-256,-126,122,-47,230
10050,26,-258,-127,117,-47,221
10055,22,-259,-126,112,-45,211
10060,20,-256,-123,112,-40,205
10065,18,-258,-119,112,-35,212
10070,18,-257,-119,115,-33,217
10075,17,-259,-115,120,-33,220
10080,12,-257,-116,130,-34,231
10085,19,-258,-119,145,-32,241
10090,13,-255,-116,155,-34,238
10095,10,-254,-120,158,-35,245
10100,11,-255,-117,163,-34,249
10105,8,-251,-117,167,-33,254
10110,7,-255,-117,166,-37,262
10115,11,-251,-111,161,-38,271
10120,16,-250,-114,154,-37,277
10125,15,-249,-110,145,-37,280
10130,16,-249,-117,134,-36,293
10135,16,-249,-111,127,-36,305
10140,20,-253,-111,117,-30,305
10145,22,-252,-108,108,-28,298
10150,15,-248,-108,96,-25,291
10155,17,-247,-113,81,-21,294
10160,19,-245,-114,66,-21,287
10165,17,-246,-116,44,-21,277
10170,17,-248,-117,15,-23,263
10175,16,-244,-116,-14,-27,247
10180,15,-244,-118,-48,-32,243
10185,13,-247,-120,-79,-36,239
10190,16,-249,-113,-110,-37,230
10195,17,-250,-120,-134,-40,218
10200,10,-248,-115,-151,-40,194
10205,10,-248,-119,-159,-41,189
10210,14,-254,-118,-158,-43,192
10215,14,-255,-119,-150,-48,191
10220,16,-253,-117,-133,-53,186
10225,17,-254,-116,-118,-57,180
10230,20,-254,-118,-100,-60,171
10235,12,-254,-116,-84,-64,158
10240,14,-252,-115,-68,-65,164
10245,13,-253,-119,-55,-66,160
10250,15,-258,-119,-45,-66,151
10255,13,-248,-114,-43,-65,144
10260,21,-253,-118,-39,-65,136
10265,19,-249,-115,-36,-60,130
10270,20,-252,-120,-32,-51,125
10275,24,-251,-117,-29,-41,120
10280,19,-254,-118,-28,-27,116
10285,21,-253,-115,-29,-15,111
10290,20,-252,-116,-29,-3,106
10295,18,-251,-119,-36,4,102
10300,19,-254,-114,-46,8,99
10305,12,-252,-118,-58,10,98
10310,11,-250,-125,-75,9,97
10315,12,-248,-116,-94,4,99
10320,13,-254,-124,-110,-3,102
10325,7,-252,-124,-123,-13,103
10330,4,-252,-123,-127,-24,106
10335,7,-252,-122,-126,-36,109
10340,2,-253,-120,-117,-48,112
10345,3,-254,-121,-98,-57,116
10350,3,-250,-121,-80,-63,118
10355,2,-250,-115,-58,-66,116
10360,3,-252,-118,-38,-65,116
10365,3,-253,-118,-23,-60,112
10370,7,-253,-118,-8,-52,110
10375,9,-251,-119,4,-37,107
10380,8,-251,-115,11,-20,102
10385,16,-253,-115,19,-1,96
10390,14,-254,-117,26,18,89
10395,16,-254,-122,24,38,82
10400,15,-251,-119,20,56,72
10405,17,-254,-120,14,73,66
10410,18,-251,-121,5,88,61
10415,19,-253,-120,-6,99,57
10420,20,-252,-120,-16,109,52
10425,22,-253,-121,-23,119,50
10430,22,-252,-116,-32,129,50
10435,21,-249,-121,-37,139,46
10440,27,-248,-117,-41,146,43
10445,22,-249,-114,-45,151,37
10450,20,-247,-111,-50,151,30
10455,20,-243,-114,-54,152,22
10460,17,-245,-110,-67,147,14
10465,16,-239,-112,-82,142,8
10470,15,-243,-112,-102,136,3
10475,15,-246,-119,-123,128,1
10480,12,-250,-112,-142,121,1
10485,14,-251,-113,-157,111,1
10490,12,-254,-114,-164,102,3
10495,12,-256,-115,-163,94,4
10500,13,-257,-118,-152,89,9
10505,17,-261,-119,-136,83,14
10510,17,-266,-120,-112,83,20
10515,17,-265,-125,-87,85,26
10520,20,-267,-127,-55,93,33
10525,22,-269,-122,-22,106,41
10530,20,-266,-126,13,121,51
10535,26,-263,-126,47,138,59
10540,26,-261,-129,80,158,65
10545,25,-258,-127,109,180,68
10550,27,-256,-129,133,199,73
10555,30,-253,-125,150,218,77
10560,30,-251,-126,161,233,83
10565,28,-246,-126,166,246,86
10570,25,-243,-124,156,253,88
10575,25,-241,-120,138,258,88
10580,25,-240,-121,111,258,92
10585,24,-237,-120,76,256,90
10590,21,-238,-116,36,249,85
10595,16,-238,-115,-4,238,85
10600,20,-240,-113,-44,226,89
10605,17,-239,-109,-81,212,85
10610,14,-241,-109,-109,202,83
10615,10,-240,-105,-133,193,81
10620,8,-244,-105,-149,184,75
10625,7,-247,-104,-160,176,69
10630,6,-249,-105,-164,172,65
10635,1,-250,-102,-163,168,62
10640,5,-253,-103,-163,161,52
10645,0,-250,-101,-156,151,45
10650,1,-253,-104,-149,142,39
10655,2,-252,-103,-143,130,37
10660,2,-255,-106,-141,114,34
10665,3,-256,-112,-142,96,34
10670,3,-257,-105,-144,76,31
10675,4,-258,-114,-149,54,28
10680,4,-258,-116,-158,36,24
10685,4,-260,-117,-160,20,20
10690,0,-259,-122,-162,6,13
10695,4,-258,-120,-156,-5,7
10700,4,-258,-119,-146,-12,-2
10705,2,-260,-117,-131,-15,-13
10710,5,-257,-119,-112,-14,-26
10715,7,-257,-119,-92,-10,-38
10720,6,-256,-120,-73,-6,-47
10725,9,-254,-123,-55,-1,-57
10730,9,-254,-120,-40,3,-64
10735,8,-252,-119,-27,5,-68
10740,10,-252,-121,-18,7,-72
10745,14,-251,-118,-14,6,-73
10750,13,-249,-122,-15,2,-73
10755,15,-249,-119,-21,-4,-70
10760,12,-250,-114,-28,-12,-65
10765,15,-249,-119,-37,-20,-61
10770,17,-253,-116,-47,-29,-54
10775,16,-250,-119,-54,-38,-47
10780,15,-250,-115,-60,-47,-42
10785,14,-253,-116,-59,-55,-40
10790,15,-254,-118,-54,-64,-39
10795,17,-250,-115,-50,-71,-39
10800,19,-253,-116,-41,-75,-40
10805,19,-254,-116,-36,-79,-40
10810,18,-251,-114,-33,-79,-40
10815,16,-251,-118,-31,-78,-41
10820,20,-251,-114,-35,-76,-41
10825,17,-249,-120,-40,-71,-41
10830,17,-247,-116,-46,-64,-42
10835,17,-250,-118,-54,-58,-43
10840,17,-251,-113,-63,-52,-45
10845,19,-247,-119,-69,-46,-45
10850,18,-256,-101,-74,-41,-47
10855,16,-250,-117,-76,-37,-46
10860,15,-247,-114,-72,-34,-47
10865,17,-251,-115,-67,-32,-47
10870,14,-251,-117,-64,-27,-44
10875,18,-253,-117,-62,-23,-37
10880,15,-252,-115,-63,-18,-32
10885,14,-252,-115,-66,-12,-24
10890,17,-257,-114,-68,-6,-20
10895,16,-255,-114,-66,-3,-16
10900,19,-258,-114,-64,-3,-16
10905,18,-259,-130,-57,-4,-17
10910,17,-258,-119,-52,-5,-17
10915,18,-256,-117,-48,-7,-17
10920,16,-254,-124,-49,-13,-15
10925,13,-250,-121,-51,-17,-13
10930,18,-249,-120,-52,-22,-13
10935,19,-250,-120,-53,-28,-15
10940,19,-245,-121,-54,-33,-18
10945,20,-247,-119,-49,-36,-21
10950,22,-245,-123,-48,-41,-24
10955,21,-244,-122,-48,-43,-28
10960,20,-248,-120,-48,-43,-31
10965,23,-246,-119,-51,-41,-35
10970,22,-246,-120,-56,-37,-35
10975,21,-245,-120,-64,-30,-36
10980,22,-251,-121,-75,-21,-33
10985,20,-249,-119,-85,-13,-31
10990,19,-246,-119,-96,-1,-24
10995,19,-247,-119,-107,8,-17
11000,19,-245,-119,-120,17,-10
11005,17,-245,-120,-134,26,-2
11010,20,-247,-121,-145,34,5
11015,22,-245,-120,-156,41,12
11020,18,-246,-118,-164,46,19
11025,19,-249,-121,-170,50,23
11030,18,-245,-122,-174,52,27
11035,20,-253,-121,-176,52,29
11040,19,-251,-118,-174,53,30
11045,19,-252,-122,-172,52,31
11050,18,-250,-117,-170,52,31
11055,21,-250,-118,-167,51,31
11060,22,-250,-116,-168,48,32
11065,17,-253,-115,-169,48,33
11070,17,-251,-116,-169,48,32
11075,16,-255,-114,-168,48,32
11080,18,-255,-115,-162,49,32
11085,18,-260,-119,-153,50,31
11090,18,-256,-117,-138,50,29
11095,18,-260,-120,-117,46,27
11100,15,-259,-116,-91,43,21
11105,16,-258,-118,-61,38,18
11110,14,-260,-114,-31,33,14
11115,14,-257,-118,-5,28,13
11120,17,-256,-115,16,26,11
11125,13,-256,-114,26,25,13
11130,11,-254,-118,32,26,15
11135,12,-255,-115,30,29,18
11140,13,-253,-117,26,29,22
11145,10,-249,-111,19,30,24
11150,13,-249,-118,10,30,27
11155,14,-252,-112,-2,30,31
11160,12,-250,-119,-12,30,31
11165,14,-253,-118,-20,30,32
11170,9,-246,-115,-27,29,31
11175,13,-248,-121,-33,29,29
11180,14,-251,-120,-33,26,26
11185,14,-246,-120,-37,24,24
11190,14,-249,-122,-34,22,22
11195,14,-251,-119,-33,19,20
11200,18,-248,-121,-30,16,15
11205,16,-250,-119,-27,11,13
11210,15,-249,-127,-28,6,10
11215,13,-246,-122,-28,4,6
11220,14,-246,-121,-29,-1,2
11225,13,-250,-121,-33,-5,-1
11230,11,-248,-122,-34,-8,-5
11235,15,-247,-124,-36,-11,-8
11240,13,-249,-124,-39,-16,-9
11245,13,-250,-121,-41,-19,-11
11250,14,-250,-122,-41,-20,-13
11255,11,-252,-123,-41,-22,-15
11260,12,-251,-122,-42,-22,-15
11265,9,-249,-121,-42,-22,-15
11270,12,-251,-121,-41,-20,-15
11275,11,-249,-125,-43,-20,-13
11280,13,-253,-122,-45,-20,-15
11285,12,-251,-122,-45,-21,-13
11290,8,-251,-121,-44,-19,-12
11295,13,-250,-122,-43,-18,-12
11300,12,-251,-121,-42,-18,-12
11305,13,-251,-121,-39,-17,-11
11310,9,-250,-122,-35,-17,-10
11315,12,-252,-121,-30,-14,-11
11320,15,-252,-123,-29,-13,-11
11325,12,-249,-119,-30,-11,-11
11330,13,-253,-117,-30,-9,-11
11335,13,-252,-122,-31,-9,-12
11340,19,-251,-115,-33,-8,-14
11345,19,-245,-124,-34,-8,-16
11350,17,-251,-119,-37,-6,-16
11355,15,-251,-118,-38,-5,-15
11360,17,-251,-116,-37,-4,-15
11365,15,-252,-118,-39,-1,-12
11370,17,-247,-119,-38,-1,-12
11375,15,-251,-115,-37,3,-11
11380,17,-249,-116,-36,3,-8
11385,16,-252,-117,-35,6,-6
11390,14,-249,-115,-32,8,-5
11395,11,-253,-132,-32,8,-5
11400,17,-248,-121,-32,8,-5
11405,16,-252,-116,-33,10,-2
11410,14,-252,-122,-35,10,-3
11415,13,-251,-118,-36,10,-1
11420,16,-253,-120,-39,11,0
11425,14,-255,-121,-42,13,2
11430,11,-253,-121,-45,14,3
11435,14,-250,-114,-51,17,5
11440,15,-249,-120,-55,19,6
11445,14,-248,-116,-57,20,6
11450,20,-256,-105,-60,21,5
11455,15,-250,-118,-59,20,4
11460,16,-251,-116,-61,19,2
11465,13,-251,-116,-59,19,3
11470,15,-250,-119,-58,18,0
11475,16,-251,-119,-54,18,0
11480,13,-252,-123,-50,16,-1
11485,16,-250,-125,-43,16,-4
11490,16,-253,-122,-36,15,-7
11495,15,-251,-123,-29,14,-10
11500,15,-251,-118,-21,13,-12
11505,13,-251,-121,-18,10,-14
11510,15,-253,-121,-15,10,-16
11515,15,-251,-124,-19,10,-17
11520,13,-251,-122,-26,11,-16
11525,12,-248,-122,-37,13,-16
11530,15,-250,-120,-45,17,-16
11535,13,-250,-122,-54,22,-14
11540,13,-248,-127,-60,25,-13
11545,12,-249,-122,-63,29,-11
11550,13,-251,-122,-64,30,-11
11555,16,-249,-119,-61,31,-10
11560,10,-250,-119,-56,31,-10
11565,13,-252,-124,-50,32,-8
11570,10,-256,-120,-45,33,-9
11575,15,-251,-116,-39,32,-8
11580,13,-254,-123,-30,32,-9
11585,15,-253,-121,-21,29,-9
11590,14,-253,-123,-14,28,-10
11595,14,-252,-123,-4,25,-12
11600,14,-252,-121,3,23,-12
11605,15,-252,-121,8,20,-14
11610,15,-253,-121,12,17,-16
11615,18,-251,-121,16,17,-18
11620,13,-250,-115,19,14,-18
11625,16,-251,-123,17,13,-19
11630,15,-252,-120,16,13,-20
11635,14,-249,-120,14,13,-23
11640,14,-251,-121,10,13,-23
11645,14,-251,-118,5,11,-25
11650,15,-250,-120,-1,11,-27
11655,16,-251,-117,-2,10,-29
11660,11,-249,-121,-7,8,-30
11665,13,-252,-118,-11,8,-33
11670,13,-250,-121,-12,8,-35
11675,15,-252,-119,-12,9,-36
11680,17,-251,-118,-13,11,-39
11685,13,-253,-117,-12,13,-40
11690,12,-250,-119,-12,16,-42
11695,13,-253,-120,-12,21,-43
11700,14,-252,-119,-11,24,-42
11705,15,-251,-116,-11,28,-42
11710,13,-250,-118,-10,31,-42
11715,16,-252,-121,-8,34,-39
11720,15,-250,-118,-10,37,-38
11725,17,-250,-118,-10,38,-37
11730,16,-250,-117,-12,40,-36
11735,12,-249,-122,-17,41,-36
11740,12,-248,-121,-21,41,-34
11745,15,-250,-119,-26,40,-34
11750,16,-253,-118,-30,38,-31
11755,14,-248,-116,-34,37,-30
11760,16,-253,-119,-37,36,-29
11765,15,-254,-119,-37,34,-27
11770,14,-252,-118,-39,35,-25
11775,11,-252,-115,-39,33,-25
11780,9,-252,-116,-38,32,-26
11785,16,-253,-115,-33,33,-28
11790,17,-254,-117,-28,35,-29
11795,16,-254,-118,-22,37,-31
11800,16,-254,-117,-16,40,-33
11805,15,-253,-120,-10,42,-33
11810,16,-253,-115,-4,44,-33
11815,18,-253,-119,-3,48,-34
11820,19,-254,-121,-6,50,-33
11825,16,-252,-117,-9,53,-32
11830,16,-253,-114,-16,56,-33
11835,15,-249,-117,-20,57,-31
11840,17,-252,-114,-28,60,-32
11845,15,-249,-115,-34,59,-33
11850,18,-252,-115,-41,61,-35
11855,15,-248,-110,-46,61,-36
11860,18,-252,-115,-52,63,-39
11865,16,-250,-113,-56,63,-41
11870,14,-254,-112,-58,63,-43
11875,19,-255,-114,-61,65,-43
11880,18,-252,-118,-60,67,-45
11885,16,-251,-114,-62,69,-44
11890,15,-253,-115,-60,70,-44
11895,16,-252,-114,-56,72,-42
11900,17,-251,-118,-53,74,-41
11905,18,-254,-117,-50,76,-41
11910,13,-249,-119,-47,78,-40
11915,15,-253,-115,-45,79,-38
11920,14,-253,-116,-40,81,-37
11925,16,-251,-117,-39,83,-36
11930,14,-250,-120,-41,85,-35
11935,18,-253,-119,-45,89,-33
11940,18,-251,-118,-49,91,-30
11945,17,-253,-117,-54,94,-27
11950,21,-252,-119,-58,97,-24
11955,18,-249,-121,-61,100,-19
11960,18,-246,-114,-66,101,-17
11965,16,-251,-117,-69,102,-14
11970,18,-250,-118,-71,100,-10
11975,21,-251,-117,-72,98,-11
11980,21,-251,-119,-74,97,-7
11985,22,-250,-118,-75,93,-7
11990,19,-254,-118,-75,88,-4
11995,33,-257,-115,-74,84,-4
