timestamp,acc_x,acc_y,acc_z,gyro_x,gyro_y,gyro_z
0,-4,-250,-63,-7,66,-2
5,-1,-249,-63,-8,66,-2
10,-1,-249,-64,-6,65,-1
15,-1,-251,-66,-6,65,-2
20,-2,-250,-67,-6,66,-3
25,-2,-252,-69,-5,65,-4
30,-6,-248,-70,-6,65,-2
35,-6,-247,-67,-6,67,-2
40,-1,-249,-72,-7,69,0
45,-2,-252,-67,-6,69,-2
50,-4,-248,-65,-8,70,-2
55,-3,-248,-64,-7,70,-3
60,-7,-247,-65,-7,70,-3
65,-4,-248,-65,-7,71,-2
70,-4,-250,-66,-6,72,-3
75,1,-247,-68,-6,71,-4
80,-5,-251,-63,-6,69,-4
85,-4,-250,-65,-7,69,-4
90,-6,-249,-66,-8,68,-3
95,-1,-249,-66,-8,67,-4
100,-1,-250,-66,-9,68,-3
105,-4,-249,-69,-10,68,-3
110,-5,-252,-63,-10,67,-3
115,-2,-250,-65,-9,68,-2
120,-6,-249,-65,-9,68,-3
125,-3,-249,-66,-8,68,-2
130,-4,-251,-62,-8,67,-2
135,-4,-249,-61,-8,67,-1
140,-6,-248,-61,-10,67,-2
145,-6,-248,-63,-9,68,-1
150,-7,-249,-63,-11,69,0
155,-1,-250,-62,-11,68,-1
160,-6,-248,-68,-12,68,-2
165,-6,-247,-66,-10,70,-1
170,-4,-250,-60,-10,69,-2
175,-4,-249,-66,-10,70,-3
180,-2,-251,-64,-11,70,-2
185,-6,-252,-72,-12,69,-3
190,0,-252,-68,-13,70,-3
195,-2,-250,-67,-10,69,-2
200,-3,-250,-66,-10,68,-3
205,-2,-250,-65,-11,69,-3
210,-1,-249,-69,-11,69,-3
215,-1,-251,-67,-12,68,-2
220,-1,-250,-66,-11,69,-4
225,-3,-248,-63,-11,69,-3
230,-6,-250,-66,-10,68,-3
235,-1,-250,-63,-10,66,-4
240,-3,-250,-65,-11,66,-6
245,-1,-249,-67,-10,65,-4
250,-2,-250,-67,-10,65,-3
255,-1,-248,-66,-11,67,0
260,-1,-251,-66,-11,69,-2
265,-2,-251,-62,-10,68,-3
270,-1,-250,-66,-11,68,-2
275,-4,-251,-65,-9,70,-1
280,-3,-250,-62,-8,68,0
285,-3,-249,-64,-8,69,0
290,-2,-253,-65,-8,69,1
295,-9,-245,-63,-9,70,-2
300,-7,-250,-67,-10,69,-1
305,-4,-248,-67,-9,69,-1
310,-2,-252,-62,-11,70,1
315,-4,-249,-63,-14,69,-1
320,-2,-248,-65,-14,70,-2
325,-2,-249,-64,-13,71,-3
330,-6,-251,-65,-14,70,-3
335,-3,-249,-65,-13,69,-1
340,-3,-248,-70,-12,69,-1
345,-6,-248,-63,-10,71,-1
350,-2,-249,-65,-11,69,-2
355,-4,-249,-64,-10,68,-1
360,-5,-249,-67,-9,70,-2
365,-4,-249,-62,-10,68,-2
370,-5,-248,-69,-11,67,-3
375,-6,-247,-68,-10,68,-3
380,-4,-249,-67,-8,68,-4
385,-1,-252,-68,-10,67,-3
390,-3,-250,-64,-10,68,-4
395,-1,-250,-69,-11,69,-6
400,-2,-248,-65,-9,70,-6
405,-5,-252,-59,-9,69,-4
410,0,-251,-64,-8,68,-3
415,-3,-249,-63,-7,70,-4
420,-4,-252,-60,-7,68,-4
425,-3,-251,-66,-9,70,-4
430,-7,-250,-62,-8,68,-4
435,-4,-251,-61,-9,69,-3
440,-2,-251,-67,-7,68,-1
445,-2,-250,-64,-6,67,-3
450,-2,-250,-65,-6,66,-4
455,-3,-252,-63,-4,66,-4
460,-5,-249,-62,-3,65,-2
465,-3,-248,-65,-2,66,-4
470,-2,-249,-65,-3,65,-4
475,-5,-248,-63,-4,67,-3
480,-3,-249,-67,-3,66,-1
485,-5,-247,-65,-5,66,-1
490,-3,-248,-69,-7,66,-2
495,-3,-250,-66,-9,66,-1
500,-2,-247,-66,-10,68,-1
505,-1,-250,-65,-12,67,-2
510,-3,-251,-69,-15,68,-3
515,-6,-248,-69,-15,68,-2
520,-2,-250,-68,-15,71,-3
525,-4,-249,-66,-15,72,-3
530,-3,-249,-66,-14,72,-5
535,-3,-248,-66,-14,72,-4
540,-4,-250,-64,-13,70,-5
545,-6,-251,-65,-13,69,-5
550,-1,-249,-64,-13,70,-4
555,-2,-248,-68,-12,71,-3
560,-2,-250,-64,-12,68,-3
565,-1,-252,-62,-12,70,-1
570,-2,-250,-66,-12,68,0
575,-1,-249,-65,-10,70,-2
580,-1,-249,-66,-9,70,0
585,-4,-249,-65,-8,70,-1
590,-3,-249,-65,-9,69,0
595,-2,-248,-62,-7,69,-1
600,0,-251,-68,-7,69,-2
605,-8,-248,-64,-6,70,-2
610,-5,-249,-64,-6,69,-2
615,-5,-248,-68,-6,69,-2
620,-4,-250,-65,-6,69,-2
625,-2,-248,-66,-6,68,-2
630,-4,-250,-63,-9,68,-4
635,-6,-250,-64,-10,69,-3
640,-2,-248,-66,-13,69,-2
645,-3,-249,-65,-15,68,-2
650,-2,-252,-66,-16,70,-2
655,-2,-249,-66,-16,71,-2
660,-3,-250,-62,-15,71,-1
665,-5,-247,-62,-13,72,-1
670,-1,-252,-60,-11,71,0
675,-2,-251,-61,-11,71,0
680,0,-253,-64,-10,69,-1
685,-6,-250,-64,-8,68,0
690,-3,-250,-63,-8,67,-2
695,-2,-250,-62,-9,67,-2
700,-1,-250,-62,-9,69,-1
705,-2,-251,-67,-10,67,0
710,-5,-248,-64,-9,68,0
715,0,-252,-62,-8,68,-1
720,-1,-249,-65,-8,68,-2
725,-5,-248,-61,-9,69,-1
730,-1,-258,-62,-8,69,-2
735,0,-250,-68,-9,70,-3
740,-2,-247,-64,-10,71,-2
745,-2,-250,-65,-10,71,-2
750,-7,-250,-62,-12,71,-2
755,-2,-251,-63,-13,70,-1
760,-3,-248,-70,-14,70,-3
765,-5,-246,-64,-14,69,-2
770,-3,-250,-63,-13,69,-1
775,-2,-249,-67,-11,67,-2
780,-2,-250,-64,-11,67,-1
785,-4,-250,-67,-12,66,-1
790,-1,-249,-64,-11,67,-2
795,-6,-248,-65,-11,68,-1
800,-6,-250,-64,-9,68,-1
805,-3,-251,-67,-9,68,-1
810,-3,-250,-65,-8,69,-2
815,-4,-250,-66,-9,67,-2
820,-2,-249,-64,-8,68,-2
825,-4,-249,-61,-7,69,-1
830,-4,-252,-66,-9,69,-2
835,-4,-250,-64,-9,69,-3
840,7,-239,-61,-8,68,-2
845,-3,-250,-64,-8,69,-2
850,-5,-250,-66,-8,69,-2
855,-5,-248,-60,-9,69,-3
860,-2,-250,-69,-10,70,-3
865,0,-249,-65,-12,70,-2
870,-2,-247,-65,-12,70,-2
875,-4,-249,-63,-11,68,-1
880,-5,-251,-65,-12,68,0
885,-4,-253,-65,-12,68,-1
890,-5,-250,-62,-14,68,-2
895,-1,-248,-63,-13,68,-2
900,-5,-250,-62,-13,68,-2
905,-2,-248,-62,-11,68,-1
910,-3,-253,-62,-11,69,-2
915,-5,-250,-66,-9,68,-3
920,-6,-250,-62,-9,67,-4
925,-2,-250,-60,-9,65,-3
930,-5,-248,-65,-10,66,-3
935,-4,-250,-64,-9,66,-4
940,-1,-252,-67,-8,65,-2
945,-2,-249,-65,-8,66,-2
950,-4,-248,-58,-10,68,-2
955,-5,-249,-63,-9,68,-2
960,-7,-249,-63,-10,69,-1
965,-3,-247,-66,-9,67,0
970,-2,-249,-66,-9,68,-1
975,-4,-254,-62,-9,68,-1
980,-3,-251,-62,-8,69,-3
985,-3,-250,-66,-8,67,-3
990,-1,-248,-61,-6,68,-3
995,-4,-250,-67,-7,69,-3
1000,-3,-249,-65,-6,69,-2
1005,-3,-250,-63,-5,68,-2
1010,-1,-251,-65,-8,69,-2
1015,-3,-250,-64,-9,69,-3
1020,-5,-249,-65,-9,69,-2
1025,-7,-250,-64,-11,69,-2
1030,-4,-248,-65,-10,70,-1
1035,-2,-249,-66,-10,69,-1
1040,-2,-249,-66,-11,70,0
1045,1,-253,-63,-12,70,0
1050,0,-251,-64,-12,70,-2
1055,-8,-249,-70,-13,68,-4
1060,-2,-251,-64,-13,68,-2
1065,0,-250,-64,-14,67,-3
1070,-2,-251,-64,-15,69,-3
1075,-8,-248,-62,-13,68,-2
1080,-3,-249,-69,-12,69,-4
1085,-5,-249,-64,-10,70,-4
1090,-5,-249,-64,-9,70,-3
1095,-3,-250,-65,-9,71,-4
1100,-1,-250,-66,-8,72,-3
1105,-2,-249,-65,-8,71,-3
1110,-1,-251,-64,-9,69,-2
1115,-1,-251,-65,-9,70,-3
1120,0,-250,-63,-9,70,-3
1125,-1,-250,-64,-9,69,-3
1130,-7,-249,-66,-10,69,-4
1135,-4,-251,-61,-12,68,-2
1140,-1,-250,-66,-12,70,-3
1145,-2,-251,-65,-12,69,-2
1150,-2,-250,-66,-13,69,-2
1155,-5,-248,-65,-13,69,-4
1160,-4,-250,-65,-11,68,-2
1165,0,-247,-63,-10,68,-3
1170,-2,-252,-61,-8,67,-2
1175,0,-248,-67,-4,66,-4
1180,-4,-251,-64,-2,65,-5
1185,-7,-251,-68,0,64,-4
1190,-5,-250,-67,-1,63,-3
1195,-3,-250,-66,-4,64,-4
1200,-5,-250,-63,-5,65,-4
1205,-7,-248,-68,-5,65,-3
1210,-2,-249,-62,-5,65,-2
1215,-4,-248,-69,-6,66,-2
1220,0,-255,-63,-7,67,-3
1225,-5,-248,-65,-7,67,-3
1230,-2,-249,-58,-8,69,-4
1235,-3,-250,-64,-8,68,-5
1240,-5,-250,-62,-6,68,-7
1245,-1,-252,-64,-6,68,-7
1250,-7,-249,-63,-5,67,-5
1255,-6,-248,-68,-5,69,-5
1260,-4,-249,-63,-6,69,-5
1265,-2,-254,-63,-7,68,-3
1270,-4,-249,-62,-8,69,-3
1275,-10,-252,-55,-9,68,-4
1280,0,-250,-61,-10,67,-4
1285,-4,-249,-67,-10,68,-5
1290,-6,-250,-64,-11,69,-5
1295,-2,-250,-61,-11,69,-6
1300,-3,-250,-63,-12,68,-3
1305,-5,-251,-63,-11,68,-2
1310,-2,-251,-70,-12,68,-3
1315,-3,-249,-67,-11,69,-3
1320,-6,-249,-66,-11,67,-3
1325,-6,-247,-65,-11,70,-3
1330,-2,-250,-68,-13,68,-3
1335,-2,-248,-66,-13,70,-3
1340,-3,-248,-63,-12,69,-3
1345,-3,-249,-67,-13,69,-3
1350,-1,-248,-65,-14,70,-2
1355,-3,-252,-63,-13,70,-3
1360,-3,-252,-63,-10,71,-1
1365,-2,-250,-64,-11,71,-2
1370,-5,-251,-62,-10,72,-1
1375,-3,-250,-64,-9,73,-1
1380,-2,-250,-60,-9,71,-2
1385,-11,-264,-62,-10,71,-2
1390,-1,-251,-60,-9,70,0
1395,-4,-250,-61,-9,70,-2
1400,-6,-249,-66,-10,69,-3
1405,-5,-251,-63,-9,69,-1
1410,-5,-251,-65,-9,69,-1
1415,-4,-250,-62,-10,68,-3
1420,-2,-249,-63,-10,68,-5
1425,-1,-251,-63,-11,69,-5
1430,-5,-252,-64,-10,70,-4
1435,-4,-249,-63,-11,70,-4
1440,-4,-249,-65,-12,69,-4
1445,-7,-250,-66,-14,71,-4
1450,-4,-250,-62,-13,71,-4
1455,-1,-251,-64,-14,72,-4
1460,-1,-250,-62,-15,72,-4
1465,-2,-247,-62,-14,70,-5
1470,-4,-247,-62,-15,69,-3
1475,-4,-250,-62,-17,68,-4
1480,-5,-252,-63,-16,70,-4
1485,-6,-248,-63,-17,68,-4
1490,-3,-252,-63,-17,67,-2
1495,-15,-250,-61,-18,67,-3
1500,-4,-251,-66,-17,68,-2
1505,-5,-249,-65,-18,67,-3
1510,-3,-249,-61,-18,68,-2
1515,0,-250,-63,-17,68,-3
1520,-7,-248,-67,-15,69,-1
1525,-5,-248,-64,-17,69,-2
1530,-2,-250,-65,-15,68,-2
1535,-2,-251,-64,-16,69,-2
1540,-5,-250,-62,-17,68,-3
1545,-4,-248,-62,-17,70,-3
1550,-3,-247,-66,-18,68,-2
1555,-3,-249,-64,-19,68,-2
1560,-4,-248,-62,-20,68,-2
1565,-6,-248,-64,-20,68,-4
1570,-6,-249,-66,-20,68,-4
1575,-4,-250,-62,-20,69,-4
1580,-3,-248,-63,-21,69,-4
1585,-1,-251,-65,-23,70,-3
1590,-3,-249,-60,-24,71,-3
1595,-1,-247,-64,-25,70,-2
1600,-7,-252,-62,-28,71,-2
1605,-2,-249,-62,-28,72,-2
1610,-2,-249,-62,-29,72,0
1615,-3,-250,-63,-30,73,-1
1620,-2,-253,-64,-30,71,-2
1625,-3,-251,-66,-29,72,-3
1630,-2,-252,-65,-28,71,-3
1635,-2,-249,-63,-28,71,-3
1640,-2,-248,-67,-26,70,-2
1645,-5,-250,-61,-27,70,-3
1650,-2,-251,-64,-27,71,-5
1655,-5,-251,-62,-29,69,-4
1660,-5,-248,-65,-30,70,-3
1665,0,-249,-66,-30,71,-3
1670,-5,-249,-66,-30,72,-3
1675,-3,-249,-66,-30,73,-2
1680,-5,-248,-66,-31,73,-1
1685,-1,-249,-65,-30,72,-2
1690,-2,-249,-63,-29,74,-2
1695,-6,-249,-62,-28,74,-2
1700,0,-249,-64,-28,72,-1
1705,-4,-250,-60,-26,72,-2
1710,-9,-245,-63,-26,72,-1
1715,-3,-251,-63,-27,72,-1
1720,-2,-248,-65,-27,71,0
1725,-7,-248,-64,-28,71,-1
1730,-2,-250,-63,-27,71,-1
1735,-1,-250,-63,-29,72,-3
1740,-1,-248,-67,-30,71,-3
1745,-4,-248,-65,-31,72,-2
1750,-5,-251,-64,-30,72,-2
1755,-5,-247,-63,-29,72,-3
1760,0,-251,-69,-28,73,-2
1765,-5,-249,-63,-27,73,-3
1770,-3,-249,-65,-27,73,-3
1775,-4,-250,-65,-27,72,-3
1780,-6,-249,-67,-28,72,-3
1785,-2,-248,-67,-29,72,-2
1790,-3,-249,-66,-30,72,-3
1795,-5,-247,-65,-31,72,-4
1800,-3,-248,-64,-30,73,-3
1805,-5,-250,-63,-28,73,-3
1810,-5,-249,-67,-26,71,-1
1815,-6,-248,-64,-25,72,-2
1820,3,-254,-59,-24,73,-2
1825,-4,-249,-63,-25,72,-1
1830,-3,-254,-63,-23,71,-1
1835,-2,-249,-64,-22,69,-1
1840,-4,-249,-64,-22,67,0
1845,-3,-249,-64,-23,66,1
1850,-4,-250,-64,-24,67,-1
1855,0,-250,-68,-25,70,-1
1860,-4,-250,-64,-27,70,-1
1865,-2,-249,-63,-28,71,-1
1870,-4,-252,-65,-28,71,-2
1875,-3,-250,-65,-29,73,-1
1880,-3,-253,-65,-27,73,0
1885,-3,-251,-66,-26,72,-2
1890,-5,-251,-66,-26,73,-3
1895,-3,-248,-63,-26,73,-3
1900,-2,-249,-65,-26,74,-3
1905,-4,-248,-64,-26,74,-5
1910,-7,-249,-67,-25,73,-4
1915,-6,-249,-68,-23,74,-4
1920,-3,-249,-66,-22,71,-3
1925,-3,-250,-65,-22,71,-3
1930,-4,-258,-62,-19,71,-4
1935,-6,-248,-65,-18,70,-3
1940,-7,-250,-63,-18,69,-4
1945,-4,-248,-66,-19,68,-3
1950,-3,-248,-69,-21,69,-2
1955,-1,-251,-66,-23,68,-3
1960,-3,-251,-64,-23,68,-2
1965,-2,-251,-66,-24,69,-2
1970,-1,-249,-65,-23,69,-2
1975,-5,-250,-65,-22,70,-2
1980,-6,-249,-68,-16,70,-4
1985,-2,-251,-68,-15,68,-3
1990,-3,-248,-71,-15,70,-5
1995,-2,-249,-69,-16,70,-6
2000,-2,-250,-69,-17,70,-6
2005,-2,-250,-67,-15,69,-6
2010,-6,-249,-65,-16,71,-5
2015,-2,-248,-70,-16,70,-3
2020,-5,-250,-65,-15,70,-2
2025,-1,-250,-67,-16,72,-2
2030,-2,-251,-62,-16,71,-3
2035,-4,-250,-65,-15,71,-2
2040,-4,-247,-65,-14,70,-3
2045,-3,-251,-68,-15,70,-4
2050,-3,-249,-63,-14,71,-3
2055,-6,-249,-65,-16,71,-3
2060,-3,-252,-66,-16,70,-4
2065,-5,-249,-67,-16,70,-3
2070,-3,-250,-64,-18,69,-4
2075,-5,-252,-69,-18,69,-5
2080,-4,-248,-64,-19,69,-5
2085,-4,-247,-67,-19,70,-4
2090,-5,-249,-65,-19,72,-4
2095,-1,-251,-67,-20,71,-3
2100,-5,-247,-68,-21,72,-1
2105,-4,-250,-68,-21,69,-1
2110,-5,-248,-71,-18,70,-2
2115,-1,-249,-67,-17,69,-3
2120,-2,-250,-69,-16,68,-1
2125,-2,-251,-64,-17,67,-3
2130,-3,-248,-65,-18,68,-2
2135,-4,-249,-65,-19,67,-1
2140,-7,-250,-69,-18,67,-2
2145,-7,-247,-66,-19,66,-2
2150,-4,-251,-67,-19,66,-3
2155,-4,-249,-65,-18,68,-3
2160,-5,-249,-65,-19,68,-4
2165,-2,-254,-68,-21,70,-3
2170,-2,-248,-66,-20,70,-3
2175,-1,-249,-67,-21,70,-3
2180,-3,-251,-68,-20,71,-3
2185,-3,-249,-63,-21,72,-4
2190,-7,-251,-66,-21,72,-5
2195,-3,-250,-64,-20,69,-5
2200,-1,-249,-65,-19,70,-3
2205,-5,-248,-67,-19,70,-1
2210,-4,-249,-63,-19,71,-2
2215,-5,-250,-68,-21,70,-3
2220,-4,-250,-63,-22,70,-2
2225,-4,-252,-64,-23,69,-1
2230,-2,-255,-65,-24,69,-2
2235,-2,-249,-64,-23,68,0
2240,-6,-249,-67,-24,68,-1
2245,-4,-250,-68,-22,69,-1
2250,-3,-250,-71,-22,68,-1
2255,-1,-250,-69,-22,68,-3
2260,-5,-249,-65,-24,69,-3
2265,-2,-250,-64,-22,67,-3
2270,0,-252,-67,-23,69,-3
2275,-1,-248,-66,-22,69,-5
2280,-2,-249,-65,-21,70,-3
2285,-1,-249,-63,-21,70,-4
2290,0,-248,-69,-21,71,-3
2295,0,-248,-68,-20,71,-3
2300,-5,-249,-63,-23,71,-1
2305,-2,-249,-70,-23,71,0
2310,-1,-249,-67,-25,72,-1
2315,0,-248,-68,-25,74,0
2320,-1,-251,-63,-25,74,0
2325,-1,-250,-67,-25,74,0
2330,-2,-252,-63,-24,73,1
2335,-4,-248,-66,-23,70,1
2340,-2,-249,-65,-24,70,0
2345,-3,-249,-64,-23,69,-1
2350,-2,-250,-66,-22,69,0
2355,-5,-248,-66,-24,69,0
2360,-2,-248,-68,-23,69,0
2365,0,-245,-63,-24,70,1
2370,-3,-248,-67,-26,71,0
2375,-4,-251,-67,-28,72,-1
2380,-4,-249,-68,-30,74,-1
2385,-2,-252,-65,-31,74,-1
2390,-2,-249,-65,-31,76,-1
2395,-2,-250,-66,-33,77,-1
2400,-1,-250,-66,-33,78,-1
2405,-3,-249,-70,-34,76,0
2410,-3,-249,-65,-33,77,0
2415,-4,-248,-68,-32,75,1
2420,-5,-248,-67,-31,73,2
2425,-2,-248,-66,-31,71,1
2430,-2,-247,-66,-30,69,0
2435,-6,-249,-64,-30,69,1
2440,-2,-250,-66,-30,69,0
2445,-5,-248,-67,-30,68,0
2450,-3,-249,-65,-30,67,0
2455,-5,-247,-65,-32,68,-1
2460,-5,-247,-68,-31,68,-2
2465,-3,-247,-62,-33,69,-2
2470,-5,-248,-70,-33,71,-1
2475,-2,-252,-67,-32,70,0
2480,-1,-249,-69,-30,74,0
2485,-2,-248,-65,-30,73,0
2490,-3,-249,-67,-30,72,1
2495,0,-248,-68,-28,74,2
2500,-4,-249,-69,-30,73,5
2505,-4,-248,-70,-29,71,6
2510,-1,-247,-71,-32,71,5
2515,-2,-248,-66,-35,71,4
2520,-5,-247,-68,-39,71,5
2525,-1,-248,-67,-44,73,8
2530,0,-247,-68,-47,75,8
2535,0,-246,-64,-47,76,8
2540,-3,-248,-64,-49,80,7
2545,0,-248,-61,-52,87,10
2550,0,-247,-65,-55,96,9
2555,0,-247,-69,-61,102,12
2560,0,-247,-64,-66,106,13
2565,3,-248,-68,-73,109,14
2570,0,-248,-63,-79,112,17
2575,0,-245,-63,-87,114,16
2580,2,-247,-65,-101,115,15
2585,8,-240,-66,-118,115,12
2590,2,-247,-66,-134,114,9
2595,3,-247,-64,-148,111,4
2600,-1,-248,-64,-163,107,-1
2605,3,-248,-65,-177,102,-11
2610,0,-248,-69,-193,94,-22
2615,1,-250,-71,-211,87,-32
2620,-1,-251,-75,-231,84,-44
2625,0,-254,-74,-246,84,-54
2630,0,-253,-74,-254,89,-64
2635,-3,-257,-75,-257,98,-72
2640,-4,-259,-79,-245,111,-76
2645,0,-257,-81,-216,124,-81
2650,-1,-256,-79,-175,138,-85
2655,-1,-252,-82,-132,147,-90
2660,1,-249,-83,-90,158,-95
2665,-1,-247,-83,-55,168,-99
2670,-5,-248,-81,-28,177,-103
2675,-5,-246,-79,-14,181,-107
2680,-8,-245,-79,-7,181,-110
2685,-9,-247,-79,-4,179,-109
2690,-19,-244,-84,-4,174,-108
2695,-14,-249,-74,-2,168,-104
2700,-14,-247,-75,2,161,-101
2705,-14,-244,-78,4,153,-97
2710,-11,-247,-74,6,144,-95
2715,-11,-247,-72,5,134,-92
2720,-13,-244,-76,3,123,-90
2725,-11,-245,-72,0,115,-93
2730,-11,-248,-77,-4,107,-98
2735,-11,-245,-73,-7,100,-103
2740,-9,-245,-78,-11,96,-108
2745,-11,-244,-80,-18,93,-117
2750,-8,-243,-79,-25,88,-126
2755,-8,-244,-80,-26,87,-135
2760,-6,-246,-79,-25,85,-142
2765,-4,-245,-78,-22,85,-148
2770,-3,-248,-77,-18,92,-156
2775,-2,-246,-80,-16,98,-163
2780,1,-248,-79,-15,106,-173
2785,1,-249,-82,-14,112,-186
2790,1,-250,-81,-14,115,-199
2795,1,-247,-81,-14,120,-211
2800,-1,-243,-71,-16,124,-223
2805,-5,-249,-81,-15,127,-233
2810,-1,-251,-78,-10,131,-244
2815,1,-251,-78,-3,133,-252
2820,0,-248,-79,4,136,-260
2825,1,-250,-80,8,136,-270
2830,0,-248,-75,11,136,-279
2835,-2,-247,-78,16,135,-287
2840,-5,-247,-74,22,132,-299
2845,-3,-248,-75,26,131,-314
2850,-1,-247,-74,28,129,-329
2855,2,-250,-59,30,130,-341
2860,-3,-246,-75,27,133,-355
2865,-1,-245,-78,24,134,-369
2870,-2,-250,-77,21,132,-383
2875,-1,-251,-74,20,130,-399
2880,1,-248,-79,20,128,-411
2885,0,-250,-79,25,122,-426
2890,1,-247,-78,30,118,-442
2895,-2,-248,-79,33,114,-455
2900,0,-248,-79,36,108,-468
2905,0,-249,-73,42,103,-478
2910,5,-248,-64,45,97,-491
2915,5,-248,-70,48,88,-505
2920,2,-247,-71,47,80,-517
2925,0,-248,-71,45,71,-534
2930,3,-249,-70,45,65,-546
2935,1,-249,-69,50,62,-557
2940,1,-250,-69,53,59,-570
2945,4,-251,-73,51,54,-580
2950,3,-250,-73,46,54,-592
2955,5,-254,-70,30,61,-604
2960,5,-255,-75,11,67,-617
2965,4,-254,-77,-11,75,-630
2970,8,-258,-72,-35,78,-643
2975,3,-262,-74,-53,83,-651
2980,4,-261,-69,-63,82,-661
2985,7,-265,-72,-65,77,-667
2990,3,-263,-70,-58,64,-675
2995,11,-267,-69,-50,53,-680
3000,14,-269,-73,-35,43,-688
3005,15,-271,-71,-13,38,-695
3010,21,-272,-71,14,35,-701
3015,20,-268,-73,41,30,-705
3020,12,-269,-71,69,28,-708
3025,25,-271,-72,91,27,-716
3030,26,-271,-70,112,32,-717
3035,19,-271,-73,128,36,-721
3040,20,-269,-72,143,37,-729
3045,20,-271,-69,160,37,-737
3050,23,-268,-70,185,40,-744
3055,20,-266,-66,218,47,-752
3060,22,-268,-69,246,57,-762
3065,22,-264,-67,272,63,-776
3070,22,-260,-69,285,74,-786
3075,27,-255,-68,288,82,-794
3080,30,-256,-69,283,87,-807
3085,26,-253,-68,272,92,-819
3090,27,-255,-67,260,97,-831
3095,24,-252,-78,250,107,-844
3100,22,-247,-79,231,121,-850
3105,18,-245,-83,204,138,-854
3110,14,-246,-83,168,158,-861
3115,16,-247,-82,131,163,-875
3120,23,-247,-80,104,155,-892
3125,20,-252,-76,96,146,-905
3130,30,-245,-78,102,145,-905
3135,36,-244,-72,113,153,-899
3140,43,-246,-70,125,162,-896
3145,47,-240,-69,139,179,-888
3150,49,-235,-69,169,195,-865
3155,60,-231,-67,195,198,-838
3160,71,-234,-70,205,215,-810
3165,77,-242,-74,211,238,-791
3170,82,-245,-70,211,254,-783
3175,84,-247,-68,204,256,-789
3180,88,-249,-69,197,255,-803
3185,90,-251,-70,192,259,-820
3190,90,-249,-74,190,272,-844
3195,97,-252,-73,189,293,-867
3200,101,-252,-72,185,311,-895
3205,100,-249,-69,179,328,-926
3210,96,-249,-68,175,341,-962
3215,94,-245,-59,174,346,-994
3220,89,-239,-53,173,348,-1023
3225,90,-231,-55,170,352,-1042
3230,89,-226,-52,162,357,-1052
3235,82,-237,-45,156,361,-1055
3240,90,-221,-46,139,365,-1052
3245,91,-219,-44,118,364,-1047
3250,93,-218,-41,96,363,-1038
3255,95,-215,-43,72,369,-1022
3260,91,-212,-46,36,391,-995
3265,90,-207,-49,-2,421,-962
3270,94,-205,-52,-41,455,-926
3275,91,-204,-52,-86,487,-896
3280,91,-206,-51,-138,508,-874
3285,95,-207,-49,-186,519,-868
3290,97,-210,-45,-231,525,-872
3295,97,-214,-45,-267,525,-882
3300,101,-216,-48,-291,523,-892
3305,104,-222,-46,-303,517,-901
3310,108,-227,-46,-300,507,-910
3315,112,-230,-46,-283,495,-914
3320,113,-229,-51,-247,482,-916
3325,114,-230,-59,-202,468,-911
3330,118,-229,-61,-146,463,-901
3335,117,-229,-62,-91,463,-890
3340,120,-239,-58,-40,464,-881
3345,120,-222,-68,5,464,-880
3350,125,-222,-70,43,469,-878
3355,129,-219,-69,70,474,-882
3360,129,-211,-70,87,481,-880
3365,132,-211,-70,95,495,-878
3370,135,-212,-70,94,513,-875
3375,140,-210,-63,92,527,-875
3380,141,-213,-64,88,536,-882
3385,143,-212,-62,84,543,-887
3390,147,-209,-63,78,553,-888
3395,146,-207,-58,61,568,-886
3400,148,-207,-53,45,571,-891
3405,151,-205,-51,33,570,-891
3410,156,-207,-50,22,568,-888
3415,156,-202,-52,12,571,-886
3420,156,-202,-51,-5,575,-883
3425,155,-199,-49,-25,575,-880
3430,162,-199,-47,-50,575,-865
3435,166,-205,-39,-80,583,-838
3440,167,-206,-37,-108,587,-815
3445,168,-204,-40,-115,577,-806
3450,159,-190,-44,-103,563,-805
3455,156,-191,-48,-82,556,-811
3460,150,-187,-45,-70,555,-806
3465,154,-185,-44,-73,556,-793
3470,155,-192,-36,-80,557,-775
3475,160,-193,-36,-80,558,-756
3480,161,-191,-38,-62,558,-752
3485,161,-188,-37,-34,552,-759
3490,163,-187,-36,-16,550,-757
3495,170,-187,-35,-6,555,-753
3500,178,-191,-30,4,561,-741
3505,175,-188,-29,11,560,-727
3510,180,-191,-28,19,548,-722
3515,183,-184,-30,27,537,-712
3520,188,-192,-31,30,530,-700
3525,187,-190,-31,30,523,-693
3530,192,-193,-26,30,517,-690
3535,193,-195,-29,32,512,-694
3540,193,-195,-24,38,505,-701
3545,193,-197,-27,43,496,-714
3550,194,-200,-22,49,488,-729
3555,190,-202,-21,57,484,-744
3560,189,-213,-18,73,479,-755
3565,185,-202,-20,88,481,-768
3570,181,-201,-24,102,489,-783
3575,176,-197,-23,114,501,-798
3580,170,-196,-20,124,512,-810
3585,167,-192,-20,135,526,-819
3590,168,-186,-22,145,541,-825
3595,165,-183,-20,152,558,-826
3600,168,-184,-20,154,571,-825
3605,170,-181,-19,160,578,-821
3610,176,-184,-10,167,577,-812
3615,176,-181,-9,180,571,-807
3620,176,-181,-12,191,562,-805
3625,174,-176,-13,202,554,-803
3630,176,-179,-7,211,551,-800
3635,175,-179,-12,217,549,-794
3640,176,-175,-13,219,552,-788
3645,175,-179,-14,218,557,-781
3650,173,-181,-12,219,559,-774
3655,172,-182,-10,224,557,-764
3660,178,-182,-10,235,555,-759
3665,177,-181,-13,248,555,-752
3670,180,-185,-7,249,551,-747
3675,179,-175,-14,247,542,-742
3680,180,-179,-18,241,525,-739
3685,183,-178,-17,233,502,-740
3690,181,-176,-20,223,474,-749
3695,183,-172,-19,212,448,-763
3700,179,-174,-22,205,425,-781
3705,183,-168,-20,202,410,-800
3710,180,-168,-15,202,394,-819
3715,182,-166,-16,211,376,-834
3720,183,-164,-17,228,361,-847
3725,183,-158,-19,243,350,-855
3730,191,-159,-17,249,341,-861
3735,190,-160,-18,249,331,-866
3740,192,-157,-15,251,321,-865
3745,192,-153,-17,259,315,-866
3750,192,-156,-15,270,313,-859
3755,192,-153,-18,277,311,-850
3760,191,-150,-15,280,309,-834
3765,193,-151,-9,271,298,-820
3770,192,-156,-6,258,286,-808
3775,192,-158,-2,244,281,-795
3780,192,-163,1,237,275,-781
3785,195,-158,-1,236,272,-774
3790,196,-156,-3,240,271,-764
3795,194,-154,-3,247,276,-759
3800,194,-149,-2,258,280,-746
3805,192,-147,-4,268,284,-731
3810,193,-142,-11,272,286,-713
3815,194,-144,-9,273,289,-698
3820,193,-140,-4,273,293,-683
3825,197,-135,-10,276,293,-670
3830,201,-141,-9,282,296,-657
3835,204,-138,-2,288,296,-648
3840,202,-138,4,295,292,-642
3845,204,-137,2,305,285,-635
3850,207,-137,5,312,282,-625
3855,205,-137,1,315,283,-613
3860,200,-135,1,315,285,-599
3865,205,-135,-2,311,285,-586
3870,207,-133,4,304,287,-575
3875,213,-129,11,292,287,-565
3880,213,-130,13,282,290,-564
3885,216,-128,13,273,296,-564
3890,214,-124,11,267,310,-565
3895,217,-122,13,262,327,-570
3900,217,-120,12,257,343,-571
3905,220,-117,8,249,351,-570
3910,220,-111,12,231,357,-569
3915,221,-113,9,206,362,-569
3920,222,-111,9,182,367,-571
3925,227,-107,14,166,369,-574
3930,227,-105,7,158,373,-576
3935,228,-102,5,154,376,-577
3940,232,-101,10,150,375,-579
3945,231,-99,8,145,375,-583
3950,237,-101,5,136,369,-586
3955,237,-102,5,125,363,-590
3960,234,-105,1,115,363,-593
3965,230,-107,5,108,369,-596
3970,231,-110,1,105,381,-598
3975,232,-111,6,107,394,-597
3980,230,-111,6,113,412,-593
3985,232,-111,9,118,431,-587
3990,230,-110,5,127,445,-577
3995,232,-102,2,137,460,-570
4000,231,-105,12,145,468,-565
4005,233,-103,11,157,473,-562
4010,232,-106,17,166,475,-557
4015,234,-106,21,176,473,-555
4020,235,-108,23,184,473,-550
4025,237,-104,25,189,473,-547
4030,238,-102,20,195,478,-546
4035,233,-100,21,197,488,-543
4040,235,-100,20,199,497,-538
4045,237,-96,27,204,500,-530
4050,239,-95,22,212,500,-525
4055,240,-93,28,220,503,-521
4060,240,-91,24,230,513,-519
4065,242,-92,26,238,527,-515
4070,245,-92,34,245,540,-511
4075,252,-96,36,248,548,-512
4080,250,-98,33,256,567,-511
4085,249,-101,36,268,606,-506
4090,241,-103,33,278,652,-498
4095,237,-103,36,289,681,-493
4100,228,-107,34,307,680,-488
4105,217,-112,31,332,658,-478
4110,209,-105,37,355,634,-458
4115,203,-102,34,372,620,-433
4120,200,-102,35,388,613,-401
4125,197,-99,34,407,607,-372
4130,202,-96,32,419,596,-354
4135,207,-91,36,421,585,-340
4140,216,-91,38,412,580,-327
4145,221,-87,48,399,584,-312
4150,236,-86,55,392,593,-294
4155,237,-82,58,393,612,-277
4160,240,-79,57,399,634,-264
4165,241,-75,65,408,647,-256
4170,244,-67,59,416,646,-250
4175,250,-64,61,423,635,-240
4180,253,-57,57,430,618,-227
4185,255,-56,60,434,596,-211
4190,256,-48,64,430,573,-195
4195,261,-47,62,419,558,-185
4200,261,-43,61,402,557,-175
4205,262,-44,62,381,569,-167
4210,263,-44,64,359,581,-161
4215,257,-40,61,339,589,-154
4220,264,-26,54,308,602,-143
4225,270,-27,55,272,618,-132
4230,270,-31,69,242,630,-122
4235,275,-35,76,226,625,-113
4240,271,-37,93,230,610,-110
4245,272,-41,93,244,593,-107
4250,269,-45,95,265,581,-108
4255,260,-48,91,285,570,-115
4260,254,-47,86,298,556,-119
4265,251,-52,84,305,540,-125
4270,245,-53,80,311,518,-122
4275,235,-56,80,315,482,-107
4280,227,-56,84,312,434,-87
4285,220,-56,84,310,382,-58
4290,216,-63,92,302,326,-25
4295,208,-67,97,293,268,3
4300,197,-70,97,288,209,30
4305,197,-72,100,287,158,53
4310,193,-69,102,283,132,75
4315,188,-67,98,265,134,95
4320,185,-70,100,233,140,114
4325,179,-78,104,192,138,128
4330,182,-83,110,148,119,131
4335,181,-90,108,111,92,127
4340,182,-91,107,90,71,124
4345,184,-90,109,84,60,120
4350,182,-87,102,90,51,122
4355,188,-83,96,99,43,128
4360,190,-78,93,102,36,141
4365,194,-70,94,106,30,154
4370,197,-67,96,104,24,168
4375,199,-66,97,93,7,176
4380,207,-67,93,69,-18,177
4385,204,-64,90,35,-52,175
4390,206,-64,92,4,-88,168
4395,208,-69,92,-19,-126,154
4400,206,-73,90,-32,-160,133
4405,205,-72,86,-35,-187,112
4410,205,-70,89,-38,-198,97
4415,207,-71,86,-38,-198,91
4420,207,-68,88,-37,-193,96
4425,209,-67,85,-40,-189,110
4430,208,-75,79,-50,-187,129
4435,219,-70,75,-63,-189,146
4440,225,-73,76,-79,-196,157
4445,233,-74,75,-95,-204,164
4450,236,-81,77,-105,-218,164
4455,239,-80,77,-109,-239,156
4460,241,-78,79,-110,-262,141
4465,247,-79,77,-108,-285,129
4470,247,-78,71,-110,-302,120
4475,246,-75,69,-113,-314,115
4480,245,-78,65,-118,-326,114
4485,248,-83,62,-121,-339,115
4490,242,-85,61,-120,-354,117
4495,246,-90,62,-114,-369,119
4500,245,-94,56,-103,-382,116
4505,244,-95,55,-86,-397,109
4510,242,-92,57,-68,-407,96
4515,239,-91,52,-50,-413,86
4520,244,-95,59,-35,-413,74
4525,244,-92,55,-20,-406,66
4530,241,-92,53,-1,-394,59
4535,238,-94,53,15,-385,50
4540,227,-94,55,28,-383,37
4545,236,-93,54,39,-389,25
4550,233,-94,54,51,-398,15
4555,236,-95,55,62,-407,13
4560,235,-95,50,75,-408,16
4565,234,-97,48,85,-404,17
4570,235,-92,49,95,-395,17
4575,237,-94,46,102,-385,16
4580,236,-87,42,106,-373,13
4585,233,-86,40,103,-361,9
4590,231,-88,41,98,-347,12
4595,231,-88,41,93,-333,17
4600,232,-86,40,91,-319,23
4605,231,-88,42,92,-300,29
4610,231,-86,42,94,-273,32
4615,235,-83,39,94,-245,34
4620,226,-82,44,89,-218,33
4625,226,-80,44,75,-196,33
4630,226,-82,44,56,-184,31
4635,224,-79,49,34,-182,28
4640,222,-80,47,7,-194,27
4645,221,-78,48,-31,-217,29
4650,218,-80,43,-71,-249,33
4655,226,-88,50,-107,-284,44
4660,227,-86,51,-135,-318,54
4665,230,-88,48,-148,-348,64
4670,233,-91,47,-147,-372,69
4675,238,-90,42,-142,-392,70
4680,237,-91,41,-134,-406,68
4685,239,-90,40,-127,-415,66
4690,241,-89,38,-121,-415,66
4695,241,-91,34,-116,-410,65
4700,240,-90,32,-109,-397,64
4705,243,-91,28,-97,-378,63
4710,244,-93,30,-78,-354,59
4715,245,-88,26,-59,-329,53
4720,241,-86,23,-45,-301,48
4725,236,-88,21,-31,-281,46
4730,244,-90,18,-22,-265,47
4735,249,-96,20,-14,-250,47
4740,246,-96,18,-6,-230,43
4745,248,-99,21,6,-211,33
4750,248,-97,22,16,-198,15
4755,247,-93,20,18,-190,-2
4760,249,-92,22,15,-189,-18
4765,246,-93,19,2,-193,-36
4770,246,-93,22,-17,-202,-50
4775,243,-94,20,-35,-216,-65
4780,244,-97,22,-47,-234,-80
4785,241,-99,22,-54,-253,-92
4790,244,-101,24,-55,-269,-104
4795,244,-99,22,-53,-282,-116
4800,246,-99,22,-51,-289,-128
4805,246,-99,17,-49,-287,-142
4810,245,-99,12,-42,-277,-152
4815,245,-96,15,-30,-263,-162
4820,243,-93,14,-12,-243,-170
4825,243,-92,8,8,-220,-174
4830,249,-95,8,28,-194,-172
4835,249,-94,6,47,-165,-169
4840,252,-95,12,59,-133,-170
4845,249,-93,9,73,-104,-173
4850,249,-93,12,82,-78,-175
4855,250,-91,7,82,-61,-183
4860,246,-90,7,77,-55,-190
4865,244,-86,24,61,-55,-195
4870,242,-87,12,47,-60,-200
4875,246,-88,17,36,-65,-200
4880,246,-91,16,33,-69,-195
4885,247,-90,12,40,-72,-194
4890,247,-90,14,54,-75,-195
4895,246,-88,12,69,-79,-197
4900,246,-86,12,80,-80,-201
4905,245,-85,11,87,-84,-206
4910,245,-83,11,92,-84,-206
4915,247,-86,11,99,-83,-207
4920,248,-84,12,111,-76,-208
4925,247,-83,12,125,-69,-208
4930,246,-79,8,135,-60,-209
4935,242,-77,14,137,-48,-210
4940,247,-77,10,140,-35,-209
4945,241,-71,18,143,-23,-209
4950,245,-72,18,148,-12,-205
4955,248,-70,23,153,-1,-203
4960,248,-72,18,158,14,-200
4965,246,-71,21,164,32,-196
4970,248,-65,21,166,54,-197
4975,248,-66,34,167,72,-196
4980,247,-62,21,164,88,-192
4985,246,-64,22,158,101,-191
4990,247,-63,24,151,114,-189
4995,247,-58,28,141,122,-187
5000,248,-57,27,129,131,-179
5005,246,-56,29,117,139,-171
5010,249,-57,28,99,147,-158
5015,249,-59,29,84,151,-145
5020,248,-60,25,67,152,-133
5025,246,-61,30,53,150,-122
5030,246,-65,28,46,145,-112
5035,242,-63,32,44,137,-98
5040,239,-59,30,45,124,-84
5045,240,-59,29,45,108,-63
5050,239,-58,29,51,94,-45
5055,245,-60,33,52,77,-29
5060,246,-65,30,45,61,-24
5065,248,-71,33,28,51,-28
5070,245,-75,35,14,47,-43
5075,244,-78,33,5,48,-60
5080,238,-80,35,3,55,-77
5085,235,-75,33,6,67,-88
5090,237,-78,29,15,81,-94
5095,235,-73,29,26,99,-92
5100,235,-69,30,38,117,-84
5105,240,-66,30,41,133,-73
5110,240,-62,30,40,143,-61
5115,244,-59,31,35,149,-48
5120,251,-59,29,29,148,-35
5125,250,-61,25,19,138,-24
5130,255,-59,25,3,127,-20
5135,256,-60,26,-15,110,-19
5140,255,-65,22,-30,98,-21
5145,255,-66,20,-43,88,-21
5150,256,-66,18,-49,83,-22
5155,256,-72,17,-55,83,-24
5160,255,-73,16,-60,87,-26
5165,251,-74,18,-66,95,-31
5170,248,-74,15,-63,109,-34
5175,247,-68,13,-57,126,-32
5180,243,-62,16,-54,145,-27
5185,246,-61,17,-48,164,-17
5190,244,-59,19,-44,178,0
5195,240,-66,35,-40,188,17
5200,240,-56,28,-39,191,37
5205,240,-55,32,-49,186,52
5210,240,-62,31,-74,175,57
5215,242,-66,34,-104,162,54
5220,242,-73,34,-129,151,47
5225,242,-77,34,-138,142,38
5230,238,-79,29,-136,136,32
5235,243,-82,27,-127,128,24
5240,242,-85,24,-117,118,19
5245,243,-89,24,-107,104,17
5250,244,-87,21,-101,94,14
5255,246,-88,24,-92,92,9
5260,245,-86,25,-82,95,6
5265,242,-86,20,-74,99,3
5270,243,-84,23,-67,101,-3
5275,242,-86,23,-59,105,-7
5280,241,-85,25,-50,109,-11
5285,241,-86,25,-40,112,-13
5290,240,-80,27,-30,116,-16
5295,240,-80,26,-21,122,-19
5300,239,-78,34,-14,130,-20
5305,241,-73,32,-7,136,-25
5310,237,-77,30,-3,140,-27
5315,238,-76,36,0,142,-32
5320,238,-77,32,-1,143,-35
5325,236,-75,35,-4,138,-40
5330,237,-72,39,-11,136,-44
5335,232,-69,43,-17,131,-47
5340,235,-67,38,-27,120,-48
5345,236,-70,39,-41,109,-51
5350,237,-71,36,-56,95,-53
5355,238,-70,39,-70,79,-55
5360,238,-70,39,-82,61,-56
5365,241,-73,36,-89,43,-56
5370,240,-75,35,-91,26,-56
5375,238,-75,35,-88,11,-54
5380,239,-77,31,-78,-3,-55
5385,241,-78,29,-67,-14,-52
5390,244,-76,28,-50,-23,-49
5395,243,-75,30,-27,-28,-47
5400,247,-77,23,-2,-31,-41
5405,245,-75,24,19,-30,-36
5410,256,-74,22,37,-28,-32
5415,248,-71,21,53,-27,-27
5420,250,-75,25,67,-25,-23
5425,247,-73,23,80,-24,-18
5430,246,-69,24,91,-24,-15
5435,249,-71,24,99,-23,-13
5440,245,-71,19,105,-22,-12
5445,244,-72,26,109,-17,-8
5450,243,-69,25,113,-14,-4
5455,244,-73,30,113,-9,-2
5460,241,-70,27,115,-4,0
5465,240,-73,27,116,2,3
5470,242,-72,25,118,7,4
5475,244,-68,26,119,16,4
5480,244,-70,25,120,24,0
5485,242,-70,26,120,33,-1
5490,242,-67,26,117,41,-6
5495,245,-66,29,112,49,-12
5500,241,-60,28,100,56,-18
5505,246,-62,26,81,63,-23
5510,243,-59,29,58,69,-30
5515,247,-61,29,37,73,-32
5520,252,-64,33,14,77,-32
5525,246,-62,28,-5,78,-34
5530,249,-68,31,-21,76,-34
5535,247,-63,29,-31,71,-34
5540,246,-64,27,-37,63,-33
5545,249,-67,25,-42,54,-32
5550,252,-69,27,-43,48,-33
5555,249,-69,23,-44,41,-35
5560,250,-71,23,-45,34,-38
5565,244,-70,28,-44,32,-42
5570,245,-71,28,-46,30,-44
5575,244,-71,23,-48,29,-44
5580,239,-72,27,-40,33,-39
5585,240,-69,27,-27,37,-31
5590,240,-67,25,-13,42,-21
5595,241,-67,28,5,54,-7
5600,241,-63,27,26,68,9
5605,247,-62,28,44,77,25
5610,253,-62,28,54,86,39
5615,258,-61,26,55,91,46
5620,258,-60,23,52,93,48
5625,259,-59,20,48,93,46
5630,264,-66,22,43,88,41
5635,258,-69,18,32,83,30
5640,256,-69,16,22,73,22
5645,255,-73,19,16,66,14
5650,250,-75,22,13,61,11
5655,249,-79,19,13,58,6
5660,250,-76,20,18,59,6
5665,249,-78,20,25,60,4
5670,246,-75,20,35,63,1
5675,245,-75,21,47,67,0
5680,246,-72,23,60,71,0
5685,244,-71,21,73,78,2
5690,241,-69,27,83,84,4
5695,240,-69,28,87,90,7
5700,240,-68,31,89,89,9
5705,237,-64,31,85,87,11
5710,239,-64,35,80,85,14
5715,238,-68,33,70,84,14
5720,238,-68,38,59,82,13
5725,234,-69,34,45,80,10
5730,237,-68,36,35,80,6
5735,235,-71,37,22,80,2
5740,232,-76,39,11,82,-3
5745,236,-73,37,1,82,-8
5750,236,-72,36,-7,84,-11
5755,238,-69,31,-11,87,-13
5760,237,-71,35,-17,87,-13
5765,242,-74,32,-20,86,-13
5770,242,-69,31,-22,83,-13
5775,243,-72,32,-19,80,-12
5780,244,-72,28,-16,76,-11
5785,246,-70,27,-10,71,-8
5790,245,-68,26,-7,64,-9
5795,249,-73,27,-6,56,-8
5800,249,-68,24,-6,47,-7
5805,250,-73,25,-5,36,-7
5810,251,-72,23,-3,28,-7
5815,250,-70,19,1,19,-8
5820,253,-71,26,5,12,-9
5825,251,-67,21,8,7,-11
5830,249,-68,19,10,1,-12
5835,252,-70,20,10,-3,-13
5840,249,-67,26,10,-5,-14
5845,250,-69,25,10,-4,-13
5850,250,-74,23,11,0,-15
5855,243,-68,25,10,7,-15
5860,246,-69,27,12,15,-14
5865,245,-69,26,11,24,-14
5870,246,-70,28,10,30,-13
5875,244,-69,24,6,34,-12
5880,246,-67,31,6,36,-11
5885,245,-70,28,4,35,-9
5890,244,-70,27,4,33,-8
5895,244,-69,26,2,29,-8
5900,245,-72,24,4,24,-10
5905,246,-73,25,4,18,-9
5910,250,-73,25,6,14,-8
5915,247,-69,24,6,14,-8
5920,252,-66,23,7,17,-11
5925,249,-69,19,6,22,-12
5930,247,-64,21,6,28,-10
5935,247,-65,22,4,38,-13
5940,248,-67,17,1,48,-13
5945,245,-62,24,-6,56,-14
5950,247,-69,25,-11,66,-13
5955,241,-65,16,-14,73,-13
5960,245,-67,25,-16,76,-10
5965,245,-71,25,-15,80,-8
5970,246,-68,25,-11,81,-6
5975,246,-70,23,-10,82,-7
5980,244,-69,22,-7,83,-8
5985,245,-66,23,-4,83,-7
5990,244,-69,25,-3,83,-6
5995,247,-71,24,-6,81,-5
6000,246,-72,25,-10,76,-5
6005,248,-70,25,-13,73,-5
6010,248,-75,23,-15,68,-5
6015,248,-71,26,-15,65,-3
6020,245,-74,23,-12,60,-1
6025,244,-74,26,-6,57,-1
6030,246,-74,26,1,56,1
6035,245,-75,25,7,53,-2
6040,245,-72,27,14,52,-3
6045,245,-75,23,22,53,-6
6050,243,-72,22,30,55,-8
6055,245,-71,25,36,57,-9
6060,243,-69,29,41,62,-12
6065,247,-67,30,48,69,-12
6070,245,-70,23,53,73,-11
6075,244,-69,23,57,74,-8
6080,247,-69,27,59,74,-7
6085,243,-68,25,60,74,-4
6090,246,-66,27,60,73,-3
6095,247,-67,25,62,72,1
6100,247,-67,25,62,71,1
6105,244,-67,24,61,70,5
6110,247,-66,25,60,69,8
6115,244,-70,25,60,69,10
6120,243,-69,27,59,69,13
6125,247,-71,25,59,71,14
6130,246,-70,26,62,74,17
6135,247,-72,27,67,74,18
6140,247,-70,26,72,76,19
6145,244,-70,23,79,77,20
6150,246,-76,28,84,79,21
6155,248,-78,30,93,78,21
6160,246,-73,28,101,77,21
6165,248,-76,21,114,75,20
6170,248,-81,27,130,76,17
6175,235,-69,17,146,79,13
6180,247,-81,27,166,81,7
6185,243,-77,26,188,84,3
6190,243,-77,24,209,88,0
6195,249,-73,28,230,93,-4
6200,244,-71,24,244,98,-7
6205,244,-72,27,251,103,-5
6210,245,-68,28,251,105,-5
6215,244,-67,28,245,110,-4
6220,243,-67,28,238,113,-3
6225,242,-67,33,232,114,-3
6230,240,-63,29,224,110,-2
6235,240,-59,31,210,106,-2
6240,241,-58,28,184,100,-1
6245,243,-60,26,150,97,0
6250,243,-61,29,116,93,2
6255,241,-62,33,89,87,-1
6260,244,-64,31,71,80,-3
6265,242,-69,31,58,75,-7
6270,243,-66,34,55,71,-8
6275,243,-65,32,54,69,-7
6280,240,-67,31,55,68,-7
6285,239,-72,33,58,68,-6
6290,241,-69,33,60,72,-7
6295,242,-69,37,64,75,-5
6300,243,-70,32,67,78,-5
6305,244,-69,32,68,80,-6
6310,245,-68,32,70,78,-7
6315,245,-69,31,70,77,-8
6320,248,-69,33,70,73,-9
6325,244,-67,32,69,70,-11
6330,241,-67,30,70,68,-13
6335,243,-64,28,68,68,-15
6340,241,-64,29,65,69,-17
6345,244,-65,29,62,72,-18
6350,244,-65,31,59,74,-19
6355,244,-62,27,56,79,-18
6360,241,-63,32,52,85,-18
6365,245,-65,27,50,89,-16
6370,244,-64,31,44,93,-12
6375,242,-63,35,38,96,-9
6380,243,-65,30,31,98,-6
6385,244,-66,28,26,98,-3
6390,243,-64,31,22,98,0
6395,245,-65,31,20,96,0
6400,242,-65,36,19,95,0
6405,243,-67,29,18,91,-4
6410,248,-67,33,16,87,-3
6415,244,-68,32,14,82,-5
6420,243,-67,28,12,81,-4
6425,242,-66,29,11,77,-4
6430,246,-68,28,8,75,-1
6435,242,-67,28,5,77,1
6440,245,-67,27,2,80,2
6445,240,-76,28,0,86,3
6450,243,-65,30,-2,88,4
6455,245,-66,28,-3,93,7
6460,246,-70,30,-1,96,9
6465,245,-66,28,1,97,10
6470,246,-69,33,2,99,10
6475,246,-70,33,5,100,11
6480,242,-68,33,6,100,11
6485,245,-67,31,7,100,10
6490,246,-68,27,7,99,11
6495,241,-65,27,5,100,10
6500,243,-69,28,1,102,9
6505,238,-69,36,-4,106,11
6510,243,-70,24,-8,110,12
6515,236,-67,35,-10,113,14
6520,245,-73,27,-12,116,13
6525,250,-69,33,-13,120,12
6530,243,-65,27,-12,121,13
6535,244,-65,28,-14,121,11
6540,242,-70,34,-17,122,12
6545,243,-65,40,-17,121,10
6550,247,-58,26,-18,120,12
6555,246,-67,29,-19,116,11
6560,246,-69,29,-20,116,12
6565,245,-65,32,-20,116,15
6570,246,-66,33,-22,116,15
6575,250,-70,29,-23,117,18
6580,249,-69,30,-22,119,21
6585,248,-67,36,-23,123,22
6590,246,-73,35,-24,128,24
6595,240,-71,29,-23,131,25
6600,243,-69,35,-21,133,25
6605,247,-63,29,-18,136,25
6610,250,-65,29,-17,138,27
6615,239,-75,33,-15,138,26
6620,249,-70,32,-11,136,25
6625,245,-68,27,-8,133,24
6630,246,-72,34,-5,130,21
6635,245,-73,31,-2,126,20
6640,246,-70,35,2,124,20
6645,243,-70,28,4,123,19
6650,249,-85,27,9,124,17
6655,239,-76,33,14,128,16
6660,255,-77,41,18,131,14
6665,245,-62,39,21,135,14
6670,243,-75,35,22,140,15
6675,238,-67,45,25,146,15
6680,244,-52,20,27,151,16
6685,228,-59,33,28,160,19
6690,247,-62,23,26,167,21
6695,243,-68,33,25,173,23
6700,247,-53,36,24,180,25
6705,244,-67,37,22,187,27
6710,242,-64,34,21,189,27
6715,242,-67,37,19,186,28
6720,242,-70,37,16,183,31
6725,245,-66,40,15,178,30
6730,246,-69,45,15,173,31
6735,232,-68,38,16,168,31
6740,247,-73,40,19,162,32
6745,233,-65,35,23,158,32
6750,238,-70,64,27,155,29
6755,253,-74,38,29,151,27
6760,251,-67,37,30,149,25
6765,240,-75,48,30,147,23
6770,248,-63,58,26,146,21
6775,257,-66,40,24,143,18
6780,242,-73,38,23,141,15
6785,242,-73,42,18,138,10
6790,242,-70,43,13,134,7
6795,242,-73,40,8,128,1
6800,241,-75,46,1,125,-1
6805,241,-64,42,-4,121,-2
6810,241,-69,45,-10,118,-3
6815,239,-70,40,-15,116,-4
6820,239,-69,38,-21,113,-2
6825,253,-69,44,-27,112,-3
6830,241,-66,40,-31,110,-3
6835,242,-70,42,-33,107,-2
6840,242,-71,37,-33,103,-3
6845,245,-74,37,-33,100,-1
6850,241,-73,44,-32,98,2
6855,246,-77,40,-31,95,2
6860,242,-71,39,-30,93,3
6865,240,-68,41,-28,91,3
6870,242,-72,39,-26,89,3
6875,243,-72,37,-23,87,1
6880,235,-66,72,-18,85,-1
6885,233,-79,34,-13,82,-3
6890,252,-84,37,-9,78,-5
6895,243,-76,33,-3,77,-7
6900,227,-75,37,0,78,-7
6905,250,-68,39,5,80,-7
6910,242,-78,32,10,81,-6
6915,236,-70,37,13,80,-5
6920,236,-67,38,16,83,-2
6925,244,-70,33,18,86,0
6930,245,-67,31,21,88,2
6935,244,-70,39,22,91,5
6940,244,-69,39,22,95,8
6945,240,-70,38,22,98,10
6950,242,-66,40,23,99,12
6955,246,-72,50,22,98,13
6960,246,-64,35,21,98,12
6965,236,-59,35,23,98,12
6970,240,-70,42,23,97,11
6975,260,-73,36,23,96,10
6980,244,-68,38,23,96,9
6985,239,-69,43,22,93,5
6990,240,-69,41,18,90,5
6995,241,-69,38,16,88,3
7000,238,-62,38,13,88,2
7005,243,-69,42,11,88,1
7010,242,-69,41,9,87,0
7015,244,-70,42,8,83,0
7020,245,-67,39,7,82,0
7025,240,-70,50,6,78,0
7030,241,-70,42,7,76,-1
7035,242,-69,40,7,75,-2
7040,240,-69,43,7,73,-3
7045,243,-70,40,8,71,-2
7050,244,-70,39,8,70,-3
7055,241,-69,39,9,70,-3
7060,241,-70,35,8,72,-3
7065,243,-70,39,8,74,-4
7070,245,-66,39,5,77,-5
7075,246,-69,47,4,81,-6
7080,246,-68,41,2,81,-7
7085,242,-67,41,0,83,-7
7090,243,-63,41,-4,83,-7
7095,241,-69,40,-7,84,-6
7100,244,-69,41,-10,84,-6
7105,244,-74,38,-12,82,-7
7110,241,-71,42,-12,81,-6
7115,244,-69,39,-12,81,-4
7120,242,-69,38,-11,81,-1
7125,243,-68,38,-9,80,0
7130,246,-70,40,-7,79,0
7135,240,-70,43,-5,78,2
7140,242,-72,37,-2,74,2
7145,245,-70,41,0,76,2
7150,243,-68,38,1,75,2
7155,248,-76,42,0,73,1
7160,243,-70,39,0,74,2
7165,240,-70,37,-2,72,2
7170,241,-68,40,-3,70,3
7175,240,-68,37,-3,67,3
7180,244,-71,41,-3,64,4
7185,243,-74,37,-2,64,3
7190,239,-74,37,0,63,1
7195,240,-70,39,2,62,0
7200,241,-68,39,4,63,1
7205,244,-72,41,7,65,1
7210,244,-70,41,7,68,1
7215,245,-72,39,6,71,2
7220,243,-71,35,6,73,4
7225,242,-71,35,7,74,5
7230,241,-71,37,4,76,5
7235,245,-70,37,3,77,4
7240,243,-70,38,4,76,6
7245,243,-70,35,7,77,4
7250,241,-72,40,8,77,5
7255,241,-70,37,8,75,4
7260,238,-71,41,10,74,4
7265,239,-75,42,9,74,3
7270,242,-70,41,11,73,4
7275,240,-71,39,12,74,5
7280,241,-71,41,13,76,5
7285,239,-72,41,13,77,5
7290,242,-69,40,14,79,3
7295,246,-71,41,14,80,1
7300,245,-70,39,15,80,0
7305,241,-68,38,14,79,0
7310,244,-69,37,10,78,-1
7315,242,-72,39,8,74,-1
7320,246,-71,42,6,73,-1
7325,245,-69,40,6,72,0
7330,240,-68,40,6,70,-2
7335,240,-68,39,9,70,-3
7340,242,-68,43,9,69,-1
7345,241,-69,38,9,68,-4
7350,239,-68,39,8,69,-2
7355,241,-72,43,8,72,-2
7360,240,-71,40,8,72,-3
7365,242,-71,40,6,74,-4
7370,242,-68,42,3,72,-5
7375,248,-70,39,2,70,-6
7380,243,-70,41,2,67,-7
7385,242,-71,39,5,65,-8
7390,243,-72,42,9,62,-9
7395,244,-70,37,13,61,-9
7400,242,-70,36,17,60,-8
7405,246,-74,41,22,61,-11
7410,242,-68,39,25,63,-9
7415,243,-69,36,28,65,-10
7420,244,-68,39,28,66,-10
7425,242,-71,41,28,70,-6
7430,241,-70,37,28,74,-4
7435,240,-68,41,27,79,-2
7440,242,-67,41,26,83,-2
7445,240,-71,44,25,89,-1
7450,240,-69,42,24,93,-1
7455,241,-68,44,25,96,0
7460,243,-69,44,24,96,0
7465,241,-71,45,25,97,0
7470,242,-69,45,26,94,0
7475,240,-66,42,26,90,-2
7480,240,-64,44,25,85,-2
7485,239,-71,42,22,83,-2
7490,243,-71,44,19,79,-3
7495,241,-69,39,14,78,-2
7500,240,-66,42,11,74,-2
7505,241,-70,41,8,71,-5
7510,240,-67,44,5,70,-3
7515,241,-69,40,3,68,-4
7520,243,-68,43,1,67,-4
7525,245,-67,40,0,66,-4
7530,243,-70,40,0,65,-4
7535,244,-72,43,1,61,-5
7540,245,-69,42,-1,55,-5
7545,242,-71,42,-1,49,-5
7550,243,-68,42,0,45,-4
7555,244,-70,41,-1,42,-4
7560,243,-68,40,-1,41,-2
7565,243,-71,40,-3,41,-3
7570,239,-69,40,-3,42,-3
7575,240,-67,40,-3,42,-4
7580,243,-71,43,-4,42,-4
7585,244,-73,40,-1,44,-5
7590,252,-69,33,1,42,-3
7595,242,-70,39,2,44,-3
7600,242,-66,41,3,45,-2
7605,243,-68,41,4,48,-1
7610,240,-68,40,5,50,-2
7615,245,-69,39,5,52,-2
7620,243,-70,42,5,55,-3
7625,244,-68,45,4,58,-2
7630,244,-67,42,2,60,-2
7635,246,-71,42,4,64,-2
7640,239,-68,43,3,66,-2
7645,240,-66,41,3,68,-3
7650,245,-72,40,2,70,-2
7655,244,-67,40,0,71,-2
7660,243,-69,40,-2,73,0
7665,243,-67,41,-3,73,-1
7670,246,-71,38,-6,72,-1
7675,243,-68,39,-7,72,-3
7680,242,-70,38,-9,73,-3
7685,243,-66,40,-10,73,-3
7690,243,-71,39,-9,77,-3
7695,243,-68,42,-6,79,-5
7700,248,-63,38,-7,79,-5
7705,242,-68,39,-6,79,-6
7710,242,-68,40,-6,79,-7
7715,240,-71,41,-6,76,-5
7720,240,-71,41,-6,74,-4
7725,244,-71,41,-7,73,-4
7730,242,-66,43,-7,71,-3
7735,240,-72,40,-9,71,-1
7740,244,-69,40,-10,74,-1
7745,241,-65,38,-10,75,-1
7750,243,-68,40,-11,77,-2
7755,240,-65,41,-13,77,-3
7760,246,-67,43,-17,77,-2
7765,243,-65,41,-20,78,-1
7770,240,-67,41,-25,79,-3
7775,245,-69,42,-28,78,-4
7780,240,-68,43,-28,75,-5
7785,242,-71,42,-29,75,-5
7790,243,-69,43,-29,73,-5
7795,240,-68,41,-29,73,-4
7800,242,-73,44,-27,73,-5
7805,244,-72,43,-26,73,-4
7810,245,-75,39,-25,74,-4
7815,242,-71,41,-24,76,-3
7820,244,-70,40,-22,76,-2
7825,242,-68,38,-20,77,0
7830,239,-69,44,-17,78,-1
7835,242,-71,42,-18,79,-1
7840,240,-68,40,-19,76,0
7845,243,-68,39,-21,76,-1
7850,240,-70,42,-22,74,-2
7855,243,-69,45,-23,74,-1
7860,241,-66,41,-23,73,-1
7865,243,-71,41,-26,72,-1
7870,242,-68,40,-28,74,-2
7875,244,-71,41,-32,76,-1
7880,242,-67,42,-34,78,-2
7885,243,-67,40,-36,79,-3
7890,244,-68,40,-39,82,-4
7895,241,-67,41,-43,84,-5
7900,241,-68,39,-49,86,-6
7905,243,-65,42,-56,88,-5
7910,245,-65,40,-63,89,-7
7915,241,-65,38,-70,89,-10
7920,240,-63,41,-79,90,-10
7925,242,-67,37,-90,94,-11
7930,241,-65,40,-102,97,-13
7935,240,-64,42,-113,100,-14
7940,242,-63,43,-121,104,-15
7945,241,-64,42,-128,110,-19
7950,243,-64,40,-135,117,-19
7955,239,-67,40,-141,124,-21
7960,242,-66,40,-145,130,-20
7965,240,-63,38,-152,137,-23
7970,244,-66,42,-159,143,-22
7975,244,-63,41,-168,150,-20
7980,240,-64,41,-181,157,-21
7985,242,-63,40,-192,163,-21
7990,243,-67,43,-203,166,-21
7995,240,-68,38,-214,168,-21
8000,240,-68,41,-223,169,-21
8005,242,-68,41,-232,168,-21
8010,241,-67,42,-239,165,-21
8015,240,-67,42,-247,162,-20
8020,242,-70,45,-252,162,-23
8025,241,-81,43,-256,157,-24
8030,242,-70,44,-257,152,-26
8035,243,-73,47,-258,145,-28
8040,244,-71,42,-258,139,-29
8045,241,-76,43,-255,134,-31
8050,245,-76,43,-250,127,-33
8055,242,-71,42,-248,121,-33
8060,245,-73,44,-244,115,-33
8065,244,-70,44,-241,108,-33
8070,242,-71,45,-239,100,-34
8075,243,-67,43,-241,88,-37
8080,243,-65,44,-251,71,-40
8085,243,-60,46,-269,50,-42
8090,244,-58,48,-298,33,-43
8095,243,-56,47,-340,21,-44
8100,244,-57,43,-388,11,-47
8105,241,-56,44,-446,2,-51
8110,241,-61,43,-506,-14,-59
8115,236,-66,48,-563,-43,-67
8120,238,-70,46,-622,-85,-77
8125,239,-75,44,-658,-132,-88
8130,239,-81,48,-682,-180,-98
8135,242,-94,65,-692,-224,-107
8140,241,-92,50,-680,-255,-117
8145,245,-99,46,-645,-281,-130
8150,244,-95,42,-589,-298,-141
8155,244,-90,37,-520,-311,-145
8160,244,-88,32,-447,-315,-145
8165,246,-82,33,-379,-307,-135
8170,245,-71,30,-320,-285,-120
8175,245,-65,18,-278,-254,-104
8180,245,-57,14,-254,-220,-88
8185,249,-50,7,-255,-186,-72
8190,249,-47,3,-278,-151,-57
8195,250,-50,4,-313,-113,-40
8200,252,-52,2,-347,-80,-23
8205,255,-59,0,-369,-43,-3
8210,252,-66,1,-377,9,19
8215,253,-71,-5,-364,68,37
8220,249,-75,-4,-334,128,48
8225,247,-85,-3,-294,183,52
8230,251,-88,1,-243,233,55
8235,253,-89,5,-187,281,57
8240,249,-89,5,-129,318,59
8245,254,-85,14,-77,345,61
8250,256,-85,13,-34,362,56
8255,256,-81,18,-5,366,49
8260,256,-79,21,10,366,40
8265,256,-77,22,17,354,32
8270,255,-75,25,20,335,23
8275,254,-75,30,25,312,19
8280,251,-74,34,33,284,19
8285,249,-73,39,43,257,21
8290,251,-72,40,57,228,24
8295,252,-72,37,66,202,30
8300,248,-71,41,70,173,34
8305,246,-67,42,66,143,32
8310,243,-67,44,57,114,30
8315,242,-65,44,40,87,25
8320,242,-64,50,18,59,22
8325,242,-64,49,-2,30,18
8330,242,-65,50,-24,-6,15
8335,246,-70,56,-44,-46,16
8340,244,-70,50,-61,-83,9
8345,241,-70,52,-69,-113,2
8350,244,-71,56,-72,-134,-7
8355,240,-68,58,-69,-143,-20
8360,241,-67,50,-66,-147,-37
8365,238,-65,49,-66,-155,-57
8370,235,-64,50,-74,-158,-79
8375,228,-61,48,-87,-156,-96
8380,224,-64,49,-100,-151,-106
8385,225,-62,44,-111,-140,-109
8390,219,-60,43,-120,-126,-109
8395,222,-60,43,-127,-118,-101
8400,220,-61,48,-136,-117,-90
8405,221,-59,43,-142,-124,-74
8410,216,-60,49,-148,-132,-57
8415,221,-62,46,-156,-146,-40
8420,219,-58,46,-159,-157,-18
8425,220,-58,44,-154,-163,10
8430,217,-55,45,-145,-165,38
8435,218,-52,43,-144,-163,63
8440,222,-54,42,-154,-154,94
8445,231,-55,38,-167,-136,124
8450,231,-59,35,-175,-120,153
8455,232,-57,33,-175,-114,186
8460,231,-70,40,-165,-116,215
8465,232,-59,34,-153,-121,245
8470,237,-63,37,-139,-128,277
8475,241,-61,34,-126,-133,314
8480,242,-57,36,-119,-131,350
8485,246,-54,33,-118,-132,389
8490,249,-51,32,-115,-135,425
8495,251,-52,32,-116,-139,456
8500,251,-52,29,-120,-146,488
8505,252,-50,25,-129,-148,526
8510,255,-51,14,-140,-134,568
8515,255,-55,5,-143,-116,614
8520,263,-55,3,-142,-103,657
8525,263,-51,-1,-149,-97,696
8530,262,-51,4,-164,-95,725
8535,262,-51,4,-177,-104,750
8540,262,-54,1,-182,-108,775
8545,263,-54,-3,-181,-107,812
8550,260,-56,-5,-182,-97,855
8555,262,-59,-9,-186,-79,897
8560,262,-58,-13,-190,-52,937
8565,266,-61,-16,-191,-29,971
8570,264,-62,-18,-192,-6,1003
8575,266,-67,-20,-197,16,1029
8580,264,-67,-23,-210,42,1052
8585,263,-71,-22,-223,69,1072
8590,271,-74,-20,-232,92,1085
8595,272,-77,-18,-234,111,1093
8600,274,-77,-14,-236,129,1094
8605,270,-80,-8,-241,149,1095
8610,266,-82,-3,-254,169,1096
8615,263,-80,-1,-275,190,1101
8620,261,-82,3,-300,211,1107
8625,260,-87,1,-325,230,1112
8630,259,-93,4,-346,241,1115
8635,255,-101,9,-359,247,1119
8640,243,-108,16,-369,247,1121
8645,236,-118,17,-376,243,1124
8650,231,-121,24,-377,239,1126
8655,225,-122,27,-377,237,1126
8660,220,-128,34,-380,237,1121
8665,215,-129,31,-387,234,1109
8670,211,-130,33,-396,221,1093
8675,203,-132,34,-411,202,1077
8680,200,-131,19,-429,182,1065
8685,191,-144,33,-445,161,1056
8690,192,-151,33,-460,137,1048
8695,192,-157,39,-467,109,1041
8700,190,-158,38,-468,81,1037
8705,187,-161,38,-465,53,1031
8710,183,-163,33,-467,27,1026
8715,179,-164,38,-466,4,1020
8720,182,-163,34,-464,-21,1016
8725,181,-159,33,-457,-41,1013
8730,183,-158,25,-453,-58,1006
8735,189,-161,29,-451,-69,1001
8740,189,-160,30,-450,-78,998
8745,191,-161,26,-448,-91,991
8750,192,-161,23,-442,-98,986
8755,192,-165,18,-435,-100,981
8760,186,-164,16,-428,-105,975
8765,187,-162,17,-418,-118,965
8770,186,-160,12,-410,-139,954
8775,188,-163,10,-402,-150,939
8780,186,-162,9,-396,-153,923
8785,182,-163,11,-393,-146,909
8790,191,-158,12,-395,-135,895
8795,182,-161,4,-401,-129,883
8800,181,-165,6,-413,-132,873
8805,184,-164,3,-419,-138,867
8810,184,-173,5,-420,-142,863
8815,181,-174,0,-411,-147,859
8820,182,-175,-4,-400,-148,851
8825,181,-181,-6,-391,-147,844
8830,182,-181,-8,-382,-148,835
8835,182,-182,-8,-370,-150,824
8840,181,-181,-6,-357,-146,811
8845,186,-180,-10,-346,-137,802
8850,185,-179,-6,-337,-131,793
8855,190,-181,-4,-333,-131,782
8860,189,-180,-3,-330,-140,767
8865,193,-181,-4,-329,-156,750
8870,192,-181,-4,-323,-169,732
8875,188,-175,-1,-316,-175,718
8880,189,-179,-3,-315,-177,706
8885,188,-179,-5,-315,-175,697
8890,186,-180,1,-317,-174,687
8895,182,-177,-9,-314,-175,678
8900,179,-181,-7,-312,-176,671
8905,175,-182,-12,-308,-178,669
8910,172,-183,-14,-304,-176,672
8915,173,-184,-14,-299,-170,674
8920,169,-183,-11,-294,-156,673
8925,173,-181,-14,-289,-138,670
8930,176,-182,-12,-284,-121,663
8935,176,-179,-11,-282,-106,662
8940,178,-180,-11,-284,-95,661
8945,175,-180,-11,-286,-92,659
8950,179,-181,-13,-283,-93,660
8955,184,-178,-14,-282,-91,663
8960,184,-181,-16,-282,-88,665
8965,182,-184,-10,-282,-90,666
8970,185,-186,-14,-279,-92,666
8975,184,-188,-17,-270,-92,663
8980,184,-184,-18,-262,-88,656
8985,183,-186,-15,-253,-78,650
8990,180,-187,-20,-246,-64,642
8995,178,-187,-18,-240,-51,633
9000,176,-184,-15,-234,-37,624
9005,179,-185,-10,-237,-23,615
9010,176,-184,-14,-244,-12,608
9015,175,-186,-17,-253,-4,601
9020,176,-189,-16,-257,1,593
9025,175,-188,-18,-262,1,586
9030,172,-191,-20,-266,1,580
9035,167,-193,-20,-269,-1,573
9040,168,-197,-21,-273,-9,568
9045,169,-202,-20,-273,-14,562
9050,168,-202,-23,-270,-21,554
9055,163,-207,-22,-269,-28,548
9060,154,-206,-23,-263,-37,539
9065,152,-205,-20,-252,-41,532
9070,152,-203,-21,-240,-42,520
9075,149,-204,-25,-236,-33,511
9080,150,-205,-20,-234,-25,502
9085,149,-206,-20,-236,-20,493
9090,150,-205,-20,-238,-20,483
9095,144,-207,-22,-239,-24,478
9100,146,-208,-28,-238,-33,474
9105,148,-210,-31,-234,-41,464
9110,148,-205,-35,-231,-43,453
9115,145,-212,-32,-232,-42,444
9120,138,-210,-32,-235,-43,436
9125,137,-211,-31,-238,-51,431
9130,138,-212,-32,-239,-60,428
9135,134,-212,-34,-241,-68,423
9140,132,-213,-33,-240,-71,420
9145,132,-213,-36,-239,-73,416
9150,127,-213,-31,-234,-76,411
9155,130,-209,-35,-233,-76,407
9160,132,-210,-34,-232,-75,401
9165,128,-211,-32,-234,-79,396
9170,127,-211,-35,-243,-84,387
9175,128,-215,-33,-250,-90,379
9180,132,-216,-33,-252,-97,375
9185,133,-218,-35,-250,-100,372
9190,134,-219,-34,-247,-100,369
9195,135,-219,-36,-240,-99,368
9200,134,-218,-34,-230,-99,364
9205,131,-217,-37,-226,-100,362
9210,127,-219,-35,-229,-102,361
9215,129,-218,-33,-226,-98,360
9220,128,-222,-33,-218,-94,361
9225,121,-224,-34,-206,-91,362
9230,128,-227,-35,-193,-87,362
9235,127,-222,-35,-181,-86,358
9240,129,-219,-34,-169,-84,355
9245,129,-221,-25,-160,-80,354
9250,131,-219,-27,-156,-76,358
9255,130,-218,-26,-157,-73,359
9260,132,-218,-24,-159,-73,362
9265,133,-217,-24,-163,-78,366
9270,131,-218,-30,-166,-84,371
9275,132,-219,-33,-171,-92,375
9280,132,-219,-36,-173,-99,377
9285,132,-217,-35,-177,-103,378
9290,129,-217,-40,-180,-105,378
9295,131,-216,-41,-180,-104,373
9300,132,-216,-39,-180,-101,371
9305,128,-219,-41,-179,-100,370
9310,130,-220,-41,-172,-97,365
9315,129,-217,-37,-162,-94,360
9320,130,-217,-40,-149,-94,354
9325,131,-219,-42,-137,-95,348
9330,128,-221,-41,-130,-100,340
9335,130,-224,-36,-129,-107,334
9340,126,-222,-38,-129,-118,331
9345,128,-220,-41,-125,-127,329
9350,126,-220,-42,-124,-130,331
9355,126,-219,-37,-122,-131,331
9360,125,-222,-38,-123,-138,329
9365,122,-221,-40,-125,-145,328
9370,123,-221,-40,-129,-154,328
9375,127,-224,-44,-133,-162,327
9380,123,-226,-45,-138,-169,325
9385,120,-224,-50,-138,-174,323
9390,119,-221,-48,-134,-181,323
9395,120,-223,-49,-126,-187,324
9400,117,-219,-48,-121,-190,327
9405,115,-221,-45,-116,-194,327
9410,115,-226,-44,-109,-197,326
9415,115,-223,-44,-102,-200,326
9420,116,-221,-47,-93,-206,326
9425,116,-220,-51,-86,-212,325
9430,119,-219,-53,-88,-220,328
9435,119,-222,-53,-91,-233,328
9440,119,-222,-57,-93,-246,330
9445,123,-226,-57,-91,-252,334
9450,123,-219,-62,-91,-250,341
9455,126,-221,-56,-91,-248,348
9460,124,-222,-58,-88,-246,355
9465,125,-222,-60,-80,-243,360
9470,124,-224,-60,-67,-238,364
9475,124,-224,-55,-53,-233,365
9480,124,-228,-58,-38,-228,367
9485,122,-226,-59,-22,-224,368
9490,127,-228,-61,-9,-215,367
9495,127,-228,-59,2,-204,360
9500,127,-223,-61,6,-194,348
9505,126,-224,-60,10,-183,335
9510,123,-223,-58,9,-172,323
9515,123,-222,-57,6,-163,314
9520,118,-222,-55,0,-159,311
9525,118,-222,-54,-7,-154,309
9530,116,-222,-57,-16,-151,310
9535,114,-221,-50,-28,-146,310
9540,111,-224,-49,-36,-148,312
9545,109,-221,-55,-38,-146,314
9550,111,-223,-60,-35,-145,316
9555,104,-218,-58,-31,-146,322
9560,107,-223,-57,-26,-142,328
9565,107,-225,-62,-18,-140,332
9570,106,-226,-56,-7,-140,338
9575,106,-224,-56,6,-141,343
9580,104,-223,-58,16,-143,348
9585,103,-222,-53,22,-144,354
9590,106,-227,-53,20,-146,358
9595,103,-225,-59,14,-146,361
9600,101,-222,-59,7,-141,363
9605,101,-218,-60,1,-137,369
9610,105,-220,-63,-4,-135,377
9615,103,-222,-67,-11,-131,386
9620,102,-221,-61,-17,-127,396
9625,102,-219,-65,-21,-124,408
9630,102,-220,-68,-27,-119,422
9635,105,-220,-66,-30,-118,434
9640,110,-224,-65,-36,-120,445
9645,107,-222,-62,-39,-123,453
9650,109,-225,-63,-41,-127,462
9655,109,-228,-67,-40,-127,468
9660,108,-226,-73,-41,-121,471
9665,108,-226,-65,-42,-110,472
9670,107,-228,-64,-48,-100,472
9675,104,-230,-65,-52,-88,470
9680,98,-226,-64,-54,-77,464
9685,98,-230,-61,-55,-66,456
9690,96,-232,-66,-53,-57,450
9695,94,-228,-60,-50,-50,443
9700,92,-233,-61,-44,-47,438
9705,89,-232,-61,-37,-47,431
9710,87,-234,-57,-29,-50,425
9715,85,-233,-58,-18,-52,422
9720,86,-236,-58,-7,-55,422
9725,89,-235,-59,0,-55,425
9730,85,-237,-60,5,-53,431
9735,88,-234,-62,11,-47,436
9740,88,-234,-57,19,-43,441
9745,89,-234,-56,27,-37,447
9750,87,-234,-53,41,-33,453
9755,88,-237,-53,53,-32,457
9760,89,-234,-53,66,-30,462
9765,86,-237,-53,75,-23,464
9770,94,-228,-51,80,-12,464
9775,86,-233,-54,81,-2,463
9780,89,-233,-53,78,7,462
9785,84,-234,-52,72,14,456
9790,83,-236,-52,66,20,451
9795,81,-239,-48,63,23,447
9800,77,-236,-48,57,23,443
9805,78,-240,-49,48,20,437
9810,76,-240,-53,39,15,435
9815,76,-237,-50,29,10,435
9820,74,-240,-59,21,8,437
9825,71,-240,-55,11,6,441
9830,68,-242,-58,2,8,446
9835,67,-245,-60,-10,7,453
9840,65,-241,-57,-22,4,461
9845,65,-243,-55,-34,-1,469
9850,65,-246,-59,-44,-7,478
9855,61,-248,-55,-53,-16,485
9860,61,-245,-53,-63,-23,493
9865,62,-249,-58,-71,-29,505
9870,62,-247,-57,-84,-30,520
9875,60,-247,-57,-95,-27,538
9880,65,-249,-59,-103,-21,554
9885,60,-246,-50,-102,-15,564
9890,61,-244,-54,-93,-9,569
9895,61,-244,-51,-84,-3,571
9900,61,-242,-55,-77,4,572
9905,58,-239,-50,-78,10,573
9910,58,-241,-54,-85,12,578
9915,58,-242,-56,-98,15,587
9920,59,-243,-52,-108,17,595
9925,58,-241,-52,-113,18,596
9930,63,-243,-58,-107,21,589
9935,53,-239,-58,-94,24,576
9940,52,-239,-56,-82,31,559
9945,49,-237,-57,-77,38,548
9950,48,-237,-54,-86,46,541
9955,46,-235,-57,-100,54,539
9960,42,-238,-54,-113,54,538
9965,41,-239,-54,-124,56,538
9970,40,-242,-52,-131,54,538
9975,39,-247,-50,-131,51,534
9980,39,-248,-48,-128,46,534
9985,44,-249,-46,-122,43,533
9990,42,-249,-51,-112,41,533
9995,40,-251,-51,-101,39,535
10000,41,-249,-54,-90,37,540
10005,39,-255,-50,-82,40,543
10010,37,-253,-51,-74,40,546
10015,34,-255,-52,-65,38,545
10020,35,-255,-51,-61,30,542
10025,31,-259,-53,-65,16,539
10030,28,-257,-55,-78,-2,536
10035,25,-259,-54,-99,-20,528
10040,21,-258,-56,-124,-39,515
10045,18,-260,-56,-150,-55,502
10050,13,-260,-55,-168,-68,487
10055,8,-261,-58,-182,-77,468
10060,1,-262,-61,-195,-85,451
10065,-1,-266,-59,-207,-93,435
10070,-4,-263,-56,-215,-98,420
10075,-4,-268,-65,-222,-102,402
10080,-6,-269,-63,-228,-107,382
10085,-13,-269,-64,-234,-111,364
10090,-14,-272,-69,-235,-114,348
10095,-13,-280,-68,-232,-122,339
10100,-15,-269,-73,-221,-132,333
10105,-14,-272,-71,-203,-153,333
10110,-14,-269,-72,-176,-173,336
10115,-10,-271,-74,-140,-197,342
10120,-13,-266,-69,-99,-218,356
10125,-4,-268,-72,-60,-236,374
10130,-10,-262,-69,-22,-246,393
10135,-5,-259,-67,12,-259,411
10140,-1,-261,-73,41,-274,423
10145,-2,-253,-71,68,-291,428
10150,-3,-249,-76,85,-306,429
10155,-4,-252,-70,94,-318,430
10160,-7,-249,-70,94,-326,431
10165,-2,-251,-76,92,-328,427
10170,-4,-251,-71,84,-326,420
10175,-8,-249,-71,78,-323,403
10180,-6,-249,-72,72,-317,391
10185,-8,-249,-68,69,-304,380
10190,-8,-250,-69,73,-293,369
10195,-4,-251,-72,76,-278,360
10200,-9,-246,-70,78,-263,352
10205,-6,-250,-57,75,-251,344
10210,-6,-249,-72,73,-239,334
10215,-10,-249,-75,73,-229,329
10220,-10,-250,-72,76,-222,322
10225,-11,-250,-70,86,-225,311
10230,-8,-251,-76,98,-231,302
10235,-9,-249,-75,109,-236,297
10240,-9,-245,-76,109,-244,292
10245,-11,-243,-81,97,-254,287
10250,-10,-244,-81,75,-262,277
10255,-11,-248,-79,54,-272,268
10260,-8,-247,-74,36,-275,257
10265,-11,-250,-77,24,-276,247
10270,-11,-249,-73,18,-275,236
10275,-8,-247,-76,16,-272,225
10280,-8,-248,-78,8,-266,213
10285,-2,-245,-81,-7,-258,197
10290,-7,-244,-80,-29,-244,180
10295,-6,-242,-81,-48,-233,160
10300,-5,-240,-80,-70,-221,142
10305,-7,-236,-82,-96,-212,125
10310,-15,-229,-83,-134,-201,112
10315,-7,-238,-80,-169,-194,102
10320,-7,-243,-76,-196,-185,93
10325,-6,-243,-76,-213,-179,86
10330,-5,-247,-72,-223,-172,82
10335,-5,-247,-68,-223,-165,79
10340,-7,-248,-64,-217,-157,82
10345,-4,-247,-61,-205,-153,88
10350,-3,-251,-66,-188,-152,93
10355,-5,-246,-59,-169,-152,98
10360,-6,-245,-66,-152,-151,102
10365,-4,-247,-65,-141,-149,105
10370,-7,-243,-60,-143,-147,108
10375,-3,-245,-67,-152,-145,111
10380,-1,-248,-62,-167,-144,115
10385,-2,-249,-60,-183,-142,115
10390,-3,-248,-64,-196,-141,114
10395,0,-249,-64,-210,-139,112
10400,-1,-249,-69,-220,-136,107
10405,1,-252,-66,-222,-130,102
10410,0,-251,-70,-215,-118,94
10415,1,-252,-70,-204,-105,86
10420,0,-254,-76,-196,-97,75
10425,0,-247,-70,-191,-90,64
10430,0,-245,-69,-192,-85,54
10435,2,-244,-74,-197,-77,49
10440,4,-240,-76,-202,-68,45
10445,8,-233,-79,-206,-57,40
10450,18,-231,-81,-214,-41,36
10455,19,-233,-79,-227,-13,30
10460,22,-237,-83,-243,29,19
10465,16,-241,-82,-263,77,0
10470,18,-249,-75,-290,119,-19
10475,14,-259,-68,-312,150,-37
10480,2,-262,-63,-322,170,-49
10485,-4,-266,-60,-316,175,-55
10490,-5,-268,-59,-287,167,-60
10495,-12,-269,-63,-243,153,-62
10500,-11,-268,-58,-192,133,-61
10505,-14,-262,-61,-148,119,-58
10510,-16,-264,-62,-109,109,-55
10515,-16,-258,-64,-81,113,-44
10520,-15,-254,-63,-60,126,-34
10525,-13,-248,-64,-47,145,-22
10530,-12,-244,-80,-46,163,-11
10535,-11,-242,-78,-51,177,1
10540,-7,-241,-82,-64,180,13
10545,-4,-235,-84,-83,180,28
10550,-3,-236,-86,-105,182,42
10555,1,-239,-87,-130,185,57
10560,6,-238,-87,-153,195,68
10565,2,-239,-85,-173,207,80
10570,3,-240,-83,-191,219,92
10575,1,-240,-86,-205,225,102
10580,0,-242,-85,-215,224,110
10585,-1,-244,-87,-225,219,119
10590,1,-247,-87,-225,213,126
10595,1,-248,-86,-222,206,131
10600,-1,-247,-87,-218,200,133
10605,-3,-247,-86,-210,196,135
10610,-2,-246,-89,-205,191,132
10615,-2,-243,-87,-204,189,128
10620,0,-246,-90,-209,189,122
10625,0,-244,-89,-213,191,117
10630,0,-241,-87,-217,194,114
10635,1,-241,-86,-220,199,108
10640,-1,-240,-96,-220,203,98
10645,2,-240,-83,-219,205,86
10650,1,-242,-83,-217,208,75
10655,1,-239,-81,-215,210,62
10660,1,-240,-85,-212,210,48
10665,-1,-240,-87,-208,210,38
10670,0,-244,-83,-205,208,31
10675,-3,-246,-85,-202,205,22
10680,-3,-244,-84,-196,202,18
10685,-3,-247,-86,-192,197,15
10690,-1,-246,-85,-188,193,13
10695,-7,-246,-86,-181,191,13
10700,-9,-246,-86,-173,184,12
10705,-7,-246,-87,-168,178,13
10710,-12,-247,-85,-168,172,14
10715,-9,-243,-86,-168,166,16
10720,-11,-245,-86,-171,160,17
10725,-8,-244,-87,-174,152,19
10730,-9,-244,-86,-177,148,20
10735,-11,-244,-87,-183,144,23
10740,-10,-245,-86,-190,142,26
10745,-3,-231,-91,-195,139,28
10750,-8,-244,-88,-200,141,33
10755,-5,-241,-92,-205,138,32
10760,-7,-243,-91,-208,133,32
10765,-5,-245,-92,-209,127,31
10770,-6,-241,-96,-212,122,32
10775,-6,-245,-93,-211,118,37
10780,-3,-248,-98,-209,115,39
10785,-3,-248,-100,-200,111,43
10790,-3,-245,-98,-186,105,44
10795,-7,-245,-100,-167,99,42
10800,-6,-246,-102,-149,94,38
10805,-7,-243,-105,-128,89,33
10810,-6,-244,-99,-111,84,26
10815,-14,-235,-97,-97,79,15
10820,-13,-238,-101,-87,78,4
10825,-13,-237,-96,-85,75,-7
10830,-15,-233,-93,-88,76,-13
10835,-17,-236,-93,-97,77,-15
10840,-13,-237,-96,-108,79,-18
10845,-15,-236,-91,-122,81,-17
10850,-16,-235,-90,-134,81,-17
10855,-13,-237,-106,-143,80,-15
10860,-14,-240,-96,-147,77,-17
10865,-15,-240,-100,-148,72,-16
10870,-12,-243,-94,-151,66,-15
10875,-16,-241,-98,-153,61,-15
10880,-13,-246,-97,-158,52,-13
10885,-11,-249,-96,-160,47,-8
10890,-11,-251,-97,-156,42,-2
10895,-10,-249,-103,-146,35,2
10900,-6,-248,-98,-132,30,3
10905,-10,-247,-100,-112,25,4
10910,-9,-247,-100,-94,18,3
10915,-8,-244,-99,-82,12,3
10920,-8,-242,-96,-74,8,4
10925,-5,-244,-99,-70,6,3
10930,-10,-243,-96,-68,5,7
10935,-10,-242,-95,-68,5,9
10940,-10,-238,-96,-68,5,13
10945,-8,-245,-96,-67,5,16
10950,-9,-241,-97,-64,6,16
10955,-8,-243,-99,-59,7,17
10960,-6,-240,-100,-54,7,15
10965,0,-235,-95,-51,4,12
10970,-5,-240,-96,-48,3,9
10975,-4,-237,-96,-47,2,4
10980,-5,-241,-97,-47,-2,0
10985,-4,-239,-97,-47,-4,-5
10990,-6,-241,-101,-47,-5,-11
10995,-4,-246,-98,-44,-6,-17
11000,-8,-245,-100,-37,-3,-19
11005,-7,-244,-99,-29,0,-23
11010,-4,-244,-99,-20,3,-26
11015,-8,-242,-98,-10,8,-24
11020,-4,-242,-101,-3,10,-24
11025,-7,-245,-99,3,15,-24
11030,-5,-239,-100,9,18,-24
11035,0,-242,-102,14,20,-23
11040,-2,-246,-100,21,23,-21
11045,-3,-242,-101,30,22,-16
11050,-6,-238,-101,39,23,-13
11055,-3,-238,-97,45,26,-9
11060,-7,-240,-98,46,27,-8
11065,-6,-240,-96,45,31,-7
11070,-6,-240,-95,40,33,-8
11075,-8,-241,-94,35,37,-9
11080,-3,-243,-96,33,41,-9
11085,-3,-242,-97,34,43,-10
11090,-4,-245,-97,38,46,-10
11095,-7,-243,-94,44,49,-10
11100,-2,-239,-96,49,51,-10
11105,-5,-238,-96,55,55,-12
11110,-7,-238,-95,58,56,-15
11115,-4,-243,-96,64,57,-19
11120,-6,-242,-92,68,59,-20
11125,-5,-244,-97,71,60,-24
11130,-5,-241,-92,74,64,-25
11135,-3,-237,-92,80,67,-26
11140,-3,-243,-94,85,69,-29
11145,-1,-244,-94,89,69,-32
11150,-6,-243,-94,93,71,-35
11155,-5,-242,-98,99,73,-35
11160,-3,-242,-95,105,75,-33
11165,-4,-239,-101,107,77,-30
11170,-3,-240,-101,104,79,-27
11175,-2,-242,-95,102,81,-21
11180,-2,-241,-101,100,83,-17
11185,-4,-239,-102,95,84,-12
11190,-3,-242,-94,90,86,-12
11195,-1,-243,-95,85,88,-11
11200,-2,-241,-96,81,91,-8
11205,-3,-241,-92,80,95,-7
11210,-2,-242,-91,81,97,-4
11215,-1,-243,-92,80,99,-1
11220,0,-243,-87,74,102,0
11225,-1,-242,-91,66,103,2
11230,-3,-243,-87,59,104,3
11235,-1,-242,-88,54,104,4
11240,-5,-244,-89,52,104,6
11245,-1,-244,-90,52,100,8
11250,-3,-245,-89,55,99,9
11255,-6,-245,-91,60,97,9
11260,-2,-244,-89,65,95,11
11265,-5,-245,-88,72,92,9
11270,-6,-242,-86,81,89,8
11275,-6,-244,-91,90,85,6
11280,-6,-245,-86,99,84,4
11285,-8,-245,-86,107,82,1
11290,-1,-239,-89,114,81,-1
11295,-10,-242,-85,120,80,-4
11300,-9,-242,-86,123,77,-8
11305,-12,-243,-87,122,75,-10
11310,-12,-242,-87,120,74,-12
11315,-10,-242,-86,115,73,-11
11320,-11,-239,-90,109,74,-12
11325,-11,-238,-87,104,72,-11
11330,-11,-240,-92,97,71,-11
11335,-15,-238,-85,89,69,-12
11340,-13,-242,-87,81,69,-12
11345,-11,-244,-84,70,69,-13
11350,-10,-245,-84,59,68,-14
11355,-13,-240,-88,48,71,-15
11360,-10,-242,-87,39,70,-15
11365,-11,-248,-85,31,73,-15
11370,-8,-245,-85,25,75,-13
11375,-10,-246,-89,24,76,-10
11380,-9,-247,-87,25,76,-8
11385,-10,-245,-85,28,75,-7
11390,-10,-243,-87,30,74,-7
11395,-7,-243,-88,33,72,-6
11400,-13,-237,-95,36,73,-4
11405,-9,-243,-88,42,75,-5
11410,-7,-245,-88,48,78,-5
11415,-6,-243,-85,54,81,-6
11420,-2,-244,-85,61,83,-5
11425,-2,-242,-86,66,87,-2
11430,-4,-241,-86,70,92,2
11435,0,-240,-90,75,95,7
11440,-2,-239,-88,77,100,10
11445,-1,-239,-92,77,100,13
11450,0,-239,-86,77,99,15
11455,0,-237,-94,74,98,15
11460,0,-237,-90,69,98,13
11465,2,-240,-92,63,99,12
11470,0,-238,-91,56,101,13
11475,1,-240,-89,47,104,12
11480,0,-243,-86,41,106,12
11485,0,-244,-88,37,104,10
11490,0,-247,-86,33,103,9
11495,-3,-247,-86,31,103,10
11500,0,-245,-85,29,103,8
11505,0,-247,-83,26,105,6
11510,-6,-241,-89,24,104,4
11515,-1,-245,-85,23,102,3
11520,0,-248,-86,21,102,2
11525,-2,-247,-84,22,101,-1
11530,-5,-246,-83,25,102,-5
11535,-2,-248,-82,31,100,-9
11540,-2,-248,-80,37,100,-14
11545,-1,-248,-82,42,100,-18
11550,-9,-246,-81,45,98,-22
11555,-9,-247,-80,48,98,-25
11560,-6,-250,-81,49,99,-26
11565,-8,-248,-80,49,99,-25
11570,-9,-245,-80,49,99,-25
11575,-8,-248,-82,48,98,-23
11580,-9,-245,-79,46,93,-22
11585,-10,-243,-82,41,89,-20
11590,-8,-247,-78,36,85,-16
11595,-7,-246,-84,33,81,-13
11600,-7,-247,-84,32,78,-10
11605,-6,-246,-82,32,73,-6
11610,-8,-246,-86,35,73,-3
11615,-5,-248,-84,38,70,0
11620,-5,-244,-88,40,67,1
11625,-6,-246,-84,44,66,0
11630,-6,-248,-86,48,64,-1
11635,-8,-245,-85,54,63,-1
11640,-7,-245,-83,57,62,-2
11645,-6,-247,-83,61,60,-2
11650,-7,-245,-83,63,59,-5
11655,-10,-245,-84,65,57,-6
11660,-7,-243,-85,66,58,-7
11665,-7,-244,-83,69,58,-8
11670,-6,-246,-84,71,57,-9
11675,-7,-243,-84,71,59,-10
11680,-8,-243,-83,71,62,-12
11685,-5,-242,-82,67,63,-14
11690,-8,-242,-83,63,65,-15
11695,-6,-242,-82,59,67,-16
11700,-7,-242,-80,53,70,-15
11705,-7,-242,-81,49,71,-15
11710,-7,-245,-80,44,73,-11
11715,-7,-245,-80,40,74,-7
11720,-6,-245,-83,35,75,-3
11725,-5,-238,-77,30,77,1
11730,-9,-243,-82,29,77,5
11735,-5,-245,-80,29,74,5
11740,-5,-244,-82,28,74,6
11745,-2,-246,-79,27,74,6
11750,-4,-244,-81,24,73,8
11755,-8,-244,-79,19,73,9
11760,-7,-246,-78,14,74,10
11765,-4,-245,-82,6,74,11
11770,-6,-245,-82,0,73,10
11775,-7,-245,-82,-2,73,7
11780,-4,-247,-82,-4,74,6
11785,-1,-248,-82,-3,76,2
11790,-5,-247,-83,-1,79,2
11795,-4,-248,-83,2,82,-2
11800,-3,-248,-82,4,85,-3
11805,-7,-245,-84,6,86,-2
11810,-5,-248,-81,8,88,-4
11815,-6,-247,-82,9,90,-5
11820,-5,-247,-77,13,89,-7
11825,-2,-248,-85,17,87,-9
11830,-4,-247,-84,23,87,-10
11835,-2,-239,-83,28,84,-11
11840,-7,-247,-84,32,84,-11
11845,-7,-247,-82,32,82,-10
11850,-6,-246,-80,33,81,-9
11855,-5,-247,-85,34,78,-10
11860,-8,-247,-84,36,77,-9
11865,-8,-246,-82,37,75,-9
11870,-10,-244,-86,36,71,-9
11875,-8,-244,-84,33,70,-8
11880,-6,-244,-83,30,70,-9
11885,-7,-246,-83,24,67,-7
11890,-3,-243,-85,17,65,-6
11895,-4,-244,-83,10,62,-6
11900,-7,-245,-82,7,59,-5
11905,-7,-244,-85,6,56,-2
11910,-7,-242,-85,6,55,-1
11915,-3,-246,-86,6,55,1
11920,-8,-244,-81,7,54,0
11925,-6,-246,-82,8,55,1
11930,-5,-248,-82,8,54,-3
11935,-5,-246,-83,8,54,-6
11940,-7,-248,-77,11,51,-8
11945,-3,-245,-79,15,51,-9
11950,-1,-250,-81,19,50,-10
11955,-8,-247,-78,25,48,-11
11960,-1,-250,-80,29,48,-12
11965,-4,-247,-77,33,47,-14
11970,-6,-246,-79,36,47,-15
11975,-5,-246,-77,38,45,-16
11980,-4,-248,-74,40,46,-17
11985,-5,-247,-77,43,45,-17
11990,-5,-245,-72,44,43,-16
11995,-8,-248,-76,40,44,-15
