timestamp,acc_x,acc_y,acc_z,gyro_x,gyro_y,gyro_z
0,3,-245,61,-1,67,6
5,-2,-245,60,0,68,3
10,-1,-246,59,-1,68,5
15,-3,-245,57,-1,67,4
20,-1,-245,61,-1,66,6
25,11,-255,55,-1,66,3
30,-2,-246,56,-1,64,5
35,-1,-246,57,-1,63,4
40,-3,-244,59,0,61,5
45,-1,-249,55,-1,61,3
50,-2,-245,59,-2,60,5
55,-2,-245,62,-2,61,2
60,-1,-245,58,-3,60,5
65,0,-248,56,-4,60,1
70,0,-245,58,-2,59,4
75,2,-244,63,-2,58,1
80,-3,-244,56,-1,58,4
85,-1,-247,57,1,56,2
90,-1,-247,57,0,57,4
95,-2,-246,58,1,57,2
100,-1,-246,59,2,56,5
105,-1,-247,60,3,56,2
110,-1,-244,58,3,56,4
115,-3,-245,61,4,56,1
120,2,-247,58,4,56,2
125,-2,-245,60,4,56,1
130,-2,-246,62,5,54,3
135,-3,-246,59,5,53,0
140,-2,-246,59,5,52,1
145,-3,-248,58,4,51,-2
150,-2,-246,59,3,49,-1
155,-2,-247,61,2,49,-2
160,-2,-245,57,2,48,-2
165,-2,-245,60,-1,49,-4
170,2,-245,59,-1,50,-2
175,0,-243,60,-5,52,-2
180,-1,-245,59,-7,53,0
185,-1,-242,59,-8,57,-2
190,-2,-245,60,-7,58,1
195,1,-246,60,-7,58,-2
200,1,-247,61,-8,59,1
205,-1,-247,59,-7,60,-3
210,1,-244,59,-6,60,1
215,-2,-245,60,-6,62,-1
220,3,-247,61,-6,64,3
225,0,-244,63,-6,68,3
230,1,-246,64,-5,69,8
235,0,-244,61,-5,69,7
240,0,-245,59,-6,68,10
245,-2,-244,60,-8,67,10
250,2,-246,59,-8,64,13
255,-1,-243,60,-9,61,12
260,1,-244,59,-11,58,14
265,0,-243,59,-8,56,12
270,0,-243,62,-8,52,16
275,0,-244,59,-6,50,11
280,0,-247,61,-5,50,14
285,-2,-247,58,-4,50,11
290,2,-243,62,-5,53,14
295,5,-243,50,-4,55,11
300,2,-245,59,-4,57,13
305,-1,-246,60,-4,57,11
310,-1,-246,61,-3,59,13
315,-1,-247,59,-2,59,10
320,2,-248,57,-1,61,11
325,1,-247,59,1,59,9
330,-5,-245,57,5,58,11
335,-1,-245,56,11,57,8
340,-1,-245,58,15,55,12
345,-1,-247,56,20,54,9
350,0,-246,61,21,54,11
355,0,-245,59,22,52,11
360,-3,-243,60,23,51,12
365,-1,-243,59,22,47,9
370,-3,-246,61,19,45,10
375,-2,-247,59,15,42,8
380,-1,-243,61,14,42,11
385,-5,-244,58,12,43,7
390,0,-245,58,10,46,10
395,-2,-246,60,9,50,6
400,-5,-243,60,7,55,6
405,0,-243,56,5,61,5
410,-4,-245,62,5,65,5
415,-5,-245,61,5,67,3
420,-4,-246,58,6,69,3
425,-6,-244,55,7,71,1
430,-4,-248,55,8,73,3
435,-2,-247,61,9,74,-1
440,-5,-247,58,11,75,1
445,-3,-246,61,14,75,-3
450,-2,-247,58,17,75,-1
455,-3,-246,57,17,75,-4
460,-4,-247,55,20,74,-3
465,-3,-245,58,18,74,-5
470,0,-245,59,18,75,-4
475,0,-245,59,14,74,-7
480,-2,-243,60,14,73,-2
485,-1,-243,63,11,72,-4
490,-5,-242,64,9,70,-1
495,-1,-244,60,5,68,-3
500,-1,-243,59,3,66,0
505,-2,-244,60,1,63,-2
510,0,-245,59,0,60,0
515,-2,-239,64,-2,59,-1
520,1,-244,62,-3,56,1
525,1,-245,59,-4,54,-1
530,-3,-247,62,-4,51,1
535,1,-245,62,-5,51,-2
540,-1,-246,61,-4,53,1
545,-2,-244,60,-5,54,-3
550,-1,-247,61,-4,56,-2
555,1,-246,61,-4,56,-4
560,-1,-245,64,-4,56,-3
565,-3,-247,60,-3,58,-5
570,-3,-243,58,-5,61,-4
575,-2,-245,59,-2,61,-7
580,0,-247,58,-1,62,-4
585,-2,-246,60,-1,63,-6
590,-2,-242,61,-1,63,-5
595,0,-243,62,-1,64,-8
600,-2,-245,60,-1,64,-5
605,-2,-243,60,-1,65,-7
610,-3,-242,60,-1,64,-5
615,-2,-247,56,-1,64,-7
620,3,-234,58,-2,62,-3
625,-4,-244,61,-2,61,-5
630,-1,-244,61,-4,62,-2
635,-3,-246,61,-4,63,-5
640,1,-247,61,-5,64,-3
645,-3,-244,61,-6,63,-4
650,-1,-243,62,-6,63,-2
655,-3,-243,61,-7,64,-4
660,-2,-243,66,-6,63,-2
665,0,-245,62,-6,65,-5
670,-1,-245,60,-6,64,-2
675,-4,-245,62,-6,64,-4
680,-2,-246,63,-5,65,-2
685,-2,-244,66,-6,63,-5
690,-3,-241,62,-7,64,-3
695,-2,-245,64,-7,63,-5
700,-2,-244,58,-8,62,-3
705,-2,-246,61,-7,62,-6
710,-2,-248,62,-8,62,-3
715,1,-248,63,-9,63,-5
720,-1,-247,63,-7,63,-3
725,-4,-243,60,-8,63,-7
730,0,-243,61,-8,63,-3
735,0,-245,61,-7,63,-7
740,-1,-245,62,-5,62,-4
745,-2,-244,66,-6,62,-7
750,-2,-245,60,-5,62,-5
755,0,-244,63,-6,61,-7
760,0,-245,66,-6,61,-6
765,-3,-242,61,-5,61,-7
770,-4,-245,60,-5,60,-4
775,-4,-244,64,-7,60,-7
780,0,-247,63,-7,59,-4
785,0,-243,62,-8,59,-7
790,-2,-246,62,-10,60,-3
795,1,-243,67,-9,59,-5
800,-3,-245,62,-10,60,-3
805,-4,-243,63,-9,61,-4
810,-3,-244,60,-10,60,-4
815,-2,-247,62,-9,62,-5
820,-2,-244,61,-10,62,-2
825,-4,-245,58,-8,62,-3
830,-2,-243,66,-8,61,-2
835,-2,-245,64,-8,59,-5
840,-1,-245,61,-7,58,-1
845,-1,-243,62,-6,55,-3
850,-1,-246,63,-5,54,0
855,-2,-247,64,-6,52,-2
860,-2,-244,62,-6,53,1
865,-5,-242,60,-6,54,-1
870,-3,-244,62,-6,53,1
875,0,-246,61,-8,52,-2
880,-1,-244,60,-8,53,2
885,-2,-244,64,-8,55,-1
890,-2,-244,59,-9,53,1
895,-1,-246,59,-8,54,-2
900,-1,-245,62,-8,54,0
905,-3,-244,60,-7,55,-3
910,1,-245,63,-9,53,-1
915,-1,-243,60,-8,54,-2
920,-4,-242,63,-9,54,0
925,-1,-246,59,-10,55,-1
930,-3,-242,59,-12,56,0
935,-2,-246,59,-13,57,-4
940,0,-247,59,-15,60,-3
945,0,-244,61,-15,62,-6
950,3,-243,77,-15,64,-3
955,3,-245,60,-15,65,-7
960,-2,-245,61,-14,65,-5
965,-4,-245,63,-14,65,-8
970,-3,-245,59,-13,64,-6
975,1,-246,64,-11,63,-8
980,0,-244,63,-9,63,-7
985,-3,-243,62,-9,63,-8
990,0,-247,64,-10,64,-5
995,-2,-242,65,-9,61,-6
1000,-2,-241,61,-9,62,-4
1005,-2,-245,60,-11,62,-7
1010,-3,-244,59,-11,62,-4
1015,-1,-246,59,-13,62,-7
1020,0,-246,60,-15,61,-4
1025,-2,-242,67,-15,62,-6
1030,-1,-245,61,-16,61,-3
1035,0,-245,61,-14,61,-5
1040,-3,-244,61,-14,61,-2
1045,-1,-246,61,-14,61,-4
1050,-1,-243,64,-12,60,-2
1055,2,-239,70,-12,59,-4
1060,-1,-245,61,-11,59,-2
1065,-1,-244,61,-9,59,-4
1070,-1,-244,62,-8,59,-1
1075,-2,-245,63,-10,58,-4
1080,-1,-245,62,-13,60,-1
1085,-2,-245,61,-15,61,-3
1090,0,-243,66,-16,62,0
1095,-2,-242,66,-19,62,-3
1100,-3,-245,67,-20,61,-1
1105,0,-247,65,-21,61,-4
1110,0,-249,60,-22,61,-1
1115,-3,-247,63,-21,61,-5
1120,-2,-245,65,-18,60,-3
1125,-1,-246,56,-18,59,-6
1130,-2,-246,61,-14,59,-4
1135,-2,-246,60,-14,59,-7
1140,0,-243,60,-11,60,-5
1145,-4,-243,64,-9,60,-8
1150,-3,-245,62,-7,61,-6
1155,-1,-243,59,-7,63,-6
1160,0,-245,64,-7,65,-3
1165,6,-240,55,-9,66,-6
1170,-3,-243,63,-12,65,-2
1175,-1,-244,65,-14,63,-5
1180,-1,-244,58,-16,61,-1
1185,-5,-243,62,-18,57,-3
1190,-2,-245,59,-18,56,-1
1195,1,-245,63,-19,53,-2
1200,-4,-244,63,-17,49,0
1205,-1,-246,61,-17,47,-1
1210,-3,-244,60,-17,45,2
1215,0,-246,61,-17,45,0
1220,-1,-248,60,-14,46,3
1225,0,-246,65,-15,45,0
1230,-2,-245,62,-12,47,3
1235,-3,-245,64,-11,48,1
1240,-2,-247,61,-8,49,3
1245,-3,-245,59,-8,51,1
1250,-1,-243,59,-6,55,1
1255,-1,-247,65,-6,58,0
1260,-4,-243,67,-5,58,0
1265,-3,-246,64,-4,59,-1
1270,-4,-243,62,-2,61,0
1275,3,-234,54,-3,61,-3
1280,0,-246,64,-3,62,-1
1285,-1,-245,59,-4,63,-4
1290,-1,-244,64,-2,62,-2
1295,-1,-244,62,-3,63,-5
1300,-3,-245,62,-5,63,-3
1305,-1,-245,62,-6,63,-4
1310,-2,-245,61,-7,61,-1
1315,-2,-244,65,-8,62,-3
1320,-1,-245,62,-10,62,1
1325,0,-244,61,-13,62,-2
1330,0,-247,61,-14,61,1
1335,-2,-245,61,-16,60,0
1340,-3,-241,60,-17,58,3
1345,0,-243,63,-18,57,0
1350,1,-245,62,-19,56,3
1355,-1,-244,59,-18,56,1
1360,-1,-245,59,-16,56,2
1365,-2,-247,59,-16,54,0
1370,-4,-244,59,-15,56,3
1375,-4,-246,63,-15,56,0
1380,-2,-245,62,-13,58,2
1385,-5,-237,63,-13,59,0
1390,1,-246,67,-12,59,1
1395,-3,-244,61,-11,61,0
1400,-3,-245,62,-11,62,3
1405,-3,-244,61,-10,63,0
1410,-4,-245,67,-8,63,1
1415,-4,-243,62,-9,63,-1
1420,-1,-246,62,-7,65,2
1425,-5,-244,60,-7,65,0
1430,-2,-244,61,-9,65,1
1435,-1,-246,61,-10,65,-2
1440,0,-243,62,-8,65,0
1445,0,-247,66,-9,65,-2
1450,-2,-244,62,-11,64,2
1455,-3,-244,63,-13,66,-1
1460,-2,-243,61,-11,65,0
1465,-1,-247,65,-10,63,-3
1470,-1,-246,65,-10,62,1
1475,-3,-245,58,-10,62,0
1480,-3,-244,61,-10,61,2
1485,1,-245,65,-9,61,0
1490,-1,-246,61,-9,60,3
1495,-1,-243,67,-9,61,1
1500,0,-245,61,-9,60,4
1505,-1,-247,60,-9,62,1
1510,-1,-244,63,-8,61,2
1515,0,-244,61,-8,59,1
1520,-4,-246,60,-10,58,4
1525,-3,-243,64,-9,58,2
1530,-2,-244,64,-9,60,3
1535,0,-244,60,-11,60,-1
1540,-2,-245,62,-9,61,2
1545,-3,-243,62,-9,62,-1
1550,-5,-245,59,-9,62,1
1555,-4,-242,63,-9,64,0
1560,-2,-244,65,-8,65,2
1565,-1,-244,63,-8,65,0
1570,-1,-245,59,-8,67,3
1575,-2,-245,62,-7,66,-1
1580,-3,-243,61,-8,65,2
1585,-2,-244,65,-8,65,1
1590,-2,-245,63,-10,64,3
1595,-4,-243,62,-10,63,0
1600,1,-245,50,-12,62,3
1605,-3,-244,60,-12,62,2
1610,-1,-246,61,-11,61,3
1615,-1,-244,62,-11,61,2
1620,0,-246,63,-12,60,4
1625,-2,-247,61,-11,60,2
1630,-3,-246,62,-9,60,3
1635,-1,-244,64,-7,59,1
1640,-3,-243,62,-7,61,2
1645,-2,-244,61,-5,62,1
1650,-2,-245,66,-4,64,2
1655,-3,-242,63,-3,63,0
1660,-3,-245,59,-3,61,2
1665,-2,-244,60,-4,60,-2
1670,-6,-243,62,-5,61,2
1675,-6,-241,63,-7,61,0
1680,-3,-245,61,-9,61,2
1685,2,-248,64,-9,64,-1
1690,-2,-245,63,-11,63,2
1695,-4,-244,60,-12,64,-1
1700,-3,-244,59,-14,66,1
1705,-2,-246,62,-11,66,0
1710,-1,-244,47,-11,65,2
1715,-5,-246,64,-11,66,1
1720,-3,-245,62,-11,65,1
1725,-2,-244,63,-9,66,0
1730,-2,-247,62,-9,64,0
1735,-2,-245,66,-7,63,-1
1740,-1,-244,63,-6,64,0
1745,-1,-246,63,-6,64,-3
1750,-2,-242,64,-6,63,1
1755,-2,-245,63,-7,63,-2
1760,-3,-245,63,-9,62,1
1765,-2,-244,63,-10,64,-1
1770,-2,-243,62,-11,65,1
1775,1,-245,61,-12,65,0
1780,-4,-243,61,-13,66,1
1785,-4,-243,63,-13,67,-1
1790,-3,-245,58,-13,67,-1
1795,-3,-242,63,-12,68,-3
1800,-3,-244,65,-13,70,-1
1805,-1,-243,62,-15,69,-3
1810,-2,-243,64,-17,70,0
1815,-1,-245,62,-18,69,-2
1820,-7,-248,57,-20,66,-2
1825,-4,-246,61,-19,66,-4
1830,-2,-243,66,-19,66,-2
1835,-4,-245,63,-19,65,-2
1840,-5,-244,61,-21,64,1
1845,-3,-247,66,-20,65,-2
1850,-3,-244,61,-19,65,0
1855,-2,-246,57,-18,65,-1
1860,-1,-244,61,-19,66,-1
1865,-2,-246,64,-21,69,-1
1870,-3,-243,60,-23,70,1
1875,-3,-244,63,-24,69,-2
1880,-4,-243,64,-25,71,0
1885,-2,-246,63,-28,70,-2
1890,-1,-245,65,-27,70,-1
1895,-3,-242,63,-28,68,-3
1900,-2,-244,61,-25,66,0
1905,-2,-245,63,-23,66,-3
1910,-4,-242,61,-22,68,-1
1915,-3,-246,63,-20,70,-2
1920,-3,-242,60,-22,69,-1
1925,-3,-245,63,-22,67,-4
1930,-3,-241,69,-23,66,-3
1935,-3,-246,62,-24,63,-5
1940,-2,-245,63,-26,62,-5
1945,-6,-246,59,-28,61,-6
1950,-4,-243,65,-31,62,-5
1955,-1,-244,60,-31,59,-6
1960,-4,-244,58,-30,58,-6
1965,-4,-245,62,-28,58,-9
1970,-4,-246,64,-25,58,-6
1975,-4,-245,62,-23,61,-8
1980,-1,-248,58,-19,62,-7
1985,-5,-243,63,-18,65,-9
1990,-4,-244,66,-14,68,-9
1995,-5,-244,63,-11,71,-9
2000,-4,-246,61,-12,73,-9
2005,-1,-246,65,-12,75,-10
2010,0,-246,64,-15,75,-8
2015,-3,-245,63,-15,77,-9
2020,-1,-244,61,-13,77,-8
2025,-5,-244,62,-14,75,-8
2030,-2,-243,65,-13,75,-5
2035,-3,-246,60,-12,72,-6
2040,-1,-254,69,-13,68,-4
2045,-3,-242,63,-16,68,-7
2050,-2,-242,62,-16,66,-4
2055,-2,-246,61,-16,61,-5
2060,-3,-243,66,-16,57,-4
2065,-3,-245,62,-17,52,-5
2070,-1,-246,62,-17,50,-4
2075,-2,-243,59,-18,50,-7
2080,0,-247,63,-17,50,-5
2085,-3,-245,65,-17,53,-8
2090,-1,-243,65,-16,57,-7
2095,0,-244,65,-16,62,-10
2100,-3,-245,62,-15,67,-8
2105,-3,-243,66,-15,68,-11
2110,-2,-243,65,-14,68,-9
2115,-3,-244,66,-14,67,-11
2120,-1,-244,64,-14,68,-10
2125,-2,-246,61,-14,66,-10
2130,-3,-245,62,-15,65,-9
2135,-6,-245,65,-14,66,-10
2140,-5,-244,66,-16,66,-7
2145,-7,-239,60,-14,67,-10
2150,-4,-245,65,-15,69,-9
2155,0,-245,66,-16,68,-10
2160,-1,-245,67,-17,67,-7
2165,-6,-242,63,-19,64,-9
2170,0,-244,66,-20,60,-9
2175,-1,-244,64,-21,59,-10
2180,-4,-245,63,-23,56,-10
2185,-4,-245,62,-23,53,-12
2190,1,-244,67,-26,50,-11
2195,-3,-244,65,-28,48,-12
2200,-3,-243,63,-29,47,-12
2205,-3,-243,66,-30,44,-14
2210,-4,-244,63,-32,43,-13
2215,-5,-245,65,-32,41,-17
2220,-5,-246,65,-35,40,-16
2225,-4,-241,61,-36,42,-18
2230,-5,-243,65,-40,42,-18
2235,-2,-247,64,-43,43,-20
2240,-5,-242,64,-44,43,-21
2245,-6,-243,62,-44,41,-23
2250,-5,-243,61,-43,39,-22
2255,-2,-243,53,-47,36,-22
2260,-6,-244,61,-51,34,-21
2265,-4,-241,65,-57,34,-23
2270,-5,-242,62,-63,34,-20
2275,-3,-241,59,-67,34,-20
2280,-7,-243,62,-75,35,-18
2285,-5,-243,66,-79,36,-18
2290,-3,-243,64,-86,36,-16
2295,-5,-243,62,-90,33,-13
2300,-3,-244,62,-94,33,-10
2305,-5,-241,61,-100,31,-9
2310,-2,-244,59,-106,31,-5
2315,-2,-241,60,-112,31,-3
2320,-4,-241,60,-119,29,3
2325,-2,-242,58,-126,26,5
2330,2,-245,62,-135,25,11
2335,1,-240,60,-145,21,14
2340,0,-240,62,-156,18,17
2345,-1,-237,57,-171,14,22
2350,2,-242,60,-185,11,28
2355,0,-241,62,-196,10,31
2360,1,-243,57,-205,7,35
2365,11,-237,54,-214,5,39
2370,2,-244,59,-225,5,45
2375,0,-242,62,-229,5,49
2380,3,-247,62,-234,7,54
2385,4,-251,61,-238,10,57
2390,2,-247,62,-237,14,65
2395,1,-245,56,-236,19,67
2400,4,-249,58,-233,26,74
2405,3,-248,59,-228,28,76
2410,2,-247,55,-221,29,80
2415,4,-248,56,-214,28,81
2420,0,-248,51,-208,25,85
2425,3,-249,53,-201,19,87
2430,0,-247,53,-195,14,91
2435,3,-250,52,-192,10,93
2440,1,-247,56,-189,3,98
2445,0,-248,51,-189,-2,100
2450,-1,-246,55,-191,-5,105
2455,-1,-246,53,-191,-9,109
2460,-2,-248,60,-196,-7,114
2465,-2,-248,53,-199,-6,117
2470,-5,-245,50,-204,-7,123
2475,2,-243,57,-210,-5,128
2480,-4,-248,52,-213,-4,134
2485,-4,-248,55,-216,-5,140
2490,-5,-251,49,-221,-4,146
2495,-9,-248,51,-224,-4,152
2500,-7,-251,50,-226,-4,159
2505,-7,-252,51,-226,-2,163
2510,-8,-253,53,-224,-1,169
2515,-8,-252,52,-219,-2,174
2520,-5,-252,47,-211,-6,176
2525,-7,-252,47,-205,-10,177
2530,-10,-253,46,-200,-14,181
2535,-7,-253,45,-196,-19,184
2540,-6,-251,45,-191,-22,190
2545,-12,-251,44,-188,-22,194
2550,-5,-252,45,-184,-20,202
2555,-8,-253,43,-178,-19,206
2560,-6,-258,44,-171,-18,215
2565,-7,-255,45,-161,-19,222
2570,-7,-255,43,-149,-22,230
2575,-7,-257,44,-134,-26,239
2580,-7,-259,45,-114,-28,246
2585,-5,-253,50,-97,-29,253
2590,-5,-255,41,-81,-29,261
2595,-5,-256,44,-62,-29,270
2600,-5,-257,40,-47,-26,279
2605,-6,-254,43,-30,-21,287
2610,-5,-257,43,-14,-13,297
2615,-6,-257,44,2,-8,305
2620,-6,-255,39,14,-1,315
2625,-6,-255,42,25,4,323
2630,-8,-257,40,33,8,332
2635,-6,-257,41,42,10,338
2640,-4,-255,40,53,14,344
2645,-6,-252,41,58,23,350
2650,-4,-251,40,62,35,356
2655,-5,-245,39,64,50,363
2660,-4,-252,43,63,65,370
2665,-2,-247,44,55,80,378
2670,-2,-245,44,48,89,385
2675,-5,-240,45,39,97,391
2680,-4,-243,46,28,102,399
2685,-1,-246,55,12,107,406
2690,10,-233,36,-5,110,415
2695,-3,-242,53,-29,112,420
2700,3,-242,55,-51,112,427
2705,0,-242,56,-72,110,434
2710,3,-246,59,-87,104,442
2715,3,-247,61,-94,102,450
2720,6,-247,54,-100,102,457
2725,6,-247,59,-100,106,462
2730,6,-250,57,-98,112,467
2735,5,-248,57,-94,121,472
2740,2,-253,54,-89,130,480
2745,4,-252,57,-80,137,486
2750,4,-254,57,-67,139,495
2755,0,-257,53,-49,132,502
2760,-1,-256,50,-31,123,508
2765,-4,-256,48,-11,112,513
2770,-6,-252,47,10,103,519
2775,-8,-257,48,31,97,522
2780,-12,-252,47,50,99,528
2785,-11,-252,45,66,108,530
2790,-15,-248,47,75,122,533
2795,-16,-250,45,82,142,536
2800,-22,-242,48,79,160,540
2805,-18,-246,44,71,174,546
2810,-24,-243,45,62,185,550
2815,-27,-241,45,56,192,556
2820,-29,-244,40,54,196,560
2825,-35,-239,42,52,205,562
2830,-33,-243,38,51,214,563
2835,-34,-243,39,46,225,563
2840,-41,-243,40,46,234,558
2845,-42,-245,39,47,241,554
2850,-43,-245,43,51,250,550
2855,-41,-247,42,58,258,543
2860,-43,-247,41,68,273,539
2865,-46,-252,42,81,301,530
2870,-44,-250,39,101,328,526
2875,-50,-248,40,121,359,522
2880,-51,-250,41,143,384,519
2885,-52,-249,42,164,407,519
2890,-56,-250,43,181,424,519
2895,-56,-252,47,196,432,521
2900,-61,-245,46,208,434,524
2905,-57,-248,44,216,434,527
2910,-62,-248,51,217,430,532
2915,-62,-248,49,217,424,535
2920,-63,-249,47,212,419,536
2925,-66,-249,48,203,409,540
2930,-67,-248,49,193,403,541
2935,-66,-250,45,183,394,545
2940,-68,-252,45,173,381,547
2945,-70,-250,49,164,368,549
2950,-70,-251,51,155,351,549
2955,-67,-251,49,148,331,550
2960,-71,-249,49,144,313,548
2965,-73,-247,46,142,301,546
2970,-72,-246,46,140,293,546
2975,-71,-248,49,140,288,546
2980,-73,-244,44,140,287,546
2985,-70,-246,46,137,287,551
2990,-73,-244,48,132,287,549
2995,-75,-242,50,130,284,554
3000,-75,-242,48,128,281,560
3005,-75,-239,46,129,275,562
3010,-78,-238,41,131,271,566
3015,-79,-238,46,133,266,569
3020,-87,-232,57,136,259,570
3025,-82,-237,44,137,248,572
3030,-81,-240,46,139,233,577
3035,-82,-239,42,141,212,582
3040,-84,-242,46,145,180,583
3045,-84,-242,52,153,158,595
3050,-86,-242,56,168,138,601
3055,-91,-241,55,185,120,609
3060,-90,-244,59,208,108,619
3065,-90,-244,59,233,97,627
3070,-90,-244,62,254,86,632
3075,-91,-244,61,269,78,638
3080,-91,-240,58,281,69,641
3085,-89,-241,57,282,58,646
3090,-89,-236,59,276,45,648
3095,-90,-234,59,261,25,649
3100,-86,-233,57,236,9,649
3105,-87,-232,57,212,-10,649
3110,-89,-225,58,191,-30,650
3115,-86,-229,57,175,-51,654
3120,-88,-225,60,167,-73,653
3125,-86,-233,63,160,-92,656
3130,-87,-221,56,154,-108,656
3135,-87,-222,55,150,-119,660
3140,-89,-220,51,144,-123,662
3145,-92,-221,52,137,-121,668
3150,-91,-219,48,131,-109,679
3155,-94,-218,51,125,-92,689
3160,-97,-219,47,115,-77,697
3165,-93,-224,43,106,-59,711
3170,-97,-220,47,97,-41,714
3175,-105,-221,44,94,-22,723
3180,-100,-222,53,96,1,729
3185,-102,-223,51,104,21,734
3190,-103,-225,54,118,39,734
3195,-113,-223,55,136,54,731
3200,-112,-225,61,157,71,737
3205,-113,-225,66,182,86,738
3210,-116,-225,70,204,101,729
3215,-116,-226,66,227,123,732
3220,-114,-222,75,242,138,731
3225,-117,-220,73,254,145,729
3230,-120,-222,70,262,141,724
3235,-124,-215,76,269,130,722
3240,-121,-216,72,273,111,718
3245,-122,-214,67,275,88,719
3250,-125,-210,66,276,56,717
3255,-123,-212,70,279,22,717
3260,-126,-212,70,283,-11,715
3265,-126,-208,64,292,-46,711
3270,-130,-207,65,301,-81,708
3275,-130,-207,67,313,-102,708
3280,-132,-206,65,325,-116,709
3285,-132,-205,60,335,-118,711
3290,-135,-207,68,340,-112,709
3295,-134,-205,64,343,-99,711
3300,-138,-204,64,344,-81,711
3305,-139,-207,63,344,-58,716
3310,-141,-204,66,339,-31,719
3315,-143,-203,66,332,-1,722
3320,-144,-203,64,322,33,725
3325,-143,-200,62,308,69,730
3330,-142,-200,69,284,112,730
3335,-143,-203,70,265,135,733
3340,-143,-200,67,247,142,733
3345,-146,-204,70,232,135,735
3350,-144,-198,64,221,122,735
3355,-143,-199,69,214,114,740
3360,-144,-197,66,207,103,743
3365,-142,-196,65,205,93,749
3370,-142,-196,61,206,80,755
3375,-142,-190,59,205,69,763
3380,-141,-189,55,200,64,772
3385,-142,-189,64,196,63,786
3390,-143,-189,65,196,67,794
3395,-144,-187,60,196,80,808
3400,-143,-185,57,191,100,820
3405,-144,-181,61,182,122,835
3410,-144,-185,63,172,145,846
3415,-146,-183,65,162,167,858
3420,-145,-184,64,155,188,865
3425,-145,-186,68,150,205,876
3430,-149,-184,62,147,219,881
3435,-151,-183,66,148,228,887
3440,-152,-185,70,152,236,891
3445,-153,-186,72,159,235,899
3450,-156,-182,72,173,230,903
3455,-148,-181,70,190,228,914
3460,-157,-179,70,207,232,921
3465,-146,-180,73,221,234,924
3470,-167,-172,66,225,240,921
3475,-165,-170,71,221,255,940
3480,-165,-170,72,213,251,944
3485,-159,-171,72,202,218,942
3490,-182,-170,75,187,182,944
3495,-172,-166,76,179,130,949
3500,-168,-166,79,164,108,965
3505,-171,-165,75,153,90,967
3510,-172,-168,73,149,87,971
3515,-172,-167,75,150,90,975
3520,-172,-166,75,155,95,978
3525,-173,-168,74,161,99,984
3530,-174,-166,71,168,99,986
3535,-170,-163,70,174,100,989
3540,-168,-163,71,176,101,985
3545,-170,-161,69,176,99,984
3550,-167,-165,70,174,95,977
3555,-171,-166,73,174,89,974
3560,-166,-170,74,174,75,966
3565,-168,-158,69,178,63,965
3570,-169,-172,78,183,54,959
3575,-167,-170,78,188,50,956
3580,-167,-173,75,193,55,949
3585,-164,-175,77,194,74,943
3590,-165,-171,74,191,108,931
3595,-168,-171,76,186,149,921
3600,-170,-172,76,186,188,905
3605,-171,-172,76,190,224,890
3610,-174,-169,69,194,249,870
3615,-179,-171,70,204,265,850
3620,-178,-167,70,213,278,824
3625,-183,-166,72,222,284,804
3630,-179,-162,73,231,287,781
3635,-189,-154,75,241,285,763
3640,-191,-150,72,252,279,740
3645,-195,-147,78,261,275,725
3650,-195,-139,75,271,272,708
3655,-198,-133,79,282,273,695
3660,-204,-132,80,296,277,684
3665,-203,-129,76,311,274,679
3670,-201,-123,86,323,272,673
3675,-205,-119,81,334,272,674
3680,-202,-116,85,344,276,666
3685,-210,-103,85,350,279,660
3690,-208,-103,84,353,289,671
3695,-209,-96,83,352,295,683
3700,-211,-95,84,349,296,688
3705,-212,-92,79,341,292,699
3710,-216,-92,78,329,285,709
3715,-216,-90,77,317,273,721
3720,-221,-87,75,305,259,729
3725,-222,-86,77,296,247,741
3730,-224,-88,77,290,231,750
3735,-229,-84,78,283,214,762
3740,-229,-81,78,269,203,766
3745,-228,-81,78,258,200,773
3750,-229,-81,76,242,201,774
3755,-231,-79,75,224,209,776
3760,-232,-77,78,202,221,773
3765,-232,-78,74,181,237,774
3770,-234,-74,74,158,253,771
3775,-233,-77,73,134,272,768
3780,-236,-72,66,111,293,759
3785,-243,-73,70,85,319,755
3790,-242,-73,68,62,343,751
3795,-238,-74,70,39,370,752
3800,-234,-76,75,30,384,748
3805,-231,-79,77,20,394,750
3810,-233,-79,78,10,400,744
3815,-235,-80,76,-11,410,740
3820,-237,-80,77,-36,419,729
3825,-238,-82,77,-66,431,721
3830,-241,-83,81,-87,441,708
3835,-243,-87,85,-92,448,699
3840,-243,-87,89,-75,446,686
3845,-239,-81,88,-47,435,676
3850,-231,-79,91,-17,426,660
3855,-225,-70,93,6,433,655
3860,-228,-68,91,10,453,634
3865,-226,-63,89,-2,470,614
3870,-231,-63,88,-27,484,590
3875,-240,-57,87,-64,482,566
3880,-244,-56,84,-107,456,540
3885,-249,-55,80,-149,406,520
3890,-261,-62,76,-183,348,503
3895,-255,-56,68,-208,299,492
3900,-254,-57,65,-217,267,478
3905,-253,-59,59,-216,254,464
3910,-254,-59,50,-209,255,449
3915,-261,-62,39,-205,263,436
3920,-262,-60,39,-210,270,420
3925,-267,-62,36,-226,270,405
3930,-267,-60,38,-253,260,387
3935,-264,-64,38,-284,243,376
3940,-261,-68,33,-312,216,363
3945,-261,-70,36,-337,183,357
3950,-259,-69,37,-351,144,353
3955,-258,-70,41,-359,97,355
3960,-252,-76,42,-362,45,359
3965,-248,-78,46,-360,-15,368
3970,-244,-83,48,-351,-59,373
3975,-244,-84,55,-337,-93,383
3980,-236,-87,58,-318,-114,388
3985,-233,-89,59,-299,-120,398
3990,-229,-91,63,-281,-115,402
3995,-230,-90,70,-262,-103,409
4000,-225,-88,76,-238,-91,411
4005,-227,-93,72,-206,-88,421
4010,-228,-90,73,-169,-94,429
4015,-228,-91,71,-126,-109,442
4020,-227,-86,74,-85,-127,453
4025,-228,-81,68,-40,-147,466
4030,-224,-80,71,-8,-151,470
4035,-227,-77,66,21,-145,474
4040,-230,-77,66,40,-127,471
4045,-229,-77,61,51,-103,469
4050,-231,-73,56,50,-73,463
4055,-235,-77,54,39,-46,459
4060,-238,-75,57,21,-24,451
4065,-240,-76,56,3,-13,447
4070,-241,-77,56,-11,-9,440
4075,-242,-78,56,-17,-8,438
4080,-243,-79,56,-16,-8,430
4085,-242,-80,55,-10,-6,428
4090,-240,-82,63,0,-5,418
4095,-243,-83,58,17,-2,412
4100,-241,-83,59,39,3,403
4105,-240,-88,58,63,8,398
4110,-239,-83,62,92,16,388
4115,-239,-82,63,117,24,378
4120,-240,-80,61,140,32,365
4125,-241,-82,59,160,39,354
4130,-242,-80,62,181,44,338
4135,-242,-76,60,204,45,330
4140,-240,-78,56,233,40,319
4145,-244,-69,59,260,32,315
4150,-241,-69,56,281,22,308
4155,-242,-68,52,297,11,302
4160,-243,-61,58,306,-3,291
4165,-244,-60,56,306,-21,285
4170,-239,-55,56,301,-39,274
4175,-245,-52,56,292,-56,269
4180,-246,-45,54,277,-69,261
4185,-245,-44,52,260,-73,260
4190,-247,-41,52,238,-75,255
4195,-251,-36,52,214,-82,254
4200,-253,-34,50,186,-90,251
4205,-257,-32,56,170,-98,254
4210,-259,-29,54,163,-114,254
4215,-257,-17,48,164,-128,258
4220,-260,-26,56,160,-131,259
4225,-260,-24,55,155,-126,265
4230,-264,-24,56,146,-114,266
4235,-259,-30,50,134,-104,275
4240,-261,-32,50,123,-97,282
4245,-261,-36,50,110,-93,295
4250,-258,-35,49,92,-92,304
4255,-259,-36,52,66,-96,315
4260,-256,-42,51,40,-102,321
4265,-255,-43,54,11,-110,331
4270,-255,-45,59,-14,-120,332
4275,-252,-51,58,-31,-124,346
4280,-253,-51,58,-38,-129,352
4285,-249,-52,64,-43,-136,359
4290,-250,-52,65,-47,-146,357
4295,-252,-49,70,-56,-155,359
4300,-252,-51,74,-73,-163,358
4305,-250,-51,75,-93,-167,358
4310,-249,-53,75,-115,-164,345
4315,-250,-53,76,-130,-156,331
4320,-259,-54,75,-130,-157,309
4325,-261,-51,73,-120,-173,300
4330,-264,-58,80,-103,-206,286
4335,-264,-61,84,-83,-245,283
4340,-262,-59,84,-58,-282,276
4345,-262,-58,85,-28,-305,274
4350,-259,-57,85,5,-307,267
4355,-257,-53,83,43,-290,266
4360,-256,-49,81,86,-260,265
4365,-258,-49,78,133,-227,268
4370,-262,-42,79,183,-215,265
4375,-268,-38,75,219,-222,267
4380,-265,-35,75,253,-253,269
4385,-263,-30,75,281,-295,278
4390,-255,-28,72,302,-334,284
4395,-249,-27,73,314,-363,291
4400,-250,-23,72,315,-377,290
4405,-250,-17,69,302,-377,296
4410,-245,-20,70,278,-362,300
4415,-246,-14,71,237,-336,309
4420,-246,-18,74,188,-311,313
4425,-248,-20,76,131,-293,322
4430,-251,-23,79,92,-299,325
4435,-251,-25,86,59,-319,332
4440,-251,-28,85,40,-354,336
4445,-249,-30,93,29,-394,344
4450,-246,-34,92,30,-430,349
4455,-242,-34,95,38,-460,356
4460,-236,-36,96,55,-473,358
4465,-235,-37,98,82,-466,365
4470,-231,-37,95,117,-439,366
4475,-231,-33,96,158,-398,371
4480,-231,-32,98,199,-347,367
4485,-238,-28,97,249,-316,369
4490,-241,-20,98,285,-307,366
4495,-241,-17,99,314,-316,370
4500,-239,-12,102,331,-341,369
4505,-240,-6,101,337,-373,375
4510,-233,-4,102,336,-406,372
4515,-229,-2,105,327,-434,375
4520,-227,-4,104,312,-451,371
4525,-224,-2,103,298,-457,370
4530,-226,-1,105,285,-461,364
4535,-227,0,105,283,-468,366
4540,-220,3,98,290,-483,366
4545,-232,5,105,301,-499,371
4550,-227,6,105,307,-511,372
4555,-226,10,105,302,-517,375
4560,-223,11,104,291,-512,372
4565,-222,10,105,278,-502,365
4570,-222,11,105,270,-489,349
4575,-225,11,111,271,-476,336
4580,-230,14,114,284,-473,324
4585,-235,20,115,301,-481,320
4590,-236,24,122,309,-492,311
4595,-237,26,124,302,-494,298
4600,-238,28,123,268,-475,273
4605,-240,30,123,223,-437,248
4610,-241,35,127,171,-390,217
4615,-244,34,129,125,-347,186
4620,-242,35,120,86,-310,149
4625,-242,39,117,45,-278,113
4630,-236,30,113,1,-249,70
4635,-235,29,105,-45,-222,27
4640,-230,21,106,-95,-195,-26
4645,-226,12,104,-145,-169,-79
4650,-218,8,114,-195,-130,-147
4655,-210,-2,108,-241,-91,-198
4660,-202,-8,120,-272,-49,-248
4665,-197,-18,130,-292,-10,-288
4670,-183,-25,136,-312,21,-324
4675,-182,-36,143,-325,47,-357
4680,-182,-39,152,-321,68,-382
4685,-186,-45,162,-288,80,-387
4690,-183,-48,165,-228,86,-385
4695,-183,-51,164,-155,78,-375
4700,-185,-52,165,-71,68,-365
4705,-188,-51,167,14,57,-339
4710,-191,-44,159,119,51,-318
4715,-194,-46,153,204,45,-291
4720,-195,-42,144,281,31,-266
4725,-197,-36,140,349,22,-242
4730,-197,-33,128,411,25,-223
4735,-199,-25,120,458,45,-204
4740,-203,-17,112,488,81,-191
4745,-209,-10,102,497,121,-180
4750,-211,-4,107,486,162,-174
4755,-217,0,111,453,186,-165
4760,-222,0,106,407,195,-161
4765,-219,9,112,354,190,-153
4770,-221,7,113,289,183,-151
4775,-226,10,118,234,176,-150
4780,-228,6,120,183,176,-154
4785,-233,8,124,136,186,-155
4790,-232,2,127,99,206,-160
4795,-233,2,127,74,232,-159
4800,-234,1,132,56,263,-166
4805,-235,-2,128,46,291,-171
4810,-233,-2,130,45,317,-182
4815,-233,0,127,51,341,-190
4820,-231,0,122,53,361,-203
4825,-231,-1,122,49,378,-213
4830,-232,2,121,41,386,-223
4835,-229,-4,125,29,387,-226
4840,-228,-2,118,14,379,-229
4845,-225,-3,122,3,363,-225
4850,-224,-4,116,-8,339,-221
4855,-225,-4,116,-20,314,-211
4860,-221,-5,112,-34,291,-201
4865,-220,-8,109,-49,280,-182
4870,-225,-13,117,-63,282,-167
4875,-215,-14,108,-78,298,-143
4880,-215,-15,105,-93,334,-126
4885,-214,-17,107,-101,373,-105
4890,-215,-18,105,-105,416,-88
4895,-215,-22,106,-108,455,-70
4900,-218,-23,112,-107,490,-59
4905,-220,-22,112,-104,519,-45
4910,-221,-23,112,-101,541,-35
4915,-226,-19,115,-100,556,-20
4920,-224,-21,116,-100,567,-12
4925,-226,-21,109,-103,570,-3
4930,-228,-22,107,-106,572,1
4935,-231,-18,103,-113,573,6
4940,-233,-19,101,-126,571,8
4945,-237,-17,99,-138,566,11
4950,-239,-15,95,-153,559,12
4955,-239,-17,92,-171,549,19
4960,-238,-18,92,-190,539,22
4965,-241,-16,93,-207,528,26
4970,-239,-17,92,-218,520,28
4975,-240,-23,86,-226,514,31
4980,-242,-19,91,-227,511,31
4985,-244,-20,87,-225,512,35
4990,-245,-19,82,-218,513,37
4995,-246,-22,86,-208,514,41
5000,-244,-22,84,-199,515,43
5005,-244,-23,81,-189,518,48
5010,-246,-24,82,-184,525,49
5015,-248,-27,85,-181,535,50
5020,-243,-28,85,-180,544,48
5025,-244,-32,80,-176,551,48
5030,-244,-33,82,-167,548,45
5035,-245,-34,85,-154,535,42
5040,-247,-36,86,-137,513,35
5045,-244,-33,85,-115,487,29
5050,-246,-31,87,-91,456,24
5055,-247,-30,83,-69,432,23
5060,-245,-30,83,-55,410,17
5065,-247,-27,80,-43,391,17
5070,-248,-24,78,-38,370,16
5075,-245,-22,76,-39,353,19
5080,-245,-18,74,-48,339,22
5085,-249,-22,74,-61,329,26
5090,-244,-18,76,-73,322,26
5095,-245,-19,71,-84,317,29
5100,-244,-17,72,-89,309,28
5105,-246,-15,72,-92,297,29
5110,-245,-16,73,-94,285,31
5115,-246,-17,75,-95,277,32
5120,-245,-14,73,-95,267,35
5125,-244,-14,75,-96,257,39
5130,-244,-13,74,-95,249,42
5135,-243,-15,74,-97,241,47
5140,-244,-8,72,-102,236,49
5145,-243,-12,77,-110,229,54
5150,-245,-12,77,-119,225,56
5155,-245,-7,78,-130,228,60
5160,-245,-10,76,-144,234,61
5165,-244,-14,76,-159,243,62
5170,-246,-14,75,-171,251,64
5175,-247,-13,77,-183,258,65
5180,-248,-16,74,-188,261,68
5185,-254,-18,75,-188,259,71
5190,-254,-19,73,-184,251,71
5195,-256,-14,72,-177,240,73
5200,-257,-19,68,-166,227,73
5205,-259,-24,67,-151,209,74
5210,-259,-24,67,-132,192,70
5215,-261,-26,68,-113,176,69
5220,-261,-23,63,-90,156,65
5225,-260,-27,66,-72,141,62
5230,-258,-22,58,-60,128,61
5235,-257,-24,59,-50,116,58
5240,-257,-23,59,-45,108,54
5245,-256,-22,62,-42,98,51
5250,-257,-22,60,-41,88,45
5255,-260,-20,62,-42,76,43
5260,-260,-19,56,-45,63,37
5265,-259,-18,63,-52,53,35
5270,-261,-13,64,-64,44,31
5275,-259,-18,65,-83,37,29
5280,-261,-17,66,-101,35,26
5285,-260,-15,71,-118,35,22
5290,-260,-16,73,-131,34,15
5295,-259,-17,68,-138,31,11
5300,-257,-14,73,-140,29,5
5305,-254,-9,66,-137,28,1
5310,-255,-19,74,-131,28,-4
5315,-251,-21,75,-123,31,-6
5320,-251,-22,75,-112,38,-11
5325,-252,-17,71,-102,48,-13
5330,-252,-21,77,-91,65,-19
5335,-249,-22,73,-79,77,-23
5340,-253,-20,75,-71,87,-26
5345,-253,-22,75,-65,93,-30
5350,-251,-21,74,-60,92,-33
5355,-251,-18,73,-52,86,-37
5360,-251,-20,74,-45,79,-42
5365,-252,-18,73,-37,74,-44
5370,-251,-19,73,-27,63,-48
5375,-249,-19,72,-17,51,-53
5380,-250,-18,74,-5,33,-56
5385,-251,-15,70,4,10,-57
5390,-250,-19,77,15,-11,-58
5395,-249,-13,71,17,-31,-60
5400,-250,-10,74,15,-46,-62
5405,-248,-11,70,7,-54,-64
5410,-252,-14,67,-6,-61,-66
5415,-247,-6,72,-21,-69,-71
5420,-252,-9,72,-44,-75,-75
5425,-252,-5,69,-67,-85,-74
5430,-254,-6,66,-92,-96,-77
5435,-254,-5,72,-114,-108,-74
5440,-254,-8,69,-139,-119,-73
5445,-253,-9,72,-170,-134,-75
5450,-255,-13,72,-193,-145,-74
5455,-253,-10,74,-215,-153,-72
5460,-251,-12,75,-231,-156,-68
5465,-249,-16,77,-241,-154,-63
5470,-248,-17,77,-246,-148,-60
5475,-248,-22,78,-245,-137,-58
5480,-248,-18,86,-239,-118,-53
5485,-244,-22,89,-226,-97,-51
5490,-248,-23,86,-213,-75,-51
5495,-243,-24,83,-199,-53,-48
5500,-243,-26,92,-183,-30,-46
5505,-245,-24,88,-163,-15,-48
5510,-245,-26,89,-148,1,-46
5515,-246,-26,84,-137,12,-41
5520,-245,-38,97,-125,18,-41
5525,-246,-30,86,-113,19,-39
5530,-243,-30,87,-103,17,-32
5535,-245,-27,86,-92,15,-27
5540,-243,-31,88,-81,9,-23
5545,-244,-34,83,-70,2,-17
5550,-240,-34,84,-61,-7,-11
5555,-240,-34,81,-53,-15,-4
5560,-235,-31,79,-48,-15,3
5565,-239,-31,79,-43,-13,7
5570,-236,-33,84,-38,-6,13
5575,-233,-36,82,-35,6,17
5580,-235,-33,85,-33,19,22
5585,-239,-33,81,-32,33,27
5590,-238,-34,81,-34,44,32
5595,-238,-34,80,-34,55,36
5600,-239,-33,83,-34,61,40
5605,-240,-31,83,-34,64,42
5610,-239,-30,83,-36,64,47
5615,-242,-29,86,-36,59,46
5620,-240,-29,83,-37,57,46
5625,-243,-24,87,-34,54,44
5630,-245,-32,96,-34,52,44
5635,-241,-27,90,-31,51,41
5640,-236,-25,91,-26,50,39
5645,-239,-26,91,-20,50,28
5650,-239,-22,85,-14,55,29
5655,-238,-23,87,-8,60,29
5660,-241,-22,92,-1,63,23
5665,-242,-21,93,3,67,17
5670,-243,-21,94,8,73,17
5675,-243,-19,90,12,75,13
5680,-243,-19,89,11,79,11
5685,-246,-19,90,7,80,7
5690,-247,-20,88,6,84,6
5695,-248,-19,89,-1,84,1
5700,-247,-20,84,-7,86,-3
5705,-248,-21,86,-14,87,-7
5710,-246,-21,84,-22,88,-11
5715,-247,-19,81,-30,89,-15
5720,-248,-20,83,-38,90,-20
5725,-249,-22,79,-48,93,-23
5730,-249,-22,79,-54,94,-23
5735,-245,-20,76,-61,96,-25
5740,-249,-25,75,-67,98,-25
5745,-250,-24,77,-74,102,-30
5750,-249,-21,76,-81,105,-31
5755,-250,-23,76,-85,105,-31
5760,-245,-24,75,-90,106,-32
5765,-249,-25,75,-94,104,-30
5770,-249,-23,74,-95,100,-31
5775,-250,-24,77,-95,95,-32
5780,-246,-25,74,-96,92,-24
5785,-245,-25,81,-96,89,-21
5790,-245,-30,76,-92,88,-16
5795,-246,-31,77,-86,86,-14
5800,-247,-31,78,-81,86,-11
5805,-247,-31,83,-72,87,-10
5810,-245,-28,77,-60,88,-6
5815,-248,-26,79,-49,86,-4
5820,-246,-24,75,-38,85,-1
5825,-246,-28,80,-28,83,2
5830,-247,-24,77,-18,79,4
5835,-247,-26,78,-8,71,3
5840,-247,-24,79,0,65,5
5845,-245,-26,80,6,61,4
5850,-246,-20,76,9,56,5
5855,-248,-20,73,13,52,3
5860,-246,-23,76,13,48,3
5865,-250,-21,73,12,48,2
5870,-249,-24,73,10,45,2
5875,-249,-21,75,6,44,0
5880,-247,-23,75,1,43,-1
5885,-247,-24,78,-3,43,-3
5890,-252,-23,77,-8,43,-6
5895,-251,-22,76,-13,41,-9
5900,-253,-25,78,-16,38,-8
5905,-249,-25,76,-19,36,-12
5910,-248,-25,82,-20,35,-12
5915,-248,-27,79,-17,32,-15
5920,-250,-28,79,-12,29,-15
5925,-249,-27,82,-7,26,-17
5930,-247,-27,77,-2,20,-18
5935,-248,-24,83,6,16,-19
5940,-247,-27,84,14,11,-19
5945,-247,-25,80,22,6,-21
5950,-246,-27,81,30,1,-19
5955,-246,-18,86,35,-1,-21
5960,-245,-25,82,38,-3,-19
5965,-244,-25,80,37,-3,-21
5970,-246,-20,84,36,-2,-19
5975,-242,-23,81,32,-1,-20
5980,-242,-25,82,28,0,-19
5985,-244,-22,82,24,3,-19
5990,-244,-22,85,19,5,-17
5995,-241,-25,80,16,7,-18
6000,-244,-23,81,12,8,-17
6005,-246,-22,88,11,10,-18
6010,-245,-27,86,11,11,-17
6015,-246,-22,82,12,12,-17
6020,-244,-24,83,14,14,-16
6025,-246,-26,82,18,19,-18
6030,-246,-23,79,19,22,-15
6035,-244,-26,82,22,28,-17
6040,-245,-23,81,21,34,-13
6045,-247,-22,81,23,39,-15
6050,-245,-20,82,21,45,-13
6055,-246,-25,83,19,50,-14
6060,-240,-24,80,17,59,-12
6065,-246,-24,80,12,65,-13
6070,-245,-27,78,9,71,-11
6075,-245,-24,81,9,74,-14
6080,-245,-26,78,9,76,-10
6085,-241,-27,83,11,77,-11
6090,-244,-27,79,11,73,-8
6095,-242,-24,79,12,70,-9
6100,-241,-25,86,12,64,-5
6105,-244,-24,81,14,57,-5
6110,-244,-22,80,12,51,-2
6115,-242,-27,79,10,43,-1
6120,-244,-23,81,5,36,2
6125,-243,-24,83,0,29,1
6130,-239,-23,80,-4,25,3
6135,-243,-23,80,-7,23,2
6140,-245,-23,82,-11,23,4
6145,-242,-24,81,-13,23,2
6150,-243,-23,81,-17,25,4
6155,-244,-24,83,-18,26,4
6160,-244,-23,82,-19,26,5
6165,-246,-19,83,-21,28,4
6170,-244,-23,83,-24,29,5
6175,-247,-20,89,-28,32,2
6180,-244,-24,80,-32,34,3
6185,-243,-25,82,-34,36,0
6190,-244,-24,85,-35,36,1
6195,-245,-22,82,-36,39,-2
6200,-245,-24,85,-37,42,-1
6205,-241,-25,82,-34,42,-3
6210,-242,-26,83,-33,43,-2
6215,-243,-27,84,-28,45,-4
6220,-242,-24,81,-23,46,-3
6225,-243,-26,85,-18,48,-5
6230,-245,-23,82,-14,48,-3
6235,-243,-24,84,-6,47,-7
6240,-243,-28,83,-1,47,-2
6245,-242,-23,85,2,47,-4
6250,-244,-25,80,5,47,0
6255,-245,-23,81,5,46,-2
6260,-242,-22,88,5,47,0
6265,-244,-22,83,5,47,-3
6270,-242,-25,83,3,46,-1
6275,-241,-23,83,3,47,-2
6280,-243,-21,83,2,47,0
6285,-253,-22,83,0,46,-2
6290,-241,-24,84,-2,45,0
6295,-241,-25,83,-4,44,-3
6300,-243,-23,88,-5,47,-1
6305,-243,-22,86,-4,48,-3
6310,-243,-24,83,-5,50,0
6315,-244,-20,82,-3,52,-3
6320,-241,-23,84,-3,54,1
6325,-244,-20,84,-2,55,-3
6330,-241,-22,83,-1,55,-1
6335,-245,-22,86,0,56,-4
6340,-249,-23,86,0,55,-1
6345,-243,-22,82,-3,58,-2
6350,-243,-24,86,-5,61,1
6355,-244,-24,86,-8,62,-1
6360,-242,-23,82,-9,63,1
6365,-244,-25,83,-10,64,-2
6370,-243,-23,84,-12,62,-1
6375,-241,-26,85,-13,61,-4
6380,-246,-22,87,-12,60,-1
6385,-246,-24,85,-12,58,-5
6390,-244,-24,82,-11,56,-3
6395,-237,-16,79,-9,54,-6
6400,-248,-19,85,-7,53,-3
6405,-248,-28,81,-5,53,-6
6410,-244,-22,86,-2,53,-3
6415,-247,-23,81,0,54,-7
6420,-240,-27,83,-1,54,-3
6425,-243,-22,79,1,54,-6
6430,-245,-21,75,2,55,-4
6435,-241,-26,91,3,56,-6
6440,-246,-24,85,3,56,-3
6445,-264,-39,85,1,56,-4
6450,-244,-24,80,0,56,-1
6455,-244,-25,86,-2,55,-3
6460,-243,-23,82,-3,57,-1
6465,-241,-23,87,-5,56,-4
6470,-247,-27,71,-6,57,-1
6475,-243,-21,80,-6,58,-4
6480,-239,-19,83,-9,58,-2
6485,-246,-25,84,-11,58,-3
6490,-248,-18,79,-12,59,-1
6495,-246,-24,82,-12,59,-2
6500,-246,-20,88,-14,59,-1
6505,-238,-27,80,-17,59,-2
6510,-244,-22,85,-17,58,0
6515,-236,-12,68,-18,55,-1
6520,-254,-29,99,-16,54,1
6525,-244,-23,82,-14,51,-1
6530,-244,-24,81,-16,50,1
6535,-245,-21,85,-14,49,-2
6540,-245,-22,84,-13,49,2
6545,-238,-25,81,-12,49,-1
6550,-245,-17,95,-11,49,1
6555,-239,-16,83,-11,52,-2
6560,-239,-27,81,-11,54,0
6565,-245,-19,82,-11,54,-2
6570,-246,-28,80,-12,58,0
6575,-242,-22,83,-13,59,-4
6580,-240,-16,87,-13,61,-1
6585,-244,-21,84,-14,61,-4
6590,-243,-18,81,-15,61,-1
6595,-243,-22,95,-17,61,-4
6600,-234,-42,92,-18,60,-2
6605,-243,-23,80,-17,60,-4
6610,-242,-27,85,-17,61,-1
6615,-242,-23,84,-15,60,-4
6620,-242,-23,86,-13,59,-1
6625,-245,-26,82,-12,58,-3
6630,-241,-25,80,-10,56,-1
6635,-246,-16,76,-9,55,-3
6640,-240,-24,82,-9,54,0
6645,-241,-12,81,-8,54,-3
6650,-243,-26,87,-9,53,-1
6655,-243,-24,78,-8,53,-4
6660,-249,-22,86,-10,54,-2
6665,-247,-16,86,-12,54,-5
6670,-242,-21,83,-14,55,-1
6675,-239,-18,87,-14,56,-5
6680,-241,-22,86,-16,57,-3
6685,-241,-21,83,-16,58,-5
6690,-245,-24,86,-17,60,-3
6695,-245,-22,84,-17,61,-7
6700,-238,-21,84,-17,63,-4
6705,-249,-16,72,-17,65,-7
6710,-241,-25,82,-16,66,-5
6715,-239,-23,80,-16,69,-7
6720,-236,-23,87,-13,68,-4
6725,-249,-27,87,-13,69,-7
6730,-245,-25,74,-11,67,-4
6735,-241,-21,85,-9,66,-5
6740,-241,-30,85,-11,65,-3
6745,-243,-19,84,-12,61,-4
6750,-251,-28,85,-13,59,-2
6755,-244,-24,82,-13,57,-7
6760,-245,-23,85,-16,57,-3
6765,-245,-22,82,-17,57,-6
6770,-241,-22,88,-19,57,-2
6775,-239,-22,88,-19,59,-4
6780,-240,-19,86,-20,62,-1
6785,-242,-18,79,-19,63,-4
6790,-245,-23,88,-19,62,0
6795,-239,-21,84,-18,63,-3
6800,-237,-17,85,-16,66,0
6805,-251,-22,88,-14,65,-2
6810,-253,-25,84,-13,65,-2
6815,-246,-20,82,-12,65,-4
6820,-246,-22,77,-11,64,-2
6825,-244,-21,83,-11,63,-5
6830,-240,-23,83,-13,63,-4
6835,-243,-22,86,-14,62,-5
6840,-246,-22,81,-15,67,-3
6845,-242,-25,82,-15,69,-5
6850,-242,-28,100,-15,73,-4
6855,-243,-17,84,-19,76,-6
6860,-233,-17,75,-18,78,-4
6865,-242,-23,86,-19,79,-6
6870,-243,-18,81,-19,79,-5
6875,-249,-25,75,-16,83,-7
6880,-243,-25,83,-12,82,-4
6885,-243,-22,84,-8,83,-7
6890,-241,-22,84,-4,82,-4
6895,-244,-24,83,-2,78,-6
6900,-250,-26,83,1,76,-3
6905,-244,-22,85,2,74,-5
6910,-245,-22,83,0,70,-2
6915,-241,-22,82,-2,67,-3
6920,-243,-22,80,-5,66,1
6925,-249,-25,94,-11,67,-1
6930,-240,-24,81,-15,68,1
6935,-242,-22,79,-19,68,0
6940,-240,-26,82,-21,66,3
6945,-243,-23,80,-21,64,1
6950,-242,-25,86,-20,62,4
6955,-242,-23,81,-19,58,3
6960,-243,-25,85,-17,51,6
6965,-244,-23,84,-13,46,6
6970,-242,-23,85,-11,42,9
6975,-241,-23,83,-9,38,7
6980,-242,-22,87,-7,36,9
6985,-243,-23,86,-4,36,9
6990,-243,-24,86,0,36,9
6995,-249,-31,82,3,39,6
7000,-243,-20,87,7,41,8
7005,-241,-25,84,11,45,7
7010,-242,-24,84,13,51,9
7015,-244,-25,88,15,54,6
7020,-242,-22,83,15,61,9
7025,-243,-23,85,14,66,4
7030,-243,-23,82,12,71,6
7035,-243,-24,84,8,76,4
7040,-242,-20,85,1,80,6
7045,-247,-12,78,-6,82,4
7050,-244,-22,84,-12,85,4
7055,-246,-21,83,-21,85,1
7060,-242,-21,82,-26,85,3
7065,-242,-22,84,-34,86,0
7070,-245,-22,83,-37,85,2
7075,-242,-21,81,-44,88,0
7080,-243,-22,82,-48,90,1
7085,-242,-22,82,-49,92,-1
7090,-243,-21,81,-50,94,1
7095,-243,-23,83,-50,97,-2
7100,-243,-22,84,-46,96,0
7105,-245,-19,84,-42,97,-2
7110,-246,-23,87,-38,96,-1
7115,-243,-24,85,-34,94,-3
7120,-241,-20,83,-28,91,0
7125,-243,-22,85,-20,88,-3
7130,-245,-22,85,-15,83,-2
7135,-243,-22,88,-9,81,-3
7140,-241,-23,84,-6,81,-2
7145,-244,-21,79,-5,81,-4
7150,-244,-22,86,-4,81,-2
7155,-241,-25,78,-5,82,-5
7160,-242,-22,83,-9,84,-2
7165,-242,-25,78,-13,86,-4
7170,-244,-23,82,-16,88,-3
7175,-241,-23,79,-19,88,-6
7180,-246,-21,84,-22,89,-4
7185,-244,-25,82,-25,87,-6
7190,-245,-21,83,-26,86,-3
7195,-246,-22,83,-26,87,-4
7200,-243,-25,84,-26,87,-3
7205,-247,-20,79,-24,87,-4
7210,-247,-23,86,-24,90,-3
7215,-243,-26,85,-22,93,-7
7220,-243,-23,83,-20,93,-4
7225,-244,-24,80,-18,95,-7
7230,-242,-25,84,-15,93,-5
7235,-243,-23,83,-13,94,-7
7240,-241,-20,81,-10,94,-4
7245,-243,-25,80,-9,93,-6
7250,-244,-22,81,-8,92,-5
7255,-246,-21,83,-7,91,-5
7260,-243,-25,82,-7,89,-5
7265,-243,-29,80,-7,89,-5
7270,-243,-23,80,-8,86,-2
7275,-243,-23,80,-10,85,-3
7280,-243,-22,82,-11,82,0
7285,-245,-19,79,-14,83,-1
7290,-246,-22,80,-15,83,1
7295,-246,-22,82,-18,81,-3
7300,-243,-23,81,-21,83,-1
7305,-242,-23,82,-27,86,-2
7310,-244,-22,78,-29,87,0
7315,-247,-22,82,-31,90,-2
7320,-241,-24,84,-34,92,0
7325,-245,-22,83,-36,92,0
7330,-244,-23,82,-37,95,0
7335,-247,-23,80,-36,97,-1
7340,-244,-23,77,-36,97,-1
7345,-246,-24,80,-37,95,-3
7350,-245,-24,76,-35,93,0
7355,-245,-20,81,-34,92,-1
7360,-245,-23,82,-30,91,-1
7365,-242,-23,82,-31,89,-3
7370,-244,-20,85,-29,87,-1
7375,-254,-31,90,-27,86,-2
7380,-244,-23,81,-25,84,-1
7385,-244,-25,84,-23,83,-3
7390,-247,-24,79,-20,83,-1
7395,-244,-21,79,-21,84,-1
7400,-243,-20,79,-20,84,0
7405,-244,-21,83,-21,85,-2
7410,-245,-21,84,-20,87,-1
7415,-245,-21,79,-21,88,-3
7420,-245,-22,83,-23,89,-2
7425,-244,-22,83,-23,90,-4
7430,-243,-24,79,-26,91,-2
7435,-243,-21,82,-26,92,-4
7440,-243,-23,79,-27,91,-2
7445,-246,-25,79,-29,90,-4
7450,-245,-24,81,-27,89,-3
7455,-247,-19,81,-27,89,-4
7460,-244,-24,83,-26,87,-1
7465,-246,-20,81,-24,86,-3
7470,-245,-24,78,-22,85,-1
7475,-242,-21,79,-22,85,0
7480,-240,-21,79,-20,83,-1
7485,-243,-22,82,-19,82,-1
7490,-245,-21,87,-19,81,2
7495,-245,-24,79,-20,83,1
7500,-246,-22,81,-20,84,2
7505,-244,-24,81,-20,85,1
7510,-246,-22,82,-19,86,1
7515,-244,-25,81,-20,88,-1
7520,-244,-22,80,-21,89,0
7525,-247,-25,84,-20,92,-1
7530,-243,-23,82,-20,92,-1
7535,-244,-25,78,-20,92,-1
7540,-244,-23,81,-18,93,0
7545,-243,-25,79,-17,92,-1
7550,-241,-25,78,-15,92,1
7555,-244,-21,78,-14,92,-2
7560,-245,-23,82,-12,93,0
7565,-247,-23,76,-12,92,0
7570,-243,-22,79,-13,91,2
7575,-242,-25,81,-15,90,0
7580,-243,-23,79,-16,91,0
7585,-244,-24,84,-20,94,1
7590,-241,-18,80,-23,96,1
7595,-246,-23,79,-25,96,2
7600,-242,-24,82,-29,95,1
7605,-247,-20,82,-31,96,0
7610,-246,-23,81,-30,95,1
7615,-246,-23,77,-28,94,-3
7620,-247,-22,82,-25,94,1
7625,-249,-23,79,-21,91,-1
7630,-246,-25,80,-18,88,-2
7635,-247,-23,77,-12,86,-3
7640,-249,-22,76,-7,83,-3
7645,-250,-21,77,-2,81,-4
7650,-248,-20,76,-1,82,-4
7655,-244,-23,76,-1,83,-5
7660,-245,-22,78,-1,85,-6
7665,-244,-21,77,-5,87,-7
7670,-245,-25,76,-8,91,-6
7675,-245,-23,77,-11,93,-7
7680,-245,-23,76,-14,94,-6
7685,-241,-25,77,-16,94,-7
7690,-244,-24,79,-16,95,-5
7695,-244,-25,83,-16,92,-5
7700,-239,-28,81,-13,88,-3
7705,-246,-23,78,-11,83,-2
7710,-249,-24,78,-7,78,0
7715,-246,-23,81,-6,75,0
7720,-244,-23,80,-5,72,3
7725,-245,-20,77,-6,71,3
7730,-244,-21,79,-7,69,4
7735,-242,-22,82,-12,68,5
7740,-244,-21,78,-14,67,7
7745,-247,-21,78,-18,68,7
7750,-245,-21,78,-19,68,8
7755,-248,-22,78,-23,71,8
7760,-244,-23,77,-26,73,9
7765,-246,-20,79,-29,76,9
7770,-246,-17,79,-30,77,9
7775,-246,-23,80,-32,78,9
7780,-247,-22,81,-31,79,8
7785,-245,-24,79,-31,79,7
7790,-249,-21,78,-30,78,8
7795,-247,-24,79,-30,76,6
7800,-247,-24,78,-29,75,7
7805,-247,-22,78,-26,74,4
7810,-246,-18,78,-24,76,4
7815,-245,-24,76,-21,77,3
7820,-246,-22,74,-18,77,3
7825,-247,-24,75,-14,78,2
7830,-248,-26,75,-9,76,2
7835,-247,-22,75,-3,74,0
7840,-245,-22,79,2,72,2
7845,-251,-24,78,7,68,2
7850,-249,-23,76,12,62,2
7855,-246,-23,75,15,55,2
7860,-246,-23,74,18,49,2
7865,-248,-24,77,22,45,3
7870,-245,-23,75,25,39,3
7875,-247,-23,75,25,38,4
7880,-246,-19,75,28,36,5
7885,-245,-24,76,29,36,6
7890,-244,-21,77,31,33,8
7895,-249,-22,76,31,31,8
7900,-244,-22,76,32,26,9
7905,-247,-24,76,31,21,11
7910,-247,-23,78,30,15,12
7915,-248,-21,78,30,8,12
7920,-255,-25,78,30,-2,13
7925,-250,-25,80,30,-10,14
7930,-250,-25,77,32,-20,15
7935,-250,-25,78,35,-31,18
7940,-250,-24,77,39,-42,22
7945,-252,-28,77,46,-53,26
7950,-252,-28,79,57,-64,29
7955,-250,-30,79,68,-72,34
7960,-250,-28,80,80,-77,38
7965,-250,-29,84,92,-77,41
7970,-249,-29,77,104,-69,46
7975,-250,-25,80,113,-58,51
7980,-245,-26,87,119,-33,52
7985,-242,-26,91,121,-8,54
7990,-245,-20,89,117,22,53
7995,-245,-20,89,111,52,53
8000,-243,-19,92,104,77,50
8005,-243,-15,92,102,96,45
8010,-245,-13,92,101,106,41
8015,-244,-13,91,98,108,38
8020,-245,-14,90,96,102,37
8025,-234,-8,96,94,94,37
8030,-241,-15,91,94,80,38
8035,-242,-11,87,94,65,40
8040,-243,-15,83,92,53,40
8045,-242,-11,82,89,41,45
8050,-242,-15,83,79,41,47
8055,-239,-13,84,64,48,52
8060,-238,-13,84,47,64,54
8065,-240,-11,77,27,88,57
8070,-240,-7,81,4,115,59
8075,-238,-8,83,-18,141,59
8080,-241,-8,83,-42,161,56
8085,-241,-6,81,-64,170,56
8090,-243,-9,77,-85,170,51
8095,-243,-11,79,-116,158,48
8100,-248,-9,75,-136,140,41
8105,-248,-12,77,-157,121,38
8110,-248,-13,75,-169,101,30
8115,-248,-14,75,-178,84,23
8120,-249,-18,76,-180,72,16
8125,-246,-19,77,-177,65,8
8130,-245,-20,75,-167,65,-2
8135,-238,-16,77,-150,73,-11
8140,-247,-18,78,-131,86,-19
8145,-245,-18,73,-110,104,-28
8150,-244,-21,73,-81,127,-37
8155,-244,-20,75,-60,145,-43
8160,-244,-17,73,-43,154,-53
8165,-243,-16,76,-30,156,-59
8170,-248,-13,75,-22,154,-65
8175,-246,-14,80,-20,148,-67
8180,-245,-13,78,-19,140,-70
8185,-248,-15,82,-19,128,-70
8190,-251,-12,81,-21,114,-69
8195,-245,-13,79,-24,103,-66
8200,-244,-13,84,-27,97,-66
8205,-247,-13,83,-34,104,-64
8210,-244,-12,82,-47,115,-65
8215,-244,-11,82,-65,132,-64
8220,-242,-11,89,-83,151,-65
8225,-244,-11,86,-102,167,-65
8230,-245,-12,86,-116,180,-69
8235,-245,-13,84,-127,183,-69
8240,-246,-17,80,-131,178,-72
8245,-244,-11,84,-133,166,-72
8250,-246,-16,79,-132,149,-72
8255,-244,-21,75,-132,135,-69
8260,-245,-21,78,-134,123,-69
8265,-248,-21,76,-136,118,-66
8270,-245,-20,75,-136,118,-66
8275,-246,-20,73,-135,121,-63
8280,-245,-25,76,-130,126,-62
8285,-245,-21,76,-121,136,-63
8290,-243,-19,75,-110,150,-68
8295,-241,-21,79,-101,163,-73
8300,-244,-17,80,-89,174,-81
8305,-244,-17,77,-81,179,-90
8310,-241,-14,78,-76,180,-99
8315,-245,-12,79,-73,173,-106
8320,-247,-13,76,-81,161,-111
8325,-250,-10,77,-92,152,-113
8330,-248,-13,76,-105,141,-117
8335,-254,-12,75,-121,130,-112
8340,-254,-11,75,-136,118,-114
8345,-255,-11,75,-149,107,-110
8350,-252,-12,75,-161,100,-107
8355,-243,-7,78,-173,99,-102
8360,-254,-14,74,-184,103,-103
8365,-251,-16,71,-193,111,-101
8370,-250,-16,73,-199,120,-102
8375,-248,-18,74,-204,128,-101
8380,-251,-19,73,-206,133,-106
8385,-250,-20,74,-206,133,-106
8390,-251,-19,71,-204,132,-108
8395,-251,-20,73,-204,130,-106
8400,-250,-21,72,-202,131,-104
8405,-252,-24,73,-200,135,-101
8410,-251,-28,71,-199,141,-102
8415,-250,-31,72,-198,147,-100
8420,-253,-28,70,-195,155,-105
8425,-256,-31,74,-190,157,-108
8430,-258,-29,68,-184,149,-116
8435,-257,-29,74,-179,137,-120
8440,-258,-28,69,-178,125,-128
8445,-260,-30,65,-180,113,-132
8450,-259,-26,64,-185,108,-144
8455,-256,-30,63,-190,111,-152
8460,-252,-26,62,-199,121,-163
8465,-258,-28,73,-208,141,-173
8470,-256,-25,70,-218,164,-186
8475,-258,-21,71,-228,185,-192
8480,-263,-18,70,-239,197,-200
8485,-259,-24,73,-249,198,-201
8490,-256,-23,73,-262,188,-205
8495,-260,-22,74,-267,176,-204
8500,-262,-23,76,-268,163,-206
8505,-261,-21,75,-274,150,-201
8510,-262,-21,70,-282,137,-197
8515,-260,-18,67,-289,125,-189
8520,-264,-16,68,-297,113,-185
8525,-260,-21,67,-298,100,-180
8530,-257,-24,67,-299,90,-179
8535,-258,-21,69,-298,85,-178
8540,-252,-24,65,-295,89,-184
8545,-252,-27,63,-294,105,-190
8550,-248,-29,60,-294,123,-200
8555,-246,-27,62,-298,139,-207
8560,-250,-31,66,-306,150,-218
8565,-250,-30,67,-311,152,-223
8570,-251,-42,73,-317,142,-231
8575,-250,-33,70,-316,126,-235
8580,-249,-30,67,-316,111,-243
8585,-249,-38,67,-318,106,-248
8590,-249,-38,68,-325,106,-254
8595,-250,-32,67,-334,113,-257
8600,-248,-39,67,-343,119,-265
8605,-249,-40,69,-352,122,-266
8610,-249,-44,68,-354,124,-272
8615,-252,-45,68,-351,122,-272
8620,-249,-46,67,-340,117,-276
8625,-250,-51,68,-328,114,-277
8630,-248,-53,72,-313,117,-281
8635,-247,-51,72,-295,117,-281
8640,-248,-52,70,-274,115,-284
8645,-250,-54,69,-249,110,-283
8650,-250,-55,71,-225,98,-285
8655,-249,-54,70,-204,84,-284
8660,-246,-52,69,-180,68,-288
8665,-246,-52,70,-170,57,-286
8670,-243,-53,68,-164,57,-289
8675,-242,-56,69,-162,65,-288
8680,-240,-52,74,-160,79,-292
8685,-239,-52,75,-158,99,-292
8690,-241,-58,76,-154,116,-296
8695,-239,-62,70,-149,130,-299
8700,-240,-63,71,-143,137,-308
8705,-235,-65,68,-138,139,-308
8710,-236,-66,66,-134,140,-313
8715,-237,-68,63,-135,143,-310
8720,-234,-71,68,-139,150,-314
8725,-235,-73,63,-137,159,-316
8730,-231,-70,67,-135,178,-323
8735,-235,-70,67,-134,199,-325
8740,-234,-72,65,-132,218,-332
8745,-236,-71,65,-125,235,-336
8750,-237,-70,67,-113,245,-343
8755,-235,-69,62,-94,253,-344
8760,-237,-70,63,-78,253,-347
8765,-234,-67,60,-68,251,-345
8770,-236,-68,64,-65,249,-350
8775,-238,-61,62,-66,249,-345
8780,-238,-64,62,-72,252,-345
8785,-240,-61,67,-80,257,-339
8790,-238,-62,60,-89,267,-342
8795,-243,-57,66,-99,279,-336
8800,-242,-58,61,-113,291,-337
8805,-242,-58,62,-124,300,-329
8810,-244,-62,62,-138,307,-329
8815,-244,-64,62,-151,314,-325
8820,-244,-61,61,-158,319,-323
8825,-243,-59,61,-158,319,-318
8830,-242,-61,66,-147,311,-314
8835,-243,-60,59,-142,302,-303
8840,-246,-56,58,-142,295,-294
8845,-249,-56,53,-144,294,-282
8850,-248,-58,56,-151,296,-276
8855,-246,-58,58,-165,304,-269
8860,-245,-58,58,-182,318,-269
8865,-241,-60,55,-205,342,-268
8870,-241,-60,56,-231,370,-274
8875,-237,-62,55,-258,399,-275
8880,-239,-65,51,-282,423,-278
8885,-240,-65,50,-301,440,-274
8890,-238,-68,49,-318,451,-275
8895,-233,-72,49,-324,454,-271
8900,-229,-71,46,-322,447,-273
8905,-229,-81,47,-309,434,-268
8910,-230,-84,52,-283,413,-267
8915,-228,-85,51,-250,388,-261
8920,-227,-87,52,-212,364,-260
8925,-229,-88,53,-174,342,-258
8930,-229,-86,54,-138,318,-262
8935,-229,-87,59,-106,295,-264
8940,-228,-81,54,-83,272,-274
8945,-233,-77,54,-65,255,-275
8950,-237,-72,51,-59,239,-283
8955,-237,-72,51,-57,226,-284
8960,-235,-76,52,-59,215,-289
8965,-238,-71,46,-65,210,-291
8970,-242,-74,46,-75,215,-296
8975,-242,-71,41,-85,232,-296
8980,-244,-73,45,-95,255,-300
8985,-243,-78,40,-102,280,-299
8990,-243,-81,43,-109,303,-304
8995,-241,-85,41,-116,319,-303
9000,-241,-81,39,-126,326,-305
9005,-231,-78,40,-133,323,-303
9010,-237,-87,43,-137,316,-305
9015,-238,-88,41,-135,306,-304
9020,-236,-89,46,-128,300,-312
9025,-234,-89,45,-114,301,-317
9030,-231,-87,45,-97,316,-329
9035,-230,-84,48,-77,335,-341
9040,-224,-82,48,-59,352,-361
9045,-221,-80,55,-47,360,-376
9050,-224,-79,49,-40,356,-393
9055,-220,-77,51,-34,330,-402
9060,-227,-76,47,-36,297,-410
9065,-229,-74,44,-36,260,-414
9070,-235,-76,45,-39,221,-423
9075,-240,-77,49,-38,187,-426
9080,-243,-75,49,-37,155,-435
9085,-245,-73,45,-36,127,-440
9090,-246,-73,47,-37,109,-450
9095,-245,-75,45,-37,99,-458
9100,-245,-75,41,-36,102,-472
9105,-245,-78,32,-35,114,-480
9110,-246,-78,34,-33,137,-500
9115,-255,-84,36,-26,153,-512
9120,-253,-80,33,-20,157,-527
9125,-255,-81,31,-8,144,-533
9130,-254,-82,30,1,124,-541
9135,-254,-81,33,12,105,-542
9140,-255,-79,34,20,85,-543
9145,-254,-77,34,25,69,-538
9150,-255,-75,35,24,60,-535
9155,-252,-74,34,13,62,-528
9160,-252,-74,32,-4,72,-526
9165,-252,-77,33,-26,92,-520
9170,-252,-79,30,-59,120,-519
9175,-246,-83,26,-90,141,-512
9180,-249,-85,23,-124,158,-514
9185,-247,-90,19,-159,168,-513
9190,-245,-93,17,-190,174,-520
9195,-245,-96,17,-215,184,-527
9200,-242,-100,21,-232,194,-540
9205,-244,-104,14,-241,206,-551
9210,-243,-107,14,-242,220,-567
9215,-243,-110,14,-234,239,-581
9220,-242,-115,22,-220,265,-607
9225,-245,-117,23,-201,303,-622
9230,-235,-119,26,-185,334,-640
9235,-235,-115,29,-173,360,-654
9240,-236,-115,30,-163,385,-669
9245,-235,-110,30,-156,399,-677
9250,-237,-112,28,-148,405,-686
9255,-233,-111,29,-143,403,-690
9260,-234,-108,29,-141,394,-699
9265,-231,-113,26,-139,388,-706
9270,-232,-108,26,-140,387,-717
9275,-229,-114,23,-141,391,-726
9280,-231,-112,23,-141,392,-741
9285,-224,-114,23,-149,393,-751
9290,-223,-115,23,-153,394,-764
9295,-220,-120,22,-157,397,-772
9300,-219,-121,26,-159,402,-780
9305,-214,-122,26,-157,408,-786
9310,-213,-123,29,-154,413,-797
9315,-210,-131,28,-151,415,-805
9320,-209,-132,23,-141,412,-818
9325,-209,-135,27,-127,407,-825
9330,-208,-139,26,-112,400,-839
9335,-215,-145,34,-95,384,-853
9340,-213,-141,24,-74,367,-858
9345,-212,-144,26,-56,345,-863
9350,-212,-150,27,-36,327,-871
9355,-212,-153,33,-16,315,-871
9360,-209,-155,33,2,308,-876
9365,-207,-156,34,17,303,-874
9370,-207,-157,35,31,298,-876
9375,-206,-156,33,48,287,-871
9380,-200,-160,32,64,270,-863
9385,-204,-157,28,81,244,-853
9390,-202,-160,29,97,212,-832
9395,-205,-162,25,111,171,-813
9400,-201,-163,23,123,136,-795
9405,-203,-163,25,129,103,-780
9410,-201,-166,25,130,78,-770
9415,-202,-169,23,123,58,-765
9420,-201,-167,25,111,50,-764
9425,-199,-165,26,100,50,-760
9430,-196,-165,18,92,47,-764
9435,-194,-165,19,88,44,-765
9440,-192,-165,12,87,42,-759
9445,-189,-170,3,82,38,-755
9450,-189,-165,12,71,42,-761
9455,-186,-168,10,56,52,-764
9460,-182,-165,10,36,64,-775
9465,-180,-166,8,14,76,-784
9470,-182,-169,8,-9,87,-793
9475,-176,-171,6,-34,95,-801
9480,-178,-173,2,-61,100,-821
9485,-174,-172,5,-91,108,-831
9490,-176,-177,12,-121,114,-847
9495,-172,-179,14,-148,124,-856
9500,-178,-179,13,-170,136,-870
9505,-178,-183,12,-188,153,-887
9510,-177,-189,18,-204,174,-903
9515,-175,-192,18,-212,195,-917
9520,-178,-192,24,-210,219,-928
9525,-176,-197,21,-203,240,-934
9530,-181,-194,26,-187,258,-945
9535,-182,-197,28,-162,268,-949
9540,-186,-198,26,-134,268,-955
9545,-188,-196,25,-100,263,-953
9550,-190,-194,24,-64,252,-954
9555,-195,-195,22,-27,235,-955
9560,-197,-195,26,9,218,-962
9565,-198,-192,21,46,209,-966
9570,-191,-193,19,73,204,-971
9575,-193,-192,22,93,200,-977
9580,-192,-192,18,106,197,-982
9585,-192,-192,20,115,195,-984
9590,-193,-189,19,122,192,-994
9595,-190,-193,17,128,185,-994
9600,-189,-190,19,138,168,-999
9605,-192,-190,16,148,140,-996
9610,-190,-192,15,157,103,-995
9615,-189,-192,16,165,60,-988
9620,-191,-192,12,166,12,-986
9625,-183,-195,15,165,-16,-978
9630,-183,-195,12,166,-33,-971
9635,-180,-196,14,165,-44,-973
9640,-183,-195,17,169,-50,-982
9645,-179,-196,21,175,-51,-974
9650,-181,-194,21,184,-53,-975
9655,-184,-193,23,195,-56,-966
9660,-187,-190,32,202,-61,-964
9665,-177,-195,25,205,-64,-957
9670,-176,-191,27,203,-60,-953
9675,-173,-194,26,193,-39,-940
9680,-169,-195,22,176,-10,-935
9685,-165,-190,24,157,31,-926
9690,-161,-187,21,135,77,-917
9695,-155,-190,23,109,123,-907
9700,-160,-190,13,81,162,-903
9705,-158,-189,16,49,196,-891
9710,-155,-187,8,14,220,-876
9715,-154,-185,11,-26,232,-861
9720,-155,-187,7,-73,233,-850
9725,-154,-187,9,-120,228,-836
9730,-153,-194,11,-166,219,-819
9735,-151,-197,9,-211,215,-804
9740,-150,-197,10,-236,211,-790
9745,-149,-202,8,-250,205,-775
9750,-147,-207,14,-251,195,-764
9755,-143,-210,18,-242,178,-749
9760,-140,-213,19,-225,159,-738
9765,-142,-218,23,-198,141,-726
9770,-136,-215,30,-167,126,-718
9775,-132,-227,29,-133,112,-707
9780,-133,-227,30,-95,96,-697
9785,-132,-229,32,-57,77,-684
9790,-132,-232,33,-11,58,-676
9795,-127,-231,39,24,37,-666
9800,-128,-234,37,57,16,-657
9805,-129,-234,37,86,-6,-648
9810,-128,-231,41,116,-25,-640
9815,-127,-233,36,140,-38,-629
9820,-122,-231,31,154,-45,-620
9825,-122,-226,34,157,-46,-609
9830,-118,-226,24,150,-43,-601
9835,-114,-227,25,132,-39,-591
9840,-111,-227,22,105,-31,-583
9845,-105,-225,17,63,-23,-573
9850,-101,-222,12,25,-13,-566
9855,-99,-222,14,-13,-2,-556
9860,-98,-222,12,-53,13,-550
9865,-92,-225,13,-87,25,-541
9870,-94,-226,17,-116,35,-537
9875,-87,-232,13,-137,45,-529
9880,-86,-234,12,-153,49,-527
9885,-84,-233,12,-163,49,-522
9890,-86,-235,12,-167,44,-521
9895,-85,-235,11,-161,35,-520
9900,-86,-236,13,-148,30,-520
9905,-87,-238,12,-136,25,-518
9910,-85,-238,9,-119,26,-518
9915,-87,-240,12,-101,30,-520
9920,-86,-243,13,-79,39,-522
9925,-86,-238,11,-53,52,-523
9930,-88,-240,14,-24,70,-527
9935,-89,-237,12,8,96,-534
9940,-93,-237,14,41,124,-542
9945,-91,-237,18,70,151,-550
9950,-95,-239,19,99,175,-558
9955,-93,-232,18,127,199,-567
9960,-98,-233,22,145,211,-572
9965,-95,-234,20,152,212,-575
9970,-94,-229,22,148,208,-580
9975,-94,-227,19,134,199,-583
9980,-95,-225,14,109,191,-589
9985,-85,-218,24,81,180,-594
9990,-92,-224,9,47,167,-599
9995,-93,-226,8,13,146,-603
10000,-93,-227,12,-22,122,-605
10005,-94,-224,7,-56,91,-604
10010,-93,-225,5,-85,52,-604
10015,-94,-226,10,-119,23,-601
10020,-96,-231,12,-140,-6,-598
10025,-94,-232,13,-159,-33,-598
10030,-96,-235,12,-171,-61,-602
10035,-99,-236,12,-175,-85,-604
10040,-95,-235,19,-172,-110,-611
10045,-100,-236,18,-163,-132,-624
10050,-100,-232,20,-146,-151,-629
10055,-94,-236,20,-126,-170,-633
10060,-99,-233,21,-111,-192,-648
10065,-100,-231,19,-95,-211,-656
10070,-100,-230,19,-79,-222,-659
10075,-97,-227,22,-71,-233,-672
10080,-105,-222,15,-63,-240,-681
10085,-98,-223,16,-61,-242,-684
10090,-97,-222,16,-60,-245,-695
10095,-101,-222,21,-59,-245,-707
10100,-93,-221,17,-59,-237,-706
10105,-93,-220,15,-62,-227,-715
10110,-97,-220,13,-67,-209,-721
10115,-90,-220,9,-72,-184,-718
10120,-86,-222,12,-80,-163,-724
10125,-90,-224,12,-95,-138,-736
10130,-80,-228,10,-109,-116,-736
10135,-79,-231,13,-128,-92,-745
10140,-80,-229,11,-144,-72,-754
10145,-77,-234,11,-159,-58,-758
10150,-79,-240,11,-177,-49,-760
10155,-74,-240,4,-198,-46,-760
10160,-77,-240,-2,-227,-51,-758
10165,-72,-247,-7,-259,-54,-748
10170,-69,-252,-4,-292,-54,-734
10175,-71,-254,-6,-329,-55,-715
10180,-66,-259,-4,-362,-59,-684
10185,-56,-264,1,-392,-47,-663
10190,-53,-268,2,-396,-30,-648
10195,-65,-272,9,-393,-11,-642
10200,-62,-279,11,-379,2,-625
10205,-64,-270,7,-353,5,-616
10210,-69,-277,22,-307,6,-590
10215,-69,-278,23,-250,2,-574
10220,-72,-279,25,-186,-5,-560
10225,-68,-276,24,-121,-12,-548
10230,-71,-272,28,-57,-20,-542
10235,-68,-275,29,5,-25,-534
10240,-73,-267,28,79,-29,-527
10245,-67,-264,26,136,-31,-518
10250,-64,-259,19,186,-32,-508
10255,-67,-256,20,223,-36,-510
10260,-62,-252,20,248,-42,-511
10265,-62,-252,19,265,-54,-512
10270,-56,-249,18,280,-72,-511
10275,-52,-248,19,285,-87,-516
10280,-52,-251,20,283,-105,-522
10285,-43,-254,20,277,-117,-522
10290,-41,-253,16,270,-129,-524
10295,-43,-253,15,261,-140,-528
10300,-38,-254,11,253,-152,-531
10305,-34,-255,12,243,-163,-532
10310,-28,-257,10,235,-176,-530
10315,-31,-254,4,225,-188,-538
10320,-23,-258,8,215,-199,-540
10325,-18,-257,8,201,-209,-546
10330,-21,-256,7,186,-217,-555
10335,-16,-259,0,174,-221,-558
10340,-16,-257,4,163,-226,-566
10345,-16,-259,2,155,-227,-573
10350,-11,-260,7,150,-225,-576
10355,-10,-255,5,146,-221,-583
10360,-12,-259,4,141,-220,-589
10365,-6,-257,2,140,-217,-594
10370,-9,-258,8,138,-217,-596
10375,-3,-256,6,142,-217,-600
10380,-2,-255,10,143,-222,-603
10385,-2,-257,13,145,-229,-607
10390,1,-257,15,147,-236,-601
10395,2,-258,14,146,-244,-602
10400,-2,-257,15,147,-249,-600
10405,4,-258,14,151,-250,-594
10410,5,-259,17,154,-247,-593
10415,6,-256,17,158,-242,-590
10420,3,-253,26,165,-232,-575
10425,13,-259,16,170,-220,-564
10430,14,-258,17,173,-214,-556
10435,15,-257,18,176,-209,-549
10440,12,-255,21,180,-201,-542
10445,15,-257,20,183,-195,-538
10450,17,-259,24,187,-189,-531
10455,15,-258,27,192,-190,-529
10460,16,-259,33,198,-190,-523
10465,18,-260,30,207,-188,-517
10470,18,-257,31,213,-190,-509
10475,15,-259,28,222,-186,-503
10480,15,-259,31,230,-184,-492
10485,19,-258,32,241,-174,-487
10490,19,-260,32,252,-162,-483
10495,26,-258,27,259,-145,-480
10500,25,-254,33,263,-125,-473
10505,25,-252,33,262,-99,-468
10510,26,-252,32,259,-69,-459
10515,31,-249,38,250,-41,-448
10520,32,-249,33,233,-7,-436
10525,35,-244,47,215,23,-438
10530,40,-248,43,195,53,-435
10535,41,-245,44,172,80,-432
10540,47,-247,48,146,110,-422
10545,51,-250,51,121,140,-413
10550,55,-249,54,92,172,-398
10555,59,-249,58,63,203,-395
10560,63,-248,65,37,231,-392
10565,62,-248,62,15,255,-383
10570,68,-250,67,-9,273,-361
10575,65,-242,68,-37,275,-367
10580,60,-244,65,-56,266,-368
10585,63,-240,69,-74,248,-364
10590,68,-240,64,-91,230,-348
10595,67,-235,66,-108,212,-345
10600,64,-237,60,-123,196,-341
10605,60,-234,59,-136,185,-343
10610,59,-234,62,-148,179,-344
10615,53,-229,66,-154,173,-345
10620,53,-232,65,-156,171,-337
10625,48,-231,61,-152,177,-338
10630,46,-226,57,-143,195,-345
10635,45,-224,60,-130,217,-339
10640,40,-227,57,-114,238,-318
10645,35,-225,56,-99,257,-314
10650,29,-221,52,-93,268,-310
10655,18,-221,44,-99,270,-299
10660,16,-221,36,-117,265,-280
10665,18,-220,39,-144,258,-265
10670,13,-220,29,-180,255,-248
10675,11,-221,30,-219,253,-230
10680,6,-228,33,-262,252,-204
10685,3,-229,37,-301,244,-176
10690,2,-235,37,-343,231,-150
10695,2,-236,41,-369,209,-126
10700,-1,-241,44,-385,187,-96
10705,2,-246,46,-390,161,-63
10710,4,-251,45,-384,131,-47
10715,9,-259,48,-372,103,-45
10720,6,-256,51,-354,83,-35
10725,11,-261,47,-327,68,-24
10730,13,-263,45,-296,58,-16
10735,11,-264,46,-256,53,-22
10740,12,-264,41,-212,53,-19
10745,12,-261,33,-153,57,-20
10750,20,-262,34,-107,64,-22
10755,23,-260,28,-65,68,-30
10760,23,-260,27,-33,71,-39
10765,22,-256,22,-16,73,-54
10770,25,-254,15,-12,74,-55
10775,25,-250,15,-21,67,-67
10780,24,-248,12,-36,61,-84
10785,25,-249,9,-60,54,-94
10790,22,-244,12,-88,43,-103
10795,17,-245,13,-116,33,-116
10800,17,-247,11,-144,22,-114
10805,13,-248,11,-177,19,-113
10810,11,-247,10,-203,23,-114
10815,8,-251,15,-224,28,-115
10820,7,-253,15,-238,32,-108
10825,3,-257,23,-240,34,-103
10830,0,-259,25,-232,30,-92
10835,5,-261,18,-217,23,-84
10840,1,-260,23,-198,12,-72
10845,0,-260,16,-178,0,-65
10850,3,-260,15,-157,-8,-56
10855,4,-260,8,-138,-11,-46
10860,8,-261,15,-118,-6,-36
10865,11,-257,12,-104,2,-29
10870,13,-256,9,-89,11,-21
10875,14,-253,8,-84,19,-19
10880,21,-252,4,-81,26,-14
10885,23,-254,2,-83,34,-16
10890,30,-256,3,-84,42,-16
10895,32,-254,4,-87,47,-21
10900,37,-256,5,-87,53,-23
10905,38,-257,12,-91,59,-29
10910,40,-256,10,-93,66,-34
10915,40,-257,14,-98,75,-40
10920,43,-259,16,-97,80,-41
10925,45,-259,18,-97,84,-46
10930,45,-258,20,-93,88,-45
10935,45,-259,22,-89,92,-46
10940,45,-259,22,-82,98,-45
10945,42,-260,23,-74,102,-50
10950,42,-257,24,-65,111,-49
10955,40,-255,24,-57,121,-48
10960,33,-254,23,-48,131,-42
10965,38,-250,21,-43,138,-36
10970,33,-249,19,-39,146,-28
10975,35,-252,20,-40,150,-23
10980,32,-248,13,-46,149,-13
10985,31,-247,16,-56,145,-7
10990,29,-246,20,-67,138,2
10995,26,-244,16,-82,124,6
11000,25,-246,18,-98,108,14
11005,26,-247,18,-114,91,18
11010,23,-247,17,-127,72,25
11015,26,-249,20,-141,55,28
11020,26,-250,20,-153,41,35
11025,22,-250,21,-160,27,36
11030,22,-250,21,-161,20,36
11035,26,-258,23,-156,17,32
11040,26,-255,25,-147,18,33
11045,29,-261,24,-132,20,29
11050,28,-260,26,-115,28,28
11055,30,-260,24,-94,34,22
11060,32,-260,19,-72,43,22
11065,31,-259,24,-51,52,15
11070,30,-258,20,-27,60,15
11075,32,-258,18,-5,69,10
11080,32,-257,21,14,73,9
11085,32,-258,17,33,79,4
11090,31,-257,13,43,84,4
11095,32,-257,18,48,87,0
11100,30,-256,17,48,87,3
11105,31,-255,14,45,87,-1
11110,26,-253,15,40,82,2
11115,29,-253,18,33,77,2
11120,26,-254,15,28,73,5
11125,25,-253,12,21,67,4
11130,24,-254,13,17,61,5
11135,25,-254,18,11,55,4
11140,23,-255,17,5,52,7
11145,22,-254,15,2,50,6
11150,22,-254,18,0,49,12
11155,21,-255,16,1,50,14
11160,20,-255,20,3,51,20
11165,19,-256,20,6,57,22
11170,20,-254,18,12,60,25
11175,19,-255,17,18,65,25
11180,20,-256,22,25,70,28
11185,20,-252,17,33,74,26
11190,23,-254,22,41,75,29
11195,23,-255,19,50,76,28
11200,22,-256,20,59,77,30
11205,22,-254,18,68,77,29
11210,22,-254,17,75,79,32
11215,24,-254,18,84,79,30
11220,23,-256,24,94,79,32
11225,24,-256,22,104,80,29
11230,23,-256,23,113,80,32
11235,25,-255,21,124,85,30
11240,22,-254,23,132,87,34
11245,23,-250,26,138,92,34
11250,23,-254,21,142,94,39
11255,26,-252,20,144,93,37
11260,26,-251,22,140,92,41
11265,23,-245,18,132,88,39
11270,23,-248,21,121,84,43
11275,24,-246,21,109,77,41
11280,22,-251,20,97,68,43
11285,24,-248,26,82,58,42
11290,21,-246,22,67,48,45
11295,21,-250,22,54,41,42
11300,24,-250,22,42,37,45
11305,23,-247,25,32,34,41
11310,22,-246,23,22,32,44
11315,21,-251,21,17,31,42
11320,22,-252,25,17,32,45
11325,20,-250,23,16,35,43
11330,22,-249,25,17,38,46
11335,20,-251,30,19,42,44
11340,20,-251,31,24,47,46
11345,23,-252,27,28,54,43
11350,23,-253,30,32,57,45
11355,21,-252,25,36,57,43
11360,21,-251,23,39,59,46
11365,23,-251,27,43,56,43
11370,23,-249,25,45,54,46
11375,21,-252,26,46,53,45
11380,25,-253,30,46,51,47
11385,20,-253,26,47,48,46
11390,22,-251,28,45,48,50
11395,20,-255,25,46,46,48
11400,21,-251,27,46,45,51
11405,23,-253,28,48,47,50
11410,23,-253,26,48,47,52
11415,23,-251,25,50,47,49
11420,20,-253,27,50,44,52
11425,22,-254,29,52,42,49
11430,20,-250,28,52,39,51
11435,18,-250,22,50,36,47
11440,20,-249,26,46,32,47
11445,21,-246,29,41,30,44
11450,18,-250,24,35,27,45
11455,17,-248,26,30,24,41
11460,18,-248,26,24,23,43
11465,19,-247,24,22,23,41
11470,18,-253,26,19,26,42
11475,15,-250,25,19,29,37
11480,18,-251,25,20,35,39
11485,15,-250,28,21,39,36
11490,19,-254,26,23,44,39
11495,19,-250,30,27,51,39
11500,19,-253,26,32,54,41
11505,16,-254,45,36,60,38
11510,19,-254,28,41,66,41
11515,20,-254,27,48,71,38
11520,21,-256,24,54,75,41
11525,18,-255,25,62,76,38
11530,18,-253,27,65,76,40
11535,21,-254,26,67,75,37
11540,19,-252,29,64,74,37
11545,18,-253,29,60,71,35
11550,18,-254,25,55,68,35
11555,18,-253,27,51,66,32
11560,19,-250,25,49,63,33
11565,16,-251,29,46,62,30
11570,20,-253,28,45,62,30
11575,19,-253,29,44,60,28
11580,19,-248,28,42,58,28
11585,20,-249,29,41,57,24
11590,19,-251,25,40,57,25
11595,17,-248,28,40,60,22
11600,20,-247,28,39,60,24
11605,21,-250,26,38,63,21
11610,18,-247,41,36,67,22
11615,15,-246,29,33,70,18
11620,18,-249,32,31,75,19
11625,17,-253,27,28,79,16
11630,17,-253,30,26,80,18
11635,16,-248,32,23,82,15
11640,18,-251,29,20,80,17
11645,17,-250,32,15,78,14
11650,19,-254,29,13,73,16
11655,16,-253,30,10,70,14
11660,19,-253,33,11,68,16
11665,17,-254,31,13,67,14
11670,19,-252,30,15,69,17
11675,16,-253,30,20,72,15
11680,19,-252,31,23,72,19
11685,17,-250,27,24,73,16
11690,15,-249,27,26,75,18
11695,19,-253,29,26,75,17
11700,17,-249,29,25,72,17
11705,17,-251,29,24,70,14
11710,16,-251,28,24,67,15
11715,16,-251,29,21,63,12
11720,18,-257,29,19,61,11
11725,17,-250,30,15,57,9
11730,17,-251,33,14,53,10
11735,17,-250,31,11,51,5
11740,17,-253,32,9,48,6
11745,15,-248,31,7,48,3
11750,15,-250,36,5,48,5
11755,13,-251,33,4,47,0
11760,18,-252,32,4,49,2
11765,18,-248,29,5,52,0
11770,15,-249,30,5,56,1
11775,16,-253,29,6,57,-1
11780,15,-252,31,7,61,1
11785,15,-250,28,7,63,0
11790,17,-252,32,5,65,3
11795,17,-250,27,5,66,1
11800,21,-251,32,6,67,5
11805,17,-250,31,4,68,4
11810,19,-253,30,3,67,7
11815,17,-251,30,5,67,7
11820,18,-253,30,4,65,8
11825,16,-252,32,7,63,7
11830,15,-256,33,6,61,7
11835,17,-254,30,6,59,5
11840,17,-249,30,4,58,7
11845,16,-250,31,3,58,4
11850,18,-252,31,1,58,6
11855,15,-251,31,1,59,2
11860,17,-252,29,1,61,3
11865,19,-253,30,1,64,-1
11870,13,-249,29,-1,65,1
11875,17,-253,33,0,66,-2
11880,18,-251,32,2,65,-2
11885,17,-253,34,0,64,-6
11890,17,-251,29,-1,64,-5
11895,17,-252,33,1,62,-8
11900,17,-250,36,-1,62,-6
11905,17,-251,31,-2,61,-9
11910,16,-250,31,-3,62,-7
11915,18,-250,33,-3,61,-8
11920,18,-249,32,-4,60,-7
11925,17,-251,30,-5,59,-8
11930,16,-249,31,-4,58,-6
11935,18,-249,30,-3,58,-5
11940,19,-252,32,-3,58,-3
11945,21,-252,33,-3,58,-3
11950,18,-253,33,-3,58,-1
11955,18,-251,29,-3,58,-2
11960,17,-251,29,-2,60,0
11965,17,-248,32,-2,59,-1
11970,20,-251,30,-2,60,0
11975,19,-252,33,-2,60,-1
11980,18,-253,36,-1,60,0
11985,19,-251,34,-1,62,-2
11990,18,-253,30,-1,65,-2
11995,18,-248,32,1,66,-4
