timestamp,acc_x,acc_y,acc_z,gyro_x,gyro_y,gyro_z
0,-10,-236,-65,40,11,-15
5,-2,-240,-67,36,8,-14
10,-4,-239,-62,32,9,-12
15,-10,-237,-63,28,8,-13
20,-11,-237,-66,24,10,-14
25,-9,-234,-66,22,10,-14
30,-9,-239,-69,21,11,-17
35,-10,-235,-62,19,12,-18
40,-5,-239,-67,19,12,-16
45,-6,-239,-66,20,11,-17
50,-4,-241,-64,21,12,-18
55,-5,-240,-65,20,12,-17
60,-8,-239,-66,21,13,-19
65,-5,-240,-65,20,13,-17
70,-9,-241,-62,23,14,-16
75,-12,-243,-62,24,13,-18
80,-6,-241,-60,25,13,-19
85,-6,-241,-66,25,13,-19
90,-10,-239,-64,26,14,-19
95,-8,-239,-66,26,13,-21
100,-8,-239,-66,26,13,-19
105,-5,-239,-67,27,12,-18
110,-10,-241,-62,27,12,-17
115,-8,-241,-69,28,12,-17
120,-8,-239,-67,26,13,-18
125,-2,-241,-64,25,11,-16
130,-12,-242,-64,23,11,-17
135,-6,-240,-64,22,11,-17
140,-5,-240,-68,21,11,-16
145,-8,-237,-65,22,11,-17
150,-4,-239,-63,24,12,-19
155,-7,-239,-66,26,12,-19
160,-7,-237,-66,29,12,-17
165,-7,-239,-70,34,12,-16
170,-8,-240,-65,38,13,-16
175,-7,-241,-67,40,14,-16
180,-6,-240,-68,40,14,-16
185,-6,-244,-70,38,15,-17
190,-8,-240,-65,39,14,-16
195,-7,-239,-65,37,14,-16
200,-6,-243,-67,36,14,-16
205,-10,-239,-65,36,15,-16
210,-9,-241,-66,37,13,-16
215,-6,-239,-65,38,14,-16
220,-9,-238,-65,39,14,-18
225,-8,-240,-64,38,13,-16
230,-7,-237,-66,39,14,-17
235,-6,-237,-66,37,13,-18
240,-4,-245,-62,36,14,-17
245,-6,-240,-69,34,14,-16
250,-6,-238,-64,31,13,-17
255,-3,-240,-64,31,14,-16
260,-4,-241,-65,32,13,-16
265,-9,-236,-67,31,13,-16
270,-6,-238,-65,29,9,-18
275,-4,-244,-70,30,12,-18
280,-9,-239,-66,31,14,-14
285,-10,-238,-66,33,13,-14
290,-6,-238,-68,34,14,-16
295,-11,-236,-67,35,14,-14
300,-5,-240,-69,35,11,-15
305,-9,-237,-68,35,13,-14
310,-4,-243,-66,33,12,-15
315,-7,-240,-65,31,11,-15
320,-5,-240,-68,28,11,-15
325,-5,-239,-66,28,11,-16
330,-9,-240,-65,28,11,-15
335,-9,-241,-66,31,11,-14
340,-4,-238,-68,32,11,-13
345,-4,-238,-66,35,11,-14
350,-8,-237,-72,36,10,-13
355,-8,-237,-67,38,9,-13
360,-5,-241,-65,38,10,-12
365,-9,-237,-69,39,10,-12
370,-4,-240,-68,39,11,-14
375,-7,-238,-65,38,13,-14
380,-6,-240,-65,38,11,-15
385,-8,-238,-68,38,13,-14
390,-8,-241,-67,37,13,-13
395,-4,-235,-68,35,11,-15
400,-10,-236,-67,34,12,-15
405,-4,-235,-66,32,11,-16
410,-3,-238,-67,29,10,-15
415,-5,-239,-66,28,9,-15
420,-6,-237,-65,25,8,-13
425,-6,-239,-71,26,6,-13
430,-9,-240,-65,26,7,-12
435,-6,-240,-64,27,5,-12
440,-2,-239,-62,27,4,-12
445,-8,-239,-68,29,5,-11
450,-7,-243,-71,29,5,-13
455,-8,-241,-68,28,6,-13
460,-14,-240,-67,28,8,-13
465,-8,-238,-70,27,9,-12
470,-8,-235,-70,25,8,-13
475,-5,-236,-69,25,7,-13
480,-7,-238,-67,25,8,-13
485,-6,-240,-68,26,8,-11
490,-7,-236,-66,27,8,-12
495,-7,-239,-65,27,8,-12
500,-5,-240,-65,26,7,-9
505,-5,-238,-72,25,8,-10
510,-8,-240,-70,24,7,-10
515,-7,-237,-68,25,6,-10
520,-5,-240,-70,25,6,-11
525,-7,-239,-67,25,5,-10
530,-9,-239,-67,24,6,-9
535,-7,-239,-66,23,6,-8
540,-5,-237,-66,24,7,-10
545,-7,-241,-69,24,7,-7
550,-8,-236,-67,24,8,-6
555,-7,-237,-69,23,9,-7
560,-8,-236,-68,25,8,-6
565,-6,-243,-68,27,8,-5
570,-8,-237,-67,29,8,-8
575,-7,-240,-72,29,9,-8
580,-3,-238,-67,26,9,-9
585,-4,-237,-67,24,11,-9
590,-6,-237,-67,22,9,-11
595,-5,-236,-68,19,10,-11
600,-1,-239,-68,16,11,-12
605,-7,-233,-69,14,12,-12
610,-3,-239,-69,14,11,-12
615,-2,-239,-68,16,10,-11
620,-3,-243,-72,17,9,-12
625,-8,-237,-70,16,8,-12
630,-9,-240,-69,18,10,-12
635,-6,-239,-69,18,10,-10
640,-5,-239,-66,19,9,-11
645,-9,-237,-69,21,10,-10
650,-6,-237,-71,21,10,-8
655,-5,-240,-68,23,8,-5
660,-8,-240,-71,24,9,-6
665,-6,-241,-67,25,10,-6
670,-8,-239,-70,27,10,-5
675,-9,-241,-71,27,11,-6
680,-8,-238,-73,28,12,-5
685,-7,-238,-67,31,13,-5
690,-8,-238,-73,32,14,-6
695,-4,-239,-70,34,15,-6
700,-10,-238,-70,37,16,-5
705,-5,-240,-71,38,16,-2
710,-5,-238,-68,41,16,-3
715,-8,-236,-68,45,16,-4
720,-4,-239,-72,46,17,-3
725,-6,-242,-70,46,16,-4
730,-5,-227,-68,47,15,-4
735,-6,-241,-71,45,14,-1
740,-6,-239,-69,45,14,-1
745,-10,-236,-66,44,12,-3
750,-9,-237,-68,43,12,-3
755,-9,-235,-70,41,11,-2
760,-11,-237,-68,38,11,-1
765,-7,-237,-68,38,13,-2
770,-6,-237,-70,37,13,-2
775,-6,-240,-67,37,13,-3
780,-7,-238,-71,36,14,-2
785,-8,-241,-68,37,14,-2
790,-8,-237,-73,38,15,-1
795,-6,-238,-68,37,16,0
800,-4,-237,-68,37,18,-3
805,-7,-239,-69,40,16,-1
810,-6,-238,-71,40,15,-2
815,-8,-239,-69,42,14,-1
820,-6,-238,-72,41,14,-2
825,-7,-245,-72,40,14,-3
830,-7,-239,-68,42,13,-4
835,-10,-238,-70,44,12,-4
840,-8,-243,-74,45,13,-4
845,-8,-239,-71,46,13,-5
850,-8,-240,-68,44,13,-4
855,-7,-237,-67,42,14,-5
860,-9,-240,-67,43,16,-4
865,-6,-241,-70,44,15,-4
870,-6,-238,-69,45,14,-3
875,-13,-234,-75,48,14,-2
880,-9,-237,-71,50,13,0
885,-10,-238,-70,52,14,-1
890,-7,-242,-69,52,15,-2
895,-8,-239,-60,53,12,-3
900,-7,-238,-68,51,12,-3
905,-10,-238,-72,50,11,-4
910,-13,-237,-72,50,11,-4
915,-9,-234,-72,50,12,-3
920,-12,-237,-73,51,11,-3
925,-6,-238,-71,51,8,-2
930,-6,-240,-73,51,7,-4
935,-10,-239,-70,53,6,-6
940,-12,-239,-72,55,4,-7
945,-11,-236,-69,57,3,-7
950,-12,-235,-75,58,4,-6
955,-9,-240,-73,61,3,-7
960,-12,-240,-71,62,2,-7
965,-14,-234,-73,64,3,-6
970,-10,-238,-72,63,4,-4
975,-13,-237,-69,61,4,-3
980,-12,-237,-70,63,4,-4
985,-10,-237,-70,61,6,-4
990,-15,-240,-71,63,5,-2
995,-11,-237,-71,63,5,-3
1000,-13,-237,-68,63,7,-2
1005,-17,-233,-71,61,7,0
1010,-13,-235,-67,61,6,-1
1015,-10,-235,-69,59,5,2
1020,-8,-240,-70,59,2,5
1025,-10,-239,-68,60,-1,9
1030,-11,-237,-65,58,-4,14
1035,-10,-240,-66,57,-8,19
1040,-10,-241,-71,53,-12,22
1045,-10,-239,-68,45,-14,26
1050,-9,-239,-66,39,-14,30
1055,-3,-236,-71,32,-13,35
1060,-3,-236,-69,28,-10,39
1065,-6,-238,-70,25,-9,43
1070,-8,-237,-68,25,-8,47
1075,-8,-237,-69,27,-7,52
1080,-6,-237,-67,30,-7,56
1085,-5,-241,-67,35,-9,60
1090,-2,-242,-70,38,-9,61
1095,-4,-240,-66,42,-12,61
1100,-3,-242,-69,46,-16,63
1105,-2,-240,-65,49,-20,63
1110,-5,-238,-66,54,-22,63
1115,-1,-243,-65,57,-26,61
1120,0,-239,-65,58,-28,60
1125,0,-239,-69,59,-29,60
1130,-1,-240,-68,56,-28,60
1135,0,-236,-66,54,-28,58
1140,0,-237,-67,50,-28,58
1145,0,-238,-66,45,-27,61
1150,-2,-236,-67,42,-28,64
1155,-3,-239,-65,39,-28,66
1160,-1,-237,-67,36,-27,70
1165,-2,-240,-68,33,-27,72
1170,0,-237,-66,29,-26,73
1175,-3,-238,-69,25,-28,73
1180,-5,-237,-69,21,-28,74
1185,-7,-236,-68,17,-28,76
1190,-5,-239,-71,13,-26,76
1195,-9,-239,-67,8,-25,77
1200,-8,-239,-68,4,-23,79
1205,-5,-238,-68,2,-21,81
1210,-6,-240,-70,0,-18,81
1215,-11,-237,-75,-1,-15,82
1220,-10,-237,-74,-4,-13,83
1225,-13,-235,-71,-4,-10,86
1230,-10,-235,-73,-5,-11,85
1235,-9,-239,-75,-8,-8,88
1240,-13,-237,-70,-7,-6,92
1245,-13,-237,-71,-7,-6,95
1250,-14,-235,-72,-8,-3,99
1255,-9,-241,-71,-7,-1,103
1260,-13,-234,-73,-8,1,104
1265,-11,-237,-76,-12,0,105
1270,-15,-236,-70,-15,0,106
1275,-13,-239,-72,-21,-3,106
1280,-19,-235,-74,-25,-3,107
1285,-15,-233,-75,-33,-3,109
1290,-17,-234,-74,-39,-2,110
1295,-17,-235,-71,-42,-5,112
1300,-17,-237,-71,-47,-5,115
1305,-16,-237,-70,-48,-7,118
1310,-18,-234,-73,-51,-8,120
1315,-17,-236,-73,-51,-11,123
1320,-20,-235,-75,-51,-12,126
1325,-18,-234,-75,-53,-15,130
1330,-24,-240,-75,-52,-16,135
1335,-20,-236,-70,-53,-18,137
1340,-22,-236,-71,-54,-18,138
1345,-20,-242,-72,-52,-19,138
1350,-22,-235,-73,-52,-21,136
1355,-20,-232,-73,-52,-23,137
1360,-22,-238,-70,-49,-25,139
1365,-17,-235,-72,-48,-25,137
1370,-19,-236,-76,-47,-26,139
1375,-23,-238,-75,-46,-26,137
1380,-27,-231,-71,-45,-27,135
1385,-23,-232,-74,-42,-26,135
1390,-23,-234,-73,-41,-25,138
1395,-25,-234,-75,-39,-21,139
1400,-24,-237,-75,-38,-20,140
1405,-22,-236,-75,-38,-18,142
1410,-27,-233,-77,-40,-16,146
1415,-23,-237,-76,-42,-17,145
1420,-24,-236,-78,-45,-16,149
1425,-31,-232,-75,-48,-15,153
1430,-26,-235,-77,-52,-15,156
1435,-29,-234,-75,-55,-12,162
1440,-27,-238,-71,-58,-12,168
1445,-26,-237,-73,-58,-14,174
1450,-26,-234,-72,-58,-14,181
1455,-28,-234,-71,-58,-17,190
1460,-27,-234,-79,-61,-23,194
1465,-26,-238,-81,-64,-25,198
1470,-23,-234,-75,-70,-27,204
1475,-26,-233,-79,-76,-26,209
1480,-25,-238,-77,-83,-28,212
1485,-24,-238,-78,-92,-29,216
1490,-26,-237,-77,-101,-30,220
1495,-20,-241,-81,-111,-29,218
1500,-22,-235,-80,-117,-28,228
1505,-18,-237,-76,-123,-27,239
1510,-18,-237,-80,-123,-23,250
1515,-20,-236,-77,-122,-21,260
1520,-21,-239,-75,-118,-19,268
1525,-20,-238,-78,-114,-18,277
1530,-22,-237,-82,-111,-18,285
1535,-26,-239,-84,-113,-18,290
1540,-23,-238,-78,-118,-17,298
1545,-25,-233,-82,-125,-17,305
1550,-23,-236,-80,-134,-14,313
1555,-22,-236,-84,-143,-12,323
1560,-19,-235,-84,-150,-9,333
1565,-25,-235,-80,-159,-6,341
1570,-23,-233,-77,-163,-3,350
1575,-23,-233,-77,-166,2,350
1580,-20,-232,-80,-170,2,359
1585,-19,-236,-77,-168,8,372
1590,-22,-237,-79,-166,8,379
1595,-20,-235,-79,-166,12,388
1600,-28,-230,-82,-164,12,395
1605,-27,-237,-79,-161,7,401
1610,-24,-240,-78,-159,3,405
1615,-23,-236,-80,-155,-2,410
1620,-25,-238,-78,-150,-3,420
1625,-26,-234,-79,-147,-7,426
1630,-28,-234,-77,-144,-12,437
1635,-25,-233,-77,-138,-17,443
1640,-26,-234,-78,-138,-24,448
1645,-35,-231,-82,-141,-30,455
1650,-31,-234,-83,-141,-37,459
1655,-30,-239,-83,-140,-43,467
1660,-36,-232,-85,-138,-50,471
1665,-37,-228,-87,-133,-53,471
1670,-33,-232,-87,-130,-56,466
1675,-35,-234,-87,-128,-61,478
1680,-38,-228,-90,-126,-61,481
1685,-37,-226,-87,-126,-59,484
1690,-36,-228,-84,-129,-56,484
1695,-39,-224,-87,-132,-54,486
1700,-37,-228,-78,-135,-56,486
1705,-38,-229,-83,-139,-59,488
1710,-43,-229,-84,-144,-63,489
1715,-39,-226,-83,-146,-64,491
1720,-41,-225,-86,-150,-66,494
1725,-42,-226,-88,-153,-66,496
1730,-42,-226,-85,-157,-64,498
1735,-46,-234,-90,-158,-61,499
1740,-41,-227,-91,-158,-52,484
1745,-44,-229,-88,-161,-54,496
1750,-48,-224,-93,-158,-54,501
1755,-47,-229,-93,-152,-55,501
1760,-47,-224,-96,-147,-56,502
1765,-47,-225,-96,-137,-61,505
1770,-47,-226,-102,-130,-65,506
1775,-53,-226,-99,-122,-69,508
1780,-52,-223,-96,-115,-72,507
1785,-55,-226,-99,-115,-73,506
1790,-55,-225,-100,-115,-75,504
1795,-57,-222,-94,-118,-78,504
1800,-64,-224,-101,-121,-78,499
1805,-59,-219,-100,-123,-79,493
1810,-65,-218,-94,-131,-80,508
1815,-63,-216,-96,-137,-73,515
1820,-62,-222,-94,-145,-68,521
1825,-62,-217,-99,-150,-71,523
1830,-65,-217,-98,-149,-78,525
1835,-66,-217,-98,-145,-84,525
1840,-67,-217,-102,-142,-90,530
1845,-66,-219,-101,-138,-94,532
1850,-68,-219,-103,-132,-96,531
1855,-71,-220,-102,-125,-96,529
1860,-72,-216,-104,-121,-98,527
1865,-74,-212,-106,-121,-96,527
1870,-76,-214,-109,-128,-93,529
1875,-79,-210,-107,-139,-84,530
1880,-80,-211,-107,-154,-76,534
1885,-82,-210,-102,-166,-67,537
1890,-82,-215,-100,-178,-64,542
1895,-83,-212,-103,-180,-57,542
1900,-87,-218,-101,-176,-58,542
1905,-85,-213,-96,-165,-53,523
1910,-82,-214,-101,-159,-66,534
1915,-86,-216,-99,-151,-70,541
1920,-92,-211,-97,-141,-75,543
1925,-88,-212,-97,-136,-85,543
1930,-94,-217,-101,-137,-99,547
1935,-92,-213,-101,-134,-107,547
1940,-94,-213,-99,-128,-118,552
1945,-91,-212,-101,-123,-132,553
1950,-94,-212,-100,-118,-143,552
1955,-94,-211,-99,-113,-151,546
1960,-94,-207,-99,-117,-162,542
1965,-95,-209,-101,-127,-173,541
1970,-97,-209,-103,-138,-177,539
1975,-101,-206,-103,-150,-182,542
1980,-97,-206,-100,-163,-184,544
1985,-97,-213,-98,-172,-179,545
1990,-103,-209,-99,-182,-179,547
1995,-100,-211,-102,-188,-178,548
2000,-103,-209,-100,-192,-169,548
2005,-102,-210,-102,-193,-165,552
2010,-103,-211,-98,-191,-167,554
2015,-101,-213,-100,-187,-172,558
2020,-101,-211,-94,-181,-171,560
2025,-100,-210,-97,-174,-169,565
2030,-96,-212,-94,-166,-171,570
2035,-98,-210,-92,-161,-174,574
2040,-94,-212,-92,-159,-179,575
2045,-96,-204,-99,-161,-181,575
2050,-96,-202,-94,-161,-176,574
2055,-99,-200,-94,-159,-167,573
2060,-101,-200,-99,-155,-160,574
2065,-100,-201,-100,-154,-151,572
2070,-102,-204,-100,-155,-142,569
2075,-101,-197,-103,-162,-134,565
2080,-102,-197,-102,-178,-128,563
2085,-100,-195,-104,-196,-122,560
2090,-103,-198,-103,-213,-120,558
2095,-107,-193,-104,-230,-119,557
2100,-108,-192,-106,-245,-121,559
2105,-109,-192,-111,-256,-128,562
2110,-113,-188,-108,-264,-137,565
2115,-116,-187,-113,-268,-149,567
2120,-117,-188,-110,-269,-163,567
2125,-119,-185,-109,-271,-179,564
2130,-121,-184,-113,-271,-196,560
2135,-122,-183,-111,-274,-210,553
2140,-124,-188,-118,-276,-220,546
2145,-124,-189,-109,-279,-227,541
2150,-125,-190,-113,-278,-235,537
2155,-129,-188,-113,-276,-244,538
2160,-125,-188,-108,-273,-254,538
2165,-123,-191,-111,-270,-269,540
2170,-127,-188,-113,-266,-285,546
2175,-128,-185,-113,-262,-301,546
2180,-130,-185,-110,-257,-315,547
2185,-131,-180,-111,-255,-334,545
2190,-131,-181,-113,-256,-352,542
2195,-132,-182,-116,-258,-369,538
2200,-132,-182,-115,-261,-379,536
2205,-131,-182,-113,-263,-384,531
2210,-132,-178,-111,-267,-387,521
2215,-132,-179,-115,-271,-387,514
2220,-132,-173,-108,-276,-390,506
2225,-132,-175,-113,-279,-397,507
2230,-131,-176,-113,-280,-401,511
2235,-131,-169,-121,-277,-405,512
2240,-133,-173,-118,-275,-411,514
2245,-136,-169,-120,-275,-418,517
2250,-133,-168,-122,-277,-427,517
2255,-133,-175,-112,-282,-438,516
2260,-136,-172,-118,-289,-450,514
2265,-138,-167,-116,-292,-459,492
2270,-139,-168,-116,-299,-478,497
2275,-140,-169,-116,-298,-493,497
2280,-144,-168,-115,-294,-510,498
2285,-148,-172,-115,-290,-524,494
2290,-151,-170,-115,-281,-536,490
2295,-154,-167,-115,-272,-545,489
2300,-154,-168,-113,-259,-552,486
2305,-160,-163,-115,-247,-558,489
2310,-155,-162,-125,-240,-567,499
2315,-156,-163,-124,-239,-577,508
2320,-160,-156,-119,-244,-587,519
2325,-157,-158,-117,-250,-594,528
2330,-153,-154,-116,-259,-603,533
2335,-159,-154,-117,-277,-614,533
2340,-156,-154,-118,-302,-625,532
2345,-155,-152,-111,-328,-631,529
2350,-160,-168,-115,-353,-631,525
2355,-154,-154,-110,-372,-628,505
2360,-157,-154,-113,-394,-629,514
2365,-155,-157,-114,-412,-623,510
2370,-159,-155,-110,-434,-621,502
2375,-156,-151,-111,-464,-620,492
2380,-157,-152,-113,-495,-618,485
2385,-155,-152,-113,-522,-620,477
2390,-158,-151,-115,-548,-622,476
2395,-155,-154,-117,-569,-623,479
2400,-154,-161,-115,-582,-620,482
2405,-158,-160,-120,-579,-618,486
2410,-156,-165,-119,-563,-616,490
2415,-159,-173,-117,-537,-617,487
2420,-152,-168,-120,-500,-613,455
2425,-154,-167,-115,-472,-621,452
2430,-154,-171,-119,-442,-618,444
2435,-157,-165,-114,-418,-610,430
2440,-160,-163,-118,-405,-602,418
2445,-159,-162,-107,-401,-592,403
2450,-162,-155,-107,-396,-580,392
2455,-164,-150,-112,-394,-574,381
2460,-167,-145,-113,-395,-566,376
2465,-176,-138,-107,-396,-557,365
2470,-172,-141,-104,-400,-560,373
2475,-184,-141,-106,-401,-557,397
2480,-185,-143,-96,-394,-548,414
2485,-187,-140,-97,-379,-541,431
2490,-193,-139,-94,-358,-539,444
2495,-194,-136,-91,-337,-543,448
2500,-193,-140,-94,-321,-551,450
2505,-197,-137,-90,-308,-566,453
2510,-199,-135,-86,-294,-587,458
2515,-204,-137,-90,-278,-615,465
2520,-206,-132,-92,-261,-638,462
2525,-207,-131,-95,-252,-662,464
2530,-212,-130,-93,-251,-686,486
2535,-210,-129,-86,-242,-700,505
2540,-211,-127,-83,-229,-718,527
2545,-212,-128,-82,-214,-742,547
2550,-217,-126,-86,-202,-762,567
2555,-203,-127,-80,-192,-778,578
2560,-214,-129,-76,-192,-799,617
2565,-210,-128,-74,-189,-815,644
2570,-211,-131,-72,-184,-829,660
2575,-204,-129,-75,-177,-842,671
2580,-205,-132,-68,-177,-862,710
2585,-214,-132,-67,-168,-869,738
2590,-201,-132,-57,-153,-864,737
2595,-206,-133,-55,-135,-872,766
2600,-213,-125,-58,-112,-873,779
2605,-199,-125,-57,-95,-885,792
2610,-206,-123,-57,-77,-884,827
2615,-205,-124,-52,-55,-877,842
2620,-203,-126,-50,-33,-877,850
2625,-208,-125,-47,-5,-866,866
2630,-208,-126,-57,28,-855,866
2635,-195,-127,-61,60,-848,862
2640,-198,-125,-60,90,-833,865
2645,-200,-129,-67,114,-807,854
2650,-208,-123,-66,122,-775,823
2655,-202,-120,-74,130,-749,770
2660,-216,-117,-74,133,-735,743
2665,-219,-112,-80,142,-730,707
2670,-226,-111,-79,153,-740,683
2675,-230,-106,-78,171,-747,678
2680,-238,-100,-71,196,-757,663
2685,-229,-103,-65,229,-755,649
2690,-225,-103,-63,257,-744,658
2695,-224,-98,-59,281,-723,683
2700,-224,-98,-62,286,-691,711
2705,-228,-99,-60,261,-669,742
2710,-223,-104,-61,234,-655,745
2715,-218,-108,-63,208,-625,738
2720,-205,-114,-62,173,-586,748
2725,-210,-114,-72,134,-553,769
2730,-206,-123,-68,109,-518,772
2735,-203,-123,-64,100,-480,767
2740,-206,-118,-64,106,-448,754
2745,-204,-122,-65,121,-424,736
2750,-210,-109,-66,137,-406,721
2755,-212,-111,-64,151,-389,706
2760,-215,-105,-59,165,-366,693
2765,-216,-106,-58,182,-335,681
2770,-218,-98,-54,197,-305,674
2775,-217,-93,-52,207,-274,671
2780,-218,-98,-52,208,-248,669
2785,-222,-96,-55,206,-229,669
2790,-220,-97,-49,207,-205,672
2795,-225,-91,-48,212,-186,669
2800,-219,-96,-46,221,-170,665
2805,-223,-88,-43,235,-156,659
2810,-221,-84,-44,247,-147,648
2815,-228,-78,-43,257,-146,634
2820,-226,-72,-46,263,-145,620
2825,-228,-64,-51,264,-146,609
2830,-232,-62,-47,263,-145,600
2835,-230,-64,-51,254,-144,596
2840,-237,-59,-43,241,-147,592
2845,-236,-59,-45,225,-148,592
2850,-241,-57,-48,211,-149,591
2855,-240,-59,-47,197,-156,594
2860,-242,-60,-47,182,-162,597
2865,-239,-56,-46,168,-169,605
2870,-242,-55,-46,157,-171,611
2875,-241,-56,-49,147,-172,622
2880,-241,-54,-52,137,-171,630
2885,-241,-55,-50,128,-162,638
2890,-241,-56,-47,123,-152,646
2895,-241,-59,-47,124,-142,655
2900,-239,-61,-46,125,-131,668
2905,-237,-58,-40,128,-119,683
2910,-233,-63,-48,136,-110,695
2915,-234,-61,-38,152,-111,699
2920,-235,-64,-40,169,-123,702
2925,-238,-62,-40,189,-140,701
2930,-232,-63,-36,210,-160,697
2935,-231,-60,-39,231,-176,687
2940,-234,-57,-34,248,-184,673
2945,-238,-58,-40,257,-183,654
2950,-242,-56,-39,255,-177,635
2955,-249,-53,-43,250,-163,619
2960,-250,-53,-45,244,-150,606
2965,-251,-51,-50,245,-133,595
2970,-254,-49,-53,251,-115,586
2975,-253,-45,-60,264,-100,579
2980,-250,-44,-66,282,-88,573
2985,-252,-43,-64,298,-79,571
2990,-253,-42,-68,313,-73,577
2995,-251,-47,-67,323,-69,582
3000,-250,-42,-62,333,-67,589
3005,-249,-42,-63,335,-71,593
3010,-250,-40,-61,335,-74,592
3015,-253,-49,-62,340,-81,592
3020,-255,-41,-62,343,-97,591
3025,-255,-45,-56,348,-119,591
3030,-254,-45,-60,358,-148,596
3035,-254,-40,-57,365,-178,598
3040,-254,-40,-56,364,-206,599
3045,-247,-41,-53,360,-230,601
3050,-249,-39,-52,355,-245,599
3055,-246,-34,-42,348,-252,595
3060,-252,-30,-47,342,-253,587
3065,-255,-22,-49,330,-254,577
3070,-260,-30,-50,319,-254,570
3075,-261,-26,-47,311,-245,563
3080,-259,-22,-54,309,-232,561
3085,-260,-22,-56,315,-219,557
3090,-257,-18,-58,326,-212,554
3095,-257,-16,-56,338,-204,551
3100,-253,-16,-58,349,-196,544
3105,-244,-21,-56,358,-191,532
3110,-248,-20,-47,363,-187,516
3115,-253,-19,-43,365,-195,494
3120,-253,-17,-39,357,-217,472
3125,-256,-13,-36,344,-247,453
3130,-260,-9,-37,326,-281,439
3135,-264,-7,-34,304,-311,429
3140,-267,-5,-33,282,-339,420
3145,-270,-4,-34,263,-358,414
3150,-275,1,-29,253,-366,415
3155,-275,0,-39,252,-356,425
3160,-273,2,-45,251,-340,444
3165,-271,2,-47,243,-324,461
3170,-269,1,-47,241,-308,478
3175,-266,0,-45,244,-301,492
3180,-264,-6,-34,251,-308,503
3185,-263,-9,-36,261,-327,508
3190,-263,-14,-30,273,-346,510
3195,-261,-16,-25,276,-362,508
3200,-262,-17,-30,267,-374,505
3205,-262,-13,-29,250,-387,500
3210,-260,-12,-31,230,-405,490
3215,-261,-14,-35,207,-426,478
3220,-261,-14,-39,181,-442,461
3225,-267,-11,-30,153,-449,450
3230,-268,-14,-37,136,-452,438
3235,-268,-14,-31,125,-452,423
3240,-267,-15,-32,126,-452,403
3245,-270,-12,-28,136,-454,383
3250,-272,-6,-26,149,-459,360
3255,-275,-1,-31,170,-463,340
3260,-275,1,-30,195,-460,321
3265,-271,4,-31,216,-450,310
3270,-262,0,-24,234,-435,300
3275,-261,0,-18,252,-424,286
3280,-266,7,-20,267,-421,260
3285,-272,0,-17,275,-422,232
3290,-276,0,-23,264,-418,216
3295,-279,1,-17,246,-406,208
3300,-276,3,-12,240,-385,200
3305,-280,6,-12,254,-362,189
3310,-282,6,-12,274,-340,179
3315,-290,16,-20,283,-326,169
3320,-285,14,-19,284,-318,162
3325,-283,18,-20,283,-305,158
3330,-283,24,-21,278,-285,159
3335,-277,32,-23,265,-253,158
3340,-275,28,-15,248,-212,159
3345,-272,29,-15,234,-174,158
3350,-273,28,-29,234,-141,153
3355,-266,29,-31,231,-104,147
3360,-255,28,-31,206,-46,137
3365,-246,24,-18,171,14,119
3370,-237,22,-10,135,57,88
3375,-230,22,-7,94,74,54
3380,-237,22,-8,39,78,30
3385,-235,12,-11,-21,86,10
3390,-241,1,-13,-74,100,-9
3395,-244,1,-27,-107,121,-22
3400,-249,0,-35,-128,145,-33
3405,-243,-6,-33,-144,164,-42
3410,-244,-14,-30,-157,179,-54
3415,-241,-25,-20,-154,185,-68
3420,-245,-32,-10,-139,180,-86
3425,-247,-28,-4,-130,169,-106
3430,-242,-34,3,-123,163,-125
3435,-249,-26,3,-124,155,-158
3440,-250,-33,4,-139,142,-198
3445,-258,-29,-3,-157,131,-237
3450,-258,-28,-12,-179,127,-271
3455,-264,-23,-13,-201,135,-283
3460,-265,-25,-19,-209,148,-294
3465,-269,-15,-22,-200,176,-299
3470,-273,-12,-27,-187,201,-297
3475,-267,-14,-19,-177,213,-294
3480,-250,-10,-13,-169,216,-291
3485,-227,-12,-14,-163,224,-289
3490,-205,-20,-2,-175,234,-305
3495,-200,-21,2,-210,245,-342
3500,-198,-29,0,-260,257,-390
3505,-212,-36,1,-327,270,-450
3510,-235,-45,0,-389,272,-507
3515,-245,-52,-4,-433,254,-552
3520,-243,-54,0,-444,229,-569
3525,-242,-51,-8,-423,218,-563
3530,-242,-46,-12,-389,209,-547
3535,-250,-37,-12,-348,206,-515
3540,-257,-29,-15,-304,204,-462
3545,-253,-23,-17,-278,180,-416
3550,-250,-24,-12,-272,155,-373
3555,-239,-19,-6,-277,141,-326
3560,-241,-20,-5,-293,137,-288
3565,-234,-18,-11,-328,130,-270
3570,-224,-23,-14,-387,132,-275
3575,-232,-29,-23,-446,160,-292
3580,-253,-31,-18,-476,193,-302
3585,-259,-32,-17,-478,204,-303
3590,-248,-34,-21,-458,198,-300
3595,-231,-35,-19,-434,203,-304
3600,-230,-42,-19,-429,219,-324
3605,-242,-37,-15,-443,235,-349
3610,-254,-45,-9,-464,236,-377
3615,-260,-42,-2,-478,243,-388
3620,-276,-38,-8,-479,261,-380
3625,-265,-37,-13,-473,278,-349
3630,-258,-31,-19,-454,315,-312
3635,-254,-28,-13,-428,357,-280
3640,-249,-32,-13,-399,376,-251
3645,-242,-40,-11,-371,376,-226
3650,-239,-42,-12,-359,363,-208
3655,-232,-40,-16,-371,353,-198
3660,-234,-42,-19,-393,350,-194
3665,-230,-38,-12,-415,351,-188
3670,-230,-36,-15,-437,353,-181
3675,-233,-34,-11,-462,347,-175
3680,-231,-29,-16,-486,350,-159
3685,-231,-32,-22,-502,361,-140
3690,-236,-29,-24,-505,375,-122
3695,-239,-33,-26,-501,391,-103
3700,-239,-31,-27,-497,403,-91
3705,-242,-33,-30,-502,419,-86
3710,-240,-31,-38,-512,445,-84
3715,-231,-24,-48,-520,480,-76
3720,-239,-29,-41,-520,523,-71
3725,-240,-29,-40,-514,558,-66
3730,-238,-32,-34,-509,579,-64
3735,-233,-28,-35,-503,590,-64
3740,-238,-25,-31,-507,592,-66
3745,-235,-22,-31,-523,591,-75
3750,-233,-21,-27,-558,591,-85
3755,-230,-23,-18,-606,581,-94
3760,-238,-25,-21,-657,567,-105
3765,-239,-23,-19,-697,556,-119
3770,-242,-26,-12,-724,536,-133
3775,-255,-20,-18,-735,512,-142
3780,-258,-23,-14,-737,479,-146
3785,-256,-16,-20,-722,449,-132
3790,-271,-7,-21,-705,416,-118
3795,-266,-8,-24,-702,353,-98
3800,-275,-3,-20,-702,324,-59
3805,-279,-2,-16,-700,284,-15
3810,-282,-3,-13,-710,201,19
3815,-262,-6,-4,-717,124,49
3820,-275,-3,-6,-714,92,83
3825,-272,0,3,-709,21,98
3830,-258,1,3,-703,-52,116
3835,-266,12,4,-674,-71,149
3840,-264,12,5,-643,-115,159
3845,-240,-1,2,-626,-179,154
3850,-245,-8,1,-597,-180,142
3855,-257,-14,4,-567,-166,87
3860,-277,-13,1,-546,-170,38
3865,-275,-22,5,-541,-208,-18
3870,-264,-23,2,-539,-227,-60
3875,-277,-16,-2,-510,-187,-76
3880,-284,0,0,-459,-173,-64
3885,-284,3,2,-389,-195,-30
3890,-274,19,1,-321,-238,19
3895,-266,26,2,-221,-275,108
3900,-257,27,0,-153,-322,161
3905,-252,29,0,-105,-367,205
3910,-251,25,1,-86,-411,244
3915,-247,26,0,-81,-448,256
3920,-253,24,0,-81,-463,272
3925,-253,22,-2,-90,-474,282
3930,-252,20,-12,-104,-484,280
3935,-255,23,-9,-117,-482,278
3940,-256,20,-13,-132,-474,275
3945,-251,20,-21,-151,-462,260
3950,-254,18,-23,-171,-443,237
3955,-249,10,-23,-190,-420,206
3960,-251,9,-23,-204,-401,171
3965,-254,13,-30,-202,-385,132
3970,-257,8,-26,-189,-366,96
3975,-260,10,-28,-167,-352,75
3980,-264,15,-38,-141,-337,65
3985,-258,10,-31,-111,-319,61
3990,-261,9,-32,-79,-302,58
3995,-263,10,-29,-46,-282,64
4000,-267,11,-35,-9,-268,71
4005,-262,7,-32,30,-254,81
4010,-263,6,-31,74,-248,95
4015,-264,3,-30,117,-251,117
4020,-265,3,-26,165,-264,135
4025,-262,4,-25,213,-289,140
4030,-265,3,-25,262,-317,137
4035,-267,0,-24,306,-351,130
4040,-266,4,-22,342,-389,107
4045,-261,5,-31,366,-432,80
4050,-259,8,-28,382,-466,51
4055,-265,11,-26,390,-490,17
4060,-267,15,-30,393,-511,-25
4065,-277,17,-35,390,-525,-57
4070,-275,14,-38,370,-529,-86
4075,-279,15,-43,327,-524,-116
4080,-277,8,-39,275,-513,-139
4085,-275,8,-32,223,-495,-160
4090,-272,1,-39,173,-475,-187
4095,-265,0,-40,133,-453,-207
4100,-260,-7,-37,103,-434,-219
4105,-259,-8,-37,90,-417,-225
4110,-255,-17,-36,91,-399,-224
4115,-255,-18,-38,111,-384,-220
4120,-252,-25,-39,150,-376,-215
4125,-254,-25,-41,194,-379,-202
4130,-254,-27,-42,231,-390,-179
4135,-258,-28,-37,262,-402,-150
4140,-259,-24,-39,293,-408,-117
4145,-260,-24,-35,328,-404,-87
4150,-258,-23,-31,362,-394,-65
4155,-256,-24,-35,387,-391,-49
4160,-254,-21,-43,401,-398,-33
4165,-248,-23,-42,408,-414,-20
4170,-254,-21,-41,416,-433,-9
4175,-249,-21,-37,422,-454,-2
4180,-251,-20,-27,435,-477,-2
4185,-250,-19,-28,454,-498,0
4190,-254,-17,-21,469,-523,-13
4195,-254,-22,-20,489,-546,-25
4200,-257,-19,-16,500,-566,-36
4205,-259,-19,-16,498,-576,-47
4210,-264,-16,-18,481,-576,-58
4215,-263,-22,-23,439,-572,-73
4220,-258,-29,-23,388,-561,-82
4225,-255,-37,-25,338,-553,-90
4230,-252,-41,-14,309,-542,-94
4235,-249,-48,-16,308,-540,-101
4240,-247,-45,-16,327,-545,-109
4245,-246,-43,-16,353,-564,-125
4250,-245,-49,-15,369,-592,-140
4255,-247,-41,-20,373,-620,-150
4260,-251,-43,-14,364,-638,-157
4265,-254,-43,-13,340,-643,-161
4270,-258,-44,-16,312,-641,-166
4275,-261,-45,-18,285,-632,-171
4280,-265,-45,-9,259,-622,-174
4285,-261,-44,-7,239,-607,-179
4290,-263,-45,-13,226,-591,-182
4295,-263,-45,-12,221,-572,-174
4300,-262,-43,-5,223,-553,-164
4305,-255,-53,-6,232,-531,-143
4310,-251,-45,3,238,-511,-121
4315,-247,-46,6,239,-487,-98
4320,-243,-51,10,241,-456,-78
4325,-233,-52,19,241,-419,-58
4330,-232,-52,17,247,-384,-38
4335,-228,-56,20,249,-355,-21
4340,-224,-52,30,251,-335,-10
4345,-224,-57,30,252,-327,0
4350,-225,-55,27,250,-336,6
4355,-226,-55,32,245,-358,8
4360,-224,-56,30,241,-378,8
4365,-234,-49,36,241,-389,4
4370,-232,-50,34,241,-388,4
4375,-239,-47,37,234,-382,2
4380,-234,-50,33,227,-363,3
4385,-238,-50,34,224,-339,1
4390,-244,-45,31,228,-314,0
4395,-243,-40,27,243,-293,-4
4400,-246,-41,28,278,-267,-8
4405,-247,-46,34,308,-260,-14
4410,-240,-48,44,328,-260,-10
4415,-241,-46,39,356,-259,-10
4420,-241,-46,38,395,-254,-9
4425,-239,-43,32,442,-232,-19
4430,-245,-39,34,497,-192,-23
4435,-239,-40,31,552,-157,-19
4440,-234,-41,28,605,-114,-20
4445,-239,-38,25,646,-55,-20
4450,-235,-41,25,680,-8,-24
4455,-240,-37,28,697,32,-30
4460,-239,-31,35,712,77,-35
4465,-244,-22,35,717,119,-39
4470,-242,-31,40,702,149,-37
4475,-247,-28,43,670,170,-41
4480,-246,-22,42,635,183,-40
4485,-250,-16,40,597,193,-30
4490,-247,-23,38,563,198,-5
4495,-249,-22,43,525,199,-1
4500,-256,-19,42,500,187,5
4505,-256,-19,42,498,181,26
4510,-257,-12,39,517,176,46
4515,-256,-6,37,546,176,69
4520,-257,-4,32,568,179,102
4525,-260,2,33,569,186,122
4530,-264,8,37,555,194,155
4535,-265,5,34,548,207,194
4540,-266,8,35,537,219,223
4545,-266,4,37,532,228,257
4550,-265,1,39,529,253,292
4555,-267,3,39,521,278,324
4560,-260,4,39,506,294,343
4565,-260,2,40,478,310,374
4570,-256,0,43,458,337,405
4575,-257,-1,40,437,362,412
4580,-256,0,34,412,374,413
4585,-251,2,30,378,383,421
4590,-248,1,31,343,399,438
4595,-247,6,34,304,423,439
4600,-245,6,25,269,438,419
4605,-246,6,23,232,441,397
4610,-248,5,22,186,433,376
4615,-240,5,20,134,423,348
4620,-240,2,19,88,428,333
4625,-244,1,16,48,437,327
4630,-244,-2,14,14,444,328
4635,-242,-7,15,-6,450,327
4640,-245,-5,12,-9,458,316
4645,-250,-6,9,1,469,292
4650,-252,-2,13,16,473,257
4655,-253,0,13,35,471,221
4660,-253,0,13,50,459,194
4665,-255,-1,15,61,440,177
4670,-257,4,16,72,427,158
4675,-263,4,15,80,412,141
4680,-267,3,11,82,399,128
4685,-269,10,11,79,388,117
4690,-271,13,11,69,377,109
4695,-271,15,10,54,367,101
4700,-270,15,7,37,363,96
4705,-271,11,10,11,359,96
4710,-266,18,4,-15,356,96
4715,-266,14,3,-43,353,98
4720,-263,19,5,-72,352,101
4725,-259,13,7,-104,358,104
4730,-257,15,5,-136,363,107
4735,-256,12,1,-164,370,113
4740,-254,11,7,-186,380,117
4745,-253,4,1,-202,390,122
4750,-245,5,2,-211,396,126
4755,-247,1,1,-208,403,128
4760,-244,2,1,-200,404,133
4765,-247,-1,-2,-183,404,136
4770,-247,2,0,-160,407,140
4775,-246,1,-5,-128,408,142
4780,-247,5,0,-94,407,143
4785,-247,3,-4,-61,406,142
4790,-252,9,-2,-30,403,142
4795,-252,7,3,7,397,143
4800,-254,12,0,43,390,143
4805,-253,15,-1,73,377,145
4810,-256,12,0,92,361,144
4815,-256,16,-1,102,344,143
4820,-260,14,-2,104,323,143
4825,-264,17,-4,100,308,143
4830,-259,9,-1,93,298,143
4835,-262,10,-2,85,292,144
4840,-260,8,-2,80,290,144
4845,-263,10,-6,83,290,142
4850,-265,11,-7,97,286,141
4855,-269,12,-9,116,278,140
4860,-272,10,-10,138,267,135
4865,-274,11,-10,163,257,130
4870,-275,12,-14,190,248,129
4875,-273,8,-16,211,242,121
4880,-277,13,-19,224,241,116
4885,-274,15,-21,229,240,107
4890,-275,15,-19,226,239,97
4895,-275,19,-24,218,238,89
4900,-272,20,-25,206,234,83
4905,-270,20,-27,193,227,76
4910,-266,20,-26,182,216,72
4915,-263,20,-27,175,203,66
4920,-260,19,-27,173,185,59
4925,-259,20,-29,174,166,56
4930,-256,18,-22,178,143,52
4935,-255,17,-28,184,124,47
4940,-255,15,-23,186,102,43
4945,-257,21,-28,181,82,36
4950,-257,19,-26,172,63,28
4955,-256,14,-25,162,44,22
4960,-255,18,-22,155,27,15
4965,-255,13,-17,150,8,13
4970,-257,14,-21,145,-8,11
4975,-257,17,-19,145,-21,8
4980,-257,16,-14,145,-30,3
4985,-260,17,-23,145,-37,-1
4990,-259,18,-22,141,-42,-6
4995,-258,13,-20,136,-44,-10
5000,-258,25,-22,131,-42,-15
5005,-259,11,-18,124,-38,-17
5010,-256,8,-18,116,-39,-22
5015,-256,6,-17,117,-43,-33
5020,-256,6,-12,117,-42,-29
5025,-255,4,-14,123,-36,-28
5030,-258,7,-16,133,-35,-31
5035,-258,9,-8,143,-40,-31
5040,-257,9,-9,156,-48,-32
5045,-260,8,-9,171,-59,-34
5050,-255,11,-11,179,-71,-38
5055,-256,14,-10,184,-85,-36
5060,-259,11,-8,185,-103,-35
5065,-257,11,-14,178,-115,-39
5070,-256,11,-7,169,-123,-46
5075,-259,13,-10,158,-133,-48
5080,-257,12,-7,145,-146,-52
5085,-257,15,-13,131,-157,-54
5090,-259,12,-13,117,-170,-52
5095,-263,14,-12,102,-180,-51
5100,-257,11,-14,92,-185,-55
5105,-263,8,-15,84,-188,-59
5110,-258,8,-12,76,-187,-62
5115,-258,8,-10,70,-187,-62
5120,-260,10,-13,66,-185,-62
5125,-257,8,-13,64,-181,-62
5130,-257,8,-12,66,-177,-60
5135,-261,8,-6,70,-171,-61
5140,-259,6,-15,81,-162,-65
5145,-255,6,-4,93,-154,-66
5150,-255,7,-7,105,-151,-66
5155,-256,9,-2,114,-149,-63
5160,-256,7,-1,116,-148,-62
5165,-256,7,-8,114,-147,-60
5170,-257,10,-4,107,-145,-62
5175,-254,10,-2,93,-139,-63
5180,-255,10,-6,77,-134,-65
5185,-254,6,-5,60,-132,-65
5190,-253,5,-2,42,-128,-69
5195,-254,4,-5,26,-125,-69
5200,-253,5,-4,14,-124,-70
5205,-254,4,0,5,-124,-74
5210,-255,3,-6,0,-124,-74
5215,-255,5,0,-3,-124,-74
5220,-253,4,0,-4,-126,-75
5225,-256,7,0,-7,-127,-78
5230,-253,3,-1,-7,-131,-79
5235,-255,5,1,-9,-137,-79
5240,-255,4,5,-11,-142,-81
5245,-256,8,3,-15,-145,-82
5250,-256,6,-2,-18,-146,-80
5255,-256,6,0,-22,-148,-79
5260,-260,6,2,-23,-150,-77
5265,-257,6,7,-24,-152,-78
5270,-256,1,4,-25,-155,-74
5275,-261,11,1,-24,-157,-75
5280,-258,7,2,-25,-160,-76
5285,-256,7,-1,-25,-163,-76
5290,-258,9,0,-25,-165,-76
5295,-256,7,0,-27,-167,-80
5300,-258,10,2,-32,-165,-81
5305,-258,5,0,-36,-167,-83
5310,-256,7,0,-40,-168,-84
5315,-257,7,0,-45,-168,-85
5320,-259,6,-7,-50,-167,-86
5325,-258,8,5,-53,-168,-87
5330,-256,3,3,-57,-167,-84
5335,-258,5,4,-59,-168,-83
5340,-257,6,5,-60,-167,-81
5345,-260,7,6,-60,-171,-80
5350,-258,1,10,-67,-175,-79
5355,-258,3,11,-71,-180,-80
5360,-263,6,5,-80,-185,-83
5365,-266,5,10,-90,-193,-81
5370,-263,1,12,-100,-198,-81
5375,-266,4,13,-105,-197,-81
5380,-263,3,5,-105,-194,-77
5385,-263,4,4,-103,-188,-75
5390,-261,1,5,-104,-181,-75
5395,-263,4,4,-101,-174,-74
5400,-261,1,1,-96,-167,-73
5405,-261,0,3,-89,-160,-74
5410,-261,0,9,-79,-157,-75
5415,-263,0,6,-66,-157,-74
5420,-264,1,5,-51,-162,-76
5425,-262,-1,15,-36,-168,-76
5430,-262,1,10,-28,-172,-78
5435,-264,0,7,-25,-172,-79
5440,-262,0,7,-25,-172,-77
5445,-262,-5,11,-20,-162,-76
5450,-265,-5,15,-12,-145,-73
5455,-264,-7,17,8,-125,-67
5460,-261,-1,16,34,-105,-59
5465,-262,-4,21,66,-80,-50
5470,-267,-8,30,108,-53,-36
5475,-266,-9,39,169,-38,-29
5480,-269,-4,37,241,-31,-14
5485,-271,-6,32,322,-22,-6
5490,-274,-9,32,380,-5,3
5495,-274,-14,30,430,23,13
5500,-282,-17,20,475,63,14
5505,-289,-18,14,516,122,17
5510,-296,-23,1,561,203,13
5515,-305,-26,-11,615,317,5
5520,-305,-32,-27,695,462,-6
5525,-305,-33,-50,805,626,-17
5530,-303,-28,-64,938,780,-13
5535,-301,-19,-72,1070,899,0
5540,-292,-11,-84,1147,978,20
5545,-279,-3,-81,1157,1009,38
5550,-267,-5,-65,1127,994,50
5555,-256,-8,-45,1075,939,59
5560,-247,-11,-29,1042,849,58
5565,-241,-18,-16,1044,722,43
5570,-229,-19,-1,1065,577,21
5575,-224,-30,12,1087,419,-18
5580,-210,-32,25,1097,249,-63
5585,-215,-35,35,1110,82,-130
5590,-216,-41,42,1129,-69,-196
5595,-216,-33,39,1162,-187,-237
5600,-216,-25,31,1198,-260,-270
5605,-220,-12,19,1210,-287,-295
5610,-225,-1,9,1174,-286,-309
5615,-231,3,2,1100,-276,-329
5620,-238,1,-2,1002,-265,-344
5625,-236,-5,3,906,-249,-354
5630,-242,-11,8,826,-234,-362
5635,-239,-16,17,776,-223,-371
5640,-239,-20,16,752,-208,-388
5645,-248,-34,22,737,-197,-405
5650,-252,-36,23,724,-205,-424
5655,-258,-37,27,703,-233,-459
5660,-264,-47,25,693,-265,-499
5665,-275,-44,20,701,-281,-534
5670,-286,-44,11,723,-286,-563
5675,-289,-41,4,748,-293,-579
5680,-294,-39,-2,773,-311,-594
5685,-302,-37,-2,799,-348,-605
5690,-299,-38,0,825,-419,-605
5695,-299,-33,-1,857,-504,-602
5700,-287,-30,9,883,-594,-602
5705,-279,-28,14,900,-677,-613
5710,-274,-29,15,903,-757,-638
5715,-270,-35,22,883,-827,-677
5720,-265,-40,25,852,-874,-715
5725,-263,-48,31,815,-894,-761
5730,-259,-60,44,796,-909,-804
5735,-259,-61,46,808,-921,-840
5740,-256,-61,46,838,-933,-864
5745,-252,-61,48,875,-931,-877
5750,-254,-54,37,916,-903,-876
5755,-253,-51,37,957,-861,-858
5760,-253,-48,39,984,-825,-827
5765,-248,-47,50,1000,-804,-792
5770,-247,-47,56,1007,-798,-758
5775,-242,-50,55,1006,-803,-731
5780,-249,-48,57,998,-808,-707
5785,-247,-43,54,983,-817,-682
5790,-249,-44,53,963,-818,-658
5795,-235,-45,55,938,-817,-635
5800,-239,-43,56,916,-816,-615
5805,-227,-38,51,891,-821,-599
5810,-228,-29,56,854,-830,-596
5815,-225,-26,52,817,-841,-600
5820,-227,-20,47,775,-832,-612
5825,-238,-13,44,737,-795,-629
5830,-236,-7,37,725,-739,-643
5835,-234,-6,30,728,-668,-642
5840,-224,0,27,733,-599,-629
5845,-214,-6,30,730,-535,-616
5850,-207,-14,34,719,-504,-614
5855,-201,-10,38,706,-490,-625
5860,-194,-26,38,682,-473,-650
5865,-192,-36,41,662,-440,-675
5870,-188,-42,45,651,-394,-702
5875,-184,-52,48,662,-331,-721
5880,-184,-50,46,692,-268,-728
5885,-187,-42,42,719,-216,-727
5890,-188,-39,39,737,-168,-723
5895,-188,-30,38,749,-117,-708
5900,-191,-29,33,739,-71,-685
5905,-196,-25,33,709,-36,-664
5910,-190,-26,32,666,-12,-644
5915,-192,-26,38,621,22,-626
5920,-192,-31,42,574,85,-605
5925,-195,-32,53,533,168,-588
5930,-207,-26,59,501,231,-570
5935,-209,-29,58,477,282,-546
5940,-220,-19,53,457,347,-510
5945,-227,-9,47,426,420,-461
5950,-238,1,38,389,483,-396
5955,-240,5,36,338,528,-332
5960,-244,8,34,284,561,-284
5965,-254,8,25,238,582,-249
5970,-260,4,22,207,594,-220
5975,-265,0,12,190,614,-182
5980,-278,1,12,190,655,-139
5985,-274,-5,11,198,671,-100
5990,-262,-9,8,201,659,-70
5995,-258,-10,12,201,655,-50
6000,-253,-10,10,198,657,-35
6005,-251,-4,17,186,637,-35
6010,-254,-4,19,164,608,-32
6015,-250,-9,24,133,569,-30
6020,-256,-10,27,101,533,-38
6025,-249,-21,28,75,497,-50
6030,-247,-20,28,60,464,-76
6035,-245,-26,30,57,448,-106
6040,-252,-23,33,65,424,-137
6045,-256,-19,30,57,373,-170
6050,-259,-16,32,34,330,-191
6055,-260,-24,36,-1,295,-200
6060,-276,-15,44,-36,269,-206
6065,-290,-12,51,-71,229,-193
6070,-299,-6,59,-104,173,-179
6075,-299,-16,59,-137,133,-171
6080,-312,-11,66,-171,116,-173
6085,-305,-20,71,-193,105,-174
6090,-295,-23,69,-186,114,-177
6095,-287,-28,67,-155,138,-157
6100,-269,-30,70,-115,139,-122
6105,-258,-36,65,-68,141,-101
6110,-243,-39,69,-31,159,-100
6115,-232,-42,76,-29,196,-88
6120,-216,-49,78,-61,239,-54
6125,-218,-56,89,-122,287,-16
6130,-222,-50,93,-184,316,10
6135,-218,-55,81,-241,313,30
6140,-228,-57,66,-295,296,32
6145,-230,-53,53,-347,267,27
6150,-241,-58,42,-407,240,-1
6155,-246,-64,32,-458,214,-4
6160,-249,-59,33,-481,199,-2
6165,-250,-65,34,-488,182,-9
6170,-254,-62,31,-490,155,-37
6175,-257,-62,31,-495,117,-44
6180,-256,-60,35,-513,92,-62
6185,-265,-57,21,-537,86,-107
6190,-256,-63,17,-571,84,-172
6195,-258,-68,13,-586,87,-218
6200,-260,-73,7,-577,110,-270
6205,-264,-66,6,-558,123,-333
6210,-251,-78,0,-554,101,-377
6215,-257,-69,-6,-545,115,-428
6220,-257,-65,-10,-549,128,-469
6225,-256,-62,-17,-583,139,-499
6230,-263,-67,-21,-611,184,-545
6235,-261,-65,-10,-632,223,-592
6240,-258,-68,-12,-630,233,-614
6245,-252,-73,-10,-603,234,-637
6250,-256,-68,-3,-574,256,-632
6255,-271,-64,-2,-541,249,-626
6260,-276,-59,26,-516,230,-655
6265,-246,-79,-6,-471,237,-692
6270,-244,-86,0,-405,307,-595
6275,-272,-75,-2,-371,352,-551
6280,-262,-77,1,-371,301,-532
6285,-252,-90,12,-369,301,-491
6290,-247,-96,6,-372,344,-473
6295,-236,-99,12,-395,403,-411
6300,-255,-81,4,-466,486,-333
6305,-263,-68,2,-493,476,-366
6310,-236,-74,0,-448,415,-414
6315,-237,-81,3,-378,420,-455
6320,-241,-80,-1,-332,468,-469
6325,-242,-73,4,-332,508,-467
6330,-234,-85,1,-360,535,-458
6335,-241,-80,6,-396,566,-446
6340,-240,-85,5,-422,595,-432
6345,-243,-83,14,-439,596,-420
6350,-229,-93,13,-436,587,-403
6355,-232,-95,15,-416,604,-400
6360,-236,-97,16,-397,611,-396
6365,-240,-94,10,-391,611,-392
6370,-241,-89,2,-396,606,-390
6375,-239,-86,-1,-411,598,-388
6380,-235,-87,-7,-423,597,-387
6385,-233,-87,0,-426,585,-392
6390,-228,-83,0,-421,579,-399
6395,-226,-88,0,-428,573,-407
6400,-228,-84,-4,-441,574,-415
6405,-223,-93,-7,-467,569,-423
6410,-227,-97,-2,-492,570,-436
6415,-230,-98,-2,-495,575,-445
6420,-232,-102,-4,-491,559,-456
6425,-235,-98,-4,-480,539,-465
6430,-237,-99,-1,-470,508,-474
6435,-234,-99,0,-472,472,-493
6440,-235,-97,-1,-471,456,-502
6445,-233,-93,-10,-471,449,-507
6450,-233,-93,-11,-475,445,-507
6455,-232,-91,-9,-480,441,-500
6460,-232,-95,-6,-477,437,-487
6465,-229,-102,-3,-458,439,-475
6470,-232,-104,4,-441,438,-466
6475,-235,-103,0,-440,441,-464
6480,-228,-102,-3,-448,446,-460
6485,-225,-102,-11,-451,449,-454
6490,-222,-108,-6,-445,444,-446
6495,-217,-107,-10,-435,430,-443
6500,-220,-107,-11,-425,418,-438
6505,-222,-107,-13,-420,401,-437
6510,-223,-106,-11,-423,393,-436
6515,-226,-106,-15,-430,392,-435
6520,-224,-106,-21,-434,397,-437
6525,-222,-109,-29,-434,400,-439
6530,-222,-107,-29,-428,412,-434
6535,-224,-107,-32,-427,413,-432
6540,-227,-111,-34,-422,414,-427
6545,-226,-111,-33,-411,415,-425
6550,-228,-114,-31,-400,416,-417
6555,-227,-111,-31,-384,417,-407
6560,-221,-111,-28,-379,405,-406
6565,-224,-116,-26,-384,386,-410
6570,-222,-119,-31,-382,389,-410
6575,-224,-123,-39,-386,394,-410
6580,-220,-129,-38,-390,405,-409
6585,-222,-130,-43,-380,434,-390
6590,-216,-129,-45,-353,458,-366
6595,-210,-132,-38,-321,475,-339
6600,-213,-126,-41,-299,487,-315
6605,-207,-123,-38,-288,499,-293
6610,-209,-124,-47,-293,511,-275
6615,-211,-127,-40,-291,539,-256
6620,-213,-123,-36,-284,562,-245
6625,-212,-123,-32,-274,575,-241
6630,-214,-122,-41,-273,581,-247
6635,-217,-121,-45,-282,584,-258
6640,-216,-121,-51,-297,592,-266
6645,-219,-119,-56,-298,605,-268
6650,-219,-116,-58,-291,613,-269
6655,-222,-117,-60,-285,620,-271
6660,-217,-115,-55,-279,623,-272
6665,-217,-118,-56,-278,617,-277
6670,-218,-118,-54,-280,613,-281
6675,-222,-116,-55,-284,618,-284
6680,-225,-116,-52,-291,619,-294
6685,-224,-114,-57,-297,621,-306
6690,-221,-118,-57,-295,624,-323
6695,-218,-121,-61,-298,619,-345
6700,-215,-122,-61,-297,623,-357
6705,-212,-124,-63,-291,630,-368
6710,-216,-116,-64,-286,631,-378
6715,-209,-118,-64,-280,635,-388
6720,-205,-118,-72,-275,633,-401
6725,-205,-124,-66,-266,634,-411
6730,-202,-121,-65,-251,637,-422
6735,-204,-118,-65,-237,633,-436
6740,-208,-120,-66,-231,625,-456
6745,-208,-122,-69,-230,621,-473
6750,-208,-119,-72,-227,623,-489
6755,-205,-123,-72,-221,622,-507
6760,-206,-123,-77,-208,621,-522
6765,-206,-124,-75,-191,620,-531
6770,-209,-123,-76,-188,613,-544
6775,-214,-124,-70,-202,614,-560
6780,-214,-122,-74,-218,626,-564
6785,-217,-121,-76,-229,636,-568
6790,-216,-122,-76,-235,636,-578
6795,-189,-157,-96,-231,633,-588
6800,-208,-119,-79,-277,625,-660
6805,-208,-125,-86,-241,626,-605
6810,-207,-119,-83,-190,609,-583
6815,-204,-124,-87,-162,596,-576
6820,-202,-121,-87,-146,591,-572
6825,-203,-124,-86,-141,589,-568
6830,-196,-123,-84,-147,589,-565
6835,-196,-124,-83,-154,590,-562
6840,-200,-124,-87,-158,595,-556
6845,-190,-144,-92,-159,606,-549
6850,-198,-125,-89,-187,616,-573
6855,-201,-127,-88,-185,633,-544
6860,-201,-126,-86,-166,636,-532
6865,-200,-129,-90,-151,641,-527
6870,-197,-133,-91,-142,642,-523
6875,-201,-130,-97,-137,639,-518
6880,-195,-134,-98,-135,635,-510
6885,-197,-131,-96,-129,622,-505
6890,-199,-132,-100,-112,605,-503
6895,-199,-132,-99,-85,581,-502
6900,-199,-138,-103,-60,559,-503
6905,-200,-139,-103,-35,542,-504
6910,-195,-136,-100,-15,526,-511
6915,-195,-138,-98,0,510,-521
6920,-193,-135,-96,15,494,-531
6925,-196,-133,-95,28,479,-542
6930,-200,-132,-93,49,472,-549
6935,-195,-131,-94,67,471,-563
6940,-190,-131,-91,86,468,-579
6945,-186,-128,-93,97,461,-592
6950,-180,-129,-95,92,453,-610
6955,-184,-129,-90,77,438,-623
6960,-179,-129,-96,59,422,-629
6965,-179,-133,-95,45,413,-634
6970,-185,-133,-100,36,405,-639
6975,-186,-131,-105,32,396,-645
6980,-185,-138,-107,39,395,-652
6985,-187,-143,-115,52,388,-657
6990,-189,-147,-111,66,379,-661
6995,-187,-150,-119,79,363,-665
7000,-187,-142,-121,94,354,-666
7005,-181,-141,-123,107,346,-658
7010,-180,-140,-119,111,338,-650
7015,-181,-141,-123,113,336,-637
7020,-179,-137,-118,117,335,-623
7025,-183,-133,-119,119,328,-612
7030,-175,-138,-118,119,320,-602
7035,-170,-135,-113,117,312,-598
7040,-167,-137,-114,115,311,-593
7045,-156,-142,-115,108,320,-590
7050,-153,-141,-115,97,337,-588
7055,-148,-144,-109,79,349,-590
7060,-150,-142,-111,54,351,-595
7065,-147,-144,-119,26,345,-592
7070,-146,-140,-115,1,341,-583
7075,-150,-143,-121,-20,342,-574
7080,-145,-146,-120,-37,349,-560
7085,-146,-150,-127,-47,359,-550
7090,-141,-147,-126,-49,374,-535
7095,-141,-154,-127,-50,387,-521
7100,-144,-154,-126,-51,398,-511
7105,-145,-156,-129,-50,406,-503
7110,-145,-158,-128,-46,414,-491
7115,-147,-162,-130,-38,418,-479
7120,-146,-164,-128,-33,417,-467
7125,-146,-168,-127,-33,412,-457
7130,-145,-169,-122,-32,401,-442
7135,-144,-165,-119,-35,384,-431
7140,-144,-165,-120,-44,361,-420
7145,-144,-166,-120,-60,341,-407
7150,-145,-166,-120,-78,330,-398
7155,-141,-166,-127,-95,330,-391
7160,-138,-165,-123,-114,333,-388
7165,-138,-166,-122,-129,338,-383
7170,-136,-167,-125,-142,343,-383
7175,-131,-166,-125,-149,345,-381
7180,-132,-169,-125,-151,342,-383
7185,-131,-171,-129,-156,342,-386
7190,-129,-170,-126,-163,341,-389
7195,-132,-174,-131,-170,344,-396
7200,-128,-178,-134,-179,346,-402
7205,-125,-177,-131,-186,347,-407
7210,-121,-181,-137,-192,346,-412
7215,-121,-180,-135,-195,346,-413
7220,-120,-183,-134,-192,348,-418
7225,-116,-182,-137,-186,352,-421
7230,-115,-181,-137,-174,352,-429
7235,-110,-183,-140,-165,353,-436
7240,-113,-184,-142,-154,349,-443
7245,-104,-183,-140,-146,345,-450
7250,-113,-174,-138,-139,341,-455
7255,-112,-175,-145,-128,341,-457
7260,-107,-173,-142,-115,341,-459
7265,-113,-170,-141,-104,344,-462
7270,-108,-168,-135,-98,347,-468
7275,-107,-168,-136,-93,347,-467
7280,-110,-168,-138,-85,349,-465
7285,-108,-167,-138,-81,348,-466
7290,-106,-171,-134,-81,347,-470
7295,-108,-167,-139,-84,347,-476
7300,-107,-173,-135,-90,350,-478
7305,-111,-171,-140,-91,356,-484
7310,-108,-171,-143,-91,364,-493
7315,-107,-174,-142,-93,373,-497
7320,-109,-179,-142,-94,378,-503
7325,-111,-172,-148,-94,383,-513
7330,-110,-171,-147,-100,386,-524
7335,-108,-170,-148,-106,383,-532
7340,-103,-174,-144,-112,376,-540
7345,-103,-177,-143,-112,366,-547
7350,-104,-174,-141,-105,350,-552
7355,-105,-178,-143,-93,333,-553
7360,-108,-177,-145,-75,315,-559
7365,-110,-179,-141,-56,298,-561
7370,-109,-178,-142,-34,280,-563
7375,-103,-175,-142,-19,266,-565
7380,-107,-178,-138,-7,259,-566
7385,-105,-179,-142,5,247,-564
7390,-107,-177,-140,19,231,-569
7395,-107,-176,-136,37,215,-572
7400,-105,-175,-139,57,199,-578
7405,-109,-172,-146,78,183,-581
7410,-107,-175,-137,97,170,-587
7415,-99,-177,-138,114,160,-589
7420,-98,-178,-141,127,155,-589
7425,-102,-177,-140,136,149,-589
7430,-93,-183,-138,139,146,-590
7435,-93,-186,-138,135,144,-587
7440,-91,-186,-143,126,144,-584
7445,-84,-189,-143,114,146,-575
7450,-86,-188,-142,98,153,-566
7455,-82,-186,-140,83,158,-551
7460,-78,-189,-142,71,164,-538
7465,-78,-186,-142,64,171,-523
7470,-80,-190,-143,62,175,-507
7475,-81,-189,-142,68,178,-492
7480,-80,-188,-141,81,178,-477
7485,-82,-189,-143,100,180,-465
7490,-79,-191,-140,119,182,-454
7495,-85,-191,-145,133,184,-446
7500,-84,-189,-147,141,183,-442
7505,-87,-189,-139,147,181,-437
7510,-89,-191,-139,148,177,-431
7515,-92,-189,-140,150,166,-425
7520,-94,-189,-140,157,153,-417
7525,-90,-187,-138,167,140,-409
7530,-93,-190,-139,179,126,-401
7535,-90,-191,-138,192,113,-396
7540,-87,-190,-138,202,97,-390
7545,-85,-191,-140,211,84,-387
7550,-84,-187,-138,214,72,-386
7555,-84,-189,-141,212,63,-382
7560,-81,-192,-141,206,57,-380
7565,-77,-190,-140,195,57,-377
7570,-80,-192,-144,181,61,-375
7575,-78,-193,-140,167,66,-373
7580,-75,-193,-135,154,71,-373
7585,-74,-193,-131,147,74,-375
7590,-77,-194,-138,144,75,-380
7595,-76,-191,-132,147,76,-385
7600,-70,-191,-132,156,75,-390
7605,-74,-189,-132,169,73,-396
7610,-72,-190,-136,182,71,-400
7615,-68,-190,-130,195,70,-407
7620,-70,-187,-136,210,68,-406
7625,-68,-188,-136,228,68,-407
7630,-70,-185,-133,246,69,-404
7635,-68,-189,-132,264,72,-402
7640,-71,-188,-136,278,79,-394
7645,-81,-193,-120,289,83,-387
7650,-76,-192,-128,291,81,-380
7655,-78,-190,-126,287,76,-372
7660,-76,-190,-127,282,68,-366
7665,-81,-188,-129,281,61,-360
7670,-76,-189,-128,278,55,-353
7675,-75,-191,-130,276,48,-348
7680,-78,-187,-132,272,39,-341
7685,-76,-188,-135,267,31,-336
7690,-79,-190,-136,265,28,-329
7695,-81,-190,-139,265,30,-321
7700,-81,-192,-145,264,37,-309
7705,-80,-194,-139,266,48,-300
7710,-87,-192,-140,270,60,-289
7715,-86,-191,-139,272,71,-274
7720,-87,-192,-145,272,81,-258
7725,-87,-193,-138,265,91,-242
7730,-87,-192,-134,256,95,-228
7735,-86,-195,-134,244,94,-220
7740,-87,-196,-129,233,88,-210
7745,-89,-194,-136,229,83,-198
7750,-88,-195,-132,230,78,-185
7755,-88,-190,-129,238,75,-171
7760,-86,-196,-133,243,71,-154
7765,-87,-195,-124,247,68,-139
7770,-89,-193,-128,241,67,-125
7775,-83,-195,-129,230,63,-112
7780,-83,-200,-130,213,59,-107
7785,-87,-195,-127,194,56,-100
7790,-84,-198,-126,178,53,-95
7795,-83,-196,-130,168,49,-88
7800,-80,-200,-128,163,45,-84
7805,-77,-202,-131,162,38,-82
7810,-78,-207,-128,164,29,-82
7815,-79,-200,-125,170,19,-81
7820,-77,-201,-130,178,9,-81
7825,-75,-201,-129,189,-1,-77
7830,-76,-200,-128,198,-8,-73
7835,-77,-201,-128,207,-11,-68
7840,-77,-199,-127,212,-13,-61
7845,-80,-200,-125,211,-13,-60
7850,-78,-197,-124,206,-11,-59
7855,-77,-200,-124,198,-5,-62
7860,-77,-201,-118,185,2,-65
7865,-78,-198,-117,174,9,-72
7870,-75,-203,-124,165,16,-75
7875,-75,-203,-120,159,21,-81
7880,-76,-201,-120,159,24,-84
7885,-75,-201,-116,162,25,-84
7890,-73,-205,-118,169,26,-84
7895,-75,-204,-115,180,25,-86
7900,-77,-202,-115,192,24,-85
7905,-78,-202,-120,205,24,-86
7910,-80,-198,-119,214,25,-83
7915,-78,-202,-122,216,32,-82
7920,-72,-201,-121,214,40,-83
7925,-72,-203,-118,209,48,-83
7930,-77,-202,-120,201,56,-87
7935,-74,-202,-116,188,64,-91
7940,-75,-203,-117,175,74,-100
7945,-76,-201,-121,161,84,-109
7950,-81,-202,-123,148,96,-114
7955,-79,-204,-124,141,111,-119
7960,-75,-206,-127,139,129,-121
7965,-73,-199,-117,139,147,-122
7970,-70,-211,-126,139,167,-123
7975,-71,-199,-120,134,185,-129
7980,-71,-200,-122,127,206,-132
7985,-66,-200,-122,118,223,-136
7990,-66,-198,-122,104,238,-136
7995,-63,-202,-127,89,252,-130
8000,-59,-197,-125,79,267,-119
8005,-51,-199,-124,70,279,-109
8010,-52,-197,-128,59,291,-101
8015,-48,-201,-125,44,296,-97
8020,-47,-199,-123,29,303,-95
8025,-47,-205,-130,18,308,-96
8030,-42,-207,-126,5,312,-96
8035,-44,-206,-124,-6,313,-95
8040,-41,-204,-121,-11,317,-96
8045,-39,-209,-122,-13,316,-98
8050,-38,-211,-122,-11,314,-104
8055,-40,-210,-126,-9,312,-113
8060,-43,-212,-123,-4,308,-122
8065,-41,-209,-128,5,304,-132
8070,-45,-209,-124,16,301,-144
8075,-43,-211,-124,29,298,-157
8080,-49,-208,-130,44,295,-173
8085,-42,-213,-129,58,291,-192
8090,-41,-213,-130,71,287,-212
8095,-45,-208,-131,84,283,-228
8100,-47,-217,-127,93,276,-247
8105,-47,-218,-129,121,259,-265
8110,-45,-217,-129,154,245,-280
8115,-48,-214,-133,182,232,-288
8120,-48,-210,-130,203,216,-293
8125,-47,-212,-131,216,198,-293
8130,-50,-211,-132,222,183,-292
8135,-51,-207,-133,220,165,-285
8140,-43,-210,-130,214,149,-280
8145,-43,-209,-130,200,141,-275
8150,-45,-207,-127,181,128,-277
8155,-44,-211,-129,162,121,-278
8160,-49,-207,-130,149,116,-279
8165,-46,-212,-129,142,107,-273
8170,-50,-209,-128,144,102,-270
8175,-46,-217,-129,153,92,-265
8180,-45,-214,-133,170,80,-263
8185,-43,-213,-137,194,70,-262
8190,-35,-210,-138,215,61,-262
8195,-33,-213,-137,232,58,-266
8200,-30,-212,-135,243,64,-271
8205,-28,-214,-134,259,70,-272
8210,-22,-211,-136,268,75,-274
8215,-18,-208,-136,268,83,-276
8220,-15,-212,-130,266,89,-277
8225,-7,-210,-130,258,93,-281
8230,-10,-211,-132,237,92,-284
8235,-2,-213,-131,210,90,-287
8240,-2,-214,-125,179,94,-288
8245,-4,-222,-124,148,98,-288
8250,0,-218,-126,123,104,-289
8255,1,-219,-124,105,112,-290
8260,0,-221,-123,92,124,-294
8265,-4,-222,-122,83,134,-297
8270,-4,-221,-121,79,138,-301
8275,-1,-224,-128,82,146,-303
8280,-7,-228,-119,89,155,-301
8285,-4,-224,-120,100,157,-301
8290,-5,-224,-123,115,161,-298
8295,-7,-223,-116,126,168,-297
8300,-17,-221,-120,131,169,-296
8305,-11,-223,-119,134,171,-293
8310,-16,-222,-118,136,175,-293
8315,-16,-225,-117,132,178,-290
8320,-18,-224,-117,128,179,-286
8325,-17,-221,-114,127,181,-284
8330,-24,-224,-116,130,180,-279
8335,-22,-227,-113,136,178,-271
8340,-24,-227,-120,145,174,-264
8345,-26,-222,-118,157,169,-259
8350,-26,-226,-118,168,163,-254
8355,-27,-221,-111,175,157,-250
8360,-29,-221,-117,176,147,-245
8365,-27,-219,-119,174,135,-238
8370,-27,-218,-119,169,123,-230
8375,-27,-217,-120,163,111,-221
8380,-27,-216,-117,157,99,-214
8385,-25,-213,-117,152,87,-206
8390,-24,-215,-116,146,74,-200
8395,-20,-219,-121,139,64,-195
8400,-25,-216,-119,137,54,-193
8405,-21,-214,-119,133,42,-190
8410,-21,-214,-120,128,33,-188
8415,-20,-220,-118,122,22,-186
8420,-21,-217,-120,119,15,-184
8425,-17,-219,-119,115,13,-182
8430,-21,-217,-119,113,11,-182
8435,-19,-220,-119,116,8,-182
8440,-20,-222,-120,121,9,-182
8445,-23,-221,-119,128,8,-185
8450,-20,-220,-119,136,11,-186
8455,-21,-222,-117,146,10,-190
8460,-22,-226,-116,152,8,-195
8465,-23,-222,-115,160,5,-200
8470,-23,-224,-119,163,0,-199
8475,-23,-224,-120,164,-5,-200
8480,-21,-223,-121,162,-13,-197
8485,-20,-221,-123,161,-19,-195
8490,-22,-217,-121,157,-25,-191
8495,-21,-219,-121,155,-29,-189
8500,-24,-215,-124,155,-29,-186
8505,-24,-215,-124,155,-28,-184
8510,-24,-209,-127,157,-27,-181
8515,-32,-209,-129,157,-25,-178
8520,-27,-211,-121,154,-21,-177
8525,-22,-212,-132,148,-18,-171
8530,-20,-214,-122,140,-12,-166
8535,-22,-215,-121,131,-5,-159
8540,-20,-213,-121,122,0,-152
8545,-20,-216,-117,113,3,-147
8550,-21,-212,-112,104,6,-144
8555,-21,-213,-118,98,4,-143
8560,-21,-216,-116,95,3,-139
8565,-22,-218,-114,96,2,-137
8570,-19,-221,-123,102,-1,-135
8575,-24,-218,-112,112,-3,-132
8580,-23,-218,-119,124,-4,-129
8585,-20,-218,-114,133,-6,-125
8590,-23,-220,-116,141,-4,-119
8595,-20,-219,-115,145,-1,-116
8600,-20,-220,-115,142,4,-112
8605,-19,-218,-112,137,11,-106
8610,-16,-220,-117,130,18,-102
8615,-17,-220,-115,122,24,-95
8620,-18,-220,-113,116,30,-89
8625,-14,-223,-116,114,33,-83
8630,-16,-220,-112,113,36,-77
8635,-13,-222,-111,115,36,-74
8640,-14,-219,-113,121,37,-68
8645,-14,-222,-116,127,34,-64
8650,-12,-222,-113,134,32,-63
8655,-9,-224,-115,140,28,-61
8660,-12,-220,-117,143,23,-59
8665,-9,-222,-110,147,19,-61
8670,-15,-223,-113,149,12,-63
8675,-9,-225,-112,150,6,-63
8680,-15,-223,-112,150,2,-67
8685,-13,-223,-109,147,1,-70
8690,-11,-220,-109,144,2,-68
8695,-10,-222,-108,141,3,-66
8700,-13,-221,-114,138,6,-64
8705,-12,-220,-114,133,10,-64
8710,-10,-220,-109,129,14,-60
8715,-11,-220,-112,126,19,-63
8720,-13,-222,-108,125,22,-61
8725,-10,-223,-111,125,22,-58
8730,-12,-221,-111,128,23,-55
8735,-11,-227,-109,132,24,-52
8740,-12,-219,-109,134,24,-51
8745,-11,-224,-111,136,25,-48
8750,-13,-221,-109,137,23,-46
8755,-15,-222,-109,136,22,-45
8760,-17,-220,-110,132,19,-44
8765,-11,-224,-114,129,16,-43
8770,-12,-223,-115,125,16,-45
8775,-14,-220,-114,124,13,-44
8780,-15,-221,-112,123,12,-43
8785,-10,-224,-112,122,12,-43
8790,-17,-222,-117,122,13,-43
8795,-16,-220,-116,121,14,-46
8800,-12,-219,-111,119,16,-47
8805,-15,-217,-111,116,16,-47
8810,-12,-217,-116,112,16,-47
8815,-13,-218,-116,107,19,-48
8820,-12,-218,-111,100,21,-50
8825,-13,-217,-110,92,21,-50
8830,-14,-216,-114,84,23,-52
8835,-14,-222,-117,75,23,-51
8840,-16,-220,-112,68,25,-50
8845,-21,-222,-111,65,24,-49
8850,-14,-222,-114,65,26,-50
8855,-12,-224,-113,68,27,-51
8860,-16,-220,-111,74,27,-52
8865,-17,-222,-116,81,26,-55
8870,-15,-221,-114,89,27,-57
8875,-16,-221,-112,93,26,-59
8880,-16,-221,-114,93,24,-63
8885,-17,-217,-117,92,21,-64
8890,-15,-223,-110,87,21,-65
8895,-13,-219,-113,81,18,-67
8900,-18,-224,-107,73,15,-70
8905,-18,-222,-111,66,13,-71
8910,-15,-221,-110,60,10,-71
8915,-18,-219,-110,56,8,-70
8920,-15,-220,-112,53,6,-68
8925,-16,-223,-108,51,5,-67
8930,-16,-221,-112,47,5,-65
8935,-18,-225,-110,47,4,-63
8940,-17,-224,-110,48,5,-59
8945,-16,-224,-114,49,4,-56
8950,-16,-229,-105,49,6,-55
8955,-13,-228,-107,49,6,-55
8960,-13,-230,-112,49,7,-54
8965,-16,-225,-108,50,8,-53
8970,-16,-226,-106,51,6,-54
8975,-13,-229,-113,53,3,-52
8980,-11,-225,-106,57,1,-52
8985,-16,-225,-109,63,-2,-51
8990,-11,-227,-109,69,-5,-51
8995,-9,-228,-107,78,-8,-52
9000,-11,-225,-111,88,-9,-55
9005,-11,-225,-106,94,-12,-56
9010,-8,-226,-109,98,-11,-55
9015,-11,-226,-107,100,-11,-54
9020,-8,-223,-106,98,-12,-52
9025,-13,-225,-108,95,-10,-50
9030,-11,-221,-108,93,-9,-51
9035,-11,-224,-105,92,-7,-51
9040,-12,-222,-106,91,-7,-52
9045,-12,-223,-109,91,-7,-52
9050,-13,-217,-110,93,-7,-49
9055,-12,-219,-111,95,-6,-46
9060,-8,-226,-109,96,-7,-44
9065,-9,-219,-108,97,-5,-42
9070,-8,-223,-109,98,-5,-41
9075,-8,-221,-107,96,-3,-38
9080,-11,-223,-103,93,-2,-39
9085,-7,-223,-109,88,-1,-37
9090,-8,-221,-105,82,0,-38
9095,-11,-222,-103,79,2,-36
9100,-11,-222,-110,76,6,-34
9105,-12,-222,-110,76,8,-33
9110,-9,-225,-106,75,11,-32
9115,-9,-215,-109,76,12,-30
9120,-9,-220,-102,77,12,-30
9125,-7,-223,-108,77,13,-30
9130,-9,-226,-105,79,12,-28
9135,-11,-222,-110,80,13,-27
9140,-7,-224,-109,82,13,-26
9145,-8,-222,-111,82,13,-26
9150,-6,-223,-109,83,15,-26
9155,-9,-223,-111,83,14,-25
9160,-8,-225,-109,83,15,-25
9165,-6,-225,-107,84,14,-25
9170,-9,-224,-108,82,14,-25
9175,-8,-220,-107,80,14,-24
9180,-6,-220,-111,77,15,-25
9185,-7,-225,-112,75,17,-23
9190,-11,-221,-107,72,16,-22
9195,-8,-223,-109,70,17,-21
9200,-9,-222,-112,65,14,-20
9205,-6,-223,-108,64,15,-19
9210,-9,-221,-108,62,13,-16
9215,-11,-224,-107,59,13,-14
9220,-8,-223,-111,56,14,-13
9225,-14,-221,-113,56,16,-9
9230,-6,-223,-110,53,17,-8
9235,-9,-222,-107,49,18,-9
9240,-6,-224,-110,47,19,-9
9245,-8,-224,-108,46,20,-9
9250,-9,-222,-109,47,19,-9
9255,-9,-224,-107,49,18,-9
9260,-10,-221,-108,50,17,-11
9265,-13,-225,-109,52,17,-12
9270,-10,-226,-110,53,18,-11
9275,-14,-223,-112,55,19,-11
9280,-20,-227,-107,56,18,-11
9285,-13,-225,-112,56,18,-11
9290,-10,-222,-109,57,17,-11
9295,-11,-221,-111,59,16,-11
9300,-9,-222,-110,61,17,-10
9305,-13,-222,-112,63,14,-8
9310,-11,-224,-110,63,15,-8
9315,-14,-226,-109,61,14,-8
9320,-10,-223,-109,60,13,-8
9325,-11,-224,-109,58,14,-7
9330,-15,-222,-108,58,13,-8
9335,-12,-220,-108,56,11,-8
9340,-12,-225,-110,57,9,-6
9345,-10,-222,-104,58,9,-5
9350,-14,-220,-111,59,10,-4
9355,-11,-222,-105,60,10,-4
9360,-8,-225,-110,61,8,-3
9365,-11,-221,-108,62,8,-4
9370,-9,-221,-113,61,9,-6
9375,-11,-223,-107,60,9,-6
9380,-12,-222,-112,60,9,-6
9385,-11,-223,-109,58,10,-7
9390,-15,-225,-112,58,11,-6
9395,-11,-223,-108,58,11,-8
9400,-13,-223,-111,56,11,-7
9405,-11,-223,-106,57,11,-9
9410,-10,-226,-110,57,11,-10
9415,-11,-224,-108,58,10,-11
9420,-8,-225,-109,62,10,-10
9425,-9,-228,-108,64,11,-8
9430,-14,-225,-110,66,8,-9
9435,-16,-223,-109,70,10,-8
9440,-9,-222,-110,72,9,-8
9445,-10,-221,-103,73,7,-7
9450,-13,-223,-110,75,9,-8
9455,-12,-224,-109,75,10,-7
9460,-11,-224,-108,74,11,-6
9465,-13,-225,-108,76,12,-5
9470,-15,-222,-112,76,13,-8
9475,-14,-222,-108,77,14,-8
9480,-13,-221,-111,76,15,-10
9485,-10,-224,-110,75,16,-9
9490,-12,-223,-106,72,15,-8
9495,-8,-221,-102,72,13,-8
9500,-12,-222,-109,71,13,-9
9505,-10,-221,-112,71,10,-10
9510,-9,-222,-110,71,9,-9
9515,-12,-224,-104,72,10,-10
9520,-11,-224,-107,73,10,-7
9525,-12,-222,-109,73,10,-7
9530,-10,-223,-111,74,10,-8
9535,-11,-221,-108,73,12,-8
9540,-5,-223,-109,72,15,-8
9545,-10,-226,-104,71,15,-10
9550,-12,-226,-112,68,16,-11
9555,-9,-226,-108,68,16,-13
9560,-12,-227,-109,69,17,-13
9565,-12,-225,-112,70,15,-14
9570,-11,-221,-109,73,15,-16
9575,-11,-226,-107,77,14,-16
9580,-11,-226,-109,80,13,-16
9585,-7,-226,-109,82,12,-17
9590,-10,-221,-107,82,9,-16
9595,-9,-225,-108,80,8,-17
9600,-10,-225,-105,77,8,-17
9605,-9,-223,-104,71,8,-17
9610,-10,-220,-104,64,8,-18
9615,-8,-220,-108,58,7,-18
9620,-9,-221,-106,53,7,-18
9625,-11,-222,-106,51,9,-17
9630,-10,-225,-105,50,9,-15
9635,-12,-222,-104,54,9,-15
9640,-14,-221,-108,56,12,-15
9645,-8,-226,-105,59,14,-15
9650,-12,-224,-104,62,14,-11
9655,-9,-229,-99,66,14,-11
9660,-16,-226,-113,67,16,-12
9665,-10,-227,-107,70,16,-12
9670,-11,-228,-106,72,16,-13
9675,-10,-224,-104,73,15,-14
9680,-10,-225,-106,74,14,-14
9685,-9,-227,-106,75,13,-13
9690,-12,-223,-107,75,11,-13
9695,-13,-222,-108,77,12,-13
9700,-13,-226,-107,77,11,-12
9705,-10,-223,-105,80,10,-12
9710,-12,-224,-105,81,10,-12
9715,-9,-223,-107,82,12,-14
9720,-12,-222,-104,82,11,-13
9725,-7,-226,-106,80,12,-12
9730,-8,-223,-106,78,13,-14
9735,-9,-225,-107,76,13,-14
9740,-11,-226,-107,77,13,-13
9745,-9,-224,-106,79,15,-13
9750,-11,-223,-106,81,15,-15
9755,-11,-221,-110,80,16,-13
9760,-6,-224,-106,79,15,-15
9765,-12,-223,-107,77,15,-15
9770,-10,-224,-107,76,16,-14
9775,-10,-223,-108,72,15,-14
9780,-8,-224,-110,68,15,-14
9785,-10,-225,-108,65,16,-12
9790,-11,-223,-107,62,17,-11
9795,-13,-221,-106,58,17,-11
9800,-9,-225,-104,57,16,-13
9805,-12,-225,-106,57,16,-13
9810,-10,-225,-106,59,16,-14
9815,-13,-224,-104,60,16,-13
9820,-10,-225,-105,64,17,-14
9825,-15,-222,-106,66,17,-14
9830,-14,-225,-103,68,17,-15
9835,-11,-224,-105,68,16,-14
9840,-10,-224,-108,68,16,-15
9845,-9,-224,-107,65,16,-17
9850,-9,-224,-103,63,16,-19
9855,-12,-225,-104,62,16,-17
9860,-14,-226,-105,62,14,-17
9865,-11,-225,-105,60,14,-20
9870,-9,-225,-103,60,14,-18
9875,-10,-224,-108,62,13,-18
9880,-7,-225,-107,61,14,-19
9885,-10,-226,-103,61,13,-19
9890,-11,-226,-106,60,15,-19
9895,-10,-226,-104,62,15,-18
9900,-8,-227,-108,62,16,-18
9905,-11,-225,-105,63,15,-18
9910,-9,-226,-108,66,15,-18
9915,-10,-223,-105,66,16,-19
9920,-11,-227,-108,68,16,-20
9925,-8,-227,-105,68,14,-20
9930,-12,-223,-108,66,14,-20
9935,-2,-224,-101,65,14,-20
9940,-10,-223,-106,62,13,-22
9945,-8,-225,-106,60,12,-22
9950,-7,-223,-102,61,12,-24
9955,-8,-226,-105,61,12,-22
9960,-7,-225,-103,61,12,-22
9965,-10,-222,-102,63,12,-22
9970,-10,-223,-105,63,11,-20
9975,-10,-224,-106,64,10,-19
9980,-10,-226,-104,64,11,-21
9985,-13,-221,-107,64,12,-21
9990,-10,-225,-103,65,12,-21
9995,-9,-224,-105,65,12,-20
10000,-10,-223,-103,65,12,-21
10005,-10,-224,-106,66,12,-20
10010,-11,-224,-104,67,13,-21
10015,-9,-223,-105,68,14,-21
10020,-9,-226,-104,68,14,-22
10025,-11,-224,-110,66,15,-21
10030,-12,-224,-104,65,15,-21
10035,-8,-224,-108,65,17,-21
10040,-8,-225,-105,64,17,-21
10045,-9,-225,-103,64,14,-18
10050,-7,-224,-108,64,16,-17
10055,-9,-224,-106,63,16,-17
10060,-9,-228,-108,63,16,-17
10065,-9,-226,-104,63,16,-17
10070,-10,-223,-105,63,15,-17
10075,-12,-222,-105,61,15,-15
10080,-8,-225,-101,61,15,-16
10085,-7,-225,-105,60,14,-17
10090,-8,-227,-106,59,14,-18
10095,-7,-223,-104,58,13,-19
10100,-10,-225,-100,59,13,-17
10105,-11,-224,-106,58,14,-17
10110,-7,-225,-101,59,13,-19
10115,-11,-226,-105,60,12,-19
10120,-12,-225,-108,59,11,-17
10125,-9,-225,-106,57,11,-19
10130,-11,-223,-104,57,11,-19
10135,-12,-225,-105,57,12,-18
10140,-10,-223,-103,58,14,-18
10145,-8,-225,-105,57,14,-17
10150,-15,-226,-107,59,15,-15
10155,-9,-226,-104,59,17,-15
10160,-8,-226,-102,59,16,-14
10165,-11,-223,-109,59,15,-15
10170,-10,-224,-106,59,15,-14
10175,-10,-224,-109,59,15,-14
10180,-9,-229,-104,62,14,-14
10185,-13,-223,-111,61,14,-12
10190,-9,-224,-105,62,14,-13
10195,-9,-224,-103,63,13,-14
10200,-8,-225,-104,64,15,-14
10205,-10,-222,-109,62,15,-15
10210,-10,-227,-106,61,16,-14
10215,-8,-224,-104,59,17,-15
10220,-8,-224,-100,55,17,-15
10225,-10,-226,-103,55,16,-15
10230,-8,-222,-105,55,17,-14
10235,-12,-224,-100,55,16,-16
10240,-9,-222,-104,56,16,-15
10245,-7,-225,-105,54,15,-16
10250,-11,-224,-106,54,15,-15
10255,-9,-224,-106,54,16,-14
10260,-10,-229,-107,53,16,-14
10265,-11,-226,-104,55,15,-15
10270,-11,-229,-104,57,16,-14
10275,-8,-227,-108,61,17,-15
10280,-12,-226,-105,64,16,-16
10285,-10,-224,-105,68,14,-15
10290,-4,-229,-108,70,13,-14
10295,-5,-224,-107,72,13,-17
10300,-8,-222,-110,69,13,-19
10305,-8,-222,-107,65,12,-21
10310,-4,-225,-102,58,9,-19
10315,-6,-222,-95,53,9,-21
10320,-9,-220,-106,49,9,-20
10325,-9,-226,-102,45,8,-22
10330,-10,-227,-104,43,8,-19
10335,-10,-226,-103,44,9,-18
10340,-9,-225,-102,45,10,-16
10345,-13,-227,-106,47,12,-14
10350,-9,-226,-108,50,14,-14
10355,-7,-224,-103,51,15,-12
10360,-12,-225,-98,54,15,-13
10365,-7,-227,-98,57,15,-10
10370,-10,-227,-98,57,15,-11
10375,-10,-227,-104,57,16,-11
10380,-8,-225,-98,57,17,-11
10385,-7,-227,-107,56,16,-14
10390,-8,-228,-104,55,16,-16
10395,-7,-228,-102,55,14,-16
10400,-10,-224,-104,55,13,-17
10405,-8,-228,-105,57,13,-17
10410,-7,-223,-104,58,13,-17
10415,-9,-223,-102,60,12,-17
10420,-11,-223,-106,61,11,-15
10425,-7,-226,-105,60,14,-14
10430,-10,-225,-105,60,14,-14
10435,-12,-224,-104,59,14,-12
10440,-10,-225,-106,57,14,-12
10445,-10,-224,-106,54,14,-9
10450,-10,-223,-104,52,13,-8
10455,-8,-223,-104,50,14,-9
10460,-8,-221,-104,48,12,-9
10465,-9,-225,-103,47,14,-12
10470,-5,-226,-107,46,14,-11
10475,-7,-230,-105,46,14,-10
10480,-9,-226,-104,46,14,-10
10485,-8,-224,-104,47,14,-11
10490,-9,-227,-103,49,14,-12
10495,-9,-226,-105,49,14,-12
10500,-6,-227,-109,50,14,-12
10505,-9,-223,-105,50,14,-9
10510,-7,-227,-109,48,14,-9
10515,-10,-225,-104,47,14,-9
10520,-7,-226,-104,47,13,-8
10525,-9,-225,-104,49,13,-8
10530,-13,-228,-102,49,13,-8
10535,-9,-224,-104,47,13,-8
10540,-11,-223,-104,50,13,-9
10545,-11,-223,-104,48,13,-10
10550,-9,-228,-105,49,13,-10
10555,-9,-227,-106,48,11,-11
10560,-9,-225,-106,48,12,-11
10565,-9,-225,-103,48,11,-12
10570,-9,-221,-105,49,11,-11
10575,-8,-225,-105,48,11,-13
10580,-10,-224,-103,47,12,-12
10585,-11,-220,-110,47,12,-11
10590,-8,-228,-106,46,12,-12
10595,-10,-225,-104,48,13,-12
10600,-11,-227,-101,48,11,-12
10605,-9,-225,-107,49,12,-12
10610,-9,-226,-104,49,12,-10
10615,-11,-225,-102,49,12,-10
10620,-11,-223,-103,49,12,-9
10625,-11,-225,-107,47,13,-9
10630,-8,-224,-106,45,12,-8
10635,-6,-225,-102,44,13,-10
10640,-14,-226,-113,44,13,-10
10645,-7,-225,-103,43,12,-9
10650,-5,-224,-105,43,11,-10
10655,-7,-226,-106,44,11,-10
10660,-7,-226,-108,47,11,-11
10665,-9,-226,-103,48,11,-11
10670,-11,-224,-102,50,12,-13
10675,-9,-223,-104,52,11,-12
10680,-4,-226,-106,51,10,-12
10685,-7,-228,-104,51,11,-12
10690,-10,-224,-99,52,12,-11
10695,-11,-225,-104,52,13,-12
10700,-10,-229,-107,53,12,-12
10705,-8,-226,-106,54,14,-13
10710,-11,-228,-104,55,14,-11
10715,-9,-229,-107,56,16,-10
10720,-11,-222,-109,56,15,-11
10725,-9,-222,-107,56,14,-11
10730,-10,-227,-107,56,15,-12
10735,-8,-225,-103,54,14,-10
10740,-11,-225,-102,53,13,-11
10745,-9,-223,-106,54,15,-11
10750,-11,-223,-102,53,13,-11
10755,-8,-224,-110,55,13,-11
10760,-10,-225,-106,54,14,-12
10765,-7,-228,-105,54,15,-11
10770,-7,-225,-103,54,14,-12
10775,-10,-225,-105,54,15,-12
10780,-10,-225,-103,54,15,-10
10785,-6,-223,-106,54,16,-11
10790,-6,-219,-107,54,13,-10
10795,-5,-226,-103,55,12,-10
10800,-10,-222,-107,54,12,-11
10805,-18,-218,-103,54,13,-12
10810,-12,-226,-105,51,13,-13
10815,-9,-227,-104,51,13,-13
10820,-9,-224,-102,53,13,-13
10825,-10,-221,-106,54,13,-13
10830,-9,-224,-104,54,13,-14
10835,-8,-225,-103,53,14,-12
10840,-8,-225,-108,53,14,-10
10845,-9,-225,-104,54,14,-12
10850,-10,-225,-105,52,14,-12
10855,-10,-223,-102,51,13,-12
10860,-7,-225,-99,51,14,-11
10865,-11,-223,-105,50,14,-14
10870,-10,-227,-105,51,13,-12
10875,-9,-227,-107,51,13,-10
10880,-10,-224,-105,52,14,-11
10885,-8,-225,-105,55,15,-11
10890,-12,-224,-105,57,16,-11
10895,-7,-227,-108,59,16,-12
10900,-8,-230,-107,61,16,-11
10905,-9,-225,-103,61,16,-11
10910,-7,-226,-105,60,15,-11
10915,-13,-226,-99,59,14,-11
10920,-9,-225,-102,58,15,-12
10925,-10,-226,-104,57,15,-11
10930,-5,-226,-106,56,14,-11
10935,-9,-224,-104,54,15,-11
10940,-8,-224,-103,53,15,-14
10945,-6,-224,-104,52,15,-12
10950,-7,-224,-107,52,14,-15
10955,-7,-220,-106,53,14,-12
10960,-11,-219,-100,54,14,-13
10965,-6,-225,-102,52,17,-14
10970,-12,-223,-100,52,16,-14
10975,-10,-227,-103,53,17,-15
10980,-9,-225,-102,54,17,-15
10985,-11,-227,-105,55,18,-16
10990,-11,-229,-104,61,18,-15
10995,-11,-228,-105,66,18,-15
11000,-9,-222,-107,71,18,-15
11005,-9,-225,-107,74,17,-13
11010,-9,-221,-108,78,16,-16
11015,-12,-223,-105,75,16,-17
11020,-8,-222,-114,72,14,-18
11025,-2,-224,-107,68,12,-20
11030,-7,-224,-105,61,10,-22
11035,-7,-223,-104,56,8,-21
11040,-6,-225,-108,51,8,-18
11045,-9,-225,-104,48,7,-17
11050,-8,-227,-104,46,7,-16
11055,-8,-225,-102,45,10,-14
11060,-10,-229,-101,44,12,-14
11065,-9,-224,-101,45,15,-12
11070,-8,-224,-107,46,18,-13
11075,-13,-226,-107,48,19,-14
11080,-10,-227,-103,50,20,-13
11085,-3,-229,-106,53,20,-14
11090,-10,-226,-106,55,19,-14
11095,-9,-224,-103,59,18,-16
11100,-9,-229,-103,60,17,-15
11105,-9,-226,-105,58,17,-16
11110,-10,-225,-100,57,17,-15
11115,-7,-225,-108,56,16,-16
11120,-10,-223,-99,57,14,-16
11125,-7,-225,-106,57,15,-15
11130,-7,-230,-109,60,14,-16
11135,-9,-222,-105,61,13,-16
11140,-10,-229,-103,62,13,-14
11145,-9,-229,-106,61,15,-15
11150,-10,-222,-103,60,14,-13
11155,-8,-223,-102,61,16,-12
11160,-9,-226,-106,62,16,-12
11165,-9,-223,-105,60,17,-13
11170,-8,-225,-102,59,16,-12
11175,-11,-223,-105,57,17,-11
11180,-9,-226,-105,54,17,-12
11185,-9,-224,-107,52,17,-12
11190,-8,-226,-104,51,16,-12
11195,-8,-225,-104,49,17,-13
11200,-9,-225,-105,48,17,-12
11205,-8,-224,-104,47,17,-13
11210,-8,-228,-104,48,16,-12
11215,-9,-225,-106,48,15,-13
11220,-5,-228,-103,50,15,-13
11225,-10,-229,-106,49,16,-14
11230,-10,-226,-104,50,14,-15
11235,-8,-224,-105,49,14,-13
11240,-13,-231,-106,49,14,-14
11245,-10,-226,-102,51,16,-14
11250,-9,-224,-102,52,16,-15
11255,-9,-224,-107,51,16,-14
11260,-7,-227,-105,51,16,-14
11265,-6,-227,-105,50,16,-16
11270,-8,-225,-103,51,15,-16
11275,-8,-228,-104,50,15,-17
11280,-10,-224,-103,48,14,-16
11285,-9,-226,-101,47,13,-16
11290,-10,-221,-102,47,14,-17
11295,-9,-229,-106,46,14,-16
11300,-12,-224,-104,48,14,-15
11305,-8,-224,-104,48,14,-16
11310,-7,-226,-104,50,13,-16
11315,-9,-228,-107,50,15,-15
11320,-11,-226,-105,52,14,-14
11325,-10,-225,-102,51,15,-14
11330,-9,-227,-104,53,13,-15
11335,-8,-226,-104,53,14,-14
11340,-9,-228,-101,53,14,-14
11345,-5,-225,-102,54,14,-16
11350,-12,-227,-105,53,13,-15
11355,-6,-225,-103,53,13,-15
11360,-7,-222,-103,52,13,-16
11365,-10,-226,-103,52,14,-15
11370,-11,-226,-105,51,13,-15
11375,-9,-226,-108,51,15,-16
11380,-7,-226,-105,50,13,-18
11385,-8,-226,-99,51,13,-18
11390,-7,-228,-105,50,14,-18
11395,-9,-225,-103,51,13,-18
11400,-12,-225,-109,52,14,-17
11405,-9,-224,-105,54,13,-16
11410,-8,-227,-103,53,14,-17
11415,-8,-225,-106,54,13,-17
11420,-9,-226,-101,55,12,-18
11425,-9,-225,-102,55,12,-18
11430,-5,-226,-107,53,14,-19
11435,-3,-226,-105,54,14,-18
11440,-8,-225,-100,55,15,-16
11445,-9,-226,-100,54,15,-16
11450,-10,-225,-105,54,14,-17
11455,-10,-225,-105,54,16,-18
11460,-12,-225,-102,55,16,-18
11465,-8,-225,-103,54,15,-17
11470,-6,-226,-103,54,15,-19
11475,-9,-228,-103,54,16,-18
11480,-7,-226,-101,54,15,-18
11485,-6,-225,-103,54,17,-16
11490,-9,-223,-106,53,17,-17
11495,-8,-227,-105,54,18,-16
11500,-9,-224,-101,54,16,-15
11505,-7,-226,-106,54,18,-16
11510,-10,-226,-102,55,17,-13
11515,-6,-226,-107,55,16,-14
11520,-6,-229,-105,56,15,-15
11525,-8,-226,-103,57,15,-14
11530,-8,-224,-108,56,15,-16
11535,-6,-223,-100,57,16,-16
11540,-9,-225,-107,58,16,-15
11545,-6,-224,-107,57,15,-15
11550,-8,-223,-109,56,14,-15
11555,-9,-224,-102,55,15,-16
11560,-8,-225,-102,53,14,-16
11565,-12,-223,-106,49,14,-15
11570,-7,-226,-105,47,16,-16
11575,-8,-225,-103,47,15,-16
11580,-7,-223,-107,45,15,-16
11585,-4,-229,-102,46,15,-15
11590,-6,-227,-107,47,17,-14
11595,-9,-225,-106,50,18,-13
11600,-12,-223,-102,48,17,-14
11605,-4,-228,-100,48,18,-13
11610,-8,-226,-105,48,19,-12
11615,-7,-226,-104,49,19,-12
11620,-10,-224,-110,50,18,-15
11625,-6,-225,-104,53,19,-15
11630,-7,-227,-103,55,18,-14
11635,-9,-226,-104,56,18,-14
11640,-7,-226,-103,58,18,-13
11645,-10,-225,-107,57,17,-13
11650,-7,-225,-106,56,18,-13
11655,-7,-229,-106,53,18,-13
11660,-8,-226,-105,51,18,-12
11665,-9,-225,-105,50,17,-13
11670,-3,-224,-102,49,16,-14
11675,-13,-226,-99,48,16,-12
11680,-7,-226,-104,49,16,-13
11685,-9,-226,-104,49,16,-14
11690,-6,-227,-105,49,15,-13
11695,-5,-228,-105,51,15,-13
11700,-7,-227,-105,51,16,-14
11705,-10,-228,-105,50,16,-14
11710,-6,-227,-106,53,18,-15
11715,-9,-227,-104,57,17,-15
11720,-7,-227,-110,62,17,-16
11725,-6,-228,-103,66,17,-16
11730,-7,-227,-104,70,14,-18
11735,-7,-224,-106,73,15,-18
11740,-8,-224,-106,71,14,-20
11745,-6,-222,-108,66,12,-19
11750,-6,-223,-107,60,11,-19
11755,-7,-223,-105,55,9,-20
11760,-6,-222,-106,49,8,-20
11765,-4,-225,-104,45,7,-21
11770,-7,-226,-104,42,8,-19
11775,-9,-227,-101,43,10,-18
11780,-6,-224,-100,43,12,-17
11785,-9,-228,-96,46,13,-16
11790,-9,-226,-104,48,14,-14
11795,-8,-227,-102,51,15,-11
11800,-9,-228,-103,53,17,-12
11805,-8,-228,-103,55,17,-14
11810,-8,-226,-106,55,16,-13
11815,-8,-226,-103,57,16,-16
11820,-8,-224,-106,58,16,-15
11825,-11,-226,-100,59,15,-17
11830,-8,-225,-105,59,14,-16
11835,-5,-227,-108,61,13,-18
11840,-7,-224,-107,62,12,-17
11845,-8,-223,-106,63,13,-16
11850,-2,-224,-104,63,14,-18
11855,-10,-221,-106,62,14,-17
11860,-4,-226,-105,62,12,-15
11865,-8,-223,-104,60,12,-14
11870,-7,-224,-103,59,13,-15
11875,-7,-225,-99,57,14,-13
11880,-3,-225,-107,55,14,-14
11885,-8,-226,-105,55,15,-12
11890,-9,-222,-102,53,14,-14
11895,-10,-226,-102,53,15,-11
11900,-6,-225,-102,52,15,-12
11905,-2,-227,-105,51,15,-12
11910,-5,-228,-101,49,14,-13
11915,-5,-229,-102,47,14,-14
11920,-7,-227,-103,45,15,-16
11925,-9,-225,-100,45,13,-16
11930,-7,-228,-103,45,14,-14
11935,-7,-227,-99,48,14,-15
11940,-6,-227,-107,49,14,-14
11945,-8,-227,-98,50,14,-14
11950,-10,-231,-104,51,16,-13
11955,-11,-226,-105,53,15,-13
11960,-5,-223,-105,55,16,-11
11965,-9,-223,-105,56,15,-13
11970,-7,-227,-105,54,15,-12
11975,-7,-228,-104,54,15,-14
11980,-7,-224,-108,53,16,-14
11985,-7,-225,-101,53,15,-14
11990,-8,-225,-103,52,15,-16
11995,-2,-227,-102,53,14,-16
