timestamp,acc_x,acc_y,acc_z,gyro_x,gyro_y,gyro_z
0,45,-104,205,7,70,-2
5,43,-101,207,7,71,-1
10,42,-101,205,6,69,-2
15,45,-101,202,8,69,-1
20,46,-101,209,7,69,0
25,44,-98,197,9,68,1
30,45,-103,206,11,66,-1
35,42,-102,204,13,67,1
40,46,-102,209,14,67,-3
45,45,-100,207,16,64,-1
50,45,-101,206,17,64,-3
55,43,-101,205,16,63,-1
60,46,-99,204,15,62,-3
65,42,-100,206,12,62,-4
70,43,-101,207,12,63,-6
75,44,-99,212,11,63,-6
80,44,-101,205,8,62,-9
85,44,-97,203,8,63,-7
90,43,-99,207,7,62,-11
95,45,-98,205,6,62,-9
100,44,-100,207,6,64,-12
105,41,-98,206,6,63,-11
110,45,-100,205,6,64,-12
115,51,-106,198,7,65,-10
120,42,-107,205,7,66,-12
125,39,-101,202,6,65,-9
130,46,-96,206,6,66,-12
135,49,-100,210,4,66,-9
140,40,-102,207,5,65,-10
145,44,-102,202,3,66,-7
150,49,-104,201,2,65,-8
155,41,-102,208,1,65,-4
160,44,-101,203,1,66,-4
165,50,-103,211,-2,65,-1
170,47,-96,219,-1,66,-2
175,45,-99,199,-1,66,1
180,45,-98,211,1,65,0
185,41,-96,209,0,63,4
190,49,-100,216,1,64,2
195,36,-127,194,2,65,5
200,43,-98,205,5,64,4
205,42,-98,207,8,64,7
210,44,-100,207,13,65,4
215,44,-101,205,16,65,6
220,54,-107,208,17,66,3
225,46,-100,205,18,65,5
230,44,-97,208,19,63,2
235,45,-100,205,20,64,5
240,44,-100,203,22,65,2
245,45,-99,193,24,65,4
250,42,-98,205,25,67,2
255,44,-100,206,27,66,4
260,45,-101,207,28,69,0
265,43,-96,206,27,67,3
270,45,-98,207,28,69,0
275,46,-96,207,26,70,1
280,43,-95,209,27,69,0
285,43,-96,206,25,69,1
290,44,-97,207,25,67,-1
295,45,-97,205,23,68,2
300,44,-98,207,20,67,0
305,43,-97,208,20,69,3
310,43,-94,206,19,69,0
315,44,-96,203,20,69,2
320,44,-97,209,19,70,-1
325,44,-96,205,18,71,1
330,44,-97,205,16,70,-1
335,43,-96,208,15,70,2
340,44,-95,207,13,72,0
345,44,-99,206,10,71,2
350,46,-95,205,10,73,-1
355,43,-94,210,8,73,3
360,42,-97,210,7,74,1
365,45,-97,208,5,76,3
370,46,-96,207,2,77,3
375,44,-96,207,-2,78,5
380,45,-95,205,-6,81,4
385,46,-94,212,-7,83,5
390,42,-96,206,-10,84,3
395,46,-96,208,-12,87,5
400,46,-97,206,-15,90,5
405,43,-95,205,-16,96,7
410,44,-97,207,-16,100,6
415,48,-95,207,-14,102,10
420,45,-99,206,-12,106,8
425,47,-95,208,-9,108,12
430,45,-97,207,-8,110,11
435,47,-98,205,-4,113,12
440,49,-98,208,1,112,12
445,49,-99,202,2,111,13
450,47,-96,206,5,110,13
455,50,-101,206,6,108,16
460,48,-98,208,6,106,16
465,47,-98,208,5,102,18
470,49,-98,204,3,101,18
475,47,-98,206,2,101,21
480,51,-100,208,1,98,21
485,50,-97,207,2,99,24
490,47,-99,207,6,99,24
495,50,-98,209,9,99,24
500,49,-98,204,11,98,25
505,49,-99,209,15,98,26
510,47,-98,209,19,96,26
515,45,-98,208,24,94,27
520,47,-97,207,27,92,26
525,45,-97,209,31,92,28
530,46,-97,208,32,89,29
535,43,-97,209,31,87,32
540,41,-97,209,31,87,34
545,42,-97,207,30,86,36
550,42,-98,205,26,85,38
555,42,-99,208,24,84,39
560,38,-100,207,19,82,40
565,42,-98,208,18,80,42
570,40,-98,207,15,82,43
575,41,-98,210,10,81,41
580,39,-97,209,8,81,40
585,38,-99,206,6,83,40
590,38,-100,204,4,83,40
595,35,-96,204,2,84,39
600,37,-96,204,5,84,37
605,34,-99,207,5,86,35
610,36,-98,204,10,86,33
615,39,-100,207,13,87,28
620,32,-98,205,17,86,26
625,32,-98,206,22,88,23
630,34,-96,209,25,89,20
635,36,-98,207,26,90,15
640,35,-97,209,27,90,13
645,36,-96,213,28,91,11
650,39,-95,211,27,90,10
655,36,-96,213,24,89,8
660,36,-96,208,22,89,9
665,36,-93,208,18,85,6
670,35,-94,209,14,83,9
675,37,-94,211,11,79,8
680,37,-95,206,8,76,10
685,36,-97,211,6,76,9
690,36,-95,206,3,74,9
695,37,-96,211,2,73,9
700,38,-97,212,3,72,11
705,36,-98,210,2,70,8
710,34,-96,203,2,70,9
715,41,-99,207,3,71,6
720,36,-96,205,4,72,8
725,35,-98,209,5,72,6
730,36,-98,205,7,72,6
735,37,-98,209,11,73,3
740,37,-96,210,12,72,3
745,39,-97,206,15,71,-2
750,39,-96,208,16,70,-2
755,36,-95,206,17,71,-5
760,37,-97,207,17,70,-4
765,40,-96,207,21,70,-8
770,41,-95,211,21,68,-9
775,38,-94,206,21,68,-12
780,38,-93,207,20,68,-12
785,39,-95,213,19,69,-14
790,38,-93,208,18,68,-14
795,40,-93,208,16,67,-17
800,37,-95,213,18,65,-15
805,41,-92,209,17,65,-18
810,41,-93,209,16,65,-14
815,42,-93,212,14,64,-17
820,40,-93,211,13,64,-15
825,37,-93,210,15,64,-17
830,44,-93,208,18,64,-14
835,42,-90,208,18,63,-16
840,41,-92,209,18,62,-12
845,42,-93,207,19,60,-15
850,44,-96,207,19,60,-14
855,41,-92,209,20,60,-15
860,40,-94,208,21,60,-11
865,41,-92,207,21,60,-14
870,41,-93,210,22,60,-11
875,45,-96,209,22,59,-13
880,43,-95,205,22,58,-9
885,41,-93,211,21,58,-11
890,40,-91,208,20,57,-8
895,41,-89,208,18,57,-11
900,43,-90,211,18,55,-9
905,43,-91,211,18,54,-13
910,41,-93,206,17,56,-11
915,40,-94,210,16,56,-13
920,43,-94,205,14,55,-14
925,41,-94,213,10,58,-17
930,40,-93,206,10,59,-16
935,42,-93,209,8,61,-22
940,42,-92,208,7,63,-19
945,41,-94,211,6,63,-23
950,42,-93,207,5,64,-22
955,39,-94,210,4,66,-25
960,39,-92,210,2,68,-23
965,43,-92,212,0,67,-26
970,40,-92,209,-1,66,-24
975,41,-91,208,-5,63,-24
980,41,-92,210,-7,63,-21
985,38,-89,213,-11,59,-20
990,40,-92,205,-10,61,-16
995,41,-94,203,-11,60,-16
1000,41,-92,210,-9,58,-11
1005,40,-92,207,-9,55,-10
1010,38,-93,203,-8,53,-5
1015,42,-95,210,-8,50,-5
1020,39,-93,208,-6,50,-1
1025,42,-94,206,-5,48,-1
1030,41,-93,208,-4,49,3
1035,39,-93,205,-2,47,3
1040,39,-94,205,-2,49,6
1045,40,-95,210,1,47,5
1050,41,-98,206,3,48,8
1055,41,-95,208,6,50,8
1060,41,-94,209,9,52,10
1065,40,-93,212,10,53,9
1070,40,-92,213,10,53,9
1075,40,-91,211,11,54,9
1080,40,-93,207,12,55,9
1085,44,-93,213,11,56,8
1090,40,-94,206,11,57,7
1095,42,-92,206,10,57,5
1100,42,-90,210,10,58,6
1105,43,-91,209,9,60,3
1110,43,-92,207,9,58,5
1115,42,-93,207,9,60,1
1120,41,-90,213,8,61,2
1125,44,-91,207,7,61,1
1130,45,-92,212,6,60,0
1135,42,-92,209,5,60,-1
1140,41,-92,212,6,60,-2
1145,45,-89,208,4,59,-4
1150,42,-92,209,3,60,-4
1155,41,-89,209,4,59,-5
1160,40,-89,210,5,61,-4
1165,44,-95,210,3,62,-5
1170,42,-90,213,1,64,-3
1175,40,-89,210,0,63,-5
1180,43,-93,211,-1,64,-3
1185,41,-91,211,-1,65,-2
1190,44,-96,209,-2,65,-4
1195,41,-91,207,-2,63,-1
1200,40,-90,208,0,62,-3
1205,43,-90,204,1,63,-2
1210,41,-93,210,4,64,-1
1215,43,-90,209,5,65,-2
1220,43,-94,210,6,66,-2
1225,43,-91,215,6,66,-2
1230,40,-92,209,8,66,-2
1235,40,-92,211,9,66,-2
1240,40,-91,209,7,68,-5
1245,39,-93,213,9,68,-4
1250,42,-90,206,8,70,-5
1255,41,-89,214,9,69,-4
1260,39,-94,207,9,70,-7
1265,42,-91,210,9,71,-6
1270,41,-92,211,8,71,-9
1275,40,-92,210,6,72,-9
1280,40,-91,207,5,73,-10
1285,40,-89,209,2,73,-10
1290,43,-91,209,1,74,-10
1295,42,-92,206,0,75,-10
1300,39,-91,209,-3,73,-12
1305,42,-92,209,-4,73,-9
1310,37,-89,209,-5,72,-10
1315,39,-91,207,-5,71,-8
1320,40,-87,206,-7,70,-11
1325,41,-92,204,-8,68,-6
1330,40,-90,210,-11,66,-8
1335,36,-90,209,-11,64,-4
1340,43,-93,209,-14,63,-4
1345,43,-91,206,-16,61,-1
1350,40,-89,211,-17,61,-1
1355,39,-92,211,-17,61,3
1360,41,-93,210,-18,61,0
1365,39,-93,209,-16,63,3
1370,38,-93,212,-15,64,1
1375,39,-93,210,-12,64,4
1380,40,-94,209,-9,64,3
1385,37,-93,210,-5,66,4
1390,40,-96,213,-3,64,3
1395,36,-91,214,2,65,4
1400,38,-91,208,5,63,2
1405,39,-92,211,6,63,4
1410,35,-88,211,8,63,2
1415,38,-88,208,8,61,4
1420,41,-90,209,7,60,2
1425,42,-88,212,3,61,2
1430,37,-87,207,0,60,1
1435,40,-89,209,-5,61,4
1440,39,-90,206,-9,62,0
1445,41,-91,212,-12,61,2
1450,43,-91,208,-14,62,-1
1455,40,-92,208,-16,64,2
1460,44,-92,209,-15,64,-2
1465,38,-89,209,-16,65,0
1470,40,-89,212,-13,65,-4
1475,40,-91,211,-13,65,-2
1480,43,-89,208,-11,64,-5
1485,42,-95,208,-8,63,-4
1490,41,-91,210,-4,66,-8
1495,40,-90,210,-1,65,-6
1500,37,-92,209,3,66,-10
1505,40,-93,208,5,64,-8
1510,44,-90,212,5,68,-11
1515,39,-88,209,5,68,-8
1520,40,-92,207,4,70,-11
1525,39,-90,213,1,72,-9
1530,40,-90,210,-2,72,-11
1535,40,-87,210,-5,72,-8
1540,40,-87,209,-9,70,-9
1545,38,-88,210,-11,68,-5
1550,37,-87,210,-11,68,-7
1555,40,-89,213,-13,66,-2
1560,39,-87,211,-14,63,-3
1565,41,-90,215,-16,63,1
1570,40,-91,212,-17,61,-1
1575,42,-91,209,-18,62,2
1580,38,-93,207,-17,61,0
1585,39,-89,213,-17,62,3
1590,39,-92,210,-16,62,2
1595,37,-90,210,-15,62,3
1600,38,-93,208,-14,63,2
1605,39,-92,208,-12,64,3
1610,40,-93,209,-8,64,-1
1615,39,-93,208,-5,67,1
1620,41,-91,209,-3,67,-1
1625,40,-93,207,0,68,1
1630,42,-91,210,2,68,-2
1635,39,-91,207,2,69,0
1640,41,-92,209,3,68,-4
1645,44,-91,212,1,69,-3
1650,42,-92,213,-2,69,-4
1655,38,-90,211,-3,69,-4
1660,38,-89,211,-6,70,-5
1665,43,-91,213,-6,70,-5
1670,40,-85,214,-7,69,-6
1675,42,-90,210,-9,71,-4
1680,42,-90,212,-10,70,-7
1685,41,-89,209,-11,70,-5
1690,40,-90,207,-13,72,-7
1695,42,-91,208,-12,72,-4
1700,41,-92,212,-10,74,-7
1705,37,-89,211,-10,72,-6
1710,41,-90,211,-7,71,-6
1715,40,-89,210,-7,73,-4
1720,39,-89,210,-8,72,-7
1725,37,-92,208,-9,71,-7
1730,41,-87,212,-9,70,-7
1735,40,-90,208,-12,70,-6
1740,39,-89,214,-14,68,-5
1745,40,-89,211,-15,67,-3
1750,38,-90,212,-16,67,-3
1755,39,-90,207,-15,66,-1
1760,39,-88,209,-15,66,1
1765,38,-89,211,-16,66,2
1770,35,-89,210,-15,65,2
1775,38,-93,211,-14,65,2
1780,39,-90,210,-13,64,3
1785,40,-91,207,-13,63,3
1790,40,-90,210,-12,62,3
1795,40,-91,211,-13,61,2
1800,36,-89,211,-12,62,1
1805,39,-91,208,-10,63,1
1810,39,-90,211,-10,64,-1
1815,42,-92,210,-9,65,-2
1820,39,-88,213,-7,65,-2
1825,39,-90,212,-7,66,-4
1830,38,-90,208,-7,66,-3
1835,39,-90,208,-7,67,-5
1840,37,-90,210,-8,67,-7
1845,38,-86,209,-10,66,-6
1850,39,-88,210,-9,67,-6
1855,38,-91,211,-11,67,-7
1860,37,-90,213,-14,67,-8
1865,41,-91,212,-15,67,-8
1870,38,-92,210,-16,66,-6
1875,39,-87,211,-19,65,-7
1880,36,-88,210,-20,65,-6
1885,39,-88,210,-21,65,-8
1890,38,-90,211,-22,62,-6
1895,40,-92,212,-20,61,-8
1900,41,-91,210,-21,60,-6
1905,40,-90,210,-19,59,-7
1910,44,-95,203,-20,61,-6
1915,38,-90,210,-19,61,-7
1920,37,-88,211,-18,59,-6
1925,39,-90,209,-17,60,-7
1930,41,-88,209,-16,60,-6
1935,38,-87,208,-17,60,-8
1940,41,-88,208,-16,61,-6
1945,39,-92,212,-16,60,-9
1950,37,-88,209,-17,61,-7
1955,39,-90,211,-19,60,-11
1960,38,-89,208,-20,59,-10
1965,39,-88,210,-21,60,-11
1970,43,-93,208,-24,60,-10
1975,36,-88,209,-26,59,-10
1980,40,-92,212,-29,59,-9
1985,40,-91,210,-32,60,-10
1990,38,-91,211,-36,59,-8
1995,40,-93,208,-38,60,-11
2000,39,-91,209,-41,60,-7
2005,38,-90,213,-42,59,-10
2010,39,-91,206,-43,60,-7
2015,42,-90,213,-45,60,-10
2020,41,-89,214,-45,60,-7
2025,39,-91,211,-43,62,-9
2030,36,-91,212,-43,60,-6
2035,36,-89,210,-44,60,-8
2040,38,-93,210,-45,59,-7
2045,38,-89,213,-46,60,-9
2050,38,-88,206,-47,59,-5
2055,40,-90,208,-48,58,-8
2060,39,-88,212,-51,58,-7
2065,38,-92,210,-53,58,-8
2070,37,-89,211,-56,58,-5
2075,39,-88,211,-58,58,-8
2080,40,-92,209,-59,56,-5
2085,40,-90,214,-62,56,-9
2090,42,-92,209,-63,57,-7
2095,38,-88,209,-65,57,-10
2100,42,-91,210,-66,57,-9
2105,41,-90,211,-68,59,-11
2110,38,-92,210,-69,59,-10
2115,41,-91,213,-70,59,-13
2120,38,-92,216,-71,58,-15
2125,39,-90,210,-70,61,-17
2130,40,-91,210,-71,60,-15
2135,41,-90,214,-71,61,-21
2140,41,-92,211,-70,63,-19
2145,40,-91,212,-70,64,-22
2150,40,-92,210,-72,62,-19
2155,41,-93,212,-72,62,-22
2160,40,-94,207,-70,63,-21
2165,39,-92,208,-70,62,-24
2170,42,-93,212,-70,62,-21
2175,38,-92,213,-71,61,-22
2180,42,-93,206,-72,60,-21
2185,39,-93,207,-72,59,-22
2190,37,-90,210,-76,59,-19
2195,38,-90,206,-78,59,-20
2200,39,-94,207,-82,59,-16
2205,38,-93,208,-85,57,-18
2210,39,-90,207,-90,55,-15
2215,39,-92,206,-93,55,-15
2220,39,-92,208,-97,54,-13
2225,39,-94,206,-102,53,-13
2230,39,-95,209,-106,51,-9
2235,38,-91,211,-110,51,-9
2240,40,-95,207,-113,51,-7
2245,39,-94,212,-115,51,-8
2250,39,-95,210,-116,51,-5
2255,42,-98,210,-116,52,-6
2260,37,-94,203,-114,54,-4
2265,38,-94,208,-112,55,-6
2270,39,-95,206,-112,56,-4
2275,40,-94,209,-111,58,-7
2280,39,-96,205,-108,57,-6
2285,38,-97,204,-106,57,-7
2290,39,-97,208,-102,55,-6
2295,44,-97,207,-98,56,-6
2300,41,-97,206,-96,56,-4
2305,43,-99,206,-93,56,-2
2310,39,-95,206,-91,54,1
2315,44,-97,209,-88,55,1
2320,41,-97,212,-87,55,4
2325,42,-96,210,-85,54,5
2330,44,-97,209,-83,54,7
2335,45,-98,207,-79,55,7
2340,42,-98,209,-77,54,9
2345,43,-100,208,-72,55,8
2350,40,-98,207,-70,54,8
2355,43,-95,207,-66,54,8
2360,43,-99,207,-66,54,8
2365,40,-97,205,-64,55,7
2370,43,-98,206,-64,54,6
2375,40,-98,213,-63,55,4
2380,40,-96,209,-62,56,2
2385,40,-97,208,-61,57,1
2390,40,-99,210,-61,57,-3
2395,39,-97,210,-59,57,-4
2400,42,-98,206,-60,58,-6
2405,38,-98,212,-60,59,-7
2410,38,-97,212,-63,59,-10
2415,38,-97,207,-65,60,-10
2420,38,-95,208,-69,62,-10
2425,39,-97,208,-72,64,-11
2430,38,-96,209,-75,65,-11
2435,40,-95,205,-78,65,-10
2440,38,-97,210,-80,65,-10
2445,39,-97,207,-80,66,-8
2450,40,-97,205,-81,68,-9
2455,41,-98,206,-80,68,-6
2460,40,-98,206,-78,67,-8
2465,39,-96,205,-76,66,-6
2470,44,-99,207,-76,66,-7
2475,40,-100,203,-75,65,-4
2480,42,-96,205,-74,63,-5
2485,40,-100,207,-73,62,-3
2490,40,-98,204,-74,61,-1
2495,39,-98,206,-74,60,0
2500,41,-103,205,-72,60,-1
2505,42,-99,203,-72,59,2
2510,41,-99,208,-70,59,1
2515,39,-99,205,-68,59,2
2520,38,-98,206,-67,58,2
2525,40,-99,204,-62,57,4
2530,41,-100,204,-61,58,3
2535,39,-100,203,-58,59,3
2540,42,-101,203,-56,58,1
2545,39,-98,207,-56,59,2
2550,42,-100,205,-55,60,0
2555,40,-100,205,-55,62,2
2560,40,-103,209,-54,63,0
2565,39,-100,209,-55,63,3
2570,40,-98,204,-55,64,-1
2575,39,-101,209,-54,64,2
2580,43,-99,206,-54,64,-1
2585,39,-99,207,-56,65,3
2590,39,-100,202,-57,66,0
2595,42,-102,204,-57,66,1
2600,40,-100,208,-57,65,-2
2605,41,-100,206,-58,64,1
2610,39,-99,208,-60,64,-3
2615,45,-102,206,-59,64,-1
2620,39,-101,205,-61,63,-3
2625,38,-100,208,-59,63,-2
2630,39,-96,207,-57,62,-5
2635,40,-103,204,-56,63,-3
2640,41,-102,207,-55,62,-4
2645,39,-101,206,-54,62,-1
2650,40,-102,202,-50,61,-2
2655,42,-103,207,-49,59,1
2660,41,-100,204,-47,59,0
2665,41,-101,204,-45,59,3
2670,40,-104,202,-45,57,2
2675,38,-103,206,-43,56,6
2680,41,-103,207,-42,54,3
2685,42,-102,204,-40,54,6
2690,40,-103,203,-41,55,3
2695,43,-103,205,-41,54,5
2700,41,-102,207,-41,53,2
2705,42,-100,205,-42,54,4
2710,40,-102,207,-42,54,2
2715,40,-104,206,-42,53,3
2720,38,-101,207,-39,52,0
2725,39,-105,208,-37,50,1
2730,37,-106,204,-34,48,-4
2735,39,-104,206,-34,45,-4
2740,42,-106,206,-33,45,-10
2745,40,-103,211,-33,40,-9
2750,40,-104,204,-35,39,-13
2755,38,-102,208,-39,38,-14
2760,38,-101,206,-43,34,-18
2765,39,-101,204,-48,32,-17
2770,41,-102,209,-53,30,-18
2775,39,-103,208,-58,25,-17
2780,39,-101,206,-62,21,-20
2785,38,-104,209,-66,20,-17
2790,40,-102,209,-66,14,-19
2795,39,-104,206,-68,11,-18
2800,38,-101,207,-66,9,-20
2805,43,-102,205,-65,6,-20
2810,40,-99,210,-65,4,-22
2815,38,-102,206,-65,3,-22
2820,38,-102,207,-68,1,-24
2825,39,-102,210,-74,-3,-24
2830,41,-101,208,-83,-7,-27
2835,34,-99,212,-95,-14,-25
2840,39,-104,213,-118,-20,-31
2845,39,-105,212,-140,-28,-33
2850,37,-104,212,-165,-36,-38
2855,37,-108,210,-192,-48,-40
2860,34,-108,209,-217,-62,-45
2865,33,-110,209,-239,-79,-45
2870,33,-111,206,-258,-97,-50
2875,34,-110,208,-265,-116,-49
2880,34,-111,212,-264,-135,-49
2885,33,-109,207,-256,-151,-46
2890,34,-110,205,-242,-168,-43
2895,33,-109,208,-217,-185,-38
2900,29,-106,208,-194,-195,-36
2905,35,-104,205,-171,-199,-33
2910,30,-102,210,-148,-200,-30
2915,37,-103,209,-128,-198,-31
2920,37,-101,206,-108,-190,-35
2925,32,-99,207,-91,-179,-38
2930,35,-101,206,-81,-167,-38
2935,36,-98,202,-74,-156,-38
2940,35,-101,204,-73,-148,-40
2945,32,-95,202,-78,-144,-38
2950,32,-98,206,-88,-142,-30
2955,33,-101,203,-96,-139,-21
2960,31,-98,208,-106,-138,-9
2965,30,-101,209,-110,-135,4
2970,30,-104,208,-110,-134,13
2975,30,-109,208,-109,-131,20
2980,31,-113,205,-108,-125,25
2985,30,-117,202,-108,-120,26
2990,28,-120,200,-109,-112,24
2995,28,-124,190,-111,-104,18
3000,31,-124,193,-118,-98,6
3005,30,-125,187,-132,-94,-8
3010,35,-125,188,-151,-94,-15
3015,34,-122,187,-173,-98,-27
3020,35,-121,187,-192,-105,-32
3025,37,-126,183,-201,-114,-35
3030,42,-125,185,-200,-121,-30
3035,46,-128,185,-190,-126,-25
3040,46,-128,190,-165,-129,-16
3045,49,-127,190,-134,-127,-11
3050,52,-128,193,-99,-126,-3
3055,53,-127,193,-64,-130,4
3060,54,-128,193,-34,-134,15
3065,52,-122,194,-9,-138,19
3070,52,-120,199,5,-141,26
3075,55,-119,198,13,-145,26
3080,54,-118,199,17,-147,28
3085,53,-114,202,24,-144,22
3090,55,-113,206,31,-141,20
3095,55,-109,207,37,-141,12
3100,59,-108,204,40,-140,6
3105,58,-103,209,41,-143,-1
3110,54,-104,207,43,-149,-3
3115,56,-99,207,45,-158,-9
3120,58,-103,210,48,-167,-9
3125,56,-104,205,53,-175,-15
3130,56,-104,207,60,-179,-16
3135,53,-102,199,70,-182,-22
3140,57,-106,201,80,-183,-24
3145,56,-103,194,86,-186,-33
3150,61,-104,193,92,-188,-39
3155,62,-104,200,93,-192,-48
3160,63,-108,190,94,-200,-55
3165,63,-105,193,92,-207,-65
3170,66,-107,188,86,-211,-77
3175,64,-109,188,69,-214,-88
3180,68,-110,188,47,-216,-94
3185,68,-111,186,19,-217,-101
3190,71,-115,192,-10,-218,-102
3195,72,-113,194,-38,-221,-106
3200,71,-119,196,-58,-223,-103
3205,71,-115,202,-73,-225,-102
3210,71,-116,201,-79,-233,-97
3215,71,-117,208,-80,-241,-92
3220,75,-115,208,-76,-252,-83
3225,71,-116,204,-69,-262,-83
3230,71,-117,208,-58,-277,-77
3235,74,-117,206,-49,-290,-80
3240,73,-113,206,-42,-306,-80
3245,75,-114,204,-35,-324,-86
3250,72,-110,201,-29,-340,-92
3255,73,-107,200,-23,-356,-107
3260,73,-108,199,-17,-369,-118
3265,74,-108,201,-9,-378,-137
3270,73,-104,199,-1,-386,-151
3275,77,-107,200,9,-392,-174
3280,73,-105,200,17,-397,-190
3285,75,-106,196,24,-404,-210
3290,76,-105,203,28,-406,-221
3295,73,-110,206,33,-411,-231
3300,72,-109,203,41,-420,-233
3305,69,-111,207,48,-430,-233
3310,66,-110,208,51,-443,-230
3315,69,-112,206,46,-460,-227
3320,65,-113,208,35,-481,-220
3325,62,-110,203,16,-504,-219
3330,60,-110,205,-6,-525,-218
3335,63,-109,206,-25,-540,-221
3340,63,-113,199,-34,-550,-228
3345,63,-119,205,-30,-551,-241
3350,64,-117,201,-10,-545,-254
3355,63,-113,207,22,-540,-274
3360,65,-113,203,63,-533,-290
3365,66,-113,207,107,-526,-311
3370,70,-112,201,153,-520,-330
3375,67,-113,204,194,-511,-354
3380,73,-107,198,225,-501,-374
3385,71,-111,192,246,-487,-397
3390,73,-111,192,253,-471,-413
3395,80,-115,185,249,-454,-430
3400,81,-119,179,230,-432,-442
3405,81,-120,180,204,-410,-458
3410,80,-121,180,174,-395,-472
3415,81,-122,181,141,-388,-484
3420,81,-120,180,109,-386,-490
3425,81,-124,178,82,-387,-497
3430,81,-126,184,62,-397,-500
3435,82,-126,183,53,-410,-507
3440,84,-130,182,57,-425,-509
3445,88,-129,185,73,-434,-513
3450,91,-129,188,97,-441,-512
3455,91,-126,188,131,-445,-513
3460,92,-125,185,158,-448,-514
3465,92,-124,187,178,-451,-518
3470,92,-119,186,195,-454,-523
3475,93,-117,189,211,-457,-525
3480,96,-112,192,231,-461,-528
3485,97,-110,191,251,-461,-532
3490,95,-108,194,274,-460,-535
3495,96,-102,194,293,-458,-537
3500,99,-98,196,308,-461,-531
3505,102,-93,192,317,-467,-518
3510,107,-90,195,316,-469,-507
3515,105,-84,197,315,-466,-489
3520,104,-84,203,314,-461,-472
3525,109,-84,205,316,-457,-449
3530,108,-81,204,311,-459,-425
3535,105,-75,207,306,-469,-400
3540,108,-74,204,294,-484,-376
3545,110,-71,204,279,-501,-355
3550,110,-69,204,269,-517,-337
3555,113,-67,205,260,-535,-323
3560,120,-66,202,256,-551,-313
3565,122,-67,201,255,-564,-305
3570,125,-66,201,253,-568,-302
3575,124,-66,196,249,-568,-301
3580,127,-67,195,242,-564,-304
3585,129,-67,192,233,-559,-306
3590,130,-68,191,222,-557,-308
3595,132,-69,195,214,-557,-308
3600,133,-72,193,214,-564,-311
3605,138,-79,190,227,-573,-311
3610,139,-80,189,252,-585,-313
3615,141,-82,185,283,-597,-308
3620,144,-85,186,313,-608,-307
3625,143,-79,183,337,-618,-305
3630,145,-80,175,340,-626,-308
3635,145,-76,174,332,-633,-310
3640,143,-74,179,318,-641,-319
3645,143,-70,178,305,-648,-326
3650,143,-72,179,295,-655,-337
3655,142,-64,183,294,-663,-347
3660,140,-63,182,299,-671,-359
3665,147,-63,182,319,-679,-366
3670,153,-65,188,351,-685,-373
3675,154,-62,186,382,-684,-376
3680,157,-58,191,415,-679,-381
3685,160,-54,181,430,-671,-381
3690,159,-54,182,431,-662,-385
3695,163,-56,182,416,-660,-383
3700,164,-53,176,389,-659,-387
3705,158,-45,177,354,-659,-389
3710,164,-52,177,324,-660,-394
3715,165,-52,170,302,-666,-394
3720,164,-53,173,294,-674,-396
3725,166,-54,168,299,-684,-395
3730,160,-55,172,312,-694,-398
3735,165,-56,167,332,-709,-398
3740,164,-60,162,362,-723,-404
3745,170,-62,154,388,-740,-407
3750,171,-62,154,408,-753,-417
3755,172,-56,149,416,-761,-427
3760,168,-50,143,409,-761,-445
3765,170,-44,148,389,-752,-459
3770,173,-45,148,361,-737,-479
3775,173,-47,149,329,-718,-494
3780,180,-43,151,291,-700,-514
3785,177,-38,156,253,-682,-529
3790,180,-38,154,218,-664,-549
3795,185,-43,158,192,-653,-556
3800,184,-46,162,187,-642,-563
3805,190,-51,166,193,-634,-563
3810,187,-53,170,211,-629,-568
3815,191,-51,171,229,-628,-563
3820,192,-50,167,246,-632,-562
3825,192,-48,163,255,-642,-557
3830,191,-46,165,252,-657,-565
3835,191,-37,156,236,-675,-573
3840,190,-34,152,221,-692,-587
3845,193,-34,152,209,-712,-597
3850,193,-33,154,205,-730,-608
3855,195,-33,147,205,-740,-617
3860,197,-32,144,201,-745,-631
3865,194,-32,140,197,-747,-637
3870,200,-37,142,194,-748,-642
3875,200,-37,143,190,-748,-641
3880,201,-41,144,183,-748,-645
3885,198,-39,143,167,-749,-646
3890,198,-37,143,145,-748,-651
3895,196,-34,142,113,-750,-652
3900,196,-35,142,78,-752,-660
3905,195,-31,139,34,-759,-665
3910,195,-33,139,4,-767,-678
3915,195,-30,141,-10,-776,-681
3920,194,-32,142,-5,-786,-681
3925,198,-31,144,13,-791,-674
3930,200,-32,148,32,-790,-673
3935,201,-29,145,47,-785,-674
3940,201,-28,142,53,-781,-678
3945,200,-27,136,50,-779,-676
3950,201,-27,133,34,-784,-677
3955,201,-31,134,17,-792,-676
3960,198,-32,132,-4,-803,-678
3965,202,-35,130,-23,-810,-680
3970,200,-38,132,-36,-810,-687
3975,200,-37,133,-49,-804,-697
3980,202,-35,135,-55,-793,-712
3985,208,-32,132,-57,-779,-722
3990,211,-28,132,-59,-765,-734
3995,213,-22,130,-57,-753,-738
4000,216,-24,128,-60,-744,-740
4005,216,-22,122,-65,-740,-734
4010,217,-23,117,-78,-737,-724
4015,218,-22,114,-104,-726,-711
4020,219,-20,110,-153,-709,-708
4025,225,-14,109,-206,-684,-713
4030,228,-7,113,-264,-651,-731
4035,227,2,112,-319,-616,-752
4040,227,6,115,-351,-584,-764
4045,238,0,122,-345,-555,-747
4050,245,-8,119,-299,-526,-715
4055,254,-18,128,-223,-495,-677
4060,254,-15,128,-139,-462,-642
4065,255,-15,126,-59,-433,-607
4070,254,-15,121,3,-412,-566
4075,252,-17,118,49,-394,-526
4080,252,-20,116,65,-380,-486
4085,252,-20,110,68,-369,-446
4090,248,-22,109,64,-363,-411
4095,240,-16,106,61,-359,-389
4100,234,-17,98,63,-357,-379
4105,231,-11,96,69,-353,-390
4110,235,-4,94,84,-344,-423
4115,232,0,96,109,-327,-470
4120,231,3,97,145,-305,-533
4125,231,6,98,186,-273,-625
4130,232,12,98,226,-230,-716
4135,230,17,95,247,-198,-812
4140,231,22,96,255,-179,-885
4145,232,24,88,251,-173,-929
4150,233,19,89,237,-181,-941
4155,238,12,91,217,-193,-932
4160,237,9,90,194,-207,-902
4165,236,3,92,167,-222,-863
4170,232,6,93,135,-235,-820
4175,232,5,97,97,-240,-783
4180,228,7,103,56,-234,-750
4185,227,10,113,19,-211,-736
4190,227,8,124,1,-184,-728
4195,225,13,131,19,-152,-736
4200,227,12,136,66,-122,-748
4205,223,10,144,147,-100,-771
4210,223,9,143,254,-88,-795
4215,223,6,146,373,-85,-821
4220,224,13,144,500,-94,-839
4225,226,15,138,618,-117,-852
4230,226,17,131,718,-148,-856
4235,224,22,120,794,-182,-854
4240,221,26,108,847,-222,-836
4245,222,29,99,878,-242,-819
4250,222,35,95,879,-251,-796
4255,222,35,96,863,-250,-777
4260,223,45,94,828,-243,-756
4265,222,54,95,788,-235,-744
4270,217,62,98,740,-228,-729
4275,215,67,94,693,-224,-721
4280,215,76,100,647,-220,-712
4285,220,77,98,606,-220,-704
4290,223,81,97,575,-224,-686
4295,227,76,98,554,-238,-660
4300,236,76,89,537,-255,-636
4305,242,80,86,519,-269,-621
4310,248,79,85,499,-282,-607
4315,249,80,79,482,-296,-597
4320,250,81,82,466,-307,-585
4325,247,80,77,451,-317,-580
4330,245,85,76,436,-331,-573
4335,249,80,77,423,-348,-577
4340,248,86,75,417,-361,-580
4345,246,91,76,418,-375,-594
4350,249,98,74,423,-386,-610
4355,251,101,69,437,-396,-630
4360,252,104,67,455,-400,-642
4365,253,115,69,480,-395,-662
4370,250,116,64,509,-387,-679
4375,249,119,63,532,-383,-698
4380,246,123,60,548,-378,-708
4385,245,123,64,552,-374,-722
4390,236,124,64,538,-368,-732
4395,233,128,65,512,-360,-739
4400,229,132,65,469,-357,-736
4405,223,131,68,417,-359,-732
4410,220,130,64,353,-369,-722
4415,220,126,66,305,-386,-720
4420,216,126,67,263,-404,-713
4425,209,129,67,226,-420,-711
4430,208,126,72,190,-427,-696
4435,203,126,73,158,-431,-690
4440,205,128,79,134,-432,-676
4445,208,130,84,126,-433,-663
4450,210,139,83,128,-431,-643
4455,213,143,85,143,-424,-634
4460,218,147,90,162,-411,-616
4465,225,157,89,186,-389,-603
4470,235,167,83,201,-364,-586
4475,239,174,74,206,-342,-563
4480,249,174,68,206,-328,-520
4485,257,170,61,209,-331,-457
4490,262,159,48,212,-346,-364
4495,271,144,38,209,-365,-247
4500,271,129,31,205,-381,-104
4505,269,115,25,199,-393,49
4510,272,98,29,191,-397,205
4515,267,86,28,180,-395,335
4520,265,83,36,170,-379,441
4525,252,90,41,159,-346,478
4530,245,101,49,143,-298,482
4535,227,113,57,134,-239,449
4540,214,127,65,123,-171,413
4545,201,143,69,114,-113,369
4550,187,154,69,107,-65,335
4555,180,161,70,100,-32,309
4560,181,166,67,89,-8,297
4565,177,163,63,77,10,280
4570,183,160,59,61,15,264
4575,183,155,56,46,7,240
4580,183,147,51,29,-10,223
4585,190,143,54,18,-30,209
4590,193,139,55,18,-54,196
4595,196,137,53,24,-75,186
4600,202,130,57,38,-100,178
4605,206,130,54,54,-126,171
4610,210,127,56,73,-148,173
4615,218,127,52,85,-171,180
4620,224,123,57,94,-187,199
4625,230,122,53,100,-196,220
4630,239,119,49,107,-200,249
4635,245,118,46,122,-200,276
4640,251,115,41,139,-200,302
4645,256,115,37,161,-198,325
4650,256,117,33,185,-200,349
4655,258,114,33,211,-202,371
4660,259,115,32,239,-206,395
4665,263,112,32,265,-208,415
4670,260,111,31,287,-206,430
4675,264,110,32,306,-202,438
4680,263,112,36,318,-198,442
4685,261,106,34,322,-192,444
4690,263,106,36,318,-187,441
4695,262,109,41,307,-182,440
4700,261,105,37,289,-177,434
4705,258,108,41,266,-172,429
4710,255,105,36,238,-170,424
4715,255,107,33,205,-170,424
4720,254,104,30,167,-171,426
4725,253,102,30,130,-171,429
4730,254,99,26,94,-174,433
4735,248,100,27,60,-176,439
4740,251,100,24,28,-181,445
4745,252,96,24,-9,-182,452
4750,251,91,25,-38,-184,453
4755,251,92,22,-67,-183,453
4760,249,91,24,-91,-181,449
4765,248,86,26,-112,-178,447
4770,247,85,27,-126,-175,441
4775,247,84,24,-136,-170,440
4780,247,83,27,-142,-166,435
4785,246,83,28,-141,-163,431
4790,250,80,30,-137,-160,422
4795,247,80,37,-131,-153,414
4800,247,80,30,-121,-147,403
4805,248,82,35,-113,-143,397
4810,248,80,35,-105,-141,384
4815,250,82,37,-95,-141,375
4820,254,86,43,-87,-146,362
4825,254,87,37,-83,-154,353
4830,254,86,38,-78,-161,339
4835,258,85,35,-78,-165,332
4840,259,82,33,-77,-166,325
4845,260,80,32,-83,-161,324
4850,258,82,37,-98,-163,316
4855,260,79,31,-115,-169,315
4860,256,84,33,-139,-179,310
4865,257,86,32,-168,-198,315
4870,258,83,32,-205,-218,321
4875,258,81,26,-244,-242,331
4880,261,79,27,-286,-268,335
4885,262,77,29,-328,-285,342
4890,265,71,28,-370,-298,344
4895,268,70,29,-411,-304,347
4900,266,68,28,-449,-306,342
4905,271,65,30,-487,-307,334
4910,275,60,31,-525,-303,319
4915,273,62,30,-552,-297,304
4920,278,55,29,-574,-289,284
4925,282,54,28,-590,-278,267
4930,285,50,31,-599,-265,249
4935,286,45,31,-600,-254,235
4940,286,46,32,-595,-247,222
4945,289,44,33,-584,-237,219
4950,286,40,33,-568,-222,214
4955,284,34,35,-544,-210,214
4960,284,32,32,-515,-200,211
4965,282,26,37,-474,-189,217
4970,288,23,33,-434,-180,220
4975,287,23,30,-398,-167,227
4980,286,22,31,-371,-159,215
4985,285,24,28,-359,-150,204
4990,283,27,30,-360,-139,196
4995,278,31,35,-367,-134,194
5000,269,37,33,-387,-135,184
5005,266,42,34,-414,-142,179
5010,262,46,36,-446,-155,175
5015,263,44,37,-468,-169,176
5020,261,46,42,-494,-183,172
5025,263,48,47,-497,-186,170
5030,261,47,50,-493,-182,157
5035,262,45,49,-477,-181,142
5040,265,47,52,-448,-172,123
5045,267,43,60,-405,-158,106
5050,274,41,57,-351,-139,86
5055,273,43,57,-291,-120,74
5060,280,40,57,-227,-102,62
5065,281,39,57,-164,-82,57
5070,283,39,54,-108,-61,48
5075,284,42,47,-50,-40,44
5080,287,36,43,-13,-21,39
5085,288,37,40,10,-5,34
5090,287,38,36,23,12,27
5095,288,38,38,20,27,19
5100,285,42,36,2,38,11
5105,289,38,27,-26,46,7
5110,282,42,32,-61,64,6
5115,279,39,28,-105,52,1
5120,280,39,30,-147,31,-7
5125,278,37,27,-181,11,-14
5130,271,34,31,-213,-4,-23
5135,270,34,25,-224,-12,-29
5140,267,37,25,-224,-16,-38
5145,270,35,31,-217,-20,-46
5150,272,36,30,-203,-18,-55
5155,272,37,30,-181,-11,-63
5160,270,38,30,-155,2,-68
5165,266,38,31,-131,2,-77
5170,265,42,29,-108,0,-83
5175,266,43,28,-85,0,-87
5180,264,44,27,-66,0,-88
5185,263,46,26,-47,-2,-88
5190,266,44,25,-37,-3,-85
5195,262,46,25,-29,-8,-84
5200,266,43,26,-17,-14,-83
5205,265,48,25,-7,-21,-83
5210,270,44,26,5,-23,-83
5215,269,48,24,15,-21,-82
5220,274,49,28,24,-18,-77
5225,270,50,27,31,-13,-72
5230,274,48,28,40,-12,-67
5235,273,51,31,51,-8,-60
5240,273,52,31,66,1,-53
5245,276,51,33,85,8,-53
5250,278,52,28,105,13,-52
5255,279,49,27,126,21,-54
5260,280,53,27,144,31,-56
5265,283,53,24,158,44,-59
5270,284,53,28,166,58,-60
5275,281,56,21,167,71,-60
5280,283,52,17,164,86,-59
5285,280,51,20,158,102,-58
5290,280,61,18,147,117,-57
5295,278,60,16,132,134,-61
5300,275,60,11,116,146,-63
5305,275,61,15,98,158,-70
5310,271,64,14,78,166,-76
5315,268,63,17,56,175,-87
5320,263,65,15,33,183,-94
5325,267,63,14,8,192,-105
5330,262,67,14,-17,199,-112
5335,262,65,13,-41,205,-122
5340,260,68,21,-62,210,-128
5345,258,66,19,-79,215,-138
5350,256,70,17,-95,217,-142
5355,255,67,19,-104,217,-149
5360,256,67,20,-111,215,-151
5365,256,68,21,-113,211,-156
5370,258,66,21,-114,207,-156
5375,259,66,23,-113,202,-158
5380,257,64,21,-112,196,-156
5385,256,65,27,-110,191,-156
5390,258,61,24,-108,185,-151
5395,259,60,30,-106,179,-149
5400,257,62,29,-106,173,-141
5405,259,61,30,-106,169,-141
5410,258,63,36,-106,165,-136
5415,257,64,36,-106,161,-137
5420,262,62,39,-105,159,-134
5425,261,62,42,-103,159,-136
5430,264,63,38,-99,159,-133
5435,263,65,38,-95,162,-135
5440,265,64,37,-93,163,-131
5445,264,63,38,-86,166,-130
5450,266,62,38,-79,168,-126
5455,269,63,37,-68,168,-123
5460,266,64,41,-53,167,-116
5465,266,62,35,-39,164,-114
5470,266,60,39,-28,160,-105
5475,266,62,36,-17,155,-101
5480,265,62,36,-9,151,-93
5485,266,61,37,-4,149,-89
5490,266,64,33,-1,148,-83
5495,265,64,34,-2,149,-84
5500,265,62,31,-6,151,-81
5505,260,51,36,-11,156,-82
5510,265,63,30,-14,159,-81
5515,266,62,34,-25,166,-83
5520,264,63,29,-33,170,-81
5525,263,64,29,-38,175,-84
5530,262,61,32,-45,180,-84
5535,262,61,36,-47,184,-87
5540,260,60,31,-47,187,-88
5545,257,61,34,-48,188,-92
5550,261,61,35,-46,190,-91
5555,256,61,37,-42,190,-94
5560,257,63,38,-39,189,-93
5565,258,62,44,-31,187,-96
5570,256,60,43,-25,183,-94
5575,256,62,43,-20,179,-95
5580,255,62,43,-17,177,-93
5585,257,62,43,-11,174,-93
5590,256,63,43,-5,171,-90
5595,257,63,42,3,169,-92
5600,258,62,42,10,165,-88
5605,255,64,42,19,160,-90
5610,257,65,39,27,156,-88
5615,255,64,41,36,153,-89
5620,255,65,43,44,150,-88
5625,258,64,45,53,148,-88
5630,255,66,42,60,145,-86
5635,255,66,44,65,143,-87
5640,257,67,43,67,139,-84
5645,257,70,41,69,136,-84
5650,257,70,41,68,132,-78
5655,256,70,43,64,128,-79
5660,256,69,38,60,125,-76
5665,256,69,44,56,122,-77
5670,258,73,38,49,120,-74
5675,257,73,38,41,119,-75
5680,257,73,38,30,115,-75
5685,258,73,39,17,116,-73
5690,259,70,38,6,113,-70
5695,257,72,36,-7,114,-68
5700,257,75,37,-17,115,-65
5705,256,75,38,-29,116,-65
5710,256,73,39,-37,116,-62
5715,256,73,35,-45,115,-61
5720,255,75,40,-51,113,-56
5725,257,72,40,-56,110,-54
5730,256,70,44,-61,107,-50
5735,254,73,45,-62,103,-44
5740,256,73,46,-64,98,-41
5745,256,68,42,-63,93,-39
5750,256,69,45,-62,88,-34
5755,258,66,44,-59,88,-31
5760,258,66,42,-53,87,-30
5765,257,66,42,-49,87,-28
5770,256,70,45,-41,88,-27
5775,257,69,42,-32,89,-26
5780,257,66,41,-25,89,-25
5785,256,66,43,-15,89,-25
5790,254,67,42,-5,90,-26
5795,255,67,39,1,88,-25
5800,258,72,36,7,84,-28
5805,256,67,40,9,84,-27
5810,257,72,43,11,84,-29
5815,255,72,41,9,81,-29
5820,256,73,42,8,83,-29
5825,255,75,42,4,84,-27
5830,256,71,37,0,85,-27
5835,257,70,42,-1,84,-22
5840,257,76,43,-3,82,-22
5845,257,73,42,-5,80,-18
5850,256,71,43,-6,75,-15
5855,257,72,41,-6,73,-11
5860,258,70,39,-6,70,-10
5865,259,71,40,-6,67,-6
5870,262,69,42,-7,64,-6
5875,261,70,43,-8,63,-2
5880,259,71,43,-9,61,-1
5885,257,69,41,-12,61,2
5890,257,69,38,-10,63,4
5895,259,69,44,-13,64,8
5900,257,69,40,-13,66,8
5905,257,72,40,-10,66,10
5910,257,65,39,-8,65,8
5915,257,69,42,-6,65,9
5920,257,69,42,-6,65,6
5925,258,67,41,-6,64,7
5930,260,68,40,-7,64,4
5935,256,69,44,-9,66,5
5940,256,71,41,-11,67,2
5945,258,69,45,-11,69,2
5950,260,71,40,-12,68,-1
5955,257,71,39,-11,66,2
5960,258,69,42,-10,67,-1
5965,256,72,41,-9,63,2
5970,259,69,45,-10,61,1
5975,256,70,40,-10,61,4
5980,255,70,45,-11,57,3
5985,257,69,45,-15,56,6
5990,260,70,40,-17,53,5
5995,257,74,44,-19,51,9
6000,259,70,43,-21,50,9
6005,258,68,44,-24,48,15
6010,257,70,42,-29,46,12
6015,258,67,42,-31,45,14
6020,257,69,44,-34,45,13
6025,258,66,45,-35,47,15
6030,259,66,39,-37,46,13
6035,260,65,43,-36,48,14
6040,257,69,40,-36,47,10
6045,260,66,42,-34,48,10
6050,257,67,38,-31,50,7
6055,262,66,44,-29,50,8
6060,260,65,43,-29,49,3
6065,259,66,40,-27,51,3
6070,258,66,41,-24,50,-1
6075,257,66,43,-22,49,0
6080,260,67,43,-21,48,-5
6085,257,68,36,-20,48,-3
6090,257,68,41,-18,50,-6
6095,258,67,39,-17,48,-6
6100,258,70,42,-16,48,-7
6105,258,67,42,-16,48,-7
6110,258,67,41,-15,48,-9
6115,259,66,38,-15,49,-6
6120,258,68,43,-16,48,-8
6125,257,68,41,-16,49,-6
6130,259,69,42,-15,48,-5
6135,256,71,41,-16,47,-3
6140,257,70,41,-18,45,-4
6145,258,70,41,-19,44,1
6150,260,70,39,-21,41,-1
6155,260,71,43,-24,38,4
6160,260,70,44,-25,35,3
6165,260,67,44,-27,33,6
6170,259,69,41,-27,31,5
6175,260,67,43,-29,29,6
6180,263,68,42,-29,29,5
6185,262,68,39,-30,29,5
6190,260,69,37,-31,30,4
6195,260,67,40,-33,33,5
6200,260,69,39,-34,37,2
6205,261,67,38,-33,39,2
6210,263,66,38,-31,43,0
6215,262,64,36,-30,46,0
6220,257,70,39,-29,49,-3
6225,262,66,38,-28,53,-3
6230,263,66,36,-30,56,-4
6235,261,66,39,-32,59,-5
6240,261,66,42,-34,60,-6
6245,260,68,40,-36,63,-6
6250,261,67,40,-40,63,-8
6255,260,68,38,-43,64,-8
6260,262,65,43,-46,65,-9
6265,260,67,42,-48,67,-8
6270,259,67,43,-51,65,-8
6275,258,68,40,-51,65,-7
6280,259,70,40,-52,65,-8
6285,259,68,43,-49,65,-7
6290,258,67,42,-45,64,-7
6295,258,68,42,-41,64,-6
6300,261,68,41,-36,64,-4
6305,258,70,40,-33,64,-2
6310,261,66,43,-29,64,-2
6315,257,66,43,-27,64,-3
6320,259,66,44,-25,63,-2
6325,257,69,46,-25,61,-2
6330,260,66,42,-23,61,-1
6335,259,70,41,-23,63,-2
6340,258,67,42,-22,61,-1
6345,259,67,39,-21,61,-3
6350,260,67,41,-19,61,-3
6355,259,69,40,-18,59,-6
6360,256,68,38,-18,59,-4
6365,259,69,40,-17,59,-6
6370,263,65,38,-16,60,-6
6375,261,69,42,-16,58,-8
6380,258,67,36,-17,58,-7
6385,260,68,42,-18,58,-8
6390,259,67,39,-21,56,-8
6395,259,66,39,-24,56,-9
6400,259,69,40,-29,56,-7
6405,260,68,40,-33,54,-10
6410,259,70,36,-37,51,-7
6415,257,68,41,-40,51,-8
6420,260,65,40,-44,49,-5
6425,259,69,42,-45,49,-6
6430,258,67,45,-46,47,-3
6435,257,70,37,-46,48,-3
6440,257,68,40,-47,48,-1
6445,257,67,43,-46,48,-2
6450,256,67,42,-44,50,2
6455,257,68,43,-42,51,-1
6460,258,66,43,-40,53,1
6465,257,69,42,-39,54,-2
6470,256,67,43,-35,56,1
6475,256,66,43,-31,58,-2
6480,257,67,39,-29,59,0
6485,257,66,44,-26,60,-3
6490,258,66,41,-22,58,1
6495,260,67,43,-19,57,1
6500,258,67,35,-18,55,3
6505,259,67,43,-19,54,2
6510,258,66,43,-21,51,2
6515,259,68,41,-24,51,1
6520,258,70,40,-26,51,3
6525,257,70,40,-31,51,-1
6530,259,70,38,-34,51,-1
6535,259,70,39,-39,52,-4
6540,258,68,38,-42,53,-1
6545,258,71,40,-44,53,-3
6550,262,69,41,-48,55,1
6555,262,68,42,-50,56,0
6560,261,69,38,-49,55,5
6565,261,69,36,-49,53,7
6570,261,66,40,-48,51,11
6575,261,69,40,-46,48,9
6580,262,67,35,-43,47,12
6585,258,69,36,-43,46,10
6590,257,65,40,-43,46,14
6595,259,68,41,-42,48,10
6600,257,69,38,-39,50,13
6605,258,68,43,-40,50,9
6610,257,69,41,-38,52,11
6615,259,66,38,-39,52,8
6620,259,68,39,-39,54,8
6625,259,69,40,-39,56,8
6630,260,68,42,-41,55,7
6635,258,66,40,-43,56,6
6640,260,68,38,-48,57,7
6645,257,67,41,-52,56,5
6650,259,67,39,-55,59,6
6655,256,68,38,-57,58,5
6660,259,65,38,-57,59,6
6665,261,65,37,-58,58,2
6670,261,64,39,-60,60,3
6675,258,64,36,-60,61,0
6680,258,64,35,-60,64,-2
6685,262,65,38,-61,66,-5
6690,258,64,34,-60,69,-7
6695,263,62,38,-61,72,-12
6700,260,63,39,-62,76,-13
6705,261,65,36,-61,79,-18
6710,258,67,38,-63,80,-19
6715,256,65,40,-65,83,-21
6720,258,65,40,-66,81,-20
6725,256,66,39,-68,80,-24
6730,260,63,40,-70,80,-23
6735,258,66,39,-71,77,-25
6740,259,65,39,-72,75,-23
6745,260,66,41,-73,72,-23
6750,263,66,42,-71,70,-22
6755,260,65,42,-68,69,-23
6760,257,67,45,-65,67,-23
6765,262,64,40,-60,66,-23
6770,258,65,40,-53,64,-21
6775,259,65,39,-48,64,-23
6780,257,67,41,-40,66,-23
6785,258,65,44,-34,66,-24
6790,257,64,45,-25,67,-24
6795,259,64,47,-18,71,-25
6800,259,65,46,-11,73,-25
6805,257,66,39,-6,74,-25
6810,257,67,44,-2,75,-25
6815,256,65,45,0,76,-24
6820,256,67,44,1,76,-24
6825,257,65,43,0,76,-24
6830,262,67,42,1,76,-24
6835,258,67,45,-1,77,-23
6840,257,69,37,1,78,-22
6845,258,65,46,2,78,-20
6850,258,68,46,4,77,-21
6855,261,68,44,6,75,-19
6860,256,67,40,8,74,-18
6865,257,67,41,9,72,-15
6870,257,70,41,12,70,-15
6875,257,69,43,14,68,-13
6880,257,69,39,16,67,-12
6885,255,68,40,16,66,-10
6890,256,69,44,17,64,-10
6895,257,69,38,14,67,-7
6900,256,69,37,12,70,-9
6905,258,69,42,11,71,-7
6910,257,68,41,10,72,-10
6915,258,66,37,5,72,-7
6920,258,70,38,6,73,-9
6925,258,69,39,4,73,-7
6930,259,66,40,6,73,-10
6935,257,68,41,7,74,-10
6940,258,70,42,8,75,-11
6945,259,69,39,9,75,-9
6950,257,68,40,10,74,-12
6955,259,69,37,11,72,-9
6960,261,69,40,12,72,-9
6965,260,66,39,10,70,-6
6970,259,69,39,9,70,-8
6975,259,66,38,7,69,-7
6980,259,69,39,4,70,-9
6985,258,70,40,0,71,-8
6990,261,67,40,-2,71,-10
6995,258,70,38,-5,73,-8
7000,256,71,37,-8,74,-12
7005,260,67,42,-10,75,-11
7010,263,68,36,-14,76,-14
7015,259,68,36,-17,77,-13
7020,259,71,38,-20,79,-14
7025,262,65,37,-22,80,-13
7030,260,65,38,-23,81,-16
7035,259,67,41,-24,83,-16
7040,261,69,39,-26,83,-20
7045,260,67,39,-27,84,-18
7050,260,69,38,-28,86,-21
7055,260,66,39,-29,86,-21
7060,259,66,41,-30,87,-25
7065,257,70,38,-29,88,-23
7070,261,68,43,-29,90,-25
7075,258,65,38,-27,91,-23
7080,257,68,43,-25,91,-27
7085,261,67,45,-22,92,-24
7090,257,68,43,-19,91,-26
7095,258,64,43,-15,92,-24
7100,260,66,42,-10,93,-27
7105,260,64,45,-6,94,-25
7110,257,66,41,-2,95,-28
7115,258,67,40,3,97,-26
7120,259,67,42,7,98,-29
7125,257,65,41,10,100,-27
7130,256,65,44,13,100,-29
7135,258,67,39,18,101,-28
7140,260,68,41,21,101,-30
7145,257,71,46,22,101,-28
7150,256,70,43,22,101,-30
7155,256,70,45,21,98,-28
7160,257,68,45,20,96,-29
7165,257,69,41,16,94,-27
7170,258,71,46,13,93,-29
7175,260,70,40,9,92,-27
7180,259,70,44,3,91,-29
7185,259,72,42,-1,89,-27
7190,259,71,45,-4,90,-29
7195,258,67,39,-9,90,-26
7200,257,68,43,-11,90,-28
7205,257,70,40,-14,90,-26
7210,258,69,40,-16,89,-27
7215,259,68,40,-15,89,-25
7220,257,69,46,-16,90,-27
7225,256,71,42,-14,90,-26
7230,259,68,41,-11,89,-28
7235,258,67,44,-10,88,-26
7240,258,68,46,-10,88,-29
7245,258,67,42,-10,87,-27
7250,257,73,46,-11,87,-28
7255,259,70,47,-9,87,-26
7260,258,69,42,-8,87,-26
7265,256,70,44,-9,85,-25
7270,256,72,46,-8,84,-24
7275,256,69,41,-7,85,-22
7280,256,72,47,-8,86,-22
7285,256,71,47,-8,85,-21
7290,257,70,42,-7,85,-20
7295,257,68,47,-4,83,-19
7300,257,67,35,-3,83,-18
7305,257,69,42,-1,83,-18
7310,257,70,42,2,82,-20
7315,256,71,45,4,82,-20
7320,256,68,45,5,83,-21
7325,256,71,48,5,84,-20
7330,258,71,43,5,84,-20
7335,260,69,45,5,86,-21
7340,257,71,45,4,87,-21
7345,260,69,46,4,87,-20
7350,260,67,44,4,84,-19
7355,258,72,44,5,85,-19
7360,258,69,43,4,84,-18
7365,258,73,42,3,85,-18
7370,259,72,44,1,85,-17
7375,256,76,43,0,85,-15
7380,258,69,44,-1,84,-14
7385,261,66,45,0,84,-13
7390,260,67,46,0,84,-12
7395,257,67,40,2,84,-15
7400,258,68,43,5,83,-14
7405,257,71,42,5,85,-16
7410,256,70,47,8,85,-16
7415,255,68,46,9,85,-19
7420,256,71,44,10,85,-19
7425,256,70,44,8,84,-23
7430,258,70,42,6,83,-22
7435,257,70,47,4,80,-24
7440,256,73,45,0,80,-23
7445,256,74,45,-2,79,-22
7450,257,74,47,-7,78,-19
7455,256,71,42,-9,76,-21
7460,257,74,43,-12,77,-17
7465,259,74,46,-15,77,-18
7470,257,70,44,-16,78,-16
7475,257,70,47,-18,78,-17
7480,257,70,45,-18,77,-14
7485,258,74,46,-18,78,-17
7490,257,71,42,-18,78,-15
7495,258,71,47,-18,80,-16
7500,257,71,46,-18,80,-13
7505,257,73,46,-19,79,-16
7510,257,74,43,-19,78,-12
7515,253,73,43,-20,78,-10
7520,258,72,45,-25,73,2
7525,259,73,43,-24,71,-5
7530,258,69,49,-23,74,-6
7535,259,70,46,-22,75,-11
7540,257,71,46,-22,76,-11
7545,257,69,42,-22,77,-12
7550,259,71,49,-19,76,-10
7555,257,69,46,-15,78,-15
7560,256,71,44,-11,78,-14
7565,257,70,42,-9,80,-17
7570,258,69,45,-5,81,-16
7575,256,69,47,2,81,-18
7580,258,70,48,6,80,-17
7585,256,68,45,11,81,-20
7590,258,73,47,12,80,-17
7595,257,70,44,15,79,-19
7600,256,73,46,15,77,-16
7605,257,75,45,14,77,-17
7610,257,73,47,13,76,-15
7615,257,72,48,11,76,-15
7620,259,71,47,7,78,-11
7625,258,74,46,4,78,-12
7630,256,74,44,0,76,-10
7635,256,73,45,-2,77,-11
7640,255,71,47,-1,75,-8
7645,258,74,43,-2,73,-10
7650,259,71,48,-1,72,-7
7655,257,68,45,0,73,-9
7660,258,71,47,-1,72,-7
7665,257,71,46,-2,72,-10
7670,258,72,44,-4,73,-7
7675,257,73,45,-4,71,-10
7680,257,72,46,-5,70,-8
7685,257,70,45,-7,70,-11
7690,259,66,44,-8,71,-10
7695,257,72,46,-9,71,-12
7700,257,71,46,-10,71,-11
7705,259,68,42,-11,72,-14
7710,257,70,47,-13,72,-15
7715,257,72,47,-13,74,-18
7720,257,72,46,-15,72,-17
7725,255,74,45,-15,73,-21
7730,256,72,43,-17,76,-19
7735,256,74,45,-18,78,-20
7740,257,71,45,-19,78,-20
7745,256,72,43,-22,79,-22
7750,256,73,48,-23,80,-22
7755,257,70,45,-23,81,-23
7760,258,73,47,-23,81,-22
7765,256,73,46,-22,81,-22
7770,260,70,45,-20,82,-19
7775,257,73,43,-17,82,-21
7780,257,69,48,-14,82,-21
7785,259,69,44,-12,81,-22
7790,259,72,46,-10,81,-22
7795,257,71,45,-9,80,-24
7800,258,70,45,-7,83,-24
7805,256,71,44,-9,82,-25
7810,257,73,44,-9,81,-24
7815,257,71,44,-10,83,-26
7820,256,72,47,-11,83,-25
7825,257,73,47,-12,84,-26
7830,256,72,46,-15,82,-25
7835,257,74,47,-17,81,-25
7840,258,71,47,-17,81,-26
7845,258,75,45,-18,81,-25
7850,257,76,47,-19,81,-24
7855,257,76,49,-19,81,-23
7860,254,71,49,-19,80,-23
7865,257,73,49,-20,79,-22
7870,256,74,46,-18,79,-21
7875,257,74,44,-16,78,-21
7880,257,76,47,-16,78,-20
7885,257,73,48,-15,78,-21
7890,256,73,50,-16,78,-20
7895,255,72,48,-16,77,-17
7900,256,72,48,-16,74,-19
7905,256,71,47,-16,73,-17
7910,256,72,48,-17,73,-16
7915,256,70,46,-18,73,-15
7920,257,72,49,-17,72,-15
7925,256,72,48,-17,73,-14
7930,255,74,47,-16,72,-14
7935,258,71,48,-16,73,-12
7940,255,75,48,-14,73,-15
7945,255,73,47,-12,75,-12
7950,257,72,51,-10,74,-13
7955,257,73,52,-6,75,-12
7960,257,72,48,-4,76,-13
7965,256,75,50,-1,74,-12
7970,256,74,45,0,73,-13
7975,257,73,48,2,73,-11
7980,254,74,45,2,71,-12
7985,255,76,49,2,71,-9
7990,256,73,47,1,70,-9
7995,255,73,46,2,69,-9
8000,256,72,47,-3,69,-11
8005,255,77,49,-4,69,-9
8010,255,76,48,-5,69,-10
8015,256,74,48,-6,69,-8
8020,256,76,47,-7,69,-10
8025,257,75,46,-8,69,-8
8030,257,74,48,-10,67,-10
8035,256,75,50,-11,66,-8
8040,257,73,46,-11,64,-8
8045,256,75,47,-12,63,-6
8050,256,75,48,-10,63,-8
8055,255,74,49,-10,62,-5
8060,259,74,46,-11,62,-7
8065,256,74,48,-10,62,-5
8070,257,72,48,-9,62,-7
8075,256,75,50,-10,61,-3
8080,256,73,48,-8,60,-5
8085,256,72,47,-6,60,-4
8090,256,75,44,-4,60,-6
8095,257,71,44,-3,60,-3
8100,255,76,49,-2,60,-7
8105,256,74,45,-2,59,-3
8110,258,74,47,-2,58,-6
8115,256,73,47,-4,58,-3
8120,256,77,44,-5,56,-5
8125,254,74,49,-7,55,-2
8130,256,76,45,-8,54,-4
8135,256,76,45,-12,53,-1
8140,256,73,46,-16,54,-3
8145,256,76,49,-20,53,2
8150,256,74,46,-23,52,0
8155,255,74,47,-25,52,3
8160,258,71,48,-27,54,1
8165,256,72,47,-29,55,3
8170,255,72,48,-31,56,1
8175,257,72,48,-30,57,1
8180,256,74,50,-26,58,-2
8185,259,73,45,-24,60,-1
8190,257,70,49,-20,62,-3
8195,254,75,45,-15,63,-2
8200,257,75,47,-12,64,-4
8205,257,75,45,-9,64,-3
8210,257,73,50,-5,64,-5
8215,257,75,45,-2,65,-3
8220,258,72,48,0,62,-3
8225,258,72,45,4,61,1
8230,258,75,42,5,57,-1
8235,258,76,44,6,57,1
8240,259,73,45,7,56,0
8245,256,72,44,5,55,2
8250,255,76,43,3,56,-1
8255,257,74,46,1,56,1
8260,256,73,46,-1,54,-2
8265,257,75,44,-4,54,-1
8270,255,75,44,-8,56,-4
8275,258,76,43,-11,56,-4
8280,255,75,46,-13,58,-7
8285,256,74,42,-15,60,-5
8290,256,76,41,-17,60,-7
8295,257,69,49,-18,62,-7
8300,255,76,45,-20,63,-8
8305,256,74,43,-20,62,-6
8310,256,72,49,-19,63,-9
8315,255,71,45,-18,64,-6
8320,256,75,47,-18,64,-6
8325,257,71,48,-17,65,-5
8330,259,73,48,-19,64,-5
8335,256,71,48,-17,65,-4
8340,257,73,47,-19,65,-4
8345,256,74,49,-20,65,-4
8350,256,72,46,-19,66,-3
8355,259,73,47,-18,67,-1
8360,258,72,50,-15,67,-2
8365,256,72,46,-13,68,-3
8370,258,72,46,-10,66,-3
8375,258,71,50,-7,64,-2
8380,257,74,45,-6,63,-3
8385,259,72,44,-6,62,-5
8390,257,76,46,-8,63,-6
8395,255,74,46,-9,65,-8
8400,258,68,49,-9,64,-9
8405,257,73,41,-11,66,-8
8410,256,72,44,-13,66,-9
8415,256,75,47,-12,67,-9
8420,256,77,47,-15,68,-10
8425,256,73,46,-14,70,-9
8430,256,73,44,-14,70,-10
8435,257,71,47,-12,72,-9
8440,256,73,48,-12,72,-9
8445,255,75,49,-9,72,-10
8450,256,71,46,-8,72,-8
8455,256,74,50,-7,72,-9
8460,254,77,43,-6,74,-7
8465,257,71,46,-6,73,-9
8470,256,73,46,-5,73,-9
8475,257,73,48,-5,72,-10
8480,256,73,41,-6,72,-8
8485,257,75,47,-8,72,-11
8490,258,70,46,-10,71,-11
8495,257,73,46,-10,72,-15
8500,260,70,46,-15,74,-14
8505,261,74,48,-17,76,-20
8510,261,74,44,-19,77,-20
8515,265,71,41,-19,78,-24
8520,264,71,44,-16,79,-22
8525,264,69,41,-10,80,-22
8530,267,72,51,-3,81,-19
8535,269,71,45,4,84,-17
8540,266,68,47,12,87,-12
8545,265,71,45,21,90,-11
8550,268,69,44,29,93,-8
8555,271,69,44,35,97,-7
8560,272,69,47,39,99,-3
8565,270,72,53,39,102,-4
8570,272,71,52,40,103,-2
8575,272,74,49,39,104,-3
8580,270,71,50,38,105,-1
8585,271,74,51,36,105,-1
8590,269,75,47,34,104,1
8595,267,79,51,32,103,-2
8600,267,77,52,32,104,-1
8605,266,79,53,31,107,-6
8610,268,80,53,27,113,-10
8615,266,83,55,24,117,-17
8620,267,81,53,20,119,-22
8625,263,82,51,15,121,-30
8630,263,83,51,10,117,-31
8635,263,86,53,5,110,-33
8640,265,82,49,3,101,-28
8645,262,83,47,0,89,-25
8650,262,81,46,-3,78,-18
8655,262,80,44,-5,69,-18
8660,265,74,43,-6,63,-14
8665,263,73,42,-8,64,-19
8670,263,69,39,-13,67,-22
8675,263,70,37,-20,71,-31
8680,262,72,39,-29,76,-35
8685,263,65,33,-44,80,-44
8690,262,65,31,-59,84,-46
8695,259,66,29,-74,89,-53
8700,262,64,30,-84,99,-56
8705,258,62,30,-91,111,-66
8710,256,64,30,-94,123,-74
8715,256,65,33,-94,141,-92
8720,256,63,37,-90,157,-104
8725,252,64,39,-87,169,-121
8730,254,63,44,-79,180,-133
8735,251,66,45,-71,187,-150
8740,251,68,51,-57,193,-161
8745,250,69,48,-43,192,-174
8750,253,71,47,-29,192,-180
8755,253,74,49,-18,190,-190
8760,251,76,53,-10,184,-195
8765,253,78,57,-10,180,-201
8770,250,79,52,-12,174,-200
8775,251,80,56,-18,167,-201
8780,250,82,59,-22,164,-197
8785,249,83,59,-24,159,-191
8790,249,85,63,-23,155,-183
8795,249,86,62,-18,153,-178
8800,254,86,66,-10,153,-169
8805,251,87,66,1,153,-165
8810,251,89,66,14,157,-155
8815,249,90,62,31,161,-148
8820,253,89,65,49,166,-137
8825,253,90,63,73,170,-131
8830,253,89,63,93,175,-123
8835,254,85,62,111,179,-117
8840,250,89,61,125,184,-109
8845,249,89,60,134,187,-99
8850,249,91,60,139,189,-85
8855,251,90,61,141,191,-71
8860,252,87,58,143,195,-56
8865,248,88,57,139,198,-48
8870,247,88,54,132,204,-41
8875,244,88,56,122,210,-40
8880,247,85,57,108,221,-44
8885,242,86,57,89,227,-51
8890,241,83,62,73,236,-57
8895,240,82,63,62,247,-59
8900,242,80,61,61,256,-57
8905,239,76,69,73,265,-56
8910,238,76,75,93,273,-50
8915,235,78,77,123,283,-41
8920,235,77,79,160,293,-34
8925,233,79,79,204,304,-26
8930,229,81,84,252,313,-19
8935,230,88,85,300,325,-12
8940,231,93,90,356,332,-6
8945,230,95,85,400,335,1
8950,229,97,83,441,337,11
8955,235,98,77,479,335,21
8960,238,102,73,515,335,31
8965,240,100,65,539,339,41
8970,248,98,63,557,345,52
8975,254,95,60,566,355,63
8980,260,99,53,569,366,70
8985,259,98,48,555,374,75
8990,266,95,48,534,377,83
8995,267,95,42,505,374,90
9000,272,100,38,470,366,92
9005,275,98,28,416,360,94
9010,275,96,23,352,353,93
9015,276,94,18,274,340,96
9020,279,89,10,192,327,94
9025,273,90,7,109,310,95
9030,272,90,4,33,289,95
9035,264,95,5,-30,266,98
9040,265,95,7,-83,236,98
9045,259,105,4,-125,201,92
9050,255,109,9,-167,176,84
9055,251,114,11,-195,155,82
9060,248,120,13,-218,135,79
9065,252,124,16,-237,112,83
9070,257,120,16,-246,92,84
9075,266,117,21,-246,77,95
9080,274,112,19,-243,70,107
9085,284,101,15,-241,65,124
9090,286,94,9,-243,60,138
9095,299,81,8,-251,53,157
9100,312,85,0,-271,55,166
9105,307,68,11,-315,72,168
9110,308,61,8,-367,105,156
9115,305,60,14,-432,147,142
9120,307,55,25,-497,196,119
9125,308,52,32,-551,249,99
9130,307,48,40,-591,304,71
9135,305,46,43,-613,363,48
9140,299,40,53,-617,418,23
9145,292,36,53,-607,463,7
9150,285,40,60,-588,498,-17
9155,275,44,64,-558,532,-30
9160,267,52,68,-533,558,-46
9165,257,61,76,-508,580,-55
9170,254,66,82,-482,599,-66
9175,244,75,85,-456,613,-69
9180,241,82,89,-430,621,-76
9185,237,86,100,-400,626,-78
9190,232,91,99,-364,631,-83
9195,229,94,100,-331,629,-83
9200,226,94,104,-297,620,-87
9205,220,94,107,-265,601,-83
9210,220,92,109,-232,567,-76
9215,210,96,109,-213,536,-56
9220,210,91,110,-202,505,-33
9225,208,87,109,-201,482,-1
9230,202,90,110,-212,466,32
9235,200,89,108,-230,459,76
9240,200,88,111,-251,462,117
9245,205,84,107,-269,480,165
9250,205,83,113,-277,498,201
9255,209,87,112,-277,521,232
9260,211,90,110,-270,544,258
9265,212,93,109,-259,564,277
9270,217,93,105,-248,582,291
9275,219,94,102,-237,600,307
9280,222,91,101,-223,619,313
9285,219,93,96,-207,638,316
9290,224,94,92,-190,652,311
9295,224,92,93,-170,665,312
9300,226,91,92,-147,671,311
9305,226,92,88,-128,667,315
9310,233,94,86,-112,649,311
9315,232,91,82,-106,623,310
9320,235,96,78,-114,590,311
9325,234,96,77,-132,565,314
9330,236,97,73,-164,538,311
9335,235,100,75,-203,520,308
9340,235,95,79,-245,509,305
9345,236,95,83,-287,504,304
9350,234,90,89,-327,503,301
9355,233,90,86,-365,499,298
9360,233,87,85,-398,494,293
9365,232,86,88,-434,492,289
9370,228,87,91,-467,495,276
9375,227,85,96,-498,505,269
9380,231,85,98,-518,517,260
9385,230,80,101,-529,530,255
9390,228,77,101,-536,546,250
9395,233,76,105,-534,560,251
9400,231,71,100,-528,569,253
9405,227,71,97,-523,576,257
9410,223,68,94,-522,581,254
9415,226,70,95,-528,583,251
9420,223,71,98,-537,580,251
9425,221,75,99,-550,575,249
9430,220,71,99,-562,568,250
9435,220,70,103,-569,557,255
9440,221,65,105,-569,544,268
9445,224,63,104,-570,531,274
9450,221,63,105,-575,520,273
9455,218,62,103,-585,506,269
9460,218,61,101,-599,493,264
9465,217,62,111,-615,477,260
9470,224,65,110,-631,462,256
9475,221,69,108,-649,448,254
9480,226,68,106,-665,434,254
9485,231,64,107,-681,432,263
9490,229,65,108,-694,438,272
9495,229,64,110,-711,446,276
9500,229,61,108,-732,450,280
9505,227,57,112,-755,454,281
9510,227,53,110,-772,460,283
9515,224,49,117,-788,460,284
9520,224,44,118,-802,461,281
9525,225,42,125,-814,464,277
9530,222,38,129,-825,471,273
9535,224,33,129,-831,481,269
9540,222,30,127,-830,492,273
9545,220,26,127,-828,501,273
9550,215,26,127,-829,511,276
9555,218,25,130,-825,521,275
9560,215,27,132,-820,534,278
9565,218,24,134,-806,548,282
9570,220,25,135,-785,555,293
9575,221,22,141,-757,557,304
9580,221,25,138,-724,557,320
9585,225,22,140,-694,555,333
9590,226,23,139,-664,555,351
9595,229,17,133,-639,556,360
9600,228,19,133,-629,559,377
9605,228,18,133,-628,566,389
9610,230,19,131,-635,572,406
9615,223,20,130,-646,579,410
9620,227,20,126,-659,583,418
9625,227,12,123,-668,583,424
9630,227,7,127,-673,583,436
9635,227,5,128,-676,582,445
9640,227,5,124,-676,585,457
9645,230,6,131,-676,593,461
9650,223,4,129,-675,606,466
9655,223,9,129,-672,619,464
9660,229,8,128,-664,632,469
9665,225,7,127,-653,645,471
9670,226,3,128,-636,656,478
9675,219,4,124,-620,668,483
9680,221,2,123,-606,679,492
9685,224,0,120,-591,692,494
9690,223,-2,123,-571,704,502
9695,221,0,120,-552,715,506
9700,219,-1,123,-532,723,516
9705,218,-3,121,-514,730,523
9710,221,-10,121,-501,735,538
9715,218,-11,126,-490,739,547
9720,217,-10,121,-487,744,551
9725,216,-13,124,-489,749,552
9730,215,-11,125,-496,757,557
9735,213,-14,127,-504,763,561
9740,208,-11,130,-511,770,569
9745,202,-15,136,-510,781,570
9750,204,-20,135,-498,788,577
9755,200,-21,143,-475,794,582
9760,202,-20,142,-444,797,586
9765,197,-21,146,-418,799,581
9770,200,-30,147,-389,800,584
9775,198,-35,148,-355,802,587
9780,197,-38,145,-324,800,598
9785,192,-39,142,-300,795,599
9790,192,-46,138,-283,787,600
9795,190,-46,142,-273,777,592
9800,189,-47,140,-264,766,588
9805,186,-44,140,-259,754,574
9810,186,-44,137,-253,741,550
9815,181,-44,135,-247,734,525
9820,179,-39,140,-247,728,507
9825,180,-33,137,-254,721,489
9830,174,-30,142,-267,709,479
9835,170,-27,142,-284,694,474
9840,167,-25,146,-295,676,481
9845,166,-28,150,-297,653,489
9850,166,-30,162,-284,632,500
9855,169,-32,166,-262,608,506
9860,166,-35,163,-237,587,508
9865,166,-32,161,-215,569,493
9870,163,-31,164,-192,560,477
9875,160,-33,166,-180,550,459
9880,160,-34,163,-171,540,445
9885,162,-34,170,-167,533,434
9890,157,-41,164,-164,528,426
9895,158,-48,169,-162,524,421
9900,161,-58,164,-160,520,420
9905,161,-64,170,-157,519,422
9910,160,-68,168,-160,519,423
9915,158,-68,171,-166,522,419
9920,157,-70,176,-185,531,412
9925,156,-66,167,-215,540,406
9930,153,-66,166,-242,548,398
9935,156,-73,162,-269,553,405
9940,155,-81,162,-294,554,425
9945,155,-83,161,-316,552,452
9950,159,-89,166,-328,551,481
9955,159,-92,167,-330,548,508
9960,154,-94,173,-332,542,529
9965,152,-88,180,-331,534,549
9970,157,-87,188,-325,528,564
9975,149,-80,192,-315,520,575
9980,150,-81,195,-286,514,581
9985,151,-78,203,-247,507,588
9990,146,-77,202,-196,497,593
9995,148,-74,203,-139,485,600
10000,148,-75,195,-84,476,600
10005,146,-77,192,-39,469,599
10010,146,-72,190,-2,465,593
10015,145,-69,184,27,463,587
10020,144,-64,185,49,464,584
10025,144,-62,184,66,466,586
10030,144,-66,182,79,472,589
10035,141,-65,184,91,479,599
10040,138,-65,182,97,486,606
10045,138,-67,187,98,491,617
10050,134,-66,188,96,495,625
10055,135,-71,184,94,500,638
10060,128,-74,186,93,503,650
10065,127,-77,181,91,508,666
10070,127,-78,183,88,514,681
10075,123,-84,189,85,516,702
10080,121,-88,181,83,520,719
10085,121,-87,187,82,521,745
10090,122,-90,186,75,520,759
10095,119,-88,188,69,521,773
10100,117,-87,190,63,522,781
10105,117,-89,193,60,520,793
10110,118,-94,192,62,514,801
10115,117,-97,197,66,504,815
10120,118,-97,196,75,495,823
10125,118,-95,195,83,482,835
10130,124,-96,196,89,467,845
10135,119,-95,193,93,452,860
10140,125,-91,191,97,437,873
10145,127,-93,197,100,423,887
10150,128,-95,194,104,411,896
10155,128,-95,193,108,402,909
10160,127,-95,194,119,395,912
10165,129,-92,193,129,388,915
10170,129,-92,196,135,384,911
10175,130,-98,191,140,379,906
10180,130,-98,190,136,375,894
10185,128,-100,189,128,371,882
10190,125,-103,189,115,367,862
10195,126,-106,185,96,365,842
10200,121,-106,181,66,363,818
10205,115,-107,176,35,360,797
10210,114,-108,179,2,358,770
10215,109,-108,173,-37,358,748
10220,110,-108,175,-73,363,718
10225,111,-107,175,-113,369,689
10230,108,-106,172,-148,384,652
10235,112,-108,178,-182,402,618
10240,109,-106,184,-210,424,576
10245,108,-105,183,-228,450,537
10250,108,-109,182,-239,484,490
10255,105,-105,184,-242,512,459
10260,103,-110,188,-240,541,430
10265,104,-107,187,-236,568,411
10270,98,-104,187,-233,595,388
10275,102,-107,191,-232,621,376
10280,101,-106,192,-233,642,360
10285,97,-104,192,-236,662,350
10290,94,-103,191,-242,679,335
10295,93,-98,191,-250,692,326
10300,90,-99,192,-259,699,314
10305,88,-100,197,-265,704,306
10310,91,-101,203,-260,705,299
10315,88,-98,203,-243,703,291
10320,87,-97,203,-215,701,281
10325,85,-101,208,-183,698,273
10330,86,-100,202,-150,692,265
10335,82,-100,201,-120,688,258
10340,82,-100,200,-96,684,248
10345,84,-97,200,-78,682,238
10350,81,-93,199,-70,677,225
10355,79,-92,200,-67,674,217
10360,79,-90,202,-68,670,203
10365,77,-90,203,-72,666,194
10370,76,-93,201,-74,662,184
10375,76,-94,201,-73,660,179
10380,77,-94,202,-67,657,176
10385,77,-99,203,-56,653,176
10390,77,-99,204,-45,649,175
10395,74,-100,206,-31,647,176
10400,74,-103,205,-20,645,176
10405,70,-101,202,-10,639,179
10410,72,-103,202,-5,631,181
10415,70,-104,208,-7,616,186
10420,68,-104,208,-14,599,191
10425,67,-102,199,-22,575,193
10430,69,-103,201,-28,548,196
10435,64,-102,201,-34,518,195
10440,64,-105,203,-35,487,195
10445,61,-101,199,-37,452,200
10450,60,-107,201,-37,421,206
10455,58,-101,202,-38,391,209
10460,57,-104,202,-37,361,212
10465,60,-101,205,-37,332,214
10470,60,-104,209,-34,305,216
10475,57,-103,199,-30,283,218
10480,56,-103,202,-27,268,220
10485,57,-101,203,-27,257,221
10490,60,-101,200,-34,249,223
10495,57,-99,200,-46,247,224
10500,59,-97,200,-67,248,230
10505,59,-95,200,-88,253,234
10510,60,-98,203,-111,260,240
10515,59,-99,201,-131,266,248
10520,61,-99,206,-146,273,255
10525,59,-96,206,-156,280,261
10530,59,-103,197,-166,287,267
10535,58,-104,203,-165,294,271
10540,57,-104,204,-160,299,276
10545,58,-103,202,-152,305,278
10550,56,-107,197,-142,308,284
10555,57,-109,197,-129,310,286
10560,54,-106,197,-112,310,291
10565,54,-106,199,-93,309,290
10570,53,-107,200,-74,306,289
10575,57,-109,198,-56,303,286
10580,56,-106,198,-39,293,284
10585,53,-105,199,-24,284,277
10590,50,-107,204,-15,274,272
10595,51,-107,200,-12,264,264
10600,49,-110,200,-12,256,259
10605,51,-104,199,-17,250,252
10610,53,-110,200,-27,246,248
10615,48,-105,197,-40,244,241
10620,55,-109,198,-52,246,237
10625,55,-111,198,-65,248,230
10630,53,-113,197,-77,253,225
10635,56,-115,198,-89,256,216
10640,57,-116,196,-102,262,212
10645,60,-118,195,-115,270,205
10650,57,-118,200,-131,276,202
10655,59,-122,195,-145,285,194
10660,52,-123,195,-159,293,190
10665,55,-124,199,-168,299,183
10670,51,-124,197,-175,304,181
10675,52,-122,196,-176,308,175
10680,48,-124,193,-178,313,170
10685,47,-123,195,-179,315,163
10690,50,-124,198,-176,320,161
10695,47,-123,193,-177,321,155
10700,48,-125,192,-174,323,152
10705,41,-121,199,-171,324,145
10710,42,-122,201,-166,323,145
10715,39,-121,196,-160,322,139
10720,39,-120,196,-154,321,135
10725,39,-121,198,-147,321,126
10730,36,-121,202,-138,321,120
10735,35,-120,203,-126,320,108
10740,35,-115,198,-115,318,105
10745,38,-118,195,-103,314,92
10750,37,-116,198,-90,311,85
10755,36,-117,199,-79,309,73
10760,34,-113,204,-65,305,66
10765,38,-117,202,-51,297,58
10770,40,-116,201,-38,288,53
10775,41,-112,202,-27,282,42
10780,40,-114,199,-21,275,35
10785,41,-114,200,-19,271,25
10790,43,-111,197,-19,265,21
10795,41,-113,201,-18,260,15
10800,41,-116,200,-18,256,11
10805,45,-115,201,-16,251,4
10810,44,-115,201,-16,246,-6
10815,41,-115,198,-15,241,-9
10820,39,-116,207,-10,233,-7
10825,38,-120,203,-8,226,-9
10830,38,-120,199,-5,219,-9
10835,38,-121,200,-3,210,-11
10840,35,-121,202,-3,204,-10
10845,37,-122,199,-3,199,-12
10850,33,-128,201,-1,190,-10
10855,34,-125,202,1,181,-10
10860,30,-124,203,1,174,-7
10865,29,-124,205,0,166,-2
10870,28,-127,202,0,157,4
10875,27,-123,204,4,151,8
10880,25,-125,201,9,144,13
10885,27,-122,204,11,139,15
10890,28,-122,204,12,135,20
10895,11,-132,180,10,132,24
10900,23,-118,203,7,132,28
10905,21,-119,202,5,135,31
10910,23,-117,202,3,139,33
10915,23,-120,198,-1,146,32
10920,23,-114,197,-3,151,31
10925,22,-116,200,-5,157,27
10930,20,-112,198,-8,163,26
10935,21,-114,198,-10,170,22
10940,21,-113,197,-11,176,20
10945,21,-114,198,-11,184,16
10950,22,-114,199,-13,187,13
10955,20,-112,202,-9,190,10
10960,22,-114,198,-5,193,10
10965,25,-110,199,0,192,9
10970,25,-113,201,4,192,9
10975,27,-113,204,10,191,8
10980,29,-112,203,15,190,7
10985,27,-109,203,21,187,5
10990,25,-109,203,27,185,6
10995,27,-110,201,34,181,6
11000,27,-113,198,41,175,9
11005,29,-111,202,48,171,11
11010,27,-114,200,52,166,12
11015,29,-113,201,56,157,10
11020,26,-113,200,56,147,8
11025,26,-114,202,58,140,10
11030,26,-116,203,57,131,10
11035,27,-117,200,55,124,12
11040,27,-115,199,50,117,13
11045,27,-115,203,45,112,14
11050,29,-115,198,40,107,14
11055,27,-116,203,34,103,17
11060,24,-115,203,30,97,18
11065,28,-119,207,27,92,18
11070,29,-116,204,28,85,17
11075,26,-118,202,27,75,19
11080,24,-115,207,27,66,17
11085,25,-117,200,27,57,17
11090,26,-117,205,26,49,14
11095,26,-111,204,25,44,15
11100,28,-113,200,22,37,16
11105,29,-116,199,22,35,19
11110,30,-113,199,21,35,20
11115,32,-114,202,21,37,22
11120,32,-109,203,20,40,21
11125,33,-113,199,20,44,27
11130,32,-108,202,18,48,27
11135,35,-110,202,17,53,29
11140,38,-108,201,16,58,26
11145,38,-110,199,13,59,27
11150,36,-110,199,11,58,24
11155,36,-108,202,6,57,24
11160,39,-109,198,3,54,19
11165,41,-112,200,0,50,19
11170,38,-109,201,-3,42,16
11175,39,-108,204,-2,33,18
11180,39,-109,203,2,24,17
11185,42,-111,203,10,14,22
11190,39,-111,202,17,9,20
11195,39,-113,203,26,3,25
11200,40,-112,205,34,0,25
11205,40,-110,200,42,-4,31
11210,37,-110,199,51,-7,28
11215,37,-112,206,62,-9,30
11220,38,-115,204,71,-13,28
11225,35,-116,197,80,-17,27
11230,37,-116,197,88,-20,23
11235,36,-117,200,95,-23,23
11240,34,-114,202,101,-27,17
11245,35,-116,200,105,-30,17
11250,35,-115,203,108,-34,14
11255,33,-114,203,110,-39,15
11260,32,-113,203,112,-43,12
11265,32,-117,202,114,-48,14
11270,32,-115,205,115,-53,12
11275,32,-113,203,116,-58,16
11280,33,-114,205,116,-63,15
11285,35,-111,205,116,-67,16
11290,33,-110,206,113,-72,13
11295,35,-111,206,109,-77,15
11300,35,-108,204,103,-77,9
11305,32,-108,202,96,-77,8
11310,32,-107,207,90,-78,4
11315,32,-107,202,83,-77,7
11320,34,-105,204,77,-77,6
11325,35,-102,204,73,-74,10
11330,35,-109,200,71,-70,9
11335,37,-106,209,70,-68,12
11340,38,-106,206,72,-62,10
11345,33,-107,208,77,-57,12
11350,34,-104,204,83,-50,10
11355,36,-105,205,87,-44,7
11360,36,-107,205,91,-38,3
11365,34,-104,203,93,-34,4
11370,36,-104,205,93,-29,-1
11375,34,-105,203,93,-24,-3
11380,31,-103,204,96,-20,-8
11385,33,-106,204,97,-17,-10
11390,35,-106,204,98,-14,-17
11395,34,-108,204,101,-13,-19
11400,32,-105,202,103,-11,-24
11405,37,-105,200,108,-9,-26
11410,32,-103,201,112,-9,-30
11415,37,-108,203,115,-10,-31
11420,37,-104,202,118,-10,-32
11425,39,-103,201,119,-9,-31
11430,36,-102,198,119,-9,-32
11435,39,-105,200,117,-8,-31
11440,35,-103,204,118,-8,-34
11445,38,-105,202,117,-9,-31
11450,36,-102,203,119,-9,-33
11455,35,-104,202,120,-9,-31
11460,38,-106,204,126,-11,-30
11465,34,-103,203,130,-11,-28
11470,31,-106,202,133,-12,-22
11475,32,-101,204,136,-16,-16
11480,31,-104,207,141,-19,-12
11485,30,-104,202,143,-22,-5
11490,30,-101,203,145,-24,1
11495,30,-99,204,146,-25,8
11500,31,-101,209,147,-27,12
11505,32,-103,216,152,-28,16
11510,29,-100,216,157,-30,19
11515,31,-105,215,165,-33,18
11520,29,-103,215,169,-36,18
11525,34,-105,214,167,-40,13
11530,33,-101,210,159,-41,8
11535,30,-101,207,145,-42,0
11540,35,-106,205,128,-39,-9
11545,40,-101,209,106,-33,-18
11550,39,-101,204,86,-28,-27
11555,43,-102,205,66,-23,-36
11560,42,-101,202,47,-16,-42
11565,44,-102,204,33,-9,-50
11570,46,-99,204,24,-2,-52
11575,49,-100,203,24,3,-59
11580,50,-101,203,24,6,-59
11585,53,-97,203,25,10,-63
11590,55,-97,203,23,13,-61
11595,55,-94,205,21,18,-64
11600,59,-96,205,18,22,-63
11605,56,-95,206,12,28,-65
11610,55,-93,207,9,30,-64
11615,59,-93,208,5,33,-66
11620,58,-95,212,3,34,-64
11625,59,-95,207,3,33,-67
11630,56,-90,210,3,31,-65
11635,55,-92,213,6,29,-70
11640,51,-88,213,6,23,-66
11645,52,-92,212,9,18,-68
11650,50,-93,211,11,11,-66
11655,52,-89,215,13,3,-69
11660,53,-91,211,15,-6,-68
11665,50,-93,213,17,-15,-72
11670,52,-92,215,19,-26,-70
11675,47,-95,213,22,-33,-72
11680,50,-97,215,24,-45,-71
11685,49,-98,212,26,-54,-73
11690,50,-100,211,30,-62,-68
11695,48,-99,213,34,-71,-69
11700,45,-96,209,40,-76,-65
11705,49,-100,207,46,-82,-64
11710,46,-99,207,50,-86,-61
11715,44,-97,203,52,-89,-60
11720,46,-100,202,52,-91,-56
11725,44,-98,199,52,-92,-56
11730,42,-96,199,50,-94,-52
11735,43,-99,201,46,-94,-50
11740,39,-98,200,42,-96,-45
11745,40,-97,200,40,-98,-44
11750,39,-95,204,37,-100,-38
11755,39,-97,204,32,-101,-35
11760,41,-98,207,29,-102,-30
11765,43,-95,204,21,-101,-28
11770,40,-95,205,10,-100,-21
11775,40,-98,206,-1,-98,-21
11780,45,-97,203,-18,-93,-17
11785,43,-99,204,-34,-87,-17
11790,45,-98,207,-59,-79,-18
11795,46,-98,207,-78,-73,-21
11800,46,-100,208,-97,-66,-21
11805,48,-101,207,-114,-59,-26
11810,50,-103,206,-129,-54,-25
11815,55,-102,205,-142,-48,-27
11820,53,-105,207,-154,-44,-24
11825,54,-102,208,-166,-43,-25
11830,55,-103,205,-177,-42,-22
11835,59,-107,205,-184,-41,-22
11840,55,-101,204,-191,-43,-15
11845,57,-99,207,-199,-47,-16
11850,61,-103,206,-203,-52,-12
11855,59,-101,204,-206,-55,-12
11860,59,-101,201,-207,-58,-8
11865,59,-103,205,-207,-60,-10
11870,60,-101,206,-205,-60,-7
11875,61,-98,202,-200,-59,-8
11880,62,-101,204,-192,-57,-8
11885,62,-99,205,-185,-52,-13
11890,60,-96,206,-172,-49,-13
11895,61,-99,206,-160,-46,-21
11900,62,-96,203,-150,-45,-25
11905,63,-100,205,-140,-44,-33
11910,60,-100,205,-133,-43,-38
11915,62,-97,204,-122,-41,-40
11920,58,-98,209,-109,-41,-41
11925,58,-98,208,-94,-41,-44
11930,54,-96,208,-83,-42,-42
11935,52,-96,207,-72,-42,-45
11940,52,-99,209,-63,-39,-42
11945,51,-99,204,-59,-37,-44
11950,50,-101,205,-62,-32,-43
11955,45,-101,202,-70,-27,-45
11960,45,-101,201,-84,-20,-46
11965,47,-103,199,-101,-12,-49
11970,42,-101,196,-120,-3,-53
11975,43,-104,199,-137,8,-56
11980,40,-99,199,-150,16,-60
11985,43,-103,197,-162,27,-66
11990,43,-101,198,-169,38,-72
11995,43,-98,199,-173,48,-78
