timestamp,acc_x,acc_y,acc_z,gyro_x,gyro_y,gyro_z
0,61,-90,209,-88,52,-6
5,63,-91,207,-86,53,-5
10,63,-90,207,-84,53,-5
15,63,-89,206,-83,55,-3
20,63,-95,208,-81,56,-6
25,69,-92,214,-80,55,-4
30,59,-90,207,-79,56,-5
35,62,-92,206,-77,56,-4
40,63,-92,208,-76,57,-6
45,62,-93,206,-75,57,-4
50,64,-95,208,-74,58,-5
55,63,-92,205,-72,58,-4
60,58,-93,205,-70,57,-5
65,61,-94,206,-67,55,-3
70,60,-90,208,-66,57,-2
75,63,-94,207,-66,54,-2
80,62,-92,204,-67,54,-4
85,61,-91,205,-69,54,-1
90,60,-91,206,-72,53,-4
95,62,-92,203,-76,53,0
100,61,-92,204,-79,52,-2
105,64,-95,207,-82,54,1
110,63,-94,204,-83,53,-1
115,59,-92,205,-85,54,1
120,60,-94,213,-85,54,-1
125,62,-93,200,-85,55,0
130,64,-93,214,-82,56,-1
135,61,-102,203,-78,57,0
140,56,-93,201,-74,56,-2
145,70,-90,214,-70,57,-1
150,63,-93,198,-67,56,-3
155,58,-89,202,-65,55,0
160,61,-97,204,-62,53,-4
165,61,-98,207,-60,54,-2
170,58,-97,203,-59,55,-3
175,67,-103,200,-59,54,-2
180,66,-94,221,-56,54,-2
185,55,-94,198,-55,54,-1
190,59,-92,209,-54,56,-3
195,78,-81,216,-51,56,0
200,62,-95,205,-50,56,-4
205,64,-99,204,-50,58,-1
210,62,-94,204,-52,59,-3
215,64,-94,202,-52,58,-1
220,63,-99,204,-54,58,-1
225,62,-94,202,-57,57,-1
230,59,-97,202,-58,56,-2
235,63,-95,205,-61,56,0
240,62,-96,206,-63,56,-1
245,56,-88,209,-65,57,2
250,63,-94,204,-65,57,0
255,61,-96,207,-64,59,2
260,63,-98,205,-62,60,0
265,62,-95,202,-60,61,0
270,63,-97,204,-61,64,-1
275,61,-95,203,-62,63,0
280,62,-96,205,-65,64,-2
285,63,-94,205,-68,65,0
290,62,-97,205,-69,65,-2
295,61,-94,207,-68,63,1
300,64,-97,204,-69,63,1
305,60,-96,206,-69,62,2
310,63,-94,206,-69,59,1
315,65,-93,203,-71,57,5
320,65,-96,203,-73,54,4
325,63,-96,204,-75,51,6
330,65,-98,206,-72,51,5
335,62,-97,201,-72,51,8
340,64,-97,202,-70,50,7
345,63,-99,205,-69,50,9
350,62,-98,204,-68,52,7
355,63,-99,205,-70,52,9
360,63,-97,204,-71,55,7
365,63,-97,203,-72,55,9
370,62,-97,199,-76,57,6
375,62,-99,202,-77,57,7
380,63,-97,202,-78,59,4
385,62,-95,202,-77,60,5
390,61,-98,203,-75,61,0
395,62,-96,201,-72,61,1
400,62,-99,198,-70,62,-4
405,60,-97,202,-68,63,-2
410,62,-97,206,-67,65,-2
415,60,-95,204,-68,64,-2
420,60,-98,203,-67,65,-4
425,62,-98,205,-67,66,-3
430,64,-98,204,-67,67,-3
435,63,-97,204,-67,67,-2
440,62,-96,199,-67,66,-2
445,63,-96,202,-68,65,-2
450,64,-100,200,-67,63,0
455,64,-98,201,-66,62,2
460,63,-99,203,-64,63,0
465,62,-99,199,-61,61,4
470,64,-99,203,-59,61,3
475,63,-100,199,-56,60,4
480,62,-100,200,-53,60,4
485,63,-101,201,-52,58,5
490,64,-103,203,-51,59,3
495,64,-101,204,-50,58,5
500,63,-100,201,-50,59,5
505,63,-102,202,-49,59,5
510,63,-102,200,-48,59,3
515,62,-101,200,-49,60,4
520,62,-101,203,-47,61,2
525,63,-103,204,-45,61,2
530,64,-102,201,-46,61,0
535,64,-103,203,-43,63,1
540,63,-101,202,-42,63,0
545,61,-102,204,-39,63,-2
550,64,-104,201,-37,65,-3
555,62,-102,199,-34,64,-4
560,63,-101,206,-33,65,-6
565,62,-99,202,-31,65,-6
570,61,-99,202,-29,66,-7
575,63,-98,201,-27,66,-7
580,61,-100,202,-25,68,-7
585,62,-101,202,-22,69,-7
590,62,-100,199,-23,70,-6
595,62,-99,203,-21,70,-6
600,61,-103,203,-20,70,-6
605,61,-98,203,-18,69,-5
610,62,-102,200,-18,69,-5
615,62,-101,205,-17,70,-7
620,62,-99,203,-16,69,-5
625,64,-98,202,-17,67,-5
630,62,-97,204,-19,68,-5
635,63,-101,201,-19,68,-5
640,64,-100,203,-22,68,-4
645,63,-100,202,-21,68,-3
650,63,-103,203,-21,68,-3
655,65,-103,202,-19,65,-3
660,64,-99,202,-18,66,-1
665,64,-100,199,-17,63,-1
670,62,-99,200,-16,64,1
675,64,-100,201,-15,62,0
680,63,-102,202,-12,63,1
685,62,-100,201,-11,62,1
690,62,-101,202,-10,61,-1
695,62,-100,202,-9,62,-3
700,64,-102,203,-9,62,-4
705,62,-103,202,-9,64,-5
710,62,-102,205,-8,65,-5
715,61,-100,202,-7,65,-7
720,61,-97,204,-9,66,-6
725,59,-97,202,-8,67,-8
730,60,-98,203,-8,67,-7
735,62,-99,204,-7,67,-9
740,61,-98,203,-7,67,-7
745,62,-99,202,-8,68,-9
750,61,-100,205,-8,66,-8
755,63,-101,203,-10,66,-10
760,61,-100,203,-12,67,-8
765,63,-103,205,-13,66,-9
770,63,-101,205,-13,66,-8
775,63,-100,205,-14,64,-10
780,64,-102,203,-13,65,-6
785,63,-100,204,-14,64,-7
790,64,-100,201,-13,62,-5
795,63,-102,201,-12,61,-7
800,63,-102,200,-11,62,-3
805,62,-101,200,-10,63,-5
810,63,-101,199,-8,62,-1
815,63,-100,199,-8,63,-5
820,63,-99,202,-5,64,-3
825,62,-101,203,-5,63,-4
830,64,-101,202,-5,62,-2
835,61,-101,202,-3,62,-5
840,64,-100,202,-1,63,-1
845,62,-100,200,-1,64,-4
850,61,-100,201,0,64,-2
855,63,-101,204,1,64,-5
860,64,-99,199,1,66,-4
865,63,-100,203,3,65,-6
870,64,-99,200,3,65,-4
875,60,-100,206,2,64,-6
880,63,-101,202,2,67,-5
885,63,-102,201,4,67,-8
890,63,-99,202,5,67,-7
895,63,-99,203,6,68,-9
900,62,-99,204,7,69,-8
905,64,-99,202,9,70,-12
910,65,-100,201,9,68,-10
915,62,-100,208,12,68,-12
920,63,-99,201,13,70,-9
925,65,-97,200,15,69,-12
930,64,-98,203,17,71,-9
935,61,-97,205,19,70,-12
940,63,-99,199,19,70,-10
945,63,-101,203,19,69,-12
950,65,-100,200,18,70,-10
955,61,-99,206,20,69,-11
960,63,-99,203,18,69,-8
965,60,-93,201,19,71,-11
970,62,-97,200,17,71,-8
975,64,-97,203,16,70,-9
980,62,-97,203,15,70,-6
985,61,-98,205,14,71,-7
990,63,-99,202,13,70,-3
995,64,-97,205,13,67,-4
1000,62,-97,202,12,67,-2
1005,62,-95,203,13,67,-4
1010,62,-95,207,15,65,-2
1015,64,-99,203,16,65,-4
1020,63,-99,204,17,65,-1
1025,64,-100,206,18,62,-3
1030,63,-95,207,19,63,1
1035,62,-100,202,19,61,-2
1040,62,-98,202,19,63,2
1045,60,-98,204,20,62,-1
1050,63,-97,201,20,63,1
1055,64,-99,201,21,64,-1
1060,62,-99,204,22,65,1
1065,64,-100,206,22,67,-1
1070,62,-96,203,21,68,1
1075,62,-94,202,21,69,-2
1080,64,-97,200,20,70,0
1085,63,-96,203,19,70,-1
1090,61,-97,205,20,71,0
1095,62,-97,204,19,72,-1
1100,61,-100,202,19,73,0
1105,62,-97,205,19,73,-1
1110,63,-97,203,18,74,2
1115,59,-96,203,15,73,-1
1120,64,-98,203,15,73,1
1125,64,-98,200,14,73,0
1130,63,-99,204,11,74,1
1135,62,-98,205,11,72,-1
1140,63,-98,204,10,74,0
1145,61,-99,204,12,73,-2
1150,60,-97,201,12,74,-1
1155,61,-97,207,13,74,-2
1160,61,-98,203,14,75,-2
1165,62,-98,204,14,73,-4
1170,60,-96,206,16,72,-3
1175,60,-97,205,19,73,-4
1180,61,-97,207,21,71,-3
1185,60,-97,207,22,69,-2
1190,63,-97,205,23,70,-2
1195,62,-97,204,21,68,-3
1200,60,-95,204,20,67,0
1205,63,-94,205,20,66,1
1210,63,-95,204,17,65,1
1215,60,-98,207,14,65,2
1220,63,-95,204,14,66,3
1225,63,-97,201,13,67,4
1230,62,-95,204,13,67,5
1235,61,-95,203,14,66,5
1240,64,-96,204,15,68,5
1245,62,-100,205,16,68,4
1250,62,-101,206,16,68,4
1255,61,-96,200,18,69,3
1260,62,-96,203,19,70,2
1265,62,-96,204,21,71,1
1270,63,-98,201,23,69,-1
1275,62,-100,203,27,69,-3
1280,59,-97,205,27,71,-4
1285,61,-97,202,29,72,-6
1290,61,-99,206,31,72,-7
1295,63,-96,203,31,72,-9
1300,61,-96,205,32,74,-11
1305,60,-95,204,31,73,-10
1310,61,-95,205,28,74,-11
1315,60,-93,203,28,72,-10
1320,61,-95,207,25,71,-12
1325,62,-95,204,24,72,-9
1330,61,-91,202,23,72,-8
1335,62,-93,205,20,72,-5
1340,61,-92,205,18,71,-5
1345,60,-93,207,16,70,0
1350,62,-96,205,13,68,0
1355,61,-96,206,11,65,4
1360,60,-92,204,8,63,3
1365,62,-97,202,7,59,5
1370,61,-94,206,6,58,5
1375,61,-97,207,4,55,8
1380,62,-97,207,4,54,6
1385,58,-96,203,4,52,7
1390,57,-94,209,3,52,4
1395,60,-96,206,2,53,4
1400,57,-94,202,3,51,3
1405,54,-96,202,1,53,3
1410,59,-94,203,1,53,0
1415,57,-95,205,-2,52,-1
1420,58,-97,203,-3,52,-6
1425,60,-98,205,-3,53,-8
1430,60,-96,202,-3,57,-12
1435,60,-97,203,-5,59,-14
1440,61,-98,200,-6,61,-18
1445,61,-96,203,-8,63,-18
1450,64,-99,203,-8,65,-19
1455,63,-94,203,-6,64,-15
1460,63,-94,205,-1,64,-14
1465,65,-98,202,5,61,-9
1470,64,-94,205,17,59,-9
1475,66,-94,206,27,58,-4
1480,65,-93,204,35,56,-5
1485,69,-96,207,42,55,0
1490,67,-96,201,46,54,-1
1495,65,-97,205,46,55,1
1500,66,-93,205,44,56,-1
1505,68,-93,206,39,56,1
1510,68,-91,199,31,56,-2
1515,65,-93,204,23,59,0
1520,63,-90,204,20,61,-3
1525,64,-91,207,18,65,3
1530,65,-95,207,18,65,1
1535,64,-90,207,19,65,3
1540,62,-90,208,24,66,1
1545,62,-93,207,30,64,6
1550,59,-91,210,38,65,4
1555,63,-93,207,44,65,6
1560,61,-91,204,45,63,4
1565,59,-93,203,46,62,6
1570,62,-90,210,43,62,3
1575,59,-90,204,38,61,5
1580,62,-90,207,33,61,2
1585,61,-90,203,28,62,4
1590,60,-91,202,24,61,2
1595,61,-92,208,19,63,4
1600,59,-93,207,12,67,1
1605,61,-93,204,8,70,3
1610,62,-96,204,4,72,1
1615,62,-94,204,-2,75,4
1620,58,-93,207,-5,78,0
1625,62,-96,204,-4,80,4
1630,59,-94,205,-1,81,2
1635,63,-96,205,3,79,3
1640,61,-94,208,8,81,2
1645,58,-94,207,15,79,3
1650,61,-93,206,20,79,0
1655,62,-92,206,25,76,2
1660,63,-90,207,31,78,-1
1665,62,-92,209,33,78,0
1670,63,-93,202,33,77,-4
1675,64,-92,207,33,75,-2
1680,63,-92,203,30,74,-6
1685,61,-89,206,27,73,-6
1690,62,-92,205,24,72,-9
1695,62,-89,205,21,70,-7
1700,63,-88,205,19,69,-9
1705,59,-89,206,20,67,-8
1710,60,-89,206,19,65,-10
1715,62,-90,206,21,65,-8
1720,60,-89,205,25,65,-10
1725,61,-90,205,25,64,-9
1730,59,-91,206,26,63,-12
1735,62,-90,205,26,64,-9
1740,58,-89,205,24,63,-10
1745,59,-91,206,22,64,-7
1750,61,-91,205,20,65,-9
1755,59,-94,201,18,65,-6
1760,61,-93,206,12,66,-5
1765,60,-89,210,10,67,-3
1770,60,-93,208,8,67,-3
1775,58,-88,207,9,66,0
1780,58,-93,209,10,65,0
1785,61,-94,208,15,65,3
1790,60,-93,205,16,64,4
1795,60,-89,210,21,64,6
1800,60,-90,209,23,63,6
1805,62,-93,210,24,64,7
1810,61,-90,204,23,63,7
1815,62,-90,204,22,62,6
1820,64,-92,209,19,62,5
1825,60,-90,204,20,62,3
1830,63,-90,206,17,63,1
1835,62,-90,205,18,64,1
1840,62,-90,209,13,64,-2
1845,62,-88,206,12,65,-4
1850,63,-90,207,8,66,-7
1855,62,-91,207,5,68,-8
1860,62,-88,207,3,68,-9
1865,59,-91,207,4,71,-9
1870,62,-91,209,3,72,-10
1875,61,-90,206,2,74,-13
1880,62,-87,207,5,75,-14
1885,61,-90,208,7,75,-16
1890,61,-92,211,12,76,-14
1895,61,-90,207,15,77,-15
1900,61,-92,207,17,79,-15
1905,60,-88,208,19,79,-15
1910,78,-90,206,23,78,-15
1915,61,-91,205,23,78,-15
1920,62,-92,213,24,78,-14
1925,58,-91,207,24,76,-13
1930,61,-90,206,24,77,-10
1935,57,-88,208,21,76,-9
1940,60,-90,207,21,74,-5
1945,61,-91,208,19,72,-5
1950,60,-88,209,18,69,-3
1955,58,-89,212,18,68,-2
1960,61,-92,210,18,67,0
1965,62,-91,211,19,67,1
1970,58,-88,209,19,66,1
1975,62,-93,208,19,65,1
1980,59,-90,206,19,64,3
1985,60,-88,210,18,63,2
1990,60,-88,205,15,65,3
1995,61,-87,210,12,65,1
2000,63,-90,206,8,67,2
2005,62,-85,207,3,68,0
2010,61,-87,207,1,70,1
2015,59,-88,208,-2,70,-2
2020,62,-86,207,-5,71,-2
2025,61,-90,208,-5,70,-3
2030,62,-89,212,-6,69,-4
2035,61,-90,208,-8,69,-5
2040,61,-88,207,-8,68,-3
2045,60,-87,207,-6,67,-4
2050,61,-88,211,-3,65,-2
2055,60,-91,205,0,64,-4
2060,59,-87,209,3,63,-1
2065,60,-87,210,6,62,-3
2070,61,-91,207,10,63,-1
2075,60,-88,213,9,62,-2
2080,60,-87,209,8,63,1
2085,61,-90,210,8,60,-1
2090,61,-89,205,7,59,1
2095,63,-89,203,4,56,-3
2100,61,-89,209,1,54,1
2105,61,-87,205,-4,53,-2
2110,61,-85,210,-9,51,2
2115,60,-87,205,-12,50,1
2120,62,-86,208,-15,51,4
2125,62,-85,209,-20,47,2
2130,61,-86,209,-21,49,5
2135,58,-88,208,-21,48,3
2140,62,-87,209,-20,49,6
2145,62,-89,204,-17,48,5
2150,62,-90,206,-15,49,8
2155,61,-92,208,-12,51,5
2160,64,-93,209,-9,54,6
2165,59,-91,205,-7,55,3
2170,61,-90,210,-5,58,5
2175,60,-91,208,-3,59,0
2180,61,-89,208,-2,60,1
2185,61,-92,205,-2,62,-3
2190,61,-90,206,0,64,-3
2195,59,-88,205,0,66,-7
2200,57,-86,207,0,69,-7
2205,60,-90,208,1,70,-11
2210,59,-91,209,1,71,-11
2215,60,-88,205,-1,73,-15
2220,60,-87,212,-1,74,-13
2225,59,-86,207,-2,76,-15
2230,58,-89,205,-3,75,-13
2235,63,-88,209,-3,74,-13
2240,59,-85,210,-4,73,-10
2245,60,-87,209,-6,72,-11
2250,59,-86,206,-8,69,-7
2255,60,-86,207,-8,70,-6
2260,60,-86,209,-10,67,-2
2265,58,-90,207,-11,64,-2
2270,60,-87,205,-12,64,3
2275,62,-89,206,-15,62,1
2280,60,-87,207,-15,61,5
2285,61,-88,209,-15,60,3
2290,61,-89,207,-16,60,6
2295,60,-90,207,-17,60,4
2300,61,-89,210,-18,60,6
2305,62,-88,208,-19,59,3
2310,61,-90,208,-21,60,3
2315,62,-89,204,-19,61,1
2320,61,-88,209,-18,60,1
2325,58,-88,206,-18,60,-1
2330,59,-89,206,-18,58,0
2335,61,-89,210,-16,57,-2
2340,62,-89,210,-17,58,-2
2345,61,-88,205,-14,58,-4
2350,60,-91,210,-13,58,-5
2355,61,-87,208,-14,59,-6
2360,60,-89,203,-13,60,-7
2365,61,-86,209,-14,61,-8
2370,61,-89,208,-14,63,-7
2375,62,-89,208,-13,66,-9
2380,63,-87,209,-15,67,-9
2385,59,-84,207,-15,70,-9
2390,58,-84,207,-14,71,-8
2395,62,-87,211,-13,73,-9
2400,64,-87,212,-16,73,-9
2405,60,-88,209,-15,73,-11
2410,63,-89,207,-14,74,-10
2415,62,-88,210,-14,73,-11
2420,62,-85,211,-14,74,-9
2425,62,-90,207,-12,75,-10
2430,63,-88,212,-13,73,-9
2435,61,-86,207,-11,72,-10
2440,61,-85,212,-11,72,-9
2445,63,-86,207,-12,71,-9
2450,61,-84,209,-12,70,-8
2455,64,-87,209,-14,70,-8
2460,62,-90,208,-15,70,-7
2465,63,-90,206,-15,71,-8
2470,61,-90,208,-16,69,-9
2475,60,-90,211,-18,68,-9
2480,59,-89,209,-19,67,-13
2485,58,-92,205,-19,65,-15
2490,58,-91,212,-19,63,-17
2495,60,-89,211,-19,62,-22
2500,59,-92,210,-21,60,-24
2505,61,-87,212,-20,59,-25
2510,58,-89,213,-22,55,-27
2515,54,-87,210,-23,50,-25
2520,56,-86,212,-27,44,-24
2525,57,-84,212,-31,36,-19
2530,52,-82,212,-32,28,-15
2535,52,-83,207,-35,19,-12
2540,54,-81,207,-37,11,-8
2545,53,-81,210,-40,4,-5
2550,52,-83,207,-42,0,-7
2555,54,-83,209,-46,-3,-5
2560,52,-85,207,-49,0,-9
2565,59,-89,208,-53,5,-13
2570,55,-86,208,-59,14,-20
2575,56,-88,210,-65,21,-25
2580,56,-90,211,-69,27,-31
2585,55,-92,212,-71,29,-33
2590,53,-88,210,-73,29,-35
2595,53,-88,214,-72,22,-31
2600,50,-87,213,-69,8,-27
2605,52,-88,218,-66,-11,-21
2610,50,-84,218,-65,-39,-15
2615,46,-86,220,-66,-68,-5
2620,46,-80,222,-73,-97,5
2625,44,-82,221,-81,-128,19
2630,43,-79,218,-94,-157,28
2635,42,-80,217,-109,-181,37
2640,45,-83,211,-126,-199,37
2645,45,-85,213,-143,-211,36
2650,45,-87,213,-160,-218,26
2655,49,-92,206,-177,-220,19
2660,49,-89,208,-194,-219,6
2665,52,-91,203,-212,-218,-7
2670,50,-96,201,-234,-216,-25
2675,51,-98,200,-257,-216,-29
2680,55,-100,199,-280,-216,-35
2685,56,-106,202,-301,-215,-38
2690,59,-106,205,-317,-213,-43
2695,57,-104,205,-330,-213,-38
2700,60,-105,208,-339,-217,-34
2705,59,-106,208,-344,-223,-23
2710,59,-109,209,-343,-235,-14
2715,61,-111,213,-335,-250,-2
2720,59,-113,208,-321,-267,7
2725,56,-119,212,-298,-287,18
2730,57,-122,212,-260,-305,22
2735,56,-125,208,-221,-319,27
2740,55,-124,205,-181,-332,26
2745,55,-124,206,-142,-345,26
2750,55,-124,202,-104,-360,21
2755,54,-123,197,-72,-372,17
2760,56,-123,197,-49,-382,8
2765,57,-120,197,-31,-390,1
2770,59,-118,193,-18,-397,-15
2775,59,-114,193,-10,-400,-29
2780,62,-115,193,-7,-401,-55
2785,62,-118,191,-1,-399,-76
2790,62,-113,193,3,-391,-102
2795,63,-115,196,11,-381,-120
2800,64,-113,195,19,-372,-141
2805,64,-112,197,28,-363,-154
2810,64,-110,198,37,-355,-176
2815,63,-112,199,45,-348,-192
2820,64,-111,203,55,-340,-212
2825,65,-111,199,64,-331,-225
2830,65,-112,199,75,-321,-245
2835,65,-112,204,92,-312,-258
2840,64,-116,204,115,-298,-279
2845,65,-115,208,147,-291,-292
2850,69,-118,206,174,-283,-306
2855,67,-114,204,199,-278,-315
2860,71,-115,197,221,-271,-327
2865,71,-111,201,237,-267,-335
2870,71,-109,199,249,-265,-347
2875,74,-107,202,255,-266,-354
2880,74,-104,198,256,-274,-366
2885,76,-99,200,248,-286,-372
2890,75,-93,201,235,-304,-382
2895,76,-89,201,214,-326,-384
2900,79,-88,203,195,-350,-385
2905,79,-89,203,182,-370,-389
2910,81,-85,205,174,-386,-395
2915,80,-80,210,170,-400,-399
2920,85,-80,209,166,-410,-406
2925,87,-79,211,165,-420,-410
2930,88,-76,212,164,-428,-415
2935,84,-72,215,160,-434,-418
2940,88,-68,212,154,-438,-423
2945,87,-70,211,148,-445,-426
2950,89,-67,208,140,-450,-433
2955,94,-66,210,129,-454,-436
2960,95,-65,207,122,-459,-442
2965,97,-65,208,115,-463,-445
2970,100,-66,207,113,-465,-447
2975,100,-67,209,114,-466,-445
2980,106,-71,206,117,-466,-443
2985,107,-75,199,122,-466,-437
2990,107,-79,203,124,-464,-432
2995,108,-80,195,119,-464,-424
3000,109,-80,194,109,-468,-419
3005,113,-83,196,89,-474,-414
3010,110,-80,195,65,-491,-414
3015,111,-83,193,35,-509,-414
3020,116,-88,193,11,-530,-419
3025,117,-89,195,-9,-549,-429
3030,120,-91,196,-20,-568,-438
3035,124,-88,194,-22,-583,-449
3040,123,-84,197,-19,-597,-464
3045,123,-83,197,-10,-608,-478
3050,123,-77,199,6,-616,-492
3055,123,-79,201,27,-627,-503
3060,127,-81,201,55,-633,-511
3065,128,-80,199,90,-637,-516
3070,128,-80,202,135,-640,-519
3075,128,-78,196,169,-639,-522
3080,129,-81,194,198,-637,-524
3085,126,-78,192,217,-635,-527
3090,128,-73,189,228,-634,-528
3095,126,-70,186,233,-635,-526
3100,127,-67,186,226,-642,-520
3105,128,-68,190,217,-652,-515
3110,130,-66,184,208,-662,-510
3115,131,-64,187,198,-667,-509
3120,134,-63,189,191,-668,-505
3125,139,-61,187,193,-661,-506
3130,144,-63,193,207,-646,-508
3135,146,-63,194,231,-626,-519
3140,155,-63,195,265,-605,-523
3145,152,-63,198,298,-589,-528
3150,153,-60,195,328,-577,-524
3155,152,-59,191,347,-571,-525
3160,153,-62,188,358,-569,-519
3165,151,-59,185,362,-569,-509
3170,151,-56,184,353,-573,-506
3175,145,-57,176,341,-579,-506
3180,145,-54,173,321,-586,-497
3185,142,-51,171,287,-592,-493
3190,146,-52,172,264,-595,-484
3195,144,-52,170,251,-600,-481
3200,143,-50,175,249,-603,-475
3205,142,-49,174,257,-604,-471
3210,148,-54,178,284,-601,-463
3215,149,-52,181,319,-598,-468
3220,153,-52,181,359,-594,-471
3225,155,-51,181,401,-588,-477
3230,156,-49,180,433,-583,-477
3235,159,-49,175,453,-581,-474
3240,162,-49,175,446,-585,-479
3245,158,-45,175,421,-592,-486
3250,159,-47,176,391,-602,-485
3255,162,-48,181,361,-613,-486
3260,164,-52,183,335,-629,-484
3265,165,-54,184,318,-645,-487
3270,169,-51,184,309,-659,-488
3275,168,-51,186,307,-673,-495
3280,169,-52,185,310,-688,-497
3285,167,-49,180,314,-699,-502
3290,166,-49,176,317,-708,-500
3295,162,-45,169,309,-719,-501
3300,160,-42,164,289,-723,-494
3305,159,-43,161,262,-726,-492
3310,160,-43,154,234,-724,-484
3315,161,-45,153,204,-727,-486
3320,163,-41,154,175,-727,-487
3325,165,-34,153,153,-726,-497
3330,167,-33,158,144,-720,-503
3335,173,-32,155,155,-711,-511
3340,182,-34,155,180,-699,-513
3345,191,-34,153,218,-682,-524
3350,192,-31,154,255,-660,-536
3355,194,-25,148,283,-640,-554
3360,199,-20,145,293,-621,-564
3365,206,-18,145,297,-610,-574
3370,211,-18,147,304,-603,-576
3375,217,-24,144,318,-599,-584
3380,220,-26,144,338,-594,-594
3385,222,-23,142,349,-590,-614
3390,222,-22,142,351,-593,-631
3395,222,-18,139,343,-602,-649
3400,219,-22,134,326,-620,-658
3405,218,-23,129,302,-647,-672
3410,215,-26,126,264,-671,-678
3415,210,-27,125,227,-689,-692
3420,207,-27,126,189,-702,-707
3425,201,-30,126,157,-712,-726
3430,201,-29,126,138,-718,-743
3435,202,-29,128,133,-720,-762
3440,197,-21,125,140,-723,-776
3445,196,-17,129,153,-721,-793
3450,196,-14,131,167,-720,-797
3455,201,-14,130,177,-716,-798
3460,206,-11,134,178,-707,-793
3465,207,-8,132,168,-690,-794
3470,212,-6,135,148,-677,-795
3475,212,-1,139,118,-660,-798
3480,216,-3,136,79,-651,-793
3485,216,-3,138,32,-646,-788
3490,218,1,136,-14,-649,-779
3495,220,0,134,-56,-661,-777
3500,225,-6,140,-90,-677,-771
3505,226,-8,135,-109,-691,-774
3510,228,-9,138,-112,-703,-775
3515,230,-12,137,-103,-706,-789
3520,228,-12,135,-73,-703,-803
3525,229,-12,136,-42,-696,-816
3530,227,-10,136,-11,-686,-824
3535,229,-9,134,17,-673,-832
3540,225,-9,127,42,-657,-837
3545,227,-8,126,59,-640,-843
3550,230,-8,127,72,-622,-845
3555,228,-2,127,86,-599,-853
3560,228,2,123,104,-581,-861
3565,228,0,129,131,-560,-869
3570,225,0,127,165,-542,-868
3575,227,1,122,200,-524,-866
3580,224,2,122,245,-511,-859
3585,221,1,118,278,-496,-846
3590,218,4,120,305,-481,-829
3595,214,6,112,323,-462,-810
3600,211,9,117,335,-442,-792
3605,209,11,118,342,-420,-778
3610,203,15,121,347,-401,-770
3615,202,23,123,356,-388,-767
3620,202,23,122,367,-377,-766
3625,203,26,118,382,-369,-772
3630,207,31,123,397,-355,-786
3635,208,36,121,410,-341,-806
3640,203,40,120,417,-326,-830
3645,205,43,120,418,-315,-853
3650,207,48,120,415,-303,-872
3655,213,48,119,406,-293,-882
3660,213,48,120,395,-285,-885
3665,221,44,123,380,-279,-881
3670,226,44,120,360,-273,-868
3675,230,43,120,335,-264,-847
3680,233,42,113,307,-253,-823
3685,235,39,114,280,-237,-794
3690,236,37,112,249,-224,-773
3695,238,33,114,232,-212,-754
3700,238,36,114,220,-201,-738
3705,236,34,111,210,-189,-724
3710,235,33,118,207,-176,-726
3715,229,39,122,206,-155,-737
3720,229,40,120,214,-133,-758
3725,226,46,123,227,-111,-782
3730,224,50,126,243,-93,-813
3735,223,55,124,262,-72,-842
3740,223,60,129,281,-54,-874
3745,222,64,130,300,-35,-888
3750,225,65,127,317,-23,-892
3755,229,68,123,336,-23,-887
3760,234,71,121,353,-30,-876
3765,239,73,115,370,-43,-860
3770,243,75,109,380,-53,-847
3775,241,85,108,386,-59,-832
3780,243,88,102,389,-60,-821
3785,245,90,98,389,-57,-807
3790,241,96,99,386,-59,-803
3795,236,103,94,378,-68,-802
3800,239,105,88,363,-84,-815
3805,233,111,84,345,-99,-833
3810,230,119,87,330,-110,-860
3815,224,125,93,320,-109,-882
3820,224,130,94,313,-111,-908
3825,222,136,96,313,-124,-925
3830,222,137,97,321,-153,-938
3835,231,140,92,325,-197,-934
3840,233,140,88,319,-251,-924
3845,233,141,88,304,-305,-902
3850,231,137,83,275,-354,-875
3855,232,131,78,239,-400,-834
3860,230,128,75,190,-446,-803
3865,227,128,75,147,-479,-765
3870,225,127,75,107,-502,-738
3875,224,126,77,73,-513,-714
3880,221,126,76,49,-511,-701
3885,217,127,76,30,-494,-694
3890,207,130,76,15,-469,-703
3895,199,132,79,4,-442,-705
3900,196,139,81,0,-419,-705
3905,195,146,81,-1,-403,-691
3910,192,150,80,0,-391,-682
3915,199,151,81,9,-383,-666
3920,197,158,84,15,-376,-645
3925,201,163,78,24,-369,-616
3930,205,162,77,32,-366,-599
3935,208,165,73,32,-365,-581
3940,210,170,72,26,-363,-571
3945,210,172,73,18,-360,-558
3950,213,177,70,3,-356,-547
3955,213,185,65,-5,-357,-533
3960,216,191,64,-5,-360,-521
3965,220,192,62,-2,-365,-493
3970,225,195,58,1,-372,-455
3975,231,193,51,3,-379,-412
3980,239,193,36,1,-387,-367
3985,244,191,28,-21,-382,-303
3990,245,187,28,-55,-375,-237
3995,244,183,26,-99,-377,-161
4000,245,177,18,-156,-383,-83
4005,244,170,18,-221,-379,5
4010,246,162,19,-284,-364,76
4015,242,160,25,-344,-345,122
4020,232,160,30,-399,-319,140
4025,225,160,37,-451,-282,149
4030,217,159,46,-500,-231,135
4035,211,167,48,-526,-199,119
4040,202,167,50,-543,-170,105
4045,199,167,54,-557,-136,93
4050,198,168,61,-566,-102,69
4055,192,171,58,-571,-82,40
4060,187,170,61,-571,-73,11
4065,186,170,64,-570,-84,-13
4070,189,169,62,-584,-95,-30
4075,188,170,64,-603,-106,-33
4080,190,169,72,-609,-120,-48
4085,191,162,70,-592,-135,-53
4090,193,157,72,-573,-151,-52
4095,199,150,71,-548,-168,-49
4100,198,142,74,-519,-184,-44
4105,203,133,74,-486,-204,-31
4110,204,130,71,-449,-224,-16
4115,204,128,75,-411,-246,5
4120,206,128,81,-374,-268,23
4125,211,128,85,-338,-281,39
4130,211,128,83,-302,-284,49
4135,211,129,90,-260,-280,57
4140,210,130,89,-213,-269,68
4145,207,133,93,-160,-257,85
4150,208,133,93,-111,-248,98
4155,214,134,91,-67,-240,116
4160,212,135,89,-27,-229,137
4165,212,134,89,9,-220,161
4170,214,139,84,44,-209,184
4175,209,143,86,69,-199,209
4180,209,145,83,83,-188,230
4185,215,146,80,85,-179,252
4190,210,146,82,76,-169,270
4195,213,145,80,58,-160,285
4200,213,138,77,24,-152,295
4205,216,136,75,-13,-145,302
4210,211,131,76,-54,-131,304
4215,212,129,76,-99,-113,301
4220,210,121,77,-144,-92,298
4225,212,114,86,-185,-69,292
4230,215,111,86,-221,-45,286
4235,215,109,90,-244,-16,282
4240,219,105,94,-255,6,277
4245,220,101,94,-252,27,273
4250,226,98,98,-234,46,272
4255,228,94,102,-196,65,271
4260,227,90,104,-153,75,274
4265,229,88,105,-102,79,278
4270,229,86,104,-43,79,290
4275,230,82,100,19,76,302
4280,234,77,101,90,74,321
4285,235,77,95,161,71,338
4290,238,73,87,236,75,358
4295,241,75,84,307,83,373
4300,246,75,76,374,98,386
4305,245,75,70,430,117,395
4310,248,75,64,478,136,399
4315,249,74,64,521,149,395
4320,247,76,62,540,156,390
4325,251,78,56,541,155,378
4330,252,77,52,526,149,369
4335,250,81,41,489,136,355
4340,249,84,40,431,119,341
4345,244,93,39,355,94,323
4350,240,92,41,265,63,310
4355,236,95,42,166,17,292
4360,229,97,42,63,-35,278
4365,228,96,38,-38,-104,258
4370,224,97,51,-151,-156,246
4375,225,93,50,-230,-204,230
4380,220,96,62,-292,-245,220
4385,222,95,65,-334,-280,208
4390,213,94,75,-356,-312,204
4395,215,94,78,-357,-343,197
4400,215,95,84,-341,-377,194
4405,215,97,86,-311,-410,187
4410,215,99,90,-274,-439,185
4415,218,101,91,-231,-469,178
4420,220,100,97,-185,-498,178
4425,221,103,94,-128,-526,177
4430,224,102,95,-84,-546,189
4435,226,101,91,-43,-560,205
4440,233,101,90,-16,-577,222
4445,236,102,81,0,-593,231
4450,240,104,76,5,-612,241
4455,245,103,74,-8,-625,246
4460,251,103,66,-33,-633,262
4465,256,100,63,-65,-636,269
4470,257,98,61,-106,-631,279
4475,261,93,52,-151,-620,283
4480,265,89,50,-206,-595,287
4485,265,90,48,-253,-571,284
4490,265,84,47,-300,-549,281
4495,266,81,48,-342,-531,274
4500,266,79,46,-378,-513,273
4505,266,79,46,-409,-502,266
4510,269,76,49,-439,-497,257
4515,270,73,51,-459,-489,245
4520,272,73,55,-467,-477,251
4525,276,72,57,-467,-469,252
4530,277,68,57,-460,-455,253
4535,283,66,60,-447,-438,247
4540,282,65,64,-424,-424,245
4545,277,71,68,-398,-415,244
4550,283,66,66,-368,-404,250
4555,279,64,66,-336,-396,254
4560,274,67,69,-299,-400,259
4565,275,66,63,-261,-413,258
4570,269,68,65,-223,-426,261
4575,267,66,59,-188,-437,259
4580,264,65,59,-157,-444,261
4585,259,67,59,-128,-445,260
4590,255,65,61,-105,-449,261
4595,250,68,55,-77,-459,262
4600,249,70,57,-53,-466,264
4605,249,67,53,-30,-475,262
4610,246,71,46,-3,-481,261
4615,243,71,43,25,-488,257
4620,242,71,43,57,-497,253
4625,243,69,37,92,-509,247
4630,243,66,31,127,-521,247
4635,246,68,33,159,-533,247
4640,244,69,33,186,-543,251
4645,247,73,32,203,-548,255
4650,250,75,31,214,-552,258
4655,255,80,28,213,-548,259
4660,256,82,27,211,-544,260
4665,262,83,25,208,-540,256
4670,263,86,24,207,-538,250
4675,273,82,21,210,-538,249
4680,271,84,20,217,-541,254
4685,277,82,18,229,-546,263
4690,279,80,17,240,-551,281
4695,281,81,11,247,-555,303
4700,284,81,5,246,-560,330
4705,286,80,1,232,-572,348
4710,287,78,0,206,-577,363
4715,287,74,-3,170,-589,378
4720,290,70,-9,132,-609,390
4725,292,68,-14,87,-630,398
4730,293,68,-18,40,-648,398
4735,295,64,-23,-9,-661,392
4740,297,63,-25,-56,-669,379
4745,297,59,-21,-100,-670,366
4750,302,57,-21,-141,-669,354
4755,304,53,-23,-176,-663,340
4760,303,49,-26,-203,-657,321
4765,304,46,-23,-226,-649,307
4770,307,39,-23,-235,-637,287
4775,304,37,-27,-233,-623,265
4780,303,33,-23,-220,-601,234
4785,300,27,-23,-198,-573,198
4790,297,28,-20,-171,-536,159
4795,294,29,-13,-140,-492,116
4800,290,28,-12,-100,-447,65
4805,282,32,-8,-54,-403,12
4810,275,34,-8,-9,-359,-47
4815,269,40,1,35,-312,-112
4820,260,47,3,86,-279,-160
4825,255,53,1,127,-257,-191
4830,251,57,3,164,-243,-213
4835,248,61,0,198,-241,-223
4840,243,64,0,233,-247,-223
4845,242,68,-1,261,-260,-209
4850,238,72,-8,276,-279,-186
4855,237,75,-12,269,-303,-150
4860,242,75,-16,238,-321,-112
4865,246,72,-16,196,-321,-74
4870,250,70,-18,150,-300,-45
4875,253,67,-9,108,-247,-27
4880,254,67,-4,93,-190,-23
4885,256,65,0,94,-125,-23
4890,261,64,5,109,-57,-37
4895,260,65,8,134,6,-54
4900,268,65,13,163,67,-79
4905,273,68,17,189,128,-100
4910,276,72,15,208,188,-124
4915,286,71,15,214,249,-144
4920,285,77,7,209,312,-164
4925,289,74,5,185,379,-173
4930,294,71,1,148,461,-179
4935,296,69,0,88,524,-171
4940,295,68,0,35,582,-164
4945,294,68,-6,-19,628,-151
4950,295,64,-4,-69,661,-147
4955,294,66,-3,-109,678,-140
4960,290,67,-7,-140,678,-141
4965,285,67,-2,-161,665,-139
4970,281,68,-3,-176,644,-143
4975,282,74,0,-189,616,-145
4980,280,73,-5,-202,587,-148
4985,276,76,-1,-213,559,-149
4990,272,78,-2,-226,527,-151
4995,267,79,-4,-236,506,-149
5000,265,81,1,-246,490,-149
5005,259,80,1,-256,474,-144
5010,258,83,5,-267,461,-143
5015,257,85,8,-278,451,-136
5020,255,82,8,-288,443,-134
5025,253,85,9,-297,439,-126
5030,251,81,12,-306,440,-121
5035,250,79,18,-313,433,-112
5040,252,82,22,-319,426,-103
5045,248,82,20,-324,413,-93
5050,247,81,26,-328,401,-87
5055,252,79,24,-329,392,-75
5060,246,79,26,-327,378,-71
5065,249,76,25,-326,352,-65
5070,249,71,27,-322,326,-62
5075,248,72,30,-321,305,-55
5080,244,72,31,-311,291,-45
5085,248,71,29,-303,271,-36
5090,249,70,26,-292,256,-32
5095,250,72,30,-283,246,-26
5100,255,66,29,-271,240,-27
5105,256,69,29,-257,242,-23
5110,256,67,28,-243,253,-22
5115,254,68,29,-234,263,-22
5120,253,71,33,-228,261,-31
5125,255,67,33,-224,260,-34
5130,257,69,29,-216,262,-40
5135,259,72,33,-209,263,-40
5140,261,69,35,-202,271,-38
5145,257,69,40,-196,271,-35
5150,258,68,37,-191,258,-39
5155,260,66,39,-182,241,-32
5160,264,65,35,-163,226,-26
5165,262,65,36,-138,219,-10
5170,265,63,40,-114,212,4
5175,259,64,37,-87,187,16
5180,258,65,37,-63,152,28
5185,261,66,35,-36,118,45
5190,261,64,35,-14,86,58
5195,265,65,34,2,53,73
5200,261,67,33,11,20,82
5205,259,68,29,15,-12,91
5210,260,72,29,11,-38,96
5215,260,72,27,0,-63,99
5220,259,75,26,-12,-77,102
5225,258,76,23,-23,-86,106
5230,260,76,23,-31,-94,109
5235,257,76,24,-35,-98,113
5240,257,76,26,-35,-101,117
5245,257,75,27,-30,-99,123
5250,255,76,25,-20,-95,129
5255,256,76,24,-10,-87,136
5260,255,73,26,2,-79,140
5265,256,72,25,13,-69,149
5270,257,73,24,27,-56,153
5275,256,72,27,38,-48,156
5280,258,74,25,51,-42,159
5285,258,70,24,63,-38,160
5290,260,72,29,73,-37,162
5295,261,72,25,84,-36,164
5300,266,67,26,92,-35,164
5305,266,68,22,102,-34,165
5310,263,70,22,110,-33,164
5315,268,67,20,116,-34,164
5320,267,66,18,123,-38,163
5325,269,65,19,124,-39,163
5330,270,67,19,123,-40,162
5335,270,71,12,121,-43,159
5340,268,67,11,117,-44,157
5345,266,69,7,109,-46,152
5350,269,69,8,100,-48,149
5355,268,70,5,86,-49,143
5360,268,70,4,68,-48,139
5365,268,69,2,50,-48,134
5370,269,69,4,30,-48,130
5375,268,69,3,9,-47,127
5380,268,66,7,-9,-47,124
5385,267,66,5,-26,-50,119
5390,267,65,5,-39,-50,119
5395,267,66,7,-46,-52,115
5400,268,63,4,-52,-51,117
5405,269,64,7,-55,-47,111
5410,268,64,4,-54,-43,109
5415,269,61,10,-51,-36,107
5420,268,62,6,-41,-25,106
5425,269,62,13,-34,-18,98
5430,271,60,7,-28,-6,92
5435,273,59,7,-27,3,85
5440,269,58,7,-29,19,83
5445,274,58,6,-32,26,77
5450,274,61,9,-34,34,75
5455,275,57,10,-38,41,68
5460,278,54,7,-40,46,68
5465,277,53,12,-46,49,64
5470,276,56,7,-50,53,65
5475,281,52,7,-57,55,59
5480,276,57,9,-65,63,57
5485,277,55,9,-75,67,50
5490,274,50,7,-84,73,44
5495,277,52,10,-92,79,30
5500,277,54,12,-100,85,24
5505,270,53,6,-105,92,10
5510,278,52,9,-107,99,1
5515,277,55,9,-107,104,-14
5520,276,55,10,-106,110,-23
5525,274,54,11,-105,117,-36
5530,276,57,7,-100,126,-42
5535,272,55,10,-96,129,-52
5540,272,56,13,-92,128,-55
5545,270,58,11,-87,128,-62
5550,271,58,14,-82,127,-65
5555,270,61,16,-77,127,-69
5560,269,62,15,-73,124,-67
5565,269,62,17,-70,123,-69
5570,267,61,17,-69,120,-63
5575,266,64,15,-72,120,-62
5580,263,63,15,-79,117,-59
5585,266,64,12,-89,112,-60
5590,265,62,12,-100,111,-55
5595,262,63,12,-112,109,-57
5600,266,62,13,-126,110,-55
5605,266,64,16,-137,111,-56
5610,268,61,20,-151,115,-54
5615,267,63,20,-165,114,-65
5620,263,65,22,-172,111,-70
5625,265,64,23,-169,110,-66
5630,267,60,27,-165,107,-62
5635,267,60,26,-155,106,-69
5640,269,59,23,-143,103,-69
5645,266,56,25,-128,101,-75
5650,270,56,25,-110,99,-73
5655,269,56,23,-90,98,-78
5660,266,56,27,-70,98,-75
5665,267,56,25,-43,101,-76
5670,267,55,27,-22,104,-74
5675,268,54,28,1,108,-76
5680,270,57,26,23,112,-73
5685,268,60,23,42,115,-75
5690,267,61,26,57,118,-73
5695,268,58,25,71,118,-76
5700,266,63,24,80,119,-75
5705,267,61,26,88,117,-75
5710,265,62,25,94,114,-70
5715,265,62,24,101,112,-68
5720,266,64,23,105,105,-62
5725,265,63,19,107,99,-59
5730,261,66,24,108,94,-54
5735,260,67,26,106,91,-51
5740,259,67,23,102,87,-45
5745,257,68,25,99,83,-43
5750,259,69,26,96,81,-37
5755,258,67,25,91,78,-38
5760,259,72,24,86,78,-34
5765,259,70,24,80,77,-33
5770,256,71,21,74,77,-30
5775,257,72,20,66,76,-27
5780,257,71,26,58,73,-26
5785,258,71,22,50,72,-25
5790,256,73,22,40,67,-21
5795,257,72,20,34,63,-19
5800,257,71,21,26,56,-15
5805,254,74,18,19,50,-11
5810,254,73,18,14,44,-6
5815,256,70,17,7,39,-4
5820,258,74,12,0,33,3
5825,257,75,15,-5,30,7
5830,260,74,12,-13,26,11
5835,261,70,11,-19,26,14
5840,262,71,13,-25,27,18
5845,262,73,7,-31,25,22
5850,260,72,10,-37,26,27
5855,264,72,13,-43,27,30
5860,264,69,11,-51,27,33
5865,268,69,12,-57,30,35
5870,263,68,14,-63,31,36
5875,267,67,13,-69,33,36
5880,267,67,14,-77,37,37
5885,265,66,13,-85,36,38
5890,264,67,17,-92,39,37
5895,265,62,21,-95,41,37
5900,265,66,19,-96,43,35
5905,268,62,20,-97,48,34
5910,264,62,18,-96,50,31
5915,265,62,19,-91,51,30
5920,267,61,23,-83,51,28
5925,266,61,21,-76,52,27
5930,264,63,21,-68,51,25
5935,265,62,21,-58,51,25
5940,265,64,23,-51,51,23
5945,266,62,20,-40,51,24
5950,264,62,18,-32,51,23
5955,269,63,15,-24,51,25
5960,263,62,17,-20,52,24
5965,264,61,16,-16,53,26
5970,265,62,16,-15,53,24
5975,264,64,17,-15,56,26
5980,262,61,21,-15,58,24
5985,265,63,16,-19,61,23
5990,267,62,18,-25,63,21
5995,267,62,17,-30,64,19
6000,266,64,15,-35,65,14
6005,266,59,16,-40,67,14
6010,268,61,13,-45,67,9
6015,266,63,16,-51,67,7
6020,265,61,17,-55,67,1
6025,265,64,17,-58,68,1
6030,266,61,17,-62,68,-4
6035,268,62,14,-63,68,-5
6040,265,63,17,-63,66,-10
6045,267,62,23,-64,65,-9
6050,267,62,24,-62,64,-13
6055,267,62,17,-59,63,-13
6060,269,61,23,-56,64,-16
6065,269,60,23,-52,62,-15
6070,268,61,20,-47,62,-18
6075,267,60,22,-42,62,-18
6080,266,61,20,-36,59,-18
6085,268,61,18,-30,57,-16
6090,267,57,21,-27,54,-19
6095,265,62,21,-22,52,-15
6100,266,59,21,-20,49,-17
6105,262,58,23,-14,47,-13
6110,265,63,19,-9,45,-16
6115,266,64,22,-6,45,-13
6120,264,64,25,-2,46,-15
6125,266,64,21,3,43,-11
6130,263,64,20,7,43,-12
6135,267,64,22,13,42,-9
6140,268,64,24,16,38,-9
6145,264,64,20,21,35,-5
6150,266,63,18,26,32,-4
6155,265,61,21,30,27,3
6160,267,62,18,33,24,4
6165,267,61,20,33,19,9
6170,266,60,19,33,15,9
6175,267,61,20,31,15,15
6180,268,60,14,30,15,12
6185,265,62,17,27,18,15
6190,271,60,21,28,23,12
6195,270,61,16,28,30,14
6200,268,60,20,31,39,9
6205,270,62,19,35,49,8
6210,268,63,22,42,57,4
6215,270,60,16,49,64,3
6220,268,62,17,58,72,-2
6225,269,60,17,66,79,-1
6230,268,61,18,72,85,-8
6235,269,62,16,79,92,-9
6240,270,62,12,83,99,-16
6245,266,65,12,84,104,-18
6250,264,63,9,85,112,-27
6255,263,66,11,83,116,-30
6260,265,65,8,79,118,-36
6265,261,67,7,71,121,-37
6270,258,67,5,60,120,-43
6275,259,69,7,46,118,-43
6280,258,72,7,26,112,-44
6285,259,73,9,5,107,-43
6290,257,70,9,-15,102,-45
6295,258,74,7,-38,96,-43
6300,258,71,9,-59,92,-43
6305,258,70,9,-79,89,-43
6310,259,71,8,-93,87,-45
6315,261,71,14,-105,88,-43
6320,260,66,11,-111,86,-46
6325,261,67,13,-112,87,-46
6330,261,65,17,-111,87,-47
6335,262,61,15,-105,87,-46
6340,261,62,21,-99,88,-48
6345,262,64,20,-91,89,-47
6350,264,63,22,-82,90,-49
6355,266,62,20,-73,96,-50
6360,265,61,23,-64,102,-52
6365,267,59,23,-57,107,-55
6370,264,62,23,-51,113,-58
6375,264,62,25,-48,120,-60
6380,266,63,25,-43,123,-64
6385,266,63,22,-39,127,-62
6390,265,63,21,-35,127,-63
6395,267,62,22,-32,128,-66
6400,267,63,22,-27,128,-64
6405,264,62,18,-22,127,-62
6410,265,62,21,-16,127,-61
6415,265,61,22,-10,125,-60
6420,267,61,21,-3,125,-60
6425,266,62,18,4,124,-60
6430,264,62,19,7,125,-60
6435,264,63,21,11,126,-60
6440,265,64,17,13,127,-61
6445,263,63,16,13,128,-63
6450,263,65,22,12,129,-62
6455,261,66,19,13,131,-64
6460,262,65,16,12,132,-66
6465,261,65,20,13,135,-67
6470,263,64,22,11,138,-69
6475,259,66,21,10,143,-72
6480,262,66,20,10,146,-74
6485,260,68,21,11,149,-75
6490,261,65,23,8,151,-75
6495,260,66,25,7,150,-75
6500,263,63,22,6,147,-74
6505,260,64,22,4,142,-76
6510,263,67,24,4,138,-74
6515,264,65,23,6,136,-75
6520,262,62,26,6,131,-72
6525,260,66,24,8,128,-71
6530,264,65,25,10,125,-68
6535,262,65,27,14,121,-65
6540,264,67,25,20,117,-61
6545,265,64,25,26,113,-57
6550,263,66,26,35,111,-51
6555,263,67,22,41,109,-50
6560,265,64,22,48,110,-47
6565,265,65,25,50,110,-49
6570,264,68,24,52,110,-47
6575,265,69,24,54,112,-49
6580,262,68,23,55,113,-47
6585,264,68,24,54,114,-50
6590,265,70,25,54,114,-49
6595,262,72,21,53,116,-51
6600,260,75,26,50,115,-48
6605,261,75,22,46,116,-51
6610,259,77,21,42,115,-45
6615,257,78,20,33,110,-44
6620,259,74,18,22,106,-39
6625,259,79,24,10,101,-36
6630,259,75,21,-2,97,-30
6635,260,78,19,-15,94,-29
6640,260,76,20,-25,93,-23
6645,259,73,21,-32,91,-21
6650,259,75,20,-38,92,-16
6655,260,74,18,-40,94,-14
6660,257,72,24,-40,94,-10
6665,261,71,24,-39,97,-11
6670,261,70,24,-36,100,-9
6675,260,72,25,-30,103,-12
6680,261,69,27,-26,104,-9
6685,259,71,28,-20,107,-12
6690,259,70,28,-16,108,-12
6695,259,71,29,-14,109,-15
6700,259,70,31,-11,110,-13
6705,258,72,25,-9,111,-16
6710,261,74,26,-9,111,-14
6715,261,75,28,-10,109,-16
6720,260,72,25,-13,108,-13
6725,260,71,26,-18,108,-16
6730,261,69,30,-25,105,-9
6735,262,72,29,-33,103,-10
6740,264,70,25,-38,101,-11
6745,264,72,24,-40,100,-15
6750,262,70,29,-41,99,-12
6755,263,69,27,-41,97,-12
6760,266,67,28,-38,95,-11
6765,263,69,25,-33,94,-13
6770,263,65,24,-26,91,-10
6775,265,65,26,-16,90,-14
6780,262,69,25,-10,87,-11
6785,263,67,25,-2,85,-13
6790,263,68,31,2,84,-15
6795,264,70,31,5,86,-18
6800,264,66,27,6,88,-18
6805,266,69,25,6,87,-22
6810,264,68,25,3,89,-24
6815,265,70,27,2,90,-27
6820,264,70,25,-1,91,-28
6825,263,68,23,-6,93,-32
6830,262,69,26,-7,92,-30
6835,260,67,25,-11,92,-35
6840,261,67,24,-15,93,-34
6845,264,68,22,-18,94,-34
6850,261,70,24,-21,94,-34
6855,260,70,30,-20,94,-36
6860,260,66,28,-20,93,-34
6865,260,70,25,-17,93,-36
6870,262,69,26,-13,93,-33
6875,263,69,28,-9,90,-35
6880,265,67,28,-2,90,-31
6885,263,69,27,3,90,-30
6890,262,72,31,6,88,-26
6895,262,72,26,9,88,-25
6900,261,69,30,11,89,-24
6905,261,68,29,10,88,-25
6910,261,71,27,7,89,-24
6915,262,70,28,4,87,-25
6920,261,69,24,-1,87,-24
6925,263,72,24,-4,87,-28
6930,264,69,34,-6,88,-27
6935,261,72,29,-7,89,-32
6940,261,73,27,-8,91,-33
6945,263,72,29,-9,90,-36
6950,260,74,31,-8,92,-37
6955,260,73,29,-9,89,-38
6960,260,76,29,-10,88,-38
6965,260,76,24,-11,86,-38
6970,261,76,29,-9,86,-35
6975,260,77,27,-9,81,-32
6980,261,73,28,-10,78,-26
6985,259,73,26,-11,73,-23
6990,259,77,25,-12,69,-18
6995,257,76,29,-13,64,-11
7000,257,78,25,-16,57,-5
7005,258,72,28,-19,53,4
7010,257,75,28,-23,48,10
7015,256,77,27,-28,42,17
7020,257,73,24,-33,37,23
7025,256,77,26,-40,34,31
7030,256,74,30,-46,31,36
7035,260,74,33,-52,29,42
7040,258,75,32,-59,25,45
7045,258,69,30,-62,24,48
7050,258,71,25,-64,24,47
7055,260,68,25,-64,26,47
7060,260,68,28,-60,28,45
7065,258,67,29,-55,31,41
7070,260,66,28,-49,34,37
7075,259,66,26,-46,36,35
7080,256,67,28,-39,39,30
7085,258,67,26,-33,40,26
7090,261,66,29,-29,40,20
7095,260,69,30,-27,39,16
7100,261,68,25,-21,42,9
7105,258,68,25,-18,43,7
7110,261,69,27,-14,42,1
7115,263,68,27,-12,45,-1
7120,261,69,20,-7,47,-6
7125,262,70,25,-6,51,-4
7130,264,71,25,-6,50,-9
7135,260,73,27,-8,54,-6
7140,260,73,26,-8,55,-5
7145,263,72,26,-11,55,-1
7150,261,69,27,-12,54,-1
7155,263,71,29,-17,53,5
7160,263,71,26,-18,52,5
7165,263,71,26,-22,50,9
7170,262,71,29,-26,50,12
7175,264,70,27,-31,49,17
7180,261,71,26,-33,49,18
7185,262,72,29,-33,47,23
7190,268,68,29,-33,47,22
7195,264,70,27,-31,46,26
7200,264,65,30,-27,47,24
7205,262,66,28,-22,48,25
7210,264,66,28,-16,50,23
7215,262,65,32,-11,50,23
7220,261,65,26,-7,51,20
7225,265,66,26,0,53,19
7230,262,65,24,3,56,14
7235,263,66,28,8,59,14
7240,263,69,26,9,59,11
7245,261,69,27,11,60,12
7250,261,68,29,11,61,7
7255,261,71,25,12,59,9
7260,262,69,24,10,56,5
7265,263,73,27,5,54,8
7270,263,76,25,1,51,6
7275,265,75,26,-7,47,11
7280,265,71,25,-12,46,10
7285,263,71,25,-18,43,16
7290,264,70,28,-26,40,17
7295,264,70,24,-30,38,22
7300,268,75,28,-31,38,20
7305,262,68,22,-32,40,23
7310,264,64,24,-33,41,20
7315,264,65,25,-30,44,20
7320,263,66,27,-26,48,16
7325,260,66,20,-22,54,14
7330,258,66,17,-16,58,6
7335,260,67,25,-12,63,3
7340,261,68,21,-9,69,-6
7345,262,65,21,-8,74,-10
7350,262,67,22,-6,78,-17
7355,259,69,23,-8,80,-20
7360,261,69,24,-6,83,-28
7365,261,68,27,-5,82,-29
7370,263,67,29,-10,85,-32
7375,262,70,27,-13,84,-32
7380,264,67,27,-13,85,-35
7385,263,70,27,-14,85,-33
7390,266,68,29,-14,85,-35
7395,263,71,27,-13,87,-33
7400,262,70,25,-13,89,-35
7405,263,73,23,-12,90,-33
7410,263,67,27,-12,91,-34
7415,261,72,29,-13,91,-31
7420,266,70,28,-11,92,-31
7425,259,70,24,-10,91,-29
7430,259,72,29,-10,89,-29
7435,265,70,28,-10,89,-26
7440,261,71,28,-11,87,-26
7445,260,71,23,-12,85,-23
7450,262,72,24,-16,84,-24
7455,263,70,28,-21,84,-24
7460,263,71,19,-22,84,-26
7465,263,73,25,-23,85,-26
7470,260,71,26,-26,87,-27
7475,261,69,22,-26,89,-28
7480,259,69,27,-23,90,-30
7485,260,68,27,-22,90,-28
7490,260,68,25,-17,89,-29
7495,260,69,30,-14,88,-28
7500,259,73,26,-11,87,-28
7505,260,70,25,-8,84,-25
7510,260,71,29,-6,81,-24
7515,262,72,32,-4,80,-21
7520,261,70,28,-5,78,-21
7525,261,72,31,-5,77,-20
7530,263,71,27,-9,77,-17
7535,259,73,29,-12,76,-16
7540,262,72,28,-15,78,-15
7545,260,72,29,-18,80,-14
7550,260,68,27,-18,82,-14
7555,261,70,26,-16,83,-12
7560,260,70,27,-14,86,-11
7565,259,72,28,-9,86,-12
7570,259,70,30,-6,84,-12
7575,257,73,27,-3,86,-13
7580,258,72,27,-2,84,-13
7585,258,71,29,-1,83,-13
7590,260,72,26,-4,82,-13
7595,256,76,28,-8,83,-14
7600,259,73,25,-14,83,-13
7605,256,76,24,-20,82,-12
7610,261,72,29,-25,82,-12
7615,258,75,28,-30,77,-13
7620,259,71,32,-33,76,-9
7625,259,73,26,-34,74,-9
7630,260,70,32,-35,71,-5
7635,259,72,31,-33,70,-6
7640,259,73,29,-33,68,-3
7645,260,68,28,-30,66,-4
7650,261,68,32,-27,66,-4
7655,259,69,30,-24,64,-6
7660,260,71,30,-19,65,-5
7665,260,69,31,-13,64,-6
7670,260,71,28,-9,64,-7
7675,259,71,31,-1,66,-8
7680,264,71,30,4,65,-5
7685,261,70,27,9,67,-8
7690,261,71,29,13,68,-5
7695,261,73,25,16,67,-5
7700,260,72,27,17,67,-1
7705,261,72,28,16,67,-1
7710,260,72,31,15,65,2
7715,263,74,29,11,62,1
7720,259,74,30,4,60,5
7725,262,72,25,0,55,4
7730,259,74,26,-7,55,7
7735,260,73,30,-15,50,8
7740,258,73,30,-22,49,12
7745,259,72,29,-27,46,11
7750,261,73,28,-32,45,13
7755,262,68,25,-36,45,10
7760,263,69,23,-37,43,12
7765,261,72,26,-34,43,10
7770,261,72,23,-32,42,11
7775,261,67,26,-27,43,10
7780,260,70,27,-23,43,11
7785,260,67,30,-19,42,7
7790,260,69,23,-17,44,8
7795,263,69,26,-14,46,5
7800,261,70,28,-13,48,7
7805,260,70,25,-12,49,5
7810,261,68,29,-10,51,6
7815,261,70,27,-11,52,2
7820,261,73,27,-13,52,4
7825,262,72,31,-15,53,1
7830,263,69,26,-19,53,3
7835,261,68,29,-20,53,1
7840,263,71,28,-20,54,4
7845,262,70,30,-21,53,1
7850,261,69,27,-20,54,4
7855,264,67,26,-17,53,3
7860,263,67,26,-16,53,5
7865,262,68,29,-13,54,2
7870,263,68,32,-12,55,6
7875,261,70,26,-10,56,2
7880,261,69,27,-8,57,2
7885,263,70,27,-6,57,-1
7890,263,70,30,-7,60,1
7895,261,71,24,-9,60,-4
7900,261,72,33,-11,61,-3
7905,262,75,28,-13,63,-6
7910,263,68,28,-16,65,-2
7915,262,70,24,-19,65,-5
7920,262,70,27,-20,66,-4
7925,260,70,28,-21,66,-6
7930,261,67,28,-21,66,-6
7935,263,69,24,-21,68,-9
7940,261,69,22,-19,68,-8
7945,263,68,26,-17,70,-12
7950,263,70,28,-13,70,-11
7955,262,71,29,-11,71,-13
7960,262,70,25,-10,71,-14
7965,262,69,26,-10,73,-15
7970,260,70,29,-9,75,-16
7975,259,69,27,-9,76,-16
7980,260,68,25,-9,75,-14
7985,263,69,29,-9,75,-15
7990,263,73,26,-8,75,-14
7995,261,71,27,-10,74,-15
8000,262,71,26,-10,73,-14
8005,262,71,27,-12,72,-15
8010,260,70,26,-13,74,-15
8015,260,70,24,-15,73,-15
8020,261,68,27,-15,75,-15
8025,262,68,24,-15,76,-16
8030,261,71,29,-14,78,-16
8035,259,68,24,-14,79,-17
8040,260,72,29,-15,79,-16
8045,261,72,23,-15,78,-17
8050,260,69,28,-14,79,-16
8055,263,70,32,-16,77,-17
8060,261,71,27,-17,77,-14
8065,262,74,26,-17,75,-15
8070,260,71,28,-22,74,-13
8075,260,72,29,-25,72,-13
8080,260,71,31,-28,71,-13
8085,258,70,30,-30,69,-11
8090,261,70,27,-31,70,-11
8095,263,70,27,-31,68,-11
8100,262,68,27,-28,67,-11
8105,259,69,30,-28,69,-11
8110,261,68,26,-23,70,-13
8115,261,69,29,-15,72,-15
8120,261,70,27,-9,74,-18
8125,260,68,25,-2,76,-17
8130,260,73,29,4,80,-22
8135,261,71,29,11,84,-24
8140,265,66,23,14,89,-27
8145,269,68,26,17,93,-28
8150,267,70,20,21,96,-33
8155,268,69,22,27,100,-35
8160,268,69,25,36,103,-37
8165,270,67,24,46,106,-38
8170,268,68,23,57,111,-38
8175,270,70,26,67,113,-32
8180,269,72,25,73,115,-29
8185,270,72,28,75,118,-23
8190,270,72,28,73,117,-20
8195,272,70,27,73,115,-10
8200,272,71,27,76,111,-2
8205,271,69,27,82,108,11
8210,274,67,30,89,107,21
8215,275,64,34,103,107,31
8220,274,64,27,117,112,35
8225,275,66,35,128,117,38
8230,275,66,35,139,126,41
8235,274,68,37,147,130,44
8240,277,71,37,152,134,41
8245,275,70,36,153,135,44
8250,276,71,35,156,131,43
8255,275,71,35,156,123,50
8260,273,73,38,156,115,53
8265,273,71,29,157,113,62
8270,273,70,32,164,113,68
8275,270,67,34,176,123,77
8280,269,64,32,191,140,77
8285,267,65,36,209,159,79
8290,264,65,43,233,181,76
8295,263,62,41,254,192,77
8300,259,64,42,274,196,74
8305,259,63,46,292,192,77
8310,257,63,43,309,179,75
8315,256,63,47,324,160,79
8320,257,64,41,334,143,74
8325,255,68,38,340,125,72
8330,257,66,37,340,112,64
8335,258,69,37,333,104,59
8340,258,66,35,322,99,47
8345,259,69,30,308,99,35
8350,260,66,28,291,108,16
8355,258,67,30,278,121,2
8360,258,66,26,269,134,-18
8365,258,66,25,261,149,-32
8370,258,65,26,255,166,-47
8375,259,64,25,249,175,-57
8380,260,68,22,244,186,-69
8385,262,65,26,233,198,-72
8390,262,66,24,219,211,-81
8395,264,67,22,202,224,-86
8400,265,70,18,183,241,-94
8405,269,65,21,162,257,-97
8410,272,66,25,145,272,-105
8415,274,65,23,129,286,-106
8420,276,63,23,117,297,-115
8425,280,58,23,110,306,-121
8430,281,59,24,110,318,-132
8435,284,54,26,111,328,-140
8440,285,60,29,115,342,-153
8445,283,62,26,116,356,-162
8450,286,62,27,119,372,-176
8455,284,63,32,121,387,-190
8460,285,63,31,126,398,-205
8465,283,63,33,131,406,-218
8470,281,63,35,137,414,-232
8475,280,64,33,141,416,-245
8480,282,65,29,144,415,-264
8485,278,66,32,143,412,-280
8490,274,68,30,137,408,-297
8495,274,68,31,126,403,-313
8500,271,70,32,109,397,-333
8505,269,69,31,86,392,-352
8510,262,72,33,62,387,-379
8515,262,69,30,32,380,-395
8520,259,69,32,12,370,-407
8525,255,73,32,-3,362,-416
8530,255,71,42,-10,358,-425
8535,253,69,37,-9,354,-427
8540,250,68,39,-2,349,-430
8545,252,70,41,12,346,-428
8550,248,70,42,32,341,-432
8555,249,67,41,51,336,-432
8560,246,69,50,73,331,-435
8565,247,73,51,97,326,-433
8570,242,75,51,128,320,-432
8575,246,76,48,156,316,-433
8580,246,79,48,180,312,-434
8585,246,78,44,205,312,-434
8590,247,86,40,224,314,-440
8595,245,89,36,235,318,-443
8600,243,96,38,244,324,-450
8605,245,102,40,247,331,-454
8610,243,106,40,244,335,-460
8615,242,110,45,238,339,-459
8620,237,117,44,228,338,-454
8625,243,119,44,214,327,-448
8630,246,124,43,194,311,-439
8635,247,127,42,170,290,-428
8640,250,130,40,139,272,-415
8645,256,128,39,108,254,-403
8650,257,130,36,74,243,-389
8655,267,130,32,42,244,-374
8660,267,128,29,11,249,-360
8665,267,132,32,-17,258,-348
8670,273,128,30,-41,268,-340
8675,271,129,29,-63,279,-332
8680,272,127,32,-89,281,-320
8685,268,124,27,-115,272,-310
8690,268,125,23,-140,257,-295
8695,270,120,20,-166,246,-280
8700,264,122,25,-194,240,-270
8705,259,121,27,-225,225,-265
8710,253,121,26,-252,196,-255
8715,246,122,33,-274,155,-238
8720,239,123,37,-286,110,-212
8725,236,123,36,-282,69,-179
8730,230,128,39,-264,31,-138
8735,223,132,40,-235,-3,-110
8740,218,134,47,-211,-14,-80
8745,211,139,48,-190,-14,-57
8750,200,143,48,-174,-8,-30
8755,200,146,52,-158,3,-10
8760,191,147,47,-147,20,10
8765,188,147,48,-140,37,22
8770,186,149,48,-139,59,36
8775,185,154,44,-141,85,50
8780,184,158,44,-144,107,67
8785,184,161,41,-149,126,83
8790,187,165,40,-162,147,100
8795,193,163,47,-183,170,113
8800,197,164,39,-212,203,136
8805,207,157,44,-243,245,157
8810,214,151,45,-270,289,178
8815,225,141,48,-296,327,190
8820,228,134,54,-317,355,198
8825,234,133,56,-340,377,199
8830,234,129,59,-363,395,204
8835,233,128,60,-390,404,202
8840,237,121,63,-412,403,206
8845,241,116,65,-428,389,209
8850,241,107,64,-437,374,222
8855,244,106,65,-434,359,235
8860,247,100,64,-422,347,258
8865,246,99,66,-401,340,277
8870,244,96,67,-377,336,303
8875,248,98,66,-348,331,331
8880,248,94,64,-315,327,368
8885,246,94,68,-278,326,399
8890,246,96,73,-239,327,429
8895,245,98,69,-195,326,446
8900,242,97,71,-143,322,461
8905,242,97,76,-76,324,469
8910,239,97,75,-25,332,482
8915,238,95,75,25,338,489
8920,240,95,77,74,346,506
8925,240,99,75,118,355,520
8930,239,101,70,155,362,543
8935,240,106,73,180,368,563
8940,243,105,71,192,372,589
8945,241,102,65,196,370,613
8950,243,100,66,196,367,642
8955,242,101,64,192,364,662
8960,244,99,62,177,366,677
8965,244,99,58,155,371,682
8970,245,95,56,127,377,688
8975,246,90,62,98,384,692
8980,248,84,62,74,395,696
8985,249,75,69,61,404,691
8990,252,74,71,61,422,689
8995,257,68,72,68,446,679
9000,259,72,75,81,465,668
9005,263,67,76,99,481,656
9010,263,68,77,114,500,645
9015,268,67,73,125,511,632
9020,271,65,71,128,521,621
9025,272,65,67,128,530,610
9030,271,64,66,123,543,600
9035,273,65,66,118,555,589
9040,266,64,65,119,568,581
9045,265,65,66,130,581,573
9050,261,61,66,144,591,568
9055,261,59,63,167,597,553
9060,258,59,64,194,599,539
9065,259,61,66,218,600,521
9070,258,66,68,235,603,507
9075,254,69,66,235,607,489
9080,252,71,67,223,612,471
9085,252,70,70,202,617,458
9090,247,75,75,175,620,452
9095,246,74,75,147,620,447
9100,242,79,90,117,617,450
9105,243,72,79,88,609,451
9110,244,69,82,59,597,460
9115,243,70,80,26,585,460
9120,244,70,80,-10,575,455
9125,240,71,85,-53,569,450
9130,239,69,87,-89,569,447
9135,237,66,83,-121,569,447
9140,235,69,89,-148,570,453
9145,231,64,86,-168,567,461
9150,230,65,86,-190,563,460
9155,225,61,90,-213,557,462
9160,225,59,90,-229,546,473
9165,225,59,86,-240,532,487
9170,225,55,93,-245,517,501
9175,229,47,89,-238,503,517
9180,225,48,97,-227,493,512
9185,226,48,99,-217,485,503
9190,228,56,95,-210,474,494
9195,230,61,93,-206,465,488
9200,235,61,93,-208,454,486
9205,241,64,89,-212,453,483
9210,239,62,94,-224,456,478
9215,239,64,95,-246,465,473
9220,240,63,96,-273,482,470
9225,245,57,93,-302,500,471
9230,245,53,96,-338,517,454
9235,246,50,100,-373,534,439
9240,245,50,99,-416,542,427
9245,246,51,102,-445,543,422
9250,246,45,98,-464,538,417
9255,243,45,100,-480,530,420
9260,243,40,99,-499,519,424
9265,236,36,100,-517,509,426
9270,231,30,105,-528,502,421
9275,231,30,108,-530,495,414
9280,227,31,114,-526,490,403
9285,224,33,118,-514,488,392
9290,223,31,123,-495,486,371
9295,227,32,124,-466,482,359
9300,230,30,120,-440,481,347
9305,229,29,116,-420,481,341
9310,231,28,113,-409,480,338
9315,225,28,113,-405,481,341
9320,225,31,117,-409,481,345
9325,225,32,114,-422,484,357
9330,223,33,118,-441,486,364
9335,231,32,113,-467,489,368
9340,230,28,114,-489,490,365
9345,232,23,119,-505,494,361
9350,231,21,117,-515,503,348
9355,229,18,125,-515,510,336
9360,228,21,126,-509,517,318
9365,230,21,123,-491,522,310
9370,233,16,125,-475,528,300
9375,233,19,122,-458,535,297
9380,234,16,120,-443,540,289
9385,235,12,119,-427,543,287
9390,232,16,115,-415,541,283
9395,235,17,109,-412,535,285
9400,230,21,110,-415,526,280
9405,229,21,109,-427,517,284
9410,231,18,108,-439,508,288
9415,230,18,110,-455,508,297
9420,232,16,111,-473,517,301
9425,235,11,115,-492,531,305
9430,233,9,121,-502,548,300
9435,232,6,119,-505,564,299
9440,231,1,122,-505,573,295
9445,233,2,122,-498,580,300
9450,228,3,122,-486,581,299
9455,229,3,123,-475,579,305
9460,225,8,120,-462,582,306
9465,230,2,116,-445,588,310
9470,229,7,120,-436,599,308
9475,232,0,116,-429,612,309
9480,232,0,115,-429,626,307
9485,235,0,116,-437,641,311
9490,232,-2,112,-449,657,310
9495,235,-4,117,-462,674,321
9500,235,-9,117,-471,688,333
9505,230,-9,118,-475,698,350
9510,227,-11,120,-478,706,364
9515,223,-12,121,-475,709,391
9520,222,-13,122,-461,716,412
9525,219,-11,122,-441,726,431
9530,220,-16,126,-419,739,446
9535,220,-18,128,-396,753,461
9540,218,-17,126,-374,764,469
9545,217,-16,130,-355,776,475
9550,212,-19,135,-337,784,478
9555,211,-20,133,-319,787,489
9560,210,-20,135,-300,787,498
9565,207,-22,134,-285,783,510
9570,205,-19,140,-275,781,515
9575,205,-20,140,-266,779,518
9580,203,-19,141,-265,781,512
9585,199,-20,139,-271,782,504
9590,199,-19,138,-285,780,489
9595,194,-22,140,-303,777,474
9600,192,-19,138,-322,770,457
9605,192,-23,141,-335,763,442
9610,192,-22,146,-340,757,427
9615,192,-25,151,-331,757,416
9620,190,-27,156,-311,753,401
9625,192,-23,163,-283,747,393
9630,193,-27,158,-250,735,385
9635,191,-24,156,-233,719,377
9640,192,-27,152,-231,706,367
9645,191,-24,147,-249,698,357
9650,186,-26,143,-278,694,348
9655,181,-27,144,-320,693,342
9660,175,-33,149,-353,695,334
9665,175,-37,153,-369,697,325
9670,166,-33,160,-363,693,309
9675,167,-32,163,-339,687,289
9680,166,-28,166,-304,673,257
9685,164,-29,164,-263,655,238
9690,167,-30,161,-240,638,229
9695,170,-27,163,-236,620,227
9700,168,-26,159,-249,602,226
9705,169,-27,159,-274,586,229
9710,165,-25,160,-304,570,233
9715,166,-27,163,-335,554,240
9720,163,-30,164,-362,538,250
9725,159,-31,165,-382,524,260
9730,155,-36,171,-389,510,271
9735,156,-40,174,-388,498,275
9740,156,-41,175,-376,487,275
9745,153,-42,180,-357,479,269
9750,158,-42,179,-338,471,267
9755,159,-50,183,-319,461,270
9760,161,-48,185,-305,451,280
9765,161,-56,184,-293,445,291
9770,165,-55,185,-291,443,301
9775,168,-55,183,-296,446,306
9780,168,-53,181,-312,455,312
9785,169,-52,183,-331,466,319
9790,176,-58,173,-363,479,329
9795,176,-63,173,-392,488,338
9800,175,-65,169,-417,494,355
9805,172,-74,169,-432,498,365
9810,168,-75,164,-435,499,377
9815,160,-77,171,-426,498,386
9820,158,-86,169,-405,495,393
9825,151,-81,168,-377,488,399
9830,146,-80,176,-342,483,405
9835,141,-77,178,-301,474,407
9840,137,-72,178,-259,460,409
9845,133,-70,183,-203,442,409
9850,131,-64,185,-159,427,414
9855,131,-61,184,-118,415,415
9860,130,-59,179,-83,404,420
9865,129,-52,178,-57,394,424
9870,133,-56,174,-42,388,435
9875,138,-55,176,-41,388,441
9880,136,-55,175,-49,392,454
9885,137,-59,180,-62,396,469
9890,140,-64,184,-71,399,495
9895,139,-69,185,-78,399,528
9900,138,-73,188,-80,400,562
9905,139,-78,188,-79,396,591
9910,138,-83,188,-74,392,621
9915,138,-88,192,-60,385,639
9920,136,-91,191,-39,379,663
9925,131,-94,192,-14,367,681
9930,130,-97,190,21,350,705
9935,130,-98,189,64,333,726
9940,133,-103,188,110,320,752
9945,135,-102,182,151,309,773
9950,136,-101,182,190,309,801
9955,137,-106,185,220,316,809
9960,141,-103,182,227,320,821
9965,140,-94,183,215,324,820
9970,139,-95,180,193,329,826
9975,140,-94,174,161,330,824
9980,136,-85,176,124,324,823
9985,138,-87,178,91,314,815
9990,136,-84,179,63,299,817
9995,136,-85,179,47,282,819
10000,132,-86,181,39,266,827
10005,131,-87,184,38,251,833
10010,128,-92,181,37,236,846
10015,128,-93,182,25,226,846
10020,123,-97,187,6,219,845
10025,124,-101,185,-15,218,834
10030,115,-94,185,-36,216,826
10035,114,-95,190,-52,214,814
10040,111,-98,186,-58,206,804
10045,108,-98,192,-56,198,792
10050,105,-96,191,-49,188,784
10055,109,-94,190,-37,179,771
10060,109,-94,184,-25,171,757
10065,112,-93,185,-12,167,742
10070,109,-94,185,-1,164,732
10075,114,-94,180,7,166,724
10080,117,-92,178,11,171,722
10085,122,-92,178,6,180,710
10090,125,-90,175,-5,190,698
10095,129,-89,176,-20,201,682
10100,129,-86,178,-35,212,669
10105,136,-87,175,-52,222,655
10110,138,-89,184,-67,232,643
10115,138,-96,177,-83,241,632
10120,143,-101,177,-101,252,625
10125,145,-104,174,-119,259,615
10130,145,-104,175,-139,267,603
10135,147,-108,174,-155,271,586
10140,143,-108,173,-171,275,568
10145,137,-111,176,-182,276,544
10150,133,-111,179,-189,273,523
10155,129,-112,180,-194,266,500
10160,128,-112,175,-196,256,482
10165,126,-114,181,-193,245,461
10170,122,-112,184,-182,236,439
10175,118,-113,184,-161,228,417
10180,118,-119,183,-140,226,396
10185,115,-116,184,-119,228,375
10190,111,-114,186,-105,233,354
10195,108,-111,191,-100,241,335
10200,107,-110,189,-102,249,321
10205,107,-112,191,-105,261,312
10210,102,-108,192,-100,271,312
10215,100,-112,194,-91,280,316
10220,101,-114,192,-74,289,321
10225,100,-115,191,-53,298,332
10230,97,-115,188,-33,316,336
10235,97,-113,189,-21,332,343
10240,99,-112,190,-19,347,346
10245,100,-106,190,-21,363,351
10250,100,-102,189,-28,372,352
10255,104,-105,193,-45,379,351
10260,104,-101,190,-63,381,350
10265,110,-105,186,-86,379,347
10270,111,-108,188,-111,377,342
10275,114,-110,186,-139,375,332
10280,117,-108,188,-163,372,317
10285,115,-112,186,-188,370,301
10290,117,-114,194,-205,368,282
10295,118,-117,194,-213,363,262
10300,118,-116,196,-208,358,241
10305,115,-121,197,-188,350,220
10310,116,-119,200,-156,342,200
10315,115,-123,197,-119,333,186
10320,117,-124,199,-81,325,170
10325,114,-124,195,-45,315,157
10330,113,-123,191,-14,310,145
10335,113,-125,191,11,308,133
10340,112,-127,192,30,309,124
10345,108,-124,186,37,312,119
10350,104,-123,185,36,315,116
10355,103,-123,181,26,317,118
10360,98,-119,181,11,317,119
10365,100,-122,178,-4,316,121
10370,97,-122,178,-19,313,122
10375,94,-119,179,-30,312,122
10380,92,-124,181,-37,311,117
10385,94,-124,184,-44,310,115
10390,93,-124,181,-48,308,103
10395,93,-123,178,-52,312,99
10400,94,-122,181,-56,320,88
10405,92,-121,181,-61,329,83
10410,96,-118,181,-64,342,75
10415,94,-121,186,-68,358,71
10420,95,-117,184,-68,376,67
10425,99,-119,188,-64,397,65
10430,98,-119,184,-60,416,60
10435,98,-118,186,-55,435,59
10440,99,-120,191,-49,450,54
10445,97,-120,191,-42,466,53
10450,98,-120,187,-30,481,46
10455,96,-118,188,-17,491,45
10460,99,-122,191,-3,502,39
10465,100,-122,192,11,511,40
10470,96,-122,192,26,520,34
10475,97,-121,192,42,528,33
10480,93,-120,188,57,535,27
10485,95,-120,193,67,541,27
10490,96,-122,191,75,546,21
10495,94,-119,188,81,549,21
10500,91,-116,187,83,550,12
10505,90,-116,189,84,552,12
10510,88,-116,191,84,551,7
10515,88,-115,193,84,549,5
10520,89,-114,191,79,549,0
10525,85,-111,188,80,549,-1
10530,87,-113,187,80,548,-5
10535,84,-109,188,83,548,0
10540,80,-107,191,90,549,1
10545,82,-111,191,102,551,9
10550,79,-110,192,118,554,14
10555,78,-110,192,142,551,27
10560,79,-114,194,166,546,38
10565,77,-113,193,195,539,51
10570,80,-111,182,214,527,60
10575,71,-117,189,228,510,71
10580,72,-116,190,239,491,79
10585,72,-112,181,245,473,90
10590,82,-117,191,248,454,93
10595,78,-123,189,249,431,101
10600,80,-107,195,250,408,103
10605,75,-114,189,248,389,107
10610,80,-112,184,245,373,103
10615,84,-105,201,244,351,106
10620,80,-116,183,238,337,101
10625,71,-110,203,236,325,102
10630,79,-118,196,235,313,101
10635,90,-111,198,230,304,103
10640,82,-101,197,224,295,104
10645,76,-114,207,221,286,109
10650,80,-107,201,219,278,112
10655,79,-107,198,216,272,119
10660,78,-106,202,208,266,123
10665,77,-102,199,198,260,133
10670,74,-102,200,183,254,138
10675,72,-100,194,160,250,144
10680,67,-100,197,141,246,149
10685,67,-103,199,123,246,157
10690,65,-104,202,109,245,160
10695,64,-102,197,95,247,164
10700,63,-103,203,82,250,162
10705,59,-102,200,74,254,160
10710,60,-103,205,67,258,155
10715,59,-98,202,64,265,154
10720,58,-102,206,66,269,147
10725,57,-97,213,75,274,145
10730,58,-97,212,92,279,141
10735,60,-98,214,111,282,137
10740,58,-97,219,137,283,132
10745,60,-96,218,166,287,127
10750,60,-97,217,191,292,122
10755,61,-95,208,214,297,118
10760,56,-91,209,230,302,112
10765,61,-92,204,238,305,107
10770,62,-91,207,238,308,103
10775,60,-87,204,231,309,100
10780,59,-92,197,219,311,96
10785,58,-91,198,196,311,90
10790,62,-91,198,174,312,85
10795,57,-90,202,150,310,84
10800,59,-90,201,129,307,83
10805,56,-91,200,112,306,84
10810,53,-91,201,96,302,85
10815,51,-94,201,84,300,88
10820,50,-96,201,76,297,92
10825,50,-96,202,71,291,95
10830,49,-98,202,66,285,98
10835,48,-98,207,63,278,99
10840,46,-99,206,60,271,101
10845,44,-103,201,57,266,99
10850,42,-99,207,52,259,97
10855,41,-98,205,48,254,90
10860,40,-102,204,46,253,87
10865,39,-104,210,44,252,80
10870,37,-102,210,44,252,76
10875,39,-102,206,45,256,69
10880,39,-102,210,47,260,62
10885,42,-97,204,50,264,57
10890,39,-98,213,55,269,52
10895,34,-91,221,66,274,47
10900,41,-98,208,78,278,46
10905,39,-96,209,91,282,43
10910,43,-97,208,104,284,46
10915,42,-95,212,118,285,46
10920,43,-93,213,133,284,50
10925,41,-93,213,143,279,50
10930,42,-94,217,153,274,54
10935,42,-94,214,161,268,57
10940,41,-92,209,165,260,63
10945,39,-91,213,166,252,64
10950,42,-86,211,165,247,68
10955,43,-85,215,164,241,67
10960,43,-90,211,164,235,70
10965,39,-89,218,162,227,68
10970,38,-88,214,160,221,72
10975,35,-86,214,159,214,72
10980,34,-85,212,157,207,77
10985,32,-83,219,153,201,78
10990,31,-84,216,150,194,83
10995,30,-84,217,144,189,85
11000,29,-83,216,136,187,90
11005,30,-84,218,124,187,88
11010,29,-84,220,110,186,91
11015,29,-82,221,97,186,90
11020,27,-81,217,81,186,93
11025,28,-83,216,67,186,92
11030,25,-80,210,51,189,96
11035,28,-82,215,32,191,95
11040,30,-82,208,15,196,96
11045,25,-84,207,-5,201,91
11050,24,-81,212,-21,204,90
11055,26,-83,211,-39,205,85
11060,25,-82,211,-58,206,85
11065,25,-85,215,-70,203,83
11070,25,-83,213,-83,198,85
11075,27,-90,209,-91,193,84
11080,28,-89,213,-99,188,87
11085,29,-85,213,-102,184,84
11090,29,-88,213,-101,180,87
11095,31,-89,210,-96,178,86
11100,32,-92,213,-88,177,90
11105,32,-88,212,-78,178,88
11110,33,-90,211,-68,178,93
11115,35,-92,210,-55,176,95
11120,32,-88,209,-44,170,103
11125,37,-90,210,-37,164,107
11130,40,-90,213,-29,158,118
11135,38,-89,212,-21,151,128
11140,36,-90,213,-11,143,141
11145,38,-91,214,-1,133,149
11150,36,-88,210,11,123,163
11155,36,-93,212,21,114,170
11160,36,-89,213,30,101,180
11165,32,-95,216,37,91,184
11170,35,-96,210,42,79,190
11175,32,-98,209,43,69,190
11180,35,-96,205,40,56,193
11185,36,-96,205,29,42,190
11190,36,-99,202,14,27,190
11195,32,-98,203,-1,12,182
11200,33,-96,207,-14,-1,177
11205,36,-99,206,-23,-14,168
11210,34,-97,210,-24,-23,162
11215,34,-99,207,-17,-32,154
11220,34,-104,212,-1,-35,146
11225,34,-101,210,24,-41,141
11230,33,-98,212,49,-42,139
11235,32,-98,215,72,-42,135
11240,34,-101,215,97,-38,132
11245,37,-98,213,120,-29,129
11250,39,-98,215,139,-19,127
11255,39,-96,213,155,-9,122
11260,44,-94,213,166,1,119
11265,42,-92,213,172,8,111
11270,43,-92,210,172,15,104
11275,45,-90,209,167,19,95
11280,42,-84,206,156,20,86
11285,45,-84,210,147,20,77
11290,46,-83,206,138,20,67
11295,44,-82,209,128,19,55
11300,45,-82,211,120,17,44
11305,45,-82,213,113,15,33
11310,46,-82,211,109,14,22
11315,45,-80,209,104,14,11
11320,44,-83,213,103,17,-2
11325,47,-83,210,103,21,-13
11330,49,-86,209,105,23,-26
11335,45,-84,212,108,33,-36
11340,41,-83,211,109,41,-48
11345,43,-83,210,110,51,-59
11350,43,-84,212,111,60,-74
11355,41,-81,208,110,70,-90
11360,41,-80,205,110,80,-107
11365,42,-79,201,108,87,-123
11370,42,-79,205,103,91,-140
11375,39,-77,199,97,98,-153
11380,40,-76,202,87,100,-167
11385,37,-76,205,75,105,-180
11390,34,-71,201,61,110,-191
11395,34,-72,205,48,118,-201
11400,33,-69,208,38,127,-210
11405,34,-67,212,30,135,-215
11410,28,-66,216,22,140,-220
11415,24,-68,221,14,141,-219
11420,19,-68,226,7,138,-216
11425,15,-69,237,0,127,-208
11430,8,-69,232,-4,114,-197
11435,4,-70,237,-8,95,-182
11440,2,-71,235,-15,73,-167
11445,0,-70,236,-18,50,-151
11450,1,-73,243,-16,32,-141
11455,0,-75,240,-12,21,-129
11460,-5,-76,235,-8,14,-118
11465,-8,-82,236,-7,11,-100
11470,-8,-81,233,-9,10,-83
11475,-8,-83,228,-13,10,-60
11480,-10,-84,222,-20,7,-39
11485,-9,-91,216,-27,5,-15
11490,-6,-94,209,-36,2,6
11495,0,-97,203,-47,-1,32
11500,5,-96,199,-65,-9,52
11505,10,-98,197,-80,-16,74
11510,17,-98,192,-97,-26,90
11515,28,-100,192,-117,-35,113
11520,32,-99,191,-135,-46,130
11525,36,-104,193,-149,-56,152
11530,40,-104,190,-162,-64,170
11535,43,-105,188,-173,-73,190
11540,47,-104,189,-186,-80,201
11545,46,-103,189,-204,-88,215
11550,47,-101,185,-224,-97,224
11555,49,-105,192,-249,-106,234
11560,49,-99,193,-263,-113,235
11565,50,-102,198,-270,-117,236
11570,50,-101,201,-264,-118,228
11575,53,-100,203,-244,-120,219
11580,53,-102,211,-209,-121,202
11585,55,-103,211,-168,-121,187
11590,51,-99,211,-118,-120,166
11595,51,-97,212,-69,-115,148
11600,56,-97,208,-24,-112,125
11605,55,-93,208,15,-109,103
11610,52,-92,209,50,-102,80
11615,53,-91,210,73,-95,60
11620,55,-88,205,92,-91,38
11625,51,-83,207,109,-85,21
11630,56,-87,212,127,-75,0
11635,52,-85,213,141,-68,-11
11640,53,-84,215,156,-61,-27
11645,51,-78,216,172,-56,-34
11650,54,-82,220,185,-55,-43
11655,53,-79,222,198,-54,-47
11660,51,-82,227,212,-53,-53
11665,49,-83,230,233,-50,-51
11670,52,-83,232,249,-49,-50
11675,50,-82,230,266,-48,-43
11680,51,-84,234,282,-50,-35
11685,49,-81,234,293,-54,-25
11690,49,-82,231,306,-62,-17
11695,43,-76,234,315,-76,0
11700,41,-76,236,322,-91,13
11705,40,-76,236,329,-111,24
11710,39,-77,243,334,-134,26
11715,37,-75,240,339,-164,25
11720,43,-74,230,339,-181,17
11725,39,-74,225,326,-187,8
11730,38,-70,217,296,-188,-5
11735,37,-71,214,253,-191,-14
11740,37,-73,208,200,-190,-24
11745,40,-71,200,136,-182,-35
11750,41,-75,193,63,-157,-56
11755,40,-80,186,-21,-124,-76
11760,44,-81,180,-113,-84,-99
11765,46,-82,178,-207,-39,-117
11770,46,-85,175,-301,14,-135
11775,46,-81,185,-394,49,-144
11780,46,-84,192,-444,69,-148
11785,48,-84,198,-458,75,-149
11790,49,-86,202,-446,71,-152
11795,52,-85,205,-414,59,-159
11800,56,-88,202,-378,47,-169
11805,56,-87,200,-344,37,-180
11810,59,-86,198,-320,24,-194
11815,57,-84,198,-305,12,-206
11820,60,-82,200,-295,0,-218
11825,57,-83,204,-283,-19,-226
11830,57,-82,215,-256,-40,-225
11835,59,-82,222,-216,-67,-219
11840,60,-80,228,-160,-95,-209
11845,57,-80,232,-97,-118,-200
11850,59,-82,235,-31,-137,-191
11855,60,-80,236,29,-154,-186
11860,58,-80,232,77,-160,-183
11865,57,-79,230,106,-161,-184
11870,57,-78,222,118,-152,-185
11875,56,-77,223,112,-141,-186
11880,58,-81,218,88,-126,-183
11885,52,-79,214,43,-112,-180
11890,53,-79,211,-1,-97,-175
11895,50,-79,213,-45,-83,-171
11900,43,-81,214,-89,-71,-164
11905,43,-82,208,-131,-61,-156
11910,44,-81,207,-167,-56,-147
11915,45,-86,210,-195,-56,-137
11920,47,-86,213,-214,-58,-125
11925,48,-85,209,-223,-61,-116
11930,46,-83,207,-223,-64,-105
11935,51,-83,209,-218,-68,-101
11940,51,-84,205,-209,-67,-93
11945,54,-84,205,-201,-67,-89
11950,54,-82,206,-199,-67,-83
11955,57,-82,207,-198,-70,-83
11960,58,-83,201,-201,-70,-82
11965,63,-82,201,-205,-70,-83
11970,63,-85,201,-212,-69,-84
11975,67,-84,200,-219,-66,-90
11980,71,-90,201,-230,-59,-93
11985,67,-87,201,-240,-52,-99
11990,72,-88,196,-251,-43,-105
11995,73,-93,200,-264,-39,-116
