timestamp,acc_x,acc_y,acc_z,gyro_x,gyro_y,gyro_z
0,-2,-232,-96,-547,288,-147
5,-6,-233,-94,-563,292,-151
10,-10,-232,-99,-581,299,-154
15,-11,-233,-96,-599,312,-156
20,-11,-229,-98,-617,328,-155
25,-14,-238,-100,-633,349,-148
30,-16,-241,-97,-643,368,-145
35,-13,-236,-97,-648,387,-139
40,-10,-240,-95,-652,407,-132
45,-9,-242,-97,-648,426,-122
50,-4,-245,-104,-642,444,-114
55,-6,-245,-99,-629,460,-107
60,-2,-247,-103,-612,477,-104
65,0,-249,-104,-593,487,-99
70,-1,-246,-103,-572,496,-98
75,-2,-244,-100,-548,505,-98
80,-5,-247,-97,-524,505,-99
85,-10,-242,-102,-497,500,-98
90,-11,-240,-95,-473,494,-101
95,-15,-238,-94,-450,483,-104
100,-15,-240,-94,-424,464,-109
105,-18,-232,-91,-391,443,-116
110,-23,-227,-91,-352,419,-120
115,-25,-226,-90,-315,398,-123
120,-21,-218,-94,-282,380,-130
125,-29,-215,-95,-258,363,-134
130,-31,-207,-117,-232,343,-128
135,-32,-200,-118,-205,348,-126
140,-26,-195,-103,-184,356,-121
145,-40,-183,-102,-167,358,-129
150,-28,-186,-113,-156,371,-116
155,-35,-191,-139,-157,357,-105
160,-39,-185,-151,-170,376,-97
165,-32,-183,-111,-197,403,-95
170,-26,-186,-111,-237,415,-82
175,-42,-187,-146,-291,373,-60
180,-45,-194,-165,-345,366,-41
185,-41,-200,-154,-394,385,-30
190,-28,-204,-109,-432,376,-21
195,-38,-213,-129,-456,327,-16
200,-49,-218,-145,-459,288,-18
205,-47,-227,-141,-439,284,-21
210,-43,-234,-129,-408,269,-14
215,-36,-242,-115,-360,243,-12
220,-42,-246,-124,-299,207,-17
225,-44,-246,-134,-225,179,-24
230,-39,-244,-138,-145,169,-31
235,-41,-235,-135,-69,153,-36
240,-19,-245,-120,2,127,-44
245,-49,-237,-139,69,92,-54
250,-58,-234,-160,116,60,-41
255,-48,-233,-139,152,62,-31
260,-38,-224,-104,180,47,-16
265,-57,-215,-118,203,0,-17
270,-52,-216,-119,218,-24,15
275,-51,-212,-115,222,-52,35
280,-51,-212,-103,221,-77,47
285,-50,-215,-90,219,-114,54
290,-54,-213,-106,220,-156,57
295,-51,-218,-105,231,-188,58
300,-50,-216,-103,245,-209,59
305,-40,-220,-93,261,-229,58
310,-55,-219,-98,280,-254,43
315,-49,-219,-97,295,-264,48
320,-46,-220,-93,309,-279,50
325,-46,-219,-97,328,-291,52
330,-41,-223,-105,348,-299,55
335,-43,-223,-108,369,-300,62
340,-34,-225,-103,390,-302,66
345,-32,-226,-101,407,-303,70
350,-34,-229,-112,419,-301,74
355,-27,-234,-118,433,-292,76
360,-28,-238,-117,447,-277,77
365,-28,-238,-111,464,-266,73
370,-25,-237,-110,486,-259,69
375,-29,-242,-119,513,-252,65
380,-27,-243,-119,542,-242,60
385,-28,-242,-111,573,-232,54
390,-30,-242,-110,602,-226,49
395,-32,-235,-114,628,-222,42
400,-33,-235,-109,651,-218,36
405,-34,-231,-114,667,-209,33
410,-34,-226,-107,677,-207,31
415,-36,-223,-105,679,-208,31
420,-37,-220,-108,675,-206,31
425,-39,-221,-106,663,-200,34
430,-40,-217,-98,643,-195,34
435,-34,-217,-102,620,-192,34
440,-34,-223,-100,598,-190,35
445,-34,-225,-104,576,-185,38
450,-35,-226,-97,561,-177,42
455,-32,-224,-98,551,-173,47
460,-33,-229,-99,548,-169,51
465,-34,-231,-102,550,-162,59
470,-30,-232,-100,556,-153,66
475,-27,-233,-98,564,-141,73
480,-25,-230,-94,569,-133,78
485,-30,-227,-96,570,-126,82
490,-26,-225,-94,566,-117,83
495,-26,-225,-93,558,-108,85
500,-24,-228,-89,548,-102,86
505,-24,-229,-87,533,-98,88
510,-21,-222,-96,517,-95,84
515,-23,-235,-88,501,-92,86
520,-18,-233,-83,486,-87,85
525,-23,-234,-84,472,-82,82
530,-15,-239,-82,462,-80,76
535,-24,-235,-82,454,-75,66
540,-27,-239,-78,453,-71,57
545,-26,-243,-77,456,-69,45
550,-29,-234,-77,458,-70,30
555,-30,-239,-75,461,-72,17
560,-33,-239,-75,463,-77,4
565,-33,-241,-68,462,-85,-7
570,-32,-241,-77,462,-93,-15
575,-33,-243,-71,462,-103,-17
580,-34,-241,-70,462,-110,-20
585,-36,-243,-72,466,-115,-20
590,-32,-242,-72,471,-116,-24
595,-37,-243,-67,477,-117,-24
600,-37,-241,-69,484,-117,-23
605,-35,-241,-69,491,-118,-26
610,-38,-238,-73,497,-117,-28
615,-36,-237,-67,501,-115,-27
620,-45,-234,-68,505,-114,-28
625,-42,-235,-65,507,-113,-25
630,-39,-228,-64,505,-108,-24
635,-39,-229,-67,500,-105,-22
640,-39,-229,-65,488,-104,-21
645,-39,-232,-64,471,-103,-16
650,-39,-231,-67,451,-102,-14
655,-36,-232,-65,429,-100,-10
660,-37,-231,-63,403,-98,-5
665,-36,-236,-63,380,-97,1
670,-29,-239,-61,359,-93,8
675,-27,-241,-58,342,-88,11
680,-29,-240,-58,331,-83,17
685,-26,-244,-62,327,-79,14
690,-26,-244,-62,330,-70,15
695,-22,-246,-61,338,-59,12
700,-25,-248,-63,351,-48,8
705,-24,-246,-60,364,-40,6
710,-25,-242,-61,372,-34,1
715,-24,-238,-63,377,-28,-2
720,-20,-241,-65,374,-24,-8
725,-20,-236,-66,368,-26,-14
730,-16,-237,-67,353,-32,-21
735,-20,-232,-64,336,-41,-27
740,-24,-232,-68,314,-52,-30
745,-21,-230,-64,290,-61,-34
750,-24,-228,-64,267,-72,-36
755,-17,-232,-65,246,-81,-36
760,-17,-234,-63,225,-88,-35
765,-22,-233,-60,207,-89,-34
770,-16,-237,-61,190,-86,-30
775,-16,-240,-60,178,-83,-26
780,-17,-236,-63,171,-76,-24
785,-9,-240,-60,165,-67,-21
790,-13,-239,-57,164,-56,-19
795,-11,-241,-57,164,-45,-21
800,-12,-244,-58,168,-36,-22
805,-15,-239,-59,171,-28,-26
810,-13,-242,-60,175,-20,-31
815,-11,-237,-56,178,-17,-40
820,-16,-236,-52,179,-16,-48
825,-14,-237,-56,178,-17,-59
830,-17,-233,-56,173,-19,-67
835,-19,-232,-56,167,-21,-76
840,-19,-231,-59,156,-28,-81
845,-19,-235,-58,145,-36,-82
850,-23,-234,-58,136,-43,-84
855,-23,-237,-54,129,-49,-81
860,-23,-243,-55,127,-55,-77
865,-23,-241,-53,127,-60,-69
870,-22,-243,-55,131,-65,-61
875,-24,-241,-57,136,-69,-52
880,-25,-241,-52,142,-70,-43
885,-23,-244,-55,147,-70,-36
890,-24,-244,-52,152,-71,-28
895,-22,-242,-51,155,-70,-21
900,-23,-245,-50,158,-69,-15
905,-23,-244,-53,161,-66,-10
910,-21,-244,-52,162,-64,-6
915,-21,-245,-52,162,-62,-3
920,-24,-243,-53,163,-58,1
925,-21,-244,-50,163,-54,5
930,-25,-244,-53,163,-51,9
935,-21,-243,-46,161,-47,14
940,-21,-244,-49,161,-43,19
945,-25,-243,-49,159,-39,24
950,-20,-246,-47,160,-34,30
955,-23,-245,-48,162,-29,34
960,-24,-243,-50,164,-21,39
965,-22,-244,-48,168,-13,43
970,-24,-244,-51,171,-7,46
975,-20,-240,-50,173,1,50
980,-24,-241,-50,172,10,53
985,-24,-245,-50,168,15,58
990,-24,-239,-44,163,19,61
995,-26,-242,-45,158,21,62
1000,-26,-242,-47,152,23,65
1005,-29,-241,-49,146,23,66
1010,-29,-241,-51,144,21,70
1015,-31,-240,-47,138,20,74
1020,-28,-242,-47,133,20,75
1025,-31,-238,-51,127,20,80
1030,-32,-238,-47,119,19,83
1035,-29,-238,-49,108,18,87
1040,-31,-237,-51,98,17,90
1045,-31,-239,-47,88,17,93
1050,-31,-245,-50,80,14,96
1055,-34,-233,-64,74,11,99
1060,-29,-241,-48,69,7,99
1065,-33,-238,-50,63,5,101
1070,-31,-239,-52,55,2,102
1075,-28,-238,-52,42,3,102
1080,-34,-240,-48,32,4,103
1085,-35,-239,-56,22,6,103
1090,-30,-243,-53,13,12,107
1095,-35,-242,-55,5,16,111
1100,-33,-243,-56,-1,19,115
1105,-36,-239,-55,-7,21,119
1110,-34,-241,-57,-11,21,123
1115,-29,-243,-56,-13,21,127
1120,-30,-244,-55,-13,20,131
1125,-31,-242,-58,-15,18,134
1130,-29,-243,-53,-15,14,137
1135,-30,-242,-55,-18,11,139
1140,-29,-244,-55,-19,7,144
1145,-26,-246,-54,-21,5,148
1150,-26,-245,-53,-22,0,153
1155,-31,-241,-52,-22,-2,161
1160,-28,-242,-53,-21,-3,168
1165,-30,-246,-52,-16,-3,174
1170,-24,-243,-53,-12,-1,182
1175,-28,-244,-54,-5,-1,190
1180,-25,-242,-54,-2,2,196
1185,-27,-239,-55,-1,6,204
1190,-26,-241,-53,-1,9,211
1195,-24,-242,-53,-1,13,217
1200,-28,-239,-51,-1,14,224
1205,-28,-243,-55,-1,14,229
1210,-24,-243,-52,-1,14,235
1215,-22,-245,-53,2,13,237
1220,-28,-241,-51,4,13,238
1225,-26,-240,-54,5,11,238
1230,-27,-245,-48,11,10,241
1235,-26,-245,-49,15,10,243
1240,-25,-242,-49,19,12,244
1245,-24,-243,-46,24,14,248
1250,-23,-242,-47,28,15,251
1255,-21,-241,-53,35,16,256
1260,-23,-241,-54,42,18,262
1265,-25,-243,-53,49,18,265
1270,-17,-238,-56,53,15,266
1275,-27,-249,-57,58,12,263
1280,-29,-240,-50,64,10,265
1285,-27,-239,-51,71,7,265
1290,-33,-236,-50,80,2,265
1295,-30,-236,-51,84,-2,266
1300,-34,-237,-51,84,-9,267
1305,-32,-235,-49,83,-18,269
1310,-38,-234,-50,78,-30,275
1315,-34,-237,-48,73,-43,277
1320,-32,-238,-51,65,-52,283
1325,-33,-237,-50,61,-57,289
1330,-31,-239,-47,58,-61,294
1335,-35,-237,-50,62,-61,303
1340,-35,-244,-56,70,-57,313
1345,-34,-241,-51,81,-53,320
1350,-39,-244,-50,95,-54,326
1355,-38,-244,-56,106,-55,329
1360,-38,-244,-54,120,-56,333
1365,-39,-250,-50,134,-56,340
1370,-42,-244,-52,149,-59,341
1375,-41,-241,-47,162,-65,347
1380,-42,-243,-57,171,-72,355
1385,-49,-245,-59,178,-76,361
1390,-45,-242,-52,186,-78,368
1395,-48,-245,-54,192,-81,376
1400,-47,-244,-52,196,-85,378
1405,-51,-246,-52,200,-87,381
1410,-49,-245,-47,208,-81,385
1415,-48,-248,-44,217,-75,387
1420,-48,-247,-41,228,-69,391
1425,-50,-242,-47,240,-66,392
1430,-53,-241,-46,251,-59,398
1435,-51,-238,-45,257,-54,404
1440,-51,-243,-48,260,-51,410
1445,-52,-239,-46,261,-50,414
1450,-53,-241,-44,262,-49,422
1455,-52,-238,-47,262,-49,428
1460,-54,-240,-44,263,-53,435
1465,-53,-239,-43,262,-59,441
1470,-55,-237,-46,263,-66,448
1475,-59,-237,-46,266,-77,452
1480,-58,-234,-40,271,-89,456
1485,-57,-237,-40,275,-97,461
1490,-58,-238,-40,278,-103,462
1495,-58,-235,-39,283,-107,468
1500,-64,-236,-45,292,-106,471
1505,-62,-234,-40,304,-103,470
1510,-65,-235,-42,317,-98,473
1515,-69,-234,-42,331,-92,474
1520,-68,-230,-46,342,-87,477
1525,-72,-227,-44,349,-85,478
1530,-74,-229,-38,348,-83,483
1535,-78,-225,-41,339,-83,486
1540,-59,-222,-24,324,-83,489
1545,-75,-226,-37,305,-84,497
1550,-75,-227,-43,287,-84,503
1555,-79,-225,-43,272,-84,513
1560,-83,-224,-40,263,-83,518
1565,-80,-225,-36,260,-79,527
1570,-86,-224,-35,262,-77,536
1575,-87,-226,-37,263,-72,539
1580,-92,-222,-38,264,-66,545
1585,-92,-223,-35,262,-59,546
1590,-95,-225,-30,263,-55,544
1595,-95,-224,-36,263,-50,541
1600,-89,-229,-40,260,-46,540
1605,-96,-227,-33,254,-35,540
1610,-98,-226,-28,252,-27,539
1615,-98,-228,-29,251,-26,541
1620,-99,-229,-35,249,-30,543
1625,-100,-227,-39,242,-39,545
1630,-96,-229,-36,228,-45,547
1635,-94,-227,-36,215,-50,546
1640,-99,-228,-35,200,-57,547
1645,-98,-230,-37,187,-56,549
1650,-94,-229,-36,178,-58,550
1655,-97,-231,-35,173,-57,552
1660,-96,-229,-31,173,-56,551
1665,-96,-228,-31,178,-54,549
1670,-97,-231,-30,186,-47,549
1675,-97,-228,-24,195,-40,548
1680,-95,-227,-20,208,-30,545
1685,-98,-228,-22,221,-24,545
1690,-100,-228,-22,232,-21,543
1695,-101,-227,-26,239,-19,542
1700,-102,-224,-19,245,-21,542
1705,-108,-221,-23,245,-24,541
1710,-109,-220,-20,242,-27,540
1715,-110,-219,-27,235,-32,540
1720,-111,-223,-29,226,-36,543
1725,-114,-219,-31,218,-38,543
1730,-119,-216,-31,214,-40,545
1735,-119,-215,-33,211,-38,551
1740,-122,-215,-30,209,-37,557
1745,-125,-213,-32,210,-38,561
1750,-125,-210,-34,213,-38,562
1755,-126,-214,-35,211,-40,568
1760,-124,-210,-31,207,-44,572
1765,-125,-211,-34,205,-48,573
1770,-126,-213,-31,203,-52,572
1775,-127,-208,-38,200,-57,570
1780,-127,-209,-35,194,-62,569
1785,-126,-210,-34,187,-64,567
1790,-130,-209,-34,176,-64,563
1795,-127,-207,-33,162,-67,561
1800,-128,-205,-36,146,-67,558
1805,-126,-207,-33,130,-66,556
1810,-127,-209,-33,114,-62,550
1815,-128,-206,-29,98,-53,541
1820,-131,-211,-35,86,-39,536
1825,-131,-208,-27,80,-21,535
1830,-129,-207,-19,79,-7,534
1835,-129,-212,-22,80,-6,532
1840,-130,-210,-24,82,-9,531
1845,-130,-209,-28,86,-15,534
1850,-129,-207,-26,89,-26,538
1855,-129,-214,-25,92,-39,541
1860,-129,-214,-27,92,-49,544
1865,-129,-213,-28,98,-58,546
1870,-129,-215,-30,106,-68,548
1875,-131,-211,-29,114,-78,549
1880,-129,-210,-31,121,-91,552
1885,-133,-209,-37,124,-105,559
1890,-131,-208,-33,122,-118,561
1895,-133,-206,-31,118,-128,564
1900,-135,-205,-26,110,-133,564
1905,-137,-207,-28,106,-133,559
1910,-137,-207,-27,98,-131,554
1915,-139,-203,-23,91,-133,550
1920,-141,-205,-27,89,-134,550
1925,-142,-205,-25,84,-135,545
1930,-139,-205,-25,79,-134,542
1935,-139,-204,-26,74,-134,540
1940,-141,-205,-29,68,-130,536
1945,-139,-204,-24,62,-131,529
1950,-137,-204,-26,56,-130,524
1955,-138,-205,-25,53,-129,518
1960,-140,-202,-25,57,-126,514
1965,-141,-201,-23,64,-122,509
1970,-142,-202,-24,76,-125,506
1975,-141,-205,-24,92,-131,499
1980,-140,-203,-26,106,-139,493
1985,-144,-200,-31,116,-141,490
1990,-142,-197,-28,119,-141,486
1995,-142,-200,-24,119,-139,486
2000,-144,-196,-27,119,-139,485
2005,-146,-198,-22,120,-136,490
2010,-143,-197,-27,119,-133,498
2015,-146,-194,-26,115,-128,503
2020,-149,-194,-25,112,-126,507
2025,-147,-195,-21,106,-127,510
2030,-151,-193,-22,103,-126,510
2035,-163,-181,-23,98,-125,509
2040,-151,-196,-20,92,-130,509
2045,-154,-194,-22,87,-137,511
2050,-158,-192,-29,85,-143,512
2055,-155,-193,-27,78,-145,514
2060,-152,-190,-24,63,-144,521
2065,-152,-194,-21,47,-143,526
2070,-155,-192,-19,33,-140,533
2075,-154,-194,-29,26,-133,534
2080,-159,-193,-22,26,-121,533
2085,-157,-193,-20,33,-113,534
2090,-160,-191,-17,46,-107,536
2095,-158,-195,-18,58,-105,535
2100,-162,-191,-17,65,-103,535
2105,-161,-185,-13,65,-101,533
2110,-165,-189,-13,56,-102,530
2115,-161,-190,-18,42,-102,538
2120,-163,-188,-18,25,-100,541
2125,-163,-192,-15,12,-98,544
2130,-162,-193,-15,7,-100,547
2135,-163,-193,-14,8,-106,550
2140,-163,-192,-15,14,-114,556
2145,-166,-191,-23,24,-119,560
2150,-164,-192,-17,29,-121,562
2155,-162,-191,-16,29,-121,563
2160,-163,-189,-12,29,-118,563
2165,-162,-191,-14,27,-112,565
2170,-167,-189,-12,27,-109,569
2175,-166,-187,-6,28,-111,569
2180,-162,-189,-9,31,-117,570
2185,-169,-189,-9,39,-126,575
2190,-169,-188,-13,47,-131,576
2195,-168,-186,-14,57,-135,577
2200,-164,-188,-10,65,-137,578
2205,-164,-185,-6,71,-136,578
2210,-167,-187,-7,81,-133,578
2215,-167,-186,-13,95,-133,581
2220,-168,-183,-14,110,-133,586
2225,-167,-184,-11,123,-136,590
2230,-165,-182,-16,137,-148,592
2235,-168,-179,-22,147,-162,592
2240,-166,-178,-19,154,-167,595
2245,-190,-171,-12,161,-176,571
2250,-161,-183,-6,170,-146,596
2255,-169,-183,-6,160,-158,612
2260,-179,-182,-35,165,-165,611
2265,-176,-175,-17,172,-146,613
2270,-171,-176,-4,176,-137,615
2275,-171,-176,0,185,-152,610
2280,-183,-178,-14,195,-172,607
2285,-183,-176,-22,199,-175,605
2290,-182,-175,-10,200,-157,601
2295,-182,-173,0,196,-150,595
2300,-174,-171,-7,186,-160,585
2305,-193,-174,-21,178,-165,568
2310,-180,-174,-8,163,-141,578
2315,-176,-173,3,150,-116,585
2320,-179,-172,5,136,-110,592
2325,-192,-171,-14,138,-121,597
2330,-189,-166,-8,142,-115,600
2335,-187,-168,12,144,-102,603
2340,-189,-165,13,143,-106,608
2345,-190,-163,-1,139,-125,613
2350,-194,-160,-17,132,-130,618
2355,-189,-160,2,123,-113,622
2360,-191,-162,12,108,-101,624
2365,-196,-161,-13,97,-109,619
2370,-197,-167,-9,91,-122,613
2375,-198,-167,-13,90,-120,610
2380,-194,-164,3,89,-112,607
2385,-194,-165,2,87,-112,609
2390,-196,-161,-4,88,-117,609
2395,-199,-160,-6,88,-113,605
2400,-200,-156,-2,91,-104,603
2405,-203,-152,8,91,-106,603
2410,-208,-148,1,91,-136,598
2415,-212,-151,-14,90,-171,595
2420,-213,-152,-12,85,-193,591
2425,-208,-155,-6,79,-207,587
2430,-208,-155,1,83,-226,578
2435,-207,-152,-8,98,-251,570
2440,-209,-150,-8,120,-270,561
2445,-206,-151,-13,142,-282,559
2450,-209,-149,-3,160,-296,560
2455,-212,-151,-13,172,-320,561
2460,-212,-148,-22,180,-343,565
2465,-218,-146,-21,182,-351,566
2470,-210,-150,-13,183,-348,573
2475,-207,-144,-11,183,-340,585
2480,-212,-145,-14,182,-331,600
2485,-206,-145,-14,179,-320,613
2490,-202,-143,-5,176,-307,629
2495,-199,-138,-2,174,-307,645
2500,-197,-137,-1,176,-315,659
2505,-200,-138,-12,185,-325,672
2510,-197,-131,-5,198,-335,690
2515,-199,-132,3,210,-348,712
2520,-199,-131,2,223,-369,731
2525,-201,-130,3,234,-392,747
2530,-206,-130,4,247,-414,767
2535,-202,-133,6,265,-431,787
2540,-202,-129,5,282,-446,804
2545,-203,-123,4,298,-456,825
2550,-205,-122,1,312,-456,836
2555,-211,-114,-1,325,-451,841
2560,-212,-112,-1,329,-453,847
2565,-214,-113,-2,320,-466,846
2570,-213,-114,-3,300,-485,843
2575,-215,-116,-5,278,-509,835
2580,-214,-115,-2,260,-528,833
2585,-220,-110,3,252,-557,835
2590,-223,-114,3,237,-574,844
2595,-227,-119,3,221,-576,842
2600,-226,-122,8,207,-578,837
2605,-224,-123,15,206,-591,837
2610,-224,-129,6,230,-625,855
2615,-219,-132,5,273,-658,881
2620,-214,-135,8,326,-686,910
2625,-205,-131,19,384,-703,934
2630,-200,-127,20,454,-711,956
2635,-199,-123,24,528,-704,976
2640,-202,-120,29,596,-686,988
2645,-199,-125,31,654,-667,990
2650,-190,-124,27,697,-644,981
2655,-187,-128,22,734,-611,966
2660,-192,-129,20,776,-562,948
2665,-189,-126,9,822,-497,922
2670,-195,-118,19,872,-414,887
2675,-201,-112,31,925,-333,847
2680,-209,-91,25,987,-256,814
2685,-220,-78,37,1049,-179,802
2690,-226,-61,51,1094,-99,811
2695,-237,-27,63,1113,-39,829
2700,-246,-12,64,1103,16,861
2705,-263,8,65,1070,62,894
2710,-267,16,56,1012,93,927
2715,-281,16,65,923,126,952
2720,-291,9,63,812,118,969
2725,-296,6,50,688,86,982
2730,-298,0,40,559,31,981
2735,-286,-19,38,438,-37,977
2740,-278,-33,45,335,-111,973
2745,-263,-55,42,261,-192,964
2750,-257,-64,33,224,-268,953
2755,-253,-83,33,212,-309,932
2760,-248,-95,42,216,-337,904
2765,-232,-106,52,238,-374,868
2770,-237,-114,46,282,-404,825
2775,-249,-120,40,355,-422,777
2780,-253,-121,57,456,-444,728
2785,-254,-117,56,571,-477,675
2790,-267,-109,63,683,-480,625
2795,-272,-100,50,788,-480,587
2800,-277,-85,60,881,-443,558
2805,-277,-68,75,963,-404,545
2810,-278,-41,60,1022,-384,558
2815,-277,-20,52,1045,-343,585
2820,-274,1,37,1028,-320,618
2825,-261,14,52,966,-306,656
2830,-254,27,42,860,-315,697
2835,-260,33,32,723,-321,738
2840,-263,37,32,574,-323,774
2845,-265,26,41,425,-313,803
2850,-262,31,63,288,-314,823
2855,-266,23,58,167,-321,839
2860,-268,13,52,68,-318,855
2865,-266,7,50,-9,-308,866
2870,-261,-3,59,-68,-316,871
2875,-256,-11,55,-117,-338,865
2880,-258,-26,41,-157,-367,850
2885,-254,-39,38,-183,-396,819
2890,-246,-51,48,-194,-423,777
2895,-239,-53,64,-185,-448,726
2900,-237,-56,62,-163,-470,664
2905,-243,-61,55,-131,-479,602
2910,-251,-52,57,-88,-468,538
2915,-252,-50,62,-39,-456,475
2920,-252,-46,64,7,-451,419
2925,-257,-40,63,47,-446,367
2930,-264,-31,63,78,-428,328
2935,-270,-26,72,99,-412,300
2940,-273,-20,87,115,-407,289
2945,-278,-16,85,132,-414,285
2950,-281,-12,78,145,-424,290
2955,-284,-2,83,148,-425,290
2960,-283,1,83,134,-422,292
2965,-274,5,77,103,-419,294
2970,-271,3,78,55,-413,291
2975,-263,5,69,-2,-412,277
2980,-250,2,64,-58,-405,264
2985,-240,-2,69,-100,-393,252
2990,-225,-13,65,-127,-388,244
2995,-212,-19,61,-140,-391,233
3000,-208,-25,54,-136,-389,219
3005,-204,-35,59,-117,-371,200
3010,-202,-42,74,-85,-356,179
3015,-198,-46,73,-36,-352,146
3020,-207,-44,65,22,-342,113
3025,-217,-38,75,87,-315,87
3030,-230,-29,90,153,-291,62
3035,-239,-16,96,214,-287,42
3040,-254,-10,97,271,-297,28
3045,-265,0,94,322,-303,24
3050,-269,6,93,365,-297,31
3055,-265,13,94,393,-287,46
3060,-261,15,81,397,-268,58
3065,-259,16,72,376,-238,61
3070,-255,18,75,327,-200,58
3075,-244,14,72,263,-178,52
3080,-234,6,70,192,-171,39
3085,-224,-8,67,125,-162,24
3090,-219,-19,68,69,-140,5
3095,-209,-28,72,32,-108,-28
3100,-214,-39,77,19,-71,-66
3105,-214,-43,83,29,-41,-107
3110,-216,-43,85,58,-17,-153
3115,-228,-44,81,106,9,-192
3120,-223,-44,99,165,40,-219
3125,-223,-41,98,230,82,-227
3130,-220,-41,98,295,127,-220
3135,-213,-36,103,352,161,-211
3140,-204,-36,105,395,191,-200
3145,-201,-33,109,427,206,-189
3150,-195,-31,108,456,211,-173
3155,-200,-31,110,479,210,-156
3160,-194,-29,108,501,202,-129
3165,-196,-23,115,517,190,-103
3170,-197,-20,108,523,179,-76
3175,-207,-18,107,513,186,-50
3180,-210,-13,101,490,220,-27
3185,-225,-13,107,459,267,-8
3190,-231,-11,118,429,314,16
3195,-248,-2,125,409,352,44
3200,-256,-2,127,403,392,75
3205,-258,2,129,413,414,106
3210,-267,1,135,432,431,134
3215,-268,3,131,459,430,155
3220,-266,5,129,487,405,171
3225,-266,6,119,508,365,177
3230,-259,11,105,510,324,176
3235,-254,10,99,490,292,178
3240,-249,10,95,439,261,182
3245,-247,14,92,380,230,185
3250,-249,15,85,320,204,185
3255,-248,11,78,252,187,181
3260,-247,2,80,184,174,172
3265,-249,0,79,128,157,163
3270,-251,-4,73,88,132,159
3275,-253,-4,72,67,110,169
3280,-254,-8,70,55,99,178
3285,-252,-9,67,60,91,181
3290,-250,-9,72,63,95,174
3295,-248,-8,70,65,100,158
3300,-250,-4,69,68,96,139
3305,-252,-3,76,66,81,122
3310,-247,-3,76,64,52,110
3315,-238,-3,83,58,9,105
3320,-227,-7,73,50,-39,105
3325,-214,-7,77,38,-72,103
3330,-203,-6,70,27,-97,100
3335,-197,-12,63,12,-120,100
3340,-193,-15,66,-13,-140,96
3345,-191,-19,64,-50,-147,90
3350,-192,-26,67,-92,-144,83
3355,-193,-30,81,-134,-132,71
3360,-192,-34,91,-166,-121,49
3365,-195,-35,91,-178,-101,22
3370,-196,-35,97,-158,-71,-2
3375,-199,-32,96,-102,-31,-21
3380,-208,-30,100,-22,15,-25
3385,-213,-20,102,65,55,-16
3390,-219,-14,100,140,88,4
3395,-226,-2,103,192,118,34
3400,-227,6,109,214,143,69
3405,-223,12,108,212,161,102
3410,-224,16,104,195,171,127
3415,-228,21,98,178,172,149
3420,-230,24,88,163,165,167
3425,-221,19,79,152,161,181
3430,-225,22,78,138,169,186
3435,-233,25,73,112,187,183
3440,-238,27,73,75,210,178
3445,-246,32,76,26,238,169
3450,-251,31,76,-29,272,163
3455,-253,31,75,-92,311,165
3460,-258,31,74,-160,353,168
3465,-258,23,77,-223,394,172
3470,-256,22,82,-280,432,173
3475,-255,22,85,-331,462,172
3480,-249,21,85,-380,486,169
3485,-246,20,84,-429,509,171
3490,-239,24,85,-484,529,174
3495,-231,22,83,-539,541,185
3500,-226,24,88,-593,540,193
3505,-228,22,87,-639,523,200
3510,-223,16,87,-665,476,202
3515,-215,7,80,-674,396,205
3520,-215,-1,59,-664,303,205
3525,-215,-14,46,-635,218,204
3530,-222,-23,43,-586,159,198
3535,-228,-30,42,-522,128,191
3540,-239,-32,48,-447,123,183
3545,-239,-31,54,-364,140,174
3550,-252,-33,56,-285,178,169
3555,-258,-25,63,-215,229,164
3560,-256,-27,64,-164,285,161
3565,-262,-19,61,-133,337,152
3570,-272,-16,59,-116,379,142
3575,-276,-12,56,-107,412,130
3580,-279,-6,60,-101,433,118
3585,-276,-3,60,-91,443,107
3590,-273,-3,52,-77,446,98
3595,-271,0,43,-59,455,92
3600,-266,1,39,-39,463,88
3605,-266,3,34,-25,461,83
3610,-262,4,24,-18,446,79
3615,-262,7,13,-18,421,76
3620,-260,4,8,-25,386,75
3625,-261,1,6,-43,344,71
3630,-261,1,10,-69,296,65
3635,-260,-3,12,-100,247,56
3640,-261,-6,17,-123,200,48
3645,-262,-15,25,-133,165,42
3650,-261,-21,37,-126,135,36
3655,-264,-22,34,-98,106,37
3660,-267,-21,39,-59,81,42
3665,-267,-22,35,-13,65,47
3670,-268,-21,37,30,57,50
3675,-274,-15,36,66,51,52
3680,-274,-11,36,87,46,54
3685,-276,-3,37,90,42,56
3690,-274,-1,39,79,36,63
3695,-275,3,44,54,32,70
3700,-271,0,50,15,25,72
3705,-269,3,51,-35,16,71
3710,-271,5,50,-93,8,67
3715,-267,6,50,-149,1,64
3720,-269,5,45,-196,-2,61
3725,-267,2,39,-233,-9,58
3730,-263,-3,38,-261,-19,60
3735,-263,-8,41,-280,-37,63
3740,-256,-16,36,-285,-52,66
3745,-253,-23,34,-270,-66,73
3750,-255,-25,33,-239,-77,84
3755,-252,-27,37,-196,-91,98
3760,-255,-29,36,-150,-109,114
3765,-256,-28,42,-112,-137,126
3770,-258,-25,38,-87,-165,139
3775,-258,-22,45,-77,-187,148
3780,-258,-22,47,-80,-203,155
3785,-258,-20,50,-97,-211,164
3790,-257,-17,50,-114,-211,164
3795,-260,-17,49,-124,-200,158
3800,-260,-15,52,-129,-187,155
3805,-256,-14,54,-128,-177,151
3810,-257,-16,52,-119,-170,147
3815,-257,-12,49,-106,-162,145
3820,-256,-12,53,-90,-154,142
3825,-253,-10,61,-78,-150,139
3830,-250,-5,62,-67,-151,142
3835,-251,-3,62,-57,-145,147
3840,-249,0,60,-52,-130,150
3845,-252,2,62,-53,-115,152
3850,-246,2,63,-60,-107,154
3855,-251,2,65,-71,-105,151
3860,-250,2,64,-86,-109,149
3865,-247,1,62,-101,-113,143
3870,-246,0,65,-113,-117,136
3875,-243,0,59,-119,-122,129
3880,-247,0,57,-114,-120,120
3885,-243,-1,61,-100,-118,113
3890,-242,-3,55,-80,-117,107
3895,-244,3,54,-59,-116,103
3900,-243,3,60,-39,-115,101
3905,-243,3,64,-22,-113,102
3910,-242,16,68,-17,-109,105
3915,-238,19,69,-23,-97,110
3920,-237,23,71,-39,-81,111
3925,-235,20,73,-61,-63,109
3930,-237,20,70,-86,-49,104
3935,-239,21,66,-111,-41,97
3940,-236,19,71,-138,-34,90
3945,-235,15,76,-161,-29,78
3950,-237,14,70,-181,-20,66
3955,-233,9,73,-195,-5,56
3960,-233,9,74,-200,13,43
3965,-230,6,72,-195,34,32
3970,-234,7,75,-182,58,18
3975,-238,9,77,-161,80,6
3980,-238,6,73,-134,101,-2
3985,-242,6,77,-109,115,-16
3990,-244,7,73,-90,122,-24
3995,-244,5,68,-76,124,-26
4000,-247,3,72,-70,124,-25
4005,-246,5,69,-63,122,-21
4010,-247,3,65,-58,115,-18
4015,-250,-3,68,-54,98,-19
4020,-252,0,63,-51,69,-20
4025,-250,-3,64,-43,36,-20
4030,-252,-4,61,-31,8,-20
4035,-249,-8,62,-15,-14,-19
4040,-245,-3,64,3,-22,-20
4045,-246,-6,59,22,-20,-25
4050,-246,-6,61,42,-15,-33
4055,-249,-7,58,62,-9,-44
4060,-246,-4,60,85,5,-54
4065,-251,-1,62,112,19,-58
4070,-247,5,61,139,35,-62
4075,-248,6,59,162,52,-65
4080,-244,13,61,176,69,-68
4085,-248,16,60,183,83,-75
4090,-247,17,66,182,88,-81
4095,-245,19,64,171,86,-87
4100,-244,18,61,156,82,-94
4105,-250,19,62,133,76,-100
4110,-252,16,63,105,68,-106
4115,-248,14,60,72,62,-111
4120,-251,14,63,39,51,-117
4125,-252,14,63,5,45,-125
4130,-256,12,60,-26,45,-130
4135,-253,2,65,-52,44,-136
4140,-256,-1,59,-69,43,-141
4145,-258,0,58,-79,46,-143
4150,-257,-6,59,-80,51,-141
4155,-255,-12,55,-72,53,-141
4160,-256,-10,55,-57,56,-139
4165,-256,-13,53,-41,59,-136
4170,-256,-20,55,-23,59,-134
4175,-254,-21,53,-1,59,-131
4180,-255,-21,54,20,58,-126
4185,-254,-21,58,41,52,-120
4190,-255,-21,52,62,46,-111
4195,-254,-24,56,81,41,-101
4200,-255,-20,54,96,39,-86
4205,-253,-21,58,106,38,-70
4210,-253,-15,54,113,39,-51
4215,-253,-12,51,110,39,-32
4220,-252,-11,53,105,43,-14
4225,-251,-9,51,95,44,5
4230,-251,-6,52,84,36,21
4235,-254,-1,51,74,23,38
4240,-241,3,54,64,6,52
4245,-247,-2,56,58,-9,62
4250,-251,1,55,54,-26,70
4255,-248,1,51,50,-43,74
4260,-255,6,50,46,-60,77
4265,-247,7,50,42,-75,80
4270,-246,5,53,32,-92,81
4275,-251,9,56,20,-109,81
4280,-249,9,51,1,-120,77
4285,-249,9,53,-20,-129,72
4290,-247,13,58,-43,-131,64
4295,-245,11,58,-66,-127,55
4300,-249,15,58,-89,-119,42
4305,-248,13,64,-109,-104,25
4310,-249,12,70,-123,-83,6
4315,-248,10,75,-131,-65,-18
4320,-249,12,72,-132,-47,-42
4325,-251,10,72,-127,-28,-69
4330,-249,8,76,-116,-9,-95
4335,-248,6,70,-103,12,-113
4340,-251,9,65,-88,34,-128
4345,-251,4,64,-72,57,-135
4350,-254,5,63,-53,75,-139
4355,-254,3,58,-40,92,-138
4360,-255,1,58,-33,102,-133
4365,-253,1,52,-30,109,-127
4370,-253,-5,54,-30,115,-118
4375,-253,-7,51,-28,120,-109
4380,-252,-10,55,-24,123,-99
4385,-248,-19,57,-16,127,-90
4390,-249,-19,50,-8,128,-79
4395,-249,-25,56,5,127,-68
4400,-248,-22,55,19,125,-56
4405,-245,-25,54,30,123,-43
4410,-243,-25,61,40,117,-32
4415,-246,-24,55,45,111,-24
4420,-247,-24,58,48,107,-15
4425,-246,-23,60,49,102,-7
4430,-249,-19,60,47,94,0
4435,-252,-13,58,47,90,9
4440,-249,-13,53,42,83,18
4445,-250,-13,54,38,79,28
4450,-251,-10,55,33,76,37
4455,-249,-3,56,27,71,44
4460,-253,-4,57,18,67,52
4465,-250,-4,55,8,61,57
4470,-249,-3,53,-2,57,60
4475,-250,-1,55,-12,51,61
4480,-246,1,54,-22,44,59
4485,-247,0,59,-32,38,57
4490,-245,0,57,-39,33,56
4495,-248,1,59,-46,28,54
4500,-248,-2,63,-51,21,48
4505,-245,-7,63,-54,15,42
4510,-250,-4,65,-52,10,36
4515,-249,-4,64,-47,7,28
4520,-246,-7,65,-34,7,22
4525,-248,-9,65,-19,11,15
4530,-254,-12,66,-1,18,7
4535,-253,-10,65,20,26,2
4540,-253,-9,59,42,39,-3
4545,-253,-10,54,59,51,-8
4550,-254,-10,52,72,60,-8
4555,-254,-8,51,83,65,-9
4560,-258,1,29,90,70,-7
4565,-252,-5,48,93,73,-3
4570,-252,-3,43,94,72,4
4575,-251,-2,42,95,73,8
4580,-251,0,41,91,71,13
4585,-248,-4,46,84,68,17
4590,-246,-3,48,76,65,22
4595,-249,-1,51,69,62,23
4600,-243,0,54,63,57,24
4605,-246,-1,55,60,51,25
4610,-244,-2,55,59,46,25
4615,-242,-2,62,61,41,27
4620,-242,-4,62,65,37,25
4625,-237,0,65,71,34,28
4630,-241,0,67,82,34,31
4635,-242,0,66,91,36,32
4640,-237,2,68,99,42,33
4645,-239,2,67,106,50,34
4650,-238,9,66,109,62,35
4655,-242,3,67,109,73,34
4660,-243,5,65,103,84,34
4665,-243,9,67,90,96,34
4670,-242,8,68,75,107,34
4675,-245,10,65,58,112,33
4680,-241,7,64,41,117,33
4685,-245,6,65,22,121,30
4690,-245,7,67,6,125,27
4695,-245,6,65,-9,130,23
4700,-248,5,62,-17,132,19
4705,-249,7,63,-22,136,14
4710,-251,6,62,-25,138,9
4715,-246,2,58,-30,146,3
4720,-248,3,55,-35,155,-2
4725,-247,2,57,-34,162,-7
4730,-249,0,54,-32,171,-14
4735,-248,0,53,-30,182,-19
4740,-253,1,49,-26,190,-23
4745,-253,1,50,-20,195,-27
4750,-253,-2,47,-16,198,-33
4755,-254,0,47,-13,200,-39
4760,-255,0,48,-12,203,-41
4765,-254,-2,44,-9,201,-42
4770,-255,-2,46,-7,197,-43
4775,-255,-6,42,-4,194,-42
4780,-255,-2,41,4,190,-37
4785,-256,-1,47,7,185,-33
4790,-257,0,43,14,178,-25
4795,-257,-4,41,18,171,-18
4800,-256,-2,38,24,163,-10
4805,-255,0,39,29,160,-5
4810,-256,0,46,32,153,0
4815,-256,0,42,33,149,3
4820,-254,0,44,32,146,9
4825,-253,2,43,29,144,10
4830,-254,0,39,23,140,10
4835,-255,1,43,17,133,9
4840,-252,0,43,12,125,11
4845,-255,1,39,7,118,8
4850,-254,0,43,9,111,6
4855,-255,-2,43,14,103,3
4860,-252,2,41,20,96,1
4865,-255,-2,43,29,89,0
4870,-254,1,40,38,83,-1
4875,-255,0,43,46,75,-4
4880,-254,-2,44,53,67,-7
4885,-253,-2,41,57,62,-10
4890,-252,0,41,60,56,-12
4895,-256,0,44,63,51,-15
4900,-254,-1,45,64,43,-16
4905,-255,0,42,66,38,-18
4910,-255,0,42,71,35,-19
4915,-252,1,36,71,31,-19
4920,-249,-3,41,73,28,-21
4925,-254,-1,42,73,27,-22
4930,-251,-1,44,75,22,-23
4935,-253,-2,42,74,18,-26
4940,-253,-2,38,75,12,-27
4945,-252,-4,41,76,5,-28
4950,-253,-5,46,76,-2,-27
4955,-253,0,41,77,-10,-26
4960,-251,-5,45,77,-19,-27
4965,-251,-6,41,77,-27,-24
4970,-252,-2,43,77,-36,-23
4975,-252,-4,44,77,-44,-21
4980,-252,-4,47,79,-52,-21
4985,-254,-1,45,80,-58,-19
4990,-252,0,43,82,-64,-15
4995,-255,-2,48,83,-69,-13
5000,-255,-2,46,83,-70,-11
5005,-252,-1,46,82,-71,-10
5010,-254,0,46,80,-71,-9
5015,-254,-1,45,77,-71,-7
5020,-256,0,42,73,-69,-5
5025,-251,-1,47,71,-68,-7
5030,-253,0,47,71,-68,-7
5035,-249,-2,48,72,-67,-10
5040,-255,0,46,75,-66,-10
5045,-252,0,45,76,-65,-11
5050,-251,2,47,77,-64,-11
5055,-251,1,49,78,-63,-11
5060,-253,0,47,79,-62,-12
5065,-255,0,46,79,-61,-14
5070,-255,2,51,79,-60,-15
5075,-254,0,45,79,-60,-16
5080,-254,0,49,80,-58,-16
5085,-252,0,47,80,-57,-15
5090,-252,1,51,81,-57,-16
5095,-251,1,62,82,-55,-16
5100,-254,0,53,82,-56,-15
5105,-251,-1,51,81,-55,-16
5110,-250,1,52,80,-55,-16
5115,-251,0,51,78,-56,-17
5120,-250,1,51,76,-54,-17
5125,-252,-1,52,74,-55,-18
5130,-250,-3,49,72,-53,-21
5135,-250,-2,54,69,-53,-19
5140,-250,-2,52,67,-54,-21
5145,-250,0,51,65,-54,-20
5150,-250,-1,53,63,-54,-20
5155,-251,0,48,60,-55,-21
5160,-251,0,53,58,-55,-21
5165,-253,0,49,57,-52,-20
5170,-252,-2,51,55,-49,-20
5175,-251,-3,52,57,-46,-20
5180,-250,-1,61,57,-44,-21
5185,-253,-6,52,60,-41,-19
5190,-252,-3,53,63,-41,-19
5195,-251,-1,50,65,-40,-18
5200,-248,-1,51,67,-40,-16
5205,-249,-5,51,70,-40,-16
5210,-251,0,48,70,-43,-13
5215,-253,0,50,67,-43,-11
5220,-250,-2,49,64,-43,-11
5225,-248,0,52,61,-43,-9
5230,-250,-2,51,57,-45,-10
5235,-253,-3,49,54,-44,-9
5240,-252,0,50,54,-43,-7
5245,-251,-2,54,53,-42,-6
5250,-253,0,53,56,-38,-4
5255,-250,-2,56,56,-36,-3
5260,-253,-1,53,57,-35,-2
5265,-245,-4,56,60,-33,0
5270,-249,0,54,61,-30,-1
5275,-248,-2,51,64,-28,1
5280,-248,0,51,68,-25,1
5285,-249,-1,52,73,-22,1
5290,-249,0,54,78,-20,-1
5295,-246,-1,54,82,-19,-2
5300,-249,0,56,85,-20,-4
5305,-247,0,50,85,-21,-4
5310,-249,-1,54,84,-23,-4
5315,-251,1,53,84,-26,-7
5320,-250,0,55,83,-28,-5
5325,-248,-2,51,83,-32,-7
5330,-249,-2,57,84,-33,-8
5335,-249,1,56,81,-33,-9
5340,-247,0,54,79,-32,-9
5345,-249,-1,54,76,-31,-9
5350,-252,1,56,72,-28,-9
5355,-250,0,54,68,-23,-8
5360,-250,-3,52,63,-20,-8
5365,-250,0,54,60,-15,-7
5370,-254,1,49,58,-7,-8
5375,-254,0,56,58,-3,-6
5380,-251,1,50,58,2,-5
5385,-250,-2,49,57,6,-6
5390,-251,0,49,61,8,-6
5395,-255,1,55,63,9,-6
5400,-250,-2,56,66,8,-4
5405,-253,0,54,70,7,-6
5410,-249,-1,50,73,6,-6
5415,-247,1,54,76,6,-7
5420,-250,-1,54,75,5,-5
5425,-248,0,54,75,3,-6
5430,-248,0,56,73,1,-4
5435,-245,-3,57,71,1,-5
5440,-249,1,53,69,1,-2
5445,-247,0,56,66,2,-2
5450,-252,-1,53,63,1,-2
5455,-250,0,52,61,3,-1
5460,-252,1,55,58,3,1
5465,-252,0,50,56,3,2
5470,-248,-2,53,54,3,1
5475,-248,0,53,54,3,1
5480,-248,-1,55,53,3,1
5485,-248,0,53,55,4,1
5490,-253,0,54,58,4,1
5495,-250,0,55,60,4,1
5500,-254,1,52,63,4,-1
5505,-251,-1,54,65,2,-2
5510,-251,0,51,67,2,-1
5515,-253,-1,53,67,-1,-2
5520,-252,-1,51,66,-2,0
5525,-251,1,51,64,-3,-2
5530,-249,1,56,61,-4,-2
5535,-249,0,55,59,-6,-5
5540,-252,-1,53,58,-7,-5
5545,-252,0,56,58,-8,-7
5550,-250,-2,53,61,-9,-6
5555,-252,0,56,64,-10,-5
5560,-254,3,56,67,-10,-6
5565,-251,-2,54,72,-11,-5
5570,-252,1,52,74,-11,-6
5575,-252,1,51,74,-11,-5
5580,-252,0,52,74,-12,-4
5585,-249,1,53,72,-11,-3
5590,-248,1,51,70,-10,-5
5595,-250,0,53,66,-8,-5
5600,-250,4,53,62,-6,-4
5605,-251,0,56,59,-5,-5
5610,-250,0,55,58,-6,-8
5615,-250,1,56,57,-8,-7
5620,-250,1,57,58,-8,-8
5625,-250,-1,56,60,-9,-7
5630,-248,-1,51,62,-9,-6
5635,-252,2,55,63,-9,-6
5640,-250,-1,52,65,-9,-4
5645,-249,1,53,65,-8,-3
5650,-248,1,54,65,-9,-4
5655,-249,-2,51,62,-9,-1
5660,-251,-1,55,60,-11,-2
5665,-249,0,55,58,-14,-2
5670,-249,1,53,57,-16,-2
5675,-248,-1,58,57,-18,-4
5680,-251,1,55,55,-19,-3
5685,-248,0,58,55,-21,-4
5690,-249,-4,53,54,-21,-6
5695,-251,0,52,55,-23,-6
5700,-250,0,55,56,-20,-5
5705,-250,-1,52,57,-19,-6
5710,-252,2,55,59,-17,-6
5715,-253,1,57,62,-16,-5
5720,-252,0,51,62,-17,-5
5725,-251,0,54,62,-17,-6
5730,-246,0,56,60,-17,-6
5735,-249,0,39,59,-17,-6
5740,-252,1,50,57,-16,-4
5745,-250,1,55,56,-16,-7
5750,-253,0,52,55,-17,-6
5755,-248,1,51,56,-18,-6
5760,-246,0,58,56,-19,-6
5765,-251,1,56,59,-21,-6
5770,-253,1,55,59,-22,-6
5775,-251,-2,57,61,-22,-5
5780,-251,0,59,62,-24,-5
5785,-250,1,54,64,-25,-5
5790,-253,0,54,65,-26,-5
5795,-251,1,56,65,-27,-4
5800,-252,1,56,64,-26,-4
5805,-249,2,53,62,-26,-3
5810,-251,2,56,61,-28,-4
5815,-248,1,56,58,-27,-5
5820,-252,3,53,54,-27,-5
5825,-251,0,54,51,-28,-7
5830,-247,1,60,49,-29,-6
5835,-250,2,56,48,-30,-5
5840,-251,0,56,50,-28,-4
5845,-251,1,60,52,-28,-5
5850,-252,3,60,53,-27,-3
5855,-249,1,55,54,-25,-2
5860,-249,1,56,52,-22,-1
5865,-249,0,58,51,-18,-1
5870,-250,1,58,48,-15,-2
5875,-253,1,56,44,-11,-3
5880,-250,0,56,43,-7,-5
5885,-250,1,58,43,-3,-5
5890,-249,0,56,46,0,-6
5895,-250,0,57,50,2,-4
5900,-252,0,57,55,3,-5
5905,-251,0,58,64,3,-5
5910,-249,0,56,71,3,-4
5915,-247,0,57,76,1,-6
5920,-250,0,57,82,-1,-5
5925,-247,0,58,85,-3,-7
5930,-247,0,57,86,-5,-7
5935,-245,-1,55,88,-10,-5
5940,-247,2,56,86,-12,-7
5945,-246,0,58,85,-16,-7
5950,-245,0,58,82,-19,-7
5955,-248,1,56,80,-21,-8
5960,-250,0,57,77,-23,-8
5965,-248,0,56,75,-27,-7
5970,-249,0,59,73,-29,-5
5975,-249,0,60,70,-29,-4
5980,-249,3,62,69,-30,-5
5985,-253,0,60,66,-31,-3
5990,-252,4,59,64,-31,-3
5995,-254,4,55,62,-31,-3
6000,-252,2,56,60,-29,-3
6005,-253,1,57,57,-27,-3
6010,-253,2,57,54,-26,-2
6015,-254,2,53,49,-22,-3
6020,-251,3,56,46,-21,-4
6025,-254,3,57,40,-18,-6
6030,-254,3,58,34,-15,-7
6035,-254,3,56,29,-14,-10
6040,-256,4,53,24,-13,-12
6045,-255,2,55,18,-10,-15
6050,-254,1,56,13,-8,-15
6055,-261,-13,58,6,-9,-14
6060,-255,0,55,1,-10,-16
6065,-255,2,58,-3,-11,-18
6070,-256,1,57,-5,-13,-18
6075,-255,2,54,-4,-13,-18
6080,-254,0,57,-1,-13,-19
6085,-256,3,58,3,-13,-19
6090,-259,2,58,8,-15,-19
6095,-258,0,56,12,-14,-16
6100,-260,0,60,18,-14,-17
6105,-261,1,54,21,-17,-18
6110,-260,2,54,27,-21,-19
6115,-262,1,53,34,-24,-18
6120,-263,0,48,41,-26,-18
6125,-264,1,48,46,-26,-20
6130,-262,0,46,44,-28,-21
6135,-264,0,48,43,-32,-22
6140,-260,-7,50,44,-36,-28
6145,-259,-12,51,54,-37,-34
6150,-258,-10,59,70,-37,-39
6155,-256,-13,62,92,-33,-47
6160,-255,-12,58,119,-28,-52
6165,-257,-12,61,143,-20,-56
6170,-257,-12,62,165,-8,-59
6175,-258,-5,64,182,6,-64
6180,-260,-4,64,196,21,-66
6185,-260,-4,65,210,36,-69
6190,-259,1,66,228,51,-73
6195,-261,3,68,246,64,-77
6200,-261,5,67,262,77,-84
6205,-259,5,67,275,89,-90
6210,-261,9,62,281,96,-97
6215,-256,8,64,276,88,-104
6220,-256,10,64,269,68,-110
6225,-250,11,65,258,36,-115
6230,-250,10,59,244,-2,-116
6235,-246,12,61,227,-40,-118
6240,-244,10,61,210,-79,-119
6245,-242,10,58,188,-116,-122
6250,-241,8,60,158,-150,-121
6255,-239,3,56,123,-179,-122
6260,-243,2,57,83,-201,-124
6265,-241,-1,59,42,-219,-125
6270,-243,-10,56,8,-234,-122
6275,-241,-12,59,-13,-245,-117
6280,-247,-16,60,-16,-246,-109
6285,-251,-17,59,-4,-236,-100
6290,-251,-19,58,20,-220,-90
6295,-254,-22,59,56,-203,-79
6300,-256,-24,59,99,-187,-72
6305,-256,-26,60,139,-173,-61
6310,-259,-29,61,163,-157,-42
6315,-261,-28,66,181,-145,-28
6320,-260,-25,67,198,-142,-21
6325,-257,-21,66,209,-139,-18
6330,-248,-9,69,228,-145,-20
6335,-252,-11,61,266,-165,-11
6340,-248,-9,57,272,-155,14
6345,-247,-3,59,239,-143,34
6350,-242,3,63,202,-151,39
6355,-240,1,65,180,-183,46
6360,-235,4,64,170,-229,52
6365,-234,4,62,158,-274,53
6370,-231,3,67,138,-317,55
6375,-227,3,65,118,-358,47
6380,-232,1,66,102,-394,41
6385,-230,0,64,95,-430,32
6390,-230,0,58,92,-462,25
6395,-238,-1,50,96,-494,21
6400,-241,0,53,103,-520,19
6405,-244,2,46,117,-547,19
6410,-250,1,42,138,-568,24
6415,-257,0,36,159,-581,28
6420,-253,0,44,176,-578,25
6425,-256,0,45,188,-580,22
6430,-257,0,38,186,-573,24
6435,-258,4,44,174,-551,26
6440,-260,3,52,145,-528,27
6445,-264,3,65,107,-500,21
6450,-255,0,76,74,-477,15
6455,-260,2,73,40,-468,5
6460,-267,1,78,23,-445,-3
6465,-255,0,85,32,-425,-8
6470,-257,1,98,42,-425,-20
6475,-262,1,88,63,-420,-27
6480,-254,2,87,92,-426,-28
6485,-255,4,87,105,-441,-41
6490,-244,2,91,118,-453,-43
6495,-246,4,89,118,-488,-50
6500,-242,2,78,118,-502,-52
6505,-242,-1,72,112,-514,-58
6510,-241,0,76,102,-507,-57
6515,-233,2,73,90,-505,-52
6520,-239,1,74,64,-495,-42
6525,-239,0,68,39,-472,-27
6530,-240,5,77,9,-448,-15
6535,-238,3,78,-13,-423,1
6540,-230,1,83,-29,-412,11
6545,-236,0,86,-46,-403,14
6550,-234,-2,91,-51,-397,18
6555,-228,-5,100,-41,-395,18
6560,-227,-7,100,-20,-399,16
6565,-231,-7,102,18,-410,12
6570,-231,-6,98,63,-420,8
6575,-232,-2,97,109,-421,3
6580,-233,-1,111,153,-420,0
6585,-238,8,113,188,-422,-8
6590,-241,13,129,207,-421,-12
6595,-244,14,105,208,-410,-11
6600,-244,24,104,190,-391,-10
6605,-249,22,104,159,-373,-10
6610,-247,17,106,120,-356,-11
6615,-251,19,96,82,-338,-13
6620,-248,12,102,50,-317,-16
6625,-239,7,104,26,-302,-22
6630,-233,1,106,11,-296,-28
6635,-227,-2,109,4,-290,-35
6640,-223,-2,111,1,-278,-41
6645,-219,-4,118,5,-261,-50
6650,-219,-1,121,14,-248,-59
6655,-218,-5,122,29,-243,-66
6660,-221,0,120,47,-246,-72
6665,-219,1,116,69,-243,-71
6670,-214,2,128,88,-246,-66
6675,-209,3,119,101,-254,-60
6680,-215,6,111,105,-246,-54
6685,-213,7,108,111,-232,-44
6690,-210,3,107,118,-216,-38
6695,-212,4,110,116,-201,-31
6700,-210,2,108,112,-182,-19
6705,-215,2,106,106,-161,-17
6710,-212,0,110,98,-136,-18
6715,-211,1,118,89,-116,-17
6720,-215,0,113,81,-108,-15
6725,-213,-9,113,78,-101,-19
6730,-216,-6,116,87,-93,-23
6735,-216,-9,117,109,-85,-28
6740,-216,-7,110,140,-78,-30
6745,-220,-2,108,176,-72,-31
6750,-225,0,103,208,-59,-31
6755,-220,0,110,229,-45,-29
6760,-219,5,117,235,-38,-22
6765,-226,13,111,224,-42,-16
6770,-222,13,111,203,-44,-10
6775,-221,17,112,172,-44,-7
6780,-223,15,116,138,-32,-9
6785,-221,16,118,109,-23,-15
6790,-225,14,119,82,-15,-18
6795,-224,15,120,60,-11,-19
6800,-223,15,123,43,0,-23
6805,-225,17,122,34,22,-31
6810,-226,11,119,29,44,-42
6815,-222,9,109,31,66,-50
6820,-225,4,108,35,88,-57
6825,-221,2,111,46,108,-61
6830,-220,0,114,66,120,-68
6835,-221,0,105,88,127,-77
6840,-218,-1,104,102,132,-84
6845,-216,3,109,109,138,-92
6850,-218,4,108,111,144,-101
6855,-216,1,103,109,146,-113
6860,-217,1,98,104,148,-120
6865,-216,0,101,101,162,-130
6870,-217,-1,101,99,183,-135
6875,-220,1,106,101,204,-144
6880,-221,0,105,105,223,-151
6885,-223,1,101,113,236,-158
6890,-227,0,107,125,253,-165
6895,-226,-4,112,139,266,-174
6900,-228,-1,113,154,267,-187
6905,-228,-1,112,174,267,-202
6910,-231,2,108,195,271,-216
6915,-232,0,113,214,273,-230
6920,-230,7,115,233,266,-238
6925,-235,7,112,244,248,-243
6930,-234,8,108,244,236,-244
6935,-232,10,106,228,235,-247
6940,-231,11,108,199,248,-248
6945,-225,6,104,165,273,-259
6950,-230,6,101,130,299,-278
6955,-231,3,102,99,317,-295
6960,-232,2,109,80,329,-310
6965,-229,0,115,70,333,-328
6970,-229,-7,106,69,338,-349
6975,-232,-14,105,77,346,-370
6980,-236,-12,107,91,362,-392
6985,-234,-16,109,116,377,-411
6990,-237,-14,105,148,385,-433
6995,-239,-18,96,188,404,-449
7000,-235,-20,94,225,435,-470
7005,-234,-15,94,255,473,-490
7010,-233,-13,103,277,507,-511
7015,-233,-14,100,295,529,-534
7020,-232,-9,100,314,538,-552
7025,-235,-9,99,331,541,-568
7030,-234,-10,94,344,545,-582
7035,-236,-2,91,352,546,-595
7040,-241,-8,89,366,543,-613
7045,-242,-6,86,383,541,-629
7050,-242,-5,85,402,538,-647
7055,-244,0,85,417,531,-667
7060,-249,0,85,430,533,-690
7065,-252,-2,87,433,533,-712
7070,-250,2,93,423,520,-728
7075,-252,1,87,402,489,-737
7080,-252,5,86,369,469,-744
7085,-252,10,90,322,460,-751
7090,-251,15,95,268,448,-765
7095,-250,13,86,213,426,-781
7100,-255,11,78,156,405,-789
7105,-250,12,78,100,395,-792
7110,-245,6,80,51,381,-797
7115,-238,8,81,13,371,-807
7120,-247,4,77,-23,364,-811
7125,-241,0,76,-65,360,-811
7130,-240,-9,76,-117,352,-821
7135,-235,-12,79,-174,338,-834
7140,-238,-15,81,-220,324,-842
7145,-238,-23,82,-248,316,-845
7150,-235,-26,89,-259,302,-846
7155,-227,-30,89,-253,286,-855
7160,-224,-30,87,-234,272,-863
7165,-223,-36,83,-210,268,-864
7170,-220,-41,83,-192,264,-860
7175,-222,-53,80,-184,254,-863
7180,-225,-53,78,-181,252,-876
7185,-223,-51,79,-182,260,-889
7190,-229,-49,76,-177,279,-893
7195,-236,-47,79,-172,305,-889
7200,-239,-47,77,-168,326,-887
7205,-237,-47,78,-172,331,-886
7210,-230,-51,80,-183,326,-883
7215,-229,-54,76,-192,322,-871
7220,-226,-58,77,-187,317,-858
7225,-227,-60,74,-166,309,-852
7230,-221,-63,76,-143,294,-859
7235,-223,-62,71,-119,289,-868
7240,-229,-58,65,-99,308,-863
7245,-235,-56,66,-87,334,-855
7250,-233,-60,68,-91,354,-857
7255,-238,-62,66,-108,362,-866
7260,-242,-62,61,-133,371,-864
7265,-244,-62,64,-159,380,-851
7270,-238,-61,72,-183,387,-833
7275,-236,-64,83,-197,395,-823
7280,-234,-61,83,-207,401,-818
7285,-235,-64,82,-214,400,-811
7290,-231,-66,74,-219,392,-807
7295,-225,-69,74,-221,382,-805
7300,-223,-72,84,-218,373,-806
7305,-224,-75,71,-202,368,-809
7310,-224,-72,67,-176,377,-811
7315,-224,-70,67,-144,402,-808
7320,-221,-74,65,-124,423,-806
7325,-226,-71,63,-123,429,-808
7330,-231,-73,51,-133,430,-809
7335,-232,-81,59,-149,437,-809
7340,-237,-79,65,-163,433,-808
7345,-234,-83,64,-178,421,-802
7350,-238,-80,64,-195,411,-793
7355,-245,-84,65,-214,413,-784
7360,-244,-88,64,-225,426,-773
7365,-244,-87,66,-229,438,-765
7370,-245,-83,69,-223,447,-757
7375,-240,-79,72,-207,444,-749
7380,-233,-78,68,-188,436,-748
7385,-238,-76,63,-170,414,-754
7390,-235,-86,61,-163,374,-758
7395,-243,-89,38,-167,329,-752
7400,-245,-86,34,-184,295,-745
7405,-237,-89,41,-211,273,-734
7410,-233,-96,43,-245,276,-722
7415,-233,-97,52,-275,301,-714
7420,-230,-98,55,-303,333,-711
7425,-232,-98,57,-317,358,-709
7430,-230,-96,59,-318,377,-706
7435,-226,-89,57,-315,388,-694
7440,-220,-88,58,-317,390,-678
7445,-206,-87,49,-327,391,-663
7450,-202,-87,47,-352,399,-653
7455,-201,-93,44,-385,406,-649
7460,-199,-100,45,-418,414,-647
7465,-191,-101,38,-443,425,-643
7470,-192,-103,40,-454,449,-632
7475,-194,-105,35,-447,478,-623
7480,-199,-116,36,-422,499,-622
7485,-211,-126,38,-396,503,-642
7490,-215,-125,41,-365,489,-666
7495,-228,-126,33,-323,473,-682
7500,-226,-122,21,-286,475,-676
7505,-225,-122,24,-255,489,-669
7510,-226,-118,18,-231,499,-653
7515,-227,-123,25,-218,487,-632
7520,-231,-123,34,-218,442,-624
7525,-224,-118,36,-223,383,-607
7530,-214,-118,35,-229,331,-578
7535,-204,-116,38,-243,303,-550
7540,-190,-117,35,-259,284,-524
7545,-184,-122,33,-275,277,-502
7550,-187,-127,32,-276,276,-489
7555,-187,-127,26,-253,294,-487
7560,-191,-129,17,-206,335,-496
7565,-195,-128,27,-149,395,-513
7570,-203,-124,31,-105,443,-531
7575,-211,-115,35,-75,477,-544
7580,-216,-114,29,-58,497,-556
7585,-220,-118,18,-53,502,-570
7590,-220,-123,16,-58,494,-579
7595,-215,-129,8,-75,478,-586
7600,-223,-137,-2,-101,454,-590
7605,-224,-145,0,-129,430,-587
7610,-220,-154,-2,-151,403,-590
7615,-220,-163,0,-157,392,-595
7620,-223,-166,4,-147,377,-597
7625,-223,-168,-4,-120,358,-600
7630,-222,-170,-7,-85,346,-601
7635,-213,-169,-2,-54,345,-602
7640,-216,-161,3,-18,345,-597
7645,-206,-159,15,25,334,-591
7650,-204,-154,0,69,307,-586
7655,-204,-151,-10,109,294,-578
7660,-208,-143,-1,132,297,-573
7665,-210,-135,1,132,292,-576
7670,-212,-132,0,111,282,-576
7675,-210,-130,-2,68,287,-575
7680,-202,-130,-1,15,302,-578
7685,-201,-138,2,-36,313,-591
7690,-201,-146,2,-80,309,-612
7695,-203,-152,-7,-113,296,-634
7700,-209,-154,-11,-131,285,-648
7705,-198,-163,1,-140,275,-661
7710,-198,-170,-2,-145,246,-674
7715,-202,-173,-15,-149,229,-683
7720,-204,-171,-18,-150,226,-691
7725,-203,-172,-11,-139,234,-695
7730,-203,-166,-15,-120,247,-690
7735,-206,-166,-18,-104,259,-677
7740,-204,-159,-22,-110,265,-657
7745,-195,-162,-17,-136,262,-640
7750,-193,-164,-8,-167,249,-631
7755,-195,-163,-11,-187,225,-629
7760,-194,-167,-14,-197,199,-628
7765,-195,-166,-14,-207,178,-630
7770,-193,-166,-5,-222,155,-630
7775,-196,-163,-2,-244,130,-627
7780,-197,-162,1,-268,104,-626
7785,-200,-159,2,-291,84,-627
7790,-198,-161,3,-305,62,-626
7795,-194,-163,8,-307,34,-620
7800,-195,-169,0,-311,-1,-619
7805,-198,-169,-3,-321,-27,-611
7810,-195,-166,-1,-331,-45,-600
7815,-194,-167,2,-341,-59,-592
7820,-194,-165,-7,-347,-70,-581
7825,-192,-168,-6,-349,-79,-570
7830,-196,-167,-9,-353,-86,-562
7835,-191,-168,-12,-360,-100,-553
7840,-189,-168,-9,-373,-116,-543
7845,-191,-164,-14,-391,-130,-531
7850,-189,-161,-10,-409,-137,-516
7855,-192,-155,-16,-422,-139,-503
7860,-187,-160,-4,-430,-129,-485
7865,-184,-166,-3,-436,-137,-483
7870,-190,-164,-12,-441,-142,-485
7875,-192,-167,-15,-431,-129,-489
7880,-193,-169,-13,-406,-106,-498
7885,-194,-172,-10,-376,-94,-515
7890,-196,-177,-14,-350,-99,-525
7895,-197,-180,-14,-327,-108,-533
7900,-194,-182,-16,-303,-122,-541
7905,-197,-186,-10,-282,-141,-544
7910,-195,-189,-10,-265,-165,-551
7915,-195,-185,-14,-251,-184,-550
7920,-196,-189,-14,-237,-194,-544
7925,-186,-192,-8,-217,-202,-536
7930,-184,-189,-6,-198,-208,-530
7935,-175,-188,-12,-174,-213,-521
7940,-171,-180,-13,-140,-204,-510
7945,-164,-179,-13,-106,-196,-500
7950,-159,-176,-13,-84,-198,-494
7955,-152,-173,-16,-74,-198,-487
7960,-149,-170,-23,-75,-188,-482
7965,-145,-170,-24,-84,-170,-478
7970,-143,-174,-20,-100,-156,-484
7975,-147,-174,-25,-121,-144,-493
7980,-146,-177,-25,-138,-135,-500
7985,-152,-185,-29,-140,-121,-510
7990,-152,-190,-27,-131,-106,-525
7995,-155,-190,-22,-117,-92,-538
8000,-155,-192,-29,-103,-83,-554
8005,-153,-197,-27,-90,-74,-565
8010,-154,-195,-30,-81,-64,-575
8015,-155,-196,-25,-74,-59,-583
8020,-153,-197,-23,-69,-57,-591
8025,-152,-198,-23,-65,-55,-593
8030,-152,-197,-21,-62,-52,-601
8035,-148,-203,-24,-62,-43,-607
8040,-151,-198,-18,-62,-31,-613
8045,-150,-199,-18,-62,-16,-619
8050,-149,-199,-11,-60,0,-624
8055,-150,-194,-15,-59,14,-627
8060,-148,-196,-15,-54,26,-629
8065,-145,-191,-16,-52,34,-627
8070,-146,-193,-16,-53,37,-626
8075,-147,-191,-11,-57,34,-624
8080,-145,-192,-14,-67,31,-621
8085,-146,-191,-13,-77,25,-616
8090,-145,-190,-10,-90,20,-609
8095,-144,-191,-12,-105,15,-600
8100,-144,-192,-12,-121,12,-590
8105,-146,-192,-10,-139,10,-581
8110,-144,-194,-5,-158,10,-570
8115,-140,-196,-5,-174,13,-561
8120,-141,-194,-6,-187,16,-550
8125,-142,-197,-5,-190,18,-539
8130,-137,-200,-4,-188,20,-526
8135,-135,-200,0,-181,17,-515
8140,-134,-203,0,-170,9,-505
8145,-133,-204,-4,-154,3,-494
8150,-130,-204,-8,-138,-1,-481
8155,-128,-209,-6,-124,-7,-470
8160,-124,-210,-6,-107,-11,-456
8165,-123,-214,-10,-91,-13,-446
8170,-118,-216,-10,-78,-15,-438
8175,-120,-221,-9,-68,-13,-430
8180,-117,-225,-9,-58,-13,-425
8185,-123,-227,-11,-40,-16,-421
8190,-122,-231,-14,-14,-17,-419
8195,-122,-232,-10,15,-16,-417
8200,-119,-233,-14,48,-18,-416
8205,-118,-230,-17,84,-19,-418
8210,-119,-234,-20,119,-19,-421
8215,-116,-231,-21,147,-17,-426
8220,-119,-231,-19,165,-9,-432
8225,-120,-229,-22,182,-2,-438
8230,-123,-224,-17,189,12,-443
8235,-122,-220,-15,186,30,-447
8240,-121,-219,-15,180,49,-453
8245,-121,-215,-12,165,71,-465
8250,-120,-211,-10,151,93,-472
8255,-125,-207,-7,133,116,-484
8260,-118,-211,-7,112,141,-492
8265,-121,-209,-5,89,164,-504
8270,-120,-207,0,68,183,-512
8275,-119,-213,0,50,202,-516
8280,-117,-214,1,36,216,-523
8285,-121,-213,1,26,229,-528
8290,-122,-211,0,23,240,-535
8295,-118,-215,-1,22,250,-544
8300,-118,-217,1,22,255,-550
8305,-121,-218,0,21,258,-557
8310,-119,-221,-4,18,259,-563
8315,-119,-216,0,13,257,-564
8320,-121,-215,-4,7,253,-564
8325,-118,-218,-9,2,246,-560
8330,-116,-222,-13,0,234,-555
8335,-122,-219,-14,-2,222,-551
8340,-120,-222,-17,-4,210,-550
8345,-122,-222,-18,-7,198,-545
8350,-118,-223,-15,-8,185,-539
8355,-122,-224,-16,-8,172,-533
8360,-122,-227,-15,-5,160,-528
8365,-121,-226,-17,2,148,-521
8370,-123,-227,-14,11,135,-516
8375,-119,-226,-16,23,122,-508
8380,-124,-222,-13,37,114,-499
8385,-124,-223,-17,51,108,-490
8390,-123,-221,-13,64,104,-479
8395,-125,-223,-17,80,99,-466
8400,-124,-224,-17,96,88,-458
8405,-127,-222,-20,110,73,-455
8410,-125,-221,-26,125,63,-452
8415,-126,-220,-22,139,54,-448
8420,-127,-220,-24,151,44,-444
8425,-125,-218,-29,160,38,-439
8430,-123,-219,-23,166,34,-437
8435,-120,-217,-21,168,31,-438
8440,-121,-216,-18,165,31,-439
8445,-115,-215,-27,155,40,-442
8450,-114,-215,-26,141,57,-448
8455,-112,-213,-30,123,79,-451
8460,-106,-215,-25,100,104,-456
8465,-107,-215,-27,74,126,-456
8470,-106,-210,-27,45,148,-458
8475,-101,-215,-24,15,172,-457
8480,-97,-216,-24,-14,191,-456
8485,-98,-220,-21,-38,207,-453
8490,-99,-221,-23,-54,221,-451
8495,-100,-225,-20,-64,235,-451
8500,-95,-227,-17,-66,248,-451
8505,-97,-230,-17,-57,261,-453
8510,-96,-230,-21,-41,269,-454
8515,-97,-229,-24,-16,278,-455
8520,-103,-229,-24,11,283,-456
8525,-103,-226,-30,35,286,-456
8530,-104,-225,-30,52,286,-455
8535,-106,-223,-31,58,281,-453
8540,-108,-219,-34,55,278,-452
8545,-110,-218,-30,44,273,-449
8550,-110,-218,-32,28,266,-446
8555,-109,-216,-31,9,260,-441
8560,-113,-214,-28,-9,256,-433
8565,-111,-214,-32,-23,254,-425
8570,-110,-215,-30,-30,253,-412
8575,-108,-211,-31,-36,248,-400
8580,-108,-213,-31,-40,241,-387
8585,-109,-216,-31,-42,232,-376
8590,-102,-217,-30,-48,222,-362
8595,-105,-215,-31,-53,209,-350
8600,-106,-215,-32,-58,194,-340
8605,-100,-217,-28,-60,181,-328
8610,-98,-218,-31,-58,169,-316
8615,-102,-218,-28,-57,159,-306
8620,-100,-220,-29,-55,148,-299
8625,-101,-222,-27,-55,141,-292
8630,-101,-222,-27,-54,129,-289
8635,-100,-226,-23,-55,116,-290
8640,-98,-228,-21,-59,102,-292
8645,-98,-230,-21,-62,91,-296
8650,-95,-230,-19,-61,84,-300
8655,-94,-235,-24,-63,78,-305
8660,-95,-238,-23,-61,71,-311
8665,-91,-242,-22,-61,67,-314
8670,-89,-240,-24,-58,63,-321
8675,-88,-242,-27,-57,60,-325
8680,-82,-241,-25,-55,62,-329
8685,-78,-242,-30,-54,63,-335
8690,-77,-243,-29,-56,66,-343
8695,-73,-243,-38,-59,68,-352
8700,-72,-239,-33,-65,66,-359
8705,-70,-240,-38,-74,61,-369
8710,-69,-238,-33,-87,54,-377
8715,-65,-235,-37,-104,45,-387
8720,-65,-233,-37,-123,34,-397
8725,-64,-236,-37,-141,23,-407
8730,-64,-237,-39,-159,11,-417
8735,-65,-237,-37,-176,0,-427
8740,-64,-237,-34,-190,-11,-436
8745,-63,-238,-32,-202,-18,-444
8750,-64,-240,-34,-210,-26,-452
8755,-64,-240,-31,-217,-33,-461
8760,-63,-239,-27,-224,-40,-467
8765,-63,-238,-31,-233,-41,-467
8770,-60,-241,-35,-247,-40,-470
8775,-63,-239,-26,-258,-41,-473
8780,-60,-235,-32,-270,-38,-472
8785,-58,-237,-35,-283,-36,-468
8790,-53,-236,-30,-295,-28,-465
8795,-54,-234,-26,-311,-24,-464
8800,-52,-233,-27,-325,-25,-461
8805,-51,-236,-33,-337,-26,-458
8810,-49,-236,-34,-348,-31,-459
8815,-48,-234,-25,-357,-35,-459
8820,-47,-239,-23,-360,-43,-456
8825,-41,-240,-23,-359,-49,-456
8830,-43,-240,-29,-351,-59,-458
8835,-43,-245,-29,-336,-68,-460
8840,-39,-246,-29,-315,-77,-467
8845,-40,-253,-26,-290,-82,-469
8850,-44,-250,-31,-258,-84,-470
8855,-45,-252,-30,-222,-80,-472
8860,-43,-256,-33,-186,-73,-471
8865,-43,-256,-34,-150,-68,-465
8870,-44,-260,-38,-115,-60,-454
8875,-42,-257,-39,-83,-51,-438
8880,-44,-261,-39,-54,-41,-423
8885,-45,-256,-43,-31,-35,-410
8890,-41,-256,-46,-12,-32,-394
8895,-41,-255,-43,2,-31,-381
8900,-44,-254,-46,12,-28,-371
8905,-38,-252,-44,22,-26,-366
8910,-40,-249,-46,28,-25,-362
8915,-38,-244,-40,30,-22,-357
8920,-41,-240,-48,34,-18,-350
8925,-36,-242,-43,33,-16,-341
8930,-40,-233,-47,26,-16,-337
8935,-38,-231,-46,14,-15,-327
8940,-36,-231,-43,0,-14,-317
8945,-39,-228,-45,-16,-14,-307
8950,-41,-228,-47,-31,-12,-296
8955,-38,-227,-45,-46,-9,-285
8960,-38,-228,-40,-54,-9,-275
8965,-37,-233,-40,-60,-11,-264
8970,-40,-231,-37,-62,-11,-252
8975,-38,-234,-39,-63,-12,-240
8980,-39,-237,-38,-63,-21,-233
8985,-38,-239,-41,-64,-27,-230
8990,-38,-234,-42,-67,-30,-228
8995,-38,-236,-44,-70,-35,-223
9000,-34,-241,-44,-70,-40,-215
9005,-33,-243,-42,-69,-42,-222
9010,-36,-243,-42,-64,-41,-226
9015,-33,-245,-37,-55,-41,-222
9020,-32,-244,-42,-44,-42,-229
9025,-37,-243,-44,-36,-38,-237
9030,-40,-241,-44,-24,-29,-236
9035,-29,-250,-39,-12,-23,-233
9040,-35,-251,-43,4,-18,-239
9045,-39,-248,-49,26,-13,-243
9050,-34,-253,-43,50,-6,-238
9055,-31,-254,-52,73,-2,-244
9060,-34,-256,-46,95,6,-250
9065,-31,-256,-50,119,15,-248
9070,-34,-253,-51,141,22,-251
9075,-33,-253,-51,163,32,-262
9080,-34,-250,-49,179,37,-269
9085,-37,-247,-51,188,37,-269
9090,-25,-241,-59,189,33,-272
9095,-33,-247,-47,190,37,-275
9100,-34,-242,-44,185,40,-282
9105,-38,-238,-44,176,43,-279
9110,-37,-240,-49,166,43,-273
9115,-39,-238,-49,157,49,-264
9120,-35,-241,-38,149,59,-250
9125,-34,-238,-40,141,65,-243
9130,-35,-237,-45,131,68,-223
9135,-36,-239,-51,125,67,-204
9140,-32,-240,-53,118,74,-190
9145,-30,-237,-36,109,79,-181
9150,-32,-235,-46,102,74,-166
9155,-26,-240,-48,93,67,-143
9160,-23,-241,-48,87,65,-137
9165,-23,-237,-39,81,75,-139
9170,-20,-244,-35,75,72,-136
9175,-31,-243,-46,74,63,-129
9180,-26,-241,-45,75,71,-118
9185,-13,-245,-36,77,79,-121
9190,-14,-245,-29,80,83,-123
9195,-20,-246,-49,82,85,-132
9200,-23,-246,-45,84,91,-138
9205,-20,-246,-41,84,100,-142
9210,-13,-248,-36,79,105,-147
9215,-19,-248,-35,75,103,-146
9220,-16,-246,-39,78,101,-146
9225,-18,-248,-41,80,105,-156
9230,-16,-246,-35,78,103,-161
9235,-17,-245,-36,77,95,-164
9240,-21,-244,-48,74,85,-166
9245,-14,-249,-38,72,88,-158
9250,-18,-246,-42,71,76,-167
9255,-16,-246,-48,71,75,-170
9260,-19,-241,-48,75,76,-170
9265,-20,-239,-47,75,76,-165
9270,-20,-240,-46,73,72,-159
9275,-21,-239,-46,69,65,-152
9280,-17,-244,-45,66,58,-149
9285,-17,-243,-45,64,52,-145
9290,-21,-241,-42,66,43,-143
9295,-25,-244,-41,71,32,-141
9300,-24,-245,-45,75,23,-139
9305,-24,-246,-41,82,16,-135
9310,-26,-245,-41,89,10,-129
9315,-27,-245,-44,96,0,-123
9320,-24,-246,-47,103,-8,-115
9325,-26,-245,-48,108,-8,-109
9330,-27,-243,-47,111,-8,-102
9335,-25,-243,-45,111,-9,-93
9340,-28,-241,-52,112,-8,-87
9345,-24,-245,-50,110,-5,-79
9350,-26,-242,-46,109,-2,-72
9355,-27,-242,-42,104,-1,-65
9360,-17,-246,-39,101,-2,-60
9365,-24,-241,-44,98,-6,-56
9370,-22,-243,-40,97,-8,-52
9375,-21,-248,-39,97,-7,-48
9380,-19,-246,-41,100,-7,-45
9385,-20,-245,-48,106,-4,-45
9390,-22,-245,-45,110,0,-44
9395,-21,-246,-43,113,9,-44
9400,-22,-242,-46,114,14,-44
9405,-23,-240,-46,114,17,-42
9410,-23,-239,-43,109,20,-42
9415,-21,-241,-46,101,23,-45
9420,-22,-241,-42,93,24,-46
9425,-21,-242,-47,84,25,-46
9430,-22,-243,-44,74,23,-46
9435,-22,-243,-46,68,24,-46
9440,-22,-244,-44,67,23,-47
9445,-22,-246,-40,69,21,-45
9450,-22,-244,-42,74,20,-45
9455,-22,-246,-42,80,19,-43
9460,-19,-252,-41,88,19,-40
9465,-20,-245,-38,98,20,-38
9470,-18,-250,-42,109,19,-35
9475,-16,-250,-42,121,20,-33
9480,-14,-246,-39,133,18,-30
9485,-20,-246,-39,143,19,-29
9490,-19,-247,-41,151,17,-30
9495,-16,-248,-41,156,12,-33
9500,-18,-247,-45,160,10,-35
9505,-20,-246,-44,160,6,-38
9510,-19,-243,-41,159,2,-40
9515,-20,-241,-41,157,0,-42
9520,-25,-241,-37,156,-2,-44
9525,-25,-242,-40,152,-5,-45
9530,-27,-242,-39,149,-7,-44
9535,-26,-243,-37,150,-8,-44
9540,-23,-245,-37,152,-9,-43
9545,-24,-247,-35,156,-9,-38
9550,-25,-246,-39,159,-11,-35
9555,-23,-245,-41,161,-11,-30
9560,-22,-244,-36,160,-12,-25
9565,-21,-246,-30,160,-13,-22
9570,-27,-243,-34,156,-12,-18
9575,-24,-245,-38,153,-11,-16
9580,-22,-249,-35,151,-10,-14
9585,-23,-247,-36,149,-6,-12
9590,-20,-246,-37,145,-6,-8
9595,-19,-246,-37,142,-4,-10
9600,-18,-245,-36,139,-1,-10
9605,-19,-242,-39,132,2,-8
9610,-18,-244,-39,126,2,-7
9615,-20,-242,-38,120,3,-8
9620,-21,-244,-36,115,6,-9
9625,-17,-243,-38,113,6,-7
9630,-20,-244,-35,111,6,-8
9635,-26,-240,-29,112,4,-8
9640,-23,-251,-20,114,3,-8
9645,-20,-243,-38,116,2,-7
9650,-21,-247,-32,117,1,-7
9655,-20,-245,-29,115,0,-6
9660,-25,-244,-37,113,1,-4
9665,-23,-242,-33,111,2,-1
9670,-26,-244,-38,110,4,2
9675,-23,-250,-33,111,6,3
9680,-24,-247,-34,115,7,5
9685,-25,-248,-32,120,10,6
9690,-27,-256,-34,126,12,11
9695,-28,-249,-36,133,17,15
9700,-24,-252,-29,138,19,20
9705,-26,-249,-29,144,22,24
9710,-27,-246,-34,146,24,28
9715,-27,-247,-35,145,27,32
9720,-24,-247,-36,144,29,34
9725,-29,-246,-34,139,31,37
9730,-28,-246,-36,132,34,38
9735,-27,-246,-33,127,35,37
9740,-25,-245,-29,122,38,37
9745,-27,-245,-33,119,41,35
9750,-30,-245,-33,120,42,36
9755,-27,-246,-30,122,44,37
9760,-24,-246,-30,126,46,38
9765,-26,-247,-28,130,47,37
9770,-27,-245,-31,134,45,40
9775,-23,-246,-33,136,48,39
9780,-26,-245,-29,136,48,39
9785,-21,-247,-29,135,46,35
9790,-25,-242,-29,133,44,34
9795,-27,-242,-30,130,42,29
9800,-24,-245,-31,129,42,25
9805,-26,-246,-32,124,41,25
9810,-25,-247,-30,121,40,22
9815,-27,-245,-29,119,38,21
9820,-26,-243,-31,119,38,21
9825,-27,-245,-30,117,39,17
9830,-28,-241,-31,116,37,17
9835,-27,-246,-26,117,34,18
9840,-26,-246,-26,117,32,19
9845,-26,-246,-28,117,31,20
9850,-25,-244,-28,115,27,22
9855,-28,-243,-30,114,23,22
9860,-26,-246,-29,114,20,23
9865,-21,-246,-23,114,15,23
9870,-25,-243,-27,115,11,24
9875,-26,-245,-30,115,3,23
9880,-26,-247,-31,115,-4,21
9885,-26,-243,-24,117,-10,20
9890,-26,-243,-27,119,-16,20
9895,-25,-247,-25,118,-21,19
9900,-27,-242,-28,117,-26,18
9905,-27,-243,-30,115,-27,18
9910,-23,-244,-27,111,-29,18
9915,-23,-240,-31,108,-29,18
9920,-23,-242,-29,106,-29,19
9925,-23,-238,-34,101,-26,19
9930,-25,-238,-31,94,-24,20
9935,-22,-236,-36,89,-19,22
9940,-21,-235,-31,83,-16,23
9945,-22,-235,-31,76,-13,25
9950,-14,-250,-36,69,-10,25
9955,-20,-235,-30,60,-7,28
9960,-19,-238,-27,52,-3,30
9965,-19,-236,-25,42,0,31
9970,-19,-239,-27,32,3,33
9975,-16,-242,-26,21,6,33
9980,-19,-242,-22,11,8,33
9985,-19,-245,-26,3,7,31
9990,-17,-246,-28,-1,6,31
9995,-18,-247,-22,-4,3,30
10000,-20,-251,-26,-6,0,27
10005,-21,-247,-24,-4,-2,26
10010,-23,-258,-21,-1,-3,26
10015,-21,-251,-21,3,-4,23
10020,-20,-251,-28,9,-4,22
10025,-23,-254,-26,14,-5,22
10030,-25,-252,-20,19,-6,23
10035,-26,-250,-25,25,-6,21
10040,-26,-249,-30,29,-5,22
10045,-28,-251,-28,37,-6,20
10050,-26,-249,-29,41,-7,19
10055,-27,-250,-31,43,-9,16
10060,-33,-249,-25,43,-12,14
10065,-27,-251,-26,43,-14,13
10070,-31,-248,-26,43,-17,12
10075,-32,-247,-28,42,-18,11
10080,-31,-249,-26,42,-18,9
10085,-33,-249,-26,42,-17,8
10090,-35,-246,-27,41,-15,9
10095,-34,-242,-25,42,-15,9
10100,-38,-242,-26,41,-14,11
10105,-38,-242,-23,39,-13,12
10110,-37,-239,-24,36,-11,14
10115,-35,-241,-25,34,-11,15
10120,-34,-237,-25,28,-12,15
10125,-36,-238,-26,24,-12,15
10130,-34,-236,-24,18,-11,15
10135,-31,-240,-26,11,-8,14
10140,-28,-242,-21,6,-8,10
10145,-28,-241,-27,1,-7,7
10150,-31,-241,-28,-3,-5,4
10155,-30,-243,-29,-8,-1,-1
10160,-30,-243,-26,-14,2,-4
10165,-30,-242,-30,-19,7,-8
10170,-30,-241,-31,-26,10,-9
10175,-31,-242,-30,-32,14,-11
10180,-27,-242,-32,-38,18,-12
10185,-31,-246,-32,-43,21,-11
10190,-31,-246,-31,-46,24,-11
10195,-30,-245,-33,-47,24,-10
10200,-27,-245,-30,-47,24,-6
10205,-31,-248,-36,-47,23,-4
10210,-30,-248,-37,-45,21,-1
10215,-26,-248,-41,-42,19,3
10220,-29,-248,-36,-40,16,6
10225,-27,-249,-26,-37,11,10
10230,-29,-247,-40,-33,8,12
10235,-29,-247,-42,-27,5,13
10240,-28,-247,-42,-20,1,13
10245,-25,-250,-36,-15,-3,14
10250,-26,-248,-43,-7,-6,14
10255,-28,-248,-41,-3,-9,16
10260,-26,-248,-40,2,-12,15
10265,-27,-244,-45,7,-14,14
10270,-27,-247,-41,11,-17,14
10275,-32,-248,-37,19,-21,11
10280,-28,-247,-41,25,-24,12
10285,-33,-247,-38,32,-26,12
10290,-30,-245,-39,41,-29,11
10295,-33,-245,-41,47,-30,11
10300,-33,-244,-38,53,-30,13
10305,-33,-246,-38,55,-29,13
10310,-35,-246,-41,58,-27,12
10315,-38,-244,-39,60,-25,15
10320,-34,-245,-33,60,-21,14
10325,-33,-246,-34,61,-18,16
10330,-34,-246,-37,64,-14,19
10335,-33,-246,-37,68,-11,18
10340,-29,-246,-40,69,-9,18
10345,-31,-244,-34,70,-7,19
10350,-31,-245,-36,69,-7,19
10355,-29,-243,-35,69,-4,17
10360,-28,-246,-34,68,-4,17
10365,-31,-243,-34,66,-4,15
10370,-30,-245,-35,62,-3,13
10375,-28,-245,-33,59,-1,11
10380,-29,-243,-32,57,-1,8
10385,-31,-245,-31,54,1,6
10390,-27,-243,-32,52,3,3
10395,-27,-245,-30,53,6,0
10400,-27,-247,-34,52,8,-2
10405,-28,-246,-32,51,11,-5
10410,-25,-248,-35,53,13,-8
10415,-26,-242,-37,54,16,-11
10420,-25,-243,-32,56,18,-13
10425,-26,-246,-35,56,19,-15
10430,-26,-240,-33,59,21,-19
10435,-28,-245,-29,59,22,-19
10440,-21,-245,-41,61,23,-19
10445,-27,-246,-34,61,21,-18
10450,-28,-243,-30,61,22,-16
10455,-28,-245,-35,60,21,-16
10460,-29,-242,-31,60,22,-13
10465,-25,-245,-33,58,20,-10
10470,-27,-243,-34,57,20,-8
10475,-28,-244,-33,56,18,-6
10480,-27,-245,-33,54,16,-5
10485,-27,-246,-29,53,16,-4
10490,-29,-243,-35,52,17,-3
10495,-26,-246,-32,49,18,-1
10500,-28,-247,-36,51,17,-1
10505,-27,-245,-31,49,18,-1
10510,-26,-245,-32,50,18,1
10515,-24,-245,-34,51,19,3
10520,-29,-244,-34,53,20,5
10525,-27,-247,-33,54,20,7
10530,-27,-245,-34,55,21,6
10535,-28,-245,-30,53,20,8
10540,-27,-243,-34,50,19,8
10545,-33,-249,-30,46,20,7
10550,-25,-246,-33,44,21,7
10555,-27,-247,-32,43,22,6
10560,-25,-245,-37,42,23,4
10565,-26,-247,-32,43,25,2
10570,-26,-246,-34,44,26,1
10575,-28,-245,-31,47,26,-2
10580,-25,-248,-35,49,29,-5
10585,-30,-245,-34,52,28,-7
10590,-29,-245,-36,55,28,-5
10595,-29,-242,-35,59,29,-8
10600,-29,-243,-31,60,30,-7
10605,-27,-244,-38,63,30,-7
10610,-28,-250,-34,63,29,-5
10615,-27,-243,-33,63,29,-3
10620,-28,-243,-33,62,28,-2
10625,-29,-245,-34,63,27,-3
10630,-30,-245,-34,61,25,-4
10635,-32,-245,-30,60,25,-3
10640,-27,-246,-32,59,22,-2
10645,-29,-246,-29,58,20,-2
10650,-30,-245,-32,56,19,1
10655,-30,-247,-33,52,19,-1
10660,-33,-245,-29,50,17,1
10665,-30,-245,-31,48,14,-1
10670,-31,-243,-30,45,12,0
10675,-31,-243,-35,43,10,0
10680,-32,-246,-34,42,8,1
10685,-31,-245,-28,42,7,0
10690,-33,-246,-31,41,6,0
10695,-36,-244,-32,41,6,-1
10700,-34,-244,-34,41,7,-1
10705,-34,-241,-32,41,9,1
10710,-32,-244,-36,39,10,2
10715,-31,-244,-38,39,11,1
10720,-31,-243,-36,38,11,1
10725,-32,-243,-33,38,14,-1
10730,-31,-246,-32,39,13,-1
10735,-34,-244,-32,39,13,-2
10740,-34,-244,-33,41,14,-1
10745,-34,-243,-33,43,13,-1
10750,-28,-244,-31,44,15,0
10755,-34,-224,-32,47,15,0
10760,-43,-253,-43,49,13,0
10765,-31,-245,-34,50,14,0
10770,-33,-241,-29,51,12,1
10775,-33,-246,-36,50,11,1
10780,-31,-241,-33,48,8,0
10785,-35,-245,-34,46,7,-3
10790,-33,-241,-32,43,8,-4
10795,-32,-247,-34,40,8,-6
10800,-30,-247,-32,38,7,-8
10805,-33,-243,-31,37,8,-7
10810,-32,-244,-34,36,9,-9
10815,-33,-242,-35,35,12,-7
10820,-32,-245,-34,34,15,-8
10825,-32,-245,-33,36,15,-8
10830,-33,-244,-31,37,16,-7
10835,-32,-248,-36,38,17,-5
10840,-36,-245,-29,39,17,-2
10845,-29,-245,-32,41,16,-2
10850,-28,-244,-38,44,16,-2
10855,-31,-246,-34,46,17,-2
10860,-29,-244,-39,49,15,-3
10865,-30,-245,-36,50,14,-2
10870,-33,-245,-36,52,12,-4
10875,-27,-246,-29,53,11,-5
10880,-31,-246,-38,55,12,-6
10885,-27,-244,-34,56,11,-8
10890,-28,-247,-35,57,10,-9
10895,-31,-247,-35,58,10,-10
10900,-29,-247,-32,60,12,-9
10905,-29,-247,-32,63,13,-8
10910,-30,-248,-31,65,14,-7
10915,-30,-245,-34,66,14,-8
10920,-29,-244,-34,68,15,-8
10925,-31,-241,-33,70,16,-6
10930,-27,-243,-35,70,16,-6
10935,-27,-245,-34,69,16,-6
10940,-31,-240,-35,65,15,-7
10945,-30,-245,-35,61,14,-9
10950,-30,-244,-33,57,14,-8
10955,-31,-245,-33,56,13,-10
10960,-31,-243,-35,58,14,-10
10965,-29,-246,-40,57,15,-11
10970,-30,-244,-34,57,14,-12
10975,-30,-245,-36,59,16,-12
10980,-31,-244,-36,59,16,-12
10985,-29,-243,-38,60,16,-13
10990,-31,-245,-37,60,15,-14
10995,-29,-244,-36,58,16,-12
11000,-29,-246,-36,59,16,-11
11005,-30,-245,-36,60,12,-11
11010,-30,-245,-38,59,12,-11
11015,-30,-245,-39,60,12,-12
11020,-30,-247,-32,61,10,-12
11025,-27,-252,-24,63,9,-11
11030,-31,-247,-35,65,8,-12
11035,-31,-243,-36,67,7,-9
11040,-32,-245,-37,69,9,-11
11045,-25,-246,-36,71,7,-8
11050,-30,-244,-34,73,9,-8
11055,-27,-243,-34,72,9,-7
11060,-32,-246,-35,73,10,-7
11065,-30,-241,-37,73,10,-5
11070,-29,-241,-37,73,10,-4
11075,-28,-242,-34,74,10,-5
11080,-27,-245,-36,76,10,-3
11085,-28,-245,-30,78,11,-4
11090,-27,-245,-32,80,11,-5
11095,-30,-249,-31,83,10,-4
11100,-27,-243,-31,87,10,-5
11105,-30,-247,-31,91,10,-8
11110,-30,-247,-28,94,10,-8
11115,-32,-245,-31,98,9,-7
11120,-28,-245,-31,100,9,-9
11125,-26,-249,-32,104,11,-8
11130,-30,-245,-38,106,12,-7
11135,-30,-245,-32,107,10,-8
11140,-30,-242,-31,106,10,-7
11145,-33,-242,-33,106,9,-6
11150,-35,-244,-38,106,10,-7
11155,-32,-246,-33,106,10,-7
11160,-31,-244,-33,106,9,-9
11165,-32,-247,-31,107,8,-9
11170,-34,-244,-33,108,7,-9
11175,-29,-247,-33,110,7,-8
11180,-33,-246,-32,114,7,-7
11185,-32,-247,-31,116,6,-5
11190,-29,-247,-38,121,6,-4
11195,-31,-246,-31,124,6,-4
11200,-32,-244,-29,128,7,-3
11205,-30,-247,-31,132,7,-2
11210,-32,-246,-30,136,9,-1
11215,-28,-246,-32,140,11,1
11220,-34,-245,-29,144,13,0
11225,-32,-242,-32,145,13,3
11230,-30,-246,-34,145,13,3
11235,-32,-243,-29,145,16,2
11240,-34,-243,-28,143,15,0
11245,-33,-245,-28,143,15,0
11250,-33,-243,-28,139,14,-1
11255,-34,-247,-29,139,14,-3
11260,-30,-244,-28,138,12,-3
11265,-30,-244,-26,137,11,-3
11270,-29,-248,-22,138,7,-7
11275,-29,-247,-24,140,8,-6
11280,-35,-244,-25,139,8,-5
11285,-35,-243,-27,139,6,-4
11290,-32,-243,-25,138,7,-2
11295,-32,-244,-27,135,6,-1
11300,-30,-243,-30,132,5,0
11305,-30,-240,-25,126,4,1
11310,-31,-242,-26,121,6,2
11315,-27,-245,-33,114,7,1
11320,-32,-243,-24,110,6,2
11325,-30,-243,-28,106,7,0
11330,-29,-243,-27,103,7,-2
11335,-32,-243,-26,101,6,-3
11340,-29,-244,-29,98,6,-4
11345,-36,-241,-30,98,5,-5
11350,-32,-244,-28,95,7,-6
11355,-30,-246,-26,93,8,-6
11360,-31,-245,-29,91,10,-6
11365,-34,-243,-27,87,10,-6
11370,-34,-243,-28,85,11,-5
11375,-32,-246,-28,83,11,-5
11380,-32,-244,-28,83,13,-3
11385,-32,-246,-28,82,13,-2
11390,-30,-244,-29,81,13,-2
11395,-31,-244,-25,82,14,-1
11400,-35,-242,-27,81,13,-2
11405,-37,-247,-23,78,13,-2
11410,-32,-243,-28,75,10,-3
11415,-34,-247,-27,72,10,-4
11420,-33,-245,-27,69,11,-3
11425,-32,-240,-26,67,12,-4
11430,-34,-246,-24,65,11,-5
11435,-31,-243,-23,65,12,-7
11440,-32,-242,-28,65,13,-7
11445,-31,-246,-27,64,14,-7
11450,-32,-246,-28,63,15,-6
11455,-31,-246,-27,62,14,-8
11460,-35,-247,-26,60,15,-7
11465,-32,-246,-27,59,15,-8
11470,-34,-248,-23,60,15,-9
11475,-32,-244,-25,61,15,-10
11480,-33,-246,-27,62,15,-8
11485,-33,-246,-26,63,15,-6
11490,-33,-246,-27,66,14,-8
11495,-33,-249,-31,68,15,-8
11500,-30,-248,-26,69,16,-7
11505,-33,-243,-25,69,15,-8
11510,-30,-247,-27,67,15,-6
11515,-34,-244,-26,64,15,-5
11520,-32,-245,-29,62,13,-4
11525,-32,-244,-30,58,13,-2
11530,-32,-248,-26,56,14,-1
11535,-29,-246,-26,54,12,-3
11540,-30,-245,-21,50,12,-3
11545,-31,-242,-25,50,12,-2
11550,-30,-243,-27,49,12,-3
11555,-27,-247,-26,46,11,-3
11560,-32,-247,-25,45,13,-3
11565,-35,-243,-24,46,14,-3
11570,-32,-244,-25,46,15,-5
11575,-32,-244,-25,47,16,-7
11580,-35,-244,-26,46,15,-8
11585,-32,-245,-25,43,15,-9
11590,-34,-242,-26,39,16,-10
11595,-32,-243,-26,37,15,-10
11600,-33,-244,-28,34,17,-11
11605,-28,-242,-29,32,18,-11
11610,-32,-244,-28,32,18,-12
11615,-28,-251,-28,35,18,-11
11620,-39,-244,-32,38,17,-14
11625,-31,-246,-24,40,17,-13
11630,-30,-247,-28,40,18,-13
11635,-30,-244,-24,42,18,-14
11640,-34,-244,-27,40,18,-14
11645,-33,-245,-24,37,16,-12
11650,-33,-243,-30,34,14,-14
11655,-31,-244,-27,31,13,-16
11660,-31,-244,-28,26,12,-15
11665,-30,-247,-28,20,11,-16
11670,-31,-247,-24,17,11,-15
11675,-31,-247,-25,16,10,-15
11680,-30,-250,-25,17,9,-16
11685,-34,-245,-26,19,9,-15
11690,-30,-246,-24,20,8,-17
11695,-34,-246,-26,22,8,-16
11700,-35,-248,-22,23,7,-17
11705,-37,-244,-26,24,7,-14
11710,-32,-245,-28,26,7,-15
11715,-31,-247,-31,29,7,-14
11720,-32,-247,-29,33,7,-14
11725,-31,-245,-19,38,6,-15
11730,-33,-247,-22,42,6,-15
11735,-32,-245,-28,45,7,-15
11740,-33,-244,-26,46,6,-14
11745,-33,-247,-25,48,7,-14
11750,-33,-242,-26,49,7,-14
11755,-31,-243,-24,46,9,-13
11760,-32,-243,-23,45,8,-14
11765,-31,-244,-28,45,8,-13
11770,-31,-244,-29,47,7,-14
11775,-35,-243,-26,50,6,-14
11780,-31,-247,-28,53,5,-15
11785,-33,-246,-27,59,4,-17
11790,-32,-243,-27,64,3,-17
11795,-30,-243,-24,67,4,-17
11800,-31,-245,-26,67,1,-17
11805,-31,-241,-26,66,1,-15
11810,-32,-246,-24,62,0,-13
11815,-30,-245,-29,57,0,-16
11820,-30,-246,-29,53,2,-15
11825,-33,-246,-24,50,2,-16
11830,-34,-242,-27,48,3,-15
11835,-33,-245,-27,49,4,-16
11840,-32,-242,-32,48,5,-17
11845,-34,-243,-28,49,7,-17
11850,-34,-244,-29,48,9,-17
11855,-30,-247,-27,45,9,-17
11860,-31,-244,-30,44,10,-17
11865,-32,-239,-28,44,10,-18
11870,-33,-241,-28,44,12,-18
11875,-32,-245,-33,42,12,-18
11880,-33,-246,-27,41,11,-16
11885,-32,-244,-28,39,12,-15
11890,-31,-245,-25,38,14,-16
11895,-32,-241,-31,35,13,-14
11900,-32,-243,-26,34,12,-13
11905,-31,-243,-24,34,12,-13
11910,-31,-246,-27,35,12,-12
11915,-31,-246,-28,37,12,-12
11920,-31,-247,-26,38,11,-12
11925,-29,-247,-28,40,10,-14
11930,-29,-245,-31,42,9,-14
11935,-31,-248,-26,44,7,-15
11940,-26,-246,-28,46,8,-14
11945,-32,-243,-29,48,6,-15
11950,-30,-245,-28,47,6,-15
11955,-31,-248,-30,46,6,-17
11960,-31,-243,-30,45,6,-17
11965,-32,-244,-29,43,7,-17
11970,-31,-246,-29,40,9,-16
11975,-30,-245,-29,37,10,-16
11980,-29,-244,-28,35,12,-16
11985,-32,-244,-26,35,14,-15
11990,-32,-244,-28,34,15,-15
11995,-30,-246,-29,33,13,-16
