timestamp,acc_x,acc_y,acc_z,gyro_x,gyro_y,gyro_z
0,21,-226,-126,-13,50,-1
5,22,-227,-121,-11,50,1
10,23,-228,-122,-9,50,2
15,18,-228,-123,-6,51,2
20,23,-228,-124,-7,49,2
25,19,-225,-121,-6,52,2
30,21,-224,-128,-7,54,3
35,20,-223,-125,-7,52,2
40,23,-228,-125,-7,53,3
45,21,-227,-122,-7,53,2
50,21,-225,-123,-9,53,1
55,21,-224,-123,-8,53,-1
60,22,-226,-126,-6,53,0
65,21,-224,-125,-7,53,0
70,23,-225,-124,-9,53,1
75,21,-226,-120,-8,53,0
80,22,-224,-125,-8,55,0
85,18,-222,-123,-10,56,0
90,21,-224,-124,-11,58,2
95,21,-225,-124,-12,57,1
100,19,-226,-122,-13,57,1
105,22,-223,-123,-14,58,2
110,25,-228,-120,-14,58,2
115,21,-221,-139,-13,58,2
120,13,-227,-125,-14,58,3
125,22,-224,-136,-14,58,3
130,19,-226,-115,-14,58,2
135,30,-229,-125,-14,57,2
140,21,-222,-124,-14,60,3
145,19,-227,-121,-16,60,1
150,31,-218,-128,-16,62,1
155,19,-230,-128,-17,65,1
160,21,-222,-123,-18,67,-1
165,18,-227,-137,-18,68,-4
170,17,-234,-109,-17,68,-7
175,17,-228,-128,-20,69,-9
180,19,-222,-119,-24,68,-9
185,20,-230,-131,-27,67,-8
190,21,-229,-115,-29,67,-8
195,30,-212,-107,-30,66,-8
200,20,-225,-119,-30,64,-6
205,20,-228,-121,-30,65,-4
210,18,-226,-120,-27,64,-3
215,20,-226,-126,-22,63,-1
220,16,-224,-121,-17,64,-1
225,17,-223,-122,-12,64,1
230,20,-228,-125,-9,64,2
235,20,-227,-123,-5,64,3
240,21,-226,-125,-3,64,3
245,20,-227,-124,-3,65,3
250,22,-226,-125,-2,64,3
255,21,-222,-126,-4,64,2
260,21,-225,-122,-7,64,2
265,19,-226,-121,-10,63,2
270,16,-222,-125,-11,63,2
275,20,-226,-120,-13,62,4
280,20,-227,-123,-15,62,4
285,20,-225,-121,-15,61,5
290,19,-223,-126,-16,60,5
295,18,-224,-120,-15,60,5
300,18,-226,-124,-12,61,5
305,21,-227,-123,-11,60,6
310,20,-225,-123,-9,60,5
315,21,-226,-125,-8,60,5
320,19,-225,-123,-6,61,4
325,19,-224,-124,-7,60,5
330,23,-226,-123,-7,61,3
335,20,-226,-125,-6,61,3
340,21,-221,-127,-7,60,3
345,20,-224,-122,-8,62,1
350,21,-225,-124,-8,59,1
355,20,-225,-128,-12,60,0
360,22,-227,-124,-14,60,-1
365,22,-226,-123,-15,60,-1
370,21,-225,-124,-16,57,-4
375,23,-226,-122,-17,59,-3
380,24,-223,-122,-17,57,-4
385,23,-223,-124,-18,55,-3
390,21,-225,-127,-17,56,-2
395,24,-226,-126,-17,53,-1
400,23,-224,-123,-17,53,-2
405,22,-226,-125,-16,52,-2
410,21,-223,-124,-18,53,-2
415,22,-226,-123,-20,52,-2
420,24,-226,-124,-20,53,-2
425,21,-224,-122,-22,54,-1
430,19,-225,-121,-23,54,-5
435,19,-225,-126,-23,54,-4
440,20,-224,-125,-21,56,-6
445,19,-225,-122,-17,55,-6
450,23,-227,-126,-15,56,-5
455,19,-227,-124,-13,56,-7
460,21,-227,-125,-11,59,-5
465,20,-227,-123,-10,60,-4
470,19,-226,-125,-9,61,-4
475,20,-225,-127,-11,61,-2
480,20,-225,-124,-13,61,-5
485,22,-227,-124,-14,60,-4
490,22,-225,-126,-15,59,-4
495,22,-225,-125,-16,60,-4
500,17,-226,-124,-17,59,-4
505,21,-225,-123,-18,60,-4
510,20,-228,-123,-17,60,-4
515,20,-226,-120,-18,60,-3
520,19,-224,-125,-17,60,-3
525,22,-227,-127,-16,60,-2
530,20,-227,-122,-16,61,-2
535,20,-225,-120,-14,60,2
540,18,-224,-120,-14,60,1
545,22,-226,-118,-15,60,4
550,19,-224,-120,-16,58,2
555,22,-224,-126,-17,58,5
560,21,-222,-123,-20,59,5
565,22,-224,-121,-22,59,5
570,19,-223,-123,-27,58,5
575,20,-221,-122,-32,59,5
580,23,-227,-120,-34,59,2
585,21,-221,-125,-37,59,3
590,21,-224,-124,-38,59,2
595,23,-226,-124,-40,60,3
600,21,-223,-128,-41,62,1
605,22,-224,-127,-41,63,2
610,21,-224,-125,-39,64,0
615,21,-226,-126,-37,65,-1
620,20,-224,-123,-33,64,-2
625,20,-226,-124,-31,62,-1
630,20,-224,-124,-30,63,0
635,19,-225,-124,-27,62,0
640,19,-224,-126,-29,63,-3
645,21,-223,-128,-31,62,-2
650,19,-224,-126,-33,61,-4
655,20,-225,-125,-34,60,-3
660,19,-222,-129,-38,59,-5
665,19,-222,-128,-39,58,-3
670,19,-227,-123,-40,58,-3
675,18,-227,-126,-38,59,-1
680,20,-225,-124,-35,59,-1
685,22,-224,-125,-36,57,0
690,20,-224,-120,-32,60,0
695,22,-227,-125,-28,60,1
700,18,-227,-122,-24,59,1
705,19,-224,-123,-23,58,3
710,20,-226,-125,-21,57,3
715,20,-226,-129,-20,58,4
720,20,-225,-124,-18,59,5
725,21,-223,-126,-18,59,5
730,19,-221,-126,-18,59,5
735,18,-224,-125,-19,59,6
740,21,-225,-124,-21,58,5
745,22,-226,-127,-20,59,6
750,23,-226,-127,-22,59,3
755,21,-226,-128,-23,60,4
760,20,-225,-122,-23,59,4
765,19,-225,-127,-23,62,3
770,21,-224,-125,-22,59,2
775,21,-228,-122,-22,62,1
780,19,-225,-123,-22,63,-1
785,21,-225,-121,-22,63,1
790,19,-223,-120,-22,63,0
795,22,-222,-124,-19,61,2
800,18,-225,-123,-19,60,1
805,23,-223,-124,-19,59,4
810,19,-226,-123,-19,58,1
815,19,-226,-127,-19,60,3
820,24,-224,-127,-19,59,3
825,20,-224,-122,-19,58,5
830,20,-225,-123,-20,57,3
835,22,-226,-128,-21,58,3
840,22,-224,-124,-23,56,3
845,24,-228,-127,-25,57,5
850,18,-225,-124,-26,57,5
855,20,-222,-126,-29,58,7
860,19,-224,-126,-30,57,4
865,19,-221,-123,-31,56,6
870,23,-223,-125,-32,56,5
875,22,-226,-126,-32,58,6
880,19,-224,-129,-32,56,6
885,22,-223,-126,-34,56,5
890,18,-220,-126,-34,57,5
895,21,-221,-122,-36,56,6
900,17,-223,-128,-38,56,4
905,22,-224,-125,-40,57,4
910,19,-227,-125,-42,59,1
915,21,-224,-128,-46,59,3
920,20,-223,-125,-49,61,0
925,19,-223,-123,-52,63,0
930,19,-224,-127,-54,64,-4
935,20,-226,-127,-54,65,-3
940,20,-223,-125,-52,65,-6
945,19,-225,-124,-50,64,-6
950,21,-224,-130,-48,63,-7
955,21,-225,-126,-43,63,-5
960,20,-224,-123,-38,64,-7
965,18,-224,-123,-34,62,-5
970,20,-224,-128,-30,62,-5
975,17,-220,-125,-27,62,-2
980,16,-225,-124,-24,61,-3
985,20,-225,-130,-23,59,-1
990,18,-225,-127,-23,59,-1
995,19,-226,-124,-24,57,2
1000,18,-220,-127,-25,56,0
1005,17,-225,-128,-27,55,3
1010,19,-224,-127,-27,57,2
1015,18,-223,-125,-27,56,4
1020,20,-224,-124,-27,56,-1
1025,16,-224,-128,-27,57,1
1030,18,-224,-124,-27,59,-2
1035,21,-224,-121,-27,59,-1
1040,19,-227,-126,-27,58,-3
1045,20,-224,-126,-26,59,-3
1050,20,-225,-123,-23,61,-6
1055,21,-225,-127,-24,60,-3
1060,18,-223,-124,-23,61,-7
1065,19,-226,-126,-22,61,-4
1070,18,-223,-126,-22,60,-6
1075,19,-224,-126,-22,60,-5
1080,21,-223,-125,-22,59,-6
1085,19,-227,-125,-20,58,-4
1090,19,-224,-125,-20,58,-5
1095,20,-223,-126,-20,57,-3
1100,20,-226,-124,-20,56,-5
1105,17,-222,-125,-21,56,-3
1110,23,-224,-124,-22,55,-5
1115,18,-223,-127,-25,54,-3
1120,21,-224,-124,-25,54,-5
1125,21,-222,-126,-26,56,-4
1130,17,-224,-123,-27,57,-5
1135,20,-224,-125,-27,58,-4
1140,19,-225,-126,-26,59,-6
1145,20,-222,-127,-24,60,-4
1150,22,-227,-126,-22,61,-4
1155,22,-225,-128,-20,62,-2
1160,20,-226,-127,-18,64,-5
1165,22,-223,-127,-17,65,0
1170,19,-225,-126,-15,66,-3
1175,21,-224,-124,-13,66,-1
1180,18,-226,-128,-15,66,-2
1185,22,-223,-126,-16,65,-1
1190,20,-225,-125,-18,63,-1
1195,20,-225,-125,-20,64,-1
1200,20,-221,-129,-24,63,-3
1205,21,-223,-129,-27,61,-3
1210,21,-226,-124,-31,61,-8
1215,19,-224,-127,-34,60,-7
1220,18,-222,-128,-37,60,-11
1225,20,-221,-126,-40,61,-11
1230,20,-221,-130,-43,59,-14
1235,16,-223,-127,-46,57,-14
1240,21,-226,-126,-47,58,-16
1245,16,-222,-126,-49,56,-12
1250,19,-224,-126,-50,55,-14
1255,17,-225,-123,-50,57,-13
1260,21,-222,-126,-51,56,-14
1265,19,-219,-127,-53,57,-10
1270,19,-225,-121,-52,55,-13
1275,21,-223,-126,-51,57,-9
1280,20,-224,-123,-49,56,-10
1285,22,-225,-128,-49,57,-7
1290,19,-223,-130,-49,57,-9
1295,22,-223,-127,-49,55,-6
1300,23,-222,-125,-48,55,-8
1305,22,-225,-127,-47,56,-4
1310,23,-224,-131,-46,54,-7
1315,17,-225,-127,-46,55,-6
1320,21,-225,-125,-42,57,-8
1325,21,-225,-129,-41,56,-4
1330,19,-223,-126,-39,56,-8
1335,20,-223,-124,-37,56,-5
1340,20,-223,-129,-34,55,-6
1345,20,-224,-130,-32,57,-4
1350,19,-221,-131,-30,58,-6
1355,23,-224,-128,-30,58,-4
1360,22,-222,-129,-30,57,-7
1365,21,-223,-132,-32,56,-5
1370,20,-222,-127,-34,57,-8
1375,21,-220,-125,-38,57,-7
1380,20,-220,-128,-39,58,-9
1385,22,-224,-129,-41,57,-8
1390,20,-224,-128,-45,58,-10
1395,21,-220,-127,-47,57,-10
1400,21,-224,-127,-49,56,-12
1405,20,-225,-128,-48,56,-10
1410,22,-225,-129,-47,57,-13
1415,23,-223,-129,-46,58,-8
1420,21,-223,-127,-45,58,-11
1425,20,-220,-126,-44,57,-7
1430,19,-220,-129,-43,58,-10
1435,20,-221,-127,-44,59,-6
1440,20,-222,-127,-42,60,-8
1445,19,-225,-127,-42,62,-5
1450,21,-224,-128,-42,64,-9
1455,20,-222,-128,-42,62,-5
1460,18,-223,-130,-43,62,-9
1465,19,-221,-130,-42,63,-7
1470,20,-223,-128,-43,63,-11
1475,19,-222,-131,-44,62,-9
1480,20,-224,-129,-43,63,-12
1485,19,-220,-129,-42,63,-10
1490,20,-221,-126,-42,62,-12
1495,21,-224,-128,-42,62,-10
1500,22,-224,-128,-40,62,-11
1505,23,-224,-131,-40,63,-9
1510,19,-223,-130,-40,63,-9
1515,19,-223,-126,-37,62,-7
1520,18,-221,-131,-34,61,-10
1525,20,-222,-132,-34,62,-6
1530,21,-224,-129,-32,62,-9
1535,24,-222,-129,-31,62,-5
1540,19,-220,-133,-31,60,-6
1545,20,-222,-129,-32,61,-4
1550,21,-221,-131,-32,61,-5
1555,21,-223,-130,-32,61,-2
1560,23,-223,-130,-34,61,-3
1565,21,-222,-129,-33,61,-3
1570,20,-221,-132,-32,62,-5
1575,22,-220,-130,-31,62,-4
1580,22,-224,-125,-31,62,-6
1585,21,-222,-131,-29,65,-4
1590,21,-222,-128,-27,66,-6
1595,19,-222,-126,-27,66,-4
1600,20,-221,-130,-26,67,-7
1605,20,-220,-131,-24,69,-5
1610,20,-220,-127,-23,68,-10
1615,24,-222,-131,-22,68,-9
1620,21,-220,-131,-21,67,-11
1625,21,-222,-127,-20,67,-11
1630,17,-222,-133,-18,67,-13
1635,22,-222,-131,-21,64,-10
1640,24,-222,-131,-18,64,-10
1645,20,-221,-132,-18,62,-7
1650,21,-220,-127,-17,61,-9
1655,19,-223,-130,-15,62,-6
1660,20,-220,-134,-12,61,-7
1665,22,-223,-127,-12,62,-5
1670,21,-222,-130,-11,63,-8
1675,20,-220,-130,-10,63,-5
1680,20,-222,-133,-10,61,-8
1685,20,-222,-129,-9,64,-6
1690,17,-220,-132,-7,63,-7
1695,22,-226,-132,-7,63,-5
1700,21,-222,-132,-8,64,-6
1705,20,-219,-130,-9,63,-4
1710,21,-220,-127,-9,64,-7
1715,20,-222,-132,-10,64,-5
1720,22,-220,-130,-11,65,-7
1725,21,-223,-128,-14,64,-5
1730,22,-221,-127,-14,65,-7
1735,21,-221,-129,-14,68,-5
1740,22,-224,-130,-13,68,-6
1745,19,-218,-129,-13,69,-6
1750,23,-224,-127,-12,69,-7
1755,21,-224,-128,-11,69,-6
1760,20,-224,-132,-10,69,-8
1765,24,-223,-130,-7,69,-7
1770,24,-223,-130,-5,71,-10
1775,23,-222,-131,-1,68,-7
1780,22,-222,-129,2,70,-11
1785,23,-223,-129,6,71,-10
1790,23,-223,-124,9,71,-13
1795,22,-223,-126,10,71,-12
1800,20,-221,-130,10,69,-14
1805,22,-223,-125,7,68,-13
1810,20,-224,-130,4,66,-15
1815,18,-220,-125,2,64,-13
1820,19,-222,-127,-1,64,-14
1825,20,-222,-129,-6,64,-11
1830,20,-222,-127,-5,63,-10
1835,18,-221,-128,-7,63,-6
1840,19,-224,-128,-8,63,-6
1845,17,-222,-127,-7,65,-2
1850,19,-224,-126,-9,67,0
1855,19,-225,-124,-7,73,5
1860,22,-227,-123,-4,77,4
1865,27,-231,-118,3,84,4
1870,33,-233,-119,13,92,-4
1875,36,-236,-120,24,97,-9
1880,40,-236,-120,35,99,-26
1885,40,-237,-119,37,98,-43
1890,39,-232,-122,27,92,-66
1895,38,-233,-128,2,80,-94
1900,39,-232,-126,-46,67,-123
1905,40,-235,-131,-92,56,-149
1910,51,-225,-119,-141,44,-179
1915,36,-227,-128,-189,35,-203
1920,37,-222,-128,-229,23,-230
1925,38,-221,-136,-260,7,-250
1930,34,-216,-132,-282,-4,-264
1935,36,-217,-130,-299,-13,-272
1940,36,-215,-130,-311,-19,-282
1945,36,-213,-130,-323,-20,-282
1950,40,-215,-132,-331,-17,-285
1955,40,-213,-133,-334,-13,-279
1960,40,-212,-135,-333,-6,-272
1965,38,-212,-139,-321,9,-259
1970,40,-211,-141,-303,23,-248
1975,39,-216,-141,-279,41,-234
1980,37,-219,-138,-246,63,-223
1985,41,-221,-140,-214,88,-209
1990,39,-228,-139,-181,115,-201
1995,39,-224,-139,-153,142,-187
2000,38,-225,-140,-124,175,-180
2005,37,-222,-140,-104,201,-167
2010,34,-219,-142,-96,225,-159
2015,33,-221,-143,-94,246,-149
2020,32,-222,-144,-103,265,-146
2025,30,-223,-139,-120,286,-140
2030,28,-217,-139,-139,298,-146
2035,29,-223,-139,-154,308,-152
2040,26,-217,-137,-163,319,-161
2045,22,-220,-136,-165,331,-173
2050,18,-219,-139,-155,340,-193
2055,17,-214,-132,-134,347,-209
2060,14,-214,-132,-117,351,-228
2065,14,-218,-132,-99,354,-246
2070,15,-216,-132,-84,358,-263
2075,9,-213,-137,-73,360,-276
2080,11,-213,-131,-67,357,-284
2085,9,-211,-135,-66,348,-291
2090,10,-213,-136,-71,340,-296
2095,6,-205,-137,-81,331,-300
2100,7,-211,-137,-91,323,-308
2105,3,-211,-141,-107,317,-314
2110,10,-214,-143,-118,310,-322
2115,7,-212,-138,-127,305,-327
2120,9,-217,-143,-129,300,-333
2125,7,-220,-144,-128,294,-337
2130,7,-221,-145,-121,286,-342
2135,7,-220,-141,-109,278,-347
2140,9,-221,-144,-94,269,-353
2145,10,-223,-145,-79,259,-357
2150,9,-224,-144,-65,248,-369
2155,10,-221,-144,-52,236,-381
2160,11,-221,-142,-41,226,-391
2165,10,-222,-145,-33,216,-401
2170,11,-219,-139,-26,205,-410
2175,10,-215,-140,-23,197,-415
2180,13,-214,-139,-24,185,-426
2185,12,-215,-136,-31,169,-437
2190,17,-215,-136,-40,152,-449
2195,14,-216,-135,-57,132,-459
2200,10,-218,-130,-76,111,-479
2205,9,-221,-130,-95,87,-503
2210,12,-221,-129,-120,70,-525
2215,9,-225,-130,-140,61,-543
2220,9,-223,-131,-156,54,-568
2225,8,-226,-132,-168,53,-587
2230,11,-223,-134,-177,54,-604
2235,8,-224,-133,-179,58,-617
2240,13,-225,-131,-176,61,-630
2245,11,-224,-134,-171,70,-640
2250,15,-221,-135,-165,77,-652
2255,19,-222,-140,-161,95,-654
2260,20,-223,-141,-168,114,-658
2265,23,-221,-145,-180,123,-669
2270,29,-221,-148,-195,134,-677
2275,31,-221,-150,-216,143,-686
2280,33,-224,-152,-242,155,-694
2285,37,-224,-154,-279,160,-702
2290,43,-224,-159,-320,164,-711
2295,46,-225,-162,-369,171,-718
2300,51,-225,-164,-420,175,-729
2305,55,-224,-167,-464,178,-739
2310,56,-223,-167,-505,182,-753
2315,64,-228,-166,-527,187,-770
2320,65,-223,-166,-537,191,-787
2325,68,-220,-167,-534,198,-803
2330,71,-219,-166,-526,206,-824
2335,73,-217,-167,-509,215,-849
2340,76,-222,-166,-485,224,-877
2345,79,-216,-166,-453,232,-905
2350,81,-218,-161,-414,240,-935
2355,83,-217,-161,-360,246,-960
2360,82,-219,-156,-296,245,-991
2365,86,-214,-158,-208,244,-1022
2370,87,-213,-157,-138,241,-1049
2375,87,-210,-148,-81,242,-1075
2380,87,-212,-148,-34,244,-1094
2385,86,-210,-146,15,244,-1104
2390,87,-204,-146,61,246,-1114
2395,80,-198,-142,101,253,-1119
2400,85,-194,-137,129,254,-1126
2405,84,-185,-135,155,260,-1117
2410,82,-186,-133,173,270,-1087
2415,85,-182,-130,196,273,-1064
2420,87,-178,-140,201,279,-1041
2425,84,-173,-139,189,285,-1020
2430,89,-169,-140,165,293,-996
2435,94,-172,-143,133,310,-978
2440,96,-169,-148,94,328,-965
2445,102,-167,-147,53,345,-957
2450,107,-167,-153,8,361,-954
2455,112,-167,-154,-35,377,-953
2460,112,-166,-148,-72,393,-956
2465,122,-167,-148,-96,407,-958
2470,127,-167,-154,-118,417,-957
2475,136,-172,-144,-135,425,-960
2480,137,-170,-146,-149,432,-960
2485,142,-172,-146,-161,441,-958
2490,139,-170,-147,-169,453,-956
2495,142,-167,-153,-177,467,-956
2500,150,-169,-148,-185,484,-958
2505,145,-167,-150,-186,503,-965
2510,151,-169,-148,-177,523,-972
2515,153,-168,-149,-158,548,-983
2520,149,-163,-144,-130,570,-991
2525,152,-161,-146,-109,595,-996
2530,149,-161,-143,-90,619,-1001
2535,150,-157,-143,-75,645,-1005
2540,148,-151,-143,-66,671,-1002
2545,147,-146,-139,-68,693,-996
2550,148,-149,-140,-82,716,-982
2555,149,-142,-140,-101,733,-964
2560,149,-139,-138,-126,751,-951
2565,146,-138,-136,-151,768,-941
2570,147,-136,-136,-177,781,-934
2575,148,-137,-140,-195,791,-931
2580,149,-138,-138,-208,800,-928
2585,145,-140,-137,-220,810,-932
2590,146,-146,-137,-229,817,-938
2595,144,-148,-135,-235,826,-949
2600,146,-152,-141,-238,835,-958
2605,146,-157,-135,-241,843,-962
2610,147,-158,-141,-238,853,-963
2615,150,-162,-137,-224,859,-965
2620,150,-166,-139,-199,860,-968
2625,155,-165,-141,-181,861,-978
2630,155,-162,-142,-161,855,-989
2635,162,-163,-141,-142,854,-1008
2640,161,-163,-141,-122,851,-1028
2645,159,-166,-143,-104,848,-1052
2650,163,-165,-138,-84,847,-1078
2655,160,-163,-133,-63,847,-1103
2660,161,-161,-129,-45,842,-1124
2665,166,-158,-123,-24,832,-1141
2670,165,-152,-121,-4,815,-1158
2675,172,-153,-116,14,801,-1172
2680,172,-151,-118,22,789,-1178
2685,179,-145,-116,24,780,-1194
2690,182,-139,-115,15,776,-1198
2695,187,-143,-114,-1,774,-1195
2700,193,-141,-114,-16,778,-1191
2705,192,-140,-111,-26,789,-1194
2710,192,-140,-112,-31,796,-1206
2715,197,-141,-114,-29,804,-1226
2720,199,-140,-109,-26,816,-1252
2725,203,-147,-107,-21,846,-1280
2730,196,-144,-104,-13,880,-1318
2735,202,-146,-109,-10,913,-1348
2740,197,-144,-104,-16,949,-1361
2745,198,-144,-101,-27,978,-1360
2750,198,-139,-101,-32,1005,-1355
2755,196,-134,-102,-27,1032,-1352
2760,190,-131,-107,-17,1068,-1347
2765,190,-124,-110,-8,1108,-1339
2770,183,-119,-112,2,1158,-1329
2775,184,-115,-109,11,1200,-1297
2780,187,-114,-106,27,1209,-1264
2785,186,-112,-103,39,1213,-1239
2790,185,-111,-109,53,1201,-1214
2795,188,-108,-109,61,1183,-1193
2800,186,-114,-106,62,1177,-1170
2805,184,-107,-103,54,1163,-1150
2810,183,-111,-98,38,1135,-1113
2815,188,-114,-96,18,1116,-1077
2820,190,-116,-93,-3,1104,-1047
2825,194,-116,-87,-22,1095,-1021
2830,197,-116,-87,-33,1084,-999
2835,205,-115,-86,-32,1069,-980
2840,206,-115,-88,-22,1058,-966
2845,209,-108,-89,-9,1050,-959
2850,215,-107,-87,8,1035,-948
2855,213,-98,-95,26,1020,-945
2860,211,-88,-91,42,1021,-945
2865,215,-91,-92,54,1025,-946
2870,204,-85,-86,60,1033,-955
2875,199,-82,-86,61,1030,-964
2880,200,-76,-82,55,1010,-973
2885,199,-76,-83,36,1004,-990
2890,200,-72,-77,9,1000,-998
2895,202,-68,-75,-26,989,-1003
2900,210,-68,-69,-69,970,-994
2905,213,-67,-77,-118,943,-988
2910,219,-69,-80,-168,916,-975
2915,228,-70,-79,-210,889,-967
2920,231,-69,-80,-239,867,-956
2925,239,-64,-80,-250,846,-950
2930,241,-65,-81,-251,824,-937
2935,242,-62,-73,-247,804,-931
2940,246,-57,-73,-245,790,-923
2945,247,-54,-66,-245,774,-913
2950,247,-52,-68,-248,761,-895
2955,243,-51,-67,-260,751,-879
2960,247,-51,-68,-274,738,-858
2965,244,-50,-62,-288,724,-840
2970,245,-51,-59,-300,716,-815
2975,250,-51,-62,-311,711,-791
2980,247,-48,-62,-322,709,-766
2985,241,-45,-60,-333,707,-732
2990,244,-50,-62,-339,709,-697
2995,239,-46,-55,-343,709,-664
3000,235,-46,-55,-343,708,-625
3005,231,-49,-51,-346,707,-590
3010,229,-47,-54,-357,705,-545
3015,229,-48,-48,-367,696,-506
3020,233,-49,-50,-372,690,-468
3025,231,-48,-52,-374,684,-436
3030,231,-47,-51,-372,682,-406
3035,234,-47,-51,-366,685,-377
3040,239,-47,-52,-355,698,-357
3045,240,-44,-42,-338,713,-345
3050,243,-44,-39,-324,725,-333
3055,244,-38,-41,-306,735,-333
3060,252,-34,-41,-298,749,-329
3065,252,-34,-41,-290,776,-332
3070,254,-34,-42,-285,799,-326
3075,260,-33,-40,-283,817,-324
3080,267,-28,-41,-282,830,-321
3085,269,-22,-38,-278,838,-324
3090,284,-12,-43,-262,845,-333
3095,289,-16,-35,-259,864,-334
3100,297,-19,-29,-250,878,-344
3105,297,-17,-25,-236,898,-359
3110,293,-11,-20,-216,924,-370
3115,287,-8,-17,-200,954,-379
3120,294,-8,-14,-190,975,-388
3125,302,-7,-9,-184,988,-408
3130,301,-4,-10,-177,1006,-418
3135,301,-3,-11,-173,1033,-421
3140,298,-4,-9,-177,1071,-410
3145,298,-4,-7,-178,1100,-408
3150,299,-4,-7,-166,1135,-401
3155,296,-4,0,-136,1159,-407
3160,293,-4,-1,-96,1183,-415
3165,289,-5,6,-52,1205,-428
3170,284,-2,4,-11,1218,-451
3175,281,-2,11,30,1225,-480
3180,276,2,6,60,1243,-498
3185,268,4,7,85,1258,-517
3190,265,6,5,108,1266,-547
3195,263,6,12,131,1271,-568
3200,265,8,13,148,1271,-585
3205,260,12,18,154,1278,-595
3210,264,18,18,157,1285,-585
3215,257,17,24,154,1296,-573
3220,258,20,29,162,1286,-571
3225,257,24,28,170,1276,-576
3230,252,29,26,178,1271,-574
3235,253,31,29,182,1267,-562
3240,246,37,40,187,1255,-539
3245,245,34,39,188,1258,-519
3250,243,35,43,192,1260,-480
3255,237,31,41,195,1244,-438
3260,233,30,52,208,1204,-398
3265,229,29,53,218,1170,-363
3270,230,26,55,227,1130,-316
3275,238,23,52,229,1089,-282
3280,235,28,52,228,1065,-240
3285,240,36,52,237,1037,-207
3290,237,35,52,250,1013,-165
3295,235,32,63,268,978,-120
3300,247,36,59,309,940,-81
3305,240,29,68,340,928,-55
3310,243,29,71,366,914,-25
3315,248,33,69,382,899,1
3320,239,27,77,383,899,39
3325,239,24,75,386,885,73
3330,242,28,77,383,879,112
3335,231,27,83,369,889,149
3340,241,29,80,338,895,184
3345,227,29,88,285,917,224
3350,231,25,92,192,940,261
3355,222,29,95,99,982,297
3360,219,28,106,0,1016,330
3365,210,23,109,-105,1040,352
3370,219,23,105,-207,1044,371
3375,213,16,122,-300,1042,382
3380,207,13,125,-377,1012,400
3385,212,6,131,-440,970,416
3390,213,-2,138,-490,899,439
3395,210,-8,132,-523,793,451
3400,208,-15,135,-525,631,448
3405,217,-21,133,-496,469,433
3410,222,-29,128,-457,294,417
3415,224,-38,123,-409,126,392
3420,222,-45,121,-343,-32,368
3425,216,-57,113,-260,-155,345
3430,211,-63,119,-169,-259,335
3435,212,-73,117,-71,-344,325
3440,201,-80,118,22,-398,329
3445,191,-90,112,106,-446,330
3450,193,-96,117,172,-476,317
3455,185,-104,104,218,-478,293
3460,179,-109,103,234,-475,267
3465,182,-109,91,230,-464,227
3470,178,-113,88,218,-442,190
3475,177,-117,88,215,-426,137
3480,181,-113,83,231,-422,81
3485,190,-107,71,271,-421,28
3490,194,-107,69,334,-424,-9
3495,200,-95,70,416,-429,-56
3500,203,-84,63,512,-437,-96
3505,207,-73,64,643,-447,-126
3510,217,-68,52,757,-471,-140
3515,217,-57,56,863,-492,-151
3520,223,-48,47,957,-516,-149
3525,226,-32,46,1026,-534,-151
3530,230,-24,47,1075,-548,-146
3535,239,-14,47,1102,-571,-132
3540,243,-4,45,1105,-590,-113
3545,248,3,46,1085,-602,-94
3550,252,6,43,1041,-621,-75
3555,258,10,44,978,-641,-64
3560,262,16,47,885,-655,-52
3565,268,15,46,799,-673,-38
3570,273,18,46,704,-677,-19
3575,274,14,42,608,-674,-7
3580,273,12,36,514,-670,1
3585,271,10,36,428,-666,-8
3590,272,2,32,348,-662,-17
3595,272,-3,26,270,-656,-39
3600,270,-6,24,196,-646,-63
3605,272,-13,18,128,-635,-103
3610,272,-17,13,51,-621,-126
3615,274,-23,17,-1,-600,-145
3620,273,-26,8,-39,-574,-158
3625,274,-30,9,-62,-549,-175
3630,270,-30,6,-69,-527,-190
3635,267,-31,0,-59,-505,-208
3640,272,-30,-4,-38,-488,-228
3645,271,-27,-4,-11,-469,-257
3650,266,-23,-8,24,-441,-277
3655,261,-22,-9,65,-406,-304
3660,261,-21,-4,105,-361,-333
3665,258,-18,-3,139,-331,-345
3670,256,-19,1,147,-319,-345
3675,261,-16,-4,137,-305,-338
3680,254,-17,6,117,-299,-327
3685,254,-13,4,96,-298,-321
3690,258,-17,1,82,-297,-311
3695,256,-12,1,73,-309,-309
3700,262,-12,2,75,-315,-302
3705,258,-9,-1,82,-319,-294
3710,257,-9,5,97,-316,-283
3715,264,-10,-1,132,-314,-280
3720,261,-9,8,154,-309,-279
3725,260,-4,11,173,-302,-284
3730,260,-3,3,190,-299,-291
3735,263,-1,12,198,-291,-309
3740,261,3,13,197,-287,-322
3745,266,10,14,188,-283,-333
3750,264,13,18,167,-283,-335
3755,260,18,16,143,-294,-340
3760,268,19,15,111,-313,-329
3765,270,19,15,67,-337,-322
3770,270,26,16,31,-361,-312
3775,269,22,13,-2,-387,-305
3780,271,16,14,-26,-408,-295
3785,272,16,12,-35,-436,-289
3790,271,18,10,-36,-463,-282
3795,273,15,2,-28,-489,-278
3800,272,17,-3,-16,-510,-271
3805,271,15,-6,-2,-524,-269
3810,267,16,-9,13,-525,-257
3815,265,18,-14,29,-518,-242
3820,261,15,-10,46,-496,-218
3825,256,22,-7,57,-465,-192
3830,255,16,-6,66,-426,-162
3835,250,19,-3,69,-382,-135
3840,244,19,7,71,-331,-104
3845,240,20,5,69,-281,-80
3850,240,15,10,64,-230,-53
3855,237,13,13,58,-190,-30
3860,239,15,11,47,-156,-6
3865,238,14,11,33,-128,16
3870,240,14,12,17,-101,34
3875,244,12,12,1,-82,46
3880,245,7,10,-14,-64,55
3885,247,8,3,-27,-47,58
3890,250,6,12,-37,-33,59
3895,254,8,10,-52,-16,52
3900,250,11,14,-72,-3,45
3905,253,8,13,-101,9,27
3910,253,7,18,-141,20,11
3915,254,9,15,-191,24,-10
3920,256,6,18,-251,23,-33
3925,260,8,13,-328,17,-53
3930,257,6,13,-383,4,-64
3935,264,3,9,-423,-16,-77
3940,265,-1,4,-437,-36,-88
3945,265,-2,1,-425,-54,-97
3950,263,-4,-7,-385,-69,-108
3955,265,-5,-9,-326,-70,-120
3960,267,-4,-11,-255,-64,-130
3965,264,-4,-11,-177,-48,-142
3970,262,-3,-9,-107,-25,-151
3975,259,1,-7,-40,9,-155
3980,255,6,-7,-5,32,-156
3985,251,10,1,9,53,-154
3990,248,14,1,1,67,-148
3995,250,19,8,-25,65,-139
4000,253,17,3,-65,51,-127
4005,253,19,1,-116,21,-115
4010,256,22,0,-168,-21,-101
4015,261,22,-7,-205,-70,-89
4020,267,15,-11,-216,-114,-73
4025,273,18,-11,-188,-150,-58
4030,277,13,-16,-128,-159,-43
4035,273,12,-19,-46,-150,-37
4040,268,10,-11,46,-131,-31
4045,266,8,-14,127,-105,-29
4050,263,9,-10,193,-78,-24
4055,261,11,-11,235,-58,-24
4060,263,11,-6,257,-42,-24
4065,263,11,-5,261,-29,-24
4070,261,16,-9,250,-16,-19
4075,264,13,-11,227,-4,-9
4080,266,12,-10,195,2,2
4085,268,14,-16,166,6,15
4090,262,15,-16,138,12,26
4095,262,11,-15,119,16,37
4100,266,7,-18,108,27,44
4105,263,5,-17,103,35,47
4110,265,6,-19,104,46,49
4115,263,2,-21,108,61,47
4120,268,1,-19,114,76,46
4125,264,3,-19,122,91,43
4130,264,3,-17,133,107,40
4135,265,3,-14,144,122,38
4140,266,6,-16,157,136,36
4145,265,8,-18,168,149,37
4150,263,10,-15,178,159,38
4155,266,10,-15,181,168,42
4160,264,10,-18,184,179,47
4165,262,13,-16,185,185,54
4170,265,8,-15,188,188,61
4175,262,12,-12,194,192,69
4180,263,11,-9,203,195,77
4185,264,11,-10,219,196,84
4190,266,10,-6,235,195,84
4195,267,9,-6,255,191,83
4200,266,9,-9,275,187,79
4205,263,9,-4,295,184,71
4210,263,10,0,316,180,62
4215,264,10,1,335,175,50
4220,262,8,8,345,174,39
4225,259,16,6,347,169,25
4230,259,20,9,335,162,9
4235,260,22,12,301,146,0
4240,259,23,15,258,127,-8
4245,256,23,13,197,103,-8
4250,259,26,9,121,75,-8
4255,257,22,12,36,48,-3
4260,258,20,4,-53,23,2
4265,256,17,6,-137,-2,10
4270,255,12,3,-212,-22,15
4275,254,7,3,-270,-36,19
4280,255,-2,2,-309,-44,16
4285,249,-4,1,-332,-47,11
4290,245,-12,-2,-330,-42,-1
4295,245,-12,1,-309,-28,-12
4300,241,-18,-1,-272,-12,-23
4305,240,-20,-2,-219,9,-29
4310,235,-19,2,-154,29,-32
4315,237,-18,4,-80,52,-27
4320,235,-14,7,-5,72,-21
4325,237,-9,3,65,88,-13
4330,238,-4,9,127,100,-10
4335,240,-3,14,173,113,-7
4340,245,3,12,206,123,-7
4345,246,6,12,222,128,-7
4350,249,11,12,225,129,-10
4355,253,12,11,218,124,-10
4360,257,20,6,208,115,-13
4365,259,22,4,193,107,-12
4370,263,26,-1,181,98,-12
4375,265,25,-4,166,91,-10
4380,268,26,-5,150,84,-10
4385,267,29,-8,133,79,-6
4390,271,26,-3,111,78,-4
4395,269,24,-12,85,76,2
4400,267,26,-15,58,77,6
4405,268,23,-18,31,78,13
4410,265,20,-11,9,79,19
4415,267,19,-15,-13,83,27
4420,265,13,-12,-29,86,32
4425,261,12,-13,-39,86,43
4430,262,8,-8,-40,85,50
4435,261,0,-10,-32,86,62
4440,262,-3,-5,-14,87,70
4445,261,-4,-6,9,85,78
4450,258,-4,-1,35,85,80
4455,258,-7,-1,65,84,84
4460,259,-3,-2,96,85,81
4465,258,-3,3,126,86,77
4470,255,-4,-1,156,85,67
4475,254,-2,0,181,84,58
4480,257,-2,2,202,88,47
4485,256,0,4,219,89,36
4490,252,5,6,229,93,23
4495,253,0,2,233,96,16
4500,251,1,3,228,102,4
4505,250,3,6,215,107,-1
4510,248,4,5,196,112,-10
4515,246,6,9,168,119,-15
4520,247,5,13,136,123,-21
4525,250,7,7,98,129,-25
4530,249,11,7,54,132,-33
4535,250,13,10,10,131,-37
4540,249,13,13,-36,126,-45
4545,252,18,9,-90,119,-45
4550,254,17,9,-132,109,-48
4555,253,16,10,-169,98,-43
4560,253,16,9,-201,87,-43
4565,251,13,7,-228,76,-37
4570,255,11,6,-248,64,-37
4575,254,9,7,-259,54,-36
4580,259,9,9,-261,47,-38
4585,255,6,4,-255,43,-37
4590,257,4,4,-244,40,-41
4595,257,4,4,-224,37,-42
4600,255,1,1,-192,35,-48
4605,255,0,4,-163,32,-48
4610,257,2,6,-132,29,-52
4615,256,-1,7,-103,26,-51
4620,255,-1,4,-76,24,-53
4625,261,-3,5,-53,16,-50
4630,256,-4,5,-34,11,-52
4635,259,-4,3,-18,3,-48
4640,257,-3,0,-7,-4,-50
4645,256,-2,2,4,-14,-48
4650,255,-3,-1,13,-24,-49
4655,256,-4,-5,22,-34,-48
4660,256,-3,-2,31,-40,-54
4665,256,-2,-9,37,-47,-54
4670,257,-1,-7,46,-52,-60
4675,256,1,-8,53,-52,-62
4680,258,1,-5,59,-52,-66
4685,257,-1,-6,62,-48,-66
4690,255,4,-6,64,-43,-71
4695,255,4,-10,63,-36,-71
4700,254,7,-7,64,-25,-74
4705,254,8,-8,62,-16,-72
4710,255,7,-4,61,-9,-71
4715,256,9,-5,58,3,-66
4720,255,16,-4,57,11,-65
4725,256,16,-4,54,20,-59
4730,254,17,-7,52,28,-56
4735,254,17,-5,48,34,-51
4740,254,23,0,43,38,-49
4745,256,19,-1,39,41,-42
4750,255,22,0,33,45,-40
4755,258,22,2,26,47,-33
4760,258,23,-1,18,47,-30
4765,261,20,2,14,47,-24
4770,260,22,2,8,47,-20
4775,258,22,-1,6,45,-14
4780,263,17,2,4,44,-10
4785,264,19,2,5,43,-3
4790,264,19,-1,5,43,0
4795,262,18,-3,7,44,5
4800,259,17,-2,10,46,5
4805,261,15,-1,12,47,11
4810,261,16,-2,14,51,10
4815,260,14,-7,16,53,13
4820,259,11,-6,19,59,13
4825,259,11,-7,18,64,19
4830,258,14,-7,17,68,19
4835,255,11,-7,16,73,23
4840,256,11,-4,14,78,24
4845,258,9,-6,15,81,31
4850,256,11,-4,13,85,32
4855,258,9,-6,13,91,39
4860,260,10,-7,13,94,41
4865,258,11,-5,12,97,46
4870,257,9,-4,9,102,48
4875,257,12,-3,4,105,55
4880,256,12,-8,0,108,54
4885,257,7,-4,-4,110,57
4890,259,11,-7,-8,113,58
4895,256,8,-6,-11,114,58
4900,256,8,-3,-15,116,57
4905,260,9,-5,-19,118,60
4910,255,14,-6,-22,120,57
4915,260,9,-6,-25,122,58
4920,256,9,-3,-27,125,56
4925,259,9,2,-30,127,58
4930,258,10,-1,-36,128,53
4935,257,8,-3,-41,132,56
4940,257,7,0,-47,135,52
4945,256,7,0,-50,140,53
4950,255,7,0,-57,140,50
4955,256,6,0,-61,144,53
4960,257,7,2,-65,145,50
4965,258,5,3,-68,145,52
4970,257,5,2,-71,145,48
4975,257,4,1,-75,144,50
4980,256,1,0,-76,144,47
4985,256,2,1,-71,141,47
4990,259,2,-2,-67,138,43
4995,258,-1,1,-59,134,43
5000,256,2,7,-51,132,39
5005,257,2,0,-44,131,37
5010,254,6,2,-39,128,35
5015,256,4,-1,-34,127,35
5020,256,3,3,-30,127,31
5025,256,4,1,-26,126,34
5030,256,4,-1,-26,126,31
5035,256,1,3,-24,125,31
5040,257,0,2,-21,124,28
5045,258,1,6,-18,124,29
5050,256,-1,4,-17,124,24
5055,255,4,0,-15,124,25
5060,257,2,8,-16,124,22
5065,257,1,3,-15,124,22
5070,256,4,3,-17,125,18
5075,256,6,3,-16,125,19
5080,255,5,4,-20,127,16
5085,254,4,8,-22,125,16
5090,253,6,5,-24,127,13
5095,257,6,5,-25,126,14
5100,254,4,7,-25,126,11
5105,256,5,8,-29,123,13
5110,253,6,5,-31,123,8
5115,253,4,8,-35,120,9
5120,254,3,6,-37,120,7
5125,256,6,7,-39,117,8
5130,258,4,6,-41,115,4
5135,255,4,5,-43,112,4
5140,255,7,6,-46,109,0
5145,252,4,9,-47,103,1
5150,255,3,5,-48,98,-3
5155,256,5,6,-48,93,-1
5160,257,4,4,-47,87,-3
5165,257,5,8,-44,83,-2
5170,256,5,6,-44,82,-4
5175,255,5,8,-41,80,-2
5180,255,5,7,-38,77,-6
5185,256,3,1,-38,75,-5
5190,256,5,6,-37,73,-8
5195,257,3,4,-35,73,-6
5200,257,6,10,-35,71,-10
5205,255,6,4,-35,70,-8
5210,257,7,2,-32,69,-9
5215,256,6,10,-30,69,-7
5220,254,8,8,-30,71,-9
5225,257,6,6,-27,71,-7
5230,257,5,4,-27,71,-9
5235,257,6,0,-25,71,-7
5240,257,6,8,-25,71,-10
5245,257,3,9,-23,71,-8
5250,256,5,3,-23,72,-11
5255,258,6,7,-23,70,-8
5260,256,4,6,-23,67,-12
5265,255,3,7,-26,66,-10
5270,255,5,4,-29,64,-10
5275,259,7,7,-32,63,-9
5280,256,6,5,-33,61,-11
5285,256,7,4,-35,60,-7
5290,257,5,5,-37,61,-10
5295,255,7,7,-36,59,-7
5300,260,6,-2,-33,59,-8
5305,257,5,4,-31,61,-4
5310,257,6,7,-30,61,-7
5315,257,4,5,-28,62,-6
5320,257,3,6,-26,61,-8
5325,254,9,3,-25,61,-6
5330,260,7,5,-27,60,-6
5335,258,6,4,-26,60,-4
5340,260,5,5,-26,60,-3
5345,259,6,1,-28,62,-2
5350,259,6,0,-29,61,-2
5355,257,6,4,-30,63,2
5360,257,9,3,-31,64,2
5365,256,6,-1,-30,67,3
5370,255,4,3,-29,67,5
5375,256,9,4,-28,71,7
5380,259,6,0,-25,74,8
5385,256,7,4,-23,78,11
5390,257,4,4,-21,80,12
5395,257,5,2,-19,85,16
5400,256,3,5,-16,90,17
5405,255,5,4,-12,93,20
5410,256,4,3,-7,97,20
5415,257,4,2,-3,98,23
5420,259,1,7,0,99,24
5425,256,3,5,5,100,26
5430,258,3,6,7,100,25
5435,256,6,8,9,101,26
5440,257,7,3,10,100,24
5445,258,6,6,8,99,24
5450,257,5,7,7,99,21
5455,258,3,7,3,98,22
5460,254,5,7,1,98,19
5465,255,7,7,-4,98,18
5470,258,6,4,-8,97,16
5475,254,8,4,-12,97,15
5480,255,4,6,-18,96,14
5485,257,5,8,-21,95,15
5490,255,4,5,-23,94,13
5495,258,2,5,-24,92,14
5500,258,15,28,-23,93,12
5505,257,1,5,-21,91,11
5510,256,2,4,-17,89,10
5515,256,2,10,-15,87,12
5520,256,3,10,-12,88,8
5525,257,0,8,-8,88,8
5530,256,0,6,-4,89,7
5535,256,3,8,-3,91,4
5540,254,6,4,-3,90,2
5545,253,4,8,-3,92,2
5550,255,5,4,-2,92,0
5555,255,3,6,-4,94,1
5560,256,5,9,-4,95,0
5565,255,8,10,-7,94,2
5570,258,3,7,-9,93,0
5575,257,6,11,-10,93,-1
5580,256,5,11,-11,94,0
5585,253,6,6,-14,94,1
5590,257,4,10,-14,95,0
5595,257,2,7,-14,93,0
5600,253,3,10,-16,91,-2
5605,255,9,10,-17,92,-2
5610,254,5,12,-17,92,-4
5615,255,3,9,-16,91,-4
5620,255,2,9,-17,91,-5
5625,258,3,7,-14,91,-5
5630,257,3,10,-13,89,-4
5635,260,2,12,-12,88,-5
5640,256,3,8,-10,88,-5
5645,256,5,6,-11,86,-5
5650,258,6,9,-11,85,-8
5655,255,3,8,-11,86,-8
5660,255,4,8,-11,84,-8
5665,256,5,5,-11,84,-8
5670,258,7,11,-12,84,-9
5675,254,5,6,-14,83,-9
5680,255,6,6,-14,83,-8
5685,257,8,6,-15,81,-8
5690,256,5,9,-16,81,-6
5695,257,6,7,-16,79,-6
5700,257,1,6,-16,77,-5
5705,258,5,8,-14,77,-4
5710,254,4,6,-14,76,-4
5715,256,5,9,-11,76,-5
5720,258,2,7,-8,77,-3
5725,255,5,10,-6,77,-2
5730,255,6,7,-5,79,-2
5735,258,2,9,-3,78,-4
5740,256,6,7,-3,79,-2
5745,254,5,8,-3,78,-5
5750,257,6,9,-4,81,-4
5755,255,5,5,-6,81,-4
5760,255,2,9,-8,81,-4
5765,254,3,11,-11,80,-3
5770,259,4,12,-13,79,-4
5775,257,2,9,-16,76,-4
5780,256,5,12,-19,74,-3
5785,257,7,12,-24,73,-3
5790,256,4,11,-26,71,-2
5795,258,7,12,-31,72,-3
5800,254,6,10,-33,70,-2
5805,256,6,11,-37,68,-4
5810,257,4,11,-36,69,-3
5815,255,4,12,-38,67,-3
5820,255,6,10,-40,68,-5
5825,258,3,10,-40,68,-5
5830,256,6,7,-42,67,-4
5835,253,5,11,-42,67,-4
5840,255,4,7,-42,69,-4
5845,253,5,11,-43,69,-7
5850,255,2,14,-44,69,-6
5855,254,4,11,-45,68,-7
5860,254,2,11,-45,67,-6
5865,256,3,10,-46,66,-9
5870,257,2,12,-48,66,-8
5875,257,4,9,-48,65,-10
5880,255,5,9,-50,64,-10
5885,254,7,10,-50,63,-12
5890,259,2,11,-51,61,-12
5895,256,3,8,-51,62,-12
5900,258,7,8,-49,59,-11
5905,258,3,5,-47,60,-12
5910,257,5,9,-42,59,-10
5915,256,5,8,-37,59,-12
5920,257,4,5,-33,58,-9
5925,257,2,9,-28,60,-10
5930,255,9,9,-24,63,-9
5935,258,4,8,-19,65,-10
5940,254,4,5,-15,67,-10
5945,257,3,9,-15,69,-9
5950,254,5,8,-14,72,-7
5955,254,5,10,-13,74,-8
5960,258,3,9,-16,73,-6
5965,258,6,11,-19,73,-9
5970,256,4,10,-23,73,-6
5975,256,6,8,-26,74,-6
5980,258,3,12,-30,74,-2
5985,257,6,8,-32,75,-3
5990,255,8,7,-34,73,0
5995,257,5,7,-34,74,-2
6000,257,5,9,-32,73,1
6005,255,5,10,-29,73,0
6010,257,4,7,-26,74,2
6015,255,6,9,-22,74,1
6020,256,4,11,-20,75,1
6025,256,4,8,-20,74,2
6030,256,3,7,-20,74,1
6035,254,5,6,-23,75,1
6040,254,6,8,-25,75,2
6045,254,6,8,-28,72,-1
6050,260,4,9,-30,72,0
6055,257,4,12,-31,72,1
6060,258,5,11,-31,71,3
6065,255,6,8,-31,68,1
6070,257,5,9,-32,65,3
6075,258,3,7,-31,66,0
6080,257,5,10,-30,66,0
6085,257,4,11,-30,65,0
6090,257,5,11,-31,65,2
6095,255,3,6,-33,66,-1
6100,257,6,7,-36,67,1
6105,258,2,10,-37,69,-2
6110,257,2,14,-38,70,1
6115,255,3,11,-38,70,0
6120,254,6,10,-42,72,1
6125,255,5,10,-45,68,-3
6130,256,3,10,-46,69,-2
6135,255,3,11,-49,67,-7
6140,255,2,9,-51,65,-6
6145,256,4,12,-53,62,-11
6150,255,2,12,-55,59,-11
6155,256,2,12,-57,59,-15
6160,253,6,11,-58,56,-14
6165,253,4,13,-59,55,-20
6170,255,3,11,-60,54,-19
6175,255,5,12,-59,54,-24
6180,255,2,12,-59,53,-23
6185,254,2,10,-60,52,-25
6190,254,2,11,-61,49,-24
6195,255,1,9,-61,47,-29
6200,253,4,11,-62,45,-28
6205,256,5,10,-62,42,-32
6210,255,6,12,-63,40,-30
6215,256,5,12,-64,38,-32
6220,258,8,9,-63,35,-31
6225,257,3,11,-64,31,-34
6230,255,5,11,-64,29,-33
6235,254,4,8,-66,25,-35
6240,257,3,9,-64,24,-33
6245,259,5,12,-64,20,-37
6250,258,5,10,-62,19,-35
6255,253,6,9,-64,17,-39
6260,256,5,10,-64,17,-36
6265,256,7,7,-66,17,-39
6270,256,4,8,-66,16,-36
6275,255,7,6,-69,18,-39
6280,253,7,9,-69,20,-37
6285,255,9,4,-70,21,-39
6290,256,4,4,-71,24,-34
6295,256,3,5,-71,27,-37
6300,255,9,10,-70,32,-35
6305,257,6,9,-71,36,-36
6310,257,7,2,-69,38,-33
6315,256,8,6,-69,42,-35
6320,255,7,7,-67,42,-31
6325,260,7,6,-64,45,-32
6330,257,10,6,-62,46,-27
6335,257,7,7,-57,49,-26
6340,258,8,6,-55,48,-20
6345,256,9,9,-49,48,-19
6350,256,7,3,-45,49,-11
6355,258,7,7,-39,49,-11
6360,258,8,3,-33,49,-4
6365,258,2,5,-28,50,-3
6370,257,4,3,-22,52,2
6375,256,5,4,-15,55,0
6380,258,1,6,-8,57,5
6385,258,5,5,-3,59,5
6390,256,6,5,3,61,9
6395,253,4,11,6,63,6
6400,257,5,9,9,66,9
6405,256,7,8,8,69,8
6410,256,3,7,8,72,10
6415,256,7,11,6,76,8
6420,252,9,9,2,79,11
6425,257,6,7,-4,82,9
6430,254,9,11,-10,85,10
6435,257,7,10,-15,84,8
6440,257,6,12,-19,87,10
6445,257,6,10,-25,86,7
6450,256,10,11,-28,88,11
6455,256,5,11,-28,88,10
6460,255,5,4,-30,89,14
6465,256,3,11,-27,90,13
6470,254,6,11,-25,89,16
6475,257,3,11,-21,91,14
6480,257,6,8,-17,91,17
6485,256,4,12,-13,91,15
6490,255,9,10,-8,92,18
6495,257,0,10,-2,90,16
6500,256,1,8,1,89,19
6505,258,2,9,4,90,15
6510,258,4,12,8,88,16
6515,257,5,9,13,87,14
6520,255,3,9,17,84,16
6525,254,4,11,16,82,13
6530,257,6,13,17,80,13
6535,256,6,12,18,78,11
6540,256,4,12,17,77,12
6545,255,4,6,16,75,10
6550,257,7,10,12,74,12
6555,256,5,8,10,72,9
6560,258,4,4,5,70,10
6565,256,3,12,1,70,8
6570,257,5,8,-2,68,8
6575,257,5,10,-7,67,6
6580,253,5,9,-10,67,7
6585,257,7,10,-12,66,4
6590,254,7,10,-17,65,5
6595,255,3,9,-20,65,3
6600,257,4,11,-22,65,5
6605,257,2,10,-24,65,3
6610,256,7,11,-26,66,5
6615,256,6,5,-24,65,2
6620,253,6,11,-22,69,5
6625,255,7,6,-21,70,4
6630,258,5,9,-19,71,7
6635,257,5,10,-14,73,6
6640,258,6,9,-10,74,11
6645,254,7,10,-7,76,9
6650,256,3,12,-4,78,10
6655,257,4,9,0,78,9
6660,256,4,10,3,78,11
6665,253,4,10,6,80,9
6670,256,5,8,5,79,9
6675,255,5,10,2,79,6
6680,257,3,12,-1,79,6
6685,256,5,9,-6,78,4
6690,254,4,12,-10,76,4
6695,256,3,11,-13,74,0
6700,257,4,8,-17,72,2
6705,258,2,10,-18,71,-1
6710,259,4,11,-18,71,0
6715,257,8,9,-16,68,-2
6720,252,5,9,-11,68,0
6725,258,1,11,-8,66,-2
6730,256,3,12,-3,66,-2
6735,255,3,11,0,65,-4
6740,253,1,10,1,64,-3
6745,254,5,11,0,63,-4
6750,255,4,10,-2,62,-3
6755,256,7,9,-6,64,-5
6760,258,3,12,-6,65,-2
6765,256,6,9,-7,67,-2
6770,257,4,10,-8,67,1
6775,256,6,9,-8,67,1
6780,256,6,9,-7,67,4
6785,258,3,9,-7,68,3
6790,255,4,9,-4,68,7
6795,255,5,10,-3,70,4
6800,254,7,12,0,72,7
6805,257,5,9,2,75,4
6810,258,4,9,3,77,7
6815,257,5,7,6,78,4
6820,256,6,7,10,79,6
6825,257,4,9,10,82,5
6830,256,4,10,11,82,6
6835,255,5,12,11,81,5
6840,254,5,12,10,78,5
6845,254,6,12,7,78,4
6850,257,6,13,4,77,4
6855,256,7,14,2,74,3
6860,255,4,12,-2,73,3
6865,256,6,14,-5,71,-1
6870,256,7,13,-9,68,0
6875,255,5,12,-13,69,-1
6880,254,7,12,-15,65,-1
6885,256,5,12,-19,64,-3
6890,258,4,13,-19,62,-3
6895,258,3,14,-21,60,-4
6900,256,6,9,-17,58,-3
6905,258,6,11,-16,58,-3
6910,253,5,12,-15,55,-2
6915,253,6,11,-10,54,-2
6920,252,6,11,-8,55,-2
6925,256,2,12,-6,56,-3
6930,257,5,10,-4,55,-2
6935,255,6,11,-4,55,-2
6940,256,7,9,-4,56,-1
6945,258,2,11,-5,58,-2
6950,254,5,9,-4,59,0
6955,256,2,13,-4,59,-1
6960,256,4,7,-4,60,1
6965,256,4,12,-3,60,-1
6970,257,6,13,-4,60,0
6975,256,5,10,-4,62,0
6980,257,6,10,-4,63,2
6985,255,4,12,-6,62,0
6990,258,6,10,-9,63,1
6995,257,3,9,-9,63,-1
7000,256,6,11,-9,63,2
7005,254,5,11,-11,64,1
7010,255,5,12,-13,65,2
7015,258,5,11,-14,63,0
7020,259,4,12,-14,63,2
7025,259,2,11,-17,63,3
7030,257,6,12,-19,63,3
7035,256,3,9,-18,62,4
7040,254,4,12,-17,62,6
7045,256,4,8,-14,63,6
7050,254,5,10,-13,62,7
7055,255,7,10,-11,60,6
7060,257,4,8,-8,58,9
7065,257,4,8,-6,55,9
7070,260,2,7,-2,53,12
7075,259,4,8,-1,49,13
7080,258,3,9,5,45,16
7085,259,9,7,11,42,17
7090,260,7,6,20,42,17
7095,261,6,8,27,42,17
7100,260,3,10,32,39,17
7105,260,8,5,39,39,14
7110,259,7,3,43,39,16
7115,260,4,7,46,40,16
7120,260,4,4,51,41,19
7125,261,7,4,54,41,22
7130,260,8,12,55,39,25
7135,260,7,11,54,36,28
7140,259,8,14,48,29,29
7145,260,7,20,34,17,30
7150,260,17,20,11,4,32
7155,261,18,22,-22,-13,36
7160,263,17,15,-57,-34,40
7165,263,18,21,-94,-61,47
7170,261,22,23,-134,-92,55
7175,261,19,20,-175,-128,64
7180,268,18,21,-235,-172,70
7185,268,16,11,-297,-208,71
7190,269,10,6,-367,-238,61
7195,270,5,1,-452,-253,42
7200,271,-2,-8,-534,-259,12
7205,273,-5,-17,-602,-258,-24
7210,268,-15,-13,-635,-251,-58
7215,266,-19,-12,-618,-238,-88
7220,268,-21,-8,-550,-219,-109
7225,268,-22,-5,-441,-194,-124
7230,261,-19,-8,-314,-155,-134
7235,256,-15,-8,-162,-122,-133
7240,255,-15,-7,-52,-85,-133
7245,252,-9,-9,37,-51,-135
7250,248,-4,-13,98,-19,-141
7255,246,-3,-10,130,10,-152
7260,249,-1,-12,138,37,-161
7265,249,4,-10,122,60,-171
7270,251,7,-11,86,83,-173
7275,252,10,-10,38,98,-168
7280,249,14,-17,-14,107,-153
7285,251,14,-10,-73,122,-134
7290,250,16,-9,-124,131,-112
7295,263,4,-8,-175,138,-82
7300,251,16,-8,-226,145,-52
7305,258,17,-5,-277,151,-22
7310,259,18,-1,-328,157,5
7315,267,14,-2,-373,164,28
7320,267,17,-4,-411,172,48
7325,268,15,-4,-439,180,64
7330,270,12,-2,-453,186,76
7335,270,10,-2,-446,196,81
7340,268,8,-3,-423,204,78
7345,266,11,-3,-383,216,73
7350,267,6,1,-331,228,62
7355,265,8,1,-266,239,55
7360,261,6,4,-198,248,43
7365,260,7,5,-134,256,29
7370,256,11,10,-80,262,12
7375,252,11,16,-38,269,-1
7380,247,13,22,-14,269,-13
7385,245,14,28,-9,263,-23
7390,241,13,33,-21,253,-31
7395,240,18,36,-42,238,-36
7400,240,19,37,-76,220,-39
7405,239,18,39,-117,199,-37
7410,236,18,36,-164,185,-35
7415,239,12,35,-217,169,-29
7420,236,13,36,-266,155,-23
7425,235,8,34,-309,144,-21
7430,233,8,31,-338,133,-19
7435,235,7,28,-356,124,-23
7440,236,5,31,-364,113,-30
7445,238,2,29,-359,104,-39
7450,240,3,34,-341,90,-56
7455,244,1,32,-314,68,-72
7460,247,5,32,-285,43,-99
7465,248,0,34,-255,19,-128
7470,246,5,34,-221,-2,-161
7475,245,6,33,-187,-25,-193
7480,244,6,36,-152,-50,-225
7485,243,4,41,-124,-78,-261
7490,241,3,44,-106,-111,-296
7495,238,4,45,-108,-135,-324
7500,237,2,52,-124,-154,-350
7505,235,2,50,-146,-166,-367
7510,236,2,52,-172,-176,-379
7515,227,11,57,-198,-189,-378
7520,239,12,50,-218,-200,-367
7525,233,13,48,-236,-213,-342
7530,228,15,37,-244,-231,-304
7535,237,14,35,-236,-258,-256
7540,242,8,31,-218,-299,-201
7545,242,16,26,-184,-339,-154
7550,246,28,37,-151,-389,-115
7555,261,25,21,-116,-439,-77
7560,250,22,30,-88,-485,-49
7565,246,17,18,-69,-526,-19
7570,262,22,26,-64,-556,5
7575,250,29,18,-75,-582,25
7580,254,31,26,-98,-605,40
7585,259,31,8,-134,-631,58
7590,263,22,13,-179,-651,83
7595,256,28,-14,-243,-667,110
7600,261,24,1,-298,-678,129
7605,262,23,-7,-347,-693,155
7610,264,18,-10,-386,-710,177
7615,265,20,-17,-414,-724,198
7620,266,33,-22,-429,-734,218
7625,267,25,-27,-424,-732,240
7630,274,28,-29,-405,-723,255
7635,273,30,-38,-367,-714,271
7640,279,30,-42,-320,-705,279
7645,282,30,-42,-256,-709,283
7650,287,33,-47,-193,-714,274
7655,287,37,-45,-125,-715,256
7660,291,38,-46,-59,-717,236
7665,289,44,-50,-5,-712,215
7670,290,47,-47,35,-702,194
7675,288,51,-46,63,-691,183
7680,289,56,-45,79,-677,173
7685,285,55,-36,87,-665,174
7690,282,60,-32,91,-658,182
7695,280,58,-36,87,-651,198
7700,278,59,-37,80,-646,209
7705,272,61,-36,72,-640,229
7710,275,59,-40,57,-635,254
7715,271,56,-43,34,-635,290
7720,270,53,-39,7,-634,321
7725,268,47,-43,-22,-628,350
7730,265,47,-44,-48,-630,372
7735,264,45,-47,-76,-635,392
7740,262,45,-51,-108,-643,402
7745,262,43,-49,-137,-659,410
7750,257,41,-51,-168,-681,421
7755,254,35,-48,-192,-703,442
7760,254,31,-46,-223,-724,458
7765,255,26,-50,-255,-745,480
7770,247,20,-46,-277,-769,508
7775,247,13,-54,-293,-792,535
7780,244,9,-52,-304,-813,559
7785,244,2,-53,-318,-818,584
7790,243,-3,-52,-324,-821,605
7795,246,-4,-51,-318,-821,631
7800,251,-5,-52,-289,-815,641
7805,251,-4,-51,-259,-806,655
7810,251,-5,-54,-225,-807,667
7815,248,-4,-50,-192,-811,681
7820,250,-4,-45,-168,-816,696
7825,257,-4,-50,-156,-827,722
7830,254,-4,-47,-156,-815,743
7835,256,-7,-44,-157,-794,772
7840,256,-13,-47,-154,-778,795
7845,250,-13,-46,-145,-768,818
7850,251,-13,-49,-144,-762,853
7855,249,-16,-51,-146,-759,885
7860,247,-23,-53,-146,-754,906
7865,246,-23,-56,-148,-755,925
7870,249,-23,-60,-145,-760,938
7875,249,-26,-67,-141,-768,960
7880,248,-29,-71,-132,-783,976
7885,242,-26,-76,-113,-802,991
7890,241,-28,-80,-94,-819,996
7895,240,-29,-81,-68,-832,1006
7900,238,-33,-89,-52,-826,1018
7905,231,-34,-91,-48,-814,1037
7910,233,-40,-88,-45,-801,1052
7915,230,-39,-90,-40,-790,1071
7920,233,-42,-95,-32,-777,1075
7925,231,-46,-98,-22,-762,1085
7930,226,-46,-96,-15,-746,1082
7935,229,-48,-95,-4,-731,1079
7940,225,-47,-94,9,-713,1068
7945,223,-49,-94,22,-701,1059
7950,222,-50,-90,33,-694,1037
7955,221,-51,-95,39,-706,1020
7960,219,-52,-94,37,-723,1001
7965,221,-55,-97,27,-747,982
7970,221,-59,-101,5,-771,956
7975,219,-56,-103,-23,-793,938
7980,217,-60,-101,-56,-806,917
7985,218,-66,-104,-84,-816,901
7990,219,-70,-105,-109,-825,874
7995,218,-74,-108,-127,-827,850
8000,215,-79,-109,-139,-822,827
8005,214,-79,-106,-142,-816,802
8010,210,-86,-102,-140,-817,781
8015,208,-86,-105,-141,-820,765
8020,211,-85,-106,-143,-821,747
8025,205,-90,-108,-147,-826,740
8030,200,-98,-108,-150,-835,727
8035,200,-95,-106,-153,-850,708
8040,197,-97,-111,-162,-870,684
8045,194,-97,-113,-167,-893,667
8050,192,-100,-114,-174,-916,645
8055,194,-103,-116,-179,-940,619
8060,189,-108,-118,-188,-960,593
8065,189,-112,-122,-194,-972,565
8070,195,-111,-126,-203,-991,520
8075,189,-114,-130,-212,-998,484
8080,190,-112,-132,-215,-1013,434
8085,191,-107,-137,-190,-1046,376
8090,192,-90,-145,-153,-1085,331
8095,175,-98,-136,-140,-1099,319
8100,182,-100,-140,-101,-1129,306
8105,209,-89,-150,-53,-1164,272
8110,189,-90,-150,-51,-1153,233
8115,197,-91,-148,-52,-1138,221
8120,198,-91,-151,-38,-1127,204
8125,187,-86,-146,-43,-1113,187
8130,183,-96,-144,-49,-1101,154
8135,205,-94,-146,-36,-1100,107
8140,168,-79,-154,-21,-1117,46
8145,179,-84,-158,-10,-1112,28
8150,193,-79,-157,7,-1098,-19
8155,226,-76,-155,36,-1075,-70
8160,181,-72,-149,54,-1073,-117
8165,221,-65,-167,95,-1091,-100
8170,222,-61,-162,91,-1068,-104
8175,180,-54,-174,81,-1052,-89
8180,184,-69,-155,76,-985,-40
8185,189,-76,-158,140,-962,3
8190,201,-80,-161,259,-977,49
8195,240,-58,-168,364,-978,69
8200,239,-48,-161,380,-922,67
8205,224,-53,-149,364,-863,139
8210,226,-58,-146,372,-850,226
8215,231,-68,-140,398,-867,315
8220,236,-60,-143,419,-869,390
8225,226,-74,-139,398,-846,446
8230,226,-76,-141,388,-830,477
8235,215,-78,-143,382,-803,509
8240,206,-83,-141,383,-779,531
8245,202,-86,-141,388,-757,548
8250,196,-87,-143,389,-738,557
8255,191,-90,-146,387,-720,573
8260,185,-93,-147,387,-697,588
8265,182,-91,-155,389,-672,602
8270,178,-89,-156,386,-647,617
8275,179,-98,-162,380,-615,636
8280,178,-94,-169,376,-582,653
8285,179,-96,-172,381,-542,678
8290,177,-92,-181,390,-501,705
8295,176,-94,-183,408,-461,738
8300,178,-95,-185,434,-424,762
8305,177,-96,-184,466,-392,791
8310,177,-98,-191,499,-362,822
8315,175,-93,-191,532,-342,845
8320,172,-90,-189,564,-333,863
8325,167,-97,-191,593,-326,880
8330,164,-94,-188,618,-323,881
8335,159,-95,-194,642,-324,876
8340,150,-95,-189,660,-324,866
8345,150,-95,-189,675,-322,857
8350,138,-91,-193,684,-321,843
8355,141,-94,-189,686,-319,836
8360,135,-93,-189,682,-320,822
8365,135,-97,-188,664,-322,818
8370,132,-99,-182,639,-327,809
8375,133,-104,-180,612,-337,798
8380,136,-109,-176,586,-353,781
8385,136,-113,-173,557,-371,767
8390,139,-119,-171,523,-389,753
8395,138,-124,-168,484,-405,735
8400,138,-124,-164,450,-417,713
8405,137,-130,-163,419,-427,694
8410,135,-133,-165,404,-433,667
8415,143,-133,-166,403,-435,647
8420,144,-132,-166,418,-435,628
8425,147,-134,-167,445,-433,614
8430,151,-134,-166,477,-436,605
8435,150,-130,-164,515,-441,601
8440,149,-126,-170,552,-452,604
8445,149,-125,-170,588,-458,619
8450,147,-124,-176,620,-461,640
8455,145,-119,-179,645,-459,666
8460,139,-117,-181,663,-449,693
8465,136,-117,-184,676,-436,719
8470,132,-116,-181,680,-417,743
8475,130,-119,-183,672,-397,764
8480,127,-121,-183,657,-375,782
8485,120,-121,-180,638,-352,796
8490,124,-125,-178,617,-331,809
8495,125,-128,-177,591,-309,821
8500,120,-130,-180,564,-282,835
8505,122,-133,-176,540,-260,849
8510,119,-135,-177,519,-237,859
8515,124,-137,-178,508,-218,866
8520,121,-136,-173,503,-197,874
8525,121,-137,-171,500,-178,883
8530,123,-138,-173,501,-164,893
8535,120,-136,-170,503,-148,902
8540,122,-137,-166,504,-134,914
8545,120,-137,-172,503,-126,931
8550,122,-140,-173,494,-118,946
8555,120,-138,-172,485,-110,965
8560,117,-139,-169,474,-98,982
8565,113,-140,-175,466,-88,1003
8570,114,-148,-167,453,-73,1024
8575,109,-144,-176,435,-57,1039
8580,109,-147,-173,410,-37,1055
8585,107,-148,-176,378,-16,1070
8590,104,-151,-175,338,4,1082
8595,103,-155,-176,298,22,1089
8600,106,-161,-174,262,40,1095
8605,103,-162,-173,237,56,1100
8610,101,-169,-174,217,72,1100
8615,99,-171,-167,207,81,1103
8620,99,-176,-174,207,92,1107
8625,91,-180,-169,209,103,1106
8630,88,-180,-171,209,115,1104
8635,88,-181,-173,206,128,1100
8640,90,-190,-171,203,141,1096
8645,82,-190,-164,197,163,1085
8650,84,-191,-164,190,183,1071
8655,81,-195,-165,184,204,1052
8660,79,-195,-161,180,225,1033
8665,84,-196,-162,177,249,1014
8670,78,-199,-159,174,274,996
8675,77,-202,-158,181,291,981
8680,77,-200,-164,193,304,968
8685,75,-203,-157,202,317,957
8690,75,-199,-158,212,326,957
8695,71,-194,-151,217,336,959
8700,72,-197,-155,220,345,966
8705,70,-194,-153,230,350,977
8710,68,-189,-149,239,344,992
8715,65,-188,-152,248,337,1010
8720,64,-185,-150,250,331,1028
8725,59,-187,-151,251,319,1052
8730,58,-188,-146,247,304,1070
8735,52,-190,-149,240,296,1088
8740,48,-192,-151,232,287,1102
8745,47,-191,-151,223,277,1110
8750,46,-195,-149,208,268,1116
8755,44,-195,-155,189,256,1119
8760,37,-195,-156,172,239,1122
8765,35,-199,-155,158,224,1124
8770,31,-203,-153,146,204,1124
8775,26,-202,-155,141,181,1113
8780,25,-205,-153,135,166,1111
8785,21,-211,-157,129,146,1106
8790,23,-215,-160,127,127,1100
8795,20,-222,-158,132,114,1079
8800,22,-223,-160,138,105,1060
8805,25,-223,-160,143,95,1039
8810,22,-226,-150,146,94,1017
8815,21,-235,-150,163,85,998
8820,23,-235,-152,187,78,972
8825,23,-235,-153,215,71,934
8830,20,-236,-150,242,71,912
8835,24,-244,-144,264,64,882
8840,22,-240,-143,289,58,847
8845,20,-240,-143,316,51,810
8850,20,-235,-139,339,43,783
8855,21,-239,-138,357,35,752
8860,20,-242,-137,371,27,722
8865,16,-239,-135,379,17,689
8870,15,-235,-139,386,6,660
8875,19,-236,-135,387,0,624
8880,14,-231,-136,381,-9,600
8885,16,-231,-132,371,-19,577
8890,17,-227,-134,363,-29,547
8895,17,-226,-130,350,-37,517
8900,19,-221,-133,338,-45,498
8905,18,-224,-125,325,-50,482
8910,20,-219,-123,317,-57,471
8915,16,-218,-131,311,-68,461
8920,15,-219,-129,302,-75,457
8925,14,-216,-133,292,-81,448
8930,13,-210,-132,280,-93,439
8935,17,-215,-134,266,-96,435
8940,15,-212,-134,257,-103,432
8945,14,-215,-129,245,-111,418
8950,16,-214,-132,233,-120,411
8955,17,-215,-135,224,-131,406
8960,20,-217,-135,216,-142,412
8965,17,-217,-131,207,-148,415
8970,24,-215,-134,205,-149,418
8975,24,-217,-137,201,-143,419
8980,27,-215,-144,197,-131,418
8985,31,-218,-151,184,-116,415
8990,37,-218,-149,163,-97,412
8995,37,-221,-157,137,-77,413
9000,33,-211,-161,107,-53,416
9005,34,-209,-157,77,-31,418
9010,29,-213,-151,51,-13,425
9015,23,-208,-154,40,3,434
9020,19,-213,-147,38,6,449
9025,17,-209,-142,44,7,460
9030,17,-211,-137,55,9,473
9035,13,-212,-137,65,13,474
9040,13,-215,-131,68,17,475
9045,9,-219,-127,62,20,465
9050,5,-223,-131,47,30,456
9055,0,-226,-130,32,34,437
9060,2,-224,-129,24,33,417
9065,-1,-221,-125,29,37,395
9070,-1,-225,-127,41,42,381
9075,3,-223,-128,64,45,363
9080,2,-225,-126,86,55,356
9085,-2,-225,-130,113,71,347
9090,0,-229,-126,134,78,344
9095,1,-224,-130,155,89,343
9100,-2,-224,-131,176,93,340
9105,5,-224,-138,197,93,321
9110,6,-223,-137,217,93,304
9115,7,-224,-133,229,97,298
9120,6,-220,-143,239,101,297
9125,6,-220,-143,237,100,293
9130,5,-218,-141,232,102,291
9135,9,-219,-136,223,97,298
9140,9,-224,-134,210,91,305
9145,4,-226,-131,197,88,309
9150,6,-225,-129,191,79,302
9155,8,-225,-129,184,76,300
9160,7,-225,-124,176,76,296
9165,12,-224,-127,163,80,287
9170,8,-226,-121,152,90,290
9175,13,-224,-119,142,100,290
9180,7,-229,-120,128,110,296
9185,7,-227,-126,120,109,272
9190,8,-227,-123,114,111,250
9195,10,-223,-124,110,109,226
9200,11,-223,-128,108,107,212
9205,8,-222,-129,102,114,202
9210,12,-224,-126,94,119,201
9215,7,-222,-131,84,120,192
9220,5,-222,-129,74,113,186
9225,2,-218,-133,65,100,168
9230,7,-219,-135,57,88,155
9235,2,-218,-134,43,81,148
9240,1,-218,-129,26,75,150
9245,4,-214,-133,16,70,142
9250,-2,-215,-130,9,65,141
9255,-4,-215,-132,3,55,139
9260,-7,-213,-133,1,44,137
9265,-7,-212,-133,1,33,130
9270,-11,-213,-131,2,23,124
9275,-3,-215,-132,4,11,113
9280,-5,-211,-136,-5,9,123
9285,-12,-219,-129,-14,5,128
9290,-10,-224,-133,-15,-10,127
9295,-9,-221,-134,-6,-19,112
9300,-13,-227,-130,-2,-18,112
9305,-14,-226,-127,3,-20,109
9310,-16,-230,-124,15,-23,109
9315,-19,-226,-126,25,-32,94
9320,-19,-227,-125,32,-31,84
9325,-19,-230,-122,43,-38,68
9330,-21,-228,-125,54,-42,60
9335,-20,-223,-126,65,-48,46
9340,-19,-218,-124,68,-50,39
9345,-21,-218,-126,62,-51,28
9350,-18,-219,-128,50,-53,15
9355,-16,-219,-123,30,-51,-1
9360,-16,-215,-128,3,-48,-8
9365,-12,-214,-121,-27,-44,-17
9370,-12,-213,-126,-61,-35,-12
9375,-8,-214,-126,-96,-19,-5
9380,-12,-217,-125,-127,-2,5
9385,-8,-225,-125,-148,4,5
9390,-8,-224,-120,-162,10,5
9395,-5,-229,-125,-170,19,4
9400,-4,-231,-127,-170,28,9
9405,-6,-232,-128,-161,34,12
9410,-3,-231,-127,-145,39,19
9415,0,-232,-128,-125,42,19
9420,-1,-230,-129,-99,46,23
9425,2,-232,-130,-76,51,22
9430,3,-228,-131,-54,52,23
9435,2,-232,-134,-38,54,19
9440,3,-228,-132,-23,52,13
9445,2,-228,-132,-9,51,2
9450,0,-227,-134,-1,50,-2
9455,2,-227,-134,1,48,-16
9460,1,-225,-133,-6,44,-26
9465,-2,-222,-130,-20,40,-41
9470,-1,-228,-129,-42,43,-50
9475,-2,-226,-134,-59,41,-66
9480,-4,-222,-131,-69,36,-77
9485,-5,-224,-127,-76,38,-92
9490,-3,-225,-131,-78,36,-103
9495,-3,-224,-131,-74,38,-112
9500,-9,-223,-134,-66,39,-117
9505,-5,-222,-131,-55,41,-123
9510,-4,-221,-131,-46,45,-122
9515,-6,-222,-130,-34,48,-124
9520,-6,-225,-127,-21,50,-121
9525,-6,-224,-124,-7,48,-126
9530,-7,-221,-128,10,47,-125
9535,-4,-219,-127,21,45,-129
9540,-4,-222,-130,26,45,-130
9545,-7,-224,-126,28,43,-133
9550,-6,-224,-124,29,37,-136
9555,-5,-220,-128,28,31,-141
9560,-4,-225,-129,27,29,-143
9565,-4,-224,-127,24,23,-149
9570,-4,-220,-128,23,18,-151
9575,-4,-220,-132,21,15,-155
9580,-5,-223,-130,15,16,-154
9585,-5,-222,-134,9,14,-159
9590,-7,-220,-128,0,11,-161
9595,0,-222,-133,-12,8,-165
9600,-6,-225,-132,-27,11,-163
9605,-6,-221,-130,-40,14,-167
9610,-3,-224,-137,-44,10,-171
9615,-2,-221,-132,-48,8,-179
9620,-3,-222,-132,-51,10,-179
9625,-6,-222,-132,-53,13,-181
9630,-3,-219,-136,-52,18,-181
9635,-6,-222,-134,-54,21,-185
9640,-5,-224,-135,-51,23,-183
9645,1,-222,-134,-47,21,-188
9650,-5,-220,-136,-40,24,-188
9655,-5,-219,-135,-33,26,-189
9660,-3,-222,-138,-35,29,-180
9665,-3,-224,-136,-31,29,-183
9670,2,-223,-140,-24,26,-186
9675,1,-220,-138,-18,22,-192
9680,2,-223,-139,-18,23,-194
9685,2,-222,-139,-18,20,-198
9690,4,-220,-141,-22,16,-199
9695,2,-221,-136,-28,14,-202
9700,5,-218,-137,-30,8,-202
9705,5,-218,-137,-34,4,-204
9710,7,-223,-133,-36,3,-201
9715,7,-222,-135,-37,1,-201
9720,7,-222,-133,-38,0,-199
9725,10,-221,-137,-39,-1,-200
9730,6,-221,-135,-41,-1,-196
9735,11,-221,-133,-41,-4,-196
9740,9,-218,-130,-43,-3,-193
9745,12,-220,-131,-46,0,-191
9750,13,-223,-131,-51,2,-187
9755,13,-223,-130,-56,6,-188
9760,11,-222,-129,-62,8,-186
9765,13,-223,-129,-67,12,-185
9770,14,-223,-129,-71,15,-183
9775,16,-223,-130,-75,17,-187
9780,13,-224,-129,-80,22,-185
9785,14,-224,-128,-83,26,-188
9790,16,-224,-128,-83,27,-187
9795,16,-222,-130,-83,29,-189
9800,15,-224,-128,-81,35,-186
9805,18,-223,-131,-79,38,-185
9810,19,-222,-129,-74,40,-182
9815,18,-227,-131,-71,41,-183
9820,19,-227,-129,-66,43,-181
9825,20,-225,-130,-61,44,-180
9830,21,-225,-131,-55,45,-176
9835,20,-229,-133,-49,44,-176
9840,21,-229,-130,-45,44,-174
9845,21,-225,-135,-38,44,-173
9850,21,-226,-135,-32,46,-167
9855,21,-224,-133,-26,47,-164
9860,19,-222,-134,-21,50,-159
9865,22,-221,-137,-18,49,-156
9870,22,-223,-132,-16,51,-150
9875,22,-222,-137,-15,50,-145
9880,20,-220,-138,-13,52,-139
9885,22,-221,-139,-11,52,-134
9890,22,-218,-135,-11,51,-127
9895,23,-219,-138,-11,50,-123
9900,24,-218,-139,-13,48,-117
9905,25,-216,-138,-14,48,-113
9910,25,-218,-137,-16,48,-109
9915,24,-215,-142,-21,48,-109
9920,21,-213,-139,-28,49,-111
9925,24,-217,-138,-36,51,-116
9930,25,-217,-138,-45,53,-118
9935,22,-211,-136,-53,55,-121
9940,23,-217,-140,-59,57,-122
9945,22,-213,-138,-65,60,-125
9950,22,-214,-139,-68,61,-123
9955,22,-210,-135,-69,65,-125
9960,20,-212,-135,-72,67,-122
9965,20,-211,-133,-73,70,-119
9970,22,-212,-134,-72,73,-116
9975,24,-215,-134,-71,76,-113
9980,23,-217,-136,-72,76,-109
9985,21,-214,-138,-72,78,-106
9990,21,-216,-133,-71,79,-101
9995,24,-217,-132,-74,81,-99
10000,23,-218,-138,-80,83,-97
10005,22,-218,-134,-84,85,-94
10010,23,-219,-133,-89,85,-90
10015,21,-218,-134,-93,88,-87
10020,22,-221,-136,-95,88,-82
10025,21,-220,-133,-98,88,-77
10030,23,-225,-134,-99,89,-72
10035,23,-219,-134,-101,89,-67
10040,21,-219,-135,-101,89,-60
10045,20,-221,-136,-103,90,-54
10050,21,-221,-137,-103,88,-47
10055,22,-220,-132,-101,88,-41
10060,23,-222,-132,-98,89,-34
10065,22,-220,-134,-93,91,-30
10070,23,-221,-135,-87,93,-25
10075,22,-221,-131,-80,92,-20
10080,19,-220,-134,-72,95,-15
10085,22,-221,-135,-65,96,-11
10090,21,-221,-132,-58,99,-9
10095,20,-220,-133,-52,101,-6
10100,20,-218,-133,-46,103,-2
10105,20,-218,-133,-40,103,1
10110,23,-222,-134,-36,105,3
10115,20,-222,-135,-31,105,3
10120,22,-220,-133,-25,105,6
10125,18,-218,-138,-21,104,5
10130,20,-219,-134,-19,104,4
10135,22,-223,-134,-15,103,6
10140,18,-217,-136,-11,102,6
10145,20,-218,-134,-9,102,6
10150,20,-218,-133,-6,99,5
10155,21,-216,-132,-7,98,6
10160,18,-218,-134,-7,96,6
10165,20,-219,-136,-7,95,9
10170,19,-215,-135,-11,92,6
10175,21,-221,-136,-14,90,9
10180,18,-217,-135,-16,88,7
10185,18,-217,-135,-20,85,10
10190,16,-217,-138,-24,84,9
10195,17,-214,-133,-27,80,9
10200,19,-215,-135,-31,78,8
10205,21,-216,-135,-33,77,6
10210,18,-220,-133,-35,76,5
10215,17,-220,-137,-38,75,3
10220,19,-221,-134,-41,74,2
10225,21,-223,-137,-42,73,3
10230,19,-219,-134,-43,71,2
10235,19,-219,-137,-42,70,4
10240,19,-221,-135,-39,70,4
10245,19,-219,-136,-34,69,7
10250,19,-222,-137,-30,70,9
10255,18,-219,-134,-23,69,11
10260,17,-219,-136,-17,68,14
10265,20,-220,-133,-11,68,16
10270,19,-220,-137,-5,67,16
10275,21,-220,-139,-1,66,18
10280,21,-218,-135,5,67,18
10285,23,-223,-135,9,67,20
10290,20,-222,-136,12,66,22
10295,20,-217,-137,12,63,23
10300,20,-219,-135,15,62,24
10305,21,-221,-132,17,63,27
10310,20,-218,-132,20,61,27
10315,20,-220,-138,21,61,30
10320,23,-221,-136,22,59,31
10325,20,-221,-134,25,57,33
10330,20,-215,-132,26,57,33
10335,21,-217,-138,27,55,36
10340,20,-223,-136,27,54,37
10345,21,-221,-137,28,52,37
10350,19,-220,-134,28,52,38
10355,17,-217,-136,27,50,39
10360,21,-221,-136,27,50,39
10365,21,-218,-136,27,50,39
10370,19,-215,-137,27,48,37
10375,22,-218,-135,27,48,39
10380,21,-219,-135,28,48,37
10385,20,-216,-134,27,48,37
10390,22,-221,-136,26,47,33
10395,19,-220,-135,22,47,31
10400,21,-220,-136,17,48,26
10405,20,-220,-134,12,48,26
10410,19,-221,-134,9,50,23
10415,18,-220,-135,7,52,23
10420,18,-220,-136,5,53,22
10425,18,-218,-135,3,53,25
10430,20,-218,-133,2,55,25
10435,16,-219,-139,0,57,28
10440,19,-221,-134,-4,58,27
10445,18,-218,-141,-8,60,28
10450,20,-219,-137,-12,60,28
10455,18,-218,-135,-14,62,31
10460,16,-220,-137,-14,63,31
10465,16,-217,-136,-16,64,36
10470,16,-217,-137,-14,66,35
10475,20,-219,-133,-12,64,39
10480,17,-219,-135,-8,63,37
10485,16,-220,-135,-7,62,42
10490,18,-219,-139,-3,63,39
10495,20,-219,-134,0,60,43
10500,18,-219,-132,1,58,43
10505,18,-219,-136,0,59,47
10510,19,-220,-134,1,59,48
10515,18,-220,-133,2,57,54
10520,18,-218,-132,1,57,55
10525,19,-219,-138,1,57,59
10530,18,-220,-134,1,56,56
10535,20,-217,-138,3,56,57
10540,18,-221,-135,7,58,55
10545,17,-218,-134,10,60,56
10550,17,-217,-134,12,61,53
10555,16,-217,-141,16,62,52
10560,16,-220,-135,16,65,47
10565,21,-218,-136,17,66,47
10570,18,-215,-137,14,68,41
10575,17,-219,-134,11,71,39
10580,14,-216,-133,2,73,32
10585,18,-218,-133,-4,73,31
10590,18,-218,-131,-8,75,26
10595,15,-218,-134,-12,74,25
10600,14,-219,-129,-17,76,21
10605,16,-218,-133,-20,77,21
10610,14,-219,-132,-23,77,18
10615,17,-221,-132,-22,77,19
10620,12,-218,-131,-22,76,16
10625,15,-221,-133,-19,76,18
10630,15,-220,-129,-16,76,18
10635,13,-220,-136,-12,75,20
10640,13,-222,-128,-9,74,22
10645,14,-222,-129,-4,74,25
10650,14,-222,-132,0,74,25
10655,13,-223,-127,3,72,29
10660,16,-221,-130,4,73,28
10665,14,-222,-133,5,73,31
10670,13,-221,-127,7,76,29
10675,17,-223,-129,8,76,32
10680,12,-219,-132,9,75,30
10685,13,-221,-134,7,75,32
10690,17,-219,-134,5,76,30
10695,15,-222,-134,5,77,32
10700,16,-221,-130,4,77,29
10705,15,-222,-132,3,76,30
10710,17,-219,-133,0,74,23
10715,15,-219,-134,0,72,26
10720,16,-219,-132,-2,73,21
10725,16,-221,-138,-3,73,22
10730,17,-219,-133,-6,72,16
10735,16,-219,-136,-6,70,16
10740,17,-220,-132,-7,70,10
10745,14,-218,-137,-10,70,10
10750,13,-216,-135,-11,69,3
10755,15,-215,-133,-15,67,4
10760,15,-219,-132,-17,66,0
10765,19,-223,-134,-19,65,0
10770,13,-220,-132,-20,64,-3
10775,14,-222,-135,-21,64,0
10780,16,-222,-133,-19,64,-2
10785,12,-221,-132,-19,62,1
10790,15,-222,-130,-16,61,-1
10795,14,-223,-129,-15,61,2
10800,12,-220,-134,-14,60,0
10805,15,-222,-130,-12,59,1
10810,15,-221,-130,-8,58,1
10815,13,-221,-131,-7,59,4
10820,15,-219,-136,-5,59,2
10825,14,-220,-129,-3,57,4
10830,16,-222,-132,-3,57,2
10835,14,-220,-132,-3,58,3
10840,14,-219,-135,-5,57,1
10845,15,-220,-135,-6,57,1
10850,18,-219,-134,-8,55,0
10855,14,-219,-133,-9,55,1
10860,16,-222,-134,-10,54,-2
10865,16,-223,-132,-8,53,-1
10870,16,-220,-133,-10,54,-4
10875,14,-217,-136,-9,53,-1
10880,16,-220,-131,-9,51,-3
10885,15,-220,-135,-8,50,-3
10890,21,-216,-138,-7,51,-7
10895,17,-220,-132,-8,49,-5
10900,14,-222,-131,-9,47,-10
10905,13,-220,-129,-9,48,-9
10910,18,-220,-131,-10,48,-12
10915,16,-222,-135,-13,45,-12
10920,14,-217,-131,-16,46,-14
10925,15,-220,-135,-18,45,-12
10930,18,-218,-136,-19,44,-16
10935,16,-217,-136,-19,44,-15
10940,18,-219,-132,-21,44,-17
10945,14,-220,-133,-21,44,-15
10950,16,-219,-134,-20,43,-17
10955,15,-221,-136,-19,43,-14
10960,15,-220,-133,-18,45,-15
10965,15,-223,-131,-18,45,-12
10970,14,-219,-131,-15,45,-11
10975,14,-218,-135,-14,45,-8
10980,14,-220,-136,-14,47,-11
10985,14,-216,-135,-14,47,-7
10990,17,-221,-135,-12,47,-9
10995,18,-221,-133,-11,49,-6
11000,14,-219,-134,-12,50,-8
11005,17,-220,-134,-11,49,-7
11010,13,-220,-133,-10,49,-10
11015,17,-219,-134,-11,50,-7
11020,18,-220,-133,-12,51,-10
11025,16,-216,-134,-12,51,-8
11030,16,-217,-133,-10,51,-12
11035,16,-220,-138,-9,52,-12
11040,16,-218,-131,-6,53,-12
11045,14,-219,-134,-4,53,-10
11050,13,-218,-132,-3,50,-13
11055,16,-220,-132,0,50,-12
11060,16,-219,-134,2,51,-15
11065,17,-221,-128,2,53,-13
11070,15,-220,-136,3,53,-16
11075,16,-218,-134,0,51,-14
11080,14,-222,-133,-4,50,-15
11085,18,-220,-133,-6,50,-12
11090,17,-222,-134,-6,51,-12
11095,18,-222,-135,-6,52,-10
11100,18,-221,-134,-2,54,-11
11105,18,-221,-133,4,55,-10
11110,17,-222,-136,10,58,-10
11115,19,-223,-132,15,60,-9
11120,15,-222,-134,18,62,-10
11125,16,-220,-130,17,64,-7
11130,15,-220,-133,13,65,-10
11135,16,-217,-133,7,66,-6
11140,16,-223,-129,2,69,-7
11145,17,-218,-137,-3,68,-5
11150,15,-220,-130,-4,69,-6
11155,12,-221,-130,-4,68,-4
11160,15,-222,-129,-1,68,-3
11165,15,-222,-129,2,68,0
11170,14,-222,-132,6,69,1
11175,15,-222,-131,9,67,3
11180,16,-220,-127,10,66,2
11185,15,-221,-132,13,64,3
11190,18,-220,-134,11,63,1
11195,17,-220,-135,12,62,1
11200,16,-218,-131,10,62,1
11205,13,-215,-129,8,63,2
11210,18,-216,-131,9,65,1
11215,16,-216,-134,7,66,4
11220,14,-218,-130,7,66,5
11225,17,-220,-135,6,70,9
11230,17,-216,-132,8,71,10
11235,17,-220,-131,6,74,15
11240,18,-219,-133,3,77,19
11245,16,-222,-129,4,79,23
11250,16,-225,-131,6,84,24
11255,15,-222,-132,8,86,27
11260,15,-221,-133,9,90,28
11265,17,-220,-132,9,88,28
11270,19,-225,-134,8,85,28
11275,17,-223,-136,10,85,29
11280,16,-223,-138,15,84,26
11285,17,-225,-134,18,85,23
11290,16,-220,-137,17,84,15
11295,15,-225,-138,15,87,9
11300,15,-226,-139,11,87,4
11305,15,-223,-139,9,87,-1
11310,15,-225,-136,11,85,-8
11315,18,-223,-138,15,83,-10
11320,13,-225,-134,22,84,-13
11325,16,-221,-136,28,82,-12
11330,14,-222,-135,33,81,-14
11335,14,-219,-134,35,82,-11
11340,15,-222,-128,37,81,-9
11345,10,-219,-134,37,76,-7
11350,13,-222,-132,37,75,-3
11355,15,-221,-129,36,75,-1
11360,11,-219,-130,32,74,2
11365,13,-218,-130,31,71,6
11370,15,-222,-126,30,70,6
11375,15,-223,-127,28,70,8
11380,14,-223,-129,26,71,6
11385,15,-222,-129,26,69,6
11390,14,-224,-126,27,67,3
11395,16,-225,-127,27,68,2
11400,16,-222,-130,32,69,2
11405,17,-223,-129,36,67,1
11410,16,-223,-129,39,68,2
11415,17,-222,-129,43,69,3
11420,19,-223,-131,46,66,2
11425,20,-222,-128,48,65,5
11430,18,-223,-133,49,63,7
11435,17,-222,-131,46,62,9
11440,19,-222,-131,45,61,10
11445,21,-222,-131,41,60,11
11450,20,-221,-132,35,60,14
11455,18,-220,-129,29,59,14
11460,18,-221,-130,22,59,14
11465,20,-222,-132,16,59,13
11470,18,-219,-130,10,61,14
11475,19,-218,-133,5,61,14
11480,16,-219,-132,2,59,13
11485,17,-220,-131,2,58,15
11490,18,-220,-126,3,58,15
11495,17,-222,-130,3,57,16
11500,14,-218,-130,7,55,16
11505,15,-223,-126,13,53,14
11510,16,-223,-128,17,52,12
11515,15,-221,-129,21,50,8
11520,16,-222,-127,24,48,6
11525,16,-220,-127,26,46,2
11530,12,-220,-134,29,45,-1
11535,14,-223,-132,32,44,-4
11540,17,-221,-129,36,43,-5
11545,13,-222,-132,41,40,-6
11550,16,-221,-133,45,38,-7
11555,19,-221,-131,51,39,-8
11560,16,-220,-132,52,38,-7
11565,17,-220,-131,55,37,-9
11570,18,-224,-123,56,37,-9
11575,19,-221,-126,53,37,-9
11580,18,-221,-126,50,37,-9
11585,18,-220,-125,46,37,-7
11590,20,-221,-128,41,38,-6
11595,20,-222,-127,39,38,-4
11600,20,-221,-130,35,40,-2
11605,22,-223,-127,31,41,-3
11610,23,-224,-129,30,45,0
11615,20,-225,-131,27,48,1
11620,20,-220,-130,26,53,4
11625,20,-224,-127,26,59,5
11630,19,-225,-126,26,63,10
11635,18,-222,-130,29,70,14
11640,16,-225,-129,29,73,17
11645,14,-223,-128,29,75,20
11650,14,-223,-127,25,78,23
11655,13,-222,-128,23,80,24
11660,15,-226,-126,20,81,27
11665,16,-226,-126,19,83,27
11670,14,-223,-123,17,80,29
11675,13,-227,-123,15,81,25
11680,11,-225,-126,16,80,23
11685,14,-225,-127,18,81,19
11690,13,-222,-127,21,80,19
11695,13,-226,-125,26,80,16
11700,14,-224,-126,31,79,14
11705,13,-224,-125,34,78,12
11710,13,-223,-127,35,76,13
11715,13,-226,-128,34,74,10
11720,13,-226,-125,34,72,11
11725,13,-225,-124,31,69,7
11730,11,-224,-119,30,67,7
11735,11,-224,-121,27,62,5
11740,13,-225,-125,26,59,5
11745,15,-226,-121,26,55,4
11750,12,-228,-120,26,51,5
11755,13,-227,-122,25,46,2
11760,14,-225,-122,27,44,4
11765,12,-227,-125,25,42,5
11770,13,-224,-127,25,40,8
11775,13,-226,-124,25,37,7
11780,8,-225,-125,27,36,10
11785,14,-223,-129,26,35,9
11790,12,-224,-125,29,32,13
11795,12,-225,-128,28,34,11
11800,11,-224,-125,29,31,13
11805,12,-223,-125,28,34,9
11810,13,-224,-124,25,33,9
11815,12,-225,-126,24,34,5
11820,13,-226,-130,24,35,4
11825,12,-223,-123,23,38,2
11830,13,-225,-131,22,40,2
11835,16,-224,-126,22,41,-1
11840,10,-224,-127,21,43,-1
11845,13,-221,-125,20,47,-3
11850,15,-223,-127,16,49,-2
11855,12,-222,-128,15,52,-3
11860,12,-224,-125,13,55,-1
11865,12,-223,-127,14,59,-2
11870,17,-224,-122,15,61,-1
11875,12,-223,-125,14,63,-2
11880,15,-223,-123,12,65,-1
11885,15,-221,-128,11,68,0
11890,18,-222,-125,11,71,2
11895,17,-225,-126,8,72,1
11900,15,-224,-126,7,74,3
11905,18,-224,-123,2,76,2
11910,14,-223,-125,-1,77,4
11915,15,-223,-126,-3,78,3
11920,15,-226,-129,-3,80,7
11925,16,-227,-128,-4,83,7
11930,17,-225,-122,-5,84,8
11935,15,-225,-126,-4,86,7
11940,13,-227,-123,-3,87,9
11945,19,-228,-124,-1,88,5
11950,14,-227,-120,-2,88,6
11955,16,-227,-121,-2,88,3
11960,16,-221,-121,-1,85,4
11965,16,-225,-121,-3,84,-1
11970,14,-226,-123,-4,82,0
11975,14,-224,-124,-5,80,-5
11980,14,-225,-123,-6,77,-5
11985,16,-226,-124,-8,76,-7
11990,16,-225,-123,-9,72,-4
11995,14,-224,-123,-10,72,-6
