timestamp,acc_x,acc_y,acc_z,gyro_x,gyro_y,gyro_z
0,19,-262,-38,-26,17,-7
5,21,-262,-37,-23,19,-6
10,19,-263,-43,-18,20,-7
15,19,-262,-40,-14,23,-8
20,21,-261,-39,-11,23,-10
25,21,-260,-43,-8,22,-12
30,21,-259,-45,-8,19,-13
35,20,-260,-40,-10,17,-15
40,23,-263,-39,-14,16,-16
45,22,-261,-44,-21,14,-18
50,22,-257,-40,-27,12,-17
55,21,-260,-39,-32,10,-18
60,21,-263,-40,-36,7,-18
65,23,-265,-40,-38,3,-17
70,18,-256,-38,-37,1,-17
75,15,-261,-50,-34,0,-16
80,23,-275,-34,-31,2,-15
85,20,-263,-37,-30,1,-14
90,23,-262,-41,-28,4,-14
95,23,-261,-42,-28,7,-13
100,21,-264,-41,-30,10,-13
105,21,-264,-45,-32,13,-15
110,25,-262,-40,-33,13,-16
115,20,-262,-46,-33,15,-18
120,20,-261,-45,-31,14,-17
125,20,-263,-46,-31,17,-17
130,23,-265,-38,-28,17,-19
135,22,-262,-41,-24,17,-19
140,19,-263,-40,-21,17,-20
145,21,-263,-41,-17,18,-19
150,22,-263,-41,-14,18,-19
155,21,-261,-38,-9,17,-19
160,23,-261,-41,-6,17,-20
165,21,-263,-40,-3,18,-18
170,23,-264,-38,-2,17,-18
175,22,-261,-38,-1,18,-16
180,19,-262,-34,-2,19,-15
185,19,-265,-45,-3,20,-14
190,21,-262,-38,-3,21,-14
195,20,-263,-39,-4,21,-13
200,23,-258,-34,-5,20,-13
205,23,-260,-35,-8,18,-13
210,20,-259,-38,-10,14,-13
215,24,-259,-41,-11,12,-12
220,27,-261,-39,-14,8,-15
225,23,-261,-38,-19,5,-15
230,27,-264,-41,-24,2,-16
235,25,-261,-39,-28,-3,-17
240,20,-259,-40,-33,-4,-18
245,24,-259,-37,-37,-5,-18
250,23,-258,-40,-42,-5,-20
255,24,-261,-37,-45,-6,-20
260,23,-261,-37,-47,-4,-19
265,26,-262,-38,-48,-3,-19
270,22,-263,-38,-49,-1,-19
275,20,-265,-39,-46,2,-18
280,22,-263,-37,-45,3,-18
285,23,-261,-39,-41,6,-17
290,18,-262,-43,-40,8,-17
295,20,-262,-42,-40,9,-16
300,21,-263,-39,-38,10,-16
305,24,-261,-36,-35,11,-15
310,21,-261,-38,-33,11,-15
315,20,-264,-39,-32,8,-15
320,22,-260,-37,-29,7,-15
325,21,-265,-42,-26,7,-14
330,21,-262,-38,-23,4,-14
335,26,-265,-41,-20,1,-14
340,28,-264,-41,-18,-1,-15
345,25,-265,-39,-15,-4,-18
350,22,-264,-41,-12,-8,-19
355,24,-263,-38,-10,-10,-18
360,24,-264,-41,-9,-13,-19
365,23,-263,-44,-8,-17,-20
370,22,-261,-42,-8,-19,-22
375,22,-263,-39,-8,-21,-21
380,18,-261,-43,-9,-22,-19
385,21,-261,-39,-11,-22,-19
390,24,-264,-38,-14,-22,-18
395,23,-264,-35,-15,-22,-18
400,19,-263,-40,-14,-21,-18
405,24,-263,-35,-14,-19,-18
410,24,-264,-38,-16,-16,-16
415,23,-260,-41,-17,-12,-15
420,22,-261,-37,-20,-9,-14
425,20,-263,-38,-19,-4,-12
430,21,-261,-34,-21,0,-9
435,21,-263,-36,-20,1,-8
440,19,-260,-36,-20,4,-5
445,23,-264,-41,-21,6,-4
450,20,-258,-35,-21,8,-3
455,10,-257,-39,-20,9,-3
460,22,-259,-34,-23,11,-3
465,22,-260,-36,-24,12,-4
470,22,-260,-36,-25,12,-4
475,25,-261,-34,-28,14,-4
480,23,-262,-34,-30,13,-6
485,21,-265,-36,-33,14,-9
490,19,-259,-36,-33,15,-8
495,21,-263,-35,-35,14,-9
500,22,-262,-37,-39,10,-12
505,26,-265,-34,-40,8,-13
510,22,-262,-36,-42,8,-11
515,19,-263,-39,-42,6,-14
520,23,-263,-40,-44,2,-12
525,23,-261,-41,-44,4,-16
530,22,-263,-41,-45,5,-15
535,20,-263,-38,-46,6,-15
540,19,-261,-35,-44,4,-14
545,25,-264,-38,-47,6,-14
550,23,-261,-42,-45,6,-14
555,19,-262,-39,-44,4,-13
560,18,-263,-39,-43,0,-12
565,21,-261,-37,-38,-4,-11
570,19,-261,-40,-31,-7,-14
575,21,-262,-36,-24,-10,-15
580,23,-264,-34,-18,-12,-15
585,22,-265,-36,-14,-13,-17
590,23,-263,-33,-12,-12,-15
595,26,-263,-35,-12,-13,-16
600,24,-262,-36,-13,-14,-13
605,24,-260,-39,-15,-14,-10
610,21,-261,-38,-17,-12,-9
615,22,-261,-38,-21,-11,-10
620,23,-261,-36,-25,-9,-9
625,27,-258,-37,-30,-8,-8
630,26,-262,-37,-33,-7,-6
635,25,-261,-32,-38,-7,-5
640,23,-258,-37,-42,-5,-5
645,21,-262,-37,-48,-4,-6
650,20,-258,-36,-49,-3,-4
655,23,-262,-35,-50,-4,-6
660,21,-259,-35,-49,-3,-7
665,22,-256,-38,-49,-4,-7
670,33,-264,-34,-49,-5,-8
675,25,-262,-39,-48,-6,-10
680,28,-261,-40,-46,-6,-11
685,25,-261,-38,-46,-3,-13
690,22,-262,-39,-41,-2,-15
695,21,-263,-43,-40,2,-17
700,21,-262,-40,-38,5,-21
705,24,-261,-35,-35,8,-23
710,25,-265,-40,-31,12,-24
715,20,-261,-38,-29,15,-25
720,25,-264,-28,-26,20,-25
725,24,-261,-40,-23,20,-27
730,20,-261,-38,-19,19,-26
735,23,-262,-36,-16,18,-25
740,22,-260,-34,-16,16,-23
745,19,-261,-36,-13,15,-22
750,22,-261,-35,-15,14,-18
755,23,-262,-33,-16,14,-16
760,17,-259,-32,-20,15,-15
765,21,-264,-36,-22,15,-12
770,21,-263,-36,-26,15,-10
775,21,-260,-34,-28,14,-8
780,20,-261,-35,-30,14,-8
785,20,-262,-35,-31,16,-8
790,19,-262,-35,-34,17,-7
795,19,-260,-38,-38,18,-9
800,19,-261,-34,-43,19,-8
805,18,-257,-36,-47,20,-8
810,20,-257,-36,-49,20,-8
815,22,-262,-37,-50,20,-9
820,24,-261,-37,-50,23,-10
825,22,-263,-43,-48,27,-9
830,18,-264,-35,-45,30,-11
835,21,-258,-39,-45,34,-14
840,24,-262,-37,-44,36,-17
845,24,-263,-38,-42,37,-18
850,24,-262,-38,-41,38,-21
855,25,-262,-33,-42,37,-22
860,22,-264,-35,-41,36,-22
865,21,-263,-30,-40,36,-21
870,25,-265,-32,-40,37,-20
875,23,-261,-28,-40,39,-19
880,23,-263,-31,-40,42,-17
885,24,-262,-32,-42,47,-14
890,27,-266,-36,-42,50,-10
895,21,-263,-35,-42,54,-6
900,22,-264,-36,-40,60,-4
905,25,-266,-34,-41,65,-1
910,24,-265,-32,-42,69,0
915,21,-262,-31,-43,73,2
920,26,-262,-33,-44,74,7
925,22,-260,-36,-44,75,8
930,17,-263,-33,-46,77,11
935,22,-265,-32,-46,77,13
940,23,-261,-34,-46,75,16
945,26,-265,-33,-48,74,17
950,22,-258,-34,-49,70,20
955,21,-259,-33,-53,67,25
960,22,-263,-33,-55,65,26
965,25,-262,-36,-59,64,30
970,23,-260,-36,-64,63,35
975,25,-265,-37,-67,63,39
980,24,-265,-39,-68,63,41
985,24,-260,-39,-64,63,44
990,25,-259,-46,-58,62,45
995,24,-263,-44,-49,60,44
1000,25,-263,-42,-40,59,45
1005,27,-260,-46,-29,55,44
1010,26,-261,-47,-21,52,44
1015,29,-262,-46,-14,49,44
1020,28,-262,-49,-10,48,44
1025,27,-265,-49,-6,47,47
1030,25,-262,-48,-2,49,48
1035,30,-265,-43,1,53,50
1040,24,-264,-41,4,55,52
1045,27,-262,-39,7,58,57
1050,26,-262,-41,7,63,60
1055,26,-263,-35,11,68,66
1060,29,-263,-36,14,73,70
1065,28,-260,-33,15,77,72
1070,27,-263,-29,14,80,76
1075,25,-260,-32,9,83,80
1080,29,-261,-30,6,81,83
1085,25,-258,-27,-2,80,86
1090,24,-259,-30,-11,77,89
1095,21,-261,-29,-20,73,90
1100,15,-257,-28,-29,72,91
1105,22,-260,-29,-39,69,91
1110,21,-261,-27,-45,67,90
1115,20,-260,-30,-52,63,91
1120,23,-262,-30,-58,58,89
1125,18,-260,-30,-62,54,88
1130,20,-264,-33,-64,49,88
1135,20,-265,-31,-64,45,88
1140,19,-264,-37,-62,44,87
1145,21,-265,-39,-57,41,87
1150,19,-258,-34,-51,39,90
1155,21,-264,-36,-46,39,94
1160,21,-265,-36,-41,41,98
1165,20,-266,-42,-36,43,101
1170,21,-266,-40,-28,43,103
1175,22,-266,-40,-22,43,108
1180,15,-267,-41,-17,43,114
1185,16,-265,-38,-11,42,120
1190,16,-266,-39,-10,43,126
1195,16,-263,-41,-7,42,134
1200,14,-265,-44,-7,47,142
1205,12,-262,-40,-5,51,149
1210,13,-266,-37,-3,58,156
1215,14,-265,-41,-1,66,162
1220,14,-265,-40,3,78,169
1225,12,-264,-43,5,91,176
1230,14,-263,-41,6,103,184
1235,15,-263,-40,7,117,189
1240,17,-263,-42,6,127,196
1245,13,-259,-40,7,133,199
1250,15,-264,-42,7,137,203
1255,14,-259,-38,9,139,207
1260,15,-264,-44,11,138,210
1265,17,-258,-40,14,133,213
1270,17,-260,-39,19,125,218
1275,19,-262,-37,26,118,218
1280,17,-263,-37,33,114,220
1285,18,-258,-37,37,108,221
1290,19,-259,-28,40,105,220
1295,19,-260,-29,43,102,220
1300,20,-257,-33,44,99,224
1305,19,-259,-30,48,92,227
1310,27,-258,-30,51,85,229
1315,25,-264,-29,56,80,233
1320,25,-262,-31,57,73,235
1325,25,-262,-35,57,68,239
1330,27,-261,-32,57,62,242
1335,25,-264,-31,58,54,245
1340,24,-263,-33,61,44,249
1345,21,-262,-35,63,29,252
1350,18,-261,-34,65,15,256
1355,15,-259,-41,61,2,261
1360,15,-260,-37,57,-9,267
1365,24,-266,-42,48,-16,272
1370,17,-264,-39,45,-15,275
1375,16,-261,-41,41,-14,277
1380,12,-262,-43,41,-14,283
1385,15,-261,-41,41,-10,288
1390,16,-263,-37,44,-3,290
1395,11,-263,-34,49,9,290
1400,13,-263,-32,59,25,291
1405,9,-263,-30,69,45,290
1410,7,-266,-31,76,63,289
1415,10,-267,-34,84,82,289
1420,9,-269,-26,89,102,287
1425,11,-268,-30,98,119,284
1430,12,-264,-31,106,138,280
1435,9,-266,-29,110,154,276
1440,11,-265,-25,114,167,273
1445,11,-264,-25,116,176,270
1450,8,-264,-17,118,183,270
1455,10,-269,-18,120,188,270
1460,8,-265,-19,121,188,276
1465,12,-266,-14,125,190,289
1470,11,-269,-12,130,191,303
1475,4,-269,-15,136,191,323
1480,11,-267,-9,144,190,345
1485,11,-262,-9,149,191,364
1490,11,-265,-8,151,189,383
1495,9,-264,-16,147,186,402
1500,7,-259,-9,143,183,418
1505,6,-261,-8,141,178,430
1510,6,-259,-18,141,174,444
1515,1,-256,-16,137,168,455
1520,3,-256,-17,134,162,467
1525,1,-254,-18,123,162,482
1530,-1,-251,-29,103,158,495
1535,-6,-248,-30,74,159,510
1540,-6,-248,-30,46,166,525
1545,-8,-249,-29,14,173,536
1550,-13,-247,-32,-18,185,546
1555,-8,-249,-32,-36,198,556
1560,-13,-251,-26,-53,215,554
1565,-17,-253,-28,-62,238,545
1570,-18,-253,-31,-53,257,542
1575,-18,-256,-31,-44,273,541
1580,-17,-256,-34,-17,285,535
1585,-22,-264,-21,16,292,522
1590,-27,-260,-31,46,292,512
1595,-15,-264,-30,72,287,506
1600,-24,-266,-29,92,278,485
1605,-29,-270,-26,114,265,475
1610,-30,-264,-27,137,251,469
1615,-24,-266,-27,151,237,466
1620,-26,-266,-26,157,221,457
1625,-32,-267,-31,166,209,455
1630,-30,-262,-28,169,196,457
1635,-28,-263,-25,160,182,458
1640,-31,-262,-26,158,173,459
1645,-40,-259,-26,157,173,465
1650,-27,-263,-25,148,177,468
1655,-33,-259,-23,135,184,463
1660,-37,-261,-25,119,197,468
1665,-35,-259,-24,101,212,478
1670,-21,-259,-25,79,228,479
1675,-32,-262,-22,59,236,457
1680,-37,-260,-23,57,250,455
1685,-36,-259,-23,53,261,461
1690,-38,-256,-19,45,269,451
1695,-39,-257,-16,48,276,450
1700,-38,-256,-19,53,282,447
1705,-39,-252,-22,53,290,447
1710,-42,-255,-23,47,303,450
1715,-32,-252,-23,41,324,458
1720,-32,-248,-30,28,344,456
1725,-47,-251,-21,18,359,461
1730,-41,-252,-30,4,378,476
1735,-39,-249,-29,-21,395,483
1740,-37,-247,-30,-50,405,483
1745,-43,-251,-24,-70,404,476
1750,-44,-249,-26,-76,401,476
1755,-44,-250,-27,-79,396,474
1760,-45,-253,-25,-80,392,475
1765,-33,-252,-19,-79,386,478
1770,-56,-252,-21,-77,373,462
1775,-60,-251,-18,-64,365,473
1780,-60,-247,-24,-66,366,489
1785,-57,-244,-17,-79,365,500
1790,-60,-244,-14,-83,362,505
1795,-60,-243,-16,-80,355,512
1800,-57,-244,-17,-75,347,514
1805,-64,-244,-22,-76,343,515
1810,-64,-245,-15,-79,343,516
1815,-62,-245,-14,-77,342,515
1820,-70,-245,-18,-77,334,507
1825,-77,-243,-17,-70,324,502
1830,-73,-240,-22,-65,322,515
1835,-74,-242,-19,-75,319,521
1840,-73,-240,-19,-77,313,525
1845,-73,-245,-17,-74,304,527
1850,-67,-244,-19,-66,294,524
1855,-76,-243,-17,-60,284,523
1860,-77,-239,-22,-58,277,520
1865,-72,-239,-21,-58,270,526
1870,-66,-239,-21,-61,262,524
1875,-69,-235,-19,-63,261,520
1880,-70,-234,-16,-68,262,524
1885,-70,-240,-17,-76,262,532
1890,-69,-237,-18,-88,263,539
1895,-67,-238,-25,-104,263,541
1900,-69,-241,-16,-124,260,544
1905,-67,-238,-12,-144,256,552
1910,-64,-239,-19,-168,253,560
1915,-62,-237,-21,-192,243,556
1920,-76,-240,-19,-207,236,547
1925,-73,-241,-26,-216,236,560
1930,-70,-245,-20,-216,244,579
1935,-73,-246,-27,-205,249,583
1940,-70,-248,-27,-180,253,586
1945,-73,-244,-26,-153,259,593
1950,-72,-246,-24,-126,263,598
1955,-71,-248,-21,-108,265,601
1960,-58,-248,-19,-91,265,596
1965,-87,-249,-16,-76,249,566
1970,-86,-245,-28,-40,248,578
1975,-87,-245,-36,-32,254,605
1980,-77,-244,-34,-36,251,630
1985,-75,-243,-37,-41,242,642
1990,-78,-242,-35,-48,236,648
1995,-81,-236,-42,-59,234,652
2000,-77,-235,-36,-73,234,655
2005,-75,-236,-34,-79,234,650
2010,-84,-237,-38,-72,249,655
2015,-92,-232,-42,-79,262,665
2020,-88,-232,-39,-88,271,673
2025,-88,-235,-37,-86,273,676
2030,-93,-230,-36,-88,273,674
2035,-97,-227,-32,-94,273,680
2040,-96,-228,-33,-103,274,687
2045,-98,-225,-30,-113,278,696
2050,-101,-226,-34,-117,280,700
2055,-103,-227,-30,-116,276,702
2060,-103,-225,-33,-111,268,704
2065,-98,-225,-36,-113,260,700
2070,-109,-224,-26,-113,253,691
2075,-117,-223,-34,-102,259,690
2080,-117,-225,-37,-101,266,699
2085,-115,-224,-38,-108,270,708
2090,-121,-223,-34,-115,268,713
2095,-117,-223,-34,-120,261,720
2100,-115,-226,-33,-119,260,727
2105,-114,-225,-42,-113,266,723
2110,-117,-224,-34,-110,271,716
2115,-126,-224,-43,-104,273,716
2120,-128,-227,-39,-101,273,728
2125,-125,-217,-41,-115,263,741
2130,-124,-221,-38,-132,250,748
2135,-124,-218,-33,-147,232,753
2140,-126,-217,-38,-155,219,754
2145,-126,-219,-40,-156,208,752
2150,-130,-215,-41,-153,199,752
2155,-130,-212,-45,-146,196,748
2160,-125,-215,-46,-141,196,744
2165,-127,-208,-49,-140,199,740
2170,-124,-209,-50,-138,204,737
2175,-125,-209,-48,-134,210,736
2180,-125,-213,-38,-134,218,737
2185,-127,-203,-45,-136,224,737
2190,-127,-207,-45,-135,228,739
2195,-127,-210,-43,-126,228,738
2200,-127,-209,-43,-111,226,738
2205,-127,-209,-45,-96,219,734
2210,-130,-209,-46,-89,209,730
2215,-131,-210,-40,-87,198,723
2220,-133,-208,-48,-92,187,722
2225,-128,-204,-43,-112,177,722
2230,-136,-205,-36,-136,166,708
2235,-147,-206,-44,-139,155,706
2240,-128,-208,-36,-148,156,717
2245,-152,-210,-31,-154,161,702
2250,-146,-206,-35,-143,167,715
2255,-144,-202,-35,-146,175,728
2260,-143,-202,-42,-153,178,735
2265,-148,-202,-41,-161,173,740
2270,-147,-198,-38,-171,165,745
2275,-148,-196,-45,-174,156,752
2280,-152,-192,-47,-176,144,762
2285,-152,-194,-52,-180,132,773
2290,-147,-196,-46,-181,118,782
2295,-148,-198,-51,-175,106,788
2300,-152,-196,-46,-160,93,791
2305,-150,-200,-40,-147,77,793
2310,-154,-200,-43,-130,61,794
2315,-154,-205,-44,-111,43,796
2320,-157,-203,-45,-97,27,797
2325,-161,-207,-43,-82,11,800
2330,-161,-204,-47,-72,-6,805
2335,-161,-202,-43,-65,-21,810
2340,-161,-199,-41,-58,-33,816
2345,-162,-201,-41,-47,-44,821
2350,-163,-197,-43,-36,-54,827
2355,-162,-194,-46,-35,-62,832
2360,-161,-191,-45,-44,-68,838
2365,-162,-190,-43,-58,-73,844
2370,-166,-185,-42,-72,-78,848
2375,-166,-180,-43,-85,-86,850
2380,-171,-176,-47,-95,-93,852
2385,-168,-176,-43,-102,-99,851
2390,-171,-174,-46,-106,-104,850
2395,-177,-169,-51,-110,-105,850
2400,-175,-170,-50,-116,-108,848
2405,-174,-168,-49,-120,-108,844
2410,-177,-168,-49,-124,-110,842
2415,-177,-172,-47,-129,-117,841
2420,-179,-168,-48,-137,-128,840
2425,-181,-169,-48,-143,-135,838
2430,-179,-166,-50,-151,-144,840
2435,-181,-168,-47,-165,-152,844
2440,-180,-169,-47,-178,-156,849
2445,-179,-169,-48,-186,-162,850
2450,-179,-171,-45,-186,-172,853
2455,-185,-171,-54,-182,-182,852
2460,-185,-170,-55,-183,-193,848
2465,-185,-169,-57,-191,-199,841
2470,-187,-169,-52,-193,-202,832
2475,-191,-168,-57,-190,-202,826
2480,-189,-169,-58,-182,-200,818
2485,-189,-169,-56,-168,-197,813
2490,-188,-169,-55,-160,-196,805
2495,-192,-166,-54,-154,-198,799
2500,-193,-166,-51,-150,-204,791
2505,-197,-168,-45,-146,-214,783
2510,-192,-165,-51,-138,-223,777
2515,-190,-164,-50,-135,-230,774
2520,-192,-159,-50,-138,-240,773
2525,-192,-155,-46,-155,-250,773
2530,-193,-156,-46,-178,-258,770
2535,-194,-150,-48,-198,-265,768
2540,-191,-152,-44,-216,-271,769
2545,-195,-149,-42,-223,-276,766
2550,-197,-146,-44,-232,-283,766
2555,-195,-147,-43,-243,-290,762
2560,-202,-151,-49,-248,-297,758
2565,-201,-147,-48,-253,-303,754
2570,-201,-148,-49,-257,-307,747
2575,-200,-149,-50,-255,-306,741
2580,-205,-150,-47,-252,-304,734
2585,-198,-148,-49,-254,-302,730
2590,-197,-151,-45,-249,-299,722
2595,-203,-152,-50,-239,-297,715
2600,-202,-147,-51,-234,-296,713
2605,-196,-154,-47,-225,-295,704
2610,-199,-153,-42,-206,-298,691
2615,-204,-150,-50,-197,-302,685
2620,-200,-150,-46,-201,-309,680
2625,-196,-149,-40,-197,-321,671
2630,-198,-151,-46,-183,-333,666
2635,-199,-146,-47,-181,-342,664
2640,-194,-149,-37,-190,-343,665
2645,-193,-146,-36,-186,-344,662
2650,-195,-148,-37,-169,-343,657
2655,-194,-144,-39,-163,-340,658
2660,-192,-144,-35,-170,-335,658
2665,-184,-143,-31,-164,-334,650
2670,-176,-146,-39,-146,-337,634
2675,-185,-146,-40,-139,-333,615
2680,-184,-147,-42,-165,-322,596
2685,-186,-148,-36,-195,-309,572
2690,-187,-152,-44,-212,-299,548
2695,-190,-152,-44,-228,-288,525
2700,-191,-149,-42,-252,-282,507
2705,-196,-142,-44,-278,-280,488
2710,-203,-141,-45,-309,-278,476
2715,-210,-133,-41,-336,-277,468
2720,-210,-128,-41,-362,-285,468
2725,-211,-121,-38,-388,-310,475
2730,-214,-120,-42,-415,-344,485
2735,-214,-119,-34,-437,-375,502
2740,-224,-115,-33,-446,-388,531
2745,-224,-113,-34,-447,-384,569
2750,-225,-112,-26,-449,-366,608
2755,-227,-107,-21,-446,-346,647
2760,-225,-101,-23,-445,-343,678
2765,-227,-96,-24,-442,-349,707
2770,-224,-94,-23,-434,-351,741
2775,-226,-93,-32,-414,-342,767
2780,-223,-94,-28,-381,-326,777
2785,-216,-96,-25,-330,-320,773
2790,-215,-94,-21,-267,-320,765
2795,-209,-94,-27,-208,-324,767
2800,-204,-90,-26,-164,-321,777
2805,-203,-83,-33,-144,-313,789
2810,-201,-78,-32,-159,-298,805
2815,-203,-74,-33,-205,-284,822
2820,-206,-69,-36,-268,-265,845
2825,-207,-74,-28,-324,-238,862
2830,-215,-71,-22,-358,-214,885
2835,-230,-67,-19,-383,-197,903
2840,-229,-74,-16,-403,-191,922
2845,-241,-71,-14,-421,-195,917
2850,-242,-65,-16,-446,-203,894
2855,-259,-66,-11,-454,-206,907
2860,-265,-59,-5,-449,-223,926
2865,-255,-63,1,-428,-248,946
2870,-251,-57,-2,-393,-269,957
2875,-247,-58,-10,-346,-285,973
2880,-252,-57,-7,-294,-302,987
2885,-253,-58,0,-253,-329,988
2890,-260,-48,-10,-223,-360,987
2895,-262,-49,-11,-198,-383,989
2900,-260,-52,-20,-176,-385,991
2905,-263,-51,-20,-160,-373,989
2910,-259,-56,-21,-147,-356,983
2915,-254,-54,-17,-136,-341,975
2920,-245,-56,-19,-121,-331,971
2925,-248,-54,-13,-109,-324,969
2930,-249,-50,-8,-102,-327,965
2935,-249,-45,-5,-98,-338,965
2940,-240,-44,1,-101,-354,964
2945,-246,-44,-2,-110,-367,958
2950,-250,-45,0,-121,-377,943
2955,-255,-43,0,-129,-390,929
2960,-254,-44,-4,-132,-401,917
2965,-254,-48,-3,-138,-405,912
2970,-251,-46,-3,-141,-403,907
2975,-250,-49,-5,-141,-398,902
2980,-254,-46,-6,-139,-388,892
2985,-253,-46,-6,-140,-379,881
2990,-251,-49,-10,-147,-369,872
2995,-249,-48,-2,-151,-359,864
3000,-248,-50,-7,-153,-349,858
3005,-251,-48,-11,-152,-339,852
3010,-251,-49,-5,-148,-334,847
3015,-254,-47,-12,-141,-337,841
3020,-255,-49,-6,-133,-343,838
3025,-260,-44,-3,-121,-344,830
3030,-254,-39,-1,-112,-347,819
3035,-257,-41,-8,-102,-343,810
3040,-258,-39,-1,-87,-332,798
3045,-265,-35,-2,-68,-322,783
3050,-269,-34,0,-45,-308,761
3055,-270,-34,0,-17,-299,734
3060,-272,-28,-3,10,-294,702
3065,-278,-28,-6,31,-291,667
3070,-286,-21,-5,48,-283,636
3075,-294,-20,-10,67,-266,597
3080,-302,-18,-11,99,-246,554
3085,-300,-19,-10,147,-227,507
3090,-297,-20,-13,212,-210,460
3095,-286,-25,-16,288,-194,421
3100,-278,-23,-13,361,-171,386
3105,-267,-26,-11,441,-137,356
3110,-254,-32,-4,521,-103,325
3115,-246,-29,-4,602,-69,296
3120,-236,-26,1,677,-41,267
3125,-221,-26,-1,730,-22,242
3130,-214,-27,4,755,-7,219
3135,-204,-21,7,754,-1,194
3140,-197,-17,12,728,3,175
3145,-192,-13,22,682,4,158
3150,-190,-12,19,633,5,142
3155,-194,-10,19,582,5,131
3160,-192,0,26,527,-2,115
3165,-191,2,26,479,-13,98
3170,-192,6,28,426,-24,82
3175,-192,9,29,372,-32,69
3180,-194,14,24,319,-33,56
3185,-200,13,21,274,-25,43
3190,-205,17,20,238,-10,24
3195,-214,17,15,209,11,2
3200,-223,20,13,183,41,-20
3205,-228,20,14,153,81,-39
3210,-234,26,14,112,131,-55
3215,-242,18,16,64,186,-67
3220,-247,10,16,15,239,-77
3225,-249,4,9,-23,281,-81
3230,-249,0,10,-52,318,-81
3235,-250,-4,11,-75,351,-81
3240,-248,-9,14,-95,380,-75
3245,-247,-11,9,-119,411,-70
3250,-250,-18,2,-143,443,-66
3255,-249,-17,3,-171,476,-58
3260,-251,-28,0,-190,505,-52
3265,-255,-18,2,-201,526,-50
3270,-255,-23,0,-194,537,-49
3275,-255,-23,-2,-174,547,-42
3280,-253,-26,-7,-144,559,-32
3285,-243,-27,-8,-111,573,-21
3290,-244,-27,-6,-73,591,-12
3295,-243,-30,-8,-42,608,-7
3300,-240,-29,-8,-20,625,-11
3305,-232,-26,-8,-10,637,-14
3310,-228,-23,-10,-21,649,-17
3315,-226,-25,-9,-40,663,-17
3320,-239,-26,-6,-70,671,-19
3325,-244,-22,-3,-126,671,-25
3330,-275,-24,6,-180,648,-22
3335,-242,-26,-1,-222,571,-19
3340,-233,-30,-10,-249,518,-17
3345,-238,-30,-20,-255,491,-17
3350,-242,-30,-26,-257,474,-21
3355,-234,-28,-30,-274,455,-32
3360,-247,-30,-34,-283,427,-52
3365,-250,-29,-35,-292,399,-51
3370,-248,-31,-37,-301,370,-46
3375,-245,-26,-32,-317,340,-53
3380,-256,-22,-26,-326,309,-67
3385,-260,-14,-29,-316,258,-90
3390,-260,-13,-33,-302,213,-88
3395,-264,-7,-30,-306,188,-78
3400,-256,-8,-30,-302,163,-74
3405,-261,-11,-28,-282,143,-67
3410,-266,-2,-21,-275,126,-70
3415,-239,-13,-24,-258,99,-70
3420,-233,-15,-22,-221,74,-75
3425,-253,-14,-32,-174,55,-67
3430,-283,-10,-35,-172,53,-50
3435,-277,-9,-38,-187,39,-24
3440,-247,-13,-40,-201,6,-8
3445,-221,-21,-49,-197,-7,-6
3450,-194,-22,-59,-174,15,2
3455,-242,-20,-58,-150,71,27
3460,-282,-5,-54,-136,126,54
3465,-277,3,-58,-126,117,82
3470,-261,2,-60,-130,87,101
3475,-256,4,-59,-135,58,106
3480,-256,2,-52,-149,34,96
3485,-255,0,-50,-173,5,77
3490,-247,-4,-47,-210,-25,57
3495,-248,-9,-38,-247,-48,43
3500,-245,-13,-36,-271,-73,28
3505,-250,-15,-29,-278,-92,14
3510,-252,-19,-33,-275,-110,3
3515,-253,-20,-27,-271,-117,-2
3520,-253,-22,-23,-270,-122,-8
3525,-256,-22,-25,-262,-123,-11
3530,-249,-31,-24,-243,-125,-17
3535,-258,-28,-26,-214,-127,-22
3540,-261,-28,-32,-181,-128,-25
3545,-257,-26,-26,-148,-129,-26
3550,-257,-25,-33,-123,-128,-27
3555,-254,-25,-33,-118,-122,-26
3560,-251,-22,-31,-122,-112,-23
3565,-247,-20,-27,-133,-105,-23
3570,-244,-21,-24,-147,-102,-25
3575,-247,-19,-28,-162,-102,-28
3580,-242,-19,-25,-176,-100,-32
3585,-239,-34,-14,-194,-99,-39
3590,-232,-24,-12,-208,-95,-48
3595,-229,-26,-3,-215,-90,-57
3600,-222,-32,-3,-209,-86,-65
3605,-218,-35,4,-199,-75,-76
3610,-219,-35,9,-185,-61,-85
3615,-220,-36,6,-173,-46,-89
3620,-225,-35,1,-157,-29,-94
3625,-231,-32,-2,-130,-14,-101
3630,-238,-29,-8,-93,1,-109
3635,-248,-31,-12,-50,18,-119
3640,-252,-31,-14,-1,33,-126
3645,-249,-35,-19,50,41,-130
3650,-251,-35,-27,101,41,-129
3655,-248,-32,-31,144,34,-122
3660,-252,-32,-38,172,25,-109
3665,-254,-26,-44,180,18,-96
3670,-257,-26,-53,162,16,-82
3675,-262,-12,-55,115,16,-68
3680,-266,-13,-53,49,13,-53
3685,-265,-12,-49,-21,6,-40
3690,-267,-6,-47,-79,-12,-35
3695,-267,-11,-43,-120,-38,-31
3700,-266,-15,-43,-141,-67,-31
3705,-265,-15,-39,-147,-99,-27
3710,-263,-15,-36,-146,-126,-23
3715,-257,-17,-33,-143,-150,-15
3720,-256,-20,-34,-140,-174,-10
3725,-249,-23,-29,-140,-196,-5
3730,-250,-17,-31,-146,-217,-2
3735,-247,-22,-27,-161,-239,3
3740,-242,-19,-28,-178,-260,6
3745,-242,-10,-27,-199,-283,3
3750,-242,-21,-28,-216,-305,-2
3755,-236,-17,-31,-232,-327,-9
3760,-238,-19,-28,-241,-350,-20
3765,-235,-17,-29,-246,-374,-30
3770,-235,-17,-28,-250,-403,-39
3775,-235,-22,-28,-245,-429,-50
3780,-230,-24,-33,-242,-457,-61
3785,-237,-24,-31,-241,-484,-70
3790,-237,-23,-29,-246,-512,-79
3795,-236,-24,-30,-253,-544,-88
3800,-238,-23,-27,-266,-575,-101
3805,-241,-23,-24,-281,-602,-110
3810,-239,-22,-19,-301,-620,-118
3815,-242,-23,-15,-327,-625,-123
3820,-241,-26,-16,-355,-619,-126
3825,-245,-25,-13,-379,-608,-131
3830,-241,-27,-11,-402,-596,-132
3835,-242,-26,-5,-413,-584,-136
3840,-242,-32,-5,-408,-575,-138
3845,-244,-31,1,-387,-568,-142
3850,-241,-31,2,-354,-561,-146
3855,-236,-35,0,-315,-554,-149
3860,-231,-36,-4,-271,-542,-153
3865,-227,-35,1,-241,-535,-149
3870,-226,-36,0,-215,-530,-145
3875,-227,-36,1,-196,-532,-141
3880,-227,-38,3,-180,-539,-137
3885,-229,-40,10,-170,-548,-128
3890,-234,-39,11,-162,-556,-123
3895,-232,-44,17,-162,-558,-112
3900,-240,-49,19,-165,-556,-97
3905,-234,-47,24,-169,-547,-85
3910,-238,-46,26,-171,-527,-68
3915,-237,-49,28,-170,-497,-44
3920,-231,-50,28,-166,-456,-15
3925,-229,-50,19,-163,-409,20
3930,-222,-48,25,-159,-356,53
3935,-227,-47,23,-147,-315,77
3940,-216,-48,24,-128,-268,103
3945,-213,-44,29,-104,-231,140
3950,-203,-45,28,-74,-195,165
3955,-205,-44,29,-43,-155,189
3960,-206,-45,20,-23,-113,203
3965,-202,-37,29,-26,-77,216
3970,-207,-38,30,-43,-48,219
3975,-206,-34,28,-71,-25,206
3980,-214,-33,25,-116,-10,195
3985,-220,-31,24,-172,-5,190
3990,-225,-34,23,-224,-4,185
3995,-235,-34,22,-266,-7,175
4000,-236,-44,23,-295,-15,155
4005,-241,-42,24,-310,-23,133
4010,-246,-49,17,-306,-31,108
4015,-243,-54,27,-284,-33,82
4020,-253,-55,23,-236,-31,58
4025,-253,-58,21,-172,-28,33
4030,-251,-57,22,-96,-26,13
4035,-253,-56,23,-12,-24,-3
4040,-249,-52,18,72,-19,-17
4045,-247,-48,20,150,-15,-27
4050,-243,-46,15,222,-12,-33
4055,-236,-44,14,283,-11,-36
4060,-241,-40,12,332,-12,-35
4065,-230,-39,17,364,-13,-33
4070,-229,-33,11,378,-9,-30
4075,-230,-32,14,375,-3,-23
4080,-231,-29,9,359,3,-10
4085,-220,-31,10,321,14,7
4090,-220,-26,12,279,29,13
4095,-218,-24,14,239,45,19
4100,-221,-22,14,194,62,26
4105,-221,-25,16,155,78,35
4110,-219,-26,18,119,98,41
4115,-218,-31,13,90,119,40
4120,-216,-34,16,73,139,37
4125,-226,-27,17,61,153,35
4130,-226,-33,17,56,161,38
4135,-231,-28,17,55,164,36
4140,-233,-29,14,58,169,38
4145,-235,-27,15,59,170,38
4150,-233,-28,16,59,169,35
4155,-239,-26,15,55,171,37
4160,-240,-24,15,49,168,39
4165,-238,-29,13,37,167,45
4170,-239,-26,12,27,165,49
4175,-244,-22,10,16,165,54
4180,-245,-23,11,6,166,58
4185,-242,-25,9,-1,167,60
4190,-247,-25,7,-5,167,62
4195,-244,-25,4,-5,166,63
4200,-246,-26,7,-2,163,67
4205,-247,-29,5,7,155,67
4210,-242,-30,6,19,145,66
4215,-249,-28,-1,30,136,62
4220,-248,-28,0,46,124,57
4225,-245,-30,-5,65,109,51
4230,-246,-32,3,85,93,42
4235,-249,-33,-2,104,78,34
4240,-251,-30,1,126,60,30
4245,-250,-33,1,151,44,27
4250,-247,-28,2,175,29,24
4255,-250,-27,0,195,19,23
4260,-246,-26,0,211,13,23
4265,-243,-25,0,219,9,23
4270,-249,-22,1,222,10,27
4275,-240,-20,4,214,11,33
4280,-237,-21,2,203,13,39
4285,-243,-18,5,185,14,40
4290,-236,-18,6,162,13,43
4295,-237,-14,8,137,15,41
4300,-234,-15,7,110,14,42
4305,-235,-15,13,87,13,42
4310,-234,-13,13,68,9,44
4315,-235,-15,16,54,7,44
4320,-237,-14,20,43,6,44
4325,-238,-17,11,33,3,49
4330,-234,-20,11,24,3,50
4335,-235,-24,18,17,6,51
4340,-236,-16,14,13,8,52
4345,-236,-17,13,10,14,53
4350,-239,-16,16,5,22,55
4355,-239,-16,11,0,28,56
4360,-241,-17,13,-4,39,57
4365,-239,-19,10,-7,46,61
4370,-239,-19,4,-12,53,62
4375,-239,-20,12,-16,65,63
4380,-239,-19,10,-19,75,64
4385,-242,-18,12,-20,84,66
4390,-243,-18,15,-22,95,69
4395,-244,-17,9,-21,102,73
4400,-241,-16,9,-25,106,75
4405,-246,-18,4,-29,109,77
4410,-246,-17,8,-33,111,75
4415,-245,-17,6,-39,111,73
4420,-249,-15,9,-45,113,70
4425,-251,-17,3,-50,113,68
4430,-249,-17,4,-53,113,64
4435,-249,-19,4,-55,110,60
4440,-249,-14,5,-55,107,54
4445,-249,-13,6,-49,102,49
4450,-249,-14,2,-43,94,46
4455,-247,-15,0,-33,87,41
4460,-245,-17,3,-23,79,38
4465,-247,-18,-1,-12,73,34
4470,-246,-15,2,-2,66,30
4475,-245,-13,0,5,58,28
4480,-245,-13,0,8,54,25
4485,-240,-14,5,9,51,22
4490,-240,-10,3,10,48,18
4495,-235,-14,2,8,43,16
4500,-239,-15,4,2,42,13
4505,-234,-12,3,-9,40,11
4510,-235,-12,5,-20,38,9
4515,-238,-12,1,-32,35,10
4520,-238,-16,2,-44,32,8
4525,-236,-15,3,-53,28,7
4530,-240,-17,9,-61,24,4
4535,-241,-17,7,-66,19,-1
4540,-241,-18,4,-69,17,-2
4545,-239,-18,8,-69,14,-3
4550,-243,-15,10,-67,14,-4
4555,-242,-23,6,-66,17,-5
4560,-240,-24,8,-65,23,-5
4565,-247,-24,6,-62,29,-2
4570,-245,-22,7,-63,36,1
4575,-248,-21,6,-58,45,2
4580,-248,-19,6,-49,52,4
4585,-247,-24,2,-37,57,1
4590,-252,-21,1,-21,60,2
4595,-252,-22,0,-4,60,0
4600,-247,-24,1,12,60,-2
4605,-250,-29,2,26,57,-2
4610,-252,-19,2,42,52,-3
4615,-248,-22,1,58,43,-4
4620,-249,-21,1,74,34,-2
4625,-244,-25,0,88,27,-1
4630,-243,-23,2,100,22,2
4635,-241,-17,1,105,16,6
4640,-238,-19,1,105,13,9
4645,-237,-17,0,98,12,10
4650,-237,-18,5,87,10,12
4655,-234,-19,15,69,10,15
4660,-236,-11,1,47,7,15
4665,-235,-15,5,24,3,13
4670,-237,-11,5,4,-1,11
4675,-235,-13,3,-12,-4,8
4680,-235,-12,6,-24,-7,3
4685,-235,-12,6,-31,-8,0
4690,-235,-16,9,-36,-10,-1
4695,-231,-8,6,-42,-12,0
4700,-236,-14,6,-50,-11,2
4705,-235,-14,10,-58,-11,4
4710,-240,-18,10,-65,-10,7
4715,-238,-18,10,-71,-11,11
4720,-237,-16,10,-79,-14,15
4725,-239,-16,9,-85,-17,18
4730,-240,-17,10,-92,-21,22
4735,-239,-17,16,-95,-24,26
4740,-239,-21,14,-99,-24,31
4745,-240,-17,15,-100,-24,35
4750,-241,-21,17,-99,-23,37
4755,-240,-22,13,-99,-19,39
4760,-239,-19,11,-101,-17,40
4765,-245,-18,16,-103,-15,39
4770,-239,-22,9,-99,-13,39
4775,-240,-19,5,-94,-13,35
4780,-239,-19,8,-88,-12,30
4785,-238,-22,6,-79,-13,27
4790,-240,-22,6,-70,-11,22
4795,-239,-20,4,-63,-11,20
4800,-240,-22,1,-53,-11,17
4805,-238,-20,2,-47,-11,15
4810,-239,-18,5,-39,-11,16
4815,-240,-17,5,-31,-9,16
4820,-239,-16,3,-25,-11,14
4825,-239,-18,4,-20,-12,15
4830,-237,-16,6,-15,-13,15
4835,-236,-17,7,-11,-14,14
4840,-238,-16,8,-8,-13,14
4845,-236,-17,7,-7,-13,13
4850,-240,-16,8,-5,-12,13
4855,-236,-17,12,-8,-8,12
4860,-235,-15,3,-10,-5,14
4865,-239,-14,12,-13,-1,14
4870,-242,-16,10,-19,3,16
4875,-242,-14,10,-25,9,17
4880,-241,-14,9,-35,13,19
4885,-238,-16,6,-42,16,19
4890,-240,-16,6,-47,18,20
4895,-243,-16,7,-51,19,19
4900,-242,-18,4,-48,22,17
4905,-245,-17,3,-47,21,17
4910,-240,-17,7,-40,20,13
4915,-238,-16,3,-30,21,9
4920,-239,-14,6,-22,20,8
4925,-244,-25,9,-16,17,6
4930,-242,-15,6,-13,15,6
4935,-240,-16,1,-13,12,5
4940,-238,-14,4,-15,9,3
4945,-239,-14,7,-18,4,2
4950,-237,-18,3,-20,1,1
4955,-241,-13,4,-21,-1,-1
4960,-239,-15,5,-23,-1,-1
4965,-242,-15,6,-26,0,-4
4970,-244,-14,4,-31,-1,-5
4975,-244,-13,6,-37,0,-3
4980,-242,-9,13,-44,2,0
4985,-243,-12,8,-49,5,0
4990,-245,-14,11,-53,7,1
4995,-242,-14,5,-55,12,1
5000,-244,-15,8,-53,15,4
5005,-246,-15,5,-51,17,6
5010,-245,-20,9,-43,15,7
5015,-246,-19,4,-29,12,6
5020,-246,-20,4,-17,8,6
5025,-243,-19,6,-6,3,4
5030,-241,-15,1,3,1,2
5035,-241,-21,4,10,-4,1
5040,-238,-19,4,12,-6,1
5045,-244,-17,6,13,-11,7
5050,-238,-19,7,10,-15,10
5055,-240,-17,3,5,-16,11
5060,-241,-15,7,1,-14,11
5065,-242,-17,10,-3,-11,15
5070,-238,-16,11,-9,-10,19
5075,-238,-17,6,-15,-7,20
5080,-236,-15,9,-17,-4,18
5085,-236,-17,9,-22,-3,18
5090,-238,-14,13,-22,-3,19
5095,-239,-14,12,-25,-3,19
5100,-238,-12,12,-29,-3,19
5105,-233,-15,14,-34,-1,20
5110,-239,-10,13,-41,0,20
5115,-237,-13,14,-43,1,19
5120,-239,-13,15,-47,0,20
5125,-237,-13,16,-50,0,20
5130,-236,-12,12,-54,0,21
5135,-239,-11,14,-58,0,19
5140,-236,-11,13,-63,0,19
5145,-236,-10,12,-68,0,18
5150,-237,-11,12,-74,-1,18
5155,-240,-9,12,-80,0,16
5160,-237,-11,9,-87,-1,16
5165,-237,-16,9,-92,-1,14
5170,-241,-10,12,-97,-3,13
5175,-241,-11,6,-99,-2,13
5180,-241,-11,9,-97,-2,11
5185,-242,-13,11,-94,-1,9
5190,-241,-13,12,-87,2,7
5195,-242,-14,11,-80,4,4
5200,-243,-14,7,-74,5,4
5205,-241,-15,10,-67,8,2
5210,-242,-14,8,-61,9,3
5215,-242,-16,7,-56,11,2
5220,-243,-16,9,-52,13,1
5225,-241,-17,13,-46,14,2
5230,-236,-17,8,-41,16,1
5235,-239,-17,10,-36,16,1
5240,-236,-17,9,-32,19,0
5245,-235,-15,12,-30,20,0
5250,-237,-20,6,-28,22,0
5255,-238,-16,12,-30,22,-1
5260,-236,-14,12,-32,23,-2
5265,-236,-16,8,-34,23,-3
5270,-239,-12,12,-36,22,-4
5275,-238,-13,8,-41,20,-3
5280,-239,-8,12,-46,18,-5
5285,-238,-13,11,-50,16,-5
5290,-237,-9,10,-55,11,-7
5295,-237,-12,12,-57,10,-9
5300,-244,-11,11,-62,7,-12
5305,-239,-12,9,-66,5,-14
5310,-235,-14,8,-69,3,-16
5315,-235,-11,9,-71,1,-17
5320,-238,-12,10,-68,2,-19
5325,-239,-11,11,-67,5,-19
5330,-238,-14,10,-64,9,-21
5335,-238,-11,8,-63,15,-22
5340,-235,-18,10,-64,21,-22
5345,-238,-16,8,-65,27,-19
5350,-240,-18,12,-69,33,-17
5355,-237,-17,12,-73,39,-15
5360,-241,-17,13,-80,45,-11
5365,-241,-20,14,-87,50,-7
5370,-243,-18,13,-92,54,0
5375,-242,-19,17,-97,58,5
5380,-241,-21,10,-99,62,12
5385,-240,-18,11,-101,67,16
5390,-245,-15,12,-98,74,19
5395,-243,-25,8,-87,80,21
5400,-245,-16,10,-75,83,19
5405,-237,-19,8,-60,88,19
5410,-238,-18,3,-44,92,18
5415,-238,-18,7,-29,94,18
5420,-239,-20,3,-18,96,19
5425,-238,-19,2,-9,96,18
5430,-238,-17,3,-4,94,18
5435,-236,-17,5,-2,87,18
5440,-241,-17,7,3,79,15
5445,-236,-16,4,7,71,13
5450,-240,-14,6,8,60,10
5455,-239,-13,7,6,51,9
5460,-238,-11,4,0,42,7
5465,-238,-10,5,-5,34,6
5470,-238,-10,6,-13,30,7
5475,-236,-13,1,-18,25,7
5480,-236,-12,3,-21,24,7
5485,-238,-11,4,-24,24,7
5490,-235,-11,2,-26,24,6
5495,-234,-13,3,-24,24,2
5500,-237,-13,2,-25,23,0
5505,-236,-15,5,-27,21,-3
5510,-247,-13,7,-27,19,-7
5515,-241,-13,6,-33,17,-9
5520,-241,-9,4,-39,14,-11
5525,-242,-10,1,-48,10,-13
5530,-241,-9,6,-55,8,-12
5535,-243,-7,5,-61,6,-13
5540,-241,-12,7,-67,6,-13
5545,-242,-11,4,-72,9,-11
5550,-242,-7,6,-77,12,-10
5555,-240,-9,8,-81,16,-9
5560,-243,-11,11,-86,19,-7
5565,-238,-14,12,-93,24,-5
5570,-239,-14,8,-101,27,-2
5575,-244,-12,9,-110,28,-2
5580,-240,-12,8,-121,26,0
5585,-242,-15,8,-127,24,0
5590,-240,-13,12,-134,19,-1
5595,-240,-13,8,-136,14,-1
5600,-244,-13,7,-135,12,-3
5605,-242,-13,6,-134,10,-6
5610,-242,-13,4,-131,12,-6
5615,-241,-15,5,-128,10,-8
5620,-245,-9,3,-123,10,-9
5625,-241,-13,3,-117,8,-13
5630,-243,-12,1,-111,5,-13
5635,-244,-10,4,-106,4,-14
5640,-243,-13,3,-100,1,-15
5645,-242,-14,6,-98,-2,-15
5650,-241,-13,7,-95,-8,-17
5655,-241,-13,5,-94,-12,-19
5660,-241,-15,6,-89,-16,-20
5665,-240,-16,4,-88,-21,-22
5670,-237,-15,2,-81,-24,-24
5675,-240,-18,3,-75,-30,-27
5680,-237,-14,9,-69,-32,-29
5685,-236,-18,11,-64,-36,-29
5690,-237,-16,9,-58,-39,-32
5695,-234,-15,8,-53,-43,-32
5700,-233,-21,11,-47,-49,-35
5705,-235,-18,12,-40,-54,-36
5710,-233,-16,14,-36,-59,-39
5715,-232,-20,13,-31,-63,-41
5720,-227,-26,16,-24,-69,-43
5725,-223,-22,17,-18,-74,-45
5730,-228,-19,14,-8,-79,-48
5735,-229,-18,14,2,-87,-50
5740,-230,-21,16,12,-92,-52
5745,-230,-21,15,20,-97,-54
5750,-232,-21,18,24,-102,-53
5755,-235,-16,14,26,-103,-49
5760,-237,-14,12,17,-101,-43
5765,-237,-11,8,2,-94,-33
5770,-239,-12,8,-17,-86,-24
5775,-243,-11,6,-41,-74,-15
5780,-247,-2,1,-63,-62,-7
5785,-247,-9,0,-80,-51,0
5790,-249,-12,7,-92,-40,2
5795,-251,-13,3,-95,-32,1
5800,-250,-16,3,-87,-29,-2
5805,-249,-19,6,-70,-27,-7
5810,-243,-21,12,-47,-28,-15
5815,-242,-25,11,-22,-32,-23
5820,-242,-22,14,5,-37,-29
5825,-242,-21,13,30,-45,-35
5830,-242,-23,14,54,-53,-41
5835,-246,-21,14,76,-61,-45
5840,-242,-22,14,91,-71,-48
5845,-242,-22,16,103,-79,-49
5850,-239,-21,16,112,-88,-48
5855,-241,-20,12,116,-95,-49
5860,-240,-15,11,120,-100,-50
5865,-244,-14,15,122,-102,-51
5870,-240,-12,15,119,-99,-50
5875,-242,-12,10,112,-92,-48
5880,-241,-13,8,97,-82,-43
5885,-243,-2,4,75,-71,-39
5890,-243,-11,8,51,-56,-33
5895,-245,-10,4,26,-43,-28
5900,-247,-11,7,7,-31,-23
5905,-247,-15,4,-10,-21,-21
5910,-246,-15,6,-23,-12,-20
5915,-245,-17,7,-28,-8,-18
5920,-246,-18,7,-28,-11,-17
5925,-244,-19,11,-22,-18,-17
5930,-245,-16,7,-12,-27,-18
5935,-243,-17,13,-2,-40,-19
5940,-243,-13,21,9,-52,-21
5945,-242,-18,14,20,-65,-25
5950,-244,-16,10,28,-78,-28
5955,-239,-13,13,32,-88,-31
5960,-240,-13,11,35,-95,-33
5965,-241,-12,13,32,-98,-33
5970,-238,-14,11,29,-101,-35
5975,-236,-15,7,21,-101,-35
5980,-238,-14,15,8,-97,-33
5985,-236,-15,17,-5,-92,-31
5990,-235,-13,22,-21,-88,-28
5995,-233,-14,15,-37,-82,-25
6000,-234,-15,23,-51,-78,-23
6005,-235,-15,23,-63,-76,-23
6010,-236,-14,22,-74,-75,-21
6015,-235,-17,23,-79,-75,-19
6020,-239,-15,23,-81,-75,-19
6025,-238,-17,17,-79,-76,-18
6030,-239,-18,19,-75,-75,-20
6035,-239,-15,22,-70,-74,-20
6040,-240,-20,18,-61,-74,-23
6045,-238,-15,15,-52,-73,-23
6050,-239,-17,19,-43,-72,-26
6055,-240,-21,17,-33,-69,-26
6060,-240,-20,15,-28,-66,-27
6065,-239,-19,17,-21,-63,-28
6070,-242,-18,19,-17,-62,-27
6075,-239,-16,17,-13,-61,-28
6080,-239,-17,17,-10,-61,-26
6085,-237,-15,14,-9,-59,-27
6090,-235,-16,17,-5,-58,-28
6095,-240,-17,18,-4,-56,-28
6100,-240,-14,15,-2,-55,-28
6105,-235,-17,18,-2,-54,-29
6110,-237,-16,20,-4,-52,-29
6115,-235,-20,15,-6,-50,-28
6120,-234,-16,22,-9,-49,-29
6125,-235,-16,23,-10,-49,-28
6130,-230,-15,22,-15,-47,-30
6135,-233,-17,21,-20,-49,-30
6140,-234,-17,24,-26,-48,-31
6145,-233,-16,21,-30,-48,-31
6150,-237,-16,22,-36,-47,-29
6155,-234,-16,19,-40,-44,-29
6160,-233,-16,22,-42,-42,-29
6165,-232,-20,23,-44,-39,-28
6170,-235,-18,26,-45,-36,-28
6175,-237,-18,23,-43,-34,-29
6180,-235,-19,26,-44,-32,-29
6185,-236,-17,25,-43,-28,-27
6190,-238,-19,23,-38,-23,-26
6195,-235,-17,23,-37,-21,-25
6200,-235,-20,23,-33,-18,-24
6205,-237,-18,23,-30,-15,-23
6210,-237,-18,20,-26,-13,-22
6215,-236,-19,23,-20,-11,-22
6220,-237,-21,25,-15,-10,-21
6225,-238,-19,24,-11,-10,-20
6230,-238,-20,22,-9,-10,-20
6235,-236,-20,19,-8,-10,-18
6240,-234,-18,18,-9,-11,-17
6245,-235,-16,17,-10,-11,-17
6250,-236,-15,20,-14,-11,-16
6255,-240,-17,22,-16,-8,-14
6260,-239,-18,15,-19,-6,-13
6265,-235,-16,23,-25,-3,-11
6270,-236,-19,19,-29,0,-10
6275,-238,-16,19,-33,0,-10
6280,-240,-16,18,-36,1,-9
6285,-236,-17,19,-37,1,-11
6290,-237,-15,21,-37,2,-13
6295,-234,-19,22,-37,0,-11
6300,-233,-13,25,-36,0,-13
6305,-234,-18,25,-34,-1,-13
6310,-236,-17,19,-33,-3,-13
6315,-235,-16,23,-32,-2,-15
6320,-235,-18,23,-31,-4,-16
6325,-236,-18,27,-31,-3,-17
6330,-235,-16,20,-31,-4,-17
6335,-236,-15,25,-31,-5,-18
6340,-236,-19,21,-33,-5,-17
6345,-236,-15,22,-35,-5,-18
6350,-234,-23,22,-39,-4,-19
6355,-239,-16,24,-42,-4,-19
6360,-235,-18,25,-44,-4,-18
6365,-238,-17,24,-47,-2,-15
6370,-238,-24,24,-49,0,-15
6375,-233,-18,21,-52,2,-14
6380,-237,-19,23,-52,6,-12
6385,-239,-18,23,-54,11,-11
6390,-237,-18,23,-54,17,-9
6395,-238,-18,18,-57,22,-6
6400,-235,-19,24,-62,25,-4
6405,-236,-18,24,-66,30,-3
6410,-237,-20,20,-71,32,-1
6415,-240,-18,23,-73,31,-3
6420,-241,-22,21,-72,31,-2
6425,-243,-22,22,-71,28,-3
6430,-239,-21,19,-69,28,-3
6435,-240,-21,18,-67,30,-2
6440,-245,-17,17,-69,33,-3
6445,-245,-14,15,-73,37,-5
6450,-247,-18,12,-72,43,-11
6455,-251,-15,9,-70,54,-19
6460,-251,-17,8,-71,66,-25
6465,-256,-15,11,-73,83,-31
6470,-257,-19,8,-73,98,-38
6475,-256,-17,7,-70,114,-46
6480,-253,-19,14,-62,127,-59
6485,-260,-15,10,-47,138,-70
6490,-259,-18,16,-29,144,-79
6495,-259,-19,16,-6,152,-91
6500,-258,-19,15,19,158,-104
6505,-259,-18,18,50,164,-114
6510,-257,-20,22,84,168,-126
6515,-254,-19,22,116,176,-136
6520,-252,-19,24,135,183,-144
6525,-248,-17,24,142,194,-147
6530,-238,-17,29,136,209,-146
6535,-241,-15,30,126,225,-147
6540,-240,-18,33,111,242,-147
6545,-235,-17,37,90,259,-149
6550,-234,-18,38,74,271,-152
6555,-233,-21,40,68,277,-161
6560,-227,-22,39,69,280,-168
6565,-225,-27,33,75,281,-175
6570,-223,-29,38,83,275,-183
6575,-222,-27,32,93,266,-188
6580,-216,-30,31,98,255,-191
6585,-215,-28,26,93,244,-190
6590,-217,-28,21,84,232,-187
6595,-218,-27,14,70,220,-185
6600,-217,-25,10,59,203,-181
6605,-217,-25,7,49,180,-178
6610,-220,-22,1,42,151,-175
6615,-222,-17,-6,30,122,-172
6620,-224,-15,-12,14,88,-166
6625,-223,-15,-16,-10,68,-160
6630,-221,-15,-14,-43,48,-151
6635,-219,-17,-13,-81,37,-139
6640,-229,-13,-10,-120,31,-126
6645,-226,-14,-6,-152,30,-112
6650,-228,-14,-6,-174,32,-102
6655,-232,-16,0,-188,32,-91
6660,-236,-15,2,-192,33,-80
6665,-237,-14,8,-187,33,-70
6670,-234,-17,15,-180,34,-61
6675,-233,-18,20,-172,37,-51
6680,-240,-21,22,-163,39,-41
6685,-239,-24,23,-155,39,-33
6690,-237,-26,30,-148,38,-25
6695,-233,-23,35,-144,33,-21
6700,-241,-29,33,-144,25,-20
6705,-245,-27,38,-146,15,-18
6710,-242,-29,42,-148,3,-18
6715,-242,-32,36,-147,-5,-18
6720,-242,-32,35,-148,-11,-17
6725,-238,-34,26,-150,-9,-16
6730,-240,-32,27,-152,-2,-18
6735,-241,-34,27,-156,8,-19
6740,-237,-32,20,-156,17,-20
6745,-243,-35,12,-150,28,-23
6750,-242,-35,15,-137,37,-24
6755,-240,-33,8,-121,44,-24
6760,-236,-35,8,-108,52,-23
6765,-236,-34,7,-91,58,-20
6770,-236,-34,9,-75,67,-14
6775,-238,-32,9,-63,75,-4
6780,-236,-32,8,-56,84,6
6785,-233,-32,9,-47,90,18
6790,-234,-29,14,-36,92,32
6795,-232,-31,17,-26,93,44
6800,-235,-29,11,-20,91,58
6805,-233,-28,19,-24,93,73
6810,-235,-23,19,-39,96,88
6815,-234,-20,15,-61,101,106
6820,-235,-17,18,-87,111,126
6825,-233,-19,27,-116,116,145
6830,-236,-13,25,-145,120,162
6835,-234,-13,26,-174,120,178
6840,-235,-10,24,-197,115,193
6845,-228,-14,27,-217,103,203
6850,-230,-10,28,-228,86,212
6855,-224,-14,36,-231,65,219
6860,-219,-17,32,-226,40,220
6865,-211,-18,33,-211,17,216
6870,-208,-16,31,-192,1,204
6875,-206,-19,32,-179,-7,187
6880,-205,-18,28,-179,-7,167
6885,-208,-18,33,-190,4,143
6890,-214,-18,33,-211,20,118
6895,-223,-17,31,-239,41,93
6900,-236,-18,26,-265,67,67
6905,-252,-21,22,-281,99,42
6910,-264,-22,21,-276,140,18
6915,-278,-23,8,-245,186,3
6920,-289,-25,2,-198,242,-5
6925,-301,-23,-5,-138,302,-5
6930,-302,-22,-12,-77,360,6
6935,-304,-23,-20,-21,412,27
6940,-296,-24,-22,19,453,56
6945,-290,-22,-28,43,477,86
6950,-281,-18,-27,53,489,114
6955,-269,-16,-21,52,489,135
6960,-260,-9,-23,40,482,141
6965,-247,-6,-26,17,470,134
6970,-248,-1,-27,-16,454,110
6975,-237,-1,-20,-54,433,74
6980,-230,3,-12,-92,403,25
6985,-219,2,-6,-123,365,-32
6990,-214,7,-8,-145,327,-85
6995,-206,7,-2,-156,289,-141
7000,-207,5,-1,-162,253,-196
7005,-204,7,9,-164,220,-245
7010,-205,9,8,-166,195,-288
7015,-206,10,14,-166,183,-323
7020,-206,5,18,-163,186,-351
7025,-211,6,16,-156,202,-375
7030,-220,5,15,-147,224,-395
7035,-225,2,18,-139,249,-413
7040,-228,4,8,-134,274,-427
7045,-234,1,4,-137,297,-444
7050,-233,-6,3,-139,317,-462
7055,-242,-5,4,-145,335,-484
7060,-244,-4,6,-149,349,-506
7065,-250,-12,0,-154,359,-526
7070,-257,-14,4,-160,363,-550
7075,-255,-14,0,-167,364,-578
7080,-258,-16,-4,-167,362,-604
7085,-263,-17,-8,-159,361,-631
7090,-272,-13,-14,-142,360,-657
7095,-274,-14,-19,-126,365,-683
7100,-282,-15,-19,-108,369,-708
7105,-289,-13,-22,-100,371,-738
7110,-292,-12,-23,-99,373,-760
7115,-294,-15,-25,-94,373,-777
7120,-287,-13,-25,-81,376,-792
7125,-281,-16,-32,-66,381,-813
7130,-288,-13,-22,-50,392,-833
7135,-279,-16,-30,-42,393,-845
7140,-282,-13,-26,-48,381,-871
7145,-271,-11,-29,-58,356,-898
7150,-274,-14,-30,-72,321,-924
7155,-274,-16,-32,-71,294,-939
7160,-275,-18,-36,-69,259,-959
7165,-280,-18,-32,-69,214,-988
7170,-283,-21,-31,-64,172,-1009
7175,-282,-25,-27,-60,136,-1022
7180,-283,-28,-30,-66,110,-1038
7185,-285,-33,-31,-76,101,-1051
7190,-284,-40,-27,-95,110,-1061
7195,-281,-48,-22,-112,130,-1073
7200,-276,-58,-18,-125,148,-1083
7205,-273,-64,-20,-125,161,-1089
7210,-267,-76,-20,-118,167,-1095
7215,-267,-78,-13,-112,171,-1105
7220,-265,-81,-6,-109,168,-1113
7225,-264,-84,-9,-111,151,-1120
7230,-254,-85,-9,-106,121,-1128
7235,-256,-94,-15,-89,85,-1136
7240,-265,-95,-7,-69,43,-1141
7245,-258,-95,-10,-57,-12,-1146
7250,-253,-97,-11,-57,-66,-1151
7255,-251,-97,-15,-60,-108,-1151
7260,-247,-97,-13,-63,-137,-1150
7265,-247,-100,-15,-67,-156,-1145
7270,-243,-102,-13,-69,-170,-1140
7275,-241,-100,-9,-70,-176,-1133
7280,-239,-94,-19,-76,-167,-1120
7285,-238,-90,-20,-99,-149,-1106
7290,-241,-91,-15,-132,-132,-1095
7295,-238,-94,-9,-152,-130,-1092
7300,-230,-97,-11,-148,-141,-1093
7305,-219,-100,-11,-132,-142,-1091
7310,-205,-103,-9,-121,-118,-1086
7315,-195,-111,-7,-127,-62,-1077
7320,-186,-118,-6,-141,9,-1067
7325,-179,-122,-11,-158,77,-1058
7330,-181,-125,-10,-167,125,-1058
7335,-174,-128,-4,-169,143,-1062
7340,-172,-130,-1,-174,133,-1066
7345,-168,-132,1,-182,109,-1068
7350,-168,-136,7,-187,84,-1072
7355,-171,-139,7,-185,68,-1073
7360,-180,-137,5,-175,58,-1074
7365,-188,-137,-8,-166,53,-1074
7370,-190,-131,-16,-168,56,-1071
7375,-199,-128,-28,-170,57,-1078
7380,-202,-130,-35,-157,58,-1086
7385,-204,-131,-38,-128,60,-1098
7390,-206,-125,-33,-102,82,-1103
7395,-198,-129,-28,-96,134,-1105
7400,-191,-128,-26,-100,214,-1104
7405,-190,-128,-29,-93,307,-1101
7410,-193,-130,-27,-77,391,-1095
7415,-197,-128,-32,-56,447,-1084
7420,-198,-128,-33,-41,474,-1076
7425,-199,-124,-25,-38,469,-1064
7430,-193,-123,-25,-37,436,-1047
7435,-194,-123,-13,-39,387,-1034
7440,-201,-122,-15,-48,330,-1017
7445,-199,-123,-12,-62,272,-1003
7450,-203,-120,-12,-75,217,-988
7455,-206,-121,-11,-90,171,-972
7460,-204,-124,-8,-97,133,-953
7465,-201,-128,-14,-95,118,-933
7470,-197,-128,-17,-91,128,-911
7475,-194,-132,-21,-79,155,-892
7480,-191,-134,-25,-67,182,-878
7485,-187,-139,-36,-51,200,-868
7490,-178,-145,-35,-31,205,-861
7495,-179,-151,-31,-9,200,-863
7500,-175,-151,-33,8,189,-866
7505,-181,-153,-40,25,176,-867
7510,-181,-155,-37,29,168,-866
7515,-182,-161,-34,27,165,-865
7520,-181,-160,-27,18,166,-864
7525,-180,-160,-29,4,170,-866
7530,-184,-157,-32,-3,178,-865
7535,-180,-156,-34,1,188,-859
7540,-178,-159,-31,12,199,-858
7545,-185,-162,-39,27,211,-854
7550,-182,-165,-44,52,223,-854
7555,-184,-165,-43,79,228,-851
7560,-184,-165,-48,101,224,-849
7565,-184,-166,-46,109,218,-844
7570,-184,-163,-41,107,210,-842
7575,-181,-166,-43,97,202,-836
7580,-182,-170,-42,87,194,-835
7585,-179,-170,-40,84,183,-838
7590,-177,-171,-37,87,164,-839
7595,-177,-169,-41,96,144,-841
7600,-181,-168,-36,107,124,-839
7605,-171,-169,-36,121,107,-835
7610,-173,-175,-29,143,94,-834
7615,-169,-177,-31,169,84,-833
7620,-168,-178,-29,188,75,-832
7625,-171,-174,-29,196,65,-829
7630,-176,-177,-27,187,58,-829
7635,-175,-179,-23,174,47,-832
7640,-174,-181,-21,167,29,-839
7645,-175,-181,-23,170,3,-851
7650,-177,-185,-24,187,-28,-866
7655,-174,-188,-18,204,-65,-881
7660,-182,-187,-13,213,-99,-892
7665,-177,-187,-18,214,-119,-900
7670,-174,-191,-15,212,-129,-906
7675,-174,-192,-22,214,-135,-913
7680,-175,-192,-21,215,-144,-917
7685,-171,-195,-22,210,-155,-921
7690,-165,-194,-26,196,-167,-921
7695,-161,-195,-26,179,-177,-914
7700,-157,-193,-32,167,-181,-906
7705,-157,-193,-30,156,-183,-894
7710,-152,-193,-30,153,-184,-883
7715,-152,-191,-36,158,-184,-872
7720,-135,-193,-32,163,-184,-859
7725,-129,-192,-33,166,-177,-851
7730,-128,-193,-31,166,-164,-839
7735,-125,-192,-25,163,-150,-828
7740,-116,-192,-23,152,-136,-818
7745,-116,-193,-21,139,-125,-811
7750,-119,-196,-20,117,-111,-801
7755,-114,-196,-20,91,-101,-791
7760,-117,-194,-17,60,-91,-781
7765,-116,-198,-11,27,-81,-771
7770,-120,-200,-7,-6,-68,-759
7775,-117,-201,-9,-33,-55,-747
7780,-122,-206,-5,-57,-40,-736
7785,-119,-212,0,-72,-24,-728
7790,-125,-216,2,-83,-14,-722
7795,-127,-213,0,-93,-3,-718
7800,-129,-213,-3,-99,4,-715
7805,-131,-213,-4,-109,12,-709
7810,-129,-210,-7,-122,19,-702
7815,-130,-216,-14,-129,25,-692
7820,-131,-212,-12,-136,36,-679
7825,-128,-214,-16,-143,45,-665
7830,-128,-215,-14,-144,51,-655
7835,-126,-220,-17,-140,44,-645
7840,-121,-218,-19,-134,30,-637
7845,-121,-219,-23,-125,12,-629
7850,-117,-224,-22,-116,-6,-623
7855,-114,-225,-13,-105,-22,-617
7860,-112,-223,-11,-96,-35,-611
7865,-109,-224,-13,-86,-44,-604
7870,-107,-225,-13,-79,-53,-598
7875,-108,-222,-10,-73,-58,-591
7880,-103,-223,-7,-82,-58,-582
7885,-100,-224,-5,-104,-52,-573
7890,-97,-222,-6,-132,-41,-564
7895,-94,-223,-5,-154,-30,-561
7900,-99,-223,-4,-169,-18,-561
7905,-97,-223,-4,-174,-11,-562
7910,-100,-222,-5,-173,-7,-568
7915,-100,-225,-12,-162,-6,-574
7920,-99,-222,-9,-149,-9,-580
7925,-103,-222,-13,-140,-12,-586
7930,-102,-222,-9,-135,-16,-594
7935,-106,-218,-10,-143,-21,-599
7940,-110,-214,-15,-157,-28,-601
7945,-111,-211,-17,-181,-38,-603
7950,-114,-210,-13,-210,-50,-604
7955,-120,-213,-18,-235,-63,-601
7960,-119,-211,-13,-253,-76,-595
7965,-124,-212,-15,-259,-88,-590
7970,-127,-213,-18,-263,-102,-583
7975,-124,-213,-17,-261,-116,-575
7980,-128,-217,-17,-258,-131,-567
7985,-129,-219,-21,-255,-146,-560
7990,-126,-221,-20,-255,-166,-556
7995,-123,-224,-17,-252,-191,-553
8000,-123,-226,-18,-252,-216,-553
8005,-120,-228,-16,-251,-242,-554
8010,-111,-238,-10,-243,-259,-558
8015,-109,-239,-13,-231,-268,-566
8020,-104,-239,-9,-220,-266,-570
8025,-98,-239,-4,-210,-257,-570
8030,-93,-242,-8,-201,-239,-567
8035,-94,-243,-12,-194,-223,-567
8040,-97,-244,-11,-187,-200,-564
8045,-87,-245,-15,-179,-180,-559
8050,-89,-240,-14,-165,-164,-557
8055,-88,-245,-15,-154,-150,-552
8060,-85,-245,-20,-143,-140,-544
8065,-80,-245,-15,-131,-136,-535
8070,-80,-246,-15,-116,-135,-525
8075,-83,-241,-20,-103,-137,-517
8080,-74,-243,-22,-96,-143,-507
8085,-75,-240,-20,-89,-156,-501
8090,-75,-237,-18,-81,-170,-496
8095,-71,-238,-19,-78,-184,-491
8100,-71,-238,-15,-80,-196,-488
8105,-67,-235,-15,-89,-201,-484
8110,-66,-235,-15,-103,-197,-481
8115,-67,-237,-14,-120,-185,-480
8120,-65,-243,-12,-133,-168,-480
8125,-64,-245,-13,-146,-147,-476
8130,-64,-247,-10,-154,-119,-472
8135,-65,-244,-10,-162,-85,-471
8140,-67,-249,-11,-168,-49,-467
8145,-66,-250,-11,-173,-12,-462
8150,-67,-254,-12,-177,23,-458
8155,-69,-256,-5,-178,55,-454
8160,-69,-257,-9,-173,80,-452
8165,-66,-258,-6,-163,104,-451
8170,-68,-257,-9,-146,124,-451
8175,-65,-260,-7,-125,143,-449
8180,-65,-259,-8,-101,159,-450
8185,-65,-258,-10,-69,175,-450
8190,-64,-257,-14,-39,185,-451
8195,-64,-259,-9,-9,192,-457
8200,-65,-253,-19,17,195,-463
8205,-58,-248,-17,38,195,-471
8210,-63,-252,-19,54,194,-480
8215,-59,-251,-20,63,193,-489
8220,-59,-245,-16,65,193,-500
8225,-61,-247,-19,58,192,-508
8230,-60,-245,-20,39,189,-512
8235,-58,-242,-19,15,191,-514
8240,-61,-243,-19,-12,192,-512
8245,-63,-244,-16,-39,197,-513
8250,-62,-241,-17,-66,201,-511
8255,-62,-243,-12,-92,208,-506
8260,-66,-239,-21,-114,216,-502
8265,-66,-239,-14,-130,227,-499
8270,-69,-240,-19,-144,239,-496
8275,-71,-239,-18,-153,249,-493
8280,-70,-239,-20,-158,257,-491
8285,-73,-235,-15,-158,262,-492
8290,-73,-237,-21,-158,264,-494
8295,-74,-238,-22,-159,264,-496
8300,-71,-237,-21,-157,258,-500
8305,-74,-237,-17,-151,253,-508
8310,-69,-236,-21,-143,247,-516
8315,-69,-238,-20,-131,236,-525
8320,-65,-241,-21,-123,224,-534
8325,-70,-241,-21,-118,210,-542
8330,-67,-241,-21,-119,193,-550
8335,-68,-237,-21,-127,179,-556
8340,-65,-239,-27,-133,166,-562
8345,-65,-244,-24,-143,156,-568
8350,-64,-241,-29,-153,148,-570
8355,-62,-242,-30,-166,145,-573
8360,-64,-241,-31,-181,144,-575
8365,-57,-246,-33,-196,144,-576
8370,-60,-252,-35,-212,145,-577
8375,-58,-250,-32,-225,144,-579
8380,-59,-252,-31,-236,141,-580
8385,-56,-256,-33,-246,137,-581
8390,-55,-256,-31,-251,130,-578
8395,-55,-255,-27,-249,120,-579
8400,-53,-258,-27,-243,105,-577
8405,-53,-258,-29,-234,90,-573
8410,-55,-258,-27,-223,75,-568
8415,-53,-255,-28,-214,62,-561
8420,-54,-255,-31,-202,48,-555
8425,-49,-256,-30,-189,36,-550
8430,-49,-255,-32,-177,22,-547
8435,-48,-253,-32,-166,12,-543
8440,-46,-250,-35,-160,6,-541
8445,-45,-251,-32,-156,2,-538
8450,-41,-250,-33,-157,2,-535
8455,-42,-247,-32,-159,5,-531
8460,-41,-250,-35,-160,11,-526
8465,-36,-251,-30,-160,19,-522
8470,-36,-248,-32,-157,28,-518
8475,-34,-253,-30,-151,33,-516
8480,-31,-253,-34,-144,40,-512
8485,-26,-252,-34,-134,42,-510
8490,-23,-250,-35,-128,42,-512
8495,-19,-252,-35,-124,36,-519
8500,-19,-254,-36,-126,30,-523
8505,-19,-254,-34,-131,21,-526
8510,-17,-256,-33,-143,10,-528
8515,-16,-254,-35,-154,2,-526
8520,-17,-257,-36,-165,-6,-524
8525,-17,-257,-33,-176,-12,-518
8530,-19,-260,-26,-188,-16,-509
8535,-16,-259,-32,-203,-15,-497
8540,-18,-260,-34,-215,-12,-483
8545,-13,-264,-37,-229,-6,-470
8550,-12,-266,-35,-239,2,-452
8555,-12,-267,-34,-244,11,-434
8560,-10,-266,-38,-243,18,-420
8565,-12,-265,-40,-237,18,-406
8570,-8,-268,-41,-225,11,-394
8575,-1,-269,-48,-212,-4,-384
8580,0,-270,-57,-194,-22,-377
8585,-3,-262,-50,-180,-44,-374
8590,5,-264,-55,-165,-65,-375
8595,6,-265,-61,-156,-81,-379
8600,8,-264,-62,-149,-95,-385
8605,10,-263,-63,-147,-104,-389
8610,11,-264,-67,-149,-107,-394
8615,10,-265,-65,-153,-103,-397
8620,14,-265,-62,-161,-92,-399
8625,11,-263,-62,-168,-78,-399
8630,15,-264,-61,-173,-63,-402
8635,16,-259,-56,-175,-45,-401
8640,17,-262,-51,-174,-25,-400
8645,15,-260,-51,-171,-5,-398
8650,19,-261,-47,-167,13,-397
8655,18,-259,-47,-163,30,-395
8660,21,-264,-42,-160,44,-393
8665,19,-261,-44,-158,56,-389
8670,19,-259,-44,-158,63,-384
8675,24,-263,-47,-159,66,-384
8680,17,-259,-51,-167,68,-390
8685,18,-257,-50,-178,67,-391
8690,26,-259,-52,-192,62,-392
8695,17,-260,-53,-210,52,-394
8700,20,-259,-53,-225,38,-392
8705,17,-261,-59,-239,24,-392
8710,19,-263,-61,-252,13,-391
8715,18,-265,-58,-269,4,-390
8720,18,-268,-62,-277,-9,-393
8725,18,-271,-62,-285,-19,-395
8730,20,-276,-61,-285,-28,-394
8735,15,-273,-59,-281,-32,-393
8740,21,-274,-60,-272,-36,-391
8745,17,-278,-58,-258,-40,-387
8750,21,-274,-61,-238,-45,-377
8755,23,-279,-56,-222,-46,-373
8760,23,-276,-53,-197,-53,-372
8765,24,-273,-49,-170,-61,-368
8770,24,-271,-49,-148,-67,-364
8775,27,-267,-47,-134,-68,-353
8780,24,-264,-45,-129,-69,-352
8785,27,-264,-47,-123,-72,-350
8790,22,-261,-48,-121,-74,-348
8795,27,-256,-40,-131,-77,-338
8800,32,-254,-48,-141,-83,-342
8805,32,-254,-36,-153,-95,-342
8810,31,-255,-44,-167,-100,-342
8815,35,-254,-44,-183,-101,-348
8820,36,-252,-42,-199,-101,-356
8825,36,-252,-42,-222,-98,-359
8830,35,-251,-46,-249,-97,-358
8835,22,-247,-48,-274,-94,-354
8840,40,-255,-44,-298,-91,-342
8845,35,-256,-48,-310,-89,-348
8850,36,-257,-50,-313,-90,-349
8855,30,-259,-56,-318,-84,-349
8860,33,-258,-50,-319,-79,-344
8865,32,-264,-53,-315,-74,-340
8870,32,-266,-50,-305,-70,-331
8875,28,-264,-50,-296,-67,-319
8880,27,-262,-52,-276,-66,-300
8885,26,-266,-55,-254,-68,-276
8890,29,-269,-54,-236,-70,-252
8895,31,-265,-57,-217,-74,-235
8900,31,-263,-57,-202,-77,-220
8905,27,-264,-58,-194,-78,-207
8910,33,-263,-56,-189,-77,-188
8915,27,-261,-59,-183,-74,-185
8920,37,-265,-59,-178,-75,-181
8925,40,-265,-58,-178,-71,-184
8930,33,-264,-59,-184,-60,-194
8935,33,-263,-58,-199,-52,-200
8940,27,-262,-54,-211,-45,-201
8945,28,-263,-56,-220,-43,-202
8950,30,-266,-57,-226,-41,-203
8955,25,-263,-55,-233,-40,-205
8960,27,-261,-53,-235,-42,-205
8965,24,-260,-61,-234,-47,-204
8970,25,-258,-57,-232,-51,-204
8975,27,-261,-54,-228,-52,-204
8980,28,-258,-55,-226,-60,-201
8985,29,-258,-57,-223,-69,-197
8990,35,-258,-58,-224,-78,-192
8995,29,-256,-57,-231,-82,-198
9000,30,-257,-63,-247,-86,-198
9005,27,-256,-61,-266,-89,-197
9010,33,-257,-63,-286,-93,-193
9015,30,-254,-59,-300,-95,-191
9020,22,-257,-63,-313,-92,-193
9025,25,-259,-63,-321,-90,-190
9030,25,-260,-61,-318,-94,-184
9035,27,-262,-65,-309,-104,-178
9040,25,-265,-62,-299,-107,-173
9045,26,-262,-66,-287,-111,-169
9050,21,-263,-69,-269,-113,-164
9055,26,-266,-72,-253,-110,-154
9060,32,-261,-71,-236,-106,-150
9065,31,-261,-70,-214,-106,-154
9070,35,-256,-80,-199,-105,-156
9075,38,-260,-77,-188,-97,-157
9080,24,-260,-74,-182,-76,-159
9085,28,-261,-66,-167,-72,-152
9090,24,-262,-70,-144,-74,-140
9095,36,-268,-68,-125,-80,-117
9100,49,-264,-73,-110,-79,-120
9105,46,-263,-75,-102,-69,-141
9110,44,-263,-76,-99,-56,-157
9115,43,-268,-75,-99,-42,-166
9120,50,-269,-74,-99,-31,-171
9125,43,-271,-73,-100,-17,-176
9130,32,-268,-74,-96,-5,-176
9135,34,-267,-75,-90,-7,-171
9140,31,-263,-76,-82,-17,-162
9145,39,-266,-77,-79,-25,-148
9150,33,-261,-77,-77,-31,-145
9155,39,-258,-79,-78,-38,-139
9160,47,-261,-78,-77,-41,-141
9165,44,-263,-81,-76,-43,-142
9170,39,-260,-81,-76,-39,-142
9175,33,-261,-81,-74,-31,-137
9180,32,-257,-77,-67,-38,-121
9185,35,-260,-79,-64,-48,-107
9190,33,-258,-79,-58,-54,-96
9195,25,-256,-79,-53,-61,-79
9200,43,-265,-75,-43,-63,-58
9205,41,-261,-78,-25,-60,-61
9210,40,-264,-75,-8,-56,-63
9215,54,-265,-79,3,-49,-60
9220,44,-259,-77,14,-37,-73
9225,47,-263,-76,26,-27,-78
9230,48,-263,-83,28,-21,-80
9235,45,-261,-80,23,-12,-82
9240,52,-258,-78,16,-5,-87
9245,50,-257,-79,6,5,-100
9250,52,-259,-81,-11,14,-110
9255,52,-260,-80,-30,23,-120
9260,48,-258,-75,-45,31,-128
9265,48,-257,-81,-52,39,-133
9270,46,-258,-74,-50,39,-132
9275,44,-258,-75,-42,34,-132
9280,47,-260,-68,-34,27,-133
9285,45,-264,-77,-25,21,-133
9290,45,-255,-73,-16,19,-135
9295,39,-267,-72,-5,16,-130
9300,42,-258,-67,4,14,-128
9305,39,-254,-72,12,10,-121
9310,46,-256,-74,18,8,-115
9315,34,-261,-71,23,8,-107
9320,38,-268,-73,24,6,-100
9325,40,-258,-67,28,6,-92
9330,40,-257,-68,29,9,-84
9335,33,-261,-69,28,14,-77
9340,37,-264,-70,24,21,-70
9345,43,-262,-73,21,27,-65
9350,35,-272,-78,17,31,-61
9355,32,-266,-72,13,39,-59
9360,45,-259,-76,7,47,-57
9365,34,-263,-72,5,50,-52
9370,23,-263,-75,2,48,-45
9375,39,-256,-81,2,47,-41
9380,46,-262,-80,7,46,-27
9385,55,-252,-77,19,34,-22
9390,50,-254,-70,25,31,-27
9395,54,-256,-74,24,29,-33
9400,51,-261,-71,24,32,-42
9405,54,-260,-68,25,35,-50
9410,53,-256,-70,24,38,-58
9415,48,-252,-71,29,37,-63
9420,50,-246,-63,39,35,-68
9425,53,-251,-64,52,30,-71
9430,46,-253,-59,62,22,-74
9435,47,-257,-63,69,16,-78
9440,46,-256,-59,73,11,-81
9445,46,-257,-56,70,9,-84
9450,44,-260,-58,62,7,-84
9455,43,-258,-60,52,6,-81
9460,45,-263,-57,39,6,-78
9465,40,-260,-60,27,12,-74
9470,49,-264,-55,13,18,-68
9475,44,-264,-57,2,26,-64
9480,43,-269,-61,-3,35,-52
9485,44,-264,-58,-1,39,-42
9490,46,-265,-60,0,42,-34
9495,46,-264,-60,3,46,-27
9500,45,-262,-60,3,51,-21
9505,45,-255,-46,9,55,-18
9510,50,-262,-62,16,61,-9
9515,51,-260,-63,27,63,-5
9520,50,-257,-65,32,67,-6
9525,49,-255,-67,35,69,-4
9530,48,-250,-62,39,68,-4
9535,51,-251,-66,42,65,-2
9540,50,-252,-63,44,59,-4
9545,52,-251,-62,43,52,-4
9550,51,-252,-64,44,45,-6
9555,47,-256,-66,41,38,-10
9560,48,-254,-61,36,27,-12
9565,47,-253,-60,29,16,-14
9570,47,-255,-60,19,5,-15
9575,45,-255,-55,9,-7,-14
9580,47,-255,-62,2,-16,-15
9585,46,-258,-57,-10,-24,-16
9590,44,-256,-58,-25,-29,-14
9595,42,-256,-57,-43,-34,-9
9600,44,-257,-62,-60,-35,-5
9605,49,-262,-59,-78,-36,2
9610,43,-257,-59,-92,-35,8
9615,52,-262,-59,-102,-34,17
9620,51,-261,-59,-106,-29,23
9625,47,-260,-59,-110,-22,30
9630,48,-263,-57,-112,-14,37
9635,47,-261,-57,-110,-7,45
9640,49,-263,-60,-107,-3,50
9645,46,-258,-59,-105,1,55
9650,48,-261,-53,-100,4,61
9655,46,-260,-59,-93,3,66
9660,49,-258,-60,-81,2,69
9665,48,-259,-59,-71,0,73
9670,53,-257,-60,-68,-3,76
9675,51,-259,-60,-67,-8,79
9680,49,-257,-59,-67,-13,80
9685,49,-258,-61,-70,-17,81
9690,50,-258,-57,-77,-24,81
9695,50,-258,-56,-90,-31,82
9700,54,-259,-55,-103,-36,79
9705,55,-260,-58,-115,-42,76
9710,48,-257,-57,-125,-46,74
9715,49,-255,-60,-133,-48,71
9720,48,-256,-58,-141,-49,64
9725,51,-258,-61,-151,-47,59
9730,49,-259,-61,-157,-44,55
9735,46,-258,-64,-159,-40,52
9740,47,-261,-60,-160,-35,49
9745,46,-261,-65,-158,-29,46
9750,47,-260,-64,-154,-23,46
9755,49,-262,-61,-151,-17,45
9760,46,-262,-64,-140,-13,47
9765,48,-262,-61,-128,-9,48
9770,45,-268,-61,-112,-3,48
9775,46,-267,-60,-100,2,50
9780,47,-266,-63,-92,7,55
9785,47,-263,-63,-86,11,57
9790,45,-263,-62,-80,16,59
9795,45,-263,-59,-71,19,62
9800,47,-265,-61,-64,21,63
9805,49,-266,-65,-58,22,65
9810,44,-266,-64,-53,22,65
9815,46,-266,-56,-51,20,64
9820,45,-267,-61,-50,16,62
9825,41,-266,-59,-44,13,61
9830,42,-264,-58,-40,9,60
9835,41,-266,-58,-33,7,59
9840,40,-267,-59,-28,3,58
9845,44,-266,-62,-23,2,59
9850,40,-267,-57,-18,1,59
9855,40,-264,-63,-15,0,60
9860,39,-263,-60,-14,-1,59
9865,39,-262,-59,-13,-4,59
9870,39,-262,-62,-12,-8,59
9875,33,-261,-66,-13,-10,56
9880,36,-263,-62,-18,-10,54
9885,38,-260,-63,-23,-9,53
9890,37,-259,-60,-24,-12,52
9895,38,-259,-63,-24,-11,53
9900,35,-259,-63,-19,-12,55
9905,40,-261,-61,-13,-11,56
9910,35,-259,-59,-9,-9,59
9915,35,-261,-61,-6,-4,61
9920,35,-257,-60,-4,-1,63
9925,41,-264,-55,0,5,66
9930,41,-259,-61,3,9,69
9935,40,-264,-58,4,16,72
9940,38,-258,-56,3,19,74
9945,40,-258,-52,0,20,78
9950,36,-259,-55,-4,23,80
9955,38,-257,-57,-8,24,81
9960,38,-258,-62,-15,25,83
9965,37,-258,-60,-24,26,83
9970,38,-258,-64,-34,25,85
9975,38,-258,-61,-45,25,86
9980,37,-261,-66,-51,26,89
9985,39,-258,-65,-56,24,88
9990,36,-266,-64,-56,22,88
9995,37,-261,-64,-56,20,84
10000,38,-260,-65,-52,18,81
10005,36,-259,-65,-49,17,75
10010,35,-259,-69,-44,17,70
10015,35,-259,-67,-41,20,66
10020,36,-262,-68,-35,24,60
10025,38,-261,-68,-26,27,57
10030,39,-262,-66,-16,30,55
10035,36,-261,-66,-7,32,53
10040,36,-263,-65,3,38,52
10045,35,-263,-68,12,44,52
10050,40,-263,-60,14,52,54
10055,34,-258,-65,13,59,56
10060,37,-259,-63,13,64,58
10065,38,-258,-63,9,66,59
10070,40,-259,-61,10,68,63
10075,39,-257,-61,9,68,63
10080,37,-257,-66,1,66,63
10085,38,-255,-67,-7,63,64
10090,38,-259,-65,-18,62,63
10095,37,-262,-64,-25,58,64
10100,35,-262,-62,-30,52,61
10105,38,-262,-64,-31,47,58
10110,35,-259,-64,-32,40,54
10115,37,-262,-66,-31,33,48
10120,33,-260,-65,-30,31,42
10125,33,-263,-62,-30,26,36
10130,32,-263,-65,-29,23,31
10135,26,-263,-64,-27,20,27
10140,27,-264,-62,-26,18,23
10145,31,-264,-59,-22,15,20
10150,27,-263,-61,-20,11,16
10155,19,-260,-57,-17,9,15
10160,24,-263,-66,-13,7,13
10165,25,-259,-63,-10,6,12
10170,24,-259,-60,-3,7,12
10175,26,-261,-59,5,11,14
10180,28,-260,-59,9,17,15
10185,26,-262,-60,12,23,18
10190,31,-260,-62,14,28,22
10195,28,-258,-64,14,34,26
10200,34,-261,-60,11,40,29
10205,36,-259,-59,4,43,32
10210,37,-256,-61,-2,47,34
10215,35,-256,-58,-11,49,37
10220,36,-257,-63,-19,53,39
10225,37,-258,-63,-29,53,39
10230,40,-261,-60,-33,54,39
10235,37,-256,-56,-36,56,38
10240,36,-260,-61,-37,56,34
10245,41,-261,-59,-35,55,35
10250,36,-259,-60,-36,53,34
10255,39,-260,-57,-38,50,33
10260,33,-264,-61,-42,47,32
10265,37,-261,-62,-49,47,32
10270,35,-261,-63,-55,46,32
10275,36,-263,-62,-64,45,32
10280,34,-259,-62,-68,43,31
10285,35,-261,-64,-73,40,31
10290,32,-262,-61,-78,39,28
10295,32,-260,-61,-81,36,28
10300,32,-260,-58,-82,35,28
10305,32,-262,-60,-81,34,29
10310,32,-261,-57,-79,32,29
10315,32,-261,-59,-80,33,30
10320,30,-259,-59,-79,33,33
10325,28,-259,-59,-79,33,35
10330,26,-260,-58,-80,33,38
10335,27,-260,-58,-83,35,39
10340,26,-258,-58,-87,34,40
10345,30,-259,-55,-89,32,41
10350,28,-260,-59,-90,29,44
10355,30,-262,-59,-91,25,44
10360,26,-261,-60,-95,20,46
10365,27,-263,-63,-96,15,46
10370,29,-262,-61,-96,10,45
10375,26,-259,-64,-97,4,45
10380,28,-261,-61,-95,-1,42
10385,29,-265,-67,-94,-5,42
10390,28,-260,-65,-93,-10,41
10395,26,-260,-65,-90,-10,39
10400,27,-262,-64,-86,-11,36
10405,29,-261,-64,-81,-10,33
10410,27,-259,-68,-77,-7,32
10415,27,-260,-70,-73,-1,30
10420,31,-261,-67,-71,5,29
10425,34,-263,-68,-68,11,28
10430,27,-260,-68,-68,18,26
10435,29,-261,-67,-65,24,26
10440,28,-260,-64,-62,29,24
10445,28,-261,-68,-59,33,21
10450,28,-259,-70,-61,35,21
10455,27,-261,-66,-61,36,20
10460,29,-258,-64,-61,37,20
10465,26,-258,-67,-63,37,19
10470,31,-261,-67,-63,39,18
10475,30,-261,-66,-64,37,16
10480,26,-264,-69,-65,37,15
10485,28,-261,-64,-66,37,12
10490,29,-261,-65,-64,36,11
10495,30,-263,-65,-63,36,11
10500,30,-262,-65,-61,36,11
10505,28,-260,-63,-58,36,10
10510,28,-261,-65,-59,35,8
10515,26,-259,-64,-58,33,8
10520,28,-263,-62,-58,31,9
10525,30,-260,-69,-58,30,8
10530,31,-258,-64,-55,28,6
10535,33,-264,-66,-53,27,7
10540,31,-260,-61,-53,25,7
10545,31,-264,-62,-52,24,5
10550,31,-264,-63,-50,22,5
10555,28,-262,-64,-52,22,6
10560,32,-263,-61,-53,24,6
10565,32,-262,-61,-53,23,5
10570,29,-263,-64,-51,24,6
10575,34,-265,-63,-46,25,7
10580,30,-267,-61,-46,24,9
10585,31,-262,-63,-46,22,10
10590,33,-264,-63,-47,21,13
10595,27,-263,-62,-48,20,15
10600,30,-263,-63,-49,16,15
10605,28,-262,-59,-50,14,15
10610,30,-258,-62,-50,12,15
10615,32,-262,-65,-50,10,14
10620,30,-261,-61,-53,8,16
10625,32,-261,-64,-53,6,15
10630,30,-259,-63,-54,5,14
10635,27,-259,-63,-53,7,14
10640,28,-254,-64,-54,7,12
10645,26,-258,-65,-53,7,9
10650,30,-260,-68,-52,7,6
10655,28,-261,-65,-53,7,3
10660,27,-260,-62,-48,8,1
10665,29,-260,-67,-45,9,0
10670,29,-261,-65,-42,10,-2
10675,31,-263,-66,-40,13,-2
10680,30,-260,-62,-39,14,-2
10685,28,-259,-62,-37,16,-3
10690,28,-258,-64,-39,18,-2
10695,28,-265,-70,-41,20,-2
10700,29,-261,-64,-42,21,-3
10705,27,-260,-63,-43,21,-1
10710,30,-262,-60,-41,22,0
10715,30,-261,-63,-43,23,1
10720,29,-261,-67,-41,21,2
10725,29,-261,-63,-38,19,2
10730,30,-263,-61,-38,18,0
10735,31,-262,-62,-38,17,0
10740,32,-264,-63,-38,16,0
10745,28,-262,-71,-38,15,0
10750,29,-258,-66,-40,14,-2
10755,29,-258,-64,-39,12,-4
10760,28,-259,-63,-40,10,-4
10765,31,-262,-64,-41,9,-5
10770,31,-258,-62,-41,6,-5
10775,30,-261,-64,-41,5,-6
10780,31,-260,-63,-41,6,-6
10785,30,-260,-63,-42,5,-7
10790,29,-260,-60,-43,4,-8
10795,26,-263,-63,-45,4,-8
10800,25,-258,-57,-43,3,-6
10805,27,-259,-60,-42,5,-8
10810,29,-259,-63,-42,6,-11
10815,28,-259,-62,-40,7,-12
10820,29,-262,-64,-40,10,-14
10825,28,-260,-62,-41,13,-15
10830,30,-260,-64,-40,15,-16
10835,29,-260,-64,-43,17,-16
10840,31,-258,-62,-45,21,-14
10845,28,-260,-64,-46,24,-13
10850,30,-258,-66,-50,26,-12
10855,29,-260,-63,-51,26,-10
10860,22,-258,-63,-50,26,-10
10865,27,-259,-65,-50,25,-10
10870,30,-263,-63,-49,24,-10
10875,29,-260,-65,-48,22,-9
10880,28,-261,-63,-47,20,-9
10885,30,-261,-64,-50,19,-7
10890,29,-261,-62,-51,17,-7
10895,31,-261,-63,-51,15,-8
10900,27,-264,-64,-51,14,-9
10905,31,-262,-65,-49,12,-10
10910,29,-259,-62,-47,11,-13
10915,31,-262,-64,-45,10,-14
10920,30,-260,-66,-43,11,-15
10925,30,-262,-59,-41,10,-15
10930,28,-260,-65,-42,10,-14
10935,31,-262,-64,-40,9,-16
10940,31,-259,-62,-40,6,-15
10945,27,-257,-61,-40,5,-16
10950,28,-260,-65,-41,3,-18
10955,30,-262,-64,-43,4,-18
10960,29,-262,-61,-47,5,-20
10965,29,-259,-63,-48,7,-22
10970,27,-259,-63,-51,9,-22
10975,31,-260,-64,-53,12,-22
10980,31,-263,-63,-53,18,-21
10985,30,-259,-61,-55,21,-21
10990,31,-263,-62,-54,26,-19
10995,30,-262,-62,-54,30,-17
11000,29,-260,-63,-52,34,-16
11005,30,-261,-61,-50,34,-15
11010,29,-262,-64,-48,34,-15
11015,31,-260,-66,-50,33,-15
11020,33,-260,-63,-49,30,-15
11025,30,-259,-65,-53,26,-15
11030,30,-260,-62,-53,22,-16
11035,26,-258,-66,-54,18,-16
11040,30,-262,-68,-54,14,-16
11045,30,-261,-66,-55,10,-17
11050,28,-259,-64,-55,7,-16
11055,27,-262,-69,-57,4,-16
11060,30,-259,-64,-59,5,-18
11065,28,-257,-65,-60,5,-18
11070,29,-259,-66,-59,6,-18
11075,27,-261,-62,-60,7,-17
11080,28,-257,-63,-59,7,-18
11085,28,-258,-62,-56,8,-19
11090,30,-261,-61,-55,10,-19
11095,30,-261,-62,-54,10,-18
11100,33,-263,-64,-52,12,-18
11105,31,-257,-65,-51,13,-18
11110,30,-259,-67,-51,15,-18
11115,30,-261,-64,-51,16,-17
11120,32,-259,-60,-53,16,-16
11125,31,-259,-63,-55,17,-16
11130,29,-258,-66,-58,17,-17
11135,32,-259,-62,-59,18,-16
11140,30,-261,-65,-63,17,-16
11145,33,-261,-65,-63,15,-15
11150,30,-260,-63,-62,14,-15
11155,31,-258,-64,-62,14,-15
11160,32,-259,-65,-62,13,-15
11165,28,-263,-65,-62,13,-16
11170,34,-263,-64,-62,12,-17
11175,31,-264,-62,-61,12,-16
11180,32,-260,-65,-61,15,-17
11185,29,-256,-73,-60,15,-17
11190,32,-262,-64,-60,16,-17
11195,31,-260,-67,-58,17,-19
11200,32,-260,-61,-57,16,-19
11205,32,-260,-63,-55,14,-19
11210,31,-259,-64,-54,13,-21
11215,31,-263,-67,-50,13,-22
11220,27,-260,-63,-52,12,-23
11225,30,-261,-62,-55,13,-25
11230,30,-263,-63,-56,15,-25
11235,30,-257,-67,-57,17,-24
11240,36,-258,-65,-57,19,-25
11245,30,-264,-63,-56,21,-24
11250,32,-261,-63,-56,21,-25
11255,32,-262,-64,-56,21,-23
11260,30,-261,-66,-56,22,-23
11265,32,-259,-64,-55,23,-21
11270,30,-257,-62,-53,24,-20
11275,32,-261,-58,-52,23,-19
11280,31,-262,-63,-51,22,-18
11285,28,-259,-64,-51,20,-15
11290,30,-259,-61,-51,19,-15
11295,31,-262,-69,-51,17,-16
11300,30,-261,-64,-54,17,-18
11305,26,-258,-64,-57,14,-18
11310,29,-258,-64,-55,11,-18
11315,30,-259,-68,-54,10,-19
11320,26,-261,-65,-53,9,-19
11325,30,-264,-66,-53,8,-18
11330,29,-260,-64,-53,9,-17
11335,33,-261,-67,-52,12,-18
11340,30,-260,-67,-53,13,-18
11345,30,-260,-65,-51,15,-18
11350,31,-266,-63,-47,19,-17
11355,30,-260,-63,-43,18,-18
11360,28,-262,-66,-43,19,-16
11365,31,-263,-63,-42,20,-16
11370,29,-260,-62,-43,21,-16
11375,30,-261,-65,-44,22,-17
11380,30,-259,-66,-45,23,-17
11385,31,-260,-62,-47,25,-18
11390,31,-257,-59,-49,26,-18
11395,34,-263,-64,-49,26,-17
11400,30,-259,-64,-51,24,-16
11405,33,-260,-61,-51,24,-16
11410,31,-258,-62,-56,24,-15
11415,29,-260,-64,-57,23,-14
11420,34,-261,-63,-56,21,-12
11425,31,-260,-65,-58,19,-13
11430,31,-262,-64,-57,18,-13
11435,31,-258,-63,-58,17,-13
11440,33,-261,-64,-57,14,-14
11445,31,-262,-66,-56,13,-13
11450,28,-258,-62,-55,12,-14
11455,24,-265,-63,-51,10,-13
11460,33,-261,-63,-47,10,-13
11465,33,-260,-63,-47,9,-12
11470,31,-259,-66,-46,11,-12
11475,33,-259,-65,-50,12,-13
11480,31,-260,-66,-53,13,-12
11485,31,-257,-65,-57,16,-10
11490,32,-260,-65,-61,17,-10
11495,34,-260,-65,-62,18,-9
11500,31,-259,-63,-63,16,-7
11505,33,-258,-66,-61,14,-7
11510,27,-261,-69,-61,13,-7
11515,32,-259,-64,-59,13,-7
11520,32,-263,-66,-58,10,-9
11525,31,-261,-65,-56,10,-10
11530,30,-259,-67,-52,9,-9
11535,34,-260,-63,-52,8,-10
11540,32,-261,-66,-51,8,-10
11545,32,-260,-65,-53,7,-11
11550,33,-261,-62,-56,9,-12
11555,32,-262,-63,-58,10,-12
11560,32,-260,-62,-63,12,-12
11565,31,-258,-64,-61,14,-11
11570,32,-262,-60,-61,16,-10
11575,34,-261,-64,-59,17,-10
11580,33,-259,-64,-57,19,-11
11585,31,-258,-64,-55,20,-8
11590,35,-259,-65,-54,20,-7
11595,34,-260,-64,-55,21,-5
11600,32,-259,-62,-57,19,-3
11605,32,-262,-64,-60,16,-3
11610,30,-259,-68,-65,14,-2
11615,33,-263,-68,-67,12,-3
11620,33,-261,-69,-68,10,-3
11625,30,-260,-70,-68,7,-4
11630,32,-261,-64,-67,5,-6
11635,30,-262,-66,-63,5,-7
11640,31,-262,-65,-62,6,-7
11645,31,-261,-67,-61,8,-9
11650,29,-260,-66,-56,9,-9
11655,30,-266,-70,-54,11,-8
11660,32,-260,-62,-50,11,-7
11665,31,-260,-71,-50,11,-7
11670,33,-261,-71,-47,12,-7
11675,32,-259,-65,-45,13,-7
11680,31,-259,-67,-43,14,-7
11685,31,-260,-68,-43,14,-7
11690,34,-264,-66,-41,16,-8
11695,31,-258,-66,-44,18,-8
11700,32,-262,-66,-45,20,-9
11705,31,-261,-65,-47,23,-9
11710,27,-261,-68,-47,26,-9
11715,27,-259,-68,-46,30,-8
11720,32,-265,-68,-48,31,-8
11725,29,-263,-66,-47,35,-6
11730,31,-262,-64,-46,35,-4
11735,31,-264,-64,-46,34,-3
11740,34,-260,-64,-45,33,-4
11745,32,-258,-64,-45,31,-4
11750,32,-259,-64,-45,28,-3
11755,28,-260,-61,-48,24,-3
11760,31,-259,-64,-54,20,-5
11765,29,-259,-64,-56,16,-7
11770,29,-257,-64,-60,12,-6
11775,31,-260,-67,-65,11,-6
11780,30,-257,-66,-67,10,-5
11785,38,-260,-66,-70,11,-6
11790,29,-260,-68,-70,11,-7
11795,32,-260,-69,-71,13,-6
11800,33,-261,-68,-68,12,-7
11805,30,-260,-70,-65,14,-8
11810,33,-259,-66,-62,16,-6
11815,33,-260,-68,-63,18,-5
11820,31,-261,-63,-60,20,-5
11825,34,-262,-71,-59,21,-4
11830,30,-262,-66,-58,21,-2
11835,26,-257,-67,-56,21,-3
11840,30,-261,-68,-53,23,-4
11845,30,-259,-65,-52,23,-5
11850,32,-261,-64,-52,22,-4
11855,29,-259,-69,-53,23,-4
11860,30,-261,-64,-55,24,-4
11865,31,-261,-65,-57,23,-2
11870,31,-259,-61,-60,23,-5
11875,29,-256,-65,-58,22,-4
11880,29,-263,-63,-59,21,-3
11885,31,-260,-64,-58,20,-3
11890,31,-260,-73,-59,20,-4
11895,34,-261,-65,-59,19,-5
11900,29,-260,-65,-61,19,-5
11905,32,-259,-66,-60,20,-2
11910,30,-261,-67,-60,21,-1
11915,33,-261,-67,-60,21,0
11920,31,-264,-65,-58,20,2
11925,31,-259,-67,-55,21,2
11930,34,-263,-67,-52,21,3
11935,30,-263,-67,-51,20,5
11940,31,-261,-66,-47,20,3
11945,30,-259,-63,-47,23,3
11950,29,-261,-66,-46,23,3
11955,27,-260,-73,-45,26,2
11960,26,-262,-70,-49,27,0
11965,29,-261,-68,-48,27,1
11970,31,-260,-65,-47,27,1
11975,32,-263,-66,-45,26,1
11980,29,-262,-71,-46,26,1
11985,30,-259,-67,-47,24,0
11990,32,-261,-68,-50,22,0
11995,33,-263,-67,-54,21,-3
