timestamp,acc_x,acc_y,acc_z,gyro_x,gyro_y,gyro_z
0,2,-249,45,45,47,0
5,2,-251,45,46,46,0
10,1,-249,43,46,45,-1
15,0,-249,44,45,45,0
20,0,-248,41,46,45,-1
25,-7,-238,54,45,45,-1
30,1,-250,46,44,44,-2
35,-2,-247,43,40,45,-2
40,1,-248,43,34,45,-2
45,0,-249,46,31,46,-1
50,-1,-248,44,28,48,-1
55,2,-247,44,25,49,0
60,1,-249,48,23,50,-1
65,-2,-249,45,21,52,-1
70,1,-249,48,18,52,-2
75,-1,-248,44,17,52,-2
80,-3,-248,45,17,51,-2
85,-1,-248,46,16,51,-2
90,-4,-249,43,16,51,-2
95,-2,-248,47,14,51,-3
100,-1,-250,43,9,54,-4
105,-1,-248,45,6,55,-4
110,-2,-249,43,3,56,-5
115,-1,-248,44,-1,58,-3
120,-1,-248,38,-3,57,-4
125,-3,-246,44,-5,56,-2
130,2,-250,43,-9,52,-1
135,-4,-245,45,-12,48,2
140,0,-244,45,-14,47,2
145,0,-247,42,-18,46,3
150,2,-248,42,-23,44,3
155,1,-249,48,-29,44,5
160,-2,-248,41,-39,46,6
165,0,-247,42,-47,47,7
170,-1,-248,49,-57,49,8
175,0,-249,47,-66,53,10
180,3,-247,46,-73,57,11
185,1,-247,45,-80,62,12
190,0,-247,48,-86,68,12
195,1,-249,46,-90,73,14
200,6,-250,46,-93,76,14
205,2,-250,49,-93,78,15
210,4,-251,48,-93,78,14
215,4,-249,42,-92,76,18
220,7,-251,43,-90,73,20
225,2,-248,47,-86,71,22
230,2,-248,49,-81,65,23
235,4,-252,45,-73,63,27
240,4,-256,47,-63,62,29
245,7,-250,47,-51,60,32
250,9,-252,49,-40,62,33
255,2,-250,48,-28,63,34
260,7,-251,46,-18,62,36
265,3,-251,42,-10,63,37
270,5,-252,44,-3,62,36
275,5,-249,44,3,63,38
280,3,-249,46,4,62,36
285,3,-246,45,2,59,35
290,2,-248,44,1,56,35
295,3,-249,41,-1,56,34
300,3,-250,44,-4,53,34
305,2,-249,44,-6,50,34
310,2,-249,43,-8,47,32
315,-2,-246,44,-12,46,32
320,-1,-250,43,-14,46,31
325,1,-247,43,-20,48,32
330,-3,-249,44,-26,51,29
335,-1,-251,46,-31,53,30
340,-5,-247,44,-34,57,29
345,-1,-252,47,-38,58,30
350,-7,-253,52,-41,61,30
355,-5,-250,43,-41,66,28
360,-8,-250,42,-43,67,28
365,-6,-251,41,-40,71,28
370,-7,-249,46,-37,74,25
375,-7,-249,41,-35,77,26
380,-5,-249,44,-31,80,23
385,-6,-249,44,-29,83,24
390,-6,-250,45,-27,85,21
395,-6,-248,44,-26,88,20
400,-5,-250,41,-24,91,17
405,-2,-251,45,-22,93,17
410,-4,-248,47,-20,94,17
415,-1,-251,44,-21,93,16
420,-5,-246,46,-20,92,16
425,0,-251,45,-21,89,16
430,2,-253,43,-22,83,17
435,-1,-247,45,-22,77,19
440,-3,-248,42,-25,72,18
445,-2,-250,45,-25,66,21
450,1,-248,42,-27,60,20
455,-3,-247,43,-29,57,24
460,0,-244,40,-31,57,24
465,-4,-246,43,-31,58,24
470,-3,-249,45,-32,59,23
475,-4,-248,47,-32,60,23
480,-2,-249,45,-32,60,23
485,-5,-246,47,-29,61,24
490,-4,-248,48,-28,61,24
495,-4,-250,46,-27,61,24
500,-4,-246,46,-25,61,23
505,-2,-251,45,-23,61,23
510,-6,-250,42,-24,59,21
515,-6,-249,49,-23,60,22
520,-6,-249,47,-23,60,20
525,-4,-251,42,-25,62,21
530,-7,-250,44,-25,61,21
535,-3,-249,46,-22,61,19
540,-3,-252,40,-21,61,18
545,-7,-251,45,-20,59,18
550,-6,-250,47,-19,58,16
555,-5,-249,43,-18,56,16
560,-4,-249,40,-17,56,15
565,-5,-254,45,-17,54,15
570,-5,-250,38,-17,56,13
575,-6,-249,41,-16,57,14
580,-7,-248,46,-16,58,12
585,-7,-248,44,-16,60,12
590,-3,-252,44,-17,60,12
595,-6,-246,42,-17,61,12
600,-4,-248,43,-19,63,9
605,-4,-252,41,-22,63,12
610,-5,-249,47,-23,63,10
615,-4,-248,41,-23,63,10
620,-6,-247,46,-23,63,8
625,-3,-249,44,-22,64,10
630,-5,-249,43,-22,64,8
635,-1,-252,42,-21,64,7
640,-2,-250,44,-21,64,5
645,-3,-247,45,-20,67,5
650,-5,-249,42,-19,69,4
655,-3,-246,46,-21,70,4
660,-4,-248,44,-22,72,2
665,-6,-248,43,-22,73,2
670,-6,-248,46,-23,72,0
675,-6,-245,50,-24,71,0
680,-3,-252,45,-26,72,-1
685,-1,-251,47,-25,68,1
690,-3,-249,44,-26,68,-1
695,-4,-251,45,-28,64,1
700,-3,-252,42,-28,62,-1
705,-2,-249,42,-27,60,1
710,-2,-251,44,-27,60,0
715,-3,-251,43,-27,59,0
720,-5,-252,41,-24,58,-1
725,-2,-250,43,-23,57,1
730,-3,-251,43,-20,57,-1
735,-5,-251,45,-18,58,1
740,-4,-251,44,-16,58,0
745,-3,-252,42,-11,59,0
750,-6,-253,42,-8,60,-2
755,-6,-252,44,-5,60,0
760,-1,-248,40,-4,61,-1
765,-4,-250,43,-3,63,0
770,-3,-248,43,-1,64,-1
775,-3,-252,42,-2,64,-2
780,-2,-249,46,-2,66,-3
785,-3,-243,43,-2,66,-1
790,-4,-249,42,-3,65,-3
795,-4,-249,43,-5,64,-1
800,-3,-248,43,-6,65,-4
805,-4,-249,43,-8,66,-3
810,-5,-249,43,-10,65,-4
815,-6,-248,49,-11,66,-2
820,-5,-249,45,-13,67,-4
825,-5,-249,44,-14,67,-2
830,-4,-248,43,-16,66,-2
835,-5,-248,43,-15,64,0
840,-5,-251,44,-13,64,-1
845,-5,-250,46,-10,62,0
850,-6,-249,43,-9,62,-2
855,-3,-253,42,-6,62,0
860,-2,-251,44,-2,63,-1
865,-4,-252,42,0,63,-1
870,-8,-250,41,4,64,-3
875,-4,-250,42,6,65,-1
880,-3,-249,46,7,64,-2
885,-3,-251,43,8,64,-1
890,-2,-249,45,7,64,-3
895,-2,-244,39,6,64,-1
900,-4,-249,42,6,63,-2
905,-6,-247,42,1,62,-2
910,-5,-251,42,0,62,-3
915,-3,-250,43,-1,61,-2
920,-7,-249,43,-3,61,-4
925,-6,-250,45,-5,60,-3
930,-5,-250,42,-7,60,-4
935,-6,-249,43,-10,59,-3
940,-4,-249,42,-9,57,-5
945,-4,-247,46,-9,58,-4
950,-4,-252,42,-7,58,-6
955,-4,-254,46,-7,57,-5
960,-6,-248,43,-6,59,-6
965,-2,-249,42,-5,57,-5
970,-5,-251,47,-6,58,-6
975,-5,-249,42,-3,58,-6
980,-3,-253,42,-3,58,-7
985,-1,-252,43,-2,59,-5
990,-4,-250,43,-3,59,-7
995,-6,-251,48,-3,59,-5
1000,-6,-250,44,-5,60,-6
1005,-5,-251,41,-7,61,-7
1010,-2,-249,47,-7,63,-7
1015,-3,-251,45,-8,66,-5
1020,-3,-251,46,-9,65,-7
1025,-4,-248,47,-9,66,-6
1030,-4,-252,44,-7,67,-6
1035,-5,-248,45,-7,66,-5
1040,-4,-248,45,-5,65,-7
1045,-4,-249,48,-5,63,-6
1050,-4,-249,46,-4,58,-7
1055,-4,-247,45,-3,57,-5
1060,-6,-250,48,-1,56,-6
1065,-6,-246,44,-1,57,-6
1070,-3,-250,48,-2,56,-6
1075,-3,-249,48,-2,54,-5
1080,-4,-252,44,-2,55,-6
1085,-6,-248,40,0,55,-4
1090,-4,-249,45,-1,55,-6
1095,-5,-251,42,-1,57,-4
1100,-3,-248,45,-1,57,-4
1105,-5,-244,46,-1,58,-2
1110,-6,-250,47,-3,58,-5
1115,-3,-247,44,-2,59,-2
1120,-3,-249,43,-3,60,-3
1125,-4,-251,46,-5,60,-3
1130,-1,-249,42,-4,60,-3
1135,-2,-248,44,-4,60,-1
1140,-3,-248,43,-6,62,-3
1145,-5,-248,43,-6,64,-2
1150,-4,-246,43,-7,64,-5
1155,-3,-250,46,-8,64,-2
1160,-4,-249,46,-7,64,-5
1165,-6,-249,47,-6,64,-4
1170,-4,-250,43,-4,64,-6
1175,-3,-252,39,-5,62,-6
1180,-3,-250,41,-1,63,-7
1185,-6,-251,40,3,64,-6
1190,-3,-252,42,6,64,-9
1195,-4,-250,43,8,64,-7
1200,-4,-251,43,10,64,-9
1205,-3,-250,46,12,64,-8
1210,-3,-252,45,12,65,-10
1215,-4,-250,43,12,64,-8
1220,-14,-254,44,11,67,-9
1225,3,-251,43,8,67,-7
1230,-3,-249,41,8,68,-9
1235,-3,-250,44,5,67,-7
1240,-4,-247,46,4,66,-8
1245,-3,-248,42,1,66,-5
1250,-3,-250,45,0,63,-6
1255,-4,-249,42,0,60,-5
1260,-4,-249,47,-2,58,-6
1265,-2,-250,46,-1,53,-3
1270,-1,-251,48,1,50,-3
1275,-5,-252,45,0,47,-1
1280,-5,-251,47,1,43,-1
1285,-2,-249,47,3,42,1
1290,-4,-248,42,1,42,-1
1295,-5,-250,46,3,42,1
1300,-5,-247,45,4,43,1
1305,-7,-251,44,4,43,2
1310,-6,-250,48,7,39,1
1315,-5,-250,52,10,36,3
1320,-4,-248,52,12,33,4
1325,-6,-248,51,15,30,5
1330,-9,-257,51,16,29,5
1335,-7,-249,50,17,29,8
1340,-7,-251,53,18,30,8
1345,-5,-251,48,20,31,10
1350,-4,-252,45,21,35,9
1355,-4,-249,49,22,39,10
1360,-6,-251,44,24,45,10
1365,-2,-250,46,22,53,10
1370,-7,-251,47,20,59,8
1375,-3,-249,46,14,65,8
1380,-2,-247,45,8,72,7
1385,-3,-246,39,-1,79,7
1390,-4,-246,44,-12,83,4
1395,-2,-247,44,-23,86,6
1400,-5,-248,40,-37,87,5
1405,-1,-244,45,-52,85,7
1410,-3,-245,45,-68,81,7
1415,-1,-246,44,-84,75,13
1420,0,-250,40,-100,70,19
1425,-2,-247,41,-114,66,26
1430,-1,-251,44,-123,64,32
1435,-1,-251,41,-129,61,41
1440,-6,-256,37,-132,60,47
1445,-2,-254,42,-135,58,57
1450,-2,-256,49,-137,56,63
1455,-3,-254,46,-137,54,74
1460,0,-256,42,-136,51,80
1465,-1,-254,44,-135,43,88
1470,-4,-253,45,-133,33,93
1475,-5,-252,46,-133,22,102
1480,-3,-253,40,-137,11,105
1485,-3,-252,41,-141,4,109
1490,-5,-251,39,-151,-1,112
1495,0,-250,40,-165,0,114
1500,-4,-249,39,-180,7,114
1505,-4,-246,42,-193,16,116
1510,0,-253,38,-205,31,112
1515,2,-254,39,-219,46,109
1520,1,-253,42,-230,60,106
1525,3,-254,38,-236,76,100
1530,4,-253,38,-237,89,95
1535,8,-258,38,-234,104,93
1540,7,-254,37,-226,116,88
1545,4,-256,32,-213,130,87
1550,4,-256,35,-197,142,84
1555,3,-252,34,-180,152,87
1560,2,-256,37,-164,155,90
1565,-2,-258,33,-143,152,95
1570,0,-257,33,-122,145,102
1575,-2,-258,30,-101,139,111
1580,-3,-252,29,-74,129,115
1585,-5,-255,33,-49,120,124
1590,-7,-255,31,-23,111,134
1595,-10,-250,28,9,105,140
1600,-12,-250,37,31,100,145
1605,-16,-249,38,50,97,153
1610,-15,-249,36,66,94,159
1615,-16,-249,36,78,91,167
1620,-16,-248,37,90,88,174
1625,-16,-247,39,99,88,183
1630,-17,-247,42,105,88,188
1635,-15,-250,40,109,87,195
1640,-16,-250,46,112,90,200
1645,-16,-248,42,113,90,205
1650,-17,-248,42,111,93,211
1655,-28,-247,36,105,94,215
1660,-16,-246,40,100,94,219
1665,-15,-251,39,91,92,225
1670,-15,-251,39,81,88,231
1675,-16,-248,39,70,79,237
1680,-15,-249,38,60,68,243
1685,-16,-249,39,52,56,252
1690,-15,-250,41,44,41,256
1695,-15,-253,37,35,26,264
1700,-16,-251,39,28,12,269
1705,-15,-253,38,23,-4,279
1710,-16,-252,41,16,-22,283
1715,-16,-253,45,13,-36,291
1720,-16,-253,48,12,-47,295
1725,-15,-253,48,14,-52,302
1730,-15,-252,45,19,-49,308
1735,-16,-251,47,24,-41,313
1740,-15,-252,49,30,-24,318
1745,-15,-248,49,35,-10,326
1750,-15,-246,49,41,6,332
1755,-15,-250,52,47,17,342
1760,-10,-248,51,51,27,349
1765,-14,-248,53,58,33,363
1770,-10,-248,52,68,39,372
1775,-7,-249,49,76,47,380
1780,-7,-250,54,81,52,388
1785,-9,-247,58,84,55,397
1790,-7,-247,60,81,56,409
1795,-7,-245,60,81,53,420
1800,-7,-245,57,79,47,430
1805,-9,-245,58,77,38,442
1810,-8,-247,59,72,24,452
1815,-6,-251,54,64,13,467
1820,-9,-247,55,54,-1,477
1825,-8,-247,53,49,-9,488
1830,-12,-248,53,48,-13,498
1835,-11,-248,49,44,-16,507
1840,-13,-247,48,40,-17,514
1845,-14,-247,49,38,-15,516
1850,-15,-247,47,36,-11,518
1855,-12,-249,48,39,-4,526
1860,-15,-251,47,40,3,527
1865,-17,-247,48,43,11,531
1870,-11,-252,44,49,23,536
1875,-17,-247,50,48,34,540
1880,-23,-247,49,43,44,544
1885,-24,-248,51,39,56,556
1890,-26,-248,47,42,67,561
1895,-21,-249,49,46,79,570
1900,-22,-248,46,41,89,576
1905,-29,-247,46,35,105,582
1910,-24,-250,45,27,121,588
1915,-26,-248,45,16,135,594
1920,-35,-246,48,-1,146,598
1925,-30,-249,43,-20,154,605
1930,-22,-249,43,-44,159,605
1935,-28,-251,48,-72,164,603
1940,-25,-248,43,-102,172,603
1945,-29,-249,43,-139,186,598
1950,-15,-256,40,-167,196,597
1955,-24,-255,39,-191,201,586
1960,-23,-259,47,-205,209,580
1965,-16,-261,49,-210,217,573
1970,-16,-262,46,-208,224,564
1975,-18,-262,50,-203,234,558
1980,-14,-267,40,-195,238,546
1985,-18,-264,39,-181,234,535
1990,-21,-265,41,-163,228,528
1995,-21,-272,41,-139,219,525
2000,-26,-268,38,-112,206,512
2005,-30,-269,37,-79,192,501
2010,-36,-264,35,-50,182,491
2015,-40,-263,31,-20,174,487
2020,-43,-262,28,3,170,484
2025,-52,-258,23,20,170,486
2030,-58,-252,23,30,175,490
2035,-63,-253,22,39,190,502
2040,-69,-246,28,45,208,513
2045,-73,-245,25,49,230,530
2050,-70,-248,30,53,250,543
2055,-72,-242,28,55,264,557
2060,-81,-239,36,61,273,569
2065,-78,-240,36,78,278,582
2070,-79,-241,45,94,282,588
2075,-84,-236,36,112,284,589
2080,-83,-238,42,130,293,597
2085,-81,-235,47,142,301,608
2090,-88,-237,44,148,304,602
2095,-88,-234,44,150,299,597
2100,-88,-232,45,150,286,588
2105,-94,-231,45,148,269,587
2110,-87,-235,44,142,247,595
2115,-96,-233,46,128,215,591
2120,-102,-234,42,113,175,593
2125,-99,-234,44,92,146,598
2130,-102,-236,45,77,122,602
2135,-103,-235,44,63,101,611
2140,-103,-236,42,53,83,617
2145,-107,-235,43,43,66,624
2150,-105,-235,39,38,51,637
2155,-102,-233,43,36,32,652
2160,-107,-234,38,34,9,660
2165,-105,-234,39,39,-5,677
2170,-99,-234,36,45,-18,693
2175,-107,-234,34,55,-34,706
2180,-98,-232,36,67,-46,725
2185,-103,-228,39,79,-49,737
2190,-101,-230,33,88,-47,750
2195,-99,-229,34,97,-46,761
2200,-101,-228,35,106,-50,764
2205,-104,-223,39,121,-53,774
2210,-100,-226,41,139,-58,780
2215,-109,-220,43,153,-67,776
2220,-105,-221,40,172,-72,785
2225,-108,-222,44,187,-81,784
2230,-107,-219,45,203,-90,785
2235,-106,-223,46,218,-94,791
2240,-113,-219,52,231,-99,787
2245,-111,-219,48,241,-102,794
2250,-112,-216,53,245,-106,795
2255,-114,-216,49,248,-110,795
2260,-119,-216,47,251,-112,799
2265,-122,-214,48,251,-119,797
2270,-121,-217,47,249,-126,799
2275,-124,-215,46,250,-131,806
2280,-128,-214,43,248,-141,805
2285,-131,-213,44,251,-146,810
2290,-129,-212,43,258,-151,820
2295,-133,-211,41,262,-159,825
2300,-133,-212,37,267,-165,833
2305,-132,-210,42,271,-173,835
2310,-131,-207,37,274,-177,841
2315,-135,-207,44,276,-175,847
2320,-135,-206,43,279,-172,855
2325,-132,-204,48,281,-162,864
2330,-131,-204,51,282,-152,871
2335,-132,-203,50,280,-140,870
2340,-133,-202,54,278,-126,873
2345,-135,-203,53,276,-109,882
2350,-131,-201,55,273,-94,893
2355,-132,-200,55,269,-78,899
2360,-133,-198,58,265,-70,907
2365,-130,-196,57,259,-63,918
2370,-129,-198,51,254,-60,919
2375,-127,-197,55,252,-54,924
2380,-126,-196,55,250,-38,932
2385,-125,-197,52,244,-16,939
2390,-124,-196,50,238,9,942
2395,-124,-195,56,234,38,948
2400,-126,-195,53,235,62,952
2405,-127,-193,56,242,81,951
2410,-133,-194,57,255,96,945
2415,-133,-195,61,273,104,943
2420,-143,-196,64,299,104,942
2425,-139,-194,64,314,101,941
2430,-142,-194,66,323,93,935
2435,-144,-195,64,325,79,929
2440,-150,-196,63,322,70,922
2445,-153,-193,58,308,71,919
2450,-155,-191,61,292,81,917
2455,-157,-192,64,282,97,918
2460,-161,-191,62,279,106,911
2465,-168,-188,62,282,114,903
2470,-172,-186,63,285,122,895
2475,-176,-180,66,284,131,896
2480,-179,-180,70,283,139,896
2485,-178,-176,68,284,150,892
2490,-186,-174,71,282,166,890
2495,-183,-172,73,275,189,893
2500,-183,-170,75,261,210,893
2505,-187,-167,74,241,222,892
2510,-186,-166,68,215,225,888
2515,-185,-163,72,185,220,890
2520,-183,-163,72,151,213,885
2525,-176,-173,87,115,206,882
2530,-177,-167,75,82,204,874
2535,-178,-169,77,55,209,865
2540,-178,-170,78,43,215,854
2545,-181,-170,78,40,217,842
2550,-181,-168,76,48,211,830
2555,-180,-168,74,59,200,821
2560,-178,-168,78,73,187,814
2565,-181,-163,76,86,178,806
2570,-183,-166,74,96,176,802
2575,-183,-161,74,102,181,796
2580,-183,-159,72,105,185,790
2585,-180,-160,73,107,190,784
2590,-183,-158,69,104,205,775
2595,-186,-158,66,98,218,769
2600,-184,-155,63,90,228,763
2605,-188,-159,59,80,238,758
2610,-188,-157,60,70,244,754
2615,-191,-158,60,58,249,750
2620,-191,-163,61,51,250,750
2625,-194,-163,64,47,248,751
2630,-195,-167,60,52,240,754
2635,-183,-163,55,64,227,755
2640,-196,-166,59,77,216,757
2645,-198,-168,66,92,208,758
2650,-194,-170,66,110,202,758
2655,-195,-169,64,135,204,756
2660,-196,-166,63,158,206,752
2665,-196,-169,62,177,210,747
2670,-195,-162,63,188,212,741
2675,-196,-160,66,196,215,735
2680,-194,-155,58,199,213,729
2685,-194,-157,60,199,211,721
2690,-197,-148,62,196,205,713
2695,-195,-145,60,192,197,707
2700,-197,-143,60,187,187,700
2705,-196,-140,57,179,184,694
2710,-196,-138,60,165,189,693
2715,-197,-136,63,154,192,692
2720,-198,-134,64,143,194,695
2725,-195,-133,67,132,197,695
2730,-198,-134,67,118,203,696
2735,-200,-133,68,106,208,696
2740,-201,-132,69,99,210,694
2745,-200,-135,64,93,209,693
2750,-207,-135,65,88,204,691
2755,-206,-138,64,85,201,692
2760,-205,-139,60,87,206,690
2765,-205,-138,61,89,225,684
2770,-205,-139,57,91,250,678
2775,-206,-141,58,94,277,668
2780,-208,-140,60,96,303,657
2785,-208,-141,56,99,323,646
2790,-207,-141,59,105,334,637
2795,-208,-141,59,116,334,629
2800,-211,-136,59,129,317,620
2805,-212,-136,58,144,286,613
2810,-212,-132,60,154,251,605
2815,-214,-130,59,162,223,599
2820,-218,-126,55,163,204,591
2825,-217,-124,63,161,188,586
2830,-218,-119,63,155,182,580
2835,-220,-117,60,152,177,573
2840,-223,-113,61,147,175,567
2845,-225,-112,64,143,169,562
2850,-226,-110,64,135,158,562
2855,-225,-98,68,124,145,565
2860,-225,-105,63,110,129,570
2865,-223,-104,62,95,112,577
2870,-223,-101,61,82,97,583
2875,-221,-104,58,73,85,591
2880,-222,-101,57,69,79,601
2885,-220,-101,51,67,67,609
2890,-220,-100,56,68,57,619
2895,-220,-97,59,69,46,626
2900,-223,-96,63,68,37,635
2905,-222,-92,64,64,30,643
2910,-221,-95,57,53,27,652
2915,-223,-91,57,39,27,661
2920,-223,-95,58,19,30,669
2925,-226,-93,58,0,27,675
2930,-228,-98,61,-18,21,681
2935,-229,-101,62,-29,10,686
2940,-232,-104,60,-34,-7,693
2945,-235,-103,65,-30,-22,698
2950,-234,-107,61,-24,-43,704
2955,-235,-103,62,-17,-62,710
2960,-233,-99,54,-12,-79,716
2965,-233,-98,60,-10,-90,721
2970,-233,-95,53,-12,-92,726
2975,-231,-93,58,-16,-91,733
2980,-232,-88,60,-22,-88,737
2985,-232,-86,61,-29,-89,740
2990,-236,-88,54,-38,-97,741
2995,-238,-87,57,-47,-118,745
3000,-241,-89,59,-57,-150,753
3005,-239,-90,61,-65,-183,759
3010,-243,-88,62,-68,-215,766
3015,-239,-88,60,-74,-239,768
3020,-238,-86,62,-78,-249,771
3025,-236,-88,60,-81,-243,768
3030,-236,-86,63,-81,-229,761
3035,-237,-84,63,-75,-209,751
3040,-237,-83,62,-65,-191,738
3045,-240,-81,59,-48,-177,723
3050,-244,-79,62,-29,-166,712
3055,-246,-78,60,-13,-166,702
3060,-245,-77,55,-6,-177,695
3065,-245,-73,54,-11,-187,690
3070,-252,-75,55,-26,-191,688
3075,-242,-73,56,-50,-185,684
3080,-243,-73,57,-79,-171,681
3085,-243,-73,58,-101,-152,675
3090,-239,-76,58,-114,-129,666
3095,-239,-77,61,-119,-101,657
3100,-235,-79,60,-115,-75,648
3105,-237,-80,65,-101,-49,642
3110,-236,-79,62,-78,-35,637
3115,-239,-78,63,-50,-32,632
3120,-240,-76,66,-13,-42,631
3125,-238,-75,60,16,-55,625
3130,-236,-72,67,37,-66,621
3135,-235,-68,67,54,-72,611
3140,-237,-60,69,65,-72,600
3145,-233,-59,70,68,-66,588
3150,-232,-56,70,64,-64,575
3155,-232,-52,71,58,-63,562
3160,-234,-52,70,49,-69,551
3165,-237,-51,69,44,-82,541
3170,-238,-45,63,39,-94,532
3175,-240,-41,62,25,-108,528
3180,-237,-31,51,7,-123,530
3185,-236,-32,66,-16,-138,532
3190,-236,-31,63,-44,-142,532
3195,-236,-29,62,-73,-135,523
3200,-237,-33,63,-95,-132,515
3205,-242,-34,66,-100,-140,505
3210,-248,-32,61,-90,-163,500
3215,-248,-32,65,-70,-189,493
3220,-250,-30,62,-49,-211,486
3225,-256,-27,68,-36,-226,482
3230,-260,-23,66,-29,-240,478
3235,-262,-22,69,-25,-259,476
3240,-262,-20,66,-23,-281,477
3245,-265,-17,67,-28,-297,477
3250,-262,-16,72,-45,-295,475
3255,-254,-14,80,-70,-272,465
3260,-255,-12,82,-100,-238,449
3265,-252,-13,84,-139,-201,427
3270,-252,-13,89,-185,-167,402
3275,-254,-14,93,-232,-149,382
3280,-257,-20,88,-275,-151,365
3285,-259,-23,88,-311,-173,349
3290,-257,-23,102,-338,-211,343
3295,-256,-34,83,-343,-248,338
3300,-251,-33,84,-336,-283,337
3305,-249,-33,84,-319,-312,335
3310,-246,-34,86,-288,-329,338
3315,-243,-33,86,-248,-339,340
3320,-243,-27,85,-203,-342,344
3325,-237,-30,90,-157,-342,344
3330,-232,-30,94,-111,-340,343
3335,-235,-25,94,-66,-344,339
3340,-238,-19,95,-22,-354,334
3345,-230,-22,89,21,-369,332
3350,-231,-15,93,60,-374,329
3355,-231,-12,94,85,-366,316
3360,-231,-8,91,110,-346,292
3365,-232,-4,91,93,-334,268
3370,-232,-4,98,34,-332,267
3375,-234,-11,100,-16,-332,274
3380,-234,-16,98,-37,-328,273
3385,-233,-22,100,-37,-314,267
3390,-232,-25,106,-31,-288,261
3395,-229,-33,107,-25,-250,255
3400,-228,-42,106,-17,-205,245
3405,-227,-40,115,-7,-150,231
3410,-229,-49,112,-2,-116,223
3415,-229,-54,113,-2,-91,209
3420,-231,-56,116,-3,-82,200
3425,-228,-59,116,0,-81,189
3430,-231,-61,118,7,-88,179
3435,-231,-61,120,20,-106,166
3440,-232,-58,118,44,-131,157
3445,-233,-58,113,79,-161,152
3450,-229,-55,119,120,-188,147
3455,-227,-50,112,168,-207,144
3460,-229,-45,107,212,-210,144
3465,-232,-39,105,250,-197,142
3470,-231,-33,101,265,-171,146
3475,-235,-26,98,259,-143,148
3480,-239,-20,95,235,-118,155
3485,-241,-23,98,196,-99,157
3490,-243,-19,97,146,-87,160
3495,-244,-19,103,87,-80,160
3500,-243,-21,108,27,-77,163
3505,-241,-23,118,-24,-75,165
3510,-237,-30,112,-54,-72,167
3515,-235,-31,111,-64,-64,161
3520,-230,-36,115,-51,-34,153
3525,-229,-33,115,-25,3,137
3530,-232,-30,116,-2,45,122
3535,-229,-28,111,15,82,100
3540,-234,-21,109,28,106,80
3545,-237,-16,106,40,113,58
3550,-235,-20,100,54,106,44
3555,-233,-19,97,64,92,28
3560,-233,-17,98,70,81,18
3565,-233,-15,99,66,78,7
3570,-228,-16,93,52,82,-1
3575,-225,-16,97,28,93,-7
3580,-224,-17,98,-5,106,-5
3585,-220,-23,103,-29,108,-4
3590,-221,-26,99,-45,101,1
3595,-221,-30,104,-46,92,5
3600,-221,-32,108,-38,82,12
3605,-217,-34,110,-20,80,14
3610,-214,-31,113,10,90,13
3615,-209,-37,112,39,109,7
3620,-221,-26,119,63,131,3
3625,-217,-24,120,88,152,4
3630,-221,-22,122,124,168,4
3635,-222,-19,120,165,180,-2
3640,-228,-15,123,216,183,-4
3645,-232,-8,117,252,176,-8
3650,-233,-4,113,275,152,-6
3655,-238,-5,107,285,120,-7
3660,-237,-3,97,280,92,-7
3665,-239,-4,97,261,78,-12
3670,-236,-4,96,228,80,-16
3675,-238,-5,96,183,95,-24
3680,-237,-11,96,135,126,-31
3685,-236,-16,103,91,163,-41
3690,-238,-19,101,60,204,-50
3695,-236,-24,106,47,226,-61
3700,-238,-25,103,54,231,-68
3705,-240,-24,102,77,226,-77
3710,-239,-26,105,106,218,-86
3715,-238,-23,103,136,210,-93
3720,-235,-24,103,165,206,-95
3725,-232,-20,97,195,200,-101
3730,-233,-19,100,222,195,-102
3735,-238,-13,96,248,188,-106
3740,-242,-12,102,265,186,-107
3745,-244,-11,95,274,188,-108
3750,-241,-12,97,279,191,-103
3755,-239,-12,92,279,193,-101
3760,-238,-7,90,277,194,-94
3765,-238,-8,91,270,195,-92
3770,-233,-10,91,261,202,-88
3775,-234,-10,88,246,217,-88
3780,-228,-17,91,233,238,-88
3785,-228,-17,95,226,264,-90
3790,-226,-17,89,227,285,-89
3795,-229,-20,96,236,299,-93
3800,-230,-21,95,256,301,-93
3805,-233,-17,97,280,293,-94
3810,-229,-20,98,313,280,-92
3815,-233,-17,104,337,271,-92
3820,-233,-12,98,355,268,-88
3825,-233,-11,97,366,270,-88
3830,-236,-5,98,367,274,-81
3835,-231,-5,106,357,279,-77
3840,-235,-8,89,339,281,-71
3845,-237,-5,89,313,290,-67
3850,-235,-8,88,277,308,-59
3855,-238,-9,84,237,330,-54
3860,-235,-14,79,192,353,-41
3865,-239,-12,85,136,378,-32
3870,-242,-17,86,96,390,-18
3875,-241,-18,85,66,394,-6
3880,-238,-24,85,47,398,9
3885,-238,-25,85,40,401,20
3890,-236,-24,85,44,405,33
3895,-237,-24,87,53,410,42
3900,-240,-19,87,65,418,53
3905,-241,-18,85,75,428,61
3910,-242,-16,90,78,437,71
3915,-244,-15,84,74,448,75
3920,-246,-8,84,65,460,82
3925,-245,-9,83,47,471,81
3930,-251,-9,86,29,478,84
3935,-250,-8,82,9,486,83
3940,-259,-15,81,-11,489,85
3945,-250,-14,79,-30,493,84
3950,-247,-16,82,-49,498,83
3955,-246,-18,79,-65,505,81
3960,-246,-21,81,-78,514,79
3965,-242,-22,80,-87,526,77
3970,-244,-19,84,-97,539,76
3975,-243,-21,83,-101,552,71
3980,-241,-20,81,-104,566,73
3985,-242,-18,80,-104,572,71
3990,-242,-15,79,-103,573,70
3995,-244,-13,81,-105,568,64
4000,-246,-12,77,-112,559,63
4005,-247,-12,78,-127,551,60
4010,-247,-16,80,-137,541,67
4015,-249,-18,78,-127,529,69
4020,-248,-20,74,-99,514,76
4025,-250,-23,74,-58,502,83
4030,-249,-21,66,-17,494,89
4035,-248,-24,69,29,492,93
4040,-246,-23,65,77,501,97
4045,-245,-22,59,103,516,93
4050,-248,-13,52,114,537,93
4055,-246,-19,64,110,561,86
4060,-249,-15,63,92,584,86
4065,-251,-12,61,63,603,80
4070,-252,-10,61,26,613,76
4075,-252,-8,64,-6,615,71
4080,-251,-6,61,-33,611,66
4085,-250,-3,61,-52,601,61
4090,-250,-5,58,-67,593,58
4095,-248,-4,63,-77,589,53
4100,-250,-1,57,-81,591,52
4105,-249,-3,56,-86,597,47
4110,-250,-1,59,-93,603,47
4115,-247,0,53,-104,606,42
4120,-250,3,56,-114,601,38
4125,-250,6,52,-125,591,33
4130,-250,3,50,-134,582,32
4135,-251,1,52,-138,568,25
4140,-252,5,52,-140,555,23
4145,-251,3,48,-135,545,14
4150,-256,0,46,-128,540,12
4155,-257,-4,43,-130,538,3
4160,-257,-5,48,-145,540,3
4165,-262,-5,41,-165,545,0
4170,-266,-11,41,-185,548,-1
4175,-267,-16,34,-201,548,-2
4180,-271,-18,34,-214,540,0
4185,-274,-23,37,-220,527,-4
4190,-276,-27,33,-221,510,-4
4195,-279,-28,30,-214,489,-8
4200,-282,-26,28,-201,466,-10
4205,-285,-26,28,-184,432,-16
4210,-285,-28,25,-160,403,-17
4215,-284,-28,21,-138,375,-22
4220,-288,-28,18,-121,350,-20
4225,-285,-27,19,-111,327,-21
4230,-280,-24,16,-109,304,-19
4235,-276,-23,15,-111,284,-21
4240,-279,-21,15,-116,261,-17
4245,-277,-21,14,-119,239,-20
4250,-277,-22,17,-119,217,-18
4255,-274,-22,19,-114,197,-21
4260,-272,-22,16,-107,176,-22
4265,-282,-23,22,-93,156,-27
4270,-270,-20,21,-81,142,-26
4275,-270,-18,22,-70,129,-32
4280,-269,-15,24,-56,115,-33
4285,-265,-17,27,-44,104,-38
4290,-265,-14,20,-31,92,-37
4295,-264,-13,25,-23,82,-41
4300,-265,-11,26,-16,72,-39
4305,-262,-14,26,-11,58,-38
4310,-265,-13,23,-8,47,-34
4315,-263,-11,25,-9,38,-33
4320,-266,-13,26,-15,29,-28
4325,-266,-10,27,-22,22,-29
4330,-267,-9,29,-27,13,-23
4335,-269,-11,31,-35,4,-21
4340,-270,-10,24,-42,-6,-13
4345,-269,-14,29,-48,-18,-10
4350,-268,-14,31,-53,-33,-3
4355,-269,-11,31,-58,-49,-1
4360,-269,-15,29,-61,-64,6
4365,-269,-13,32,-62,-79,7
4370,-268,-17,29,-61,-96,14
4375,-269,-24,27,-60,-108,17
4380,-269,-15,32,-57,-122,24
4385,-268,-16,28,-54,-131,23
4390,-265,-18,35,-50,-139,26
4395,-264,-18,38,-46,-146,26
4400,-264,-17,36,-40,-150,26
4405,-268,-13,39,-35,-155,22
4410,-269,-16,42,-31,-160,21
4415,-268,-15,40,-27,-166,16
4420,-270,-16,43,-25,-175,17
4425,-266,-16,44,-21,-184,13
4430,-266,-16,40,-16,-190,13
4435,-266,-15,43,-11,-196,8
4440,-265,-15,42,-5,-196,4
4445,-266,-14,47,0,-192,-5
4450,-263,-13,42,5,-189,-7
4455,-262,-13,48,10,-183,-16
4460,-264,-11,46,14,-178,-22
4465,-265,-12,46,16,-175,-28
4470,-261,-12,46,17,-172,-31
4475,-264,-9,43,18,-172,-38
4480,-257,-13,39,17,-174,-40
4485,-261,-9,45,17,-173,-46
4490,-264,-6,44,14,-178,-48
4495,-264,-10,43,9,-185,-54
4500,-265,-7,43,2,-193,-54
4505,-266,-7,42,-9,-206,-56
4510,-262,-6,42,-21,-216,-54
4515,-259,-8,42,-32,-226,-58
4520,-261,-6,42,-45,-236,-55
4525,-257,-12,43,-56,-244,-58
4530,-257,-10,47,-67,-251,-57
4535,-259,-11,48,-79,-254,-57
4540,-257,-11,49,-89,-257,-52
4545,-255,-15,44,-102,-259,-52
4550,-258,-15,52,-117,-256,-49
4555,-255,-15,55,-126,-254,-50
4560,-252,-17,54,-138,-248,-44
4565,-251,-19,55,-145,-240,-44
4570,-248,-19,60,-150,-233,-41
4575,-250,-21,62,-154,-224,-42
4580,-246,-23,66,-153,-218,-39
4585,-249,-20,62,-151,-211,-42
4590,-248,-31,67,-141,-205,-38
4595,-247,-21,68,-129,-198,-40
4600,-245,-25,68,-114,-192,-38
4605,-244,-21,69,-98,-190,-41
4610,-245,-21,65,-81,-187,-37
4615,-245,-24,65,-66,-186,-38
4620,-245,-22,69,-52,-184,-34
4625,-244,-20,67,-38,-182,-34
4630,-244,-21,70,-25,-180,-31
4635,-244,-20,64,-13,-176,-33
4640,-242,-23,66,-2,-171,-28
4645,-233,-21,71,6,-165,-29
4650,-241,-22,67,12,-157,-26
4655,-246,-19,72,18,-151,-27
4660,-244,-19,67,20,-143,-23
4665,-245,-20,71,22,-136,-25
4670,-244,-20,70,24,-131,-22
4675,-243,-20,75,22,-126,-22
4680,-244,-22,72,18,-122,-19
4685,-243,-23,69,15,-114,-20
4690,-244,-20,71,10,-107,-17
4695,-246,-17,76,3,-98,-19
4700,-249,-19,72,-5,-89,-15
4705,-240,-17,73,-12,-79,-17
4710,-246,-17,67,-18,-70,-14
4715,-243,-14,75,-28,-61,-16
4720,-248,-15,73,-37,-48,-13
4725,-244,-19,71,-50,-37,-14
4730,-245,-13,72,-64,-27,-13
4735,-246,-13,75,-78,-17,-16
4740,-246,-13,72,-92,-6,-15
4745,-249,-21,72,-102,3,-19
4750,-247,-20,68,-114,15,-17
4755,-245,-20,68,-119,24,-21
4760,-245,-24,73,-124,33,-20
4765,-246,-24,70,-124,40,-26
4770,-235,-31,78,-124,45,-24
4775,-255,-17,62,-121,47,-21
4780,-251,-23,71,-114,47,-14
4785,-244,-25,76,-106,44,-11
4790,-251,-27,74,-95,37,-5
4795,-247,-23,69,-81,31,-4
4800,-243,-28,69,-68,27,2
4805,-251,-30,70,-51,25,3
4810,-253,-34,56,-38,26,7
4815,-247,-33,47,-25,28,6
4820,-249,-28,63,-14,32,11
4825,-248,-26,64,-5,34,11
4830,-246,-26,66,3,39,15
4835,-242,-24,65,11,42,16
4840,-244,-23,63,19,45,20
4845,-245,-22,67,23,46,19
4850,-252,-27,70,26,47,21
4855,-248,-20,66,28,47,20
4860,-246,-20,63,28,46,22
4865,-249,-18,71,27,45,21
4870,-248,-16,72,26,47,23
4875,-250,-12,71,23,47,23
4880,-245,-17,71,19,51,24
4885,-249,-18,68,17,54,19
4890,-251,-18,63,13,60,21
4895,-250,-18,71,10,66,17
4900,-226,-9,59,6,69,20
4905,-251,-18,71,3,73,16
4910,-249,-19,73,0,78,17
4915,-251,-17,73,-5,82,14
4920,-251,-16,68,-7,86,17
4925,-250,-15,65,-10,87,13
4930,-255,-17,67,-13,90,14
4935,-256,-22,66,-17,91,13
4940,-255,-17,69,-20,90,14
4945,-255,-33,71,-25,90,12
4950,-246,-5,63,-27,91,13
4955,-246,-17,67,-31,91,10
4960,-246,-20,60,-34,94,11
4965,-248,-12,68,-38,95,8
4970,-249,-16,66,-40,94,10
4975,-246,-18,69,-40,94,6
4980,-254,-16,66,-39,91,8
4985,-253,-19,68,-37,90,7
4990,-252,-21,64,-35,88,9
4995,-250,-21,65,-29,84,6
5000,-253,-17,79,-22,81,7
5005,-256,-24,66,-15,78,4
5010,-252,-29,42,-12,74,8
5015,-260,-9,72,-6,71,6
5020,-251,-33,80,-3,68,8
5025,-250,-9,56,-1,64,4
5030,-250,-13,47,1,61,6
5035,-251,-13,68,2,60,3
5040,-241,-18,48,1,59,5
5045,-260,-27,67,0,57,2
5050,-244,-10,66,0,58,2
5055,-239,0,62,-1,59,0
5060,-251,-18,68,0,59,1
5065,-254,-15,65,-2,58,-2
5070,-252,-17,65,-2,58,-1
5075,-251,-19,64,-3,57,-4
5080,-256,-21,90,-6,56,-2
5085,-251,-21,62,-8,55,-4
5090,-256,-12,70,-11,53,-1
5095,-265,-23,64,-14,51,-3
5100,-260,-19,76,-14,47,0
5105,-247,-20,57,-16,46,-2
5110,-253,-13,67,-17,47,-2
5115,-261,-20,63,-17,47,-3
5120,-234,-29,67,-16,45,-2
5125,-263,-29,64,-13,44,-4
5130,-252,-21,66,-11,44,-3
5135,-251,-17,66,-10,43,-3
5140,-254,-18,68,-8,40,-1
5145,-250,-17,64,-6,39,-3
5150,-250,-10,63,-7,39,1
5155,-244,-24,65,-4,38,-2
5160,-249,-20,69,-5,34,1
5165,-255,-18,68,-4,34,-1
5170,-251,-24,75,-5,31,2
5175,-242,-11,67,-7,32,0
5180,-252,-15,66,-10,30,1
5185,-252,-13,69,-13,30,-1
5190,-250,-17,68,-16,29,2
5195,-252,-17,64,-19,30,-2
5200,-250,-16,64,-20,30,1
5205,-250,-18,69,-21,31,-2
5210,-252,-17,68,-23,31,-1
5215,-253,-19,69,-24,30,-4
5220,-252,-20,66,-24,29,-4
5225,-253,-17,69,-26,26,-6
5230,-249,-21,68,-28,28,-4
5235,-251,-19,67,-29,28,-6
5240,-253,-18,73,-30,28,-7
5245,-254,-19,71,-28,31,-8
5250,-251,-19,69,-28,33,-8
5255,-247,-19,70,-26,35,-9
5260,-249,-20,69,-23,39,-7
5265,-248,-18,69,-21,40,-11
5270,-247,-20,71,-19,42,-9
5275,-249,-20,65,-15,44,-12
5280,-249,-21,69,-11,47,-10
5285,-249,-17,68,-5,48,-11
5290,-251,-18,70,1,46,-9
5295,-248,-19,66,7,45,-12
5300,-251,-17,68,14,43,-9
5305,-251,-20,71,17,40,-11
5310,-251,-18,71,18,38,-7
5315,-252,-18,69,20,35,-11
5320,-249,-21,67,18,36,-7
5325,-252,-19,70,15,36,-9
5330,-250,-19,67,12,34,-6
5335,-252,-20,70,7,35,-7
5340,-252,-20,69,3,37,-3
5345,-248,-19,68,-1,38,-5
5350,-254,-19,68,-4,38,-1
5355,-249,-20,69,-6,38,-2
5360,-247,-21,70,-8,37,1
5365,-249,-21,65,-11,36,-1
5370,-248,-19,68,-12,34,1
5375,-248,-19,67,-13,31,-1
5380,-251,-20,67,-15,31,2
5385,-247,-21,67,-16,31,0
5390,-248,-16,70,-15,32,1
5395,-250,-18,70,-15,31,-1
5400,-250,-16,71,-12,32,0
5405,-250,-19,68,-13,35,-3
5410,-249,-18,70,-11,39,-1
5415,-250,-20,72,-11,44,-3
5420,-249,-17,70,-12,45,-2
5425,-249,-17,68,-14,46,-4
5430,-249,-18,68,-14,48,-3
5435,-249,-18,69,-16,51,-5
5440,-250,-22,69,-19,53,-3
5445,-251,-18,74,-17,55,-5
5450,-253,-16,71,-17,57,-4
5455,-253,-16,70,-16,59,-4
5460,-236,-17,68,-15,58,-4
5465,-249,-19,66,-12,60,-5
5470,-252,-16,71,-9,59,-2
5475,-250,-19,72,-8,58,-2
5480,-250,-19,71,-7,56,0
5485,-251,-20,71,-7,54,-2
5490,-249,-17,68,-6,53,-1
5495,-251,-17,70,-8,52,-2
5500,-251,-15,70,-9,51,0
5505,-252,-16,72,-10,50,-2
5510,-254,-16,68,-10,50,0
5515,-247,-19,72,-11,51,-1
5520,-246,-18,68,-13,51,1
5525,-248,-17,68,-13,52,-1
5530,-248,-18,71,-13,54,0
5535,-249,-18,68,-13,53,0
5540,-249,-18,68,-12,55,0
5545,-253,-15,71,-12,56,-1
5550,-249,-18,70,-12,55,1
5555,-252,-15,72,-14,55,1
5560,-250,-17,69,-15,55,2
5565,-249,-18,70,-17,55,0
5570,-253,-21,70,-16,57,3
5575,-254,-18,70,-16,56,0
5580,-250,-17,69,-17,55,2
5585,-251,-16,69,-17,57,1
5590,-253,-17,67,-16,54,2
5595,-251,-17,73,-16,54,0
5600,-253,-18,67,-16,56,2
5605,-250,-17,71,-15,56,-1
5610,-249,-20,67,-17,57,1
5615,-248,-18,74,-16,57,0
5620,-248,-17,68,-17,58,1
5625,-249,-19,72,-18,59,-2
5630,-251,-19,68,-18,60,0
5635,-249,-20,70,-18,60,-3
5640,-250,-18,71,-15,60,-3
5645,-253,-18,67,-13,60,-1
5650,-251,-17,70,-11,58,-1
5655,-249,-17,71,-8,60,-2
5660,-249,-17,69,-6,59,0
5665,-250,-16,71,-6,58,-2
5670,-248,-17,66,-5,60,-1
5675,-251,-17,70,-7,63,0
5680,-250,-15,72,-9,61,2
5685,-249,-17,70,-11,62,-1
5690,-253,-15,67,-14,61,1
5695,-252,-18,72,-17,59,0
5700,-251,-19,69,-17,59,1
5705,-253,-17,71,-17,60,0
5710,-250,-18,69,-18,58,0
5715,-251,-21,68,-19,60,-1
5720,-250,-20,71,-18,60,0
5725,-250,-20,67,-17,60,-1
5730,-251,-18,70,-17,60,0
5735,-251,-19,69,-16,58,-2
5740,-250,-18,69,-15,58,0
5745,-253,-18,67,-15,59,-3
5750,-253,-18,71,-15,60,-1
5755,-251,-18,70,-14,60,-1
5760,-252,-18,68,-16,58,-1
5765,-251,-16,71,-16,57,-2
5770,-248,-19,71,-16,59,-1
5775,-251,-17,73,-18,61,-2
5780,-251,-15,70,-19,61,-1
5785,-248,-10,56,-21,63,-3
5790,-250,-17,72,-22,64,-1
5795,-249,-17,71,-22,63,-3
5800,-252,-15,70,-21,64,-1
5805,-250,-19,69,-20,62,-3
5810,-247,-17,72,-18,62,-1
5815,-250,-18,71,-18,62,-2
5820,-249,-18,71,-15,62,-1
5825,-248,-17,70,-12,61,-3
5830,-248,-19,71,-11,61,-3
5835,-250,-17,69,-10,60,-2
5840,-251,-17,68,-9,61,0
5845,-250,-16,67,-8,61,-1
5850,-248,-18,67,-8,61,1
5855,-255,-16,76,-9,60,-2
5860,-250,-17,73,-10,61,1
5865,-251,-17,69,-12,60,-1
5870,-249,-18,66,-13,62,1
5875,-252,-18,71,-14,61,0
5880,-248,-18,70,-16,61,0
5885,-250,-19,69,-18,63,0
5890,-252,-17,71,-20,65,1
5895,-253,-12,79,-23,65,0
5900,-251,-19,71,-26,67,1
5905,-252,-17,72,-26,70,-1
5910,-247,-18,70,-28,73,1
5915,-250,-18,68,-30,77,-1
5920,-248,-18,68,-29,79,0
5925,-252,-19,69,-31,81,-3
5930,-250,-20,69,-31,82,-2
5935,-251,-16,67,-32,82,-3
5940,-250,-15,69,-32,85,-2
5945,-253,-16,73,-31,84,-2
5950,-249,-19,74,-30,83,-2
5955,-250,-18,70,-29,82,-2
5960,-248,-21,70,-28,83,-1
5965,-250,-18,69,-28,81,-3
5970,-248,-21,68,-27,80,0
5975,-249,-16,71,-26,80,0
5980,-248,-18,70,-25,79,2
5985,-248,-16,74,-24,80,2
5990,-247,-17,71,-24,80,2
5995,-251,-17,70,-23,81,2
6000,-250,-17,69,-24,83,2
6005,-253,-20,68,-25,85,3
6010,-249,-18,70,-26,87,3
6015,-250,-16,69,-26,89,3
6020,-248,-19,71,-25,91,4
6025,-252,-15,68,-26,94,2
6030,-252,-14,72,-25,95,3
6035,-252,-17,73,-25,96,2
6040,-253,-17,68,-26,98,3
6045,-253,-17,70,-27,96,1
6050,-249,-18,70,-31,97,1
6055,-250,-17,66,-35,98,1
6060,-252,-19,66,-37,99,0
6065,-249,-16,69,-42,101,-1
6070,-250,-17,69,-45,103,-2
6075,-248,-19,68,-44,105,-5
6080,-249,-18,64,-43,107,-4
6085,-247,-21,67,-43,110,-6
6090,-248,-22,64,-39,111,-5
6095,-250,-21,72,-33,114,-6
6100,-248,-19,67,-24,113,-5
6105,-250,-20,69,-13,111,-5
6110,-251,-20,71,-2,107,-4
6115,-258,-22,78,7,102,-4
6120,-253,-20,65,14,98,-3
6125,-249,-19,67,18,93,-3
6130,-250,-17,67,20,89,-3
6135,-248,-17,68,19,87,-4
6140,-251,-18,68,16,85,-3
6145,-252,-16,66,8,85,-2
6150,-249,-20,67,0,87,0
6155,-250,-17,69,-7,89,0
6160,-253,-15,67,-16,90,0
6165,-250,-16,66,-24,93,1
6170,-248,-21,62,-30,95,0
6175,-252,-19,70,-33,95,1
6180,-251,-15,65,-35,96,2
6185,-253,-18,69,-36,95,2
6190,-251,-18,67,-35,95,3
6195,-253,-16,71,-36,94,3
6200,-252,-15,71,-37,93,3
6205,-252,-19,65,-35,91,2
6210,-250,-17,70,-36,90,3
6215,-251,-16,71,-35,90,0
6220,-251,-18,61,-35,91,-1
6225,-252,-17,64,-36,92,-2
6230,-251,-20,66,-34,93,-1
6235,-253,-17,66,-34,98,-2
6240,-251,-19,67,-32,100,-3
6245,-251,-18,64,-31,103,-5
6250,-255,-17,71,-29,105,-6
6255,-250,-18,65,-28,105,-7
6260,-252,-19,67,-25,104,-5
6265,-252,-18,67,-21,103,-5
6270,-254,-15,67,-21,102,-5
6275,-250,-19,64,-19,101,-3
6280,-250,-17,66,-18,100,-4
6285,-251,-18,64,-19,98,-4
6290,-249,-18,64,-19,95,-4
6295,-252,-17,67,-19,94,-2
6300,-250,-17,65,-21,93,-2
6305,-253,-18,67,-21,91,-3
6310,-250,-18,68,-23,89,-3
6315,-250,-18,68,-24,88,-4
6320,-250,-18,67,-25,87,-2
6325,-251,-17,67,-27,87,-2
6330,-249,-18,61,-27,89,-3
6335,-249,-17,65,-26,90,-2
6340,-250,-19,68,-26,91,-2
6345,-250,-19,65,-26,93,-1
6350,-253,-18,67,-26,93,-2
6355,-253,-15,65,-24,92,-1
6360,-254,-17,68,-25,93,-1
6365,-251,-18,66,-26,95,-1
6370,-251,-15,65,-26,93,-2
6375,-252,-19,65,-29,93,0
6380,-254,-15,62,-30,96,0
6385,-252,-18,63,-31,96,0
6390,-254,-19,62,-33,97,0
6395,-252,-18,64,-35,96,1
6400,-252,-19,66,-37,96,0
6405,-254,-17,62,-39,96,-1
6410,-252,-17,64,-39,95,-1
6415,-253,-17,68,-39,93,0
6420,-251,-16,64,-38,92,-1
6425,-254,-15,65,-37,90,-1
6430,-251,-17,66,-35,90,-2
6435,-253,-19,63,-30,88,-3
6440,-252,-12,59,-28,89,-4
6445,-250,-19,66,-25,89,-5
6450,-251,-20,64,-22,88,-5
6455,-250,-20,62,-19,87,-3
6460,-250,-19,66,-17,88,-5
6465,-251,-19,64,-13,90,-5
6470,-254,-21,63,-10,90,-4
6475,-252,-18,62,-6,91,-2
6480,-254,-19,64,-4,92,-4
6485,-251,-19,67,-4,93,-3
6490,-251,-17,62,-3,94,-3
6495,-253,-20,63,-4,93,-4
6500,-252,-17,65,-5,93,-3
6505,-252,-17,64,-6,91,-1
6510,-254,-18,58,-8,88,-3
6515,-249,-20,67,-8,86,-1
6520,-250,-19,65,-11,83,-1
6525,-253,-18,64,-10,81,0
6530,-252,-18,63,-10,79,0
6535,-253,-20,64,-11,78,1
6540,-249,-19,64,-11,76,0
6545,-252,-21,68,-8,76,1
6550,-247,-12,76,-6,78,0
6555,-252,-18,65,0,78,0
6560,-252,-21,61,2,78,-2
6565,-250,-19,62,9,77,-1
6570,-254,-20,59,16,75,-3
6575,-251,-19,60,24,74,-3
6580,-256,-22,62,32,71,-4
6585,-254,-22,65,40,65,-5
6590,-253,-23,56,49,57,-5
6595,-253,-21,63,56,46,-3
6600,-261,-21,58,63,38,-3
6605,-256,-24,61,72,28,-2
6610,-260,-22,60,81,18,1
6615,-257,-27,62,89,10,5
6620,-259,-23,62,98,2,8
6625,-259,-25,61,105,-2,11
6630,-257,-26,63,113,-2,12
6635,-258,-24,60,117,0,16
6640,-259,-25,60,123,7,16
6645,-260,-23,65,124,15,20
6650,-256,-25,65,125,27,20
6655,-255,-22,66,122,41,21
6660,-252,-17,72,117,54,18
6665,-252,-20,67,112,71,17
6670,-253,-14,69,106,84,14
6675,-253,-15,70,98,97,9
6680,-255,-11,70,86,100,3
6685,-251,-11,69,82,99,0
6690,-255,-6,69,77,92,-5
6695,-252,-8,70,77,82,-7
6700,-253,-9,66,74,70,-10
6705,-252,-5,66,73,59,-10
6710,-250,-9,63,71,50,-14
6715,-249,-8,62,75,44,-15
6720,-247,-7,70,79,42,-17
6725,-251,-5,69,82,44,-17
6730,-251,-9,65,81,49,-19
6735,-250,-7,65,77,56,-16
6740,-250,-8,70,71,65,-17
6745,-254,-8,67,62,71,-16
6750,-249,-11,65,54,77,-16
6755,-253,-13,67,46,81,-15
6760,-251,-14,68,36,85,-13
6765,-262,-23,72,25,85,-12
6770,-257,-16,65,13,87,-11
6775,-257,-14,62,-3,91,-11
6780,-258,-14,66,-20,96,-12
6785,-260,-13,63,-41,102,-13
6790,-261,-15,65,-64,115,-17
6795,-260,-15,64,-93,124,-20
6800,-261,-15,66,-119,135,-27
6805,-261,-12,63,-142,147,-33
6810,-260,-12,65,-166,157,-43
6815,-258,-15,62,-189,166,-47
6820,-261,-12,61,-206,173,-54
6825,-264,-12,66,-221,174,-58
6830,-259,-13,64,-230,171,-62
6835,-261,-12,63,-237,160,-63
6840,-259,-14,62,-239,149,-65
6845,-259,-13,59,-235,125,-66
6850,-261,-12,52,-225,99,-69
6855,-261,-12,51,-208,71,-67
6860,-261,-11,46,-185,41,-67
6865,-258,-14,43,-161,13,-62
6870,-255,-13,43,-136,-13,-59
6875,-256,-13,56,-112,-37,-57
6880,-247,-11,45,-91,-58,-58
6885,-247,-9,44,-74,-73,-57
6890,-246,-8,44,-64,-79,-59
6895,-246,-11,46,-56,-81,-60
6900,-245,-11,51,-52,-82,-61
6905,-246,-13,55,-46,-89,-59
6910,-246,-17,53,-38,-105,-61
6915,-250,-17,58,-26,-129,-58
6920,-250,-19,60,-7,-154,-59
6925,-251,-23,62,13,-183,-55
6930,-254,-22,60,32,-206,-53
6935,-253,-23,64,47,-226,-47
6940,-258,-23,66,55,-242,-44
6945,-255,-21,65,55,-249,-40
6950,-259,-20,66,45,-243,-38
6955,-254,-20,68,32,-224,-38
6960,-256,-19,70,15,-193,-41
6965,-260,-21,73,-3,-169,-44
6970,-258,-23,72,-11,-157,-49
6975,-259,-23,70,-14,-153,-50
6980,-258,-21,71,-11,-160,-53
6985,-259,-27,69,-5,-168,-54
6990,-260,-26,74,4,-175,-56
6995,-258,-22,75,13,-179,-54
7000,-258,-21,73,17,-178,-56
7005,-255,-22,74,16,-171,-53
7010,-253,-22,75,14,-158,-53
7015,-254,-19,72,9,-136,-51
7020,-253,-19,76,1,-109,-52
7025,-250,-19,75,-6,-88,-52
7030,-247,-17,76,-10,-71,-56
7035,-250,-15,80,-12,-63,-56
7040,-245,-16,77,-11,-63,-60
7045,-242,-17,78,-10,-66,-61
7050,-240,-17,78,-6,-73,-67
7055,-240,-15,76,-5,-77,-71
7060,-238,-13,76,-7,-77,-80
7065,-237,-17,75,-9,-72,-84
7070,-240,-16,78,-12,-64,-92
7075,-241,-14,75,-18,-57,-102
7080,-240,-12,75,-31,-49,-114
7085,-240,-13,76,-45,-44,-122
7090,-242,-16,77,-60,-46,-133
7095,-243,-15,74,-79,-49,-140
7100,-244,-18,76,-98,-55,-149
7105,-246,-18,79,-115,-59,-152
7110,-246,-18,81,-130,-54,-159
7115,-244,-21,80,-139,-44,-165
7120,-246,-23,79,-144,-27,-175
7125,-246,-20,77,-146,-6,-183
7130,-249,-18,80,-144,16,-195
7135,-249,-21,81,-139,34,-203
7140,-252,-19,78,-132,39,-213
7145,-250,-21,74,-126,36,-218
7150,-254,-16,72,-128,29,-225
7155,-255,-14,66,-132,20,-227
7160,-250,-16,68,-143,14,-237
7165,-252,-16,67,-155,15,-242
7170,-254,-11,67,-167,18,-252
7175,-256,-12,69,-179,24,-260
7180,-254,-13,71,-192,33,-268
7185,-253,-9,74,-207,40,-276
7190,-252,-13,75,-224,51,-284
7195,-249,-10,72,-250,65,-287
7200,-252,-25,78,-270,82,-295
7205,-247,-12,74,-291,99,-299
7210,-247,-18,75,-303,114,-307
7215,-250,-18,77,-311,127,-309
7220,-252,-19,78,-316,133,-313
7225,-254,-19,78,-321,129,-311
7230,-253,-25,81,-318,114,-312
7235,-253,-24,77,-310,89,-304
7240,-254,-27,82,-302,60,-298
7245,-253,-26,82,-295,33,-287
7250,-246,-29,82,-293,20,-280
7255,-243,-32,84,-290,25,-271
7260,-244,-33,81,-283,40,-269
7265,-243,-39,81,-276,57,-263
7270,-245,-36,81,-273,70,-261
7275,-243,-42,86,-269,81,-256
7280,-244,-45,83,-267,92,-254
7285,-242,-42,85,-263,101,-250
7290,-240,-46,81,-262,110,-251
7295,-241,-49,77,-263,113,-251
7300,-242,-49,81,-267,120,-257
7305,-241,-50,79,-269,130,-259
7310,-239,-49,72,-275,142,-264
7315,-239,-50,82,-276,159,-265
7320,-240,-48,79,-275,177,-272
7325,-238,-50,77,-269,194,-278
7330,-242,-50,80,-263,201,-286
7335,-244,-47,75,-256,201,-292
7340,-242,-45,75,-251,200,-299
7345,-243,-45,75,-247,203,-302
7350,-240,-45,72,-248,210,-309
7355,-243,-41,73,-252,220,-313
7360,-243,-42,72,-256,228,-322
7365,-245,-40,64,-258,224,-326
7370,-245,-38,67,-256,208,-333
7375,-247,-37,74,-254,184,-331
7380,-248,-38,70,-256,159,-332
7385,-247,-35,69,-262,140,-323
7390,-242,-30,72,-271,128,-318
7395,-246,-27,73,-281,122,-314
7400,-246,-28,66,-291,118,-315
7405,-247,-28,71,-305,117,-317
7410,-246,-28,65,-324,120,-324
7415,-248,-32,61,-348,120,-327
7420,-247,-33,52,-377,128,-333
7425,-247,-35,62,-407,136,-332
7430,-248,-38,62,-435,141,-335
7435,-253,-42,64,-461,138,-329
7440,-249,-47,65,-483,135,-328
7445,-248,-47,69,-505,128,-322
7450,-246,-52,68,-528,128,-317
7455,-248,-56,66,-557,133,-305
7460,-245,-59,66,-586,145,-302
7465,-247,-63,62,-612,158,-296
7470,-244,-66,66,-631,170,-301
7475,-246,-67,60,-637,180,-305
7480,-244,-71,60,-630,186,-312
7485,-241,-79,59,-610,195,-313
7490,-241,-78,66,-575,204,-317
7495,-236,-80,67,-534,209,-313
7500,-237,-80,66,-489,209,-312
7505,-231,-83,69,-445,200,-305
7510,-234,-81,65,-403,182,-302
7515,-232,-79,68,-370,161,-292
7520,-233,-82,64,-347,140,-286
7525,-235,-83,65,-328,120,-276
7530,-225,-85,61,-309,99,-273
7535,-235,-85,64,-287,69,-273
7540,-235,-85,59,-273,48,-280
7545,-231,-88,56,-262,37,-286
7550,-232,-83,58,-257,38,-299
7555,-237,-84,58,-255,48,-309
7560,-234,-82,58,-256,67,-325
7565,-237,-79,55,-257,89,-335
7570,-240,-79,62,-259,120,-347
7575,-238,-72,61,-262,155,-347
7580,-237,-76,65,-268,189,-350
7585,-239,-76,63,-270,219,-346
7590,-241,-74,64,-271,248,-347
7595,-235,-73,61,-275,269,-338
7600,-233,-70,66,-284,286,-337
7605,-236,-71,62,-294,305,-330
7610,-233,-69,60,-303,322,-330
7615,-234,-72,63,-309,328,-331
7620,-234,-70,66,-311,319,-337
7625,-232,-72,65,-308,293,-337
7630,-230,-71,63,-307,258,-341
7635,-228,-73,64,-304,225,-339
7640,-224,-72,65,-300,193,-345
7645,-226,-76,66,-297,162,-350
7650,-225,-74,68,-292,144,-359
7655,-227,-76,64,-288,132,-366
7660,-230,-75,63,-287,120,-376
7665,-233,-83,63,-281,108,-382
7670,-235,-82,62,-275,93,-395
7675,-234,-85,65,-268,76,-403
7680,-237,-84,62,-257,59,-419
7685,-245,-87,60,-247,42,-434
7690,-244,-91,61,-234,25,-453
7695,-247,-89,58,-219,6,-465
7700,-248,-89,60,-206,-14,-480
7705,-248,-92,61,-191,-32,-486
7710,-243,-90,60,-179,-38,-496
7715,-242,-88,60,-170,-37,-498
7720,-238,-90,61,-162,-32,-505
7725,-238,-91,58,-162,-26,-506
7730,-233,-94,58,-163,-23,-512
7735,-231,-99,57,-166,-28,-510
7740,-230,-100,53,-167,-39,-509
7745,-221,-97,47,-171,-48,-503
7750,-225,-103,59,-175,-54,-495
7755,-220,-107,54,-178,-61,-481
7760,-219,-109,58,-180,-73,-469
7765,-209,-112,55,-176,-79,-456
7770,-210,-110,60,-176,-76,-451
7775,-206,-112,56,-173,-66,-445
7780,-204,-113,52,-167,-57,-445
7785,-203,-119,55,-157,-49,-443
7790,-202,-116,58,-140,-48,-448
7795,-201,-117,50,-120,-51,-451
7800,-202,-114,51,-100,-51,-458
7805,-201,-114,56,-79,-45,-456
7810,-203,-110,54,-59,-31,-460
7815,-200,-114,55,-47,-11,-457
7820,-203,-110,60,-39,21,-455
7825,-206,-106,60,-40,53,-449
7830,-207,-104,63,-46,82,-445
7835,-210,-106,58,-57,106,-433
7840,-209,-105,58,-70,126,-424
7845,-213,-104,60,-86,149,-412
7850,-212,-102,61,-103,176,-408
7855,-213,-93,56,-115,203,-406
7860,-214,-106,57,-124,223,-413
7865,-216,-105,54,-127,236,-415
7870,-217,-106,57,-126,241,-425
7875,-218,-107,60,-124,240,-431
7880,-220,-104,60,-126,233,-441
7885,-221,-109,58,-136,223,-443
7890,-226,-106,58,-154,212,-448
7895,-225,-106,56,-173,201,-448
7900,-230,-106,55,-191,188,-452
7905,-231,-109,54,-207,174,-449
7910,-231,-113,55,-218,161,-447
7915,-233,-117,57,-223,145,-436
7920,-228,-119,52,-227,128,-429
7925,-229,-120,56,-226,117,-417
7930,-225,-121,51,-226,112,-410
7935,-221,-127,52,-224,113,-403
7940,-221,-126,55,-223,118,-406
7945,-216,-128,52,-226,131,-409
7950,-214,-135,50,-231,151,-423
7955,-214,-138,46,-235,176,-434
7960,-216,-135,42,-238,202,-451
7965,-211,-140,35,-236,223,-465
7970,-217,-146,37,-235,238,-485
7975,-217,-146,32,-229,252,-497
7980,-219,-147,39,-217,265,-515
7985,-220,-149,38,-200,275,-530
7990,-220,-145,35,-175,277,-542
7995,-223,-149,38,-152,274,-548
8000,-222,-150,36,-127,264,-556
8005,-226,-145,36,-106,247,-554
8010,-224,-145,37,-87,230,-555
8015,-224,-142,36,-74,216,-552
8020,-222,-138,36,-64,206,-553
8025,-221,-141,37,-57,200,-551
8030,-218,-134,35,-60,198,-555
8035,-222,-130,36,-76,196,-554
8040,-219,-129,34,-102,201,-560
8045,-218,-129,27,-135,212,-563
8050,-219,-131,26,-181,223,-573
8055,-222,-131,25,-217,238,-583
8060,-222,-132,21,-252,250,-599
8065,-221,-138,15,-286,261,-612
8070,-219,-143,18,-316,264,-631
8075,-212,-149,17,-339,261,-645
8080,-216,-153,10,-359,258,-662
8085,-218,-151,11,-370,254,-672
8090,-216,-150,16,-373,251,-685
8095,-213,-153,15,-366,240,-693
8100,-210,-154,20,-351,221,-707
8105,-209,-156,17,-320,183,-709
8110,-212,-151,22,-291,140,-710
8115,-208,-154,23,-260,93,-705
8120,-208,-153,23,-231,45,-704
8125,-203,-149,27,-199,5,-698
8130,-209,-148,26,-166,-30,-699
8135,-206,-152,27,-136,-55,-687
8140,-207,-151,28,-112,-70,-677
8145,-207,-150,26,-94,-71,-667
8150,-208,-150,30,-93,-59,-660
8155,-210,-149,28,-98,-37,-648
8160,-208,-148,33,-110,-7,-637
8165,-208,-152,33,-134,15,-624
8170,-207,-153,32,-163,38,-617
8175,-207,-153,33,-194,56,-606
8180,-199,-149,28,-221,69,-600
8185,-206,-160,27,-243,75,-593
8190,-206,-160,31,-256,77,-594
8195,-201,-163,28,-261,71,-591
8200,-203,-167,29,-255,57,-595
8205,-205,-167,28,-242,41,-596
8210,-207,-167,31,-224,27,-602
8215,-208,-167,30,-202,15,-606
8220,-208,-168,36,-176,8,-613
8225,-208,-170,34,-159,6,-618
8230,-209,-168,34,-146,12,-628
8235,-200,-172,38,-141,22,-634
8240,-206,-171,33,-141,29,-645
8245,-206,-169,34,-142,33,-649
8250,-203,-169,32,-144,30,-656
8255,-204,-170,30,-143,17,-658
8260,-201,-171,32,-141,-2,-663
8265,-199,-169,31,-136,-23,-666
8270,-197,-166,30,-130,-43,-673
8275,-191,-163,33,-124,-57,-676
8280,-193,-158,33,-123,-62,-683
8285,-193,-156,35,-131,-60,-686
8290,-174,-146,34,-145,-59,-693
8295,-192,-159,37,-165,-57,-698
8300,-185,-162,37,-188,-55,-708
8305,-186,-165,34,-217,-52,-715
8310,-188,-169,35,-247,-48,-728
8315,-185,-175,34,-281,-37,-736
8320,-184,-181,33,-315,-19,-750
8325,-184,-184,33,-343,2,-759
8330,-180,-192,38,-366,28,-772
8335,-184,-194,34,-381,57,-780
8340,-184,-196,36,-381,85,-792
8345,-179,-195,37,-377,105,-800
8350,-181,-196,35,-364,122,-814
8355,-180,-196,32,-343,132,-827
8360,-178,-198,39,-318,138,-847
8365,-176,-196,31,-286,147,-862
8370,-176,-194,34,-250,155,-881
8375,-173,-191,31,-216,163,-898
8380,-170,-193,36,-183,162,-920
8385,-165,-190,30,-156,155,-934
8390,-165,-188,30,-137,139,-955
8395,-162,-185,31,-119,128,-965
8400,-157,-194,27,-107,120,-977
8405,-155,-189,34,-93,118,-983
8410,-154,-191,40,-79,121,-990
8415,-154,-192,41,-61,123,-990
8420,-153,-194,41,-35,122,-995
8425,-149,-197,44,-6,120,-995
8430,-151,-199,48,31,123,-997
8435,-148,-199,52,71,130,-995
8440,-146,-201,50,116,142,-997
8445,-146,-201,49,162,152,-996
8450,-144,-205,51,215,153,-1001
8455,-145,-203,52,257,139,-999
8460,-144,-205,46,289,120,-999
8465,-143,-202,42,314,97,-993
8470,-145,-201,39,330,77,-990
8475,-142,-201,41,339,60,-983
8480,-140,-201,39,344,46,-980
8485,-138,-205,36,346,38,-971
8490,-138,-206,32,343,32,-967
8495,-143,-206,34,341,26,-958
8500,-140,-205,34,342,22,-952
8505,-138,-207,34,349,24,-938
8510,-143,-201,39,369,30,-927
8515,-136,-204,35,387,36,-912
8520,-133,-208,36,410,43,-899
8525,-133,-203,37,430,51,-882
8530,-132,-207,31,447,58,-868
8535,-129,-206,26,456,68,-853
8540,-129,-205,30,452,80,-843
8545,-123,-206,28,437,95,-831
8550,-120,-206,29,411,112,-824
8555,-120,-207,29,373,131,-813
8560,-117,-207,26,327,154,-807
8565,-117,-211,30,266,180,-801
8570,-113,-213,29,211,199,-797
8575,-114,-215,25,156,212,-791
8580,-115,-218,25,102,219,-787
8585,-118,-221,22,49,222,-779
8590,-117,-220,25,0,222,-773
8595,-115,-226,24,-42,223,-761
8600,-116,-228,26,-78,225,-755
8605,-112,-232,26,-107,227,-743
8610,-114,-233,29,-124,232,-739
8615,-116,-233,30,-133,231,-729
8620,-115,-240,36,-130,224,-722
8625,-113,-245,39,-113,212,-715
8630,-111,-244,33,-91,195,-709
8635,-109,-246,39,-65,177,-699
8640,-109,-242,38,-36,159,-695
8645,-106,-241,36,-8,141,-684
8650,-101,-239,37,17,121,-680
8655,-100,-239,35,37,99,-672
8660,-99,-238,29,57,71,-670
8665,-95,-232,34,71,37,-663
8670,-92,-234,34,81,-1,-662
8675,-92,-228,34,85,-42,-653
8680,-88,-230,35,84,-92,-649
8685,-88,-227,36,82,-129,-641
8690,-85,-225,38,78,-160,-636
8695,-83,-224,35,72,-182,-626
8700,-80,-224,36,65,-199,-621
8705,-85,-223,39,56,-208,-614
8710,-79,-224,39,47,-214,-607
8715,-79,-226,39,37,-222,-601
8720,-82,-221,41,29,-235,-603
8725,-88,-231,38,23,-247,-603
8730,-79,-224,41,12,-260,-607
8735,-80,-226,39,3,-272,-610
8740,-81,-226,38,-10,-279,-617
8745,-79,-228,37,-21,-288,-622
8750,-78,-232,40,-31,-295,-631
8755,-80,-230,38,-42,-301,-639
8760,-79,-232,40,-51,-303,-652
8765,-78,-234,45,-62,-298,-663
8770,-79,-237,39,-69,-291,-677
8775,-75,-242,38,-75,-280,-681
8780,-78,-242,41,-79,-276,-700
8785,-78,-242,39,-85,-274,-712
8790,-77,-246,34,-91,-278,-724
8795,-73,-246,33,-100,-283,-731
8800,-72,-248,30,-106,-286,-737
8805,-72,-248,25,-116,-287,-739
8810,-69,-251,28,-123,-286,-738
8815,-68,-249,27,-130,-288,-736
8820,-68,-250,27,-137,-287,-740
8825,-64,-249,28,-143,-289,-737
8830,-59,-252,27,-142,-285,-731
8835,-61,-262,38,-138,-280,-725
8840,-55,-253,33,-131,-273,-728
8845,-54,-251,30,-121,-263,-718
8850,-47,-251,39,-108,-248,-716
8855,-45,-253,41,-87,-236,-710
8860,-41,-251,42,-65,-220,-700
8865,-41,-249,46,-41,-203,-690
8870,-38,-249,42,-16,-188,-683
8875,-36,-248,46,9,-171,-673
8880,-36,-246,42,37,-160,-658
8885,-35,-247,45,61,-155,-650
8890,-32,-248,43,85,-152,-641
8895,-36,-245,47,103,-151,-635
8900,-34,-244,46,118,-148,-631
8905,-37,-245,44,131,-143,-623
8910,-38,-245,43,138,-134,-618
8915,-35,-244,48,139,-122,-612
8920,-35,-245,46,137,-106,-612
8925,-38,-242,44,130,-80,-605
8930,-35,-242,49,113,-53,-604
8935,-39,-242,49,91,-23,-603
8940,-34,-241,45,67,9,-601
8945,-39,-244,36,39,41,-597
8950,-31,-246,44,7,73,-593
8955,-29,-247,48,-24,103,-581
8960,-28,-251,42,-56,129,-575
8965,-26,-251,46,-85,156,-565
8970,-23,-255,42,-112,173,-556
8975,-16,-258,40,-128,189,-545
8980,-20,-255,47,-139,201,-541
8985,-16,-259,46,-140,209,-540
8990,-14,-258,45,-132,215,-538
8995,-14,-257,48,-118,214,-534
9000,-5,-258,47,-101,209,-536
9005,-3,-258,48,-80,198,-537
9010,-6,-257,51,-59,186,-540
9015,-6,-255,49,-36,175,-541
9020,-3,-254,50,-15,163,-545
9025,3,-256,53,7,152,-547
9030,0,-251,50,22,146,-551
9035,2,-249,50,34,141,-552
9040,-1,-250,52,42,143,-552
9045,8,-250,51,48,145,-551
9050,7,-248,50,50,147,-554
9055,6,-240,42,50,152,-553
9060,9,-248,50,48,157,-553
9065,10,-246,49,44,160,-551
9070,11,-249,52,39,160,-554
9075,9,-249,51,33,159,-551
9080,12,-251,55,29,153,-550
9085,10,-249,56,21,151,-549
9090,13,-249,55,18,151,-543
9095,16,-250,58,15,152,-536
9100,21,-254,60,13,158,-530
9105,22,-251,55,12,167,-524
9110,23,-252,52,10,181,-513
9115,25,-252,53,3,195,-501
9120,27,-252,56,-4,209,-494
9125,28,-254,51,-10,220,-484
9130,34,-252,57,-15,230,-473
9135,38,-254,57,-19,241,-467
9140,40,-253,56,-22,258,-465
9145,40,-251,58,-20,270,-465
9150,44,-256,55,-19,282,-466
9155,43,-253,56,-18,288,-462
9160,46,-254,61,-20,294,-459
9165,45,-253,60,-26,297,-450
9170,45,-255,61,-37,301,-441
9175,42,-253,60,-49,304,-435
9180,40,-255,60,-68,304,-428
9185,34,-248,64,-87,303,-412
9190,38,-251,59,-105,296,-394
9195,33,-247,62,-125,276,-385
9200,29,-242,56,-150,256,-376
9205,23,-243,52,-171,232,-364
9210,21,-242,53,-191,203,-345
9215,16,-243,49,-211,174,-332
9220,12,-241,49,-226,138,-324
9225,3,-238,43,-242,99,-310
9230,-2,-234,46,-259,57,-298
9235,-3,-235,41,-277,19,-280
9240,-8,-236,43,-292,-13,-268
9245,-13,-232,47,-304,-35,-250
9250,-16,-233,43,-314,-50,-233
9255,-18,-237,52,-322,-53,-220
9260,-17,-243,52,-323,-53,-207
9265,-20,-240,53,-317,-50,-198
9270,-16,-242,54,-309,-45,-191
9275,-17,-245,53,-296,-34,-187
9280,-19,-248,54,-280,-18,-180
9285,-14,-252,53,-260,3,-163
9290,-15,-253,57,-236,21,-165
9295,-14,-252,57,-211,36,-169
9300,-13,-252,56,-185,49,-177
9305,-5,-252,59,-160,55,-178
9310,-7,-253,53,-131,56,-177
9315,-2,-248,52,-110,54,-177
9320,1,-248,47,-92,49,-179
9325,7,-248,50,-80,43,-180
9330,4,-242,42,-76,34,-184
9335,5,-244,37,-81,27,-188
9340,11,-247,36,-90,19,-190
9345,10,-244,34,-108,9,-194
9350,11,-245,36,-124,1,-200
9355,9,-246,30,-145,-11,-202
9360,12,-249,37,-163,-22,-198
9365,10,-251,38,-179,-32,-199
9370,9,-252,37,-193,-38,-200
9375,9,-253,35,-201,-43,-197
9380,9,-250,32,-202,-46,-191
9385,8,-253,31,-200,-48,-184
9390,6,-252,31,-198,-52,-174
9395,4,-252,32,-194,-50,-164
9400,3,-254,29,-189,-44,-152
9405,3,-254,28,-183,-35,-140
9410,0,-257,27,-175,-20,-129
9415,1,-257,25,-166,-2,-120
9420,-4,-254,29,-153,19,-109
9425,-3,-260,26,-137,42,-105
9430,1,-258,29,-119,63,-100
9435,5,-259,32,-101,84,-97
9440,4,-256,35,-81,104,-95
9445,6,-252,38,-57,121,-94
9450,8,-252,34,-34,136,-97
9455,11,-253,34,-12,144,-101
9460,2,-246,31,7,149,-105
9465,19,-249,31,23,154,-96
9470,20,-244,31,36,150,-111
9475,21,-245,31,36,145,-121
9480,28,-246,32,32,145,-127
9485,29,-245,31,18,139,-132
9490,40,-232,27,5,132,-136
9495,33,-243,28,-17,124,-141
9500,31,-241,23,-42,118,-145
9505,38,-244,20,-70,115,-144
9510,38,-243,17,-98,107,-148
9515,42,-244,21,-125,102,-145
9520,41,-247,17,-147,98,-149
9525,38,-248,18,-167,94,-149
9530,36,-247,24,-184,96,-142
9535,39,-249,19,-193,96,-130
9540,39,-253,17,-201,92,-124
9545,38,-256,19,-203,92,-118
9550,37,-258,21,-197,91,-107
9555,34,-259,21,-188,94,-99
9560,31,-258,27,-174,100,-92
9565,29,-260,26,-160,110,-85
9570,27,-258,27,-141,118,-79
9575,27,-261,30,-122,125,-73
9580,25,-261,29,-97,134,-66
9585,27,-260,34,-70,144,-58
9590,22,-263,31,-42,155,-55
9595,29,-263,30,-20,164,-52
9600,20,-259,26,0,167,-48
9605,21,-256,25,10,165,-44
9610,21,-255,25,15,157,-39
9615,22,-250,26,14,144,-34
9620,18,-252,27,9,132,-26
9625,15,-248,24,1,119,-19
9630,17,-247,23,-9,107,-11
9635,18,-248,25,-17,96,-3
9640,15,-247,20,-27,85,5
9645,16,-249,22,-35,76,13
9650,17,-252,22,-47,72,22
9655,16,-248,22,-58,65,27
9660,16,-250,21,-63,63,36
9665,19,-247,24,-68,59,41
9670,20,-252,25,-68,55,48
9675,20,-251,28,-63,53,52
9680,20,-254,26,-57,52,57
9685,20,-255,28,-44,54,61
9690,23,-253,29,-31,55,64
9695,22,-255,31,-17,58,66
9700,21,-254,35,-4,60,67
9705,23,-257,33,5,65,64
9710,20,-255,31,16,67,62
9715,20,-256,30,21,68,60
9720,18,-254,33,25,68,58
9725,20,-254,32,26,66,56
9730,18,-254,27,25,64,55
9735,19,-256,26,20,63,53
9740,22,-255,25,12,63,53
9745,21,-252,22,2,61,50
9750,20,-253,24,-8,60,50
9755,18,-251,26,-18,59,48
9760,20,-253,25,-23,57,50
9765,24,-256,29,-25,55,53
9770,22,-256,26,-22,53,58
9775,23,-256,33,-14,57,62
9780,27,-256,30,-3,61,68
9785,25,-257,32,10,66,68
9790,23,-258,33,25,69,73
9795,23,-256,33,41,73,77
9800,23,-255,30,58,76,80
9805,21,-254,36,69,78,82
9810,23,-253,38,79,80,86
9815,24,-266,56,88,80,87
9820,21,-252,34,93,79,87
9825,22,-251,34,96,80,86
9830,19,-249,33,93,80,89
9835,20,-248,35,87,78,87
9840,18,-246,31,78,77,87
9845,19,-247,30,66,76,85
9850,18,-247,32,55,75,85
9855,17,-249,29,45,74,86
9860,18,-250,29,35,71,90
9865,19,-248,32,28,70,89
9870,18,-250,31,22,68,90
9875,16,-252,31,21,69,90
9880,17,-251,34,22,70,94
9885,15,-249,28,25,72,94
9890,17,-249,33,31,75,96
9895,13,-248,39,38,75,95
9900,15,-250,31,44,74,98
9905,19,-251,32,50,72,98
9910,14,-251,32,59,71,99
9915,15,-252,35,66,70,99
9920,15,-253,33,71,69,100
9925,23,-246,32,72,68,97
9930,14,-247,32,72,69,96
9935,15,-250,33,71,72,94
9940,14,-252,36,67,72,96
9945,13,-253,36,64,73,94
9950,12,-251,30,61,73,96
9955,11,-251,31,56,72,95
9960,9,-253,35,52,71,96
9965,12,-253,33,51,69,95
9970,11,-254,37,50,67,95
9975,8,-253,34,46,64,94
9980,9,-253,32,49,62,96
9985,8,-252,32,49,61,94
9990,6,-252,34,51,62,93
9995,7,-253,36,54,61,90
10000,8,-254,32,58,61,92
10005,8,-254,35,62,62,87
10010,6,-252,36,64,61,87
10015,6,-250,36,67,59,83
10020,5,-252,35,71,59,84
10025,5,-253,35,75,60,82
10030,3,-255,45,74,62,81
10035,6,-250,29,71,65,76
10040,7,-252,34,69,69,72
10045,9,-251,37,66,72,67
10050,7,-252,35,64,74,64
10055,8,-250,35,64,76,59
10060,6,-250,37,62,77,57
10065,7,-250,39,62,78,54
10070,5,-254,36,60,79,53
10075,7,-252,36,59,80,49
10080,7,-251,34,60,78,48
10085,6,-253,36,58,76,45
10090,10,-251,35,56,73,46
10095,6,-251,36,53,70,42
10100,4,-248,36,51,71,42
10105,5,-250,37,50,69,41
10110,7,-252,37,48,68,42
10115,4,-250,38,49,69,39
10120,7,-251,40,47,69,42
10125,8,-251,40,47,69,39
10130,7,-251,39,48,68,41
10135,7,-250,37,49,68,39
10140,7,-252,33,50,67,41
10145,7,-251,39,51,67,39
10150,9,-250,40,50,68,39
10155,9,-248,40,48,68,36
10160,7,-251,38,49,68,36
10165,7,-250,39,47,68,33
10170,6,-249,39,43,67,34
10175,7,-250,40,40,67,28
10180,9,-250,37,38,68,28
10185,7,-247,38,33,70,25
10190,7,-250,39,30,71,27
10195,9,-248,39,28,71,22
10200,3,-249,39,27,73,21
10205,12,-255,39,28,74,17
10210,8,-250,39,26,74,18
10215,9,-253,40,27,72,15
10220,6,-248,40,26,72,15
10225,7,-252,43,24,68,12
10230,8,-248,42,22,65,14
10235,9,-251,43,21,63,12
10240,4,-248,37,22,60,16
10245,7,-247,44,23,58,14
10250,3,-256,49,24,58,15
10255,7,-248,39,22,59,13
10260,7,-248,39,23,60,15
10265,10,-250,40,21,61,13
10270,9,-251,42,20,61,15
10275,8,-249,40,21,61,12
10280,8,-250,41,21,62,15
10285,7,-249,40,20,63,10
10290,9,-248,38,21,66,11
10295,8,-247,41,21,67,8
10300,9,-251,40,21,67,9
10305,8,-250,40,21,67,5
10310,8,-250,38,22,68,6
10315,7,-251,40,22,68,5
10320,7,-250,41,23,68,6
10325,5,-250,40,24,67,4
10330,6,-250,39,23,68,4
10335,6,-249,44,21,68,2
10340,2,-249,41,19,65,3
10345,4,-250,41,16,65,1
10350,8,-249,45,16,63,3
10355,5,-250,42,15,64,1
10360,7,-241,32,14,61,2
10365,5,-251,42,14,61,1
10370,9,-251,44,15,59,3
10375,5,-248,43,13,58,2
10380,5,-252,41,12,56,4
10385,6,-253,43,14,55,1
10390,8,-250,40,15,53,4
10395,6,-249,44,14,54,1
10400,5,-250,44,15,55,4
10405,6,-244,38,13,55,2
10410,8,-250,41,12,55,4
10415,9,-250,39,13,58,2
10420,8,-251,44,12,60,5
10425,8,-253,40,12,63,2
10430,7,-249,43,14,66,4
10435,9,-248,44,15,67,4
10440,7,-250,41,18,69,5
10445,9,-250,41,19,70,1
10450,8,-250,43,21,71,3
10455,8,-248,47,21,71,1
10460,7,-248,46,20,70,3
10465,9,-248,41,20,68,0
10470,6,-250,46,18,70,3
10475,7,-249,42,17,67,0
10480,6,-248,45,15,65,4
10485,5,-247,43,14,62,1
10490,7,-249,43,13,59,4
10495,7,-245,43,13,56,2
10500,7,-251,41,12,59,3
10505,8,-249,40,11,58,1
10510,8,-250,40,12,57,4
10515,8,-250,44,11,57,3
10520,6,-251,41,12,58,6
10525,7,-252,45,14,60,5
10530,8,-252,40,15,61,7
10535,4,-250,40,17,62,5
10540,9,-251,41,19,63,7
10545,5,-251,42,20,63,4
10550,5,-250,39,21,61,8
10555,6,-249,40,21,60,6
10560,8,-251,42,21,61,7
10565,7,-249,40,20,58,6
10570,7,-249,43,18,59,7
10575,13,-250,45,18,60,3
10580,5,-248,39,17,63,7
10585,7,-247,41,17,64,4
10590,7,-249,43,17,63,8
10595,7,-250,41,17,65,4
10600,7,-248,41,16,66,8
10605,5,-249,42,16,66,6
10610,7,-249,42,18,68,8
10615,5,-248,46,18,67,5
10620,5,-248,46,21,67,9
10625,5,-248,39,21,68,6
10630,7,-251,46,21,66,8
10635,7,-250,45,21,66,6
10640,5,-251,46,21,64,7
10645,6,-250,42,20,63,6
10650,8,-250,46,21,64,6
10655,5,-249,50,21,65,4
10660,6,-247,44,23,65,7
10665,7,-251,41,24,66,3
10670,6,-249,44,24,67,5
10675,7,-247,46,26,69,4
10680,3,-249,44,26,68,7
10685,13,-243,40,29,67,4
10690,8,-249,46,29,66,8
10695,5,-249,44,30,66,6
10700,8,-252,50,29,62,10
10705,7,-248,42,28,61,7
10710,6,-249,44,25,59,10
10715,7,-248,47,23,58,8
10720,7,-249,45,19,58,9
10725,6,-248,47,15,57,7
10730,7,-247,46,14,57,11
10735,6,-246,46,12,57,9
10740,8,-249,47,11,56,11
10745,7,-251,47,13,57,8
10750,9,-252,49,13,57,11
10755,5,-248,48,14,58,7
10760,7,-251,48,17,59,10
10765,4,-250,48,20,61,6
10770,6,-247,45,19,64,9
10775,6,-247,46,18,65,4
10780,7,-248,49,18,65,7
10785,9,-249,43,18,65,3
10790,4,-247,46,18,64,6
10795,5,-249,49,18,64,2
10800,3,-247,47,17,64,4
10805,5,-250,46,15,63,2
10810,6,-248,47,14,63,6
10815,5,-246,46,12,61,4
10820,6,-251,49,12,61,6
10825,5,-247,45,13,60,4
10830,4,-247,46,12,58,7
10835,5,-249,45,14,57,5
10840,5,-248,46,17,58,9
10845,6,-248,44,17,57,6
10850,4,-248,45,19,55,9
10855,7,-250,45,20,56,7
10860,7,-250,46,21,55,9
10865,6,-251,48,23,57,7
10870,5,-248,52,24,57,8
10875,3,-251,44,26,57,4
10880,2,-249,50,26,57,6
10885,4,-247,47,25,58,4
10890,6,-248,47,24,58,5
10895,5,-250,46,23,58,2
10900,8,-249,45,23,60,4
10905,8,-246,42,21,61,1
10910,3,-248,48,20,61,3
10915,10,-249,46,17,64,1
10920,8,-247,49,15,63,3
10925,5,-250,49,13,62,-2
10930,5,-248,48,13,64,0
10935,9,-252,48,10,65,-3
10940,5,-249,46,11,66,-3
10945,5,-249,45,11,66,-5
10950,8,-249,48,11,65,-2
10955,3,-251,48,11,66,-5
10960,7,-249,48,11,65,-2
10965,6,-250,46,13,66,-4
10970,5,-249,49,13,64,-2
10975,4,-247,46,13,63,-4
10980,4,-247,45,12,63,0
10985,6,-248,47,10,61,-2
10990,4,-250,47,12,61,1
10995,9,-249,47,13,60,-2
11000,9,-250,49,13,61,2
11005,7,-246,52,13,62,0
11010,10,-241,37,13,62,3
11015,5,-248,51,14,61,0
11020,7,-247,48,14,61,2
11025,8,-248,47,15,59,-1
11030,5,-251,49,16,60,2
11035,5,-248,50,16,60,0
11040,7,-247,49,16,59,0
11045,4,-246,49,12,58,-3
11050,8,-250,50,11,58,-2
11055,6,-248,48,9,59,-4
11060,6,-250,48,9,59,-3
11065,2,-244,49,7,59,-6
11070,5,-246,53,5,60,-5
11075,6,-249,47,3,61,-6
11080,6,-248,51,2,63,-6
11085,8,-248,48,1,64,-7
11090,1,-247,45,0,67,-5
11095,2,-250,48,1,68,-6
11100,7,-248,48,1,68,-3
11105,3,-247,52,2,69,-5
11110,3,-246,48,3,67,-1
11115,4,-247,50,3,67,-3
11120,8,-246,46,3,67,0
11125,4,-247,46,5,65,-1
11130,5,-249,45,5,64,0
11135,7,-250,50,5,62,0
11140,8,-248,48,4,59,4
11145,5,-246,52,4,59,0
11150,4,-249,50,2,57,2
11155,7,-247,49,-1,56,0
11160,5,-249,51,-2,56,1
11165,7,-249,52,-2,56,-1
11170,7,-247,54,0,54,-2
11175,5,-249,50,1,56,-6
11180,5,-249,51,3,57,-5
11185,4,-250,48,6,58,-9
11190,4,-248,50,8,58,-8
11195,3,-247,50,10,60,-11
11200,6,-250,44,13,61,-9
11205,6,-246,49,16,60,-12
11210,4,-248,50,17,62,-10
11215,4,-249,47,17,62,-11
11220,7,-248,47,15,64,-9
11225,6,-246,47,14,64,-9
11230,7,-248,57,11,64,-6
11235,3,-247,50,8,63,-8
11240,6,-247,53,7,61,-4
11245,7,-249,47,7,61,-6
11250,5,-246,50,9,59,-3
11255,5,-248,47,10,57,-3
11260,5,-246,49,13,54,-1
11265,4,-248,46,14,52,-3
11270,4,-246,51,15,48,-2
11275,6,-248,50,15,46,-2
11280,8,-251,50,15,45,0
11285,8,-248,52,16,44,-3
11290,5,-248,46,17,43,-1
11295,5,-251,46,15,44,-3
11300,5,-247,49,16,46,-2
11305,5,-247,48,16,47,-4
11310,7,-247,52,12,50,-4
11315,3,-247,48,12,54,-6
11320,5,-247,49,11,56,-4
11325,2,-245,52,11,56,-7
11330,4,-249,48,11,60,-6
11335,4,-249,51,12,61,-7
11340,14,-244,50,14,64,-6
11345,3,-248,49,14,63,-8
11350,3,-246,50,17,64,-5
11355,5,-249,52,17,64,-8
11360,5,-249,51,17,63,-5
11365,3,-247,54,18,62,-6
11370,8,-246,53,18,65,-4
11375,5,-246,51,19,64,-4
11380,7,-246,49,19,66,-3
11385,7,-247,47,19,65,-3
11390,7,-251,47,19,66,-1
11395,6,-244,50,18,64,-4
11400,7,-246,46,16,63,-1
11405,5,-244,52,14,62,-3
11410,10,-248,46,13,60,0
11415,6,-247,53,10,58,-1
11420,9,-247,49,9,56,0
11425,5,-248,49,5,56,-1
11430,6,-247,48,2,54,1
11435,9,-249,52,2,53,-1
11440,6,-250,47,3,54,1
11445,5,-248,53,2,57,-1
11450,-2,-246,56,1,57,0
11455,6,-248,53,1,58,-2
11460,6,-246,47,0,60,0
11465,4,-246,47,-1,61,-3
11470,7,-248,50,-1,61,-1
11475,4,-246,53,-1,62,-3
11480,4,-245,54,-4,62,-2
11485,5,-247,49,-5,62,-4
11490,5,-246,53,-7,61,-2
11495,8,-249,53,-8,62,-4
11500,7,-246,53,-7,62,-2
11505,4,-247,53,-9,65,-3
11510,6,-248,52,-8,67,0
11515,4,-248,52,-7,67,-2
11520,6,-247,52,-5,68,0
11525,6,-248,55,-3,69,-2
11530,5,-248,52,-1,68,0
11535,5,-248,50,2,68,-1
11540,1,-245,54,4,66,0
11545,8,-249,50,6,64,-2
11550,4,-248,49,8,61,-1
11555,2,-253,48,9,58,-1
11560,4,-246,52,8,58,0
11565,4,-247,49,8,57,-1
11570,6,-246,48,7,57,2
11575,7,-248,50,3,56,0
11580,8,-248,52,1,56,3
11585,7,-246,51,0,56,1
11590,5,-248,52,-1,58,3
11595,5,-247,56,-2,59,0
11600,5,-246,54,-3,61,2
11605,6,-249,52,-3,64,0
11610,5,-243,55,-3,66,2
11615,7,-247,53,-3,66,-1
11620,7,-248,53,-4,65,-1
11625,7,-248,49,-4,63,-3
11630,6,-246,56,-4,63,-1
11635,6,-247,51,-4,61,-2
11640,6,-249,54,-6,60,-1
11645,8,-246,51,-6,59,-2
11650,3,-248,52,-6,59,-1
11655,7,-248,49,-4,60,-1
11660,4,-246,53,-4,60,-1
11665,7,-247,50,-3,59,-2
11670,6,-248,53,-3,60,0
11675,0,-246,56,-2,62,-3
11680,4,-246,51,-1,62,-2
11685,6,-246,52,0,63,-4
11690,6,-247,53,-1,62,-2
11695,5,-249,56,0,63,-4
11700,6,-249,49,-1,61,-2
11705,3,-244,49,-1,61,-3
11710,2,-245,49,-3,60,-3
11715,3,-244,50,-4,59,-5
11720,3,-247,56,-5,59,-2
11725,3,-247,52,-4,60,-3
11730,5,-248,55,-5,60,-3
11735,4,-247,54,-7,61,-3
11740,7,-248,53,-8,63,-2
11745,6,-247,55,-10,63,-5
11750,6,-249,52,-9,63,-3
11755,6,-246,50,-9,64,-3
11760,2,-247,55,-10,63,-4
11765,3,-247,51,-10,63,-6
11770,3,-245,56,-8,63,-4
11775,6,-241,45,-9,63,-6
11780,6,-246,52,-11,63,-4
11785,7,-249,51,-12,63,-6
11790,4,-246,56,-12,62,-4
11795,6,-245,49,-10,62,-6
11800,3,-247,50,-11,63,-4
11805,6,-248,50,-13,63,-5
11810,6,-246,55,-13,64,-4
11815,7,-248,55,-12,64,-5
11820,6,-247,51,-12,63,-3
11825,5,-246,52,-12,62,-4
11830,7,-246,53,-12,62,-3
11835,6,-248,50,-10,63,-4
11840,4,-248,50,-12,64,-4
11845,2,-247,48,-13,61,-6
11850,5,-246,50,-13,61,-4
11855,4,-245,51,-15,62,-5
11860,6,-249,50,-15,61,-3
11865,6,-249,52,-18,63,-3
11870,7,-251,55,-18,64,-2
11875,7,-249,51,-19,62,-3
11880,7,-248,52,-19,64,-2
11885,3,-250,54,-16,63,-1
11890,5,-247,53,-16,64,0
11895,5,-252,49,-14,63,-2
11900,7,-248,52,-13,64,-2
11905,6,-247,54,-13,65,-2
11910,6,-247,49,-12,64,-2
11915,7,-246,54,-10,65,-3
11920,6,-246,53,-9,64,-3
11925,6,-246,51,-10,64,-3
11930,8,-247,54,-10,63,-3
11935,6,-245,50,-10,61,-3
11940,5,-248,54,-9,61,-3
11945,6,-250,55,-10,59,-5
11950,4,-247,51,-12,58,-5
11955,5,-249,52,-12,59,-5
11960,5,-247,48,-12,58,-4
11965,6,-247,57,-14,60,-4
11970,8,-247,53,-14,63,-2
11975,6,-248,50,-14,65,-3
11980,6,-245,52,-12,67,-3
11985,6,-248,54,-13,68,-3
11990,9,-247,61,-13,68,-3
11995,5,-247,52,-12,69,-3
