timestamp,acc_x,acc_y,acc_z,gyro_x,gyro_y,gyro_z
0,-2,-246,30,8,-39,-25
5,0,-251,30,13,-37,-27
10,2,-248,29,16,-36,-29
15,0,-246,34,21,-35,-29
20,-2,-256,30,24,-33,-30
25,3,-253,28,27,-30,-32
30,1,-246,33,30,-26,-32
35,1,-246,34,32,-21,-33
40,1,-248,30,37,-16,-32
45,1,-246,33,42,-11,-32
50,0,-249,36,44,-5,-33
55,0,-244,34,47,-2,-29
60,1,-246,32,48,1,-28
65,2,-250,33,51,5,-26
70,10,-246,34,53,8,-26
75,3,-247,32,57,10,-24
80,0,-250,32,60,12,-23
85,2,-251,32,63,14,-22
90,0,-247,37,66,16,-20
95,1,-247,36,70,15,-18
100,3,-251,35,75,17,-15
105,1,-247,35,77,19,-13
110,0,-243,37,81,21,-14
115,3,-247,32,83,24,-11
120,2,-249,34,84,26,-9
125,2,-248,43,86,29,-8
130,5,-246,35,90,33,-7
135,4,-246,37,90,38,-5
140,5,-246,35,91,39,-3
145,2,-245,38,91,38,-1
150,4,-244,40,90,39,-1
155,5,-244,38,88,38,0
160,3,-242,38,86,34,0
165,1,-244,39,83,32,0
170,5,-246,39,79,31,3
175,2,-245,40,76,29,1
180,1,-243,41,74,27,1
185,2,-244,40,74,27,0
190,1,-244,38,74,25,-1
195,0,-247,39,77,25,-2
200,1,-246,38,78,25,-3
205,-1,-247,40,80,25,-4
210,-4,-245,36,81,25,-3
215,0,-246,39,83,26,-2
220,-3,-246,36,83,27,0
225,0,-247,38,85,28,2
230,-1,-249,35,87,30,0
235,-2,-242,36,88,32,0
240,0,-245,38,86,32,2
245,0,-245,34,85,31,1
250,0,-247,38,83,30,2
255,-2,-243,38,81,31,3
260,1,-246,39,79,30,1
265,0,-244,36,77,31,0
270,-3,-246,37,75,30,2
275,0,-247,39,75,31,-1
280,-2,-248,44,74,30,0
285,0,-249,39,76,29,-1
290,1,-246,37,77,29,-1
295,-1,-247,41,81,29,0
300,0,-245,38,87,29,1
305,0,-247,39,90,27,1
310,-1,-247,34,93,25,0
315,1,-247,36,95,24,0
320,0,-246,39,96,22,-1
325,-2,-247,38,98,21,-3
330,0,-245,42,100,19,-2
335,-1,-244,37,100,17,-3
340,1,-247,37,102,16,-2
345,2,-242,42,102,16,-4
350,1,-246,39,101,14,-5
355,2,-244,43,100,13,-4
360,0,-245,39,99,13,-5
365,0,-244,36,98,11,-4
370,1,-247,44,98,9,-6
375,2,-243,42,96,9,-8
380,-1,-245,41,96,7,-7
385,0,-246,39,96,7,-8
390,0,-247,40,95,5,-8
395,0,-245,41,96,3,-7
400,1,-247,38,96,4,-8
405,1,-246,42,95,4,-9
410,-1,-241,42,96,3,-9
415,0,-248,40,96,3,-9
420,0,-241,40,95,4,-9
425,0,-245,35,95,3,-9
430,0,-245,42,94,4,-8
435,0,-247,43,93,3,-8
440,-1,-244,42,91,3,-8
445,6,-236,49,91,3,-9
450,0,-244,43,90,2,-8
455,-1,-246,40,88,2,-7
460,1,-245,41,87,1,-7
465,0,-246,39,87,1,-6
470,1,-245,39,88,1,-6
475,1,-246,41,87,-1,-6
480,-3,-243,42,87,-1,-6
485,0,-242,39,86,0,-5
490,0,-245,38,83,3,-6
495,-2,-246,35,81,3,-7
500,0,-243,42,79,5,-8
505,0,-246,42,76,6,-8
510,0,-246,41,74,9,-7
515,0,-244,40,73,10,-9
520,0,-242,41,72,13,-12
525,0,-242,38,71,13,-12
530,0,-245,42,72,13,-11
535,1,-246,42,71,13,-11
540,0,-243,45,73,13,-11
545,-2,-242,43,74,13,-13
550,1,-247,44,76,11,-11
555,3,-244,39,79,9,-12
560,-2,-248,43,81,8,-10
565,1,-247,44,82,6,-9
570,-1,-247,41,83,5,-9
575,-2,-245,43,82,5,-10
580,0,-246,37,80,6,-11
585,0,-243,43,78,8,-11
590,0,-244,45,76,8,-12
595,0,-245,43,73,9,-13
600,0,-241,42,70,10,-14
605,-1,-245,41,67,11,-15
610,0,-244,42,67,11,-13
615,-4,-245,45,65,13,-16
620,0,-243,45,66,15,-14
625,-2,-244,40,68,15,-18
630,1,-245,43,70,14,-18
635,0,-246,45,71,14,-18
640,0,-246,42,72,14,-19
645,1,-245,45,74,14,-18
650,0,-245,46,73,14,-19
655,0,-245,42,73,13,-21
660,-1,-243,38,72,11,-20
665,0,-245,40,69,11,-19
670,-1,-245,42,67,10,-20
675,0,-246,45,65,10,-21
680,1,-243,42,64,9,-20
685,-2,-246,41,61,9,-20
690,2,-246,41,61,9,-20
695,0,-245,41,62,10,-18
700,0,-243,44,62,10,-19
705,0,-245,46,61,10,-21
710,0,-244,43,64,11,-22
715,0,-245,41,63,11,-21
720,0,-242,42,65,12,-23
725,0,-244,39,66,11,-21
730,0,-242,39,64,12,-22
735,1,-244,41,64,14,-20
740,3,-243,42,63,15,-21
745,0,-244,44,63,15,-19
750,0,-245,43,62,17,-20
755,0,-244,44,62,17,-18
760,-1,-247,43,59,16,-18
765,2,-247,43,59,16,-18
770,1,-245,42,58,16,-17
775,-4,-244,42,57,16,-16
780,0,-242,45,56,16,-15
785,0,-244,44,55,15,-13
790,0,-244,42,54,13,-14
795,1,-242,43,54,13,-14
800,0,-246,39,53,12,-13
805,1,-244,46,53,12,-14
810,2,-248,44,52,12,-13
815,0,-244,44,51,11,-13
820,3,-244,36,51,11,-13
825,3,-244,42,50,10,-13
830,2,-243,41,50,11,-13
835,0,-246,41,50,10,-14
840,0,-243,42,50,10,-16
845,1,-245,42,49,8,-15
850,0,-242,42,48,9,-13
855,1,-245,41,47,10,-13
860,-1,-243,42,47,9,-12
865,-2,-245,39,47,9,-12
870,1,-244,41,47,8,-14
875,-1,-245,44,47,8,-13
880,0,-246,40,48,7,-12
885,2,-244,42,49,8,-11
890,0,-245,44,50,8,-11
895,1,-247,43,50,9,-13
900,0,-244,38,52,8,-12
905,2,-247,43,54,8,-12
910,0,-245,43,56,8,-13
915,2,-244,44,58,9,-13
920,2,-247,43,60,7,-11
925,0,-245,44,62,7,-12
930,0,-241,41,63,7,-12
935,0,-245,42,64,7,-13
940,-2,-240,41,63,8,-13
945,0,-245,41,62,8,-13
950,0,-245,44,61,8,-10
955,0,-245,42,61,8,-10
960,1,-246,40,60,7,-12
965,1,-245,42,60,8,-12
970,0,-244,40,58,9,-11
975,-2,-248,45,57,9,-12
980,0,-243,44,57,9,-13
985,0,-245,42,58,8,-11
990,0,-245,40,59,9,-14
995,-3,-245,41,59,9,-13
1000,2,-247,41,58,9,-11
1005,5,-244,39,59,8,-11
1010,0,-245,43,59,9,-12
1015,2,-247,46,59,9,-11
1020,0,-247,41,60,11,-10
1025,0,-245,43,58,10,-13
1030,0,-244,41,59,11,-13
1035,0,-246,42,60,12,-13
1040,0,-244,42,60,12,-14
1045,-3,-246,45,58,13,-12
1050,1,-244,42,58,13,-12
1055,0,-243,42,58,13,-11
1060,2,-245,43,55,12,-12
1065,3,-247,40,56,12,-10
1070,0,-245,44,55,10,-10
1075,0,-241,41,57,9,-8
1080,-1,-243,42,56,9,-9
1085,2,-243,43,58,8,-9
1090,0,-244,38,59,9,-11
1095,-2,-247,44,59,8,-9
1100,0,-246,41,58,8,-9
1105,1,-248,41,60,9,-12
1110,1,-247,44,60,9,-11
1115,0,-246,41,60,11,-10
1120,1,-243,42,60,13,-11
1125,0,-245,44,60,13,-10
1130,0,-246,40,62,15,-10
1135,0,-245,43,62,16,-10
1140,0,-246,46,63,17,-10
1145,0,-244,41,61,16,-9
1150,-1,-244,37,60,18,-9
1155,0,-242,39,60,18,-9
1160,0,-244,44,60,19,-11
1165,0,-245,43,57,18,-12
1170,0,-245,41,55,17,-11
1175,0,-244,43,53,16,-9
1180,2,-244,41,51,14,-10
1185,-2,-244,46,51,13,-11
1190,0,-248,40,53,12,-10
1195,0,-245,44,54,12,-13
1200,-2,-244,41,56,10,-12
1205,1,-243,43,58,11,-11
1210,0,-242,37,60,11,-11
1215,0,-246,41,61,12,-9
1220,1,-249,45,63,13,-8
1225,-1,-245,42,65,11,-8
1230,0,-245,40,66,11,-9
1235,0,-246,41,68,10,-10
1240,1,-246,41,68,8,-6
1245,-7,-242,46,66,9,-7
1250,1,-242,40,66,9,-7
1255,0,-242,42,64,8,-7
1260,3,-244,41,62,9,-9
1265,2,-246,43,59,10,-9
1270,0,-242,43,57,10,-8
1275,1,-246,45,55,11,-10
1280,2,-245,44,52,13,-9
1285,-9,-234,51,51,14,-10
1290,-5,-244,43,51,15,-11
1295,1,-244,44,53,14,-10
1300,-1,-245,44,55,14,-10
1305,-4,-244,46,57,13,-11
1310,0,-244,42,59,13,-10
1315,1,-245,43,61,12,-10
1320,1,-243,44,62,10,-11
1325,-1,-244,44,62,10,-8
1330,1,-242,40,62,10,-8
1335,0,-244,42,62,9,-6
1340,2,-249,43,61,10,-10
1345,2,-246,37,59,10,-8
1350,0,-244,39,58,10,-9
1355,1,-241,43,55,10,-8
1360,-1,-246,42,54,9,-9
1365,0,-244,51,53,12,-9
1370,-2,-243,44,52,12,-10
1375,0,-243,42,52,12,-7
1380,1,-246,43,53,12,-7
1385,1,-245,47,53,13,-9
1390,-1,-244,41,53,13,-9
1395,0,-244,42,53,14,-8
1400,0,-243,43,54,14,-9
1405,2,-245,45,54,14,-8
1410,1,-246,41,54,15,-8
1415,3,-244,41,54,14,-8
1420,0,-246,39,53,14,-9
1425,1,-240,41,52,14,-8
1430,0,-244,41,53,15,-8
1435,0,-246,44,53,14,-7
1440,0,-247,43,53,13,-5
1445,2,-246,47,53,12,-7
1450,1,-246,42,53,11,-8
1455,1,-247,43,54,12,-6
1460,0,-246,44,54,12,-8
1465,0,-247,41,55,12,-8
1470,-1,-244,45,57,13,-6
1475,1,-248,43,56,11,-7
1480,1,-245,43,57,10,-8
1485,0,-247,39,58,9,-7
1490,0,-247,44,59,8,-8
1495,3,-248,39,61,7,-8
1500,3,-244,44,60,8,-8
1505,0,-244,38,63,8,-8
1510,0,-247,41,62,8,-8
1515,-2,-243,43,62,9,-9
1520,0,-243,45,60,11,-8
1525,0,-246,40,57,11,-8
1530,0,-244,45,55,13,-9
1535,2,-247,44,52,12,-9
1540,0,-243,47,49,13,-7
1545,0,-244,42,48,12,-8
1550,1,-244,42,46,12,-8
1555,-1,-244,41,49,12,-7
1560,0,-244,40,50,10,-8
1565,-1,-245,43,51,11,-8
1570,1,-247,45,52,10,-8
1575,0,-244,41,53,10,-8
1580,1,-243,41,54,11,-9
1585,1,-246,40,53,11,-9
1590,0,-247,45,54,10,-8
1595,-1,-243,45,53,10,-10
1600,-1,-247,43,54,11,-10
1605,1,-244,45,54,11,-9
1610,-1,-246,44,54,13,-11
1615,0,-242,42,54,14,-10
1620,-1,-244,41,54,14,-11
1625,-2,-247,42,57,14,-12
1630,0,-245,44,58,13,-12
1635,0,-244,40,56,14,-11
1640,-2,-248,39,58,15,-12
1645,0,-243,46,59,15,-11
1650,0,-245,46,58,16,-12
1655,1,-244,42,57,16,-13
1660,1,-242,40,58,14,-11
1665,1,-246,42,56,15,-13
1670,1,-247,41,56,14,-13
1675,-1,-246,43,54,13,-11
1680,1,-245,40,53,12,-12
1685,0,-246,38,52,11,-11
1690,0,-244,41,51,10,-12
1695,0,-245,41,50,9,-11
1700,0,-246,45,50,8,-10
1705,2,-245,42,50,9,-10
1710,-3,-242,40,50,8,-11
1715,0,-243,42,52,9,-12
1720,-1,-246,43,52,9,-11
1725,-2,-247,42,52,9,-12
1730,1,-242,39,53,8,-12
1735,0,-245,44,54,8,-11
1740,0,-245,42,55,11,-9
1745,-1,-242,43,55,11,-11
1750,0,-242,42,54,12,-12
1755,-2,-242,46,54,12,-13
1760,0,-245,40,51,13,-11
1765,0,-244,43,51,13,-13
1770,-2,-246,43,51,13,-13
1775,0,-244,39,50,13,-12
1780,0,-245,44,50,13,-13
1785,0,-248,41,49,13,-12
1790,0,-247,43,50,13,-12
1795,-2,-246,42,50,13,-13
1800,-1,-246,44,50,13,-12
1805,0,-245,45,50,12,-10
1810,0,-246,44,51,12,-11
1815,-3,-246,41,50,12,-11
1820,0,-245,43,49,11,-10
1825,0,-245,42,49,10,-12
1830,1,-241,41,51,11,-11
1835,0,-243,44,51,11,-10
1840,0,-245,43,52,10,-14
1845,0,-247,43,51,11,-13
1850,-2,-245,41,53,10,-12
1855,0,-245,41,53,10,-14
1860,0,-242,40,52,10,-13
1865,0,-246,40,53,9,-13
1870,0,-246,37,53,10,-13
1875,0,-244,43,53,11,-13
1880,0,-247,40,53,11,-11
1885,2,-242,42,52,10,-11
1890,0,-244,42,53,9,-12
1895,0,-244,44,51,10,-13
1900,1,-246,41,51,10,-13
1905,1,-245,43,50,9,-12
1910,0,-246,42,51,9,-14
1915,0,-247,41,49,8,-12
1920,-1,-245,44,47,9,-13
1925,-1,-243,43,48,10,-13
1930,-2,-246,43,48,10,-12
1935,0,-246,43,50,10,-12
1940,-2,-245,44,50,12,-14
1945,2,-246,41,51,13,-13
1950,0,-245,42,52,11,-12
1955,1,-246,42,52,11,-12
1960,0,-243,45,54,12,-12
1965,0,-241,41,55,12,-11
1970,0,-246,42,55,11,-13
1975,1,-245,41,55,11,-14
1980,1,-245,42,55,10,-13
1985,0,-244,43,55,11,-13
1990,7,-246,47,53,12,-13
1995,1,-245,44,52,11,-13
2000,0,-242,45,52,9,-14
2005,0,-247,46,51,10,-12
2010,0,-245,43,52,9,-12
2015,0,-243,40,51,8,-15
2020,0,-243,43,52,10,-15
2025,2,-245,40,53,9,-14
2030,0,-245,39,54,9,-15
2035,0,-246,41,54,9,-15
2040,0,-249,41,54,10,-16
2045,-1,-245,44,56,10,-15
2050,0,-247,40,56,9,-15
2055,-1,-246,40,57,9,-16
2060,-1,-244,41,57,10,-18
2065,0,-245,45,57,12,-18
2070,2,-242,44,56,12,-18
2075,0,-243,40,57,13,-18
2080,0,-243,39,55,13,-17
2085,1,-245,39,54,14,-18
2090,1,-242,42,54,14,-16
2095,1,-245,43,54,15,-15
2100,0,-249,44,53,15,-15
2105,2,-248,43,51,15,-18
2110,0,-242,38,53,14,-13
2115,1,-247,42,53,13,-15
2120,1,-248,42,54,10,-17
2125,1,-246,44,54,9,-17
2130,1,-246,44,53,7,-18
2135,-2,-243,45,54,6,-16
2140,0,-245,42,55,6,-18
2145,0,-246,42,56,6,-19
2150,1,-245,44,56,5,-19
2155,0,-246,42,56,6,-19
2160,0,-242,41,56,7,-22
2165,2,-248,41,60,10,-21
2170,0,-246,42,63,9,-21
2175,1,-247,44,66,12,-20
2180,0,-247,42,70,13,-19
2185,-1,-244,39,72,14,-16
2190,1,-246,41,72,14,-14
2195,1,-243,40,73,14,-15
2200,0,-245,42,73,13,-16
2205,3,-245,42,72,12,-16
2210,1,-242,42,67,11,-16
2215,0,-243,43,61,10,-18
2220,1,-244,39,57,9,-19
2225,0,-243,41,54,6,-19
2230,2,-245,44,50,5,-21
2235,2,-247,45,48,3,-19
2240,1,-245,38,46,4,-20
2245,0,-242,41,45,4,-21
2250,2,-244,42,47,3,-21
2255,0,-243,44,48,3,-21
2260,1,-245,39,49,6,-19
2265,1,-248,48,51,6,-19
2270,0,-243,42,53,8,-17
2275,2,-247,45,56,7,-18
2280,0,-245,43,59,7,-17
2285,2,-244,41,59,7,-16
2290,1,-245,42,58,7,-16
2295,1,-243,42,56,6,-17
2300,-1,-242,42,54,6,-16
2305,0,-242,39,50,8,-17
2310,1,-246,39,48,9,-18
2315,0,-247,44,46,10,-18
2320,-2,-246,42,43,10,-18
2325,1,-245,45,42,10,-20
2330,0,-247,48,42,11,-21
2335,2,-246,42,42,10,-21
2340,0,-244,43,44,10,-22
2345,0,-245,42,46,10,-22
2350,2,-245,40,46,9,-21
2355,2,-244,45,47,7,-20
2360,1,-244,44,47,8,-19
2365,4,-255,40,48,6,-19
2370,1,-244,42,48,6,-19
2375,1,-246,43,49,5,-18
2380,-1,-245,41,48,5,-17
2385,1,-243,41,47,5,-17
2390,1,-246,43,47,5,-17
2395,0,-247,39,47,6,-14
2400,1,-247,42,47,5,-16
2405,0,-245,41,48,7,-16
2410,2,-245,41,47,8,-16
2415,0,-246,39,46,9,-15
2420,2,-246,37,47,9,-15
2425,4,-245,44,46,10,-16
2430,1,-244,43,45,10,-16
2435,0,-246,40,44,9,-18
2440,1,-249,44,43,8,-19
2445,0,-243,43,42,9,-17
2450,0,-243,41,40,9,-17
2455,-1,-243,43,38,10,-19
2460,1,-247,44,37,12,-17
2465,0,-245,45,36,13,-16
2470,3,-245,42,36,13,-16
2475,2,-245,41,35,13,-15
2480,2,-243,45,34,13,-14
2485,0,-246,39,35,13,-15
2490,0,-244,43,38,13,-14
2495,0,-245,43,40,10,-14
2500,3,-249,41,42,9,-14
2505,0,-245,42,42,9,-14
2510,1,-243,41,42,10,-15
2515,2,-251,44,43,8,-15
2520,0,-246,40,44,8,-15
2525,0,-246,43,44,7,-15
2530,0,-244,41,45,7,-15
2535,1,-244,39,47,8,-15
2540,0,-245,42,47,7,-13
2545,0,-245,42,49,7,-15
2550,0,-244,40,48,7,-14
2555,1,-244,41,48,8,-13
2560,1,-246,40,48,10,-14
2565,1,-245,37,46,11,-15
2570,0,-243,41,45,11,-14
2575,0,-246,44,43,13,-13
2580,2,-243,44,42,13,-13
2585,3,-244,41,42,12,-12
2590,2,-247,39,43,11,-13
2595,1,-246,40,45,8,-11
2600,0,-245,38,50,7,-11
2605,0,-246,42,51,5,-10
2610,2,-245,43,53,3,-10
2615,3,-249,42,52,2,-12
2620,2,-246,43,50,2,-13
2625,1,-242,41,48,2,-14
2630,2,-247,41,45,4,-15
2635,1,-244,40,41,5,-14
2640,3,-244,40,38,5,-13
2645,0,-246,39,36,7,-14
2650,1,-244,42,36,8,-16
2655,0,-245,41,35,10,-16
2660,1,-244,40,37,9,-14
2665,2,-244,40,37,11,-16
2670,1,-243,37,40,12,-16
2675,1,-243,40,43,11,-16
2680,3,-245,43,46,10,-16
2685,0,-241,48,49,9,-17
2690,1,-244,39,50,9,-15
2695,1,-242,42,50,9,-17
2700,2,-244,41,49,8,-16
2705,1,-241,42,50,7,-15
2710,2,-246,44,48,7,-16
2715,1,-247,42,48,7,-14
2720,0,-242,43,47,6,-14
2725,0,-243,40,45,4,-14
2730,1,-246,45,44,5,-16
2735,0,-246,41,42,5,-15
2740,4,-245,45,41,5,-15
2745,2,-248,43,41,6,-15
2750,0,-244,40,42,7,-15
2755,0,-245,38,44,8,-15
2760,1,-242,41,46,9,-14
2765,0,-247,43,49,9,-14
2770,1,-242,38,50,9,-14
2775,-1,-242,40,52,10,-13
2780,1,-243,40,53,11,-13
2785,1,-243,39,51,11,-14
2790,1,-247,45,52,13,-15
2795,0,-246,44,51,12,-16
2800,1,-247,42,52,13,-15
2805,0,-247,39,52,13,-14
2810,1,-244,41,53,13,-14
2815,2,-248,39,56,13,-16
2820,5,-249,41,59,10,-18
2825,0,-246,43,62,11,-17
2830,0,-248,38,69,10,-16
2835,0,-248,43,75,10,-14
2840,0,-245,41,81,10,-13
2845,3,-246,41,86,11,-10
2850,-1,-246,38,91,11,-8
2855,1,-248,42,90,13,-7
2860,1,-246,41,90,16,-5
2865,0,-243,42,87,17,-3
2870,1,-244,41,81,19,0
2875,0,-241,40,74,21,-1
2880,1,-245,43,68,21,2
2885,4,-243,43,63,21,2
2890,1,-243,45,60,21,5
2895,1,-244,42,57,23,7
2900,3,-244,39,57,22,10
2905,2,-244,39,57,23,10
2910,3,-247,38,57,24,15
2915,2,-248,35,59,24,16
2920,1,-245,35,62,25,22
2925,1,-245,36,65,26,24
2930,3,-244,36,67,29,27
2935,0,-245,40,69,30,28
2940,2,-246,36,73,31,31
2945,4,-244,42,74,30,33
2950,4,-245,36,74,30,35
2955,1,-243,40,73,31,38
2960,0,-243,37,71,31,40
2965,2,-242,39,70,31,43
2970,0,-246,39,69,31,49
2975,3,-246,38,72,29,52
2980,1,-246,38,75,29,59
2985,1,-245,44,76,34,66
2990,0,-243,40,79,39,74
2995,2,-247,41,79,43,84
3000,1,-245,38,76,51,92
3005,1,-243,39,70,60,101
3010,3,-247,38,63,68,113
3015,0,-248,39,52,74,121
3020,1,-247,35,41,79,131
3025,1,-249,35,30,81,143
3030,-1,-248,36,20,79,150
3035,2,-248,38,17,74,157
3040,1,-252,34,18,72,165
3045,0,-250,38,27,71,175
3050,0,-250,39,36,70,186
3055,0,-253,36,44,74,196
3060,6,-249,42,53,75,207
3065,-3,-252,42,62,72,217
3070,-2,-252,40,72,73,227
3075,-2,-251,36,87,77,239
3080,-3,-253,43,103,83,249
3085,-5,-254,41,117,86,260
3090,-12,-256,39,128,90,269
3095,-4,-247,40,138,89,275
3100,-3,-250,40,144,89,286
3105,-6,-248,41,149,93,296
3110,1,-251,50,154,96,305
3115,-8,-248,43,154,99,311
3120,-3,-249,42,155,99,315
3125,-6,-246,43,159,101,319
3130,-4,-247,39,164,105,323
3135,-4,-244,40,168,106,323
3140,-7,-241,39,171,110,327
3145,-5,-244,44,176,118,329
3150,-4,-244,44,180,122,329
3155,-2,-245,44,184,125,335
3160,-4,-246,44,190,129,341
3165,-2,-246,42,196,133,347
3170,2,-245,45,202,137,353
3175,-1,-244,44,209,140,362
3180,1,-247,44,215,146,369
3185,0,-244,43,221,148,378
3190,0,-243,44,225,148,385
3195,-1,-246,42,230,147,391
3200,0,-245,45,237,143,397
3205,0,-244,40,243,144,405
3210,-3,-243,40,249,149,414
3215,-2,-241,36,256,151,423
3220,-1,-245,39,262,148,429
3225,-3,-247,40,273,149,436
3230,-4,-244,44,283,146,441
3235,-4,-244,43,293,140,441
3240,-3,-241,48,299,134,442
3245,-4,-235,50,302,132,445
3250,-6,-236,52,306,139,458
3255,-7,-235,49,312,148,472
3260,-17,-237,53,317,159,482
3265,-11,-235,51,324,160,484
3270,-14,-237,54,327,168,498
3275,-16,-237,53,331,180,511
3280,-17,-236,54,337,192,520
3285,-20,-237,51,341,199,527
3290,-22,-234,55,341,190,526
3295,-16,-231,53,337,185,532
3300,-14,-233,56,334,196,548
3305,-22,-237,58,332,211,565
3310,-16,-232,59,329,209,569
3315,-19,-234,60,324,224,589
3320,-23,-234,58,324,241,605
3325,-22,-238,57,320,246,611
3330,-28,-242,62,313,241,611
3335,-23,-237,57,302,217,600
3340,-25,-241,59,290,208,605
3345,-25,-241,58,289,207,610
3350,-26,-239,59,288,207,615
3355,-30,-243,59,291,217,624
3360,-33,-240,61,301,225,630
3365,-32,-244,59,312,222,629
3370,-38,-241,59,322,214,624
3375,-34,-237,63,335,210,623
3380,-39,-241,66,351,229,636
3385,-45,-240,66,368,238,639
3390,-40,-242,63,381,232,636
3395,-46,-239,64,397,229,640
3400,-44,-238,64,413,228,643
3405,-52,-237,61,430,232,649
3410,-43,-234,63,442,224,649
3415,-41,-236,60,454,227,656
3420,-46,-237,63,467,241,664
3425,-48,-234,60,472,240,669
3430,-48,-232,63,476,244,678
3435,-60,-252,78,483,244,688
3440,-51,-233,65,479,220,670
3445,-44,-230,64,479,210,679
3450,-54,-230,59,491,229,694
3455,-51,-232,65,502,243,711
3460,-60,-231,67,516,260,724
3465,-60,-231,63,514,250,715
3470,-59,-231,62,513,246,721
3475,-53,-228,61,516,262,731
3480,-64,-231,63,521,283,739
3485,-60,-232,65,517,286,738
3490,-65,-232,62,517,302,745
3495,-63,-231,65,513,317,742
3500,-71,-232,67,506,330,739
3505,-71,-230,67,501,332,730
3510,-74,-232,70,502,335,725
3515,-65,-234,69,514,344,720
3520,-74,-230,73,536,362,720
3525,-75,-230,70,558,381,712
3530,-78,-230,72,572,393,705
3535,-77,-226,75,577,399,695
3540,-81,-222,71,573,406,690
3545,-80,-224,71,565,414,684
3550,-86,-222,74,554,421,674
3555,-80,-217,71,539,429,670
3560,-86,-220,75,532,443,674
3565,-85,-217,77,518,450,672
3570,-87,-216,76,506,452,664
3575,-89,-214,75,498,454,663
3580,-89,-213,77,490,453,660
3585,-89,-213,78,485,446,660
3590,-91,-211,73,494,446,666
3595,-93,-215,75,516,450,669
3600,-97,-210,77,534,452,672
3605,-96,-208,76,541,459,675
3610,-96,-205,78,534,463,679
3615,-95,-202,79,514,467,679
3620,-184,-184,100,483,464,680
3625,-96,-180,78,337,323,599
3630,-80,-202,74,261,316,630
3635,-115,-196,81,257,365,663
3640,-102,-200,79,232,362,668
3645,-103,-204,83,241,380,686
3650,-113,-207,88,273,408,700
3655,-109,-206,85,326,433,712
3660,-117,-199,86,395,459,724
3665,-134,-194,85,429,437,695
3670,-127,-195,84,434,399,696
3675,-118,-199,86,448,373,708
3680,-117,-196,93,488,377,726
3685,-126,-193,86,519,376,722
3690,-126,-195,84,543,387,741
3695,-133,-190,82,550,402,744
3700,-125,-189,85,527,401,731
3705,-123,-190,90,507,405,731
3710,-126,-192,90,508,406,720
3715,-127,-192,90,520,420,712
3720,-139,-184,88,526,443,711
3725,-135,-182,84,492,447,706
3730,-133,-180,91,444,459,694
3735,-132,-180,85,408,470,704
3740,-141,-181,88,383,487,706
3745,-153,-171,83,361,485,698
3750,-149,-174,91,333,460,686
3755,-143,-178,85,321,446,689
3760,-143,-179,90,331,443,701
3765,-153,-177,88,340,449,708
3770,-154,-180,86,342,451,702
3775,-152,-172,91,334,461,688
3780,-149,-173,87,322,463,702
3785,-148,-174,88,305,467,702
3790,-147,-173,85,301,477,711
3795,-149,-169,88,293,485,720
3800,-152,-173,84,279,496,734
3805,-149,-170,83,264,504,733
3810,-148,-174,78,248,500,746
3815,-148,-170,75,212,494,728
3820,-140,-172,76,188,490,736
3825,-149,-173,79,181,507,760
3830,-152,-170,75,165,522,764
3835,-154,-171,74,147,528,767
3840,-162,-174,79,132,531,768
3845,-173,-172,79,118,527,768
3850,-174,-175,83,102,511,767
3855,-180,-166,79,83,493,764
3860,-183,-170,76,69,477,774
3865,-189,-163,76,46,461,780
3870,-188,-161,71,10,445,785
3875,-188,-158,72,-39,426,791
3880,-187,-161,77,-87,408,797
3885,-190,-161,78,-127,393,804
3890,-192,-164,79,-160,375,810
3895,-192,-164,77,-185,355,819
3900,-189,-169,82,-202,333,822
3905,-192,-161,76,-221,304,826
3910,-191,-164,77,-240,273,831
3915,-187,-161,73,-256,238,832
3920,-184,-166,71,-276,202,833
3925,-185,-165,73,-295,169,833
3930,-183,-159,73,-312,138,830
3935,-175,-157,68,-327,111,828
3940,-172,-161,71,-339,88,827
3945,-176,-158,69,-344,70,828
3950,-171,-159,71,-341,57,827
3955,-169,-160,70,-331,44,831
3960,-173,-157,67,-319,28,837
3965,-167,-163,64,-304,15,845
3970,-169,-164,65,-295,6,853
3975,-169,-165,63,-288,-10,859
3980,-177,-163,66,-284,-25,865
3985,-176,-169,62,-286,-38,872
3990,-178,-164,61,-293,-51,879
3995,-176,-171,56,-304,-64,882
4000,-178,-174,58,-317,-78,884
4005,-179,-175,59,-328,-94,884
4010,-182,-169,56,-334,-106,878
4015,-184,-163,52,-337,-114,875
4020,-184,-162,53,-341,-117,872
4025,-184,-160,53,-351,-119,871
4030,-185,-154,55,-370,-118,869
4035,-188,-151,56,-397,-115,870
4040,-188,-151,53,-429,-114,872
4045,-190,-149,53,-462,-109,872
4050,-191,-150,54,-494,-106,871
4055,-192,-145,51,-522,-107,868
4060,-190,-145,49,-546,-111,871
4065,-192,-142,48,-564,-112,875
4070,-193,-143,52,-579,-111,876
4075,-190,-142,50,-588,-118,876
4080,-190,-140,49,-591,-124,876
4085,-187,-139,46,-590,-126,877
4090,-188,-133,53,-590,-129,877
4095,-187,-137,47,-591,-130,876
4100,-185,-135,48,-589,-130,875
4105,-189,-136,50,-586,-129,877
4110,-190,-138,50,-580,-126,878
4115,-190,-136,46,-575,-118,875
4120,-193,-134,52,-574,-101,874
4125,-189,-132,50,-574,-86,875
4130,-195,-133,48,-578,-63,872
4135,-192,-134,47,-585,-42,870
4140,-198,-133,45,-590,-23,865
4145,-199,-133,48,-592,-14,861
4150,-204,-130,48,-595,-3,855
4155,-203,-133,49,-594,2,852
4160,-203,-132,47,-584,4,846
4165,-209,-131,52,-571,4,837
4170,-210,-129,51,-552,0,831
4175,-215,-128,53,-528,0,823
4180,-216,-125,56,-499,-6,818
4185,-218,-127,52,-472,-13,813
4190,-221,-123,47,-437,-28,807
4195,-221,-122,44,-408,-37,802
4200,-226,-119,44,-379,-43,798
4205,-225,-120,49,-355,-44,793
4210,-232,-115,47,-333,-45,792
4215,-229,-112,44,-312,-49,791
4220,-227,-111,43,-290,-53,787
4225,-226,-110,45,-271,-60,778
4230,-229,-106,45,-254,-69,773
4235,-229,-103,46,-242,-77,769
4240,-227,-107,49,-231,-91,765
4245,-230,-107,51,-218,-106,761
4250,-231,-101,47,-204,-118,759
4255,-230,-104,52,-183,-127,757
4260,-227,-101,53,-160,-132,758
4265,-227,-96,58,-141,-131,755
4270,-225,-92,55,-131,-127,754
4275,-226,-87,57,-130,-124,753
4280,-227,-91,59,-138,-126,750
4285,-226,-89,59,-143,-132,748
4290,-227,-96,64,-150,-140,751
4295,-229,-93,60,-154,-158,751
4300,-226,-95,55,-159,-174,751
4305,-228,-98,61,-161,-189,749
4310,-230,-94,61,-159,-208,742
4315,-231,-97,59,-149,-227,734
4320,-232,-97,61,-137,-238,727
4325,-232,-97,65,-124,-244,719
4330,-233,-96,61,-110,-249,712
4335,-233,-95,61,-95,-252,708
4340,-230,-92,61,-80,-249,701
4345,-229,-89,58,-65,-250,695
4350,-228,-89,62,-53,-252,687
4355,-224,-93,58,-38,-258,681
4360,-227,-88,58,-22,-262,673
4365,-231,-88,61,-7,-264,665
4370,-232,-87,62,7,-269,657
4375,-232,-85,65,18,-274,652
4380,-235,-82,62,30,-278,645
4385,-231,-84,58,36,-279,637
4390,-230,-85,62,46,-287,631
4395,-233,-84,61,61,-292,625
4400,-232,-80,60,84,-300,620
4405,-238,-82,61,106,-301,614
4410,-234,-80,58,132,-304,609
4415,-234,-81,55,164,-305,605
4420,-236,-77,54,195,-303,602
4425,-236,-76,58,217,-292,597
4430,-235,-72,57,229,-277,593
4435,-235,-69,55,231,-256,589
4440,-234,-68,60,231,-236,588
4445,-234,-67,56,233,-217,585
4450,-237,-69,61,232,-200,582
4455,-237,-67,55,232,-187,582
4460,-236,-67,57,242,-178,580
4465,-238,-71,61,259,-173,578
4470,-242,-66,59,278,-168,578
4475,-242,-67,62,299,-161,579
4480,-241,-64,61,317,-156,575
4485,-239,-61,60,326,-154,575
4490,-239,-63,61,332,-152,575
4495,-242,-59,63,331,-153,574
4500,-241,-65,66,326,-155,573
4505,-242,-62,65,324,-156,573
4510,-235,-62,68,324,-158,569
4515,-239,-66,69,326,-163,566
4520,-238,-62,68,331,-164,558
4525,-229,-62,69,336,-169,552
4530,-236,-65,67,349,-174,542
4535,-236,-64,70,366,-178,530
4540,-238,-62,69,386,-182,520
4545,-239,-62,74,399,-186,511
4550,-240,-57,72,409,-190,503
4555,-242,-56,73,417,-196,499
4560,-239,-58,78,428,-202,494
4565,-239,-54,82,439,-206,489
4570,-236,-52,76,447,-209,485
4575,-238,-51,75,451,-210,481
4580,-235,-50,73,451,-208,479
4585,-234,-49,73,446,-205,477
4590,-233,-48,72,435,-203,471
4595,-231,-48,75,423,-204,464
4600,-229,-47,75,414,-206,455
4605,-233,-46,74,409,-206,444
4610,-232,-48,76,411,-205,436
4615,-228,-46,78,415,-210,432
4620,-231,-46,80,423,-222,431
4625,-231,-46,84,432,-238,429
4630,-231,-41,83,446,-254,425
4635,-231,-43,84,455,-270,426
4640,-234,-40,89,466,-284,424
4645,-234,-38,85,473,-300,423
4650,-235,-37,90,480,-316,420
4655,-239,-37,88,488,-331,414
4660,-239,-39,85,496,-343,410
4665,-238,-36,80,505,-350,402
4670,-244,-33,79,515,-349,395
4675,-247,-31,76,524,-344,388
4680,-243,-30,74,528,-334,381
4685,-246,-23,73,531,-324,374
4690,-247,-26,74,524,-310,369
4695,-249,-23,75,514,-299,366
4700,-247,-20,81,498,-291,365
4705,-249,-20,82,479,-284,368
4710,-250,-20,89,458,-282,371
4715,-248,-20,91,437,-288,370
4720,-243,-20,93,420,-296,368
4725,-242,-23,92,408,-304,369
4730,-242,-23,96,402,-308,367
4735,-239,-25,90,404,-315,363
4740,-240,-23,93,410,-323,358
4745,-236,-24,95,419,-330,353
4750,-239,-22,92,426,-335,348
4755,-235,-20,92,434,-336,341
4760,-238,-16,88,441,-333,333
4765,-234,-18,90,444,-325,324
4770,-238,-14,91,448,-312,317
4775,-235,-15,95,451,-295,306
4780,-239,-12,95,449,-280,298
4785,-235,-7,90,440,-268,293
4790,-237,-3,95,426,-257,287
4795,-237,-4,98,408,-248,282
4800,-237,-3,94,388,-234,280
4805,-239,-5,96,371,-219,275
4810,-239,-6,96,357,-208,270
4815,-242,-5,98,352,-200,263
4820,-242,-1,100,354,-192,256
4825,-245,0,101,358,-186,246
4830,-240,-1,100,359,-181,236
4835,-243,-1,98,361,-169,227
4840,-244,1,99,359,-155,216
4845,-241,1,99,355,-143,199
4850,-241,0,104,350,-135,176
4855,-242,3,103,344,-132,151
4860,-241,3,101,339,-127,124
4865,-240,5,97,333,-118,99
4870,-244,4,102,329,-104,76
4875,-242,4,106,327,-88,53
4880,-243,3,106,327,-76,27
4885,-240,7,104,324,-67,5
4890,-234,4,104,319,-61,-13
4895,-239,8,105,307,-54,-28
4900,-231,6,108,294,-52,-42
4905,-233,7,102,286,-46,-52
4910,-227,8,105,277,-45,-62
4915,-225,7,103,268,-53,-69
4920,-224,12,100,258,-58,-77
4925,-227,13,102,245,-63,-81
4930,-223,14,101,234,-66,-79
4935,-222,14,105,223,-59,-77
4940,-223,17,104,211,-50,-70
4945,-227,15,104,198,-45,-65
4950,-218,12,103,183,-42,-63
4955,-221,14,104,166,-35,-62
4960,-225,15,106,155,-24,-57
4965,-223,20,103,149,-24,-51
4970,-222,14,106,145,-31,-54
4975,-225,15,105,141,-30,-53
4980,-231,14,109,142,-26,-56
4985,-223,11,103,147,-25,-58
4990,-230,10,100,154,-19,-64
4995,-238,11,96,163,-5,-68
5000,-238,8,99,169,5,-75
5005,-233,8,97,171,6,-82
5010,-235,6,93,170,14,-92
5015,-239,8,95,169,28,-97
5020,-245,7,98,166,41,-99
5025,-231,4,104,167,41,-102
5030,-233,5,93,164,42,-103
5035,-234,6,97,163,48,-104
5040,-236,8,104,163,47,-100
5045,-241,7,108,162,39,-100
5050,-229,5,109,168,30,-99
5055,-229,4,105,174,13,-104
5060,-227,3,104,183,8,-111
5065,-229,5,103,194,4,-115
5070,-239,8,105,202,10,-118
5075,-229,5,106,207,14,-117
5080,-224,1,101,210,13,-121
5085,-227,3,100,213,34,-129
5090,-229,1,103,217,48,-130
5095,-234,0,101,219,54,-132
5100,-241,2,106,216,55,-132
5105,-222,1,100,206,43,-135
5110,-228,0,100,197,48,-140
5115,-228,2,100,190,61,-136
5120,-231,1,102,188,65,-136
5125,-234,4,100,191,67,-131
5130,-246,2,104,200,68,-125
5135,-222,0,100,213,59,-118
5140,-227,2,98,231,56,-121
5145,-229,2,95,245,63,-120
5150,-233,1,102,259,66,-117
5155,-237,3,100,271,61,-118
5160,-249,10,103,277,53,-114
5165,-230,9,100,272,36,-104
5170,-232,10,101,258,30,-106
5175,-230,8,98,235,41,-104
5180,-236,11,96,205,50,-101
5185,-246,14,99,175,62,-100
5190,-230,10,100,156,64,-91
5195,-230,10,101,149,51,-93
5200,-232,7,98,149,53,-98
5205,-234,6,102,153,63,-96
5210,-238,8,102,160,71,-91
5215,-241,6,102,162,78,-82
5220,-243,8,98,158,90,-69
5225,-246,11,102,147,106,-54
5230,-230,9,104,128,108,-41
5235,-231,7,98,103,113,-41
5240,-233,7,100,78,130,-34
5245,-232,1,96,58,140,-24
5250,-234,1,99,41,144,-19
5255,-241,-4,101,34,139,-18
5260,-252,-2,102,38,132,-16
5265,-229,-9,96,60,106,-17
5270,-226,-12,97,86,71,-39
5275,-244,-11,95,114,59,-59
5280,-251,-7,92,153,59,-57
5285,-247,-12,96,199,38,-56
5290,-241,-13,95,243,12,-65
5295,-244,-10,92,277,-9,-82
5300,-241,-10,89,308,-15,-99
5305,-250,-10,92,336,-18,-111
5310,-250,0,92,358,-30,-116
5315,-251,0,95,365,-44,-120
5320,-251,1,97,355,-59,-122
5325,-254,0,100,335,-69,-122
5330,-255,4,96,311,-69,-119
5335,-252,0,99,278,-63,-116
5340,-249,-2,93,228,-52,-111
5345,-245,0,94,164,-45,-107
5350,-236,-5,92,95,-38,-104
5355,-230,-9,98,24,-33,-102
5360,-227,-12,104,-33,-31,-103
5365,-226,-14,104,-75,-32,-105
5370,-227,-18,106,-98,-35,-106
5375,-222,-23,106,-95,-42,-105
5380,-225,-21,106,-73,-53,-103
5385,-221,-25,100,-31,-64,-102
5390,-220,-25,101,23,-67,-104
5395,-220,-19,98,80,-67,-104
5400,-221,-17,98,133,-65,-103
5405,-224,-15,106,168,-62,-101
5410,-225,-11,100,189,-59,-96
5415,-226,-13,105,199,-54,-91
5420,-224,-13,105,196,-44,-86
5425,-223,-17,98,182,-28,-74
5430,-222,-16,106,158,-4,-61
5435,-216,-16,105,128,22,-52
5440,-213,-19,107,91,52,-52
5445,-220,-17,101,50,85,-54
5450,-215,-22,104,23,118,-52
5455,-220,-20,108,10,139,-53
5460,-229,-24,104,11,152,-55
5465,-228,-19,103,24,155,-52
5470,-226,-13,101,49,149,-44
5475,-229,-16,98,80,137,-36
5480,-233,-12,97,101,124,-29
5485,-229,-13,93,128,111,-18
5490,-231,-13,87,149,103,-7
5495,-232,-7,87,155,96,1
5500,-235,-10,93,149,90,6
5505,-236,-3,89,139,84,8
5510,-237,-9,92,123,74,11
5515,-235,-3,89,102,62,11
5520,-237,-6,97,79,49,10
5525,-239,-9,94,65,35,11
5530,-236,-10,99,59,26,10
5535,-241,-10,98,57,19,9
5540,-240,-13,93,55,15,6
5545,-239,-12,95,51,13,7
5550,-244,-11,92,49,10,7
5555,-249,-11,95,48,8,6
5560,-246,-11,97,53,2,7
5565,-242,-11,97,63,-16,12
5570,-240,-10,99,76,-39,14
5575,-234,-14,100,89,-61,16
5580,-233,-18,95,104,-80,16
5585,-227,-15,93,115,-92,12
5590,-227,-16,91,118,-93,4
5595,-235,-16,92,116,-82,0
5600,-232,-16,98,114,-70,2
5605,-234,-12,95,113,-62,-3
5610,-235,-12,97,112,-58,-5
5615,-234,-11,94,111,-56,-4
5620,-230,-8,96,112,-57,0
5625,-239,-5,95,107,-55,4
5630,-232,-6,96,100,-50,9
5635,-229,-7,96,87,-47,14
5640,-234,-6,96,69,-40,17
5645,-234,-5,101,47,-36,19
5650,-232,-6,102,25,-33,21
5655,-232,-8,104,0,-28,22
5660,-236,-8,106,-27,-25,18
5665,-234,-8,106,-48,-19,18
5670,-235,-12,104,-60,-12,15
5675,-234,-12,105,-66,-1,11
5680,-230,-15,106,-63,10,5
5685,-228,-17,102,-56,20,0
5690,-229,-21,104,-42,29,-2
5695,-231,-16,99,-27,35,-5
5700,-224,-16,102,-9,39,-3
5705,-233,-16,105,9,44,-4
5710,-232,-12,101,23,48,-6
5715,-229,-12,103,33,53,-5
5720,-232,-8,84,40,57,-4
5725,-225,-15,102,42,61,-1
5730,-228,-10,100,40,64,-2
5735,-227,-8,103,37,66,-2
5740,-231,-7,103,34,65,-1
5745,-230,-6,106,33,64,-1
5750,-226,-8,108,31,62,-3
5755,-227,-10,106,31,63,-4
5760,-231,-6,108,31,65,-4
5765,-232,-6,109,33,65,-4
5770,-231,-8,100,37,69,-2
5775,-229,-11,100,41,71,-1
5780,-231,-9,102,47,73,0
5785,-234,-6,102,54,73,1
5790,-230,-7,103,65,73,2
5795,-230,-7,100,75,74,4
5800,-231,-9,104,83,78,5
5805,-229,-6,97,94,84,7
5810,-229,-7,101,102,92,11
5815,-227,-10,101,110,100,14
5820,-227,-6,98,116,108,14
5825,-232,-6,100,121,117,18
5830,-230,-12,100,125,121,23
5835,-227,-6,106,126,126,26
5840,-227,-6,101,131,130,30
5845,-234,-3,102,138,137,31
5850,-234,-6,105,143,142,34
5855,-238,-5,104,148,147,33
5860,-240,-4,105,151,151,31
5865,-237,-4,102,153,155,25
5870,-241,-1,100,154,159,20
5875,-242,-2,98,155,160,13
5880,-240,0,99,155,159,7
5885,-242,0,99,159,165,-2
5890,-241,1,97,160,173,-12
5895,-240,2,97,160,184,-21
5900,-235,4,95,154,199,-33
5905,-238,4,96,142,212,-42
5910,-233,2,96,129,228,-47
5915,-234,1,97,120,240,-52
5920,-234,1,96,114,248,-53
5925,-233,0,96,106,254,-54
5930,-235,-2,95,100,260,-53
5935,-232,-6,95,94,265,-51
5940,-235,-7,95,92,268,-49
5945,-235,-4,98,93,269,-49
5950,-231,-9,94,94,267,-48
5955,-233,-9,95,94,269,-46
5960,-235,-4,90,95,273,-43
5965,-233,-7,89,97,277,-39
5970,-233,-4,91,100,277,-33
5975,-230,-5,88,101,281,-26
5980,-232,-4,90,102,283,-22
5985,-228,-3,89,99,284,-17
5990,-230,-6,83,98,281,-12
5995,-230,-2,88,96,280,-6
6000,-230,0,85,93,280,-4
6005,-229,-1,89,88,283,-1
6010,-234,0,91,82,287,1
6015,-233,1,88,72,289,3
6020,-235,0,92,62,291,5
6025,-236,1,91,50,295,6
6030,-236,0,88,37,297,6
6035,-234,-3,86,24,302,4
6040,-237,-6,82,13,310,4
6045,-236,-4,80,4,321,0
6050,-240,-6,83,-2,330,-3
6055,-243,-5,82,-3,337,-3
6060,-242,-5,83,-5,336,-4
6065,-241,-7,79,-4,331,-2
6070,-241,-9,77,-2,326,0
6075,-241,-12,77,-2,321,5
6080,-240,-13,81,0,318,4
6085,-245,-18,78,3,318,5
6090,-246,-15,78,8,316,2
6095,-244,-18,76,16,311,0
6100,-247,-15,78,24,298,-5
6105,-244,-16,77,36,284,-9
6110,-241,-17,75,50,272,-12
6115,-247,-15,75,63,266,-16
6120,-245,-20,76,79,262,-18
6125,-251,-10,76,94,260,-19
6130,-249,-11,75,104,254,-20
6135,-248,-13,78,113,242,-21
6140,-248,-4,75,116,226,-21
6145,-247,-6,74,122,211,-21
6150,-246,-5,74,130,201,-18
6155,-248,-2,72,134,197,-16
6160,-248,1,71,137,195,-14
6165,-247,0,72,132,195,-13
6170,-248,2,75,123,194,-10
6175,-248,-3,74,113,190,-10
6180,-246,-1,75,103,188,-10
6185,-247,-2,69,91,190,-11
6190,-248,-4,73,80,192,-12
6195,-248,-3,73,72,195,-15
6200,-250,0,71,69,196,-17
6205,-251,-1,73,70,198,-18
6210,-245,-7,71,70,196,-21
6215,-248,-6,75,74,194,-24
6220,-246,-6,73,76,192,-27
6225,-248,-3,72,79,189,-31
6230,-243,-10,68,80,186,-34
6235,-244,-7,67,80,181,-34
6240,-245,-10,67,81,176,-35
6245,-247,-7,65,81,171,-37
6250,-245,-10,68,80,166,-37
6255,-247,-12,64,79,161,-36
6260,-243,-7,64,78,158,-37
6265,-243,-11,66,78,153,-34
6270,-246,-7,65,79,149,-30
6275,-248,-9,63,82,144,-27
6280,-246,-10,63,85,139,-24
6285,-244,-12,65,89,136,-20
6290,-249,-10,63,93,133,-19
6295,-244,-10,64,98,134,-15
6300,-244,-13,59,102,134,-13
6305,-247,-13,58,109,137,-10
6310,-246,-8,59,115,140,-11
6315,-247,-9,60,123,141,-9
6320,-249,-6,58,128,142,-9
6325,-250,-11,61,132,141,-7
6330,-250,-9,61,135,137,-5
6335,-252,-6,62,137,133,-5
6340,-250,-4,62,137,127,-4
6345,-252,0,63,136,121,-2
6350,-252,-1,62,133,113,-1
6355,-252,0,64,128,105,-2
6360,-253,-1,63,122,99,-3
6365,-254,-2,66,116,93,-4
6370,-255,-2,64,110,87,-4
6375,-252,-3,66,104,83,-4
6380,-248,-7,63,98,79,-5
6385,-253,-1,64,93,75,-4
6390,-249,-3,64,90,72,-4
6395,-252,-4,64,86,70,-3
6400,-251,-4,64,86,68,-3
6405,-250,-6,63,85,66,-4
6410,-248,-7,64,83,64,-4
6415,-252,-4,64,84,63,-4
6420,-251,-2,67,84,63,-4
6425,-248,-5,62,86,60,-4
6430,-250,-3,60,87,57,-3
6435,-249,-4,64,86,54,-3
6440,-246,-4,64,86,49,-1
6445,-246,-5,63,85,43,-2
6450,-248,-7,61,83,35,-1
6455,-246,-5,65,79,28,2
6460,-246,-4,61,74,23,3
6465,-248,-2,64,67,16,5
6470,-247,-1,68,60,9,3
6475,-247,-1,66,53,2,5
6480,-248,-4,64,45,-1,4
6485,-248,-4,63,40,-3,5
6490,-249,-6,63,38,-1,5
6495,-250,-5,63,39,2,5
6500,-248,-8,63,43,7,6
6505,-248,-7,62,48,9,5
6510,-252,-5,64,55,13,5
6515,-250,-9,62,65,18,3
6520,-250,-8,59,72,20,5
6525,-248,-6,64,78,21,4
6530,-248,-3,61,85,16,3
6535,-247,-5,64,89,12,4
6540,-250,-5,64,92,6,5
6545,-248,-5,63,95,1,7
6550,-246,-3,61,97,-4,5
6555,-245,-5,63,98,-8,3
6560,-248,-3,64,100,-14,7
6565,-250,-4,65,102,-21,8
6570,-251,-1,62,106,-26,9
6575,-248,-3,65,111,-34,8
6580,-247,-1,62,115,-41,9
6585,-247,-6,64,117,-45,8
6590,-249,-3,64,122,-50,7
6595,-248,-2,65,125,-53,8
6600,-249,-2,66,124,-57,8
6605,-247,-1,67,126,-57,9
6610,-248,-4,66,124,-57,6
6615,-248,-2,69,122,-56,7
6620,-247,-3,72,117,-54,7
6625,-250,1,70,107,-51,7
6630,-248,0,74,95,-48,5
6635,-251,0,66,79,-43,4
6640,-249,-1,67,65,-36,3
6645,-249,-7,70,53,-28,3
6650,-250,-4,67,46,-23,1
6655,-252,-5,66,43,-17,-3
6660,-247,-5,68,43,-16,-5
6665,-247,-5,67,46,-14,-7
6670,-247,-10,68,50,-15,-10
6675,-248,-9,68,58,-15,-10
6680,-247,-10,71,67,-16,-11
6685,-245,-3,68,75,-16,-11
6690,-245,-7,67,82,-16,-8
6695,-243,-4,67,89,-17,-7
6700,-243,-3,66,94,-16,-6
6705,-247,-1,70,97,-16,-4
6710,-243,-4,67,96,-15,-4
6715,-246,-5,68,98,-15,-5
6720,-242,-2,68,101,-14,-4
6725,-246,-2,67,102,-12,-7
6730,-247,-3,68,103,-11,-6
6735,-246,-2,67,104,-10,-7
6740,-243,-5,67,102,-8,-9
6745,-247,-2,69,101,-8,-11
6750,-247,-1,71,100,-7,-14
6755,-246,-3,71,99,-5,-14
6760,-246,0,68,98,-4,-15
6765,-247,-5,68,99,-2,-13
6770,-247,-1,70,99,2,-14
6775,-246,-2,69,99,4,-13
6780,-244,1,67,97,6,-14
6785,-249,-3,67,96,7,-15
6790,-240,1,60,97,9,-14
6795,-245,-2,69,99,11,-11
6800,-246,-3,69,98,11,-12
6805,-245,-3,70,97,11,-11
6810,-242,-1,67,96,9,-10
6815,-247,-3,66,97,9,-10
6820,-245,0,69,96,10,-8
6825,-245,-1,67,96,12,-5
6830,-244,1,69,94,12,-6
6835,-244,-2,66,94,12,-5
6840,-248,-2,66,90,13,-3
6845,-245,-4,66,87,13,-2
6850,-245,0,70,84,12,-3
6855,-247,-3,69,80,12,-3
6860,-251,0,65,76,14,-4
6865,-248,0,67,69,15,-5
6870,-245,-1,65,65,17,-3
6875,-246,0,66,61,21,-6
6880,-245,-4,67,57,24,-6
6885,-245,-3,67,54,28,-8
6890,-246,0,67,52,31,-10
6895,-245,-5,69,51,34,-10
6900,-244,0,67,52,35,-13
6905,-248,-1,66,52,37,-13
6910,-248,-5,71,54,38,-13
6915,-242,-4,65,55,39,-13
6920,-245,-2,65,58,42,-14
6925,-245,-7,67,58,41,-13
6930,-244,-5,69,59,43,-12
6935,-247,-1,69,60,44,-12
6940,-246,-5,67,61,44,-11
6945,-248,-1,68,62,44,-11
6950,-245,0,68,61,45,-9
6955,-244,-6,68,62,46,-8
6960,-245,-1,65,62,45,-10
6965,-243,-2,67,61,46,-11
6970,-245,-1,67,61,46,-11
6975,-245,-6,65,62,44,-11
6980,-246,-1,68,62,45,-12
6985,-246,-6,67,64,44,-13
6990,-243,-4,63,66,42,-12
6995,-246,0,67,69,39,-11
7000,-247,-2,68,71,38,-11
7005,-245,-1,64,74,39,-9
7010,-247,0,68,76,37,-7
7015,-245,-1,66,78,36,-5
7020,-245,-2,68,78,35,-4
7025,-246,-1,67,76,32,-3
7030,-244,0,66,73,31,-2
7035,-246,-3,67,72,26,-1
7040,-247,-1,66,69,24,-2
7045,-247,0,67,66,23,-1
7050,-245,-4,66,63,21,-2
7055,-248,-4,67,63,21,-3
7060,-246,-2,64,62,21,-3
7065,-247,-2,67,61,21,-4
7070,-249,0,64,61,21,-5
7075,-245,-6,67,60,24,-8
7080,-247,-3,64,61,25,-9
7085,-248,-3,65,59,27,-9
7090,-248,-3,68,59,27,-9
7095,-247,-1,67,61,30,-8
7100,-245,-1,67,63,31,-9
7105,-246,-4,65,64,33,-9
7110,-246,-2,69,65,34,-7
7115,-248,2,71,66,34,-7
7120,-247,-2,66,68,30,-8
7125,-245,0,66,68,29,-9
7130,-246,-1,65,68,28,-9
7135,-248,0,67,68,25,-8
7140,-246,-2,64,68,27,-8
7145,-245,0,64,65,27,-8
7150,-244,-2,66,61,29,-5
7155,-247,0,67,57,29,-7
7160,-247,-2,64,53,31,-8
7165,-248,-4,65,49,32,-8
7170,-247,-2,65,47,32,-9
7175,-250,-5,63,46,33,-11
7180,-248,-1,66,45,33,-11
7185,-248,0,66,45,34,-12
7190,-249,0,64,46,32,-14
7195,-250,-2,65,45,30,-13
7200,-247,-3,66,46,26,-13
7205,-247,-2,66,45,22,-13
7210,-246,-3,64,43,20,-11
7215,-249,-2,68,39,17,-10
7220,-245,1,64,34,16,-8
7225,-243,-3,64,28,16,-9
7230,-248,-3,63,24,15,-9
7235,-246,-1,65,21,14,-8
7240,-246,-4,65,19,15,-7
7245,-247,-5,64,18,16,-6
7250,-248,-3,65,17,17,-7
7255,-246,-7,63,19,18,-7
7260,-246,-2,64,24,20,-9
7265,-244,-2,64,27,20,-9
7270,-246,-1,67,31,20,-9
7275,-248,-1,65,33,22,-10
7280,-244,-2,64,33,21,-10
7285,-247,-2,65,35,21,-13
7290,-248,-3,65,37,21,-12
7295,-246,-2,65,38,20,-11
7300,-246,-5,64,41,18,-10
7305,-244,-4,69,46,17,-12
7310,-246,-4,65,51,14,-12
7315,-250,-1,64,57,11,-12
7320,-246,-7,63,59,11,-12
7325,-246,-3,64,61,11,-14
7330,-246,-4,63,63,12,-15
7335,-248,-1,66,64,11,-14
7340,-245,-3,65,64,12,-14
7345,-243,-2,65,64,13,-13
7350,-244,-3,68,62,12,-13
7355,-246,-4,65,60,13,-15
7360,-245,0,66,59,13,-12
7365,-246,0,65,61,14,-14
7370,-247,-2,63,61,13,-12
7375,-248,0,64,63,14,-11
7380,-248,0,65,63,13,-13
7385,-249,1,65,63,12,-11
7390,-251,0,65,63,13,-11
7395,-245,-1,64,63,12,-12
7400,-247,0,65,63,11,-10
7405,-246,-1,66,62,11,-11
7410,-245,0,64,62,11,-13
7415,-248,0,65,63,13,-11
7420,-248,-3,65,62,15,-10
7425,-248,0,65,61,16,-10
7430,-246,-2,68,61,18,-12
7435,-246,-1,64,60,19,-10
7440,-242,-5,64,60,18,-10
7445,-248,0,64,59,17,-9
7450,-249,0,63,58,16,-8
7455,-248,-3,65,58,17,-7
7460,-247,0,65,57,14,-6
7465,-245,-6,66,57,13,-6
7470,-247,-1,65,57,14,-7
7475,-247,-2,69,59,13,-7
7480,-247,0,64,57,12,-7
7485,-246,6,58,58,11,-7
7490,-246,-4,64,60,10,-7
7495,-246,-4,67,62,12,-7
7500,-247,-1,64,66,14,-10
7505,-245,-3,64,69,13,-8
7510,-248,0,64,71,15,-10
7515,-246,-3,65,71,13,-7
7520,-246,-4,67,68,11,-8
7525,-247,0,63,67,9,-8
7530,-244,-5,64,64,8,-10
7535,-246,-4,64,62,7,-10
7540,-246,-2,64,59,10,-9
7545,-245,0,65,56,10,-6
7550,-247,-2,65,54,10,-9
7555,-245,-3,64,52,11,-8
7560,-245,-4,65,50,10,-9
7565,-248,-3,65,49,10,-10
7570,-246,-4,62,48,12,-11
7575,-244,-3,66,48,12,-12
7580,-246,-1,66,49,14,-10
7585,-244,-3,66,49,13,-12
7590,-246,-3,66,50,12,-12
7595,-247,-4,64,50,11,-12
7600,-247,-2,63,49,12,-11
7605,-245,-5,64,50,13,-10
7610,-248,-1,65,50,13,-9
7615,-248,-3,65,49,15,-7
7620,-247,-4,65,49,16,-7
7625,-247,-3,65,50,17,-7
7630,-247,-2,63,52,20,-7
7635,-246,-5,65,53,19,-8
7640,-247,-4,65,54,18,-8
7645,-247,-3,63,57,19,-8
7650,-248,-1,60,58,16,-9
7655,-246,-2,66,60,16,-9
7660,-246,-2,67,62,15,-10
7665,-246,0,66,61,13,-9
7670,-246,-3,68,61,12,-11
7675,-246,-5,67,59,11,-10
7680,-244,0,64,59,10,-10
7685,-247,0,66,56,12,-10
7690,-247,-2,64,54,12,-10
7695,-249,-1,63,52,11,-9
7700,-246,-3,64,52,12,-11
7705,-247,-1,62,51,12,-11
7710,-250,-3,64,51,9,-11
7715,-248,-3,62,52,7,-11
7720,-246,0,64,54,5,-12
7725,-246,-1,65,53,5,-11
7730,-250,-1,65,53,4,-10
7735,-246,-2,65,54,3,-9
7740,-246,-1,64,56,0,-10
7745,-248,0,65,56,-2,-10
7750,-248,0,68,57,-2,-10
7755,-248,-2,64,58,-2,-9
7760,-248,-1,61,56,-3,-10
7765,-245,-1,65,57,-3,-9
7770,-248,-2,64,55,-2,-10
7775,-248,0,70,53,-2,-9
7780,-248,0,64,53,-2,-8
7785,-245,0,66,52,-1,-9
7790,-246,-4,68,51,-2,-10
7795,-248,-4,65,48,-2,-10
7800,-246,-3,64,48,-2,-9
7805,-246,-4,63,47,-5,-10
7810,-246,0,70,47,-7,-8
7815,-249,-4,62,48,-8,-10
7820,-249,0,65,49,-8,-9
7825,-246,0,66,50,-8,-9
7830,-246,-2,66,51,-10,-10
7835,-248,-2,67,54,-9,-9
7840,-247,0,62,55,-11,-9
7845,-248,-3,65,55,-10,-10
7850,-246,-4,69,57,-10,-10
7855,-245,-6,65,56,-11,-10
7860,-244,-9,69,56,-10,-9
7865,-245,-5,64,55,-10,-10
7870,-246,-2,63,56,-9,-10
7875,-249,-3,70,53,-10,-11
7880,-246,-3,68,52,-11,-10
7885,-248,0,66,51,-12,-9
7890,-249,-3,65,50,-13,-11
7895,-247,-2,64,51,-12,-11
7900,-248,-2,66,50,-11,-9
7905,-247,-4,64,51,-12,-10
7910,-247,5,69,53,-13,-10
7915,-247,0,65,53,-14,-11
7920,-248,-4,62,56,-16,-10
7925,-247,-4,65,59,-16,-13
7930,-248,-2,67,63,-16,-12
7935,-250,-4,64,66,-20,-13
7940,-249,-4,65,70,-22,-12
7945,-249,-3,67,72,-24,-13
7950,-252,-1,66,72,-29,-15
7955,-248,-6,66,73,-32,-16
7960,-248,-9,67,74,-34,-16
7965,-250,-10,67,78,-36,-20
7970,-250,-6,64,81,-37,-20
7975,-247,-5,65,87,-39,-21
7980,-251,-5,66,91,-40,-21
7985,-250,-5,66,94,-42,-22
7990,-247,-3,66,97,-44,-24
7995,-250,0,66,99,-46,-24
8000,-252,-2,63,102,-47,-24
8005,-249,-3,69,103,-50,-24
8010,-250,-4,66,107,-54,-26
8015,-247,-9,66,107,-59,-26
8020,-252,-6,67,108,-64,-25
8025,-265,-2,73,111,-71,-24
8030,-252,-3,72,111,-88,-17
8035,-248,-3,69,105,-113,-21
8040,-244,-4,69,105,-127,-23
8045,-245,-7,69,109,-129,-24
8050,-247,-6,69,118,-122,-22
8055,-248,-5,67,121,-115,-17
8060,-249,-6,68,120,-110,-15
8065,-252,-7,70,120,-107,-17
8070,-247,-3,70,118,-105,-17
8075,-248,-9,71,114,-99,-20
8080,-248,-4,76,113,-96,-20
8085,-253,-5,73,111,-93,-22
8090,-251,-3,73,107,-93,-22
8095,-251,-6,73,103,-96,-23
8100,-250,-4,69,99,-104,-20
8105,-253,-1,72,94,-114,-18
8110,-250,-8,76,89,-127,-14
8115,-251,1,72,82,-139,-11
8120,-252,-3,75,76,-148,-9
8125,-251,-2,78,71,-152,-6
8130,-247,-1,76,69,-156,-7
8135,-242,-7,75,68,-157,-6
8140,-243,-7,75,69,-157,-4
8145,-243,-4,73,71,-155,-3
8150,-245,-5,76,77,-154,-4
8155,-245,-8,78,83,-152,-7
8160,-242,-7,79,90,-151,-9
8165,-247,-5,77,97,-153,-10
8170,-245,-5,73,107,-159,-13
8175,-248,-4,74,117,-170,-15
8180,-248,-3,71,125,-183,-14
8185,-246,-8,72,134,-196,-15
8190,-248,-3,69,139,-206,-15
8195,-248,-2,72,141,-212,-15
8200,-247,-1,72,138,-216,-12
8205,-243,-3,72,131,-220,-10
8210,-241,-3,69,123,-224,-9
8215,-242,-2,68,115,-225,-10
8220,-242,-8,71,109,-221,-10
8225,-247,-5,68,108,-219,-12
8230,-248,-7,70,110,-219,-11
8235,-250,-4,67,118,-222,-8
8240,-251,-3,69,127,-236,-6
8245,-243,-6,69,136,-253,-7
8250,-240,-8,69,144,-262,-9
8255,-246,-8,67,150,-263,-9
8260,-246,-6,67,160,-260,-4
8265,-244,-7,68,169,-260,4
8270,-247,-6,59,179,-267,11
8275,-247,-8,63,188,-280,16
8280,-245,-3,66,199,-297,19
8285,-243,-5,73,207,-313,21
8290,-246,-5,70,215,-324,27
8295,-242,-4,73,222,-337,33
8300,-246,0,75,227,-351,37
8305,-246,0,73,229,-363,41
8310,-245,-1,79,232,-373,46
8315,-244,-1,80,236,-382,51
8320,-242,-1,82,244,-386,55
8325,-240,-3,85,255,-387,57
8330,-241,-3,86,267,-387,61
8335,-243,0,88,278,-388,62
8340,-239,0,91,288,-394,65
8345,-232,-3,94,294,-401,61
8350,-236,0,97,299,-408,63
8355,-235,1,100,301,-415,67
8360,-234,-1,105,298,-417,71
8365,-233,1,108,294,-418,72
8370,-234,0,107,286,-422,72
8375,-236,2,100,277,-421,74
8380,-234,2,98,265,-416,72
8385,-235,0,97,258,-411,69
8390,-232,0,95,261,-409,65
8395,-233,0,90,270,-413,61
8400,-232,-1,92,284,-418,59
8405,-229,0,96,289,-422,63
8410,-226,0,96,294,-427,65
8415,-231,0,96,297,-429,64
8420,-234,2,97,302,-432,68
8425,-231,6,97,303,-433,75
8430,-230,5,94,295,-435,85
8435,-227,4,93,287,-435,89
8440,-228,6,97,276,-433,89
8445,-228,6,94,262,-426,92
8450,-226,7,96,248,-412,94
8455,-228,5,97,229,-394,91
8460,-230,7,95,213,-374,84
8465,-229,10,99,204,-364,79
8470,-229,7,96,194,-362,73
8475,-233,7,89,179,-366,69
8480,-232,10,87,161,-369,69
8485,-226,6,85,137,-367,69
8490,-229,7,79,111,-353,68
8495,-229,7,85,85,-336,68
8500,-232,11,83,70,-324,72
8505,-234,10,81,52,-317,75
8510,-235,10,83,36,-313,82
8515,-239,10,87,29,-309,90
8520,-242,5,91,30,-304,101
8525,-247,11,97,43,-298,112
8530,-245,12,98,57,-293,117
8535,-248,17,102,67,-286,123
8540,-245,20,102,64,-273,127
8545,-243,19,109,49,-253,129
8550,-242,20,105,26,-224,131
8555,-238,21,105,-4,-198,130
8560,-239,20,104,-36,-179,133
8565,-230,19,105,-72,-170,135
8570,-233,22,110,-105,-166,142
8575,-229,17,115,-141,-164,148
8580,-222,17,112,-173,-162,154
8585,-225,17,117,-206,-155,163
8590,-221,14,120,-240,-150,171
8595,-220,11,121,-273,-138,182
8600,-218,9,123,-302,-122,191
8605,-217,7,128,-326,-108,200
8610,-215,4,130,-345,-94,206
8615,-216,8,130,-363,-85,214
8620,-208,2,135,-382,-75,216
8625,-207,3,133,-403,-68,216
8630,-209,3,135,-421,-59,213
8635,-214,4,140,-433,-46,208
8640,-217,1,136,-438,-33,200
8645,-215,0,134,-436,-15,191
8650,-219,0,133,-426,7,180
8655,-215,0,138,-408,28,166
8660,-216,3,140,-389,44,149
8665,-221,3,137,-369,51,131
8670,-224,14,137,-363,58,113
8675,-225,14,131,-364,64,99
8680,-222,14,130,-372,72,88
8685,-220,19,129,-384,77,74
8690,-221,21,129,-397,80,59
8695,-224,22,124,-408,74,45
8700,-223,27,125,-419,61,31
8705,-226,26,120,-427,44,17
8710,-226,24,113,-439,33,3
8715,-227,25,107,-447,28,-7
8720,-224,27,106,-441,28,-14
8725,-225,23,108,-424,29,-12
8730,-226,24,110,-403,24,-16
8735,-227,25,114,-388,15,-23
8740,-224,25,110,-378,5,-36
8745,-224,24,110,-366,-5,-44
8750,-230,26,115,-354,-11,-52
8755,-228,27,110,-345,-16,-62
8760,-231,26,109,-345,-24,-70
8765,-229,27,109,-348,-21,-77
8770,-235,27,107,-350,-14,-84
8775,-236,26,105,-356,-7,-83
8780,-234,22,107,-366,-6,-84
8785,-238,25,104,-383,-13,-86
8790,-235,21,106,-401,-24,-89
8795,-236,21,106,-422,-30,-94
8800,-236,22,103,-442,-32,-92
8805,-238,19,105,-461,-30,-91
8810,-238,12,108,-477,-24,-89
8815,-238,17,110,-491,-23,-90
8820,-236,14,119,-503,-31,-94
8825,-234,13,118,-521,-41,-98
8830,-235,12,115,-540,-46,-103
8835,-233,10,110,-559,-45,-109
8840,-230,9,111,-578,-47,-120
8845,-231,5,117,-595,-58,-134
8850,-228,3,111,-613,-72,-148
8855,-223,1,114,-630,-83,-162
8860,-229,2,117,-643,-84,-175
8865,-229,-4,117,-662,-84,-187
8870,-229,-1,119,-683,-87,-198
8875,-226,-7,115,-704,-93,-211
8880,-224,2,117,-727,-101,-226
8885,-223,-11,121,-743,-111,-243
8890,-225,-15,121,-751,-121,-259
8895,-228,-14,119,-753,-130,-275
8900,-227,-14,120,-752,-140,-290
8905,-227,-14,118,-753,-144,-305
8910,-231,-15,120,-761,-143,-320
8915,-232,-16,114,-770,-138,-332
8920,-231,-20,114,-780,-133,-346
8925,-228,-21,122,-793,-128,-363
8930,-231,-20,117,-801,-125,-380
8935,-227,-18,120,-804,-129,-398
8940,-229,-15,123,-808,-137,-413
8945,-229,-16,121,-812,-149,-426
8950,-227,-15,115,-817,-158,-437
8955,-230,-14,114,-822,-162,-444
8960,-229,-17,114,-822,-162,-450
8965,-229,-18,108,-817,-162,-458
8970,-230,-17,113,-812,-161,-461
8975,-232,-19,113,-817,-162,-460
8980,-234,-20,112,-824,-160,-462
8985,-235,-23,110,-828,-160,-461
8990,-233,-21,114,-828,-161,-456
8995,-231,-24,114,-822,-160,-452
9000,-224,-27,110,-822,-157,-452
9005,-232,-25,116,-835,-147,-449
9010,-228,-28,117,-847,-138,-448
9015,-225,-34,118,-852,-134,-448
9020,-232,-32,117,-849,-133,-451
9025,-224,-37,119,-842,-136,-451
9030,-220,-36,117,-834,-131,-447
9035,-219,-36,115,-835,-123,-444
9040,-214,-39,114,-843,-118,-445
9045,-216,-36,118,-846,-116,-446
9050,-213,-41,122,-834,-117,-448
9055,-215,-43,121,-813,-117,-451
9060,-217,-41,122,-800,-110,-452
9065,-214,-44,125,-803,-101,-454
9070,-219,-42,125,-806,-95,-459
9075,-214,-50,129,-798,-90,-464
9080,-218,-51,123,-788,-81,-469
9085,-220,-49,128,-774,-69,-476
9090,-217,-53,129,-760,-69,-477
9095,-214,-56,126,-747,-67,-480
9100,-214,-57,127,-733,-53,-482
9105,-210,-61,131,-718,-36,-490
9110,-204,-65,129,-703,-28,-501
9115,-201,-68,130,-683,-18,-511
9120,-206,-66,128,-652,-4,-521
9125,-207,-67,133,-628,7,-535
9130,-205,-68,133,-620,13,-551
9135,-204,-66,127,-610,11,-562
9140,-203,-70,133,-594,2,-569
9145,-199,-72,130,-569,-6,-577
9150,-200,-74,131,-546,-11,-588
9155,-195,-65,130,-529,-8,-604
9160,-195,-76,131,-521,-7,-623
9165,-193,-76,127,-518,-1,-644
9170,-192,-75,129,-509,28,-656
9175,-189,-78,130,-495,63,-669
9180,-186,-77,131,-478,93,-686
9185,-186,-82,133,-461,112,-700
9190,-191,-77,130,-442,120,-712
9195,-188,-83,132,-418,123,-719
9200,-190,-79,130,-388,125,-720
9205,-194,-78,129,-355,129,-726
9210,-194,-80,125,-325,134,-730
9215,-191,-83,124,-307,144,-738
9220,-193,-86,120,-295,161,-749
9225,-201,-88,122,-280,183,-759
9230,-205,-87,116,-267,194,-768
9235,-205,-84,116,-256,197,-776
9240,-207,-85,115,-247,199,-778
9245,-209,-80,111,-236,201,-775
9250,-208,-84,107,-225,205,-770
9255,-204,-82,103,-224,210,-767
9260,-199,-86,104,-227,218,-764
9265,-200,-89,98,-229,229,-767
9270,-206,-92,103,-223,240,-774
9275,-206,-95,106,-217,241,-784
9280,-211,-94,108,-213,233,-787
9285,-214,-90,106,-204,223,-788
9290,-216,-90,102,-195,215,-785
9295,-216,-90,107,-187,213,-779
9300,-207,-95,105,-187,213,-780
9305,-208,-96,104,-192,214,-783
9310,-212,-102,99,-196,228,-786
9315,-216,-97,103,-206,239,-791
9320,-213,-101,102,-216,250,-794
9325,-208,-106,103,-220,260,-792
9330,-209,-106,103,-217,274,-788
9335,-210,-104,97,-216,281,-785
9340,-207,-104,99,-215,284,-784
9345,-200,-108,90,-222,284,-787
9350,-199,-113,94,-223,285,-791
9355,-204,-110,89,-220,285,-796
9360,-206,-111,89,-216,277,-796
9365,-206,-112,89,-213,258,-795
9370,-207,-112,86,-212,241,-793
9375,-204,-115,89,-207,230,-788
9380,-202,-117,90,-192,224,-786
9385,-201,-117,87,-179,220,-792
9390,-204,-120,92,-172,218,-801
9395,-206,-118,90,-176,222,-806
9400,-205,-119,86,-190,224,-806
9405,-201,-121,88,-208,232,-804
9410,-198,-125,84,-231,248,-805
9415,-192,-129,87,-252,264,-808
9420,-191,-131,90,-265,273,-813
9425,-192,-129,85,-270,275,-815
9430,-188,-134,84,-262,270,-816
9435,-186,-133,85,-252,263,-816
9440,-184,-135,82,-245,252,-812
9445,-182,-140,77,-232,247,-807
9450,-183,-143,81,-216,243,-798
9455,-179,-142,79,-199,243,-793
9460,-180,-142,77,-182,253,-794
9465,-180,-144,80,-176,264,-791
9470,-179,-146,85,-177,280,-791
9475,-182,-144,86,-188,293,-791
9480,-179,-148,90,-203,303,-791
9485,-180,-149,82,-218,314,-794
9490,-183,-151,81,-231,328,-798
9495,-183,-151,80,-237,339,-800
9500,-183,-153,71,-243,346,-801
9505,-182,-155,74,-244,357,-800
9510,-180,-159,65,-241,366,-801
9515,-181,-159,65,-234,376,-800
9520,-177,-164,64,-220,385,-795
9525,-174,-162,65,-208,394,-788
9530,-175,-162,63,-202,402,-785
9535,-170,-162,67,-197,408,-781
9540,-170,-160,64,-189,413,-778
9545,-174,-160,63,-178,416,-774
9550,-172,-162,66,-165,420,-769
9555,-169,-164,68,-153,421,-766
9560,-174,-159,64,-142,421,-761
9565,-171,-160,65,-136,420,-759
9570,-172,-161,60,-139,419,-755
9575,-174,-162,59,-145,419,-751
9580,-170,-162,56,-148,419,-747
9585,-173,-165,59,-146,421,-742
9590,-172,-166,60,-142,424,-735
9595,-168,-169,61,-138,424,-733
9600,-172,-167,57,-137,432,-736
9605,-168,-171,55,-140,441,-737
9610,-166,-171,56,-147,451,-737
9615,-168,-170,50,-153,460,-736
9620,-169,-165,51,-153,467,-737
9625,-166,-171,47,-145,472,-736
9630,-163,-172,50,-130,473,-736
9635,-165,-176,44,-115,471,-741
9640,-161,-178,46,-101,469,-744
9645,-159,-180,42,-91,466,-750
9650,-158,-182,41,-81,467,-752
9655,-157,-184,41,-72,467,-753
9660,-159,-183,44,-71,469,-755
9665,-157,-185,46,-75,466,-756
9670,-154,-187,46,-81,464,-754
9675,-157,-187,45,-89,464,-755
9680,-159,-189,46,-93,458,-754
9685,-157,-189,45,-91,450,-757
9690,-156,-191,42,-84,443,-764
9695,-159,-189,40,-71,441,-769
9700,-156,-189,45,-57,441,-778
9705,-155,-191,44,-43,440,-787
9710,-150,-190,47,-33,443,-792
9715,-148,-192,48,-27,448,-799
9720,-150,-190,49,-23,451,-801
9725,-149,-193,52,-17,446,-805
9730,-149,-191,46,-5,433,-805
9735,-147,-194,49,9,417,-808
9740,-151,-192,51,27,402,-811
9745,-149,-192,48,48,385,-809
9750,-150,-194,52,69,370,-808
9755,-152,-192,50,86,355,-809
9760,-149,-197,48,94,343,-806
9765,-149,-194,46,99,330,-805
9770,-150,-194,50,100,322,-802
9775,-150,-195,43,99,316,-799
9780,-148,-196,44,98,310,-796
9785,-144,-198,42,95,301,-797
9790,-147,-197,45,94,289,-797
9795,-147,-194,46,90,280,-798
9800,-143,-197,44,92,271,-798
9805,-144,-197,45,97,263,-798
9810,-141,-197,40,103,252,-794
9815,-143,-198,43,111,245,-790
9820,-139,-198,44,118,234,-787
9825,-139,-199,43,122,222,-787
9830,-138,-202,41,123,209,-786
9835,-139,-199,42,120,202,-782
9840,-135,-201,40,115,198,-779
9845,-133,-203,42,105,196,-776
9850,-135,-206,40,94,198,-771
9855,-128,-209,37,80,202,-768
9860,-128,-210,40,58,207,-763
9865,-127,-208,31,41,214,-761
9870,-123,-212,34,26,224,-761
9875,-120,-211,35,12,229,-757
9880,-117,-213,31,0,236,-750
9885,-118,-212,36,-11,237,-749
9890,-113,-217,35,-21,236,-751
9895,-113,-213,33,-28,237,-748
9900,-111,-212,36,-35,237,-749
9905,-110,-215,36,-43,236,-751
9910,-105,-215,33,-53,233,-756
9915,-107,-216,35,-63,230,-761
9920,-109,-215,41,-73,224,-767
9925,-109,-216,42,-82,215,-769
9930,-108,-216,39,-92,203,-775
9935,-108,-215,39,-99,196,-777
9940,-110,-213,38,-108,187,-778
9945,-110,-218,40,-115,179,-781
9950,-110,-214,42,-123,168,-786
9955,-109,-214,38,-131,156,-790
9960,-105,-219,37,-132,145,-793
9965,-107,-218,39,-133,130,-799
9970,-104,-213,38,-133,116,-802
9975,-105,-218,37,-135,102,-804
9980,-106,-214,41,-139,88,-809
9985,-106,-217,37,-147,74,-811
9990,-104,-216,34,-154,62,-815
9995,-101,-220,39,-162,49,-817
10000,-101,-220,43,-168,41,-816
10005,-100,-222,39,-173,32,-817
10010,-104,-224,40,-173,23,-821
10015,-99,-224,39,-173,14,-820
10020,-95,-229,39,-170,9,-819
10025,-94,-226,42,-169,3,-818
10030,-95,-230,38,-169,-3,-815
10035,-90,-231,36,-168,-9,-811
10040,-89,-229,31,-170,-15,-808
10045,-84,-232,35,-173,-20,-803
10050,-84,-230,30,-179,-25,-798
10055,-80,-235,32,-185,-32,-793
10060,-79,-233,36,-191,-36,-790
10065,-76,-233,31,-195,-39,-782
10070,-74,-228,32,-198,-45,-779
10075,-73,-228,31,-198,-50,-777
10080,-72,-232,33,-196,-57,-772
10085,-73,-231,35,-191,-65,-768
10090,-73,-226,32,-185,-74,-765
10095,-68,-229,29,-178,-80,-760
10100,-68,-228,31,-169,-88,-757
10105,-71,-228,34,-161,-93,-752
10110,-69,-226,33,-153,-94,-747
10115,-66,-228,30,-149,-95,-741
10120,-65,-228,28,-148,-91,-734
10125,-63,-231,29,-151,-87,-729
10130,-63,-231,31,-157,-80,-724
10135,-63,-232,25,-165,-73,-719
10140,-59,-231,22,-172,-66,-715
10145,-60,-235,24,-177,-60,-710
10150,-58,-237,25,-179,-53,-706
10155,-58,-236,25,-178,-46,-700
10160,-54,-243,22,-179,-38,-693
10165,-55,-239,24,-178,-32,-689
10170,-57,-242,21,-176,-24,-683
10175,-53,-244,20,-176,-17,-677
10180,-53,-244,19,-179,-11,-671
10185,-50,-246,14,-184,-8,-667
10190,-46,-249,18,-188,-1,-661
10195,-44,-250,22,-192,0,-656
10200,-41,-252,23,-194,3,-651
10205,-41,-252,26,-193,7,-645
10210,-38,-254,24,-184,11,-641
10215,-37,-256,22,-170,15,-636
10220,-38,-257,24,-148,20,-630
10225,-36,-256,25,-127,24,-626
10230,-36,-258,23,-107,30,-623
10235,-36,-258,23,-88,37,-623
10240,-33,-258,24,-71,41,-625
10245,-32,-260,23,-57,46,-626
10250,-30,-257,19,-48,50,-630
10255,-32,-259,22,-43,55,-630
10260,-30,-258,18,-41,57,-635
10265,-30,-254,15,-43,62,-634
10270,-27,-255,15,-43,66,-635
10275,-27,-251,12,-47,68,-638
10280,-27,-252,11,-51,68,-635
10285,-25,-252,12,-56,70,-635
10290,-24,-248,13,-61,71,-631
10295,-27,-250,13,-65,69,-627
10300,-23,-251,13,-69,63,-623
10305,-22,-252,16,-72,57,-619
10310,-22,-251,14,-73,48,-617
10315,-23,-250,11,-70,42,-607
10320,-20,-249,14,-69,35,-602
10325,-20,-247,13,-64,29,-597
10330,-19,-247,13,-60,21,-593
10335,-20,-250,14,-56,15,-585
10340,-19,-247,19,-48,14,-579
10345,-19,-246,16,-43,8,-576
10350,-33,-244,16,-34,3,-568
10355,-16,-244,15,-29,-1,-560
10360,-22,-242,14,-28,-2,-552
10365,-19,-242,15,-29,-4,-542
10370,-18,-244,16,-33,-9,-534
10375,-18,-246,17,-36,-16,-527
10380,-18,-245,16,-38,-25,-522
10385,-15,-247,18,-40,-27,-510
10390,-15,-247,16,-44,-35,-503
10395,-16,-245,18,-44,-43,-493
10400,-13,-247,16,-43,-51,-484
10405,-9,-249,19,-41,-58,-476
10410,-6,-250,18,-38,-66,-470
10415,-9,-248,22,-32,-66,-457
10420,-5,-252,23,-27,-68,-449
10425,-2,-250,20,-23,-73,-445
10430,-4,-247,25,-17,-71,-437
10435,-3,-248,25,-10,-67,-429
10440,-17,-243,15,-7,-61,-422
10445,-1,-250,17,-10,-60,-420
10450,-2,-245,14,-14,-52,-412
10455,0,-250,16,-20,-39,-405
10460,-2,-251,21,-26,-33,-401
10465,-5,-248,13,-33,-34,-401
10470,2,-249,16,-39,-33,-398
10475,1,-251,16,-39,-28,-390
10480,0,-249,17,-37,-21,-385
10485,-1,-253,19,-38,-22,-383
10490,3,-254,21,-37,-30,-385
10495,3,-252,13,-33,-34,-381
10500,0,-250,8,-24,-33,-367
10505,0,-249,15,-13,-37,-364
10510,1,-249,15,1,-45,-357
10515,2,-251,15,13,-49,-347
10520,0,-249,18,22,-51,-335
10525,1,-250,14,30,-50,-324
10530,-1,-251,21,37,-40,-310
10535,3,-249,13,41,-38,-304
10540,3,-250,11,46,-32,-293
10545,1,-245,15,51,-17,-283
10550,2,-245,16,54,-9,-284
10555,2,-251,17,56,-11,-287
10560,3,-248,14,58,-7,-280
10565,4,-244,15,60,0,-274
10570,3,-244,12,61,6,-271
10575,12,-249,10,59,3,-272
10580,7,-245,12,53,1,-272
10585,7,-245,8,42,1,-269
10590,8,-244,13,26,2,-271
10595,6,-245,8,9,6,-265
10600,5,-244,9,-8,13,-257
10605,7,-245,13,-24,14,-252
10610,6,-247,7,-41,19,-243
10615,5,-247,9,-52,24,-236
10620,5,-250,9,-58,26,-231
10625,6,-251,7,-56,26,-227
10630,5,-253,11,-45,29,-221
10635,4,-253,7,-32,26,-219
10640,10,-253,11,-14,21,-218
10645,5,-252,9,9,20,-212
10650,3,-251,5,30,24,-202
10655,2,-249,11,49,26,-189
10660,7,-252,6,68,23,-186
10665,9,-250,4,85,23,-182
10670,9,-252,5,97,30,-178
10675,7,-244,3,105,40,-170
10680,7,-246,4,103,41,-167
10685,9,-244,5,94,41,-163
10690,6,-242,8,78,42,-155
10695,7,-248,12,59,41,-151
10700,7,-253,11,45,37,-150
10705,9,-253,9,38,37,-150
10710,8,-253,13,37,40,-150
10715,10,-251,8,40,47,-144
10720,12,-252,11,50,49,-134
10725,11,-253,12,65,50,-124
10730,14,-253,14,83,44,-110
10735,15,-250,8,98,38,-100
10740,14,-254,8,118,34,-99
10745,14,-251,9,140,33,-99
10750,17,-251,9,159,32,-95
10755,14,-250,9,167,25,-97
10760,17,-248,2,176,18,-98
10765,18,-248,9,184,13,-99
10770,16,-251,5,190,12,-95
10775,16,-250,2,196,9,-90
10780,13,-249,3,196,5,-88
10785,17,-249,3,194,2,-85
10790,16,-249,5,190,1,-84
10795,15,-250,6,183,0,-83
10800,12,-248,5,179,3,-79
10805,17,-251,5,175,5,-76
10810,13,-244,2,170,7,-73
10815,11,-245,7,162,10,-68
10820,14,-249,4,155,14,-66
10825,12,-244,10,147,20,-58
10830,15,-243,7,140,24,-57
10835,12,-245,9,135,25,-49
10840,21,-232,8,131,31,-40
10845,11,-246,6,127,32,-33
10850,10,-247,6,123,33,-26
10855,9,-243,6,122,32,-25
10860,14,-250,6,123,28,-22
10865,9,-246,3,123,21,-18
10870,6,-245,-1,125,15,-17
10875,13,-246,9,125,8,-17
10880,13,-248,7,126,5,-17
10885,11,-252,6,127,3,-13
10890,11,-249,8,128,2,-10
10895,14,-247,6,130,-1,-10
10900,13,-252,5,130,-2,-9
10905,13,-248,8,131,-2,-7
10910,13,-248,7,131,-1,-4
10915,14,-245,3,126,0,-2
10920,17,-246,10,119,3,2
10925,16,-244,9,110,5,4
10930,16,-243,8,97,7,7
10935,13,-244,5,85,8,13
10940,14,-241,4,69,7,17
10945,17,-242,8,53,6,20
10950,16,-246,5,38,6,25
10955,18,-247,11,29,5,28
10960,15,-247,7,23,5,29
10965,19,-249,8,24,4,33
10970,16,-251,6,30,0,32
10975,14,-254,11,44,-2,33
10980,12,-251,4,61,-2,34
10985,16,-255,12,80,1,35
10990,14,-251,8,97,5,38
10995,14,-249,15,115,10,42
11000,16,-250,16,129,15,42
11005,14,-249,13,139,20,43
11010,14,-248,9,144,24,45
11015,12,-249,11,145,27,46
11020,13,-248,16,141,27,47
11025,11,-246,14,136,27,46
11030,11,-246,16,129,25,47
11035,9,-246,21,119,22,48
11040,8,-244,19,108,19,46
11045,9,-245,20,98,13,45
11050,11,-243,20,89,9,45
11055,11,-245,22,79,4,45
11060,9,-245,25,72,3,46
11065,6,-245,23,67,-2,46
11070,8,-244,19,65,-2,48
11075,7,-245,25,64,-2,47
11080,5,-248,23,64,-2,47
11085,8,-249,19,69,1,48
11090,7,-250,22,71,2,47
11095,16,-245,19,77,4,47
11100,4,-248,20,83,6,45
11105,3,-247,19,87,8,44
11110,4,-248,21,90,9,42
11115,3,-247,17,91,11,38
11120,3,-243,19,91,16,37
11125,5,-245,18,88,22,34
11130,2,-243,18,88,28,35
11135,4,-245,20,85,31,33
11140,6,-246,23,82,33,31
11145,3,-247,20,78,34,30
11150,6,-244,24,76,35,30
11155,5,-246,21,72,33,33
11160,5,-246,23,66,31,34
11165,3,-244,23,61,29,36
11170,4,-246,24,55,25,36
11175,2,-247,23,50,21,38
11180,1,-244,24,47,17,38
11185,1,-248,26,42,9,38
11190,3,-248,23,39,5,37
11195,1,-245,27,36,2,35
11200,1,-245,28,31,1,32
11205,0,-248,24,27,0,31
11210,0,-248,27,22,1,28
11215,1,-250,25,17,3,27
11220,1,-247,25,15,5,24
11225,2,-253,26,14,7,19
11230,2,-251,24,12,11,15
11235,4,-250,24,13,14,13
11240,3,-250,25,17,16,12
11245,2,-250,22,22,16,9
11250,4,-250,22,29,17,7
11255,5,-250,17,35,20,7
11260,5,-248,24,41,22,7
11265,7,-248,24,46,23,8
11270,7,-246,23,50,24,10
11275,6,-245,25,53,23,10
11280,7,-245,22,56,23,12
11285,9,-246,23,57,23,12
11290,9,-244,17,53,23,11
11295,8,-245,20,50,22,12
11300,9,-246,22,46,21,13
11305,8,-245,21,40,19,13
11310,7,-246,14,33,20,12
11315,7,-244,21,28,19,11
11320,9,-247,22,23,18,12
11325,7,-245,19,18,19,13
11330,7,-247,20,13,21,12
11335,6,-246,18,13,22,13
11340,5,-250,18,12,24,14
11345,6,-249,19,10,26,14
11350,5,-246,19,9,28,16
11355,5,-250,16,9,29,15
11360,5,-246,13,11,31,17
11365,8,-248,15,9,33,18
11370,5,-245,16,8,37,20
11375,4,-249,19,7,38,18
11380,5,-247,18,6,39,21
11385,4,-245,16,4,42,21
11390,9,-248,13,1,40,22
11395,3,-246,15,0,39,24
11400,4,-247,17,-1,38,23
11405,4,-248,18,-2,36,22
11410,8,-249,16,-3,34,21
11415,4,-246,17,-6,33,20
11420,7,-249,15,-10,30,20
11425,3,-249,13,-11,29,18
11430,4,-248,17,-10,27,18
11435,3,-247,16,-9,25,17
11440,1,-247,13,-10,26,16
11445,5,-248,15,-13,24,17
11450,5,-246,12,-13,24,18
11455,4,-248,17,-12,27,21
11460,2,-247,11,-11,27,21
11465,2,-248,14,-11,26,22
11470,3,-250,19,-8,23,22
11475,2,-247,15,-4,22,19
11480,1,-246,15,0,20,19
11485,1,-247,16,3,21,21
11490,1,-249,10,7,20,22
11495,4,-247,13,10,19,22
11500,2,-248,14,13,19,22
11505,1,-248,21,12,20,22
11510,2,-249,17,9,20,22
11515,1,-249,17,6,17,22
11520,-2,-256,12,0,18,20
11525,1,-246,14,-6,19,19
11530,1,-249,15,-11,17,19
11535,1,-247,13,-15,15,18
11540,2,-250,15,-19,13,16
11545,2,-252,14,-20,11,16
11550,1,-249,15,-21,7,14
11555,4,-247,17,-19,5,15
11560,0,-249,17,-16,3,13
11565,3,-249,12,-12,3,14
11570,2,-250,14,-8,2,15
11575,2,-248,17,-2,1,14
11580,1,-247,12,0,1,14
11585,1,-248,13,3,1,12
11590,5,-252,11,7,0,12
11595,4,-251,10,9,3,10
11600,-1,-249,11,11,2,10
11605,6,-248,12,13,1,11
11610,2,-246,16,15,1,9
11615,3,-248,10,16,1,8
11620,1,-247,8,16,0,9
11625,2,-247,10,16,1,10
11630,1,-250,10,17,1,9
11635,2,-250,12,16,2,7
11640,6,-247,12,16,3,9
11645,4,-250,8,15,4,10
11650,2,-250,8,16,4,11
11655,4,-251,11,16,5,10
11660,3,-245,8,16,3,10
11665,5,-248,10,15,3,8
11670,4,-248,13,15,1,7
11675,5,-250,9,14,4,9
11680,3,-249,10,15,7,12
11685,4,-249,11,16,10,10
11690,2,-249,11,18,8,9
11695,2,-249,10,22,8,11
11700,2,-247,9,27,8,11
11705,4,-247,13,31,10,11
11710,1,-248,11,34,8,13
11715,0,-250,12,37,8,14
11720,2,-249,9,39,5,10
11725,3,-250,13,41,2,7
11730,2,-250,15,43,3,10
11735,1,-249,14,43,5,10
11740,1,-250,11,43,6,9
11745,2,-250,10,43,7,9
11750,1,-246,11,42,7,8
11755,2,-252,11,43,7,7
11760,1,-249,8,43,6,6
11765,1,-247,13,44,7,4
11770,1,-248,14,43,7,4
11775,2,-246,12,45,9,4
11780,3,-248,9,44,9,4
11785,1,-246,11,44,9,3
11790,1,-240,20,43,9,2
11795,0,-246,12,44,6,1
11800,1,-245,14,45,5,-1
11805,1,-248,8,46,6,-2
11810,0,-246,9,47,5,0
11815,1,-249,10,46,4,1
11820,2,-246,12,48,4,1
11825,2,-246,10,50,3,0
11830,1,-248,11,51,3,0
11835,0,-249,12,53,1,-2
11840,1,-248,32,53,0,-2
11845,0,-250,12,55,-1,-2
11850,1,-248,9,55,-3,-2
11855,0,-251,12,56,-5,-5
11860,3,-250,10,58,-5,-6
11865,0,-245,14,58,-6,-8
11870,2,-247,12,56,-4,-6
11875,0,-247,10,55,-3,-8
11880,1,-246,9,54,-2,-6
11885,0,-247,13,52,-2,-7
11890,0,-250,7,51,-2,-9
11895,2,-248,8,49,-6,-10
11900,2,-245,7,47,-3,-8
11905,1,-250,12,47,1,-5
11910,1,-251,16,47,2,-5
11915,4,-245,5,45,4,-4
11920,3,-250,11,44,5,-3
11925,2,-247,9,43,6,-4
11930,1,-249,11,44,6,-1
11935,0,-248,10,44,7,0
11940,1,-249,12,45,8,-2
11945,1,-248,10,45,7,-4
11950,5,-252,9,45,8,-2
11955,0,-248,9,47,7,-4
11960,3,-249,12,48,7,-3
11965,1,-245,10,50,8,-6
11970,1,-250,9,53,7,-5
11975,1,-250,7,53,7,-3
11980,1,-248,9,53,7,-3
11985,2,-249,11,55,6,-5
11990,3,-250,10,56,8,-4
11995,0,-247,9,56,8,-4
