timestamp,acc_x,acc_y,acc_z,gyro_x,gyro_y,gyro_z
0,33,-229,-116,-131,67,-8
5,35,-229,-116,-129,66,-6
10,34,-227,-113,-127,67,-4
15,36,-230,-113,-127,68,-3
20,34,-227,-118,-126,68,-2
25,38,-228,-118,-125,70,-1
30,34,-224,-115,-124,70,0
35,34,-229,-116,-124,70,1
40,36,-230,-114,-122,72,0
45,32,-229,-112,-121,73,1
50,33,-226,-115,-120,73,1
55,34,-226,-112,-117,73,1
60,35,-227,-117,-116,74,2
65,36,-227,-114,-115,73,2
70,36,-229,-117,-114,73,1
75,33,-228,-115,-114,73,3
80,35,-229,-115,-113,73,3
85,34,-225,-114,-111,72,3
90,35,-227,-115,-110,73,3
95,36,-230,-113,-108,73,2
100,37,-226,-117,-107,71,2
105,33,-222,-115,-107,73,1
110,33,-223,-118,-105,72,0
115,36,-224,-115,-104,72,2
120,32,-227,-115,-104,70,1
125,35,-227,-117,-104,72,1
130,32,-225,-119,-104,72,0
135,34,-228,-117,-103,73,0
140,32,-227,-113,-103,72,-1
145,33,-226,-116,-102,72,0
150,35,-226,-117,-100,73,1
155,34,-228,-116,-98,73,2
160,33,-226,-117,-96,73,1
165,31,-226,-116,-94,75,2
170,34,-225,-122,-91,75,3
175,32,-225,-116,-89,76,0
180,32,-223,-119,-86,76,1
185,32,-225,-121,-84,75,0
190,34,-222,-114,-82,75,0
195,33,-225,-122,-80,73,-1
200,34,-226,-117,-79,74,0
205,34,-225,-117,-79,75,0
210,33,-224,-118,-78,75,-2
215,36,-226,-116,-76,75,-1
220,31,-222,-118,-74,74,-1
225,33,-226,-117,-71,74,-1
230,32,-228,-115,-68,73,-2
235,32,-223,-121,-66,73,-4
240,35,-225,-119,-63,74,-5
245,36,-223,-117,-61,73,-3
250,34,-226,-118,-58,74,-4
255,31,-222,-119,-55,74,-4
260,37,-227,-118,-54,73,-3
265,33,-224,-120,-51,75,-3
270,34,-225,-123,-50,74,-3
275,35,-225,-120,-47,74,-2
280,36,-224,-118,-48,74,-5
285,34,-225,-121,-46,75,-5
290,33,-224,-120,-47,73,-4
295,32,-223,-118,-44,74,-5
300,32,-225,-123,-45,73,-5
305,37,-225,-121,-45,73,-6
310,34,-223,-122,-44,74,-7
315,34,-221,-119,-44,74,-8
320,35,-226,-123,-44,75,-7
325,33,-224,-121,-42,74,-7
330,34,-221,-118,-40,74,-8
335,31,-224,-122,-39,73,-9
340,33,-221,-121,-37,75,-9
345,35,-226,-120,-35,76,-8
350,35,-226,-117,-32,75,-12
355,36,-223,-122,-29,74,-9
360,35,-225,-120,-28,76,-8
365,35,-221,-119,-25,76,-9
370,37,-224,-118,-23,76,-8
375,36,-226,-123,-20,76,-8
380,33,-219,-123,-19,75,-8
385,33,-224,-121,-19,74,-9
390,34,-220,-119,-16,73,-9
395,32,-221,-119,-16,73,-10
400,37,-224,-121,-17,73,-11
405,36,-223,-120,-15,73,-10
410,37,-225,-117,-15,73,-11
415,32,-225,-119,-13,74,-10
420,38,-222,-121,-13,74,-11
425,36,-227,-117,-10,73,-10
430,35,-225,-121,-9,74,-9
435,35,-222,-116,-7,73,-9
440,37,-221,-121,-5,72,-9
445,35,-221,-118,-3,72,-9
450,36,-223,-119,-1,71,-9
455,37,-223,-118,1,72,-10
460,37,-224,-119,2,71,-9
465,36,-221,-121,1,72,-9
470,35,-223,-123,-1,72,-10
475,34,-223,-119,-3,72,-11
480,33,-220,-121,-6,70,-12
485,33,-225,-121,-10,72,-12
490,35,-224,-120,-12,71,-14
495,35,-223,-121,-14,72,-13
500,34,-227,-119,-14,71,-11
505,35,-224,-117,-14,73,-11
510,34,-228,-119,-11,73,-10
515,38,-226,-124,-8,75,-11
520,32,-225,-119,-4,74,-11
525,34,-225,-116,1,76,-10
530,31,-223,-123,4,76,-10
535,34,-226,-118,8,77,-10
540,35,-226,-122,11,77,-9
545,35,-224,-123,12,77,-9
550,34,-227,-117,13,76,-9
555,36,-225,-121,15,76,-10
560,35,-225,-122,14,75,-11
565,35,-224,-116,15,74,-13
570,36,-225,-118,14,74,-13
575,36,-224,-118,14,74,-14
580,38,-223,-118,13,74,-14
585,34,-222,-116,14,74,-14
590,37,-226,-119,13,73,-14
595,37,-223,-117,13,73,-15
600,36,-225,-120,12,74,-15
605,36,-224,-121,11,72,-14
610,38,-223,-123,11,72,-14
615,35,-225,-120,11,71,-14
620,34,-225,-117,11,72,-14
625,34,-223,-121,12,71,-13
630,36,-223,-119,14,70,-13
635,33,-222,-115,13,70,-13
640,33,-226,-115,13,70,-12
645,34,-222,-120,11,69,-12
650,37,-225,-116,10,70,-12
655,36,-226,-122,8,67,-11
660,34,-225,-122,8,66,-12
665,36,-222,-122,8,66,-13
670,35,-231,-118,9,66,-14
675,32,-225,-120,10,66,-12
680,38,-223,-118,10,67,-12
685,34,-225,-120,10,68,-13
690,36,-225,-116,9,68,-13
695,36,-227,-119,9,68,-11
700,35,-226,-119,8,69,-10
705,35,-225,-118,9,70,-10
710,33,-223,-119,10,69,-10
715,38,-226,-118,10,70,-11
720,34,-225,-116,12,71,-10
725,37,-227,-121,13,69,-9
730,38,-229,-119,14,70,-8
735,41,-228,-119,15,70,-8
740,39,-227,-119,13,69,-8
745,38,-224,-120,12,70,-7
750,39,-224,-119,11,70,-6
755,39,-227,-119,10,70,-6
760,38,-227,-117,8,70,-6
765,38,-224,-115,7,72,-6
770,37,-223,-118,6,72,-6
775,38,-226,-115,7,72,-7
780,39,-224,-115,7,72,-5
785,38,-228,-119,7,70,-4
790,37,-229,-117,8,70,-3
795,38,-226,-120,9,71,-3
800,36,-225,-118,9,71,-2
805,35,-223,-115,10,70,-2
810,35,-224,-119,9,71,-3
815,38,-228,-116,9,69,-2
820,36,-225,-116,9,68,-3
825,34,-226,-117,9,69,-3
830,36,-224,-114,9,68,-2
835,37,-227,-114,8,68,-1
840,38,-228,-117,7,70,0
845,36,-226,-115,8,68,-1
850,36,-226,-120,8,70,-1
855,36,-226,-114,9,69,-2
860,36,-226,-119,7,68,-2
865,35,-227,-118,8,69,0
870,38,-225,-116,7,68,1
875,36,-227,-115,7,68,-2
880,39,-226,-120,7,69,-1
885,37,-226,-116,6,70,0
890,38,-225,-118,7,69,1
895,36,-223,-120,8,69,2
900,34,-224,-116,8,68,2
905,40,-229,-117,7,69,2
910,35,-225,-116,8,69,2
915,37,-224,-116,8,69,3
920,37,-228,-115,9,70,3
925,34,-228,-117,8,69,3
930,37,-227,-115,7,70,2
935,34,-225,-116,8,70,5
940,33,-224,-116,8,71,4
945,35,-222,-116,8,71,5
950,35,-223,-120,7,71,5
955,36,-228,-114,6,71,6
960,36,-225,-115,7,69,6
965,35,-219,-117,7,70,6
970,37,-225,-115,6,70,5
975,38,-227,-120,5,71,7
980,36,-228,-116,5,69,8
985,38,-225,-117,5,69,7
990,36,-225,-112,4,70,8
995,36,-225,-114,4,69,9
1000,36,-225,-117,5,70,9
1005,35,-231,-117,5,69,9
1010,36,-225,-118,4,70,9
1015,35,-224,-122,4,70,8
1020,36,-224,-117,5,71,8
1025,34,-228,-118,5,71,8
1030,38,-225,-118,4,71,8
1035,33,-225,-114,4,71,9
1040,33,-229,-116,4,70,8
1045,34,-226,-119,4,71,7
1050,35,-227,-117,3,71,7
1055,34,-225,-105,3,71,6
1060,38,-226,-114,4,72,8
1065,37,-230,-119,4,72,7
1070,34,-224,-114,5,71,6
1075,36,-225,-116,5,71,6
1080,34,-229,-115,6,72,6
1085,35,-228,-118,6,74,6
1090,34,-226,-117,6,73,6
1095,34,-227,-116,7,73,6
1100,37,-224,-115,7,73,7
1105,35,-227,-115,7,74,7
1110,36,-227,-116,8,73,5
1115,36,-224,-116,8,71,8
1120,33,-228,-116,8,71,7
1125,33,-226,-118,10,72,7
1130,36,-226,-114,10,70,5
1135,36,-224,-113,9,70,4
1140,37,-229,-117,8,70,2
1145,34,-225,-118,8,69,1
1150,35,-228,-118,10,69,-1
1155,35,-228,-119,8,69,-2
1160,38,-229,-114,7,67,-3
1165,35,-229,-111,7,66,-3
1170,36,-225,-118,8,67,-4
1175,35,-226,-118,7,67,-4
1180,35,-226,-115,8,68,-3
1185,33,-227,-116,8,68,-2
1190,33,-221,-118,9,69,-3
1195,35,-222,-114,12,68,-4
1200,37,-224,-115,12,68,-3
1205,36,-226,-115,15,68,-3
1210,37,-225,-113,15,67,-4
1215,38,-227,-117,15,66,-5
1220,35,-223,-113,14,66,-4
1225,37,-229,-113,14,67,-5
1230,32,-224,-118,13,66,-5
1235,33,-226,-117,11,67,-6
1240,34,-228,-114,10,66,-5
1245,35,-225,-115,10,66,-4
1250,33,-226,-115,10,67,-5
1255,34,-225,-117,11,68,-4
1260,35,-227,-112,11,67,-3
1265,36,-227,-115,15,69,-4
1270,36,-230,-115,15,68,-6
1275,34,-229,-114,18,69,-4
1280,34,-226,-113,20,69,-4
1285,36,-228,-116,22,68,-5
1290,34,-225,-116,22,68,-6
1295,33,-226,-117,22,68,-6
1300,35,-227,-113,23,68,-7
1305,37,-227,-115,23,68,-7
1310,38,-229,-116,23,69,-9
1315,35,-229,-111,23,68,-8
1320,37,-226,-114,21,69,-8
1325,38,-226,-117,21,68,-10
1330,35,-228,-115,21,66,-8
1335,35,-227,-112,20,68,-9
1340,33,-226,-115,20,66,-9
1345,38,-229,-117,20,66,-10
1350,35,-226,-117,19,67,-10
1355,35,-227,-118,17,67,-10
1360,36,-227,-115,17,66,-9
1365,35,-225,-115,18,66,-10
1370,35,-226,-116,19,66,-10
1375,38,-227,-117,18,64,-9
1380,35,-228,-115,19,65,-10
1385,37,-228,-116,18,64,-9
1390,37,-226,-113,17,64,-9
1395,36,-227,-116,16,64,-11
1400,32,-226,-114,15,63,-11
1405,35,-230,-116,16,61,-12
1410,31,-225,-113,16,64,-12
1415,32,-228,-117,17,63,-14
1420,35,-227,-116,17,63,-14
1425,34,-228,-117,19,64,-15
1430,35,-228,-114,19,63,-14
1435,36,-229,-111,18,64,-14
1440,36,-227,-116,18,64,-14
1445,34,-227,-114,19,64,-14
1450,36,-227,-114,20,65,-12
1455,35,-229,-113,23,65,-14
1460,34,-226,-112,25,66,-13
1465,36,-229,-112,27,66,-13
1470,35,-228,-117,28,65,-13
1475,37,-230,-111,29,65,-12
1480,36,-230,-113,29,65,-14
1485,36,-227,-113,28,65,-16
1490,37,-230,-111,28,65,-17
1495,35,-230,-112,30,65,-16
1500,34,-230,-111,28,62,-16
1505,33,-224,-115,28,63,-16
1510,32,-227,-114,28,62,-18
1515,38,-229,-113,28,62,-16
1520,38,-227,-113,28,62,-17
1525,38,-230,-112,27,62,-17
1530,34,-229,-111,28,62,-15
1535,35,-226,-112,28,61,-17
1540,37,-232,-114,27,60,-17
1545,34,-226,-112,27,59,-17
1550,36,-226,-111,26,61,-15
1555,36,-227,-113,27,59,-16
1560,37,-228,-111,26,59,-15
1565,38,-229,-111,26,57,-17
1570,37,-225,-111,26,56,-17
1575,37,-226,-114,27,56,-17
1580,38,-228,-114,25,55,-17
1585,34,-229,-114,25,55,-19
1590,34,-229,-112,25,55,-18
1595,37,-229,-114,25,54,-19
1600,37,-227,-111,26,52,-20
1605,36,-227,-110,26,53,-21
1610,38,-228,-111,26,53,-20
1615,36,-227,-113,27,52,-22
1620,35,-228,-111,27,52,-23
1625,35,-229,-113,27,49,-23
1630,36,-229,-110,27,50,-21
1635,37,-228,-110,30,50,-23
1640,36,-228,-115,29,51,-21
1645,36,-228,-113,30,52,-23
1650,35,-229,-114,31,50,-23
1655,36,-230,-113,31,51,-22
1660,36,-231,-111,33,50,-22
1665,33,-227,-113,33,50,-20
1670,34,-230,-114,35,50,-18
1675,38,-230,-113,35,49,-16
1680,35,-229,-113,36,50,-17
1685,35,-226,-109,37,51,-19
1690,38,-232,-107,39,50,-19
1695,37,-234,-109,40,51,-19
1700,34,-228,-107,40,51,-20
1705,42,-227,-112,42,50,-18
1710,36,-233,-109,43,51,-18
1715,38,-228,-107,44,51,-15
1720,35,-230,-112,46,51,-13
1725,37,-227,-111,45,51,-13
1730,37,-232,-113,45,51,-11
1735,41,-231,-110,47,50,-3
1740,32,-229,-109,46,53,3
1745,37,-229,-108,46,53,-5
1750,35,-229,-109,47,51,-10
1755,36,-229,-107,46,51,-11
1760,36,-230,-108,46,51,-9
1765,36,-231,-109,47,51,-8
1770,35,-229,-109,48,50,-8
1775,35,-230,-107,48,51,-6
1780,34,-230,-110,49,50,-5
1785,36,-231,-110,48,50,-5
1790,38,-228,-110,46,51,-4
1795,38,-229,-110,46,53,-2
1800,36,-231,-105,45,53,0
1805,40,-230,-112,44,54,2
1810,36,-227,-111,45,54,1
1815,34,-228,-108,44,56,2
1820,34,-224,-106,43,57,2
1825,40,-233,-111,41,60,3
1830,38,-230,-109,41,59,4
1835,39,-233,-110,40,60,6
1840,34,-231,-111,40,61,6
1845,36,-230,-109,42,63,8
1850,37,-230,-111,43,63,10
1855,36,-230,-109,43,64,11
1860,35,-232,-109,42,66,11
1865,40,-232,-109,43,66,12
1870,36,-231,-113,44,67,13
1875,34,-231,-110,46,67,16
1880,36,-231,-104,48,68,18
1885,36,-233,-112,52,69,17
1890,35,-230,-109,54,71,17
1895,38,-234,-105,54,70,17
1900,36,-230,-108,54,70,16
1905,38,-232,-106,54,71,14
1910,37,-234,-109,54,70,13
1915,35,-232,-109,53,70,12
1920,36,-231,-111,54,70,12
1925,38,-233,-106,54,70,11
1930,34,-233,-103,56,71,8
1935,37,-233,-108,59,71,10
1940,39,-230,-108,61,71,10
1945,36,-233,-107,64,72,11
1950,37,-234,-107,69,72,12
1955,37,-233,-105,73,73,13
1960,36,-231,-106,77,72,14
1965,41,-231,-105,79,73,14
1970,38,-228,-107,83,72,14
1975,36,-231,-107,86,73,13
1980,37,-232,-105,88,71,13
1985,39,-230,-107,88,70,12
1990,35,-231,-108,87,70,14
1995,35,-230,-111,85,70,14
2000,35,-232,-105,82,69,14
2005,36,-230,-105,83,69,14
2010,34,-232,-101,82,68,15
2015,37,-235,-107,81,68,16
2020,32,-232,-107,83,68,17
2025,37,-237,-103,84,68,18
2030,36,-237,-105,86,70,20
2035,36,-235,-103,90,69,21
2040,32,-234,-105,93,71,21
2045,33,-235,-105,96,70,21
2050,36,-236,-103,97,70,22
2055,33,-236,-106,98,70,22
2060,37,-236,-103,100,71,21
2065,34,-234,-106,103,69,20
2070,35,-239,-104,103,70,19
2075,35,-235,-103,104,68,20
2080,28,-235,-103,104,68,17
2085,34,-237,-103,105,68,17
2090,35,-236,-102,105,67,16
2095,34,-233,-98,105,67,19
2100,33,-233,-101,105,67,18
2105,31,-234,-99,104,68,18
2110,34,-235,-100,103,68,18
2115,34,-233,-101,102,67,19
2120,35,-236,-100,100,67,19
2125,35,-234,-105,100,67,20
2130,32,-233,-100,99,65,21
2135,34,-234,-103,100,64,21
2140,34,-234,-100,100,65,21
2145,40,-227,-102,100,64,20
2150,35,-236,-98,98,64,20
2155,33,-233,-102,97,64,20
2160,34,-235,-100,96,62,17
2165,32,-235,-101,94,62,14
2170,35,-234,-102,93,62,13
2175,31,-234,-101,92,60,13
2180,34,-236,-102,92,59,12
2185,33,-234,-103,93,59,10
2190,33,-234,-101,95,58,9
2195,30,-240,-102,96,58,8
2200,33,-236,-100,97,57,7
2205,33,-235,-98,97,56,5
2210,33,-240,-99,100,56,4
2215,34,-236,-101,102,57,5
2220,32,-238,-100,102,58,3
2225,33,-237,-99,105,57,2
2230,32,-236,-98,106,58,1
2235,32,-237,-98,107,57,-1
2240,32,-240,-99,107,57,-1
2245,31,-239,-96,107,58,-3
2250,33,-237,-99,104,58,-3
2255,32,-234,-101,104,58,-4
2260,33,-237,-97,104,58,-5
2265,32,-238,-98,103,58,-5
2270,32,-239,-100,103,59,-7
2275,34,-240,-100,103,58,-7
2280,33,-240,-99,104,58,-7
2285,32,-238,-100,105,60,-8
2290,30,-237,-100,105,59,-8
2295,32,-237,-97,106,59,-7
2300,35,-239,-95,105,58,-7
2305,40,-239,-94,107,59,-7
2310,32,-237,-98,107,57,-5
2315,33,-241,-97,107,57,-3
2320,32,-239,-94,108,57,-4
2325,32,-240,-96,109,56,-5
2330,31,-238,-97,110,54,-6
2335,32,-241,-96,110,55,-5
2340,32,-239,-96,112,54,-6
2345,31,-237,-97,113,53,-5
2350,33,-239,-95,114,52,-5
2355,33,-240,-94,115,52,-4
2360,33,-243,-92,115,52,-5
2365,31,-241,-92,116,51,-2
2370,33,-239,-93,117,50,-3
2375,30,-241,-92,116,50,-2
2380,32,-241,-87,116,49,-2
2385,34,-240,-92,114,48,-3
2390,31,-240,-91,114,47,-2
2395,31,-241,-94,111,47,-2
2400,33,-240,-95,110,47,-4
2405,33,-237,-94,109,47,-2
2410,33,-241,-93,108,46,-1
2415,32,-241,-94,107,46,-1
2420,34,-240,-92,106,46,0
2425,32,-237,-91,105,45,0
2430,34,-240,-92,105,44,1
2435,36,-242,-94,105,43,1
2440,33,-237,-90,105,43,2
2445,32,-240,-91,105,43,4
2450,35,-243,-92,104,43,3
2455,33,-242,-88,107,41,1
2460,34,-242,-93,108,41,-1
2465,34,-242,-91,107,39,-4
2470,31,-241,-87,109,38,-6
2475,34,-241,-90,110,35,-4
2480,32,-241,-92,111,35,-4
2485,33,-244,-93,114,34,-4
2490,34,-243,-89,116,31,-4
2495,31,-240,-87,118,28,-3
2500,33,-241,-87,121,26,-4
2505,32,-241,-91,121,24,-4
2510,31,-241,-89,121,22,-4
2515,35,-242,-86,122,20,-6
2520,31,-241,-90,121,17,-7
2525,32,-241,-86,121,16,-6
2530,32,-242,-90,120,14,-5
2535,32,-241,-89,118,16,-5
2540,31,-242,-88,117,14,-5
2545,30,-241,-86,116,13,-4
2550,31,-241,-90,111,12,-3
2555,35,-240,-86,107,12,-2
2560,32,-238,-88,102,11,-2
2565,34,-238,-86,97,12,-2
2570,35,-240,-91,93,12,1
2575,32,-239,-87,90,14,2
2580,34,-239,-86,86,14,3
2585,38,-237,-90,82,14,3
2590,34,-241,-85,77,15,4
2595,33,-239,-86,72,16,4
2600,33,-242,-83,68,16,6
2605,34,-241,-81,63,17,5
2610,33,-240,-84,59,16,5
2615,33,-241,-85,57,18,6
2620,32,-240,-85,53,16,4
2625,30,-242,-81,51,18,2
2630,32,-240,-83,50,19,-1
2635,38,-244,-80,50,16,-6
2640,35,-244,-84,49,15,-7
2645,26,-243,-80,50,15,-4
2650,32,-244,-81,51,17,-6
2655,33,-243,-82,52,15,-15
2660,32,-242,-86,54,15,-24
2665,34,-244,-83,54,13,-27
2670,30,-243,-84,56,11,-31
2675,33,-243,-84,57,12,-33
2680,32,-244,-82,56,13,-35
2685,44,-243,-85,55,12,-30
2690,22,-245,-84,53,12,7
2695,36,-246,-82,43,19,-26
2700,34,-244,-83,42,18,-51
2705,34,-244,-83,41,18,-58
2710,34,-245,-83,44,17,-59
2715,33,-241,-88,42,17,-58
2720,36,-243,-87,40,18,-57
2725,41,-242,-91,40,18,-43
2730,33,-244,-82,44,19,-3
2735,28,-242,-77,37,29,-26
2740,41,-244,-89,36,21,-72
2745,34,-243,-88,36,17,-88
2750,38,-242,-85,37,10,-98
2755,36,-244,-82,37,7,-103
2760,35,-244,-86,36,6,-108
2765,34,-244,-87,36,5,-112
2770,36,-248,-83,39,4,-115
2775,34,-248,-86,43,3,-119
2780,37,-249,-85,46,0,-129
2785,35,-242,-80,51,-2,-142
2790,36,-246,-86,55,-1,-153
2795,35,-247,-84,57,-2,-159
2800,52,-240,-89,59,-4,-159
2805,15,-249,-85,64,-8,-93
2810,28,-247,-82,55,9,-123
2815,40,-245,-85,59,3,-173
2820,35,-242,-84,67,1,-189
2825,36,-245,-83,76,-1,-193
2830,33,-246,-86,84,0,-192
2835,31,-242,-83,90,1,-187
2840,34,-247,-85,98,4,-183
2845,33,-245,-89,104,6,-180
2850,34,-245,-87,107,11,-175
2855,35,-244,-86,111,13,-159
2860,21,-248,-87,115,7,-91
2865,12,-248,-77,108,30,-99
2870,31,-249,-83,105,27,-152
2875,32,-246,-80,108,29,-164
2880,29,-247,-82,116,30,-164
2885,27,-250,-84,123,31,-162
2890,30,-248,-79,128,35,-158
2895,59,-241,-81,133,37,-147
2900,14,-255,-81,144,31,-46
2905,9,-252,-80,135,58,-44
2910,34,-249,-78,121,58,-128
2915,33,-248,-79,118,57,-167
2920,31,-248,-80,122,52,-180
2925,31,-251,-78,129,49,-185
2930,69,-238,-85,133,44,-175
2935,12,-254,-81,146,40,-52
2940,12,-253,-75,138,60,-76
2945,30,-250,-73,130,61,-171
2950,35,-250,-76,137,52,-226
2955,35,-250,-74,150,48,-243
2960,49,-245,-74,160,43,-249
2965,36,-252,-78,174,22,-145
2970,18,-252,-74,169,49,-102
2975,17,-253,-78,156,57,-162
2980,33,-250,-72,150,57,-246
2985,36,-247,-73,157,52,-283
2990,37,-248,-75,165,52,-292
2995,75,-242,-90,169,31,-238
3000,19,-246,-72,171,50,-124
3005,21,-250,-74,150,63,-151
3010,23,-245,-76,133,73,-246
3015,37,-246,-76,130,64,-322
3020,46,-248,-73,132,60,-347
3025,79,-238,-86,136,43,-305
3030,22,-249,-79,136,52,-179
3035,24,-246,-72,113,68,-191
3040,30,-249,-74,102,69,-240
3045,28,-247,-75,100,68,-277
3050,33,-249,-73,101,67,-316
3055,47,-246,-80,111,53,-321
3060,38,-250,-76,118,53,-280
3065,29,-250,-75,118,60,-269
3070,30,-247,-78,119,63,-295
3075,40,-249,-81,126,57,-315
3080,36,-251,-79,137,50,-300
3085,29,-251,-74,143,58,-290
3090,29,-250,-76,146,65,-299
3095,34,-247,-75,144,68,-335
3100,38,-250,-83,154,56,-328
3105,32,-250,-79,161,67,-313
3110,37,-250,-78,162,70,-312
3115,31,-253,-72,165,72,-310
3120,42,-249,-74,166,77,-331
3125,26,-248,-71,179,73,-328
3130,43,-244,-71,186,81,-354
3135,39,-248,-75,201,80,-344
3140,36,-252,-71,208,84,-339
3145,39,-249,-75,213,91,-340
3150,38,-246,-74,224,98,-350
3155,40,-248,-73,237,102,-358
3160,39,-246,-69,249,109,-374
3165,41,-244,-68,262,114,-391
3170,48,-247,-70,277,117,-406
3175,49,-246,-70,288,115,-411
3180,39,-248,-68,298,125,-430
3185,53,-244,-64,304,123,-466
3190,49,-247,-65,317,111,-464
3195,52,-246,-64,320,111,-473
3200,50,-245,-59,322,108,-488
3205,55,-243,-67,322,99,-490
3210,48,-248,-64,327,92,-483
3215,47,-249,-62,326,94,-496
3220,53,-247,-64,329,92,-521
3225,47,-248,-61,338,85,-537
3230,60,-244,-59,340,87,-564
3235,55,-251,-62,350,79,-561
3240,45,-249,-58,355,87,-575
3245,66,-244,-60,359,90,-619
3250,69,-241,-64,373,75,-599
3255,60,-245,-63,380,76,-562
3260,51,-247,-63,374,83,-551
3265,60,-250,-60,370,87,-574
3270,70,-245,-58,370,80,-601
3275,68,-250,-56,374,69,-582
3280,60,-247,-53,372,73,-575
3285,56,-255,-54,368,69,-593
3290,57,-249,-52,363,78,-659
3295,72,-249,-50,373,73,-710
3300,72,-250,-51,390,66,-721
3305,75,-251,-52,405,61,-716
3310,73,-250,-54,416,56,-710
3315,74,-244,-52,423,53,-702
3320,130,-233,-57,430,33,-645
3325,74,-247,-58,442,33,-465
3330,57,-253,-49,419,68,-430
3335,68,-249,-46,406,68,-487
3340,62,-254,-43,404,70,-570
3345,77,-249,-37,414,69,-680
3350,81,-242,-46,448,59,-721
3355,83,-241,-47,471,59,-715
3360,81,-243,-45,484,63,-695
3365,82,-239,-46,486,68,-674
3370,82,-239,-44,480,69,-658
3375,85,-243,-47,469,72,-652
3380,87,-243,-43,458,68,-650
3385,90,-242,-41,449,64,-649
3390,148,-225,-46,440,47,-609
3395,86,-242,-45,439,43,-404
3400,70,-250,-40,408,80,-366
3405,65,-254,-33,395,74,-453
3410,77,-249,-32,394,65,-623
3415,96,-247,-39,427,34,-746
3420,93,-242,-38,469,22,-785
3425,94,-241,-37,505,21,-790
3430,90,-242,-44,529,19,-788
3435,95,-241,-41,539,15,-791
3440,97,-241,-36,542,10,-804
3445,95,-243,-39,541,5,-820
3450,160,-215,-22,540,-7,-828
3455,131,-231,-48,548,-57,-610
3460,79,-251,-28,517,7,-507
3465,81,-252,-33,498,3,-552
3470,76,-253,-31,489,-9,-665
3475,81,-253,-25,490,-21,-844
3480,106,-241,-33,524,-64,-957
3485,109,-238,-31,556,-79,-978
3490,110,-239,-31,571,-87,-961
3495,106,-238,-28,566,-94,-944
3500,108,-232,-30,544,-106,-929
3505,110,-236,-25,510,-119,-924
3510,112,-236,-25,478,-132,-922
3515,117,-233,-21,449,-145,-923
3520,120,-237,-21,428,-158,-926
3525,120,-233,-17,407,-169,-927
3530,123,-237,-19,389,-178,-928
3535,123,-232,-18,373,-187,-925
3540,200,-189,9,358,-196,-916
3545,140,-221,-27,351,-234,-662
3550,94,-247,-19,314,-164,-545
3555,79,-254,-14,296,-166,-639
3560,133,-234,-12,293,-191,-851
3565,140,-232,-10,314,-214,-938
3570,137,-230,-16,333,-212,-936
3575,136,-226,-12,346,-212,-914
3580,137,-225,-14,343,-213,-897
3585,137,-227,-16,327,-214,-885
3590,138,-229,-17,306,-213,-874
3595,140,-227,-18,286,-211,-860
3600,135,-224,-16,271,-207,-850
3605,138,-227,-16,262,-202,-841
3610,140,-224,-15,253,-195,-834
3615,141,-226,-13,247,-188,-829
3620,143,-223,-17,243,-181,-823
3625,140,-219,-18,240,-173,-819
3630,142,-219,-18,237,-167,-816
3635,147,-220,-20,233,-157,-813
3640,145,-218,-21,229,-149,-809
3645,145,-219,-19,226,-137,-804
3650,152,-215,-16,219,-126,-801
3655,147,-213,-15,209,-117,-797
3660,151,-215,-15,200,-106,-793
3665,149,-209,-19,189,-96,-789
3670,153,-211,-19,177,-86,-784
3675,149,-208,-17,162,-77,-782
3680,152,-206,-17,147,-68,-780
3685,151,-205,-19,128,-58,-778
3690,151,-200,-16,109,-53,-777
3695,157,-201,-12,89,-45,-773
3700,160,-202,-15,73,-40,-770
3705,158,-206,-16,64,-32,-767
3710,161,-204,-14,60,-26,-764
3715,163,-203,-17,60,-28,-754
3720,175,-197,-20,63,-29,-729
3725,146,-214,-16,70,-15,-693
3730,165,-209,-19,89,-8,-743
3735,167,-203,-17,114,-13,-769
3740,164,-208,-20,136,-10,-776
3745,164,-208,-18,164,-8,-781
3750,160,-210,-24,197,-4,-787
3755,162,-209,-28,231,2,-793
3760,207,-191,-32,274,-7,-736
3765,146,-211,-32,322,18,-561
3770,134,-221,-23,338,46,-570
3775,147,-213,-32,368,28,-649
3780,135,-208,-28,383,37,-745
3785,153,-205,-22,406,23,-820
3790,153,-204,-25,427,13,-839
3795,193,-164,-16,432,-3,-803
3800,156,-189,-31,445,-22,-564
3805,139,-198,-19,381,9,-447
3810,138,-201,-14,317,-9,-464
3815,146,-198,-10,247,-37,-552
3820,148,-197,-17,182,-72,-642
3825,167,-193,-13,123,-106,-720
3830,172,-186,-17,88,-136,-744
3835,175,-190,-15,68,-148,-731
3840,174,-191,-15,49,-155,-713
3845,215,-170,-23,38,-173,-644
3850,179,-186,-21,56,-171,-477
3855,166,-195,-12,34,-149,-433
3860,166,-197,-10,30,-158,-490
3865,179,-196,-6,40,-173,-585
3870,177,-198,-10,57,-182,-668
3875,183,-193,-8,75,-189,-745
3880,188,-189,-17,102,-195,-778
3885,192,-180,-16,121,-185,-784
3890,225,-163,-24,134,-185,-699
3895,194,-170,-23,150,-178,-560
3900,179,-175,-14,111,-144,-528
3905,175,-181,-13,69,-140,-562
3910,177,-184,-17,24,-150,-647
3915,192,-171,-17,-16,-166,-748
3920,194,-170,-18,-34,-185,-784
3925,194,-173,-22,-49,-188,-781
3930,195,-174,-23,-60,-190,-767
3935,208,-161,-18,-70,-196,-751
3940,208,-162,-32,-56,-211,-652
3945,183,-175,-27,-70,-196,-568
3950,189,-170,-28,-102,-190,-587
3955,184,-177,-26,-114,-205,-623
3960,192,-174,-22,-130,-211,-680
3965,194,-167,-24,-137,-229,-712
3970,192,-168,-28,-134,-236,-712
3975,194,-171,-26,-130,-232,-700
3980,199,-165,-25,-125,-228,-684
3985,201,-169,-28,-107,-224,-639
3990,196,-166,-35,-93,-220,-586
3995,192,-176,-27,-90,-206,-564
4000,184,-178,-21,-92,-194,-595
4005,195,-175,-22,-83,-202,-644
4010,196,-173,-25,-60,-212,-668
4015,198,-174,-26,-31,-211,-673
4020,201,-164,-28,-5,-207,-677
4025,203,-165,-27,27,-200,-650
4030,202,-168,-28,53,-191,-618
4035,199,-171,-27,68,-192,-598
4040,187,-172,-30,75,-182,-602
4045,194,-174,-28,69,-173,-647
4050,195,-167,-25,64,-180,-710
4055,202,-167,-30,67,-186,-750
4060,204,-155,-25,73,-184,-767
4065,203,-157,-30,91,-180,-749
4070,201,-155,-33,103,-174,-734
4075,201,-150,-34,111,-178,-719
4080,198,-152,-36,114,-172,-712
4085,193,-153,-33,105,-163,-738
4090,197,-151,-32,93,-159,-788
4095,198,-145,-28,85,-157,-829
4100,203,-138,-33,92,-162,-829
4105,203,-135,-36,103,-160,-808
4110,205,-138,-35,103,-165,-790
4115,205,-140,-36,102,-168,-776
4120,202,-140,-34,90,-161,-782
4125,200,-139,-38,77,-158,-801
4130,203,-142,-33,68,-161,-820
4135,207,-137,-33,61,-165,-836
4140,207,-134,-34,64,-174,-832
4145,207,-140,-36,72,-174,-816
4150,198,-142,-40,70,-165,-820
4155,201,-139,-38,59,-153,-838
4160,207,-140,-38,58,-153,-842
4165,204,-136,-39,60,-153,-836
4170,200,-141,-46,58,-148,-836
4175,204,-139,-41,46,-147,-866
4180,204,-134,-43,40,-151,-895
4185,202,-136,-44,34,-157,-920
4190,218,-135,-41,20,-157,-947
4195,219,-127,-42,2,-155,-965
4200,227,-121,-46,-6,-157,-948
4205,230,-123,-52,-21,-159,-924
4210,232,-122,-56,-42,-159,-907
4215,232,-120,-61,-67,-146,-897
4220,241,-115,-63,-84,-132,-882
4225,246,-111,-65,-92,-111,-849
4230,252,-112,-68,-101,-81,-805
4235,250,-112,-71,-110,-42,-754
4240,256,-112,-72,-121,4,-700
4245,257,-114,-70,-125,54,-646
4250,260,-111,-77,-123,106,-594
4255,261,-113,-77,-115,156,-545
4260,263,-108,-71,-103,207,-498
4265,267,-109,-66,-90,260,-454
4270,265,-104,-67,-78,311,-413
4275,265,-102,-66,-70,359,-377
4280,266,-96,-63,-64,401,-344
4285,266,-94,-61,-63,438,-314
4290,266,-92,-54,-62,470,-287
4295,264,-93,-54,-64,493,-264
4300,265,-91,-50,-65,511,-249
4305,267,-89,-47,-67,524,-233
4310,265,-87,-44,-74,534,-224
4315,265,-87,-42,-85,544,-216
4320,262,-83,-41,-105,550,-210
4325,260,-78,-41,-132,557,-212
4330,261,-79,-41,-164,567,-216
4335,257,-76,-40,-202,579,-228
4340,254,-74,-39,-240,593,-244
4345,256,-74,-41,-277,610,-257
4350,251,-72,-42,-318,633,-270
4355,254,-73,-42,-357,659,-282
4360,253,-75,-44,-393,685,-289
4365,250,-76,-41,-421,715,-297
4370,251,-76,-41,-437,746,-306
4375,249,-79,-39,-443,771,-316
4380,249,-82,-43,-436,801,-320
4385,246,-86,-40,-418,832,-326
4390,244,-88,-37,-390,863,-337
4395,247,-92,-38,-354,892,-346
4400,246,-93,-36,-309,926,-354
4405,245,-98,-35,-260,959,-359
4410,243,-99,-29,-212,988,-368
4415,244,-102,-26,-165,1011,-381
4420,246,-105,-25,-121,1032,-386
4425,240,-108,-24,-84,1053,-388
4430,244,-110,-21,-64,1075,-397
4435,243,-112,-26,-60,1096,-401
4440,240,-112,-21,-71,1115,-402
4445,242,-115,-22,-91,1134,-406
4450,243,-112,-25,-115,1152,-409
4455,241,-116,-18,-136,1164,-411
4460,240,-119,-23,-144,1174,-417
4465,242,-119,-20,-142,1177,-426
4470,242,-120,-21,-130,1175,-439
4475,245,-118,-22,-108,1169,-456
4480,242,-116,-22,-82,1163,-469
4485,241,-117,-20,-50,1155,-479
4490,237,-117,-14,-11,1148,-491
4495,237,-117,-20,34,1140,-507
4500,238,-112,-12,73,1131,-516
4505,232,-108,-13,107,1127,-524
4510,235,-105,-9,129,1117,-529
4515,230,-104,0,145,1103,-534
4520,227,-101,0,152,1086,-538
4525,225,-102,2,152,1067,-539
4530,228,-97,3,141,1051,-536
4535,226,-101,3,120,1034,-525
4540,224,-102,2,90,1020,-508
4545,225,-103,0,52,1004,-487
4550,229,-111,4,22,987,-470
4555,230,-116,8,17,976,-449
4560,231,-114,8,27,966,-434
4565,233,-117,11,44,954,-423
4570,238,-115,11,63,941,-418
4575,243,-112,11,88,932,-413
4580,248,-112,13,114,928,-397
4585,245,-106,13,145,926,-386
4590,248,-105,17,180,919,-381
4595,257,-95,13,210,905,-380
4600,253,-98,20,243,893,-375
4605,257,-88,23,274,884,-388
4610,261,-80,22,295,870,-376
4615,256,-79,23,309,863,-354
4620,257,-68,27,313,855,-355
4625,256,-71,24,300,832,-333
4630,263,-65,26,277,820,-321
4635,259,-63,35,239,805,-285
4640,250,-63,35,201,796,-262
4645,252,-58,39,158,790,-250
4650,252,-54,39,113,787,-218
4655,248,-51,44,73,793,-188
4660,241,-49,48,37,799,-164
4665,243,-53,59,2,805,-144
4670,239,-51,59,-33,818,-126
4675,243,-46,64,-70,835,-111
4680,239,-52,67,-108,848,-93
4685,237,-50,76,-140,859,-110
4690,239,-49,82,-171,864,-123
4695,249,-44,84,-200,868,-113
4700,250,-46,90,-217,867,-88
4705,239,-48,88,-220,858,-82
4710,225,-50,85,-208,853,-116
4715,251,-39,93,-198,842,-184
4720,246,-40,89,-194,818,-196
4725,251,-36,92,-182,805,-211
4730,256,-38,95,-174,784,-211
4735,254,-41,92,-164,763,-192
4740,252,-45,95,-152,749,-189
4745,237,-49,96,-129,738,-220
4750,250,-43,103,-110,721,-283
4755,255,-41,106,-93,697,-295
4760,257,-39,107,-76,681,-261
4765,247,-40,102,-56,680,-210
4770,243,-41,101,-37,683,-190
4775,222,-46,99,-23,676,-194
4780,237,-35,105,-6,664,-253
4785,243,-31,103,-10,635,-250
4790,242,-34,102,-10,611,-202
4795,235,-37,105,-1,597,-163
4800,228,-42,106,12,586,-145
4805,231,-35,109,29,571,-180
4810,245,-29,108,27,532,-179
4815,239,-35,105,33,491,-141
4820,239,-38,108,58,456,-118
4825,225,-45,107,95,424,-110
4830,234,-34,113,145,399,-153
4835,237,-31,112,168,368,-147
4840,236,-35,116,184,348,-105
4845,229,-30,114,207,333,-78
4850,224,-31,118,223,320,-65
4855,225,-28,119,229,306,-56
4860,221,-25,116,227,295,-47
4865,225,-29,116,220,283,-40
4870,228,-31,119,209,273,-28
4875,226,-26,118,198,257,-15
4880,224,-29,120,184,243,-3
4885,225,-28,118,172,229,8
4890,225,-27,118,156,211,18
4895,223,-31,115,139,189,29
4900,230,-32,115,119,167,39
4905,230,-32,115,97,144,50
4910,232,-37,115,76,123,64
4915,230,-36,109,59,103,73
4920,233,-37,110,45,84,84
4925,234,-40,107,30,65,93
4930,236,-43,108,18,45,99
4935,235,-43,106,7,23,106
4940,239,-43,107,0,1,115
4945,238,-46,106,-6,-21,123
4950,238,-48,103,-8,-42,133
4955,240,-49,103,-6,-67,140
4960,238,-52,102,0,-91,147
4965,241,-54,103,11,-115,153
4970,242,-60,103,23,-135,160
4975,239,-60,101,36,-152,163
4980,235,-65,95,49,-166,163
4985,240,-61,97,67,-178,163
4990,239,-64,96,84,-189,161
4995,241,-64,92,103,-192,157
5000,237,-65,94,118,-197,154
5005,240,-64,95,130,-199,150
5010,243,-66,91,140,-200,147
5015,240,-64,91,146,-199,144
5020,239,-62,85,150,-199,142
5025,242,-59,84,151,-197,142
5030,245,-58,79,148,-195,145
5035,243,-62,82,141,-191,149
5040,245,-61,79,132,-189,152
5045,248,-63,78,121,-185,158
5050,244,-60,77,111,-184,162
5055,248,-62,73,101,-182,167
5060,246,-63,75,93,-179,169
5065,247,-65,72,89,-181,172
5070,250,-65,72,88,-180,172
5075,249,-65,66,87,-181,169
5080,251,-65,65,89,-182,164
5085,251,-67,67,91,-184,157
5090,249,-71,63,92,-185,152
5095,249,-65,64,97,-183,148
5100,253,-65,61,99,-181,142
5105,256,-66,62,98,-178,141
5110,252,-66,63,98,-173,137
5115,255,-66,62,98,-168,133
5120,253,-67,60,93,-162,130
5125,255,-69,57,86,-156,126
5130,255,-66,58,79,-145,121
5135,254,-67,59,71,-131,118
5140,254,-69,59,62,-117,113
5145,255,-70,59,58,-102,110
5150,252,-70,61,57,-85,104
5155,252,-72,56,57,-70,96
5160,254,-75,57,55,-55,89
5165,256,-74,62,53,-38,79
5170,254,-76,58,51,-20,69
5175,253,-73,61,45,-2,60
5180,253,-72,60,40,18,52
5185,253,-75,58,34,37,43
5190,253,-73,62,27,58,37
5195,251,-77,61,21,76,29
5200,251,-78,59,15,95,18
5205,250,-77,60,9,112,10
5210,249,-78,62,3,128,-1
5215,248,-77,60,-3,142,-10
5220,250,-77,60,-10,155,-17
5225,246,-79,57,-19,166,-25
5230,240,-74,56,-27,175,-31
5235,240,-79,58,-37,182,-33
5240,246,-81,63,-41,190,-36
5245,240,-79,66,-43,202,-39
5250,241,-80,65,-40,214,-43
5255,239,-82,69,-34,230,-46
5260,243,-82,69,-26,239,-46
5265,247,-79,69,-21,240,-50
5270,246,-75,65,-21,236,-53
5275,248,-76,62,-25,228,-60
5280,248,-75,68,-28,219,-69
5285,246,-74,64,-30,215,-80
5290,248,-76,67,-29,215,-91
5295,245,-72,65,-27,215,-102
5300,248,-71,66,-23,219,-109
5305,244,-76,67,-18,225,-115
5310,245,-71,67,-15,229,-120
5315,248,-71,67,-16,237,-122
5320,247,-71,67,-15,244,-126
5325,247,-72,65,-16,253,-127
5330,248,-70,67,-17,264,-128
5335,245,-72,65,-22,275,-128
5340,246,-73,62,-25,285,-126
5345,246,-73,65,-30,295,-125
5350,245,-75,68,-35,307,-123
5355,245,-74,67,-40,319,-121
5360,245,-74,74,-40,331,-118
5365,243,-78,72,-38,343,-119
5370,244,-77,73,-32,355,-117
5375,246,-77,77,-22,368,-116
5380,245,-78,77,-7,379,-119
5385,246,-78,76,10,390,-118
5390,244,-77,80,29,402,-117
5395,247,-77,83,50,412,-117
5400,243,-74,82,73,421,-115
5405,247,-75,87,96,429,-113
5410,248,-77,86,118,438,-108
5415,245,-71,89,140,444,-102
5420,246,-73,88,158,447,-97
5425,249,-74,89,175,447,-91
5430,247,-71,92,188,445,-85
5435,245,-70,93,200,446,-78
5440,244,-67,95,210,446,-71
5445,246,-68,92,217,445,-64
5450,246,-67,93,220,443,-57
5455,250,-67,97,221,439,-48
5460,248,-64,95,222,439,-40
5465,247,-62,96,222,437,-30
5470,247,-64,98,220,435,-21
5475,246,-60,94,218,434,-12
5480,247,-59,94,215,431,-2
5485,248,-61,97,213,427,5
5490,244,-61,95,212,423,13
5495,244,-56,97,210,420,20
5500,246,-57,95,211,417,27
5505,239,-56,94,212,414,31
5510,242,-56,93,214,412,37
5515,238,-56,94,218,411,41
5520,237,-57,95,225,408,44
5525,237,-57,99,232,405,44
5530,235,-53,101,242,404,45
5535,234,-55,103,253,402,46
5540,233,-54,106,266,399,48
5545,232,-53,101,281,396,47
5550,235,-55,104,296,393,48
5555,234,-55,106,312,391,47
5560,232,-57,107,327,389,48
5565,232,-56,112,342,387,47
5570,232,-59,114,355,384,43
5575,232,-56,111,368,381,40
5580,230,-52,113,380,378,40
5585,231,-53,108,390,374,38
5590,229,-53,117,400,371,35
5595,234,-55,117,409,369,34
5600,235,-53,124,417,367,38
5605,230,-57,122,424,365,35
5610,232,-53,124,430,361,34
5615,230,-53,123,434,355,35
5620,234,-53,128,433,348,31
5625,233,-49,124,430,339,28
5630,237,-51,125,426,330,24
5635,238,-48,121,418,320,22
5640,237,-50,122,409,312,25
5645,238,-48,121,397,305,26
5650,238,-51,120,386,295,29
5655,243,-53,116,376,285,31
5660,242,-47,118,364,278,28
5665,238,-51,120,353,272,28
5670,240,-48,122,342,264,32
5675,238,-51,119,332,255,34
5680,239,-49,120,324,246,38
5685,236,-46,115,318,239,42
5690,237,-47,120,310,234,49
5695,234,-43,119,299,228,51
5700,236,-40,118,289,226,53
5705,234,-44,121,278,221,54
5710,234,-40,117,269,215,59
5715,232,-39,118,262,212,63
5720,232,-39,116,253,209,70
5725,233,-40,118,249,206,72
5730,229,-42,112,241,207,71
5735,230,-42,114,235,209,74
5740,229,-49,118,227,209,72
5745,227,-41,115,217,211,71
5750,228,-45,111,205,215,68
5755,228,-42,113,193,220,68
5760,227,-44,112,177,225,66
5765,227,-42,113,159,234,66
5770,224,-42,110,142,241,67
5775,224,-41,115,125,251,67
5780,226,-45,114,108,259,65
5785,223,-45,115,95,268,64
5790,222,-52,121,82,275,63
5795,227,-49,118,75,283,60
5800,226,-50,118,68,286,60
5805,226,-52,121,68,288,59
5810,225,-50,123,71,288,58
5815,227,-55,123,76,286,55
5820,223,-53,123,82,282,54
5825,223,-53,124,90,276,51
5830,223,-55,125,96,269,48
5835,225,-55,129,100,261,44
5840,228,-56,131,102,252,40
5845,223,-54,129,102,242,33
5850,222,-52,129,99,230,28
5855,223,-51,131,95,220,21
5860,225,-51,133,88,209,15
5865,222,-49,127,81,200,8
5870,224,-51,130,69,188,4
5875,225,-54,134,54,178,-1
5880,224,-48,130,36,166,-8
5885,223,-52,131,18,156,-13
5890,220,-49,129,-2,147,-18
5895,223,-52,134,-23,136,-22
5900,222,-49,131,-43,127,-26
5905,220,-50,129,-66,120,-31
5910,220,-50,133,-87,110,-35
5915,222,-52,132,-109,101,-41
5920,219,-52,131,-130,90,-45
5925,222,-53,135,-148,82,-51
5930,221,-53,129,-166,73,-54
5935,220,-53,135,-181,62,-58
5940,218,-53,132,-190,53,-61
5945,218,-53,134,-200,44,-63
5950,218,-54,134,-208,34,-66
5955,222,-54,131,-216,26,-70
5960,220,-57,134,-224,18,-74
5965,216,-57,133,-227,10,-78
5970,220,-58,132,-229,4,-83
5975,218,-56,132,-227,-5,-87
5980,218,-59,130,-223,-14,-92
5985,216,-55,128,-219,-22,-95
5990,217,-58,127,-214,-29,-97
5995,213,-59,130,-205,-36,-99
6000,213,-58,132,-196,-44,-100
6005,215,-57,130,-187,-50,-97
6010,213,-55,135,-175,-54,-94
6015,213,-58,134,-164,-60,-92
6020,218,-60,134,-153,-64,-89
6025,216,-57,131,-142,-72,-86
6030,216,-58,132,-133,-78,-87
6035,217,-60,132,-125,-86,-85
6040,213,-55,129,-118,-93,-86
6045,218,-57,128,-113,-103,-87
6050,219,-59,131,-109,-112,-88
6055,219,-58,129,-106,-123,-89
6060,223,-56,127,-105,-137,-88
6065,223,-60,128,-106,-151,-91
6070,226,-56,127,-106,-163,-93
6075,236,-61,133,-111,-177,-91
6080,229,-63,120,-115,-188,-92
6085,234,-51,133,-120,-200,-94
6090,227,-54,128,-127,-211,-93
6095,233,-57,134,-135,-221,-94
6100,233,-62,129,-142,-230,-95
6105,234,-66,130,-153,-242,-95
6110,228,-54,130,-164,-250,-94
6115,228,-60,125,-175,-259,-94
6120,230,-58,126,-185,-268,-95
6125,229,-61,125,-195,-274,-96
6130,226,-60,122,-201,-283,-96
6135,228,-58,118,-206,-289,-96
6140,228,-59,119,-209,-296,-97
6145,237,-59,105,-212,-297,-101
6150,225,-51,113,-215,-302,-102
6155,239,-50,95,-215,-304,-103
6160,240,-72,112,-214,-305,-108
6165,234,-74,122,-212,-306,-111
6170,230,-57,107,-210,-306,-114
6175,245,-69,113,-207,-305,-117
6180,230,-51,94,-205,-305,-120
6185,242,-48,110,-202,-304,-122
6190,238,-54,108,-199,-302,-124
6195,227,-57,110,-196,-299,-126
6200,237,-57,103,-193,-298,-129
6205,236,-53,104,-193,-295,-131
6210,237,-51,103,-191,-293,-134
6215,237,-51,102,-192,-289,-137
6220,235,-48,100,-195,-288,-139
6225,240,-49,94,-199,-285,-140
6230,234,-53,101,-205,-284,-140
6235,244,-55,111,-209,-285,-140
6240,237,-42,89,-215,-284,-142
6245,247,-71,109,-217,-285,-145
6250,240,-47,100,-220,-286,-145
6255,238,-41,105,-222,-288,-145
6260,245,-49,94,-225,-292,-147
6265,242,-44,101,-228,-292,-146
6270,234,-57,114,-230,-293,-146
6275,244,-49,101,-230,-295,-146
6280,244,-45,101,-229,-297,-143
6285,243,-45,99,-231,-299,-143
6290,245,-49,95,-232,-301,-141
6295,244,-43,106,-233,-300,-142
6300,242,-47,98,-233,-302,-141
6305,249,-44,93,-236,-302,-141
6310,244,-52,86,-239,-302,-139
6315,251,-47,95,-244,-303,-138
6320,249,-45,91,-251,-301,-136
6325,244,-40,92,-255,-298,-133
6330,251,-39,91,-261,-298,-131
6335,246,-40,88,-269,-295,-129
6340,250,-39,97,-275,-294,-125
6345,249,-36,90,-281,-293,-123
6350,235,-40,78,-287,-293,-122
6355,248,-44,86,-291,-291,-118
6360,250,-43,87,-295,-292,-114
6365,249,-43,86,-296,-291,-111
6370,249,-45,85,-296,-291,-110
6375,243,-50,97,-295,-289,-111
6380,252,-47,90,-295,-287,-111
6385,252,-43,95,-291,-286,-112
6390,258,-48,87,-287,-285,-115
6395,245,-41,85,-281,-284,-115
6400,255,-41,87,-276,-285,-118
6405,242,-51,87,-270,-285,-118
6410,250,-51,76,-266,-285,-119
6415,249,-45,74,-260,-286,-118
6420,261,-50,73,-254,-285,-118
6425,245,-48,78,-250,-285,-118
6430,249,-51,79,-244,-286,-118
6435,249,-49,81,-238,-286,-119
6440,250,-52,79,-233,-287,-119
6445,247,-52,77,-227,-287,-119
6450,246,-38,84,-222,-290,-119
6455,255,-43,71,-214,-291,-117
6460,249,-48,83,-206,-290,-114
6465,248,-47,70,-200,-289,-113
6470,252,-48,64,-196,-288,-111
6475,249,-49,73,-192,-287,-108
6480,254,-53,70,-189,-283,-105
6485,255,-43,77,-187,-281,-104
6490,256,-46,69,-186,-277,-102
6495,257,-50,68,-186,-273,-97
6500,252,-47,73,-188,-268,-93
6505,254,-56,60,-189,-263,-89
6510,251,-44,68,-191,-258,-85
6515,256,-46,70,-191,-253,-81
6520,255,-49,65,-191,-245,-76
6525,255,-47,65,-189,-239,-70
6530,259,-51,65,-187,-232,-66
6535,246,-57,62,-183,-227,-60
6540,258,-40,63,-178,-220,-57
6545,261,-68,66,-172,-213,-53
6550,257,-49,61,-166,-208,-52
6555,256,-46,60,-158,-201,-49
6560,258,-52,63,-152,-195,-45
6565,257,-44,62,-145,-189,-41
6570,257,-50,62,-138,-182,-39
6575,257,-47,61,-132,-178,-36
6580,256,-50,60,-127,-172,-35
6585,256,-48,64,-122,-167,-32
6590,258,-55,66,-118,-163,-31
6595,257,-51,61,-113,-159,-29
6600,258,-50,56,-109,-153,-26
6605,259,-50,57,-102,-149,-23
6610,255,-51,56,-95,-144,-22
6615,263,-46,55,-89,-140,-20
6620,258,-50,55,-83,-134,-18
6625,256,-50,57,-77,-127,-17
6630,257,-49,59,-72,-122,-16
6635,255,-48,53,-68,-116,-15
6640,250,-64,54,-64,-109,-13
6645,257,-47,52,-63,-103,-13
6650,258,-48,52,-63,-98,-12
6655,256,-48,55,-64,-91,-10
6660,258,-48,51,-68,-83,-8
6665,259,-46,54,-69,-76,-7
6670,258,-48,54,-71,-69,-6
6675,257,-50,54,-72,-63,-4
6680,255,-49,52,-70,-55,-1
6685,255,-50,53,-68,-49,-3
6690,254,-47,55,-66,-41,-2
6695,256,-47,50,-62,-34,-3
6700,259,-51,53,-56,-27,-4
6705,257,-51,53,-52,-20,-3
6710,257,-49,52,-47,-13,-3
6715,256,-50,55,-43,-6,-2
6720,258,-52,54,-37,0,-4
6725,255,-51,50,-33,3,-3
6730,257,-50,52,-29,10,-4
6735,257,-50,56,-26,14,-5
6740,257,-50,50,-24,18,-5
6745,258,-50,51,-24,22,-6
6750,257,-50,50,-24,27,-7
6755,258,-49,52,-22,30,-9
6760,257,-49,51,-23,34,-8
6765,253,-49,56,-23,38,-8
6770,258,-52,56,-22,42,-8
6775,256,-51,51,-19,47,-7
6780,258,-52,59,-16,49,-6
6785,258,-53,55,-13,53,-7
6790,258,-46,55,-10,57,-4
6795,255,-47,55,-6,60,-1
6800,257,-48,55,-4,64,2
6805,255,-50,54,-3,67,6
6810,255,-47,56,-1,69,6
6815,255,-48,57,0,71,6
6820,257,-48,51,-2,73,8
6825,257,-49,56,-3,75,10
6830,254,-45,57,-4,79,9
6835,257,-49,57,-4,83,11
6840,254,-49,56,-7,84,10
6845,256,-46,56,-11,87,12
6850,256,-46,56,-10,91,13
6855,255,-49,57,-13,93,12
6860,257,-48,60,-15,96,13
6865,254,-45,54,-16,97,14
6870,257,-49,59,-16,99,13
6875,257,-47,59,-15,102,15
6880,258,-47,57,-13,103,15
6885,257,-49,58,-10,105,14
6890,256,-48,60,-8,108,15
6895,254,-46,58,-4,110,16
6900,256,-49,58,0,112,16
6905,257,-47,55,4,112,16
6910,255,-49,56,6,114,18
6915,255,-48,57,8,115,18
6920,255,-49,56,10,117,19
6925,255,-47,59,11,118,19
6930,255,-46,59,11,118,20
6935,256,-47,60,9,119,21
6940,251,-54,63,7,119,22
6945,254,-46,60,3,120,22
6950,253,-46,64,-1,119,23
6955,253,-46,61,-5,119,25
6960,254,-46,58,-10,118,27
6965,253,-45,59,-12,118,26
6970,251,-46,60,-15,116,27
6975,252,-48,64,-17,115,29
6980,254,-48,63,-21,115,33
6985,251,-47,64,-22,114,31
6990,252,-44,60,-24,112,34
6995,253,-50,63,-26,112,35
7000,253,-46,61,-27,109,37
7005,253,-47,61,-27,108,37
7010,253,-51,60,-28,105,38
7015,252,-48,60,-28,103,39
7020,253,-47,58,-30,99,38
7025,253,-47,63,-33,99,39
7030,255,-45,61,-36,96,39
7035,252,-49,61,-38,94,40
7040,251,-47,60,-41,93,39
7045,252,-50,59,-43,92,38
7050,249,-46,49,-44,92,38
7055,250,-48,61,-45,91,37
7060,250,-52,62,-44,93,37
7065,253,-53,63,-41,94,34
7070,249,-51,60,-35,96,34
7075,247,-52,61,-30,96,32
7080,251,-51,63,-25,97,32
7085,252,-50,62,-21,98,30
7090,251,-53,64,-16,99,27
7095,250,-50,59,-10,101,27
7100,251,-52,63,-8,102,24
7105,254,-53,62,-5,101,25
7110,253,-50,62,-2,102,24
7115,250,-51,64,-1,101,25
7120,250,-51,61,-1,100,26
7125,252,-49,63,1,100,28
7130,250,-48,63,1,99,29
7135,251,-53,65,1,97,33
7140,250,-54,63,2,95,35
7145,252,-51,64,4,91,39
7150,252,-49,63,8,88,39
7155,250,-46,62,13,86,41
7160,252,-52,61,16,80,42
7165,252,-54,62,21,76,42
7170,253,-54,62,25,73,43
7175,252,-53,61,30,70,41
7180,253,-52,62,33,68,42
7185,252,-54,61,34,65,41
7190,253,-53,60,36,65,40
7195,250,-54,60,37,67,40
7200,251,-54,61,38,68,39
7205,252,-53,61,39,69,36
7210,252,-55,60,41,72,34
7215,252,-56,64,41,74,32
7220,249,-53,60,43,75,31
7225,251,-56,56,43,78,26
7230,250,-56,61,45,80,22
7235,251,-55,59,51,83,19
7240,248,-55,62,56,86,11
7245,250,-55,60,63,88,6
7250,249,-54,58,69,91,-1
7255,247,-55,63,77,92,-8
7260,250,-54,65,82,94,-13
7265,248,-52,62,88,95,-21
7270,249,-54,61,94,96,-26
7275,249,-54,64,98,97,-30
7280,248,-53,64,104,98,-34
7285,252,-51,63,108,98,-36
7290,252,-52,63,112,100,-38
7295,251,-51,62,113,99,-37
7300,249,-49,62,115,100,-35
7305,252,-53,64,112,101,-33
7310,254,-52,65,109,102,-30
7315,254,-52,61,103,101,-25
7320,254,-48,62,96,99,-20
7325,253,-51,64,88,97,-15
7330,254,-50,58,77,96,-9
7335,254,-50,63,67,94,-4
7340,256,-50,61,57,94,1
7345,258,-53,61,45,91,6
7350,256,-52,59,35,88,10
7355,258,-54,56,28,85,15
7360,256,-53,63,21,84,18
7365,254,-54,58,18,83,19
7370,254,-52,61,16,82,22
7375,255,-54,56,18,80,23
7380,254,-53,60,23,79,24
7385,253,-55,58,27,81,23
7390,251,-54,60,35,84,22
7395,251,-56,59,45,86,20
7400,250,-53,62,52,88,16
7405,252,-54,59,60,90,15
7410,249,-57,63,67,92,11
7415,250,-52,63,75,95,6
7420,250,-51,61,81,97,2
7425,250,-52,63,84,99,-1
7430,251,-52,65,88,101,-5
7435,251,-52,63,91,103,-10
7440,246,-53,66,94,103,-11
7445,248,-51,65,93,105,-16
7450,249,-54,62,92,105,-19
7455,250,-49,65,91,106,-21
7460,251,-52,65,90,109,-22
7465,251,-55,66,89,110,-22
7470,250,-49,65,87,111,-25
7475,251,-49,63,84,112,-24
7480,254,-50,65,82,114,-23
7485,251,-50,64,78,113,-21
7490,252,-50,64,76,114,-21
7495,252,-47,66,70,115,-18
7500,257,-50,65,65,116,-18
7505,253,-52,65,63,115,-16
7510,254,-51,65,59,116,-13
7515,256,-49,63,57,115,-10
7520,253,-51,65,54,114,-9
7525,256,-48,64,53,112,-7
7530,254,-49,64,51,112,-6
7535,253,-47,63,50,111,-5
7540,255,-51,64,49,110,-5
7545,249,-47,64,48,109,-6
7550,251,-47,64,49,110,-3
7555,253,-49,65,51,109,-3
7560,254,-48,65,53,109,-4
7565,254,-52,64,54,108,-2
7570,250,-47,62,55,110,-2
7575,252,-48,65,56,111,0
7580,254,-47,64,58,112,2
7585,253,-49,65,60,114,2
7590,251,-48,64,61,115,4
7595,251,-52,62,62,117,5
7600,250,-51,64,63,116,7
7605,250,-50,65,63,118,8
7610,252,-49,65,62,119,9
7615,253,-49,65,61,119,9
7620,252,-50,65,59,118,9
7625,250,-48,64,58,120,9
7630,250,-50,66,55,120,11
7635,249,-52,67,53,119,12
7640,252,-48,68,52,121,10
7645,253,-51,69,52,120,8
7650,253,-52,65,51,120,7
7655,251,-48,70,49,118,7
7660,252,-50,68,47,117,6
7665,251,-50,67,47,117,5
7670,248,-50,67,48,115,4
7675,251,-52,64,50,115,3
7680,251,-50,66,51,113,2
7685,252,-51,66,54,112,2
7690,251,-50,66,57,112,2
7695,251,-49,66,61,112,2
7700,251,-52,66,64,113,1
7705,251,-54,67,67,112,1
7710,251,-51,63,69,114,1
7715,253,-49,66,72,114,1
7720,254,-48,64,75,115,4
7725,252,-49,66,75,114,4
7730,251,-49,66,77,115,4
7735,253,-48,66,77,117,6
7740,253,-50,69,76,118,9
7745,253,-50,71,77,120,11
7750,253,-52,69,74,120,13
7755,253,-50,66,71,119,13
7760,252,-45,71,69,121,13
7765,251,-50,66,65,120,15
7770,249,-49,68,62,121,15
7775,249,-50,70,57,120,15
7780,251,-50,65,56,120,15
7785,250,-48,69,52,119,15
7790,251,-49,71,49,119,15
7795,252,-50,71,48,118,15
7800,251,-49,69,47,116,16
7805,249,-51,71,46,116,15
7810,250,-51,68,44,114,15
7815,252,-50,73,41,113,16
7820,252,-48,72,39,112,15
7825,251,-51,70,37,109,16
7830,250,-50,69,36,108,14
7835,250,-50,70,36,106,14
7840,251,-50,66,34,104,13
7845,250,-50,71,34,102,11
7850,251,-49,72,32,101,9
7855,249,-51,72,31,98,7
7860,249,-48,72,29,97,8
7865,250,-52,70,27,95,6
7870,249,-50,71,24,93,4
7875,251,-47,68,22,93,4
7880,251,-50,69,21,93,4
7885,251,-51,67,22,93,3
7890,253,-51,70,24,93,2
7895,251,-49,68,27,93,3
7900,248,-48,68,30,94,3
7905,250,-48,67,33,95,1
7910,252,-49,69,36,95,0
7915,249,-49,68,39,96,0
7920,251,-47,69,43,97,0
7925,252,-49,71,43,98,0
7930,251,-50,69,43,99,1
7935,251,-51,67,42,102,2
7940,250,-48,70,40,101,2
7945,250,-49,69,36,103,4
7950,249,-49,72,33,104,5
7955,250,-48,71,28,104,5
7960,250,-52,71,22,105,7
7965,252,-51,76,18,105,7
7970,247,-48,73,13,104,6
7975,249,-48,72,10,102,7
7980,247,-49,71,8,101,7
7985,253,-50,68,6,99,6
7990,251,-48,71,6,97,7
7995,248,-49,75,7,96,6
8000,249,-50,71,7,94,4
8005,252,-49,70,10,93,4
8010,251,-51,72,12,91,2
8015,250,-49,70,13,90,1
8020,249,-53,72,15,89,2
8025,249,-51,70,18,89,1
8030,256,-47,75,22,89,1
8035,249,-50,75,24,89,0
8040,253,-49,70,25,89,1
8045,249,-48,74,25,88,0
8050,250,-50,70,25,88,1
8055,251,-50,73,24,86,2
8060,253,-49,74,24,84,3
8065,252,-48,71,22,81,4
8070,252,-49,70,20,79,6
8075,250,-47,75,16,78,7
8080,251,-48,79,16,76,8
8085,254,-48,74,16,76,10
8090,253,-45,76,17,73,10
8095,253,-46,75,20,74,14
8100,253,-47,74,24,69,19
8105,256,-44,73,24,68,21
8110,255,-43,74,24,64,26
8115,254,-45,75,24,61,29
8120,254,-42,75,27,55,36
8125,251,-43,75,31,49,40
8130,255,-43,70,37,45,43
8135,254,-42,71,40,39,44
8140,254,-40,70,40,32,44
8145,256,-45,67,34,26,45
8150,254,-44,66,25,22,47
8155,255,-41,69,13,20,50
8160,257,-42,66,-4,20,55
8165,252,-38,69,-24,18,62
8170,253,-41,66,-47,17,68
8175,257,-43,67,-72,17,74
8180,258,-43,67,-95,15,79
8185,255,-44,68,-113,15,83
8190,257,-41,67,-127,14,85
8195,253,-45,66,-135,13,86
8200,253,-47,66,-136,12,85
8205,252,-44,67,-134,13,86
8210,250,-47,68,-130,15,83
8215,249,-46,70,-125,14,81
8220,251,-48,68,-124,11,78
8225,248,-49,69,-121,10,76
8230,247,-46,73,-122,8,73
8235,247,-49,71,-122,6,68
8240,245,-51,72,-120,4,63
8245,244,-48,79,-119,1,60
8250,244,-49,74,-116,-5,57
8255,245,-50,75,-111,-12,52
8260,248,-51,74,-103,-19,51
8265,244,-50,77,-96,-27,48
8270,244,-53,76,-85,-33,47
8275,243,-47,76,-71,-41,45
8280,246,-53,81,-57,-45,43
8285,246,-52,80,-43,-53,42
8290,244,-48,78,-31,-61,41
8295,245,-49,81,-23,-70,40
8300,246,-49,75,-21,-80,40
8305,248,-50,71,-24,-90,41
8310,246,-48,75,-33,-99,41
8315,246,-48,73,-48,-107,40
8320,245,-50,72,-70,-116,41
8325,248,-50,72,-95,-123,42
8330,248,-50,73,-122,-128,43
8335,247,-52,72,-152,-133,45
8340,246,-50,70,-179,-140,44
8345,246,-50,70,-202,-147,42
8350,248,-52,73,-220,-159,36
8355,246,-52,82,-232,-172,30
8360,248,-53,73,-237,-188,24
8365,250,-52,73,-238,-208,17
8370,250,-55,77,-240,-231,14
8375,250,-53,78,-241,-258,14
8380,245,-58,80,-240,-282,17
8385,247,-56,80,-240,-307,22
8390,245,-61,84,-237,-329,27
8395,245,-61,82,-234,-352,31
8400,248,-64,82,-229,-377,31
8405,245,-65,82,-225,-403,30
8410,243,-66,82,-221,-431,29
8415,237,-68,80,-219,-461,28
8420,241,-72,80,-210,-490,25
8425,239,-73,80,-200,-513,22
8430,239,-75,77,-183,-531,20
8435,239,-77,74,-159,-554,18
8440,239,-76,76,-133,-581,14
8445,237,-75,73,-104,-608,10
8450,234,-75,70,-80,-637,10
8455,231,-71,69,-56,-666,8
8460,233,-73,62,-29,-694,7
8465,236,-71,60,0,-717,5
8470,232,-72,54,38,-732,1
8475,230,-70,51,79,-741,0
8480,233,-68,47,121,-744,1
8485,235,-67,40,159,-743,7
8490,235,-63,36,193,-740,14
8495,238,-61,31,215,-732,25
8500,243,-60,37,227,-718,39
8505,242,-53,34,224,-700,55
8510,248,-52,32,211,-675,75
8515,247,-51,33,189,-647,95
8520,255,-52,32,162,-619,114
8525,256,-52,32,133,-597,133
8530,261,-52,34,102,-576,153
8535,259,-51,33,73,-561,170
8540,264,-48,36,45,-552,188
8545,266,-49,32,20,-545,205
8550,267,-53,31,0,-546,225
8555,270,-51,26,-7,-546,241
8560,269,-51,22,-4,-544,258
8565,272,-52,19,10,-537,273
8570,272,-51,21,35,-525,287
8575,268,-43,18,62,-514,298
8580,271,-43,18,90,-512,306
8585,272,-43,18,116,-511,312
8590,268,-42,18,139,-516,315
8595,269,-41,16,160,-517,320
8600,267,-40,18,178,-515,328
8605,266,-40,17,186,-512,333
8610,266,-39,13,185,-509,338
8615,260,-37,13,176,-507,344
8620,257,-36,10,158,-502,354
8625,258,-35,10,131,-494,363
8630,258,-38,9,99,-481,375
8635,260,-43,8,64,-465,386
8640,258,-38,13,31,-446,396
8645,260,-35,13,1,-426,404
8650,257,-35,12,-27,-409,413
8655,257,-38,13,-53,-398,421
8660,260,-38,10,-77,-391,426
8665,261,-43,6,-99,-388,430
8670,263,-44,0,-120,-386,436
8675,263,-47,-2,-137,-383,444
8680,265,-53,-6,-155,-377,453
8685,267,-53,-12,-171,-369,464
8690,267,-62,-11,-184,-359,475
8695,263,-62,-10,-194,-349,484
8700,265,-65,-12,-197,-338,493
8705,264,-66,-4,-195,-329,501
8710,266,-69,-13,-191,-326,508
8715,263,-72,-12,-184,-322,511
8720,263,-72,-15,-171,-318,515
8725,262,-75,-10,-159,-314,517
8730,260,-74,-9,-149,-306,522
8735,259,-72,-8,-139,-299,525
8740,259,-74,-5,-129,-291,527
8745,258,-74,-8,-127,-290,531
8750,255,-76,-9,-130,-292,534
8755,256,-77,-4,-136,-297,538
8760,257,-81,-3,-143,-304,543
8765,250,-78,-4,-148,-305,552
8770,253,-83,-2,-149,-304,559
8775,250,-82,-4,-147,-303,565
8780,247,-87,-2,-142,-305,569
8785,248,-88,-6,-134,-308,575
8790,247,-81,2,-126,-314,582
8795,247,-90,-6,-116,-318,588
8800,247,-93,-5,-107,-318,597
8805,242,-90,-8,-97,-317,605
8810,241,-88,-2,-88,-313,614
8815,240,-95,-1,-79,-309,624
8820,240,-94,-6,-76,-303,636
8825,241,-95,1,-71,-302,643
8830,241,-98,-2,-64,-301,652
8835,239,-102,-1,-56,-301,660
8840,237,-98,-1,-49,-303,666
8845,240,-100,-4,-43,-305,670
8850,239,-99,-2,-39,-309,671
8855,237,-101,-3,-39,-311,673
8860,238,-102,-5,-40,-315,672
8865,239,-104,-6,-44,-319,672
8870,235,-103,-10,-48,-322,678
8875,238,-104,-12,-50,-323,684
8880,234,-102,-10,-50,-326,688
8885,234,-102,-7,-50,-329,691
8890,233,-104,-10,-45,-332,694
8895,234,-105,-11,-40,-334,696
8900,227,-111,-7,-32,-329,698
8905,229,-102,-10,-25,-327,695
8910,231,-103,-13,-23,-327,694
8915,232,-106,-14,-26,-325,693
8920,232,-108,-16,-33,-323,693
8925,233,-107,-16,-41,-322,691
8930,231,-108,-20,-52,-322,688
8935,228,-111,-16,-59,-323,683
8940,231,-113,-21,-63,-329,678
8945,231,-109,-20,-70,-333,672
8950,228,-111,-21,-78,-338,668
8955,229,-115,-22,-86,-340,664
8960,223,-113,-24,-94,-344,658
8965,227,-118,-24,-102,-349,648
8970,230,-118,-33,-106,-357,643
8975,231,-122,-29,-104,-363,638
8980,229,-121,-33,-97,-364,644
8985,225,-126,-33,-91,-358,649
8990,225,-124,-32,-85,-355,656
8995,225,-128,-34,-83,-351,659
9000,223,-130,-34,-84,-350,661
9005,218,-128,-37,-88,-344,656
9010,228,-128,-41,-91,-345,652
9015,221,-131,-40,-90,-339,654
9020,218,-132,-39,-92,-333,643
9025,223,-131,-43,-87,-334,644
9030,219,-137,-44,-83,-332,651
9035,220,-136,-39,-83,-331,637
9040,219,-131,-45,-79,-335,645
9045,213,-133,-45,-81,-331,641
9050,213,-133,-48,-88,-331,631
9055,215,-133,-48,-101,-335,622
9060,212,-135,-42,-109,-338,608
9065,213,-131,-46,-118,-346,583
9070,216,-130,-50,-122,-360,590
9075,205,-128,-48,-130,-357,568
9080,220,-127,-51,-139,-368,546
9085,206,-133,-48,-136,-374,543
9090,201,-131,-47,-140,-373,507
9095,209,-138,-48,-141,-386,510
9100,194,-135,-46,-145,-377,534
9105,190,-142,-46,-170,-384,525
9110,198,-141,-49,-201,-408,498
9115,203,-140,-55,-223,-444,511
9120,190,-139,-51,-253,-452,505
9125,199,-137,-47,-288,-463,468
9130,201,-140,-51,-307,-497,479
9135,186,-139,-53,-328,-499,458
9140,207,-132,-51,-350,-521,430
9145,200,-135,-57,-357,-552,474
9150,194,-134,-55,-383,-538,455
9155,189,-137,-61,-406,-547,453
9160,189,-138,-61,-432,-549,423
9165,198,-135,-59,-455,-568,382
9170,214,-132,-67,-474,-592,392
9175,195,-141,-67,-499,-579,418
9180,194,-139,-62,-531,-571,393
9185,201,-144,-72,-543,-595,416
9190,201,-145,-73,-553,-591,435
9195,199,-147,-74,-568,-592,451
9200,197,-152,-72,-581,-599,460
9205,201,-150,-69,-591,-602,458
9210,203,-151,-77,-594,-615,479
9215,189,-158,-75,-606,-610,476
9220,194,-156,-76,-609,-620,463
9225,199,-159,-81,-603,-631,479
9230,188,-159,-85,-599,-626,475
9235,194,-161,-80,-582,-635,471
9240,194,-164,-83,-558,-639,483
9245,184,-163,-81,-540,-636,486
9250,189,-163,-86,-524,-633,477
9255,178,-171,-81,-504,-631,468
9260,185,-162,-82,-490,-637,429
9265,196,-168,-86,-462,-653,439
9270,178,-170,-88,-447,-644,453
9275,179,-174,-87,-432,-643,433
9280,193,-162,-85,-403,-646,400
9285,197,-166,-95,-355,-660,419
9290,189,-178,-94,-310,-641,448
9295,185,-178,-92,-273,-622,457
9300,184,-186,-90,-209,-598,453
9305,207,-174,-96,-142,-585,449
9310,185,-188,-95,-51,-542,512
9315,171,-199,-100,24,-485,551
9320,178,-198,-96,90,-443,537
9325,174,-198,-95,160,-413,520
9330,172,-196,-95,219,-391,496
9335,172,-195,-93,273,-360,473
9340,159,-199,-101,317,-338,464
9345,179,-192,-88,335,-310,403
9350,191,-182,-102,362,-320,414
9355,183,-172,-99,361,-297,466
9360,179,-176,-98,336,-267,526
9365,179,-176,-95,301,-248,570
9370,176,-175,-91,263,-230,614
9375,170,-174,-87,217,-215,651
9380,173,-176,-90,170,-202,678
9385,177,-177,-88,123,-187,698
9390,173,-182,-85,82,-172,713
9395,172,-180,-86,48,-155,724
9400,175,-184,-87,22,-135,732
9405,172,-187,-87,5,-114,738
9410,174,-190,-87,-3,-90,743
9415,171,-192,-87,-4,-62,745
9420,171,-197,-87,3,-32,745
9425,165,-196,-87,17,2,747
9430,163,-199,-93,36,39,742
9435,163,-202,-90,58,77,737
9440,160,-202,-93,82,116,730
9445,158,-203,-95,110,156,723
9450,154,-201,-93,136,195,717
9455,153,-200,-99,160,231,711
9460,153,-198,-97,182,262,707
9465,153,-195,-100,199,288,705
9470,153,-193,-99,216,312,704
9475,153,-191,-100,227,331,702
9480,152,-185,-97,232,344,704
9485,150,-184,-98,238,357,704
9490,153,-184,-100,234,366,705
9495,151,-187,-98,218,371,710
9500,151,-186,-100,207,377,711
9505,150,-184,-97,202,386,713
9510,150,-184,-98,199,395,714
9515,151,-186,-98,198,406,713
9520,147,-183,-93,201,417,711
9525,148,-184,-98,205,429,707
9530,147,-186,-100,206,439,707
9535,145,-184,-102,211,453,706
9540,144,-184,-100,215,466,705
9545,141,-182,-103,221,481,701
9550,138,-183,-99,225,499,700
9555,138,-185,-101,226,519,696
9560,137,-185,-103,223,533,695
9565,137,-185,-100,215,549,691
9570,134,-184,-97,203,567,688
9575,132,-184,-102,187,585,687
9580,132,-183,-102,170,600,684
9585,132,-184,-98,153,615,682
9590,132,-185,-100,135,629,682
9595,133,-185,-97,120,644,678
9600,131,-190,-91,107,656,675
9605,135,-189,-96,97,666,668
9610,133,-187,-93,91,674,664
9615,137,-190,-88,89,683,657
9620,133,-192,-91,93,690,646
9625,134,-191,-91,96,699,642
9630,134,-195,-90,100,710,640
9635,136,-198,-91,106,720,637
9640,134,-195,-87,111,728,633
9645,141,-198,-83,109,737,630
9650,143,-199,-83,107,743,627
9655,140,-202,-84,102,749,623
9660,138,-199,-81,91,754,620
9665,138,-213,-83,80,758,620
9670,139,-210,-78,69,766,620
9675,141,-205,-76,54,769,622
9680,139,-208,-75,37,775,625
9685,140,-211,-72,18,779,630
9690,138,-208,-71,-4,785,633
9695,138,-209,-68,-28,791,636
9700,139,-214,-69,-54,793,639
9705,134,-212,-67,-79,801,636
9710,135,-216,-65,-100,810,637
9715,135,-221,-65,-116,819,641
9720,133,-216,-63,-131,826,644
9725,134,-217,-67,-150,833,645
9730,144,-218,-63,-163,843,643
9735,131,-214,-58,-174,862,635
9740,134,-215,-60,-179,876,643
9745,131,-220,-61,-181,883,645
9750,127,-217,-61,-182,886,653
9755,126,-214,-59,-188,891,661
9760,130,-212,-62,-199,901,666
9765,130,-215,-61,-214,911,674
9770,120,-209,-62,-232,921,684
9775,127,-213,-62,-248,926,696
9780,121,-210,-61,-266,929,704
9785,126,-211,-64,-282,931,711
9790,118,-215,-58,-304,933,717
9795,118,-219,-57,-317,934,738
9800,120,-216,-54,-321,933,760
9805,119,-218,-60,-333,928,771
9810,121,-220,-57,-349,919,777
9815,122,-218,-56,-363,912,784
9820,122,-220,-53,-377,909,789
9825,114,-220,-55,-393,905,790
9830,115,-221,-53,-400,900,792
9835,116,-223,-55,-408,886,792
9840,114,-227,-51,-419,870,790
9845,115,-235,-57,-430,849,786
9850,110,-233,-51,-435,827,781
9855,112,-233,-50,-433,805,769
9860,111,-235,-47,-426,788,757
9865,107,-238,-45,-415,769,747
9870,108,-237,-44,-403,751,738
9875,105,-238,-48,-394,735,731
9880,103,-242,-46,-390,715,724
9885,101,-239,-43,-390,696,717
9890,102,-236,-48,-395,675,704
9895,100,-237,-44,-400,657,695
9900,98,-239,-42,-403,638,685
9905,94,-236,-44,-404,617,680
9910,94,-233,-41,-408,595,675
9915,94,-244,-39,-411,575,671
9920,90,-237,-38,-412,555,667
9925,89,-240,-38,-408,530,669
9930,90,-240,-38,-403,500,672
9935,89,-239,-38,-401,473,673
9940,88,-241,-38,-409,450,670
9945,90,-238,-38,-419,428,664
9950,86,-240,-43,-427,409,659
9955,86,-242,-38,-429,386,647
9960,84,-244,-41,-422,367,639
9965,83,-243,-39,-409,348,632
9970,84,-246,-44,-393,327,622
9975,84,-243,-40,-371,308,616
9980,84,-243,-38,-347,288,612
9985,84,-243,-42,-326,273,607
9990,81,-244,-43,-300,259,601
9995,89,-243,-42,-285,238,601
10000,85,-243,-40,-285,219,607
10005,82,-241,-42,-293,200,615
10010,83,-244,-47,-304,181,625
10015,85,-242,-46,-312,162,631
10020,82,-247,-43,-316,145,638
10025,82,-247,-49,-316,129,643
10030,84,-247,-50,-317,113,645
10035,80,-247,-49,-317,98,641
10040,77,-247,-49,-320,83,645
10045,83,-246,-49,-321,65,641
10050,80,-245,-52,-322,50,642
10055,79,-247,-56,-323,36,644
10060,75,-244,-58,-317,25,646
10065,74,-248,-56,-311,14,649
10070,71,-246,-58,-306,2,655
10075,72,-246,-59,-302,-8,654
10080,72,-246,-61,-304,-16,649
10085,66,-244,-58,-301,-22,647
10090,68,-242,-61,-301,-24,633
10095,66,-247,-59,-296,-30,641
10100,55,-256,-61,-293,-28,629
10105,69,-243,-62,-286,-32,596
10110,63,-249,-65,-272,-34,615
10115,57,-257,-70,-258,-27,624
10120,61,-239,-62,-247,-17,565
10125,59,-245,-71,-230,-26,593
10130,54,-246,-72,-219,-14,625
10135,25,-277,-85,-203,-5,624
10140,58,-235,-73,-190,7,527
10145,58,-242,-76,-170,-4,543
10150,48,-243,-78,-159,9,592
10155,45,-246,-78,-140,21,608
10160,43,-245,-76,-125,28,602
10165,20,-250,-78,-114,39,555
10170,61,-223,-76,-106,29,474
10175,42,-237,-80,-99,26,538
10180,43,-241,-78,-97,36,571
10185,39,-240,-76,-92,45,580
10190,37,-240,-79,-93,48,573
10195,26,-251,-74,-97,51,560
10200,46,-237,-76,-98,58,457
10205,58,-233,-77,-97,37,472
10210,41,-234,-75,-96,37,534
10215,43,-240,-77,-92,42,551
10220,43,-242,-76,-90,46,550
10225,40,-243,-75,-92,44,541
10230,38,-243,-74,-96,43,530
10235,31,-242,-74,-95,42,516
10240,43,-238,-67,-95,46,430
10245,60,-235,-76,-93,17,423
10250,40,-244,-70,-96,19,485
10255,39,-244,-70,-97,22,504
10260,43,-244,-70,-101,20,500
10265,42,-243,-74,-110,17,491
10270,42,-245,-77,-116,13,479
10275,45,-247,-76,-120,9,469
10280,48,-247,-76,-120,6,460
10285,49,-244,-71,-119,3,453
10290,42,-242,-76,-118,-1,448
10295,47,-246,-79,-119,-3,437
10300,31,-242,-72,-128,1,396
10305,66,-229,-78,-131,-17,341
10310,43,-239,-76,-135,-21,407
10315,43,-238,-79,-140,-14,435
10320,45,-239,-79,-151,-12,438
10325,46,-241,-78,-168,-11,431
10330,43,-242,-80,-184,-13,421
10335,40,-239,-85,-193,-17,412
10340,41,-240,-79,-200,-21,409
10345,39,-237,-77,-204,-25,406
10350,34,-239,-74,-206,-30,407
10355,35,-240,-76,-206,-36,405
10360,35,-241,-75,-204,-40,403
10365,33,-242,-75,-200,-43,404
10370,33,-246,-75,-195,-45,404
10375,23,-245,-81,-191,-43,395
10380,12,-249,-75,-187,-34,325
10385,59,-229,-72,-183,-55,273
10390,30,-248,-79,-176,-56,368
10395,27,-251,-82,-170,-46,407
10400,25,-254,-79,-169,-40,412
10405,25,-253,-78,-172,-37,406
10410,20,-253,-81,-171,-33,397
10415,17,-256,-82,-162,-34,386
10420,-12,-256,-82,-149,-26,331
10425,45,-233,-71,-150,-33,212
10430,29,-249,-85,-136,-49,289
10435,19,-249,-86,-128,-42,371
10440,20,-253,-82,-121,-32,391
10445,19,-253,-81,-125,-26,386
10450,11,-259,-82,-128,-21,373
10455,-6,-255,-79,-127,-12,303
10460,47,-235,-74,-129,-22,179
10465,28,-242,-82,-120,-36,260
10470,20,-249,-84,-110,-25,341
10475,18,-249,-85,-104,-16,357
10480,20,-247,-84,-108,-12,349
10485,20,-248,-85,-114,-7,333
10490,19,-245,-84,-114,-6,320
10495,16,-250,-84,-109,-5,305
10500,17,-245,-84,-103,-7,284
10505,-12,-252,-80,-104,0,233
10510,45,-221,-79,-106,-16,154
10515,15,-243,-85,-108,-20,244
10520,13,-240,-84,-107,-10,276
10525,16,-245,-87,-108,-4,271
10530,17,-244,-84,-115,-2,256
10535,19,-238,-84,-121,-5,240
10540,15,-244,-87,-122,-6,227
10545,13,-245,-86,-118,-7,217
10550,12,-246,-85,-112,-6,208
10555,11,-246,-82,-110,-6,204
10560,12,-245,-88,-107,-5,199
10565,11,-244,-86,-108,-3,193
10570,12,-244,-88,-108,-2,184
10575,11,-243,-88,-108,1,178
10580,14,-243,-88,-107,4,170
10585,14,-245,-91,-108,7,163
10590,13,-245,-89,-107,10,158
10595,14,-244,-88,-105,16,152
10600,13,-244,-86,-104,21,147
10605,13,-249,-91,-102,27,143
10610,15,-246,-91,-101,31,139
10615,12,-242,-88,-98,37,135
10620,12,-243,-92,-95,44,132
10625,12,-243,-92,-92,51,130
10630,9,-242,-91,-91,57,127
10635,11,-242,-90,-89,63,125
10640,10,-239,-91,-90,70,122
10645,8,-242,-92,-91,76,119
10650,10,-237,-89,-94,84,116
10655,10,-239,-92,-99,92,112
10660,9,-237,-89,-104,98,110
10665,8,-237,-91,-108,103,108
10670,7,-239,-90,-114,108,105
10675,5,-238,-91,-119,112,102
10680,6,-241,-91,-121,117,99
10685,5,-242,-91,-126,122,99
10690,5,-240,-90,-132,126,97
10695,5,-240,-91,-135,129,97
10700,5,-240,-89,-141,132,94
10705,4,-242,-93,-146,136,93
10710,4,-242,-90,-152,138,91
10715,5,-240,-89,-160,140,90
10720,4,-241,-92,-168,142,90
10725,4,-247,-91,-174,142,89
10730,4,-246,-89,-180,143,88
10735,2,-244,-89,-185,146,87
10740,3,-247,-89,-189,147,85
10745,4,-246,-92,-191,148,84
10750,3,-247,-87,-194,150,80
10755,0,-243,-85,-196,150,76
10760,4,-247,-85,-198,152,67
10765,3,-242,-92,-204,152,66
10770,2,-244,-88,-208,155,69
10775,-1,-241,-91,-214,157,69
10780,3,-241,-92,-221,159,67
10785,0,-243,-88,-226,162,66
10790,1,-243,-88,-233,165,63
10795,-1,-240,-91,-239,168,62
10800,2,-247,-91,-245,171,57
10805,-46,-288,-104,-250,177,36
10810,39,-219,-80,-265,180,-100
10815,6,-240,-89,-268,171,-4
10820,-1,-242,-94,-260,185,48
10825,0,-245,-92,-260,191,55
10830,2,-242,-95,-264,196,46
10835,1,-244,-94,-266,203,34
10840,2,-244,-95,-260,206,25
10845,5,-242,-99,-251,208,18
10850,4,-241,-97,-245,211,14
10855,2,-240,-100,-240,214,9
10860,10,-246,-97,-238,219,6
10865,6,-242,-102,-240,224,6
10870,5,-241,-99,-243,227,6
10875,9,-240,-100,-248,233,3
10880,9,-240,-99,-254,238,0
10885,5,-241,-98,-255,241,-2
10890,10,-241,-100,-258,246,-4
10895,8,-243,-100,-259,251,-6
10900,11,-241,-99,-257,255,-9
10905,10,-237,-95,-253,260,-15
10910,12,-238,-100,-246,264,-18
10915,11,-240,-99,-238,268,-21
10920,12,-241,-104,-230,273,-25
10925,16,-243,-100,-223,277,-30
10930,15,-241,-104,-217,280,-35
10935,14,-240,-99,-213,283,-38
10940,13,-237,-105,-211,286,-43
10945,13,-239,-106,-206,288,-48
10950,15,-237,-106,-206,292,-53
10955,15,-238,-107,-206,295,-60
10960,15,-236,-103,-205,296,-64
10965,10,-234,-105,-205,298,-70
10970,12,-230,-111,-207,300,-73
10975,15,-234,-105,-207,300,-77
10980,15,-232,-104,-208,301,-80
10985,17,-233,-108,-209,303,-81
10990,16,-235,-107,-211,303,-83
10995,17,-234,-106,-211,303,-85
11000,14,-234,-107,-211,304,-86
11005,18,-233,-111,-210,304,-86
11010,15,-234,-110,-209,303,-85
11015,16,-234,-109,-209,301,-86
11020,18,-230,-108,-207,300,-87
11025,15,-232,-111,-205,298,-87
11030,17,-232,-116,-202,297,-88
11035,19,-231,-112,-198,297,-89
11040,18,-229,-111,-198,298,-89
11045,17,-232,-115,-195,295,-88
11050,21,-231,-112,-192,294,-89
11055,21,-233,-113,-186,293,-89
11060,21,-230,-112,-184,292,-90
11065,18,-231,-109,-181,291,-90
11070,21,-235,-113,-178,290,-92
11075,19,-233,-115,-175,288,-92
11080,20,-232,-116,-172,286,-93
11085,23,-229,-112,-171,284,-92
11090,19,-232,-112,-170,281,-93
11095,23,-232,-111,-167,279,-95
11100,22,-232,-111,-162,278,-95
11105,24,-233,-114,-157,277,-97
11110,19,-234,-114,-153,274,-97
11115,22,-231,-114,-149,273,-96
11120,22,-231,-112,-146,271,-95
11125,23,-231,-112,-143,269,-94
11130,24,-230,-113,-140,266,-93
11135,24,-234,-114,-137,264,-92
11140,23,-227,-116,-133,260,-91
11145,25,-230,-110,-130,256,-89
11150,26,-230,-111,-126,254,-86
11155,20,-229,-114,-123,253,-83
11160,25,-229,-115,-119,249,-80
11165,24,-230,-109,-118,246,-77
11170,26,-228,-114,-118,245,-76
11175,27,-229,-111,-119,243,-73
11180,26,-228,-112,-121,240,-70
11185,28,-227,-112,-125,239,-67
11190,27,-226,-115,-129,237,-64
11195,28,-226,-114,-132,234,-61
11200,28,-225,-114,-137,230,-58
11205,28,-225,-111,-141,225,-54
11210,31,-227,-112,-144,219,-52
11215,27,-226,-110,-148,212,-49
11220,26,-228,-113,-152,206,-48
11225,28,-228,-116,-151,196,-46
11230,24,-229,-110,-151,188,-45
11235,23,-227,-113,-152,181,-45
11240,23,-226,-114,-150,173,-47
11245,23,-227,-116,-150,162,-47
11250,19,-225,-115,-150,150,-47
11255,20,-228,-116,-148,139,-47
11260,19,-225,-115,-145,127,-48
11265,19,-225,-113,-142,117,-50
11270,20,-229,-115,-139,105,-51
11275,20,-230,-112,-137,94,-55
11280,22,-224,-111,-134,84,-58
11285,20,-228,-113,-133,72,-63
11290,23,-227,-113,-130,60,-66
11295,21,-222,-118,-127,50,-70
11300,23,-226,-114,-126,41,-71
11305,25,-224,-115,-124,31,-72
11310,28,-228,-120,-123,23,-71
11315,29,-227,-116,-120,17,-69
11320,31,-224,-117,-119,12,-67
11325,30,-227,-119,-119,9,-64
11330,33,-225,-118,-117,4,-58
11335,34,-224,-120,-118,1,-52
11340,34,-224,-118,-117,-1,-46
11345,36,-224,-120,-116,-1,-40
11350,37,-226,-118,-115,-4,-34
11355,33,-222,-121,-116,-6,-30
11360,35,-225,-120,-117,-8,-27
11365,37,-224,-123,-116,-10,-25
11370,36,-224,-121,-116,-11,-23
11375,35,-223,-122,-117,-13,-22
11380,35,-225,-123,-118,-15,-24
11385,34,-222,-119,-122,-16,-22
11390,36,-224,-121,-125,-16,-21
11395,36,-224,-122,-128,-20,-22
11400,35,-221,-119,-130,-21,-21
11405,38,-224,-108,-132,-22,-20
11410,37,-225,-121,-136,-22,-19
11415,37,-223,-117,-138,-22,-17
11420,36,-223,-122,-139,-22,-15
11425,37,-222,-118,-142,-22,-15
11430,32,-221,-123,-145,-22,-13
11435,36,-224,-120,-147,-22,-11
11440,33,-223,-119,-149,-21,-10
11445,33,-221,-120,-150,-22,-6
11450,34,-223,-119,-147,-23,-6
11455,38,-227,-116,-144,-21,-3
11460,29,-224,-121,-139,-21,-3
11465,33,-227,-123,-137,-20,-1
11470,34,-225,-121,-133,-17,-3
11475,31,-225,-120,-132,-17,-4
11480,33,-225,-124,-132,-15,-7
11485,29,-225,-120,-133,-15,-8
11490,30,-227,-120,-131,-17,-12
11495,32,-228,-122,-130,-16,-14
11500,31,-225,-122,-128,-18,-15
11505,32,-226,-119,-125,-19,-17
11510,31,-227,-122,-124,-18,-16
11515,29,-224,-126,-122,-19,-17
11520,33,-226,-124,-118,-20,-17
11525,30,-228,-126,-112,-20,-20
11530,31,-225,-125,-108,-18,-20
11535,29,-226,-126,-108,-16,-22
11540,28,-223,-125,-103,-13,-22
11545,31,-224,-129,-98,-10,-18
11550,31,-221,-128,-92,-6,-16
11555,28,-225,-126,-88,-3,-14
11560,30,-223,-122,-82,1,-9
11565,34,-222,-128,-76,4,-4
11570,31,-221,-128,-73,8,2
11575,31,-222,-128,-69,11,6
11580,31,-215,-131,-67,15,10
11585,33,-216,-129,-64,20,16
11590,31,-218,-130,-64,26,21
11595,33,-217,-129,-65,31,25
11600,31,-216,-128,-68,35,29
11605,29,-214,-127,-70,41,33
11610,30,-216,-131,-70,46,38
11615,26,-217,-128,-70,54,43
11620,29,-218,-124,-68,62,46
11625,26,-217,-128,-68,68,50
11630,28,-219,-128,-68,74,54
11635,26,-221,-128,-66,80,58
11640,23,-219,-131,-63,86,60
11645,24,-218,-129,-61,92,62
11650,27,-221,-129,-60,98,65
11655,24,-220,-127,-57,108,70
11660,26,-221,-128,-55,115,73
11665,26,-219,-128,-52,122,76
11670,25,-219,-129,-49,128,79
11675,23,-221,-127,-45,133,83
11680,27,-221,-127,-41,138,84
11685,23,-220,-128,-38,142,86
11690,21,-215,-128,-34,144,89
11695,22,-219,-126,-31,147,91
11700,24,-220,-129,-30,149,91
11705,21,-217,-129,-27,148,91
11710,19,-217,-128,-27,147,91
11715,21,-221,-123,-27,148,91
11720,19,-217,-126,-30,147,91
11725,22,-220,-128,-30,144,91
11730,21,-219,-126,-32,143,90
11735,29,-217,-129,-31,142,89
11740,20,-219,-125,-30,141,91
11745,21,-217,-124,-30,138,90
11750,18,-219,-127,-28,136,89
11755,22,-220,-128,-25,134,88
11760,22,-221,-128,-21,131,89
11765,24,-220,-126,-16,130,88
11770,23,-224,-127,-8,129,90
11775,24,-222,-128,1,130,87
11780,26,-223,-124,11,130,88
11785,28,-224,-122,20,129,86
11790,26,-221,-127,27,131,86
11795,22,-219,-126,35,134,85
11800,26,-226,-124,41,139,85
11805,26,-222,-128,47,142,84
11810,27,-224,-125,54,146,84
11815,26,-224,-121,60,151,82
11820,27,-225,-125,68,153,80
11825,26,-222,-126,72,157,79
11830,28,-225,-123,76,160,79
11835,26,-226,-120,79,164,78
11840,22,-227,-123,84,166,79
11845,26,-226,-126,88,168,79
11850,25,-224,-126,92,169,80
11855,26,-223,-126,96,167,78
11860,24,-227,-124,101,168,77
11865,25,-223,-124,107,168,76
11870,22,-223,-127,115,166,73
11875,24,-225,-126,123,164,72
11880,23,-225,-123,130,163,72
11885,22,-224,-124,135,161,73
11890,30,-222,-135,138,158,74
11895,26,-224,-125,142,157,74
11900,22,-224,-122,144,155,74
11905,23,-224,-124,152,154,76
11910,23,-228,-118,160,154,75
11915,22,-227,-121,164,153,74
11920,22,-227,-124,170,153,76
11925,23,-227,-123,173,152,75
11930,23,-229,-121,179,151,76
11935,23,-226,-118,179,152,79
11940,22,-226,-122,183,153,79
11945,23,-228,-121,185,153,78
11950,27,-227,-118,187,154,78
11955,21,-225,-120,188,154,79
11960,22,-226,-119,190,156,79
11965,26,-226,-120,195,158,79
11970,23,-227,-121,197,160,81
11975,24,-227,-118,198,160,82
11980,24,-229,-116,200,164,82
11985,23,-226,-123,207,165,81
11990,23,-227,-121,211,170,80
11995,27,-230,-119,216,172,79
