timestamp,acc_x,acc_y,acc_z,gyro_x,gyro_y,gyro_z
0,-4,100,214,-16,77,-8
5,-7,100,216,-21,76,-6
10,-8,102,218,-25,76,-9
15,-9,101,217,-29,74,-5
20,-9,99,217,-32,74,-7
25,-5,98,220,-34,71,-3
30,-7,97,218,-34,69,-5
35,-8,95,218,-31,64,-2
40,-6,94,218,-29,63,-3
45,-8,97,217,-28,58,0
50,-7,96,217,-23,56,0
55,-6,95,219,-19,53,3
60,-7,97,219,-15,54,1
65,-2,93,215,-11,51,4
70,-7,98,216,-6,51,2
75,-15,93,217,-5,51,4
80,-7,96,217,-3,51,2
85,-8,97,218,1,51,5
90,-10,99,216,0,52,2
95,-7,98,219,-2,54,4
100,-7,100,219,-2,57,-1
105,-7,100,215,-4,59,0
110,-4,97,217,-9,60,-5
115,-6,102,225,-12,63,-4
120,-3,99,220,-19,65,-8
125,-7,100,216,-24,68,-8
130,-8,102,218,-31,71,-10
135,-6,102,218,-35,74,-9
140,-7,100,215,-41,72,-12
145,-6,100,220,-46,73,-10
150,-8,101,217,-50,72,-13
155,-8,99,213,-51,71,-12
160,-8,98,219,-53,70,-12
165,-7,98,217,-53,68,-10
170,-4,96,220,-51,67,-9
175,-9,96,220,-48,66,-7
180,-6,98,215,-41,63,-8
185,-14,95,229,-36,60,-4
190,-9,96,217,-30,59,-4
195,-9,99,217,-22,57,-3
200,-10,98,217,-14,55,-1
205,-11,94,216,-9,53,1
210,-7,96,217,-3,52,1
215,-12,97,216,1,51,3
220,-9,94,214,3,50,2
225,-9,94,217,6,52,3
230,-7,95,219,6,50,2
235,-10,94,220,6,52,3
240,-11,98,217,5,52,3
245,-8,97,214,4,50,3
250,-10,96,219,1,50,2
255,-9,95,219,0,51,4
260,-7,96,221,-3,53,3
265,-6,97,217,-6,55,4
270,-10,98,218,-7,56,3
275,-8,97,216,-8,58,3
280,-10,99,218,-7,60,4
285,-8,99,215,-6,60,4
290,-5,99,221,-5,60,3
295,-6,99,219,-2,61,2
300,-10,102,217,2,63,1
305,-8,98,221,3,63,0
310,-7,99,217,4,62,0
315,-8,99,220,4,64,0
320,-7,99,218,3,64,-1
325,-7,98,215,2,64,-1
330,-9,102,217,1,63,0
335,-8,101,217,-2,65,-1
340,-8,99,218,-5,64,-1
345,-7,99,222,-7,62,-1
350,-5,99,217,-10,63,-2
355,-6,99,215,-11,61,-3
360,-6,99,217,-12,61,-3
365,-8,101,217,-14,62,-3
370,-5,99,219,-14,60,-4
375,-6,96,218,-16,61,-6
380,-7,100,218,-17,63,-4
385,-7,97,218,-17,63,-8
390,-4,95,216,-19,63,-7
395,-10,97,218,-18,64,-9
400,-7,99,220,-17,66,-8
405,-5,97,220,-16,67,-9
410,-4,96,220,-15,67,-8
415,-10,97,217,-15,65,-10
420,-7,97,220,-11,65,-9
425,-7,97,219,-8,65,-11
430,-5,98,221,-6,67,-8
435,-8,101,221,-6,67,-9
440,-9,99,215,-5,67,-9
445,-4,97,215,-3,66,-10
450,-8,99,216,-5,69,-7
455,-5,96,220,-7,66,-10
460,-10,99,217,-10,66,-8
465,-6,98,216,-11,65,-9
470,-6,99,218,-13,66,-7
475,-7,100,220,-16,65,-8
480,-7,99,217,-18,63,-5
485,-8,101,215,-21,62,-7
490,-7,99,218,-23,62,-6
495,-5,98,218,-26,61,-7
500,-6,99,220,-26,59,-2
505,-9,98,220,-26,59,-7
510,-5,98,216,-26,58,-4
515,-8,97,219,-27,56,-5
520,-7,99,220,-25,55,-1
525,-10,99,214,-23,56,-2
530,-7,98,218,-22,54,-2
535,-10,98,216,-22,54,-3
540,-10,97,216,-22,54,-1
545,-9,100,216,-21,55,-2
550,-9,99,214,-22,54,0
555,-8,96,217,-20,54,-2
560,-7,97,217,-20,54,1
565,-8,98,218,-19,55,-1
570,-11,98,215,-18,55,2
575,-8,96,217,-17,56,-2
580,-9,96,214,-16,57,1
585,-11,98,219,-15,59,-2
590,-9,96,221,-13,59,1
595,-10,99,219,-10,58,-1
600,-9,99,213,-11,59,0
605,-8,99,219,-8,61,-3
610,-11,99,218,-7,63,-2
615,-8,97,218,-7,64,-3
620,-2,99,210,-6,64,-1
625,-8,96,221,-7,62,-2
630,-8,99,216,-6,63,-2
635,-8,98,216,-6,62,-4
640,-7,96,216,-8,65,-3
645,-7,99,218,-7,65,-5
650,-7,99,217,-9,63,-3
655,-8,100,219,-10,62,-5
660,-6,98,216,-10,63,-1
665,-6,97,219,-11,64,-4
670,-8,102,218,-13,64,-4
675,-7,100,217,-15,64,-7
680,-10,100,220,-14,65,-5
685,-7,101,218,-16,65,-6
690,-9,101,216,-16,64,-5
695,-8,99,220,-16,65,-6
700,-8,98,217,-17,64,-5
705,-7,102,216,-17,65,-6
710,-9,100,217,-16,65,-5
715,-7,99,217,-16,64,-8
720,-6,97,218,-15,65,-6
725,-10,99,217,-13,63,-7
730,-7,96,220,-13,63,-5
735,-9,101,219,-13,63,-5
740,-6,99,218,-11,62,-4
745,-7,100,218,-11,61,-5
750,-7,99,219,-9,61,-2
755,-6,98,217,-10,61,-4
760,-5,98,218,-9,62,-3
765,-7,100,217,-10,63,-6
770,-8,98,217,-12,63,-6
775,-4,99,217,-12,65,-5
780,-6,100,216,-14,65,-5
785,-6,98,217,-14,63,-6
790,-6,99,216,-13,61,-4
795,-3,96,220,-12,62,-5
800,-7,99,218,-10,64,-4
805,-8,100,216,-7,61,-4
810,-8,98,220,-7,60,-2
815,-10,96,222,-8,60,-2
820,-10,97,214,-8,60,0
825,-6,98,218,-7,57,1
830,-9,100,218,-7,55,1
835,-9,99,220,-5,56,2
840,-7,95,217,-6,57,1
845,-4,99,217,-8,57,0
850,-9,102,217,-10,59,-1
855,-9,102,216,-11,60,-2
860,-6,100,218,-13,62,-3
865,-5,99,218,-13,63,-2
870,-9,102,220,-12,65,-4
875,-7,100,218,-13,68,-5
880,-5,100,216,-15,69,-6
885,-7,98,219,-19,69,-4
890,-7,100,218,-22,68,-6
895,-8,97,221,-26,66,-5
900,-9,100,214,-28,66,-6
905,-10,97,217,-29,64,-4
910,-9,95,220,-29,62,-4
915,-10,96,218,-27,58,-3
920,-10,98,220,-24,59,-3
925,-9,95,215,-22,56,-2
930,-8,93,216,-18,55,-1
935,-11,98,215,-13,52,1
940,-9,98,215,-9,52,0
945,-10,97,214,-5,51,1
950,-13,96,213,0,51,1
955,-5,95,214,0,50,4
960,-8,96,216,3,51,2
965,-8,98,219,4,52,3
970,-10,98,220,4,53,1
975,-9,99,216,5,54,2
980,-7,99,216,4,57,0
985,-10,101,221,0,59,1
990,-9,102,219,-1,60,-2
995,-8,101,216,-4,64,-1
1000,-9,103,220,-9,67,-5
1005,-9,102,217,-15,70,-4
1010,-6,100,220,-18,72,-8
1015,-8,102,219,-24,73,-7
1020,-8,102,219,-29,73,-10
1025,-5,99,216,-33,74,-7
1030,-9,102,219,-38,74,-10
1035,-7,99,217,-38,75,-7
1040,-8,99,216,-41,73,-10
1045,-5,100,219,-40,71,-7
1050,-7,101,221,-39,71,-9
1055,-6,99,210,-38,68,-6
1060,-7,98,217,-35,66,-7
1065,-6,96,218,-31,63,-3
1070,-6,95,214,-29,60,-5
1075,-11,94,219,-27,57,-1
1080,-6,97,218,-23,55,-4
1085,-6,95,220,-21,55,-2
1090,-5,97,218,-20,54,-4
1095,-8,95,217,-18,53,0
1100,-8,97,218,-16,54,-4
1105,-6,96,220,-16,55,-1
1110,-9,96,217,-16,56,-4
1115,-9,97,218,-17,57,-2
1120,-7,98,215,-16,57,-4
1125,-8,97,216,-17,57,-1
1130,-3,94,214,-19,57,-5
1135,-10,97,215,-19,58,-3
1140,-6,97,222,-21,58,-6
1145,-7,95,218,-23,59,-2
1150,-9,98,216,-24,60,-4
1155,-8,99,219,-25,60,-2
1160,-6,98,220,-26,61,-7
1165,-7,99,216,-27,65,-5
1170,-7,99,217,-25,64,-8
1175,-7,99,217,-22,64,-5
1180,-8,97,220,-21,62,-7
1185,-8,98,218,-20,63,-4
1190,-4,101,214,-21,61,-6
1195,-7,101,215,-22,59,-4
1200,-7,99,217,-24,59,-5
1205,-10,101,216,-26,60,-3
1210,-10,101,217,-27,62,-6
1215,-6,98,219,-32,62,-3
1220,-8,100,218,-37,62,-6
1225,-8,99,220,-38,62,-4
1230,-10,101,220,-40,63,-6
1235,-10,100,217,-42,66,-5
1240,-8,101,216,-44,65,-6
1245,-9,100,216,-45,65,-5
1250,-8,103,218,-48,64,-7
1255,-10,104,219,-48,62,-4
1260,-9,95,215,-50,63,-7
1265,-10,97,215,-49,62,-5
1270,-7,98,218,-51,61,-7
1275,-8,100,219,-50,61,-6
1280,-10,96,218,-50,62,-6
1285,-9,96,217,-52,61,-5
1290,-10,95,218,-51,58,-5
1295,-7,96,213,-51,56,-4
1300,-7,93,218,-49,55,-6
1305,-9,94,216,-47,56,-5
1310,-5,94,219,-47,57,-6
1315,-8,95,220,-44,58,-6
1320,-9,98,218,-42,61,-8
1325,-5,97,218,-41,62,-9
1330,-6,95,218,-40,66,-12
1335,-8,96,215,-41,70,-12
1340,-3,95,221,-41,72,-14
1345,-9,99,219,-39,74,-14
1350,-5,97,217,-40,75,-15
1355,-4,96,221,-38,78,-19
1360,-8,96,220,-38,80,-19
1365,-8,100,218,-38,82,-18
1370,-6,97,218,-38,80,-18
1375,-6,97,221,-38,79,-18
1380,-8,98,222,-38,78,-17
1385,-12,90,225,-38,73,-16
1390,-10,99,218,-38,73,-13
1395,-9,96,216,-39,70,-12
1400,-6,97,220,-40,67,-10
1405,-10,99,217,-42,64,-9
1410,-8,96,219,-42,61,-5
1415,-6,97,219,-42,60,-6
1420,-9,97,214,-44,57,-6
1425,-8,98,218,-41,56,-7
1430,-8,100,221,-42,55,-6
1435,-7,95,215,-44,55,-7
1440,-8,93,216,-46,57,-4
1445,-6,94,219,-45,58,-7
1450,-6,95,215,-46,59,-6
1455,-6,96,219,-49,61,-8
1460,-6,96,218,-49,60,-7
1465,-5,93,217,-47,61,-10
1470,-7,95,217,-48,61,-9
1475,-8,94,217,-50,61,-10
1480,-5,95,217,-50,61,-10
1485,-7,95,218,-52,62,-12
1490,-7,95,218,-52,64,-9
1495,-10,92,215,-55,63,-12
1500,-7,95,218,-56,65,-11
1505,-6,95,218,-57,65,-11
1510,-6,95,218,-58,64,-10
1515,-5,92,220,-60,65,-12
1520,-4,95,218,-61,65,-10
1525,-10,94,220,-62,64,-11
1530,-3,96,221,-63,62,-7
1535,-4,94,220,-65,62,-8
1540,-6,95,218,-65,62,-7
1545,-10,95,219,-65,62,-8
1550,-7,95,219,-65,61,-6
1555,-7,95,222,-64,60,-7
1560,-6,96,219,-64,61,-5
1565,-8,96,219,-63,60,-7
1570,-5,94,216,-64,61,-5
1575,-11,97,218,-63,61,-7
1580,-8,94,222,-62,62,-6
1585,-8,95,217,-62,62,-8
1590,-8,96,220,-63,62,-7
1595,-6,93,219,-62,62,-9
1600,-4,95,219,-62,63,-5
1605,-8,92,217,-63,63,-9
1610,-8,95,215,-65,63,-8
1615,-8,94,223,-65,64,-11
1620,-9,95,217,-67,63,-9
1625,-7,94,218,-69,65,-11
1630,-9,94,217,-67,65,-10
1635,-8,96,219,-69,65,-13
1640,-9,93,217,-68,65,-11
1645,-6,93,222,-67,66,-13
1650,-8,93,223,-67,67,-12
1655,-8,94,218,-66,68,-15
1660,-8,91,219,-64,70,-12
1665,-7,92,218,-60,69,-14
1670,-6,91,218,-58,69,-11
1675,-4,88,220,-56,70,-13
1680,-6,91,220,-52,71,-13
1685,-6,93,217,-49,71,-15
1690,-6,89,218,-44,72,-12
1695,-7,92,219,-43,74,-14
1700,-5,92,218,-41,76,-13
1705,-7,94,216,-40,80,-16
1710,-4,90,222,-39,82,-16
1715,-2,90,218,-36,86,-20
1720,-1,90,222,-32,92,-22
1725,-3,89,218,-29,98,-27
1730,-2,92,222,-27,105,-29
1735,-2,90,218,-24,112,-35
1740,1,94,220,-23,122,-39
1745,1,91,219,-23,132,-49
1750,1,95,218,-22,145,-52
1755,3,91,221,-26,156,-61
1760,4,98,221,-28,169,-66
1765,4,94,221,-35,181,-74
1770,7,93,222,-38,193,-82
1775,11,91,223,-44,209,-92
1780,10,93,221,-47,224,-102
1785,13,94,224,-53,243,-112
1790,12,93,225,-59,264,-123
1795,13,91,227,-68,286,-134
1800,14,90,224,-74,308,-143
1805,14,95,228,-83,332,-154
1810,15,90,229,-91,353,-164
1815,17,90,230,-100,370,-175
1820,12,95,235,-109,383,-184
1825,14,93,229,-111,394,-196
1830,12,92,228,-119,401,-207
1835,10,94,231,-127,403,-214
1840,3,95,228,-140,403,-225
1845,2,93,229,-156,401,-232
1850,-6,96,233,-175,394,-238
1855,-12,96,235,-195,377,-244
1860,-12,92,237,-216,349,-249
1865,-20,93,236,-240,314,-250
1870,-20,90,236,-263,272,-248
1875,-22,92,236,-284,224,-248
1880,-23,92,233,-301,179,-249
1885,-24,89,230,-317,132,-248
1890,-22,86,231,-327,99,-251
1895,-26,82,228,-331,72,-250
1900,-26,78,227,-319,45,-250
1905,-30,76,230,-297,17,-245
1910,-31,70,228,-254,-19,-239
1915,-36,68,224,-191,-59,-228
1920,-39,65,224,-109,-98,-220
1925,-42,66,223,-11,-131,-212
1930,-43,64,224,106,-152,-204
1935,-44,63,221,231,-162,-196
1940,-48,63,215,381,-166,-195
1945,-51,71,213,501,-158,-195
1950,-58,77,213,609,-145,-199
1955,-57,81,213,704,-130,-202
1960,-62,89,216,782,-112,-203
1965,-65,93,214,840,-100,-195
1970,-66,102,214,876,-82,-182
1975,-70,106,211,886,-62,-163
1980,-72,116,214,876,-40,-143
1985,-74,120,211,844,-18,-120
1990,-76,120,208,794,-2,-96
1995,-80,124,204,717,13,-77
2000,-82,122,201,647,18,-64
2005,-83,121,199,574,18,-46
2010,-84,118,198,506,11,-28
2015,-85,117,196,443,-1,-2
2020,-81,112,194,390,-15,21
2025,-83,110,192,343,-30,45
2030,-82,109,192,310,-44,62
2035,-83,115,195,279,-68,80
2040,-85,118,198,253,-101,94
2045,-84,117,198,225,-148,124
2050,-86,121,198,186,-209,154
2055,-87,124,201,157,-261,189
2060,-88,125,207,131,-314,222
2065,-85,128,208,105,-361,262
2070,-84,123,207,80,-398,288
2075,-83,125,210,58,-419,312
2080,-83,120,213,43,-418,316
2085,-88,124,214,39,-402,313
2090,-87,118,217,48,-377,300
2095,-91,124,221,74,-352,292
2100,-93,125,221,107,-334,266
2105,-98,127,221,139,-317,273
2110,-98,128,224,157,-315,282
2115,-98,132,218,169,-337,291
2120,-95,132,216,169,-374,286
2125,-98,128,211,160,-409,291
2130,-92,123,202,138,-427,328
2135,-82,124,201,117,-443,392
2140,-73,125,206,95,-473,447
2145,-62,125,208,70,-512,501
2150,-52,130,211,39,-554,546
2155,-48,133,207,4,-599,615
2160,-32,140,214,-45,-657,671
2165,-27,140,210,-91,-706,725
2170,-19,140,205,-141,-754,776
2175,-7,136,203,-200,-799,837
2180,1,132,198,-256,-835,889
2185,10,128,195,-306,-866,945
2190,24,123,191,-346,-887,988
2195,35,122,192,-375,-897,1029
2200,43,118,193,-399,-895,1059
2205,48,123,192,-416,-883,1086
2210,57,121,200,-430,-866,1115
2215,61,115,205,-431,-847,1139
2220,67,111,200,-416,-829,1160
2225,74,108,203,-389,-815,1179
2230,83,101,201,-354,-798,1196
2235,97,98,201,-315,-778,1215
2240,106,95,199,-270,-750,1221
2245,110,94,196,-225,-711,1220
2250,116,92,192,-181,-660,1208
2255,114,90,192,-149,-611,1195
2260,113,94,191,-136,-571,1174
2265,110,92,195,-141,-539,1153
2270,109,86,195,-159,-524,1134
2275,103,95,194,-176,-521,1109
2280,102,98,195,-199,-517,1090
2285,103,100,200,-230,-506,1080
2290,102,102,197,-268,-491,1069
2295,97,104,197,-320,-471,1058
2300,96,96,197,-381,-450,1042
2305,88,96,202,-439,-425,1029
2310,88,94,210,-492,-398,1014
2315,81,90,214,-525,-380,1002
2320,80,88,214,-537,-380,996
2325,79,87,215,-534,-396,1004
2330,78,79,212,-524,-413,1016
2335,79,77,214,-509,-422,1027
2340,82,71,217,-489,-418,1038
2345,78,72,217,-468,-419,1049
2350,80,69,223,-450,-423,1065
2355,80,66,223,-416,-422,1081
2360,80,66,230,-356,-417,1089
2365,89,72,224,-291,-407,1098
2370,90,59,211,-233,-384,1093
2375,97,52,203,-183,-333,1058
2380,94,50,200,-127,-270,1019
2385,92,43,194,-83,-202,975
2390,90,50,197,-47,-153,944
2395,91,53,201,-19,-127,920
2400,89,57,198,3,-123,894
2405,94,55,200,15,-132,896
2410,100,55,201,19,-138,899
2415,110,54,198,19,-148,888
2420,101,51,197,16,-152,886
2425,99,52,199,17,-158,866
2430,106,47,198,22,-164,858
2435,111,41,204,31,-160,843
2440,108,37,205,51,-163,816
2445,106,36,212,79,-169,790
2450,99,35,217,115,-181,771
2455,99,32,220,155,-197,753
2460,89,31,219,197,-221,742
2465,87,28,222,241,-246,723
2470,91,22,222,284,-275,712
2475,91,26,221,323,-303,706
2480,88,26,225,354,-328,701
2485,90,28,233,396,-357,672
2490,83,30,232,430,-378,654
2495,86,34,224,458,-388,655
2500,78,33,226,470,-397,661
2505,77,26,221,486,-412,637
2510,80,25,221,505,-422,621
2515,76,25,216,526,-415,606
2520,78,26,227,547,-395,595
2525,62,27,223,569,-381,553
2530,58,29,219,574,-358,550
2535,56,36,219,574,-337,548
2540,61,37,222,570,-337,547
2545,64,37,218,558,-339,548
2550,71,44,218,536,-337,560
2555,69,34,216,508,-323,557
2560,72,34,216,482,-311,525
2565,78,24,216,474,-303,488
2570,80,26,220,477,-286,457
2575,82,26,226,496,-261,418
2580,90,31,224,529,-232,389
2585,97,33,231,575,-208,353
2590,99,38,237,629,-184,313
2595,108,40,236,699,-146,275
2600,109,50,241,754,-112,239
2605,115,54,234,800,-80,197
2610,117,61,236,837,-51,166
2615,117,62,228,861,-24,134
2620,119,65,222,870,7,107
2625,120,68,227,862,49,72
2630,124,68,227,849,104,39
2635,126,79,220,831,166,-5
2640,122,79,227,807,232,-50
2645,120,89,227,778,297,-115
2650,119,89,226,734,367,-173
2655,117,96,230,688,410,-240
2660,118,97,233,630,437,-309
2665,117,101,237,569,440,-388
2670,118,95,247,507,418,-459
2675,114,93,250,451,364,-519
2680,110,91,256,412,271,-547
2685,104,85,258,393,136,-558
2690,95,81,278,399,-31,-538
2695,96,72,282,425,-222,-497
2700,87,69,295,469,-422,-420
2705,80,63,310,558,-670,-347
2710,76,55,321,676,-874,-276
2715,72,43,328,839,-1067,-221
2720,73,37,333,1048,-1239,-176
2725,66,30,329,1300,-1381,-137
2730,63,24,322,1577,-1491,-111
2735,60,21,315,1860,-1574,-94
2740,58,23,309,2142,-1639,-78
2745,51,31,293,2431,-1678,-75
2750,52,43,269,2724,-1696,-75
2755,48,62,254,3001,-1694,-84
2760,52,79,230,3282,-1696,-85
2765,57,107,208,3451,-1716,-80
2770,63,134,180,3541,-1762,-71
2775,65,167,154,3544,-1827,-65
2780,70,197,119,3459,-1892,-56
2785,80,220,84,3277,-1945,-48
2790,79,241,46,3016,-1965,-33
2795,85,254,18,2675,-1973,-11
2800,73,266,-2,2265,-1985,34
2805,86,264,-36,1795,-2013,118
2810,90,258,-60,1279,-2078,257
2815,96,249,-63,645,-2153,376
2820,105,235,-62,148,-2233,483
2825,112,222,-49,-292,-2307,569
2830,115,208,-31,-652,-2371,638
2835,114,193,-23,-923,-2432,699
2840,108,177,-10,-1112,-2497,762
2845,110,156,4,-1218,-2559,823
2850,104,138,18,-1246,-2615,888
2855,99,124,29,-1208,-2656,948
2860,96,111,28,-1123,-2678,1002
2865,87,102,30,-1011,-2693,1052
2870,79,99,28,-866,-2704,1081
2875,74,96,23,-752,-2720,1112
2880,69,96,12,-654,-2749,1145
2885,71,101,7,-583,-2780,1183
2890,78,102,-3,-537,-2807,1222
2895,91,106,-5,-517,-2830,1266
2900,102,109,-4,-515,-2845,1309
2905,109,112,-1,-522,-2851,1359
2910,110,115,-6,-534,-2849,1414
2915,111,114,-5,-553,-2844,1488
2920,119,114,0,-576,-2835,1546
2925,125,111,4,-591,-2824,1606
2930,131,112,15,-599,-2809,1652
2935,140,111,22,-597,-2779,1698
2940,143,111,26,-587,-2736,1731
2945,150,108,25,-572,-2689,1759
2950,149,105,26,-552,-2639,1791
2955,158,93,29,-518,-2585,1833
2960,165,87,27,-477,-2534,1867
2965,178,77,26,-431,-2491,1899
2970,184,72,25,-390,-2448,1916
2975,179,70,28,-345,-2384,1928
2980,179,65,29,-306,-2328,1942
2985,188,57,30,-269,-2269,1967
2990,196,53,29,-227,-2203,1981
2995,205,48,30,-175,-2135,1984
3000,217,41,28,-107,-2068,1971
3005,227,40,30,-20,-2004,1952
3010,233,38,27,83,-1937,1917
3015,247,44,24,194,-1875,1879
3020,264,51,18,292,-1806,1824
3025,280,64,29,363,-1720,1736
3030,288,75,27,403,-1568,1636
3035,308,94,45,412,-1396,1524
3040,327,109,57,395,-1192,1396
3045,352,127,68,355,-962,1260
3050,379,149,85,286,-708,1108
3055,418,178,108,178,-441,963
3060,451,199,127,54,-194,808
3065,500,216,137,-74,17,678
3070,534,224,136,-179,189,577
3075,585,210,134,-225,316,501
3080,647,201,127,-173,416,425
3085,685,173,96,61,482,391
3090,700,130,46,341,491,329
3095,684,100,-18,632,457,220
3100,619,78,-78,885,375,39
3105,512,86,-123,1077,263,-152
3110,449,93,-142,1181,123,-257
3115,378,110,-161,1173,-47,-254
3120,319,116,-166,1070,-228,-189
3125,268,136,-158,895,-395,-86
3130,221,146,-146,677,-529,21
3135,190,156,-128,435,-625,144
3140,159,158,-102,141,-654,232
3145,136,160,-83,-90,-650,312
3150,127,152,-67,-294,-620,373
3155,120,140,-49,-472,-560,417
3160,116,126,-31,-623,-473,438
3165,117,116,-13,-748,-369,443
3170,123,104,4,-846,-255,425
3175,129,97,22,-928,-138,399
3180,141,89,34,-996,-21,364
3185,159,80,48,-1049,88,333
3190,174,73,52,-1074,221,291
3195,193,68,62,-1071,328,253
3200,200,61,70,-1044,426,210
3205,201,57,76,-996,504,181
3210,198,51,77,-929,559,171
3215,208,41,79,-843,590,189
3220,220,27,82,-739,597,230
3225,225,14,85,-606,589,285
3230,223,12,77,-448,564,374
3235,260,-13,90,-260,533,478
3240,269,-27,94,-27,485,551
3245,287,-43,100,240,413,650
3250,304,-54,99,603,332,732
3255,318,-59,84,916,229,786
3260,324,-56,69,1210,111,824
3265,330,-55,61,1453,-11,856
3270,334,-48,38,1625,-148,876
3275,335,-38,13,1721,-301,891
3280,331,-20,-12,1742,-468,889
3285,324,-1,-45,1688,-648,875
3290,317,18,-63,1552,-829,855
3295,320,40,-86,1351,-994,831
3300,319,54,-93,1109,-1161,798
3305,314,63,-89,799,-1259,771
3310,303,72,-81,546,-1314,755
3315,292,68,-74,309,-1340,749
3320,286,67,-59,99,-1344,750
3325,280,61,-43,-73,-1339,750
3330,275,55,-28,-199,-1327,742
3335,272,42,-9,-286,-1304,733
3340,267,38,-1,-330,-1281,722
3345,264,29,6,-344,-1253,718
3350,262,21,21,-334,-1217,731
3355,262,11,23,-293,-1164,755
3360,283,8,41,-211,-1109,772
3365,259,2,26,-109,-1043,761
3370,263,0,27,-17,-959,792
3375,264,-6,20,69,-883,818
3380,273,-15,14,149,-806,835
3385,275,-16,10,215,-729,833
3390,283,-20,2,264,-648,823
3395,285,-23,-2,293,-565,799
3400,278,-24,-20,297,-481,759
3405,283,-27,-25,264,-398,736
3410,283,-30,-36,197,-306,720
3415,281,-31,-40,120,-230,687
3420,280,-30,-46,34,-153,644
3425,277,-31,-51,-49,-74,598
3430,280,-30,-41,-129,10,559
3435,280,-31,-37,-203,87,516
3440,275,-31,-38,-265,150,474
3445,277,-25,-39,-314,191,430
3450,275,-26,-25,-346,211,391
3455,276,-27,-22,-362,210,351
3460,283,-27,-25,-365,199,314
3465,285,-27,-18,-348,183,282
3470,286,-24,-17,-320,169,251
3475,286,-22,-11,-280,153,218
3480,288,-19,-12,-230,139,189
3485,287,-16,-10,-168,123,157
3490,289,-12,-11,-98,108,129
3495,292,-10,-21,-24,95,99
3500,292,-4,-17,47,78,79
3505,293,-1,-24,108,64,60
3510,290,0,-31,153,47,54
3515,292,2,-37,179,21,56
3520,292,5,-43,185,-1,73
3525,295,3,-49,166,-25,90
3530,292,5,-55,124,-52,110
3535,290,5,-61,67,-84,128
3540,288,1,-65,0,-122,156
3545,291,0,-68,-69,-164,182
3550,285,0,-67,-136,-204,209
3555,287,-8,-63,-204,-237,233
3560,281,-9,-66,-259,-260,257
3565,282,-14,-61,-301,-273,268
3570,275,-13,-51,-327,-274,271
3575,272,-15,-52,-338,-270,266
3580,271,-17,-42,-332,-255,260
3585,270,-14,-43,-313,-235,249
3590,266,-14,-36,-287,-208,235
3595,261,-9,-37,-259,-183,216
3600,261,-7,-32,-233,-157,201
3605,258,0,-30,-209,-134,180
3610,257,4,-26,-187,-114,167
3615,257,1,-29,-169,-97,150
3620,259,0,-27,-151,-85,141
3625,261,1,-23,-135,-72,126
3630,266,2,-23,-120,-62,121
3635,263,2,-25,-113,-49,115
3640,265,0,-17,-112,-47,107
3645,268,0,-22,-101,-49,95
3650,273,-1,-19,-77,-46,97
3655,270,-6,-22,-52,-33,99
3660,277,-12,-29,-30,-35,91
3665,274,-7,-23,6,-37,86
3670,276,-6,-30,43,-36,91
3675,279,-8,-27,77,-34,94
3680,276,-5,-33,109,-30,96
3685,283,-4,-34,130,-28,96
3690,282,0,-43,146,-19,103
3695,281,0,-44,146,-23,94
3700,282,0,-46,146,-38,86
3705,287,1,-52,144,-49,81
3710,287,2,-54,130,-55,76
3715,291,1,-58,109,-60,65
3720,285,5,-64,77,-59,59
3725,287,2,-60,41,-57,51
3730,286,0,-61,6,-53,44
3735,287,-2,-59,-30,-47,40
3740,285,-6,-55,-52,-41,36
3745,285,-5,-55,-66,-35,33
3750,285,-7,-49,-76,-29,33
3755,285,-10,-49,-83,-21,30
3760,281,-10,-49,-84,-15,29
3765,281,-14,-51,-79,-9,26
3770,278,-13,-48,-69,-5,25
3775,281,-14,-47,-56,-1,24
3780,283,-16,-51,-39,-2,27
3785,281,-15,-50,-24,-1,28
3790,279,-16,-45,-12,-2,28
3795,277,-13,-47,-5,-1,27
3800,278,-15,-46,-2,2,26
3805,276,-12,-48,-2,5,20
3810,277,-14,-55,0,9,9
3815,280,-12,-48,1,16,-3
3820,281,-14,-51,4,26,-17
3825,279,-12,-56,8,37,-35
3830,281,-14,-51,12,53,-52
3835,281,-11,-54,14,71,-69
3840,281,-12,-49,17,87,-87
3845,280,-13,-57,13,111,-100
3850,281,-13,-57,6,130,-114
3855,283,-12,-56,-2,154,-128
3860,282,-14,-52,-13,175,-143
3865,283,-10,-53,-23,196,-157
3870,284,-10,-52,-34,215,-170
3875,283,-11,-50,-44,232,-181
3880,285,-13,-48,-55,248,-192
3885,286,-13,-49,-66,265,-198
3890,284,-11,-44,-73,279,-210
3895,281,-14,-44,-83,290,-213
3900,284,-12,-42,-91,300,-212
3905,285,-15,-38,-99,304,-209
3910,284,-13,-39,-99,306,-211
3915,281,-13,-34,-97,307,-207
3920,284,-14,-40,-92,307,-210
3925,281,-15,-37,-86,304,-208
3930,281,-13,-36,-75,302,-209
3935,280,-11,-36,-65,299,-210
3940,277,-9,-35,-56,301,-215
3945,280,-11,-41,-47,302,-217
3950,278,-8,-39,-39,306,-225
3955,276,-4,-35,-31,313,-229
3960,273,-6,-36,-27,317,-238
3965,277,-5,-37,-25,323,-243
3970,273,-1,-34,-27,329,-252
3975,270,0,-38,-28,335,-257
3980,273,2,-34,-33,342,-267
3985,268,3,-33,-39,350,-273
3990,269,3,-29,-47,356,-283
3995,270,5,-32,-54,362,-290
4000,270,4,-29,-62,368,-299
4005,268,6,-30,-67,376,-307
4010,268,5,-25,-75,382,-319
4015,265,9,-22,-76,387,-326
4020,264,7,-26,-77,387,-336
4025,265,8,-24,-75,386,-341
4030,265,8,-23,-72,381,-347
4035,268,7,-18,-68,377,-348
4040,268,9,-19,-62,371,-350
4045,269,10,-17,-58,365,-347
4050,271,9,-17,-54,360,-348
4055,271,9,-18,-50,352,-340
4060,270,15,-15,-43,342,-334
4065,271,14,-17,-37,332,-325
4070,270,13,-14,-30,320,-316
4075,272,10,-14,-22,307,-298
4080,275,16,-16,-14,294,-282
4085,274,16,-15,-7,279,-262
4090,275,13,-17,-3,267,-246
4095,276,15,-19,-1,254,-223
4100,274,10,-22,0,244,-209
4105,272,14,-14,-1,234,-189
4110,271,16,-13,-5,225,-172
4115,275,20,-15,-7,215,-158
4120,270,22,-16,-12,206,-147
4125,269,24,-17,-16,198,-136
4130,268,22,-14,-21,191,-128
4135,267,26,-17,-27,184,-120
4140,268,26,-19,-36,176,-116
4145,269,23,-17,-45,173,-109
4150,268,22,-16,-57,169,-107
4155,267,23,-18,-66,168,-103
4160,266,22,-13,-74,168,-105
4165,267,23,-18,-81,169,-102
4170,266,24,-15,-85,171,-106
4175,264,22,-14,-85,171,-106
4180,266,22,-13,-85,170,-109
4185,265,19,-12,-81,171,-109
4190,266,19,-11,-76,172,-109
4195,267,22,-12,-71,170,-109
4200,263,22,-13,-64,169,-109
4205,267,19,-7,-59,167,-106
4210,264,21,-13,-54,166,-105
4215,265,17,-9,-48,163,-100
4220,267,22,-9,-43,159,-96
4225,267,22,-8,-35,152,-89
4230,268,18,-10,-31,145,-83
4235,265,25,-5,-26,138,-77
4240,264,18,-9,-22,131,-73
4245,273,17,-10,-15,122,-66
4250,271,19,-7,-8,115,-60
4255,271,15,-8,-2,108,-53
4260,269,17,-11,3,103,-48
4265,268,17,-13,10,97,-43
4270,268,17,-12,15,94,-40
4275,270,18,-10,18,92,-37
4280,269,20,-13,19,90,-36
4285,271,19,-11,21,88,-35
4290,268,18,-12,21,87,-32
4295,268,22,-12,21,86,-32
4300,270,19,-13,22,85,-30
4305,269,20,-10,23,85,-30
4310,266,24,-12,22,84,-28
4315,267,24,-9,21,84,-27
4320,267,24,-9,21,81,-26
4325,270,22,-8,19,77,-24
4330,269,22,-10,15,70,-21
4335,266,26,-9,10,59,-21
4340,269,25,-14,3,49,-16
4345,270,21,-7,-2,39,-11
4350,271,21,-10,-8,31,-5
4355,268,24,-12,-13,23,-2
4360,268,24,-11,-16,17,3
4365,269,22,-11,-18,11,7
4370,269,19,-8,-22,8,14
4375,271,24,-5,-19,5,18
4380,267,22,-11,-15,0,23
4385,267,21,-9,-11,-3,28
4390,265,24,-13,-4,-5,34
4395,267,22,-13,-2,-5,36
4400,270,22,-7,1,-4,43
4405,267,25,-10,3,-6,46
4410,271,24,-7,4,-8,53
4415,267,28,-16,-1,-9,54
4420,265,27,-11,-7,-10,62
4425,266,24,-8,-16,-14,63
4430,265,27,-11,-25,-18,68
4435,265,28,-12,-32,-23,69
4440,267,28,-13,-39,-31,75
4445,268,24,-13,-45,-39,78
4450,269,26,-18,-52,-46,84
4455,267,27,-18,-58,-55,87
4460,272,20,-16,-63,-61,94
4465,270,19,-21,-68,-67,94
4470,269,18,-20,-76,-72,101
4475,269,17,-20,-81,-74,100
4480,270,17,-20,-88,-78,104
4485,273,15,-22,-93,-75,100
4490,274,12,-20,-97,-73,100
4495,270,16,-19,-98,-68,95
4500,271,15,-21,-97,-62,93
4505,272,14,-21,-96,-55,87
4510,269,14,-22,-93,-50,84
4515,271,10,-23,-91,-45,77
4520,269,10,-21,-88,-41,76
4525,272,15,-20,-86,-37,71
4530,272,13,-17,-84,-35,70
4535,270,8,-23,-81,-31,65
4540,270,14,-16,-78,-30,65
4545,273,12,-19,-73,-28,60
4550,273,14,-18,-67,-29,60
4555,272,10,-18,-61,-28,57
4560,274,14,-22,-52,-28,59
4565,277,13,-24,-43,-29,56
4570,280,9,-21,-34,-29,60
4575,275,15,-15,-26,-28,59
4580,277,11,-20,-18,-26,63
4585,277,12,-18,-11,-21,61
4590,277,12,-21,-6,-20,64
4595,277,11,-17,-3,-15,62
4600,278,11,-21,-1,-14,66
4605,278,13,-22,-1,-11,66
4610,278,12,-22,0,-12,69
4615,275,14,-20,-2,-12,72
4620,275,16,-22,-4,-13,75
4625,274,17,-24,-5,-17,77
4630,275,15,-23,-11,-20,82
4635,271,16,-25,-16,-27,82
4640,273,17,-20,-24,-33,87
4645,263,18,-26,-31,-36,90
4650,272,15,-23,-38,-42,93
4655,273,14,-24,-44,-44,93
4660,271,14,-23,-52,-46,94
4665,268,11,-21,-60,-51,93
4670,270,15,-21,-66,-52,93
4675,270,14,-22,-68,-55,91
4680,271,13,-21,-72,-59,87
4685,269,12,-20,-71,-63,84
4690,270,12,-21,-70,-67,81
4695,269,11,-20,-67,-70,76
4700,270,11,-22,-65,-72,76
4705,271,8,-20,-61,-73,74
4710,271,12,-24,-57,-74,74
4715,274,10,-25,-48,-76,72
4720,276,8,-23,-37,-77,71
4725,274,6,-27,-32,-78,71
4730,274,5,-25,-28,-77,72
4735,275,8,-27,-26,-75,74
4740,278,6,-29,-19,-74,76
4745,279,6,-28,-13,-70,76
4750,279,7,-31,-10,-65,76
4755,278,4,-29,-11,-57,79
4760,279,7,-31,-8,-50,78
4765,278,6,-31,-7,-46,78
4770,278,7,-30,-8,-42,79
4775,280,5,-29,-8,-39,79
4780,281,7,-32,-10,-36,76
4785,279,6,-31,-12,-32,73
4790,279,6,-30,-8,-32,69
4795,278,8,-33,-7,-31,68
4800,276,5,-35,-5,-30,65
4805,279,5,-33,-3,-27,64
4810,278,5,-32,-1,-26,63
4815,279,5,-38,-1,-24,62
4820,278,7,-34,-2,-23,59
4825,277,6,-37,-5,-21,59
4830,276,4,-31,-6,-17,56
4835,276,5,-33,-8,-15,57
4840,277,5,-34,-10,-11,55
4845,276,5,-35,-10,-9,54
4850,278,2,-33,-13,-6,52
4855,274,7,-32,-15,-2,49
4860,273,9,-29,-18,1,45
4865,273,7,-29,-21,3,41
4870,274,6,-30,-23,5,37
4875,276,3,-32,-24,7,39
4880,271,6,-28,-26,8,35
4885,273,7,-28,-25,9,36
4890,273,6,-31,-23,9,32
4895,276,6,-31,-21,8,33
4900,273,8,-32,-20,11,29
4905,271,5,-33,-17,11,29
4910,273,5,-34,-13,14,27
4915,272,8,-34,-11,15,26
4920,274,7,-34,-8,17,22
4925,275,5,-33,-6,21,21
4930,271,7,-33,-1,24,18
4935,272,5,-34,-1,27,19
4940,277,2,-32,-3,30,14
4945,275,6,-38,-6,33,14
4950,276,7,-38,-13,37,7
4955,274,6,-40,-18,44,7
4960,276,8,-40,-25,49,0
4965,277,5,-38,-27,54,-1
4970,274,6,-43,-33,58,-7
4975,276,5,-39,-38,62,-8
4980,275,5,-41,-43,68,-13
4985,275,5,-33,-49,73,-14
4990,274,4,-34,-49,78,-19
4995,275,3,-36,-50,83,-18
5000,275,4,-39,-50,86,-21
5005,274,3,-36,-50,89,-22
5010,277,2,-36,-47,91,-26
5015,275,3,-35,-46,94,-24
5020,278,2,-33,-41,96,-28
5025,276,1,-33,-35,98,-26
5030,275,1,-35,-27,101,-31
5035,277,1,-33,-20,104,-27
5040,276,2,-34,-12,105,-29
5045,273,4,-37,-5,107,-29
5050,274,2,-33,1,110,-33
5055,275,2,-37,6,113,-34
5060,272,3,-36,7,119,-42
5065,272,1,-35,8,129,-45
5070,273,2,-36,12,139,-53
5075,273,0,-32,16,149,-58
5080,274,2,-33,18,159,-65
5085,274,2,-34,25,166,-71
5090,274,1,-36,27,176,-79
5095,273,4,-35,27,187,-86
5100,273,6,-32,25,199,-94
5105,273,7,-31,22,210,-99
5110,273,6,-28,20,218,-104
5115,268,10,-25,17,225,-104
5120,270,7,-25,14,227,-106
5125,270,13,-25,12,226,-104
5130,269,14,-28,5,224,-107
5135,273,13,-25,-2,222,-106
5140,273,15,-20,-10,220,-109
5145,275,13,-20,-17,217,-111
5150,272,15,-18,-21,216,-110
5155,276,12,-19,-21,208,-106
5160,270,15,-15,-18,194,-96
5165,273,13,-21,-14,174,-86
5170,272,10,-21,-9,153,-75
5175,274,14,-21,-7,132,-64
5180,273,14,-23,-7,115,-56
5185,270,11,-18,-9,101,-49
5190,273,11,-21,-10,93,-42
5195,272,11,-18,-9,81,-36
5200,272,11,-25,-8,67,-30
5205,269,12,-23,-5,58,-26
5210,271,12,-22,-3,50,-24
5215,270,14,-27,-4,45,-25
5220,274,10,-28,-4,46,-26
5225,271,11,-27,-5,52,-32
5230,267,12,-25,-9,60,-35
5235,269,10,-28,-9,65,-38
5240,268,8,-29,-10,69,-38
5245,267,11,-32,-11,72,-39
5250,271,11,-30,-14,78,-39
5255,272,15,-30,-17,89,-44
5260,270,11,-25,-21,100,-50
5265,273,14,-28,-25,112,-58
5270,273,13,-28,-26,124,-60
5275,270,10,-25,-24,142,-60
5280,271,13,-24,-23,143,-63
5285,270,15,-22,-20,141,-64
5290,272,14,-25,-17,138,-59
5295,264,11,-26,-15,136,-58
5300,273,14,-21,-15,134,-54
5305,274,16,-23,-16,134,-55
5310,273,17,-18,-19,134,-53
5315,272,16,-21,-20,130,-51
5320,273,16,-19,-20,123,-44
5325,272,16,-19,-17,112,-39
5330,273,14,-25,-17,103,-33
5335,273,14,-22,-16,96,-29
5340,277,13,-25,-17,92,-24
5345,273,15,-21,-19,87,-24
5350,271,13,-23,-20,83,-19
5355,272,13,-25,-18,77,-15
5360,273,9,-22,-16,69,-10
5365,273,11,-24,-15,64,-11
5370,274,12,-23,-15,57,-6
5375,273,15,-26,-16,56,-9
5380,274,14,-22,-16,57,-10
5385,272,14,-24,-19,61,-15
5390,272,15,-23,-21,64,-14
5395,270,14,-28,-21,66,-19
5400,272,13,-27,-20,67,-16
5405,268,10,-25,-17,64,-17
5410,269,15,-23,-17,62,-16
5415,272,13,-25,-19,61,-21
5420,271,14,-22,-20,61,-19
5425,271,15,-27,-22,63,-23
5430,272,14,-26,-23,65,-22
5435,270,14,-24,-23,69,-25
5440,273,13,-28,-23,69,-23
5445,272,14,-26,-20,73,-21
5450,271,11,-22,-22,74,-23
5455,271,13,-26,-24,71,-26
5460,272,15,-22,-25,71,-23
5465,272,13,-24,-27,76,-27
5470,276,12,-25,-28,80,-25
5475,274,9,-26,-28,82,-27
5480,274,13,-19,-29,82,-23
5485,274,13,-25,-28,81,-24
5490,275,13,-25,-29,83,-21
5495,274,12,-23,-29,84,-21
5500,276,11,-22,-31,89,-18
5505,275,9,-21,-33,91,-20
5510,273,8,-25,-34,87,-21
5515,267,11,-26,-33,83,-19
5520,274,9,-26,-28,76,-15
5525,273,10,-23,-25,71,-12
5530,276,9,-25,-22,68,-8
5535,272,14,-21,-23,64,-8
5540,273,14,-23,-23,61,-5
5545,271,12,-20,-25,62,-7
5550,273,9,-25,-26,62,-6
5555,270,15,-21,-24,64,-8
5560,271,14,-19,-24,64,-6
5565,277,10,-21,-21,63,-8
5570,274,13,-24,-18,62,-9
5575,277,10,-19,-13,61,-12
5580,275,14,-20,-9,60,-12
5585,273,12,-22,-6,61,-14
5590,274,13,-21,-2,62,-12
5595,273,10,-17,2,63,-14
5600,274,14,-26,6,62,-11
5605,275,13,-20,11,60,-9
5610,277,12,-22,12,59,-5
5615,276,14,-23,12,59,-5
5620,272,17,-27,12,59,-2
5625,275,14,-24,11,61,-3
5630,274,15,-26,8,64,-3
5635,272,16,-23,6,66,-3
5640,275,14,-22,4,64,-1
5645,272,14,-20,2,62,-1
5650,274,14,-26,1,60,0
5655,273,15,-24,-3,58,1
5660,272,13,-22,-8,59,0
5665,274,14,-24,-13,60,-2
5670,275,15,-24,-17,59,-4
5675,273,12,-26,-21,59,-6
5680,272,14,-23,-23,58,-9
5685,270,14,-22,-25,54,-9
5690,271,15,-21,-28,52,-11
5695,273,15,-22,-27,51,-11
5700,274,14,-23,-28,52,-14
5705,276,11,-25,-29,53,-14
5710,273,13,-23,-27,55,-17
5715,272,15,-22,-26,54,-17
5720,272,14,-25,-23,54,-18
5725,271,16,-24,-20,53,-16
5730,276,17,-28,-17,54,-15
5735,275,12,-22,-17,53,-15
5740,273,12,-26,-16,56,-17
5745,275,13,-24,-18,60,-16
5750,274,11,-25,-18,65,-21
5755,275,12,-26,-18,70,-20
5760,272,13,-27,-18,74,-23
5765,274,12,-21,-18,76,-23
5770,275,12,-25,-13,79,-24
5775,273,14,-24,-11,79,-21
5780,276,13,-22,-8,82,-23
5785,275,14,-24,-9,83,-22
5790,274,14,-21,-7,88,-20
5795,274,14,-26,-11,92,-20
5800,274,14,-21,-12,93,-20
5805,275,17,-21,-13,90,-18
5810,273,13,-26,-14,86,-19
5815,274,14,-24,-17,83,-16
5820,276,12,-23,-19,81,-17
5825,275,15,-22,-22,81,-15
5830,274,13,-21,-24,81,-16
5835,271,13,-23,-27,81,-13
5840,271,18,-27,-28,79,-12
5845,273,13,-20,-30,77,-7
5850,271,16,-25,-30,75,-8
5855,274,12,-18,-29,74,-6
5860,273,14,-22,-28,74,-8
5865,273,16,-20,-29,76,-8
5870,272,14,-23,-26,76,-12
5875,273,16,-19,-25,76,-11
5880,270,15,-21,-23,76,-13
5885,271,16,-22,-22,74,-10
5890,270,17,-21,-19,72,-13
5895,269,17,-23,-17,71,-13
5900,271,12,-22,-15,71,-16
5905,272,16,-24,-15,70,-15
5910,275,13,-24,-12,69,-18
5915,271,15,-23,-11,68,-14
5920,273,12,-22,-7,67,-15
5925,275,13,-25,-4,65,-12
5930,274,14,-25,-2,64,-13
5935,274,12,-22,-3,62,-9
5940,272,16,-23,-3,62,-13
5945,275,15,-23,-4,64,-10
5950,276,17,-31,-4,68,-12
5955,275,14,-24,-4,73,-12
5960,272,14,-22,-6,75,-15
5965,271,12,-23,-6,76,-16
5970,272,15,-20,-10,75,-19
5975,273,16,-25,-12,74,-19
5980,273,17,-21,-15,73,-21
5985,276,15,-21,-17,73,-21
5990,275,14,-19,-20,75,-23
5995,271,16,-23,-22,74,-22
6000,273,15,-23,-25,73,-22
6005,272,14,-22,-27,70,-19
6010,272,15,-18,-29,69,-19
6015,271,15,-24,-29,67,-16
6020,273,16,-22,-30,66,-17
6025,275,18,-19,-31,66,-15
6030,272,16,-22,-29,66,-17
6035,273,14,-23,-29,66,-16
6040,274,15,-19,-28,67,-18
6045,276,15,-21,-26,65,-18
6050,272,15,-21,-24,66,-18
6055,275,15,-21,-21,65,-18
6060,273,17,-23,-19,65,-17
6065,274,17,-21,-19,66,-16
6070,273,15,-22,-16,65,-17
6075,272,16,-24,-15,64,-15
6080,275,13,-25,-14,63,-13
6085,270,16,-24,-14,63,-11
6090,274,15,-25,-14,62,-9
6095,276,13,-19,-13,60,-8
6100,274,16,-22,-13,60,-7
6105,277,14,-26,-15,62,-5
6110,274,16,-24,-15,63,-5
6115,275,16,-23,-14,64,-7
6120,275,15,-23,-15,65,-4
6125,274,13,-27,-15,67,-5
6130,273,14,-23,-17,70,-4
6135,275,17,-24,-17,70,-7
6140,274,15,-21,-17,72,-7
6145,272,17,-25,-20,71,-9
6150,275,13,-23,-22,73,-9
6155,272,15,-23,-21,75,-10
6160,272,18,-20,-22,75,-11
6165,275,15,-23,-25,74,-11
6170,269,11,-27,-25,74,-9
6175,272,14,-23,-26,74,-11
6180,274,15,-24,-28,74,-10
6185,273,16,-21,-29,74,-12
6190,274,15,-22,-29,74,-11
6195,271,16,-24,-29,73,-11
6200,272,13,-26,-28,74,-10
6205,272,10,-18,-26,73,-10
6210,275,18,-21,-24,73,-8
6215,272,14,-22,-23,72,-9
6220,273,15,-18,-23,73,-8
6225,274,14,-25,-23,74,-10
6230,271,15,-22,-21,75,-11
6235,274,15,-23,-19,75,-13
6240,273,15,-18,-19,75,-12
6245,274,14,-23,-17,75,-16
6250,272,15,-19,-16,75,-15
6255,271,16,-17,-12,76,-18
6260,272,16,-22,-13,75,-16
6265,273,16,-18,-11,75,-17
6270,272,16,-18,-9,75,-15
6275,281,8,-16,-8,75,-19
6280,274,14,-25,-7,76,-19
6285,272,18,-20,-7,77,-20
6290,273,15,-20,-5,78,-18
6295,273,17,-17,-3,77,-19
6300,273,15,-20,-3,76,-16
6305,274,17,-23,-2,73,-17
6310,274,15,-20,-2,72,-14
6315,273,16,-20,-2,71,-18
6320,272,19,-21,-5,70,-17
6325,273,16,-20,-7,73,-19
6330,272,15,-18,-8,69,-17
6335,271,17,-23,-9,69,-17
6340,273,13,-20,-10,65,-14
6345,275,14,-24,-11,63,-15
6350,272,20,-24,-13,61,-12
6355,275,18,-23,-14,61,-15
6360,273,16,-22,-15,61,-11
6365,273,17,-22,-16,62,-13
6370,272,17,-22,-15,62,-10
6375,273,14,-24,-14,61,-11
6380,275,15,-24,-14,60,-9
6385,281,19,-23,-16,62,-10
6390,275,12,-23,-17,63,-8
6395,272,17,-19,-17,63,-11
6400,274,15,-20,-17,66,-9
6405,271,17,-27,-16,68,-12
6410,270,15,-21,-19,68,-9
6415,276,16,-21,-18,69,-13
6420,272,15,-24,-15,70,-10
6425,270,19,-24,-16,70,-13
6430,275,13,-20,-17,71,-10
6435,272,17,-22,-17,73,-11
6440,272,16,-18,-16,72,-10
6445,273,15,-18,-15,75,-13
6450,270,16,-23,-14,74,-11
6455,271,16,-26,-14,75,-15
6460,272,15,-22,-12,76,-13
6465,272,17,-22,-13,77,-15
6470,272,17,-20,-12,78,-15
6475,271,20,-22,-13,81,-18
6480,272,15,-20,-14,83,-18
6485,273,18,-16,-13,82,-20
6490,272,16,-22,-13,84,-19
6495,275,19,-20,-14,81,-17
6500,269,18,-25,-13,79,-17
6505,273,17,-19,-14,77,-16
6510,273,18,-18,-16,77,-14
6515,273,19,-22,-18,77,-14
6520,272,16,-23,-19,76,-12
6525,273,14,-20,-21,74,-12
6530,274,14,-20,-22,74,-10
6535,274,14,-23,-23,73,-10
6540,273,17,-22,-23,71,-8
6545,274,15,-19,-22,70,-7
6550,276,16,-20,-20,68,-8
6555,276,16,-18,-18,70,-7
6560,275,17,-19,-15,71,-9
6565,278,15,-23,-11,69,-8
6570,274,16,-21,-6,70,-10
6575,276,15,-19,-1,69,-7
6580,275,17,-19,6,68,-6
6585,279,15,-23,11,67,-5
6590,279,17,-23,14,66,-4
6595,280,13,-26,18,65,-4
6600,278,17,-29,24,64,-3
6605,280,18,-24,31,62,1
6610,284,15,-26,35,60,2
6615,287,13,-26,37,55,7
6620,283,13,-31,37,52,11
6625,287,16,-29,34,45,19
6630,289,11,-28,30,41,23
6635,291,11,-31,25,40,28
6640,291,14,-30,19,40,32
6645,292,13,-30,14,39,35
6650,293,8,-30,8,41,35
6655,296,8,-29,2,41,38
6660,295,10,-32,-5,46,34
6665,296,10,-36,-9,52,33
6670,295,8,-34,-15,58,25
6675,291,7,-38,-18,68,22
6680,295,2,-35,-23,76,13
6685,294,6,-33,-26,90,3
6690,294,4,-34,-26,105,-11
6695,295,4,-35,-24,126,-23
6700,296,3,-30,-20,146,-40
6705,294,3,-33,-16,167,-59
6710,295,2,-31,-9,194,-79
6715,291,6,-40,-4,214,-96
6720,295,0,-32,2,233,-117
6725,291,4,-31,12,248,-133
6730,296,0,-30,22,263,-154
6735,294,1,-29,33,278,-169
6740,291,0,-28,47,289,-185
6745,291,2,-26,63,299,-197
6750,293,1,-25,75,310,-214
6755,293,3,-26,88,320,-224
6760,289,4,-25,99,333,-238
6765,289,7,-23,114,340,-243
6770,285,5,-21,126,344,-248
6775,288,9,-20,136,353,-249
6780,286,10,-17,147,362,-257
6785,289,6,-15,156,371,-262
6790,279,12,-17,163,378,-270
6795,283,11,-14,166,388,-271
6800,279,15,-9,169,392,-276
6805,271,20,-7,171,395,-277
6810,271,17,-10,168,394,-282
6815,268,23,-9,162,391,-278
6820,265,22,-16,153,389,-281
6825,265,28,-9,143,387,-280
6830,268,27,-7,133,390,-284
6835,268,27,-8,127,398,-284
6840,266,28,-11,123,408,-293
6845,269,27,-9,124,419,-299
6850,268,27,-9,128,434,-310
6855,271,27,-7,133,451,-319
6860,272,25,-8,141,468,-333
6865,268,30,-9,149,487,-341
6870,270,26,-8,158,510,-359
6875,273,26,-9,166,527,-369
6880,273,30,-15,170,543,-382
6885,274,25,-11,168,558,-391
6890,276,27,-15,167,570,-403
6895,273,28,-13,162,583,-413
6900,274,26,-13,151,595,-426
6905,274,30,-14,137,608,-435
6910,273,28,-12,121,622,-444
6915,277,28,-14,105,635,-452
6920,275,32,-16,85,648,-463
6925,275,33,-11,57,664,-469
6930,275,33,-12,35,672,-477
6935,277,36,-8,15,683,-484
6940,278,36,-9,-2,696,-487
6945,278,40,-10,-16,712,-493
6950,279,35,-5,-26,729,-499
6955,280,36,-6,-37,742,-506
6960,278,37,-6,-47,756,-514
6965,280,37,-2,-57,769,-521
6970,278,41,0,-67,779,-528
6975,278,41,-5,-81,789,-536
6980,277,43,0,-99,799,-543
6985,278,42,0,-119,806,-551
6990,276,44,5,-138,810,-560
6995,274,46,3,-156,814,-569
7000,276,45,7,-179,822,-579
7005,275,44,6,-203,828,-591
7010,274,42,8,-227,835,-603
7015,275,43,10,-249,845,-612
7020,272,42,14,-267,854,-622
7025,271,46,20,-286,859,-631
7030,271,43,17,-304,866,-640
7035,268,41,19,-325,873,-649
7040,270,52,9,-348,879,-655
7045,263,42,26,-366,881,-660
7050,257,50,36,-384,879,-663
7055,257,55,29,-401,876,-663
7060,258,55,36,-421,874,-661
7065,258,55,37,-434,873,-661
7070,262,51,42,-443,876,-655
7075,262,47,40,-445,876,-656
7080,260,47,39,-441,878,-660
7085,259,43,47,-424,880,-670
7090,258,44,53,-404,877,-677
7095,255,44,59,-388,865,-691
7100,255,49,66,-369,846,-695
7105,254,53,72,-347,822,-692
7110,251,57,79,-325,791,-685
7115,254,59,85,-300,752,-679
7120,254,60,88,-271,709,-666
7125,256,60,89,-232,671,-651
7130,257,60,93,-188,639,-637
7135,259,59,84,-142,609,-639
7140,260,58,86,-83,592,-640
7145,257,62,84,-31,582,-649
7150,257,64,81,23,562,-647
7155,254,65,83,86,535,-637
7160,253,67,77,151,499,-612
7165,251,70,71,215,459,-589
7170,248,73,62,271,417,-559
7175,245,78,62,313,385,-537
7180,243,78,54,336,360,-512
7185,240,86,50,342,344,-489
7190,233,93,41,335,332,-463
7195,229,93,31,302,331,-454
7200,226,96,23,256,341,-448
7205,222,96,12,192,367,-457
7210,219,99,14,114,412,-472
7215,214,100,15,23,465,-500
7220,208,108,27,-77,520,-523
7225,201,113,36,-171,577,-547
7230,196,118,45,-253,625,-561
7235,193,123,52,-315,656,-578
7240,196,128,57,-357,675,-589
7245,203,129,58,-377,686,-596
7250,206,133,61,-372,681,-585
7255,202,132,56,-355,662,-563
7260,212,135,61,-342,624,-525
7265,212,138,62,-345,585,-482
7270,214,137,64,-360,550,-434
7275,214,143,67,-385,515,-392
7280,212,148,74,-405,482,-350
7285,214,149,81,-417,451,-321
7290,212,150,80,-420,422,-300
7295,212,149,82,-417,395,-289
7300,215,146,81,-393,362,-278
7305,217,141,76,-365,335,-269
7310,219,134,69,-338,315,-267
7315,218,130,69,-311,301,-271
7320,217,132,66,-286,284,-278
7325,216,135,64,-262,274,-279
7330,210,141,65,-247,258,-271
7335,204,146,60,-246,230,-265
7340,205,147,62,-263,193,-255
7345,205,155,62,-302,162,-244
7350,207,155,59,-364,155,-225
7355,207,158,63,-463,161,-215
7360,206,163,65,-556,173,-202
7365,206,155,67,-650,184,-191
7370,207,158,71,-737,188,-179
7375,210,149,77,-810,193,-160
7380,209,145,79,-874,204,-117
7385,216,131,88,-915,205,-66
7390,219,130,91,-941,210,-21
7395,227,120,97,-939,214,24
7400,230,111,101,-917,215,76
7405,241,110,110,-873,214,112
7410,248,109,114,-820,204,149
7415,253,110,108,-755,187,180
7420,256,110,102,-695,160,209
7425,255,111,94,-647,129,237
7430,242,118,90,-629,96,263
7435,254,107,71,-631,59,298
7440,249,108,66,-666,18,293
7445,249,116,64,-719,-19,282
7450,245,117,63,-791,-34,276
7455,253,121,64,-869,-45,245
7460,255,124,72,-967,-48,219
7465,257,130,79,-1045,-39,191
7470,262,127,86,-1113,-22,170
7475,267,117,87,-1167,-7,162
7480,272,105,87,-1211,-1,141
7485,273,107,89,-1248,3,113
7490,279,98,90,-1277,8,104
7495,273,99,96,-1292,22,102
7500,277,84,93,-1295,29,97
7505,278,73,97,-1305,42,89
7510,281,71,107,-1317,62,40
7515,274,55,114,-1326,85,23
7520,268,44,114,-1319,84,-4
7525,272,35,120,-1304,75,-24
7530,266,28,122,-1287,75,-37
7535,262,12,124,-1267,90,-43
7540,261,-5,122,-1247,116,-54
7545,251,-18,127,-1221,150,-76
7550,244,-26,129,-1184,188,-108
7555,239,-28,129,-1146,229,-136
7560,225,-28,133,-1108,268,-181
7565,217,-29,140,-1051,311,-220
7570,206,-28,138,-997,341,-245
7575,197,-36,134,-932,363,-256
7580,197,-44,137,-848,381,-270
7585,195,-47,134,-735,406,-285
7590,185,-51,134,-596,439,-307
7595,184,-51,134,-436,466,-333
7600,185,-45,126,-260,475,-366
7605,187,-38,111,-104,473,-400
7610,190,-41,101,30,457,-455
7615,192,-35,92,135,446,-520
7620,195,-21,85,227,448,-583
7625,193,-11,81,275,449,-633
7630,193,0,83,298,444,-688
7635,194,6,78,309,428,-717
7640,205,12,84,300,426,-736
7645,210,14,82,306,404,-764
7650,208,17,90,298,384,-806
7655,215,25,82,286,358,-823
7660,218,20,87,265,365,-814
7665,219,17,94,243,388,-807
7670,209,20,94,227,403,-812
7675,207,18,101,208,396,-803
7680,204,17,108,203,362,-798
7685,199,16,116,213,309,-782
7690,197,13,126,240,241,-777
7695,202,14,119,282,180,-771
7700,207,13,119,338,132,-772
7705,206,13,117,401,95,-780
7710,211,18,114,462,64,-801
7715,210,22,112,515,29,-830
7720,214,27,110,552,1,-875
7725,211,30,110,562,-8,-898
7730,210,32,109,547,-17,-922
7735,208,35,114,516,-25,-932
7740,200,45,121,474,-37,-940
7745,199,51,126,426,-50,-933
7750,198,59,130,375,-70,-926
7755,204,66,136,333,-92,-914
7760,217,75,138,307,-110,-915
7765,225,87,142,294,-114,-937
7770,239,112,143,294,-90,-998
7775,257,141,150,304,-44,-1104
7780,263,169,148,321,12,-1203
7785,266,194,131,330,26,-1252
7790,258,201,111,316,-6,-1209
7795,255,197,84,268,-87,-1055
7800,261,179,58,191,-207,-790
7805,271,161,41,92,-340,-444
7810,277,141,27,-20,-459,-68
7815,293,130,32,-117,-570,295
7820,311,125,47,-163,-659,607
7825,312,124,66,-140,-701,848
7830,305,125,82,-25,-699,1024
7835,283,115,106,218,-655,1102
7840,265,115,110,468,-595,1134
7845,254,115,117,700,-501,1155
7850,245,115,124,890,-388,1154
7855,239,122,128,1015,-260,1119
7860,247,127,133,1078,-119,1028
7865,239,137,136,1094,32,893
7870,224,144,134,1082,181,733
7875,216,154,129,1058,339,573
7880,205,158,125,1043,499,427
7885,191,159,129,1035,678,266
7890,173,160,134,1075,781,111
7895,166,164,135,1135,834,-53
7900,161,165,133,1199,853,-195
7905,176,161,137,1262,841,-311
7910,195,150,143,1317,803,-397
7915,210,137,144,1367,747,-455
7920,229,127,151,1416,672,-480
7925,247,120,151,1458,591,-461
7930,256,109,148,1497,508,-405
7935,269,95,143,1523,440,-323
7940,274,87,132,1532,379,-221
7945,281,78,128,1511,350,-122
7950,296,75,121,1450,355,-49
7955,307,80,114,1360,393,-30
7960,317,82,111,1266,469,-54
7965,319,91,107,1168,587,-160
7970,320,105,117,1082,756,-316
7975,303,121,116,1040,949,-474
7980,297,138,109,1013,1171,-627
7985,290,152,107,989,1393,-785
7990,284,167,93,950,1637,-964
7995,283,185,83,880,1807,-1102
8000,276,198,69,799,1948,-1221
8005,278,201,62,710,2064,-1338
8010,269,207,50,612,2147,-1444
8015,257,211,28,505,2204,-1549
8020,254,205,31,401,2242,-1638
8025,251,206,24,300,2268,-1725
8030,247,206,17,213,2285,-1807
8035,237,202,12,137,2298,-1888
8040,237,194,10,78,2316,-1973
8045,230,191,6,33,2344,-2038
8050,224,184,7,15,2377,-2087
8055,215,181,3,9,2421,-2129
8060,208,179,2,0,2469,-2158
8065,202,175,1,-14,2522,-2186
8070,195,175,5,-28,2571,-2210
8075,191,174,5,-35,2614,-2238
8080,179,169,8,-42,2655,-2250
8085,175,168,14,-39,2690,-2256
8090,164,168,17,-28,2723,-2244
8095,163,161,20,-7,2758,-2213
8100,158,157,28,39,2772,-2185
8105,148,156,30,95,2775,-2168
8110,135,152,33,157,2778,-2153
8115,119,154,39,210,2775,-2136
8120,102,157,40,248,2758,-2100
8125,106,161,47,270,2735,-2044
8130,92,153,55,284,2707,-1967
8135,83,156,56,284,2672,-1887
8140,81,152,62,277,2630,-1806
8145,80,153,61,261,2589,-1735
8150,64,159,63,228,2532,-1655
8155,52,160,64,192,2472,-1579
8160,41,163,70,143,2398,-1488
8165,35,164,77,95,2316,-1394
8170,29,167,84,47,2223,-1294
8175,26,167,93,-1,2123,-1200
8180,20,175,99,-44,2023,-1109
8185,22,179,114,-91,1933,-1023
8190,15,184,123,-137,1859,-921
8195,2,185,127,-172,1794,-851
8200,-4,192,137,-201,1726,-775
8205,-18,196,141,-237,1648,-705
8210,-32,203,146,-275,1583,-627
8215,-38,208,155,-311,1518,-549
8220,-45,208,159,-342,1448,-470
8225,-56,209,161,-373,1382,-398
8230,-66,214,156,-404,1315,-324
8235,-67,207,157,-435,1251,-250
8240,-71,208,155,-465,1187,-170
8245,-72,205,155,-489,1116,-94
8250,-76,202,145,-506,1036,-15
8255,-76,203,150,-514,928,74
8260,-71,200,145,-508,835,145
8265,-71,197,138,-490,744,213
8270,-73,195,136,-472,662,279
8275,-69,192,132,-461,579,341
8280,-65,191,124,-466,494,400
8285,-59,189,117,-494,410,446
8290,-51,186,112,-549,323,478
8295,-49,185,112,-632,236,501
8300,-41,181,109,-732,144,515
8305,-37,174,113,-843,46,530
8310,-26,170,114,-966,-70,548
8315,-20,166,122,-1038,-166,559
8320,-14,167,126,-1077,-258,568
8325,-4,167,136,-1087,-344,575
8330,2,164,143,-1065,-420,578
8335,15,162,150,-1014,-486,575
8340,34,158,159,-942,-537,562
8345,41,155,148,-864,-572,538
8350,43,149,151,-788,-597,504
8355,44,148,151,-720,-614,466
8360,43,145,150,-664,-631,433
8365,48,149,144,-620,-643,412
8370,56,147,144,-612,-656,388
8375,59,151,135,-630,-664,369
8380,60,153,132,-675,-667,355
8385,65,156,130,-753,-667,351
8390,72,157,129,-858,-664,353
8395,76,160,136,-986,-655,360
8400,76,162,136,-1131,-633,371
8405,80,163,148,-1280,-602,389
8410,82,165,158,-1431,-568,408
8415,89,172,174,-1611,-522,420
8420,97,174,202,-1751,-469,416
8425,104,179,233,-1858,-400,400
8430,120,177,268,-1910,-309,360
8435,136,178,289,-1910,-189,295
8440,150,181,313,-1861,-31,202
8445,168,186,334,-1780,156,81
8450,182,188,353,-1676,360,-50
8455,196,199,371,-1552,557,-168
8460,217,206,374,-1415,733,-277
8465,231,199,368,-1267,900,-356
8470,226,189,354,-1105,1016,-380
8475,204,168,329,-985,1115,-373
8480,191,152,318,-892,1191,-365
8485,156,125,294,-831,1246,-344
8490,121,106,269,-806,1284,-327
8495,73,94,252,-795,1297,-299
8500,29,73,238,-791,1274,-284
8505,-12,59,227,-776,1215,-273
8510,-40,49,217,-738,1120,-271
8515,-56,46,207,-660,1001,-267
8520,-63,43,197,-548,818,-280
8525,-65,47,188,-382,651,-300
8530,-62,52,174,-242,492,-336
8535,-57,63,165,-107,355,-378
8540,-50,76,158,17,250,-431
8545,-34,86,153,135,177,-479
8550,-18,100,148,245,139,-534
8555,-7,115,140,340,131,-582
8560,-4,126,137,393,151,-636
8565,-3,147,131,383,186,-677
8570,-5,157,132,301,220,-715
8575,-12,168,132,126,253,-723
8580,-9,170,136,-59,268,-719
8585,-6,170,137,-260,272,-702
8590,0,167,144,-460,275,-689
8595,6,165,150,-650,285,-678
8600,10,158,158,-829,306,-682
8605,15,155,168,-993,339,-685
8610,16,149,181,-1132,387,-694
8615,18,143,196,-1242,443,-698
8620,19,141,211,-1315,502,-700
8625,25,132,222,-1346,574,-687
8630,35,124,232,-1322,633,-672
8635,38,113,243,-1255,689,-646
8640,46,110,252,-1153,736,-617
8645,56,97,257,-1026,776,-577
8650,65,84,269,-872,807,-540
8655,71,74,271,-692,826,-496
8660,75,64,275,-490,833,-460
8665,76,58,267,-276,828,-426
8670,68,59,270,-74,809,-405
8675,61,63,259,112,773,-384
8680,58,62,256,309,712,-375
8685,52,64,247,453,653,-364
8690,50,65,236,575,596,-359
8695,48,68,222,676,539,-360
8700,49,73,209,750,487,-374
8705,40,75,202,790,443,-394
8710,15,86,197,800,411,-425
8715,-2,99,192,793,383,-449
8720,-22,107,191,774,350,-461
8725,-31,116,193,742,296,-456
8730,-30,123,189,690,207,-443
8735,-24,126,185,592,125,-436
8740,-22,130,177,483,49,-435
8745,-13,136,173,351,-7,-438
8750,-11,141,175,196,-41,-443
8755,-11,141,167,16,-53,-445
8760,-14,143,170,-180,-53,-446
8765,-13,138,170,-380,-44,-443
8770,-14,133,172,-572,-26,-434
8775,-23,132,181,-751,-6,-422
8780,-29,125,192,-915,10,-409
8785,-36,115,194,-1063,17,-392
8790,-37,98,205,-1202,23,-380
8795,-43,89,208,-1280,33,-371
8800,-43,75,225,-1306,44,-360
8805,-47,62,236,-1275,61,-348
8810,-51,49,244,-1178,77,-337
8815,-52,40,253,-1029,98,-324
8820,-54,33,257,-848,118,-304
8825,-57,30,254,-644,131,-283
8830,-57,28,261,-440,131,-265
8835,-55,30,261,-245,123,-241
8840,-49,31,262,-8,108,-216
8845,-48,39,254,182,96,-202
8850,-48,47,256,362,83,-181
8855,-49,54,250,517,70,-154
8860,-48,61,246,645,52,-125
8865,-42,65,236,748,33,-95
8870,-36,75,233,829,17,-64
8875,-34,86,229,890,7,-36
8880,-14,97,215,934,6,-8
8885,-20,104,217,958,16,12
8890,-12,115,208,961,37,40
8895,0,126,209,943,58,34
8900,3,133,201,907,83,23
8905,4,141,195,852,113,5
8910,4,146,194,781,146,-8
8915,10,151,188,694,182,-17
8920,12,155,191,595,215,-35
8925,13,160,185,486,249,-67
8930,14,162,182,361,284,-94
8935,12,162,182,225,318,-117
8940,9,163,182,81,351,-137
8945,6,162,184,-95,382,-154
8950,4,155,185,-231,404,-161
8955,0,153,191,-355,420,-172
8960,-1,144,193,-466,430,-173
8965,-2,138,199,-555,437,-178
8970,-7,129,208,-621,438,-177
8975,-9,120,214,-659,434,-178
8980,-13,111,223,-664,426,-172
8985,-15,98,224,-633,412,-168
8990,-17,96,231,-571,395,-158
8995,-24,91,236,-487,374,-148
9000,-23,86,241,-361,345,-136
9005,-26,81,244,-247,317,-127
9010,-27,79,247,-130,284,-114
9015,-27,80,241,-18,249,-107
9020,-35,81,246,89,214,-96
9025,-34,84,243,183,177,-91
9030,-33,88,232,261,140,-79
9035,-33,91,231,320,103,-72
9040,-34,98,223,363,67,-57
9045,-33,102,220,386,33,-47
9050,-35,107,216,391,-3,-29
9055,-32,111,213,373,-28,-20
9060,-28,118,209,341,-50,-9
9065,-26,124,208,298,-67,-1
9070,-24,132,211,238,-79,8
9075,-21,133,207,164,-86,9
9080,-22,143,202,77,-92,13
9085,-21,150,203,-17,-93,11
9090,-19,154,200,-116,-93,12
9095,-18,158,198,-216,-91,6
9100,-21,167,202,-316,-83,7
9105,-15,170,202,-432,-67,7
9110,-14,170,201,-525,-52,9
9115,-10,174,196,-617,-33,10
9120,-8,174,197,-705,-11,13
9125,-8,177,198,-790,11,12
9130,-7,172,193,-874,36,14
9135,0,166,194,-960,62,30
9140,0,159,194,-1026,85,19
9145,0,143,191,-1083,112,-1
9150,0,132,195,-1125,140,-8
9155,0,128,193,-1144,173,-12
9160,0,113,197,-1130,191,-12
9165,-3,100,199,-1093,196,-9
9170,-10,94,200,-1038,193,-3
9175,-10,81,204,-972,178,5
9180,-17,80,207,-890,155,20
9185,-21,67,210,-799,124,34
9190,-26,63,213,-694,83,55
9195,-30,57,219,-579,39,75
9200,-38,54,220,-455,-7,100
9205,-43,53,226,-325,-56,125
9210,-51,50,222,-196,-110,155
9215,-53,50,227,-39,-148,179
9220,-54,51,226,88,-178,198
9225,-56,56,225,205,-202,213
9230,-53,58,223,308,-219,222
9235,-53,63,222,396,-228,225
9240,-53,64,222,464,-230,223
9245,-52,74,226,513,-225,219
9250,-50,80,222,545,-217,210
9255,-51,90,220,563,-206,202
9260,-56,94,219,565,-192,188
9265,-55,95,225,546,-178,178
9270,-55,98,223,515,-165,168
9275,-54,103,222,474,-149,160
9280,-51,106,227,426,-133,153
9285,-55,106,228,372,-116,150
9290,-50,107,229,316,-100,146
9295,-51,107,225,261,-86,148
9300,-49,105,225,209,-74,150
9305,-48,106,225,163,-65,158
9310,-46,106,223,123,-56,167
9315,-50,102,221,90,-49,184
9320,-41,101,221,58,-45,196
9325,-35,103,218,38,-44,213
9330,-29,105,218,17,-49,226
9335,-28,101,212,-4,-56,242
9340,-24,103,206,-28,-69,254
9345,-23,103,203,-53,-87,271
9350,-16,104,204,-84,-107,283
9355,-13,106,203,-116,-128,296
9360,-9,107,200,-149,-147,304
9365,-5,104,198,-184,-163,317
9370,0,100,197,-220,-178,324
9375,1,101,199,-258,-187,333
9380,4,102,197,-289,-196,330
9385,7,100,200,-311,-203,331
9390,10,99,204,-326,-207,325
9395,14,95,205,-334,-210,319
9400,13,95,205,-332,-213,307
9405,15,93,208,-323,-215,295
9410,21,95,210,-304,-212,274
9415,26,91,214,-276,-207,254
9420,27,93,219,-243,-198,223
9425,22,94,221,-196,-180,201
9430,27,95,220,-157,-166,186
9435,30,99,220,-117,-151,157
9440,27,98,221,-76,-130,127
9445,30,100,222,-41,-104,107
9450,35,102,224,-9,-71,80
9455,39,104,224,16,-30,58
9460,44,105,222,34,17,38
9465,46,108,228,46,68,21
9470,49,107,220,54,115,-4
9475,52,111,221,55,168,-24
9480,53,111,221,40,208,-40
9485,53,107,220,18,243,-50
9490,51,99,221,-15,273,-62
9495,46,95,227,-48,294,-65
9500,40,96,232,-71,306,-69
9505,37,84,234,-82,305,-62
9510,30,84,237,-84,291,-55
9515,30,74,239,-76,268,-41
9520,25,69,245,-56,238,-29
9525,22,65,248,-18,204,-10
9530,22,59,252,34,162,15
9535,16,57,252,117,126,38
9540,19,51,253,204,90,58
9545,16,50,249,297,53,80
9550,14,54,248,392,18,94
9555,14,54,241,480,-15,109
9560,12,57,237,551,-43,115
9565,8,60,225,602,-63,123
9570,7,67,223,631,-77,124
9575,3,73,218,638,-89,126
9580,4,81,213,625,-94,120
9585,4,84,217,584,-96,110
9590,3,90,212,534,-94,95
9595,6,96,210,471,-86,74
9600,4,101,207,395,-75,47
9605,9,101,210,312,-61,16
9610,11,106,214,226,-40,-22
9615,15,107,217,144,-10,-62
9620,15,104,218,69,26,-111
9625,16,102,220,7,67,-156
9630,15,101,217,-43,106,-201
9635,15,99,222,-78,147,-248
9640,16,97,227,-107,177,-283
9645,12,89,216,-119,198,-311
9650,9,89,215,-121,211,-335
9655,7,87,214,-114,220,-353
9660,5,80,215,-100,224,-367
9665,6,73,211,-79,220,-374
9670,6,74,209,-53,213,-376
9675,5,75,206,-22,203,-372
9680,4,76,204,13,190,-368
9685,5,75,202,48,176,-359
9690,6,79,202,84,158,-345
9695,6,80,204,123,141,-334
9700,8,87,201,151,126,-317
9705,10,89,199,172,114,-303
9710,12,95,202,186,106,-291
9715,13,102,200,193,104,-281
9720,14,104,198,193,106,-272
9725,11,114,203,182,112,-265
9730,11,118,204,165,118,-257
9735,13,123,201,138,126,-249
9740,11,127,207,104,136,-236
9745,5,132,207,59,148,-228
9750,16,133,210,15,160,-218
9755,7,135,212,-28,174,-211
9760,6,139,216,-74,190,-204
9765,4,136,216,-112,212,-199
9770,3,136,219,-144,233,-192
9775,0,139,222,-167,256,-188
9780,0,133,220,-182,279,-180
9785,-4,131,227,-187,299,-178
9790,-8,130,221,-184,319,-171
9795,-11,129,222,-169,336,-169
9800,-16,127,220,-143,347,-165
9805,-13,125,218,-115,350,-166
9810,-21,127,218,-84,350,-165
9815,-22,123,219,-52,342,-170
9820,-25,121,217,-18,328,-170
9825,-27,120,213,18,310,-174
9830,-28,118,207,49,289,-173
9835,-29,115,207,80,263,-173
9840,-25,115,210,107,235,-167
9845,-28,118,206,130,211,-160
9850,-28,119,201,150,179,-148
9855,-28,122,204,160,154,-139
9860,-24,123,203,166,129,-121
9865,-21,123,198,164,104,-109
9870,-21,125,203,153,85,-91
9875,-18,129,199,133,70,-80
9880,-17,129,202,105,63,-65
9885,-14,129,200,68,55,-55
9890,-15,133,203,26,53,-41
9895,-13,135,196,-20,52,-33
9900,-11,134,202,-68,57,-20
9905,-10,133,200,-128,66,-18
9910,-12,136,203,-180,78,-13
9915,-8,133,205,-230,93,-16
9920,-13,133,204,-276,112,-15
9925,-13,130,207,-316,129,-19
9930,-13,126,204,-349,143,-18
9935,-18,124,203,-373,154,-20
9940,-17,115,205,-387,160,-16
9945,-18,113,211,-391,161,-15
9950,-20,108,203,-387,160,-4
9955,-20,102,206,-372,151,4
9960,-25,98,208,-353,142,16
9965,-26,96,216,-327,126,27
9970,-27,89,217,-297,111,42
9975,-25,93,218,-259,97,52
9980,-30,89,222,-217,81,66
9985,-27,88,220,-169,65,75
9990,-24,89,218,-120,50,87
9995,-25,89,222,-71,42,91
10000,-27,89,221,-23,37,95
10005,-29,90,215,17,40,90
10010,-28,95,218,55,50,84
10015,-25,96,216,76,62,71
10020,-19,100,218,87,76,57
10025,-25,100,216,87,92,41
10030,-28,104,219,76,108,27
10035,-32,103,213,57,121,12
10040,-34,105,219,30,133,1
10045,-34,104,219,-1,139,-11
10050,-38,103,218,-40,140,-15
10055,-36,100,220,-81,137,-21
10060,-41,103,222,-128,128,-22
10065,-42,102,225,-165,119,-18
10070,-41,95,227,-198,104,-9
10075,-40,98,223,-227,87,-1
10080,-47,86,220,-248,69,8
10085,-40,94,222,-262,51,17
10090,-36,90,219,-265,34,27
10095,-35,89,222,-264,20,35
10100,-32,85,222,-261,7,40
10105,-30,84,221,-256,-2,44
10110,-27,84,216,-248,-6,49
10115,-27,84,210,-237,-6,53
10120,-25,79,211,-226,-1,54
10125,-23,80,210,-218,7,55
10130,-21,79,209,-213,17,52
10135,-17,81,213,-204,30,56
10140,-11,77,211,-192,41,61
10145,-3,79,213,-177,54,64
10150,5,73,213,-158,68,64
10155,8,74,212,-135,85,60
10160,8,70,213,-113,104,53
10165,8,71,215,-87,124,45
10170,2,69,213,-62,135,44
10175,1,70,220,-34,135,56
10180,0,75,215,4,129,60
10185,1,77,221,45,117,67
10190,0,75,224,90,105,70
10195,-2,81,224,143,91,84
10200,-6,84,229,195,65,99
10205,-12,89,231,246,36,112
10210,-14,93,232,289,5,121
10215,-14,102,227,325,-28,133
10220,-16,100,231,357,-62,141
10225,-14,108,237,373,-92,149
10230,-13,112,234,377,-117,148
10235,-9,115,238,372,-137,144
10240,-11,123,244,353,-151,130
10245,-11,126,240,327,-157,119
10250,-10,127,240,292,-155,100
10255,-11,135,237,247,-148,85
10260,-12,134,239,194,-141,68
10265,-11,137,234,135,-132,53
10270,-12,139,231,71,-119,32
10275,-13,138,230,-9,-104,20
10280,-15,136,218,-79,-91,7
10285,-16,131,217,-147,-76,-1
10290,-18,125,212,-216,-63,-8
10295,-20,120,207,-284,-52,-7
10300,-20,115,203,-349,-45,-8
10305,-21,103,201,-405,-39,0
10310,-22,95,203,-452,-38,8
10315,-25,83,198,-484,-37,22
10320,-26,74,197,-494,-42,38
10325,-25,63,199,-478,-48,59
10330,-25,57,199,-437,-58,74
10335,-23,47,200,-375,-66,94
10340,-23,45,200,-295,-73,109
10345,-23,41,207,-198,-81,127
10350,-22,46,207,-88,-91,141
10355,-21,46,209,32,-100,158
10360,-18,48,206,150,-111,165
10365,-21,59,206,258,-121,175
10370,-17,65,203,352,-130,178
10375,-16,72,205,425,-139,184
10380,-12,82,205,484,-144,184
10385,-11,91,203,508,-149,186
10390,-8,106,204,513,-152,181
10395,-7,117,202,495,-153,178
10400,-2,128,205,456,-152,171
10405,-10,136,203,405,-150,166
10410,0,148,209,342,-147,156
10415,1,151,209,269,-143,150
10420,1,154,210,193,-136,137
10425,1,160,213,113,-129,128
10430,3,167,211,30,-115,111
10435,4,167,209,-74,-102,98
10440,6,166,207,-167,-86,91
10445,10,162,209,-258,-72,78
10450,7,159,203,-347,-59,51
10455,5,150,210,-433,-44,34
10460,8,150,207,-510,-27,19
10465,8,139,213,-574,-11,10
10470,5,133,219,-625,3,2
10475,8,124,215,-659,17,1
10480,8,111,227,-668,26,-3
10485,10,99,230,-636,32,1
10490,13,88,230,-577,38,0
10495,14,82,234,-499,41,2
10500,15,77,225,-410,47,0
10505,17,73,230,-319,53,-1
10510,17,71,228,-231,58,-9
10515,19,71,218,-146,66,-15
10520,18,67,224,-74,69,-24
10525,19,68,222,-13,71,-34
10530,14,67,223,35,68,-46
10535,13,67,216,69,61,-54
10540,9,67,214,86,53,-58
10545,9,67,210,79,42,-56
10550,6,64,208,58,33,-49
10555,8,58,211,23,26,-34
10560,14,56,209,-20,20,-13
10565,22,53,210,-63,20,13
10570,29,48,221,-99,26,33
10575,30,46,219,-125,45,53
10580,33,46,224,-133,74,67
10585,37,45,223,-127,110,79
10590,37,42,230,-92,159,85
10595,39,41,232,-40,206,85
10600,41,42,235,33,248,83
10605,40,47,237,127,290,83
10610,35,54,241,233,328,84
10615,30,60,241,349,357,90
10620,28,65,242,458,380,101
10625,18,74,230,558,396,113
10630,10,86,238,645,397,131
10635,3,92,234,714,388,153
10640,-6,102,231,765,361,187
10645,-17,111,223,793,326,214
10650,-29,120,215,794,282,246
10655,-39,125,212,773,229,274
10660,-44,131,207,734,169,306
10665,-49,138,208,677,110,334
10670,-53,147,205,604,53,361
10675,-55,148,206,523,3,381
10680,-56,151,200,432,-36,393
10685,-56,156,202,331,-64,398
10690,-59,155,199,224,-83,394
10695,-59,156,195,83,-96,383
10700,-57,154,202,-35,-99,367
10705,-51,155,203,-148,-102,340
10710,-48,152,201,-254,-101,308
10715,-39,148,208,-348,-97,268
10720,-25,137,207,-434,-89,225
10725,-15,130,211,-505,-71,174
10730,-13,117,212,-560,-46,126
10735,0,124,213,-601,-14,74
10740,4,119,218,-627,23,29
10745,15,111,218,-638,71,-28
10750,20,105,221,-638,110,-68
10755,22,101,222,-625,145,-111
10760,30,96,222,-607,172,-148
10765,29,93,222,-583,193,-189
10770,35,87,222,-556,208,-218
10775,36,84,219,-528,217,-249
10780,40,83,219,-497,222,-272
10785,44,78,222,-465,223,-294
10790,46,79,218,-431,220,-307
10795,47,74,218,-397,215,-323
10800,53,72,222,-354,206,-326
10805,55,69,217,-315,195,-333
10810,58,65,219,-273,182,-333
10815,57,64,222,-227,169,-337
10820,60,64,222,-177,154,-334
10825,59,64,215,-125,137,-337
10830,62,62,215,-74,119,-341
10835,59,67,214,-24,104,-351
10840,56,76,217,19,94,-360
10845,54,77,210,54,91,-373
10850,49,83,209,85,93,-383
10855,46,89,213,111,108,-391
10860,41,92,214,130,126,-394
10865,36,99,218,143,145,-398
10870,29,99,214,150,164,-395
10875,28,97,219,151,180,-396
10880,23,101,220,147,194,-392
10885,17,102,222,141,210,-391
10890,17,100,223,133,227,-388
10895,11,97,225,122,246,-389
10900,8,99,226,109,267,-385
10905,3,97,225,96,296,-383
10910,0,99,226,79,320,-378
10915,-3,94,226,62,341,-372
10920,-6,94,224,48,362,-363
10925,-14,95,222,33,382,-353
10930,-19,95,219,19,397,-339
10935,-21,95,216,3,409,-325
10940,-25,93,219,-14,418,-310
10945,-29,94,218,-30,422,-298
10950,-35,91,213,-47,422,-281
10955,-37,94,215,-61,419,-265
10960,-40,92,217,-78,410,-252
10965,-45,93,217,-87,399,-242
10970,-47,93,215,-94,384,-230
10975,-46,88,214,-96,366,-219
10980,-48,92,214,-95,345,-205
10985,-49,92,215,-93,322,-193
10990,-47,91,217,-87,299,-181
10995,-45,94,218,-80,276,-171
11000,-47,91,216,-72,250,-156
11005,-46,91,214,-65,222,-146
11010,-45,92,211,-58,193,-130
11015,-46,92,214,-50,157,-116
11020,-46,93,212,-46,129,-103
11025,-44,95,213,-44,101,-88
11030,-48,95,210,-43,74,-73
11035,-45,93,209,-44,48,-59
11040,-46,94,212,-45,26,-43
11045,-48,97,211,-46,4,-31
11050,-44,97,212,-47,-15,-17
11055,-46,99,208,-45,-29,-4
11060,-54,99,210,-42,-41,7
11065,-51,102,209,-40,-53,21
11070,-51,105,209,-37,-60,31
11075,-52,106,208,-34,-62,43
11080,-50,105,205,-35,-63,52
11085,-53,111,209,-40,-62,62
11090,-50,111,207,-48,-55,70
11095,-49,109,206,-60,-47,80
11100,-49,111,203,-77,-36,86
11105,-48,110,207,-94,-24,93
11110,-49,109,207,-113,-10,96
11115,-48,109,209,-129,8,102
11120,-45,107,207,-150,31,100
11125,-45,106,213,-167,51,104
11130,-42,103,213,-180,73,101
11135,-43,101,211,-194,92,106
11140,-41,98,213,-204,109,103
11145,-37,93,216,-210,122,110
11150,-39,94,217,-210,132,113
11155,-37,90,220,-202,139,119
11160,-42,89,222,-185,142,126
11165,-44,88,221,-159,137,136
11170,-38,93,221,-128,125,147
11175,-43,85,228,-85,104,159
11180,-41,85,225,-45,85,167
11185,-37,85,228,-3,66,179
11190,-36,80,223,37,46,184
11195,-36,87,223,73,26,192
11200,-34,87,224,104,4,198
11205,-37,89,228,128,-20,206
11210,-33,85,223,145,-43,207
11215,-36,91,225,152,-67,215
11220,-35,90,225,154,-90,215
11225,-34,93,223,150,-116,220
11230,-29,92,221,137,-135,217
11235,-28,89,224,121,-151,215
11240,-24,91,218,103,-162,208
11245,-19,89,222,83,-168,203
11250,-18,90,222,58,-172,192
11255,-17,90,216,33,-171,181
11260,-15,86,215,10,-165,164
11265,-17,87,218,-15,-153,149
11270,-14,92,218,-43,-139,131
11275,-10,87,225,-67,-128,114
11280,2,86,220,-92,-114,98
11285,10,88,217,-104,-99,82
11290,16,84,219,-112,-76,62
11295,23,81,216,-123,-43,41
11300,26,76,211,-136,-7,13
11305,22,75,216,-154,31,-7
11310,18,76,216,-177,63,-26
11315,15,71,215,-199,88,-36
11320,14,70,219,-216,102,-43
11325,11,71,217,-222,109,-39
11330,12,69,224,-213,113,-32
11335,14,67,226,-176,111,-21
11340,6,71,224,-130,109,-9
11345,8,70,230,-74,102,5
11350,2,71,225,-15,86,18
11355,2,73,225,41,68,37
11360,0,76,224,94,44,55
11365,0,83,222,137,15,75
11370,-1,83,222,172,-13,91
11375,0,85,217,196,-43,111
11380,0,90,216,210,-72,128
11385,-11,90,210,212,-106,145
11390,0,97,218,203,-131,157
11395,-3,99,218,191,-153,168
11400,-3,101,224,175,-170,176
11405,0,102,223,156,-180,183
11410,0,100,223,138,-184,187
11415,0,98,224,124,-181,191
11420,0,99,224,110,-169,189
11425,-6,99,228,103,-156,190
11430,-7,96,224,100,-140,187
11435,-1,94,224,102,-118,184
11440,-5,93,222,108,-100,180
11445,-8,91,223,119,-78,173
11450,-9,87,225,131,-58,167
11455,-9,87,224,147,-40,162
11460,-11,87,222,164,-21,157
11465,-10,85,223,183,-3,153
11470,-8,85,218,199,13,148
11475,-8,86,221,215,29,143
11480,-10,85,218,229,44,138
11485,-12,87,219,240,57,132
11490,-13,87,218,246,70,127
11495,-5,97,214,250,75,121
11500,-12,91,218,251,77,117
11505,-12,92,218,252,76,109
11510,-8,94,215,249,71,104
11515,-8,100,217,243,64,95
11520,-6,102,215,233,56,87
11525,-1,104,216,218,52,77
11530,0,105,219,194,45,67
11535,2,110,212,165,40,59
11540,2,110,215,127,35,51
11545,3,111,208,78,29,43
11550,4,110,209,33,24,38
11555,4,111,207,-9,21,31
11560,5,112,205,-51,18,29
11565,3,110,209,-85,12,26
11570,4,112,217,-113,0,26
11575,12,110,217,-132,-12,22
11580,10,115,216,-140,-24,21
11585,15,111,216,-146,-29,10
11590,13,111,221,-146,-30,3
11595,12,108,217,-145,-25,-14
11600,7,109,217,-144,-21,-18
11605,7,103,221,-141,-20,-24
11610,6,104,221,-134,-23,-26
11615,6,102,219,-119,-26,-31
11620,8,100,223,-99,-27,-34
11625,10,96,228,-75,-23,-44
11630,11,97,221,-49,-15,-50
11635,5,96,221,-25,-5,-63
11640,3,96,221,-2,4,-71
11645,0,96,221,15,12,-81
11650,1,96,221,32,16,-83
11655,2,98,217,39,17,-88
11660,4,98,214,43,21,-91
11665,7,94,210,40,27,-100
11670,4,94,207,29,40,-104
11675,1,99,209,12,53,-111
11680,1,101,209,-7,62,-110
11685,0,100,210,-26,66,-110
11690,2,102,213,-46,65,-107
11695,5,106,210,-64,64,-108
11700,3,105,208,-84,65,-106
11705,3,107,211,-109,69,-109
11710,0,109,204,-129,74,-108
11715,0,111,218,-145,74,-106
11720,1,111,217,-159,72,-98
11725,3,114,221,-170,68,-95
11730,5,114,222,-177,67,-88
11735,4,118,222,-184,67,-89
11740,4,117,224,-193,72,-85
11745,2,116,221,-207,73,-85
11750,0,114,218,-225,75,-79
11755,1,112,222,-254,75,-78
11760,3,109,224,-281,76,-71
11765,6,107,220,-310,78,-70
11770,2,104,218,-334,87,-67
11775,9,98,222,-347,97,-70
11780,7,93,221,-350,108,-72
11785,8,90,225,-338,118,-79
11790,8,86,226,-315,127,-84
11795,6,84,227,-282,133,-94
11800,5,84,223,-242,136,-99
11805,1,81,226,-198,135,-105
11810,1,78,231,-140,129,-106
11815,0,78,232,-90,123,-107
11820,0,75,231,-39,115,-104
11825,2,75,226,12,107,-100
11830,0,78,221,59,99,-95
11835,0,81,217,99,90,-89
11840,1,84,217,133,82,-83
11845,0,85,220,156,72,-79
11850,0,87,215,169,64,-73
11855,0,90,214,172,56,-72
11860,0,93,216,164,47,-72
11865,-2,90,217,145,39,-73
11870,-6,97,214,120,35,-72
11875,-10,99,215,91,32,-72
11880,-12,100,218,56,31,-68
11885,-14,98,217,19,29,-65
11890,-21,97,215,-19,24,-59
11895,-21,98,219,-55,19,-50
11900,-26,99,222,-87,12,-38
11905,-26,99,222,-113,3,-30
11910,-26,98,226,-134,-10,-17
11915,-25,96,225,-153,-19,-6
11920,-25,92,222,-161,-23,1
11925,-30,89,223,-165,-21,9
11930,-40,86,224,-169,-19,18
11935,-40,87,226,-167,-20,31
11940,-41,86,221,-162,-28,45
11945,-37,84,218,-150,-41,59
11950,-31,81,217,-137,-54,72
11955,-29,80,219,-125,-61,76
11960,-27,80,211,-116,-61,82
11965,-25,80,213,-104,-51,88
11970,-25,77,211,-97,-43,90
11975,-22,77,210,-90,-30,94
11980,-22,80,207,-87,-16,94
11985,-12,79,202,-84,-2,96
11990,-9,73,208,-82,16,94
11995,-6,73,211,-75,37,92
