timestamp,acc_x,acc_y,acc_z,gyro_x,gyro_y,gyro_z
0,27,-98,249,-3,69,-4
5,24,-98,246,-5,69,-5
10,25,-96,248,-7,68,-4
15,26,-97,247,-8,68,-4
20,26,-98,249,-9,69,-4
25,24,-95,246,-9,69,-3
30,26,-98,251,-10,69,-4
35,26,-97,247,-12,70,-4
40,24,-96,247,-9,70,-4
45,24,-97,247,-8,72,-4
50,26,-99,248,-6,71,-3
55,25,-95,245,-3,72,-5
60,29,-101,249,0,72,-4
65,28,-97,248,1,72,-4
70,26,-95,253,3,71,-3
75,26,-98,248,4,72,-4
80,26,-93,247,5,73,-4
85,24,-94,248,7,72,-2
90,26,-95,245,8,72,-3
95,26,-98,250,10,72,-2
100,22,-95,249,9,73,-3
105,25,-96,247,9,73,-2
110,31,-92,245,7,72,-4
115,24,-93,245,6,73,-3
120,21,-90,244,6,72,-3
125,28,-97,255,5,72,-2
130,12,-91,238,5,71,-4
135,18,-91,249,3,71,-4
140,31,-97,251,2,70,-3
145,21,-92,239,2,70,-2
150,27,-100,242,2,68,-4
155,30,-94,244,1,68,-3
160,13,-98,249,2,68,-4
165,35,-98,253,-1,68,-5
170,29,-94,253,0,68,-4
175,29,-92,250,-1,68,-4
180,26,-94,251,-2,68,-4
185,23,-101,248,-3,68,-3
190,28,-96,253,-5,68,-4
195,25,-69,226,-6,69,-4
200,25,-95,247,-6,69,-3
205,22,-96,250,-6,69,-4
210,27,-96,240,-6,67,-5
215,25,-94,247,-7,68,-4
220,17,-94,250,-6,68,-3
225,20,-93,247,-8,69,-3
230,24,-95,246,-7,68,-3
235,26,-97,247,-7,68,-2
240,26,-98,249,-7,67,-3
245,24,-96,249,-7,67,-3
250,26,-95,250,-6,67,-4
255,25,-96,250,-8,66,-3
260,24,-96,249,-7,67,-2
265,24,-96,246,-8,67,-2
270,25,-93,247,-7,67,-2
275,26,-96,249,-10,66,-3
280,21,-96,247,-10,66,-1
285,23,-98,249,-12,67,-2
290,24,-94,251,-13,68,-3
295,25,-96,250,-14,67,-3
300,29,-98,246,-15,67,-2
305,26,-95,248,-17,68,-2
310,24,-96,249,-20,67,-3
315,26,-98,248,-21,68,-3
320,26,-98,244,-23,67,-3
325,26,-95,245,-23,67,-2
330,24,-93,247,-24,67,-3
335,26,-99,247,-24,67,-3
340,23,-96,246,-23,67,-3
345,27,-98,248,-21,69,-3
350,22,-96,246,-20,68,-3
355,27,-97,246,-18,69,-3
360,24,-94,246,-16,70,-3
365,27,-97,249,-15,71,-3
370,26,-97,247,-13,72,-2
375,27,-98,246,-12,71,-2
380,21,-95,249,-11,72,-2
385,27,-98,244,-12,72,0
390,29,-96,247,-11,71,-1
395,24,-94,250,-12,71,-1
400,27,-95,246,-15,71,-2
405,27,-97,250,-15,70,-1
410,26,-95,247,-17,70,-3
415,29,-96,248,-19,70,-2
420,25,-96,250,-21,68,-3
425,24,-95,248,-21,68,-2
430,26,-96,251,-21,69,-2
435,26,-98,251,-22,68,-2
440,29,-94,248,-23,66,-3
445,25,-96,248,-22,65,-3
450,24,-97,248,-22,64,-3
455,26,-94,246,-23,63,-4
460,26,-94,247,-24,62,-4
465,23,-95,250,-26,60,-3
470,25,-94,251,-29,59,-3
475,25,-99,252,-29,57,-3
480,27,-98,248,-29,57,-5
485,25,-98,247,-30,56,-5
490,26,-96,248,-30,55,-4
495,27,-97,245,-29,55,-4
500,25,-96,242,-29,58,-4
505,24,-94,245,-27,57,-4
510,29,-96,251,-27,60,-4
515,26,-100,245,-26,61,-3
520,25,-97,248,-25,62,-3
525,25,-96,246,-22,62,-3
530,24,-98,247,-21,65,-3
535,27,-97,249,-18,67,-4
540,25,-97,243,-18,67,-3
545,23,-96,249,-15,69,-3
550,29,-97,250,-14,70,-2
555,25,-95,252,-12,72,-2
560,24,-94,251,-12,73,-1
565,24,-93,245,-13,73,-1
570,25,-97,245,-13,75,-1
575,27,-93,245,-16,75,0
580,28,-95,249,-18,74,0
585,25,-93,252,-21,74,0
590,24,-94,251,-24,75,-1
595,26,-96,244,-27,74,1
600,25,-96,250,-31,74,1
605,24,-95,249,-36,74,1
610,26,-94,248,-41,72,0
615,26,-96,247,-44,70,0
620,26,-96,244,-48,69,-1
625,25,-96,251,-51,67,1
630,28,-95,247,-54,66,2
635,25,-98,249,-57,66,1
640,26,-99,249,-59,64,2
645,26,-102,248,-60,62,1
650,26,-101,248,-59,61,0
655,26,-100,247,-60,61,0
660,25,-98,249,-58,60,1
665,23,-102,246,-57,60,-1
670,26,-98,250,-56,60,-1
675,28,-96,245,-53,59,-2
680,22,-99,248,-51,60,-1
685,24,-99,247,-48,60,0
690,29,-98,245,-45,59,0
695,25,-100,244,-42,61,-2
700,24,-98,248,-41,61,0
705,26,-95,246,-41,62,-1
710,27,-96,248,-40,62,-1
715,24,-98,248,-39,62,0
720,27,-98,249,-39,63,-2
725,30,-100,244,-40,62,-2
730,26,-96,250,-40,62,-1
735,25,-96,246,-42,64,-2
740,27,-98,248,-43,65,-3
745,27,-100,248,-44,65,-1
750,27,-98,250,-45,66,-2
755,25,-98,245,-46,65,-1
760,24,-98,246,-46,65,-1
765,24,-100,243,-47,65,-1
770,27,-99,245,-49,66,-2
775,26,-95,246,-49,67,-2
780,25,-97,245,-48,65,-1
785,25,-101,246,-50,67,0
790,26,-99,245,-50,68,-2
795,27,-100,245,-52,66,-1
800,25,-100,244,-54,64,-2
805,24,-101,244,-54,66,-1
810,27,-97,248,-55,65,-1
815,26,-97,251,-54,65,-1
820,24,-98,247,-55,66,-2
825,26,-100,248,-54,66,-2
830,26,-99,248,-53,65,-2
835,28,-101,246,-53,65,-2
840,26,-99,248,-52,65,-2
845,25,-99,247,-51,66,-2
850,27,-99,243,-50,66,-1
855,24,-98,246,-48,66,-1
860,25,-98,246,-48,65,-1
865,27,-101,249,-48,65,-2
870,26,-100,247,-48,66,0
875,26,-102,247,-48,66,-1
880,26,-98,246,-46,65,0
885,25,-99,244,-48,65,0
890,24,-98,242,-48,66,0
895,25,-100,248,-48,65,-1
900,28,-101,246,-48,64,-1
905,24,-98,245,-48,64,-1
910,26,-98,246,-50,63,0
915,23,-97,248,-50,63,0
920,26,-101,247,-51,63,-1
925,23,-99,242,-52,63,-1
930,27,-97,247,-51,63,-1
935,24,-101,244,-52,64,-1
940,27,-101,248,-53,63,0
945,25,-101,245,-53,62,1
950,25,-103,248,-52,61,0
955,26,-101,248,-53,62,-1
960,27,-100,248,-54,61,0
965,26,-100,245,-57,61,-1
970,25,-100,242,-58,62,-2
975,27,-101,244,-57,63,-1
980,26,-104,251,-57,64,-1
985,29,-102,245,-57,63,-2
990,23,-100,246,-57,62,-2
995,24,-101,245,-57,62,-1
1000,26,-103,248,-57,62,-1
1005,25,-103,245,-57,62,-1
1010,28,-104,249,-58,63,0
1015,25,-99,245,-56,63,0
1020,28,-101,245,-54,63,0
1025,26,-104,249,-54,64,-1
1030,26,-102,248,-54,63,-2
1035,26,-101,249,-52,64,-1
1040,26,-100,243,-51,64,0
1045,27,-100,243,-52,65,-1
1050,23,-104,245,-51,65,-1
1055,27,-102,246,-52,65,1
1060,27,-102,247,-53,66,0
1065,26,-101,247,-56,65,0
1070,27,-102,247,-56,64,0
1075,29,-102,244,-60,63,-1
1080,28,-103,247,-63,63,0
1085,25,-102,248,-64,64,-1
1090,28,-103,246,-65,64,0
1095,26,-104,246,-66,64,-1
1100,23,-102,246,-67,64,-3
1105,28,-101,246,-67,65,-2
1110,28,-105,245,-66,65,-1
1115,24,-103,243,-65,64,0
1120,26,-101,245,-64,65,0
1125,26,-105,247,-62,65,0
1130,28,-103,247,-62,67,1
1135,29,-102,248,-62,65,1
1140,27,-101,244,-62,66,0
1145,27,-100,243,-63,66,0
1150,27,-101,247,-64,65,1
1155,25,-105,243,-66,65,2
1160,29,-103,242,-68,64,0
1165,25,-105,246,-71,62,1
1170,26,-105,241,-73,62,0
1175,26,-105,249,-75,62,0
1180,25,-103,243,-76,62,0
1185,28,-102,246,-78,61,-1
1190,27,-101,246,-78,60,-1
1195,28,-104,245,-80,60,0
1200,28,-106,247,-79,59,0
1205,29,-103,246,-81,59,-1
1210,25,-103,244,-81,58,-1
1215,26,-103,243,-80,56,-2
1220,22,-105,246,-79,57,-2
1225,28,-108,244,-78,55,-1
1230,26,-106,246,-77,54,-3
1235,28,-106,245,-77,52,-2
1240,27,-107,243,-75,50,-3
1245,24,-107,242,-72,50,-3
1250,22,-107,243,-69,50,-5
1255,25,-105,245,-64,50,-5
1260,26,-110,245,-60,51,-6
1265,26,-104,244,-53,52,-7
1270,25,-107,241,-46,53,-5
1275,27,-106,240,-38,56,-4
1280,28,-107,240,-31,61,-5
1285,27,-106,240,-25,62,-5
1290,25,-105,240,-18,65,-5
1295,24,-105,242,-11,68,-4
1300,27,-104,242,-6,70,-4
1305,26,-104,243,0,72,-3
1310,26,-106,244,6,74,-3
1315,26,-105,243,10,76,-2
1320,28,-103,244,13,76,-3
1325,27,-104,242,17,76,-3
1330,27,-105,246,18,76,-3
1335,28,-110,242,20,78,-3
1340,24,-107,241,20,78,-4
1345,26,-105,244,20,77,-2
1350,25,-103,242,20,76,-3
1355,27,-108,239,19,78,-4
1360,27,-103,244,17,77,-4
1365,24,-107,246,16,77,-2
1370,26,-105,245,14,76,-2
1375,27,-110,243,12,75,-2
1380,25,-104,245,10,74,-1
1385,27,-105,242,10,73,0
1390,28,-106,244,9,71,-4
1395,26,-107,241,8,71,-2
1400,25,-105,248,8,71,-3
1405,25,-103,243,8,72,-2
1410,28,-106,250,10,70,-2
1415,26,-104,248,12,69,-3
1420,25,-105,246,12,70,-2
1425,27,-105,248,13,69,-3
1430,27,-103,244,15,71,-4
1435,25,-104,246,15,70,-3
1440,27,-103,244,18,70,-4
1445,25,-102,245,18,71,-2
1450,26,-106,246,21,73,-3
1455,28,-103,244,21,73,-3
1460,26,-102,245,21,72,-5
1465,25,-104,240,22,72,-3
1470,25,-106,242,19,72,-3
1475,25,-107,246,20,73,-3
1480,25,-104,244,18,71,-3
1485,26,-103,246,17,72,-3
1490,26,-103,242,16,72,-3
1495,28,-104,246,14,72,-3
1500,24,-103,246,12,71,-4
1505,25,-102,249,10,71,-3
1510,26,-106,246,10,70,-3
1515,26,-102,247,9,70,-4
1520,27,-106,248,9,71,-4
1525,25,-105,248,8,70,-4
1530,25,-105,244,8,71,-5
1535,25,-102,244,8,71,-3
1540,29,-103,248,8,70,-3
1545,23,-103,244,8,71,-3
1550,24,-106,245,6,71,-4
1555,28,-102,244,6,72,-4
1560,26,-104,247,6,71,-4
1565,26,-104,248,5,69,-5
1570,25,-104,249,6,70,-4
1575,27,-104,245,7,69,-5
1580,26,-103,244,7,69,-5
1585,25,-106,245,7,70,-5
1590,22,-105,244,9,70,-6
1595,27,-103,243,12,68,-5
1600,28,-103,244,12,71,-4
1605,28,-103,247,13,70,-5
1610,25,-102,243,14,73,-2
1615,26,-101,242,15,73,-4
1620,25,-101,243,15,74,-4
1625,24,-102,243,16,74,-2
1630,24,-99,247,15,75,-2
1635,26,-102,243,14,76,-3
1640,29,-103,243,13,74,-2
1645,26,-102,246,13,74,-2
1650,26,-102,245,11,74,-3
1655,27,-102,247,10,76,-2
1660,26,-102,245,9,76,-2
1665,24,-100,248,8,75,-2
1670,27,-103,246,8,74,-2
1675,25,-102,246,6,73,-3
1680,25,-105,244,6,72,-4
1685,29,-104,247,4,72,-3
1690,26,-104,243,4,73,-3
1695,26,-102,244,3,73,-4
1700,27,-103,246,4,72,-2
1705,27,-103,246,4,70,-2
1710,26,-100,244,5,70,-3
1715,25,-103,242,7,71,-3
1720,25,-104,246,7,71,-4
1725,23,-101,243,8,70,-5
1730,26,-103,246,9,69,-5
1735,24,-103,242,10,69,-5
1740,25,-103,242,12,69,-5
1745,25,-103,242,13,69,-6
1750,26,-104,246,14,70,-5
1755,26,-103,243,16,71,-4
1760,27,-103,248,18,70,-4
1765,24,-101,244,20,71,-5
1770,27,-103,243,24,71,-5
1775,26,-100,244,26,70,-4
1780,25,-103,242,28,72,-4
1785,28,-102,246,32,70,-6
1790,28,-100,247,34,72,-4
1795,24,-101,245,37,73,-3
1800,21,-100,244,39,73,-4
1805,28,-103,245,40,74,-5
1810,26,-99,248,40,74,-4
1815,25,-103,245,42,74,-5
1820,25,-102,247,43,75,-4
1825,25,-102,244,42,74,-5
1830,24,-103,248,40,75,-4
1835,23,-101,241,40,76,-3
1840,26,-100,246,38,75,-5
1845,25,-103,248,35,75,-3
1850,27,-103,247,33,74,-4
1855,25,-100,247,31,74,-4
1860,23,-102,247,29,75,-4
1865,25,-97,248,27,74,-4
1870,24,-100,244,27,75,-5
1875,24,-104,245,29,75,-5
1880,25,-103,246,30,76,-5
1885,25,-100,241,31,75,-6
1890,26,-99,246,34,76,-4
1895,24,-99,250,36,77,-4
1900,25,-100,247,36,78,-4
1905,26,-99,244,38,76,-5
1910,21,-106,249,40,76,-5
1915,27,-98,246,39,76,-3
1920,25,-100,249,41,76,-4
1925,25,-100,250,39,76,-4
1930,25,-99,246,37,76,-2
1935,27,-100,246,35,75,-3
1940,25,-99,245,35,75,-2
1945,29,-101,244,33,75,-2
1950,28,-97,249,32,76,-3
1955,27,-99,248,29,76,-3
1960,26,-99,251,26,76,-3
1965,26,-99,244,22,75,-3
1970,27,-100,246,20,74,-2
1975,28,-97,249,17,74,-3
1980,26,-100,248,15,73,-3
1985,24,-96,248,13,71,-4
1990,27,-97,248,11,71,-3
1995,26,-101,247,8,69,-5
2000,27,-99,247,4,67,-5
2005,24,-103,243,2,66,-4
2010,24,-101,247,1,63,-5
2015,24,-102,243,-2,62,-6
2020,24,-98,248,-5,61,-7
2025,26,-98,245,-8,62,-7
2030,28,-100,246,-9,62,-7
2035,26,-99,242,-11,61,-7
2040,28,-103,251,-11,62,-6
2045,28,-101,247,-10,65,-6
2050,26,-100,248,-10,66,-6
2055,25,-100,245,-9,66,-6
2060,26,-102,247,-5,68,-5
2065,27,-100,245,0,68,-5
2070,27,-99,247,2,70,-6
2075,26,-98,248,6,71,-6
2080,24,-97,247,13,71,-4
2085,25,-100,247,17,73,-4
2090,26,-101,246,23,73,-5
2095,26,-97,251,28,75,-4
2100,28,-98,243,31,76,-4
2105,25,-99,246,35,75,-4
2110,28,-97,242,37,76,-3
2115,25,-98,248,36,77,-3
2120,25,-98,249,37,77,-3
2125,25,-97,246,36,77,-3
2130,25,-96,248,34,80,-2
2135,27,-98,248,30,79,-1
2140,24,-97,250,27,79,-1
2145,21,-96,245,22,78,-1
2150,26,-98,248,17,78,-1
2155,26,-100,246,12,78,-2
2160,26,-98,244,7,76,0
2165,25,-98,246,3,76,-1
2170,27,-100,246,0,75,-2
2175,26,-97,246,-4,75,-1
2180,25,-99,247,-8,74,-2
2185,25,-100,247,-8,72,-3
2190,28,-97,247,-9,70,-2
2195,25,-98,247,-9,70,-4
2200,25,-97,243,-9,69,-3
2205,25,-97,245,-8,68,-2
2210,25,-96,245,-7,67,-3
2215,26,-98,251,-8,69,-4
2220,25,-99,249,-6,68,-4
2225,24,-100,249,-4,68,-4
2230,24,-96,245,-3,69,-4
2235,26,-99,249,-1,69,-4
2240,28,-98,246,1,68,-3
2245,26,-97,248,4,68,-3
2250,26,-98,247,6,69,-2
2255,27,-100,251,8,70,-5
2260,26,-95,246,11,69,-6
2265,24,-96,250,13,71,-4
2270,23,-95,252,16,71,-4
2275,29,-97,246,16,70,-5
2280,27,-98,247,16,71,-5
2285,26,-98,248,17,70,-5
2290,28,-98,248,16,71,-5
2295,25,-99,246,15,70,-4
2300,25,-99,245,13,71,-4
2305,23,-96,249,12,69,-3
2310,27,-96,245,13,70,-3
2315,26,-96,248,11,70,-4
2320,25,-97,249,9,72,-4
2325,28,-97,249,9,71,-3
2330,24,-97,248,8,71,-3
2335,25,-97,249,8,71,-5
2340,26,-95,250,8,70,-4
2345,24,-98,249,9,70,-5
2350,26,-100,250,9,70,-5
2355,25,-97,246,9,71,-6
2360,23,-95,246,12,72,-5
2365,26,-98,248,13,71,-5
2370,26,-97,254,13,72,-5
2375,29,-98,250,18,73,-4
2380,27,-99,248,19,71,-3
2385,23,-97,248,20,71,-4
2390,24,-98,250,20,74,-6
2395,26,-96,247,21,74,-7
2400,26,-98,247,22,74,-6
2405,29,-97,249,21,74,-6
2410,27,-95,248,20,73,-4
2415,25,-97,250,20,74,-5
2420,26,-97,246,19,73,-4
2425,29,-97,246,19,73,-3
2430,26,-96,247,18,74,-4
2435,26,-95,249,17,75,-5
2440,28,-97,247,14,73,-3
2445,25,-98,249,13,73,-3
2450,25,-98,247,14,73,-4
2455,26,-96,249,13,72,-4
2460,24,-98,245,12,71,-5
2465,24,-95,249,13,71,-3
2470,26,-98,247,14,70,-4
2475,26,-94,246,14,71,-4
2480,25,-95,245,15,71,-4
2485,25,-95,247,15,71,-3
2490,24,-96,250,16,69,-4
2495,23,-98,246,16,69,-4
2500,26,-92,246,16,71,-3
2505,24,-96,247,17,71,-3
2510,26,-98,245,17,70,-3
2515,27,-97,252,17,69,-4
2520,25,-93,249,15,70,-3
2525,25,-95,249,17,69,-3
2530,28,-95,250,15,69,-3
2535,28,-94,250,15,69,-4
2540,26,-93,250,14,69,-2
2545,27,-98,245,13,69,-3
2550,24,-94,249,13,69,-3
2555,27,-94,247,13,70,-4
2560,27,-98,248,12,70,-4
2565,26,-94,247,12,70,-5
2570,26,-94,250,12,69,-4
2575,27,-98,251,10,71,-4
2580,27,-95,250,11,71,-4
2585,23,-95,251,10,71,-3
2590,25,-93,248,11,71,-3
2595,24,-93,247,10,71,-3
2600,25,-93,247,10,71,-3
2605,24,-95,249,9,71,-3
2610,24,-95,249,8,71,-3
2615,26,-96,246,9,72,-3
2620,28,-97,245,6,71,-3
2625,25,-96,249,5,71,-3
2630,25,-98,247,5,71,-3
2635,25,-95,247,2,72,-4
2640,25,-95,247,1,71,-5
2645,27,-97,247,-1,71,-4
2650,24,-94,254,-1,71,-4
2655,24,-92,250,-2,72,-5
2660,27,-98,249,-1,71,-4
2665,29,-98,250,0,72,-4
2670,25,-96,251,0,73,-4
2675,25,-93,249,1,72,-5
2680,24,-93,244,2,73,-3
2685,29,-93,247,4,72,-4
2690,25,-95,248,5,72,-4
2695,25,-93,251,5,73,-3
2700,25,-93,247,7,73,-3
2705,27,-95,248,8,72,-3
2710,28,-98,248,8,72,-2
2715,25,-94,246,6,72,-2
2720,25,-93,249,5,73,-2
2725,26,-92,250,3,71,-2
2730,27,-94,248,3,71,-2
2735,26,-95,249,2,71,-3
2740,26,-95,248,2,71,-3
2745,28,-95,249,0,70,-2
2750,23,-95,248,-1,70,-3
2755,24,-94,249,-1,69,-5
2760,28,-94,245,-1,70,-4
2765,25,-93,252,0,69,-5
2770,24,-96,249,2,68,-6
2775,24,-97,253,4,66,-5
2780,26,-92,249,7,66,-4
2785,21,-92,250,7,65,-4
2790,23,-94,252,8,64,-4
2795,24,-93,250,6,65,-3
2800,22,-91,250,7,63,-5
2805,25,-96,251,6,62,-5
2810,28,-94,250,4,63,-5
2815,26,-96,251,3,63,-5
2820,25,-95,247,-1,63,-6
2825,27,-95,250,-5,64,-7
2830,24,-92,247,-5,64,-6
2835,26,-92,246,-6,65,-6
2840,27,-93,249,-6,66,-5
2845,24,-94,246,-6,67,-5
2850,25,-95,250,-5,68,-6
2855,22,-95,250,-2,67,-5
2860,25,-95,249,0,68,-5
2865,24,-94,246,6,70,-5
2870,24,-94,247,11,71,-3
2875,28,-94,249,15,70,-5
2880,28,-95,249,20,70,-5
2885,25,-94,247,26,72,-2
2890,24,-91,247,29,74,-3
2895,28,-94,251,33,74,-3
2900,27,-94,252,36,75,-2
2905,26,-90,249,37,75,-3
2910,24,-91,247,38,76,-2
2915,25,-91,248,37,77,-3
2920,24,-89,250,34,76,-3
2925,27,-90,251,32,76,-2
2930,26,-91,249,28,77,-3
2935,25,-92,249,24,76,-2
2940,26,-93,246,20,75,-3
2945,26,-91,250,14,75,-2
2950,27,-90,249,10,75,-2
2955,27,-93,248,5,73,-1
2960,24,-90,246,0,73,-1
2965,25,-93,247,-3,73,0
2970,27,-93,249,-7,72,-2
2975,25,-93,249,-9,70,-3
2980,29,-95,247,-9,70,-2
2985,24,-94,249,-10,70,-3
2990,27,-93,252,-10,68,-3
2995,26,-93,248,-9,68,-3
3000,27,-95,251,-8,69,-1
3005,25,-93,250,-6,67,-3
3010,27,-91,251,-5,69,-3
3015,25,-94,243,-4,69,-3
3020,26,-91,250,-3,68,-4
3025,28,-98,248,-1,68,-3
3030,25,-90,249,2,68,-5
3035,26,-92,248,4,69,-4
3040,24,-93,253,6,67,-3
3045,26,-93,250,7,68,-4
3050,28,-92,246,10,69,-3
3055,26,-93,250,10,68,-5
3060,26,-93,249,11,67,-5
3065,26,-90,248,9,67,-5
3070,22,-87,252,10,68,-4
3075,27,-93,249,8,67,-4
3080,25,-90,247,8,68,-4
3085,26,-91,248,6,66,-4
3090,27,-92,246,3,66,-4
3095,26,-92,251,1,67,-3
3100,25,-93,249,-1,68,-3
3105,26,-95,249,-2,69,-3
3110,25,-95,251,-4,68,-4
3115,23,-91,249,-4,68,-4
3120,24,-93,246,-3,69,-4
3125,27,-92,247,-2,69,-4
3130,23,-91,250,-2,70,-5
3135,26,-94,246,-1,69,-5
3140,24,-96,245,-1,70,-4
3145,24,-90,249,1,70,-3
3150,25,-91,247,2,70,-3
3155,24,-91,247,3,72,-4
3160,28,-91,249,4,73,-5
3165,26,-92,248,5,73,-3
3170,25,-94,250,6,73,-4
3175,25,-92,253,6,74,-3
3180,26,-89,251,6,75,-4
3185,27,-95,252,6,73,-4
3190,24,-90,247,7,72,-3
3195,25,-92,250,7,73,-3
3200,26,-93,249,5,73,-2
3205,26,-89,252,5,72,-3
3210,27,-89,245,4,70,-4
3215,26,-93,250,3,71,-3
3220,26,-93,251,2,71,-4
3225,24,-92,248,1,71,-5
3230,24,-91,254,1,70,-4
3235,25,-92,253,0,69,-3
3240,24,-91,250,-1,69,-4
3245,24,-92,250,-1,70,-4
3250,25,-92,248,-2,70,-4
3255,27,-93,250,-3,70,-4
3260,27,-93,248,-2,70,-4
3265,26,-91,250,-1,68,-3
3270,28,-93,250,-2,69,-3
3275,27,-92,249,0,69,-4
3280,23,-90,254,0,68,-4
3285,28,-91,249,1,67,-3
3290,28,-91,247,1,67,-3
3295,24,-90,249,0,67,-3
3300,25,-89,248,0,67,-4
3305,25,-90,249,0,67,-4
3310,24,-89,248,-1,67,-3
3315,24,-88,250,-1,67,-3
3320,28,-92,250,-1,68,-3
3325,25,-88,248,0,69,-4
3330,27,-91,251,-1,68,-4
3335,27,-92,249,-2,69,-5
3340,27,-92,246,0,69,-5
3345,27,-90,250,-1,69,-4
3350,21,-91,254,0,68,-3
3355,26,-91,253,1,69,-5
3360,25,-91,248,1,69,-3
3365,23,-90,247,2,69,-4
3370,28,-92,248,2,68,-4
3375,27,-89,251,4,70,-4
3380,28,-94,249,4,70,-5
3385,25,-89,249,5,69,-4
3390,27,-94,249,6,71,-5
3395,26,-92,249,6,71,-3
3400,28,-91,249,6,72,-3
3405,26,-90,252,7,72,-4
3410,25,-92,246,6,72,-3
3415,23,-88,248,5,72,-3
3420,23,-90,253,3,70,-3
3425,27,-88,248,0,71,-3
3430,26,-92,250,-2,70,-4
3435,21,-90,250,-7,70,-4
3440,25,-92,251,-8,70,-4
3445,26,-91,250,-9,69,-4
3450,23,-90,249,-11,69,-4
3455,23,-91,250,-11,70,-5
3460,23,-89,254,-12,70,-4
3465,26,-91,252,-12,70,-4
3470,23,-89,249,-13,71,-5
3475,27,-89,251,-13,73,-3
3480,26,-88,250,-13,72,-3
3485,26,-90,253,-14,73,-4
3490,22,-91,251,-16,74,-3
3495,28,-90,251,-19,74,-3
3500,27,-89,252,-23,74,-3
3505,28,-90,249,-30,76,-2
3510,27,-88,253,-39,75,-2
3515,27,-92,251,-48,76,-2
3520,29,-91,251,-61,75,-2
3525,27,-91,248,-77,77,-4
3530,28,-90,253,-93,78,-2
3535,24,-91,254,-114,76,-2
3540,26,-87,255,-133,75,-3
3545,28,-92,254,-157,68,-2
3550,24,-90,255,-183,60,-4
3555,26,-90,257,-212,53,-7
3560,26,-93,256,-242,44,-11
3565,24,-95,260,-269,42,-16
3570,27,-99,256,-290,43,-22
3575,26,-102,258,-303,46,-29
3580,26,-106,259,-304,56,-35
3585,25,-113,257,-295,67,-39
3590,25,-114,255,-273,83,-45
3595,24,-112,253,-246,107,-43
3600,25,-110,250,-212,143,-42
3605,23,-104,241,-175,186,-33
3610,23,-103,238,-137,231,-23
3615,22,-99,238,-108,268,-12
3620,21,-98,237,-90,288,-6
3625,18,-92,243,-89,284,-4
3630,18,-92,245,-117,258,-8
3635,17,-93,249,-170,216,-16
3640,18,-97,252,-236,169,-29
3645,23,-99,247,-304,133,-42
3650,25,-104,254,-358,114,-52
3655,24,-110,255,-383,115,-51
3660,27,-110,252,-376,131,-45
3665,24,-115,251,-347,155,-30
3670,23,-113,253,-305,175,-14
3675,25,-114,253,-263,180,-11
3680,26,-113,250,-222,177,-13
3685,26,-103,250,-197,175,-21
3690,25,-97,248,-196,174,-30
3695,24,-95,249,-223,180,-42
3700,26,-92,253,-271,191,-56
3705,30,-99,257,-337,208,-73
3710,25,-100,257,-414,234,-91
3715,19,-98,261,-499,266,-115
3720,15,-105,268,-585,296,-146
3725,9,-109,282,-674,325,-177
3730,8,-118,284,-759,348,-213
3735,7,-121,286,-835,366,-251
3740,4,-125,283,-904,381,-292
3745,6,-127,286,-965,402,-329
3750,9,-125,281,-1014,422,-359
3755,10,-125,270,-1048,435,-382
3760,20,-130,260,-1065,453,-398
3765,28,-124,253,-1068,495,-398
3770,38,-126,252,-1069,560,-388
3775,39,-126,253,-1058,624,-377
3780,40,-120,259,-1032,662,-378
3785,40,-110,255,-999,654,-376
3790,46,-102,238,-979,587,-336
3795,54,-102,223,-959,446,-229
3800,58,-105,184,-922,210,-82
3805,49,-109,151,-854,-104,50
3810,43,-115,122,-750,-420,128
3815,41,-115,121,-628,-644,183
3820,45,-115,136,-523,-714,242
3825,43,-119,165,-452,-624,316
3830,32,-113,197,-411,-441,390
3835,21,-111,221,-384,-268,438
3840,2,-107,238,-347,-158,451
3845,-10,-111,245,-287,-106,450
3850,-16,-109,254,-222,-85,462
3855,-7,-114,263,-167,-70,482
3860,-3,-114,265,-148,-51,500
3865,0,-107,266,-169,-30,517
3870,0,-102,269,-212,-18,525
3875,-6,-99,260,-263,-23,519
3880,-12,-97,247,-301,-55,512
3885,-10,-99,232,-318,-131,520
3890,-3,-97,226,-318,-248,532
3895,4,-94,223,-305,-363,542
3900,7,-94,223,-295,-449,549
3905,3,-90,225,-296,-494,551
3910,10,-92,226,-303,-505,555
3915,12,-96,230,-309,-493,568
3920,13,-98,234,-303,-477,578
3925,19,-97,241,-285,-464,587
3930,30,-99,240,-263,-457,592
3935,40,-100,237,-242,-446,591
3940,43,-97,242,-220,-425,596
3945,48,-99,246,-196,-418,608
3950,55,-92,256,-185,-434,633
3955,64,-96,259,-196,-465,660
3960,73,-98,256,-237,-494,672
3965,75,-105,254,-306,-498,661
3970,75,-106,252,-372,-482,642
3975,76,-117,245,-412,-457,621
3980,66,-119,234,-435,-427,590
3985,59,-129,227,-454,-398,558
3990,52,-138,225,-485,-384,527
3995,47,-143,221,-526,-386,491
4000,46,-154,204,-569,-376,459
4005,44,-159,201,-604,-348,433
4010,37,-172,202,-617,-316,396
4015,30,-188,202,-615,-299,353
4020,22,-197,205,-590,-296,307
4025,2,-207,203,-539,-310,258
4030,-17,-213,208,-472,-363,188
4035,-34,-221,212,-402,-460,115
4040,-40,-226,207,-341,-567,53
4045,-40,-226,202,-294,-658,-12
4050,-34,-225,200,-257,-741,-64
4055,-11,-225,197,-232,-810,-95
4060,5,-224,190,-221,-865,-88
4065,18,-229,184,-223,-888,-76
4070,32,-235,184,-226,-874,-73
4075,43,-242,180,-217,-839,-71
4080,47,-248,185,-187,-798,-86
4085,56,-250,186,-124,-753,-104
4090,52,-248,189,-32,-704,-124
4095,53,-244,187,71,-650,-131
4100,50,-234,188,174,-596,-128
4105,45,-225,189,271,-540,-118
4110,32,-219,187,350,-498,-105
4115,27,-211,192,411,-477,-92
4120,15,-205,194,450,-467,-87
4125,14,-197,192,465,-462,-97
4130,11,-192,189,462,-447,-108
4135,3,-188,187,453,-422,-110
4140,0,-180,185,452,-392,-108
4145,1,-178,185,461,-363,-100
4150,0,-172,183,475,-326,-89
4155,-11,-168,181,502,-278,-70
4160,-16,-168,186,539,-228,-43
4165,-13,-171,182,585,-166,-22
4170,-20,-169,184,636,-104,-10
4175,-26,-173,190,680,-42,-9
4180,-35,-173,193,716,6,-14
4185,-47,-169,193,748,40,-22
4190,-45,-166,190,774,56,-25
4195,-42,-162,195,795,57,-23
4200,-31,-155,192,813,51,-17
4205,-24,-147,195,824,41,-10
4210,-8,-146,201,827,28,-2
4215,1,-140,203,815,19,5
4220,8,-133,208,793,15,9
4225,14,-131,211,771,24,14
4230,23,-123,215,737,38,28
4235,31,-117,223,699,67,46
4240,40,-113,228,654,99,70
4245,47,-109,234,600,139,93
4250,55,-100,242,536,186,111
4255,59,-98,242,465,235,125
4260,59,-96,242,395,278,132
4265,65,-100,253,328,302,139
4270,62,-98,253,263,310,134
4275,60,-99,251,197,295,124
4280,62,-101,252,127,260,112
4285,61,-109,248,61,208,100
4290,61,-106,240,4,145,94
4295,56,-111,240,-45,76,90
4300,51,-115,236,-86,3,94
4305,51,-123,236,-117,-73,100
4310,44,-126,232,-132,-145,102
4315,45,-131,230,-135,-217,114
4320,40,-134,229,-129,-284,130
4325,39,-141,228,-119,-352,147
4330,40,-144,231,-106,-418,158
4335,31,-148,231,-92,-486,163
4340,35,-150,238,-73,-553,164
4345,29,-154,241,-45,-619,161
4350,32,-161,240,-10,-674,154
4355,31,-159,241,30,-712,139
4360,32,-162,239,70,-733,117
4365,43,-162,249,106,-743,89
4370,54,-159,248,137,-748,57
4375,67,-157,253,159,-749,21
4380,88,-153,256,175,-751,-28
4385,114,-145,261,186,-747,-90
4390,131,-137,261,194,-730,-158
4395,149,-124,262,190,-704,-237
4400,154,-111,262,159,-671,-325
4405,164,-96,269,107,-634,-414
4410,171,-80,269,16,-600,-492
4415,175,-72,273,-114,-571,-568
4420,181,-70,273,-262,-549,-652
4425,173,-70,276,-404,-538,-735
4430,168,-69,284,-520,-541,-801
4435,156,-69,280,-604,-561,-858
4440,114,-72,286,-670,-602,-912
4445,61,-79,298,-731,-670,-988
4450,27,-88,311,-789,-805,-1099
4455,21,-89,303,-818,-1040,-1204
4460,36,-98,288,-791,-1329,-1259
4465,64,-108,266,-720,-1590,-1277
4470,74,-119,250,-630,-1782,-1279
4475,83,-129,229,-545,-1906,-1283
4480,88,-137,219,-479,-1979,-1298
4485,91,-140,201,-445,-2014,-1326
4490,93,-149,183,-438,-2012,-1359
4495,91,-158,165,-451,-1965,-1396
4500,87,-161,155,-462,-1881,-1437
4505,80,-167,151,-452,-1774,-1472
4510,73,-168,149,-405,-1670,-1497
4515,69,-166,146,-315,-1601,-1506
4520,72,-163,149,-189,-1580,-1506
4525,74,-159,143,-52,-1604,-1508
4530,78,-150,146,74,-1659,-1520
4535,82,-143,147,176,-1739,-1541
4540,89,-132,143,245,-1838,-1574
4545,99,-122,142,277,-1952,-1614
4550,104,-118,133,269,-2073,-1655
4555,110,-110,128,233,-2198,-1698
4560,114,-101,121,188,-2320,-1737
4565,120,-95,117,141,-2435,-1770
4570,120,-90,113,99,-2542,-1802
4575,117,-83,111,64,-2643,-1821
4580,124,-76,101,38,-2748,-1830
4585,125,-70,101,19,-2844,-1831
4590,126,-66,98,14,-2923,-1809
4595,129,-63,95,12,-2981,-1780
4600,132,-62,94,4,-3011,-1751
4605,132,-60,89,-9,-3015,-1719
4610,141,-63,87,-25,-3006,-1683
4615,140,-62,86,-37,-2988,-1645
4620,150,-58,82,-49,-2960,-1608
4625,163,-54,80,-74,-2921,-1585
4630,170,-53,77,-111,-2872,-1565
4635,177,-52,77,-154,-2807,-1544
4640,185,-52,78,-200,-2731,-1513
4645,186,-48,84,-246,-2654,-1478
4650,191,-42,83,-299,-2587,-1440
4655,191,-33,90,-357,-2535,-1398
4660,192,-29,94,-412,-2499,-1356
4665,192,-27,94,-457,-2474,-1308
4670,190,-27,99,-484,-2449,-1253
4675,193,-27,101,-499,-2424,-1203
4680,194,-28,103,-499,-2403,-1163
4685,196,-26,105,-492,-2386,-1127
4690,198,-28,107,-477,-2365,-1098
4695,198,-28,111,-454,-2338,-1069
4700,198,-26,107,-434,-2304,-1041
4705,199,-30,107,-417,-2268,-1012
4710,200,-31,104,-404,-2226,-982
4715,206,-35,106,-398,-2180,-953
4720,203,-37,99,-396,-2128,-926
4725,204,-41,98,-400,-2069,-898
4730,208,-45,97,-405,-2001,-867
4735,208,-43,95,-408,-1922,-835
4740,212,-45,101,-410,-1836,-800
4745,212,-49,102,-408,-1743,-763
4750,215,-50,97,-401,-1644,-723
4755,222,-50,98,-394,-1543,-679
4760,226,-51,94,-385,-1438,-633
4765,235,-45,89,-375,-1329,-579
4770,246,-45,80,-367,-1218,-520
4775,251,-44,75,-360,-1102,-453
4780,255,-40,74,-355,-975,-382
4785,250,-42,72,-346,-834,-302
4790,242,-45,77,-331,-690,-214
4795,226,-52,78,-301,-545,-125
4800,208,-60,88,-248,-415,-41
4805,209,-64,92,-172,-316,27
4810,233,-65,100,-102,-246,101
4815,259,-75,111,-71,-162,222
4820,278,-88,120,-74,-16,371
4825,315,-99,136,-67,196,524
4830,382,-112,161,-7,458,660
4835,426,-113,159,122,750,726
4840,457,-109,153,303,1026,714
4845,492,-98,126,492,1235,654
4850,524,-89,91,651,1357,574
4855,538,-81,49,767,1396,463
4860,537,-77,0,846,1351,317
4865,518,-76,-36,873,1217,126
4870,455,-68,-31,816,1024,-116
4875,390,-61,-7,695,781,-372
4880,327,-58,21,510,454,-582
4885,267,-57,55,301,86,-723
4890,230,-56,77,106,-261,-811
4895,199,-58,97,-52,-543,-867
4900,177,-56,111,-161,-734,-904
4905,155,-53,123,-230,-838,-924
4910,139,-48,125,-275,-869,-927
4915,128,-38,122,-314,-851,-909
4920,127,-30,124,-365,-815,-866
4925,127,-22,120,-438,-777,-798
4930,132,-12,113,-533,-741,-704
4935,146,-4,107,-638,-707,-595
4940,165,0,99,-731,-676,-476
4945,190,1,87,-789,-637,-360
4950,201,2,83,-804,-584,-252
4955,214,4,76,-777,-523,-162
4960,221,0,71,-717,-470,-95
4965,228,-6,67,-623,-433,-57
4970,238,-9,61,-489,-414,-54
4975,247,-16,52,-314,-402,-87
4980,255,-25,42,-104,-397,-143
4985,258,-25,41,119,-390,-221
4990,265,-29,32,325,-382,-312
4995,268,-31,35,489,-385,-407
5000,271,-30,30,596,-404,-506
5005,274,-31,36,638,-439,-606
5010,274,-32,35,624,-484,-693
5015,279,-33,33,567,-529,-772
5020,277,-38,28,479,-566,-836
5025,279,-42,30,370,-597,-882
5030,280,-50,29,249,-623,-904
5035,283,-58,23,123,-648,-900
5040,274,-65,21,2,-668,-874
5045,275,-68,21,-113,-689,-834
5050,274,-76,16,-214,-714,-779
5055,269,-79,12,-285,-727,-730
5060,266,-82,8,-323,-740,-671
5065,256,-75,3,-336,-763,-616
5070,247,-69,-5,-331,-790,-568
5075,242,-57,-5,-311,-814,-517
5080,245,-50,-16,-280,-835,-467
5085,250,-43,-21,-241,-839,-415
5090,244,-39,-28,-191,-831,-365
5095,255,-35,-34,-143,-813,-323
5100,260,-33,-35,-92,-783,-290
5105,270,-31,-30,-45,-749,-269
5110,271,-30,-30,-3,-714,-254
5115,274,-31,-26,39,-684,-245
5120,276,-32,-25,82,-655,-242
5125,278,-29,-22,116,-630,-235
5130,275,-28,-15,138,-608,-225
5135,271,-29,-13,148,-585,-211
5140,274,-35,-10,148,-564,-193
5145,274,-34,-10,143,-537,-179
5150,268,-38,-11,135,-503,-165
5155,264,-39,-7,131,-467,-156
5160,264,-40,-11,127,-429,-151
5165,256,-38,-9,117,-394,-149
5170,257,-39,-10,96,-358,-148
5175,252,-36,-14,67,-321,-146
5180,251,-38,-16,29,-279,-141
5185,255,-38,-20,-9,-236,-143
5190,252,-32,-22,-52,-186,-152
5195,253,-25,-21,-103,-134,-164
5200,259,-17,-19,-168,-77,-171
5205,256,-11,-16,-242,-9,-174
5210,258,-3,-13,-309,61,-174
5215,260,-3,-15,-360,118,-169
5220,265,-2,-13,-378,147,-157
5225,271,-9,-13,-357,142,-139
5230,277,-10,-20,-303,121,-123
5235,284,-12,-16,-234,97,-105
5240,283,-17,-15,-158,72,-89
5245,284,-13,-11,-86,45,-78
5250,282,-16,-9,-28,8,-73
5255,280,-14,-9,13,-31,-70
5260,277,-13,-10,33,-76,-65
5265,273,-17,-6,35,-121,-63
5270,272,-20,-14,29,-163,-66
5275,265,-25,-20,31,-205,-77
5280,264,-26,-16,43,-243,-90
5285,263,-21,-20,58,-274,-100
5290,258,-20,-15,64,-300,-100
5295,257,-21,-16,63,-330,-87
5300,256,-18,-14,58,-363,-67
5305,256,-21,-20,55,-390,-47
5310,253,-22,-24,69,-405,-27
5315,255,-21,-30,98,-412,-8
5320,256,-17,-32,135,-406,8
5325,256,-14,-38,169,-391,25
5330,257,-15,-37,197,-371,44
5335,257,-10,-35,216,-351,62
5340,263,-10,-29,223,-329,75
5345,260,-7,-27,220,-303,83
5350,260,0,-24,203,-276,89
5355,261,0,-14,173,-253,94
5360,262,1,-13,135,-240,102
5365,263,0,-14,94,-238,108
5370,264,4,-18,57,-236,106
5375,266,2,-23,37,-235,95
5380,264,2,-28,29,-229,75
5385,266,-4,-28,29,-213,49
5390,263,-1,-24,34,-192,21
5395,260,-4,-26,39,-165,-7
5400,259,-2,-19,44,-134,-31
5405,254,-2,-22,44,-103,-49
5410,257,-3,-18,40,-70,-60
5415,252,-4,-10,33,-37,-69
5420,250,0,-15,22,-4,-73
5425,250,0,-8,7,28,-80
5430,250,1,-8,-11,62,-85
5435,248,0,-12,-28,93,-88
5440,249,1,-2,-46,121,-89
5445,249,0,-5,-60,148,-91
5450,251,0,-9,-73,175,-96
5455,248,0,-7,-80,198,-100
5460,247,-2,-3,-86,214,-109
5465,251,-6,-3,-96,229,-119
5470,250,-5,-8,-104,242,-129
5475,253,-8,-6,-109,254,-138
5480,250,-4,-6,-114,262,-154
5485,255,0,-2,-118,267,-171
5490,251,-1,-5,-121,273,-190
5495,255,3,-1,-121,283,-208
5500,255,4,-2,-120,297,-224
5505,257,5,-2,-117,315,-237
5510,256,4,0,-119,337,-246
5515,260,6,0,-121,362,-250
5520,256,4,3,-126,391,-244
5525,258,1,4,-133,417,-232
5530,257,8,6,-140,439,-219
5535,260,6,9,-145,454,-207
5540,257,10,2,-146,460,-197
5545,259,8,9,-147,460,-194
5550,260,14,9,-148,449,-192
5555,257,16,5,-154,428,-196
5560,259,13,6,-166,397,-197
5565,258,14,6,-186,365,-199
5570,253,14,5,-212,340,-197
5575,250,14,8,-242,311,-193
5580,254,10,3,-272,280,-189
5585,252,9,4,-300,252,-185
5590,253,8,2,-323,225,-183
5595,252,7,6,-341,199,-184
5600,251,8,4,-358,172,-188
5605,249,6,3,-377,143,-196
5610,248,7,5,-397,112,-209
5615,247,9,4,-421,79,-218
5620,248,10,3,-446,45,-228
5625,244,10,7,-472,9,-233
5630,245,10,3,-495,-24,-237
5635,247,5,2,-512,-54,-237
5640,246,0,1,-525,-84,-231
5645,250,0,1,-531,-107,-216
5650,253,0,0,-533,-128,-198
5655,258,-2,-4,-525,-151,-184
5660,255,7,-8,-527,-181,-199
5665,255,13,-11,-521,-207,-194
5670,253,16,-13,-518,-226,-192
5675,252,22,-16,-520,-241,-190
5680,252,18,-15,-527,-245,-180
5685,252,16,-14,-535,-236,-164
5690,255,12,-11,-541,-221,-143
5695,257,9,-11,-540,-203,-119
5700,259,7,-9,-531,-187,-105
5705,258,7,-11,-514,-174,-99
5710,255,12,-13,-496,-163,-103
5715,261,7,-20,-483,-153,-113
5720,250,18,-13,-494,-145,-149
5725,253,20,-17,-505,-143,-159
5730,254,15,-8,-504,-122,-136
5735,253,8,-12,-510,-104,-119
5740,255,3,-12,-518,-90,-103
5745,258,0,-6,-523,-77,-91
5750,256,-7,-9,-526,-69,-79
5755,260,-9,-11,-526,-67,-74
5760,257,-10,-15,-519,-71,-65
5765,261,-16,-18,-509,-75,-66
5770,258,-18,-18,-491,-87,-65
5775,263,-20,-22,-471,-97,-65
5780,263,-19,-17,-454,-105,-76
5785,259,-17,-18,-433,-115,-84
5790,256,-15,-21,-412,-123,-87
5795,264,-21,-23,-396,-127,-87
5800,256,-16,-22,-386,-133,-95
5805,254,-10,-23,-370,-136,-94
5810,257,-14,-25,-352,-138,-95
5815,253,-16,-18,-333,-140,-90
5820,255,-17,-14,-311,-132,-87
5825,254,-16,-22,-286,-122,-80
5830,254,-18,-17,-262,-112,-71
5835,253,-16,-14,-234,-105,-64
5840,253,-14,-17,-201,-102,-59
5845,257,-14,-13,-166,-99,-59
5850,257,-13,-17,-136,-91,-62
5855,255,-9,-21,-106,-88,-62
5860,256,-6,-16,-83,-87,-62
5865,260,-8,-22,-63,-88,-62
5870,258,-1,-22,-47,-86,-67
5875,262,-2,-24,-35,-88,-71
5880,260,0,-25,-31,-92,-75
5885,261,0,-24,-31,-95,-81
5890,261,-2,-25,-36,-96,-92
5895,260,-3,-26,-44,-98,-104
5900,259,1,-25,-53,-99,-116
5905,260,-1,-26,-58,-101,-123
5910,259,0,-26,-61,-102,-133
5915,261,0,-28,-60,-99,-140
5920,257,0,-25,-55,-94,-148
5925,256,-1,-24,-48,-89,-153
5930,258,0,-24,-38,-80,-158
5935,257,2,-29,-27,-71,-163
5940,256,2,-27,-11,-60,-166
5945,255,3,-22,3,-47,-168
5950,257,6,-25,17,-36,-167
5955,255,7,-29,31,-22,-167
5960,256,10,-23,43,-11,-164
5965,257,10,-24,55,-1,-163
5970,254,9,-22,65,9,-159
5975,255,14,-25,72,17,-155
5980,257,11,-22,80,23,-151
5985,253,16,-25,85,28,-147
5990,257,12,-23,88,32,-144
5995,264,3,-25,87,33,-142
6000,255,21,-20,75,33,-156
6005,255,17,-25,74,32,-146
6010,253,23,-27,73,32,-138
6015,254,23,-27,67,33,-136
6020,254,24,-22,56,33,-133
6025,253,23,-25,44,36,-127
6030,253,25,-28,33,36,-122
6035,252,24,-24,22,39,-117
6040,255,20,-25,12,40,-113
6045,252,24,-23,3,42,-107
6050,254,23,-21,-6,44,-104
6055,251,23,-26,-12,46,-99
6060,255,25,-23,-18,48,-93
6065,252,25,-22,-21,48,-90
6070,256,24,-20,-23,50,-90
6075,255,23,-23,-25,51,-87
6080,256,26,-20,-26,51,-87
6085,254,24,-22,-28,51,-84
6090,254,27,-20,-31,51,-83
6095,255,26,-21,-35,53,-80
6100,253,25,-20,-36,53,-78
6105,255,25,-28,-37,55,-75
6110,253,29,-27,-39,55,-72
6115,254,28,-22,-42,58,-69
6120,256,26,-26,-43,59,-68
6125,256,27,-20,-45,60,-65
6130,254,26,-24,-46,61,-62
6135,255,28,-21,-48,62,-58
6140,253,26,-23,-48,64,-55
6145,255,26,-25,-48,63,-54
6150,256,26,-22,-46,64,-52
6155,255,27,-25,-46,65,-48
6160,257,22,-23,-44,63,-45
6165,252,26,-21,-42,65,-42
6170,255,22,-20,-41,63,-40
6175,255,23,-21,-40,62,-36
6180,256,26,-21,-39,60,-34
6185,254,26,-24,-40,61,-32
6190,256,24,-26,-42,62,-28
6195,254,23,-21,-43,62,-24
6200,254,25,-21,-45,61,-21
6205,255,27,-20,-47,63,-16
6210,253,25,-19,-48,63,-12
6215,254,25,-22,-48,62,-8
6220,254,25,-23,-49,62,-5
6225,254,22,-22,-50,60,-3
6230,253,25,-22,-50,60,-1
6235,253,23,-22,-53,58,1
6240,253,26,-23,-54,56,3
6245,254,24,-23,-58,56,7
6250,255,23,-22,-60,56,9
6255,254,25,-29,-64,56,12
6260,253,25,-23,-67,57,14
6265,255,21,-24,-70,56,18
6270,253,26,-27,-71,57,20
6275,255,22,-23,-72,59,21
6280,255,24,-28,-72,61,23
6285,254,19,-26,-73,63,25
6290,253,21,-26,-73,63,24
6295,255,20,-22,-73,65,24
6300,254,19,-21,-70,67,24
6305,256,18,-26,-70,69,26
6310,255,18,-23,-69,72,26
6315,254,16,-21,-68,76,26
6320,256,17,-25,-66,77,26
6325,254,18,-25,-62,79,25
6330,253,17,-27,-60,82,27
6335,255,17,-28,-55,83,27
6340,253,17,-21,-53,85,26
6345,253,12,-25,-48,86,24
6350,253,15,-25,-45,89,24
6355,254,16,-26,-41,89,24
6360,255,14,-23,-41,90,24
6365,253,19,-22,-37,93,24
6370,253,13,-19,-36,94,23
6375,254,16,-22,-33,99,21
6380,254,14,-22,-30,100,21
6385,251,14,-24,-26,102,21
6390,253,14,-19,-22,104,19
6395,255,14,-24,-18,105,17
6400,254,12,-22,-14,105,16
6405,256,11,-22,-11,106,12
6410,251,12,-22,-8,107,10
6415,252,14,-23,-6,106,8
6420,253,14,-23,-4,107,4
6425,252,15,-21,-4,107,1
6430,254,14,-20,-2,107,-1
6435,252,16,-24,-2,108,-3
6440,254,11,-20,0,108,-4
6445,253,15,-24,1,109,-6
6450,253,12,-20,1,108,-7
6455,253,14,-22,4,109,-8
6460,253,17,-21,4,109,-9
6465,254,16,-18,8,108,-10
6470,255,13,-18,11,107,-10
6475,251,18,-21,12,106,-12
6480,256,16,-16,15,104,-16
6485,254,18,-23,17,103,-17
6490,254,14,-18,18,102,-20
6495,250,18,-16,21,99,-21
6500,253,16,-21,20,98,-21
6505,250,18,-23,22,97,-22
6510,255,18,-16,21,95,-22
6515,252,21,-21,18,94,-23
6520,252,22,-18,16,91,-21
6525,254,22,-18,13,89,-19
6530,255,19,-22,10,87,-20
6535,252,21,-23,8,86,-21
6540,256,20,-20,8,84,-20
6545,253,22,-23,7,81,-18
6550,254,24,-17,6,83,-19
6555,253,22,-23,5,83,-18
6560,255,22,-19,3,84,-17
6565,252,21,-22,1,85,-17
6570,252,23,-20,-1,88,-17
6575,253,21,-21,-2,89,-16
6580,253,25,-19,-5,91,-14
6585,251,23,-24,-6,93,-13
6590,254,17,-20,-7,95,-13
6595,256,20,-21,-9,95,-12
6600,252,21,-19,-9,98,-14
6605,254,20,-16,-11,97,-13
6610,253,22,-23,-13,97,-13
6615,255,20,-21,-16,97,-13
6620,252,23,-17,-16,96,-14
6625,253,20,-16,-17,96,-15
6630,254,22,-23,-18,93,-13
6635,254,17,-19,-18,93,-12
6640,253,19,-19,-19,93,-11
6645,253,22,-23,-20,94,-10
6650,254,22,-20,-20,96,-9
6655,255,21,-18,-21,95,-8
6660,255,21,-22,-20,95,-8
6665,255,22,-20,-21,95,-5
6670,254,23,-19,-21,97,-6
6675,252,24,-17,-22,97,-5
6680,254,21,-20,-22,99,-5
6685,254,19,-24,-23,101,-1
6690,251,21,-17,-22,104,-1
6695,255,21,-19,-23,104,1
6700,252,21,-22,-23,107,2
6705,254,19,-20,-21,106,2
6710,252,20,-17,-19,107,3
6715,254,19,-18,-18,107,3
6720,255,18,-18,-17,106,3
6725,254,19,-16,-16,104,2
6730,254,20,-20,-15,102,2
6735,255,18,-18,-16,101,2
6740,254,19,-18,-16,100,2
6745,254,21,-22,-16,98,2
6750,254,20,-19,-16,97,2
6755,254,16,-19,-17,94,3
6760,255,19,-18,-18,93,2
6765,254,18,-17,-18,92,3
6770,254,20,-18,-18,90,2
6775,253,20,-18,-18,87,2
6780,252,20,-17,-18,88,2
6785,254,18,-18,-17,88,2
6790,256,20,-19,-19,87,3
6795,253,20,-18,-16,85,3
6800,253,21,-18,-15,86,4
6805,254,14,-18,-14,87,6
6810,256,19,-18,-12,87,7
6815,254,19,-17,-10,86,7
6820,255,20,-16,-9,87,7
6825,253,17,-20,-8,88,7
6830,253,19,-20,-7,88,7
6835,253,18,-17,-6,87,7
6840,255,19,-18,-5,87,7
6845,252,18,-18,-5,87,7
6850,252,20,-16,-5,86,5
6855,253,18,-16,-7,86,4
6860,256,18,-14,-8,86,3
6865,253,14,-15,-9,85,4
6870,254,16,-19,-10,85,4
6875,253,19,-19,-10,83,4
6880,253,17,-18,-11,84,3
6885,252,16,-16,-11,83,3
6890,255,18,-15,-12,82,3
6895,251,18,-17,-11,82,3
6900,254,17,-16,-12,79,1
6905,255,16,-19,-11,78,1
6910,254,17,-17,-10,78,0
6915,254,19,-15,-11,77,0
6920,255,19,-16,-12,75,-1
6925,254,18,-19,-11,74,-3
6930,255,19,-21,-12,72,-3
6935,254,16,-19,-11,72,-2
6940,253,17,-16,-12,72,-2
6945,255,15,-19,-12,72,-2
6950,254,18,-20,-12,72,-2
6955,256,20,-19,-12,72,-2
6960,253,18,-19,-14,71,-5
6965,255,17,-13,-13,71,-4
6970,254,18,-16,-13,71,-5
6975,255,20,-15,-13,73,-4
6980,252,19,-20,-13,74,-5
6985,256,19,-18,-14,73,-5
6990,251,21,-17,-15,72,-6
6995,255,18,-17,-17,71,-5
7000,254,16,-15,-18,71,-7
7005,257,17,-16,-18,70,-8
7010,254,19,-17,-19,69,-7
7015,253,18,-14,-20,71,-8
7020,255,18,-18,-20,70,-8
7025,256,16,-20,-21,70,-9
7030,255,15,-16,-22,70,-10
7035,254,18,-17,-21,68,-10
7040,255,18,-16,-22,68,-10
7045,253,20,-17,-22,68,-9
7050,253,19,-16,-22,67,-8
7055,254,17,-15,-22,67,-9
7060,256,20,-20,-20,67,-7
7065,254,16,-16,-20,68,-4
7070,255,19,-14,-20,68,-3
7075,253,19,-17,-19,67,-3
7080,254,19,-12,-19,67,-4
7085,253,18,-20,-18,67,-5
7090,253,20,-18,-19,65,-5
7095,254,20,-17,-19,65,-6
7100,251,20,-18,-19,65,-4
7105,254,22,-19,-19,65,-4
7110,254,21,-16,-19,61,-5
7115,255,19,-13,-19,60,-4
7120,254,22,-17,-19,60,-2
7125,255,20,-16,-19,59,-2
7130,254,16,-16,-18,59,-2
7135,254,18,-17,-18,57,-2
7140,253,19,-15,-18,55,-2
7145,255,21,-18,-19,55,-3
7150,250,21,-20,-20,52,-1
7155,255,19,-16,-21,51,-1
7160,252,23,-15,-21,50,-3
7165,254,17,-20,-21,49,0
7170,254,19,-18,-23,49,0
7175,254,20,-16,-23,49,2
7180,255,17,-20,-23,48,3
7185,255,20,-17,-23,48,4
7190,254,17,-18,-22,48,5
7195,256,18,-19,-23,47,5
7200,253,19,-17,-22,46,5
7205,255,15,-20,-21,46,6
7210,252,22,-14,-22,44,3
7215,255,16,-16,-23,46,4
7220,255,19,-15,-24,43,3
7225,252,20,-14,-24,43,3
7230,253,21,-19,-25,42,3
7235,252,22,-19,-27,42,3
7240,255,18,-21,-28,43,4
7245,254,17,-20,-28,44,6
7250,252,17,-15,-29,44,6
7255,253,16,-17,-30,44,7
7260,254,19,-21,-29,44,5
7265,251,20,-15,-29,44,5
7270,253,12,-20,-29,43,5
7275,255,16,-18,-29,42,5
7280,255,17,-16,-30,42,4
7285,255,19,-21,-32,40,1
7290,258,7,-28,-33,38,0
7295,254,19,-20,-33,37,1
7300,252,20,-22,-34,37,-1
7305,252,17,-18,-36,36,1
7310,252,18,-18,-37,34,-1
7315,253,20,-22,-38,33,0
7320,254,15,-17,-37,32,-2
7325,253,16,-20,-36,32,-2
7330,255,17,-20,-36,32,-2
7335,255,18,-20,-34,34,-2
7340,254,17,-17,-32,33,-2
7345,255,19,-20,-31,36,-3
7350,253,19,-22,-30,37,-2
7355,254,17,-21,-29,39,-1
7360,253,19,-19,-28,41,-1
7365,252,19,-20,-29,43,-1
7370,257,18,-22,-27,45,-1
7375,255,16,-22,-28,46,0
7380,254,16,-24,-26,47,0
7385,251,18,-20,-25,48,-1
7390,255,19,-20,-23,49,-2
7395,254,18,-21,-22,48,-3
7400,250,19,-20,-22,48,-4
7405,256,19,-22,-22,47,-4
7410,254,19,-16,-22,47,-6
7415,254,20,-20,-23,47,-6
7420,254,16,-20,-23,47,-7
7425,252,18,-18,-22,47,-7
7430,252,17,-19,-23,48,-6
7435,253,18,-20,-23,50,-6
7440,253,21,-15,-22,50,-6
7445,252,20,-19,-22,51,-5
7450,252,20,-21,-20,55,-4
7455,255,19,-19,-21,56,-5
7460,254,21,-22,-21,59,-7
7465,253,20,-21,-22,59,-6
7470,252,20,-17,-22,62,-7
7475,256,17,-20,-22,63,-6
7480,250,19,-19,-23,64,-5
7485,254,19,-20,-23,66,-5
7490,254,16,-20,-21,68,-7
7495,254,24,-19,-18,67,-8
7500,253,18,-20,-17,67,-7
7505,251,20,-17,-17,68,-7
7510,254,17,-22,-15,68,-6
7515,254,18,-23,-14,68,-4
7520,251,19,-20,-13,68,-6
7525,254,18,-21,-13,66,-4
7530,253,20,-19,-13,67,-5
7535,254,22,-20,-13,67,-4
7540,255,17,-22,-13,68,-6
7545,253,21,-19,-13,68,-6
7550,255,21,-23,-12,68,-6
7555,254,23,-22,-13,70,-6
7560,255,22,-19,-12,71,-5
7565,255,19,-22,-10,73,-5
7570,254,18,-24,-11,73,-4
7575,254,21,-20,-10,74,-5
7580,255,19,-23,-11,75,-4
7585,253,16,-21,-10,77,-4
7590,256,18,-24,-11,77,-3
7595,252,17,-19,-11,78,-3
7600,252,18,-19,-10,79,-4
7605,253,15,-20,-10,80,-3
7610,253,22,-18,-11,82,-4
7615,254,18,-21,-10,82,-3
7620,254,20,-23,-9,83,-2
7625,252,20,-25,-7,85,0
7630,253,19,-22,-5,86,2
7635,254,17,-19,-2,87,4
7640,256,18,-21,4,91,7
7645,257,19,-22,8,92,11
7650,255,16,-19,12,94,13
7655,259,17,-20,17,98,15
7660,258,17,-25,24,102,21
7665,258,18,-26,31,108,26
7670,260,18,-27,41,115,33
7675,258,16,-26,54,122,40
7680,260,18,-28,70,131,47
7685,258,19,-27,86,141,54
7690,262,15,-26,105,151,61
7695,261,16,-27,128,161,70
7700,261,15,-24,153,171,77
7705,260,17,-28,179,180,83
7710,263,18,-27,204,190,86
7715,261,19,-29,222,200,83
7720,262,18,-28,233,209,81
7725,257,21,-25,245,219,80
7730,258,19,-23,253,230,87
7735,260,19,-24,258,238,89
7740,259,17,-22,262,247,89
7745,256,17,-23,266,258,91
7750,257,17,-21,271,269,96
7755,260,16,-22,281,278,102
7760,260,14,-21,295,290,108
7765,260,14,-19,306,298,111
7770,264,13,-22,318,305,108
7775,257,18,-28,327,311,107
7780,260,14,-22,333,311,105
7785,261,17,-20,332,311,103
7790,259,21,-19,326,306,106
7795,258,22,-16,311,303,109
7800,260,19,-16,291,294,115
7805,258,23,-16,269,286,125
7810,260,22,-13,244,276,138
7815,260,19,-15,221,264,155
7820,262,18,-13,198,249,172
7825,261,23,-9,176,233,188
7830,264,22,-4,155,216,200
7835,260,21,-5,128,198,208
7840,260,25,-2,97,178,211
7845,263,21,3,71,157,215
7850,263,18,1,50,140,221
7855,260,21,-5,36,133,228
7860,258,15,-8,27,137,231
7865,260,13,-10,25,150,234
7870,259,8,-14,35,174,235
7875,261,1,-22,56,215,232
7880,263,3,-25,88,270,227
7885,264,4,-27,134,331,223
7890,268,5,-27,185,394,221
7895,270,14,-29,234,454,215
7900,273,17,-30,272,506,210
7905,276,23,-34,296,546,203
7910,275,25,-35,294,576,199
7915,272,25,-33,269,589,193
7920,275,26,-20,223,586,181
7925,273,21,-16,173,562,167
7930,273,24,-5,125,527,153
7935,270,20,0,84,493,143
7940,269,23,5,44,468,141
7945,262,25,13,5,456,146
7950,263,24,16,-38,463,160
7955,254,24,14,-72,490,180
7960,246,22,2,-87,531,200
7965,243,20,-7,-75,583,213
7970,241,16,-10,-44,639,215
7975,238,20,-14,-6,679,212
7980,239,23,-21,23,701,209
7985,242,27,-23,38,712,206
7990,245,28,-23,42,719,199
7995,248,33,-23,32,724,192
8000,254,37,-21,13,722,191
8005,257,41,-18,-16,712,194
8010,261,40,-7,-53,699,207
8015,267,41,0,-97,677,235
8020,270,43,5,-149,648,267
8025,266,41,10,-206,615,305
8030,267,39,15,-265,586,345
8035,262,36,13,-322,568,380
8040,259,35,11,-373,563,417
8045,257,27,13,-407,570,454
8050,257,26,13,-420,583,493
8055,254,24,15,-409,593,528
8060,253,23,13,-384,592,560
8065,256,23,7,-355,577,590
8070,262,22,3,-335,549,613
8075,268,26,2,-323,517,631
8080,268,26,-1,-324,486,649
8085,275,23,0,-340,464,668
8090,278,23,10,-372,445,682
8095,281,21,20,-412,419,694
8100,282,16,30,-458,380,701
8105,283,16,32,-507,326,708
8110,286,20,25,-560,267,709
8115,288,23,19,-613,228,709
8120,286,25,22,-660,204,711
8125,285,25,15,-700,189,710
8130,280,18,16,-732,174,703
8135,276,7,12,-761,152,685
8140,271,6,10,-801,129,659
8145,265,2,9,-857,110,636
8150,259,-3,21,-925,96,615
8155,258,-10,20,-987,85,595
8160,257,-21,23,-1038,68,580
8165,256,-27,24,-1080,38,574
8170,252,-36,29,-1109,-2,574
8175,252,-46,32,-1128,-42,580
8180,249,-50,37,-1133,-68,590
8185,237,-59,44,-1125,-75,591
8190,230,-70,49,-1107,-75,583
8195,214,-77,54,-1078,-65,564
8200,205,-87,47,-1041,-46,529
8205,199,-92,48,-1003,-19,479
8210,201,-98,37,-972,1,430
8215,206,-107,39,-955,22,392
8220,209,-114,31,-940,43,363
8225,211,-122,25,-921,68,341
8230,209,-123,18,-895,99,317
8235,210,-123,18,-852,137,296
8240,215,-111,16,-799,180,278
8245,216,-106,12,-746,227,263
8250,217,-101,22,-698,272,259
8255,224,-95,21,-642,316,258
8260,234,-87,22,-587,349,252
8265,238,-84,25,-542,381,243
8270,244,-76,28,-510,418,241
8275,258,-65,24,-492,455,242
8280,264,-65,25,-481,487,236
8285,272,-62,14,-476,505,225
8290,280,-64,15,-470,526,207
8295,281,-63,16,-467,557,180
8300,278,-67,11,-470,586,151
8305,272,-66,13,-474,614,112
8310,260,-61,21,-480,638,75
8315,263,-57,16,-486,661,48
8320,262,-53,14,-494,693,28
8325,258,-45,14,-499,726,11
8330,246,-47,18,-500,744,18
8335,248,-51,11,-501,736,35
8340,246,-56,6,-501,720,56
8345,246,-65,0,-506,703,92
8350,244,-75,-7,-502,680,126
8355,233,-86,-12,-487,649,158
8360,226,-92,-18,-457,613,187
8365,222,-100,-22,-418,574,213
8370,221,-104,-19,-378,548,239
8375,213,-110,-21,-339,534,262
8380,216,-115,-14,-304,524,281
8385,207,-122,1,-274,519,297
8390,210,-125,5,-250,507,310
8395,208,-127,16,-234,500,327
8400,211,-128,26,-225,494,343
8405,217,-127,33,-215,488,354
8410,223,-122,43,-201,481,356
8415,223,-122,42,-179,476,349
8420,232,-117,52,-143,476,344
8425,234,-115,53,-99,482,332
8430,241,-106,54,-51,484,314
8435,242,-100,55,1,490,299
8440,238,-89,52,53,489,280
8445,242,-82,52,98,479,264
8450,242,-75,51,127,469,253
8455,242,-65,53,140,446,239
8460,242,-62,49,140,420,224
8465,240,-59,53,137,389,216
8470,242,-52,54,128,352,203
8475,240,-59,58,116,313,189
8480,242,-55,61,111,270,172
8485,233,-52,56,105,220,156
8490,234,-53,58,102,167,137
8495,227,-54,63,100,116,121
8500,229,-49,63,93,47,94
8505,228,-48,73,86,6,90
8510,226,-46,80,73,-25,94
8515,228,-43,87,50,-65,99
8520,232,-40,100,14,-117,105
8525,238,-39,105,-26,-169,122
8530,246,-38,104,-70,-233,142
8535,246,-35,106,-119,-299,164
8540,252,-38,109,-170,-373,183
8545,255,-39,95,-217,-469,198
8550,265,-41,88,-260,-568,215
8555,270,-47,84,-283,-658,235
8560,273,-51,74,-277,-738,249
8565,272,-55,78,-252,-794,259
8570,263,-60,79,-226,-826,275
8575,254,-65,87,-207,-859,285
8580,252,-84,97,-181,-893,289
8585,250,-94,99,-136,-918,281
8590,256,-100,95,-67,-909,275
8595,256,-118,95,32,-854,292
8600,251,-127,92,170,-774,323
8605,251,-130,89,325,-682,377
8610,258,-140,89,486,-608,438
8615,264,-148,93,640,-545,494
8620,289,-150,96,794,-516,536
8625,309,-151,96,918,-493,580
8630,335,-151,104,1001,-420,616
8635,366,-159,117,1045,-292,652
8640,390,-154,126,1077,-124,665
8645,411,-152,129,1088,86,660
8650,421,-151,129,1086,327,642
8655,434,-148,130,1099,568,606
8660,449,-131,129,1152,798,551
8665,475,-114,118,1253,1000,471
8670,481,-94,105,1405,1201,370
8675,461,-81,97,1593,1411,265
8680,427,-61,75,1779,1631,206
8685,391,-53,67,1924,1853,213
8690,361,-32,48,2000,2066,247
8695,330,-32,45,1978,2259,302
8700,303,-23,25,1887,2402,361
8705,277,-27,22,1722,2508,424
8710,251,-32,7,1505,2576,482
8715,233,-44,4,1227,2592,533
8720,222,-52,9,910,2581,581
8725,221,-62,22,588,2564,631
8730,222,-78,40,306,2578,684
8735,229,-96,62,96,2634,745
8740,240,-115,74,-38,2715,809
8745,236,-127,85,-102,2804,875
8750,235,-139,89,-103,2885,945
8755,231,-149,98,-52,2938,1005
8760,229,-158,107,62,2960,1049
8765,223,-161,108,231,2958,1071
8770,221,-160,102,429,2953,1084
8775,212,-151,99,629,2952,1095
8780,203,-148,94,805,2954,1104
8785,189,-137,84,954,2942,1110
8790,184,-127,80,1054,2915,1119
8795,169,-105,68,1103,2878,1121
8800,160,-92,66,1105,2842,1122
8805,149,-79,69,1072,2809,1125
8810,138,-66,77,1018,2778,1135
8815,129,-55,84,952,2741,1148
8820,126,-46,88,890,2688,1169
8825,119,-39,91,832,2626,1200
8830,117,-30,93,783,2554,1228
8835,118,-24,97,744,2480,1248
8840,117,-20,94,711,2395,1258
8845,110,-13,90,680,2302,1272
8850,108,-6,90,652,2216,1294
8855,109,-5,88,624,2140,1327
8860,108,-4,88,580,2060,1355
8865,108,-1,86,513,1964,1384
8870,112,-7,85,424,1854,1413
8875,118,-9,87,327,1729,1436
8880,121,-9,81,249,1591,1451
8885,124,-13,82,204,1443,1457
8890,129,-15,82,181,1294,1452
8895,131,-20,79,171,1149,1432
8900,136,-26,80,166,1017,1398
8905,140,-26,88,178,898,1350
8910,136,-26,87,194,792,1295
8915,133,-25,87,197,694,1237
8920,133,-25,92,183,603,1180
8925,130,-22,93,157,518,1119
8930,125,-23,94,124,436,1058
8935,120,-21,96,83,355,998
8940,123,-24,97,40,273,935
8945,121,-23,96,-1,195,870
8950,120,-24,102,-36,116,800
8955,116,-19,98,-62,44,727
8960,110,-18,99,-83,-23,652
8965,107,-14,95,-108,-85,573
8970,106,-16,97,-136,-148,496
8975,103,-10,94,-179,-217,421
8980,107,-9,88,-238,-290,348
8985,110,-10,88,-308,-359,279
8990,112,-9,87,-380,-424,211
8995,116,-11,82,-449,-480,145
9000,127,-19,85,-515,-529,88
9005,140,-29,87,-574,-567,36
9010,149,-35,100,-627,-584,-17
9015,154,-48,117,-675,-584,-68
9020,183,-55,141,-725,-574,-99
9025,214,-76,164,-778,-537,-95
9030,243,-103,199,-834,-464,-71
9035,272,-127,237,-889,-349,-41
9040,304,-156,280,-952,-201,3
9045,329,-191,311,-1021,-26,57
9050,364,-220,328,-1084,165,104
9055,391,-249,329,-1154,352,125
9060,421,-273,321,-1257,511,110
9065,442,-300,304,-1389,605,64
9070,439,-329,277,-1534,620,-4
9075,400,-350,263,-1653,587,-67
9080,348,-360,259,-1668,567,-80
9085,323,-346,258,-1525,594,-34
9090,285,-341,263,-1237,634,75
9095,249,-333,251,-898,708,212
9100,198,-319,229,-565,796,304
9105,138,-292,196,-272,836,336
9110,85,-262,165,-64,783,335
9115,47,-233,131,46,644,314
9120,19,-203,109,64,459,286
9125,7,-185,97,26,272,261
9130,3,-178,97,-40,117,242
9135,6,-170,109,-116,12,236
9140,15,-167,126,-187,-48,251
9145,23,-159,145,-237,-65,269
9150,37,-148,165,-262,-47,293
9155,49,-142,181,-258,0,321
9160,60,-136,191,-224,72,343
9165,65,-128,195,-166,159,357
9170,70,-125,194,-98,252,365
9175,71,-116,193,-38,337,369
9180,71,-110,191,15,404,367
9185,73,-106,191,53,446,357
9190,74,-97,189,85,461,346
9195,83,-94,183,117,441,333
9200,92,-88,183,150,396,318
9205,102,-81,175,182,340,300
9210,114,-76,166,201,287,274
9215,124,-73,162,194,242,247
9220,137,-74,156,154,208,217
9225,143,-75,153,85,188,188
9230,149,-82,149,-9,181,167
9235,156,-91,154,-114,188,147
9240,162,-101,155,-214,204,132
9245,170,-115,162,-291,229,120
9250,170,-133,167,-341,261,116
9255,168,-149,175,-362,298,116
9260,171,-167,183,-367,329,120
9265,171,-184,182,-354,356,129
9270,172,-196,184,-336,376,150
9275,169,-207,188,-315,393,180
9280,164,-219,189,-298,407,205
9285,157,-227,184,-286,422,227
9290,152,-232,181,-276,431,246
9295,145,-235,178,-263,439,261
9300,142,-234,173,-246,447,277
9305,141,-236,170,-219,449,289
9310,138,-233,166,-180,447,296
9315,129,-223,160,-127,435,296
9320,128,-216,156,-60,419,290
9325,123,-205,148,12,402,276
9330,122,-197,148,77,388,258
9335,114,-187,143,127,382,240
9340,114,-179,144,165,384,221
9345,110,-167,146,201,396,205
9350,107,-159,150,238,410,194
9355,102,-151,154,272,419,187
9360,97,-145,157,297,412,181
9365,96,-143,162,307,392,170
9370,97,-143,170,305,367,161
9375,98,-148,175,295,342,149
9380,92,-153,183,284,316,140
9385,94,-160,190,281,291,138
9390,90,-159,196,293,263,143
9395,90,-162,204,309,226,146
9400,90,-169,212,329,194,151
9405,87,-171,211,352,168,159
9410,83,-174,216,380,151,167
9415,81,-173,215,413,142,181
9420,79,-175,214,445,132,198
9425,78,-176,213,471,119,216
9430,77,-174,214,475,110,235
9435,81,-174,203,448,103,259
9440,83,-172,199,389,105,287
9445,87,-172,188,307,106,309
9450,89,-170,185,217,111,325
9455,96,-168,176,139,118,339
9460,101,-167,174,85,128,357
9465,109,-169,172,48,133,379
9470,114,-167,172,16,136,398
9475,120,-163,168,-15,143,415
9480,124,-162,170,-41,154,429
9485,125,-163,173,-46,169,441
9490,125,-158,175,-35,182,447
9495,125,-152,179,-12,194,452
9500,128,-146,179,13,214,461
9505,126,-142,181,24,247,470
9510,124,-136,178,20,291,478
9515,119,-134,180,12,333,483
9520,112,-138,173,5,368,479
9525,105,-139,175,5,396,468
9530,106,-144,174,11,423,449
9535,102,-141,181,27,456,427
9540,96,-140,185,54,501,402
9545,97,-144,195,80,564,382
9550,94,-143,202,101,638,368
9555,92,-142,209,110,710,357
9560,89,-139,217,108,768,353
9565,90,-140,223,92,809,356
9570,93,-142,224,57,840,359
9575,97,-144,226,2,860,361
9580,97,-146,219,-69,866,356
9585,102,-151,214,-148,862,347
9590,105,-161,209,-220,842,340
9595,103,-167,197,-268,813,329
9600,100,-175,193,-314,783,320
9605,101,-185,195,-337,760,314
9610,94,-191,186,-328,749,317
9615,91,-192,185,-290,738,331
9620,94,-189,185,-239,731,353
9625,91,-187,186,-193,726,373
9630,89,-181,185,-169,720,390
9635,84,-174,180,-166,718,405
9640,84,-174,180,-187,716,412
9645,72,-172,174,-218,718,410
9650,64,-174,174,-249,723,410
9655,60,-176,175,-264,731,409
9660,58,-178,179,-257,729,412
9665,57,-175,180,-230,720,414
9670,54,-174,188,-192,702,414
9675,59,-171,193,-148,680,413
9680,60,-164,194,-104,654,408
9685,65,-160,195,-62,623,398
9690,67,-153,196,-28,596,381
9695,73,-151,196,6,556,357
9700,83,-146,196,36,513,327
9705,86,-143,198,57,473,293
9710,91,-139,192,68,437,257
9715,90,-136,193,63,413,225
9720,92,-139,189,44,401,191
9725,91,-137,192,13,399,158
9730,91,-140,194,-18,406,123
9735,86,-146,197,-37,420,89
9740,82,-148,199,-34,435,60
9745,80,-155,199,-7,448,25
9750,74,-152,201,41,463,-7
9755,70,-153,206,100,478,-41
9760,66,-152,201,154,489,-70
9765,63,-150,200,196,494,-92
9770,65,-150,201,224,496,-106
9775,60,-152,201,247,497,-116
9780,63,-152,197,265,506,-126
9785,64,-151,193,279,518,-135
9790,61,-150,193,286,534,-147
9795,62,-152,193,288,548,-162
9800,62,-157,193,279,563,-177
9805,60,-156,193,264,573,-188
9810,56,-163,194,247,578,-203
9815,52,-165,197,234,576,-214
9820,51,-173,194,232,573,-227
9825,48,-173,197,250,571,-237
9830,47,-180,200,286,567,-248
9835,46,-180,203,335,562,-259
9840,43,-181,204,389,551,-274
9845,45,-179,197,437,536,-288
9850,39,-176,200,470,521,-301
9855,33,-174,200,485,505,-312
9860,28,-167,199,482,491,-314
9865,27,-166,204,466,477,-308
9870,28,-163,204,435,463,-291
9875,25,-161,212,392,452,-269
9880,27,-159,217,339,448,-241
9885,27,-160,218,277,450,-212
9890,25,-163,227,207,457,-180
9895,22,-165,239,141,467,-148
9900,20,-171,244,94,471,-115
9905,13,-173,247,71,465,-82
9910,9,-174,245,71,448,-56
9915,6,-169,247,84,431,-33
9920,5,-168,240,101,418,-10
9925,3,-161,235,119,416,20
9930,-2,-158,228,133,417,55
9935,1,-153,224,135,416,94
9940,3,-147,218,117,408,131
9945,5,-143,215,73,384,154
9950,6,-141,210,3,353,164
9955,10,-139,204,-95,317,167
9960,14,-137,213,-198,276,174
9965,15,-139,210,-285,231,183
9970,26,-141,212,-359,187,188
9975,27,-152,212,-415,151,184
9980,35,-156,218,-453,128,180
9985,35,-158,217,-469,123,178
9990,36,-164,218,-462,129,182
9995,35,-172,220,-428,139,190
10000,32,-176,219,-374,151,199
10005,26,-180,220,-309,160,206
10010,18,-176,217,-241,163,217
10015,18,-181,220,-171,161,231
10020,14,-178,224,-104,147,244
10025,16,-173,215,-41,122,255
10030,16,-168,212,14,98,266
10035,19,-162,208,57,80,279
10040,26,-159,203,89,69,292
10045,31,-158,203,112,62,301
10050,36,-158,200,123,60,305
10055,36,-155,201,117,61,308
10060,41,-154,205,104,66,307
10065,46,-158,208,91,73,301
10070,50,-159,209,83,81,291
10075,54,-158,208,77,86,279
10080,53,-157,216,78,90,265
10085,57,-157,220,79,96,249
10090,59,-155,217,79,102,234
10095,57,-154,224,81,112,217
10100,56,-155,222,81,120,199
10105,53,-151,225,85,123,182
10110,55,-150,220,89,132,164
10115,53,-150,223,90,145,148
10120,58,-145,219,78,158,135
10125,59,-148,213,60,170,120
10130,60,-153,209,43,178,100
10135,62,-151,205,26,183,78
10140,61,-157,203,15,186,56
10145,59,-159,199,6,191,36
10150,59,-164,198,-3,200,12
10155,55,-165,202,-12,215,-8
10160,55,-167,202,-26,229,-18
10165,56,-168,206,-40,230,-23
10170,54,-170,208,-47,220,-27
10175,50,-178,206,-46,205,-30
10180,46,-177,208,-39,191,-32
10185,44,-181,207,-22,185,-17
10190,50,-184,210,2,185,-8
10195,48,-188,213,34,187,-17
10200,43,-185,211,83,201,-19
10205,35,-180,208,131,236,-10
10210,35,-180,208,167,275,7
10215,36,-178,212,188,296,15
10220,33,-174,211,206,296,6
10225,25,-167,212,226,286,2
10230,14,-164,205,238,280,10
10235,8,-157,203,230,274,30
10240,3,-157,199,190,267,38
10245,1,-159,198,130,259,50
10250,-5,-161,202,63,254,63
10255,-7,-168,203,13,243,75
10260,-15,-169,206,-8,233,85
10265,-22,-170,204,-6,226,94
10270,-26,-169,205,11,217,101
10275,-25,-169,207,40,201,105
10280,-21,-169,206,77,180,106
10285,-17,-160,209,111,159,103
10290,-15,-156,203,136,140,96
10295,-7,-153,204,156,122,89
10300,-3,-151,201,168,100,80
10305,1,-152,205,179,80,75
10310,8,-151,208,189,60,68
10315,11,-154,212,204,40,60
10320,12,-154,214,226,17,50
10325,22,-159,222,258,-4,41
10330,25,-161,221,300,-23,23
10335,29,-159,220,347,-36,2
10340,31,-159,223,394,-47,-16
10345,32,-155,216,437,-58,-26
10350,31,-152,218,467,-68,-36
10355,31,-152,219,481,-72,-40
10360,31,-154,211,485,-79,-44
10365,33,-152,217,479,-89,-49
10370,29,-155,222,467,-97,-53
10375,28,-156,220,459,-103,-52
10380,28,-157,215,459,-104,-46
10385,26,-156,224,460,-101,-40
10390,26,-152,220,458,-90,-30
10395,23,-146,225,450,-77,-19
10400,27,-145,221,433,-60,-11
10405,27,-140,223,405,-48,1
10410,27,-136,224,367,-39,13
10415,30,-133,220,325,-36,24
10420,31,-131,224,279,-34,37
10425,32,-131,224,236,-36,50
10430,34,-130,227,199,-40,60
10435,38,-132,227,167,-44,66
10440,36,-136,226,140,-46,69
10445,37,-138,227,121,-48,66
10450,37,-141,225,110,-46,63
10455,34,-142,223,100,-46,55
10460,32,-143,225,93,-40,45
10465,32,-147,227,84,-35,32
10470,32,-141,223,76,-32,19
10475,33,-147,223,68,-31,7
10480,31,-142,225,64,-29,-7
10485,32,-144,226,68,-24,-18
10490,35,-144,229,74,-21,-29
10495,36,-145,229,84,-19,-42
10500,39,-142,228,94,-17,-55
10505,41,-146,230,108,-13,-65
10510,40,-140,228,127,-7,-74
10515,42,-142,230,144,-1,-82
10520,40,-140,230,162,10,-89
10525,42,-141,231,181,21,-90
10530,42,-136,231,199,31,-89
10535,42,-137,226,214,46,-85
10540,40,-137,229,229,59,-77
10545,42,-133,227,240,75,-68
10550,36,-137,224,250,91,-59
10555,38,-134,226,262,103,-48
10560,38,-135,225,275,111,-35
10565,39,-134,222,288,118,-26
10570,42,-136,224,305,122,-18
10575,40,-130,223,319,124,-9
10580,41,-130,224,331,127,2
10585,46,-129,225,339,127,12
10590,45,-128,224,343,125,20
10595,44,-128,223,344,122,27
10600,45,-126,222,344,120,35
10605,47,-127,224,340,116,39
10610,48,-125,225,333,113,42
10615,50,-126,223,321,111,47
10620,49,-127,223,306,107,50
10625,50,-127,229,294,106,45
10630,41,-128,228,281,106,43
10635,41,-132,223,269,106,41
10640,39,-130,225,254,105,39
10645,38,-131,229,241,104,35
10650,33,-136,228,226,102,32
10655,32,-136,229,216,103,32
10660,32,-139,231,211,103,29
10665,28,-134,232,210,105,30
10670,24,-142,231,213,105,31
10675,22,-140,233,222,105,32
10680,19,-140,239,234,104,31
10685,17,-139,238,248,105,32
10690,19,-141,237,262,101,31
10695,12,-137,239,272,95,31
10700,10,-132,242,280,90,27
10705,10,-131,238,283,83,25
10710,9,-127,243,281,77,23
10715,10,-128,241,278,72,20
10720,12,-122,237,273,66,17
10725,14,-123,238,265,62,15
10730,16,-121,243,256,59,11
10735,14,-119,238,254,58,6
10740,15,-118,241,253,56,3
10745,16,-113,242,252,57,0
10750,20,-117,242,253,55,-1
10755,19,-113,244,252,55,0
10760,21,-113,238,255,54,-1
10765,23,-112,240,255,53,0
10770,24,-116,235,251,50,0
10775,26,-112,237,244,47,1
10780,28,-112,237,235,42,3
10785,23,-108,235,227,37,4
10790,28,-111,239,217,33,4
10795,32,-115,239,210,33,2
10800,34,-111,240,208,36,1
10805,33,-113,238,209,39,0
10810,37,-111,241,213,46,-2
10815,35,-112,241,218,57,-1
10820,35,-110,240,223,68,2
10825,34,-112,239,226,80,5
10830,37,-109,241,227,91,11
10835,41,-114,243,224,99,14
10840,42,-110,243,219,106,15
10845,43,-109,242,210,110,17
10850,45,-110,237,198,113,19
10855,45,-111,241,182,114,22
10860,44,-113,242,161,116,25
10865,43,-113,241,143,118,27
10870,40,-113,237,128,120,30
10875,40,-115,239,113,123,36
10880,43,-113,234,100,122,38
10885,40,-119,240,87,121,36
10890,39,-119,240,72,119,37
10895,37,-120,238,60,117,36
10900,37,-120,237,48,114,34
10905,35,-123,239,35,113,30
10910,37,-123,240,24,112,27
10915,32,-122,234,15,112,23
10920,34,-126,239,9,112,20
10925,33,-125,238,3,116,16
10930,35,-125,237,-1,121,13
10935,33,-123,236,-4,126,9
10940,33,-121,236,-7,131,7
10945,34,-121,236,-10,136,3
10950,33,-119,238,-15,140,2
10955,32,-118,236,-21,140,-2
10960,31,-120,234,-29,137,-4
10965,32,-119,237,-37,132,-7
10970,28,-117,234,-43,126,-10
10975,26,-119,237,-49,117,-13
10980,27,-117,238,-52,109,-17
10985,31,-117,243,-54,100,-21
10990,28,-119,238,-53,94,-26
10995,29,-114,237,-52,89,-31
11000,28,-122,237,-48,85,-35
11005,25,-121,241,-46,83,-42
11010,27,-120,240,-47,82,-48
11015,30,-124,235,-47,80,-51
11020,28,-123,236,-47,80,-54
11025,27,-128,236,-45,82,-58
11030,28,-127,237,-43,83,-63
11035,27,-128,235,-37,85,-66
11040,31,-127,237,-31,90,-67
11045,32,-128,235,-25,93,-67
11050,26,-129,235,-15,100,-66
11055,31,-132,233,-5,105,-65
11060,25,-130,234,8,111,-63
11065,29,-131,235,20,116,-60
11070,25,-132,237,33,120,-56
11075,24,-125,234,47,122,-54
11080,23,-127,233,60,123,-50
11085,21,-126,238,71,123,-46
11090,21,-125,236,79,122,-41
11095,20,-120,236,83,119,-37
11100,17,-122,235,85,114,-31
11105,17,-117,236,86,109,-25
11110,16,-118,238,84,103,-21
11115,16,-118,235,85,96,-16
11120,15,-116,237,83,89,-9
11125,20,-115,239,81,82,-4
11130,18,-114,242,79,76,0
11135,18,-116,240,77,69,1
11140,17,-116,242,75,60,5
11145,13,-112,242,74,55,7
11150,18,-115,240,72,49,10
11155,16,-113,242,73,45,12
11160,16,-114,242,74,42,13
11165,16,-111,241,74,39,13
11170,18,-113,240,76,37,15
11175,17,-115,241,79,36,14
11180,17,-113,244,80,35,13
11185,19,-112,243,82,34,14
11190,19,-110,242,83,35,12
11195,22,-112,243,83,36,10
11200,24,-111,242,84,36,8
11205,22,-106,241,82,37,8
11210,24,-109,241,81,41,5
11215,26,-110,243,80,42,1
11220,26,-109,242,78,43,0
11225,29,-111,242,76,45,-2
11230,32,-110,244,74,48,-5
11235,32,-107,244,71,51,-6
11240,31,-108,240,68,53,-9
11245,32,-107,243,64,57,-12
11250,34,-107,243,60,60,-14
11255,30,-106,246,56,63,-16
11260,35,-104,243,51,66,-17
11265,33,-103,245,45,69,-20
11270,34,-106,244,38,72,-21
11275,35,-105,242,31,75,-23
11280,36,-104,242,22,78,-24
11285,34,-105,239,14,77,-24
11290,34,-102,245,5,79,-24
11295,37,-106,243,-3,81,-25
11300,37,-101,243,-12,83,-25
11305,36,-106,247,-22,84,-25
11310,39,-106,246,-27,85,-24
11315,35,-106,242,-35,86,-23
11320,38,-109,244,-41,87,-20
11325,36,-107,243,-49,88,-20
11330,31,-107,240,-53,89,-19
11335,34,-108,237,-58,88,-18
11340,34,-109,244,-59,88,-16
11345,31,-108,244,-62,87,-14
11350,33,-109,241,-63,87,-12
11355,31,-109,246,-64,85,-12
11360,32,-110,242,-64,84,-13
11365,29,-112,240,-63,83,-12
11370,29,-113,242,-62,82,-11
11375,28,-114,241,-62,80,-10
11380,29,-114,240,-61,78,-9
11385,26,-114,244,-60,76,-9
11390,27,-114,245,-58,75,-8
11395,28,-113,243,-55,72,-8
11400,28,-117,243,-52,71,-9
11405,28,-117,244,-48,70,-8
11410,26,-112,242,-45,68,-8
11415,28,-115,244,-44,67,-7
11420,24,-114,237,-40,66,-7
11425,27,-115,239,-39,67,-8
11430,26,-112,240,-37,67,-7
11435,26,-112,239,-36,64,-6
11440,30,-116,237,-36,63,-8
11445,27,-114,238,-36,65,-7
11450,28,-114,234,-35,64,-8
11455,29,-120,236,-35,65,-8
11460,27,-113,238,-33,65,-9
11465,27,-116,236,-30,66,-8
11470,28,-115,238,-27,68,-8
11475,30,-115,236,-22,70,-8
11480,30,-115,240,-19,71,-8
11485,27,-116,241,-14,72,-5
11490,30,-114,240,-7,73,-6
11495,31,-115,239,-1,74,-5
11500,29,-114,243,7,77,-4
11505,30,-113,241,11,78,-3
11510,30,-113,239,16,79,-4
11515,28,-113,243,20,80,-2
11520,27,-110,237,23,81,-2
11525,27,-113,240,23,80,0
11530,27,-109,242,22,80,0
11535,27,-111,244,20,79,1
11540,27,-111,241,16,78,1
11545,26,-112,240,12,76,2
11550,24,-109,239,8,74,2
11555,25,-111,241,4,72,3
11560,25,-110,245,-1,71,3
11565,25,-111,241,-5,70,3
11570,27,-112,241,-6,66,4
11575,27,-113,241,-9,66,3
11580,26,-110,241,-7,65,3
11585,29,-113,246,-7,65,3
11590,28,-113,242,-3,65,2
11595,31,-113,243,0,65,3
11600,28,-113,245,1,66,3
11605,27,-111,241,3,67,1
11610,26,-113,243,2,67,1
11615,30,-109,242,2,67,-1
11620,29,-111,243,0,68,0
11625,27,-114,239,-3,66,0
11630,27,-114,237,-7,68,0
11635,28,-112,241,-10,69,-1
11640,26,-110,245,-14,71,0
11645,28,-109,239,-18,71,0
11650,26,-113,243,-21,69,-2
11655,27,-115,242,-24,71,-1
11660,30,-111,241,-27,71,0
11665,29,-107,240,-28,73,-2
11670,29,-109,241,-30,72,-2
11675,26,-111,243,-30,73,-3
11680,25,-111,243,-30,71,-2
11685,27,-115,243,-32,72,0
11690,27,-108,240,-35,71,-2
11695,28,-110,242,-36,69,-1
11700,29,-107,242,-38,68,-1
11705,29,-112,242,-42,68,-2
11710,28,-113,243,-45,68,-3
11715,25,-114,240,-50,66,-2
11720,28,-115,241,-54,66,-3
11725,30,-117,243,-58,66,-4
11730,27,-113,240,-60,64,-4
11735,28,-112,240,-62,63,-4
11740,32,-112,240,-64,62,-3
11745,24,-111,243,-66,63,-3
11750,27,-112,245,-67,62,-4
11755,30,-115,237,-66,61,-3
11760,29,-117,239,-66,61,-4
11765,28,-115,242,-63,62,-5
11770,28,-117,242,-60,62,-4
11775,27,-114,243,-56,63,-5
11780,27,-115,237,-52,64,-5
11785,28,-116,238,-47,65,-4
11790,27,-115,236,-44,65,-4
11795,27,-114,239,-42,66,-5
11800,29,-117,239,-38,65,-4
11805,30,-113,239,-35,67,-4
11810,27,-114,235,-31,67,-3
11815,28,-113,241,-29,68,-5
11820,30,-113,238,-28,68,-6
11825,29,-115,240,-27,68,-5
11830,27,-114,237,-26,68,-5
11835,30,-116,238,-25,67,-5
11840,30,-117,237,-26,68,-5
11845,32,-113,241,-26,69,-5
11850,29,-116,241,-25,69,-4
11855,28,-114,239,-27,67,-6
11860,29,-114,240,-28,68,-5
11865,28,-116,240,-29,67,-5
11870,27,-111,239,-29,68,-5
11875,28,-114,240,-31,69,-6
11880,28,-114,241,-33,69,-4
11885,25,-112,241,-35,69,-5
11890,29,-112,242,-39,70,-3
11895,30,-114,243,-41,69,-1
11900,27,-109,242,-42,68,-3
11905,28,-116,238,-45,67,-2
11910,28,-115,239,-48,68,-3
11915,27,-115,242,-51,67,-4
11920,27,-113,240,-55,68,-3
11925,31,-116,237,-56,66,-2
11930,24,-114,241,-57,66,-1
11935,26,-114,241,-58,65,-1
11940,31,-114,243,-57,65,-2
11945,29,-112,238,-57,66,-1
11950,27,-113,236,-55,66,-1
11955,28,-113,241,-54,65,-3
11960,32,-115,238,-51,64,-4
11965,29,-114,241,-48,63,-3
11970,27,-115,237,-44,64,-2
11975,31,-113,235,-39,62,-3
11980,30,-114,237,-34,63,-2
11985,32,-115,240,-29,64,-2
11990,29,-109,236,-25,63,-2
11995,28,-110,236,-22,62,-4
