timestamp,acc_x,acc_y,acc_z,gyro_x,gyro_y,gyro_z
0,9,-18,240,-12,74,-2
5,9,-23,241,-14,73,-1
10,9,-19,241,-13,73,-2
15,8,-20,243,-15,71,-2
20,8,-22,241,-14,69,-2
25,7,-22,237,-14,69,-2
30,6,-21,243,-13,68,-2
35,11,-22,240,-12,65,-2
40,7,-21,243,-10,62,-2
45,11,-19,242,-9,59,-2
50,7,-23,245,-6,58,-2
55,8,-21,240,-5,56,0
60,8,-20,243,-4,57,-1
65,10,-23,236,-2,57,0
70,9,-21,243,-1,58,-1
75,14,-24,242,0,60,0
80,8,-20,243,1,62,-1
85,7,-18,242,2,63,-2
90,9,-18,238,2,65,-2
95,9,-21,242,3,67,-2
100,13,-22,238,3,67,-1
105,10,-21,246,2,69,-1
110,10,-22,244,2,70,-2
115,7,-20,242,3,69,-2
120,6,-21,242,1,70,-3
125,6,-18,241,0,70,-3
130,8,-19,239,0,70,-2
135,9,-19,240,-2,69,-3
140,9,-20,241,-5,69,-4
145,10,-20,240,-8,70,-2
150,10,-21,241,-8,70,-4
155,8,-20,241,-7,72,-3
160,9,-18,243,-8,71,-4
165,8,-19,240,-7,72,-2
170,6,-21,243,-7,73,-3
175,4,-17,243,-7,75,-4
180,9,-20,241,-4,73,-4
185,8,-17,238,-3,73,-4
190,8,-20,241,-3,73,-3
195,9,-19,243,-3,73,-2
200,8,-20,239,-2,72,-4
205,3,-17,244,-4,71,-4
210,9,-19,242,-5,70,-4
215,10,-20,242,-5,68,-4
220,6,-17,243,-6,67,-4
225,9,-20,241,-4,66,-5
230,10,-19,242,-4,67,-5
235,9,-19,240,-4,66,-5
240,10,-22,243,-3,66,-5
245,8,-20,238,-4,66,-5
250,8,-20,242,-2,66,-6
255,8,-20,242,-3,67,-4
260,11,-20,240,-5,67,-5
265,9,-20,239,-7,67,-3
270,6,-20,240,-8,66,-4
275,9,-19,243,-12,66,-3
280,7,-20,238,-15,66,-2
285,9,-21,242,-18,66,-2
290,7,-17,241,-19,65,-1
295,7,-20,242,-21,64,-1
300,5,-18,241,-19,65,0
305,7,-22,243,-18,64,2
310,6,-22,241,-18,64,3
315,8,-21,243,-13,63,2
320,8,-20,240,-7,63,1
325,8,-21,241,-1,63,1
330,8,-19,242,5,61,1
335,8,-20,242,11,59,2
340,10,-21,241,14,60,0
345,11,-20,244,18,60,-1
350,10,-18,243,17,60,-2
355,10,-17,242,15,62,-4
360,10,-17,239,10,64,-4
365,8,-17,243,4,67,-3
370,9,-16,240,-8,71,-5
375,8,-17,240,-21,74,-5
380,10,-14,242,-37,76,-6
385,8,-17,244,-50,79,-5
390,7,-18,241,-63,80,-5
395,9,-21,241,-72,81,-5
400,9,-20,244,-74,77,-4
405,10,-16,235,-73,72,-3
410,7,-21,243,-69,65,-4
415,9,-21,246,-60,58,-3
420,4,-18,241,-53,53,-2
425,6,-24,243,-42,45,0
430,6,-20,240,-34,41,-2
435,7,-22,238,-27,42,-1
440,6,-19,236,-20,42,-2
445,9,-22,238,-14,44,-1
450,12,-22,237,-9,47,-2
455,8,-22,243,-4,51,-2
460,8,-20,240,1,58,-2
465,9,-18,240,6,59,-3
470,7,-20,240,9,62,-3
475,9,-18,241,11,67,-5
480,10,-18,245,11,67,-5
485,7,-19,239,9,68,-4
490,10,-18,241,6,69,-7
495,9,-17,239,5,70,-4
500,8,-19,242,0,72,-5
505,11,-18,243,-2,73,-5
510,14,-19,240,-3,75,-5
515,4,-14,239,-4,75,-4
520,8,-18,241,-4,75,-4
525,10,-18,243,-4,76,-3
530,10,-16,241,-5,73,-2
535,9,-20,244,-3,71,-1
540,9,-19,243,-5,70,-3
545,9,-18,241,-6,67,-2
550,11,-17,240,-7,66,-3
555,8,-19,241,-9,65,-1
560,9,-19,241,-10,64,-1
565,9,-20,246,-11,62,-2
570,12,-20,241,-11,62,-2
575,7,-21,243,-12,61,-2
580,10,-23,243,-12,60,-2
585,9,-21,241,-11,60,-2
590,8,-20,241,-9,59,-2
595,7,-21,238,-7,58,-2
600,9,-23,239,-5,57,-4
605,11,-21,239,-5,58,-3
610,8,-20,242,-5,56,-4
615,8,-20,241,-4,59,-3
620,8,-19,238,-3,59,-3
625,8,-23,241,-2,60,-4
630,7,-19,243,-1,60,-2
635,6,-19,240,0,60,-2
640,8,-20,241,2,61,-3
645,8,-20,243,4,64,-4
650,7,-21,238,6,64,-4
655,8,-19,238,9,64,-2
660,7,-19,240,11,66,-4
665,9,-20,241,11,65,-2
670,1,-16,235,10,66,-4
675,8,-14,232,9,67,-3
680,10,-20,237,6,67,-4
685,5,-14,244,3,67,-4
690,7,-21,243,2,66,-5
695,8,-20,242,-4,65,-5
700,7,-17,245,-6,66,-5
705,9,-19,243,-7,65,-3
710,8,-16,241,-9,65,-5
715,9,-20,241,-8,63,-3
720,7,-18,241,-8,63,-4
725,8,-22,238,-7,63,-2
730,8,-20,242,-6,63,-4
735,10,-18,242,-5,63,-3
740,10,-18,239,-7,64,-2
745,8,-19,243,-7,63,-2
750,9,-16,243,-6,64,-3
755,8,-20,242,-6,64,-2
760,9,-17,239,-10,65,-1
765,10,-19,239,-12,65,-1
770,8,-18,242,-13,66,-3
775,7,-19,242,-15,65,-3
780,9,-20,241,-17,66,-3
785,8,-18,244,-17,66,-2
790,8,-18,243,-16,65,-4
795,7,-18,239,-17,65,-3
800,8,-19,245,-16,66,-4
805,11,-19,239,-15,66,-3
810,7,-16,243,-13,66,-5
815,7,-20,243,-12,66,-5
820,12,-19,242,-10,67,-6
825,6,-18,244,-9,66,-6
830,11,-20,237,-9,67,-7
835,7,-16,245,-11,66,-6
840,13,-14,243,-12,64,-6
845,10,-19,242,-14,64,-5
850,9,-19,240,-18,64,-7
855,8,-16,240,-20,65,-6
860,8,-17,244,-22,64,-5
865,8,-17,243,-24,62,-6
870,7,-18,242,-27,61,-6
875,9,-20,243,-28,61,-6
880,10,-21,242,-30,59,-6
885,9,-20,244,-30,59,-4
890,6,-19,242,-29,61,-5
895,9,-19,245,-29,61,-4
900,11,-19,243,-26,58,-5
905,9,-18,241,-25,58,-5
910,8,-18,244,-24,59,-5
915,8,-19,242,-22,59,-5
920,6,-18,240,-22,57,-4
925,7,-18,239,-23,56,-5
930,7,-20,241,-24,55,-6
935,6,-22,239,-24,52,-5
940,6,-19,240,-26,50,-6
945,6,-19,244,-27,49,-3
950,7,-21,241,-29,48,-6
955,7,-18,241,-29,49,-4
960,10,-19,241,-32,50,-5
965,7,-21,247,-34,50,-3
970,7,-20,245,-35,50,-5
975,7,-18,243,-36,50,-4
980,8,-20,243,-37,50,-4
985,7,-23,240,-35,51,-3
990,6,-22,243,-34,51,-5
995,5,-22,242,-34,51,-3
1000,5,-19,243,-33,51,-5
1005,9,-22,246,-32,52,-3
1010,9,-21,243,-32,53,-6
1015,8,-20,241,-33,53,-5
1020,10,-18,239,-32,53,-5
1025,9,-20,246,-35,53,-5
1030,8,-19,242,-37,55,-5
1035,7,-19,244,-39,54,-5
1040,10,-18,238,-43,54,-5
1045,7,-17,240,-46,54,-4
1050,7,-18,246,-49,55,-6
1055,7,-22,242,-51,54,-5
1060,7,-19,242,-55,55,-5
1065,9,-21,243,-56,56,-4
1070,7,-18,240,-56,56,-6
1075,7,-19,243,-54,56,-6
1080,8,-23,240,-53,55,-6
1085,7,-20,243,-53,55,-5
1090,11,-22,245,-50,53,-6
1095,10,-21,244,-50,53,-6
1100,9,-24,243,-49,52,-7
1105,7,-18,241,-48,51,-6
1110,11,-22,245,-47,49,-8
1115,9,-22,247,-46,50,-7
1120,12,-19,238,-47,50,-7
1125,10,-22,242,-47,48,-7
1130,10,-21,243,-48,47,-8
1135,9,-20,240,-50,48,-8
1140,11,-20,242,-52,47,-7
1145,8,-19,246,-55,48,-8
1150,9,-21,244,-56,47,-7
1155,8,-20,240,-59,46,-8
1160,10,-20,243,-61,46,-9
1165,15,-15,247,-64,44,-7
1170,10,-21,239,-65,41,-7
1175,10,-22,241,-67,42,-6
1180,6,-20,241,-66,41,-7
1185,6,-21,244,-64,39,-5
1190,6,-23,241,-62,39,-5
1195,10,-23,245,-60,38,-3
1200,8,-23,241,-56,40,-4
1205,10,-23,242,-51,42,-4
1210,8,-23,240,-47,43,-3
1215,10,-22,237,-40,45,-3
1220,8,-21,240,-35,47,-5
1225,7,-20,241,-30,47,-5
1230,10,-20,243,-28,49,-6
1235,11,-20,240,-28,51,-6
1240,11,-19,237,-29,54,-8
1245,8,-17,244,-34,56,-7
1250,13,-19,238,-43,60,-9
1255,10,-19,242,-55,65,-7
1260,10,-19,245,-69,69,-7
1265,9,-18,239,-84,73,-8
1270,10,-24,243,-100,75,-7
1275,8,-24,245,-112,75,-7
1280,10,-23,243,-121,72,-8
1285,8,-24,243,-122,67,-7
1290,10,-26,247,-120,62,-8
1295,8,-26,243,-113,52,-6
1300,8,-25,245,-103,44,-9
1305,7,-24,244,-91,34,-7
1310,10,-26,242,-80,25,-7
1315,9,-27,239,-69,18,-7
1320,8,-26,243,-57,12,-6
1325,10,-24,240,-48,10,-6
1330,11,-26,241,-39,9,-7
1335,11,-25,238,-29,14,-7
1340,11,-25,240,-23,18,-8
1345,10,-24,239,-18,27,-7
1350,10,-23,238,-16,34,-8
1355,9,-22,237,-16,41,-6
1360,12,-20,237,-18,47,-7
1365,11,-24,238,-24,52,-8
1370,11,-20,240,-30,57,-8
1375,11,-21,238,-39,60,-8
1380,8,-20,237,-47,63,-9
1385,11,-22,243,-55,66,-8
1390,10,-21,245,-63,68,-8
1395,11,-25,241,-67,67,-6
1400,11,-23,242,-69,69,-8
1405,12,-23,243,-66,69,-7
1410,11,-23,247,-62,68,-9
1415,13,-27,245,-58,65,-8
1420,5,-20,242,-54,62,-8
1425,11,-28,247,-48,59,-7
1430,12,-26,242,-42,54,-6
1435,11,-25,251,-39,53,-7
1440,10,-25,241,-38,49,-5
1445,9,-21,241,-35,46,-5
1450,11,-26,243,-33,43,-7
1455,13,-29,241,-36,42,-5
1460,10,-25,241,-38,42,-6
1465,11,-27,235,-38,42,-6
1470,9,-26,240,-41,42,-6
1475,8,-27,242,-44,42,-5
1480,10,-25,240,-48,44,-6
1485,9,-25,243,-50,45,-6
1490,12,-29,243,-53,46,-7
1495,8,-19,252,-53,45,-6
1500,11,-29,239,-54,46,-7
1505,11,-29,240,-55,45,-6
1510,10,-27,238,-53,46,-8
1515,12,-28,242,-51,45,-7
1520,9,-26,241,-48,44,-8
1525,10,-24,243,-47,44,-8
1530,9,-28,242,-45,45,-9
1535,13,-27,244,-45,44,-7
1540,12,-24,239,-45,42,-8
1545,12,-27,241,-47,42,-7
1550,9,-27,241,-50,42,-8
1555,8,-28,242,-55,44,-6
1560,11,-23,240,-62,44,-8
1565,10,-25,240,-67,45,-6
1570,11,-26,239,-72,44,-8
1575,11,-27,240,-79,45,-6
1580,9,-24,242,-84,44,-5
1585,11,-24,240,-87,44,-4
1590,10,-27,240,-90,43,-5
1595,10,-28,239,-93,40,-3
1600,9,-27,239,-93,39,-4
1605,10,-30,241,-92,36,-3
1610,10,-30,244,-90,35,-3
1615,11,-29,242,-86,33,-2
1620,12,-30,242,-83,32,-4
1625,12,-29,242,-79,36,-2
1630,11,-31,243,-75,37,-5
1635,11,-30,248,-71,40,-4
1640,12,-26,243,-68,41,-5
1645,11,-28,246,-64,43,-6
1650,13,-27,246,-64,45,-8
1655,14,-27,248,-66,47,-9
1660,13,-29,246,-69,49,-10
1665,13,-29,249,-74,50,-10
1670,12,-25,245,-79,48,-14
1675,14,-28,251,-84,48,-14
1680,14,-26,252,-90,48,-17
1685,13,-28,246,-99,48,-17
1690,15,-29,251,-107,49,-20
1695,13,-28,245,-119,51,-21
1700,16,-28,244,-127,53,-23
1705,14,-29,243,-137,54,-24
1710,12,-29,232,-149,58,-25
1715,12,-28,241,-162,56,-24
1720,15,-29,242,-172,54,-24
1725,13,-30,239,-181,48,-21
1730,13,-30,236,-188,47,-21
1735,14,-36,237,-194,43,-18
1740,14,-34,239,-198,40,-17
1745,16,-34,236,-199,39,-12
1750,16,-40,236,-197,43,-13
1755,18,-43,240,-193,48,-10
1760,18,-41,242,-184,59,-12
1765,19,-38,243,-173,71,-11
1770,20,-42,240,-158,90,-13
1775,20,-42,242,-140,110,-13
1780,22,-43,243,-125,138,-17
1785,22,-41,243,-111,163,-18
1790,20,-41,241,-103,187,-25
1795,20,-37,246,-100,211,-29
1800,22,-40,243,-102,234,-38
1805,22,-40,243,-111,251,-43
1810,22,-39,245,-129,267,-49
1815,20,-38,242,-152,277,-56
1820,21,-37,247,-182,281,-66
1825,18,-38,244,-209,279,-72
1830,17,-41,249,-233,269,-79
1835,10,-39,245,-257,255,-83
1840,12,-45,241,-286,233,-90
1845,6,-44,239,-308,212,-90
1850,9,-43,242,-326,190,-94
1855,6,-44,241,-340,166,-92
1860,5,-46,238,-349,144,-93
1865,5,-48,238,-350,123,-90
1870,4,-50,241,-346,109,-84
1875,2,-49,235,-336,98,-77
1880,-2,-48,235,-320,90,-73
1885,-3,-49,237,-297,86,-66
1890,-1,-48,238,-270,83,-59
1895,-3,-49,236,-230,85,-50
1900,0,-48,239,-192,86,-46
1905,1,-49,236,-148,91,-37
1910,1,-47,234,-98,99,-33
1915,3,-42,235,-46,110,-27
1920,0,-40,230,5,126,-26
1925,3,-39,232,51,145,-23
1930,4,-43,240,93,161,-23
1935,-1,-39,230,127,173,-22
1940,-6,-35,228,151,181,-23
1945,-7,-36,229,168,179,-22
1950,-12,-32,224,182,162,-24
1955,-13,-34,224,188,132,-20
1960,-18,-35,224,191,90,-19
1965,-16,-30,226,193,39,-14
1970,-16,-30,229,189,-11,-10
1975,-16,-29,229,186,-58,-3
1980,-17,-34,231,178,-97,2
1985,-18,-28,233,165,-129,13
1990,-15,-27,238,151,-150,18
1995,-11,-28,240,137,-164,26
2000,-10,-28,240,126,-167,29
2005,-7,-26,241,123,-160,33
2010,-1,-24,243,121,-146,31
2015,-1,-25,241,125,-130,34
2020,1,-25,238,127,-116,31
2025,5,-22,241,125,-101,33
2030,7,-28,242,117,-89,30
2035,8,-30,241,100,-80,29
2040,8,-31,241,77,-69,24
2045,6,-36,239,49,-64,21
2050,8,-37,241,18,-62,15
2055,8,-41,241,-10,-67,11
2060,7,-45,242,-39,-82,2
2065,8,-49,239,-53,-98,-2
2070,11,-50,241,-56,-112,-17
2075,10,-58,236,-51,-128,-24
2080,11,-57,235,-38,-139,-38
2085,11,-57,236,-16,-149,-48
2090,12,-57,236,13,-151,-62
2095,12,-57,236,44,-152,-72
2100,12,-54,235,75,-149,-83
2105,16,-56,235,106,-139,-92
2110,16,-50,238,133,-124,-104
2115,18,-50,238,155,-99,-104
2120,24,-49,236,173,-74,-110
2125,28,-43,238,177,-49,-110
2130,28,-42,239,177,-29,-114
2135,29,-40,231,169,-17,-113
2140,28,-38,233,158,-14,-119
2145,30,-34,233,146,-14,-123
2150,30,-36,230,128,-19,-132
2155,26,-35,229,109,-27,-140
2160,30,-35,232,91,-38,-148
2165,30,-32,233,77,-51,-152
2170,32,-33,234,66,-68,-161
2175,33,-35,235,58,-78,-165
2180,35,-33,231,56,-84,-169
2185,37,-35,239,60,-90,-172
2190,40,-36,239,65,-94,-181
2195,38,-38,238,73,-100,-183
2200,38,-41,239,83,-108,-190
2205,39,-39,238,93,-113,-193
2210,40,-37,237,106,-117,-200
2215,39,-41,238,117,-115,-205
2220,41,-40,235,131,-104,-214
2225,41,-38,238,142,-85,-220
2230,43,-39,239,154,-64,-226
2235,43,-40,235,166,-43,-228
2240,42,-36,237,176,-19,-234
2245,39,-39,242,187,4,-239
2250,42,-36,244,200,25,-245
2255,44,-35,244,217,47,-247
2260,44,-30,249,234,63,-252
2265,48,-33,251,252,77,-253
2270,48,-29,252,267,93,-258
2275,45,-26,246,277,102,-264
2280,48,-25,253,284,117,-274
2285,47,-22,247,285,128,-278
2290,48,-19,244,286,141,-287
2295,44,-17,237,283,151,-288
2300,46,-18,237,279,159,-293
2305,40,-20,239,277,166,-291
2310,40,-20,232,270,167,-293
2315,39,-19,233,265,167,-286
2320,42,-20,233,262,164,-285
2325,40,-20,232,264,161,-281
2330,42,-20,234,267,169,-279
2335,39,-17,235,271,183,-278
2340,43,-21,237,280,205,-282
2345,42,-17,238,287,231,-280
2350,45,-18,242,293,259,-280
2355,45,-13,245,299,284,-278
2360,46,-8,246,299,307,-284
2365,48,-14,251,299,326,-288
2370,48,-9,254,294,342,-298
2375,45,-4,257,286,351,-308
2380,41,-4,261,274,347,-321
2385,38,-7,264,258,332,-332
2390,34,-4,272,236,304,-351
2395,32,-4,275,207,256,-365
2400,27,-8,280,181,203,-387
2405,19,-9,288,152,140,-407
2410,16,-18,294,125,72,-435
2415,6,-23,298,104,5,-458
2420,0,-27,302,88,-62,-484
2425,-5,-31,303,79,-123,-503
2430,-10,-37,311,72,-181,-522
2435,-25,-46,316,69,-233,-542
2440,-41,-47,315,72,-276,-567
2445,-51,-45,323,85,-314,-589
2450,-54,-42,326,118,-369,-610
2455,-40,-44,334,160,-435,-620
2460,-24,-44,342,206,-515,-641
2465,-14,-44,336,252,-598,-665
2470,-10,-48,330,292,-675,-698
2475,-21,-44,316,319,-755,-728
2480,-29,-47,300,330,-843,-763
2485,-46,-54,285,321,-946,-799
2490,-61,-49,276,298,-1066,-841
2495,-70,-46,271,263,-1206,-873
2500,-72,-43,262,231,-1368,-903
2505,-66,-39,261,204,-1581,-922
2510,-60,-34,251,194,-1760,-941
2515,-59,-30,245,197,-1927,-952
2520,-62,-22,234,213,-2079,-960
2525,-65,-20,231,240,-2218,-953
2530,-67,-9,221,282,-2358,-938
2535,-64,-5,214,335,-2508,-906
2540,-57,-4,204,396,-2671,-874
2545,-43,-3,194,452,-2846,-829
2550,-32,3,182,494,-3019,-790
2555,-23,6,168,522,-3178,-737
2560,-13,11,159,548,-3336,-693
2565,-4,20,151,576,-3434,-642
2570,10,23,145,610,-3502,-594
2575,18,21,134,654,-3538,-543
2580,38,29,122,697,-3538,-499
2585,44,32,117,741,-3502,-448
2590,58,34,110,791,-3429,-395
2595,71,38,102,845,-3317,-338
2600,89,43,96,899,-3169,-275
2605,103,52,94,950,-2993,-204
2610,125,62,91,1005,-2796,-122
2615,140,69,89,1069,-2537,-52
2620,160,78,83,1097,-2311,7
2625,177,85,78,1081,-2077,62
2630,189,94,70,1008,-1841,95
2635,198,95,69,878,-1612,126
2640,203,93,71,700,-1399,146
2645,203,96,71,497,-1210,162
2650,202,88,75,288,-1056,163
2655,203,88,80,91,-937,162
2660,198,86,91,-82,-847,157
2665,190,81,100,-228,-782,160
2670,190,69,106,-355,-728,162
2675,179,61,119,-411,-694,173
2680,172,49,129,-421,-667,185
2685,163,37,142,-389,-645,210
2690,154,29,153,-321,-619,235
2695,150,21,155,-231,-587,272
2700,136,19,158,-137,-539,309
2705,115,18,150,-60,-471,344
2710,98,17,147,-18,-386,367
2715,84,20,142,-10,-305,388
2720,80,16,140,-29,-234,402
2725,66,20,139,-62,-145,409
2730,57,20,147,-108,-77,401
2735,48,18,155,-139,-19,400
2740,31,20,161,-158,24,395
2745,28,22,175,-165,49,396
2750,32,23,192,-162,60,387
2755,38,25,209,-155,75,373
2760,44,34,246,-159,110,351
2765,62,38,283,-188,171,350
2770,102,45,329,-259,259,360
2775,159,54,380,-371,368,370
2780,272,75,442,-498,504,327
2785,351,77,471,-635,621,277
2790,384,60,483,-785,803,247
2795,401,35,470,-988,1045,219
2800,425,-1,456,-1231,1221,155
2805,459,-17,419,-1469,1200,72
2810,452,-26,356,-1649,892,-18
2815,394,-32,303,-1705,340,-65
2820,259,-47,223,-1579,-322,-41
2825,134,-74,163,-1267,-989,28
2830,44,-98,128,-828,-1662,82
2835,-4,-103,99,-313,-2417,141
2840,11,-96,80,334,-2853,201
2845,59,-76,59,827,-2972,255
2850,98,-43,51,1205,-2747,272
2855,112,-9,47,1411,-2257,267
2860,120,36,59,1420,-1627,244
2865,122,79,76,1252,-1004,225
2870,122,112,103,948,-504,202
2875,139,126,133,569,-184,177
2880,167,129,144,183,-45,133
2885,201,115,137,-158,-40,78
2890,224,94,122,-424,-78,-17
2895,237,75,117,-642,-80,-78
2900,244,49,112,-741,-61,-113
2905,257,24,122,-771,-45,-120
2910,265,2,135,-744,-52,-114
2915,273,-2,147,-664,-93,-89
2920,283,-3,169,-529,-173,-57
2925,291,-1,189,-341,-278,-11
2930,291,5,190,-99,-388,37
2935,282,0,186,177,-481,91
2940,262,3,176,443,-529,141
2945,238,5,172,652,-524,209
2950,217,15,159,791,-491,264
2955,200,20,157,811,-446,313
2960,186,23,153,752,-400,347
2965,176,19,157,635,-361,375
2970,170,15,155,477,-335,390
2975,162,8,159,296,-317,401
2980,158,1,162,120,-311,399
2985,152,-4,161,-29,-307,394
2990,147,-20,172,-136,-309,378
2995,145,-27,174,-198,-311,363
3000,150,-35,178,-214,-316,339
3005,150,-43,183,-187,-336,320
3010,151,-38,184,-137,-370,300
3015,157,-36,179,-68,-418,285
3020,164,-43,182,11,-468,267
3025,171,-31,178,95,-510,258
3030,175,-24,174,168,-530,248
3035,182,-16,172,227,-530,247
3040,191,-4,167,263,-517,243
3045,194,0,166,270,-500,246
3050,196,14,163,259,-489,244
3055,194,16,164,232,-483,248
3060,195,25,164,184,-486,248
3065,192,24,165,133,-498,259
3070,187,27,161,75,-519,263
3075,185,20,158,11,-540,274
3080,187,17,156,-55,-555,275
3085,183,10,157,-116,-558,276
3090,182,1,149,-172,-551,267
3095,176,-3,156,-214,-542,261
3100,173,-3,153,-240,-535,245
3105,174,-5,155,-247,-531,234
3110,175,-10,157,-237,-534,215
3115,174,-14,155,-211,-535,205
3120,178,-6,158,-186,-535,187
3125,179,-6,154,-164,-533,175
3130,178,-4,154,-144,-530,159
3135,184,-4,146,-133,-527,146
3140,185,-5,145,-128,-526,129
3145,188,-3,143,-130,-529,112
3150,191,-3,143,-141,-534,87
3155,197,-3,145,-160,-544,67
3160,201,-3,142,-184,-555,39
3165,202,-5,144,-208,-565,10
3170,204,-10,143,-234,-572,-19
3175,202,-12,137,-253,-576,-42
3180,204,-11,137,-271,-577,-67
3185,202,-10,132,-289,-574,-86
3190,204,-12,136,-306,-570,-104
3195,203,-10,128,-316,-566,-119
3200,200,-14,128,-323,-573,-138
3205,198,-11,128,-322,-588,-151
3210,200,-8,128,-322,-608,-168
3215,203,-8,131,-320,-633,-178
3220,206,-9,129,-322,-654,-194
3225,202,-5,131,-326,-672,-212
3230,206,2,133,-336,-674,-230
3235,203,-4,132,-343,-663,-244
3240,204,-6,128,-347,-652,-262
3245,203,-6,126,-349,-638,-271
3250,202,-6,128,-348,-619,-282
3255,206,-11,132,-336,-593,-283
3260,207,-15,132,-316,-562,-286
3265,208,-13,132,-288,-531,-279
3270,210,-8,130,-259,-511,-280
3275,212,-7,129,-236,-508,-275
3280,214,-3,125,-220,-521,-274
3285,218,-3,120,-210,-544,-269
3290,220,-1,119,-204,-566,-268
3295,223,-1,117,-200,-585,-262
3300,228,-2,120,-198,-595,-267
3305,223,5,116,-198,-591,-269
3310,230,9,112,-196,-575,-275
3315,233,8,118,-195,-550,-276
3320,235,11,110,-191,-518,-286
3325,237,9,109,-184,-488,-288
3330,238,14,103,-176,-460,-290
3335,240,11,102,-172,-442,-280
3340,240,19,92,-180,-445,-277
3345,240,13,89,-202,-468,-270
3350,241,15,89,-238,-506,-265
3355,243,13,86,-282,-556,-253
3360,241,14,91,-328,-603,-243
3365,244,15,91,-377,-637,-226
3370,251,12,87,-421,-652,-215
3375,252,10,91,-458,-650,-199
3380,253,7,91,-478,-638,-186
3385,249,5,90,-475,-638,-167
3390,246,1,90,-453,-651,-163
3395,243,-1,85,-409,-683,-161
3400,243,-2,84,-363,-705,-162
3405,242,-2,79,-312,-714,-155
3410,245,-1,81,-262,-701,-154
3415,248,2,80,-215,-666,-145
3420,245,6,79,-175,-619,-138
3425,246,3,80,-138,-571,-120
3430,247,2,81,-112,-540,-105
3435,245,-1,81,-91,-531,-89
3440,240,1,82,-79,-551,-82
3445,241,1,81,-77,-596,-70
3450,248,1,78,-86,-667,-63
3455,250,6,80,-115,-729,-51
3460,249,5,75,-150,-778,-42
3465,254,6,76,-193,-810,-28
3470,252,5,76,-238,-827,-19
3475,251,2,70,-278,-840,-3
3480,245,3,76,-306,-850,3
3485,245,2,68,-321,-865,6
3490,242,-1,67,-325,-886,4
3495,239,3,67,-319,-907,6
3500,240,2,66,-307,-922,2
3505,239,3,67,-295,-924,4
3510,240,4,62,-284,-912,0
3515,240,3,60,-277,-894,3
3520,242,1,63,-274,-873,1
3525,243,1,58,-274,-850,3
3530,242,-2,62,-274,-825,0
3535,244,-3,55,-273,-798,3
3540,245,-4,57,-271,-777,1
3545,246,-6,52,-267,-765,5
3550,248,-8,51,-259,-764,3
3555,249,-9,48,-251,-771,4
3560,245,-6,47,-245,-784,-2
3565,253,-10,46,-243,-807,-1
3570,251,-7,44,-247,-828,-6
3575,255,-7,44,-253,-845,-6
3580,255,-9,41,-263,-856,-4
3585,260,-10,38,-276,-857,3
3590,264,-15,42,-288,-843,10
3595,262,-14,40,-299,-820,21
3600,264,-13,39,-305,-789,30
3605,262,-13,44,-306,-757,45
3610,263,-17,39,-301,-726,57
3615,261,-17,38,-293,-701,76
3620,257,-16,38,-279,-678,86
3625,254,-22,33,-262,-668,96
3630,254,-21,37,-241,-660,100
3635,251,-20,29,-213,-652,107
3640,250,-15,28,-182,-641,107
3645,252,-17,26,-154,-621,112
3650,255,-16,24,-125,-593,111
3655,259,-18,23,-101,-549,113
3660,259,-14,21,-80,-501,109
3665,259,-9,21,-69,-445,108
3670,260,-14,18,-62,-392,103
3675,265,-15,20,-57,-339,102
3680,268,-16,20,-56,-308,99
3685,270,-18,21,-56,-285,95
3690,271,-18,14,-55,-266,88
3695,272,-19,14,-53,-249,84
3700,269,-19,13,-47,-233,74
3705,270,-19,12,-39,-223,68
3710,265,-22,5,-30,-224,57
3715,262,-17,4,-21,-233,50
3720,258,-17,4,-16,-246,36
3725,256,-20,0,-14,-257,23
3730,252,-18,2,-11,-261,7
3735,253,-21,2,-8,-254,-4
3740,246,-18,2,-6,-241,-19
3745,245,-18,10,0,-219,-29
3750,246,-18,9,5,-191,-40
3755,242,-18,13,9,-164,-46
3760,241,-9,19,12,-136,-58
3765,244,-7,19,12,-114,-64
3770,243,-4,17,8,-99,-77
3775,243,-4,24,0,-88,-85
3780,243,2,25,-13,-84,-99
3785,244,2,26,-29,-87,-110
3790,244,3,23,-40,-99,-121
3795,244,8,21,-49,-123,-130
3800,246,7,17,-55,-153,-141
3805,247,10,13,-65,-185,-146
3810,252,11,12,-79,-211,-157
3815,248,10,6,-100,-230,-165
3820,246,15,-2,-130,-238,-179
3825,247,13,0,-166,-240,-189
3830,244,13,8,-209,-239,-205
3835,240,14,6,-257,-246,-212
3840,238,15,1,-309,-270,-223
3845,238,13,8,-368,-304,-227
3850,237,13,8,-417,-354,-235
3855,233,12,9,-459,-416,-239
3860,234,12,5,-495,-484,-248
3865,233,12,10,-527,-554,-251
3870,239,10,9,-553,-618,-257
3875,242,8,2,-575,-664,-256
3880,245,4,3,-587,-696,-259
3885,250,2,-3,-591,-714,-253
3890,256,0,-3,-580,-719,-252
3895,266,-4,-3,-557,-708,-247
3900,269,-6,-14,-519,-688,-248
3905,274,-8,-16,-481,-654,-244
3910,275,-11,-10,-440,-605,-246
3915,275,-16,-8,-398,-550,-244
3920,279,-16,-5,-354,-499,-243
3925,278,-19,0,-310,-452,-235
3930,281,-20,-5,-266,-406,-232
3935,284,-20,1,-220,-362,-224
3940,284,-21,2,-175,-324,-221
3945,283,-24,-2,-130,-295,-212
3950,283,-26,1,-89,-268,-203
3955,284,-22,0,-43,-238,-193
3960,284,-22,1,-10,-211,-184
3965,284,-20,0,18,-193,-167
3970,281,-17,1,39,-181,-153
3975,277,-12,-1,54,-180,-135
3980,275,-10,-3,57,-190,-117
3985,271,-10,0,57,-209,-93
3990,268,-4,-8,48,-232,-74
3995,258,-6,-6,37,-259,-52
4000,258,-7,-9,29,-288,-36
4005,254,-5,-11,21,-314,-19
4010,247,-7,-9,19,-346,-13
4015,242,-4,-10,19,-371,-9
4020,235,-4,-6,23,-394,-13
4025,233,-8,-9,25,-414,-17
4030,226,-5,-6,28,-430,-30
4035,221,-3,-6,29,-440,-42
4040,220,-1,-7,27,-443,-59
4045,217,0,-4,22,-441,-73
4050,219,1,0,17,-433,-92
4055,223,-1,2,15,-423,-106
4060,223,0,4,18,-413,-129
4065,224,0,4,27,-403,-144
4070,226,-1,4,43,-397,-160
4075,232,0,4,60,-390,-175
4080,235,1,4,79,-381,-187
4085,239,1,-2,97,-370,-195
4090,244,-3,-5,112,-360,-206
4095,248,0,-5,124,-352,-212
4100,254,1,-14,134,-346,-220
4105,262,10,-12,139,-341,-222
4110,260,6,-10,144,-338,-229
4115,262,4,-12,148,-336,-230
4120,267,6,-15,150,-335,-234
4125,265,5,-18,150,-336,-232
4130,266,8,-23,146,-341,-233
4135,263,11,-18,142,-347,-230
4140,267,14,-24,139,-359,-232
4145,268,14,-25,133,-373,-229
4150,266,13,-29,126,-385,-229
4155,267,16,-29,119,-392,-222
4160,266,14,-30,108,-392,-220
4165,266,17,-31,98,-387,-213
4170,268,15,-31,91,-375,-212
4175,270,17,-31,88,-351,-206
4180,267,16,-29,93,-323,-202
4185,266,15,-30,102,-291,-197
4190,266,14,-31,113,-262,-196
4195,261,17,-34,130,-233,-194
4200,263,16,-32,150,-207,-197
4205,263,15,-37,170,-188,-199
4210,266,11,-36,191,-173,-205
4215,259,18,-38,211,-162,-208
4220,257,16,-38,228,-154,-216
4225,255,18,-39,241,-150,-219
4230,254,20,-46,250,-142,-227
4235,254,19,-43,262,-135,-227
4240,249,20,-47,274,-131,-228
4245,245,22,-46,288,-129,-223
4250,241,21,-48,302,-126,-219
4255,241,21,-52,317,-123,-208
4260,241,26,-48,336,-117,-199
4265,238,25,-51,354,-108,-185
4270,239,24,-51,372,-95,-176
4275,238,24,-48,391,-77,-161
4280,235,25,-53,411,-57,-152
4285,237,24,-48,430,-27,-135
4290,240,22,-47,448,-2,-123
4295,240,28,-50,464,24,-108
4300,241,24,-47,475,50,-100
4305,249,25,-49,485,75,-88
4310,253,24,-49,494,100,-84
4315,256,29,-48,496,119,-77
4320,257,28,-50,496,134,-76
4325,266,32,-50,490,143,-75
4330,273,30,-46,480,147,-79
4335,275,33,-49,468,144,-81
4340,282,35,-50,455,135,-88
4345,283,37,-50,435,122,-94
4350,287,42,-52,416,106,-102
4355,293,43,-54,392,88,-107
4360,295,44,-54,365,70,-115
4365,298,46,-54,333,54,-118
4370,301,45,-56,295,44,-125
4375,300,49,-57,251,41,-124
4380,297,46,-59,203,46,-124
4385,295,43,-56,154,63,-117
4390,290,45,-52,109,80,-111
4395,286,39,-53,69,104,-96
4400,281,40,-51,29,122,-83
4405,277,34,-48,5,137,-68
4410,272,32,-47,-10,147,-56
4415,269,25,-45,-20,148,-39
4420,268,23,-43,-20,143,-27
4425,262,20,-41,-11,135,-12
4430,272,30,-35,6,127,2
4435,262,19,-40,27,122,14
4440,258,20,-39,51,119,22
4445,255,14,-39,75,121,33
4450,249,16,-42,100,129,39
4455,252,15,-38,127,137,45
4460,249,11,-42,149,147,46
4465,245,14,-36,165,157,50
4470,245,15,-40,177,164,49
4475,245,16,-47,187,170,50
4480,245,15,-39,189,179,50
4485,245,16,-45,185,187,51
4490,247,15,-42,177,199,47
4495,247,15,-44,166,209,45
4500,249,17,-37,154,218,39
4505,249,17,-46,140,227,32
4510,248,14,-36,127,230,24
4515,250,18,-38,111,231,17
4520,254,18,-37,98,227,8
4525,257,18,-39,83,222,1
4530,257,18,-39,69,212,-10
4535,258,17,-42,51,203,-21
4540,260,21,-41,32,192,-32
4545,260,18,-39,10,182,-41
4550,260,18,-42,-14,174,-53
4555,259,16,-45,-37,168,-60
4560,263,12,-42,-62,163,-74
4565,257,13,-41,-88,162,-83
4570,258,12,-43,-105,163,-94
4575,259,9,-40,-119,170,-101
4580,259,7,-37,-127,176,-110
4585,255,7,-35,-127,187,-116
4590,258,2,-36,-125,197,-124
4595,255,3,-32,-116,210,-128
4600,254,4,-34,-103,225,-134
4605,253,3,-31,-83,239,-138
4610,251,5,-30,-62,253,-142
4615,253,8,-29,-38,266,-145
4620,252,9,-25,-8,275,-145
4625,252,11,-26,18,277,-143
4630,251,13,-28,47,276,-140
4635,254,15,-26,75,271,-136
4640,252,13,-23,101,265,-131
4645,263,19,-30,127,261,-123
4650,258,18,-26,149,259,-119
4655,259,18,-27,171,260,-113
4660,260,21,-29,187,265,-109
4665,258,28,-30,200,270,-103
4670,259,26,-29,209,275,-98
4675,261,26,-30,213,280,-92
4680,258,30,-32,215,285,-89
4685,262,30,-29,213,289,-84
4690,262,27,-36,208,295,-82
4695,264,30,-32,204,300,-80
4700,265,29,-36,196,308,-82
4705,263,30,-35,188,321,-79
4710,262,28,-30,182,333,-82
4715,263,29,-30,171,346,-84
4720,262,29,-29,161,359,-89
4725,260,24,-32,147,371,-92
4730,256,27,-32,133,381,-96
4735,257,25,-24,120,385,-101
4740,256,25,-24,112,385,-107
4745,252,26,-26,103,385,-111
4750,252,26,-24,98,381,-117
4755,251,34,-31,92,380,-119
4760,251,27,-16,87,376,-125
4765,252,27,-16,80,375,-128
4770,252,27,-17,74,373,-133
4775,252,26,-18,69,373,-137
4780,252,28,-13,65,372,-145
4785,253,29,-18,62,376,-150
4790,255,28,-17,61,377,-156
4795,255,29,-15,60,382,-161
4800,253,31,-17,61,382,-168
4805,255,30,-13,61,381,-172
4810,257,32,-19,58,378,-174
4815,255,32,-15,57,373,-175
4820,259,34,-22,55,366,-176
4825,259,38,-22,49,359,-173
4830,262,37,-18,45,355,-172
4835,258,35,-20,40,353,-166
4840,257,38,-16,33,353,-161
4845,260,37,-17,31,353,-153
4850,262,37,-15,29,353,-146
4855,259,38,-14,27,355,-135
4860,261,39,-10,30,353,-126
4865,261,40,-8,35,349,-116
4870,260,37,-10,40,347,-108
4875,263,36,-7,45,344,-100
4880,263,35,-5,50,338,-94
4885,261,37,-9,56,332,-86
4890,264,34,-6,64,328,-79
4895,265,32,-9,70,317,-77
4900,265,30,-5,73,308,-77
4905,261,33,-5,74,299,-78
4910,258,34,-3,73,289,-81
4915,259,33,0,74,276,-83
4920,256,35,-4,73,261,-84
4925,254,36,-2,74,245,-80
4930,257,35,-4,78,231,-78
4935,252,37,-4,83,219,-73
4940,253,34,-5,87,213,-73
4945,252,35,-4,89,209,-73
4950,251,36,0,89,207,-76
4955,249,35,-3,83,211,-81
4960,247,35,-1,78,219,-90
4965,245,35,5,69,231,-99
4970,245,30,3,61,244,-108
4975,249,34,8,46,255,-120
4980,245,34,7,31,266,-131
4985,241,33,9,15,275,-138
4990,243,35,10,3,284,-144
4995,242,36,13,-4,291,-146
5000,242,37,13,-8,293,-145
5005,242,34,12,-9,288,-144
5010,243,36,13,-12,278,-138
5015,244,38,17,-18,261,-138
5020,248,41,16,-37,236,-138
5025,245,43,12,-59,208,-139
5030,251,44,13,-89,176,-141
5035,250,44,10,-123,143,-142
5040,251,42,11,-155,111,-142
5045,253,39,12,-188,80,-138
5050,253,36,12,-215,51,-134
5055,251,35,7,-235,25,-128
5060,248,32,11,-251,-4,-119
5065,249,32,12,-255,-27,-111
5070,251,27,10,-251,-51,-107
5075,251,25,12,-233,-76,-107
5080,255,24,4,-203,-95,-106
5085,261,28,-4,-166,-105,-105
5090,262,27,2,-120,-107,-106
5095,267,22,-1,-72,-95,-106
5100,269,29,1,-27,-72,-105
5105,270,29,-3,17,-41,-100
5110,273,32,-3,55,-9,-95
5115,271,36,-5,98,32,-87
5120,270,38,-14,130,56,-76
5125,269,39,-13,161,68,-62
5130,268,45,-16,186,70,-49
5135,267,46,-20,210,62,-35
5140,266,53,-23,223,47,-22
5145,264,54,-31,226,33,-9
5150,265,57,-26,215,19,2
5155,263,60,-25,193,10,10
5160,258,59,-27,165,9,17
5165,259,60,-25,132,14,22
5170,257,60,-23,92,27,26
5175,256,59,-20,67,44,28
5180,254,59,-24,48,62,29
5185,251,59,-20,34,81,30
5190,250,59,-18,23,101,30
5195,252,56,-14,15,118,31
5200,250,56,-13,8,134,31
5205,246,54,-12,3,146,35
5210,251,52,-12,-3,156,38
5215,249,54,-12,-13,163,42
5220,251,49,-9,-21,169,46
5225,248,47,-4,-32,173,49
5230,251,48,0,-39,179,52
5235,251,49,-2,-44,183,55
5240,251,47,0,-45,184,57
5245,252,44,0,-42,184,59
5250,254,44,6,-39,183,61
5255,255,43,6,-33,180,64
5260,257,41,4,-26,174,67
5265,257,45,8,-22,164,71
5270,258,42,8,-18,153,76
5275,260,44,6,-15,134,82
5280,254,45,4,-19,115,89
5285,261,43,6,-25,93,94
5290,257,43,5,-31,69,101
5295,258,39,6,-40,48,107
5300,256,40,6,-49,28,113
5305,259,34,-1,-57,13,117
5310,258,37,-5,-64,3,121
5315,259,36,-1,-71,0,122
5320,259,33,-5,-76,0,123
5325,263,33,-8,-79,10,122
5330,261,31,-9,-80,28,119
5335,263,31,-10,-78,50,114
5340,261,30,-3,-78,76,109
5345,262,31,-13,-78,105,100
5350,258,35,-9,-80,132,92
5355,259,34,-9,-83,157,84
5360,256,32,-4,-84,178,80
5365,255,33,-3,-84,193,76
5370,254,34,-4,-81,202,75
5375,254,32,-5,-73,206,76
5380,253,32,-3,-62,203,77
5385,253,33,3,-50,197,80
5390,254,32,2,-36,192,81
5395,255,30,3,-27,190,79
5400,258,28,3,-23,191,77
5405,258,29,5,-22,198,72
5410,258,29,8,-23,209,67
5415,258,29,6,-25,224,62
5420,254,32,8,-27,238,59
5425,255,27,10,-30,251,56
5430,255,28,10,-31,259,53
5435,254,28,10,-30,261,49
5440,256,27,10,-30,256,48
5445,254,29,13,-26,247,43
5450,251,30,8,-23,231,42
5455,252,28,10,-21,215,40
5460,253,29,11,-18,198,40
5465,250,26,12,-18,183,35
5470,252,28,9,-17,175,32
5475,250,31,5,-20,172,26
5480,252,27,7,-27,174,20
5485,251,28,3,-35,181,13
5490,253,31,2,-45,192,8
5495,251,31,6,-58,207,-1
5500,249,31,5,-71,221,-10
5505,249,29,2,-85,232,-17
5510,252,31,6,-99,242,-23
5515,250,29,3,-112,252,-31
5520,250,35,5,-127,261,-37
5525,254,30,8,-141,270,-44
5530,251,32,7,-154,277,-48
5535,254,31,12,-169,283,-53
5540,253,35,11,-180,287,-57
5545,250,35,3,-190,290,-61
5550,250,35,12,-198,291,-62
5555,255,33,13,-206,291,-65
5560,254,31,13,-208,286,-65
5565,256,33,11,-207,278,-64
5570,254,33,16,-203,268,-62
5575,260,31,17,-196,257,-60
5580,256,33,15,-187,245,-56
5585,254,32,18,-178,235,-55
5590,260,30,15,-168,224,-52
5595,255,31,18,-157,212,-50
5600,259,29,17,-147,203,-46
5605,259,32,18,-139,192,-44
5610,258,30,24,-127,183,-42
5615,261,28,25,-116,173,-42
5620,257,28,16,-106,162,-40
5625,256,29,20,-98,151,-42
5630,256,30,18,-87,141,-41
5635,255,30,22,-77,133,-43
5640,255,31,20,-70,126,-42
5645,254,30,22,-64,121,-42
5650,253,34,17,-59,116,-42
5655,253,31,16,-54,112,-42
5660,254,33,21,-51,109,-39
5665,257,32,18,-48,108,-40
5670,254,34,20,-44,107,-36
5675,253,32,18,-42,106,-36
5680,252,39,17,-40,104,-34
5685,255,33,18,-35,101,-33
5690,256,33,16,-32,101,-30
5695,255,33,16,-30,100,-30
5700,254,36,18,-25,96,-27
5705,253,32,17,-21,93,-26
5710,255,36,15,-16,90,-24
5715,254,36,15,-12,86,-24
5720,254,36,19,-6,84,-21
5725,251,37,18,-2,80,-21
5730,250,36,13,2,76,-18
5735,252,41,19,7,74,-18
5740,254,37,19,9,72,-16
5745,254,35,16,12,71,-16
5750,253,36,16,13,69,-14
5755,251,37,19,15,66,-13
5760,251,37,17,15,64,-9
5765,252,38,17,12,62,-9
5770,251,37,18,11,58,-5
5775,250,37,18,7,55,-4
5780,252,38,16,3,52,-1
5785,254,38,14,-2,49,-1
5790,252,41,16,-7,44,3
5795,251,37,17,-11,40,2
5800,254,37,15,-17,35,6
5805,254,39,17,-22,32,6
5810,253,38,17,-29,27,9
5815,251,35,15,-32,25,8
5820,255,38,18,-35,23,12
5825,253,37,18,-39,22,11
5830,253,37,13,-40,23,12
5835,252,37,14,-42,22,10
5840,253,37,18,-42,25,12
5845,256,30,15,-41,26,9
5850,254,36,14,-43,29,11
5855,254,34,14,-41,30,9
5860,255,33,14,-40,32,9
5865,254,35,13,-39,35,7
5870,252,33,15,-40,34,8
5875,254,34,14,-38,35,5
5880,251,36,16,-37,37,7
5885,254,34,14,-39,37,5
5890,257,34,14,-37,36,9
5895,255,36,15,-35,34,6
5900,258,33,14,-33,32,7
5905,256,31,15,-31,30,7
5910,258,35,12,-31,28,9
5915,256,34,14,-31,26,8
5920,257,34,14,-32,26,9
5925,258,32,13,-32,25,8
5930,258,33,12,-32,24,8
5935,256,35,14,-34,24,7
5940,255,33,12,-35,23,9
5945,256,36,12,-39,23,6
5950,255,36,14,-40,24,7
5955,255,35,12,-43,25,6
5960,255,34,13,-45,26,9
5965,256,33,12,-46,25,6
5970,255,33,13,-48,29,8
5975,255,33,14,-49,32,5
5980,256,29,12,-48,37,8
5985,257,32,12,-49,41,5
5990,256,31,12,-47,44,6
5995,255,28,12,-44,48,3
6000,255,31,13,-39,51,5
6005,255,29,13,-35,50,2
6010,256,30,12,-32,50,1
6015,256,31,14,-29,50,-2
6020,254,33,13,-24,49,-1
6025,253,31,12,-20,48,-4
6030,255,32,13,-18,48,-4
6035,256,33,14,-16,47,-8
6040,255,33,10,-14,46,-7
6045,254,36,16,-11,45,-9
6050,254,32,12,-12,47,-9
6055,252,36,14,-11,48,-11
6060,256,34,15,-12,48,-10
6065,253,36,12,-13,52,-12
6070,253,35,14,-16,54,-11
6075,252,35,14,-18,54,-12
6080,251,38,14,-21,56,-10
6085,255,34,13,-25,57,-13
6090,254,34,12,-29,58,-10
6095,253,35,14,-30,57,-12
6100,258,33,13,-32,55,-10
6105,254,35,13,-33,54,-12
6110,257,34,15,-33,51,-11
6115,254,33,15,-33,47,-13
6120,257,31,14,-31,44,-10
6125,255,34,13,-28,40,-12
6130,253,33,15,-28,38,-10
6135,255,34,15,-26,35,-12
6140,256,34,16,-24,32,-9
6145,255,35,14,-23,30,-11
6150,254,36,12,-22,29,-9
6155,257,36,13,-22,27,-9
6160,255,35,15,-24,25,-6
6165,255,34,13,-24,26,-9
6170,259,39,17,-24,26,-6
6175,253,36,12,-25,25,-7
6180,255,31,12,-26,26,-4
6185,254,32,15,-26,25,-5
6190,254,34,12,-26,24,-1
6195,256,37,12,-28,25,-2
6200,254,33,13,-29,23,1
6205,253,37,12,-29,23,-1
6210,257,35,13,-30,23,2
6215,255,35,13,-29,22,0
6220,255,34,14,-28,23,3
6225,253,34,13,-29,22,1
6230,254,39,13,-28,22,3
6235,256,35,12,-26,20,2
6240,251,36,14,-24,20,4
6245,254,36,11,-24,21,3
6250,254,38,12,-25,23,4
6255,258,33,12,-25,23,2
6260,253,34,12,-25,26,5
6265,256,35,12,-25,27,5
6270,258,31,12,-25,28,7
6275,256,32,17,-23,31,4
6280,259,34,13,-23,32,7
6285,257,33,11,-19,34,4
6290,256,32,11,-18,35,7
6295,255,35,13,-15,37,3
6300,255,33,8,-15,37,5
6305,257,30,10,-13,39,3
6310,253,35,12,-12,42,4
6315,256,35,12,-12,44,1
6320,254,36,10,-15,47,2
6325,254,31,13,-16,50,1
6330,254,34,13,-17,51,2
6335,255,32,13,-19,51,-1
6340,256,31,9,-21,53,3
6345,257,33,11,-21,53,0
6350,254,35,11,-22,53,3
6355,258,31,12,-22,51,-2
6360,257,32,12,-22,50,2
6365,257,32,11,-21,50,-1
6370,257,31,6,-20,50,1
6375,257,33,11,-17,51,-3
6380,253,34,12,-16,52,-1
6385,253,34,11,-14,50,-4
6390,253,33,10,-12,51,-3
6395,253,34,13,-10,51,-7
6400,256,31,13,-8,51,-6
6405,256,33,12,-5,53,-8
6410,254,32,13,-4,54,-7
6415,256,32,12,-3,55,-11
6420,253,35,9,-2,56,-9
6425,254,35,13,-1,56,-12
6430,254,33,10,-2,56,-8
6435,255,35,13,-5,55,-11
6440,255,35,12,-6,52,-8
6445,257,35,12,-7,50,-8
6450,256,31,10,-11,48,-5
6455,257,33,12,-13,43,-7
6460,255,34,12,-16,42,-6
6465,257,34,9,-18,40,-9
6470,257,30,7,-19,40,-7
6475,253,34,10,-24,40,-11
6480,255,36,13,-27,41,-10
6485,254,34,9,-30,45,-14
6490,255,36,10,-33,47,-10
6495,254,35,12,-34,51,-13
6500,257,39,18,-36,54,-9
6505,254,33,12,-36,57,-11
6510,255,35,12,-35,59,-8
6515,257,33,12,-31,64,-9
6520,253,36,11,-27,67,-5
6525,256,33,9,-23,69,-8
6530,253,34,12,-18,73,-4
6535,254,35,12,-13,75,-6
6540,254,34,12,-8,76,-4
6545,255,37,6,-4,77,-7
6550,255,35,11,1,79,-5
6555,255,33,12,3,80,-8
6560,251,37,11,5,83,-5
6565,253,35,11,7,84,-6
6570,255,33,12,6,87,-3
6575,255,33,10,8,90,-5
6580,254,34,11,7,94,-2
6585,255,37,12,7,95,-5
6590,254,36,9,6,97,-3
6595,256,37,10,4,99,-6
6600,256,35,12,1,101,-3
6605,252,33,11,-2,100,-5
6610,263,25,23,-3,102,-3
6615,252,33,11,-8,102,-5
6620,253,36,9,-8,101,-3
6625,252,34,14,-10,99,-5
6630,253,34,12,-11,99,-3
6635,256,33,13,-12,98,-5
6640,255,33,12,-12,98,-4
6645,257,31,11,-13,98,-5
6650,256,36,12,-13,98,-4
6655,256,33,12,-12,97,-8
6660,254,32,12,-12,98,-3
6665,256,31,12,-12,98,-6
6670,255,34,12,-13,97,-5
6675,255,33,12,-13,95,-8
6680,254,33,12,-12,95,-6
6685,255,32,13,-12,95,-10
6690,257,32,14,-13,97,-8
6695,256,34,11,-11,101,-11
6700,255,32,14,-12,102,-8
6705,256,34,12,-10,103,-12
6710,254,34,14,-8,105,-10
6715,254,36,10,-7,107,-11
6720,255,36,14,-6,106,-10
6725,256,31,14,-4,107,-12
6730,256,35,12,-5,108,-10
6735,256,34,13,-4,106,-13
6740,253,35,12,-4,105,-10
6745,257,35,13,-3,103,-12
6750,256,34,13,-4,102,-10
6755,255,33,13,-4,102,-12
6760,254,34,16,-4,101,-11
6765,256,31,14,-4,100,-12
6770,256,32,14,-3,100,-10
6775,256,36,13,-3,99,-12
6780,258,34,12,-2,97,-10
6785,253,36,13,-1,97,-12
6790,255,34,13,-1,95,-11
6795,254,34,12,0,98,-14
6800,253,37,13,1,96,-11
6805,254,34,12,2,99,-13
6810,253,36,12,2,102,-11
6815,255,36,15,0,102,-12
6820,253,32,12,-2,103,-10
6825,255,38,14,-3,105,-13
6830,253,36,11,-5,107,-10
6835,258,34,12,-7,108,-12
6840,256,35,13,-7,109,-9
6845,256,35,13,-10,110,-12
6850,254,37,13,-10,108,-10
6855,256,33,14,-12,108,-11
6860,254,35,14,-14,108,-8
6865,254,35,17,-15,108,-9
6870,252,38,16,-15,108,-7
6875,255,35,15,-16,107,-8
6880,257,34,16,-14,107,-5
6885,258,38,13,-15,107,-8
6890,256,35,13,-14,105,-5
6895,257,36,12,-12,106,-6
6900,256,33,13,-10,106,-5
6905,256,35,15,-7,105,-5
6910,253,36,15,-6,106,-3
6915,256,32,16,-6,105,-5
6920,254,36,16,-6,104,-2
6925,255,33,15,-8,104,-5
6930,253,34,13,-6,102,-3
6935,261,42,20,-6,103,-6
6940,254,36,15,-7,101,-4
6945,255,38,15,-5,102,-5
6950,253,37,17,-5,103,-3
6955,254,34,16,-4,104,-6
6960,255,34,16,-2,104,-3
6965,252,35,16,-1,104,-7
6970,254,34,14,0,106,-5
6975,255,34,16,2,104,-7
6980,253,37,13,2,104,-6
6985,254,38,19,2,104,-8
6990,255,36,16,3,103,-6
6995,254,36,15,1,101,-7
7000,256,35,14,0,100,-5
7005,255,34,17,-1,98,-7
7010,255,36,16,-4,96,-5
7015,255,37,15,-4,96,-6
7020,254,34,15,-5,96,-5
7025,253,38,12,-5,96,-6
7030,256,37,16,-5,94,-5
7035,254,32,16,-7,95,-7
7040,255,33,16,-6,96,-5
7045,244,31,22,-6,95,-7
7050,254,35,15,-6,94,-6
7055,254,32,15,-5,95,-8
7060,253,35,18,-6,97,-6
7065,255,34,13,-7,96,-8
7070,255,34,15,-8,95,-6
7075,254,35,15,-6,95,-8
7080,252,36,15,-7,93,-6
7085,256,34,16,-8,94,-7
7090,254,34,17,-9,94,-5
7095,254,35,15,-8,94,-6
7100,255,35,14,-7,95,-3
7105,253,37,18,-7,97,-5
7110,255,35,14,-6,99,-3
7115,254,34,18,-6,99,-4
7120,255,34,14,-3,100,-1
7125,253,35,18,-1,100,-1
7130,254,37,16,-1,100,0
7135,253,34,19,2,101,-2
7140,255,33,17,1,102,-1
7145,257,35,16,0,102,-2
7150,254,36,16,0,103,-1
7155,256,33,14,-2,102,-3
7160,253,36,16,-4,102,-1
7165,255,36,13,-7,102,-2
7170,254,35,19,-8,102,1
7175,255,32,13,-10,102,-2
7180,254,36,14,-12,101,-1
7185,255,34,13,-13,100,-2
7190,257,30,15,-14,97,0
7195,258,32,17,-15,99,0
7200,255,36,17,-14,99,3
7205,254,34,16,-12,99,2
7210,256,33,18,-10,100,3
7215,257,33,18,-5,100,2
7220,256,35,18,-1,102,5
7225,256,33,18,3,101,3
7230,255,32,17,8,99,7
7235,255,35,18,13,98,5
7240,254,37,16,16,94,7
7245,257,34,16,20,91,5
7250,255,37,19,22,89,7
7255,257,33,19,26,83,6
7260,255,31,17,28,81,7
7265,253,37,15,29,77,6
7270,252,35,18,30,75,8
7275,251,34,20,28,73,7
7280,253,35,18,27,73,9
7285,256,35,16,26,71,7
7290,252,37,17,23,72,8
7295,254,37,16,20,73,5
7300,251,35,18,15,77,6
7305,251,36,16,12,81,5
7310,252,36,19,9,86,3
7315,253,33,18,7,91,3
7320,252,34,17,4,94,2
7325,252,37,16,1,99,2
7330,252,35,17,-2,102,2
7335,253,32,17,-6,105,-1
7340,254,35,19,-8,108,0
7345,252,36,16,-11,110,-1
7350,252,37,20,-13,113,2
7355,256,34,21,-14,115,0
7360,254,35,22,-14,116,4
7365,257,33,19,-10,115,3
7370,257,32,21,-8,114,2
7375,256,32,22,-5,113,2
7380,257,34,20,-1,108,4
7385,258,34,18,5,103,2
7390,261,33,21,8,98,3
7395,265,34,21,11,93,2
7400,265,31,20,17,86,2
7405,268,35,20,23,78,-2
7410,268,35,25,29,67,-2
7415,269,36,20,35,54,-5
7420,270,37,19,39,37,-6
7425,276,37,22,36,20,-6
7430,276,35,24,31,-1,-4
7435,278,37,28,23,-22,-2
7440,280,40,21,16,-46,3
7445,280,39,23,10,-69,9
7450,285,37,21,10,-94,19
7455,286,35,18,11,-115,28
7460,287,37,17,15,-134,42
7465,288,34,15,18,-148,53
7470,287,32,12,19,-159,73
7475,289,32,10,17,-165,89
7480,289,32,9,12,-162,106
7485,290,33,9,3,-152,122
7490,289,32,-1,-8,-133,141
7495,286,36,-3,-21,-110,156
7500,285,33,0,-34,-83,175
7505,281,34,2,-48,-57,191
7510,276,29,-2,-59,-30,208
7515,274,33,1,-66,-10,226
7520,273,30,-1,-66,6,243
7525,267,29,5,-64,20,260
7530,260,32,6,-54,32,272
7535,254,27,4,-47,40,281
7540,247,28,8,-41,45,290
7545,244,27,10,-36,48,294
7550,241,28,10,-28,54,296
7555,239,26,13,-19,63,290
7560,241,25,14,-7,77,286
7565,240,25,15,11,98,277
7570,241,28,16,30,128,265
7575,241,24,13,48,163,248
7580,241,23,15,66,202,227
7585,243,24,15,83,246,207
7590,241,21,13,105,277,189
7595,244,27,15,124,306,171
7600,248,24,15,145,328,156
7605,247,26,13,165,343,140
7610,251,20,14,183,356,125
7615,250,24,12,196,362,109
7620,250,24,12,203,364,97
7625,249,22,13,203,360,85
7630,254,26,12,196,357,78
7635,252,23,9,185,351,69
7640,254,22,6,169,348,65
7645,255,26,5,151,346,64
7650,255,25,5,133,352,64
7655,253,28,2,115,359,65
7660,253,25,5,98,369,67
7665,250,26,5,85,381,69
7670,252,24,6,73,393,70
7675,255,27,11,67,409,72
7680,253,26,14,61,426,76
7685,252,28,12,57,443,76
7690,252,28,16,55,461,80
7695,257,29,21,51,483,85
7700,254,26,17,46,500,88
7705,235,33,19,41,517,91
7710,250,35,16,30,537,94
7715,262,47,31,15,553,96
7720,255,35,40,-3,565,98
7725,258,38,38,-25,567,97
7730,260,36,37,-55,562,97
7735,260,39,34,-89,545,93
7740,255,46,29,-124,524,88
7745,258,47,35,-159,500,84
7750,252,53,28,-195,477,81
7755,262,48,26,-241,460,81
7760,257,48,20,-290,446,82
7765,255,45,17,-345,434,83
7770,257,41,19,-410,425,86
7775,251,43,21,-474,418,91
7780,259,40,31,-537,413,95
7785,248,25,19,-589,413,99
7790,250,24,27,-631,415,107
7795,252,19,38,-659,420,117
7800,250,13,48,-677,431,130
7805,241,9,38,-686,446,144
7810,248,7,45,-685,457,158
7815,243,-1,50,-675,467,173
7820,238,-12,54,-656,472,187
7825,238,4,61,-630,472,202
7830,234,-8,57,-600,470,213
7835,234,-8,61,-559,466,222
7840,237,-14,59,-514,461,232
7845,237,-14,55,-474,462,236
7850,246,-26,53,-440,467,239
7855,246,-23,52,-412,474,240
7860,245,-34,63,-387,481,235
7865,243,-15,80,-354,477,228
7870,235,-16,59,-325,462,220
7875,232,-25,73,-298,439,209
7880,260,-4,45,-273,415,195
7885,254,-20,75,-248,393,183
7890,253,-9,62,-225,376,172
7895,252,-5,65,-206,363,165
7900,257,-1,53,-190,359,157
7905,257,1,62,-174,360,149
7910,259,4,56,-158,372,144
7915,262,8,54,-144,392,141
7920,259,12,50,-136,414,141
7925,266,10,77,-140,434,146
7930,258,17,56,-154,451,150
7935,262,18,45,-176,465,157
7940,260,20,46,-204,476,165
7945,263,25,54,-235,486,174
7950,255,26,52,-267,498,188
7955,256,35,49,-301,510,200
7960,247,25,53,-337,520,212
7965,240,28,42,-367,533,224
7970,250,21,49,-391,544,231
7975,240,23,50,-407,554,233
7980,241,14,58,-411,564,230
7985,241,9,53,-409,572,226
7990,241,2,58,-402,586,217
7995,240,1,59,-387,602,209
8000,239,-4,67,-366,621,199
8005,248,13,56,-345,640,190
8010,242,-4,63,-321,660,182
8015,239,-4,70,-300,673,175
8020,249,3,52,-278,680,172
8025,242,-12,65,-256,680,170
8030,249,-18,71,-228,679,170
8035,243,-17,94,-202,681,171
8040,251,-11,87,-173,684,171
8045,248,1,53,-138,696,174
8050,261,-19,61,-99,709,172
8055,254,-8,65,-54,723,172
8060,254,-8,54,-11,737,168
8065,249,-4,55,29,747,161
8070,245,-4,55,58,755,152
8075,249,-4,61,78,759,144
8080,242,2,58,86,757,130
8085,242,11,51,80,755,119
8090,254,7,58,67,756,107
8095,248,5,53,45,764,96
8100,232,2,59,16,782,84
8105,240,-3,57,-17,808,77
8110,239,9,64,-52,837,66
8115,239,5,59,-84,866,59
8120,233,5,78,-109,888,56
8125,227,-1,71,-125,905,54
8130,232,-5,78,-130,915,53
8135,232,-4,83,-120,920,55
8140,230,-3,81,-92,918,56
8145,232,-4,85,-53,914,58
8150,236,-5,80,-7,914,55
8155,227,1,92,40,915,51
8160,235,4,81,81,923,42
8165,229,6,83,110,937,32
8170,225,8,84,126,951,20
8175,227,2,88,124,963,12
8180,230,-1,78,107,971,4
8185,223,-1,94,76,976,-3
8190,221,-1,99,36,982,-11
8195,223,-4,103,-14,988,-15
8200,221,-9,104,-52,994,-22
8205,217,-11,103,-76,1000,-21
8210,223,-17,112,-87,1006,-24
8215,223,-16,114,-82,1014,-21
8220,222,-19,116,-65,1025,-20
8225,218,-19,117,-37,1039,-17
8230,221,-26,119,-5,1055,-17
8235,217,-23,123,28,1065,-14
8240,217,-22,127,57,1065,-13
8245,216,-21,130,82,1052,-7
8250,209,-18,120,105,1020,-5
8255,213,-16,132,120,989,-1
8260,215,-18,132,130,957,0
8265,214,-17,133,139,932,2
8270,216,-15,140,141,915,5
8275,199,0,140,138,910,11
8280,224,-9,144,130,915,19
8285,237,-11,148,122,933,27
8290,237,-4,148,113,956,35
8295,236,-9,147,111,977,46
8300,239,-6,149,117,987,60
8305,239,-4,143,131,975,75
8310,240,-4,142,148,946,83
8315,235,-1,138,162,900,92
8320,237,-2,129,170,844,93
8325,234,0,118,164,785,96
8330,233,2,109,144,736,93
8335,230,3,113,115,702,96
8340,231,6,110,80,686,98
8345,228,8,113,46,688,105
8350,232,16,113,14,703,113
8355,228,16,117,-12,731,129
8360,225,21,117,-33,769,143
8365,222,21,119,-44,805,157
8370,220,19,123,-56,833,166
8375,215,21,118,-69,854,177
8380,212,19,126,-80,871,182
8385,209,16,124,-96,882,187
8390,207,13,129,-111,894,189
8395,204,11,131,-130,906,193
8400,199,5,135,-140,921,190
8405,196,2,138,-142,946,184
8410,190,-4,138,-133,979,172
8415,191,-5,141,-110,1013,164
8420,186,-11,143,-86,1052,150
8425,184,-15,145,-64,1095,143
8430,185,-23,146,-44,1145,135
8435,184,-28,147,-28,1203,133
8440,184,-36,153,-13,1263,125
8445,183,-41,162,8,1315,122
8450,186,-47,165,38,1349,113
8455,181,-49,166,77,1369,106
8460,192,-47,166,124,1373,97
8465,178,-50,177,175,1365,90
8470,175,-46,189,241,1349,81
8475,173,-44,190,294,1320,82
8480,171,-42,199,341,1282,86
8485,167,-34,203,373,1235,98
8490,165,-34,207,388,1175,109
8495,157,-31,210,390,1102,128
8500,148,-27,210,382,1014,146
8505,149,-28,210,366,921,174
8510,145,-22,207,344,831,201
8515,147,-32,204,320,756,232
8520,145,-34,196,306,682,268
8525,141,-39,194,304,629,299
8530,142,-43,195,320,578,323
8535,136,-44,193,355,530,348
8540,133,-50,192,403,484,367
8545,132,-52,188,465,444,387
8550,133,-52,189,533,417,400
8555,136,-50,185,604,411,413
8560,144,-52,187,667,436,415
8565,142,-43,189,725,489,417
8570,147,-41,190,773,562,416
8575,147,-39,190,814,664,410
8580,148,-33,196,851,743,398
8585,151,-28,201,874,806,393
8590,149,-24,202,887,855,381
8595,148,-19,207,887,903,363
8600,146,-18,208,878,951,337
8605,148,-13,219,862,983,327
8610,152,-12,219,842,1001,313
8615,157,-13,224,820,1011,300
8620,173,-10,224,795,1020,275
8625,177,-10,225,762,1043,243
8630,172,-11,232,728,1086,197
8635,152,-5,237,698,1121,173
8640,137,-3,244,688,1134,160
8645,135,-4,244,690,1121,157
8650,137,-4,249,691,1085,155
8655,138,-2,248,688,1054,156
8660,137,0,242,684,1051,151
8665,130,4,242,674,1090,157
8670,129,5,237,668,1156,162
8675,129,9,233,664,1237,174
8680,129,6,235,661,1329,184
8685,137,17,221,657,1459,194
8690,142,20,220,654,1594,198
8695,142,23,218,651,1750,205
8700,146,30,215,639,1923,205
8705,140,36,211,617,2102,212
8710,133,35,210,590,2274,220
8715,127,41,204,547,2434,237
8720,129,42,205,493,2570,252
8725,127,43,199,428,2681,270
8730,129,42,200,349,2765,280
8735,129,41,195,262,2827,288
8740,128,37,191,173,2876,286
8745,122,38,190,81,2900,287
8750,117,31,187,22,2914,288
8755,116,27,185,-19,2919,300
8760,108,24,183,-41,2917,308
8765,108,20,177,-42,2911,320
8770,99,19,175,-26,2904,326
8775,98,19,169,5,2895,338
8780,92,19,164,48,2887,346
8785,81,8,166,99,2884,352
8790,69,25,155,159,2881,354
8795,55,31,144,213,2876,361
8800,43,34,144,255,2861,358
8805,27,40,146,267,2835,357
8810,8,44,149,255,2790,353
8815,-2,48,156,225,2725,350
8820,-25,54,159,189,2636,339
8825,-47,54,169,137,2522,334
8830,-62,55,178,68,2387,326
8835,-76,53,189,-21,2229,322
8840,-93,50,200,-124,2057,308
8845,-117,50,206,-230,1880,293
8850,-128,41,218,-333,1669,273
8855,-137,38,230,-448,1492,271
8860,-144,34,237,-523,1317,264
8865,-149,30,247,-565,1143,255
8870,-155,26,252,-578,975,235
8875,-154,17,252,-585,816,220
8880,-155,15,256,-581,665,197
8885,-154,18,253,-564,512,175
8890,-145,20,244,-528,363,145
8895,-128,17,232,-489,216,107
8900,-130,21,229,-464,78,43
8905,-125,30,222,-429,-77,22
8910,-120,34,208,-365,-212,20
8915,-105,35,206,-324,-355,12
8920,-82,35,193,-305,-513,7
8925,-51,34,178,-313,-674,5
8930,-25,31,164,-344,-820,-6
8935,-6,25,152,-385,-933,-16
8940,8,26,149,-431,-1013,-38
8945,18,19,141,-474,-1064,-63
8950,20,20,139,-508,-1101,-96
8955,23,19,137,-534,-1136,-126
8960,27,23,136,-547,-1183,-163
8965,27,26,137,-553,-1225,-188
8970,30,34,141,-557,-1265,-215
8975,28,33,144,-566,-1295,-227
8980,31,40,164,-586,-1314,-231
8985,44,44,191,-622,-1325,-212
8990,45,38,225,-678,-1331,-177
8995,48,21,280,-769,-1320,-109
9000,58,2,342,-888,-1300,-32
9005,80,-30,410,-1024,-1287,59
9010,123,-56,458,-1156,-1299,149
9015,173,-77,479,-1266,-1348,249
9020,235,-106,502,-1343,-1362,284
9025,263,-129,512,-1351,-1272,268
9030,264,-132,516,-1293,-1055,226
9035,254,-125,496,-1172,-777,219
9040,239,-111,459,-1024,-531,220
9045,210,-90,400,-900,-348,212
9050,162,-71,341,-824,-212,181
9055,113,-63,292,-791,-109,151
9060,79,-53,263,-766,-44,135
9065,40,-53,227,-717,-37,146
9070,9,-52,204,-594,-109,160
9075,-9,-51,182,-440,-222,180
9080,-13,-51,154,-264,-362,198
9085,-14,-45,135,-94,-506,219
9090,-9,-41,124,46,-633,238
9095,-1,-34,102,148,-712,262
9100,7,-26,99,210,-719,278
9105,21,-21,96,231,-641,300
9110,40,-12,100,203,-487,312
9115,42,-13,132,128,-284,322
9120,48,-11,157,22,-71,323
9125,52,-16,194,-124,158,323
9130,59,-19,220,-240,321,314
9135,65,-31,253,-340,463,309
9140,69,-39,268,-410,584,297
9145,70,-52,286,-439,679,286
9150,72,-64,298,-426,735,265
9155,79,-69,303,-370,751,240
9160,84,-77,299,-288,733,200
9165,86,-73,294,-186,693,156
9170,87,-69,276,-75,652,102
9175,79,-61,269,43,623,49
9180,75,-55,260,180,607,9
9185,70,-43,244,279,594,-16
9190,64,-32,232,344,572,-41
9195,56,-19,220,367,534,-51
9200,53,-8,209,340,482,-55
9205,51,-2,202,271,421,-50
9210,43,5,195,165,357,-40
9215,35,8,193,34,296,-23
9220,36,1,196,-105,239,-8
9225,33,1,201,-238,196,7
9230,30,-6,208,-349,171,19
9235,30,-12,221,-432,163,28
9240,30,-23,236,-491,172,23
9245,27,-35,247,-503,188,16
9250,19,-42,253,-485,204,-1
9255,18,-51,257,-441,212,-16
9260,17,-52,260,-379,212,-37
9265,13,-53,260,-306,212,-52
9270,11,-53,258,-236,211,-70
9275,12,-56,252,-170,207,-83
9280,8,-57,248,-115,200,-98
9285,5,-52,249,-62,189,-108
9290,4,-50,243,0,173,-117
9295,7,-44,245,54,159,-117
9300,6,-40,236,98,152,-119
9305,10,-37,234,130,151,-111
9310,13,-32,229,142,149,-104
9315,12,-26,227,133,146,-91
9320,14,-27,229,113,137,-81
9325,14,-27,234,82,118,-63
9330,14,-24,234,48,94,-48
9335,14,-26,233,12,71,-25
9340,19,-29,236,-24,56,-4
9345,21,-30,236,-75,45,19
9350,23,-32,238,-114,45,34
9355,27,-33,240,-151,45,51
9360,25,-38,234,-184,43,61
9365,26,-41,233,-211,38,74
9370,30,-49,232,-226,30,80
9375,32,-51,238,-232,21,86
9380,35,-55,236,-224,7,84
9385,37,-57,240,-203,-6,86
9390,37,-56,232,-172,-12,81
9395,38,-57,238,-137,-10,76
9400,38,-54,238,-97,4,71
9405,39,-52,236,-71,14,71
9410,39,-45,231,-50,20,67
9415,35,-44,226,-38,20,67
9420,40,-46,227,-25,14,62
9425,36,-45,222,-20,9,62
9430,37,-39,226,-17,11,60
9435,34,-36,227,-19,16,59
9440,34,-32,233,-23,21,56
9445,37,-34,234,-34,21,59
9450,38,-32,236,-48,22,58
9455,40,-32,232,-69,21,60
9460,44,-33,234,-86,22,59
9465,43,-36,233,-101,28,62
9470,45,-36,233,-116,40,59
9475,47,-39,230,-129,50,60
9480,47,-40,234,-139,61,54
9485,50,-46,233,-142,68,50
9490,53,-51,230,-137,72,43
9495,53,-48,235,-125,72,37
9500,51,-55,234,-106,72,29
9505,53,-52,232,-86,73,23
9510,54,-56,230,-69,71,16
9515,56,-54,231,-61,74,12
9520,54,-53,232,-58,81,6
9525,52,-55,230,-58,89,-1
9530,48,-55,231,-64,97,-9
9535,46,-53,231,-74,99,-13
9540,43,-57,231,-89,94,-22
9545,45,-51,236,-102,88,-24
9550,38,-57,234,-111,82,-30
9555,35,-63,232,-110,82,-29
9560,32,-61,234,-101,85,-33
9565,30,-63,237,-83,99,-31
9570,30,-64,235,-61,111,-32
9575,26,-62,238,-35,120,-26
9580,23,-64,237,-12,125,-24
9585,27,-63,239,8,128,-18
9590,28,-62,240,24,130,-15
9595,28,-59,238,34,134,-10
9600,30,-57,237,42,139,-11
9605,30,-54,234,51,143,-10
9610,29,-52,233,63,143,-14
9615,31,-47,231,72,144,-17
9620,29,-50,232,71,146,-21
9625,28,-43,234,63,145,-24
9630,26,-42,231,48,141,-28
9635,28,-41,231,30,133,-26
9640,26,-40,231,8,120,-29
9645,33,-43,231,-11,106,-22
9650,29,-40,233,-30,97,-18
9655,43,-44,246,-49,89,-7
9660,36,-46,233,-67,87,-3
9665,42,-49,238,-76,92,8
9670,46,-53,240,-80,106,13
9675,46,-52,244,-76,128,18
9680,45,-50,243,-69,146,19
9685,45,-51,243,-63,163,21
9690,39,-49,245,-60,176,17
9695,42,-47,242,-56,188,21
9700,38,-46,244,-57,203,17
9705,38,-48,245,-63,211,19
9710,37,-51,237,-69,215,18
9715,33,-45,239,-80,209,21
9720,34,-47,237,-92,200,19
9725,31,-49,233,-100,189,19
9730,28,-52,231,-103,173,15
9735,28,-53,236,-103,153,10
9740,24,-52,235,-98,132,4
9745,20,-55,233,-91,110,2
9750,23,-54,238,-86,88,-3
9755,19,-53,236,-82,65,-4
9760,24,-50,236,-81,41,-8
9765,20,-49,230,-83,20,-4
9770,26,-47,236,-83,11,-7
9775,28,-45,239,-79,18,-5
9780,31,-43,234,-73,36,-8
9785,32,-43,233,-62,68,-8
9790,33,-39,238,-52,93,-11
9795,34,-38,235,-47,112,-11
9800,32,-36,237,-49,128,-17
9805,31,-35,238,-61,144,-19
9810,27,-35,241,-80,159,-24
9815,29,-38,240,-105,173,-24
9820,24,-43,242,-132,183,-26
9825,29,-47,238,-156,185,-21
9830,31,-48,240,-174,181,-19
9835,31,-47,241,-179,177,-14
9840,34,-53,241,-176,180,-6
9845,33,-49,241,-160,183,1
9850,36,-51,238,-145,187,2
9855,37,-55,238,-129,187,5
9860,34,-53,238,-115,180,6
9865,31,-50,235,-106,170,9
9870,27,-51,240,-99,159,6
9875,28,-48,245,-99,143,9
9880,18,-52,236,-106,122,10
9885,16,-50,236,-116,100,15
9890,13,-49,235,-130,78,17
9895,9,-51,233,-143,59,26
9900,10,-54,233,-158,51,29
9905,15,-56,237,-167,52,36
9910,15,-56,234,-167,54,40
9915,16,-58,238,-160,59,47
9920,24,-58,240,-145,66,47
9925,24,-55,235,-125,69,47
9930,29,-57,232,-102,73,43
9935,29,-59,232,-84,72,42
9940,27,-57,227,-68,67,35
9945,29,-55,226,-56,57,30
9950,28,-55,222,-46,42,21
9955,30,-57,223,-37,29,14
9960,32,-58,219,-34,20,8
9965,33,-62,220,-29,15,6
9970,32,-61,222,-26,11,-2
9975,31,-57,222,-21,9,-6
9980,36,-60,216,-11,10,-13
9985,30,-66,221,5,13,-14
9990,29,-65,220,25,18,-16
9995,30,-67,216,53,25,-12
10000,35,-67,218,78,40,-12
10005,36,-67,220,107,62,-12
10010,38,-70,221,134,82,-18
10015,39,-71,222,154,100,-24
10020,40,-74,225,174,117,-31
10025,40,-75,230,197,135,-39
10030,38,-73,228,220,153,-50
10035,38,-73,234,244,173,-58
10040,36,-74,234,268,190,-70
10045,35,-71,237,286,203,-78
10050,31,-69,237,304,213,-89
10055,31,-68,236,318,220,-98
10060,29,-64,240,330,222,-106
10065,23,-60,239,344,219,-107
10070,21,-54,238,355,214,-108
10075,20,-47,240,360,208,-103
10080,19,-40,244,358,201,-98
10085,14,-35,244,351,198,-85
10090,18,-30,249,336,197,-72
10095,16,-27,242,316,195,-57
10100,18,-25,244,291,194,-45
10105,19,-24,240,262,192,-29
10110,18,-21,241,229,190,-17
10115,20,-24,237,193,184,-3
10120,20,-25,238,146,182,5
10125,22,-28,235,110,177,9
10130,23,-31,234,76,174,12
10135,23,-33,233,49,170,12
10140,23,-39,233,31,166,10
10145,21,-41,232,22,159,9
10150,20,-40,231,28,151,5
10155,22,-46,233,40,144,1
10160,22,-49,231,62,137,-6
10165,22,-47,228,90,131,-11
10170,20,-49,231,121,128,-19
10175,18,-48,230,160,126,-25
10180,16,-47,232,186,126,-32
10185,17,-47,233,211,125,-37
10190,14,-48,231,229,126,-42
10195,9,-44,237,239,127,-46
10200,8,-39,239,243,126,-50
10205,9,-42,239,245,124,-51
10210,9,-39,240,241,123,-51
10215,6,-38,241,233,124,-46
10220,8,-39,241,217,122,-41
10225,9,-35,241,195,119,-35
10230,10,-37,243,167,113,-28
10235,11,-35,240,140,106,-22
10240,11,-36,238,111,97,-16
10245,11,-37,237,81,87,-8
10250,12,-35,236,54,77,-5
10255,16,-36,236,26,66,3
10260,15,-36,233,5,56,6
10265,20,-40,230,-13,47,12
10270,22,-41,232,-27,41,14
10275,24,-42,229,-39,36,15
10280,26,-44,228,-43,28,13
10285,27,-44,230,-42,22,12
10290,31,-47,233,-32,16,9
10295,33,-47,233,-18,13,5
10300,35,-48,236,1,11,2
10305,41,-46,239,23,11,-3
10310,43,-52,233,50,13,-7
10315,37,-45,244,79,15,-12
10320,37,-43,244,110,21,-15
10325,38,-42,243,138,27,-18
10330,36,-38,248,163,30,-18
10335,34,-34,246,180,34,-18
10340,32,-32,244,188,34,-18
10345,33,-30,248,182,36,-17
10350,32,-29,247,169,36,-16
10355,29,-30,249,149,34,-14
10360,29,-30,243,124,33,-11
10365,27,-30,244,96,33,-8
10370,27,-31,245,66,34,-5
10375,25,-32,243,41,38,-1
10380,23,-30,242,20,44,1
10385,25,-32,243,2,52,6
10390,23,-35,242,-11,64,10
10395,24,-34,240,-20,79,13
10400,23,-37,242,-23,93,16
10405,22,-36,239,-22,107,17
10410,22,-38,238,-20,118,18
10415,20,-39,238,-15,126,17
10420,16,-41,237,-12,129,16
10425,19,-37,234,-7,128,14
10430,18,-40,237,-3,123,13
10435,14,-37,237,3,117,10
10440,16,-39,237,7,108,7
10445,17,-38,239,14,98,4
10450,17,-36,240,23,86,2
10455,18,-35,242,32,77,-1
10460,19,-37,241,42,70,-1
10465,18,-34,241,53,65,0
10470,19,-34,239,63,64,1
10475,18,-33,240,68,63,1
10480,21,-34,242,74,66,4
10485,20,-34,242,75,67,8
10490,17,-30,240,72,70,9
10495,16,-28,238,65,73,13
10500,20,-31,238,57,77,14
10505,15,-30,240,48,79,16
10510,18,-28,239,39,81,19
10515,18,-30,236,28,81,20
10520,18,-29,240,21,80,24
10525,23,-37,243,16,79,26
10530,18,-32,241,13,80,27
10535,20,-33,239,13,79,28
10540,22,-34,237,14,77,30
10545,20,-34,237,15,79,29
10550,23,-34,237,18,80,30
10555,22,-37,241,21,82,31
10560,21,-34,238,28,84,31
10565,19,-34,239,37,89,27
10570,23,-35,235,44,92,27
10575,23,-35,237,53,96,24
10580,21,-34,239,63,98,23
10585,22,-33,240,71,99,21
10590,21,-33,239,79,102,19
10595,22,-31,240,85,102,16
10600,18,-31,240,90,102,14
10605,20,-32,244,92,101,12
10610,21,-32,243,94,99,9
10615,20,-30,241,93,95,5
10620,18,-26,238,88,93,4
10625,23,-29,241,79,89,0
10630,18,-27,238,71,86,2
10635,23,-27,240,59,82,1
10640,21,-25,237,47,81,3
10645,23,-27,238,38,83,1
10650,17,-26,241,28,85,4
10655,25,-27,238,19,88,3
10660,23,-28,243,11,94,6
10665,25,-31,242,4,99,6
10670,22,-30,241,-1,107,6
10675,25,-28,239,-7,114,5
10680,23,-31,246,-11,122,5
10685,21,-33,245,-13,127,3
10690,19,-32,246,-13,128,3
10695,20,-30,241,-11,129,1
10700,19,-31,243,-11,123,0
10705,19,-32,242,-8,117,0
10710,23,-31,243,-6,110,-1
10715,20,-33,236,-3,100,-5
10720,21,-34,236,0,91,-5
10725,20,-34,234,3,83,-7
10730,21,-33,238,6,78,-6
10735,22,-35,236,8,75,-8
10740,22,-32,236,12,72,-6
10745,23,-31,248,16,73,-7
10750,17,-33,236,24,75,-4
10755,18,-34,238,30,81,-4
10760,19,-32,236,40,87,-1
10765,18,-31,237,47,93,-1
10770,18,-32,239,56,100,3
10775,18,-31,240,64,106,3
10780,17,-30,239,70,109,3
10785,15,-29,241,75,112,4
10790,19,-28,245,75,114,6
10795,18,-30,241,74,114,3
10800,18,-27,245,72,114,4
10805,20,-25,246,67,114,3
10810,18,-23,239,61,112,2
10815,20,-28,242,53,111,-1
10820,21,-26,243,45,107,-1
10825,15,-25,243,36,105,-4
10830,18,-25,242,27,100,-3
10835,20,-26,244,17,96,-5
10840,16,-25,241,8,91,-2
10845,15,-27,240,-1,85,-3
10850,17,-27,238,-8,79,1
10855,17,-27,242,-11,73,1
10860,14,-24,244,-12,70,5
10865,15,-28,242,-9,66,6
10870,14,-27,241,-7,64,8
10875,15,-28,241,-1,63,8
10880,18,-30,244,5,63,12
10885,18,-29,242,11,66,11
10890,18,-28,240,18,69,13
10895,17,-26,244,25,72,11
10900,16,-27,244,34,76,11
10905,17,-27,240,38,78,8
10910,16,-24,244,43,79,8
10915,17,-25,242,43,82,6
10920,18,-29,238,43,82,6
10925,18,-27,240,41,82,3
10930,15,-25,238,39,82,3
10935,17,-24,239,37,83,1
10940,18,-29,240,31,81,0
10945,18,-28,244,26,79,-3
10950,16,-27,239,22,78,-4
10955,15,-25,242,17,77,-7
10960,13,-27,240,15,76,-5
10965,18,-27,240,16,76,-8
10970,19,-26,246,14,76,-6
10975,15,-28,237,14,77,-9
10980,19,-28,241,15,76,-8
10985,16,-25,241,14,75,-9
10990,15,-27,242,14,74,-7
10995,18,-24,239,14,72,-9
11000,16,-27,240,14,72,-6
11005,16,-24,242,13,70,-5
11010,14,-28,242,11,69,-2
11015,19,-28,239,8,68,-4
11020,18,-27,241,5,69,-2
11025,18,-23,240,3,70,-3
11030,19,-27,239,1,72,0
11035,18,-27,240,2,73,-4
11040,17,-26,242,2,73,-1
11045,18,-25,240,3,73,-2
11050,16,-24,240,6,73,-2
11055,18,-28,244,8,74,-5
11060,16,-26,240,8,72,-3
11065,15,-23,241,9,70,-5
11070,16,-24,246,9,67,-4
11075,12,-21,243,6,65,-6
11080,14,-27,243,3,63,-3
11085,16,-28,240,2,60,-5
11090,17,-25,239,-1,59,-2
11095,15,-26,238,-5,58,-4
11100,17,-27,239,-7,58,0
11105,18,-29,243,-11,59,-3
11110,15,-25,239,-12,60,-2
11115,19,-26,242,-13,63,-3
11120,16,-26,237,-11,66,-1
11125,17,-27,244,-9,69,-4
11130,18,-29,242,-6,72,-1
11135,16,-24,242,-4,73,-4
11140,17,-29,241,-2,75,-3
11145,16,-26,240,-1,77,-6
11150,16,-25,243,-1,79,-5
11155,17,-26,240,0,81,-8
11160,17,-26,243,-3,79,-8
11165,17,-23,241,-3,79,-9
11170,15,-25,241,-5,77,-6
11175,17,-23,239,-6,75,-9
11180,16,-24,238,-9,73,-7
11185,18,-24,243,-10,73,-8
11190,15,-25,239,-11,71,-7
11195,16,-23,241,-12,70,-8
11200,16,-24,241,-14,70,-4
11205,15,-22,240,-15,69,-5
11210,16,-23,242,-16,69,-4
11215,18,-23,241,-19,69,-6
11220,14,-23,243,-20,68,-4
11225,18,-24,242,-25,67,-7
11230,18,-25,244,-27,64,-8
11235,20,-25,242,-32,63,-10
11240,18,-26,246,-34,59,-8
11245,16,-25,242,-38,57,-11
11250,15,-24,241,-39,54,-10
11255,18,-28,240,-40,51,-13
11260,16,-26,240,-42,49,-11
11265,18,-26,240,-43,46,-12
11270,15,-25,241,-41,43,-9
11275,16,-25,240,-41,43,-12
11280,16,-23,242,-40,43,-8
11285,17,-27,242,-39,43,-9
11290,16,-30,243,-39,42,-5
11295,16,-25,238,-40,45,-6
11300,18,-27,238,-38,48,-3
11305,15,-26,240,-36,49,-4
11310,16,-28,242,-36,50,-2
11315,16,-27,243,-34,52,-4
11320,18,-25,241,-32,54,0
11325,15,-26,240,-31,56,-3
11330,13,-28,241,-27,55,0
11335,14,-26,243,-25,58,-2
11340,18,-28,241,-24,58,1
11345,14,-27,243,-22,58,-2
11350,16,-26,242,-23,57,0
11355,17,-27,240,-23,57,-1
11360,14,-24,241,-23,57,1
11365,20,-28,242,-23,57,-2
11370,16,-27,239,-24,57,0
11375,22,-26,244,-24,57,-3
11380,17,-24,240,-23,56,0
11385,17,-24,240,-22,57,-4
11390,15,-29,241,-20,56,-1
11395,16,-25,240,-17,56,-5
11400,14,-27,232,-15,56,-2
11405,17,-25,238,-12,58,-5
11410,15,-27,238,-13,59,-3
11415,16,-28,239,-12,60,-6
11420,17,-29,242,-12,60,-2
11425,16,-27,239,-13,59,-4
11430,16,-26,241,-14,58,1
11435,17,-26,239,-14,57,-1
11440,18,-28,240,-14,58,2
11445,15,-27,239,-13,55,0
11450,17,-26,234,-12,55,4
11455,17,-28,238,-10,54,2
11460,18,-28,242,-10,54,6
11465,20,-30,240,-10,55,4
11470,18,-29,237,-8,55,6
11475,18,-28,241,-4,55,5
11480,16,-29,244,0,58,5
11485,14,-26,240,5,60,2
11490,18,-26,240,10,62,4
11495,20,-23,242,14,64,1
11500,21,-27,239,18,67,1
11505,12,-24,249,20,72,-5
11510,18,-22,244,21,73,-4
11515,21,-23,242,21,74,-8
11520,19,-23,245,13,76,-8
11525,18,-20,240,4,78,-11
11530,19,-21,245,-10,79,-11
11535,18,-21,243,-27,78,-14
11540,22,-24,243,-47,78,-12
11545,19,-23,245,-68,76,-14
11550,19,-23,241,-89,74,-12
11555,17,-24,238,-103,69,-14
11560,13,-26,240,-116,62,-11
11565,16,-31,244,-120,54,-12
11570,15,-31,241,-119,45,-9
11575,17,-32,240,-116,37,-10
11580,18,-31,243,-106,30,-8
11585,16,-31,244,-96,24,-10
11590,17,-30,239,-80,19,-7
11595,17,-30,244,-63,17,-8
11600,19,-32,243,-45,17,-6
11605,20,-30,241,-26,19,-7
11610,20,-28,241,-9,23,-5
11615,16,-26,241,7,31,-9
11620,17,-27,240,13,36,-6
11625,15,-24,237,17,41,-9
11630,18,-26,238,14,46,-8
11635,19,-24,237,9,50,-11
11640,19,-23,238,-2,53,-8
11645,15,-24,235,-14,56,-10
11650,18,-24,240,-28,58,-7
11655,18,-24,238,-42,58,-10
11660,16,-25,238,-53,61,-7
11665,14,-26,242,-62,61,-8
11670,20,-27,240,-69,63,-4
11675,19,-29,243,-71,62,-7
11680,16,-28,243,-67,61,-2
11685,18,-31,246,-63,60,-4
11690,17,-29,239,-54,58,-1
11695,17,-29,244,-46,56,-1
11700,21,-27,244,-37,52,1
11705,19,-30,244,-28,48,-1
11710,16,-26,246,-23,46,2
11715,17,-29,245,-19,43,-2
11720,18,-26,241,-16,41,2
11725,14,-31,240,-17,40,-2
11730,18,-26,240,-21,37,0
11735,19,-28,237,-24,36,-3
11740,19,-27,239,-30,38,-2
11745,18,-26,239,-35,38,-5
11750,16,-26,240,-39,41,-4
11755,19,-27,240,-45,41,-5
11760,20,-27,238,-48,43,-4
11765,20,-27,239,-51,46,-8
11770,18,-31,242,-51,49,-6
11775,20,-29,241,-50,52,-8
11780,20,-30,241,-47,53,-7
11785,17,-27,237,-43,55,-9
11790,18,-29,238,-38,56,-7
11795,22,-29,242,-34,55,-9
11800,19,-32,239,-29,56,-6
11805,19,-33,241,-24,56,-8
11810,18,-32,239,-21,56,-5
11815,19,-27,240,-19,56,-8
11820,18,-29,237,-18,55,-7
11825,17,-26,239,-20,55,-9
11830,18,-29,237,-22,55,-7
11835,19,-26,250,-25,52,-10
11840,18,-28,240,-30,51,-6
11845,20,-29,239,-34,51,-9
11850,21,-28,240,-39,49,-7
11855,20,-27,241,-41,49,-9
11860,16,-26,238,-45,46,-6
11865,18,-28,241,-48,47,-8
11870,18,-29,240,-52,46,-4
11875,19,-26,246,-55,47,-7
11880,18,-27,242,-56,46,-5
11885,17,-29,244,-57,46,-7
11890,19,-28,240,-56,47,-5
11895,18,-30,235,-55,46,-6
11900,18,-29,241,-58,46,-3
11905,14,-30,239,-57,47,-6
11910,19,-30,243,-54,46,-2
11915,18,-31,244,-54,48,-4
11920,17,-29,240,-52,49,-2
11925,17,-29,242,-53,48,-5
11930,16,-31,237,-55,48,-3
11935,17,-28,241,-53,49,-5
11940,20,-38,242,-53,47,-4
11945,15,-29,248,-55,45,-9
11950,19,-30,239,-54,44,-7
11955,17,-28,240,-52,42,-9
11960,19,-31,241,-51,42,-7
11965,19,-27,238,-51,42,-9
11970,20,-31,239,-50,42,-7
11975,19,-32,240,-50,44,-9
11980,20,-30,236,-50,47,-6
11985,20,-34,239,-49,49,-8
11990,17,-32,240,-47,50,-5
11995,19,-28,240,-48,53,-7
