timestamp,acc_x,acc_y,acc_z,gyro_x,gyro_y,gyro_z
0,24,-39,244,-85,69,-7
5,24,-36,243,-91,67,-8
10,24,-39,239,-94,64,-8
15,23,-40,243,-98,61,-8
20,26,-38,242,-99,59,-10
25,24,-40,244,-99,54,-10
30,23,-40,238,-96,50,-9
35,21,-40,238,-92,44,-10
40,23,-43,240,-88,43,-10
45,22,-41,241,-82,40,-10
50,22,-42,240,-74,40,-8
55,25,-42,242,-66,41,-8
60,25,-43,241,-58,41,-9
65,23,-40,240,-49,44,-9
70,22,-39,236,-43,46,-8
75,29,-41,249,-38,47,-10
80,23,-39,239,-35,51,-9
85,24,-41,241,-35,53,-9
90,24,-40,240,-37,56,-8
95,21,-38,239,-39,61,-8
100,27,-41,238,-44,61,-7
105,27,-43,240,-47,64,-7
110,21,-40,237,-52,65,-7
115,26,-38,239,-57,67,-8
120,26,-41,238,-62,69,-7
125,22,-39,239,-67,70,-7
130,24,-40,240,-72,70,-6
135,22,-37,241,-76,71,-6
140,25,-38,238,-81,70,-5
145,23,-40,241,-87,69,-6
150,26,-40,238,-92,69,-5
155,27,-42,239,-98,68,-4
160,24,-42,242,-101,67,-5
165,22,-40,241,-105,66,-5
170,22,-41,241,-109,64,-5
175,25,-42,244,-112,62,-5
180,25,-43,237,-114,61,-5
185,30,-42,254,-116,61,-5
190,23,-40,237,-116,59,-5
195,25,-47,242,-115,59,-5
200,24,-44,238,-112,59,-5
205,25,-44,237,-110,58,-7
210,24,-43,237,-107,59,-7
215,22,-43,238,-103,58,-7
220,22,-43,238,-97,58,-7
225,25,-46,238,-93,59,-7
230,23,-44,236,-89,60,-7
235,22,-42,239,-86,62,-8
240,25,-44,238,-84,62,-9
245,23,-43,239,-84,65,-8
250,23,-45,241,-83,63,-9
255,25,-46,239,-86,64,-9
260,22,-41,235,-87,63,-8
265,25,-45,239,-89,62,-9
270,25,-44,237,-90,64,-7
275,26,-43,242,-91,63,-8
280,26,-42,242,-94,62,-8
285,24,-44,237,-95,62,-7
290,23,-43,237,-96,62,-8
295,22,-43,240,-97,60,-7
300,23,-48,239,-96,62,-6
305,21,-43,240,-96,60,-6
310,23,-45,240,-94,60,-7
315,22,-51,240,-93,59,-7
320,22,-46,239,-90,58,-8
325,22,-45,238,-89,59,-7
330,22,-47,240,-86,59,-6
335,27,-49,239,-86,59,-7
340,23,-47,238,-84,60,-8
345,24,-45,238,-84,60,-7
350,24,-51,239,-82,60,-6
355,23,-47,237,-81,60,-5
360,23,-46,238,-81,61,-6
365,22,-45,238,-79,61,-6
370,24,-49,238,-80,61,-6
375,24,-49,239,-78,62,-7
380,26,-47,236,-77,62,-7
385,24,-45,237,-79,60,-7
390,24,-49,237,-79,61,-7
395,25,-46,238,-81,61,-6
400,22,-44,238,-81,60,-7
405,24,-48,239,-84,60,-6
410,24,-47,238,-84,57,-6
415,23,-49,239,-84,58,-6
420,26,-50,239,-86,58,-6
425,27,-48,238,-86,57,-6
430,25,-50,239,-86,57,-7
435,24,-48,239,-88,57,-8
440,28,-49,235,-88,57,-7
445,27,-50,240,-89,57,-7
450,26,-48,234,-89,59,-6
455,26,-52,238,-88,59,-6
460,24,-49,237,-87,59,-7
465,26,-50,237,-87,58,-8
470,26,-50,242,-86,57,-8
475,26,-50,236,-85,58,-7
480,27,-48,239,-84,59,-9
485,24,-53,238,-82,59,-8
490,24,-52,235,-81,59,-7
495,25,-52,237,-80,58,-7
500,25,-51,240,-79,58,-8
505,24,-49,239,-78,57,-7
510,23,-52,239,-77,58,-6
515,21,-53,237,-76,58,-8
520,27,-50,239,-76,60,-7
525,24,-51,240,-76,61,-8
530,26,-51,242,-74,61,-10
535,24,-49,238,-74,61,-7
540,21,-49,238,-74,62,-6
545,24,-47,237,-74,62,-6
550,26,-48,238,-72,63,-7
555,22,-50,237,-71,61,-7
560,24,-52,236,-71,61,-7
565,25,-51,236,-69,61,-9
570,25,-52,236,-67,61,-7
575,24,-53,239,-65,59,-6
580,26,-49,237,-62,60,-6
585,22,-52,239,-63,59,-6
590,24,-54,237,-63,59,-7
595,25,-51,236,-61,59,-6
600,26,-54,239,-62,59,-5
605,24,-49,239,-62,59,-7
610,23,-51,238,-62,59,-6
615,23,-52,233,-63,58,-6
620,21,-49,235,-64,59,-6
625,25,-52,237,-64,59,-5
630,24,-53,237,-64,59,-6
635,24,-53,236,-63,61,-5
640,23,-52,238,-63,61,-5
645,24,-53,236,-63,62,-7
650,26,-55,237,-62,63,-7
655,27,-53,236,-60,64,-6
660,24,-52,238,-58,64,-5
665,25,-54,238,-56,63,-6
670,23,-51,236,-55,62,-5
675,25,-54,235,-55,60,-4
680,24,-52,237,-55,60,-5
685,25,-51,236,-55,58,-4
690,25,-54,237,-53,58,-6
695,26,-54,236,-53,57,-5
700,27,-53,236,-53,56,-4
705,26,-54,235,-54,57,-5
710,22,-49,240,-55,59,-6
715,25,-51,238,-57,60,-4
720,26,-53,236,-58,60,-6
725,26,-54,239,-59,61,-5
730,28,-49,230,-61,62,-5
735,31,-51,220,-63,62,-6
740,33,-51,236,-67,64,-6
745,33,-50,228,-71,65,-5
750,25,-42,236,-72,67,-6
755,30,-52,229,-75,67,-5
760,27,-50,235,-78,66,-4
765,32,-46,240,-82,66,-5
770,25,-54,240,-84,64,-5
775,26,-56,242,-86,63,-6
780,19,-55,241,-87,60,-6
785,25,-58,241,-83,54,-7
790,24,-56,237,-76,51,-8
795,26,-57,239,-66,44,-8
800,23,-59,237,-55,39,-8
805,32,-82,242,-42,36,-9
810,29,-49,240,-30,32,-9
815,26,-49,233,-18,30,-8
820,21,-66,218,-8,32,-8
825,16,-56,228,1,36,-7
830,19,-62,235,9,39,-7
835,23,-67,234,14,44,-6
840,29,-43,234,17,49,-5
845,26,-60,241,18,54,-5
850,25,-60,252,16,59,-5
855,37,-56,228,13,63,-7
860,25,-54,235,9,67,-6
865,28,-53,239,4,70,-5
870,27,-51,237,-3,73,-4
875,26,-52,236,-9,73,-5
880,18,-45,229,-15,73,-4
885,25,-51,232,-20,73,-2
890,16,-55,241,-26,73,-2
895,17,-51,247,-32,73,-2
900,45,-53,243,-36,72,-3
905,29,-39,226,-41,70,-2
910,45,-32,232,-43,70,-3
915,21,-39,237,-44,69,-3
920,27,-47,236,-44,69,-2
925,16,-76,246,-44,68,-1
930,31,-55,226,-41,68,-1
935,20,-57,234,-39,68,-2
940,28,-56,236,-34,67,-2
945,24,-56,235,-30,66,-3
950,28,-55,235,-27,65,-4
955,26,-54,235,-23,62,-2
960,28,-58,226,-19,63,-1
965,24,-44,238,-15,64,-4
970,24,-61,235,-9,66,-3
975,25,-54,236,-5,65,-3
980,18,-54,236,-1,66,-4
985,23,-57,238,4,67,-3
990,30,-56,237,7,71,-3
995,26,-55,233,9,71,-3
1000,26,-54,244,8,74,0
1005,29,-57,233,8,76,-2
1010,27,-53,241,7,77,-1
1015,25,-55,236,6,79,-2
1020,25,-55,236,4,80,-3
1025,27,-54,239,2,81,-3
1030,25,-53,236,-1,79,-2
1035,20,-56,224,-1,81,-1
1040,27,-52,251,-1,79,0
1045,27,-58,239,0,79,-3
1050,20,-57,226,-1,78,-2
1055,27,-59,235,0,76,-2
1060,20,-65,235,2,76,0
1065,22,-58,246,3,76,-2
1070,26,-43,238,5,75,-2
1075,29,-52,226,6,74,-1
1080,33,-42,237,8,73,-2
1085,23,-55,243,10,73,0
1090,26,-54,238,12,74,-1
1095,26,-55,237,15,74,0
1100,25,-53,238,19,74,-2
1105,27,-55,237,22,75,-1
1110,20,-54,233,23,74,-2
1115,24,-53,236,25,76,-1
1120,23,-54,239,25,74,0
1125,31,-63,240,24,74,1
1130,25,-59,243,24,74,0
1135,25,-51,236,24,74,1
1140,29,-52,232,23,75,1
1145,22,-54,231,20,74,1
1150,25,-56,238,19,75,-1
1155,33,-51,238,18,74,0
1160,25,-66,247,16,74,1
1165,23,-52,237,16,74,1
1170,28,-53,237,17,76,0
1175,27,-53,236,15,75,-1
1180,25,-52,237,15,75,1
1185,29,-62,230,16,75,1
1190,24,-49,236,16,76,0
1195,21,-53,236,16,75,0
1200,37,-46,237,16,76,1
1205,23,-56,244,18,76,0
1210,26,-51,236,17,75,-2
1215,24,-55,236,18,76,-2
1220,27,-54,238,19,76,0
1225,27,-54,238,18,78,-2
1230,27,-61,235,17,77,0
1235,27,-54,238,16,76,0
1240,24,-53,236,17,76,0
1245,23,-51,237,18,78,1
1250,24,-53,239,21,76,1
1255,28,-58,252,20,76,0
1260,27,-54,239,20,76,1
1265,27,-54,237,21,75,0
1270,26,-55,237,23,75,0
1275,26,-50,239,24,76,0
1280,23,-54,235,26,76,0
1285,25,-54,236,28,76,0
1290,26,-55,238,29,77,1
1295,24,-52,238,31,77,0
1300,22,-51,237,33,76,-1
1305,26,-50,237,34,77,0
1310,24,-49,235,35,80,0
1315,26,-56,236,36,79,0
1320,21,-52,237,34,78,-1
1325,28,-53,237,37,80,1
1330,24,-50,239,35,81,1
1335,25,-52,237,35,82,1
1340,23,-51,236,35,80,1
1345,27,-53,236,36,79,1
1350,28,-55,235,35,78,2
1355,23,-50,235,37,79,2
1360,26,-51,236,37,80,1
1365,25,-52,236,37,78,1
1370,25,-52,236,36,79,1
1375,27,-50,239,37,79,2
1380,27,-52,236,36,78,2
1385,24,-50,238,33,78,1
1390,26,-49,240,33,79,1
1395,27,-52,238,31,79,2
1400,27,-50,238,31,78,2
1405,26,-54,238,31,79,2
1410,22,-51,239,28,80,1
1415,25,-52,236,31,80,1
1420,27,-48,237,31,81,3
1425,25,-52,236,32,80,1
1430,21,-51,237,34,79,1
1435,25,-52,238,34,79,2
1440,26,-54,238,38,78,2
1445,26,-51,240,40,79,3
1450,24,-47,236,41,78,1
1455,23,-54,235,41,77,1
1460,26,-50,237,41,78,2
1465,23,-48,238,43,77,1
1470,22,-49,239,43,76,1
1475,29,-51,236,42,76,-1
1480,23,-46,236,42,77,-1
1485,22,-50,237,41,78,-1
1490,23,-47,241,41,78,0
1495,24,-48,243,40,79,1
1500,27,-50,236,38,81,0
1505,26,-48,241,35,80,2
1510,24,-43,236,31,82,2
1515,25,-47,238,31,82,0
1520,24,-47,234,29,83,2
1525,23,-49,238,27,83,3
1530,23,-48,242,25,83,3
1535,22,-47,236,23,84,3
1540,24,-49,242,19,82,2
1545,24,-50,244,15,80,0
1550,25,-53,241,15,76,0
1555,24,-51,240,18,71,0
1560,24,-51,237,22,67,0
1565,22,-49,239,27,64,-1
1570,23,-51,237,32,58,-1
1575,22,-51,232,39,55,-2
1580,25,-52,237,47,53,0
1585,23,-51,235,56,53,-1
1590,24,-52,237,66,54,-1
1595,24,-50,233,75,55,1
1600,25,-46,236,86,57,-1
1605,25,-48,237,93,61,-1
1610,25,-48,235,98,61,-1
1615,23,-51,238,104,66,-1
1620,24,-49,237,107,69,-1
1625,24,-46,238,106,73,0
1630,25,-44,238,104,76,2
1635,25,-44,237,98,79,2
1640,24,-42,236,93,81,2
1645,25,-44,239,86,84,4
1650,24,-45,237,80,84,3
1655,26,-46,239,74,86,3
1660,23,-45,239,69,85,4
1665,25,-45,237,64,84,4
1670,24,-42,239,59,85,5
1675,21,-43,240,55,83,5
1680,24,-43,239,51,82,6
1685,25,-45,240,47,80,4
1690,25,-46,245,44,80,3
1695,24,-43,240,39,78,4
1700,24,-43,240,38,77,4
1705,24,-44,242,36,76,4
1710,27,-45,248,36,76,3
1715,24,-43,239,33,74,5
1720,24,-44,238,34,74,3
1725,26,-47,237,33,74,4
1730,26,-45,241,34,74,2
1735,26,-46,238,35,76,2
1740,26,-48,241,36,77,2
1745,24,-48,239,38,76,2
1750,23,-45,238,41,76,1
1755,25,-47,238,43,78,2
1760,27,-50,238,45,80,2
1765,25,-45,238,48,79,2
1770,23,-45,238,51,81,1
1775,24,-45,242,51,82,3
1780,24,-49,241,51,82,1
1785,22,-43,237,51,82,2
1790,24,-38,237,50,82,2
1795,26,-44,239,46,82,1
1800,24,-42,237,44,80,2
1805,24,-43,241,40,80,1
1810,22,-43,238,39,80,0
1815,22,-44,236,36,79,1
1820,21,-38,233,35,79,0
1825,22,-42,237,34,78,1
1830,24,-42,239,33,75,0
1835,22,-42,241,32,76,1
1840,26,-46,241,32,76,0
1845,22,-40,235,35,74,1
1850,25,-45,239,35,74,1
1855,23,-42,243,37,74,1
1860,21,-43,238,38,73,0
1865,24,-42,238,39,73,0
1870,24,-43,235,39,73,0
1875,25,-44,237,39,74,0
1880,21,-41,243,39,74,1
1885,24,-40,237,39,74,1
1890,27,-45,242,39,74,1
1895,24,-43,241,38,75,-1
1900,24,-43,239,39,76,1
1905,23,-42,239,39,76,1
1910,24,-41,237,38,75,1
1915,24,-41,241,38,74,2
1920,22,-43,239,38,75,2
1925,24,-38,237,37,74,1
1930,25,-43,241,35,75,2
1935,23,-41,237,34,75,1
1940,23,-40,242,34,75,1
1945,25,-41,237,31,75,1
1950,24,-41,242,30,75,1
1955,22,-42,241,28,74,0
1960,22,-41,238,27,72,1
1965,23,-40,239,25,71,1
1970,25,-42,241,24,71,2
1975,22,-39,239,23,71,1
1980,25,-41,239,22,72,2
1985,25,-42,239,22,70,1
1990,25,-41,238,20,72,1
1995,24,-39,239,20,72,0
2000,23,-41,241,20,72,1
2005,22,-38,241,19,72,0
2010,26,-39,238,20,72,1
2015,25,-43,238,18,72,0
2020,27,-40,236,19,72,-2
2025,26,-42,241,18,73,-1
2030,22,-39,240,19,74,-1
2035,21,-41,238,18,73,-1
2040,21,-42,236,18,73,-2
2045,23,-38,240,19,73,0
2050,26,-41,239,19,73,-1
2055,23,-39,237,19,72,-2
2060,24,-41,239,21,72,-1
2065,26,-44,239,20,72,-1
2070,23,-38,237,19,72,-1
2075,22,-40,240,21,72,-1
2080,23,-41,237,20,71,-1
2085,24,-38,241,19,71,-1
2090,22,-40,239,19,71,-2
2095,26,-41,239,17,71,-2
2100,25,-40,238,17,72,-1
2105,20,-39,240,17,72,0
2110,22,-40,241,15,72,-1
2115,25,-38,243,15,71,-2
2120,24,-42,240,16,71,-1
2125,19,-39,238,15,71,-1
2130,25,-41,241,15,70,-1
2135,23,-36,238,14,71,-1
2140,20,-39,240,14,71,0
2145,22,-39,240,12,72,-1
2150,21,-37,237,12,71,-1
2155,23,-40,239,13,70,-1
2160,22,-37,240,12,72,-1
2165,21,-35,237,10,71,-2
2170,23,-37,240,8,71,-1
2175,21,-38,237,8,71,1
2180,24,-39,239,8,70,0
2185,24,-40,241,6,71,-1
2190,24,-39,242,6,71,1
2195,24,-41,239,7,71,-1
2200,23,-41,244,7,71,-1
2205,21,-39,242,7,71,-1
2210,25,-37,238,8,71,-1
2215,24,-38,239,8,69,0
2220,26,-39,240,9,71,0
2225,22,-38,240,9,70,-1
2230,25,-40,237,9,71,-1
2235,22,-39,236,10,70,-1
2240,22,-38,236,11,70,-1
2245,23,-40,239,11,70,-2
2250,23,-38,237,10,71,-2
2255,27,-41,247,8,70,-2
2260,23,-39,239,8,70,-2
2265,24,-36,240,7,71,-2
2270,21,-40,241,6,70,-3
2275,24,-38,241,4,70,-1
2280,24,-41,240,2,70,-2
2285,22,-40,239,2,71,-2
2290,24,-36,241,0,71,-1
2295,24,-38,240,-1,72,-1
2300,26,-39,238,-1,73,-1
2305,23,-36,239,-2,74,-2
2310,24,-37,243,-5,74,-2
2315,24,-37,239,-8,73,-2
2320,24,-38,239,-14,74,-1
2325,22,-40,243,-18,71,-2
2330,21,-38,241,-20,67,-2
2335,21,-38,240,-20,63,-3
2340,25,-39,241,-21,59,-3
2345,23,-39,239,-20,56,-5
2350,24,-39,238,-19,52,-5
2355,22,-38,238,-18,51,-4
2360,21,-39,237,-12,50,-4
2365,25,-42,239,-6,51,-4
2370,22,-38,242,2,51,-2
2375,23,-41,238,10,53,-3
2380,22,-38,240,19,53,-3
2385,23,-38,239,25,55,-4
2390,23,-37,237,29,56,-3
2395,25,-41,239,31,57,-4
2400,23,-36,240,30,59,-4
2405,24,-37,239,30,61,-5
2410,25,-39,238,27,61,-5
2415,25,-37,237,24,63,-5
2420,23,-35,239,20,65,-3
2425,24,-38,240,17,68,-2
2430,24,-36,242,12,69,-2
2435,23,-38,241,10,72,-2
2440,24,-38,240,8,73,-1
2445,24,-37,238,6,75,-1
2450,22,-34,241,6,77,0
2455,23,-36,241,5,78,1
2460,27,-36,240,5,83,0
2465,24,-34,244,4,85,2
2470,27,-34,241,4,90,1
2475,25,-34,237,0,93,1
2480,23,-33,239,-7,96,1
2485,23,-35,242,-17,101,1
2490,22,-34,241,-30,104,-1
2495,22,-38,241,-44,106,-2
2500,20,-38,237,-60,107,-4
2505,22,-39,242,-74,111,-7
2510,21,-37,243,-86,116,-11
2515,23,-40,244,-94,125,-16
2520,22,-40,245,-100,134,-21
2525,26,-38,246,-107,147,-28
2530,23,-35,246,-115,159,-36
2535,28,-37,245,-124,171,-46
2540,28,-36,247,-137,181,-55
2545,30,-36,248,-155,189,-66
2550,27,-33,249,-176,197,-76
2555,32,-30,245,-202,200,-87
2560,30,-33,247,-237,205,-96
2565,32,-32,242,-275,208,-106
2570,32,-32,237,-317,212,-112
2575,32,-36,237,-360,214,-118
2580,31,-39,235,-402,218,-122
2585,32,-44,236,-444,218,-123
2590,32,-46,236,-481,217,-122
2595,30,-49,235,-514,213,-120
2600,28,-51,235,-540,208,-119
2605,28,-56,234,-555,205,-118
2610,29,-59,233,-559,200,-118
2615,27,-58,234,-554,195,-117
2620,25,-63,232,-536,192,-118
2625,26,-62,237,-509,187,-119
2630,24,-65,234,-475,185,-123
2635,27,-64,237,-436,185,-126
2640,26,-65,237,-391,189,-126
2645,24,-60,236,-346,195,-129
2650,25,-59,237,-303,204,-129
2655,25,-57,239,-261,213,-128
2660,24,-56,236,-226,220,-128
2665,24,-52,235,-195,229,-126
2670,24,-52,236,-171,236,-125
2675,21,-49,234,-155,245,-125
2680,20,-46,234,-147,252,-125
2685,16,-43,241,-145,257,-119
2690,16,-45,237,-148,261,-114
2695,13,-42,239,-159,260,-109
2700,13,-44,243,-173,255,-102
2705,14,-46,238,-192,249,-96
2710,13,-48,239,-216,239,-89
2715,10,-48,246,-241,224,-82
2720,10,-50,245,-264,205,-78
2725,12,-49,243,-287,186,-72
2730,12,-52,245,-310,170,-65
2735,12,-51,246,-330,152,-59
2740,13,-54,245,-352,134,-53
2745,15,-54,245,-377,115,-47
2750,13,-53,249,-406,93,-42
2755,11,-54,247,-437,70,-40
2760,15,-54,244,-465,48,-37
2765,12,-54,246,-490,25,-33
2770,12,-55,246,-511,5,-30
2775,12,-56,244,-530,-12,-31
2780,12,-58,245,-544,-32,-30
2785,12,-59,237,-551,-46,-29
2790,14,-61,238,-552,-54,-31
2795,14,-60,238,-548,-53,-30
2800,10,-72,233,-535,-41,-28
2805,12,-69,232,-513,-22,-27
2810,10,-69,230,-488,1,-22
2815,10,-74,233,-452,21,-18
2820,10,-74,226,-414,44,-16
2825,10,-75,226,-376,67,-15
2830,9,-76,228,-334,88,-15
2835,6,-77,227,-290,102,-15
2840,7,-73,231,-248,112,-15
2845,9,-73,230,-208,112,-16
2850,10,-72,234,-178,103,-16
2855,8,-70,237,-159,91,-16
2860,9,-71,238,-152,71,-15
2865,7,-70,238,-154,48,-12
2870,4,-65,240,-165,22,-9
2875,7,-62,237,-191,1,-5
2880,9,-66,238,-236,-9,-1
2885,10,-69,239,-291,-12,1
2890,12,-74,238,-341,-14,2
2895,10,-78,238,-377,-19,5
2900,7,-79,231,-396,-16,8
2905,9,-81,224,-400,-7,9
2910,7,-85,224,-387,4,12
2915,4,-85,223,-357,14,16
2920,6,-90,222,-311,20,21
2925,3,-86,221,-259,23,25
2930,2,-85,224,-200,20,30
2935,4,-82,227,-140,17,35
2940,5,-80,231,-89,16,38
2945,4,-77,231,-54,17,41
2950,3,-72,230,-39,20,44
2955,3,-72,233,-45,25,48
2960,2,-67,229,-65,27,49
2965,3,-71,236,-90,21,52
2970,5,-73,240,-114,8,53
2975,4,-81,241,-126,-16,51
2980,5,-88,244,-124,-45,49
2985,4,-90,240,-111,-77,47
2990,3,-91,233,-98,-108,50
2995,7,-93,228,-86,-135,52
3000,7,-96,222,-70,-151,54
3005,12,-97,219,-53,-158,54
3010,11,-97,221,-41,-152,48
3015,13,-97,221,-31,-134,43
3020,6,-93,219,-23,-102,35
3025,14,-90,225,-23,-60,27
3030,11,-87,229,-24,-17,19
3035,6,-82,232,-27,16,11
3040,7,-83,232,-31,38,7
3045,4,-84,233,-35,45,0
3050,1,-80,228,-29,41,-6
3055,3,-76,223,-23,27,-11
3060,1,-72,218,-18,7,-12
3065,1,-69,214,-6,-13,-14
3070,2,-66,219,8,-38,-14
3075,3,-66,217,18,-66,-10
3080,6,-64,222,30,-101,-3
3085,12,-62,222,42,-136,-1
3090,15,-62,226,43,-169,1
3095,23,-61,224,35,-192,1
3100,21,-59,230,17,-208,0
3105,26,-62,236,-10,-217,-1
3110,25,-66,237,-42,-224,-1
3115,31,-72,236,-76,-237,-2
3120,34,-74,230,-106,-251,-3
3125,34,-74,235,-129,-262,-5
3130,41,-79,235,-146,-267,-6
3135,45,-83,229,-152,-256,-3
3140,45,-81,236,-153,-239,6
3145,45,-80,235,-148,-221,12
3150,43,-82,233,-147,-202,20
3155,39,-79,239,-149,-185,29
3160,39,-82,239,-155,-174,38
3165,36,-83,238,-165,-172,46
3170,32,-82,236,-178,-175,57
3175,29,-82,236,-192,-182,69
3180,32,-81,228,-202,-190,81
3185,27,-81,223,-208,-198,88
3190,28,-81,220,-207,-200,91
3195,27,-81,219,-202,-198,96
3200,25,-86,223,-196,-198,96
3205,30,-85,222,-181,-199,91
3210,26,-79,222,-161,-198,88
3215,30,-77,219,-152,-200,88
3220,32,-77,224,-163,-201,91
3225,33,-69,228,-192,-206,93
3230,32,-62,227,-233,-213,93
3235,30,-63,237,-280,-220,91
3240,37,-60,237,-334,-236,89
3245,36,-61,240,-396,-253,91
3250,33,-61,239,-463,-255,99
3255,35,-59,242,-531,-248,103
3260,41,-65,241,-592,-241,114
3265,39,-67,246,-645,-227,125
3270,38,-70,244,-676,-217,129
3275,34,-76,235,-685,-212,134
3280,37,-82,224,-672,-198,143
3285,35,-83,214,-645,-171,154
3290,38,-82,211,-605,-135,166
3295,42,-85,212,-552,-107,183
3300,45,-85,216,-499,-98,205
3305,47,-82,218,-456,-117,225
3310,49,-78,216,-426,-162,238
3315,58,-75,212,-415,-209,240
3320,65,-70,213,-426,-246,252
3325,66,-73,219,-451,-267,272
3330,67,-75,233,-487,-295,290
3335,70,-77,233,-532,-339,303
3340,72,-82,233,-600,-371,317
3345,75,-88,222,-649,-376,336
3350,76,-98,228,-681,-368,353
3355,74,-116,229,-688,-371,363
3360,69,-122,226,-682,-403,364
3365,69,-127,220,-655,-449,366
3370,75,-133,206,-623,-483,364
3375,69,-139,205,-591,-492,354
3380,65,-140,198,-551,-489,339
3385,63,-144,191,-501,-481,321
3390,56,-145,188,-447,-478,294
3395,53,-147,187,-393,-476,263
3400,48,-146,182,-334,-472,235
3405,46,-144,183,-279,-467,202
3410,45,-144,183,-238,-459,170
3415,39,-145,184,-199,-455,134
3420,30,-140,186,-152,-465,97
3425,25,-138,184,-107,-494,62
3430,18,-140,188,-72,-524,25
3435,15,-135,188,-46,-549,-6
3440,12,-131,190,-20,-567,-30
3445,8,-127,199,1,-580,-46
3450,8,-120,207,17,-601,-56
3455,9,-120,205,29,-632,-59
3460,12,-120,204,35,-667,-61
3465,14,-120,197,38,-692,-72
3470,16,-120,197,38,-717,-86
3475,20,-120,196,38,-737,-106
3480,26,-123,195,38,-757,-128
3485,26,-129,200,55,-772,-157
3490,26,-133,197,90,-780,-185
3495,28,-133,192,134,-780,-207
3500,26,-134,187,174,-768,-222
3505,32,-134,188,204,-751,-230
3510,30,-133,191,228,-729,-242
3515,27,-129,192,252,-702,-256
3520,32,-132,191,270,-679,-269
3525,35,-135,198,292,-659,-281
3530,35,-130,200,314,-631,-284
3535,40,-132,204,342,-599,-286
3540,41,-129,210,372,-564,-286
3545,43,-122,218,396,-526,-281
3550,51,-116,220,401,-477,-273
3555,62,-112,228,391,-398,-268
3560,70,-103,235,388,-290,-252
3565,79,-83,237,385,-184,-229
3570,84,-82,236,366,-102,-204
3575,82,-71,240,333,-32,-189
3580,80,-61,251,291,58,-189
3585,74,-61,259,230,153,-183
3590,64,-60,266,138,170,-155
3595,60,-63,266,9,46,-110
3600,59,-68,256,-143,-164,-80
3605,63,-81,244,-286,-335,-69
3610,71,-98,216,-378,-391,-59
3615,73,-119,203,-401,-338,-44
3620,79,-132,183,-373,-220,-27
3625,75,-139,174,-310,-103,-17
3630,79,-143,174,-227,-32,-13
3635,78,-151,175,-130,-11,-19
3640,84,-154,177,-22,-16,-31
3645,88,-151,185,82,-27,-42
3650,92,-141,191,171,-38,-50
3655,94,-131,193,235,-49,-62
3660,94,-118,195,271,-58,-76
3665,94,-108,197,278,-64,-95
3670,96,-97,195,260,-64,-118
3675,94,-82,201,226,-64,-146
3680,91,-78,206,186,-66,-177
3685,97,-73,206,151,-63,-204
3690,95,-69,207,121,-52,-226
3695,97,-74,210,89,-34,-246
3700,95,-71,215,61,-10,-264
3705,96,-78,216,40,15,-283
3710,94,-82,216,23,38,-305
3715,93,-88,221,9,57,-332
3720,91,-94,215,6,68,-355
3725,90,-101,216,15,72,-379
3730,88,-107,210,42,72,-399
3735,91,-112,208,79,69,-414
3740,92,-114,209,120,67,-420
3745,94,-120,202,161,69,-426
3750,93,-125,207,205,74,-430
3755,99,-131,204,262,81,-434
3760,98,-137,211,335,88,-437
3765,102,-143,216,420,90,-441
3770,102,-146,215,511,81,-445
3775,104,-146,226,599,63,-445
3780,98,-147,229,682,38,-443
3785,105,-143,234,759,8,-439
3790,101,-137,238,821,-21,-429
3795,99,-126,238,870,-49,-420
3800,99,-119,238,903,-72,-415
3805,101,-105,240,921,-90,-417
3810,102,-94,246,917,-106,-430
3815,106,-86,249,893,-121,-449
3820,111,-79,253,849,-138,-477
3825,112,-80,254,786,-165,-507
3830,108,-81,258,709,-204,-540
3835,101,-80,262,633,-254,-573
3840,94,-83,256,567,-321,-609
3845,86,-83,251,509,-397,-644
3850,82,-84,248,464,-478,-679
3855,75,-83,243,427,-554,-715
3860,68,-82,233,395,-622,-748
3865,67,-83,230,367,-681,-775
3870,69,-86,229,340,-741,-803
3875,74,-80,227,312,-806,-830
3880,83,-82,221,289,-871,-854
3885,86,-86,217,268,-935,-880
3890,82,-85,213,251,-995,-901
3895,98,-84,215,245,-1068,-920
3900,122,-83,214,259,-1167,-945
3905,134,-78,201,289,-1255,-983
3910,130,-76,200,326,-1304,-1012
3915,109,-71,191,372,-1348,-1038
3920,97,-63,184,406,-1410,-1066
3925,83,-50,176,420,-1500,-1094
3930,84,-43,173,413,-1606,-1113
3935,88,-28,162,383,-1716,-1133
3940,93,-20,155,344,-1812,-1152
3945,95,-6,145,293,-1890,-1172
3950,101,2,136,237,-1962,-1193
3955,107,8,133,170,-2034,-1212
3960,105,13,133,102,-2102,-1227
3965,111,19,127,38,-2159,-1242
3970,114,24,129,-29,-2200,-1259
3975,125,23,121,-91,-2230,-1272
3980,128,28,116,-149,-2247,-1276
3985,133,24,109,-203,-2255,-1269
3990,131,25,107,-265,-2260,-1259
3995,132,23,103,-325,-2266,-1247
4000,129,21,104,-376,-2274,-1226
4005,135,17,98,-413,-2290,-1199
4010,135,14,92,-444,-2307,-1167
4015,141,13,88,-468,-2312,-1131
4020,150,8,88,-491,-2302,-1092
4025,159,7,84,-515,-2275,-1049
4030,165,7,83,-540,-2236,-1007
4035,178,2,80,-554,-2177,-954
4040,189,0,86,-574,-2102,-898
4045,203,-3,88,-596,-2009,-842
4050,210,-9,92,-618,-1901,-784
4055,218,-14,96,-648,-1789,-732
4060,224,-19,102,-680,-1676,-684
4065,228,-27,105,-714,-1563,-631
4070,230,-35,105,-742,-1455,-577
4075,224,-38,108,-763,-1350,-518
4080,228,-45,109,-775,-1250,-459
4085,227,-50,114,-779,-1148,-402
4090,222,-54,118,-768,-1039,-344
4095,226,-58,123,-747,-917,-286
4100,222,-61,131,-713,-785,-224
4105,221,-61,133,-668,-648,-161
4110,220,-62,133,-612,-512,-100
4115,217,-65,138,-545,-384,-38
4120,214,-62,132,-469,-268,23
4125,210,-63,132,-387,-171,82
4130,207,-57,131,-297,-80,145
4135,198,-53,125,-215,6,208
4140,191,-46,128,-139,81,271
4145,186,-40,128,-76,153,336
4150,166,-32,131,-32,221,404
4155,138,-17,126,-3,275,479
4160,124,-10,124,9,304,556
4165,110,-6,118,4,305,632
4170,111,-12,121,-20,290,705
4175,125,-6,130,-59,279,771
4180,143,-11,145,-114,294,834
4185,172,-18,173,-185,337,891
4190,222,-25,204,-262,408,935
4195,255,-36,243,-343,520,960
4200,252,-43,290,-422,682,974
4205,256,-65,331,-489,865,1001
4210,275,-89,375,-549,1023,1032
4215,314,-111,407,-572,1127,1024
4220,370,-124,399,-549,1152,972
4225,427,-125,350,-525,1053,894
4230,470,-129,279,-514,805,792
4235,466,-131,187,-474,389,648
4240,407,-136,88,-356,-153,510
4245,316,-144,14,-168,-688,441
4250,199,-155,-7,58,-1077,461
4255,85,-152,-1,275,-1298,509
4260,26,-151,26,439,-1421,546
4265,26,-144,68,516,-1511,524
4270,76,-138,117,509,-1551,404
4275,138,-122,169,456,-1520,191
4280,190,-98,193,399,-1434,-47
4285,217,-63,175,362,-1277,-224
4290,220,-29,138,341,-1040,-318
4295,215,-4,95,325,-768,-329
4300,213,11,59,310,-523,-283
4305,213,22,44,297,-351,-211
4310,220,15,45,280,-269,-149
4315,228,11,59,239,-265,-98
4320,242,-3,88,179,-289,-43
4325,246,-13,98,134,-318,15
4330,251,-20,113,115,-337,61
4335,248,-24,120,142,-332,93
4340,239,-22,121,186,-295,115
4345,234,-21,118,219,-227,137
4350,231,-15,124,217,-154,159
4355,232,-16,124,196,-106,179
4360,237,-14,118,158,-96,197
4365,241,-17,108,110,-124,221
4370,245,-17,97,55,-174,253
4375,252,-26,94,1,-242,283
4380,255,-42,95,-35,-311,313
4385,251,-52,102,-39,-373,337
4390,240,-65,106,-12,-436,348
4395,238,-76,100,39,-486,342
4400,240,-79,95,97,-507,325
4405,242,-93,89,145,-501,307
4410,239,-95,83,178,-475,279
4415,244,-99,84,202,-441,253
4420,239,-99,88,217,-395,222
4425,239,-103,82,220,-356,195
4430,234,-105,84,210,-322,172
4435,230,-108,77,196,-299,151
4440,233,-116,81,185,-277,131
4445,228,-118,83,183,-255,105
4450,223,-119,86,192,-238,78
4455,219,-118,87,209,-234,52
4460,218,-118,88,231,-244,27
4465,218,-118,92,256,-255,7
4470,216,-111,92,284,-264,-10
4475,220,-107,96,314,-264,-23
4480,216,-98,97,336,-253,-29
4485,214,-89,100,347,-235,-33
4490,214,-87,97,346,-222,-36
4495,206,-76,100,338,-215,-45
4500,204,-69,96,327,-214,-57
4505,203,-64,102,316,-214,-71
4510,204,-58,97,302,-209,-77
4515,202,-52,100,284,-199,-78
4520,206,-45,106,253,-188,-76
4525,206,-46,108,212,-175,-72
4530,210,-45,110,168,-162,-73
4535,214,-39,118,120,-149,-81
4540,221,-47,112,72,-130,-87
4545,227,-54,114,27,-104,-91
4550,232,-58,112,-14,-69,-93
4555,233,-60,110,-51,-19,-90
4560,226,-63,108,-83,27,-83
4565,227,-69,103,-116,72,-72
4570,225,-71,101,-145,111,-55
4575,225,-75,101,-168,138,-48
4580,230,-77,97,-180,140,-46
4585,231,-83,100,-179,114,-53
4590,233,-79,97,-164,65,-66
4595,235,-79,92,-148,4,-84
4600,234,-77,86,-135,-56,-104
4605,231,-72,83,-128,-100,-124
4610,230,-71,84,-121,-127,-143
4615,230,-74,83,-109,-136,-160
4620,226,-71,83,-94,-137,-177
4625,220,-70,82,-81,-149,-197
4630,221,-72,91,-70,-175,-221
4635,221,-64,90,-67,-210,-246
4640,225,-64,96,-72,-248,-270
4645,222,-63,88,-81,-280,-290
4650,222,-69,98,-89,-306,-305
4655,223,-71,100,-88,-330,-311
4660,221,-72,105,-74,-349,-316
4665,219,-71,106,-54,-365,-320
4670,215,-70,107,-34,-388,-321
4675,211,-66,104,-22,-420,-322
4680,209,-58,105,-20,-464,-321
4685,211,-55,104,-34,-517,-318
4690,208,-52,99,-58,-567,-315
4695,209,-50,99,-90,-614,-314
4700,209,-51,97,-123,-657,-310
4705,213,-52,93,-155,-693,-303
4710,213,-53,91,-178,-724,-290
4715,214,-56,92,-189,-748,-273
4720,215,-58,88,-188,-769,-253
4725,219,-59,86,-175,-784,-237
4730,222,-59,80,-156,-789,-224
4735,227,-56,78,-139,-787,-212
4740,232,-61,74,-122,-780,-208
4745,236,-63,72,-102,-769,-209
4750,238,-66,70,-76,-752,-214
4755,239,-64,70,-43,-729,-219
4760,243,-66,68,-3,-704,-224
4765,240,-65,67,42,-682,-227
4770,238,-67,63,84,-659,-228
4775,240,-62,63,127,-640,-230
4780,241,-61,62,172,-623,-229
4785,240,-57,64,209,-609,-226
4790,239,-56,71,234,-598,-223
4795,238,-57,74,256,-587,-225
4800,243,-57,78,271,-575,-230
4805,238,-55,81,284,-565,-239
4810,236,-53,80,298,-556,-252
4815,232,-48,83,308,-546,-271
4820,228,-43,81,319,-536,-292
4825,221,-38,82,317,-524,-307
4830,221,-32,84,302,-514,-314
4835,214,-29,79,280,-510,-318
4840,216,-27,78,251,-508,-319
4845,221,-24,77,219,-506,-320
4850,224,-26,77,183,-491,-320
4855,226,-24,70,147,-461,-316
4860,227,-22,80,112,-421,-310
4865,230,-19,81,80,-371,-302
4870,236,-24,80,57,-318,-289
4875,239,-27,79,38,-265,-274
4880,243,-30,82,26,-214,-260
4885,246,-31,83,18,-171,-243
4890,247,-36,88,15,-134,-225
4895,248,-36,83,13,-106,-206
4900,248,-36,82,9,-92,-187
4905,248,-35,83,7,-91,-172
4910,248,-35,69,0,-105,-160
4915,245,-34,64,-8,-129,-148
4920,248,-35,63,-17,-159,-140
4925,250,-35,55,-22,-190,-131
4930,251,-36,50,-23,-219,-128
4935,253,-38,48,-17,-246,-127
4940,252,-39,49,-7,-266,-129
4945,254,-39,47,5,-278,-133
4950,252,-40,46,18,-281,-139
4955,253,-40,47,32,-279,-145
4960,250,-38,49,48,-274,-149
4965,247,-34,45,63,-267,-155
4970,247,-33,43,75,-258,-151
4975,244,-27,39,81,-246,-144
4980,250,-28,38,82,-230,-136
4985,251,-23,39,80,-209,-127
4990,252,-24,37,79,-181,-118
4995,253,-23,36,79,-149,-108
5000,254,-20,38,78,-110,-99
5005,253,-17,35,73,-66,-91
5010,253,-14,40,63,-22,-82
5015,257,-15,36,45,25,-69
5020,260,-21,40,28,71,-57
5025,261,-19,43,15,119,-48
5030,261,-28,44,13,165,-46
5035,263,-29,45,22,206,-51
5040,260,-31,46,40,242,-55
5045,258,-38,50,61,269,-58
5050,255,-39,51,83,285,-67
5055,255,-41,45,95,283,-71
5060,256,-42,44,103,270,-70
5065,254,-46,41,113,247,-63
5070,252,-46,42,124,221,-57
5075,255,-49,41,140,190,-52
5080,256,-50,38,161,160,-54
5085,247,-47,44,179,137,-58
5090,244,-46,44,191,118,-60
5095,239,-43,47,198,102,-57
5100,238,-39,46,202,93,-52
5105,237,-35,49,200,97,-42
5110,241,-33,48,193,114,-26
5115,244,-26,48,177,146,-9
5120,242,-23,45,153,185,16
5125,245,-20,46,126,219,41
5130,247,-21,46,95,237,62
5135,251,-22,45,63,240,79
5140,249,-25,50,34,226,88
5145,253,-26,51,7,201,98
5150,253,-32,53,-10,166,102
5155,256,-36,57,-17,130,102
5160,254,-36,58,-18,97,100
5165,255,-37,59,-17,68,93
5170,253,-41,63,-13,42,81
5175,252,-44,64,-14,21,71
5180,255,-44,63,-17,0,56
5185,254,-45,63,-20,-19,39
5190,251,-36,59,-24,-33,22
5195,252,-43,59,-30,-43,8
5200,250,-45,56,-34,-48,-6
5205,249,-48,58,-36,-54,-19
5210,248,-47,54,-34,-58,-30
5215,250,-44,48,-37,-55,-38
5220,249,-43,51,-43,-50,-48
5225,247,-38,47,-53,-39,-52
5230,249,-35,43,-68,-23,-55
5235,252,-32,39,-88,-1,-59
5240,254,-32,37,-111,25,-59
5245,254,-29,35,-135,55,-56
5250,256,-30,32,-153,85,-55
5255,259,-33,31,-170,112,-53
5260,259,-31,28,-182,131,-49
5265,258,-30,28,-191,143,-49
5270,259,-33,26,-192,153,-47
5275,258,-31,30,-186,155,-48
5280,258,-32,32,-180,153,-46
5285,257,-35,31,-177,147,-46
5290,255,-34,33,-172,136,-47
5295,252,-35,38,-173,124,-51
5300,250,-33,36,-176,111,-56
5305,253,-36,40,-182,100,-65
5310,247,-39,41,-188,94,-72
5315,249,-42,44,-191,91,-81
5320,245,-41,43,-193,93,-89
5325,245,-42,45,-190,99,-95
5330,242,-42,49,-180,106,-104
5335,241,-41,47,-170,115,-108
5340,239,-38,48,-158,128,-111
5345,241,-39,51,-144,141,-112
5350,246,-42,53,-127,156,-111
5355,245,-41,52,-109,170,-110
5360,244,-39,56,-90,182,-111
5365,248,-41,57,-76,192,-111
5370,246,-40,57,-65,194,-114
5375,245,-38,58,-57,191,-115
5380,249,-39,61,-51,187,-114
5385,246,-33,59,-48,177,-116
5390,248,-33,59,-46,166,-116
5395,247,-33,60,-44,153,-116
5400,248,-31,62,-46,139,-118
5405,250,-30,63,-50,124,-120
5410,250,-31,61,-56,107,-120
5415,252,-34,59,-63,91,-121
5420,251,-31,59,-70,75,-120
5425,254,-33,59,-75,60,-121
5430,254,-30,55,-78,46,-119
5435,252,-30,51,-80,35,-120
5440,255,-30,55,-82,25,-119
5445,250,-30,53,-83,14,-118
5450,252,-29,49,-82,4,-115
5455,251,-27,50,-85,-5,-114
5460,250,-30,46,-85,-14,-113
5465,247,-28,49,-84,-18,-110
5470,247,-30,46,-79,-17,-108
5475,249,-29,49,-75,-14,-108
5480,248,-24,45,-70,-9,-106
5485,251,-26,47,-67,1,-104
5490,251,-27,45,-61,13,-102
5495,251,-24,48,-56,27,-100
5500,249,-21,46,-53,43,-96
5505,252,-23,46,-49,59,-91
5510,249,-20,45,-47,76,-88
5515,253,-23,45,-47,93,-83
5520,254,-21,47,-47,108,-79
5525,255,-20,51,-44,122,-75
5530,254,-21,45,-42,139,-73
5535,255,-24,48,-39,153,-70
5540,257,-20,49,-37,165,-67
5545,255,-21,48,-34,173,-61
5550,257,-24,47,-30,181,-56
5555,258,-24,53,-26,185,-49
5560,255,-22,48,-25,186,-43
5565,257,-21,52,-23,185,-37
5570,254,-23,51,-20,180,-31
5575,256,-23,49,-21,173,-24
5580,256,-26,45,-20,168,-19
5585,256,-27,52,-22,159,-16
5590,254,-26,47,-27,153,-12
5595,253,-24,47,-30,147,-9
5600,253,-27,48,-32,142,-7
5605,252,-31,50,-33,138,-4
5610,252,-28,51,-34,134,-3
5615,251,-30,49,-33,131,-1
5620,250,-27,54,-30,130,-2
5625,244,-28,40,-26,132,-2
5630,249,-29,54,-21,137,-2
5635,252,-32,51,-15,143,1
5640,248,-31,49,-5,155,3
5645,250,-29,50,5,164,4
5650,249,-30,52,17,172,5
5655,249,-26,53,23,182,5
5660,252,-29,50,29,190,5
5665,246,-26,56,26,198,6
5670,247,-30,56,21,203,8
5675,249,-28,49,17,203,10
5680,249,-24,52,10,202,14
5685,249,-25,57,4,199,17
5690,250,-24,55,-4,194,18
5695,250,-29,58,-11,191,19
5700,253,-30,55,-19,188,18
5705,251,-32,58,-25,185,17
5710,251,-27,54,-30,181,15
5715,250,-26,59,-36,178,14
5720,248,-27,59,-39,173,12
5725,248,-32,58,-43,170,11
5730,247,-31,62,-46,163,9
5735,246,-30,64,-49,159,9
5740,246,-27,63,-49,156,9
5745,243,-28,66,-50,152,8
5750,246,-27,63,-51,150,9
5755,244,-29,61,-53,147,7
5760,245,-27,60,-51,145,8
5765,247,-26,63,-53,145,6
5770,245,-29,63,-54,144,4
5775,245,-27,60,-56,141,2
5780,243,-27,61,-57,139,3
5785,243,-26,60,-57,136,1
5790,243,-32,60,-56,135,0
5795,246,-31,59,-55,134,0
5800,245,-31,63,-53,135,-2
5805,242,-29,61,-49,135,-2
5810,243,-32,65,-44,134,-2
5815,243,-31,61,-39,136,-3
5820,244,-29,60,-34,136,-3
5825,243,-31,61,-31,136,-5
5830,243,-28,62,-27,133,-6
5835,246,-31,61,-25,130,-7
5840,242,-28,62,-25,124,-9
5845,245,-27,62,-26,120,-11
5850,243,-27,64,-30,116,-11
5855,247,-28,61,-33,111,-9
5860,244,-28,63,-39,105,-11
5865,246,-29,58,-44,98,-12
5870,247,-29,60,-50,91,-11
5875,243,-26,62,-55,85,-11
5880,244,-30,64,-60,78,-12
5885,245,-27,61,-62,73,-13
5890,244,-30,60,-64,68,-12
5895,242,-29,62,-65,65,-13
5900,243,-27,61,-65,62,-16
5905,243,-29,63,-63,61,-18
5910,246,-30,61,-59,63,-19
5915,244,-30,57,-58,61,-21
5920,245,-30,61,-56,60,-21
5925,244,-31,63,-54,59,-22
5930,242,-31,61,-51,60,-22
5935,244,-26,57,-49,60,-23
5940,245,-30,61,-47,58,-23
5945,245,-31,61,-46,58,-25
5950,244,-29,63,-44,56,-26
5955,244,-29,61,-43,55,-27
5960,244,-32,63,-42,55,-28
5965,244,-31,63,-39,54,-28
5970,247,-30,62,-34,53,-29
5975,248,-32,59,-29,50,-29
5980,249,-32,62,-25,48,-30
5985,246,-29,61,-21,47,-30
5990,246,-30,62,-21,44,-29
5995,246,-28,60,-23,41,-29
6000,244,-23,60,-26,39,-30
6005,247,-27,59,-32,36,-28
6010,245,-23,59,-39,33,-28
6015,246,-24,61,-47,30,-27
6020,246,-26,55,-56,27,-27
6025,247,-25,61,-64,24,-28
6030,248,-28,60,-73,24,-28
6035,247,-30,59,-78,23,-27
6040,247,-29,59,-83,26,-27
6045,244,-29,59,-88,28,-27
6050,248,-29,59,-89,30,-27
6055,248,-30,61,-89,32,-26
6060,247,-29,62,-86,34,-28
6065,246,-27,60,-82,35,-27
6070,245,-30,61,-81,36,-28
6075,247,-32,59,-77,34,-28
6080,247,-27,60,-75,34,-30
6085,247,-29,61,-70,33,-30
6090,243,-27,61,-65,30,-28
6095,248,-30,57,-60,30,-27
6100,249,-31,59,-55,28,-24
6105,249,-26,58,-46,27,-25
6110,249,-27,53,-39,27,-24
6115,249,-27,54,-33,27,-23
6120,243,-30,54,-30,26,-23
6125,244,-27,54,-28,25,-24
6130,249,-26,54,-26,23,-22
6135,246,-30,59,-24,20,-21
6140,247,-26,57,-23,19,-18
6145,247,-28,57,-22,19,-18
6150,251,-30,61,-21,20,-16
6155,247,-30,61,-22,22,-16
6160,243,-28,59,-23,22,-17
6165,244,-30,58,-24,26,-16
6170,248,-30,62,-24,25,-18
6175,249,-30,60,-23,24,-18
6180,247,-30,58,-20,23,-19
6185,249,-26,57,-16,21,-19
6190,250,-28,58,-14,17,-19
6195,246,-29,57,-11,13,-20
6200,244,-27,55,-7,10,-21
6205,249,-30,50,-6,9,-21
6210,246,-28,51,-3,8,-21
6215,248,-30,55,-1,8,-21
6220,247,-27,54,1,7,-20
6225,246,-26,51,4,10,-20
6230,248,-29,53,5,13,-20
6235,246,-29,48,7,17,-19
6240,248,-26,51,9,21,-17
6245,247,-28,56,11,27,-17
6250,244,-25,52,15,30,-17
6255,247,-25,53,16,35,-16
6260,247,-21,54,18,39,-16
6265,247,-25,52,18,43,-15
6270,249,-25,54,15,46,-16
6275,249,-23,56,14,47,-15
6280,247,-22,54,9,49,-15
6285,247,-25,54,4,47,-15
6290,248,-24,55,-1,45,-13
6295,251,-23,54,-5,41,-13
6300,249,-23,50,-8,37,-11
6305,248,-26,53,-8,33,-10
6310,247,-27,54,-6,29,-7
6315,248,-30,53,-1,25,-4
6320,247,-31,48,5,22,-1
6325,250,-29,51,18,20,2
6330,248,-26,50,31,19,5
6335,250,-30,50,45,23,6
6340,246,-29,48,56,27,6
6345,252,-25,45,67,32,6
6350,249,-28,50,73,35,6
6355,247,-25,49,77,39,6
6360,247,-27,51,80,42,6
6365,249,-28,52,80,46,7
6370,248,-29,47,81,49,7
6375,250,-27,48,83,53,9
6380,247,-26,52,88,55,8
6385,250,-28,49,94,62,9
6390,248,-27,50,99,69,10
6395,249,-26,48,104,75,12
6400,247,-24,50,108,81,13
6405,246,-24,53,116,89,14
6410,250,-26,54,120,91,17
6415,249,-26,54,124,92,18
6420,250,-26,59,127,91,18
6425,251,-24,53,127,91,18
6430,251,-27,56,127,91,18
6435,250,-26,55,123,89,17
6440,252,-26,53,116,87,18
6445,252,-25,55,109,86,18
6450,252,-27,54,103,83,16
6455,252,-24,53,96,82,16
6460,249,-26,54,93,78,16
6465,248,-27,56,93,79,16
6470,250,-26,52,94,77,17
6475,247,-24,57,95,80,18
6480,249,-27,55,98,81,18
6485,247,-26,53,98,83,18
6490,245,-27,51,98,88,19
6495,246,-23,59,98,92,19
6500,247,-26,56,99,99,20
6505,246,-26,52,100,105,21
6510,245,-25,54,100,111,23
6515,250,-27,56,101,117,26
6520,247,-25,56,103,119,26
6525,247,-25,53,103,121,27
6530,249,-26,54,102,123,28
6535,247,-26,56,99,126,28
6540,248,-23,58,95,126,29
6545,248,-21,53,90,127,29
6550,252,-25,54,84,129,28
6555,246,-23,54,78,132,27
6560,248,-23,58,71,133,27
6565,251,-26,60,65,136,26
6570,250,-25,54,63,140,28
6575,252,-27,57,60,140,29
6580,248,-26,59,61,141,29
6585,250,-24,60,61,142,29
6590,249,-30,64,62,140,31
6595,246,-24,63,62,137,32
6600,248,-29,63,63,134,31
6605,248,-27,59,62,131,31
6610,247,-27,60,63,128,31
6615,246,-28,57,63,124,30
6620,244,-28,63,62,121,30
6625,245,-29,59,62,118,29
6630,245,-24,60,62,116,30
6635,244,-26,58,66,116,27
6640,248,-25,59,68,116,26
6645,246,-24,59,68,118,24
6650,248,-26,59,67,118,23
6655,247,-25,61,63,117,21
6660,243,-25,62,60,117,19
6665,246,-24,60,57,116,19
6670,250,-26,62,53,114,20
6675,249,-28,61,48,111,20
6680,248,-29,60,46,107,21
6685,248,-29,68,43,104,23
6690,247,-27,64,42,101,23
6695,244,-24,62,43,98,22
6700,248,-31,60,47,93,21
6705,247,-26,61,48,86,18
6710,248,-26,61,49,80,20
6715,250,-25,57,47,75,16
6720,245,-22,59,43,71,17
6725,249,-24,63,37,68,18
6730,246,-22,56,32,68,19
6735,243,-23,58,25,69,21
6740,248,-21,59,21,70,23
6745,248,-23,56,15,74,25
6750,247,-23,57,11,78,25
6755,248,-26,54,7,81,28
6760,242,-29,51,5,83,29
6765,243,-26,55,6,84,29
6770,245,-21,61,7,85,30
6775,247,-28,60,10,83,30
6780,245,-32,63,14,82,28
6785,243,-30,61,17,80,26
6790,244,-30,60,21,78,24
6795,243,-33,63,27,77,23
6800,243,-32,60,31,76,19
6805,243,-32,60,35,76,18
6810,244,-32,65,41,76,15
6815,243,-32,62,47,79,14
6820,241,-30,66,53,79,12
6825,245,-39,74,61,82,10
6830,245,-31,62,66,81,8
6835,246,-32,62,69,82,5
6840,245,-29,63,69,82,3
6845,245,-26,63,69,82,4
6850,247,-26,64,68,78,3
6855,247,-27,61,66,75,4
6860,246,-26,62,62,72,7
6865,246,-27,66,58,67,9
6870,248,-29,65,51,61,10
6875,245,-28,64,46,58,12
6880,246,-24,61,42,54,12
6885,246,-26,61,37,51,12
6890,242,-26,58,35,51,12
6895,243,-27,60,28,51,9
6900,246,-28,60,27,54,7
6905,247,-29,60,26,60,7
6910,245,-27,61,23,67,4
6915,245,-29,60,19,70,1
6920,247,-27,63,12,73,-2
6925,245,-29,62,9,74,-4
6930,246,-28,63,4,72,-7
6935,245,-28,65,2,70,-9
6940,248,-30,62,2,68,-10
6945,244,-31,66,2,64,-11
6950,245,-27,63,4,61,-13
6955,244,-27,63,4,56,-13
6960,244,-25,65,5,53,-12
6965,243,-23,64,3,51,-13
6970,243,-25,62,3,48,-13
6975,245,-24,60,2,47,-13
6980,246,-27,60,1,45,-14
6985,248,-27,60,0,43,-12
6990,245,-27,64,-2,43,-15
6995,247,-24,61,-2,44,-14
7000,244,-24,59,-3,43,-13
7005,249,-25,62,-4,43,-14
7010,244,-24,64,-5,43,-14
7015,247,-25,60,-6,43,-16
7020,245,-22,59,-10,45,-16
7025,245,-25,59,-12,47,-15
7030,245,-23,63,-15,47,-15
7035,247,-24,59,-20,48,-16
7040,245,-16,64,-26,45,-16
7045,248,-23,62,-31,44,-16
7050,249,-25,58,-36,43,-14
7055,248,-25,58,-41,41,-11
7060,250,-26,59,-43,36,-12
7065,246,-25,62,-45,34,-11
7070,250,-25,58,-46,31,-9
7075,250,-24,59,-47,28,-8
7080,248,-28,60,-47,27,-8
7085,248,-28,60,-45,29,-9
7090,248,-27,59,-46,29,-9
7095,248,-28,58,-45,30,-8
7100,248,-27,59,-45,32,-10
7105,249,-27,60,-45,32,-11
7110,248,-26,60,-45,32,-13
7115,249,-27,60,-46,32,-12
7120,247,-25,57,-47,31,-13
7125,246,-24,59,-51,31,-12
7130,249,-27,59,-53,32,-13
7135,247,-28,57,-56,33,-12
7140,250,-29,57,-58,33,-11
7145,245,-26,62,-62,36,-14
7150,243,-25,62,-64,39,-13
7155,248,-26,59,-63,42,-16
7160,250,-29,57,-64,48,-17
7165,247,-27,59,-63,52,-18
7170,249,-28,58,-63,56,-17
7175,248,-28,59,-61,59,-16
7180,248,-26,64,-60,61,-17
7185,250,-30,59,-59,62,-19
7190,249,-25,58,-58,62,-20
7195,248,-28,55,-58,60,-20
7200,248,-27,60,-57,56,-20
7205,246,-26,57,-57,53,-21
7210,250,-24,63,-59,49,-21
7215,251,-25,59,-62,44,-20
7220,251,-28,55,-64,40,-19
7225,245,-24,54,-65,35,-20
7230,247,-27,60,-65,33,-19
7235,246,-25,58,-66,30,-19
7240,246,-29,58,-67,27,-20
7245,248,-27,61,-70,26,-21
7250,244,-27,59,-67,26,-21
7255,246,-27,56,-65,30,-22
7260,239,-28,50,-61,34,-24
7265,246,-28,56,-57,40,-23
7270,248,-27,57,-51,43,-22
7275,248,-30,57,-48,47,-24
7280,249,-29,57,-45,50,-23
7285,250,-28,55,-43,51,-20
7290,244,-25,56,-44,52,-19
7295,246,-26,56,-44,54,-19
7300,249,-26,60,-47,53,-20
7305,247,-21,58,-51,50,-18
7310,248,-26,52,-55,47,-19
7315,247,-26,56,-58,45,-17
7320,248,-25,57,-62,45,-17
7325,247,-28,58,-63,46,-17
7330,249,-26,57,-62,44,-17
7335,249,-29,57,-63,44,-16
7340,249,-24,52,-62,41,-16
7345,248,-28,56,-62,41,-16
7350,248,-26,55,-59,42,-16
7355,250,-25,56,-59,42,-14
7360,248,-26,56,-56,44,-12
7365,251,-27,58,-51,44,-11
7370,251,-26,56,-46,46,-12
7375,250,-25,53,-42,48,-12
7380,247,-26,53,-38,47,-11
7385,247,-24,53,-36,47,-13
7390,246,-27,56,-35,48,-11
7395,249,-28,54,-37,47,-10
7400,248,-24,54,-35,50,-11
7405,247,-24,57,-33,52,-11
7410,249,-28,54,-31,50,-10
7415,245,-29,53,-28,53,-11
7420,248,-26,55,-29,58,-11
7425,246,-27,52,-28,59,-12
7430,248,-25,53,-29,63,-12
7435,246,-27,57,-30,64,-11
7440,247,-26,55,-29,66,-11
7445,246,-25,59,-30,65,-11
7450,246,-25,58,-31,64,-11
7455,248,-26,58,-33,63,-10
7460,248,-26,56,-34,62,-10
7465,246,-27,58,-34,58,-10
7470,250,-29,58,-35,56,-9
7475,245,-33,56,-35,54,-10
7480,248,-27,56,-35,52,-11
7485,248,-25,59,-34,53,-10
7490,248,-24,53,-33,53,-10
7495,246,-24,54,-31,53,-11
7500,246,-21,53,-31,52,-10
7505,251,-30,53,-29,53,-9
7510,250,-24,55,-27,54,-7
7515,248,-23,54,-25,55,-5
7520,247,-28,50,-23,56,-4
7525,247,-29,51,-19,58,-2
7530,246,-25,55,-17,60,0
7535,249,-25,53,-16,62,-1
7540,248,-27,58,-11,63,-2
7545,248,-27,56,-9,63,-1
7550,249,-26,54,-7,63,-2
7555,248,-26,57,-7,65,-3
7560,245,-27,57,-7,64,-5
7565,248,-26,58,-6,65,-5
7570,247,-26,53,-5,64,-6
7575,249,-28,58,-6,65,-5
7580,246,-27,59,-5,66,-6
7585,248,-25,55,-4,67,-5
7590,249,-28,60,-4,66,-6
7595,249,-24,54,-4,66,-7
7600,250,-26,54,-4,65,-5
7605,253,-28,53,-4,63,-4
7610,248,-28,55,-2,62,-4
7615,249,-28,52,-1,60,-2
7620,251,-29,53,4,57,-3
7625,249,-26,55,7,56,-1
7630,249,-27,57,14,56,-1
7635,247,-27,53,19,57,-2
7640,249,-23,57,21,62,-1
7645,245,-23,55,23,67,0
7650,250,-25,53,25,73,0
7655,249,-24,54,24,80,1
7660,246,-21,54,22,83,0
7665,250,-22,55,19,87,0
7670,249,-22,63,14,89,0
7675,248,-28,55,9,88,2
7680,251,-30,54,5,83,2
7685,246,-26,55,4,78,4
7690,244,-25,53,4,70,2
7695,251,-30,54,4,63,-1
7700,245,-28,53,5,57,-1
7705,250,-29,55,6,52,-1
7710,247,-30,55,10,52,-1
7715,247,-27,56,12,52,0
7720,247,-29,56,15,54,-1
7725,247,-25,50,17,57,-1
7730,248,-25,54,19,60,-3
7735,248,-25,53,21,64,-4
7740,248,-26,53,22,65,-3
7745,249,-22,55,23,70,-4
7750,249,-23,55,24,72,-2
7755,250,-22,53,23,76,-2
7760,250,-25,52,21,78,-2
7765,249,-20,53,18,83,0
7770,249,-23,54,16,85,1
7775,249,-24,56,13,88,2
7780,250,-27,58,12,90,5
7785,251,-23,56,10,94,5
7790,251,-27,54,10,98,5
7795,248,-25,57,13,98,7
7800,251,-27,62,16,100,8
7805,251,-29,56,20,100,9
7810,249,-24,61,26,98,8
7815,252,-25,58,28,96,10
7820,254,-26,56,27,92,11
7825,253,-26,55,26,84,13
7830,253,-25,56,22,77,15
7835,248,-25,57,16,70,16
7840,251,-27,54,10,64,18
7845,248,-24,54,3,59,18
7850,250,-21,52,-4,60,17
7855,247,-29,55,-11,63,17
7860,248,-21,54,-18,65,20
7865,246,-22,52,-24,68,20
7870,246,-19,56,-30,72,22
7875,249,-22,54,-37,78,24
7880,249,-25,56,-41,86,25
7885,250,-22,50,-46,96,27
7890,247,-20,50,-50,108,31
7895,247,-20,54,-54,122,31
7900,249,-23,49,-58,137,34
7905,247,-21,49,-63,149,35
7910,245,-21,50,-66,162,36
7915,248,-24,49,-67,174,37
7920,250,-26,51,-71,182,39
7925,247,-24,53,-73,190,40
7930,247,-23,54,-75,194,40
7935,248,-25,55,-77,196,41
7940,246,-25,55,-80,197,41
7945,252,-29,55,-81,196,43
7950,248,-27,59,-81,195,42
7955,247,-29,61,-79,194,42
7960,248,-29,60,-77,191,42
7965,244,-30,59,-74,187,42
7970,249,-29,63,-70,182,40
7975,247,-30,61,-67,177,41
7980,247,-31,65,-62,171,41
7985,245,-32,64,-56,165,40
7990,246,-33,60,-49,160,38
7995,250,-33,64,-44,155,36
8000,245,-29,62,-37,154,33
8005,243,-33,59,-30,150,30
8010,244,-31,63,-27,149,28
8015,244,-31,62,-23,146,25
8020,239,-40,60,-23,143,23
8025,240,-30,57,-21,141,20
8030,242,-33,60,-22,139,19
8035,242,-30,63,-21,135,16
8040,244,-31,66,-19,132,13
8045,247,-35,62,-18,129,10
8050,239,-29,66,-15,126,9
8055,242,-35,64,-13,123,6
8060,242,-34,64,-12,121,4
8065,243,-30,64,-9,118,4
8070,241,-32,63,-9,114,3
8075,242,-33,65,-9,109,2
8080,238,-34,66,-9,104,-1
8085,237,-29,68,-8,100,-3
8090,241,-33,67,-9,95,-5
8095,244,-34,63,-9,91,-4
8100,238,-30,67,-11,87,-8
8105,242,-34,69,-11,83,-8
8110,243,-30,62,-12,78,-9
8115,243,-32,64,-11,73,-10
8120,240,-35,65,-12,69,-11
8125,242,-30,64,-10,67,-12
8130,247,-34,60,-10,64,-12
8135,242,-33,65,-7,61,-15
8140,241,-29,64,-6,60,-14
8145,243,-29,58,-4,60,-15
8150,242,-32,62,-2,58,-15
8155,244,-30,66,-4,60,-16
8160,245,-29,68,-5,60,-18
8165,243,-28,60,-8,62,-20
8170,244,-29,68,-9,63,-19
8175,247,-30,62,-13,63,-21
8180,240,-28,61,-13,61,-21
8185,244,-29,62,-14,58,-23
8190,250,-32,64,-16,57,-24
8195,245,-29,65,-17,54,-23
8200,241,-28,61,-18,49,-24
8205,248,-30,65,-18,45,-24
8210,244,-29,64,-16,41,-23
8215,248,-31,65,-13,37,-24
8220,242,-31,66,-6,34,-25
8225,247,-31,67,-1,33,-24
8230,247,-30,66,6,31,-24
8235,246,-29,66,15,29,-24
8240,242,-23,63,19,30,-24
8245,246,-26,64,24,30,-24
8250,248,-27,60,25,28,-23
8255,245,-24,61,24,27,-23
8260,251,-27,58,23,28,-20
8265,245,-24,60,19,26,-20
8270,247,-22,61,14,25,-20
8275,247,-25,60,9,24,-17
8280,248,-23,60,6,22,-16
8285,246,-22,63,1,21,-14
8290,250,-27,63,-2,19,-12
8295,249,-28,62,-2,19,-11
8300,247,-27,59,-4,19,-9
8305,247,-26,59,-3,19,-11
8310,248,-26,60,-5,19,-10
8315,244,-27,61,-3,19,-9
8320,246,-26,59,-1,19,-9
8325,248,-23,63,1,20,-9
8330,248,-26,59,3,23,-11
8335,249,-28,58,5,24,-9
8340,249,-31,57,8,25,-10
8345,250,-30,59,10,25,-10
8350,247,-31,56,12,26,-11
8355,252,-28,57,16,25,-11
8360,251,-30,57,21,24,-11
8365,248,-25,59,26,22,-9
8370,248,-26,57,29,24,-7
8375,252,-24,53,32,23,-7
8380,248,-27,55,32,23,-5
8385,252,-28,56,32,22,-4
8390,253,-30,57,29,19,-5
8395,248,-24,58,26,15,-4
8400,247,-25,61,22,14,-2
8405,245,-26,58,20,15,-3
8410,249,-28,58,18,18,-1
8415,249,-25,56,17,23,-2
8420,244,-25,57,19,30,0
8425,245,-29,57,18,36,0
8430,245,-24,56,17,45,-1
8435,249,-27,62,14,49,-1
8440,245,-25,58,9,53,-1
8445,249,-29,56,5,55,1
8450,250,-28,58,0,56,1
8455,247,-27,61,-4,55,1
8460,248,-28,57,-7,52,1
8465,250,-28,54,-10,52,3
8470,249,-30,55,-12,52,2
8475,250,-27,57,-13,53,2
8480,249,-28,58,-12,58,3
8485,248,-26,59,-9,65,2
8490,248,-28,57,-6,69,0
8495,250,-28,60,0,73,-1
8500,252,-31,56,4,78,-2
8505,251,-27,61,11,81,-3
8510,253,-29,59,16,81,-7
8515,252,-30,61,19,78,-8
8520,255,-28,60,22,71,-8
8525,256,-27,63,23,65,-8
8530,257,-27,63,23,59,-6
8535,254,-22,66,17,49,-3
8540,256,-21,65,2,36,1
8545,252,-12,64,-28,25,5
8550,255,-10,62,-74,10,10
8555,255,-8,63,-129,1,16
8560,252,-5,59,-188,-4,27
8565,258,-9,64,-256,-5,39
8570,254,-8,58,-327,-3,55
8575,253,-9,55,-396,3,70
8580,248,-10,54,-458,11,84
8585,247,-10,55,-507,14,96
8590,248,-20,57,-542,13,98
8595,248,-22,55,-556,10,101
8600,249,-27,58,-551,6,101
8605,251,-33,57,-526,5,99
8610,252,-41,58,-488,3,96
8615,253,-39,55,-441,7,92
8620,252,-42,52,-391,18,91
8625,252,-44,51,-340,38,92
8630,251,-42,51,-293,63,94
8635,254,-40,50,-243,94,95
8640,257,-36,52,-199,130,97
8645,253,-29,47,-171,168,97
8650,256,-25,51,-169,202,99
8655,258,-20,48,-197,233,103
8660,258,-22,48,-253,259,104
8665,258,-27,49,-315,283,106
8670,258,-28,44,-363,297,103
8675,257,-33,41,-382,304,99
8680,257,-42,48,-360,304,100
8685,264,-49,47,-300,303,104
8690,261,-51,42,-214,305,111
8695,265,-53,39,-121,306,123
8700,264,-48,32,-44,314,133
8705,266,-44,35,6,328,135
8710,266,-40,33,27,341,137
8715,264,-34,37,29,351,135
8720,264,-31,33,16,357,138
8725,266,-29,42,-9,361,139
8730,267,-29,39,-44,367,142
8735,263,-27,38,-80,373,142
8740,262,-31,44,-107,375,144
8745,261,-32,46,-121,377,148
8750,261,-36,42,-120,375,153
8755,259,-34,45,-118,382,162
8760,258,-37,44,-111,402,171
8765,260,-33,45,-105,433,173
8770,259,-34,46,-92,468,177
8775,254,-34,52,-80,505,178
8780,255,-31,49,-80,536,180
8785,257,-34,49,-89,560,184
8790,246,-37,51,-97,577,188
8795,246,-44,54,-93,588,190
8800,249,-49,61,-81,590,191
8805,245,-46,53,-56,587,188
8810,248,-44,51,-32,580,184
8815,248,-46,49,-19,579,179
8820,251,-48,55,-18,577,168
8825,246,-53,61,-23,568,155
8830,248,-56,61,-18,556,139
8835,248,-57,70,0,542,127
8840,247,-57,72,30,536,121
8845,249,-55,72,58,549,113
8850,251,-56,69,70,579,104
8855,251,-54,68,71,616,90
8860,247,-51,66,63,655,77
8865,250,-46,67,53,690,64
8870,248,-41,63,41,717,54
8875,250,-35,73,22,727,50
8880,253,-33,78,-3,718,53
8885,252,-31,80,-36,697,52
8890,255,-29,76,-70,678,53
8895,250,-27,75,-101,662,57
8900,253,-22,78,-126,656,63
8905,252,-26,79,-150,656,71
8910,255,-28,77,-176,662,80
8915,252,-33,71,-199,680,85
8920,247,-34,69,-206,696,92
8925,247,-30,71,-210,698,105
8930,248,-29,79,-221,685,116
8935,249,-28,74,-237,664,122
8940,247,-26,73,-251,647,125
8945,250,-25,71,-255,648,130
8950,247,-17,70,-258,671,139
8955,247,-10,73,-268,704,154
8960,247,-8,76,-294,727,170
8965,242,-8,84,-329,736,176
8970,241,-7,85,-358,750,183
8975,243,-10,90,-375,784,192
8980,230,-9,84,-382,837,202
8985,229,-11,88,-389,891,218
8990,222,-12,90,-394,931,226
8995,214,-17,97,-409,948,234
9000,207,-17,98,-428,927,240
9005,204,-25,105,-450,891,251
9010,205,-25,109,-469,876,273
9015,201,-25,117,-482,867,289
9020,202,-29,120,-495,858,298
9025,208,-25,120,-514,855,305
9030,203,-24,119,-537,861,308
9035,202,-27,120,-557,883,308
9040,196,-26,121,-578,900,315
9045,193,-27,117,-603,903,320
9050,189,-31,118,-630,899,328
9055,180,-33,123,-661,890,331
9060,173,-43,134,-685,878,332
9065,167,-51,136,-697,878,334
9070,160,-55,138,-696,886,337
9075,156,-59,144,-691,881,340
9080,156,-65,145,-685,861,343
9085,153,-74,147,-675,830,339
9090,150,-79,150,-659,793,331
9095,147,-83,150,-636,758,318
9100,140,-83,157,-615,730,302
9105,133,-78,161,-604,699,297
9110,137,-88,155,-609,657,298
9115,143,-82,170,-627,601,303
9120,146,-91,165,-640,527,303
9125,153,-95,161,-641,448,303
9130,163,-93,145,-632,384,306
9135,168,-91,141,-626,342,309
9140,173,-92,133,-623,315,316
9145,186,-99,127,-622,291,321
9150,192,-109,129,-617,265,325
9155,197,-123,128,-583,232,329
9160,204,-135,119,-530,198,330
9165,215,-140,118,-468,169,329
9170,219,-140,107,-410,154,322
9175,219,-138,105,-371,158,304
9180,210,-133,103,-344,180,288
9185,205,-133,99,-324,205,269
9190,197,-124,104,-305,213,246
9195,192,-124,100,-281,212,237
9200,190,-120,104,-255,214,216
9205,201,-113,107,-233,218,193
9210,211,-109,105,-223,234,171
9215,217,-110,110,-212,259,141
9220,220,-113,112,-196,279,111
9225,229,-115,117,-179,291,77
9230,227,-120,114,-153,295,42
9235,222,-125,108,-116,291,10
9240,225,-131,101,-68,287,-11
9245,223,-134,99,-10,304,-26
9250,218,-126,101,59,338,-41
9255,214,-124,98,136,375,-64
9260,210,-116,97,205,415,-88
9265,206,-109,99,253,459,-107
9270,204,-100,106,281,505,-121
9275,204,-96,114,297,545,-133
9280,205,-90,119,297,576,-139
9285,205,-88,124,285,595,-144
9290,208,-84,128,275,603,-148
9295,212,-82,130,264,601,-142
9300,206,-75,131,258,601,-135
9305,208,-76,128,254,598,-125
9310,204,-73,130,254,595,-109
9315,200,-73,135,263,598,-87
9320,197,-71,136,267,595,-61
9325,191,-73,145,263,574,-40
9330,188,-81,162,258,543,-19
9335,185,-73,156,249,511,6
9340,180,-78,154,233,475,30
9345,174,-81,157,212,429,51
9350,174,-85,152,194,367,66
9355,174,-85,142,182,302,76
9360,174,-84,140,176,246,88
9365,174,-85,135,180,199,108
9370,173,-84,133,188,158,132
9375,168,-86,132,201,120,161
9380,170,-84,127,219,84,182
9385,171,-85,130,241,51,200
9390,170,-83,129,267,30,216
9395,174,-84,127,292,14,226
9400,173,-82,133,316,10,226
9405,175,-75,133,338,7,224
9410,176,-73,132,355,14,216
9415,180,-72,134,365,28,205
9420,183,-74,132,371,46,198
9425,184,-72,135,379,65,187
9430,184,-70,137,393,88,171
9435,186,-69,140,410,113,149
9440,185,-65,143,422,145,126
9445,189,-66,146,420,178,111
9450,184,-67,147,411,208,98
9455,184,-63,149,392,234,92
9460,180,-64,152,364,248,91
9465,181,-69,153,328,247,91
9470,180,-65,152,289,228,91
9475,181,-70,155,249,201,89
9480,184,-72,162,207,173,84
9485,184,-77,163,168,147,76
9490,187,-80,165,132,127,63
9495,190,-79,168,103,113,49
9500,191,-81,170,80,102,38
9505,190,-84,171,60,90,31
9510,190,-85,173,42,75,29
9515,189,-87,166,30,59,29
9520,187,-90,166,25,39,37
9525,188,-91,162,33,18,47
9530,189,-88,161,55,-6,58
9535,191,-88,154,84,-29,73
9540,189,-86,147,122,-44,93
9545,196,-93,148,169,-54,109
9550,198,-90,141,221,-64,122
9555,200,-88,146,280,-69,135
9560,201,-84,141,340,-76,146
9565,204,-81,138,399,-82,153
9570,206,-79,136,453,-83,162
9575,207,-71,137,499,-80,171
9580,211,-66,133,533,-68,180
9585,207,-63,136,551,-46,188
9590,210,-58,134,552,-15,194
9595,207,-58,137,542,20,195
9600,212,-56,135,530,61,197
9605,211,-56,143,516,108,199
9610,214,-58,147,503,159,204
9615,212,-59,153,492,205,208
9620,208,-63,157,480,240,212
9625,204,-71,160,475,261,214
9630,201,-81,162,485,267,212
9635,196,-90,165,508,255,205
9640,195,-96,163,551,238,192
9645,190,-105,161,612,218,172
9650,188,-111,163,686,188,149
9655,179,-120,162,765,152,128
9660,180,-121,163,844,112,108
9665,179,-127,169,920,70,89
9670,179,-125,172,991,23,66
9675,182,-126,174,1058,-22,43
9680,190,-125,178,1118,-59,21
9685,197,-119,171,1167,-82,2
9690,207,-108,173,1193,-81,-15
9695,219,-104,171,1198,-62,-30
9700,228,-90,176,1182,-23,-45
9705,240,-82,176,1150,29,-57
9710,250,-76,182,1112,94,-67
9715,260,-68,181,1082,172,-78
9720,261,-66,185,1055,255,-91
9725,261,-64,189,1027,340,-107
9730,259,-57,195,998,419,-119
9735,256,-57,193,968,496,-130
9740,259,-52,198,930,571,-136
9745,270,-53,197,884,640,-142
9750,278,-53,195,828,714,-142
9755,266,-52,188,768,809,-138
9760,253,-48,182,708,915,-129
9765,234,-49,179,651,1011,-118
9770,212,-50,169,601,1090,-109
9775,198,-56,168,563,1152,-98
9780,184,-55,160,548,1197,-87
9785,182,-59,162,560,1233,-78
9790,174,-58,160,597,1252,-75
9795,167,-57,163,656,1266,-68
9800,163,-56,164,721,1287,-52
9805,154,-49,159,780,1316,-25
9810,143,-41,163,826,1349,6
9815,139,-32,162,855,1380,33
9820,130,-24,165,862,1403,59
9825,124,-14,166,849,1410,89
9830,122,-7,167,827,1414,118
9835,119,-5,172,802,1414,148
9840,123,0,170,775,1413,176
9845,123,-3,165,742,1408,203
9850,120,2,161,720,1405,222
9855,119,3,161,704,1403,238
9860,117,9,158,688,1406,252
9865,116,10,157,671,1409,266
9870,115,11,151,652,1413,276
9875,108,16,152,627,1413,288
9880,109,14,144,594,1412,296
9885,106,24,144,555,1407,309
9890,99,27,139,510,1400,323
9895,94,30,136,462,1395,339
9900,98,32,128,407,1390,354
9905,95,40,131,352,1394,364
9910,90,46,126,296,1406,375
9915,84,47,124,239,1415,387
9920,83,52,126,176,1423,402
9925,80,54,118,110,1424,411
9930,80,52,122,40,1423,421
9935,80,46,124,-29,1416,429
9940,80,45,126,-89,1402,433
9945,79,37,137,-136,1383,437
9950,75,29,137,-169,1355,440
9955,71,21,140,-190,1319,436
9960,63,18,147,-203,1272,435
9965,65,12,151,-205,1221,433
9970,66,9,149,-210,1161,430
9975,70,9,145,-218,1091,422
9980,77,4,142,-241,1024,416
9985,74,13,145,-276,958,409
9990,74,13,148,-321,889,405
9995,79,12,156,-380,822,404
10000,86,14,157,-457,757,410
10005,98,12,164,-549,696,421
10010,111,9,174,-652,638,442
10015,128,2,179,-759,588,460
10020,139,-3,181,-861,557,479
10025,154,-6,188,-953,538,499
10030,175,-17,194,-1035,525,520
10035,190,-24,210,-1100,518,528
10040,209,-29,228,-1140,518,527
10045,226,-37,250,-1151,525,518
10050,255,-46,272,-1144,549,497
10055,295,-56,300,-1133,600,456
10060,356,-76,329,-1126,692,390
10065,416,-95,343,-1127,844,288
10070,438,-106,352,-1152,1060,169
10075,400,-130,340,-1210,1290,26
10080,336,-144,309,-1299,1432,-88
10085,254,-167,282,-1387,1423,-183
10090,166,-183,244,-1447,1272,-234
10095,98,-192,211,-1440,1039,-239
10100,64,-198,193,-1362,795,-216
10105,50,-196,175,-1223,593,-194
10110,45,-188,169,-1050,471,-186
10115,45,-175,168,-881,418,-188
10120,49,-157,172,-735,409,-198
10125,57,-143,177,-621,426,-204
10130,64,-130,188,-542,458,-199
10135,75,-121,193,-483,491,-190
10140,83,-111,199,-427,538,-186
10145,89,-100,199,-366,598,-185
10150,93,-89,204,-296,672,-188
10155,94,-77,208,-218,750,-183
10160,95,-71,210,-140,829,-170
10165,94,-59,209,-71,906,-155
10170,92,-52,206,-14,978,-138
10175,84,-45,207,29,1046,-124
10180,73,-43,212,66,1097,-111
10185,60,-35,220,90,1112,-96
10190,45,-34,233,109,1091,-85
10195,29,-32,245,127,1040,-73
10200,14,-39,263,134,970,-54
10205,0,-37,267,120,896,-31
10210,-7,-38,275,78,823,-12
10215,-17,-39,279,8,764,5
10220,-21,-46,276,-79,723,23
10225,-23,-50,275,-179,696,38
10230,-19,-52,272,-279,676,46
10235,-16,-57,264,-377,661,50
10240,-13,-62,258,-467,649,46
10245,-10,-67,256,-537,642,35
10250,-5,-80,249,-591,638,24
10255,-11,-90,252,-626,639,10
10260,-12,-103,246,-636,646,-1
10265,-14,-107,242,-625,651,-14
10270,-13,-109,235,-605,649,-30
10275,-12,-110,233,-584,647,-47
10280,-11,-110,226,-568,646,-61
10285,-9,-105,223,-559,647,-72
10290,-9,-102,220,-557,648,-77
10295,-9,-100,222,-560,647,-76
10300,-9,-97,222,-569,647,-62
10305,-8,-99,218,-582,647,-41
10310,-8,-94,224,-593,646,-17
10315,-5,-92,227,-602,639,7
10320,-2,-93,233,-602,631,32
10325,0,-97,232,-599,620,51
10330,1,-98,236,-588,604,69
10335,2,-96,235,-573,580,78
10340,6,-99,232,-557,547,84
10345,14,-97,231,-542,512,85
10350,18,-98,228,-522,477,82
10355,17,-97,229,-497,445,73
10360,17,-93,225,-469,417,68
10365,18,-95,226,-441,394,57
10370,21,-96,222,-412,375,44
10375,20,-93,221,-383,362,30
10380,24,-93,219,-356,353,11
10385,22,-93,215,-330,352,-12
10390,21,-95,215,-306,360,-35
10395,27,-95,212,-281,370,-58
10400,25,-94,215,-256,377,-78
10405,28,-97,215,-237,384,-101
10410,33,-99,211,-221,389,-127
10415,39,-103,216,-203,400,-151
10420,41,-100,208,-183,417,-172
10425,43,-102,208,-168,436,-189
10430,45,-102,212,-156,449,-201
10435,44,-103,211,-148,453,-210
10440,46,-100,207,-143,440,-217
10445,45,-100,215,-139,413,-219
10450,45,-98,213,-137,379,-223
10455,43,-99,213,-132,350,-226
10460,44,-102,214,-127,320,-226
10465,40,-99,217,-120,298,-226
10470,40,-102,212,-113,279,-223
10475,40,-96,211,-107,263,-220
10480,34,-96,215,-108,248,-220
10485,35,-98,216,-112,233,-216
10490,35,-96,217,-122,219,-210
10495,36,-95,220,-132,209,-203
10500,34,-98,216,-141,197,-192
10505,37,-100,221,-144,186,-185
10510,33,-99,224,-144,176,-179
10515,38,-105,226,-140,168,-172
10520,35,-105,223,-131,162,-165
10525,33,-98,223,-124,154,-159
10530,35,-108,222,-115,144,-152
10535,33,-107,225,-110,132,-147
10540,33,-109,225,-101,122,-142
10545,36,-112,226,-87,115,-135
10550,35,-111,221,-70,104,-129
10555,37,-112,223,-57,92,-122
10560,37,-110,219,-47,80,-115
10565,35,-109,218,-43,71,-109
10570,33,-110,212,-44,60,-100
10575,29,-107,215,-50,49,-92
10580,34,-107,211,-60,35,-85
10585,28,-105,214,-75,19,-73
10590,28,-110,212,-89,6,-61
10595,31,-110,210,-99,-2,-49
10600,26,-114,212,-101,-4,-38
10605,26,-118,210,-99,-3,-28
10610,24,-118,211,-94,-2,-17
10615,25,-119,211,-85,-3,-7
10620,28,-119,217,-71,-3,2
10625,23,-120,211,-59,-4,10
10630,28,-122,209,-48,-5,19
10635,25,-121,211,-35,-10,25
10640,23,-123,211,-20,-17,28
10645,23,-124,210,-3,-27,28
10650,28,-123,209,16,-36,29
10655,27,-121,207,36,-45,28
10660,26,-120,205,58,-55,26
10665,25,-119,207,76,-71,26
10670,29,-119,205,91,-84,28
10675,30,-118,203,97,-94,26
10680,30,-116,207,101,-103,26
10685,30,-114,207,96,-113,24
10690,30,-117,206,85,-122,24
10695,29,-117,209,72,-131,26
10700,31,-119,210,61,-137,26
10705,28,-118,206,54,-139,30
10710,26,-121,209,53,-141,32
10715,27,-122,209,58,-145,32
10720,26,-128,206,67,-149,33
10725,25,-128,205,84,-154,34
10730,22,-127,205,108,-163,33
10735,27,-128,197,140,-168,29
10740,28,-127,200,170,-175,21
10745,32,-132,195,200,-178,9
10750,28,-126,191,231,-178,-5
10755,27,-126,194,258,-183,-24
10760,27,-122,191,282,-188,-41
10765,26,-121,193,306,-199,-57
10770,24,-123,197,324,-211,-72
10775,19,-122,200,349,-227,-90
10780,19,-120,200,378,-244,-105
10785,20,-120,205,408,-266,-123
10790,19,-121,212,444,-294,-142
10795,20,-122,219,485,-325,-158
10800,21,-118,219,529,-353,-174
10805,26,-118,215,573,-386,-187
10810,29,-108,217,620,-415,-193
10815,34,-102,217,664,-444,-195
10820,39,-86,217,706,-464,-191
10825,45,-69,217,746,-471,-184
10830,58,-55,221,774,-457,-177
10835,67,-37,226,774,-414,-166
10840,76,-26,225,732,-343,-149
10845,83,-18,230,645,-254,-126
10850,91,-20,229,522,-161,-102
10855,90,-24,234,382,-74,-78
10860,90,-33,238,244,-7,-50
10865,86,-46,234,118,39,-23
10870,84,-57,236,18,64,5
10875,82,-65,238,-56,75,30
10880,78,-77,235,-101,76,53
10885,73,-87,236,-127,77,78
10890,71,-94,233,-129,78,103
10895,67,-97,234,-111,81,122
10900,66,-104,234,-76,87,136
10905,66,-104,231,-30,96,143
10910,65,-107,229,23,111,149
10915,64,-107,234,80,124,151
10920,62,-106,229,134,139,148
10925,63,-107,232,184,154,144
10930,61,-104,229,230,165,137
10935,57,-103,231,268,174,129
10940,54,-102,231,300,176,120
10945,56,-95,233,323,177,105
10950,54,-91,230,343,175,91
10955,56,-90,233,358,172,75
10960,56,-74,231,367,168,58
10965,55,-81,228,375,167,40
10970,56,-73,230,380,163,26
10975,59,-71,228,378,159,12
10980,62,-68,226,371,153,2
10985,62,-65,226,361,148,-6
10990,63,-62,230,348,143,-13
10995,64,-61,225,332,139,-18
11000,64,-62,226,313,134,-22
11005,64,-62,225,291,131,-23
11010,64,-63,228,270,126,-22
11015,67,-66,229,248,122,-22
11020,65,-65,223,227,119,-22
11025,70,-73,226,204,117,-22
11030,67,-72,229,183,115,-21
11035,68,-76,225,167,113,-22
11040,66,-78,225,159,111,-20
11045,65,-82,221,158,110,-16
11050,64,-83,222,166,107,-16
11055,62,-84,222,181,104,-14
11060,57,-85,222,203,105,-10
11065,56,-87,221,227,116,-7
11070,50,-85,223,255,131,-3
11075,54,-86,221,284,142,2
11080,50,-84,222,311,156,6
11085,49,-84,225,334,167,10
11090,47,-81,222,362,179,18
11095,47,-76,224,385,187,23
11100,44,-74,225,410,194,30
11105,43,-73,223,429,195,35
11110,45,-73,229,445,196,39
11115,46,-73,228,453,196,44
11120,45,-71,230,459,195,47
11125,48,-72,234,462,197,49
11130,49,-74,235,463,200,51
11135,50,-73,237,462,206,55
11140,48,-78,244,462,209,59
11145,48,-77,250,461,211,60
11150,48,-78,256,457,208,60
11155,47,-76,258,455,198,62
11160,45,-81,263,455,182,62
11165,45,-79,262,456,162,63
11170,47,-76,261,453,145,66
11175,44,-80,264,445,134,74
11180,48,-80,262,433,127,85
11185,46,-78,258,416,122,101
11190,49,-75,250,392,109,118
11195,51,-74,251,358,92,136
11200,48,-71,240,320,76,152
11205,47,-69,240,287,65,166
11210,45,-64,238,257,56,181
11215,42,-68,239,235,51,195
11220,39,-63,240,217,50,206
11225,44,-61,236,206,51,216
11230,38,-60,240,201,53,229
11235,39,-58,240,202,56,241
11240,37,-57,247,208,57,251
11245,34,-57,243,217,56,261
11250,32,-57,249,231,52,271
11255,22,-60,252,255,47,279
11260,24,-61,254,286,41,288
11265,25,-59,261,327,42,294
11270,21,-62,261,381,49,297
11275,22,-62,261,448,68,295
11280,22,-59,266,524,99,291
11285,25,-56,270,605,137,284
11290,25,-53,282,682,188,277
11295,29,-51,278,752,244,270
11300,29,-43,275,811,306,262
11305,32,-46,274,859,366,255
11310,29,-41,273,895,426,248
11315,34,-41,270,915,483,241
11320,38,-35,269,923,527,235
11325,42,-33,266,921,568,227
11330,46,-30,262,905,604,219
11335,46,-22,254,879,641,211
11340,47,-26,255,839,680,205
11345,43,-19,244,789,712,200
11350,44,-14,233,727,737,194
11355,35,-11,229,658,752,189
11360,37,-11,219,589,761,184
11365,36,-9,216,519,765,180
11370,40,-10,210,455,766,182
11375,40,-8,199,398,768,187
11380,37,-3,197,347,773,194
11385,36,-4,194,301,777,203
11390,35,1,193,262,779,215
11395,33,1,185,226,784,226
11400,29,1,182,192,789,239
11405,23,6,182,160,792,256
11410,21,8,176,133,788,270
11415,15,11,172,115,776,279
11420,15,12,169,100,763,289
11425,13,9,168,87,750,297
11430,7,10,167,72,739,301
11435,3,15,170,56,724,305
11440,2,14,170,38,702,308
11445,-1,11,170,15,679,308
11450,-6,15,175,-12,655,309
11455,-18,15,177,-40,628,308
11460,-23,12,179,-72,594,305
11465,-24,9,185,-111,548,300
11470,-28,9,186,-156,491,295
11475,-29,9,191,-204,432,288
11480,-31,6,191,-249,375,277
11485,-35,8,197,-295,314,262
11490,-38,8,197,-337,247,249
11495,-35,4,198,-380,177,234
11500,-34,3,200,-423,100,215
11505,-22,-5,198,-467,23,194
11510,0,-6,203,-510,-53,167
11515,7,-10,208,-551,-109,147
11520,11,-17,212,-588,-146,128
11525,12,-27,219,-617,-178,108
11530,11,-38,226,-637,-213,91
11535,10,-47,239,-649,-244,75
11540,18,-60,259,-653,-273,61
11545,24,-76,286,-646,-294,51
11550,31,-96,313,-620,-302,40
11555,38,-114,345,-571,-292,20
11560,34,-126,366,-492,-267,-6
11565,31,-141,382,-377,-220,-50
11570,24,-143,381,-229,-179,-103
11575,15,-141,380,-61,-149,-163
11580,16,-132,366,111,-144,-218
11585,22,-118,352,266,-168,-260
11590,20,-101,325,386,-214,-288
11595,29,-82,297,463,-265,-297
11600,39,-63,258,479,-300,-288
11605,54,-52,232,409,-310,-275
11610,62,-38,201,225,-300,-262
11615,68,-37,197,32,-271,-253
11620,66,-31,181,-157,-233,-247
11625,68,-33,175,-319,-192,-241
11630,64,-37,180,-439,-155,-234
11635,69,-46,183,-508,-126,-224
11640,65,-51,192,-526,-98,-213
11645,63,-53,202,-499,-73,-202
11650,58,-55,212,-434,-52,-186
11655,54,-54,220,-342,-37,-169
11660,43,-50,225,-238,-32,-155
11665,37,-43,232,-136,-36,-145
11670,26,-34,235,-39,-46,-138
11675,17,-28,241,47,-63,-129
11680,11,-17,247,117,-82,-121
11685,4,-14,249,162,-96,-115
11690,3,-7,257,179,-103,-111
11695,0,-2,261,171,-107,-108
11700,1,-3,263,143,-104,-107
11705,3,-3,267,104,-95,-106
11710,5,-6,270,58,-84,-110
11715,7,-10,273,7,-71,-113
11720,9,-23,274,-46,-59,-121
11725,12,-21,264,-98,-45,-129
11730,17,-28,266,-145,-32,-136
11735,18,-32,265,-187,-21,-146
11740,23,-39,263,-224,-13,-155
11745,24,-39,256,-256,-4,-163
11750,29,-45,253,-281,5,-169
11755,30,-50,243,-299,15,-176
11760,35,-51,242,-312,25,-176
11765,37,-55,239,-320,38,-175
11770,42,-56,235,-327,50,-174
11775,41,-56,232,-330,59,-166
11780,49,-60,233,-330,69,-158
11785,49,-59,230,-326,79,-148
11790,52,-58,235,-319,89,-138
11795,59,-62,233,-308,100,-129
11800,58,-61,237,-298,115,-118
11805,61,-60,238,-289,130,-104
11810,57,-61,240,-276,146,-89
11815,55,-62,240,-260,164,-73
11820,50,-62,234,-243,180,-58
11825,46,-58,238,-227,195,-44
11830,42,-55,241,-213,210,-30
11835,37,-55,239,-203,225,-19
11840,32,-54,237,-196,238,-8
11845,31,-51,235,-193,250,2
11850,25,-53,233,-191,259,10
11855,19,-51,234,-188,267,16
11860,15,-52,233,-179,272,21
11865,12,-53,235,-164,276,24
11870,7,-54,235,-146,280,25
11875,6,-54,235,-122,277,22
11880,1,-55,238,-94,271,18
11885,0,-54,240,-65,263,10
11890,-8,-52,243,-39,249,3
11895,-10,-55,239,-17,227,-7
11900,-16,-53,241,3,203,-16
11905,-11,-52,239,16,176,-27
11910,-15,-52,239,24,147,-34
11915,-12,-50,238,25,117,-41
11920,-14,-50,238,18,83,-46
11925,-13,-44,240,1,52,-48
11930,-8,-46,239,-23,21,-50
11935,-6,-45,243,-53,-9,-53
11940,0,-50,247,-88,-33,-53
11945,1,-49,250,-125,-53,-55
11950,9,-47,253,-167,-66,-59
11955,16,-49,256,-209,-73,-67
11960,21,-47,253,-255,-71,-78
11965,29,-50,257,-302,-58,-91
11970,37,-44,253,-350,-32,-102
11975,44,-43,253,-397,4,-112
11980,47,-40,252,-447,42,-119
11985,51,-39,251,-503,79,-122
11990,49,-36,248,-568,109,-124
11995,49,-36,244,-633,132,-120
