timestamp,acc_x,acc_y,acc_z,gyro_x,gyro_y,gyro_z
0,8,-70,227,14,74,1
5,9,-71,228,12,74,-1
10,11,-71,226,9,73,1
15,9,-71,228,6,73,-1
20,10,-71,229,2,71,1
25,11,-69,226,3,71,-2
30,9,-72,232,2,71,0
35,11,-70,227,1,71,-3
40,9,-70,229,1,72,-1
45,10,-72,226,1,70,-3
50,9,-72,228,1,71,-1
55,10,-71,227,0,70,-4
60,10,-71,230,1,69,-1
65,9,-69,230,0,67,-3
70,11,-73,227,-1,67,-2
75,10,-70,225,-3,66,-5
80,9,-71,226,-2,65,-2
85,7,-70,225,-2,66,-3
90,5,-69,227,-2,66,-1
95,7,-68,224,-1,63,-2
100,9,-69,226,0,65,1
105,10,-69,227,-1,65,-2
110,9,-70,228,0,66,1
115,9,-68,229,0,67,-1
120,10,-67,228,1,67,1
125,11,-70,228,2,67,-2
130,13,-70,226,4,66,0
135,10,-70,231,4,65,-1
140,8,-69,229,4,65,0
145,10,-70,226,3,64,-2
150,10,-70,226,5,64,-1
155,7,-69,231,5,65,-2
160,10,-73,229,6,64,0
165,8,-71,228,5,66,-1
170,7,-68,226,4,67,-1
175,9,-71,227,4,68,-1
180,9,-71,224,4,67,2
185,6,-69,229,5,69,-2
190,7,-68,226,3,70,1
195,10,-69,229,3,70,0
200,8,-71,231,4,70,0
205,10,-70,228,3,70,-2
210,8,-70,225,5,71,0
215,7,-68,224,6,72,-1
220,12,-70,230,4,71,0
225,10,-69,229,4,71,-1
230,9,-71,226,4,69,1
235,11,-69,229,3,68,0
240,8,-69,227,4,68,1
245,9,-70,229,5,67,0
250,10,-68,225,5,67,0
255,8,-69,225,5,66,0
260,9,-68,231,5,66,0
265,6,-71,230,3,68,0
270,9,-69,229,3,65,-1
275,8,-67,227,2,67,-2
280,10,-71,229,1,66,0
285,11,-71,227,0,65,-1
290,8,-72,227,-2,65,-1
295,8,-70,233,-3,64,-3
300,8,-67,230,-6,64,-3
305,7,-69,230,-5,64,-3
310,9,-72,227,-6,64,-1
315,10,-70,226,-4,63,0
320,6,-69,229,-4,66,-2
325,8,-70,230,-3,69,-2
330,9,-71,230,-2,70,-1
335,9,-68,230,-1,70,-1
340,7,-68,228,-1,73,-2
345,5,-69,230,-2,74,-1
350,8,-68,225,-3,73,-1
355,8,-67,228,-6,73,-1
360,4,-68,228,-9,73,-2
365,9,-68,230,-14,73,-2
370,8,-70,228,-15,73,-5
375,9,-69,229,-18,71,-4
380,8,-68,229,-18,70,-4
385,5,-68,229,-18,70,-4
390,9,-69,227,-19,69,-3
395,8,-70,228,-20,67,-1
400,7,-71,229,-21,62,-3
405,8,-69,230,-21,63,-1
410,5,-71,228,-20,59,-3
415,10,-72,225,-17,57,-2
420,8,-72,228,-13,55,-4
425,6,-71,229,-8,54,-1
430,6,-72,228,-2,52,-2
435,7,-70,230,4,52,-1
440,9,-70,222,8,54,0
445,8,-70,231,11,56,2
450,9,-68,228,13,58,-1
455,9,-68,228,16,59,1
460,9,-65,223,15,60,-1
465,11,-68,228,13,62,0
470,11,-67,229,8,64,-2
475,22,-66,219,5,64,0
480,11,-68,228,0,65,-1
485,5,-74,224,-5,65,1
490,18,-66,233,-8,65,-1
495,9,-68,230,-11,65,1
500,9,-54,217,-15,65,-1
505,6,-76,239,-16,65,1
510,15,-71,234,-16,65,-2
515,7,-68,235,-19,64,0
520,7,-74,221,-17,63,-3
525,14,-62,219,-18,60,0
530,11,-72,224,-17,60,-3
535,4,-69,233,-17,59,-1
540,7,-67,228,-14,58,-3
545,8,-68,231,-11,57,-1
550,13,-66,225,-7,55,-3
555,8,-72,219,-4,56,-1
560,6,-69,232,-1,55,-2
565,-3,-72,216,3,56,0
570,6,-69,216,5,58,-2
575,27,-72,232,8,58,1
580,5,-77,231,11,60,-1
585,10,-75,228,10,61,1
590,14,-68,226,10,63,-1
595,10,-68,230,10,64,1
600,11,-70,228,12,66,-1
605,9,-68,227,12,68,1
610,12,-70,230,11,69,-1
615,11,-72,231,13,70,1
620,11,-61,227,13,72,-3
625,5,-70,220,13,72,0
630,2,-60,223,13,73,-2
635,8,-69,236,11,72,2
640,8,-65,224,10,74,-3
645,15,-70,227,10,75,0
650,9,-66,225,10,72,-2
655,20,-51,210,10,72,1
660,10,-59,219,11,73,-2
665,5,-70,232,11,72,-1
670,7,-70,232,11,71,-3
675,5,-72,228,12,72,1
680,13,-67,219,10,73,-1
685,10,-70,226,11,71,2
690,7,-70,230,10,70,-1
695,6,-65,230,8,70,-1
700,18,-68,225,8,68,-2
705,10,-66,220,8,66,0
710,12,-76,240,8,66,-2
715,11,-65,199,7,65,0
720,13,-75,224,6,65,-3
725,1,-70,229,5,65,-1
730,12,-66,245,3,66,-2
735,8,-66,237,1,67,-1
740,11,-72,234,0,67,-2
745,10,-71,230,-1,67,-1
750,10,-71,225,-4,67,-3
755,11,-70,230,-5,68,0
760,7,-68,231,-6,67,-2
765,10,-69,231,-9,66,0
770,7,-69,228,-11,65,-2
775,9,-69,225,-11,65,0
780,11,-68,222,-9,65,-1
785,-5,-73,239,-7,63,0
790,2,-58,219,-6,64,-1
795,14,-64,217,-4,62,1
800,4,-74,229,-2,63,0
805,9,-72,233,-1,63,0
810,9,-67,228,3,63,-1
815,5,-63,232,6,62,1
820,19,-73,219,8,60,-3
825,9,-67,240,10,62,-1
830,1,-60,217,10,62,-3
835,9,-69,238,12,64,-1
840,8,-70,233,11,64,-3
845,13,-68,228,11,65,-2
850,0,-70,232,11,67,-1
855,11,-76,228,9,67,-1
860,-2,-66,216,10,67,-2
865,15,-67,222,8,68,-1
870,2,-87,237,6,68,-1
875,9,-71,222,6,68,-1
880,7,-58,230,5,69,0
885,11,-68,236,4,67,1
890,7,-70,226,4,67,1
895,8,-64,225,3,67,2
900,5,-72,233,3,67,0
905,6,-68,231,2,67,1
910,8,-69,228,1,65,1
915,9,-67,227,-1,65,0
920,4,-71,230,-1,65,0
925,5,-68,225,-2,63,0
930,10,-77,233,-2,64,-2
935,6,-66,234,-3,64,-1
940,9,-71,231,-3,64,-2
945,17,-71,236,-4,63,-2
950,8,-63,219,-3,67,-2
955,14,-73,234,-3,66,-3
960,19,-67,233,-4,66,-3
965,7,-67,232,-7,68,-2
970,12,-67,236,-9,68,-4
975,2,-66,227,-10,68,-2
980,15,-60,222,-13,66,-3
985,-5,-63,217,-17,67,-2
990,5,-65,227,-21,66,-3
995,8,-68,227,-23,64,-4
1000,7,-65,229,-26,63,-3
1005,1,-65,218,-27,61,-4
1010,10,-62,228,-27,60,-3
1015,21,-67,220,-27,59,-3
1020,8,-60,226,-25,58,-3
1025,15,-71,225,-24,57,-2
1030,4,-65,237,-21,56,-2
1035,6,-73,219,-18,55,-3
1040,6,-69,238,-13,53,-1
1045,5,-66,218,-10,52,-2
1050,13,-75,228,-5,52,-1
1055,6,-69,224,-1,54,-2
1060,2,-68,218,5,55,-2
1065,8,-68,222,12,55,-1
1070,7,-67,228,15,59,-1
1075,10,-68,224,18,62,-1
1080,8,-66,225,22,63,0
1085,4,-74,232,20,64,-1
1090,6,-62,220,20,65,1
1095,6,-69,230,18,68,0
1100,7,-62,222,17,66,1
1105,-4,-62,234,15,67,-2
1110,7,-67,239,14,68,0
1115,8,-60,228,12,68,-1
1120,2,-59,233,9,69,0
1125,16,-63,231,8,70,-1
1130,13,-69,235,5,69,0
1135,4,-53,221,3,67,-1
1140,8,-63,235,1,66,2
1145,12,-66,230,-2,66,-1
1150,7,-66,228,-3,65,1
1155,9,-63,211,-4,63,-1
1160,13,-68,223,-7,62,-1
1165,7,-73,232,-7,60,-2
1170,12,-63,233,-7,59,0
1175,9,-63,221,-8,58,-3
1180,13,-67,220,-8,56,-1
1185,12,-54,214,-5,56,-4
1190,0,-61,236,-6,56,-3
1195,11,-57,210,-6,55,-3
1200,7,-50,221,-3,56,-2
1205,4,-71,234,-3,58,-3
1210,26,-76,233,-3,59,-2
1215,11,-64,217,-4,59,-3
1220,3,-64,226,-4,58,-1
1225,7,-68,229,-2,61,-3
1230,5,-67,227,-4,61,-2
1235,6,-67,226,-3,62,-3
1240,3,-66,230,-1,62,-1
1245,7,-64,234,0,64,-4
1250,18,-66,223,1,62,-1
1255,14,-68,238,2,63,-2
1260,8,-65,226,3,64,-2
1265,10,-55,220,2,65,-3
1270,15,-55,239,3,66,0
1275,15,-65,225,2,67,-3
1280,4,-68,257,1,68,0
1285,7,-71,234,-3,66,-2
1290,9,-65,232,-4,68,0
1295,5,-74,241,-8,67,-3
1300,4,-76,233,-10,68,-1
1305,6,-69,226,-13,66,-5
1310,3,-83,239,-14,66,-3
1315,5,-51,227,-15,65,-5
1320,26,-65,219,-15,64,-4
1325,7,-65,224,-15,65,-6
1330,2,-66,232,-15,64,-3
1335,12,-65,226,-16,61,-5
1340,9,-79,236,-15,59,-1
1345,3,-81,230,-14,60,-4
1350,10,-60,224,-12,58,-1
1355,4,-61,228,-9,58,-4
1360,11,-62,235,-8,58,-1
1365,12,-66,230,-7,58,-2
1370,8,-72,232,-6,57,0
1375,8,-67,229,-3,57,-2
1380,7,-67,226,-3,58,0
1385,8,-65,230,-3,59,-1
1390,8,-65,231,-4,58,1
1395,6,-65,223,-7,59,-1
1400,8,-66,229,-10,59,0
1405,10,-67,229,-14,58,-1
1410,6,-66,229,-17,58,0
1415,7,-66,231,-20,57,-4
1420,7,-65,229,-23,57,-2
1425,7,-68,226,-26,56,-5
1430,5,-68,231,-29,56,-2
1435,5,-67,227,-30,56,-4
1440,5,-68,233,-30,55,-2
1445,6,-68,229,-29,56,-4
1450,7,-67,225,-29,57,-1
1455,5,-66,230,-28,59,-4
1460,6,-67,231,-25,59,-2
1465,3,-62,227,-25,60,-4
1470,8,-65,227,-27,61,-2
1475,6,-67,227,-27,60,-2
1480,8,-68,231,-26,60,-1
1485,7,-66,227,-26,60,-3
1490,4,-66,230,-25,61,0
1495,6,-68,233,-25,62,-1
1500,8,-67,230,-24,61,0
1505,5,-67,231,-22,59,-1
1510,6,-68,231,-21,60,0
1515,5,-68,225,-20,59,-2
1520,7,-67,228,-19,59,0
1525,5,-67,229,-18,56,-1
1530,5,-67,228,-16,56,-2
1535,13,-66,235,-17,57,-2
1540,6,-67,232,-19,56,-2
1545,5,-64,229,-21,55,-3
1550,7,-67,231,-23,54,-2
1555,7,-67,228,-24,54,-3
1560,6,-78,231,-24,53,-2
1565,7,-66,229,-27,54,-5
1570,6,-66,230,-30,56,-4
1575,5,-67,230,-31,57,-5
1580,8,-67,233,-34,58,-6
1585,5,-66,227,-36,59,-6
1590,7,-66,231,-38,61,-7
1595,8,-68,231,-40,61,-7
1600,5,-68,227,-41,63,-6
1605,1,-70,227,-43,62,-6
1610,9,-68,229,-44,62,-5
1615,8,-67,232,-46,63,-5
1620,9,-68,231,-49,64,-3
1625,8,-67,230,-51,64,-6
1630,3,-66,225,-48,62,-6
1635,9,-68,226,-49,61,-5
1640,7,-68,231,-46,61,-5
1645,9,-68,229,-45,61,-5
1650,6,-68,227,-42,58,-5
1655,15,-59,229,-42,55,-6
1660,5,-67,226,-42,52,-6
1665,7,-69,226,-41,50,-5
1670,6,-68,230,-39,47,-5
1675,6,-70,229,-38,45,-5
1680,6,-68,226,-33,46,-6
1685,8,-68,229,-30,47,-5
1690,8,-68,228,-27,47,-4
1695,5,-68,227,-25,50,-4
1700,-2,-64,231,-24,51,-4
1705,8,-67,229,-25,52,-3
1710,8,-67,228,-26,52,-4
1715,4,-64,228,-28,54,-2
1720,8,-67,227,-30,55,-3
1725,6,-66,227,-33,56,-1
1730,8,-65,230,-36,54,-2
1735,10,-66,229,-36,55,-1
1740,8,-67,225,-38,54,-2
1745,10,-64,228,-40,55,-1
1750,10,-67,227,-41,55,-1
1755,8,-66,226,-42,54,-2
1760,9,-67,228,-44,55,-3
1765,8,-67,229,-44,55,-2
1770,7,-67,227,-45,55,-2
1775,11,-75,214,-46,52,-1
1780,11,-68,232,-46,52,-4
1785,9,-68,228,-45,53,-2
1790,11,-70,227,-45,50,-3
1795,8,-70,224,-43,48,-3
1800,14,-70,224,-41,48,-5
1805,8,-69,228,-40,48,-4
1810,7,-69,227,-39,47,-5
1815,6,-70,225,-35,46,-3
1820,5,-69,228,-32,45,-5
1825,2,-84,231,-30,45,-4
1830,5,-69,231,-27,46,-5
1835,10,-69,231,-25,46,-2
1840,9,-69,228,-25,46,-4
1845,7,-70,229,-24,46,-4
1850,8,-64,213,-23,48,-5
1855,7,-68,223,-22,52,-4
1860,6,-69,228,-22,52,-6
1865,8,-68,232,-25,55,-5
1870,7,-69,230,-25,57,-6
1875,8,-66,227,-26,57,-3
1880,9,-68,231,-28,58,-7
1885,8,-66,224,-32,59,-4
1890,8,-67,227,-35,59,-6
1895,6,-69,225,-36,59,-4
1900,8,-69,225,-39,59,-5
1905,7,-68,227,-41,58,-3
1910,6,-68,226,-43,60,-6
1915,9,-69,229,-43,58,-4
1920,9,-70,229,-46,59,-7
1925,5,-68,229,-45,57,-5
1930,10,-70,229,-45,57,-8
1935,7,-71,229,-43,57,-4
1940,6,-71,231,-41,55,-7
1945,10,-71,229,-37,54,-6
1950,8,-69,228,-36,55,-8
1955,8,-69,226,-33,55,-5
1960,9,-70,227,-31,54,-7
1965,5,-67,227,-27,55,-4
1970,7,-67,228,-26,55,-5
1975,11,-69,224,-25,55,-4
1980,11,-68,228,-24,53,-5
1985,10,-71,225,-24,52,-2
1990,9,-68,229,-23,52,-4
1995,9,-69,226,-27,51,-2
2000,9,-69,226,-27,50,-4
2005,11,-69,227,-29,50,-2
2010,10,-71,227,-31,48,-5
2015,8,-70,230,-32,46,-1
2020,8,-67,228,-35,46,-4
2025,10,-69,225,-36,45,-1
2030,10,-68,230,-36,44,-4
2035,11,-70,227,-38,44,-4
2040,9,-70,229,-38,45,-7
2045,8,-71,227,-38,45,-5
2050,11,-69,225,-37,46,-8
2055,6,-71,225,-36,47,-6
2060,9,-70,228,-35,47,-9
2065,10,-70,227,-34,49,-7
2070,9,-70,226,-32,52,-8
2075,9,-70,226,-29,54,-6
2080,9,-70,227,-27,54,-7
2085,9,-70,228,-26,58,-4
2090,8,-69,225,-22,60,-6
2095,9,-70,224,-21,63,-3
2100,6,-68,229,-21,63,-4
2105,13,-69,227,-21,64,-1
2110,7,-69,228,-21,65,-4
2115,9,-68,226,-20,65,-1
2120,8,-69,228,-20,63,-3
2125,7,-70,226,-21,60,-1
2130,10,-70,229,-23,57,-3
2135,7,-69,228,-25,55,-2
2140,8,-68,229,-27,51,-4
2145,7,-70,225,-29,48,-2
2150,6,-70,226,-31,45,-5
2155,7,-70,228,-33,43,-3
2160,7,-69,226,-36,44,-4
2165,9,-69,227,-38,42,-4
2170,7,-71,226,-39,41,-6
2175,6,-71,227,-41,43,-4
2180,6,-68,228,-42,42,-5
2185,9,-73,232,-42,44,-3
2190,9,-71,229,-43,44,-5
2195,8,-70,232,-42,46,-4
2200,11,-72,229,-40,48,-6
2205,8,-70,231,-37,50,-5
2210,6,-72,228,-36,52,-5
2215,10,-71,227,-35,54,-4
2220,6,-70,231,-33,56,-5
2225,8,-70,228,-31,56,-4
2230,10,-69,230,-31,57,-5
2235,11,-70,227,-33,60,-4
2240,11,-69,230,-36,60,-6
2245,11,-72,231,-39,57,-5
2250,11,-69,233,-43,53,-8
2255,7,-71,233,-46,50,-5
2260,5,-72,231,-45,50,-4
2265,-1,-73,240,-46,51,0
2270,-2,-71,242,-51,56,4
2275,4,-75,239,-58,67,10
2280,4,-75,244,-66,87,13
2285,12,-74,242,-70,122,17
2290,9,-71,239,-70,157,20
2295,10,-73,239,-71,195,21
2300,14,-72,242,-75,233,19
2305,19,-74,235,-81,271,18
2310,22,-73,234,-94,308,14
2315,25,-77,234,-110,344,11
2320,28,-80,230,-130,383,5
2325,31,-80,226,-149,420,2
2330,39,-86,229,-160,459,-2
2335,39,-91,225,-176,505,-7
2340,40,-95,220,-189,547,-15
2345,41,-94,222,-198,591,-27
2350,39,-96,221,-215,636,-47
2355,42,-96,215,-233,673,-69
2360,41,-97,215,-259,691,-94
2365,38,-93,220,-289,692,-122
2370,29,-89,217,-327,676,-150
2375,19,-81,216,-371,641,-180
2380,4,-81,219,-424,577,-212
2385,-6,-69,217,-490,503,-240
2390,-14,-64,223,-558,412,-266
2395,-27,-55,221,-641,298,-284
2400,-39,-44,226,-740,159,-297
2405,-48,-39,233,-857,-4,-310
2410,-51,-34,237,-985,-193,-320
2415,-53,-32,235,-1109,-398,-324
2420,-55,-35,231,-1221,-606,-323
2425,-43,-44,228,-1298,-791,-320
2430,-28,-58,226,-1317,-923,-310
2435,-13,-70,226,-1232,-926,-290
2440,5,-90,236,-1055,-836,-269
2445,17,-107,244,-782,-684,-252
2450,16,-123,250,-431,-510,-245
2455,12,-122,249,-49,-369,-236
2460,10,-118,244,313,-286,-226
2465,8,-112,238,593,-256,-222
2470,6,-101,233,767,-260,-217
2475,6,-91,224,824,-285,-221
2480,5,-77,213,737,-331,-220
2485,4,-74,201,561,-376,-220
2490,-3,-70,185,335,-420,-218
2495,-6,-76,181,106,-456,-207
2500,-12,-83,172,-91,-478,-189
2505,-28,-89,178,-229,-491,-164
2510,-46,-96,192,-311,-508,-135
2515,-60,-103,206,-349,-554,-116
2520,-65,-114,215,-350,-628,-101
2525,-68,-120,222,-323,-700,-94
2530,-66,-126,217,-275,-743,-88
2535,-65,-127,205,-228,-719,-80
2540,-67,-125,194,-178,-649,-64
2545,-64,-129,187,-108,-553,-43
2550,-58,-131,176,-32,-452,-21
2555,-58,-133,176,28,-359,-10
2560,-50,-131,183,81,-308,-3
2565,-44,-130,204,134,-310,-5
2570,-46,-126,217,179,-369,-9
2575,-40,-124,231,206,-471,-16
2580,-28,-123,241,233,-562,-14
2585,-23,-121,244,270,-652,-14
2590,-12,-113,248,313,-746,-16
2595,-9,-106,250,358,-846,-21
2600,0,-95,247,394,-946,-18
2605,9,-83,253,410,-1032,-19
2610,13,-72,252,406,-1098,-15
2615,19,-68,254,389,-1139,-6
2620,28,-63,247,368,-1152,30
2625,39,-61,244,354,-1136,66
2630,48,-59,240,354,-1090,110
2635,51,-56,228,352,-1025,152
2640,56,-51,222,339,-960,197
2645,63,-48,218,301,-910,239
2650,67,-48,212,252,-880,282
2655,73,-50,214,204,-873,314
2660,78,-57,210,169,-880,353
2665,82,-64,207,151,-885,382
2670,86,-73,204,153,-877,424
2675,92,-77,206,167,-848,453
2680,95,-81,211,180,-806,476
2685,95,-80,217,194,-765,488
2690,104,-82,220,208,-729,500
2695,109,-81,227,227,-699,503
2700,118,-79,226,255,-664,510
2705,126,-73,227,289,-636,513
2710,132,-68,222,321,-608,521
2715,131,-62,219,340,-581,528
2720,132,-58,210,342,-562,545
2725,128,-59,203,317,-555,550
2730,137,-59,196,281,-549,552
2735,132,-60,196,255,-538,544
2740,131,-58,194,234,-522,537
2745,128,-57,191,212,-505,525
2750,122,-53,195,167,-495,521
2755,122,-60,189,114,-488,513
2760,124,-67,190,78,-483,513
2765,129,-71,188,78,-461,513
2770,135,-77,186,113,-408,517
2775,143,-74,191,139,-354,517
2780,144,-75,188,135,-299,518
2785,143,-75,193,105,-247,514
2790,135,-77,193,65,-200,515
2795,134,-82,192,43,-158,507
2800,131,-85,197,40,-114,499
2805,126,-87,201,45,-71,485
2810,122,-85,199,48,-35,475
2815,121,-91,199,39,-13,459
2820,117,-94,197,13,-12,450
2825,117,-105,193,-4,-17,435
2830,113,-116,188,5,-21,418
2835,111,-126,186,46,-16,389
2840,104,-134,185,105,1,362
2845,98,-135,183,174,31,325
2850,91,-137,181,237,71,291
2855,82,-134,186,292,115,250
2860,74,-130,195,349,159,219
2865,68,-126,200,409,219,181
2870,65,-120,211,470,273,160
2875,56,-110,225,508,322,135
2880,55,-111,228,532,360,114
2885,56,-105,236,539,386,84
2890,56,-102,245,524,414,55
2895,62,-104,245,502,448,18
2900,64,-108,248,484,487,-20
2905,63,-110,249,478,527,-65
2910,62,-106,252,483,560,-123
2915,63,-106,248,507,588,-181
2920,66,-105,240,544,611,-240
2925,63,-98,231,587,637,-304
2930,62,-86,224,632,659,-362
2935,57,-77,228,667,667,-422
2940,52,-71,226,690,651,-480
2945,42,-70,237,700,611,-542
2950,31,-64,242,700,541,-601
2955,19,-66,251,695,447,-664
2960,3,-66,262,682,306,-738
2965,-14,-65,262,652,172,-805
2970,-31,-68,264,615,28,-867
2975,-39,-66,266,577,-109,-925
2980,-40,-70,271,548,-237,-971
2985,-32,-74,271,538,-346,-1015
2990,-22,-75,266,548,-438,-1048
2995,-13,-75,261,577,-513,-1078
3000,-8,-68,252,616,-572,-1096
3005,6,-65,247,654,-629,-1110
3010,14,-68,244,690,-719,-1117
3015,20,-67,238,729,-820,-1126
3020,31,-64,240,752,-944,-1135
3025,42,-63,238,760,-1070,-1155
3030,46,-64,231,756,-1192,-1177
3035,46,-65,222,740,-1305,-1201
3040,49,-63,219,723,-1416,-1224
3045,52,-66,216,712,-1526,-1249
3050,55,-65,217,706,-1635,-1270
3055,57,-65,213,707,-1731,-1293
3060,61,-66,210,720,-1827,-1303
3065,63,-64,199,735,-1879,-1305
3070,67,-56,194,745,-1907,-1293
3075,71,-44,182,736,-1913,-1275
3080,79,-32,170,699,-1904,-1252
3085,87,-19,171,640,-1887,-1228
3090,96,-7,173,563,-1871,-1206
3095,102,2,172,475,-1860,-1188
3100,105,10,177,379,-1862,-1170
3105,112,13,181,277,-1881,-1152
3110,117,16,190,155,-1913,-1135
3115,123,21,201,63,-1965,-1118
3120,126,17,200,-14,-2030,-1094
3125,129,14,202,-85,-2111,-1069
3130,136,13,200,-149,-2198,-1038
3135,135,6,198,-208,-2280,-1006
3140,130,2,194,-257,-2373,-971
3145,126,-3,184,-296,-2480,-930
3150,122,-7,176,-314,-2597,-871
3155,121,-19,163,-295,-2738,-817
3160,125,-25,144,-241,-2853,-764
3165,121,-29,133,-174,-2959,-723
3170,115,-29,123,-109,-3049,-695
3175,112,-29,116,-56,-3124,-679
3180,104,-30,108,-25,-3177,-684
3185,96,-30,109,-13,-3221,-703
3190,94,-27,109,-10,-3244,-728
3195,87,-25,104,0,-3228,-748
3200,75,-19,98,29,-3153,-751
3205,69,-8,95,75,-3059,-737
3210,67,3,94,103,-2946,-713
3215,67,15,97,117,-2836,-674
3220,75,33,95,111,-2741,-623
3225,87,53,90,95,-2666,-556
3230,100,64,83,67,-2622,-477
3235,110,73,79,24,-2613,-386
3240,116,82,73,-36,-2637,-291
3245,130,79,68,-112,-2681,-186
3250,150,72,56,-185,-2746,-61
3255,163,65,52,-251,-2796,39
3260,182,58,45,-275,-2828,122
3265,200,47,35,-278,-2827,190
3270,214,37,34,-259,-2784,247
3275,225,28,38,-235,-2697,301
3280,241,20,39,-213,-2570,349
3285,252,9,45,-201,-2401,392
3290,258,2,55,-208,-2212,422
3295,273,-4,72,-237,-1990,452
3300,282,-15,101,-282,-1664,464
3305,307,-21,141,-316,-1331,483
3310,353,-27,180,-350,-908,499
3315,395,-27,218,-389,-388,518
3320,435,-27,249,-424,187,509
3325,456,-26,260,-447,730,456
3330,473,-26,265,-461,1147,352
3335,460,-25,250,-460,1358,215
3340,441,-25,228,-449,1332,46
3345,416,-18,207,-437,1062,-152
3350,394,-1,188,-432,767,-266
3355,371,7,173,-386,485,-333
3360,322,22,159,-286,229,-375
3365,289,32,149,-165,4,-395
3370,242,49,139,-48,-198,-398
3375,201,63,118,47,-378,-377
3380,173,83,110,110,-539,-348
3385,142,104,99,118,-674,-302
3390,122,121,90,60,-783,-222
3395,105,128,92,-99,-888,-126
3400,94,138,95,-292,-967,-11
3405,93,131,109,-526,-1036,127
3410,95,119,123,-759,-1078,265
3415,101,93,142,-964,-1066,391
3420,106,70,171,-1115,-995,476
3425,112,47,191,-1213,-884,524
3430,121,28,211,-1258,-761,523
3435,128,11,214,-1239,-631,498
3440,134,-1,212,-1157,-477,453
3445,144,-12,194,-982,-350,428
3450,156,-16,178,-768,-224,412
3455,197,-4,155,-517,-120,422
3460,251,0,122,-269,-82,475
3465,302,-7,77,-38,-147,554
3470,349,-31,18,173,-317,621
3475,384,-56,-35,395,-550,679
3480,425,-75,-93,641,-771,702
3485,448,-94,-151,845,-912,696
3490,453,-85,-181,979,-944,632
3495,436,-62,-194,954,-869,534
3500,414,-25,-183,799,-701,415
3505,387,1,-145,570,-476,312
3510,366,19,-108,357,-246,234
3515,344,25,-61,188,-32,199
3520,325,24,-21,75,148,172
3525,309,12,10,15,278,155
3530,293,4,41,-7,365,133
3535,278,-7,52,-1,443,120
3540,262,-20,71,27,505,116
3545,250,-33,79,58,549,121
3550,240,-40,83,96,568,121
3555,225,-52,85,136,558,124
3560,214,-56,82,178,518,116
3565,205,-64,83,207,459,106
3570,203,-66,79,226,387,91
3575,209,-69,74,238,313,82
3580,215,-70,71,244,246,70
3585,223,-73,73,246,184,62
3590,225,-74,68,241,150,51
3595,233,-75,68,230,127,45
3600,239,-79,76,216,110,36
3605,243,-81,81,205,102,32
3610,244,-83,86,209,100,26
3615,244,-82,83,225,108,26
3620,246,-87,88,256,124,23
3625,242,-84,90,294,143,27
3630,244,-85,96,340,154,25
3635,241,-79,98,400,159,27
3640,242,-79,97,449,153,22
3645,242,-72,100,498,148,21
3650,235,-69,98,545,149,15
3655,235,-60,99,589,154,13
3660,233,-56,96,627,156,7
3665,234,-46,94,651,150,4
3670,240,-40,89,658,138,-4
3675,240,-29,90,649,121,-12
3680,242,-21,86,624,89,-28
3685,244,-14,83,580,53,-38
3690,244,-6,77,532,17,-54
3695,243,-4,77,473,-20,-68
3700,243,2,76,407,-56,-84
3705,239,2,78,334,-92,-95
3710,241,9,76,260,-118,-107
3715,241,9,75,188,-126,-114
3720,236,10,72,125,-117,-122
3725,238,11,74,69,-88,-123
3730,238,10,74,13,-36,-126
3735,238,9,73,-23,14,-123
3740,236,9,74,-50,64,-121
3745,232,8,76,-66,100,-114
3750,232,8,76,-73,120,-109
3755,238,10,80,-71,128,-100
3760,238,13,78,-61,128,-93
3765,244,13,77,-48,128,-83
3770,243,12,75,-35,124,-77
3775,247,15,79,-30,121,-67
3780,246,13,76,-35,112,-63
3785,249,14,81,-48,94,-57
3790,247,15,81,-66,70,-53
3795,250,19,84,-90,42,-45
3800,252,13,85,-115,14,-40
3805,255,11,85,-138,-10,-37
3810,258,10,85,-159,-28,-37
3815,258,2,78,-178,-36,-43
3820,258,-1,76,-198,-39,-62
3825,252,-3,71,-225,-32,-80
3830,253,-5,67,-256,-19,-105
3835,247,-7,65,-287,-3,-130
3840,239,-7,66,-319,15,-158
3845,236,-11,65,-352,34,-185
3850,230,-14,63,-383,55,-211
3855,223,-11,67,-409,78,-232
3860,217,-8,68,-428,99,-247
3865,219,-6,71,-440,115,-255
3870,225,-10,65,-441,125,-256
3875,233,-5,64,-428,138,-252
3880,237,-12,68,-407,159,-250
3885,244,-13,67,-382,181,-245
3890,247,-14,71,-353,202,-242
3895,245,-14,71,-323,220,-240
3900,250,-20,76,-297,223,-238
3905,251,-19,81,-273,208,-240
3910,251,-19,82,-252,182,-242
3915,251,-19,80,-235,147,-242
3920,249,-21,79,-221,107,-241
3925,250,-19,84,-213,81,-233
3930,251,-25,89,-207,64,-222
3935,250,-17,91,-201,58,-213
3940,248,-20,91,-194,59,-204
3945,248,-18,96,-188,67,-192
3950,246,-15,100,-181,75,-179
3955,245,-12,101,-170,81,-164
3960,245,-15,101,-161,81,-149
3965,244,-10,101,-151,79,-132
3970,244,-11,98,-144,73,-121
3975,244,-8,97,-141,68,-110
3980,241,-10,97,-142,57,-102
3985,244,-11,97,-143,45,-98
3990,242,-9,90,-147,30,-96
3995,240,-13,90,-151,11,-94
4000,239,-13,94,-151,-12,-95
4005,237,-9,92,-153,-34,-100
4010,234,-8,86,-157,-52,-101
4015,235,-6,89,-160,-70,-104
4020,238,-8,91,-164,-80,-105
4025,237,-10,90,-164,-90,-107
4030,235,-6,87,-164,-98,-109
4035,236,-5,84,-163,-107,-112
4040,241,-4,89,-161,-115,-111
4045,242,-8,84,-159,-124,-111
4050,241,-4,87,-154,-131,-109
4055,243,-4,81,-150,-141,-106
4060,243,-4,85,-146,-153,-102
4065,244,-7,81,-142,-163,-99
4070,244,-6,83,-138,-171,-96
4075,245,-7,80,-133,-177,-93
4080,244,-9,81,-126,-186,-90
4085,244,-10,80,-117,-194,-90
4090,244,-9,76,-107,-201,-88
4095,241,-14,80,-94,-206,-91
4100,241,-12,77,-81,-214,-91
4105,243,-12,76,-66,-217,-94
4110,237,-15,73,-49,-219,-96
4115,241,-18,72,-32,-221,-98
4120,238,-16,73,-18,-225,-99
4125,240,-17,74,-1,-231,-98
4130,239,-15,76,9,-239,-97
4135,239,-15,75,20,-245,-97
4140,240,-12,73,28,-254,-94
4145,239,-8,73,33,-261,-95
4150,244,-7,75,37,-268,-91
4155,246,-5,82,38,-276,-90
4160,247,-4,70,38,-287,-87
4165,246,-4,77,33,-298,-88
4170,250,-3,71,27,-314,-85
4175,253,-1,72,21,-330,-86
4180,252,-2,70,13,-350,-83
4185,254,-2,70,4,-366,-85
4190,256,-3,65,-2,-380,-83
4195,255,-4,64,-7,-388,-86
4200,254,-4,65,-11,-391,-85
4205,249,-4,68,-14,-390,-88
4210,246,-4,62,-17,-390,-89
4215,244,-4,67,-20,-388,-90
4220,242,-4,67,-22,-386,-88
4225,242,-6,67,-21,-386,-87
4230,241,-4,65,-19,-386,-82
4235,238,-10,68,-16,-384,-80
4240,239,-5,66,-11,-380,-74
4245,240,-5,61,-5,-372,-72
4250,243,-9,58,0,-366,-66
4255,243,-4,66,5,-356,-67
4260,242,-8,60,10,-350,-65
4265,242,-8,58,11,-345,-70
4270,243,-4,60,14,-343,-69
4275,242,-4,62,15,-343,-74
4280,242,-4,54,17,-343,-74
4285,244,-4,55,18,-342,-79
4290,244,-5,53,18,-341,-79
4295,243,-3,51,20,-338,-83
4300,245,-3,50,21,-333,-86
4305,244,-2,43,21,-331,-90
4310,247,-2,46,20,-325,-89
4315,246,0,43,19,-316,-95
4320,249,2,41,14,-308,-96
4325,246,3,39,10,-298,-101
4330,248,4,39,2,-289,-100
4335,248,4,36,-5,-281,-105
4340,251,6,33,-13,-272,-104
4345,253,4,34,-23,-263,-108
4350,256,4,37,-35,-248,-108
4355,257,7,37,-43,-232,-111
4360,259,3,34,-51,-218,-110
4365,261,6,38,-57,-205,-113
4370,261,6,41,-60,-192,-109
4375,263,5,38,-61,-180,-112
4380,262,8,36,-56,-171,-108
4385,265,7,38,-52,-162,-106
4390,266,7,39,-46,-156,-98
4395,268,6,36,-39,-150,-93
4400,265,8,42,-34,-149,-84
4405,267,8,42,-29,-148,-82
4410,268,5,41,-23,-149,-74
4415,270,5,42,-17,-154,-73
4420,269,9,39,-12,-156,-69
4425,268,5,40,-9,-153,-68
4430,265,8,39,-6,-150,-64
4435,265,10,38,-3,-146,-64
4440,264,9,40,-1,-141,-60
4445,260,12,37,-3,-135,-61
4450,261,10,36,-5,-131,-56
4455,258,12,35,-9,-126,-55
4460,258,11,33,-15,-123,-49
4465,260,13,37,-21,-120,-49
4470,261,15,32,-28,-118,-47
4475,259,12,34,-37,-115,-49
4480,259,15,32,-46,-114,-45
4485,259,11,30,-55,-111,-45
4490,258,12,31,-64,-102,-40
4495,261,15,26,-78,-98,-41
4500,258,14,30,-88,-91,-35
4505,261,11,28,-97,-86,-33
4510,261,8,25,-104,-83,-25
4515,263,8,31,-109,-77,-21
4520,264,6,29,-113,-73,-14
4525,264,5,32,-115,-71,-11
4530,260,3,32,-119,-65,-6
4535,258,3,32,-123,-62,-4
4540,258,-1,33,-128,-55,0
4545,258,3,35,-135,-52,1
4550,258,0,35,-141,-48,5
4555,258,0,34,-142,-43,5
4560,259,-1,31,-142,-38,8
4565,255,-1,37,-137,-31,10
4570,259,-2,33,-130,-25,14
4575,257,-1,30,-120,-18,15
4580,260,-1,31,-109,-14,18
4585,262,-4,33,-98,-7,15
4590,261,-2,34,-86,-3,16
4595,262,-3,26,-79,1,10
4600,261,-4,29,-72,4,6
4605,262,-1,29,-71,7,-1
4610,262,-4,26,-70,8,-7
4615,261,-3,26,-71,11,-13
4620,262,-4,27,-73,10,-17
4625,264,-5,31,-74,10,-22
4630,261,-5,30,-73,10,-25
4635,259,-4,28,-67,10,-30
4640,261,-4,31,-61,13,-29
4645,262,-5,27,-53,13,-33
4650,260,-2,31,-42,15,-31
4655,262,-3,28,-32,20,-31
4660,259,0,28,-23,25,-31
4665,262,-1,27,-15,31,-31
4670,257,4,24,-7,38,-29
4675,259,5,27,0,41,-27
4680,258,6,33,4,49,-23
4685,254,9,28,4,55,-21
4690,255,8,32,2,62,-18
4695,257,8,30,-4,68,-15
4700,256,11,29,-14,75,-12
4705,256,5,33,-23,82,-9
4710,256,8,32,-34,88,-5
4715,254,8,30,-46,92,-3
4720,254,6,34,-54,94,-2
4725,253,2,33,-59,97,0
4730,255,-1,32,-66,101,1
4735,253,0,37,-68,101,4
4740,256,-3,34,-67,101,5
4745,254,-1,32,-66,102,5
4750,256,-3,37,-59,100,4
4755,256,-3,35,-51,96,6
4760,256,1,36,-41,94,5
4765,255,-2,36,-30,89,5
4770,258,0,31,-21,84,5
4775,256,-1,32,-14,81,6
4780,260,3,33,-5,79,3
4785,257,3,34,-2,77,4
4790,258,3,30,-2,79,2
4795,261,5,31,-1,78,4
4800,259,4,30,-5,79,2
4805,259,5,31,-8,79,2
4810,258,6,34,-10,82,0
4815,259,5,33,-14,83,1
4820,258,8,35,-17,82,3
4825,259,6,35,-15,84,3
4830,260,7,32,-14,86,7
4835,259,5,32,-10,88,8
4840,258,4,31,-7,92,9
4845,257,4,31,-4,93,11
4850,257,2,27,0,95,9
4855,259,0,31,1,95,11
4860,255,0,32,1,96,7
4865,257,-1,32,-2,98,9
4870,256,-1,33,-3,97,6
4875,253,0,34,-4,98,6
4880,252,-1,36,-4,97,4
4885,251,1,35,-3,97,4
4890,252,-2,30,-4,97,3
4895,254,0,35,-3,96,4
4900,252,-2,35,-4,96,2
4905,254,0,35,1,97,4
4910,255,1,41,2,97,4
4915,255,-1,37,5,98,4
4920,254,0,34,8,101,2
4925,255,0,36,9,105,4
4930,253,5,33,7,106,2
4935,252,5,37,4,106,2
4940,256,2,36,1,107,-2
4945,254,6,29,-4,108,-2
4950,256,6,33,-8,110,-5
4955,255,5,32,-13,112,-5
4960,253,6,34,-19,112,-9
4965,256,3,34,-25,113,-11
4970,255,5,37,-32,113,-14
4975,253,1,34,-36,113,-14
4980,251,4,35,-38,112,-14
4985,255,4,34,-41,111,-13
4990,254,3,38,-42,109,-13
4995,253,2,38,-41,108,-11
5000,256,1,38,-38,107,-13
5005,255,2,35,-35,107,-9
5010,256,0,37,-31,104,-10
5015,255,-3,34,-27,101,-9
5020,255,-2,38,-20,99,-12
5025,257,0,38,-15,100,-10
5030,254,2,37,-12,100,-12
5035,254,2,37,-9,100,-9
5040,256,0,36,-7,100,-12
5045,258,-1,35,-4,101,-9
5050,257,4,38,-3,99,-11
5055,255,6,33,-2,100,-9
5060,255,3,36,-3,99,-12
5065,255,4,35,-7,99,-9
5070,255,7,36,-10,99,-11
5075,256,6,36,-14,102,-10
5080,255,4,35,-19,102,-12
5085,253,7,35,-26,104,-10
5090,256,8,39,-32,105,-12
5095,252,7,38,-36,107,-8
5100,256,2,39,-38,109,-11
5105,258,5,37,-42,113,-7
5110,255,2,36,-44,116,-6
5115,255,2,38,-45,116,-2
5120,253,3,36,-46,117,-5
5125,254,4,35,-49,118,-1
5130,255,2,37,-49,116,-3
5135,256,2,38,-49,114,0
5140,253,0,40,-50,113,-3
5145,255,-1,38,-48,110,1
5150,256,1,36,-45,108,0
5155,251,2,39,-39,106,2
5160,254,-2,36,-32,105,0
5165,257,-2,46,-27,104,4
5170,254,1,38,-21,104,3
5175,254,-1,40,-14,102,5
5180,251,-2,35,-8,102,4
5185,254,-1,39,1,103,8
5190,256,-2,37,4,104,7
5195,253,-3,38,10,104,9
5200,254,1,39,16,105,6
5205,258,-1,37,23,109,8
5210,254,2,39,25,110,5
5215,257,5,35,25,114,8
5220,255,5,37,24,116,5
5225,257,3,37,21,118,7
5230,254,2,40,17,121,5
5235,255,5,38,10,123,7
5240,253,6,39,3,123,4
5245,256,5,41,-4,121,6
5250,256,3,41,-10,118,5
5255,253,1,39,-16,115,5
5260,254,5,41,-18,115,4
5265,254,2,41,-22,114,6
5270,255,2,40,-25,114,4
5275,256,4,43,-27,112,7
5280,254,1,45,-26,113,4
5285,254,2,41,-24,111,6
5290,257,0,41,-22,109,3
5295,256,2,39,-19,108,5
5300,254,-1,40,-17,107,3
5305,254,1,42,-11,109,5
5310,254,1,37,-8,112,2
5315,254,2,38,-6,112,4
5320,253,1,41,-3,114,2
5325,252,-1,40,-1,115,4
5330,254,-1,41,1,115,3
5335,254,0,40,2,119,4
5340,254,2,40,4,121,3
5345,253,-1,41,5,124,4
5350,253,0,42,6,126,3
5355,253,2,45,6,132,5
5360,256,3,41,4,132,2
5365,256,0,44,2,134,4
5370,253,3,42,-1,134,2
5375,251,3,42,-4,133,4
5380,256,5,43,-5,133,3
5385,255,3,41,-6,133,4
5390,254,4,41,-8,132,2
5395,253,0,41,-9,133,3
5400,256,2,42,-10,133,1
5405,253,4,40,-11,133,4
5410,252,3,42,-14,134,4
5415,255,3,43,-16,135,7
5420,256,0,44,-16,136,6
5425,258,1,42,-16,138,9
5430,256,1,45,-14,140,10
5435,253,1,45,-11,138,11
5440,254,-1,40,-7,140,10
5445,255,4,42,-2,141,13
5450,253,0,46,-1,138,11
5455,255,-1,41,3,139,13
5460,252,4,44,9,139,11
5465,255,1,45,10,140,12
5470,253,2,45,9,141,11
5475,254,1,42,8,141,11
5480,256,3,42,5,140,12
5485,252,1,44,4,140,11
5490,253,1,45,4,138,10
5495,253,4,47,5,138,12
5500,256,-1,46,6,137,11
5505,250,3,43,7,138,12
5510,251,4,45,8,138,13
5515,255,1,45,8,139,11
5520,252,3,48,9,139,12
5525,255,0,47,8,142,11
5530,253,2,42,10,144,12
5535,253,1,42,9,146,10
5540,254,-2,46,9,147,11
5545,252,3,44,8,149,12
5550,254,2,47,6,150,11
5555,252,2,49,4,152,12
5560,254,5,45,1,152,13
5565,254,2,51,-2,154,13
5570,257,1,51,-3,153,14
5575,253,1,52,-4,153,15
5580,255,2,51,-6,151,15
5585,255,2,49,-7,151,15
5590,251,2,49,-9,147,14
5595,252,2,48,-10,142,15
5600,255,0,47,-11,140,15
5605,255,0,48,-12,137,14
5610,255,-1,50,-13,137,13
5615,252,-1,46,-12,137,12
5620,251,3,46,-13,137,12
5625,252,0,44,-10,138,10
5630,251,0,53,-8,139,12
5635,253,0,50,-4,140,10
5640,253,-1,51,-1,141,11
5645,253,-2,50,1,143,9
5650,254,1,50,5,145,12
5655,253,1,49,8,147,11
5660,252,0,53,10,149,11
5665,254,1,48,14,150,11
5670,251,2,51,14,152,11
5675,254,0,51,15,154,10
5680,252,0,52,16,155,10
5685,252,2,50,16,157,11
5690,253,0,49,16,158,12
5695,253,4,50,15,158,11
5700,253,2,51,17,160,12
5705,252,2,51,16,161,10
5710,253,2,50,14,162,12
5715,253,2,52,13,161,11
5720,252,0,52,11,160,13
5725,256,-1,53,11,158,11
5730,254,0,48,9,157,12
5735,251,3,52,7,155,12
5740,252,2,53,4,155,12
5745,252,2,52,4,154,12
5750,251,0,50,2,155,14
5755,251,-2,49,2,154,11
5760,251,1,51,1,155,13
5765,251,1,52,2,155,12
5770,253,0,55,4,155,13
5775,253,-2,51,6,155,13
5780,251,0,56,9,156,13
5785,250,-1,58,9,156,11
5790,252,-1,51,12,158,11
5795,251,-1,53,14,158,11
5800,249,2,54,14,157,13
5805,249,0,55,13,158,11
5810,250,-1,55,14,157,14
5815,250,-2,56,13,157,13
5820,250,1,53,12,157,15
5825,251,1,55,13,156,14
5830,249,1,61,11,154,14
5835,253,0,57,11,151,11
5840,250,1,60,9,149,13
5845,249,3,55,6,147,10
5850,252,1,56,4,143,13
5855,252,-2,58,1,141,11
5860,252,1,56,-2,137,13
5865,251,2,57,-3,133,13
5870,251,2,59,-2,130,13
5875,250,2,54,-3,126,12
5880,252,2,60,-4,126,15
5885,250,2,56,-4,124,13
5890,250,1,59,-5,124,16
5895,250,2,55,-5,124,14
5900,253,1,57,-6,124,17
5905,252,-2,56,-5,127,16
5910,251,-1,54,-4,127,21
5915,252,-1,56,0,127,17
5920,250,1,56,1,127,19
5925,249,-3,55,2,128,17
5930,251,-1,58,5,127,18
5935,251,-3,56,9,129,16
5940,252,-2,56,11,128,18
5945,251,-2,53,15,127,15
5950,253,-3,52,20,130,19
5955,250,-1,56,24,134,18
5960,254,-4,54,29,136,20
5965,252,-3,58,33,141,16
5970,252,-2,58,40,142,19
5975,250,-3,56,43,142,16
5980,247,1,56,46,146,19
5985,251,-4,64,49,146,14
5990,250,1,58,48,147,17
5995,246,1,58,48,146,13
6000,248,-1,59,46,147,15
6005,248,-1,60,43,148,13
6010,249,2,58,38,148,14
6015,249,2,60,35,147,12
6020,250,1,59,29,146,16
6025,248,1,60,23,145,13
6030,249,3,63,17,142,17
6035,249,5,66,11,139,14
6040,247,5,60,4,137,15
6045,249,2,56,-2,135,11
6050,247,2,62,-9,133,12
6055,238,-3,59,-14,134,9
6060,252,-8,64,-18,133,10
6065,229,5,49,-24,134,7
6070,247,-1,62,-27,137,8
6075,248,-3,64,-28,139,5
6080,249,-1,64,-26,140,9
6085,249,1,63,-25,141,7
6090,245,0,62,-24,143,10
6095,246,-3,65,-20,145,8
6100,249,-2,59,-16,144,10
6105,248,0,60,-12,144,10
6110,250,0,59,-8,143,13
6115,248,1,63,-5,139,10
6120,249,-3,63,-1,135,13
6125,251,-3,66,0,132,10
6130,251,1,65,-1,126,12
6135,250,-1,64,-2,121,11
6140,252,0,64,-2,116,12
6145,253,-1,62,-5,109,7
6150,249,-3,67,-4,105,8
6155,249,-1,65,-4,101,6
6160,247,-3,63,-2,97,8
6165,248,-1,65,0,95,5
6170,249,-4,62,2,94,6
6175,247,-2,65,5,93,5
6180,249,0,65,5,95,6
6185,248,2,63,6,96,4
6190,246,0,62,7,95,6
6195,247,-3,61,5,95,5
6200,245,0,69,2,93,7
6205,247,-1,63,1,92,4
6210,249,1,62,-5,89,7
6215,249,1,64,-9,87,4
6220,248,-1,65,-15,86,6
6225,248,-1,62,-17,85,4
6230,248,0,64,-19,84,5
6235,246,-2,69,-22,84,3
6240,251,-1,62,-22,82,4
6245,247,-4,62,-23,82,2
6250,249,-4,63,-22,82,3
6255,251,-2,66,-20,84,2
6260,248,-3,66,-21,83,2
6265,248,-3,61,-19,84,1
6270,249,-2,64,-19,83,1
6275,247,0,62,-16,83,-1
6280,247,-2,64,-15,82,1
6285,249,-3,64,-13,80,-1
6290,247,-2,62,-12,80,-1
6295,248,0,64,-9,79,-1
6300,249,-3,67,-7,77,1
6305,245,-2,64,-4,74,-1
6310,249,-2,68,-4,71,0
6315,247,0,63,-6,70,-1
6320,248,-2,64,-7,71,-1
6325,248,3,65,-8,72,-2
6330,249,-2,61,-9,71,-2
6335,248,2,62,-11,70,-2
6340,249,1,62,-10,71,-2
6345,251,-1,63,-10,70,-1
6350,251,-1,64,-10,70,-1
6355,247,1,62,-11,72,0
6360,248,-1,66,-11,71,0
6365,245,-1,65,-15,72,-2
6370,248,-2,66,-16,74,0
6375,248,-1,65,-18,73,0
6380,247,-2,57,-17,74,0
6385,245,-1,63,-19,73,1
6390,246,-2,62,-20,75,0
6395,246,-2,62,-18,76,-1
6400,247,-1,64,-15,75,1
6405,249,-2,66,-13,75,-1
6410,247,-2,65,-11,74,0
6415,249,-3,63,-10,73,0
6420,247,-1,64,-9,73,-1
6425,249,-1,67,-8,71,-1
6430,247,0,65,-10,71,-2
6435,249,-2,65,-10,70,-2
6440,250,0,64,-9,69,-1
6445,249,-2,66,-12,66,-2
6450,248,-4,66,-13,66,-2
6455,247,-1,63,-14,63,-1
6460,247,-2,65,-18,62,-2
6465,249,-1,67,-19,60,-3
6470,252,-3,70,-23,58,-3
6475,249,1,65,-25,55,-3
6480,245,1,64,-27,53,-5
6485,249,-1,66,-31,49,-3
6490,246,0,67,-33,46,-5
6495,250,-1,65,-35,42,-5
6500,247,0,65,-37,36,-5
6505,249,0,64,-38,34,-4
6510,248,1,66,-41,31,-4
6515,249,-2,66,-43,26,-3
6520,251,-2,65,-45,24,-6
6525,251,-1,63,-45,23,-4
6530,247,-1,66,-45,21,-7
6535,249,-3,65,-43,22,-6
6540,249,-2,65,-42,20,-7
6545,249,0,66,-40,21,-7
6550,249,-2,65,-36,22,-8
6555,248,-2,61,-34,22,-7
6560,248,-4,63,-29,20,-8
6565,247,-3,58,-26,21,-7
6570,248,-3,61,-22,22,-10
6575,247,-3,62,-18,24,-8
6580,245,-4,60,-16,26,-10
6585,249,-1,64,-12,28,-7
6590,247,-2,68,-11,29,-9
6595,247,-1,66,-12,29,-8
6600,247,0,62,-13,28,-9
6605,246,-1,66,-14,27,-7
6610,248,1,66,-19,26,-8
6615,248,4,68,-22,25,-6
6620,247,3,65,-25,21,-9
6625,250,3,66,-29,19,-5
6630,248,1,65,-34,17,-7
6635,249,0,65,-38,12,-4
6640,249,1,65,-42,10,-6
6645,248,0,63,-47,5,-3
6650,250,-2,59,-51,5,-6
6655,248,0,59,-53,4,-4
6660,251,1,63,-58,4,-6
6665,250,1,58,-62,3,-4
6670,246,0,60,-64,4,-6
6675,248,-3,60,-63,6,-5
6680,249,-2,59,-62,8,-8
6685,248,0,64,-60,9,-5
6690,248,-2,59,-55,12,-7
6695,246,-1,62,-50,12,-4
6700,249,-3,61,-47,13,-6
6705,251,-4,60,-40,14,-5
6710,248,-1,63,-36,16,-7
6715,247,-2,59,-31,16,-5
6720,251,-3,60,-27,17,-7
6725,248,-3,62,-23,17,-7
6730,248,-2,65,-20,17,-10
6735,252,-1,60,-18,17,-10
6740,250,-1,64,-16,16,-12
6745,249,0,60,-16,15,-10
6750,247,-2,63,-16,13,-14
6755,249,-2,59,-17,12,-11
6760,247,1,61,-19,11,-14
6765,246,-1,62,-22,12,-13
6770,246,-1,65,-24,11,-16
6775,247,-1,65,-29,11,-15
6780,248,2,66,-33,11,-17
6785,249,3,62,-38,9,-15
6790,249,1,66,-40,8,-18
6795,251,1,60,-44,9,-16
6800,249,1,57,-47,8,-20
6805,249,0,62,-49,6,-18
6810,248,2,58,-50,6,-20
6815,251,-1,60,-52,4,-17
6820,252,-2,62,-52,0,-19
6825,250,1,60,-51,-2,-17
6830,245,2,59,-49,-5,-20
6835,252,-2,57,-48,-6,-17
6840,251,-1,57,-47,-7,-21
6845,249,-3,58,-46,-7,-18
6850,251,-1,56,-44,-9,-21
6855,247,-2,59,-43,-7,-18
6860,248,-4,55,-41,-4,-20
6865,252,-3,59,-38,-2,-18
6870,251,1,54,-38,-1,-21
6875,249,-2,58,-35,0,-18
6880,249,1,54,-32,1,-21
6885,249,-3,56,-31,4,-18
6890,249,0,56,-29,5,-21
6895,248,-2,60,-28,2,-19
6900,252,-3,57,-27,4,-20
6905,248,0,56,-27,3,-18
6910,251,-1,60,-26,2,-20
6915,251,0,58,-27,0,-18
6920,251,-3,62,-28,-2,-18
6925,251,-2,60,-30,-3,-15
6930,251,-2,58,-33,-5,-15
6935,250,-3,58,-34,-5,-12
6940,252,-1,61,-36,-7,-14
6945,252,-1,59,-36,-8,-12
6950,252,0,56,-34,-11,-12
6955,250,-2,62,-31,-13,-11
6960,252,-3,58,-29,-15,-14
6965,250,-1,57,-26,-15,-14
6970,250,0,55,-24,-16,-16
6975,251,2,55,-23,-13,-13
6980,250,0,53,-21,-12,-15
6985,250,-1,55,-20,-8,-11
6990,250,2,51,-20,-4,-14
6995,252,1,53,-20,-2,-13
7000,250,1,54,-19,1,-13
7005,252,-3,56,-19,2,-12
7010,249,0,53,-18,6,-12
7015,250,1,55,-16,10,-10
7020,252,-1,52,-13,11,-11
7025,250,-1,51,-12,13,-8
7030,252,0,53,-11,15,-10
7035,251,-3,53,-10,18,-7
7040,252,-1,52,-11,20,-10
7045,252,-4,50,-12,21,-7
7050,251,-4,54,-11,20,-9
7055,248,-1,51,-12,20,-9
7060,253,-1,53,-14,21,-12
7065,251,-2,55,-15,19,-12
7070,250,0,60,-17,17,-14
7075,249,1,56,-19,17,-12
7080,250,1,56,-20,14,-15
7085,251,-3,57,-20,11,-12
7090,250,0,56,-21,10,-13
7095,251,0,57,-24,10,-12
7100,253,-1,57,-26,7,-14
7105,253,2,53,-27,4,-14
7110,251,1,56,-29,1,-14
7115,253,1,58,-30,-3,-14
7120,254,1,54,-31,-5,-16
7125,253,-1,55,-32,-9,-14
7130,253,1,53,-31,-10,-16
7135,251,1,51,-33,-10,-14
7140,251,1,51,-30,-11,-17
7145,253,0,51,-29,-10,-16
7150,251,-1,52,-28,-8,-17
7155,252,1,54,-26,-8,-16
7160,253,-1,49,-22,-4,-16
7165,252,0,50,-19,2,-14
7170,253,0,49,-14,8,-15
7175,253,1,48,-9,14,-12
7180,250,1,48,-6,18,-14
7185,252,-3,49,-2,24,-11
7190,252,0,50,2,27,-9
7195,252,-3,51,1,30,-7
7200,252,-1,47,6,34,-5
7205,250,0,51,8,38,-6
7210,253,-2,49,8,41,-6
7215,252,0,49,8,45,-5
7220,250,1,50,6,46,-5
7225,252,-1,51,5,47,-5
7230,249,2,56,4,47,-6
7235,252,0,56,1,48,-7
7240,251,3,50,-4,47,-9
7245,252,0,54,-8,48,-9
7250,251,3,56,-12,46,-9
7255,251,0,51,-18,46,-9
7260,249,3,54,-22,46,-9
7265,252,0,52,-25,45,-8
7270,253,2,53,-29,43,-9
7275,252,2,51,-31,45,-8
7280,251,1,51,-32,43,-6
7285,253,1,51,-33,43,-6
7290,252,3,55,-34,42,-5
7295,252,-2,52,-32,42,-5
7300,251,1,51,-32,43,-4
7305,252,0,50,-30,45,-3
7310,251,-1,51,-27,45,-3
7315,251,-3,52,-26,46,-3
7320,249,2,51,-23,47,-4
7325,252,-1,50,-23,45,-5
7330,251,0,53,-21,45,-5
7335,252,0,52,-17,47,-4
7340,254,-1,52,-16,47,-3
7345,254,0,55,-15,48,-4
7350,253,-3,54,-14,48,-3
7355,253,-2,50,-11,48,-3
7360,252,0,54,-8,47,-3
7365,254,-1,52,-5,46,-2
7370,254,-3,52,-5,45,-1
7375,251,-1,48,-2,46,-2
7380,251,-1,56,-1,47,-2
7385,251,-1,51,0,49,-1
7390,251,-2,53,1,51,1
7395,253,-3,47,-1,52,1
7400,251,1,51,-3,54,2
7405,252,-1,54,-3,56,1
7410,250,0,50,-8,55,1
7415,251,0,58,-10,56,1
7420,252,1,49,-12,54,2
7425,252,-2,52,-11,55,1
7430,254,0,54,-11,53,2
7435,254,0,53,-12,54,2
7440,254,2,54,-11,54,5
7445,251,-2,53,-10,51,5
7450,249,0,50,-5,49,8
7455,255,-1,58,0,43,8
7460,251,0,49,6,38,11
7465,253,2,55,10,33,14
7470,258,2,56,15,29,20
7475,257,3,54,22,30,23
7480,262,-2,54,30,33,31
7485,262,-1,55,39,36,35
7490,263,-3,51,50,34,43
7495,266,-3,55,60,33,44
7500,268,-3,52,71,32,48
7505,267,-3,50,83,32,48
7510,269,-4,54,94,35,51
7515,266,-2,50,101,39,51
7520,269,-1,49,108,42,53
7525,268,0,48,113,48,54
7530,268,3,50,115,54,57
7535,266,2,54,116,60,59
7540,262,7,54,114,62,67
7545,258,9,59,112,60,72
7550,257,11,56,108,48,78
7555,259,12,64,104,34,82
7560,263,11,61,100,19,88
7565,265,12,61,90,9,91
7570,273,18,63,78,1,100
7575,281,20,64,62,1,108
7580,293,21,64,46,4,125
7585,306,22,63,32,16,137
7590,319,22,62,27,43,155
7595,329,25,65,29,100,173
7600,341,24,60,41,168,188
7605,360,27,57,51,255,198
7610,375,33,58,58,363,210
7615,389,31,52,67,490,217
7620,386,36,58,69,631,227
7625,393,36,58,59,769,226
7630,388,39,52,45,901,227
7635,372,38,49,20,1037,216
7640,372,32,49,-13,1161,205
7645,358,33,45,-69,1305,196
7650,347,26,45,-128,1422,194
7655,338,22,41,-193,1536,195
7660,327,13,34,-256,1637,203
7665,313,2,35,-317,1724,207
7670,305,-2,35,-382,1797,210
7675,286,-4,31,-447,1845,216
7680,267,-14,31,-508,1865,228
7685,248,-21,29,-558,1868,238
7690,227,-25,29,-596,1854,252
7695,209,-34,29,-624,1829,263
7700,197,-36,29,-630,1794,285
7705,187,-41,26,-626,1755,305
7710,176,-43,26,-610,1716,327
7715,168,-43,24,-582,1671,343
7720,158,-42,23,-545,1627,358
7725,152,-44,29,-492,1588,362
7730,146,-38,32,-435,1556,368
7735,141,-36,36,-378,1530,365
7740,143,-34,41,-308,1499,359
7745,141,-26,42,-259,1475,345
7750,147,-23,47,-215,1454,331
7755,152,-20,50,-181,1435,309
7760,155,-19,54,-158,1419,292
7765,162,-18,57,-136,1406,272
7770,165,-17,61,-111,1396,259
7775,170,-16,66,-79,1390,243
7780,177,-17,68,-35,1382,231
7785,178,-18,68,11,1365,210
7790,180,-19,71,77,1348,199
7795,181,-20,69,151,1323,190
7800,190,-25,71,233,1293,189
7805,199,-18,71,313,1260,185
7810,213,-26,69,384,1226,192
7815,229,-24,71,443,1197,205
7820,234,-28,69,482,1179,219
7825,243,-26,64,509,1180,220
7830,248,-27,66,526,1194,220
7835,244,-24,67,526,1226,212
7840,243,-22,73,513,1259,202
7845,233,-17,81,488,1294,186
7850,226,-13,92,451,1325,175
7855,222,-14,97,401,1352,160
7860,214,-10,109,343,1373,154
7865,205,-4,118,284,1386,147
7870,202,-9,129,234,1399,149
7875,196,-4,139,192,1408,151
7880,193,-12,142,162,1419,161
7885,188,-9,145,143,1421,168
7890,185,-13,158,135,1416,182
7895,197,-11,168,136,1404,194
7900,198,-10,170,129,1403,212
7905,199,-11,179,123,1407,215
7910,199,-7,184,111,1412,224
7915,199,-7,189,92,1412,228
7920,202,-10,190,62,1416,233
7925,203,-8,190,17,1435,234
7930,201,-11,193,-60,1480,242
7935,198,-14,198,-132,1529,247
7940,191,-14,209,-204,1573,256
7945,183,-19,207,-270,1593,262
7950,180,-25,206,-323,1584,270
7955,174,-28,207,-369,1548,275
7960,165,-31,207,-405,1495,286
7965,162,-38,207,-439,1431,298
7970,160,-41,214,-466,1354,315
7975,161,-42,215,-483,1252,335
7980,161,-47,220,-486,1166,353
7985,162,-52,219,-479,1078,365
7990,159,-57,215,-460,994,374
7995,153,-58,213,-432,910,374
8000,147,-62,206,-394,829,374
8005,140,-60,203,-344,757,372
8010,139,-63,202,-286,699,374
8015,133,-60,200,-221,653,378
8020,132,-57,196,-152,624,393
8025,129,-55,192,-70,609,403
8030,119,-47,188,-7,608,418
8035,114,-43,186,48,611,434
8040,102,-36,189,96,619,455
8045,97,-34,190,137,625,470
8050,94,-30,192,169,632,484
8055,91,-29,196,193,636,488
8060,83,-23,202,211,636,479
8065,79,-21,209,227,639,459
8070,76,-18,216,240,639,432
8075,74,-19,217,258,646,406
8080,73,-19,221,275,664,384
8085,69,-20,224,292,702,358
8090,77,-20,230,308,753,334
8095,76,-22,233,313,821,308
8100,77,-26,236,305,895,278
8105,84,-30,244,280,970,241
8110,92,-29,242,239,1048,199
8115,99,-33,248,181,1127,146
8120,112,-37,257,91,1226,105
8125,111,-39,259,7,1305,70
8130,115,-44,261,-84,1371,39
8135,117,-46,265,-175,1423,11
8140,119,-50,270,-259,1475,-11
8145,121,-53,278,-336,1532,-21
8150,123,-55,280,-401,1594,-21
8155,118,-56,280,-454,1659,-10
8160,117,-62,285,-491,1727,4
8165,118,-65,286,-515,1812,33
8170,119,-66,281,-518,1885,70
8175,124,-67,272,-496,1966,112
8180,128,-71,262,-451,2055,160
8185,130,-70,248,-382,2149,207
8190,130,-68,244,-297,2241,250
8195,135,-67,228,-202,2325,292
8200,135,-67,219,-97,2394,333
8205,138,-63,203,16,2456,373
8210,136,-58,196,123,2512,412
8215,132,-56,184,233,2569,441
8220,124,-49,184,295,2608,471
8225,120,-45,176,328,2632,503
8230,115,-39,171,342,2645,537
8235,110,-32,166,339,2658,571
8240,107,-27,158,323,2669,609
8245,102,-28,149,291,2678,648
8250,91,-22,139,244,2687,677
8255,84,-19,130,187,2691,699
8260,72,-19,128,112,2692,711
8265,64,-18,122,0,2684,716
8270,57,-17,116,-107,2662,720
8275,49,-20,114,-218,2630,724
8280,43,-26,118,-323,2588,724
8285,33,-30,116,-414,2537,720
8290,23,-35,120,-494,2476,713
8295,17,-44,120,-555,2407,707
8300,12,-54,128,-598,2330,698
8305,4,-58,130,-621,2251,683
8310,-4,-59,132,-619,2150,665
8315,-9,-61,136,-593,2060,642
8320,-18,-61,138,-557,1964,611
8325,-22,-64,144,-511,1860,575
8330,-30,-54,152,-461,1742,530
8335,-33,-54,152,-408,1608,485
8340,-39,-44,159,-360,1461,431
8345,-41,-43,165,-324,1295,378
8350,-46,-31,168,-298,1116,317
8355,-43,-26,172,-286,893,246
8360,-45,-19,174,-282,704,186
8365,-38,-12,175,-281,517,123
8370,-39,-5,173,-287,329,57
8375,-39,-3,171,-303,145,-5
8380,-37,-4,170,-335,-34,-60
8385,-31,-4,173,-383,-206,-108
8390,-33,-6,180,-442,-371,-154
8395,-34,-14,198,-500,-520,-201
8400,-32,-33,239,-543,-654,-251
8405,-27,-58,285,-546,-817,-275
8410,-45,-94,361,-487,-959,-280
8415,-58,-116,406,-379,-1094,-258
8420,-67,-146,440,-224,-1202,-196
8425,-73,-176,465,-45,-1275,-91
8430,-76,-201,473,145,-1324,34
8435,-73,-223,461,334,-1356,151
8440,-48,-237,447,519,-1373,226
8445,-11,-240,411,689,-1364,257
8450,5,-230,383,822,-1311,229
8455,4,-205,339,882,-1219,204
8460,6,-180,308,844,-1059,205
8465,9,-157,269,767,-844,207
8470,16,-128,230,681,-599,186
8475,20,-100,200,570,-356,165
8480,19,-76,172,425,-121,139
8485,10,-60,145,228,103,105
8490,-8,-46,137,-25,308,67
8495,-25,-36,136,-296,487,43
8500,-43,-29,142,-602,656,16
8505,-60,-20,148,-811,745,2
8510,-73,-17,162,-965,790,-7
8515,-83,-13,174,-1057,790,-5
8520,-89,-12,191,-1095,756,-11
8525,-86,-11,199,-1091,694,-12
8530,-90,-13,210,-1055,612,-21
8535,-81,-15,216,-991,516,-28
8540,-76,-18,230,-908,410,-42
8545,-71,-17,233,-800,278,-49
8550,-59,-25,239,-638,174,-54
8555,-49,-29,242,-481,83,-49
8560,-36,-35,248,-312,11,-46
8565,-28,-37,256,-154,-46,-35
8570,-14,-40,261,-19,-91,-20
8575,-11,-44,266,79,-125,9
8580,0,-49,270,141,-148,37
8585,4,-50,278,174,-166,70
8590,13,-55,283,184,-177,98
8595,15,-59,288,170,-189,120
8600,17,-61,289,137,-202,129
8605,23,-62,283,82,-222,134
8610,24,-65,270,6,-259,125
8615,23,-68,266,-91,-312,111
8620,23,-71,255,-198,-376,84
8625,19,-72,243,-308,-443,57
8630,20,-80,238,-408,-504,25
8635,23,-83,234,-498,-548,1
8640,27,-90,227,-570,-578,-30
8645,30,-93,216,-632,-579,-48
8650,34,-100,214,-664,-561,-67
8655,36,-101,207,-670,-531,-77
8660,41,-108,204,-656,-493,-87
8665,44,-105,202,-626,-447,-85
8670,48,-102,197,-584,-394,-81
8675,52,-103,196,-535,-339,-67
8680,55,-101,200,-479,-279,-52
8685,60,-99,202,-415,-221,-28
8690,63,-95,198,-329,-153,-14
8695,67,-91,201,-249,-107,2
8700,72,-88,203,-165,-65,10
8705,73,-81,205,-82,-30,19
8710,76,-79,209,-12,1,18
8715,72,-75,210,41,26,19
8720,72,-69,214,74,46,14
8725,70,-68,216,91,62,11
8730,65,-65,214,93,75,5
8735,60,-64,222,84,84,-2
8740,54,-64,223,61,86,-12
8745,48,-66,228,35,86,-17
8750,46,-64,225,3,86,-26
8755,42,-68,226,-30,88,-31
8760,44,-67,229,-63,96,-41
8765,43,-69,222,-100,123,-46
8770,48,-71,224,-134,168,-55
8775,43,-74,226,-167,230,-58
8780,41,-76,225,-195,310,-70
8785,38,-78,224,-220,406,-77
8790,34,-81,224,-229,479,-88
8795,28,-85,227,-228,540,-94
8800,18,-87,223,-220,594,-103
8805,17,-85,221,-211,638,-106
8810,8,-80,214,-204,685,-109
8815,4,-82,209,-212,738,-102
8820,2,-81,208,-238,796,-91
8825,-5,-77,204,-281,852,-74
8830,-13,-76,202,-337,909,-59
8835,-13,-78,207,-404,933,-46
8840,-24,-84,207,-444,936,-43
8845,-27,-85,211,-466,924,-37
8850,-31,-88,215,-470,895,-37
8855,-32,-91,217,-459,862,-36
8860,-33,-90,219,-435,828,-36
8865,-29,-95,226,-406,794,-30
8870,-33,-92,225,-376,759,-28
8875,-32,-88,225,-349,718,-22
8880,-32,-87,230,-327,657,-22
8885,-30,-88,227,-317,599,-18
8890,-24,-92,228,-311,537,-20
8895,-22,-94,227,-306,479,-21
8900,-25,-97,222,-298,431,-23
8905,-26,-101,224,-272,392,-18
8910,-26,-107,222,-231,365,-12
8915,-24,-111,220,-175,339,0
8920,-22,-115,225,-111,306,14
8925,-20,-113,226,-49,253,32
8930,-15,-109,221,11,196,37
8935,-12,-108,224,38,134,42
8940,-5,-108,220,47,72,42
8945,4,-106,218,42,16,41
8950,16,-106,217,28,-30,35
8955,23,-102,214,7,-69,27
8960,33,-104,215,-17,-95,18
8965,35,-101,217,-39,-114,12
8970,37,-100,217,-56,-124,1
8975,36,-97,210,-61,-131,-3
8980,33,-96,212,-53,-133,-8
8985,25,-90,210,-40,-129,-7
8990,21,-86,209,-23,-123,-7
8995,18,-86,204,-8,-109,-1
9000,11,-81,207,5,-86,6
9005,4,-79,207,13,-59,16
9010,-3,-81,203,13,-31,28
9015,-9,-76,203,5,-9,38
9020,-12,-77,206,-6,6,52
9025,-12,-81,215,-15,15,65
9030,-20,-84,216,-18,20,74
9035,-18,-84,217,-20,25,84
9040,-26,-89,223,-17,37,97
9045,-23,-89,224,-12,51,110
9050,-25,-93,227,-5,62,122
9055,-20,-98,222,6,71,132
9060,-19,-98,218,23,78,143
9065,-21,-101,221,42,91,150
9070,-26,-102,220,59,94,149
9075,-36,-101,218,65,81,147
9080,-37,-100,220,63,45,143
9085,-41,-99,217,56,-8,139
9090,-38,-104,220,49,-63,138
9095,-39,-102,218,48,-112,137
9100,-41,-102,225,49,-145,140
9105,-39,-105,221,59,-169,142
9110,-39,-111,223,76,-184,145
9115,-32,-110,223,98,-204,145
9120,-27,-115,220,131,-221,143
9125,-19,-114,217,160,-231,134
9130,-12,-116,214,182,-235,121
9135,-11,-116,212,193,-227,104
9140,-11,-117,214,197,-209,88
9145,-10,-116,211,189,-184,76
9150,-10,-123,208,168,-156,67
9155,-12,-124,207,143,-133,60
9160,-12,-131,210,124,-120,54
9165,-14,-133,204,114,-118,48
9170,-12,-136,201,113,-126,40
9175,-15,-135,200,115,-135,30
9180,-12,-136,198,119,-140,21
9185,-15,-131,193,126,-140,13
9190,-13,-133,195,141,-128,9
9195,-15,-130,196,163,-112,5
9200,-17,-123,194,187,-92,7
9205,-13,-122,197,212,-74,3
9210,-12,-113,201,235,-62,0
9215,-12,-110,200,260,-59,-7
9220,-11,-104,206,279,-62,-16
9225,-12,-99,210,296,-68,-28
9230,-12,-94,211,309,-80,-39
9235,-11,-89,221,320,-96,-56
9240,-9,-82,216,328,-121,-70
9245,-12,-77,224,331,-145,-86
9250,-12,-75,228,331,-177,-101
9255,-9,-76,228,325,-208,-121
9260,-7,-72,226,309,-241,-130
9265,-3,-73,230,280,-255,-134
9270,-5,-76,224,245,-253,-129
9275,4,-74,221,207,-237,-122
9280,0,-70,218,162,-202,-110
9285,10,-72,212,120,-158,-95
9290,14,-73,215,84,-113,-80
9295,23,-76,219,54,-78,-72
9300,26,-83,217,36,-59,-64
9305,25,-86,216,31,-55,-64
9310,22,-91,213,46,-55,-63
9315,20,-86,213,71,-51,-60
9320,20,-89,217,101,-44,-47
9325,21,-92,218,134,-36,-34
9330,23,-91,216,158,-30,-18
9335,21,-91,220,172,-23,-11
9340,20,-96,216,180,-19,-3
9345,21,-94,222,186,-16,-2
9350,21,-96,226,190,-14,-1
9355,23,-98,224,198,-12,-7
9360,26,-99,225,206,-10,-14
9365,28,-101,221,213,-7,-30
9370,29,-98,218,211,-2,-49
9375,30,-94,220,208,4,-71
9380,28,-90,217,205,10,-88
9385,34,-90,216,205,14,-105
9390,32,-83,218,204,17,-114
9395,32,-75,220,197,23,-124
9400,31,-72,213,188,28,-127
9405,31,-72,223,174,33,-128
9410,34,-70,223,167,41,-123
9415,33,-69,227,165,54,-120
9420,36,-64,232,170,71,-109
9425,35,-61,230,180,91,-103
9430,40,-58,234,191,117,-89
9435,41,-54,234,203,143,-80
9440,40,-49,239,211,173,-68
9445,41,-47,242,213,199,-61
9450,44,-48,240,212,228,-50
9455,40,-45,241,203,246,-42
9460,40,-43,241,187,259,-33
9465,39,-42,241,167,268,-28
9470,37,-42,237,140,272,-23
9475,31,-42,238,109,269,-23
9480,30,-51,236,77,261,-16
9485,27,-49,240,46,249,-17
9490,21,-54,242,16,234,-13
9495,20,-59,237,-12,214,-15
9500,14,-61,238,-45,198,-7
9505,11,-66,236,-69,181,-6
9510,9,-68,237,-86,167,3
9515,8,-70,237,-100,155,6
9520,9,-72,233,-105,145,14
9525,8,-77,235,-104,140,18
9530,8,-76,235,-96,136,27
9535,7,-79,231,-83,134,27
9540,3,-81,232,-67,132,31
9545,1,-82,228,-50,126,31
9550,2,-83,222,-40,117,35
9555,-2,-84,221,-31,104,32
9560,-7,-87,220,-28,86,33
9565,-7,-90,220,-28,68,30
9570,-11,-92,221,-28,46,31
9575,-12,-91,217,-29,21,27
9580,-16,-93,221,-30,-4,29
9585,-19,-96,217,-29,-30,26
9590,-24,-97,217,-29,-59,30
9595,-25,-94,214,-25,-83,30
9600,-21,-96,219,-18,-102,35
9605,-29,-88,221,-12,-120,35
9610,-28,-88,222,-4,-134,40
9615,-28,-85,219,5,-143,39
9620,-26,-87,222,12,-148,42
9625,-26,-82,221,19,-152,41
9630,-22,-81,218,29,-148,47
9635,-20,-79,222,40,-140,48
9640,-13,-82,226,54,-125,53
9645,-12,-74,224,64,-111,52
9650,-11,-72,227,73,-93,57
9655,-10,-71,224,77,-77,53
9660,-7,-70,221,81,-59,53
9665,-5,-68,224,77,-41,49
9670,-1,-70,221,73,-23,48
9675,0,-67,224,64,-3,38
9680,-1,-66,226,53,16,34
9685,0,-67,224,38,34,21
9690,3,-68,223,20,47,16
9695,4,-69,227,2,60,7
9700,3,-69,223,-14,72,1
9705,1,-70,227,-31,83,-10
9710,3,-75,225,-46,94,-14
9715,5,-75,227,-61,104,-23
9720,4,-77,225,-72,112,-27
9725,5,-77,229,-81,119,-33
9730,2,-79,224,-88,126,-36
9735,5,-83,227,-91,133,-40
9740,6,-85,225,-86,137,-40
9745,9,-84,226,-81,140,-42
9750,10,-84,227,-72,142,-40
9755,9,-83,228,-64,142,-41
9760,7,-84,226,-50,139,-39
9765,11,-83,224,-35,136,-38
9770,13,-80,226,-19,132,-36
9775,11,-79,222,-3,126,-36
9780,15,-76,226,14,121,-34
9785,13,-72,223,31,114,-34
9790,13,-73,226,44,105,-30
9795,18,-72,225,55,100,-32
9800,18,-68,224,62,92,-27
9805,19,-69,223,69,83,-27
9810,19,-68,224,70,74,-25
9815,20,-68,225,70,68,-25
9820,22,-67,222,67,60,-23
9825,23,-65,230,64,55,-24
9830,23,-66,228,56,50,-19
9835,24,-67,230,50,47,-20
9840,24,-63,225,41,47,-17
9845,24,-65,233,32,48,-19
9850,24,-68,229,22,47,-17
9855,22,-67,231,11,46,-17
9860,23,-67,231,1,47,-16
9865,25,-68,228,-8,48,-17
9870,22,-68,229,-18,48,-16
9875,20,-69,231,-27,45,-16
9880,23,-71,233,-42,41,-15
9885,15,-72,230,-52,37,-16
9890,16,-73,233,-62,32,-14
9895,12,-72,230,-71,26,-14
9900,11,-76,230,-80,21,-10
9905,8,-76,235,-83,16,-9
9910,10,-78,226,-87,12,-7
9915,10,-82,227,-86,11,-3
9920,9,-81,228,-83,10,0
9925,6,-80,231,-75,12,2
9930,7,-80,224,-67,12,5
9935,5,-83,223,-57,14,6
9940,5,-79,227,-45,15,8
9945,3,-81,224,-35,17,9
9950,5,-81,224,-26,19,11
9955,4,-76,223,-16,21,13
9960,2,-76,224,-7,25,14
9965,4,-77,220,0,28,15
9970,3,-76,220,5,34,14
9975,3,-74,225,10,39,15
9980,5,-77,222,13,42,14
9985,2,-72,225,13,43,15
9990,2,-77,226,12,49,15
9995,0,-72,227,10,53,12
10000,1,-73,227,9,56,10
10005,1,-73,225,7,59,9
10010,4,-74,225,5,63,8
10015,4,-74,226,4,64,7
10020,1,-72,226,3,68,6
10025,5,-75,226,-2,71,5
10030,4,-73,224,-5,74,3
10035,3,-73,227,-10,78,2
10040,4,-74,226,-15,81,1
10045,5,-76,224,-20,84,-2
10050,4,-73,221,-25,85,-3
10055,4,-76,225,-29,85,-3
10060,3,-75,225,-32,86,-5
10065,5,-77,225,-35,85,-6
10070,3,-74,226,-36,83,-7
10075,1,-76,231,-35,80,-8
10080,2,-73,228,-34,77,-8
10085,3,-72,226,-30,73,-8
10090,3,-76,228,-28,70,-8
10095,4,-75,228,-26,67,-6
10100,5,-76,228,-21,64,-7
10105,6,-74,229,-15,60,-7
10110,6,-72,221,-11,60,-7
10115,8,-76,225,-5,57,-5
10120,4,-73,225,0,55,-5
10125,9,-72,227,4,56,-3
10130,7,-73,224,8,56,-3
10135,9,-74,227,10,57,0
10140,5,-71,229,12,58,-3
10145,10,-71,222,13,60,0
10150,10,-70,225,12,61,-1
10155,10,-72,223,12,61,-1
10160,10,-73,223,12,60,-2
10165,9,-73,224,13,61,-1
10170,11,-76,227,12,62,-2
10175,10,-73,222,12,61,-1
10180,14,-74,225,12,64,-3
10185,12,-72,222,14,66,-2
10190,11,-74,226,13,65,-4
10195,10,-74,221,14,64,-3
10200,11,-75,228,16,65,-5
10205,11,-74,222,16,65,-3
10210,11,-73,225,16,64,-3
10215,10,-76,225,15,64,-3
10220,11,-74,224,17,65,-4
10225,11,-76,223,18,65,-2
10230,11,-76,225,18,66,-3
10235,9,-72,225,19,64,-1
10240,10,-75,227,19,66,-4
10245,10,-75,227,17,66,-1
10250,19,-59,233,15,68,-3
10255,7,-82,236,16,66,-1
10260,9,-76,234,14,66,-1
10265,7,-71,226,13,64,2
10270,9,-71,226,11,63,0
10275,11,-71,225,9,62,3
10280,7,-73,222,9,60,1
10285,5,-71,224,8,60,3
10290,8,-75,231,7,57,2
10295,9,-72,223,7,57,4
10300,8,-74,227,6,54,2
10305,8,-71,231,6,55,6
10310,7,-72,226,8,53,3
10315,10,-72,226,10,54,6
10320,9,-73,228,9,58,4
10325,7,-70,226,10,62,5
10330,6,-72,226,11,65,4
10335,10,-72,225,10,70,7
10340,8,-73,228,9,72,4
10345,6,-70,225,6,78,7
10350,8,-73,226,4,82,4
10355,10,-73,228,5,85,7
10360,6,-76,228,6,89,5
10365,4,-70,228,8,90,5
10370,8,-74,224,8,91,3
10375,5,-71,232,8,92,5
10380,7,-72,228,10,92,2
10385,5,-71,226,14,91,4
10390,2,-70,229,15,91,1
10395,6,-72,225,16,92,1
10400,4,-70,228,17,89,-1
10405,5,-73,228,16,88,1
10410,5,-70,226,15,86,-1
10415,4,-70,231,15,82,1
10420,8,-71,228,17,80,-2
10425,5,-69,227,17,77,0
10430,5,-72,225,15,75,-2
10435,5,-70,225,14,72,1
10440,6,-72,225,12,70,-2
10445,3,-70,224,11,69,1
10450,6,-72,230,10,66,0
10455,6,-71,225,9,63,3
10460,5,-73,224,9,63,1
10465,6,-73,224,10,61,4
10470,5,-74,224,12,61,2
10475,4,-71,225,15,62,4
10480,4,-72,226,20,61,3
10485,7,-74,227,24,61,6
10490,8,-75,229,29,63,4
10495,6,-74,226,34,62,6
10500,4,-71,227,38,63,3
10505,5,-69,222,42,61,6
10510,7,-70,227,44,61,5
10515,5,-71,225,44,60,7
10520,4,-70,227,42,60,4
10525,4,-65,226,37,61,8
10530,4,-67,226,32,62,6
10535,5,-69,227,29,65,8
10540,4,-68,227,23,67,7
10545,7,-69,227,19,68,10
10550,6,-69,229,16,70,8
10555,8,-73,229,11,73,11
10560,4,-69,231,10,73,8
10565,6,-73,229,10,75,9
10570,7,-70,230,9,75,7
10575,8,-69,225,11,76,9
10580,10,-70,227,12,75,6
10585,6,-74,230,14,75,9
10590,10,-75,226,16,76,5
10595,7,-72,229,17,76,6
10600,6,-69,225,20,78,4
10605,7,-70,227,22,78,5
10610,5,-73,232,23,78,3
10615,6,-74,225,23,78,5
10620,7,-73,227,25,79,3
10625,6,-71,229,27,80,4
10630,4,-72,224,26,82,2
10635,7,-70,224,27,81,3
10640,4,-70,229,27,82,1
10645,7,-70,229,29,83,2
10650,7,-69,224,31,81,0
10655,4,-69,228,29,81,2
10660,5,-70,228,31,81,0
10665,6,-71,230,29,80,3
10670,3,-71,228,28,78,1
10675,5,-69,233,26,78,3
10680,5,-68,231,25,77,1
10685,5,-68,228,23,74,5
10690,5,-68,229,21,73,1
10695,5,-68,229,20,73,3
10700,5,-69,229,17,73,0
10705,4,-67,230,16,73,3
10710,4,-69,228,14,71,1
10715,7,-68,229,11,71,2
10720,5,-68,233,7,69,0
10725,3,-68,228,5,69,3
10730,7,-67,229,-1,67,1
10735,6,-69,228,-5,66,2
10740,7,-69,226,-6,65,0
10745,4,-70,227,-8,66,2
10750,5,-71,228,-8,65,1
10755,5,-69,227,-9,65,1
10760,2,-69,229,-6,65,1
10765,3,-69,230,-3,64,2
10770,1,-69,229,-1,63,2
10775,4,-72,228,1,64,2
10780,2,-70,228,4,65,1
10785,5,-69,231,8,65,2
10790,6,-69,226,10,65,2
10795,5,-70,231,12,64,1
10800,4,-70,226,15,66,2
10805,5,-68,227,17,68,2
10810,2,-68,224,18,70,2
10815,4,-69,229,21,71,2
10820,6,-70,226,22,73,3
10825,3,-70,228,22,74,3
10830,8,-70,226,19,75,3
10835,4,-68,230,17,74,3
10840,8,-69,228,14,73,2
10845,7,-68,226,11,72,2
10850,7,-68,229,9,72,3
10855,8,-70,226,5,72,3
10860,5,-68,228,3,68,3
10865,4,-67,229,2,68,2
10870,5,-67,226,2,67,1
10875,4,-66,227,-1,66,3
10880,4,-68,228,-1,66,2
10885,4,-69,229,0,65,0
10890,2,-68,225,-1,64,0
10895,6,-69,227,-1,65,0
10900,5,-69,225,1,65,1
10905,6,-70,228,2,66,0
10910,6,-69,228,4,68,-1
10915,4,-68,225,5,67,-1
10920,3,-70,231,7,69,-1
10925,7,-70,229,10,70,-2
10930,4,-68,225,15,71,-1
10935,4,-67,231,18,74,-2
10940,4,-70,225,22,73,1
10945,3,-72,228,26,75,0
10950,6,-68,230,30,73,2
10955,3,-70,228,33,74,1
10960,4,-68,229,36,75,3
10965,5,-69,229,40,76,2
10970,3,-68,227,43,76,5
10975,6,-68,231,42,74,5
10980,5,-67,236,42,74,5
10985,6,-68,227,42,71,5
10990,4,-69,228,38,71,6
10995,4,-68,228,34,68,4
11000,4,-67,231,32,66,5
11005,2,-66,233,27,64,4
11010,5,-66,233,22,65,4
11015,5,-66,234,17,65,2
11020,5,-66,233,10,65,3
11025,6,-66,232,3,65,0
11030,4,-67,228,-3,66,0
11035,2,-68,228,-10,65,-1
11040,6,-66,230,-14,66,0
11045,5,-66,230,-18,68,-1
11050,2,-66,228,-22,68,0
11055,5,-68,228,-26,69,-3
11060,3,-67,230,-28,69,-1
11065,2,-67,233,-30,69,-2
11070,3,-68,230,-31,69,0
11075,6,-68,230,-32,68,-2
11080,3,-68,234,-31,67,0
11085,5,-68,231,-27,67,-1
11090,3,-65,231,-24,67,0
11095,7,-68,231,-18,67,-3
11100,3,-67,228,-16,66,-1
11105,1,-68,226,-15,64,-2
11110,5,-67,228,-13,63,1
11115,4,-68,230,-11,61,0
11120,2,-69,230,-8,59,2
11125,2,-70,226,-6,57,0
11130,5,-68,229,-5,56,3
11135,4,-68,231,-1,55,1
11140,4,-70,230,2,55,3
11145,6,-68,227,5,55,1
11150,5,-69,229,6,57,2
11155,5,-68,227,11,56,1
11160,1,-68,226,13,58,1
11165,3,-68,227,16,62,-1
11170,6,-67,227,18,62,-1
11175,4,-67,224,18,63,-2
11180,4,-68,230,19,63,2
11185,4,-65,226,19,63,-1
11190,3,-67,229,19,64,2
11195,4,-66,225,15,65,0
11200,4,-66,227,14,69,3
11205,6,-67,230,11,70,0
11210,8,-67,230,9,71,3
11215,5,-66,228,5,73,0
11220,3,-68,230,4,73,3
11225,3,-67,231,2,77,0
11230,6,-67,232,0,78,3
11235,7,-67,230,-2,77,0
11240,4,-69,229,-3,75,2
11245,3,-67,229,-3,75,-1
11250,2,-66,230,-3,72,2
11255,5,-69,229,-3,70,0
11260,6,-67,232,-2,68,0
11265,1,-68,227,-1,65,-1
11270,3,-68,230,-1,61,1
11275,0,-68,230,1,59,-3
11280,3,-68,229,3,58,2
11285,1,-69,228,6,57,0
11290,1,-68,226,8,55,2
11295,3,-67,228,11,55,-1
11300,2,-67,227,12,55,0
11305,3,-67,227,16,55,-3
11310,3,-67,226,17,54,0
11315,0,-66,223,19,54,-1
11320,3,-66,227,19,54,2
11325,2,-67,227,20,54,-1
11330,1,-67,229,19,55,0
11335,3,-67,229,17,55,-2
11340,1,-66,229,14,54,0
11345,3,-66,225,12,56,-2
11350,4,-67,226,13,56,-1
11355,5,-67,227,13,57,-3
11360,3,-68,227,12,57,1
11365,1,-65,232,12,58,-3
11370,1,-64,228,11,58,1
11375,4,-66,227,12,58,-1
11380,3,-65,229,9,59,1
11385,6,-67,227,6,58,0
11390,5,-66,226,4,60,1
11395,5,-66,232,3,62,-1
11400,3,-65,229,0,64,3
11405,5,-65,228,0,64,-1
11410,4,-66,230,-3,65,2
11415,6,-68,230,-3,66,-2
11420,6,-67,230,-5,67,1
11425,4,-67,231,-6,66,-1
11430,6,-69,227,-6,67,1
11435,2,-66,230,-7,68,-2
11440,7,-67,231,-7,66,-1
11445,4,-67,230,-6,66,-2
11450,4,-66,227,-5,65,0
11455,8,-68,229,-4,64,-3
11460,4,-68,231,-4,63,-2
11465,3,-66,229,-2,61,-4
11470,5,-68,229,-1,62,-1
11475,4,-66,230,-2,60,-3
11480,3,-67,230,-3,58,-3
11485,5,-66,228,-4,57,-4
11490,3,-66,228,-6,54,-2
11495,2,-62,231,-10,55,-4
11500,4,-67,228,-12,54,-1
11505,2,-65,229,-16,53,-3
11510,5,-64,225,-23,54,-1
11515,4,-64,227,-26,53,-4
11520,3,-65,231,-29,55,-1
11525,2,-67,229,-33,54,-3
11530,3,-65,231,-36,54,-1
11535,5,-67,230,-38,55,-2
11540,2,-66,230,-39,57,0
11545,4,-63,232,-38,58,-2
11550,3,-66,228,-38,60,0
11555,3,-67,231,-39,60,-2
11560,2,-67,233,-38,62,-1
11565,2,-68,227,-37,60,-2
11570,3,-66,231,-37,61,-1
11575,5,-68,228,-36,58,-3
11580,2,-67,231,-36,56,-1
11585,2,-69,229,-33,57,-3
11590,4,-67,227,-32,56,-4
11595,1,-66,227,-32,54,-5
11600,2,-69,232,-33,53,-3
11605,2,-67,229,-33,51,-4
11610,5,-68,228,-32,48,-5
11615,2,-68,232,-33,48,-6
11620,3,-66,228,-33,47,-5
11625,1,-65,231,-33,47,-6
11630,3,-67,230,-34,46,-4
11635,4,-69,228,-36,42,-5
11640,1,-65,230,-36,41,-3
11645,6,-67,231,-39,41,-4
11650,4,-68,227,-41,43,-2
11655,5,-65,226,-42,44,-4
11660,5,-68,232,-44,45,-4
11665,5,-67,227,-46,47,-4
11670,2,-68,228,-47,45,-3
11675,5,-68,230,-48,48,-3
11680,3,-68,226,-49,49,-3
11685,2,-69,227,-47,54,-4
11690,5,-67,229,-48,58,-4
11695,4,-67,226,-47,60,-4
11700,3,-66,231,-45,62,-4
11705,6,-69,230,-44,63,-6
11710,5,-70,229,-43,65,-5
11715,5,-69,230,-42,66,-5
11720,3,-67,229,-39,66,-6
11725,5,-65,229,-36,67,-5
11730,5,-66,230,-35,67,-5
11735,5,-65,228,-36,67,-5
11740,5,-68,229,-40,65,-4
11745,5,-68,233,-44,65,-5
11750,4,-68,226,-47,62,-7
11755,3,-67,229,-48,59,-7
11760,6,-66,229,-49,57,-8
11765,7,-66,230,-49,56,-9
11770,5,-67,227,-52,53,-9
11775,4,-68,229,-54,51,-8
11780,3,-68,228,-57,47,-8
11785,2,-68,227,-59,44,-8
11790,3,-67,229,-61,42,-8
11795,3,-69,227,-61,39,-7
11800,4,-70,229,-62,38,-7
11805,4,-71,227,-59,38,-6
11810,2,-70,230,-56,38,-7
11815,5,-70,225,-53,38,-4
11820,2,-68,231,-45,39,-4
11825,8,-69,229,-37,41,-2
11830,7,-70,225,-30,41,-2
11835,5,-67,227,-25,42,-1
11840,5,-69,232,-21,43,-2
11845,4,-67,227,-18,44,-2
11850,4,-66,229,-16,45,-3
11855,3,-65,229,-16,43,-2
11860,4,-68,228,-15,44,-2
11865,5,-65,229,-18,47,-1
11870,6,-66,228,-21,48,-2
11875,5,-68,230,-24,49,-2
11880,5,-67,228,-30,50,-3
11885,6,-68,225,-35,50,-3
11890,6,-67,228,-42,53,-3
11895,6,-68,231,-46,53,-4
11900,5,-67,232,-47,55,-5
11905,5,-69,227,-50,55,-4
11910,6,-68,232,-52,55,-5
11915,4,-69,231,-52,57,-4
11920,8,-72,229,-51,55,-7
11925,4,-72,225,-48,55,-5
11930,3,-70,226,-45,53,-6
11935,3,-70,234,-42,51,-5
11940,4,-72,233,-38,52,-6
11945,5,-72,226,-35,51,-5
11950,4,-72,224,-31,51,-6
11955,9,-73,231,-30,50,-3
11960,4,-70,226,-26,49,-6
11965,5,-69,222,-24,50,-3
11970,7,-71,226,-23,51,-5
11975,6,-68,227,-22,50,-5
11980,6,-69,226,-22,49,-5
11985,8,-71,227,-21,51,-5
11990,5,-70,230,-22,51,-8
11995,5,-70,224,-24,49,-7
