timestamp,acc_x,acc_y,acc_z,gyro_x,gyro_y,gyro_z
0,-7,-64,237,-30,79,-2
5,-4,-62,236,-25,79,-4
10,-7,-63,235,-20,81,-5
15,-3,-62,238,-14,79,-4
20,-6,-61,236,-11,78,-5
25,-9,-68,237,-7,75,-5
30,-5,-62,236,-3,72,-5
35,-5,-62,236,0,71,-5
40,-3,-63,236,1,69,-5
45,-5,-63,236,1,68,-5
50,-4,-64,234,0,67,-6
55,-1,-62,233,-2,70,-4
60,-2,-60,233,-7,68,-3
65,0,-61,234,-11,71,-2
70,-5,-57,237,-15,71,-3
75,-5,-61,235,-20,73,-3
80,-1,-62,234,-24,75,-3
85,-6,-58,235,-27,76,-3
90,-3,-61,238,-27,72,-2
95,-2,-63,233,-29,72,-2
100,-6,-64,238,-30,69,-3
105,-5,-64,235,-29,69,-2
110,-1,-65,233,-28,68,-2
115,-5,-63,234,-24,67,-2
120,-2,-64,234,-22,66,0
125,-4,-65,236,-19,67,-1
130,-9,-66,236,-16,67,-2
135,-4,-64,234,-14,68,-1
140,-3,-63,235,-11,66,0
145,-2,-66,236,-10,67,0
150,-4,-68,235,-8,67,-1
155,-6,-65,235,-7,67,0
160,-7,-63,237,-6,64,-2
165,-4,-64,236,-4,64,-2
170,-8,-61,237,-2,62,-3
175,-2,-63,236,-1,61,-1
180,-2,-63,234,-2,60,-1
185,-3,-63,237,-2,57,-4
190,-4,-61,237,-1,57,-4
195,-3,-59,237,-2,56,-4
200,-2,-61,235,-5,56,-2
205,-1,-61,236,-7,56,-2
210,-3,-62,234,-10,59,-5
215,-2,-63,236,-14,62,-5
220,0,-61,237,-15,67,-5
225,-2,-60,237,-20,73,-3
230,-1,-61,235,-28,77,-2
235,1,-63,236,-37,81,-3
240,1,-58,236,-46,85,-2
245,-4,-60,237,-57,88,-4
250,-2,-62,237,-66,93,-5
255,0,-59,237,-79,96,-8
260,1,-62,237,-92,103,-10
265,2,-65,240,-104,111,-12
270,3,-63,243,-113,122,-15
275,8,-62,243,-115,133,-17
280,6,-60,243,-112,144,-18
285,10,-60,246,-106,153,-18
290,13,-55,243,-104,164,-18
295,15,-57,240,-110,175,-16
300,14,-52,243,-119,186,-14
305,5,-48,244,-135,189,-12
310,4,-49,243,-157,184,-7
315,7,-51,244,-183,175,0
320,6,-51,240,-214,174,6
325,6,-57,238,-243,185,11
330,4,-63,238,-269,198,16
335,0,-73,235,-282,214,24
340,-2,-75,234,-276,224,36
345,-5,-84,235,-256,227,46
350,-4,-83,227,-228,211,50
355,-15,-90,231,-194,182,51
360,-17,-88,228,-151,146,48
365,-16,-94,228,-109,106,43
370,-14,-92,225,-68,67,35
375,-14,-92,227,-33,37,30
380,-10,-93,224,0,18,26
385,-6,-93,228,31,13,20
390,-6,-89,227,59,20,16
395,-11,-86,233,84,29,12
400,-12,-84,237,106,33,12
405,-16,-77,234,125,32,11
410,-15,-76,233,142,22,11
415,-15,-68,236,161,11,8
420,-12,-66,235,173,-1,8
425,-10,-60,237,179,-16,6
430,-13,-55,238,175,-30,0
435,-16,-54,232,158,-41,-3
440,-17,-53,234,126,-46,-5
445,-14,-52,233,87,-49,-5
450,-14,-54,234,44,-49,-5
455,-15,-51,232,-1,-44,-4
460,-17,-49,234,-39,-33,-3
465,-16,-53,231,-76,-18,-1
470,-15,-55,229,-112,1,3
475,-16,-53,229,-149,18,6
480,-16,-56,230,-181,39,12
485,-16,-58,231,-210,59,16
490,-13,-63,228,-230,74,20
495,-13,-71,226,-243,90,24
500,-11,-76,231,-249,104,26
505,-12,-79,231,-246,117,28
510,-11,-79,231,-237,130,28
515,-12,-81,229,-221,140,28
520,-10,-83,228,-202,145,28
525,-10,-82,230,-183,149,28
530,-9,-82,233,-157,149,29
535,-12,-82,232,-126,147,28
540,-11,-80,229,-98,143,28
545,-9,-79,231,-76,141,28
550,-11,-74,231,-56,138,26
555,-9,-74,232,-42,134,27
560,-7,-73,231,-33,134,26
565,-5,-72,231,-29,133,22
570,-6,-71,237,-27,128,18
575,-6,-69,239,-31,123,13
580,-7,-69,243,-34,115,6
585,-2,-67,242,-36,103,-2
590,-8,-66,239,-35,91,-12
595,-3,-69,241,-31,80,-20
600,0,-70,240,-28,72,-26
605,1,-67,239,-22,64,-34
610,1,-65,236,-14,56,-42
615,0,-65,235,-2,53,-48
620,0,-65,234,13,50,-54
625,0,-65,228,21,52,-59
630,1,-64,233,30,56,-61
635,-1,-63,233,36,65,-65
640,1,-65,234,40,75,-67
645,0,-67,232,41,82,-69
650,-5,-64,236,40,88,-72
655,-4,-63,233,33,93,-74
660,-6,-62,235,22,96,-73
665,-10,-65,232,11,100,-71
670,-6,-66,233,-1,103,-69
675,-5,-66,236,-14,103,-69
680,-8,-68,233,-24,103,-69
685,-10,-68,237,-35,99,-70
690,-7,-68,237,-42,93,-65
695,-11,-66,236,-45,84,-64
700,-10,-68,235,-45,77,-64
705,-10,-70,234,-42,72,-63
710,-10,-70,235,-41,67,-63
715,-15,-67,233,-38,61,-61
720,-11,-68,231,-35,55,-59
725,-11,-69,233,-33,52,-59
730,-10,-72,235,-31,48,-58
735,-10,-72,235,-26,44,-55
740,-13,-71,236,-22,41,-49
745,-13,-67,235,-16,40,-47
750,-10,-71,234,-11,40,-41
755,-8,-71,236,-10,37,-36
760,-9,-73,232,-10,38,-33
765,-10,-75,232,-11,35,-29
770,-13,-70,235,-11,34,-26
775,-12,-73,236,-11,32,-22
780,-12,-74,239,-9,28,-20
785,-10,-74,233,-4,22,-18
790,-16,-73,234,-4,19,-17
795,-16,-72,233,-7,13,-14
800,-15,-73,234,-8,8,-12
805,-15,-72,231,-9,3,-10
810,-16,-71,234,-8,-3,-8
815,-12,-72,235,-9,-5,-7
820,-13,-69,235,-12,-8,-4
825,-11,-72,235,-16,-8,-2
830,-9,-70,235,-16,-6,-1
835,-9,-70,231,-15,-6,0
840,-2,-63,237,-15,-4,-2
845,-4,-67,235,-19,-2,-3
850,-4,-71,236,-24,0,-6
855,-4,-67,235,-27,-2,-6
860,-6,-66,235,-29,-6,-6
865,-6,-69,236,-35,-5,-7
870,0,-66,236,-40,-6,-6
875,0,-68,233,-41,-4,-1
880,-1,-69,233,-41,-1,-1
885,-1,-63,234,-40,0,2
890,-5,-64,234,-40,2,6
895,-7,-63,231,-40,6,11
900,-3,-64,234,-42,8,14
905,0,-71,235,-46,8,17
910,-1,-67,237,-50,7,19
915,0,-65,232,-53,4,21
920,-2,-65,234,-55,0,20
925,-1,-67,237,-55,-5,20
930,-2,-67,235,-52,-9,20
935,-6,-67,235,-50,-13,20
940,-2,-66,238,-47,-19,19
945,-9,-67,241,-43,-25,20
950,-2,-67,235,-39,-26,23
955,-1,-67,235,-35,-23,25
960,1,-69,236,-33,-20,26
965,2,-64,238,-32,-13,23
970,1,-71,238,-34,-7,21
975,1,-69,238,-34,0,18
980,3,-71,237,-38,4,15
985,5,-72,236,-38,8,13
990,2,-71,237,-38,11,11
995,1,-76,234,-37,12,10
1000,3,-76,235,-37,12,7
1005,2,-73,230,-37,11,5
1010,1,-74,234,-34,10,3
1015,2,-75,231,-30,9,1
1020,1,-74,232,-27,7,-1
1025,-2,-74,228,-25,9,-2
1030,1,-73,233,-24,7,-4
1035,-1,-74,233,-22,5,-6
1040,1,-75,231,-20,5,-7
1045,0,-72,235,-18,4,-7
1050,0,-76,233,-16,3,-9
1055,1,-79,232,-14,2,-8
1060,0,-74,233,-11,4,-7
1065,0,-72,234,-9,6,-6
1070,0,-71,235,-9,8,-4
1075,-3,-74,231,-10,8,-4
1080,-1,-75,233,-13,8,-2
1085,0,-73,232,-15,8,-1
1090,0,-70,233,-20,9,1
1095,-1,-71,235,-24,14,1
1100,1,-72,233,-30,19,3
1105,2,-70,234,-37,25,2
1110,1,-77,234,-44,31,3
1115,5,-72,231,-49,36,3
1120,4,-76,232,-53,40,1
1125,3,-74,234,-55,44,3
1130,4,-78,233,-55,46,2
1135,3,-76,234,-54,48,0
1140,1,-77,230,-49,50,0
1145,2,-78,232,-42,51,-1
1150,0,-79,233,-34,49,-3
1155,1,-76,232,-25,46,-3
1160,0,-79,233,-15,45,-1
1165,1,-76,232,-3,42,0
1170,0,-72,231,7,43,1
1175,0,-75,233,14,44,2
1180,0,-68,232,16,45,1
1185,2,-67,234,17,48,2
1190,0,-71,234,16,48,3
1195,4,-67,236,12,50,4
1200,4,-70,234,6,53,3
1205,2,-71,233,1,55,2
1210,0,-69,233,-3,59,1
1215,3,-69,233,-6,61,-2
1220,5,-73,240,-8,62,-4
1225,4,-73,232,-7,62,-8
1230,2,-70,235,-6,63,-8
1235,0,-70,232,-3,63,-11
1240,3,-72,231,1,63,-12
1245,0,-72,233,4,61,-13
1250,1,-72,236,6,60,-14
1255,-1,-71,233,8,58,-13
1260,0,-72,232,10,58,-13
1265,0,-73,234,12,58,-11
1270,-1,-71,234,14,61,-10
1275,0,-74,232,16,64,-8
1280,1,-67,232,16,69,-6
1285,1,-70,234,15,75,-5
1290,1,-69,236,12,79,-3
1295,0,-68,236,8,84,-3
1300,0,-69,240,0,89,-3
1305,0,-69,235,-5,89,-4
1310,1,-66,236,-12,90,-4
1315,1,-68,235,-20,91,-2
1320,1,-65,235,-28,90,-2
1325,1,-65,235,-38,90,-1
1330,0,-70,235,-45,88,-2
1335,0,-69,237,-51,83,-5
1340,-3,-74,239,-56,79,-4
1345,-2,-79,238,-57,73,-7
1350,-1,-74,235,-51,64,-9
1355,0,-80,235,-37,54,-8
1360,0,-80,229,-21,48,-9
1365,1,-77,232,-2,43,-9
1370,1,-75,231,16,38,-10
1375,1,-77,230,37,33,-10
1380,1,-78,226,53,30,-10
1385,1,-76,226,66,28,-11
1390,0,-74,230,74,29,-12
1395,2,-76,229,78,32,-10
1400,2,-72,228,79,37,-10
1405,1,-70,232,75,45,-10
1410,4,-72,234,67,51,-10
1415,0,-67,230,56,58,-9
1420,0,-65,233,42,64,-8
1425,0,-65,232,29,66,-8
1430,0,-65,236,14,68,-6
1435,0,-64,236,2,70,-5
1440,2,-75,237,-11,67,-2
1445,1,-64,238,-22,66,-1
1450,2,-69,236,-31,64,0
1455,1,-67,239,-36,64,-1
1460,1,-69,236,-42,61,-1
1465,1,-69,233,-44,58,0
1470,2,-69,237,-47,56,-1
1475,1,-72,236,-44,54,-1
1480,1,-72,234,-41,53,-3
1485,0,-72,235,-36,52,-4
1490,0,-73,237,-29,52,-3
1495,0,-73,234,-23,54,-3
1500,0,-74,235,-18,57,-3
1505,1,-73,234,-13,60,-4
1510,1,-69,231,-8,61,-5
1515,-2,-67,235,-6,62,-4
1520,1,-70,235,-4,61,-5
1525,-1,-72,234,-4,59,-6
1530,-2,-69,233,-4,57,-6
1535,0,-69,231,-6,56,-4
1540,-2,-68,233,-8,57,-5
1545,0,-70,235,-11,58,-6
1550,1,-68,235,-15,61,-6
1555,1,-70,235,-18,62,-7
1560,0,-70,234,-22,63,-5
1565,1,-71,232,-26,66,-3
1570,2,-71,235,-30,68,-4
1575,1,-70,233,-33,69,-5
1580,0,-69,234,-36,69,-6
1585,2,-72,236,-37,67,-6
1590,1,-72,237,-38,64,-6
1595,0,-70,233,-36,61,-6
1600,0,-71,235,-33,57,-5
1605,0,-73,231,-30,52,-4
1610,0,-71,235,-26,49,-3
1615,1,-75,229,-21,43,-3
1620,3,-78,234,-17,40,-1
1625,1,-77,232,-15,39,-1
1630,-2,-73,233,-12,39,0
1635,0,-73,233,-9,38,1
1640,0,-70,232,-6,38,3
1645,2,-74,237,-5,38,4
1650,4,-73,229,-4,40,4
1655,3,-75,235,-4,39,4
1660,3,-68,235,-6,41,2
1665,3,-72,234,-7,39,3
1670,0,-70,233,-9,39,3
1675,2,-70,233,-11,40,3
1680,3,-72,235,-12,42,4
1685,3,-71,234,-14,45,2
1690,3,-68,234,-16,48,3
1695,2,-72,236,-19,52,2
1700,6,-70,236,-22,53,1
1705,5,-74,236,-26,57,0
1710,4,-72,236,-32,59,-1
1715,1,-71,232,-36,61,-4
1720,1,-70,235,-38,64,-5
1725,7,-72,234,-39,65,-7
1730,0,-72,234,-37,65,-7
1735,2,-74,236,-35,67,-9
1740,1,-71,233,-30,67,-8
1745,1,-71,235,-25,66,-7
1750,2,-73,234,-19,64,-7
1755,0,-73,235,-15,64,-6
1760,-1,-73,234,-11,62,-4
1765,1,-69,234,-7,61,-2
1770,0,-69,235,-7,59,0
1775,0,-67,235,-7,59,0
1780,0,-69,232,-7,55,1
1785,1,-67,235,-10,51,0
1790,1,-68,230,-11,49,1
1795,1,-67,232,-13,46,1
1800,2,-70,236,-17,43,1
1805,3,-71,235,-20,39,2
1810,2,-72,236,-20,37,1
1815,0,-72,234,-20,36,0
1820,2,-75,234,-18,34,2
1825,2,-70,236,-17,35,0
1830,1,-72,233,-17,37,0
1835,2,-72,235,-16,40,-1
1840,2,-73,235,-15,43,-3
1845,4,-72,232,-15,45,-4
1850,4,-74,233,-16,47,-5
1855,2,-69,235,-16,49,-4
1860,3,-74,237,-18,55,-4
1865,4,-71,234,-22,58,-5
1870,4,-70,235,-23,63,-4
1875,2,-72,235,-26,68,-6
1880,2,-73,239,-27,69,-6
1885,1,-72,232,-29,68,-6
1890,2,-74,236,-30,69,-5
1895,2,-70,232,-27,67,-4
1900,3,-76,234,-25,67,-6
1905,3,-72,233,-24,67,-4
1910,3,-76,234,-21,66,-4
1915,1,-73,233,-19,65,-3
1920,1,-71,232,-16,63,-3
1925,3,-73,232,-15,61,-3
1930,1,-70,232,-14,58,-3
1935,4,-74,232,-12,58,-4
1940,3,-70,236,-10,59,-3
1945,4,-72,233,-10,59,-4
1950,2,-70,234,-10,56,-5
1955,0,-72,234,-9,59,-5
1960,1,-69,238,-11,57,-5
1965,1,-68,234,-11,55,-6
1970,1,-73,235,-12,53,-4
1975,4,-74,232,-13,52,-6
1980,0,-72,234,-13,51,-4
1985,1,-67,232,-13,51,-2
1990,4,-72,233,-14,51,-2
1995,1,-71,235,-15,52,-1
2000,1,-71,231,-14,52,-1
2005,4,-71,234,-14,51,-2
2010,1,-71,233,-13,50,-2
2015,3,-72,232,-12,50,-3
2020,2,-69,234,-11,49,-3
2025,3,-70,235,-12,49,-4
2030,2,-70,235,-15,47,-2
2035,3,-71,234,-16,45,-3
2040,0,-70,234,-17,43,-2
2045,2,-72,234,-16,44,-1
2050,2,-69,232,-12,45,-2
2055,0,-72,235,-12,48,-1
2060,3,-71,235,-11,49,-3
2065,4,-70,234,-10,50,-2
2070,2,-73,233,-8,52,-3
2075,4,-72,234,-8,53,-5
2080,4,-72,232,-8,54,-5
2085,3,-69,235,-8,57,-5
2090,2,-69,239,-10,61,-6
2095,2,-70,235,-13,66,-7
2100,2,-71,235,-19,66,-6
2105,1,-70,235,-23,65,-6
2110,2,-75,231,-27,64,-6
2115,1,-76,236,-28,62,-6
2120,3,-80,238,-24,56,-7
2125,0,-76,235,-16,49,-9
2130,2,-78,233,-3,40,-10
2135,2,-78,231,13,32,-10
2140,4,-79,233,30,24,-13
2145,2,-80,234,45,16,-14
2150,3,-81,233,60,9,-16
2155,3,-75,229,71,2,-17
2160,3,-78,228,83,-4,-18
2165,6,-74,229,89,-4,-19
2170,7,-75,228,94,-4,-19
2175,9,-76,234,99,1,-21
2180,7,-73,235,105,9,-22
2185,6,-74,235,109,16,-24
2190,8,-68,236,105,23,-23
2195,10,-71,233,97,26,-22
2200,11,-66,236,86,31,-22
2205,9,-68,236,72,32,-23
2210,13,-71,238,58,33,-26
2215,12,-72,244,48,31,-28
2220,11,-72,245,40,31,-33
2225,12,-75,244,39,26,-37
2230,13,-76,251,44,23,-42
2235,11,-79,255,54,19,-46
2240,19,-82,257,71,20,-50
2245,22,-80,258,95,24,-54
2250,18,-83,264,123,31,-58
2255,18,-86,262,152,37,-63
2260,13,-85,262,180,38,-69
2265,11,-87,261,203,34,-74
2270,6,-83,256,225,26,-77
2275,9,-84,256,238,10,-81
2280,8,-82,255,247,-9,-83
2285,10,-79,248,254,-29,-86
2290,11,-77,253,258,-50,-87
2295,9,-70,250,263,-68,-89
2300,17,-68,242,269,-81,-93
2305,15,-67,244,273,-92,-99
2310,12,-62,240,273,-102,-108
2315,20,-62,244,272,-111,-121
2320,21,-61,241,274,-116,-132
2325,21,-62,246,279,-121,-143
2330,23,-61,248,288,-120,-153
2335,24,-61,250,305,-118,-159
2340,26,-63,248,327,-114,-162
2345,32,-63,248,352,-111,-170
2350,29,-60,256,384,-105,-178
2355,29,-62,250,417,-94,-189
2360,27,-63,254,454,-85,-202
2365,22,-61,254,488,-77,-215
2370,13,-61,256,518,-79,-225
2375,7,-62,255,545,-91,-230
2380,-8,-60,257,569,-112,-232
2385,-24,-57,259,581,-144,-227
2390,-42,-59,258,581,-197,-217
2395,-49,-56,262,569,-274,-203
2400,-41,-54,262,549,-367,-181
2405,-24,-55,261,521,-460,-159
2410,-14,-53,260,499,-533,-142
2415,-9,-56,256,482,-580,-134
2420,-11,-57,261,469,-615,-134
2425,-7,-56,257,459,-656,-141
2430,1,-59,256,447,-702,-150
2435,5,-58,255,445,-749,-160
2440,17,-56,254,446,-797,-173
2445,24,-56,247,456,-845,-186
2450,32,-57,250,468,-887,-202
2455,35,-54,245,481,-928,-217
2460,32,-52,241,491,-967,-235
2465,32,-52,246,495,-1006,-255
2470,30,-52,243,493,-1056,-276
2475,34,-46,239,495,-1114,-296
2480,35,-49,238,498,-1172,-315
2485,41,-49,239,502,-1229,-333
2490,38,-44,241,508,-1286,-349
2495,40,-46,237,515,-1339,-365
2500,41,-43,231,520,-1388,-378
2505,45,-41,226,516,-1436,-391
2510,47,-41,226,500,-1476,-402
2515,48,-32,221,470,-1508,-411
2520,53,-31,223,425,-1529,-416
2525,59,-20,232,368,-1547,-420
2530,57,-21,226,301,-1562,-421
2535,59,-20,221,228,-1576,-419
2540,59,-22,227,155,-1591,-415
2545,62,-25,231,89,-1613,-411
2550,60,-23,226,31,-1650,-405
2555,63,-25,223,-21,-1701,-403
2560,59,-25,215,-73,-1762,-408
2565,63,-28,204,-125,-1827,-418
2570,64,-24,196,-169,-1884,-429
2575,65,-25,192,-207,-1927,-441
2580,69,-28,185,-240,-1951,-451
2585,70,-32,182,-262,-1957,-458
2590,72,-34,178,-267,-1946,-461
2595,74,-34,174,-262,-1924,-466
2600,76,-35,171,-247,-1892,-464
2605,82,-35,171,-222,-1851,-449
2610,89,-33,168,-191,-1806,-431
2615,97,-31,165,-157,-1756,-408
2620,98,-27,160,-128,-1695,-386
2625,102,-26,161,-105,-1625,-366
2630,105,-19,157,-95,-1554,-348
2635,110,-9,159,-97,-1485,-329
2640,111,-15,150,-111,-1420,-305
2645,114,-11,148,-127,-1360,-276
2650,116,-6,149,-143,-1307,-242
2655,115,-4,144,-167,-1256,-213
2660,113,-6,145,-192,-1208,-186
2665,114,-9,151,-216,-1160,-154
2670,113,-10,150,-229,-1110,-124
2675,111,-9,149,-233,-1057,-92
2680,113,-14,148,-228,-997,-61
2685,117,-19,150,-211,-929,-37
2690,122,-17,151,-184,-853,-8
2695,123,-17,160,-156,-770,15
2700,126,-12,159,-131,-685,37
2705,128,-9,161,-117,-594,60
2710,129,-5,169,-121,-496,88
2715,131,-4,175,-133,-396,113
2720,128,-3,184,-149,-291,140
2725,129,-6,191,-162,-184,171
2730,128,-9,197,-171,-79,200
2735,120,-8,209,-175,18,222
2740,110,-7,215,-174,105,236
2745,103,-10,211,-182,172,254
2750,101,-13,219,-200,213,272
2755,101,-18,216,-224,232,284
2760,104,-16,214,-247,242,287
2765,106,-15,210,-267,245,291
2770,107,-13,209,-293,247,297
2775,112,-16,212,-323,247,297
2780,113,-15,212,-353,252,298
2785,117,-16,213,-383,262,295
2790,121,-16,216,-406,270,291
2795,119,-17,225,-425,267,285
2800,119,-19,225,-446,234,274
2805,123,-22,228,-476,191,261
2810,125,-29,233,-514,138,251
2815,125,-38,237,-550,85,246
2820,128,-48,246,-576,32,242
2825,132,-58,247,-588,-19,233
2830,136,-67,257,-580,-69,225
2835,140,-75,264,-545,-114,212
2840,143,-82,265,-490,-168,195
2845,153,-78,263,-437,-224,173
2850,157,-80,248,-404,-275,153
2855,166,-68,248,-409,-320,139
2860,174,-62,244,-448,-353,127
2865,172,-58,235,-502,-378,121
2870,172,-55,233,-550,-392,127
2875,179,-64,228,-586,-396,134
2880,172,-67,224,-603,-386,140
2885,165,-76,219,-598,-369,146
2890,158,-83,213,-580,-352,146
2895,150,-85,207,-536,-338,139
2900,140,-86,203,-468,-326,132
2905,134,-88,185,-389,-292,128
2910,130,-78,186,-320,-225,133
2915,128,-77,186,-258,-139,150
2920,124,-68,196,-217,-48,180
2925,116,-57,211,-199,22,217
2930,108,-51,224,-207,55,250
2935,108,-50,231,-251,62,279
2940,107,-46,230,-325,60,297
2945,101,-50,241,-409,46,313
2950,101,-44,245,-486,28,345
2955,102,-45,233,-531,7,398
2960,108,-48,210,-553,-5,460
2965,112,-48,170,-559,-16,524
2970,118,-50,131,-549,-33,583
2975,138,-48,126,-534,-53,639
2980,168,-53,131,-533,-94,700
2985,197,-70,144,-564,-143,778
2990,233,-99,165,-601,-180,858
2995,257,-120,178,-576,-177,917
3000,258,-140,188,-455,-135,930
3005,246,-150,190,-262,-71,905
3010,219,-142,180,-60,-25,857
3015,192,-133,166,98,-3,800
3020,177,-127,159,190,2,744
3025,165,-125,151,234,-19,687
3030,153,-125,143,260,-72,626
3035,151,-119,150,272,-140,557
3040,138,-109,166,255,-222,496
3045,138,-99,172,224,-314,441
3050,133,-92,170,184,-403,386
3055,125,-79,180,149,-465,338
3060,119,-68,179,117,-520,300
3065,101,-56,167,95,-566,269
3070,106,-49,166,74,-604,249
3075,116,-49,165,48,-645,237
3080,132,-49,160,27,-688,226
3085,142,-45,157,10,-708,206
3090,154,-51,163,-13,-703,190
3095,165,-48,157,-19,-697,170
3100,170,-49,157,-1,-696,148
3105,176,-50,159,32,-675,142
3110,188,-53,161,63,-639,143
3115,192,-54,164,94,-593,145
3120,197,-61,160,143,-556,146
3125,199,-55,164,204,-534,130
3130,203,-51,173,247,-524,106
3135,203,-43,175,255,-519,83
3140,206,-47,168,247,-509,64
3145,204,-47,170,228,-497,48
3150,206,-51,169,214,-495,48
3155,209,-55,175,205,-492,70
3160,211,-57,180,196,-482,96
3165,213,-57,179,176,-481,119
3170,203,-59,185,138,-490,140
3175,195,-68,195,94,-511,168
3180,180,-71,209,56,-546,194
3185,165,-77,209,26,-603,215
3190,153,-85,212,4,-676,232
3195,139,-87,204,-9,-757,249
3200,134,-85,195,-17,-815,268
3205,132,-85,191,-28,-862,296
3210,134,-90,193,-45,-911,308
3215,139,-99,197,-67,-965,309
3220,142,-98,201,-96,-1027,308
3225,146,-110,198,-134,-1085,315
3230,144,-113,183,-175,-1123,323
3235,148,-119,179,-219,-1156,339
3240,145,-126,174,-269,-1198,340
3245,140,-134,174,-313,-1218,320
3250,131,-131,168,-330,-1192,292
3255,132,-130,153,-328,-1110,275
3260,137,-122,140,-320,-1006,261
3265,141,-135,140,-308,-906,242
3270,142,-136,135,-279,-822,209
3275,138,-143,126,-235,-747,173
3280,140,-147,123,-172,-690,141
3285,140,-153,126,-104,-670,103
3290,142,-145,126,-36,-694,72
3295,146,-142,135,29,-741,45
3300,138,-131,141,79,-793,29
3305,136,-122,152,116,-842,5
3310,133,-107,155,137,-885,-16
3315,139,-95,151,141,-897,-33
3320,146,-80,146,117,-877,-47
3325,153,-73,144,80,-843,-62
3330,165,-67,149,44,-804,-79
3335,166,-66,153,26,-755,-97
3340,171,-73,146,31,-703,-111
3345,182,-81,142,49,-647,-121
3350,193,-94,146,88,-556,-129
3355,193,-98,144,153,-436,-130
3360,192,-101,146,216,-318,-122
3365,187,-101,145,260,-219,-100
3370,180,-105,145,281,-135,-72
3375,178,-113,147,286,-54,-33
3380,175,-112,143,298,15,-7
3385,159,-112,142,309,69,13
3390,158,-113,139,315,114,30
3395,162,-106,134,330,157,38
3400,167,-108,143,353,195,39
3405,162,-106,137,391,213,44
3410,166,-104,136,419,202,60
3415,175,-96,134,417,139,69
3420,176,-87,136,391,43,65
3425,182,-84,134,350,-69,59
3430,191,-83,134,299,-168,58
3435,195,-80,134,249,-235,58
3440,198,-77,130,202,-278,60
3445,204,-82,134,165,-314,63
3450,210,-85,129,139,-341,69
3455,222,-85,129,122,-355,74
3460,230,-90,134,114,-361,76
3465,232,-89,136,115,-358,74
3470,236,-95,134,114,-349,72
3475,240,-92,129,109,-340,71
3480,238,-92,128,104,-335,65
3485,234,-90,124,104,-333,54
3490,233,-96,117,98,-339,32
3495,227,-98,109,82,-350,1
3500,225,-97,106,69,-361,-29
3505,224,-95,104,63,-367,-60
3510,218,-97,101,67,-370,-92
3515,216,-92,95,73,-361,-122
3520,217,-91,94,85,-339,-148
3525,210,-89,92,97,-302,-170
3530,216,-91,93,116,-253,-190
3535,220,-87,97,141,-198,-208
3540,216,-89,103,175,-140,-227
3545,219,-85,105,213,-83,-245
3550,217,-81,106,246,-34,-267
3555,216,-74,113,271,2,-283
3560,221,-69,116,287,28,-302
3565,222,-63,119,285,40,-316
3570,224,-58,122,268,35,-328
3575,225,-51,129,233,21,-337
3580,229,-49,127,188,-5,-346
3585,230,-46,128,132,-36,-351
3590,232,-44,126,72,-75,-350
3595,237,-45,128,11,-119,-351
3600,237,-46,129,-43,-166,-349
3605,229,-47,127,-90,-208,-345
3610,232,-52,124,-132,-244,-336
3615,232,-57,122,-168,-269,-325
3620,235,-62,121,-197,-285,-311
3625,236,-69,118,-212,-290,-304
3630,236,-69,121,-215,-285,-301
3635,234,-76,124,-213,-283,-301
3640,235,-79,130,-211,-294,-306
3645,232,-84,128,-205,-324,-314
3650,234,-86,126,-199,-377,-322
3655,237,-84,125,-202,-448,-336
3660,241,-85,126,-215,-537,-355
3665,241,-88,122,-229,-646,-384
3670,242,-89,121,-239,-764,-424
3675,241,-90,116,-241,-894,-469
3680,238,-89,113,-240,-1026,-521
3685,236,-88,113,-238,-1158,-575
3690,226,-83,102,-240,-1284,-632
3695,222,-81,95,-241,-1402,-691
3700,216,-77,89,-236,-1502,-749
3705,206,-72,87,-216,-1570,-797
3710,197,-67,85,-188,-1603,-832
3715,192,-67,87,-159,-1607,-849
3720,197,-66,83,-133,-1593,-858
3725,180,-66,84,-115,-1572,-861
3730,179,-65,84,-103,-1554,-861
3735,177,-64,79,-93,-1537,-858
3740,177,-64,77,-84,-1521,-856
3745,182,-65,72,-68,-1506,-860
3750,186,-64,68,-41,-1501,-872
3755,188,-63,56,-13,-1504,-892
3760,191,-62,49,8,-1512,-925
3765,186,-54,40,21,-1530,-967
3770,178,-54,38,22,-1550,-1008
3775,169,-48,36,8,-1584,-1046
3780,152,-46,38,-15,-1626,-1078
3785,140,-42,31,-40,-1677,-1105
3790,136,-41,25,-62,-1739,-1123
3795,131,-35,22,-79,-1803,-1136
3800,126,-29,14,-90,-1866,-1149
3805,120,-24,13,-98,-1931,-1161
3810,118,-15,12,-107,-2002,-1163
3815,115,-12,16,-117,-2072,-1154
3820,118,-7,14,-132,-2127,-1143
3825,130,-14,13,-148,-2160,-1126
3830,145,-7,24,-160,-2173,-1107
3835,162,-7,26,-166,-2163,-1084
3840,178,-6,29,-165,-2128,-1059
3845,196,-5,30,-162,-2070,-1031
3850,216,-6,38,-160,-1984,-1000
3855,236,-2,34,-164,-1878,-969
3860,264,-1,33,-183,-1755,-935
3865,286,0,37,-204,-1609,-889
3870,312,-1,39,-231,-1432,-834
3875,331,1,43,-268,-1232,-778
3880,350,5,46,-318,-1007,-723
3885,368,9,47,-388,-763,-669
3890,388,11,57,-469,-495,-607
3895,413,10,58,-553,-203,-538
3900,428,8,67,-618,105,-465
3905,437,0,78,-656,413,-384
3910,439,-12,82,-654,700,-303
3915,425,-20,82,-611,947,-220
3920,396,-34,80,-534,1126,-144
3925,364,-35,71,-425,1215,-79
3930,328,-35,56,-299,1201,-26
3935,304,-39,44,-169,1095,34
3940,292,-30,29,-44,938,112
3945,277,-24,18,62,768,206
3950,274,-24,22,151,607,294
3955,265,-25,30,210,461,368
3960,258,-25,34,251,337,431
3965,255,-23,44,283,247,478
3970,246,-21,50,307,186,512
3975,242,-27,58,326,142,534
3980,235,-24,60,332,103,545
3985,229,-25,58,322,66,541
3990,224,-17,61,297,29,527
3995,222,-15,60,262,-5,508
4000,221,-13,60,222,-35,480
4005,218,-9,59,174,-66,450
4010,216,-3,56,123,-106,415
4015,216,-4,47,60,-152,373
4020,222,-5,41,-19,-196,323
4025,225,-6,32,-105,-223,270
4030,230,-17,31,-192,-231,215
4035,237,-26,27,-258,-218,160
4040,243,-34,26,-303,-197,108
4045,244,-35,23,-320,-172,59
4050,250,-44,18,-315,-142,16
4055,256,-46,22,-296,-114,-20
4060,256,-48,20,-270,-89,-48
4065,260,-45,18,-238,-70,-71
4070,263,-41,12,-210,-66,-84
4075,265,-40,9,-186,-69,-92
4080,271,-42,6,-171,-81,-92
4085,276,-39,6,-162,-93,-88
4090,278,-42,4,-156,-99,-78
4095,280,-40,-1,-150,-98,-66
4100,283,-44,-3,-138,-89,-50
4105,286,-45,-2,-119,-65,-33
4110,284,-48,-4,-90,-38,-19
4115,285,-51,1,-53,-5,-4
4120,279,-46,1,-9,27,8
4125,280,-48,3,37,57,19
4130,271,-43,5,79,82,28
4135,268,-42,8,110,105,35
4140,263,-34,6,130,127,42
4145,263,-35,9,138,146,49
4150,254,-32,10,141,160,50
4155,251,-33,12,140,171,50
4160,252,-32,13,139,177,50
4165,251,-38,12,138,178,47
4170,247,-37,13,137,179,45
4175,244,-35,16,137,178,41
4180,246,-35,18,138,180,38
4185,246,-33,17,137,186,34
4190,246,-27,13,133,195,27
4195,247,-26,16,120,203,18
4200,247,-20,12,104,209,13
4205,252,-23,17,81,208,9
4210,254,-17,15,55,200,5
4215,254,-18,12,28,190,2
4220,259,-21,15,2,176,0
4225,261,-19,14,-20,163,-3
4230,260,-24,21,-38,145,-10
4235,258,-25,19,-53,130,-17
4240,260,-31,20,-63,115,-26
4245,259,-32,19,-65,103,-35
4250,258,-35,19,-60,103,-44
4255,257,-33,19,-49,109,-51
4260,260,-26,21,-36,123,-57
4265,256,-34,23,-19,140,-62
4270,255,-30,18,-4,156,-66
4275,256,-28,20,8,171,-68
4280,257,-25,22,16,182,-69
4285,259,-22,22,16,189,-67
4290,256,-17,27,12,188,-68
4295,261,-19,27,1,185,-65
4300,258,-16,29,-12,179,-62
4305,259,-16,32,-24,175,-56
4310,260,-14,27,-33,174,-47
4315,263,-19,27,-36,176,-38
4320,258,-14,32,-33,180,-28
4325,262,-18,35,-23,181,-13
4330,260,-13,31,-12,181,-2
4335,258,-10,33,0,179,12
4340,259,-11,27,8,176,26
4345,258,-9,28,11,171,37
4350,259,-12,29,7,167,48
4355,258,-15,27,-1,163,55
4360,254,-11,31,-12,161,61
4365,256,-16,31,-27,159,70
4370,251,-16,29,-43,155,76
4375,254,-20,33,-60,151,82
4380,256,-21,34,-77,146,87
4385,254,-24,30,-90,139,88
4390,254,-28,31,-97,133,88
4395,253,-27,30,-102,131,86
4400,255,-30,30,-106,129,81
4405,250,-30,29,-109,127,78
4410,255,-30,29,-113,125,71
4415,251,-32,26,-114,125,65
4420,249,-32,24,-112,128,59
4425,253,-39,25,-107,131,50
4430,249,-38,28,-98,135,43
4435,246,-42,28,-87,142,35
4440,247,-42,31,-74,149,31
4445,246,-46,30,-61,155,28
4450,246,-46,30,-47,161,28
4455,245,-48,33,-27,168,29
4460,245,-46,34,-8,176,26
4465,246,-46,33,12,184,25
4470,248,-47,31,30,191,25
4475,243,-42,30,48,198,21
4480,249,-39,32,61,206,15
4485,250,-39,30,70,212,10
4490,253,-34,30,73,219,3
4495,253,-32,32,73,226,-6
4500,252,-30,25,69,231,-12
4505,254,-26,30,61,237,-18
4510,256,-25,27,52,239,-21
4515,254,-22,27,39,239,-21
4520,252,-18,27,25,237,-19
4525,256,-24,30,12,233,-16
4530,255,-25,30,2,228,-14
4535,256,-27,29,-4,225,-11
4540,255,-30,32,-7,224,-8
4545,252,-26,31,-7,223,-7
4550,253,-27,31,-3,229,-8
4555,256,-31,31,6,235,-9
4560,255,-28,29,15,243,-10
4565,254,-28,34,24,254,-11
4570,254,-27,35,32,259,-11
4575,256,-27,33,36,264,-11
4580,255,-24,37,40,267,-9
4585,256,-26,43,41,268,-5
4590,253,-27,39,44,267,-1
4595,254,-25,39,45,265,2
4600,251,-24,41,48,264,4
4605,252,-28,41,48,260,4
4610,250,-26,43,46,256,2
4615,251,-22,42,39,250,0
4620,250,-24,41,27,242,-1
4625,252,-25,43,15,234,0
4630,250,-26,45,3,225,1
4635,249,-30,43,-8,219,-1
4640,245,-29,44,-16,213,0
4645,246,-30,42,-23,207,-1
4650,249,-30,42,-30,206,-2
4655,250,-30,45,-34,207,-2
4660,250,-25,47,-42,206,0
4665,248,-27,47,-49,205,1
4670,250,-27,44,-57,202,3
4675,249,-29,46,-59,197,7
4680,252,-27,45,-60,191,8
4685,255,-30,47,-56,184,9
4690,256,-29,45,-51,176,10
4695,255,-31,46,-44,167,10
4700,254,-26,43,-36,157,11
4705,256,-26,43,-30,145,12
4710,257,-27,42,-26,135,10
4715,256,-21,39,-21,125,6
4720,259,-24,41,-15,121,8
4725,260,-27,39,-11,120,9
4730,260,-24,38,-5,122,12
4735,258,-26,37,1,124,17
4740,257,-21,37,6,127,20
4745,255,-24,38,10,129,23
4750,257,-24,33,10,132,28
4755,255,-23,38,5,135,32
4760,254,-24,42,3,138,35
4765,251,-23,38,0,145,36
4770,251,-25,41,-4,150,38
4775,249,-23,44,-8,156,39
4780,251,-25,43,-13,162,41
4785,251,-27,45,-16,169,41
4790,248,-27,45,-17,177,41
4795,250,-27,45,-21,185,41
4800,251,-26,47,-27,195,41
4805,250,-23,47,-34,208,35
4810,250,-29,53,-43,217,30
4815,249,-26,49,-46,227,24
4820,253,-25,47,-43,235,24
4825,252,-27,47,-30,243,28
4830,249,-25,46,-15,249,34
4835,249,-25,46,-1,250,38
4840,250,-29,44,9,248,46
4845,246,-30,50,19,243,54
4850,248,-29,46,29,234,61
4855,250,-31,50,38,225,67
4860,249,-31,44,43,218,72
4865,249,-28,44,46,210,76
4870,251,-36,43,42,204,77
4875,246,-30,45,33,200,76
4880,248,-31,46,20,198,73
4885,248,-31,45,5,195,66
4890,247,-34,49,-11,192,60
4895,249,-39,51,-28,186,54
4900,250,-36,53,-41,180,49
4905,247,-34,50,-56,175,43
4910,250,-32,53,-67,172,35
4915,247,-34,47,-78,165,29
4920,246,-34,52,-86,158,24
4925,246,-36,54,-92,153,22
4930,246,-38,52,-95,147,19
4935,246,-40,53,-96,144,15
4940,246,-36,55,-92,140,13
4945,247,-41,54,-86,139,11
4950,248,-42,51,-79,137,10
4955,246,-40,54,-66,136,9
4960,253,-41,54,-51,133,7
4965,247,-36,54,-38,128,4
4970,248,-38,53,-24,124,2
4975,247,-35,52,-8,125,-1
4980,248,-35,50,5,128,-3
4985,247,-31,47,19,130,-4
4990,248,-36,48,30,133,-5
4995,249,-35,48,41,139,-7
5000,247,-32,50,48,143,-10
5005,249,-30,46,53,147,-10
5010,249,-31,50,53,154,-10
5015,251,-30,50,49,154,-8
5020,251,-31,46,43,154,-6
5025,250,-26,51,38,153,-4
5030,251,-28,53,28,150,-3
5035,247,-28,48,20,147,-1
5040,248,-30,51,11,141,1
5045,247,-29,52,4,137,1
5050,248,-27,56,1,132,4
5055,248,-32,52,-1,127,6
5060,249,-29,51,-1,121,8
5065,248,-30,53,0,118,9
5070,247,-31,51,2,113,11
5075,248,-27,53,5,111,14
5080,247,-29,55,10,109,15
5085,246,-31,52,12,108,16
5090,247,-30,52,12,108,15
5095,244,-33,52,14,108,16
5100,239,-27,58,15,109,16
5105,244,-32,58,14,108,15
5110,242,-29,58,13,108,14
5115,244,-33,62,14,106,13
5120,245,-34,60,14,102,11
5125,246,-34,54,16,96,11
5130,240,-39,51,17,88,8
5135,245,-36,55,16,80,6
5140,244,-33,52,17,68,4
5145,245,-33,52,16,60,2
5150,246,-35,54,16,49,2
5155,245,-31,50,17,44,0
5160,244,-31,50,19,42,-2
5165,244,-31,51,19,42,-4
5170,241,-30,49,22,43,-5
5175,243,-32,53,21,43,-6
5180,244,-30,52,23,45,-7
5185,245,-32,53,25,46,-7
5190,244,-31,53,29,46,-7
5195,242,-33,56,32,48,-8
5200,246,-30,53,35,51,-8
5205,247,-29,51,36,53,-9
5210,245,-28,53,36,54,-9
5215,246,-27,50,36,54,-7
5220,249,-30,56,32,53,-7
5225,248,-31,51,29,53,-7
5230,250,-27,50,25,51,-7
5235,250,-31,51,20,51,-7
5240,250,-32,51,17,50,-7
5245,248,-31,51,14,50,-7
5250,248,-31,48,14,52,-6
5255,245,-29,54,17,54,-5
5260,248,-29,47,17,58,-3
5265,248,-33,53,19,63,-1
5270,248,-31,48,21,66,0
5275,250,-31,48,23,70,2
5280,251,-30,48,24,71,2
5285,249,-29,51,23,74,4
5290,247,-29,49,24,77,6
5295,252,-32,48,26,81,10
5300,248,-33,46,27,85,10
5305,252,-33,49,29,87,12
5310,250,-28,49,30,92,12
5315,249,-31,48,31,94,13
5320,251,-28,46,30,96,14
5325,250,-30,51,32,101,15
5330,249,-34,51,32,102,14
5335,251,-32,52,32,107,12
5340,249,-28,52,32,107,13
5345,249,-31,47,33,109,14
5350,247,-25,44,34,110,13
5355,247,-30,51,34,112,14
5360,250,-35,54,36,112,17
5365,250,-32,51,35,113,18
5370,248,-30,50,38,116,20
5375,251,-32,51,43,118,22
5380,249,-32,52,48,119,23
5385,248,-34,51,54,121,25
5390,250,-33,53,60,124,25
5395,249,-30,50,67,125,29
5400,243,-29,46,70,126,30
5405,250,-31,52,71,126,31
5410,251,-33,51,74,126,31
5415,248,-30,49,74,125,34
5420,250,-31,50,76,124,35
5425,248,-33,51,74,123,35
5430,250,-34,52,75,122,35
5435,249,-32,51,78,123,35
5440,246,-32,54,78,127,31
5445,250,-33,51,79,130,31
5450,251,-34,55,81,134,28
5455,247,-30,54,81,139,26
5460,247,-29,55,83,145,25
5465,247,-34,55,83,150,25
5470,245,-29,54,82,153,25
5475,244,-29,55,81,155,23
5480,246,-35,58,80,156,25
5485,245,-30,58,78,155,25
5490,247,-34,59,76,154,27
5495,244,-30,58,75,152,26
5500,247,-28,58,71,150,25
5505,247,-28,57,69,147,25
5510,249,-31,58,64,147,24
5515,245,-33,58,58,144,25
5520,248,-29,58,54,145,23
5525,249,-31,60,49,142,22
5530,245,-30,59,43,140,23
5535,246,-29,60,36,137,22
5540,248,-31,59,29,131,22
5545,246,-29,57,23,125,20
5550,247,-33,58,17,122,20
5555,246,-34,58,13,119,21
5560,247,-36,53,11,116,19
5565,244,-33,55,11,114,20
5570,246,-36,57,14,112,20
5575,250,-34,55,18,110,19
5580,247,-33,59,22,110,17
5585,246,-32,57,26,107,17
5590,249,-32,59,28,105,17
5595,244,-31,63,32,104,16
5600,245,-30,59,35,103,14
5605,246,-32,59,34,103,16
5610,247,-32,60,33,103,15
5615,246,-28,58,31,103,15
5620,244,-30,58,29,104,16
5625,246,-30,56,27,105,15
5630,249,-30,55,26,106,15
5635,245,-32,59,24,108,14
5640,247,-30,57,22,109,14
5645,246,-31,57,20,110,15
5650,246,-31,61,19,113,16
5655,247,-31,62,18,113,16
5660,246,-33,60,17,112,17
5665,247,-35,63,18,115,17
5670,245,-32,58,20,119,19
5675,243,-33,59,24,118,19
5680,245,-33,62,27,118,19
5685,245,-32,56,30,120,19
5690,244,-32,59,33,120,20
5695,248,-33,59,33,119,19
5700,247,-32,58,33,117,20
5705,246,-31,64,33,116,20
5710,245,-32,60,32,113,22
5715,243,-30,58,29,111,23
5720,245,-34,60,25,109,23
5725,247,-34,60,22,108,22
5730,245,-31,62,19,105,24
5735,246,-32,63,16,105,22
5740,244,-32,59,14,106,20
5745,247,-31,57,12,106,19
5750,245,-34,59,12,107,17
5755,244,-33,64,9,109,15
5760,248,-34,60,7,110,13
5765,245,-33,62,8,112,12
5770,242,-32,61,8,113,11
5775,244,-35,63,10,113,8
5780,243,-31,65,11,114,5
5785,246,-32,64,14,114,7
5790,247,-34,62,18,116,6
5795,243,-31,60,20,112,6
5800,247,-32,60,23,110,5
5805,244,-28,62,22,107,5
5810,245,-31,63,19,103,6
5815,243,-32,62,17,99,7
5820,240,-31,59,13,95,7
5825,245,-32,62,11,91,7
5830,246,-31,64,9,93,5
5835,244,-33,62,7,90,4
5840,245,-35,58,6,91,4
5845,246,-35,65,6,89,2
5850,247,-35,62,6,87,3
5855,250,-36,62,10,83,3
5860,247,-33,59,15,80,4
5865,246,-32,62,20,76,4
5870,247,-35,59,24,75,6
5875,248,-33,63,27,72,5
5880,248,-34,59,32,72,4
5885,248,-35,58,33,72,6
5890,247,-33,58,35,71,7
5895,241,-34,65,38,71,8
5900,246,-33,60,41,73,8
5905,247,-31,56,43,74,8
5910,243,-31,60,42,76,8
5915,246,-29,64,42,76,10
5920,245,-30,62,40,80,11
5925,242,-27,63,35,82,9
5930,239,-25,63,31,85,9
5935,242,-30,63,26,88,10
5940,241,-30,60,20,87,9
5945,243,-25,65,13,89,7
5950,244,-31,65,7,88,6
5955,244,-31,63,2,89,4
5960,244,-28,65,-2,89,4
5965,245,-32,66,-7,89,3
5970,247,-35,63,-9,90,2
5975,246,-32,65,-11,89,2
5980,246,-33,63,-12,89,4
5985,247,-34,62,-11,89,5
5990,246,-34,63,-9,88,3
5995,247,-31,62,-7,85,3
6000,243,-31,63,-6,84,5
6005,246,-34,67,-2,81,4
6010,247,-34,60,-2,77,6
6015,250,-33,64,-1,74,5
6020,245,-34,65,0,72,6
6025,246,-33,63,1,70,3
6030,245,-34,63,3,69,3
6035,244,-32,60,8,67,4
6040,249,-35,62,10,67,3
6045,243,-32,64,11,66,1
6050,242,-30,60,12,66,0
6055,246,-31,59,10,66,0
6060,246,-31,60,9,65,0
6065,245,-30,62,7,67,-1
6070,242,-33,62,4,69,-2
6075,247,-31,64,2,71,-1
6080,244,-31,62,0,74,-2
6085,245,-33,61,-4,76,-1
6090,243,-31,61,-6,80,0
6095,246,-35,60,-9,83,-1
6100,246,-36,65,-11,86,-1
6105,243,-33,61,-13,87,0
6110,243,-22,59,-13,89,0
6115,246,-34,62,-12,91,0
6120,248,-33,63,-11,91,0
6125,246,-34,65,-11,90,1
6130,249,-34,64,-12,88,3
6135,246,-33,61,-13,87,2
6140,246,-30,62,-14,86,3
6145,246,-28,59,-15,81,3
6150,246,-35,60,-16,79,2
6155,245,-32,59,-18,77,2
6160,246,-33,61,-18,77,3
6165,238,-31,61,-16,77,1
6170,247,-35,61,-15,77,1
6175,246,-34,61,-12,77,1
6180,245,-34,63,-9,79,0
6185,247,-33,61,-7,79,-1
6190,246,-33,64,-4,82,-1
6195,245,-31,63,-3,82,-1
6200,244,-33,66,-1,84,-1
6205,245,-31,66,0,84,-2
6210,244,-33,62,-2,83,0
6215,245,-31,59,-1,83,0
6220,244,-32,63,-3,84,1
6225,243,-34,67,-5,82,0
6230,248,-32,66,-6,84,0
6235,245,-31,60,-7,83,1
6240,247,-35,61,-5,83,2
6245,244,-35,61,-5,83,1
6250,245,-30,61,-6,83,1
6255,245,-31,62,-6,83,2
6260,245,-30,59,-7,84,2
6265,245,-32,64,-8,84,3
6270,244,-33,61,-11,83,3
6275,247,-30,64,-11,84,2
6280,244,-28,63,-12,83,2
6285,245,-34,64,-12,84,3
6290,246,-32,65,-13,84,3
6295,244,-34,64,-14,83,5
6300,243,-34,65,-15,79,6
6305,242,-31,62,-14,79,4
6310,247,-33,61,-13,78,4
6315,242,-33,63,-13,79,4
6320,245,-32,64,-13,78,5
6325,245,-33,62,-12,80,3
6330,248,-30,67,-13,78,4
6335,243,-33,62,-13,77,3
6340,246,-33,60,-15,77,4
6345,245,-31,62,-16,77,4
6350,243,-33,63,-15,78,4
6355,243,-35,62,-14,79,3
6360,246,-35,62,-12,81,3
6365,245,-35,66,-9,81,2
6370,241,-31,62,-9,80,1
6375,243,-32,64,-7,80,1
6380,243,-31,65,-7,82,1
6385,246,-33,65,-5,79,2
6390,240,-33,62,-5,76,3
6395,246,-30,65,-6,75,3
6400,245,-33,66,-5,73,3
6405,243,-31,60,-7,70,3
6410,244,-32,64,-9,70,3
6415,244,-32,63,-9,69,5
6420,246,-34,63,-8,69,3
6425,245,-30,60,-9,70,4
6430,246,-32,64,-9,71,4
6435,246,-33,62,-9,73,4
6440,244,-27,59,-8,72,5
6445,246,-33,62,-7,73,6
6450,246,-35,60,-7,73,4
6455,245,-32,66,-5,74,5
6460,243,-33,64,-3,76,7
6465,244,-33,66,-2,78,6
6470,244,-33,63,-1,80,4
6475,247,-37,65,0,79,4
6480,243,-34,62,-1,76,5
6485,243,-33,63,-1,77,4
6490,243,-34,68,-2,75,4
6495,243,-35,65,-3,74,1
6500,245,-32,66,-6,74,1
6505,245,-35,63,-9,74,2
6510,245,-34,63,-10,72,2
6515,246,-33,63,-10,71,2
6520,244,-36,65,-10,70,4
6525,244,-33,64,-10,71,5
6530,246,-33,60,-12,70,6
6535,246,-31,65,-13,69,5
6540,246,-34,64,-14,71,4
6545,242,-34,58,-14,72,5
6550,246,-35,64,-13,74,3
6555,245,-34,65,-13,75,3
6560,245,-37,65,-10,75,3
6565,246,-33,63,-7,75,2
6570,247,-36,63,0,73,3
6575,243,-35,60,7,71,1
6580,250,-39,62,13,68,2
6585,247,-34,62,17,64,1
6590,245,-32,59,19,62,1
6595,245,-33,63,22,62,0
6600,246,-33,62,23,62,2
6605,244,-33,59,25,62,1
6610,245,-34,64,24,64,2
6615,242,-34,66,24,64,3
6620,246,-35,64,24,67,2
6625,244,-29,66,23,71,3
6630,243,-34,64,23,74,2
6635,247,-33,65,22,77,1
6640,242,-29,63,22,79,3
6645,243,-31,64,21,81,4
6650,242,-32,62,19,82,3
6655,241,-34,66,17,83,3
6660,246,-30,67,13,84,3
6665,243,-30,67,8,83,3
6670,242,-30,69,3,81,3
6675,246,-33,64,-2,79,1
6680,248,-36,59,-6,78,3
6685,245,-30,63,-10,76,2
6690,242,-31,63,-13,75,2
6695,248,-34,65,-15,75,3
6700,244,-34,64,-17,75,3
6705,246,-33,63,-18,75,4
6710,245,-33,65,-19,75,4
6715,245,-33,64,-19,76,3
6720,246,-32,63,-18,76,4
6725,248,-33,64,-17,77,3
6730,245,-37,62,-16,77,4
6735,245,-30,63,-15,78,3
6740,244,-34,65,-12,76,4
6745,244,-32,60,-10,74,5
6750,247,-31,66,-9,72,4
6755,243,-33,63,-8,72,6
6760,242,-31,62,-6,71,5
6765,246,-36,60,-5,72,4
6770,242,-34,62,-7,73,3
6775,243,-32,64,-8,74,2
6780,242,-37,63,-9,77,3
6785,246,-34,63,-10,79,2
6790,247,-34,64,-12,82,1
6795,244,-33,64,-13,86,1
6800,241,-32,65,-11,90,1
6805,244,-33,69,-11,92,3
6810,247,-35,62,-11,95,2
6815,244,-30,64,-12,95,1
6820,245,-32,61,-14,96,1
6825,245,-34,68,-15,94,2
6830,242,-33,63,-19,92,3
6835,246,-33,63,-21,88,3
6840,245,-34,64,-25,86,3
6845,245,-34,66,-27,83,2
6850,244,-34,63,-29,81,2
6855,242,-36,65,-28,80,1
6860,244,-36,63,-27,79,0
6865,244,-37,66,-23,78,-1
6870,247,-37,71,-20,77,-1
6875,244,-34,63,-17,76,-2
6880,242,-34,62,-15,76,-2
6885,240,-31,66,-14,75,-3
6890,243,-29,69,-13,74,-5
6895,244,-34,66,-13,72,-7
6900,242,-35,66,-15,72,-7
6905,245,-35,67,-16,74,-8
6910,241,-34,65,-16,75,-6
6915,243,-33,64,-17,76,-7
6920,242,-31,68,-18,78,-7
6925,242,-32,70,-18,77,-7
6930,243,-33,64,-19,76,-8
6935,241,-34,65,-16,76,-6
6940,246,-37,66,-16,76,-6
6945,243,-33,64,-18,74,-6
6950,243,-34,63,-18,72,-6
6955,245,-33,65,-18,72,-5
6960,242,-33,65,-20,70,-5
6965,246,-31,65,-22,69,-5
6970,241,-32,65,-24,66,-6
6975,242,-30,65,-26,65,-6
6980,243,-31,64,-30,64,-7
6985,243,-36,65,-32,64,-7
6990,245,-32,65,-34,64,-7
6995,244,-32,65,-36,63,-8
7000,244,-34,66,-36,64,-8
7005,243,-34,67,-37,64,-9
7010,246,-32,64,-37,64,-10
7015,244,-33,64,-36,64,-9
7020,244,-32,64,-37,63,-9
7025,246,-34,65,-37,63,-11
7030,246,-33,61,-36,63,-11
7035,246,-35,69,-38,62,-11
7040,247,-35,65,-38,61,-10
7045,246,-35,61,-38,62,-10
7050,242,-33,66,-39,61,-10
7055,244,-34,66,-37,61,-10
7060,246,-35,66,-37,60,-13
7065,245,-35,67,-37,59,-12
7070,244,-33,69,-37,57,-12
7075,245,-31,67,-36,58,-12
7080,244,-32,64,-36,57,-14
7085,242,-31,66,-34,59,-12
7090,243,-33,61,-34,57,-13
7095,241,-28,64,-35,54,-12
7100,245,-32,66,-35,53,-12
7105,247,-31,63,-35,55,-13
7110,247,-32,66,-34,52,-11
7115,245,-33,66,-35,51,-11
7120,244,-31,62,-35,52,-10
7125,245,-33,64,-36,51,-9
7130,243,-33,62,-36,52,-7
7135,245,-30,63,-36,50,-7
7140,241,-34,63,-36,50,-7
7145,243,-32,67,-38,49,-8
7150,240,-31,64,-40,49,-8
7155,244,-33,68,-42,50,-9
7160,242,-32,66,-43,50,-9
7165,244,-37,70,-46,52,-10
7170,243,-35,64,-47,52,-10
7175,243,-34,62,-49,52,-11
7180,244,-36,64,-52,53,-13
7185,238,-35,65,-52,52,-13
7190,245,-35,64,-52,53,-14
7195,245,-34,65,-51,53,-16
7200,245,-36,72,-49,51,-18
7205,247,-34,64,-49,52,-19
7210,244,-31,62,-48,52,-19
7215,246,-32,58,-47,50,-20
7220,245,-31,61,-46,48,-20
7225,247,-34,63,-46,44,-18
7230,245,-33,61,-45,41,-19
7235,244,-32,62,-44,37,-18
7240,244,-34,60,-44,33,-17
7245,242,-32,64,-43,31,-14
7250,244,-33,61,-47,28,-13
7255,247,-34,62,-46,28,-15
7260,248,-37,62,-48,27,-16
7265,243,-31,61,-49,28,-17
7270,243,-32,64,-51,27,-18
7275,243,-36,62,-52,26,-19
7280,246,-35,65,-52,23,-18
7285,248,-36,64,-49,22,-20
7290,244,-38,64,-44,21,-20
7295,247,-38,61,-36,21,-21
7300,244,-34,61,-28,21,-21
7305,244,-34,61,-21,22,-21
7310,242,-35,57,-14,21,-22
7315,247,-33,59,-9,19,-22
7320,246,-33,64,-7,19,-21
7325,245,-32,63,-4,19,-21
7330,244,-35,61,-6,20,-21
7335,243,-33,58,-7,21,-21
7340,244,-33,61,-10,25,-21
7345,242,-31,61,-13,27,-20
7350,245,-33,65,-16,30,-19
7355,247,-31,64,-20,34,-20
7360,245,-29,66,-22,38,-20
7365,245,-28,65,-24,42,-21
7370,247,-31,64,-28,42,-21
7375,245,-30,62,-32,45,-20
7380,245,-30,63,-37,45,-20
7385,247,-31,66,-43,44,-21
7390,244,-28,63,-48,44,-19
7395,243,-29,64,-54,42,-18
7400,247,-32,63,-59,40,-18
7405,245,-36,62,-64,38,-18
7410,245,-35,62,-67,37,-18
7415,246,-34,66,-70,34,-17
7420,247,-33,59,-69,31,-17
7425,246,-29,63,-68,29,-16
7430,249,-34,59,-67,29,-16
7435,249,-35,59,-66,29,-15
7440,247,-33,61,-66,25,-16
7445,249,-32,64,-66,26,-18
7450,248,-31,63,-67,24,-18
7455,248,-33,61,-68,23,-18
7460,249,-30,63,-72,22,-21
7465,244,-31,63,-76,20,-21
7470,244,-33,62,-80,18,-23
7475,245,-35,63,-85,17,-23
7480,246,-34,61,-89,14,-25
7485,247,-35,64,-94,14,-26
7490,246,-33,60,-96,14,-29
7495,246,-33,66,-99,13,-31
7500,244,-34,59,-101,14,-32
7505,247,-33,62,-103,13,-34
7510,244,-34,63,-106,11,-37
7515,244,-35,62,-107,11,-41
7520,246,-32,63,-109,10,-43
7525,243,-33,60,-114,10,-46
7530,247,-34,63,-118,9,-49
7535,245,-31,66,-121,10,-50
7540,245,-33,64,-124,8,-51
7545,245,-33,61,-126,7,-52
7550,244,-33,58,-129,5,-52
7555,247,-33,58,-130,3,-51
7560,243,-34,62,-131,0,-49
7565,248,-35,57,-132,-2,-48
7570,245,-32,59,-130,-5,-44
7575,249,-36,60,-126,-9,-42
7580,255,-37,68,-120,-10,-41
7585,247,-35,59,-113,-11,-39
7590,249,-39,58,-105,-10,-37
7595,246,-37,56,-93,-11,-37
7600,246,-34,54,-81,-10,-37
7605,246,-33,55,-69,-10,-35
7610,247,-35,52,-57,-9,-35
7615,245,-35,52,-49,-5,-34
7620,246,-31,54,-40,-2,-33
7625,246,-34,57,-33,0,-32
7630,246,-33,51,-28,6,-32
7635,241,-37,58,-25,11,-30
7640,247,-31,51,-22,16,-30
7645,247,-33,54,-21,22,-27
7650,247,-28,53,-25,27,-26
7655,249,-29,55,-27,32,-27
7660,243,-29,53,-31,36,-28
7665,248,-29,57,-36,38,-25
7670,247,-28,51,-41,37,-25
7675,247,-31,54,-48,37,-25
7680,246,-31,56,-53,36,-24
7685,248,-34,56,-57,35,-25
7690,247,-31,56,-61,34,-25
7695,247,-34,54,-62,32,-25
7700,246,-32,54,-65,30,-23
7705,248,-33,57,-66,27,-22
7710,248,-29,55,-68,26,-22
7715,248,-34,58,-68,23,-22
7720,248,-32,56,-67,21,-21
7725,245,-33,56,-67,19,-22
7730,248,-29,58,-64,19,-21
7735,246,-32,54,-63,18,-22
7740,245,-34,53,-60,18,-21
7745,244,-38,52,-57,19,-21
7750,248,-33,58,-52,19,-21
7755,245,-33,55,-48,23,-21
7760,247,-31,53,-43,25,-19
7765,246,-34,56,-37,28,-19
7770,247,-32,58,-31,31,-20
7775,247,-33,55,-28,34,-20
7780,246,-31,53,-23,36,-19
7785,248,-30,52,-22,38,-16
7790,247,-28,54,-21,38,-14
7795,249,-33,49,-23,38,-12
7800,246,-29,54,-26,38,-11
7805,247,-31,54,-26,36,-8
7810,250,-32,56,-29,33,-6
7815,246,-31,50,-32,27,-3
7820,249,-28,52,-34,24,0
7825,248,-29,52,-37,23,3
7830,249,-29,50,-39,25,5
7835,249,-29,50,-41,28,6
7840,252,-32,50,-41,33,8
7845,250,-31,49,-40,36,11
7850,246,-30,47,-36,42,11
7855,246,-33,48,-29,48,13
7860,246,-30,48,-22,55,16
7865,248,-34,47,-15,63,18
7870,249,-33,45,-7,72,19
7875,246,-33,47,1,81,19
7880,247,-31,48,7,89,19
7885,249,-29,48,10,98,20
7890,248,-28,47,10,104,19
7895,248,-32,52,10,110,18
7900,248,-32,54,7,116,18
7905,248,-30,56,2,120,18
7910,252,-33,52,-2,124,18
7915,247,-31,56,-7,122,17
7920,251,-34,54,-11,124,16
7925,250,-32,53,-10,124,17
7930,248,-34,54,-8,123,18
7935,248,-34,52,-6,122,17
7940,249,-34,54,-2,120,18
7945,247,-35,54,4,117,19
7950,250,-34,52,10,117,19
7955,247,-34,49,17,119,19
7960,247,-40,51,23,119,19
7965,241,-33,58,26,122,15
7970,246,-32,55,29,125,15
7975,246,-31,58,31,128,17
7980,248,-31,56,31,129,15
7985,246,-34,61,29,128,18
7990,243,-32,58,30,125,19
7995,248,-36,60,31,123,21
8000,249,-34,60,36,118,24
8005,250,-32,61,43,111,25
8010,252,-33,61,48,99,27
8015,247,-28,60,45,83,26
8020,248,-26,60,37,66,28
8025,244,-23,62,18,45,30
8030,249,-25,67,-5,23,35
8035,248,-26,61,-31,4,43
8040,250,-29,58,-58,-4,51
8045,249,-30,57,-82,-9,58
8050,252,-29,57,-104,-8,61
8055,253,-31,57,-123,-7,62
8060,250,-31,58,-139,-6,58
8065,253,-33,54,-148,-7,53
8070,251,-36,50,-148,-8,51
8075,250,-33,56,-142,-7,51
8080,252,-32,58,-126,-4,56
8085,251,-34,58,-104,0,62
8090,249,-33,67,-84,-7,73
8095,251,-34,63,-69,-20,82
8100,249,-24,68,-66,-30,94
8105,248,-18,66,-92,-41,102
8110,251,-18,76,-144,-56,110
8115,251,-18,76,-219,-80,114
8120,253,-13,77,-317,-102,114
8125,256,-18,77,-437,-112,111
8130,258,-21,79,-566,-114,91
8135,258,-32,81,-684,-114,55
8140,255,-51,79,-761,-110,16
8145,256,-59,60,-775,-92,-11
8150,257,-75,48,-714,-39,-16
8155,258,-82,32,-577,48,-1
8160,260,-92,19,-377,151,23
8165,257,-85,5,-144,250,53
8170,255,-75,0,74,328,77
8175,251,-58,-7,244,371,96
8180,249,-36,-3,335,373,100
8185,255,-18,-5,335,350,95
8190,257,-2,6,257,319,87
8195,259,3,14,133,287,74
8200,262,-1,24,3,261,64
8205,264,-6,39,-101,247,55
8210,261,-10,42,-169,245,53
8215,257,-14,44,-210,248,51
8220,257,-16,48,-232,247,56
8225,257,-28,45,-238,249,64
8230,259,-33,45,-231,261,76
8235,260,-36,44,-212,288,89
8240,261,-34,50,-186,320,97
8245,257,-37,55,-170,346,101
8250,255,-39,53,-165,359,98
8255,254,-42,58,-166,360,93
8260,256,-43,56,-163,356,89
8265,257,-42,51,-156,351,92
8270,259,-44,52,-146,347,97
8275,258,-45,44,-132,334,100
8280,259,-40,37,-119,315,98
8285,261,-35,36,-107,303,95
8290,254,-42,48,-105,305,94
8295,259,-30,38,-113,317,97
8300,258,-31,41,-120,336,99
8305,259,-34,48,-118,354,102
8310,255,-30,47,-114,372,104
8315,258,-28,51,-113,389,106
8320,255,-24,55,-118,402,106
8325,253,-27,50,-126,409,106
8330,254,-25,50,-135,415,105
8335,256,-29,52,-148,423,104
8340,254,-28,48,-154,432,106
8345,256,-35,55,-152,439,112
8350,255,-36,59,-142,442,116
8355,255,-37,60,-135,449,120
8360,250,-39,64,-141,457,118
8365,245,-39,62,-153,464,116
8370,251,-36,54,-164,474,118
8375,249,-36,50,-172,484,123
8380,250,-34,51,-177,488,128
8385,252,-33,52,-184,487,130
8390,256,-31,56,-196,486,132
8395,254,-28,53,-210,490,128
8400,255,-23,57,-219,497,126
8405,255,-16,55,-232,509,131
8410,256,-10,62,-257,522,143
8415,255,-4,68,-295,531,155
8420,254,-8,71,-346,534,163
8425,255,-9,71,-389,534,163
8430,258,-15,69,-412,544,166
8435,258,-15,69,-421,555,169
8440,260,-16,70,-433,571,176
8445,255,-16,59,-449,591,190
8450,252,-17,67,-468,618,213
8455,246,-21,69,-484,641,239
8460,237,-27,65,-494,662,262
8465,229,-31,63,-505,676,284
8470,225,-37,64,-513,693,300
8475,224,-39,68,-522,724,320
8480,220,-43,68,-531,759,335
8485,215,-45,76,-538,791,345
8490,213,-46,80,-545,824,351
8495,209,-48,82,-557,852,354
8500,209,-45,85,-570,877,352
8505,206,-40,91,-585,898,348
8510,203,-44,91,-604,915,348
8515,198,-42,93,-631,924,344
8520,197,-44,98,-659,918,344
8525,193,-40,108,-685,906,339
8530,192,-43,112,-712,888,335
8535,188,-45,121,-743,869,344
8540,186,-56,125,-777,839,358
8545,178,-65,127,-800,793,377
8550,176,-74,126,-812,731,397
8555,174,-87,116,-808,662,420
8560,186,-88,106,-790,596,454
8565,197,-93,108,-770,544,493
8570,205,-91,115,-748,522,522
8575,213,-90,124,-730,522,538
8580,215,-80,121,-716,533,535
8585,219,-78,120,-720,536,522
8590,228,-77,118,-737,522,504
8595,242,-77,114,-752,502,492
8600,247,-77,105,-773,499,485
8605,249,-86,93,-794,512,490
8610,238,-95,87,-812,520,490
8615,226,-107,88,-815,523,481
8620,220,-120,89,-785,532,448
8625,205,-127,93,-734,563,395
8630,203,-122,106,-680,601,332
8635,208,-123,115,-636,632,276
8640,213,-116,111,-615,654,241
8645,214,-121,105,-633,688,222
8650,208,-131,101,-657,716,201
8655,203,-137,88,-656,723,179
8660,199,-139,85,-610,739,137
8665,202,-141,83,-548,758,106
8670,199,-135,84,-500,778,76
8675,199,-139,84,-470,793,48
8680,195,-141,79,-453,799,19
8685,190,-130,82,-433,792,-12
8690,196,-123,86,-412,763,-52
8695,202,-120,102,-399,733,-78
8700,206,-121,103,-401,688,-102
8705,204,-127,109,-407,627,-126
8710,196,-128,104,-410,568,-151
8715,192,-130,105,-405,521,-173
8720,191,-136,108,-392,484,-188
8725,191,-138,107,-380,449,-193
8730,191,-142,100,-360,410,-192
8735,199,-145,89,-321,371,-187
8740,204,-146,81,-266,352,-181
8745,200,-137,78,-204,355,-183
8750,200,-134,79,-139,366,-184
8755,202,-125,80,-81,372,-186
8760,201,-123,85,-41,371,-189
8765,203,-121,91,-11,363,-190
8770,198,-120,101,17,351,-187
8775,204,-118,103,39,345,-182
8780,197,-109,105,53,339,-177
8785,194,-107,111,59,333,-166
8790,192,-110,116,54,321,-156
8795,188,-110,117,52,292,-145
8800,181,-112,117,65,260,-132
8805,181,-115,118,92,228,-120
8810,174,-111,123,127,200,-111
8815,173,-109,122,164,182,-110
8820,168,-101,128,192,180,-119
8825,163,-99,130,207,188,-135
8830,155,-95,129,217,193,-146
8835,152,-89,120,221,190,-154
8840,153,-84,125,223,192,-158
8845,155,-80,137,223,197,-164
8850,155,-73,147,217,205,-169
8855,151,-71,153,193,203,-177
8860,154,-74,154,158,183,-183
8865,146,-83,156,118,140,-181
8870,148,-87,141,82,64,-171
8875,158,-96,138,57,-18,-162
8880,166,-98,127,53,-85,-156
8885,175,-100,119,64,-119,-155
8890,179,-97,116,91,-128,-151
8895,182,-98,108,121,-129,-149
8900,185,-92,101,148,-125,-147
8905,185,-93,103,161,-125,-143
8910,192,-91,104,165,-139,-133
8915,195,-89,106,171,-158,-126
8920,200,-94,108,181,-179,-127
8925,201,-89,115,198,-200,-135
8930,203,-85,119,213,-225,-146
8935,201,-79,119,218,-252,-156
8940,199,-74,118,213,-271,-164
8945,209,-72,119,193,-288,-164
8950,209,-68,123,164,-304,-158
8955,211,-66,125,139,-322,-151
8960,205,-67,121,122,-342,-136
8965,207,-69,125,113,-362,-114
8970,205,-69,128,118,-379,-85
8975,208,-73,128,123,-404,-64
8980,212,-78,126,130,-433,-34
8985,216,-79,130,139,-461,-3
8990,220,-84,127,157,-495,27
8995,222,-88,132,191,-532,60
9000,228,-94,131,247,-577,98
9005,240,-104,124,323,-632,135
9010,242,-100,114,421,-687,150
9015,248,-102,110,541,-731,158
9020,256,-97,105,673,-757,150
9025,259,-93,102,809,-759,135
9030,269,-85,106,928,-732,119
9035,277,-80,102,1028,-688,82
9040,271,-72,106,1094,-619,40
9045,275,-66,107,1131,-530,22
9050,268,-67,109,1146,-456,2
9055,263,-68,115,1155,-382,-22
9060,248,-69,117,1156,-308,-41
9065,239,-70,126,1147,-229,-59
9070,226,-65,124,1125,-156,-92
9075,221,-60,133,1090,-105,-130
9080,226,-54,130,1047,-70,-161
9085,230,-52,127,1000,-25,-179
9090,233,-45,122,960,37,-188
9095,240,-41,117,920,116,-174
9100,246,-41,118,879,198,-148
9105,250,-44,115,847,277,-121
9110,266,-42,114,816,344,-91
9115,282,-49,107,784,389,-82
9120,292,-55,107,749,421,-81
9125,297,-65,111,708,461,-93
9130,295,-76,121,679,510,-125
9135,293,-85,139,682,560,-171
9140,292,-92,151,727,604,-216
9145,291,-89,158,803,663,-258
9150,291,-85,158,885,718,-295
9155,300,-81,164,950,778,-321
9160,304,-75,156,983,852,-341
9165,311,-75,164,984,940,-359
9170,306,-69,167,953,1031,-379
9175,293,-68,163,901,1112,-402
9180,280,-62,163,837,1183,-414
9185,273,-56,152,770,1239,-405
9190,269,-50,141,699,1297,-385
9195,266,-45,132,626,1362,-352
9200,266,-39,127,553,1441,-311
9205,257,-39,121,483,1533,-270
9210,255,-42,132,423,1624,-236
9215,252,-47,142,410,1702,-210
9220,244,-52,157,435,1758,-191
9225,240,-55,161,486,1793,-176
9230,233,-53,170,547,1821,-163
9235,224,-53,172,610,1848,-151
9240,208,-51,173,663,1880,-136
9245,198,-44,176,706,1914,-115
9250,192,-41,177,744,1943,-92
9255,186,-39,177,769,1961,-71
9260,176,-33,175,785,1977,-48
9265,169,-30,171,791,1985,-30
9270,158,-21,171,793,1991,-17
9275,154,-18,168,786,1994,-6
9280,150,-8,160,771,1994,0
9285,146,-6,156,741,1995,8
9290,142,-3,152,707,2001,11
9295,132,5,153,665,2001,18
9300,131,4,154,622,1989,29
9305,123,4,151,582,1956,33
9310,114,7,151,545,1922,36
9315,108,5,152,511,1896,38
9320,104,4,155,488,1879,46
9325,101,0,159,478,1861,56
9330,97,-1,157,474,1837,66
9335,97,4,159,477,1806,70
9340,98,-1,160,479,1771,73
9345,100,5,154,467,1743,72
9350,105,4,154,445,1721,73
9355,106,8,147,413,1704,72
9360,108,5,150,381,1686,74
9365,109,9,150,340,1669,74
9370,109,8,149,295,1647,73
9375,115,6,148,242,1622,71
9380,101,8,149,190,1591,63
9385,109,0,152,140,1548,49
9390,103,0,147,96,1500,36
9395,100,-4,147,56,1455,23
9400,97,-5,147,12,1414,16
9405,91,-14,150,-35,1377,13
9410,87,-18,151,-71,1336,9
9415,86,-24,151,-87,1286,-4
9420,83,-25,155,-90,1232,-14
9425,82,-28,150,-89,1183,-21
9430,82,-29,151,-88,1135,-18
9435,83,-28,145,-83,1090,-15
9440,85,-25,137,-76,1047,-8
9445,89,-20,137,-80,1011,16
9450,94,-17,137,-92,981,43
9455,103,-19,136,-104,945,65
9460,110,-14,139,-116,904,84
9465,115,-12,137,-137,854,97
9470,119,-15,143,-172,790,107
9475,119,-15,148,-198,717,117
9480,125,-10,152,-205,647,124
9485,123,-11,150,-203,591,130
9490,121,-10,155,-199,544,137
9495,122,-13,160,-201,502,148
9500,119,-14,165,-203,472,159
9505,113,-14,168,-203,447,167
9510,114,-13,171,-204,428,180
9515,112,-8,172,-204,413,196
9520,117,-6,174,-203,397,212
9525,119,-1,178,-210,387,232
9530,124,4,174,-229,374,250
9535,122,6,180,-260,354,264
9540,121,3,184,-296,324,280
9545,127,-1,184,-327,275,293
9550,131,-5,182,-349,217,298
9555,138,-10,182,-369,165,301
9560,142,-14,182,-382,128,304
9565,140,-20,189,-388,98,311
9570,142,-27,186,-386,68,317
9575,141,-32,179,-377,37,326
9580,141,-37,177,-368,12,337
9585,141,-41,177,-351,-2,350
9590,142,-41,183,-327,-9,360
9595,139,-48,183,-296,-11,371
9600,137,-49,185,-259,-5,385
9605,137,-53,185,-224,4,406
9610,140,-55,191,-196,10,421
9615,140,-48,189,-173,14,432
9620,144,-47,192,-154,22,442
9625,151,-51,196,-143,35,453
9630,148,-46,204,-140,59,464
9635,154,-53,216,-140,93,478
9640,155,-54,225,-131,131,492
9645,162,-60,236,-116,171,500
9650,171,-59,249,-86,200,503
9655,183,-60,260,-49,225,501
9660,198,-63,270,-5,258,488
9665,219,-66,285,35,314,466
9670,234,-57,294,69,394,434
9675,246,-53,300,87,489,400
9680,247,-44,301,81,576,366
9685,238,-31,294,46,640,331
9690,213,-25,280,-27,669,303
9695,180,-17,269,-132,660,291
9700,153,-12,250,-250,619,287
9705,134,-17,251,-378,562,288
9710,113,-17,238,-510,513,284
9715,97,-17,236,-648,496,275
9720,87,-22,235,-781,506,268
9725,75,-24,237,-915,526,252
9730,67,-25,235,-1060,544,236
9735,64,-30,233,-1218,556,227
9740,65,-38,231,-1370,566,225
9745,69,-38,222,-1511,573,217
9750,83,-48,210,-1642,576,211
9755,86,-55,207,-1760,578,201
9760,99,-56,201,-1860,589,186
9765,100,-63,203,-1934,599,178
9770,102,-71,209,-1976,613,178
9775,101,-82,213,-1975,632,186
9780,106,-92,224,-1933,655,200
9785,106,-107,224,-1860,678,219
9790,102,-118,231,-1759,704,238
9795,92,-125,230,-1632,721,263
9800,83,-130,228,-1480,729,283
9805,68,-136,226,-1295,730,300
9810,56,-136,229,-1087,722,312
9815,46,-135,221,-870,699,321
9820,39,-137,221,-669,654,327
9825,32,-133,226,-505,594,328
9830,28,-124,225,-392,527,322
9835,29,-121,225,-331,467,313
9840,29,-113,226,-312,428,308
9845,31,-110,224,-330,403,299
9850,37,-110,222,-370,391,287
9855,44,-110,222,-424,387,274
9860,54,-113,220,-478,390,258
9865,57,-118,214,-522,406,238
9870,63,-123,214,-556,432,222
9875,65,-126,207,-577,463,207
9880,65,-133,205,-574,494,189
9885,65,-136,207,-545,530,175
9890,59,-138,206,-497,571,167
9895,57,-142,208,-444,613,168
9900,54,-136,211,-385,650,171
9905,51,-132,214,-337,683,175
9910,42,-127,220,-297,709,179
9915,33,-124,219,-259,722,189
9920,27,-109,216,-221,716,198
9925,19,-116,219,-192,699,210
9930,12,-109,218,-164,677,218
9935,5,-107,218,-146,648,219
9940,2,-105,215,-127,616,220
9945,3,-105,214,-109,580,220
9950,3,-105,213,-87,544,217
9955,5,-103,211,-70,517,210
9960,10,-102,211,-56,493,202
9965,15,-104,206,-45,472,193
9970,24,-100,209,-39,461,182
9975,31,-97,206,-41,458,171
9980,39,-98,204,-49,456,162
9985,42,-95,205,-66,453,155
9990,47,-97,209,-90,450,140
9995,48,-102,207,-113,445,125
10000,51,-101,210,-132,445,112
10005,49,-102,212,-141,439,98
10010,48,-106,213,-139,432,88
10015,44,-107,215,-125,426,79
10020,38,-107,218,-110,423,69
10025,33,-104,217,-102,427,59
10030,27,-113,226,-96,434,47
10035,25,-112,216,-86,440,38
10040,23,-113,218,-73,442,30
10045,26,-117,212,-56,443,22
10050,23,-116,218,-28,440,13
10055,22,-118,214,4,430,5
10060,27,-119,213,45,419,-2
10065,28,-116,212,80,409,-15
10070,30,-116,212,102,397,-25
10075,28,-108,209,119,384,-36
10080,31,-110,210,132,371,-45
10085,30,-111,213,147,357,-51
10090,31,-109,219,159,339,-64
10095,33,-108,220,170,324,-82
10100,38,-114,223,189,311,-96
10105,44,-115,225,214,307,-107
10110,45,-111,223,245,308,-119
10115,49,-108,216,277,309,-132
10120,50,-102,222,305,314,-145
10125,48,-101,220,327,322,-153
10130,40,-92,224,344,329,-154
10135,41,-93,223,349,335,-150
10140,37,-92,231,338,344,-142
10145,41,-84,234,314,356,-131
10150,43,-86,232,280,367,-119
10155,42,-87,234,241,374,-108
10160,43,-85,228,198,382,-100
10165,42,-89,226,157,384,-94
10170,44,-91,223,122,378,-88
10175,43,-92,223,99,363,-85
10180,45,-95,223,83,347,-81
10185,48,-99,218,74,334,-75
10190,50,-97,218,70,329,-71
10195,45,-103,214,76,330,-67
10200,46,-104,219,89,333,-67
10205,42,-103,217,106,337,-65
10210,41,-105,217,125,344,-69
10215,39,-103,218,141,351,-71
10220,40,-102,219,156,353,-73
10225,45,-104,222,171,350,-80
10230,41,-99,221,183,347,-87
10235,37,-94,222,186,348,-94
10240,30,-96,225,185,353,-94
10245,32,-93,223,180,362,-92
10250,30,-82,223,174,370,-83
10255,25,-87,228,159,376,-70
10260,28,-84,226,133,381,-56
10265,30,-84,227,103,383,-47
10270,33,-82,227,73,385,-42
10275,33,-82,230,39,379,-41
10280,34,-89,228,5,366,-41
10285,34,-92,231,-20,348,-40
10290,25,-99,232,-27,328,-38
10295,19,-101,230,-19,310,-39
10300,18,-103,231,1,291,-38
10305,17,-105,223,26,278,-33
10310,17,-103,221,49,269,-31
10315,17,-104,218,68,265,-27
10320,17,-104,215,83,265,-26
10325,13,-106,218,99,264,-27
10330,13,-110,209,117,263,-26
10335,6,-110,210,140,256,-27
10340,5,-111,211,169,247,-26
10345,3,-110,210,201,241,-22
10350,9,-106,205,229,239,-15
10355,18,-105,210,245,242,-10
10360,12,-99,207,250,255,-7
10365,21,-99,211,250,274,-2
10370,24,-97,217,252,298,6
10375,25,-96,221,257,321,8
10380,26,-100,224,267,333,11
10385,23,-94,229,275,337,13
10390,25,-93,233,280,332,14
10395,22,-91,237,277,319,11
10400,26,-94,239,263,298,13
10405,25,-90,236,242,278,13
10410,23,-88,236,211,259,14
10415,18,-88,236,178,237,13
10420,17,-91,238,148,217,14
10425,9,-92,242,130,196,14
10430,7,-93,240,123,174,15
10435,3,-98,238,120,146,15
10440,6,-99,234,112,132,14
10445,5,-98,234,104,126,7
10450,7,-100,231,95,129,5
10455,8,-98,228,84,145,8
10460,10,-100,232,77,171,13
10465,10,-95,221,80,204,16
10470,11,-94,223,89,236,20
10475,8,-94,226,93,261,26
10480,8,-89,228,98,282,36
10485,9,-88,227,104,295,45
10490,9,-85,226,107,301,53
10495,7,-85,232,107,296,62
10500,7,-80,225,114,286,70
10505,7,-76,227,117,274,76
10510,10,-79,226,127,259,79
10515,8,-74,222,130,245,85
10520,2,-75,222,130,232,92
10525,5,-81,223,132,219,98
10530,5,-78,225,133,204,99
10535,7,-78,223,142,187,102
10540,13,-78,226,160,171,101
10545,14,-78,223,179,159,97
10550,16,-74,227,191,152,90
10555,11,-74,225,197,150,83
10560,10,-73,226,197,149,79
10565,6,-75,228,196,149,76
10570,10,-78,229,198,151,75
10575,7,-76,227,204,153,75
10580,8,-74,230,213,154,76
10585,7,-74,233,220,156,73
10590,7,-77,234,226,160,74
10595,6,-72,233,231,165,73
10600,7,-72,232,235,174,74
10605,6,-73,233,238,186,75
10610,8,-74,232,242,198,78
10615,8,-71,229,245,211,79
10620,7,-72,230,246,225,80
10625,5,-73,227,247,236,81
10630,3,-74,234,243,239,82
10635,1,-72,231,245,233,83
10640,0,-71,233,246,216,82
10645,1,-67,233,247,198,86
10650,5,-70,238,243,181,88
10655,8,-70,232,240,169,88
10660,8,-65,235,235,165,88
10665,12,-72,237,237,163,88
10670,12,-69,241,242,166,88
10675,10,-67,237,253,169,86
10680,5,-66,240,261,170,86
10685,4,-67,238,263,164,85
10690,6,-66,244,261,159,84
10695,2,-62,237,257,151,84
10700,5,-66,239,252,145,84
10705,1,-61,242,247,143,81
10710,0,-63,240,239,140,79
10715,3,-67,242,234,137,76
10720,2,-66,242,236,136,71
10725,1,-69,241,241,136,69
10730,2,-70,242,249,138,64
10735,-2,-72,235,254,139,60
10740,-9,-68,236,259,136,59
10745,-10,-74,237,260,126,62
10750,-14,-76,234,259,106,65
10755,-20,-76,237,254,80,66
10760,-18,-77,235,254,53,68
10765,-19,-78,235,257,28,69
10770,-17,-82,234,262,5,68
10775,-16,-83,232,272,-16,66
10780,-19,-80,232,281,-35,64
10785,-17,-79,232,297,-53,59
10790,-17,-81,231,318,-72,55
10795,-17,-72,233,338,-94,53
10800,-18,-75,227,363,-113,49
10805,-19,-71,230,385,-133,47
10810,-19,-67,227,407,-151,48
10815,-15,-65,230,424,-166,50
10820,-15,-65,234,435,-178,55
10825,-13,-61,234,448,-188,59
10830,-10,-59,234,458,-197,63
10835,-10,-58,235,465,-206,69
10840,-7,-55,236,474,-212,75
10845,-8,-53,235,482,-217,82
10850,-6,-54,236,488,-219,89
10855,-4,-52,237,492,-223,98
10860,-1,-53,236,492,-227,102
10865,0,-48,238,488,-230,105
10870,0,-48,237,475,-229,108
10875,0,-46,239,455,-225,115
10880,0,-46,240,429,-223,120
10885,1,-47,240,395,-219,123
10890,2,-49,243,362,-215,125
10895,2,-50,239,326,-211,126
10900,9,-51,243,295,-206,129
10905,5,-51,243,264,-201,132
10910,10,-52,243,236,-190,131
10915,9,-54,241,214,-177,131
10920,10,-54,243,196,-160,130
10925,15,-59,239,184,-146,125
10930,11,-59,241,176,-131,118
10935,12,-60,243,168,-117,111
10940,15,-61,239,167,-107,100
10945,17,-62,239,168,-102,81
10950,18,-65,242,172,-94,64
10955,18,-62,239,180,-82,51
10960,26,-59,239,190,-71,42
10965,24,-57,237,198,-57,30
10970,29,-57,238,205,-44,20
10975,32,-54,236,208,-33,14
10980,42,-52,238,207,-22,10
10985,39,-48,234,209,-14,2
10990,45,-48,238,203,-1,-4
10995,48,-44,239,200,6,-12
11000,50,-40,238,196,13,-20
11005,57,-38,245,188,22,-25
11010,48,-34,241,173,31,-26
11015,49,-32,242,158,43,-26
11020,50,-33,241,142,50,-26
11025,49,-32,241,125,58,-29
11030,50,-33,243,110,68,-28
11035,48,-31,244,98,78,-31
11040,50,-31,244,84,87,-31
11045,48,-29,242,71,96,-32
11050,47,-32,244,58,104,-35
11055,45,-35,244,44,113,-35
11060,42,-37,246,30,122,-35
11065,39,-38,241,17,130,-31
11070,39,-38,246,5,135,-31
11075,37,-41,245,-6,141,-32
11080,33,-39,243,-18,148,-31
11085,33,-43,243,-27,151,-30
11090,32,-43,242,-36,153,-27
11095,28,-47,243,-43,152,-26
11100,24,-49,240,-51,152,-27
11105,21,-49,240,-60,149,-26
11110,22,-49,241,-68,146,-26
11115,19,-49,237,-73,143,-24
11120,18,-51,234,-79,136,-25
11125,20,-51,238,-83,132,-24
11130,15,-50,240,-82,127,-25
11135,15,-53,242,-80,121,-28
11140,13,-51,240,-78,115,-30
11145,10,-53,241,-76,110,-31
11150,11,-52,239,-73,108,-32
11155,13,-52,241,-69,105,-34
11160,10,-48,240,-64,103,-37
11165,14,-53,236,-59,103,-37
11170,12,-48,241,-56,103,-38
11175,15,-48,241,-52,102,-37
11180,10,-48,240,-48,101,-38
11185,12,-48,240,-48,102,-37
11190,13,-46,239,-47,102,-35
11195,13,-46,239,-51,101,-33
11200,15,-47,244,-53,100,-32
11205,13,-42,241,-54,98,-29
11210,11,-43,241,-57,97,-25
11215,11,-46,239,-60,96,-21
11220,15,-43,239,-61,94,-17
11225,13,-47,238,-61,92,-13
11230,14,-45,241,-59,89,-10
11235,14,-45,236,-57,88,-9
11240,15,-45,237,-54,85,-8
11245,13,-45,237,-53,83,-5
11250,13,-44,239,-52,82,-2
11255,12,-43,239,-50,80,1
11260,12,-43,241,-51,80,2
11265,15,-43,239,-53,79,3
11270,14,-46,237,-53,75,5
11275,13,-43,239,-53,74,7
11280,11,-43,245,-54,71,7
11285,12,-44,243,-57,68,7
11290,11,-43,239,-61,67,10
11295,10,-45,244,-66,64,9
11300,11,-42,241,-71,62,8
11305,12,-44,238,-77,59,10
11310,10,-47,238,-82,55,11
11315,11,-41,244,-87,52,11
11320,11,-43,241,-91,49,10
11325,10,-44,240,-99,48,8
11330,10,-43,239,-101,45,8
11335,10,-46,240,-106,43,8
11340,5,-47,241,-110,42,8
11345,11,-45,241,-113,42,9
11350,5,-44,241,-116,41,7
11355,8,-49,241,-117,42,5
11360,10,-48,242,-117,43,5
11365,12,-49,241,-116,45,4
11370,11,-50,237,-117,46,4
11375,14,-48,239,-115,47,2
11380,13,-50,241,-114,47,0
11385,14,-49,236,-112,50,1
11390,16,-49,237,-111,52,0
11395,15,-51,239,-109,54,0
11400,14,-50,240,-109,55,-1
11405,15,-50,238,-107,59,-1
11410,15,-48,237,-107,59,-1
11415,16,-50,241,-107,58,-2
11420,16,-50,237,-108,59,-3
11425,16,-49,236,-108,61,-5
11430,17,-51,235,-109,60,-4
11435,19,-49,240,-111,60,-4
11440,13,-48,236,-111,60,-4
11445,13,-51,240,-115,60,-5
11450,18,-51,237,-116,60,-7
11455,18,-50,236,-120,61,-7
11460,18,-51,238,-121,61,-8
11465,18,-53,239,-122,64,-9
11470,16,-49,239,-125,65,-9
11475,15,-52,239,-124,65,-9
11480,19,-53,235,-125,69,-11
11485,16,-55,236,-124,70,-11
11490,17,-53,235,-124,73,-10
11495,16,-55,236,-121,74,-11
11500,17,-53,237,-118,77,-10
11505,21,-56,235,-115,79,-11
11510,17,-56,238,-114,79,-12
11515,14,-56,234,-112,79,-12
11520,16,-54,238,-110,79,-11
11525,14,-55,236,-108,77,-12
11530,13,-54,235,-106,76,-13
11535,14,-54,236,-104,73,-13
11540,17,-54,236,-101,73,-14
11545,16,-54,238,-100,72,-15
11550,14,-54,246,-99,71,-15
11555,16,-53,234,-99,69,-15
11560,14,-53,235,-97,69,-15
11565,16,-53,238,-98,68,-15
11570,17,-54,239,-97,66,-14
11575,18,-51,236,-99,65,-14
11580,16,-49,241,-100,63,-14
11585,16,-50,238,-101,64,-13
11590,16,-53,239,-105,64,-12
11595,15,-51,236,-110,63,-12
11600,19,-55,241,-115,63,-12
11605,16,-55,240,-120,62,-11
11610,15,-55,241,-128,61,-10
11615,14,-56,241,-134,59,-11
11620,12,-55,246,-137,54,-11
11625,17,-58,239,-135,50,-12
11630,16,-58,241,-130,45,-12
11635,16,-59,237,-123,41,-10
11640,16,-57,238,-114,36,-11
11645,12,-59,233,-102,32,-12
11650,17,-60,236,-91,30,-11
11655,16,-57,234,-80,31,-9
11660,14,-59,236,-71,33,-7
11665,13,-62,222,-63,35,-7
11670,14,-55,236,-59,40,-6
11675,16,-54,234,-56,45,-6
11680,19,-56,239,-56,48,-6
11685,15,-56,235,-56,52,-4
11690,18,-56,238,-60,57,-3
11695,17,-56,238,-65,64,-2
11700,17,-56,236,-71,66,-3
11705,15,-55,238,-78,70,-2
11710,14,-55,238,-85,71,-3
11715,20,-58,243,-93,72,-1
11720,16,-56,238,-100,74,-2
11725,17,-55,238,-107,74,-4
11730,16,-56,240,-113,74,-4
11735,18,-56,236,-118,73,-3
11740,17,-57,236,-124,73,-5
11745,18,-57,236,-127,72,-6
11750,17,-57,235,-129,73,-5
11755,16,-58,241,-131,74,-5
11760,18,-58,236,-128,73,-5
11765,18,-57,236,-125,74,-5
11770,17,-58,235,-122,73,-4
11775,14,-61,234,-115,72,-4
11780,17,-60,236,-111,73,-5
11785,14,-59,235,-106,73,-5
11790,13,-60,238,-99,72,-4
11795,16,-59,236,-94,71,-4
11800,18,-61,235,-89,71,-4
11805,15,-60,237,-85,71,-2
11810,14,-58,234,-82,72,-3
11815,14,-59,236,-79,70,-2
11820,15,-60,235,-79,70,-3
11825,16,-60,237,-78,70,-4
11830,17,-61,236,-78,69,-5
11835,14,-63,236,-79,69,-5
11840,17,-60,236,-78,68,-4
11845,17,-62,234,-79,68,-2
11850,12,-60,235,-78,68,-4
11855,14,-59,237,-79,67,-5
11860,14,-60,234,-79,64,-5
11865,15,-60,236,-78,63,-4
11870,12,-59,235,-79,64,-4
11875,15,-60,235,-79,62,-3
11880,15,-63,235,-77,61,-3
11885,19,-68,237,-76,62,-4
11890,14,-64,234,-74,62,-5
11895,16,-62,234,-71,62,-4
11900,17,-62,233,-67,63,-5
11905,15,-65,236,-61,64,-5
11910,13,-59,235,-56,66,-4
11915,16,-63,235,-50,68,-4
11920,17,-66,233,-44,69,-4
11925,16,-63,233,-36,68,-2
11930,14,-62,229,-28,68,-2
11935,15,-61,232,-21,69,-1
11940,18,-63,230,-14,68,-3
11945,16,-61,230,-7,69,-2
11950,14,-60,233,0,68,-2
11955,17,-61,233,6,68,-2
11960,15,-61,231,9,67,-2
11965,15,-61,231,14,68,-2
11970,14,-59,232,17,67,-1
11975,16,-60,234,17,68,0
11980,18,-58,235,19,68,-1
11985,16,-59,235,18,68,-2
11990,9,-55,234,17,67,-3
11995,15,-61,234,17,69,-5
