timestamp,acc_x,acc_y,acc_z,gyro_x,gyro_y,gyro_z
0,41,-63,202,-40,10,-9
5,41,-61,203,-37,9,-10
10,40,-62,209,-35,7,-8
15,43,-60,206,-29,8,-10
20,42,-65,201,-28,6,-8
25,41,-64,201,-26,5,-7
30,43,-64,204,-26,6,-8
35,44,-60,204,-26,5,-6
40,42,-61,205,-28,6,-6
45,42,-64,204,-30,9,-5
50,43,-60,206,-36,10,-5
55,43,-63,206,-43,10,-3
60,44,-64,201,-51,12,-2
65,41,-63,206,-61,15,-2
70,40,-62,206,-74,18,-1
75,43,-64,204,-83,21,-1
80,40,-63,211,-92,25,0
85,42,-62,206,-100,29,1
90,42,-63,205,-108,33,1
95,43,-64,205,-112,37,2
100,39,-61,209,-120,42,3
105,44,-64,207,-127,45,3
110,42,-61,211,-132,48,4
115,42,-57,211,-137,50,6
120,41,-63,205,-140,51,7
125,44,-64,211,-143,51,7
130,42,-65,200,-146,51,8
135,44,-61,206,-145,52,7
140,44,-64,202,-144,52,7
145,44,-61,205,-142,53,7
150,47,-63,204,-138,52,4
155,43,-62,204,-131,53,3
160,43,-63,203,-128,54,2
165,47,-61,199,-120,54,0
170,42,-64,202,-112,54,-1
175,41,-63,200,-101,51,-4
180,40,-61,204,-88,47,-3
185,45,-68,202,-76,43,-6
190,41,-64,198,-64,38,-7
195,42,-63,199,-47,34,-10
200,39,-63,198,-34,30,-11
205,39,-62,194,-21,25,-11
210,40,-63,200,-8,19,-12
215,40,-63,197,-1,15,-12
220,38,-61,199,5,11,-12
225,40,-60,197,3,6,-11
230,41,-61,197,0,2,-10
235,39,-61,201,-7,2,-12
240,44,-60,200,-15,2,-11
245,41,-63,201,-28,4,-11
250,41,-62,201,-40,7,-11
255,40,-61,201,-51,11,-10
260,45,-64,203,-60,13,-10
265,41,-64,201,-67,18,-10
270,41,-64,199,-70,22,-7
275,40,-63,204,-70,28,-8
280,41,-65,200,-69,30,-7
285,43,-64,198,-61,32,-7
290,41,-66,198,-53,36,-7
295,34,-61,200,-47,37,-7
300,42,-65,203,-41,37,-6
305,43,-65,199,-37,37,-6
310,40,-63,200,-30,36,-7
315,40,-65,201,-24,36,-7
320,41,-65,201,-19,36,-8
325,42,-64,204,-13,36,-7
330,38,-62,196,-8,33,-7
335,41,-64,207,0,28,-8
340,40,-64,205,5,22,-9
345,42,-65,200,12,14,-11
350,45,-65,196,18,5,-11
355,42,-66,200,22,-4,-10
360,42,-64,196,28,-11,-13
365,40,-62,200,31,-18,-13
370,41,-61,201,34,-24,-14
375,43,-64,201,33,-29,-15
380,42,-62,197,33,-30,-16
385,44,-60,200,29,-30,-16
390,39,-62,199,22,-30,-15
395,43,-61,205,14,-30,-15
400,45,-63,203,5,-28,-15
405,43,-63,197,-3,-26,-15
410,39,-59,201,-11,-25,-14
415,41,-63,205,-21,-25,-11
420,41,-61,204,-28,-23,-10
425,41,-61,201,-35,-20,-7
430,42,-61,204,-40,-17,-8
435,43,-62,204,-43,-13,-7
440,42,-63,205,-47,-8,-4
445,46,-61,205,-48,-1,-1
450,44,-62,206,-49,7,-1
455,40,-61,207,-53,12,-1
460,41,-66,203,-54,18,-1
465,43,-63,203,-53,23,-1
470,42,-63,208,-53,26,-1
475,40,-62,202,-49,28,0
480,43,-61,202,-48,28,-1
485,43,-62,204,-43,29,-1
490,45,-64,204,-36,30,-2
495,43,-59,201,-33,28,-2
500,40,-60,202,-30,28,-4
505,42,-57,201,-26,28,-3
510,40,-57,207,-22,26,-4
515,44,-66,205,-20,24,-5
520,43,-61,199,-18,22,-5
525,42,-62,203,-16,19,-6
530,41,-60,201,-12,18,-7
535,45,-63,199,-13,16,-8
540,41,-61,202,-12,14,-8
545,44,-63,202,-12,11,-8
550,42,-62,202,-17,11,-9
555,45,-65,200,-20,11,-9
560,41,-62,205,-24,11,-8
565,41,-64,196,-29,13,-8
570,41,-60,201,-34,15,-8
575,40,-59,203,-38,18,-6
580,43,-62,204,-45,19,-7
585,42,-62,205,-47,22,-7
590,41,-61,206,-52,24,-5
595,40,-62,207,-57,25,-3
600,42,-64,207,-61,26,-3
605,39,-62,205,-67,25,-3
610,41,-62,203,-74,24,-3
615,42,-60,202,-80,24,-3
620,44,-65,205,-85,23,-2
625,43,-61,203,-86,21,-3
630,40,-62,202,-85,20,-2
635,42,-63,206,-86,20,-3
640,42,-63,206,-81,19,-4
645,42,-63,200,-78,19,-4
650,44,-60,206,-72,19,-5
655,39,-63,201,-66,18,-6
660,44,-63,202,-63,18,-5
665,39,-63,200,-57,19,-6
670,43,-64,201,-53,20,-7
675,41,-64,202,-50,21,-6
680,42,-65,202,-48,21,-7
685,42,-64,203,-47,22,-8
690,40,-63,199,-47,22,-6
695,40,-63,202,-45,23,-7
700,39,-61,205,-48,24,-6
705,41,-61,201,-51,26,-5
710,43,-64,197,-54,28,-4
715,41,-61,202,-56,28,-6
720,45,-62,202,-58,30,-5
725,45,-62,199,-62,31,-5
730,40,-60,201,-65,32,-6
735,43,-63,205,-65,33,-5
740,44,-63,200,-66,34,-7
745,44,-60,205,-65,32,-6
750,44,-62,200,-64,32,-5
755,44,-62,201,-62,33,-5
760,43,-64,204,-61,32,-5
765,43,-60,205,-58,31,-6
770,45,-63,201,-57,30,-7
775,43,-60,202,-53,28,-6
780,43,-65,204,-53,25,-8
785,45,-63,197,-53,22,-6
790,43,-63,206,-52,21,-6
795,42,-64,204,-53,16,-6
800,40,-62,200,-53,14,-6
805,41,-62,199,-53,13,-7
810,43,-59,204,-53,12,-8
815,43,-63,203,-54,11,-8
820,44,-62,203,-54,10,-10
825,42,-64,204,-58,11,-9
830,46,-62,203,-56,13,-9
835,41,-64,202,-56,14,-9
840,44,-67,201,-58,15,-7
845,42,-63,201,-61,17,-10
850,43,-63,205,-61,19,-8
855,43,-65,204,-61,24,-7
860,43,-63,204,-60,25,-8
865,40,-64,205,-57,27,-8
870,40,-64,206,-57,30,-8
875,42,-66,202,-53,31,-6
880,42,-63,200,-51,32,-7
885,38,-62,203,-46,31,-7
890,43,-64,202,-43,32,-8
895,41,-59,209,-39,31,-6
900,43,-64,203,-38,30,-7
905,42,-61,202,-35,30,-8
910,40,-61,197,-35,27,-7
915,44,-62,205,-36,25,-7
920,42,-59,202,-40,23,-5
925,42,-62,205,-45,22,-4
930,44,-59,204,-51,20,-5
935,44,-64,199,-56,19,-5
940,43,-63,199,-59,19,-5
945,40,-61,200,-61,19,-3
950,46,-61,205,-64,19,-3
955,43,-62,203,-68,18,-2
960,43,-62,200,-68,17,-2
965,40,-59,201,-64,18,-2
970,43,-62,197,-63,17,-2
975,43,-63,200,-61,17,-2
980,44,-63,202,-60,15,-4
985,40,-62,199,-59,15,-4
990,43,-64,200,-53,16,-5
995,39,-60,199,-49,18,-7
1000,44,-67,203,-44,19,-6
1005,42,-62,200,-34,21,-7
1010,41,-63,202,-23,21,-10
1015,41,-64,200,-12,19,-9
1020,44,-66,201,-1,16,-10
1025,39,-64,201,12,11,-10
1030,40,-63,205,25,5,-10
1035,40,-64,199,34,-1,-11
1040,42,-63,199,42,-7,-12
1045,45,-64,203,50,-10,-13
1050,45,-65,204,54,-13,-15
1055,38,-60,201,56,-16,-15
1060,39,-62,206,55,-15,-18
1065,44,-62,202,53,-15,-17
1070,42,-64,206,48,-14,-18
1075,39,-62,205,43,-15,-17
1080,43,-63,201,37,-14,-17
1085,40,-62,205,29,-12,-17
1090,38,-63,202,22,-12,-17
1095,42,-59,200,15,-12,-17
1100,40,-60,202,5,-9,-15
1105,45,-60,200,-6,-8,-15
1110,43,-55,208,-16,-4,-12
1115,45,-59,205,-26,-2,-10
1120,43,-61,205,-34,4,-8
1125,40,-57,205,-41,9,-8
1130,44,-60,203,-47,13,-6
1135,40,-57,201,-52,18,-4
1140,45,-61,207,-58,22,-3
1145,43,-57,204,-63,23,-4
1150,45,-60,202,-64,24,-3
1155,41,-59,200,-65,24,-1
1160,42,-62,200,-66,23,-1
1165,34,-57,202,-67,21,-2
1170,41,-58,197,-66,20,-4
1175,46,-61,203,-64,18,-6
1180,43,-63,202,-62,18,-6
1185,42,-61,199,-60,18,-6
1190,43,-61,202,-55,18,-6
1195,43,-59,201,-53,17,-8
1200,40,-62,204,-48,16,-8
1205,38,-57,200,-44,15,-8
1210,40,-60,203,-39,14,-11
1215,45,-61,205,-35,13,-10
1220,39,-59,198,-32,10,-10
1225,43,-61,200,-29,8,-12
1230,43,-62,204,-28,7,-12
1235,42,-62,205,-28,9,-10
1240,42,-62,201,-26,11,-10
1245,44,-62,199,-27,13,-11
1250,43,-63,203,-26,16,-11
1255,41,-56,206,-24,17,-9
1260,45,-62,199,-24,18,-8
1265,40,-62,205,-19,17,-7
1270,47,-64,203,-17,16,-6
1275,41,-61,200,-16,15,-6
1280,44,-59,202,-15,13,-6
1285,43,-61,197,-15,13,-8
1290,45,-59,200,-16,10,-6
1295,41,-63,205,-16,8,-6
1300,44,-62,204,-18,8,-7
1305,42,-61,204,-19,8,-8
1310,45,-58,203,-22,9,-9
1315,42,-59,204,-26,10,-9
1320,45,-62,207,-29,11,-8
1325,45,-61,203,-32,10,-9
1330,41,-63,203,-35,10,-9
1335,44,-61,204,-38,10,-10
1340,43,-62,200,-38,8,-9
1345,44,-60,204,-40,6,-9
1350,42,-59,203,-42,5,-9
1355,44,-63,201,-41,3,-9
1360,41,-60,201,-41,3,-9
1365,41,-62,203,-39,1,-8
1370,40,-60,205,-38,1,-9
1375,43,-63,201,-35,1,-8
1380,43,-62,202,-33,2,-7
1385,45,-61,202,-32,1,-8
1390,43,-61,203,-31,2,-7
1395,43,-62,196,-30,3,-6
1400,42,-60,202,-32,1,-6
1405,43,-63,201,-34,2,-6
1410,43,-60,202,-35,2,-7
1415,46,-61,202,-38,3,-6
1420,41,-57,203,-39,2,-6
1425,45,-61,203,-41,2,-6
1430,42,-59,205,-42,4,-6
1435,42,-58,198,-44,5,-7
1440,44,-68,205,-43,7,-6
1445,43,-59,201,-41,9,-7
1450,45,-61,205,-40,9,-7
1455,45,-59,201,-38,10,-7
1460,45,-59,204,-33,11,-8
1465,44,-62,204,-32,10,-8
1470,43,-59,201,-31,11,-8
1475,44,-60,200,-29,8,-8
1480,45,-59,206,-27,9,-8
1485,41,-59,200,-27,9,-9
1490,44,-58,203,-26,9,-11
1495,45,-55,207,-27,10,-9
1500,42,-57,203,-28,12,-10
1505,45,-61,205,-29,13,-10
1510,42,-59,202,-29,14,-11
1515,43,-58,204,-32,14,-10
1520,41,-60,201,-33,14,-10
1525,44,-62,200,-31,12,-9
1530,44,-58,201,-32,12,-11
1535,41,-62,200,-30,12,-11
1540,45,-61,203,-30,10,-10
1545,45,-62,203,-28,9,-10
1550,38,-59,194,-26,7,-9
1555,44,-64,202,-25,6,-7
1560,41,-59,208,-23,4,-8
1565,44,-61,203,-23,3,-8
1570,42,-58,200,-22,2,-9
1575,43,-60,200,-26,1,-8
1580,44,-60,207,-29,0,-6
1585,42,-59,203,-36,1,-6
1590,44,-57,200,-42,1,-5
1595,44,-60,201,-48,3,-3
1600,45,-61,203,-52,4,-4
1605,43,-59,201,-58,5,-4
1610,45,-59,201,-65,6,-3
1615,46,-56,204,-66,8,-2
1620,47,-60,205,-69,9,-2
1625,46,-61,205,-69,8,-3
1630,47,-61,201,-68,11,-4
1635,45,-59,201,-67,12,-4
1640,46,-61,204,-66,15,-4
1645,47,-61,207,-61,16,-5
1650,45,-58,206,-54,17,-6
1655,42,-59,197,-50,19,-7
1660,46,-62,201,-43,20,-8
1665,45,-60,206,-36,20,-8
1670,45,-62,205,-27,17,-9
1675,43,-59,201,-17,12,-10
1680,45,-62,202,-9,6,-12
1685,43,-59,201,-1,-1,-13
1690,43,-61,199,8,-10,-14
1695,43,-63,202,15,-18,-17
1700,40,-60,202,22,-22,-18
1705,39,-57,201,29,-28,-20
1710,44,-59,201,36,-33,-20
1715,46,-60,202,40,-34,-21
1720,43,-60,204,42,-32,-20
1725,44,-58,203,46,-29,-19
1730,49,-61,201,47,-25,-19
1735,47,-61,200,47,-22,-18
1740,46,-61,199,46,-16,-17
1745,44,-56,207,43,-12,-15
1750,44,-58,201,38,-7,-15
1755,43,-58,198,29,-2,-13
1760,46,-59,201,20,2,-11
1765,44,-57,202,10,6,-9
1770,48,-56,204,-2,12,-6
1775,46,-58,204,-14,15,-3
1780,46,-56,202,-26,18,-1
1785,43,-53,202,-40,25,1
1790,44,-54,204,-55,28,2
1795,46,-57,203,-69,36,4
1800,45,-55,207,-82,39,5
1805,41,-53,205,-94,43,7
1810,45,-55,205,-107,48,7
1815,42,-57,205,-117,52,7
1820,44,-56,213,-123,54,6
1825,45,-57,200,-128,57,6
1830,45,-60,207,-131,58,4
1835,46,-56,207,-129,58,2
1840,45,-60,204,-127,59,1
1845,46,-60,205,-120,58,0
1850,45,-62,206,-112,58,-1
1855,47,-64,210,-102,56,-3
1860,43,-61,207,-89,53,-5
1865,40,-57,203,-76,48,-7
1870,46,-63,205,-64,43,-7
1875,48,-51,199,-55,38,-7
1880,43,-61,205,-47,36,-7
1885,46,-63,205,-43,34,-6
1890,43,-57,207,-40,32,-5
1895,44,-58,206,-42,30,-5
1900,44,-57,206,-47,30,-4
1905,43,-58,203,-55,29,-4
1910,41,-59,201,-63,31,-3
1915,47,-58,203,-77,32,-3
1920,42,-54,203,-90,33,-2
1925,44,-56,202,-106,36,-1
1930,50,-60,207,-120,38,1
1935,44,-58,204,-133,40,1
1940,42,-60,206,-143,44,3
1945,44,-59,207,-153,47,4
1950,45,-60,204,-158,51,5
1955,43,-57,204,-159,54,4
1960,43,-60,201,-157,56,3
1965,42,-61,208,-153,59,3
1970,45,-63,200,-148,61,3
1975,40,-62,200,-140,61,3
1980,41,-62,206,-132,61,1
1985,49,-65,209,-122,59,1
1990,42,-64,198,-113,56,1
1995,43,-64,201,-107,53,1
2000,41,-62,205,-97,49,-1
2005,42,-64,202,-92,48,0
2010,43,-64,201,-86,45,-1
2015,43,-63,199,-84,45,-2
2020,40,-61,201,-83,44,-1
2025,44,-64,199,-83,44,-1
2030,46,-64,203,-85,45,0
2035,41,-61,201,-87,46,-1
2040,47,-60,199,-91,47,1
2045,44,-63,202,-97,50,1
2050,43,-62,203,-98,51,2
2055,42,-65,204,-104,51,1
2060,43,-62,208,-107,50,2
2065,45,-60,203,-114,50,3
2070,41,-60,206,-116,48,3
2075,42,-61,205,-117,46,3
2080,41,-62,203,-116,44,2
2085,41,-64,203,-114,43,1
2090,43,-68,203,-109,41,1
2095,39,-64,201,-104,40,1
2100,45,-65,202,-100,39,0
2105,42,-62,203,-95,39,0
2110,44,-63,204,-90,38,-1
2115,44,-63,203,-86,39,-1
2120,45,-64,203,-82,38,-2
2125,40,-60,201,-81,40,-1
2130,43,-64,209,-82,41,-1
2135,45,-61,207,-84,41,0
2140,43,-62,200,-87,42,0
2145,46,-60,204,-92,43,1
2150,42,-64,202,-99,44,1
2155,41,-60,200,-106,45,2
2160,41,-63,200,-114,46,1
2165,42,-63,199,-121,46,1
2170,41,-65,203,-126,47,2
2175,41,-64,202,-131,49,2
2180,42,-65,202,-134,50,1
2185,40,-64,203,-134,50,0
2190,42,-62,202,-132,52,1
2195,39,-64,199,-132,53,2
2200,45,-66,196,-129,50,1
2205,41,-67,203,-124,49,0
2210,40,-64,201,-121,49,1
2215,40,-67,201,-118,48,0
2220,43,-67,205,-115,49,1
2225,43,-67,204,-113,53,2
2230,45,-65,206,-112,57,4
2235,42,-67,203,-116,63,6
2240,43,-65,204,-122,70,8
2245,42,-65,208,-128,77,11
2250,41,-65,215,-135,83,17
2255,44,-67,208,-143,89,20
2260,39,-64,211,-152,95,23
2265,40,-70,215,-163,96,26
2270,40,-67,211,-176,96,27
2275,36,-69,218,-190,93,30
2280,35,-67,217,-205,88,28
2285,35,-68,218,-217,80,28
2290,33,-70,218,-231,72,29
2295,38,-75,221,-240,63,30
2300,35,-75,226,-248,54,30
2305,30,-75,234,-250,43,31
2310,28,-82,233,-244,34,34
2315,29,-80,238,-228,31,36
2320,30,-82,235,-205,37,40
2325,27,-84,231,-171,57,48
2330,26,-81,224,-128,94,58
2335,26,-84,221,-84,145,68
2340,28,-85,217,-40,211,79
2345,29,-81,211,5,286,90
2350,31,-80,202,46,362,101
2355,27,-73,200,83,434,110
2360,29,-75,193,115,495,118
2365,26,-70,192,142,540,122
2370,25,-68,188,162,563,123
2375,24,-66,186,177,560,121
2380,23,-65,183,181,528,117
2385,18,-62,184,178,475,113
2390,18,-60,181,171,405,103
2395,15,-59,178,154,332,96
2400,18,-60,181,129,259,90
2405,18,-60,189,97,195,83
2410,23,-58,191,58,144,79
2415,30,-54,196,18,106,77
2420,32,-56,195,-25,87,75
2425,37,-56,206,-66,85,77
2430,37,-56,206,-103,101,78
2435,35,-53,208,-133,131,77
2440,33,-58,211,-146,169,76
2445,31,-57,207,-142,205,74
2450,31,-55,211,-121,234,70
2455,29,-53,210,-86,248,63
2460,25,-55,201,-44,249,53
2465,37,-54,203,0,237,47
2470,31,-50,193,24,219,45
2475,36,-43,192,33,198,45
2480,33,-50,195,30,173,44
2485,35,-51,190,21,143,44
2490,36,-52,191,7,112,41
2495,39,-51,187,-12,80,43
2500,44,-57,188,-30,50,43
2505,42,-58,182,-50,23,45
2510,42,-59,191,-66,3,48
2515,39,-60,189,-79,-15,53
2520,38,-64,193,-86,-27,58
2525,32,-65,193,-87,-33,65
2530,28,-73,200,-84,-37,71
2535,22,-71,194,-77,-42,76
2540,21,-72,196,-71,-46,85
2545,22,-75,193,-65,-48,90
2550,25,-74,194,-66,-45,97
2555,27,-72,196,-77,-32,105
2560,27,-78,197,-92,-10,111
2565,26,-74,195,-114,19,117
2570,23,-78,207,-137,55,119
2575,20,-78,205,-150,88,121
2580,15,-80,204,-156,116,121
2585,11,-87,206,-154,132,118
2590,10,-82,210,-141,135,116
2595,12,-84,207,-121,129,114
2600,15,-84,205,-97,116,111
2605,16,-83,203,-69,100,110
2610,19,-79,202,-40,89,113
2615,22,-80,196,-6,87,115
2620,24,-74,193,32,98,116
2625,32,-74,192,71,117,115
2630,32,-74,185,107,142,117
2635,35,-59,183,134,163,120
2640,41,-70,184,149,178,125
2645,41,-66,182,147,187,131
2650,44,-64,186,130,189,140
2655,40,-63,189,104,187,149
2660,40,-63,193,70,178,159
2665,39,-63,194,31,166,168
2670,36,-64,195,-11,156,177
2675,32,-59,201,-52,145,191
2680,28,-58,199,-90,137,207
2685,28,-60,200,-122,132,223
2690,33,-59,201,-149,134,242
2695,29,-63,200,-171,138,261
2700,28,-59,196,-192,140,277
2705,32,-62,193,-215,141,294
2710,29,-62,192,-240,140,306
2715,32,-65,190,-268,137,318
2720,34,-66,197,-289,134,331
2725,33,-67,199,-302,129,342
2730,33,-69,202,-304,123,347
2735,32,-70,204,-296,117,353
2740,38,-70,209,-288,107,359
2745,34,-69,214,-279,96,365
2750,35,-71,212,-272,89,372
2755,36,-76,215,-264,89,378
2760,33,-76,219,-258,96,383
2765,35,-77,215,-247,103,389
2770,32,-80,214,-232,112,394
2775,37,-81,216,-212,117,397
2780,32,-83,210,-188,120,397
2785,31,-82,208,-161,116,395
2790,28,-81,205,-130,106,392
2795,26,-83,201,-105,91,392
2800,17,-77,200,-85,69,392
2805,19,-77,200,-71,47,393
2810,18,-78,197,-60,30,391
2815,18,-73,196,-52,19,390
2820,19,-72,195,-47,8,386
2825,17,-67,198,-51,-4,385
2830,20,-67,200,-72,-19,385
2835,23,-64,204,-110,-35,391
2840,25,-63,201,-151,-43,398
2845,27,-68,204,-192,-46,409
2850,31,-64,203,-229,-44,417
2855,26,-70,203,-254,-45,424
2860,27,-75,199,-265,-43,429
2865,26,-77,201,-261,-43,432
2870,29,-83,210,-249,-44,434
2875,31,-84,212,-226,-47,436
2880,32,-84,215,-199,-53,436
2885,31,-89,222,-172,-55,430
2890,28,-87,224,-150,-51,418
2895,28,-86,223,-133,-39,408
2900,26,-83,215,-122,-20,401
2905,18,-80,209,-112,5,397
2910,15,-77,197,-97,33,399
2915,13,-74,195,-77,56,403
2920,13,-72,191,-51,69,414
2925,8,-74,186,-21,75,428
2930,8,-73,191,10,74,431
2935,2,-70,191,36,68,417
2940,12,-70,197,59,59,401
2945,13,-71,192,90,57,392
2950,13,-70,200,115,63,380
2955,11,-71,195,133,63,370
2960,9,-73,200,144,56,358
2965,2,-71,194,141,34,339
2970,0,-68,188,125,-7,318
2975,-8,-67,182,101,-56,293
2980,-10,-63,175,67,-106,265
2985,-12,-65,166,27,-148,244
2990,-18,-63,167,-13,-170,221
2995,-24,-65,167,-52,-174,198
3000,-28,-65,167,-86,-166,172
3005,-28,-69,175,-104,-151,145
3010,-29,-74,177,-107,-133,119
3015,-28,-80,190,-93,-116,90
3020,-27,-83,203,-64,-97,63
3025,-27,-88,209,-31,-83,38
3030,-28,-88,213,4,-72,7
3035,-30,-88,220,28,-66,-31
3040,-33,-84,226,45,-58,-76
3045,-35,-86,227,52,-48,-124
3050,-43,-83,227,45,-38,-180
3055,-47,-82,225,36,-31,-234
3060,-52,-86,219,17,-32,-294
3065,-51,-88,211,0,-42,-360
3070,-53,-92,207,-9,-55,-427
3075,-52,-96,205,-6,-66,-492
3080,-52,-103,194,12,-67,-559
3085,-50,-106,192,47,-62,-630
3090,-53,-107,192,97,-48,-702
3095,-50,-110,198,157,-32,-771
3100,-47,-111,198,222,-17,-830
3105,-43,-108,207,283,-9,-882
3110,-40,-103,210,338,-13,-925
3115,-10,-100,197,372,-36,-959
3120,-3,-95,203,377,-83,-981
3125,-16,-87,198,353,-143,-986
3130,5,-83,196,291,-215,-1008
3135,8,-79,193,213,-275,-1030
3140,13,-75,193,124,-317,-1051
3145,14,-74,199,23,-347,-1073
3150,15,-71,204,-73,-374,-1098
3155,17,-76,210,-164,-402,-1126
3160,1,-63,209,-256,-437,-1179
3165,-6,-54,218,-321,-475,-1192
3170,-17,-48,214,-348,-514,-1154
3175,-28,-50,215,-346,-553,-1109
3180,-44,-41,209,-336,-594,-1083
3185,-78,-39,204,-331,-648,-1073
3190,-116,-29,195,-343,-723,-1088
3195,-134,-23,188,-375,-828,-1117
3200,-133,-20,184,-417,-964,-1134
3205,-115,-20,186,-462,-1117,-1134
3210,-87,-21,188,-487,-1271,-1142
3215,-54,-28,196,-477,-1414,-1168
3220,-27,-36,209,-423,-1545,-1206
3225,0,-47,218,-324,-1659,-1249
3230,18,-56,221,-193,-1751,-1286
3235,30,-62,229,-54,-1820,-1308
3240,44,-66,229,77,-1871,-1318
3245,59,-64,220,171,-1907,-1314
3250,60,-57,211,218,-1920,-1304
3255,61,-52,196,210,-1912,-1285
3260,66,-48,191,155,-1900,-1266
3265,78,-42,179,59,-1901,-1248
3270,88,-40,179,-66,-1923,-1233
3275,104,-38,173,-212,-1965,-1224
3280,109,-37,176,-360,-2027,-1224
3285,118,-43,174,-482,-2104,-1232
3290,123,-44,173,-560,-2204,-1245
3295,133,-52,170,-589,-2317,-1262
3300,143,-56,163,-568,-2428,-1275
3305,157,-63,163,-511,-2521,-1285
3310,163,-63,160,-433,-2584,-1291
3315,167,-63,156,-361,-2626,-1295
3320,174,-61,153,-306,-2647,-1293
3325,178,-59,154,-276,-2646,-1286
3330,175,-52,149,-269,-2628,-1274
3335,179,-47,146,-281,-2601,-1257
3340,189,-42,143,-303,-2569,-1237
3345,182,-39,134,-336,-2538,-1216
3350,178,-35,129,-374,-2508,-1198
3355,177,-39,129,-413,-2481,-1185
3360,174,-35,127,-448,-2460,-1174
3365,171,-37,120,-486,-2447,-1166
3370,162,-34,126,-526,-2441,-1159
3375,160,-34,119,-562,-2439,-1157
3380,157,-35,112,-592,-2441,-1158
3385,149,-38,109,-616,-2449,-1162
3390,147,-42,111,-628,-2462,-1170
3395,145,-36,102,-638,-2484,-1176
3400,144,-35,96,-643,-2513,-1180
3405,147,-35,96,-647,-2544,-1179
3410,150,-36,94,-649,-2571,-1174
3415,153,-35,90,-654,-2588,-1166
3420,161,-38,88,-658,-2606,-1154
3425,158,-36,88,-657,-2618,-1143
3430,160,-37,84,-660,-2632,-1131
3435,163,-37,79,-661,-2647,-1122
3440,167,-37,73,-655,-2661,-1111
3445,169,-37,76,-642,-2671,-1097
3450,182,-37,72,-624,-2678,-1081
3455,186,-41,71,-601,-2676,-1058
3460,186,-42,75,-571,-2665,-1028
3465,185,-43,75,-533,-2647,-993
3470,188,-50,73,-503,-2621,-954
3475,188,-48,77,-475,-2590,-912
3480,190,-51,75,-450,-2556,-864
3485,194,-53,81,-425,-2520,-818
3490,197,-56,84,-394,-2474,-778
3495,201,-54,82,-359,-2422,-737
3500,205,-54,88,-326,-2361,-697
3505,212,-55,94,-288,-2293,-660
3510,218,-57,100,-240,-2219,-627
3515,221,-52,97,-197,-2142,-595
3520,232,-56,101,-165,-2064,-563
3525,235,-53,110,-148,-1980,-524
3530,246,-49,107,-144,-1895,-487
3535,262,-49,109,-144,-1808,-451
3540,273,-48,113,-142,-1717,-420
3545,292,-49,118,-139,-1623,-392
3550,302,-50,110,-128,-1529,-367
3555,309,-61,123,-111,-1444,-347
3560,324,-59,122,-82,-1363,-327
3565,325,-57,125,-39,-1291,-304
3570,321,-63,122,16,-1218,-282
3575,318,-65,122,74,-1150,-258
3580,304,-69,108,124,-1089,-231
3585,284,-66,108,154,-1037,-198
3590,269,-70,95,162,-1000,-157
3595,264,-69,85,149,-975,-114
3600,259,-71,69,121,-963,-70
3605,254,-64,65,82,-961,-39
3610,253,-64,62,56,-968,-2
3615,249,-62,59,54,-982,35
3620,243,-60,58,74,-1006,55
3625,242,-59,51,119,-1036,58
3630,236,-51,46,174,-1067,52
3635,235,-50,45,235,-1099,37
3640,233,-44,41,292,-1125,19
3645,235,-36,43,336,-1145,2
3650,231,-31,41,368,-1153,-10
3655,234,-20,34,381,-1148,-22
3660,239,-18,37,374,-1138,-25
3665,241,-13,37,352,-1122,-24
3670,247,-8,33,321,-1107,-17
3675,253,-4,32,282,-1095,-8
3680,259,-1,31,242,-1090,3
3685,264,-2,26,211,-1091,14
3690,268,1,19,185,-1101,24
3695,276,0,17,162,-1120,32
3700,281,1,4,134,-1148,41
3705,289,-1,-3,116,-1185,47
3710,302,1,-23,109,-1224,49
3715,310,-2,-24,103,-1261,45
3720,317,-2,-32,101,-1296,36
3725,317,-3,-39,101,-1326,19
3730,323,-5,-45,95,-1348,-1
3735,327,-9,-50,87,-1364,-26
3740,327,-9,-56,78,-1375,-56
3745,330,-11,-58,70,-1377,-89
3750,327,-16,-65,63,-1371,-126
3755,330,-20,-63,59,-1354,-166
3760,327,-23,-65,59,-1325,-207
3765,322,-24,-74,59,-1285,-252
3770,324,-30,-70,59,-1241,-296
3775,318,-29,-70,60,-1196,-337
3780,316,-30,-72,59,-1157,-374
3785,310,-29,-66,63,-1122,-407
3790,309,-29,-68,62,-1088,-428
3795,311,-34,-70,63,-1054,-440
3800,298,-32,-69,53,-1016,-463
3805,294,-33,-65,28,-978,-479
3810,293,-34,-60,13,-961,-479
3815,293,-32,-59,5,-958,-474
3820,294,-33,-64,10,-958,-470
3825,293,-29,-62,12,-953,-465
3830,293,-28,-62,9,-945,-461
3835,286,-23,-63,-6,-933,-463
3840,282,-22,-59,-26,-919,-460
3845,279,-20,-56,-42,-911,-453
3850,277,-18,-57,-55,-908,-444
3855,277,-15,-54,-64,-908,-437
3860,270,-16,-58,-71,-906,-429
3865,268,-10,-59,-82,-900,-425
3870,264,-8,-59,-97,-887,-418
3875,260,-7,-63,-120,-869,-407
3880,260,-10,-60,-151,-850,-396
3885,255,-4,-58,-185,-832,-386
3890,252,0,-57,-223,-818,-376
3895,252,-1,-59,-261,-809,-369
3900,251,3,-56,-302,-799,-360
3905,251,1,-59,-340,-783,-353
3910,252,3,-61,-377,-764,-344
3915,254,7,-63,-410,-740,-335
3920,259,6,-63,-438,-715,-328
3925,262,7,-64,-458,-693,-321
3930,269,6,-63,-468,-674,-313
3935,282,3,-63,-466,-655,-304
3940,286,2,-65,-461,-625,-294
3945,294,3,-67,-452,-588,-286
3950,302,1,-71,-440,-555,-276
3955,301,2,-78,-428,-531,-265
3960,304,3,-76,-414,-518,-252
3965,313,1,-79,-393,-517,-237
3970,319,0,-84,-366,-518,-217
3975,321,2,-81,-335,-520,-201
3980,326,-5,-80,-303,-518,-185
3985,329,0,-89,-271,-515,-168
3990,332,1,-89,-246,-506,-150
3995,328,5,-97,-224,-497,-132
4000,327,4,-99,-209,-494,-113
4005,324,9,-101,-195,-495,-92
4010,328,10,-102,-183,-501,-75
4015,325,12,-108,-168,-512,-60
4020,320,14,-107,-153,-520,-50
4025,319,15,-108,-133,-528,-42
4030,320,15,-100,-115,-537,-38
4035,315,18,-109,-98,-541,-36
4040,311,20,-102,-83,-547,-37
4045,308,15,-103,-72,-550,-37
4050,302,15,-107,-68,-552,-41
4055,296,16,-102,-64,-555,-48
4060,292,14,-104,-65,-560,-53
4065,288,15,-108,-69,-565,-57
4070,283,11,-108,-78,-572,-62
4075,277,8,-110,-89,-572,-64
4080,273,11,-109,-107,-563,-65
4085,271,8,-111,-132,-545,-67
4090,268,9,-117,-157,-519,-66
4095,266,6,-113,-179,-489,-68
4100,263,1,-113,-201,-456,-69
4105,263,-2,-119,-215,-423,-70
4110,262,0,-115,-224,-395,-71
4115,260,-3,-109,-230,-371,-68
4120,262,-5,-117,-229,-347,-66
4125,258,-8,-115,-222,-324,-62
4130,260,-10,-107,-212,-304,-56
4135,262,-8,-107,-198,-287,-53
4140,266,-10,-102,-179,-271,-49
4145,264,-20,-98,-156,-259,-45
4150,271,-12,-99,-133,-248,-40
4155,272,-13,-99,-114,-240,-34
4160,276,-11,-99,-105,-232,-27
4165,284,-12,-97,-102,-227,-18
4170,286,-12,-99,-105,-228,-9
4175,295,-13,-99,-111,-232,4
4180,305,-13,-94,-119,-239,17
4185,311,-17,-95,-134,-243,26
4190,314,-16,-94,-150,-240,38
4195,312,-14,-91,-173,-229,52
4200,310,-16,-97,-209,-214,70
4205,309,-18,-98,-250,-207,91
4210,305,-21,-102,-291,-206,111
4215,303,-22,-99,-323,-207,125
4220,300,-22,-109,-343,-209,128
4225,299,-23,-113,-351,-210,126
4230,297,-22,-118,-352,-215,119
4235,294,-19,-123,-345,-220,108
4240,294,-16,-123,-329,-224,92
4245,290,-19,-127,-300,-219,74
4250,279,-12,-128,-267,-201,60
4255,279,-13,-128,-230,-172,46
4260,276,-10,-131,-192,-133,34
4265,271,-8,-128,-150,-87,23
4270,270,-3,-129,-109,-42,12
4275,267,0,-126,-67,1,7
4280,269,0,-127,-28,34,5
4285,264,1,-122,1,61,5
4290,264,4,-122,33,79,6
4295,263,6,-119,59,95,9
4300,265,8,-114,81,105,12
4305,264,13,-110,96,111,14
4310,265,8,-111,108,112,20
4315,266,12,-101,113,110,29
4320,268,12,-101,108,104,38
4325,267,11,-100,96,97,46
4330,270,9,-96,75,84,51
4335,266,15,-96,49,69,55
4340,266,13,-94,14,52,59
4345,271,16,-95,-25,32,63
4350,269,12,-95,-67,14,66
4355,275,5,-100,-109,-1,69
4360,267,8,-98,-155,-10,73
4365,275,8,-101,-202,-14,80
4370,277,5,-106,-243,-14,80
4375,282,1,-109,-281,-10,74
4380,280,1,-110,-320,-4,64
4385,280,0,-109,-354,8,56
4390,276,0,-109,-381,21,57
4395,272,0,-109,-396,31,58
4400,273,-5,-112,-396,39,67
4405,276,-11,-117,-387,47,75
4410,271,-6,-112,-371,58,74
4415,270,-12,-115,-350,73,72
4420,273,-10,-106,-327,91,69
4425,274,-11,-108,-304,108,65
4430,274,-14,-103,-278,125,65
4435,273,-12,-101,-253,139,62
4440,275,-14,-99,-223,153,57
4445,271,-11,-97,-194,160,51
4450,274,-14,-93,-165,163,49
4455,274,-10,-93,-138,163,48
4460,270,-4,-90,-118,160,48
4465,273,-4,-90,-99,156,52
4470,278,-3,-86,-91,150,59
4475,276,0,-93,-89,145,65
4480,277,1,-91,-93,141,71
4485,280,1,-94,-105,136,80
4490,278,4,-92,-127,132,87
4495,278,3,-94,-148,129,93
4500,277,2,-98,-173,124,100
4505,278,1,-97,-199,119,106
4510,277,4,-97,-226,113,110
4515,280,-1,-95,-250,107,113
4520,280,1,-97,-270,100,115
4525,282,2,-100,-286,92,116
4530,284,0,-110,-302,81,118
4535,283,-1,-106,-306,69,113
4540,283,0,-113,-305,56,108
4545,280,0,-115,-305,48,101
4550,280,0,-111,-304,44,95
4555,282,0,-113,-304,43,91
4560,280,-3,-116,-303,48,79
4565,277,-3,-119,-301,58,69
4570,280,-5,-115,-305,74,63
4575,276,-6,-107,-312,95,58
4580,275,-8,-108,-319,122,57
4585,274,-11,-109,-324,153,55
4590,272,-13,-101,-326,185,58
4595,266,-15,-98,-325,219,62
4600,266,-12,-90,-319,252,65
4605,265,-15,-89,-309,277,71
4610,264,-14,-83,-291,301,75
4615,267,-16,-84,-273,318,82
4620,262,-13,-80,-253,329,85
4625,262,-16,-79,-231,339,88
4630,256,-12,-80,-209,344,91
4635,261,-8,-78,-187,347,94
4640,263,-8,-73,-164,346,98
4645,264,-11,-75,-135,342,100
4650,261,-6,-77,-105,333,97
4655,260,-6,-77,-83,322,101
4660,262,-2,-79,-64,311,105
4665,261,0,-79,-42,299,100
4670,266,0,-83,-28,286,95
4675,260,0,-86,-17,272,87
4680,263,1,-90,-8,260,84
4685,270,2,-87,-2,249,79
4690,273,1,-91,7,240,69
4695,269,4,-96,16,233,59
4700,270,5,-94,17,228,53
4705,278,2,-98,10,221,52
4710,284,4,-99,4,213,43
4715,280,8,-108,-8,203,33
4720,288,11,-109,-25,190,22
4725,289,9,-107,-45,175,13
4730,291,7,-109,-61,158,6
4735,291,10,-111,-72,135,5
4740,294,8,-112,-80,113,9
4745,296,1,-112,-76,89,6
4750,296,0,-110,-64,66,6
4755,290,0,-110,-47,43,4
4760,290,-10,-105,-26,24,9
4765,290,-13,-102,2,6,13
4770,289,-13,-106,47,-10,7
4775,290,-16,-97,100,-26,2
4780,287,-17,-104,145,-39,-6
4785,281,-17,-109,201,-49,-14
4790,278,-17,-105,256,-56,-23
4795,285,-18,-110,303,-61,-26
4800,285,-13,-113,338,-63,-37
4805,281,-9,-115,363,-60,-54
4810,275,-7,-116,375,-55,-67
4815,275,-12,-118,385,-60,-81
4820,268,-3,-117,393,-74,-92
4825,261,-1,-119,398,-95,-98
4830,271,-7,-114,398,-121,-93
4835,276,-3,-114,405,-154,-104
4840,273,0,-115,404,-179,-124
4845,276,0,-112,390,-194,-138
4850,273,3,-111,365,-198,-145
4855,280,3,-110,334,-191,-143
4860,276,3,-104,305,-172,-140
4865,279,1,-103,271,-144,-129
4870,277,0,-97,242,-108,-110
4875,285,-3,-98,215,-69,-93
4880,287,-1,-91,192,-23,-77
4885,291,-6,-86,166,30,-55
4890,286,-11,-80,142,88,-34
4895,289,-17,-73,118,142,-8
4900,288,-17,-73,96,189,17
4905,286,-22,-72,80,227,41
4910,283,-21,-68,67,256,62
4915,281,-18,-65,61,274,80
4920,279,-20,-66,54,279,89
4925,280,-18,-64,52,270,96
4930,275,-20,-64,52,251,100
4935,276,-16,-66,47,221,102
4940,275,-17,-70,38,184,92
4945,272,-15,-71,22,145,78
4950,274,-15,-76,5,107,60
4955,267,-12,-80,-16,74,37
4960,274,-18,-82,-36,45,19
4965,273,-14,-87,-58,27,3
4970,276,-18,-86,-76,15,-10
4975,274,-17,-85,-88,12,-23
4980,273,-20,-87,-91,16,-34
4985,275,-22,-83,-86,28,-43
4990,277,-24,-84,-69,44,-50
4995,273,-23,-86,-43,64,-55
5000,275,-21,-81,-10,90,-59
5005,277,-25,-79,32,115,-62
5010,277,-21,-84,75,138,-64
5015,276,-22,-80,122,158,-65
5020,277,-17,-83,165,173,-68
5025,278,-14,-83,206,186,-70
5030,280,-13,-80,239,196,-75
5035,279,-14,-80,266,202,-77
5040,280,-10,-81,285,203,-78
5045,281,-15,-77,294,203,-79
5050,277,-11,-78,299,200,-80
5055,281,-8,-71,300,196,-82
5060,281,-9,-79,297,191,-84
5065,273,-6,-77,298,183,-87
5070,269,-11,-78,296,173,-87
5075,276,-7,-77,295,163,-85
5080,276,-6,-75,293,150,-86
5085,275,-5,-73,291,137,-86
5090,275,-2,-74,291,121,-87
5095,274,-6,-76,295,105,-87
5100,274,-3,-77,300,87,-88
5105,270,0,-80,304,72,-91
5110,273,-2,-83,310,59,-92
5115,270,1,-77,311,52,-94
5120,274,-3,-81,306,50,-95
5125,274,0,-79,298,50,-94
5130,274,-2,-85,284,55,-90
5135,278,0,-81,268,59,-84
5140,275,0,-83,251,66,-80
5145,275,0,-82,236,72,-77
5150,275,-2,-79,220,77,-72
5155,277,-4,-76,205,82,-66
5160,277,-2,-77,191,83,-58
5165,277,0,-79,178,83,-51
5170,279,0,-78,168,76,-45
5175,281,-1,-76,157,68,-39
5180,274,0,-76,148,57,-35
5185,281,-4,-76,141,43,-33
5190,282,-1,-81,137,29,-30
5195,279,0,-77,134,15,-28
5200,279,-1,-77,128,3,-26
5205,280,0,-78,121,-7,-24
5210,280,-1,-80,114,-14,-24
5215,276,-3,-82,107,-18,-25
5220,283,-5,-83,102,-20,-25
5225,284,-6,-81,97,-18,-25
5230,280,-5,-79,92,-15,-23
5235,280,-9,-80,89,-8,-23
5240,278,-10,-79,88,1,-21
5245,279,-12,-80,89,12,-21
5250,279,-10,-82,93,23,-20
5255,280,-12,-77,97,32,-19
5260,283,-14,-79,107,40,-19
5265,279,-13,-85,117,44,-20
5270,277,-11,-78,128,47,-25
5275,276,-11,-85,137,49,-27
5280,280,-13,-84,142,47,-29
5285,280,-5,-78,148,48,-33
5290,280,-8,-85,150,47,-38
5295,277,-10,-84,152,42,-40
5300,278,-6,-83,155,39,-44
5305,276,-5,-87,156,34,-43
5310,278,-5,-85,157,28,-43
5315,278,-6,-84,151,23,-45
5320,279,-9,-81,144,20,-43
5325,278,-7,-82,134,17,-43
5330,278,-5,-79,122,15,-43
5335,278,-3,-81,113,12,-43
5340,276,-5,-83,104,10,-40
5345,280,-7,-81,96,8,-37
5350,279,-4,-81,89,4,-36
5355,280,-8,-83,84,1,-33
5360,281,-6,-82,80,-2,-29
5365,280,-6,-85,77,-2,-29
5370,279,-5,-87,74,-3,-28
5375,280,-11,-91,72,-1,-27
5380,281,-9,-87,71,1,-28
5385,277,-8,-86,71,5,-29
5390,281,-5,-82,69,7,-31
5395,283,-11,-79,72,11,-31
5400,277,-8,-79,76,12,-32
5405,276,-9,-82,81,16,-31
5410,274,-7,-81,87,18,-32
5415,278,-11,-79,92,22,-33
5420,277,-9,-78,99,28,-32
5425,282,-12,-78,102,32,-33
5430,278,-10,-78,105,35,-33
5435,278,-8,-76,108,37,-33
5440,279,-10,-80,110,39,-34
5445,280,-8,-78,114,40,-36
5450,281,-8,-77,116,40,-37
5455,281,-9,-75,119,37,-37
5460,280,-11,-77,123,35,-35
5465,281,-13,-78,126,32,-36
5470,280,-9,-77,131,29,-37
5475,281,-9,-77,137,25,-37
5480,281,-11,-79,143,24,-38
5485,280,-8,-76,151,22,-37
5490,280,-8,-79,156,21,-37
5495,279,-2,-80,162,20,-36
5500,280,-6,-80,167,17,-37
5505,280,-9,-77,169,15,-38
5510,282,-5,-82,171,13,-38
5515,278,-1,-79,176,12,-41
5520,277,-3,-76,178,13,-41
5525,278,-3,-79,179,15,-40
5530,282,-6,-80,181,17,-38
5535,281,-6,-80,179,21,-38
5540,276,-3,-80,175,26,-36
5545,281,-7,-80,168,33,-34
5550,280,-4,-77,161,39,-33
5555,281,-4,-76,154,45,-32
5560,276,-1,-80,149,51,-31
5565,279,-1,-72,148,55,-30
5570,280,-5,-77,144,56,-31
5575,280,-6,-81,139,55,-32
5580,282,-5,-79,131,51,-32
5585,280,-4,-85,125,44,-34
5590,278,-1,-84,115,35,-34
5595,280,-4,-88,101,22,-35
5600,277,-1,-82,88,10,-33
5605,277,-1,-88,72,-1,-32
5610,277,-1,-81,57,-11,-32
5615,281,2,-72,36,-20,-31
5620,279,0,-82,17,-24,-27
5625,278,0,-79,-3,-23,-24
5630,277,0,-81,-23,-18,-17
5635,276,0,-77,-44,-8,-12
5640,280,0,-81,-64,6,-4
5645,278,0,-78,-86,19,3
5650,280,-4,-80,-105,34,10
5655,279,0,-76,-123,48,16
5660,277,-3,-79,-140,61,21
5665,279,-4,-75,-155,72,27
5670,276,-4,-75,-169,81,33
5675,276,-2,-73,-181,84,35
5680,279,-3,-76,-192,86,38
5685,275,-5,-73,-199,84,40
5690,278,-5,-75,-203,83,41
5695,276,-1,-74,-207,78,42
5700,279,-3,-75,-212,74,44
5705,280,-5,-76,-217,69,42
5710,275,-5,-79,-222,64,41
5715,279,-7,-75,-228,57,39
5720,282,-6,-83,-234,54,37
5725,276,-3,-72,-240,47,35
5730,277,-5,-75,-249,42,32
5735,276,-5,-75,-256,36,30
5740,275,-3,-82,-265,34,28
5745,280,-6,-80,-275,31,28
5750,277,-6,-78,-282,30,29
5755,278,-5,-75,-287,31,29
5760,278,-10,-80,-294,33,32
5765,280,-10,-82,-295,34,34
5770,278,-7,-79,-294,33,35
5775,280,-7,-90,-289,30,35
5780,277,-9,-82,-282,28,35
5785,275,-9,-84,-273,24,32
5790,279,-8,-80,-263,18,31
5795,277,-11,-85,-257,11,28
5800,273,-10,-86,-247,4,25
5805,277,-7,-80,-241,0,24
5810,281,-12,-86,-233,-3,18
5815,276,-10,-86,-225,-7,11
5820,278,-4,-83,-217,-9,6
5825,277,-7,-82,-214,-10,4
5830,281,-14,-84,-210,-9,2
5835,280,-8,-82,-206,-10,2
5840,280,-9,-83,-202,-8,3
5845,280,-9,-82,-198,-7,1
5850,281,-10,-82,-192,-7,4
5855,278,-10,-81,-184,-7,4
5860,277,-11,-80,-177,-7,6
5865,279,-9,-81,-167,-10,6
5870,279,-12,-81,-159,-11,5
5875,281,-12,-84,-151,-13,4
5880,280,-12,-80,-145,-15,3
5885,280,-15,-81,-140,-16,2
5890,275,-9,-84,-136,-17,1
5895,280,-12,-80,-131,-15,-2
5900,279,-10,-83,-128,-13,-6
5905,277,-8,-82,-124,-11,-7
5910,277,-9,-82,-120,-7,-9
5915,275,-10,-85,-117,-5,-13
5920,278,-8,-82,-115,-3,-15
5925,276,-11,-82,-114,-1,-15
5930,278,-6,-80,-112,-1,-16
5935,276,-4,-80,-109,0,-15
5940,280,-11,-86,-108,1,-16
5945,280,-11,-82,-106,0,-15
5950,274,-7,-80,-101,0,-16
5955,278,-9,-81,-98,-4,-17
5960,277,-8,-81,-95,-7,-17
5965,280,-6,-80,-90,-10,-17
5970,282,-9,-80,-86,-14,-17
5975,282,-6,-81,-84,-18,-18
5980,279,-7,-84,-85,-25,-19
5985,277,-2,-84,-85,-31,-18
5990,280,-1,-81,-88,-36,-20
5995,274,2,-80,-91,-43,-21
6000,276,-5,-78,-97,-48,-20
6005,278,-3,-77,-101,-49,-19
6010,277,-4,-80,-107,-52,-18
6015,278,-1,-80,-110,-52,-17
6020,276,-3,-80,-115,-50,-15
6025,275,-3,-79,-121,-48,-13
6030,278,-3,-78,-126,-46,-12
6035,282,-3,-82,-130,-46,-10
6040,278,-7,-81,-133,-45,-11
6045,277,-2,-83,-133,-47,-11
6050,273,-3,-73,-131,-48,-10
6055,276,-8,-80,-129,-53,-10
6060,280,-5,-81,-126,-57,-10
6065,277,-6,-82,-122,-60,-10
6070,276,-6,-84,-118,-62,-11
6075,278,-7,-81,-114,-63,-14
6080,280,-4,-87,-111,-64,-16
6085,279,-6,-89,-107,-61,-15
6090,278,-7,-85,-105,-56,-16
6095,280,-9,-88,-104,-49,-15
6100,281,-9,-87,-101,-42,-14
6105,279,-11,-94,-101,-35,-13
6110,280,-8,-88,-100,-29,-14
6115,280,-4,-88,-101,-24,-14
6120,280,-2,-85,-103,-23,-14
6125,280,-7,-84,-104,-22,-13
6130,279,-7,-87,-106,-22,-12
6135,278,-4,-88,-109,-25,-10
6140,281,-7,-90,-107,-26,-11
6145,282,-2,-85,-108,-26,-10
6150,281,-3,-85,-110,-30,-11
6155,279,-2,-82,-112,-32,-10
6160,282,-8,-87,-114,-33,-10
6165,282,-3,-90,-117,-32,-10
6170,279,-5,-89,-122,-28,-10
6175,277,-3,-81,-123,-26,-11
6180,281,-1,-87,-123,-22,-10
6185,278,-2,-88,-122,-19,-12
6190,279,-3,-89,-121,-14,-12
6195,281,-7,-81,-118,-9,-12
6200,279,-4,-84,-116,-5,-9
6205,282,-3,-83,-109,-2,-8
6210,285,-8,-86,-105,2,-8
6215,279,-5,-90,-99,5,-6
6220,281,-5,-84,-95,9,-5
6225,279,-3,-84,-91,10,-6
6230,277,-6,-83,-88,10,-4
6235,280,-8,-89,-86,6,-6
6240,279,-4,-86,-86,1,-7
6245,275,-6,-88,-87,-3,-9
6250,279,-1,-86,-86,-7,-12
6255,279,-6,-87,-90,-10,-12
6260,281,-7,-86,-90,-11,-12
6265,274,1,-89,-92,-12,-15
6270,282,-7,-90,-94,-10,-14
6275,282,-7,-90,-96,-5,-14
6280,280,-4,-86,-98,-1,-14
6285,279,-5,-86,-101,5,-13
6290,280,-5,-83,-104,12,-14
6295,281,-7,-84,-105,16,-14
6300,279,-6,-86,-103,20,-14
6305,278,-2,-83,-101,24,-13
6310,282,-3,-87,-101,24,-12
6315,276,-2,-85,-97,24,-11
6320,282,-10,-83,-96,24,-11
6325,278,-3,-86,-94,24,-8
6330,279,-4,-87,-90,24,-9
6335,279,-1,-85,-86,22,-11
6340,276,0,-89,-86,20,-10
6345,280,-5,-91,-84,19,-10
6350,278,-4,-87,-84,17,-10
6355,275,-1,-83,-81,13,-10
6360,277,-3,-87,-81,12,-9
6365,279,-3,-84,-81,10,-7
6370,282,-3,-89,-80,7,-7
6375,275,0,-86,-79,5,-6
6380,278,-3,-87,-79,0,-5
6385,281,-1,-88,-82,-3,-4
6390,277,-2,-86,-85,-7,-4
6395,281,0,-84,-87,-11,-4
6400,278,-1,-86,-92,-15,-4
6405,279,-3,-91,-96,-15,-4
6410,278,-3,-86,-99,-17,-4
6415,278,0,-86,-104,-15,-4
6420,283,-4,-92,-107,-10,-3
6425,279,-3,-85,-109,-5,-3
6430,283,-4,-87,-111,2,0
6435,283,-6,-87,-112,9,3
6440,282,-4,-91,-111,17,4
6445,281,-5,-88,-107,24,6
6450,281,-1,-85,-101,32,8
6455,284,-7,-88,-94,38,9
6460,280,-6,-84,-87,43,10
6465,282,-5,-88,-81,46,12
6470,279,-3,-86,-75,48,11
6475,278,-5,-85,-68,48,10
6480,280,-5,-83,-62,48,10
6485,276,-4,-88,-60,47,9
6490,276,-4,-87,-54,46,6
6495,276,-2,-85,-50,45,5
6500,274,-1,-90,-47,44,3
6505,276,-4,-85,-44,42,1
6510,276,-3,-87,-42,41,-1
6515,275,-3,-88,-41,42,-2
6520,277,-2,-85,-40,41,-3
6525,279,-1,-87,-41,42,-2
6530,277,-3,-83,-43,42,-2
6535,277,-3,-84,-43,46,-1
6540,280,-3,-86,-45,49,0
6545,281,-6,-86,-50,54,1
6550,279,-1,-83,-52,57,5
6555,280,-4,-84,-57,60,9
6560,281,-3,-81,-59,63,9
6565,282,-4,-88,-62,64,12
6570,280,-1,-84,-65,64,14
6575,277,-5,-79,-69,63,15
6580,279,-4,-82,-71,62,17
6585,278,-6,-83,-72,59,17
6590,278,-6,-90,-77,58,19
6595,285,-4,-89,-79,57,17
6600,277,-4,-85,-81,55,17
6605,278,-3,-86,-81,53,16
6610,282,-7,-83,-83,53,13
6615,278,-8,-84,-87,53,14
6620,279,-8,-83,-86,52,13
6625,280,-6,-84,-86,52,12
6630,276,-8,-84,-85,52,12
6635,279,-8,-82,-83,50,11
6640,284,-9,-82,-79,49,12
6645,280,-6,-81,-76,48,11
6650,280,-7,-79,-72,47,12
6655,279,-10,-81,-67,47,11
6660,278,-7,-85,-62,46,10
6665,278,-6,-80,-57,44,11
6670,281,-5,-87,-54,43,9
6675,277,-4,-81,-49,41,6
6680,278,-3,-80,-45,40,6
6685,278,-6,-84,-42,37,4
6690,280,-6,-80,-45,35,4
6695,278,-4,-87,-44,34,3
6700,277,-6,-88,-48,33,2
6705,283,-7,-98,-52,34,2
6710,276,-1,-88,-57,33,3
6715,273,-3,-84,-62,34,2
6720,278,-8,-86,-68,35,1
6725,275,-5,-83,-71,35,2
6730,279,-3,-85,-72,36,3
6735,275,-5,-85,-74,37,3
6740,280,-8,-86,-74,37,3
6745,275,-9,-88,-72,37,2
6750,281,-1,-81,-69,37,3
6755,278,-7,-84,-67,38,1
6760,277,-6,-85,-61,39,0
6765,278,-7,-80,-55,39,1
6770,277,-8,-86,-49,40,0
6775,277,-8,-85,-43,40,-1
6780,278,-7,-85,-39,39,-2
6785,278,-6,-81,-37,39,-3
6790,282,-7,-86,-32,38,-3
6795,279,-8,-85,-33,38,-2
6800,279,-6,-87,-32,38,-4
6805,276,-5,-78,-34,38,-4
6810,278,-3,-81,-36,37,-3
6815,279,-6,-83,-39,35,-5
6820,278,-7,-82,-40,34,-5
6825,278,-8,-87,-42,33,-7
6830,278,-6,-86,-43,31,-6
6835,281,-8,-82,-44,31,-7
6840,280,-7,-83,-44,28,-5
6845,280,-5,-86,-44,25,-6
6850,278,-8,-82,-41,23,-5
6855,278,-4,-82,-38,22,-7
6860,284,-10,-80,-35,21,-7
6865,275,-5,-86,-32,21,-8
6870,280,-8,-81,-30,21,-10
6875,276,-3,-86,-27,22,-13
6880,278,-5,-84,-24,22,-14
6885,281,-7,-88,-18,22,-16
6890,279,-7,-87,-15,20,-20
6895,278,-6,-87,-8,18,-23
6900,279,-8,-82,-2,15,-25
6905,277,-5,-87,3,14,-27
6910,279,-6,-87,7,10,-27
6915,279,-8,-89,10,10,-28
6920,276,-8,-83,14,10,-27
6925,280,-4,-84,13,14,-25
6930,280,-6,-83,11,19,-21
6935,280,-4,-79,6,25,-19
6940,278,-7,-79,-1,31,-15
6945,281,-5,-81,-11,37,-11
6950,281,-8,-79,-21,40,-7
6955,279,-9,-82,-30,43,-3
6960,277,-2,-82,-40,43,0
6965,275,-3,-80,-45,38,0
6970,274,-4,-82,-50,33,1
6975,275,-3,-80,-55,28,2
6980,278,-7,-80,-57,21,0
6985,280,-7,-83,-60,16,-3
6990,278,-3,-80,-60,9,-4
6995,278,-3,-81,-59,5,-6
7000,279,-4,-83,-57,2,-8
7005,278,-4,-80,-57,3,-10
7010,276,-3,-85,-58,5,-11
7015,278,-4,-85,-59,7,-10
7020,279,-5,-84,-58,11,-10
7025,281,-5,-84,-61,14,-9
7030,278,-4,-78,-63,18,-9
7035,278,-7,-83,-65,21,-6
7040,281,-2,-87,-68,24,-4
7045,283,-8,-88,-67,26,-2
7050,283,-7,-84,-67,28,-4
7055,281,-7,-86,-66,30,-1
7060,281,-8,-86,-63,30,1
7065,282,-5,-85,-60,33,1
7070,281,-8,-81,-58,34,2
7075,285,-6,-84,-53,37,2
7080,281,-8,-84,-50,35,4
7085,284,-2,-89,-47,34,5
7090,281,-5,-85,-47,34,5
7095,282,-3,-87,-44,32,6
7100,281,-4,-85,-43,33,7
7105,281,-7,-87,-42,34,6
7110,278,-9,-82,-39,35,8
7115,285,-7,-84,-37,37,10
7120,279,-4,-83,-35,42,12
7125,281,-5,-80,-36,44,13
7130,281,-6,-84,-35,49,15
7135,283,-7,-83,-33,54,18
7140,281,-2,-91,-31,57,21
7145,280,-4,-83,-28,60,22
7150,281,-8,-82,-22,61,23
7155,283,-7,-80,-16,62,24
7160,286,-7,-81,-8,64,28
7165,285,-8,-86,0,66,31
7170,285,-3,-85,12,71,34
7175,283,-6,-86,25,73,41
7180,287,-8,-89,41,77,45
7185,286,-9,-92,56,81,49
7190,286,-5,-92,70,85,52
7195,289,-8,-94,79,89,55
7200,288,-9,-89,83,93,60
7205,286,-8,-90,87,99,62
7210,290,-10,-90,87,101,64
7215,291,-11,-91,88,103,65
7220,291,-13,-90,89,102,64
7225,293,-14,-92,91,99,59
7230,291,-11,-89,96,97,54
7235,296,-14,-89,102,91,49
7240,295,-11,-89,113,83,45
7245,299,-14,-87,120,78,40
7250,294,-13,-90,130,70,31
7255,295,-17,-88,143,61,24
7260,292,-14,-84,160,52,19
7265,297,-17,-91,180,43,13
7270,293,-17,-83,200,32,8
7275,291,-16,-86,215,22,5
7280,289,-20,-83,234,10,5
7285,294,-22,-85,252,1,6
7290,291,-22,-86,266,-2,6
7295,293,-21,-87,275,3,10
7300,290,-20,-92,279,16,16
7305,291,-19,-81,279,33,26
7310,290,-20,-80,278,58,35
7315,289,-21,-78,280,86,50
7320,288,-19,-83,281,115,66
7325,288,-21,-76,281,147,84
7330,286,-15,-77,285,181,103
7335,285,-16,-77,288,215,123
7340,287,-15,-73,289,249,145
7345,284,-16,-79,287,286,165
7350,283,-10,-75,282,327,183
7355,281,-11,-77,275,365,198
7360,284,-11,-76,262,398,212
7365,282,-6,-72,255,422,225
7370,282,-10,-78,253,439,232
7375,280,-8,-79,253,452,238
7380,279,-6,-73,255,461,243
7385,281,-4,-74,253,463,245
7390,281,-7,-75,254,456,242
7395,281,0,-81,257,447,238
7400,281,-2,-78,257,439,232
7405,284,-7,-77,252,438,228
7410,285,-6,-70,239,443,225
7415,289,-6,-82,223,451,221
7420,287,-1,-81,193,466,213
7425,289,0,-80,151,487,211
7430,291,0,-77,100,519,215
7435,292,0,-79,35,562,217
7440,295,0,-83,-39,615,221
7445,294,-1,-75,-120,676,224
7450,298,0,-75,-201,741,226
7455,297,-3,-81,-286,803,232
7460,300,-7,-77,-363,858,240
7465,299,-9,-76,-424,903,253
7470,307,-17,-76,-454,937,262
7475,310,-25,-72,-452,962,263
7480,310,-28,-77,-426,974,252
7485,311,-32,-75,-383,974,233
7490,309,-34,-74,-317,961,214
7495,307,-36,-79,-231,943,197
7500,304,-34,-81,-131,922,177
7505,304,-38,-82,-37,908,156
7510,299,-40,-79,47,903,132
7515,296,-35,-73,118,900,113
7520,293,-32,-80,179,900,99
7525,295,-32,-75,225,905,95
7530,295,-32,-81,253,919,99
7535,292,-27,-77,260,942,105
7540,289,-21,-78,249,972,120
7545,286,-20,-71,228,1000,136
7550,288,-19,-73,203,1025,153
7555,287,-16,-65,183,1046,169
7560,289,-14,-60,177,1066,181
7565,287,-15,-61,172,1089,189
7570,291,-19,-55,170,1113,199
7575,291,-18,-60,166,1135,209
7580,290,-17,-53,152,1154,210
7585,289,-19,-46,130,1173,213
7590,290,-23,-41,101,1186,217
7595,284,-20,-38,65,1190,216
7600,288,-22,-34,34,1191,220
7605,287,-22,-30,10,1189,229
7610,289,-24,-28,-6,1187,239
7615,294,-27,-27,-9,1190,244
7620,295,-24,-25,-7,1198,248
7625,289,-25,-17,-6,1206,246
7630,293,-23,-19,-1,1208,245
7635,276,-21,-9,4,1200,246
7640,277,-21,-2,15,1184,256
7645,290,-22,-5,29,1164,268
7650,292,-23,-1,39,1159,271
7655,290,-19,3,45,1166,279
7660,287,-16,1,41,1175,293
7665,286,-19,6,34,1173,311
7670,285,-17,2,36,1161,327
7675,289,-13,1,36,1144,342
7680,285,-13,5,29,1129,350
7685,290,-9,3,3,1125,350
7690,288,-12,10,-38,1123,345
7695,284,-9,12,-86,1110,347
7700,282,-10,16,-134,1091,350
7705,280,-10,21,-180,1073,352
7710,279,-13,21,-227,1063,356
7715,282,-13,24,-272,1062,359
7720,276,-12,34,-319,1066,365
7725,270,-8,38,-372,1076,376
7730,269,-8,39,-424,1087,391
7735,269,-7,43,-477,1099,401
7740,269,-2,44,-527,1107,404
7745,260,-7,45,-570,1108,398
7750,262,-7,48,-604,1104,392
7755,259,-6,54,-630,1095,382
7760,259,-8,50,-657,1084,364
7765,258,-14,55,-685,1074,354
7770,259,-18,55,-708,1074,350
7775,257,-24,54,-727,1081,348
7780,253,-24,60,-743,1088,338
7785,253,-29,65,-752,1097,328
7790,251,-34,70,-743,1112,330
7795,243,-37,65,-732,1128,329
7800,239,-42,62,-721,1135,332
7805,243,-41,64,-704,1138,330
7810,232,-47,64,-691,1136,314
7815,225,-46,65,-686,1132,301
7820,228,-53,64,-691,1123,290
7825,223,-52,67,-709,1110,280
7830,222,-54,68,-725,1100,272
7835,223,-56,69,-735,1090,262
7840,223,-62,75,-748,1079,249
7845,221,-57,67,-755,1072,231
7850,212,-62,75,-755,1060,214
7855,217,-65,80,-749,1042,197
7860,219,-68,75,-727,1015,186
7865,227,-72,72,-700,990,166
7870,228,-78,65,-668,968,128
7875,229,-89,67,-642,952,84
7880,224,-92,67,-614,936,55
7885,227,-98,69,-584,911,27
7890,215,-105,71,-561,876,-6
7895,213,-109,66,-532,846,-30
7900,207,-110,66,-500,819,-52
7905,208,-118,63,-465,793,-72
7910,198,-123,65,-426,775,-93
7915,197,-126,66,-390,762,-111
7920,189,-125,67,-354,742,-137
7925,192,-131,72,-315,722,-147
7930,192,-130,78,-308,702,-148
7935,197,-133,82,-317,687,-142
7940,197,-137,81,-319,667,-135
7945,194,-132,87,-309,641,-129
7950,199,-135,91,-292,599,-122
7955,201,-135,91,-278,550,-115
7960,211,-136,83,-264,492,-107
7965,203,-144,86,-247,437,-100
7970,203,-143,80,-215,392,-75
7975,197,-142,74,-188,348,-49
7980,198,-139,76,-158,304,-24
7985,199,-135,72,-129,257,-1
7990,203,-132,72,-94,217,18
7995,207,-125,63,-49,185,36
8000,210,-123,63,6,168,53
8005,205,-114,63,64,163,57
8010,204,-107,56,109,163,55
8015,201,-99,55,145,160,44
8020,207,-91,55,169,153,22
8025,214,-85,56,187,142,0
8030,224,-85,59,201,130,-6
8035,229,-78,61,214,128,-21
8040,231,-76,66,206,126,-21
8045,234,-68,72,174,119,-20
8050,232,-67,83,131,111,-22
8055,232,-66,85,91,103,-37
8060,244,-64,89,57,105,-49
8065,258,-72,95,20,111,-40
8070,263,-76,90,6,117,-28
8075,268,-78,94,14,122,-10
8080,271,-78,89,38,127,10
8085,275,-80,81,70,134,23
8090,273,-81,75,98,137,40
8095,268,-84,72,126,143,58
8100,262,-81,64,161,148,57
8105,258,-88,61,201,141,58
8110,255,-88,61,239,128,73
8115,259,-92,59,275,115,89
8120,254,-92,58,321,98,99
8125,253,-92,63,363,85,109
8130,251,-88,66,405,83,111
8135,240,-80,65,434,90,106
8140,239,-78,65,453,105,93
8145,235,-77,66,472,126,78
8150,236,-79,64,494,137,78
8155,237,-79,60,534,129,84
8160,237,-80,59,592,110,87
8165,228,-79,56,665,97,83
8170,220,-77,54,731,98,75
8175,213,-71,51,781,117,60
8180,213,-76,51,808,149,45
8185,216,-72,58,809,183,31
8190,217,-70,66,796,212,21
8195,220,-68,82,775,238,8
8200,228,-67,86,748,266,-1
8205,233,-68,99,724,293,-7
8210,236,-67,109,711,309,-15
8215,239,-61,114,720,306,-28
8220,249,-59,121,742,268,-40
8225,248,-48,122,775,202,-57
8230,255,-41,116,801,121,-77
8235,255,-31,119,828,30,-97
8240,255,-20,112,829,-51,-121
8245,252,-8,107,814,-120,-151
8250,252,0,102,773,-176,-175
8255,251,7,96,699,-208,-187
8260,242,12,98,619,-228,-200
8265,247,13,94,550,-216,-205
8270,246,13,88,471,-192,-198
8275,246,11,93,394,-155,-175
8280,242,4,87,324,-99,-153
8285,240,3,97,276,-22,-129
8290,231,-5,96,249,78,-99
8295,227,-10,97,241,187,-66
8300,231,-21,101,246,306,-24
8305,228,-27,99,263,428,21
8310,230,-33,106,291,551,70
8315,235,-41,108,319,657,124
8320,239,-46,110,346,742,174
8325,247,-49,107,373,804,221
8330,251,-52,112,395,843,261
8335,253,-58,110,412,866,298
8340,258,-60,119,420,878,330
8345,266,-63,123,424,879,355
8350,265,-64,122,425,874,374
8355,266,-64,123,425,862,387
8360,263,-65,122,423,852,395
8365,257,-62,123,422,842,400
8370,254,-56,118,425,834,400
8375,250,-51,120,437,831,394
8380,241,-51,121,451,835,385
8385,238,-47,122,460,854,374
8390,232,-38,121,467,885,361
8395,230,-35,119,471,922,348
8400,225,-30,118,465,963,332
8405,227,-25,122,451,1011,315
8410,227,-21,123,432,1070,300
8415,232,-19,124,410,1140,288
8420,235,-15,129,394,1217,279
8425,233,-14,133,381,1302,274
8430,232,-13,134,370,1389,277
8435,226,-15,136,362,1471,285
8440,221,-16,136,348,1539,301
8445,218,-15,134,328,1588,319
8450,219,-14,134,301,1625,343
8455,216,-16,131,277,1652,368
8460,214,-15,133,259,1677,394
8465,212,-21,129,249,1708,419
8470,211,-24,129,252,1745,441
8475,210,-28,127,265,1789,459
8480,208,-28,122,280,1837,472
8485,208,-32,122,294,1887,484
8490,209,-33,121,300,1938,494
8495,207,-35,123,299,1991,505
8500,205,-34,121,296,2044,516
8505,208,-41,124,296,2099,529
8510,210,-45,122,302,2148,538
8515,210,-48,124,314,2192,549
8520,208,-49,123,326,2230,559
8525,207,-47,123,337,2259,570
8530,207,-48,121,345,2279,581
8535,205,-45,123,350,2294,594
8540,204,-47,122,353,2309,604
8545,197,-42,123,352,2331,614
8550,194,-42,127,346,2357,626
8555,188,-37,128,334,2388,639
8560,186,-35,127,316,2421,650
8565,177,-29,127,292,2452,662
8570,169,-32,131,260,2485,674
8575,161,-29,130,225,2518,685
8580,156,-27,137,186,2549,700
8585,147,-24,135,148,2573,715
8590,138,-20,135,111,2586,732
8595,129,-20,143,74,2587,748
8600,115,-16,146,33,2579,759
8605,103,-21,160,-16,2559,770
8610,90,-19,165,-76,2528,781
8615,83,-26,174,-134,2489,787
8620,72,-29,183,-188,2444,794
8625,60,-34,191,-233,2393,794
8630,48,-42,196,-269,2335,794
8635,39,-47,211,-294,2272,791
8640,21,-52,215,-309,2197,784
8645,13,-59,223,-317,2108,770
8650,0,-62,229,-319,2007,747
8655,-9,-65,235,-313,1891,719
8660,-19,-68,235,-299,1763,686
8665,-34,-69,238,-284,1627,648
8670,-39,-72,236,-263,1487,605
8675,-44,-72,235,-246,1349,557
8680,-50,-74,232,-230,1215,505
8685,-49,-75,226,-218,1087,449
8690,-47,-73,220,-213,962,388
8695,-45,-67,215,-217,844,325
8700,-38,-72,214,-227,733,278
8705,-31,-71,204,-235,630,238
8710,-20,-73,194,-249,537,196
8715,-10,-70,194,-261,460,156
8720,0,-73,183,-271,402,121
8725,8,-72,177,-280,365,95
8730,14,-74,166,-282,348,77
8735,22,-75,168,-278,343,70
8740,28,-74,163,-267,342,70
8745,32,-72,162,-250,343,75
8750,39,-72,163,-222,342,86
8755,43,-65,167,-185,341,101
8760,50,-67,165,-149,345,118
8765,53,-64,166,-100,352,134
8770,58,-59,168,-52,364,148
8775,56,-58,173,-11,383,161
8780,62,-54,178,26,406,174
8785,63,-45,185,50,427,190
8790,67,-40,192,67,455,204
8795,63,-36,196,74,482,216
8800,61,-32,196,75,504,225
8805,59,-31,200,72,519,231
8810,60,-31,200,65,530,232
8815,56,-30,211,56,538,231
8820,48,-22,206,40,542,225
8825,45,-28,205,14,544,214
8830,41,-19,210,-14,541,198
8835,35,-20,206,-54,532,175
8840,29,-21,211,-100,516,148
8845,25,-23,208,-150,499,113
8850,14,-27,208,-199,474,76
8855,7,-32,213,-245,447,39
8860,5,-40,213,-282,419,-1
8865,0,-49,216,-310,392,-37
8870,0,-57,218,-324,364,-70
8875,-8,-60,219,-328,338,-99
8880,-9,-68,218,-321,313,-125
8885,-10,-73,219,-305,290,-147
8890,-11,-76,212,-291,266,-165
8895,-15,-80,216,-277,244,-181
8900,-14,-85,213,-265,222,-193
8905,-17,-81,211,-252,194,-205
8910,-14,-82,210,-241,167,-212
8915,-9,-83,210,-226,140,-218
8920,-5,-83,210,-212,120,-221
8925,-1,-85,206,-199,110,-224
8930,0,-88,209,-190,114,-225
8935,0,-84,211,-180,130,-224
8940,0,-90,216,-165,154,-219
8945,2,-92,221,-146,176,-211
8950,0,-92,224,-118,195,-205
8955,7,-93,229,-81,208,-195
8960,8,-93,233,-37,220,-186
8965,14,-91,235,5,233,-174
8970,20,-94,238,41,254,-161
8975,16,-89,242,65,283,-148
8980,20,-89,246,77,313,-137
8985,12,-84,250,76,338,-126
8990,9,-78,251,58,342,-118
8995,15,-73,249,20,326,-111
9000,7,-69,247,-43,299,-103
9005,1,-62,238,-131,261,-96
9010,-9,-57,231,-236,221,-86
9015,-14,-53,224,-357,176,-79
9020,-19,-49,211,-484,131,-77
9025,-24,-49,202,-610,90,-77
9030,-27,-49,191,-722,59,-84
9035,-30,-53,186,-806,35,-98
9040,-35,-63,185,-850,24,-119
9045,-24,-76,182,-852,21,-144
9050,-42,-84,176,-806,31,-169
9055,-38,-91,176,-726,38,-197
9060,-44,-98,168,-622,32,-221
9065,-33,-99,165,-505,9,-243
9070,-38,-105,160,-389,-27,-256
9075,-41,-105,155,-285,-82,-268
9080,-50,-103,154,-201,-155,-277
9085,-46,-102,156,-135,-235,-280
9090,-43,-102,155,-84,-308,-276
9095,-39,-98,161,-39,-359,-269
9100,-32,-102,161,-6,-381,-257
9105,-26,-93,168,23,-381,-243
9110,-18,-87,174,50,-359,-221
9115,-9,-83,175,69,-323,-194
9120,0,-75,180,82,-278,-164
9125,3,-70,185,84,-224,-131
9130,6,-60,186,72,-177,-101
9135,9,-57,190,47,-132,-69
9140,16,-50,193,8,-93,-41
9145,18,-46,195,-43,-60,-17
9150,18,-38,202,-106,-36,-1
9155,23,-36,209,-178,-21,9
9160,15,-31,219,-245,-18,12
9165,10,-28,224,-302,-28,9
9170,7,-31,234,-344,-51,0
9175,5,-32,237,-365,-86,-12
9180,4,-35,244,-360,-129,-29
9185,5,-38,244,-329,-176,-52
9190,5,-42,245,-269,-219,-81
9195,23,-43,236,-188,-255,-115
9200,2,-50,240,-95,-271,-150
9205,10,-57,235,5,-276,-188
9210,18,-61,234,103,-277,-223
9215,26,-64,215,189,-267,-252
9220,22,-67,210,253,-237,-274
9225,25,-74,202,293,-206,-289
9230,25,-79,197,301,-181,-294
9235,32,-86,192,280,-160,-288
9240,35,-96,188,235,-141,-270
9245,40,-107,186,180,-124,-247
9250,48,-113,183,124,-111,-218
9255,50,-122,184,68,-101,-189
9260,52,-127,183,19,-99,-160
9265,55,-138,181,-13,-105,-131
9270,55,-141,185,-47,-122,-102
9275,56,-145,178,-69,-148,-73
9280,56,-147,176,-85,-186,-43
9285,58,-144,172,-94,-219,-15
9290,60,-143,172,-93,-260,10
9295,60,-137,172,-85,-299,28
9300,62,-136,177,-64,-336,38
9305,68,-130,183,-33,-364,41
9310,72,-125,176,14,-376,38
9315,63,-121,179,76,-361,32
9320,71,-111,186,146,-324,19
9325,73,-104,189,212,-280,3
9330,75,-99,190,271,-232,-11
9335,79,-94,187,314,-186,-23
9340,79,-89,185,340,-142,-37
9345,86,-83,192,357,-99,-47
9350,90,-80,189,364,-53,-60
9355,97,-78,190,362,-1,-67
9360,99,-75,192,357,53,-74
9365,101,-69,190,347,107,-79
9370,105,-66,186,336,156,-82
9375,102,-66,190,322,195,-83
9380,105,-68,191,312,222,-80
9385,100,-69,189,300,233,-77
9390,95,-69,191,290,229,-69
9395,91,-69,188,273,210,-58
9400,88,-74,197,251,180,-42
9405,81,-75,196,224,145,-23
9410,78,-74,200,190,108,-5
9415,69,-73,198,152,77,20
9420,66,-77,203,112,53,45
9425,61,-81,200,79,36,71
9430,53,-78,202,48,22,96
9435,49,-77,204,25,12,114
9440,40,-75,203,5,2,131
9445,40,-77,198,-8,-7,144
9450,35,-74,195,-16,-14,150
9455,33,-73,195,-17,-17,150
9460,34,-75,190,-14,-17,147
9465,32,-73,191,-7,-14,139
9470,30,-69,185,7,-6,128
9475,30,-65,186,27,9,115
9480,28,-67,184,54,27,100
9485,30,-67,184,84,48,85
9490,27,-63,187,118,72,72
9495,28,-62,185,153,94,59
9500,30,-60,190,185,112,50
9505,31,-53,192,214,128,42
9510,31,-49,194,237,141,35
9515,34,-49,195,250,149,31
9520,36,-46,199,254,156,26
9525,37,-45,197,247,160,22
9530,39,-40,208,235,165,19
9535,39,-43,208,220,167,18
9540,36,-42,212,199,167,17
9545,43,-44,216,179,166,17
9550,38,-42,218,160,160,17
9555,35,-42,221,143,152,17
9560,37,-43,219,128,138,17
9565,35,-45,222,113,124,16
9570,37,-48,228,97,109,16
9575,36,-47,223,85,93,13
9580,37,-49,224,67,77,12
9585,35,-51,222,45,64,8
9590,30,-49,226,22,54,5
9595,32,-50,224,-6,46,0
9600,32,-52,220,-33,39,-4
9605,33,-55,220,-59,36,-8
9610,30,-55,221,-84,35,-13
9615,29,-56,217,-105,37,-19
9620,30,-60,217,-120,43,-24
9625,26,-64,213,-128,51,-27
9630,29,-64,209,-131,63,-34
9635,30,-64,215,-128,73,-40
9640,30,-64,211,-119,87,-46
9645,31,-63,215,-103,102,-51
9650,27,-65,214,-82,120,-56
9655,25,-67,208,-61,135,-60
9660,21,-66,204,-34,148,-63
9665,25,-70,205,-5,159,-66
9670,24,-67,204,25,170,-68
9675,24,-65,205,56,179,-70
9680,25,-69,201,86,189,-72
9685,24,-66,198,116,201,-74
9690,22,-66,197,146,213,-72
9695,25,-65,197,175,224,-71
9700,18,-65,193,203,230,-65
9705,24,-64,195,228,230,-59
9710,25,-63,194,248,226,-51
9715,23,-60,195,263,216,-50
9720,22,-60,196,271,200,-52
9725,24,-60,198,274,177,-52
9730,20,-57,198,269,151,-50
9735,24,-52,203,256,121,-50
9740,21,-50,200,240,88,-47
9745,19,-53,200,218,54,-45
9750,19,-49,202,192,24,-42
9755,19,-49,211,164,-3,-40
9760,24,-52,207,135,-24,-37
9765,23,-48,210,102,-41,-34
9770,19,-50,208,70,-52,-32
9775,19,-52,211,40,-60,-30
9780,16,-51,215,13,-66,-27
9785,14,-47,215,-12,-70,-22
9790,17,-52,215,-36,-73,-19
9795,15,-51,212,-54,-76,-16
9800,14,-53,215,-68,-78,-15
9805,15,-51,213,-77,-78,-15
9810,18,-55,216,-83,-78,-16
9815,21,-54,213,-87,-74,-16
9820,23,-55,213,-87,-65,-17
9825,20,-59,209,-83,-50,-20
9830,21,-59,207,-74,-32,-23
9835,23,-59,209,-65,-13,-25
9840,23,-60,206,-50,4,-28
9845,25,-62,211,-32,16,-30
9850,22,-58,212,-13,24,-33
9855,28,-63,208,8,27,-37
9860,25,-63,207,25,25,-41
9865,27,-60,207,41,24,-45
9870,25,-58,200,54,20,-49
9875,24,-58,201,58,17,-52
9880,23,-55,200,59,11,-55
9885,24,-56,201,55,6,-57
9890,24,-58,202,47,6,-61
9895,29,-58,198,37,7,-64
9900,30,-62,205,24,15,-65
9905,27,-58,206,14,24,-69
9910,29,-58,209,4,36,-71
9915,30,-59,216,0,47,-75
9920,23,-62,216,0,55,-78
9925,22,-60,213,1,58,-80
9930,20,-64,215,0,55,-82
9935,20,-61,217,-2,47,-82
9940,19,-61,218,-6,37,-82
9945,19,-64,219,-17,27,-79
9950,19,-61,219,-34,16,-76
9955,20,-60,218,-57,7,-70
9960,17,-61,212,-82,-3,-61
9965,17,-62,206,-114,-11,-53
9970,23,-64,210,-148,-23,-44
9975,18,-64,207,-186,-35,-34
9980,21,-65,205,-220,-47,-25
9985,20,-65,199,-253,-58,-14
9990,20,-67,200,-279,-66,-7
9995,19,-68,195,-298,-74,-2
10000,22,-70,194,-305,-79,5
10005,20,-66,191,-301,-85,9
10010,22,-64,188,-285,-88,12
10015,26,-67,185,-259,-89,13
10020,32,-69,181,-228,-87,12
10025,29,-61,180,-192,-84,11
10030,33,-63,175,-156,-83,11
10035,32,-60,179,-122,-86,9
10040,35,-59,179,-88,-94,6
10045,37,-56,184,-62,-105,4
10050,34,-54,181,-42,-119,0
10055,31,-55,183,-28,-132,-2
10060,31,-54,182,-22,-148,-6
10065,31,-46,182,-23,-163,-8
10070,30,-47,190,-32,-176,-9
10075,26,-43,187,-46,-187,-10
10080,33,-38,192,-59,-195,-9
10085,36,-43,202,-73,-200,-7
10090,35,-42,204,-82,-200,-5
10095,41,-48,208,-92,-191,-3
10100,41,-49,203,-101,-172,-5
10105,39,-51,215,-107,-148,-4
10110,36,-52,211,-113,-121,-3
10115,30,-56,214,-115,-97,2
10120,28,-54,218,-117,-79,8
10125,18,-51,218,-118,-70,16
10130,23,-47,213,-126,-68,27
10135,19,-51,208,-138,-72,36
10140,12,-53,197,-157,-81,44
10145,19,-46,210,-177,-95,51
10150,23,-54,200,-200,-109,58
10155,24,-59,209,-222,-124,62
10160,24,-55,216,-242,-142,65
10165,27,-59,211,-253,-158,68
10170,27,-68,210,-253,-174,70
10175,22,-70,199,-245,-191,71
10180,19,-65,208,-225,-207,71
10185,26,-64,213,-197,-221,72
10190,31,-69,204,-166,-235,71
10195,32,-62,203,-130,-248,72
10200,33,-68,216,-96,-259,71
10205,38,-69,201,-64,-267,70
10210,36,-61,202,-33,-271,69
10215,42,-67,197,-5,-271,69
10220,44,-65,203,19,-268,73
10225,48,-65,205,39,-259,75
10230,47,-63,199,56,-247,80
10235,48,-60,201,68,-235,85
10240,51,-63,199,77,-217,91
10245,54,-61,189,81,-198,97
10250,58,-54,201,83,-174,105
10255,62,-59,201,78,-147,111
10260,64,-61,204,72,-118,116
10265,63,-57,209,65,-91,120
10270,69,-53,206,58,-65,123
10275,69,-58,208,55,-41,123
10280,70,-56,206,52,-17,121
10285,69,-53,210,47,3,120
10290,69,-51,212,46,20,115
10295,70,-55,215,42,34,109
10300,66,-55,215,37,44,101
10305,70,-51,216,29,53,92
10310,69,-52,211,18,55,82
10315,66,-49,214,7,58,71
10320,66,-55,208,-8,58,61
10325,65,-51,215,-27,54,46
10330,62,-51,209,-50,49,32
10335,63,-55,208,-73,44,21
10340,62,-56,205,-98,40,12
10345,59,-58,201,-121,33,3
10350,57,-57,202,-140,26,-2
10355,55,-58,200,-159,22,-7
10360,54,-61,196,-174,19,-10
10365,50,-63,198,-185,15,-13
10370,49,-61,199,-197,13,-13
10375,50,-64,201,-207,12,-11
10380,48,-63,202,-219,12,-9
10385,48,-67,198,-231,10,-6
10390,45,-67,198,-247,11,-3
10395,46,-66,196,-256,13,-1
10400,50,-65,202,-267,19,-2
10405,56,-67,200,-271,28,-4
10410,48,-66,201,-267,38,-3
10415,47,-67,197,-259,50,-6
10420,51,-69,198,-243,60,-9
10425,48,-71,200,-220,69,-12
10430,51,-74,197,-201,76,-16
10435,54,-74,201,-172,81,-19
10440,54,-73,199,-143,83,-25
10445,53,-71,198,-113,82,-27
10450,54,-71,204,-86,82,-30
10455,55,-69,203,-57,80,-33
10460,50,-69,207,-32,75,-35
10465,54,-70,204,-13,68,-34
10470,52,-65,209,-1,62,-36
10475,50,-64,206,5,57,-36
10480,51,-62,209,3,54,-39
10485,51,-59,209,-4,55,-40
10490,51,-57,209,-15,58,-40
10495,54,-60,201,-28,65,-41
10500,45,-53,209,-43,75,-43
10505,47,-57,204,-58,91,-43
10510,46,-58,205,-72,107,-41
10515,49,-57,204,-82,122,-41
10520,39,-61,203,-91,136,-39
10525,40,-55,203,-96,150,-38
10530,40,-58,204,-98,158,-36
10535,38,-61,203,-96,165,-35
10540,37,-60,201,-93,169,-32
10545,38,-61,199,-89,169,-28
10550,35,-63,200,-84,168,-26
10555,33,-63,199,-80,164,-23
10560,33,-65,203,-78,160,-18
10565,28,-61,197,-78,152,-17
10570,28,-65,196,-79,145,-14
10575,33,-63,201,-83,135,-10
10580,32,-64,197,-87,124,-9
10585,30,-63,197,-91,111,-6
10590,30,-63,198,-95,99,-6
10595,29,-64,200,-100,87,-3
10600,32,-63,199,-103,75,-1
10605,29,-65,201,-102,63,-1
10610,25,-65,198,-101,52,0
10615,29,-66,200,-95,42,1
10620,31,-65,197,-87,33,0
10625,31,-71,206,-76,25,0
10630,29,-66,205,-64,17,0
10635,28,-65,203,-52,12,0
10640,30,-67,203,-42,6,-2
10645,33,-67,205,-31,3,-3
10650,29,-67,206,-22,0,-4
10655,31,-65,205,-14,0,-5
10660,31,-68,205,-8,1,-7
10665,29,-67,199,-4,4,-8
10670,35,-66,206,0,6,-7
10675,32,-66,200,5,9,-9
10680,37,-65,202,5,10,-9
10685,31,-64,203,6,12,-9
10690,33,-65,203,6,14,-9
10695,33,-63,206,10,17,-11
10700,32,-65,204,10,16,-10
10705,34,-65,201,9,17,-9
10710,31,-67,199,6,17,-8
10715,31,-64,198,3,17,-7
10720,37,-67,195,-3,17,-5
10725,35,-64,200,-11,17,-3
10730,34,-65,194,-18,18,-3
10735,41,-61,200,-23,20,-1
10740,34,-63,196,-30,20,0
10745,34,-63,195,-35,23,2
10750,35,-62,194,-39,23,3
10755,35,-63,193,-40,24,5
10760,34,-62,197,-41,23,4
10765,36,-64,194,-43,22,4
10770,35,-65,195,-43,18,6
10775,35,-64,193,-43,16,5
10780,36,-67,196,-44,13,5
10785,31,-57,198,-43,8,6
10790,32,-64,194,-44,3,5
10795,37,-65,198,-45,-3,5
10800,34,-65,195,-46,-7,7
10805,33,-65,198,-45,-13,6
10810,37,-64,198,-46,-18,6
10815,36,-64,200,-46,-23,5
10820,35,-65,198,-48,-29,6
10825,36,-64,201,-50,-32,4
10830,35,-64,198,-49,-35,4
10835,36,-64,197,-50,-35,2
10840,40,-60,201,-50,-35,2
10845,41,-65,204,-44,-35,1
10850,38,-65,205,-41,-31,-1
10855,42,-63,204,-37,-27,-1
10860,41,-66,203,-29,-22,-2
10865,40,-64,203,-23,-16,-2
10870,44,-66,205,-18,-11,-4
10875,42,-64,202,-14,-5,-3
10880,46,-62,203,-10,-1,-4
10885,48,-60,200,-10,4,-4
10890,44,-62,206,-12,7,-5
10895,49,-61,205,-15,11,-4
10900,50,-63,205,-20,12,-5
10905,45,-60,203,-25,15,-5
10910,47,-61,201,-31,17,-5
10915,46,-61,200,-35,17,-5
10920,47,-63,204,-41,15,-7
10925,44,-60,204,-45,14,-7
10930,45,-59,201,-46,10,-8
10935,45,-62,201,-47,7,-10
10940,41,-59,199,-45,3,-11
10945,45,-61,201,-47,-1,-13
10950,49,-63,197,-48,-8,-16
10955,43,-63,204,-47,-12,-17
10960,44,-63,199,-47,-16,-18
10965,43,-60,201,-46,-20,-20
10970,42,-65,203,-45,-23,-21
10975,44,-64,201,-45,-25,-22
10980,42,-63,200,-46,-28,-22
10985,43,-65,204,-43,-28,-21
10990,45,-65,204,-40,-31,-20
10995,44,-65,202,-34,-29,-17
11000,40,-62,204,-28,-29,-14
11005,43,-68,199,-21,-28,-12
11010,44,-64,200,-19,-25,-6
11015,46,-71,204,-21,-19,-1
11020,44,-67,204,-26,-13,5
11025,45,-67,204,-25,-8,8
11030,46,-66,198,-19,-4,13
11035,45,-65,204,-20,0,19
11040,43,-64,207,-9,0,21
11045,49,-65,205,9,0,27
11050,48,-65,205,21,0,33
11055,49,-62,207,25,3,35
11060,53,-63,204,29,11,38
11065,59,-64,201,30,20,38
11070,59,-64,202,26,32,38
11075,53,-62,201,19,48,39
11080,47,-60,203,12,59,40
11085,53,-62,203,8,63,35
11090,44,-59,206,2,60,27
11095,41,-60,206,-1,49,19
11100,51,-60,212,2,27,12
11105,55,-58,207,6,1,8
11110,56,-56,210,22,-20,23
11115,38,-60,209,45,-34,31
11120,34,-55,218,62,-50,39
11125,33,-58,231,101,-74,70
11130,15,-62,234,170,-134,85
11135,-1,-62,229,234,-200,79
11140,-7,-59,228,281,-248,81
11145,-3,-57,219,326,-285,106
11150,3,-58,204,356,-300,123
11155,13,-51,188,351,-263,127
11160,27,-47,180,290,-163,118
11165,41,-44,177,192,-36,108
11170,43,-44,172,91,80,99
11175,48,-48,175,-5,173,91
11180,54,-52,168,-101,248,79
11185,53,-54,170,-204,303,63
11190,56,-60,169,-301,338,42
11195,55,-65,179,-387,352,23
11200,51,-67,183,-450,351,6
11205,47,-72,184,-478,331,-9
11210,49,-78,193,-473,300,-22
11215,48,-79,196,-437,259,-35
11220,43,-80,196,-380,211,-45
11225,42,-82,203,-308,159,-54
11230,43,-78,203,-230,106,-61
11235,39,-74,204,-152,52,-66
11240,37,-72,205,-71,-4,-68
11245,37,-71,207,8,-56,-71
11250,35,-68,211,75,-104,-73
11255,37,-67,213,133,-145,-78
11260,39,-65,212,178,-183,-79
11265,38,-64,218,216,-214,-80
11270,36,-61,216,242,-236,-81
11275,39,-59,222,260,-248,-81
11280,39,-50,225,268,-247,-80
11285,37,-55,219,267,-239,-80
11290,39,-49,220,259,-225,-79
11295,41,-51,220,241,-206,-80
11300,38,-50,220,218,-185,-77
11305,40,-48,218,192,-162,-74
11310,41,-47,217,163,-141,-69
11315,41,-48,212,131,-118,-63
11320,40,-44,210,101,-92,-57
11325,43,-46,214,69,-66,-50
11330,44,-45,204,37,-39,-43
11335,37,-51,201,6,-12,-35
11340,44,-51,200,-27,14,-29
11345,43,-52,201,-59,36,-21
11350,44,-52,200,-88,59,-17
11355,42,-55,199,-112,77,-13
11360,44,-59,199,-131,93,-8
11365,41,-57,194,-148,106,-5
11370,45,-61,198,-158,112,0
11375,44,-64,193,-161,120,4
11380,43,-61,196,-157,120,8
11385,39,-65,193,-150,123,10
11390,45,-64,197,-140,124,10
11395,45,-65,196,-124,120,11
11400,43,-63,197,-105,114,12
11405,47,-65,195,-85,105,12
11410,43,-64,195,-62,93,12
11415,44,-62,202,-40,80,11
11420,42,-62,197,-18,68,12
11425,44,-61,199,-3,53,12
11430,47,-59,204,13,41,11
11435,46,-60,204,25,27,11
11440,47,-56,201,29,16,9
11445,46,-55,203,31,6,8
11450,48,-57,205,30,-2,7
11455,43,-52,205,24,-8,6
11460,47,-56,207,19,-15,5
11465,49,-53,206,10,-18,4
11470,48,-57,204,0,-22,2
11475,43,-53,208,-12,-24,0
11480,47,-55,205,-22,-26,-2
11485,46,-55,204,-32,-27,-3
11490,41,-56,209,-36,-29,-4
11495,47,-55,209,-39,-32,-6
11500,45,-56,208,-40,-33,-8
11505,45,-58,207,-36,-36,-12
11510,45,-58,202,-28,-38,-13
11515,46,-57,206,-23,-40,-14
11520,46,-57,207,-12,-41,-14
11525,43,-57,205,-5,-41,-15
11530,47,-58,205,4,-40,-14
11535,44,-57,204,8,-38,-15
11540,47,-57,205,13,-33,-14
11545,44,-59,202,15,-28,-13
11550,45,-60,193,14,-22,-13
11555,43,-57,205,12,-17,-14
11560,47,-56,201,12,-13,-13
11565,41,-54,203,9,-8,-14
11570,42,-54,205,7,-4,-14
11575,43,-56,202,6,-2,-12
11580,42,-53,204,3,4,-11
11585,46,-56,201,0,5,-12
11590,41,-56,198,-2,8,-10
11595,45,-57,203,-4,10,-8
11600,44,-56,204,-6,10,-6
11605,48,-54,212,-10,10,-7
11610,43,-55,206,-15,10,-9
11615,42,-57,206,-21,9,-8
11620,42,-56,204,-24,8,-6
11625,42,-56,201,-28,4,-6
11630,46,-55,209,-30,5,-3
11635,44,-53,205,-35,4,-1
11640,44,-55,205,-37,3,1
11645,46,-60,201,-43,2,1
11650,41,-55,201,-48,2,0
11655,43,-57,203,-52,2,-1
11660,47,-57,207,-57,1,-1
11665,46,-59,206,-58,1,-1
11670,47,-59,204,-53,1,1
11675,45,-57,203,-47,2,4
11680,45,-57,206,-42,3,4
11685,43,-57,201,-37,5,5
11690,49,-57,204,-34,5,6
11695,46,-55,207,-35,7,2
11700,47,-55,201,-37,7,-1
11705,45,-56,205,-38,5,-2
11710,38,-55,211,-35,2,-3
11715,42,-54,202,-32,-1,-5
11720,44,-58,204,-26,-5,-4
11725,45,-58,205,-20,-9,-3
11730,44,-57,207,-12,-11,-5
11735,41,-56,205,-3,-16,-5
11740,45,-57,203,5,-18,-5
11745,40,-54,206,14,-21,-5
11750,45,-58,204,21,-24,-6
11755,44,-55,204,28,-28,-6
11760,44,-55,201,35,-32,-6
11765,46,-52,203,38,-32,-7
11770,45,-53,203,37,-32,-8
11775,47,-51,204,35,-31,-7
11780,47,-51,202,28,-26,-6
11785,45,-52,199,19,-23,-5
11790,47,-52,199,8,-16,-3
11795,49,-51,200,-8,-9,-2
11800,49,-51,200,-22,1,-2
11805,54,-50,202,-37,9,-1
11810,48,-49,207,-50,19,1
11815,47,-53,203,-64,28,4
11820,44,-50,208,-72,35,5
11825,51,-42,197,-81,44,4
11830,48,-53,206,-85,49,4
11835,46,-52,204,-90,54,5
11840,48,-52,207,-88,57,4
11845,47,-55,210,-86,58,4
11850,46,-53,206,-81,57,4
11855,46,-56,209,-71,55,2
11860,49,-54,204,-60,48,1
11865,46,-58,210,-47,41,0
11870,47,-55,206,-34,34,-2
11875,47,-54,211,-22,25,-3
11880,48,-53,201,-11,16,-4
11885,47,-56,207,-1,10,-5
11890,46,-54,203,8,5,-8
11895,45,-55,201,15,2,-9
11900,45,-55,204,20,2,-13
11905,44,-53,198,21,2,-14
11910,49,-55,200,23,4,-15
11915,47,-55,201,20,7,-14
11920,46,-55,206,18,9,-13
11925,48,-56,204,12,12,-12
11930,56,-56,201,5,15,-12
11935,45,-56,200,-4,18,-11
11940,46,-57,200,-13,19,-10
11945,47,-55,206,-21,19,-11
11950,45,-55,200,-29,19,-9
11955,44,-54,205,-34,18,-7
11960,49,-56,202,-39,16,-4
11965,46,-56,200,-43,15,-3
11970,44,-52,204,-45,14,-2
11975,43,-53,199,-46,10,-1
11980,45,-53,206,-47,8,-1
11985,45,-52,209,-47,5,-1
11990,46,-54,206,-48,4,0
11995,44,-52,207,-49,3,0
