timestamp,acc_x,acc_y,acc_z,gyro_x,gyro_y,gyro_z
0,19,-32,241,-8,71,-2
5,23,-33,241,-7,71,0
10,20,-32,242,-7,72,-1
15,19,-28,238,-7,72,-1
20,21,-29,241,-9,72,-2
25,17,-31,232,-11,71,-1
30,21,-33,245,-12,71,-1
35,21,-30,240,-13,72,0
40,22,-30,241,-14,72,-1
45,19,-29,240,-15,71,0
50,22,-31,240,-16,73,0
55,21,-28,240,-18,73,-1
60,19,-29,240,-19,73,0
65,20,-30,241,-19,73,-1
70,18,-30,240,-21,76,-1
75,21,-29,243,-22,76,0
80,21,-33,242,-23,77,-1
85,18,-29,239,-23,77,-1
90,21,-31,241,-25,77,-1
95,21,-31,242,-26,78,-1
100,20,-30,238,-28,80,-2
105,21,-27,241,-29,79,-2
110,23,-32,241,-30,79,-2
115,20,-30,242,-32,79,-3
120,20,-30,243,-34,80,-2
125,22,-31,241,-38,79,-2
130,20,-32,242,-40,77,-4
135,20,-31,240,-41,77,-5
140,21,-31,243,-44,76,-4
145,19,-33,240,-47,77,-4
150,24,-33,243,-47,75,-3
155,24,-32,244,-49,74,-3
160,22,-32,244,-50,73,-3
165,21,-33,242,-51,73,-5
170,24,-32,239,-52,70,-5
175,21,-32,243,-51,70,-4
180,21,-32,244,-53,69,-4
185,22,-33,240,-54,67,-4
190,22,-35,242,-55,66,-5
195,21,-35,239,-55,66,-5
200,22,-36,239,-55,65,-5
205,21,-31,242,-56,63,-6
210,19,-29,240,-56,63,-5
215,17,-32,244,-56,64,-5
220,22,-30,242,-58,63,-4
225,18,-33,240,-59,65,-6
230,21,-33,242,-61,66,-4
235,20,-35,240,-61,68,-4
240,20,-34,242,-62,69,-4
245,20,-37,240,-64,69,-4
250,21,-34,239,-67,69,-4
255,21,-34,244,-69,70,-4
260,20,-35,243,-73,70,-5
265,21,-37,240,-74,70,-3
270,21,-35,242,-76,70,-3
275,21,-36,239,-78,71,-3
280,19,-36,244,-80,71,-5
285,25,-37,239,-80,70,-3
290,19,-35,238,-81,71,-3
295,18,-33,238,-83,71,-4
300,24,-35,238,-81,70,-3
305,20,-34,241,-82,69,-4
310,20,-35,241,-82,70,-3
315,19,-36,242,-81,69,-6
320,19,-38,239,-80,66,-5
325,21,-39,241,-80,66,-4
330,23,-35,243,-80,65,-5
335,21,-35,240,-79,64,-6
340,19,-35,242,-78,62,-5
345,17,-32,240,-79,61,-6
350,22,-34,241,-79,61,-7
355,22,-36,240,-79,61,-6
360,21,-33,243,-78,61,-5
365,22,-35,240,-80,59,-6
370,21,-31,242,-81,60,-5
375,21,-35,240,-81,60,-5
380,22,-35,237,-83,59,-4
385,23,-37,244,-87,59,-5
390,22,-36,238,-90,60,-5
395,20,-38,244,-94,61,-6
400,20,-35,242,-99,60,-7
405,21,-39,244,-105,59,-7
410,21,-39,243,-112,56,-7
415,22,-40,242,-116,55,-7
420,18,-37,240,-117,52,-8
425,20,-39,240,-118,48,-7
430,21,-38,239,-118,46,-9
435,22,-37,237,-117,43,-7
440,23,-40,237,-114,41,-9
445,22,-40,236,-107,41,-7
450,23,-43,238,-98,41,-7
455,26,-44,241,-89,40,-6
460,21,-41,242,-79,43,-7
465,25,-41,240,-67,43,-7
470,22,-39,237,-56,46,-8
475,21,-35,244,-50,47,-7
480,21,-41,240,-45,47,-9
485,20,-40,237,-43,51,-8
490,22,-37,240,-45,53,-7
495,20,-37,240,-47,56,-8
500,19,-39,241,-50,60,-7
505,23,-36,237,-54,61,-7
510,23,-41,244,-57,65,-6
515,21,-38,238,-62,66,-5
520,22,-36,240,-67,69,-6
525,19,-37,237,-70,69,-5
530,22,-37,243,-74,71,-6
535,22,-40,240,-79,71,-4
540,23,-39,241,-84,71,-5
545,21,-38,243,-87,71,-4
550,21,-38,241,-93,70,-3
555,21,-43,243,-98,68,-4
560,18,-37,237,-105,66,-5
565,20,-37,234,-108,65,-4
570,21,-41,241,-111,63,-5
575,17,-38,239,-114,62,-5
580,21,-41,238,-115,60,-5
585,19,-42,238,-116,60,-5
590,21,-43,241,-115,58,-6
595,20,-42,239,-114,59,-5
600,21,-39,239,-111,59,-5
605,20,-42,238,-106,59,-7
610,22,-43,242,-102,60,-6
615,21,-45,238,-97,60,-7
620,22,-43,240,-92,60,-6
625,23,-43,239,-88,63,-7
630,21,-43,239,-84,62,-7
635,21,-42,239,-81,63,-6
640,20,-43,236,-79,62,-7
645,21,-43,239,-80,63,-6
650,24,-40,239,-80,61,-8
655,20,-43,238,-80,62,-8
660,21,-42,239,-82,62,-7
665,19,-40,240,-86,63,-8
670,24,-41,241,-88,63,-7
675,22,-42,238,-91,63,-7
680,21,-42,240,-93,63,-6
685,20,-44,237,-95,64,-7
690,22,-44,238,-94,63,-6
695,20,-43,239,-93,65,-6
700,23,-43,238,-91,64,-7
705,22,-47,240,-90,64,-7
710,24,-46,238,-87,63,-6
715,24,-45,236,-84,64,-6
720,20,-46,242,-82,63,-6
725,20,-44,239,-78,63,-7
730,23,-48,239,-75,62,-6
735,21,-46,240,-73,63,-6
740,21,-46,236,-71,63,-6
745,22,-45,241,-71,64,-5
750,20,-46,236,-69,63,-5
755,24,-49,241,-68,64,-6
760,22,-46,238,-67,63,-5
765,23,-45,238,-66,63,-5
770,22,-45,242,-65,62,-5
775,22,-47,237,-66,63,-5
780,22,-45,239,-67,63,-5
785,14,-45,231,-69,62,-4
790,23,-47,237,-70,61,-5
795,21,-43,239,-71,60,-5
800,25,-47,239,-73,60,-5
805,23,-49,242,-75,60,-5
810,24,-47,239,-77,61,-5
815,20,-44,240,-77,60,-5
820,18,-44,242,-78,59,-3
825,19,-44,236,-80,59,-5
830,20,-49,239,-80,59,-6
835,22,-48,241,-81,58,-6
840,25,-46,236,-81,58,-6
845,22,-48,242,-81,57,-6
850,22,-47,237,-81,57,-6
855,22,-47,239,-81,58,-6
860,24,-50,239,-81,59,-6
865,18,-47,237,-80,60,-6
870,21,-48,237,-78,60,-7
875,24,-49,238,-78,59,-7
880,20,-50,238,-77,60,-8
885,19,-48,240,-75,60,-6
890,23,-48,237,-74,58,-6
895,22,-49,242,-72,60,-6
900,26,-48,237,-71,61,-7
905,22,-47,238,-69,61,-7
910,22,-49,237,-68,61,-7
915,23,-51,237,-66,61,-5
920,22,-49,238,-65,62,-6
925,20,-46,240,-64,61,-6
930,23,-47,236,-63,62,-7
935,23,-47,236,-63,62,-6
940,24,-50,237,-63,62,-5
945,23,-48,239,-61,61,-8
950,22,-48,239,-63,62,-6
955,22,-48,239,-63,61,-7
960,21,-47,234,-66,61,-6
965,22,-49,238,-67,62,-7
970,22,-48,236,-67,62,-5
975,25,-52,238,-68,61,-6
980,19,-50,241,-69,61,-5
985,24,-51,240,-70,60,-6
990,23,-50,241,-71,61,-5
995,18,-47,239,-70,61,-4
1000,16,-50,236,-71,59,-6
1005,24,-47,239,-72,60,-5
1010,23,-49,240,-71,61,-6
1015,24,-48,239,-71,61,-6
1020,23,-51,238,-72,61,-5
1025,22,-50,236,-71,61,-6
1030,21,-49,236,-72,60,-6
1035,24,-53,238,-72,60,-7
1040,20,-49,237,-73,62,-7
1045,23,-53,238,-74,62,-7
1050,23,-51,239,-75,62,-6
1055,24,-50,237,-75,63,-6
1060,23,-51,240,-74,64,-6
1065,20,-51,237,-74,65,-6
1070,23,-53,238,-73,66,-8
1075,26,-54,239,-71,64,-7
1080,21,-53,238,-69,63,-5
1085,20,-50,236,-69,63,-6
1090,22,-52,238,-70,62,-6
1095,25,-54,236,-70,61,-5
1100,25,-52,238,-71,60,-5
1105,25,-53,237,-71,60,-7
1110,27,-43,235,-71,58,-7
1115,24,-52,238,-69,58,-6
1120,21,-52,237,-67,57,-8
1125,23,-53,235,-67,57,-7
1130,23,-53,237,-65,58,-6
1135,25,-52,237,-64,58,-7
1140,24,-51,238,-62,60,-7
1145,26,-51,236,-63,61,-5
1150,24,-50,236,-63,63,-5
1155,24,-52,239,-66,62,-7
1160,25,-51,236,-67,63,-6
1165,24,-50,239,-68,65,-6
1170,23,-50,237,-72,67,-6
1175,23,-53,237,-74,67,-5
1180,19,-50,237,-81,67,-5
1185,22,-53,241,-87,64,-4
1190,21,-55,240,-93,62,-4
1195,24,-55,236,-93,57,-6
1200,23,-57,237,-92,52,-7
1205,21,-56,234,-87,46,-8
1210,23,-55,236,-78,40,-9
1215,23,-56,237,-68,35,-9
1220,23,-55,232,-57,31,-9
1225,23,-55,233,-45,31,-8
1230,23,-56,234,-31,30,-8
1235,26,-54,233,-18,32,-6
1240,24,-55,235,-4,37,-6
1245,24,-56,231,7,41,-6
1250,23,-53,234,16,49,-5
1255,24,-53,235,25,54,-5
1260,25,-52,234,29,59,-5
1265,24,-51,238,30,64,-4
1270,22,-53,236,29,67,-3
1275,24,-52,237,25,69,-3
1280,23,-50,236,21,72,-3
1285,22,-49,238,15,74,-3
1290,23,-51,234,9,75,-3
1295,24,-53,236,4,74,-3
1300,21,-52,237,-1,76,-3
1305,21,-50,238,-6,75,-3
1310,23,-53,238,-9,75,-2
1315,24,-52,239,-11,74,-2
1320,22,-51,238,-14,75,0
1325,26,-54,237,-12,75,-1
1330,24,-51,240,-11,74,-1
1335,23,-55,238,-9,75,-1
1340,22,-53,239,-6,74,-2
1345,24,-55,234,-3,75,0
1350,22,-54,236,0,72,0
1355,23,-54,232,6,74,-1
1360,25,-56,237,8,74,-2
1365,23,-53,236,11,74,-1
1370,22,-55,235,15,75,0
1375,20,-56,237,19,74,-1
1380,24,-55,236,22,74,-1
1385,23,-55,237,26,74,0
1390,24,-55,237,27,76,0
1395,22,-54,237,31,78,-1
1400,23,-54,236,34,80,-1
1405,23,-55,236,35,80,0
1410,23,-51,234,35,81,-1
1415,23,-53,234,35,82,-1
1420,23,-54,238,34,81,-1
1425,22,-53,239,34,83,-1
1430,24,-52,237,32,83,-1
1435,24,-50,239,28,83,-2
1440,24,-50,239,25,82,-1
1445,25,-54,240,23,80,-1
1450,21,-53,238,22,79,0
1455,24,-53,235,21,80,-1
1460,25,-53,236,22,78,2
1465,24,-53,239,22,78,0
1470,23,-53,239,23,77,0
1475,24,-51,236,24,77,0
1480,23,-53,237,26,78,0
1485,25,-53,237,28,78,0
1490,22,-53,240,30,78,1
1495,23,-55,236,32,78,2
1500,21,-56,239,35,78,1
1505,22,-53,238,37,78,0
1510,24,-52,236,39,80,0
1515,23,-52,236,42,78,0
1520,22,-51,237,43,78,0
1525,22,-50,238,44,78,0
1530,24,-51,236,48,80,2
1535,25,-47,235,50,80,1
1540,22,-48,236,51,80,1
1545,27,-55,237,51,78,0
1550,21,-48,236,50,78,-1
1555,25,-51,238,50,77,0
1560,23,-51,237,49,77,1
1565,23,-48,237,48,78,1
1570,23,-49,237,48,76,1
1575,24,-52,235,45,76,1
1580,20,-50,234,43,77,1
1585,20,-49,236,43,77,2
1590,24,-52,241,42,75,1
1595,22,-51,240,42,76,0
1600,21,-52,242,39,76,0
1605,22,-49,241,39,76,1
1610,24,-49,238,38,77,0
1615,21,-49,237,39,79,0
1620,24,-52,239,38,79,0
1625,22,-49,237,41,80,0
1630,24,-49,237,41,80,0
1635,25,-52,238,44,81,0
1640,22,-49,233,45,81,-1
1645,23,-49,240,48,80,0
1650,22,-50,237,47,79,1
1655,25,-52,239,49,80,0
1660,24,-47,238,50,80,2
1665,25,-50,237,51,79,2
1670,25,-49,236,52,78,1
1675,22,-47,238,53,79,2
1680,23,-48,238,54,80,1
1685,24,-50,238,57,77,1
1690,22,-49,238,59,78,-1
1695,24,-47,235,59,78,1
1700,21,-47,237,59,77,0
1705,21,-48,238,60,80,0
1710,24,-48,237,61,80,0
1715,24,-47,237,60,80,1
1720,26,-47,238,59,80,1
1725,22,-48,241,55,81,2
1730,23,-46,237,52,81,0
1735,23,-46,240,48,81,1
1740,23,-47,235,46,80,2
1745,22,-46,240,44,82,2
1750,20,-47,238,44,82,2
1755,22,-46,237,43,81,2
1760,24,-48,238,43,80,3
1765,21,-50,241,43,79,2
1770,23,-45,241,45,79,1
1775,19,-43,237,46,79,3
1780,23,-45,239,48,81,2
1785,22,-47,237,51,80,2
1790,22,-45,238,53,79,2
1795,20,-44,235,53,78,1
1800,25,-46,237,53,78,1
1805,22,-45,239,54,78,3
1810,21,-44,238,52,77,1
1815,23,-47,235,51,77,2
1820,20,-48,239,52,77,2
1825,22,-44,238,52,77,1
1830,23,-49,241,52,78,0
1835,23,-45,238,51,78,0
1840,24,-47,240,51,76,0
1845,24,-44,238,52,77,1
1850,22,-46,240,54,77,0
1855,20,-40,239,55,77,1
1860,21,-45,238,56,77,1
1865,22,-44,241,55,78,1
1870,20,-44,237,55,77,1
1875,29,-45,236,55,77,-1
1880,20,-46,241,52,79,0
1885,22,-42,241,52,79,1
1890,21,-42,239,52,78,2
1895,22,-41,240,53,78,1
1900,23,-44,242,52,78,1
1905,24,-42,238,53,78,0
1910,20,-40,239,52,78,0
1915,22,-41,239,53,78,1
1920,22,-40,240,54,79,1
1925,22,-45,237,54,77,1
1930,22,-43,239,55,77,1
1935,23,-40,241,53,76,2
1940,24,-45,237,52,77,2
1945,24,-41,239,50,78,2
1950,22,-41,240,45,78,1
1955,20,-41,238,41,77,1
1960,20,-41,243,36,76,1
1965,18,-41,243,30,73,0
1970,20,-46,240,27,71,0
1975,21,-44,240,25,68,-1
1980,19,-43,238,25,64,-3
1985,22,-44,237,27,61,-2
1990,20,-43,240,30,58,-2
1995,23,-47,239,34,56,-1
2000,22,-46,237,40,56,-1
2005,23,-48,236,51,56,0
2010,21,-44,241,64,56,-1
2015,22,-48,236,76,56,-1
2020,23,-47,238,89,59,-2
2025,23,-43,237,104,60,-1
2030,24,-43,236,114,62,-2
2035,21,-40,238,123,65,-2
2040,24,-40,237,126,65,-3
2045,21,-40,237,130,68,-3
2050,22,-36,240,128,71,-2
2055,19,-35,242,124,73,-1
2060,22,-37,239,119,77,0
2065,25,-38,238,113,79,2
2070,23,-38,239,107,80,2
2075,22,-37,239,100,81,2
2080,23,-37,241,91,81,4
2085,20,-33,237,82,83,3
2090,22,-37,243,75,84,3
2095,21,-35,239,68,82,4
2100,22,-36,243,62,80,4
2105,20,-34,241,56,78,3
2110,20,-34,240,50,77,3
2115,21,-38,243,46,76,4
2120,20,-39,241,42,75,4
2125,21,-38,241,37,74,3
2130,20,-36,239,33,73,2
2135,21,-36,244,30,73,2
2140,22,-36,239,29,74,2
2145,22,-37,242,29,74,2
2150,20,-36,236,28,75,2
2155,19,-38,239,30,77,1
2160,20,-38,240,30,79,1
2165,23,-39,238,31,80,1
2170,23,-40,240,33,81,1
2175,20,-38,241,35,82,1
2180,21,-37,241,37,83,1
2185,21,-39,241,39,85,1
2190,20,-39,240,40,85,2
2195,19,-38,240,41,84,1
2200,23,-37,244,41,85,1
2205,21,-35,241,41,83,0
2210,22,-36,239,39,81,-1
2215,22,-36,243,37,81,-1
2220,20,-33,240,34,78,-1
2225,23,-34,241,31,77,-1
2230,24,-39,239,29,75,0
2235,22,-38,239,27,74,0
2240,22,-35,239,26,75,1
2245,19,-37,239,25,74,0
2250,25,-38,242,23,72,-1
2255,22,-38,240,23,73,0
2260,21,-36,243,22,73,-1
2265,19,-38,240,23,72,0
2270,21,-38,240,23,73,-1
2275,23,-36,240,23,73,-1
2280,18,-36,240,24,74,0
2285,22,-36,238,26,73,-1
2290,20,-36,238,27,74,-2
2295,21,-37,242,28,73,-1
2300,19,-36,241,30,75,-1
2305,21,-35,240,31,75,-1
2310,18,-37,239,32,74,-2
2315,19,-35,242,34,74,-2
2320,24,-37,241,33,76,-1
2325,21,-35,243,32,77,-1
2330,23,-35,241,33,75,0
2335,20,-35,238,34,78,1
2340,20,-34,240,34,78,0
2345,21,-35,242,33,77,-1
2350,17,-32,240,32,76,-1
2355,19,-34,244,33,76,0
2360,22,-34,245,31,74,-1
2365,21,-31,241,29,72,0
2370,21,-34,241,27,72,1
2375,22,-34,239,24,71,-1
2380,19,-36,238,22,70,0
2385,22,-32,240,21,71,0
2390,19,-33,240,17,70,-1
2395,22,-35,239,17,70,0
2400,22,-34,241,15,70,0
2405,19,-33,240,13,72,-1
2410,22,-34,243,12,72,0
2415,20,-34,240,12,72,-1
2420,19,-31,244,11,72,0
2425,20,-33,242,12,71,-2
2430,18,-31,239,10,72,-2
2435,21,-37,239,10,72,-2
2440,22,-36,242,12,72,-1
2445,19,-30,237,13,72,-1
2450,19,-35,241,13,72,-2
2455,17,-29,241,13,71,-3
2460,19,-31,239,12,71,-3
2465,19,-30,243,12,71,-1
2470,17,-33,240,12,72,-3
2475,20,-34,238,13,71,-2
2480,22,-37,241,12,71,-2
2485,22,-38,243,11,71,-3
2490,19,-31,239,11,73,-2
2495,23,-33,240,11,73,-3
2500,19,-34,240,10,75,-2
2505,20,-34,241,10,74,-2
2510,20,-30,239,10,74,-3
2515,22,-32,239,9,72,-3
2520,21,-34,241,8,73,-1
2525,20,-33,243,9,72,-1
2530,23,-27,243,9,71,-1
2535,22,-33,240,9,70,-1
2540,20,-34,243,10,68,-2
2545,20,-33,241,11,69,-2
2550,23,-33,241,9,70,-3
2555,20,-32,242,9,69,-3
2560,20,-34,236,8,71,-2
2565,21,-33,244,8,71,-3
2570,21,-31,243,7,71,-2
2575,18,-35,240,6,72,-3
2580,18,-29,240,4,73,-2
2585,17,-32,241,4,73,-1
2590,18,-33,242,5,73,0
2595,21,-33,241,4,73,-2
2600,20,-33,243,2,72,-2
2605,18,-33,241,2,72,0
2610,19,-31,241,3,72,-1
2615,20,-32,242,3,71,-2
2620,18,-32,237,4,72,-2
2625,20,-30,239,5,71,-3
2630,21,-33,245,5,71,-2
2635,17,-35,240,4,71,-3
2640,23,-35,242,5,70,-2
2645,22,-34,244,5,69,-2
2650,23,-33,239,5,69,-2
2655,18,-32,238,5,69,-2
2660,22,-35,241,5,70,-2
2665,17,-29,243,5,69,-3
2670,18,-31,239,5,70,-2
2675,20,-32,241,5,70,-4
2680,20,-31,242,5,70,-1
2685,21,-34,244,4,72,-1
2690,19,-31,240,4,69,-2
2695,22,-30,240,1,70,-1
2700,21,-31,239,2,71,-1
2705,20,-33,243,1,70,-2
2710,20,-29,239,-1,71,-3
2715,21,-32,241,-2,73,-2
2720,19,-32,239,-4,71,-1
2725,16,-31,244,-8,70,-2
2730,20,-33,244,-12,69,-2
2735,19,-33,242,-16,65,-3
2740,17,-30,240,-17,63,-4
2745,26,-36,241,-17,60,-5
2750,22,-34,241,-18,56,-5
2755,20,-32,243,-18,53,-4
2760,23,-33,238,-18,51,-3
2765,21,-33,236,-16,51,-3
2770,20,-34,241,-11,54,-2
2775,20,-35,240,-6,53,-3
2780,21,-33,243,1,55,-3
2785,19,-33,241,9,56,-3
2790,21,-37,239,14,57,-3
2795,21,-33,244,20,57,-3
2800,20,-29,240,21,58,-4
2805,21,-34,240,22,59,-5
2810,19,-32,240,20,60,-4
2815,22,-31,242,18,63,-4
2820,18,-28,240,14,65,-5
2825,23,-32,241,11,67,-5
2830,21,-34,242,9,68,-4
2835,18,-33,241,8,69,-4
2840,20,-34,238,6,70,-4
2845,19,-33,242,7,71,-4
2850,21,-32,239,7,71,-2
2855,20,-37,242,6,73,-2
2860,21,-31,244,5,73,-1
2865,21,-31,241,4,73,-1
2870,22,-32,239,3,72,-1
2875,19,-33,242,0,74,-1
2880,21,-31,240,-3,73,-1
2885,21,-30,241,-6,71,-1
2890,20,-27,241,-9,71,1
2895,20,-29,245,-11,72,0
2900,20,-31,240,-12,72,-1
2905,21,-28,240,-15,72,0
2910,21,-31,239,-14,71,-1
2915,22,-35,244,-13,71,-1
2920,17,-31,239,-12,73,-1
2925,20,-33,240,-11,73,-1
2930,23,-31,240,-10,73,-3
2935,24,-34,243,-9,72,-2
2940,20,-31,243,-5,70,-2
2945,19,-33,242,-4,72,-2
2950,18,-30,240,-4,72,-2
2955,20,-31,240,-2,73,-1
2960,19,-36,241,0,73,-3
2965,13,-32,236,1,74,-3
2970,22,-32,246,1,74,-3
2975,19,-33,241,-1,74,-4
2980,22,-32,240,-1,74,-2
2985,22,-29,240,-2,72,-2
2990,18,-29,245,-5,73,-3
2995,21,-33,241,-9,73,-3
3000,23,-34,239,-9,73,-3
3005,22,-32,241,-10,73,-2
3010,16,-30,240,-10,73,-2
3015,20,-30,238,-9,73,-3
3020,19,-28,242,-8,72,-3
3025,19,-33,240,-8,72,-3
3030,22,-33,242,-7,72,-3
3035,20,-30,240,-6,71,-3
3040,21,-33,241,-5,70,-2
3045,21,-32,241,-6,70,-4
3050,17,-33,239,-6,72,-3
3055,19,-31,246,-5,71,-2
3060,20,-32,242,-6,72,-3
3065,22,-31,237,-5,71,-2
3070,20,-33,244,-6,72,-3
3075,17,-32,245,-7,72,-3
3080,19,-31,240,-4,72,-2
3085,22,-33,241,-4,72,-3
3090,20,-32,237,-3,71,-4
3095,20,-30,239,-2,71,-4
3100,18,-28,242,-2,71,-3
3105,17,-28,245,-1,70,-3
3110,19,-30,239,-1,69,-2
3115,22,-31,240,-1,69,-2
3120,20,-30,241,-3,71,-2
3125,20,-29,241,-3,69,-2
3130,20,-31,241,-3,69,-2
3135,21,-32,240,-5,70,-1
3140,19,-28,241,-5,69,-2
3145,21,-32,240,-5,71,-3
3150,22,-33,242,-7,70,-2
3155,22,-34,241,-7,71,-2
3160,24,-30,241,-7,71,-1
3165,18,-33,240,-7,71,-1
3170,24,-31,242,-7,70,-2
3175,23,-30,246,-7,70,-2
3180,25,-32,239,-8,70,-2
3185,23,-29,244,-8,71,-2
3190,20,-30,237,-8,71,-3
3195,22,-32,241,-9,71,-3
3200,21,-32,241,-9,70,-3
3205,22,-30,242,-10,70,-2
3210,19,-31,239,-10,70,-2
3215,21,-30,240,-11,70,-2
3220,21,-31,240,-10,71,-1
3225,22,-31,241,-11,71,-2
3230,22,-30,241,-12,71,-2
3235,19,-33,240,-9,72,-3
3240,20,-32,242,-10,74,-3
3245,20,-31,242,-8,75,-3
3250,20,-31,241,-7,77,-3
3255,22,-30,236,-6,79,-2
3260,24,-29,240,-6,81,-2
3265,21,-30,241,-8,82,-3
3270,20,-28,241,-10,84,-5
3275,21,-31,241,-17,86,-5
3280,20,-30,239,-23,86,-5
3285,22,-29,245,-29,89,-6
3290,20,-28,248,-34,92,-8
3295,22,-32,238,-38,99,-10
3300,21,-29,243,-43,106,-11
3305,19,-31,237,-48,113,-13
3310,21,-29,242,-53,120,-14
3315,21,-33,244,-56,128,-14
3320,21,-32,241,-60,135,-15
3325,20,-29,244,-65,141,-16
3330,21,-29,238,-70,144,-20
3335,24,-33,243,-75,149,-24
3340,18,-33,241,-81,152,-30
3345,23,-32,239,-88,158,-36
3350,21,-29,243,-95,162,-41
3355,24,-30,241,-104,168,-48
3360,23,-29,245,-117,169,-54
3365,23,-33,249,-132,168,-63
3370,25,-31,248,-149,167,-73
3375,26,-34,246,-168,167,-84
3380,26,-31,249,-190,171,-95
3385,27,-29,248,-215,178,-109
3390,29,-33,247,-241,190,-122
3395,31,-33,244,-268,207,-134
3400,32,-32,244,-292,226,-145
3405,32,-30,243,-320,244,-152
3410,30,-33,239,-350,257,-159
3415,26,-34,240,-380,266,-164
3420,28,-37,240,-413,269,-163
3425,28,-41,237,-443,266,-162
3430,25,-45,238,-467,260,-159
3435,23,-47,237,-485,249,-156
3440,21,-52,239,-495,235,-155
3445,22,-54,239,-497,221,-150
3450,24,-55,237,-488,207,-149
3455,22,-56,239,-471,193,-149
3460,19,-57,238,-452,180,-149
3465,20,-56,237,-431,162,-150
3470,19,-55,239,-410,144,-152
3475,19,-51,237,-391,128,-154
3480,18,-48,237,-373,113,-154
3485,19,-48,242,-356,99,-155
3490,22,-47,239,-340,91,-155
3495,18,-42,242,-328,87,-153
3500,16,-43,244,-321,85,-150
3505,15,-39,242,-321,86,-145
3510,17,-32,246,-326,87,-140
3515,16,-36,246,-336,92,-132
3520,12,-34,245,-351,98,-127
3525,14,-35,246,-369,107,-122
3530,14,-36,247,-388,113,-118
3535,12,-37,243,-410,117,-113
3540,11,-44,245,-436,121,-108
3545,14,-45,248,-463,123,-104
3550,14,-51,242,-489,122,-98
3555,10,-49,244,-510,124,-91
3560,13,-53,236,-525,123,-84
3565,10,-54,245,-539,124,-80
3570,9,-56,243,-554,124,-73
3575,7,-57,241,-569,124,-70
3580,7,-60,242,-584,126,-65
3585,9,-59,246,-598,124,-61
3590,7,-59,245,-610,117,-55
3595,7,-62,252,-616,94,-53
3600,4,-63,249,-621,61,-49
3605,4,-65,251,-631,20,-45
3610,1,-65,245,-647,-20,-42
3615,1,-62,246,-669,-54,-39
3620,0,-65,243,-701,-80,-34
3625,-6,-60,246,-735,-99,-25
3630,-2,-66,245,-769,-119,-17
3635,-1,-66,250,-799,-140,-13
3640,-1,-68,251,-820,-156,-11
3645,1,-69,250,-838,-164,-10
3650,0,-71,249,-855,-156,-9
3655,-3,-71,245,-868,-139,-7
3660,-3,-74,240,-871,-120,-9
3665,-2,-79,238,-856,-105,-7
3670,-3,-83,230,-817,-92,-7
3675,-6,-86,228,-754,-81,-4
3680,-6,-89,223,-679,-70,-3
3685,-3,-93,227,-596,-54,-4
3690,0,-94,230,-498,-44,-6
3695,0,-87,226,-408,-32,-10
3700,2,-84,225,-331,-20,-9
3705,2,-78,227,-279,-14,-5
3710,8,-76,230,-245,-26,1
3715,8,-75,238,-231,-51,7
3720,6,-74,237,-237,-86,12
3725,8,-74,236,-256,-125,17
3730,9,-76,230,-284,-166,26
3735,12,-80,232,-310,-204,34
3740,16,-89,231,-328,-232,41
3745,18,-95,221,-331,-244,50
3750,18,-98,220,-315,-243,61
3755,17,-105,212,-284,-237,71
3760,17,-105,208,-250,-228,86
3765,19,-112,210,-217,-221,100
3770,17,-111,213,-180,-214,115
3775,19,-111,217,-143,-205,124
3780,16,-112,226,-110,-196,136
3785,14,-111,226,-86,-175,141
3790,14,-108,226,-73,-160,149
3795,9,-107,227,-68,-158,156
3800,12,-108,230,-67,-169,151
3805,6,-109,224,-70,-199,144
3810,0,-105,217,-93,-243,139
3815,-6,-108,209,-128,-301,138
3820,-4,-110,194,-155,-362,138
3825,-3,-112,182,-156,-401,145
3830,4,-112,177,-126,-401,148
3835,2,-110,186,-68,-363,143
3840,7,-110,189,9,-307,132
3845,1,-100,196,93,-260,127
3850,1,-85,212,163,-257,120
3855,2,-72,217,198,-317,118
3860,6,-59,228,188,-411,118
3865,13,-54,235,148,-492,123
3870,15,-52,237,91,-538,132
3875,18,-51,237,19,-547,138
3880,25,-56,236,-53,-542,139
3885,21,-58,232,-99,-536,138
3890,27,-61,228,-116,-537,138
3895,27,-62,222,-128,-541,134
3900,31,-65,220,-138,-551,132
3905,31,-70,222,-153,-574,129
3910,38,-73,224,-165,-611,126
3915,43,-75,218,-169,-650,125
3920,51,-76,217,-169,-678,118
3925,58,-75,220,-161,-700,109
3930,62,-74,216,-160,-719,102
3935,67,-76,216,-168,-734,101
3940,73,-74,216,-181,-750,102
3945,70,-72,223,-192,-766,101
3950,74,-71,223,-196,-767,100
3955,81,-74,229,-196,-758,102
3960,85,-74,232,-191,-764,103
3965,89,-71,225,-189,-779,99
3970,99,-69,215,-198,-786,98
3975,105,-67,206,-219,-784,100
3980,105,-58,212,-245,-786,101
3985,101,-54,228,-272,-789,112
3990,96,-49,243,-317,-783,136
3995,91,-44,252,-375,-785,153
4000,82,-43,249,-446,-799,162
4005,79,-47,240,-516,-807,177
4010,84,-58,231,-566,-802,198
4015,81,-70,217,-584,-802,217
4020,86,-84,203,-576,-812,233
4025,89,-97,203,-560,-824,227
4030,93,-113,193,-536,-831,209
4035,94,-119,193,-509,-833,186
4040,100,-130,201,-486,-834,171
4045,96,-142,204,-470,-832,153
4050,98,-155,196,-458,-816,132
4055,104,-161,188,-435,-787,103
4060,103,-161,187,-399,-748,77
4065,106,-161,176,-355,-696,47
4070,106,-156,179,-319,-620,17
4075,102,-156,182,-299,-523,1
4080,101,-150,191,-284,-427,-13
4085,97,-148,199,-267,-348,-36
4090,90,-144,207,-251,-283,-53
4095,82,-137,207,-245,-215,-68
4100,77,-133,209,-243,-152,-80
4105,67,-127,204,-238,-90,-88
4110,59,-126,204,-235,-23,-87
4115,52,-127,207,-233,39,-78
4120,41,-129,209,-220,93,-66
4125,40,-129,207,-194,139,-54
4130,31,-128,203,-164,177,-46
4135,27,-129,196,-136,202,-39
4140,32,-130,189,-107,205,-34
4145,32,-135,188,-75,206,-29
4150,31,-137,188,-35,209,-29
4155,31,-143,181,17,215,-29
4160,25,-145,184,73,230,-37
4165,28,-146,180,129,249,-38
4170,30,-142,184,174,271,-34
4175,32,-138,183,207,299,-25
4180,38,-133,192,232,326,-20
4185,46,-136,199,254,341,-19
4190,53,-131,199,285,352,-17
4195,57,-127,203,311,355,-13
4200,60,-128,208,334,356,-6
4205,62,-121,213,348,344,-1
4210,65,-123,219,360,324,4
4215,74,-120,218,367,297,11
4220,76,-113,218,370,283,18
4225,82,-111,216,374,285,22
4230,84,-108,210,375,288,22
4235,83,-103,213,370,285,18
4240,84,-101,204,368,279,13
4245,87,-103,202,367,281,14
4250,87,-103,205,367,291,6
4255,86,-105,202,369,309,-5
4260,85,-100,207,373,329,-14
4265,77,-102,211,375,348,-23
4270,73,-98,211,373,361,-28
4275,70,-98,213,369,366,-31
4280,61,-95,214,362,365,-33
4285,51,-88,217,352,357,-33
4290,53,-90,216,336,345,-31
4295,51,-90,219,315,335,-30
4300,54,-90,214,297,330,-31
4305,53,-96,220,288,322,-33
4310,58,-101,217,295,307,-42
4315,61,-108,214,312,289,-47
4320,61,-105,214,336,266,-56
4325,63,-108,209,361,240,-64
4330,65,-107,208,384,215,-75
4335,65,-106,212,402,191,-91
4340,67,-104,216,417,172,-109
4345,68,-106,219,427,157,-128
4350,68,-101,226,430,147,-151
4355,70,-106,228,427,133,-173
4360,72,-110,235,421,115,-201
4365,75,-109,239,412,103,-229
4370,76,-112,238,407,98,-258
4375,75,-114,243,412,98,-293
4380,83,-112,233,424,102,-327
4385,79,-118,236,449,110,-357
4390,87,-115,233,487,117,-385
4395,89,-113,236,539,115,-409
4400,95,-108,234,590,91,-437
4405,105,-107,236,629,53,-466
4410,112,-103,240,654,10,-499
4415,115,-90,247,669,-26,-524
4420,114,-87,250,678,-59,-546
4425,110,-82,256,677,-101,-572
4430,101,-83,267,660,-159,-598
4435,85,-82,278,630,-222,-620
4440,72,-83,289,604,-290,-640
4445,52,-81,290,584,-355,-653
4450,21,-79,298,578,-421,-657
4455,-12,-69,295,586,-498,-661
4460,-30,-67,287,593,-610,-657
4465,-44,-62,277,587,-762,-650
4470,-49,-59,263,560,-918,-650
4475,-37,-55,249,516,-1064,-658
4480,-9,-52,241,455,-1199,-671
4485,17,-52,232,387,-1307,-693
4490,61,-56,228,322,-1394,-718
4495,73,-57,222,274,-1441,-743
4500,69,-61,234,261,-1446,-763
4505,72,-62,230,278,-1467,-780
4510,87,-57,221,308,-1534,-798
4515,79,-51,210,337,-1609,-819
4520,63,-51,213,363,-1675,-831
4525,52,-44,216,391,-1765,-839
4530,45,-41,210,424,-1894,-843
4535,51,-40,203,454,-2051,-845
4540,59,-37,199,472,-2215,-851
4545,65,-31,188,476,-2371,-861
4550,76,-29,175,459,-2500,-877
4555,79,-24,173,426,-2593,-893
4560,89,-20,162,395,-2666,-904
4565,96,-13,152,358,-2716,-915
4570,99,-8,150,313,-2746,-927
4575,100,-7,147,264,-2764,-942
4580,103,-1,138,210,-2782,-953
4585,101,6,133,146,-2803,-957
4590,112,8,128,76,-2826,-963
4595,109,12,122,5,-2846,-970
4600,115,17,112,-60,-2861,-976
4605,121,15,108,-121,-2884,-984
4610,120,15,101,-183,-2910,-986
4615,128,15,104,-242,-2934,-976
4620,135,14,97,-296,-2950,-962
4625,143,13,95,-335,-2959,-948
4630,148,13,92,-365,-2961,-929
4635,150,11,88,-396,-2959,-907
4640,153,11,84,-423,-2954,-881
4645,155,10,81,-448,-2945,-859
4650,164,13,75,-470,-2931,-837
4655,166,12,70,-501,-2914,-811
4660,173,15,61,-540,-2892,-782
4665,177,11,62,-580,-2862,-753
4670,177,15,65,-613,-2818,-721
4675,186,8,68,-640,-2756,-689
4680,187,9,71,-660,-2687,-661
4685,189,4,76,-674,-2609,-639
4690,191,1,80,-681,-2521,-620
4695,189,-2,86,-683,-2425,-598
4700,196,1,97,-681,-2319,-569
4705,182,-6,93,-674,-2213,-539
4710,177,-5,94,-668,-2106,-500
4715,178,-11,96,-664,-2003,-453
4720,179,-14,97,-656,-1904,-402
4725,183,-14,93,-641,-1807,-348
4730,195,-18,95,-617,-1705,-295
4735,215,-17,97,-588,-1593,-242
4740,231,-16,89,-553,-1466,-190
4745,256,-18,88,-520,-1323,-133
4750,267,-17,81,-498,-1165,-78
4755,273,-19,83,-488,-991,-24
4760,263,-17,84,-493,-814,32
4765,250,-15,91,-509,-646,91
4770,257,-23,102,-535,-492,157
4775,281,-26,120,-566,-341,221
4780,321,-26,143,-592,-156,286
4785,355,-37,166,-617,106,363
4790,396,-51,196,-647,450,445
4795,416,-57,212,-668,847,496
4800,417,-64,215,-671,1231,486
4805,413,-83,211,-679,1523,442
4810,386,-85,182,-711,1643,371
4815,355,-75,125,-785,1517,263
4820,318,-58,63,-916,1136,155
4825,293,-46,20,-1092,561,127
4830,279,-54,-3,-1241,-69,195
4835,263,-64,9,-1284,-595,311
4840,248,-80,35,-1217,-942,417
4845,237,-97,62,-1064,-1119,487
4850,222,-110,86,-859,-1184,509
4855,207,-116,105,-636,-1162,488
4860,197,-120,125,-417,-1084,447
4865,197,-117,137,-221,-972,397
4870,200,-108,151,-71,-848,351
4875,200,-95,161,30,-732,307
4880,206,-72,155,80,-636,273
4885,215,-55,149,59,-583,244
4890,224,-38,138,-35,-591,211
4895,228,-27,127,-180,-645,170
4900,243,-24,111,-339,-722,119
4905,252,-23,96,-486,-797,61
4910,260,-23,85,-601,-858,1
4915,268,-22,74,-674,-906,-64
4920,278,-24,56,-698,-935,-122
4925,284,-18,49,-677,-948,-167
4930,287,-11,38,-623,-942,-195
4935,286,-6,26,-560,-924,-208
4940,286,-10,13,-505,-907,-205
4945,279,-18,7,-470,-902,-173
4950,277,-32,6,-452,-904,-119
4955,270,-47,7,-441,-913,-57
4960,264,-61,7,-434,-933,-2
4965,267,-74,5,-420,-956,34
4970,271,-85,10,-393,-976,56
4975,278,-95,12,-347,-984,63
4980,283,-102,8,-280,-966,59
4985,285,-105,-2,-205,-926,43
4990,290,-105,-6,-126,-874,12
4995,288,-105,-16,-48,-817,-25
5000,287,-106,-18,30,-754,-65
5005,283,-101,-21,109,-683,-102
5010,274,-97,-17,178,-612,-134
5015,270,-91,-14,235,-549,-157
5020,263,-83,-15,282,-501,-180
5025,258,-78,-10,315,-453,-198
5030,257,-70,-8,337,-406,-215
5035,249,-60,0,351,-364,-230
5040,244,-58,6,356,-328,-234
5045,241,-55,13,355,-296,-233
5050,237,-52,17,345,-264,-230
5055,233,-55,25,327,-234,-219
5060,227,-56,20,301,-215,-205
5065,226,-56,24,267,-217,-189
5070,226,-57,26,240,-237,-173
5075,226,-57,27,222,-260,-161
5080,219,-56,30,214,-281,-157
5085,223,-57,39,214,-295,-159
5090,220,-55,32,220,-299,-163
5095,222,-54,29,232,-295,-171
5100,224,-50,27,240,-279,-183
5105,225,-50,24,240,-254,-193
5110,231,-49,30,240,-219,-206
5115,233,-47,32,239,-174,-218
5120,238,-49,30,244,-127,-229
5125,243,-52,30,247,-81,-245
5130,248,-60,33,244,-41,-259
5135,251,-55,32,237,-4,-270
5140,255,-58,27,237,40,-278
5145,259,-64,31,239,95,-281
5150,260,-65,28,250,158,-284
5155,264,-66,28,265,224,-287
5160,261,-62,31,282,290,-290
5165,256,-61,35,291,358,-289
5170,253,-57,37,294,418,-287
5175,245,-52,40,285,470,-282
5180,243,-48,44,267,506,-275
5185,242,-50,44,244,531,-264
5190,236,-45,43,221,551,-250
5195,240,-42,41,203,569,-237
5200,236,-42,41,197,584,-222
5205,243,-40,42,199,601,-208
5210,244,-44,38,205,619,-196
5215,244,-43,42,212,650,-184
5220,241,-41,47,217,683,-172
5225,245,-40,46,226,713,-165
5230,246,-40,50,241,734,-162
5235,247,-36,51,261,738,-164
5240,253,-32,53,283,728,-168
5245,254,-28,47,306,704,-172
5250,257,-21,44,321,669,-172
5255,257,-15,41,329,634,-167
5260,258,-9,35,330,597,-158
5265,257,-8,41,325,562,-142
5270,259,-1,43,315,526,-120
5275,258,-2,41,297,489,-92
5280,257,2,45,274,448,-61
5285,258,-3,48,246,402,-25
5290,259,-4,49,212,350,13
5295,263,-10,50,179,303,48
5300,263,-16,55,147,260,79
5305,260,-21,61,117,227,100
5310,262,-29,58,96,200,113
5315,258,-35,65,79,178,116
5320,255,-34,69,61,161,110
5325,252,-36,70,45,140,97
5330,251,-34,72,30,117,73
5335,250,-31,74,14,96,59
5340,250,-31,68,0,82,48
5345,249,-31,71,-15,69,35
5350,247,-25,65,-32,64,26
5355,248,-23,58,-49,67,18
5360,243,-21,58,-70,73,12
5365,246,-21,54,-91,78,9
5370,244,-13,55,-117,84,5
5375,243,-18,55,-140,90,2
5380,244,-18,47,-164,99,0
5385,245,-19,51,-185,106,-2
5390,247,-19,45,-205,120,-1
5395,250,-24,47,-221,135,-1
5400,255,-27,44,-234,153,-1
5405,256,-29,43,-242,170,-2
5410,255,-34,41,-247,183,-3
5415,258,-33,43,-245,186,-5
5420,255,-36,44,-237,184,-5
5425,256,-39,45,-223,177,-6
5430,260,-44,45,-204,164,-5
5435,258,-49,44,-181,152,-7
5440,257,-48,45,-158,139,-7
5445,254,-47,48,-132,129,-10
5450,253,-48,51,-115,121,-11
5455,251,-50,54,-99,117,-12
5460,248,-50,56,-85,118,-13
5465,250,-46,58,-70,122,-16
5470,246,-50,59,-54,129,-22
5475,244,-50,60,-41,137,-27
5480,242,-46,57,-25,140,-33
5485,237,-44,65,-10,144,-36
5490,242,-49,64,1,139,-39
5495,238,-46,65,7,135,-43
5500,240,-43,64,8,132,-43
5505,238,-44,66,4,130,-41
5510,245,-44,66,2,130,-36
5515,235,-41,68,-1,130,-35
5520,236,-42,64,-1,132,-32
5525,239,-39,65,-4,131,-34
5530,237,-39,64,-7,129,-34
5535,239,-37,62,-11,126,-36
5540,238,-37,60,-16,124,-35
5545,241,-36,65,-22,124,-36
5550,243,-38,63,-30,124,-36
5555,239,-38,61,-38,123,-37
5560,242,-38,61,-47,124,-34
5565,247,-40,64,-57,120,-34
5570,244,-43,61,-64,113,-34
5575,243,-38,61,-69,103,-36
5580,244,-41,59,-70,96,-36
5585,247,-40,57,-73,89,-37
5590,241,-41,55,-79,82,-38
5595,245,-41,54,-83,78,-36
5600,246,-38,52,-84,77,-34
5605,248,-40,51,-84,81,-33
5610,246,-38,50,-83,88,-32
5615,249,-37,51,-83,99,-33
5620,249,-38,53,-81,110,-31
5625,251,-43,45,-76,119,-29
5630,249,-37,45,-69,133,-28
5635,250,-40,51,-60,142,-28
5640,250,-39,48,-49,151,-27
5645,252,-38,50,-41,156,-25
5650,253,-40,46,-33,162,-27
5655,249,-33,50,-29,168,-26
5660,251,-37,47,-27,169,-23
5665,251,-37,47,-25,171,-21
5670,252,-37,48,-24,172,-18
5675,249,-38,51,-23,173,-16
5680,243,-41,47,-22,173,-15
5685,247,-38,47,-21,173,-17
5690,246,-39,53,-18,176,-19
5695,249,-40,52,-15,177,-21
5700,248,-38,51,-8,181,-23
5705,249,-42,51,2,189,-23
5710,250,-39,53,10,198,-25
5715,248,-38,55,19,207,-25
5720,251,-37,53,24,216,-25
5725,251,-36,56,28,225,-24
5730,250,-36,54,29,232,-23
5735,251,-36,59,26,237,-21
5740,251,-33,53,22,240,-17
5745,252,-33,53,16,242,-14
5750,251,-35,53,10,243,-11
5755,253,-36,56,5,245,-7
5760,251,-39,52,5,249,-2
5765,254,-38,55,7,255,2
5770,251,-37,56,11,261,5
5775,249,-36,57,17,263,6
5780,250,-41,59,23,266,8
5785,249,-40,58,30,268,9
5790,249,-36,61,40,270,12
5795,247,-38,62,51,270,13
5800,248,-38,63,61,271,14
5805,246,-37,62,71,274,16
5810,248,-40,64,80,277,17
5815,244,-39,62,88,284,19
5820,244,-36,63,92,289,22
5825,243,-34,62,93,296,24
5830,243,-36,61,95,301,26
5835,242,-36,64,93,307,28
5840,241,-31,65,90,314,28
5845,243,-32,64,84,320,29
5850,239,-37,67,75,325,31
5855,241,-35,73,68,333,31
5860,240,-35,69,63,342,33
5865,240,-35,73,60,350,33
5870,241,-35,72,60,357,33
5875,242,-34,77,59,363,32
5880,239,-33,72,58,365,33
5885,238,-33,74,55,364,33
5890,242,-34,75,52,362,34
5895,241,-38,78,51,358,35
5900,239,-34,79,50,352,36
5905,242,-34,76,46,345,38
5910,236,-34,78,40,336,40
5915,239,-33,78,33,325,40
5920,240,-38,79,24,314,43
5925,237,-34,76,17,299,44
5930,239,-34,76,9,284,46
5935,242,-37,80,0,270,45
5940,239,-40,83,-6,259,45
5945,241,-38,83,-11,245,46
5950,242,-39,82,-12,235,46
5955,239,-39,80,-13,227,47
5960,238,-39,82,-13,219,46
5965,237,-37,78,-14,214,46
5970,237,-34,79,-15,210,45
5975,238,-35,80,-20,205,42
5980,236,-35,79,-25,203,41
5985,235,-37,76,-31,203,42
5990,238,-35,82,-34,205,43
5995,236,-36,79,-38,211,43
6000,234,-34,78,-42,219,44
6005,244,-28,80,-49,222,46
6010,235,-37,76,-57,226,45
6015,235,-32,80,-66,229,46
6020,235,-34,79,-72,232,46
6025,236,-37,81,-78,236,47
6030,239,-37,77,-79,241,50
6035,239,-38,78,-78,248,51
6040,240,-35,77,-75,255,53
6045,241,-42,84,-71,259,54
6050,241,-39,80,-66,262,54
6055,236,-32,81,-60,264,55
6060,238,-39,84,-55,259,54
6065,241,-41,83,-51,250,53
6070,236,-40,83,-49,241,53
6075,237,-39,85,-48,225,50
6080,236,-39,89,-50,210,50
6085,237,-37,83,-54,198,48
6090,237,-39,85,-60,187,48
6095,243,-44,84,-63,180,44
6100,238,-43,84,-65,175,41
6105,239,-44,85,-67,171,38
6110,237,-43,85,-68,168,34
6115,236,-46,77,-68,161,30
6120,236,-46,86,-67,155,25
6125,231,-44,89,-63,152,20
6130,232,-43,87,-58,151,15
6135,232,-40,86,-57,149,13
6140,231,-42,87,-59,148,8
6145,232,-42,84,-63,151,5
6150,234,-40,87,-68,158,4
6155,234,-39,85,-76,164,2
6160,233,-36,86,-82,169,-1
6165,235,-36,85,-89,172,-5
6170,235,-42,88,-92,171,-7
6175,235,-41,89,-96,168,-9
6180,237,-42,86,-98,169,-11
6185,239,-41,90,-98,165,-10
6190,235,-39,86,-98,156,-12
6195,236,-42,89,-99,147,-13
6200,234,-42,89,-100,140,-14
6205,235,-42,88,-100,133,-13
6210,234,-41,85,-99,126,-13
6215,233,-40,87,-98,119,-12
6220,233,-45,84,-93,112,-12
6225,235,-44,88,-87,109,-11
6230,236,-44,89,-76,105,-12
6235,232,-39,90,-71,104,-11
6240,232,-38,85,-65,105,-11
6245,233,-40,91,-63,105,-11
6250,232,-36,83,-62,106,-11
6255,234,-37,85,-68,108,-11
6260,232,-39,89,-74,111,-8
6265,233,-39,88,-81,115,-5
6270,236,-39,82,-89,120,-3
6275,236,-39,86,-99,122,-1
6280,234,-39,89,-107,125,-1
6285,236,-38,86,-113,129,1
6290,235,-41,84,-118,129,3
6295,238,-45,87,-122,128,4
6300,239,-45,88,-122,123,2
6305,236,-43,88,-119,117,3
6310,238,-43,88,-111,111,4
6315,235,-42,86,-101,103,3
6320,234,-43,85,-91,95,4
6325,235,-47,87,-85,88,3
6330,236,-41,86,-79,81,2
6335,227,-40,88,-73,76,3
6340,233,-41,86,-68,70,2
6345,233,-44,87,-62,67,2
6350,233,-43,85,-56,69,2
6355,235,-44,86,-52,70,0
6360,232,-41,86,-47,72,1
6365,233,-40,87,-43,76,-2
6370,233,-41,87,-41,81,0
6375,234,-42,85,-41,85,0
6380,231,-39,85,-42,89,1
6385,235,-41,85,-43,91,3
6390,235,-41,87,-46,94,7
6395,236,-41,87,-48,98,10
6400,233,-38,83,-50,103,13
6405,233,-42,87,-53,104,16
6410,233,-40,88,-53,106,18
6415,237,-38,87,-55,103,19
6420,235,-40,89,-55,97,18
6425,238,-39,91,-57,89,16
6430,236,-35,88,-63,80,15
6435,236,-40,88,-72,70,13
6440,236,-40,86,-84,62,11
6445,235,-42,83,-96,55,8
6450,236,-41,84,-106,49,7
6455,236,-41,85,-113,45,6
6460,239,-45,84,-116,44,6
6465,235,-43,83,-115,45,7
6470,238,-46,81,-113,46,8
6475,235,-46,82,-108,45,10
6480,235,-46,80,-99,45,11
6485,236,-48,83,-87,48,12
6490,233,-45,87,-74,51,11
6495,232,-44,88,-61,54,12
6500,234,-44,88,-48,56,11
6505,231,-44,90,-39,62,11
6510,233,-44,85,-35,67,10
6515,234,-43,86,-35,72,9
6520,235,-47,91,-36,74,6
6525,237,-47,91,-39,75,5
6530,233,-46,89,-42,72,5
6535,235,-49,86,-42,70,3
6540,238,-50,87,-41,65,2
6545,233,-45,90,-39,59,1
6550,241,-46,82,-35,53,0
6555,236,-44,85,-31,48,0
6560,236,-45,83,-30,42,1
6565,231,-42,87,-28,37,0
6570,231,-44,80,-29,33,-1
6575,234,-47,81,-28,30,-1
6580,232,-46,85,-28,30,0
6585,238,-50,84,-27,33,1
6590,233,-43,83,-24,40,3
6595,233,-46,80,-22,46,3
6600,232,-37,83,-20,54,2
6605,231,-43,84,-19,60,2
6610,234,-44,87,-19,65,3
6615,233,-41,84,-18,67,3
6620,233,-42,83,-16,69,3
6625,233,-45,82,-14,70,4
6630,235,-42,84,-12,71,6
6635,230,-45,86,-8,73,9
6640,235,-46,81,-6,73,10
6645,232,-46,82,-2,74,14
6650,235,-45,84,1,73,17
6655,232,-46,86,4,73,17
6660,235,-47,89,8,74,18
6665,234,-49,82,16,74,21
6670,233,-49,84,25,75,22
6675,234,-47,88,34,77,22
6680,234,-49,87,42,81,23
6685,235,-47,86,50,87,24
6690,238,-45,83,57,92,24
6695,232,-46,82,63,95,25
6700,234,-47,81,69,97,26
6705,234,-45,88,74,98,27
6710,238,-44,84,75,100,29
6715,238,-43,80,76,102,30
6720,237,-43,83,77,108,31
6725,238,-44,82,80,113,33
6730,240,-44,81,80,116,32
6735,237,-42,83,77,114,29
6740,233,-42,84,71,110,28
6745,237,-42,79,62,105,28
6750,237,-46,81,53,104,29
6755,237,-48,83,46,110,31
6760,234,-44,84,44,116,32
6765,232,-47,85,47,122,34
6770,235,-49,85,51,126,34
6775,236,-48,87,59,130,33
6780,233,-52,86,69,133,33
6785,233,-49,87,82,138,31
6790,233,-49,87,93,142,30
6795,234,-48,85,103,145,29
6800,235,-45,86,111,150,30
6805,235,-45,80,118,155,28
6810,238,-46,84,122,160,30
6815,237,-43,85,124,163,32
6820,234,-41,84,125,168,35
6825,236,-42,83,123,168,36
6830,238,-44,84,120,168,37
6835,239,-41,85,116,170,38
6840,239,-42,85,113,169,41
6845,236,-45,87,110,168,40
6850,233,-45,87,106,167,41
6855,234,-44,86,107,166,41
6860,232,-45,88,107,165,42
6865,236,-49,86,110,166,42
6870,233,-47,86,114,168,42
6875,235,-48,87,122,170,42
6880,231,-48,86,130,175,43
6885,233,-47,87,137,179,43
6890,235,-46,86,143,180,42
6895,232,-46,88,152,183,42
6900,230,-45,88,159,185,44
6905,231,-43,90,164,190,45
6910,234,-47,94,167,192,46
6915,230,-41,92,167,194,47
6920,234,-41,93,165,195,48
6925,231,-43,96,161,196,49
6930,234,-40,94,156,196,50
6935,232,-39,92,149,195,50
6940,232,-42,93,144,195,50
6945,233,-42,97,140,196,51
6950,233,-39,95,136,194,52
6955,234,-43,95,134,194,52
6960,230,-41,99,134,191,50
6965,231,-39,93,130,190,50
6970,232,-40,94,126,184,49
6975,232,-41,93,120,178,48
6980,234,-43,95,115,174,45
6985,232,-40,96,108,169,46
6990,230,-42,97,101,165,44
6995,232,-43,98,96,160,45
7000,231,-44,94,91,157,44
7005,230,-44,93,88,152,44
7010,231,-45,97,85,149,42
7015,230,-43,98,83,148,40
7020,229,-43,99,81,145,39
7025,227,-44,99,80,143,36
7030,227,-44,97,80,141,33
7035,228,-45,100,81,138,32
7040,229,-43,104,82,136,31
7045,227,-43,96,83,136,31
7050,232,-44,100,83,135,30
7055,228,-42,101,81,135,30
7060,227,-38,100,79,135,31
7065,230,-41,100,76,135,32
7070,229,-42,104,73,134,36
7075,228,-40,100,70,132,36
7080,229,-44,101,67,129,37
7085,228,-39,97,63,124,40
7090,227,-42,100,59,121,42
7095,225,-42,94,57,119,43
7100,226,-39,99,56,115,44
7105,230,-42,97,54,112,44
7110,229,-42,97,53,108,44
7115,228,-41,98,51,107,46
7120,231,-43,100,50,104,45
7125,233,-44,96,49,106,44
7130,229,-42,100,50,108,43
7135,235,-43,98,51,110,43
7140,235,-46,96,53,115,41
7145,231,-40,101,55,120,38
7150,232,-45,97,56,123,35
7155,229,-41,98,53,119,31
7160,229,-39,97,46,110,27
7165,230,-40,100,37,104,24
7170,231,-43,98,25,101,22
7175,227,-42,98,14,98,22
7180,229,-44,99,4,97,20
7185,230,-45,98,-3,97,20
7190,228,-42,101,-9,98,22
7195,228,-43,102,-13,98,20
7200,229,-47,100,-14,99,17
7205,228,-49,101,-14,99,18
7210,227,-46,103,-12,100,18
7215,231,-47,97,-9,99,19
7220,228,-45,97,-5,101,21
7225,229,-48,98,1,105,22
7230,229,-47,99,7,107,22
7235,229,-45,99,11,108,22
7240,229,-44,102,14,109,21
7245,230,-46,101,14,109,22
7250,227,-45,100,15,109,21
7255,229,-45,102,13,107,21
7260,227,-47,100,11,104,20
7265,227,-46,102,9,101,18
7270,227,-47,100,9,97,15
7275,226,-48,101,11,91,16
7280,228,-47,100,14,86,15
7285,227,-47,101,19,81,13
7290,227,-49,95,25,77,11
7295,228,-51,100,31,74,11
7300,228,-48,99,37,73,10
7305,228,-48,102,45,72,11
7310,224,-44,99,55,73,11
7315,230,-48,98,63,76,11
7320,227,-46,100,70,79,10
7325,226,-44,98,76,83,9
7330,226,-45,98,78,87,10
7335,226,-41,100,79,92,10
7340,224,-38,101,77,95,10
7345,225,-41,100,74,98,11
7350,226,-42,104,67,102,11
7355,228,-41,102,60,103,11
7360,229,-41,101,50,103,12
7365,227,-41,104,42,104,12
7370,228,-39,101,33,104,13
7375,227,-39,103,24,103,13
7380,228,-40,103,14,102,13
7385,230,-39,102,6,99,13
7390,228,-40,103,-2,97,15
7395,230,-41,98,-9,96,15
7400,229,-44,101,-15,95,16
7405,228,-45,98,-20,91,19
7410,231,-42,99,-24,90,20
7415,231,-46,99,-26,90,19
7420,229,-43,98,-27,89,19
7425,225,-42,97,-25,88,19
7430,229,-45,99,-23,89,19
7435,227,-48,99,-21,88,17
7440,229,-46,100,-17,89,18
7445,230,-44,97,-12,88,17
7450,229,-48,99,-5,91,16
7455,228,-47,101,1,92,13
7460,229,-47,101,9,94,12
7465,228,-46,101,15,93,10
7470,229,-44,101,22,94,11
7475,228,-44,100,27,96,10
7480,229,-44,102,31,99,10
7485,228,-46,101,33,98,9
7490,228,-42,100,35,99,8
7495,228,-41,102,35,99,10
7500,227,-40,101,32,100,9
7505,229,-39,103,28,100,11
7510,229,-40,100,24,101,11
7515,228,-40,100,19,103,10
7520,228,-37,104,15,106,11
7525,229,-40,103,7,107,13
7530,231,-41,101,2,107,15
7535,229,-43,103,-2,105,16
7540,226,-41,101,-6,102,17
7545,229,-41,98,-9,101,18
7550,229,-43,105,-11,99,19
7555,227,-44,104,-12,95,17
7560,227,-44,103,-14,92,18
7565,228,-47,104,-14,89,17
7570,228,-47,101,-14,86,17
7575,226,-45,100,-12,84,18
7580,225,-46,102,-10,82,16
7585,224,-43,104,-9,82,16
7590,230,-50,104,-7,81,16
7595,226,-44,101,-4,81,15
7600,230,-45,102,0,83,16
7605,225,-46,102,3,85,13
7610,225,-44,103,6,85,12
7615,229,-48,103,8,86,11
7620,225,-43,102,12,89,10
7625,228,-47,101,13,89,10
7630,225,-45,105,16,89,8
7635,226,-47,104,16,91,8
7640,228,-47,107,16,90,8
7645,228,-43,104,16,90,7
7650,228,-44,104,16,89,6
7655,227,-41,105,12,88,4
7660,226,-43,104,11,86,6
7665,228,-41,106,9,84,8
7670,226,-41,101,6,82,8
7675,224,-42,106,4,80,5
7680,225,-41,105,1,78,6
7685,228,-44,105,-3,78,7
7690,227,-42,104,-2,76,8
7695,228,-44,105,-5,75,8
7700,226,-45,102,-7,74,9
7705,231,-45,105,-8,74,9
7710,229,-46,106,-8,73,8
7715,228,-42,100,-9,74,9
7720,227,-43,101,-11,73,9
7725,227,-45,103,-12,73,10
7730,226,-44,103,-13,71,10
7735,226,-46,97,-13,73,9
7740,231,-47,104,-12,71,9
7745,227,-46,100,-11,71,8
7750,225,-43,104,-11,71,8
7755,228,-47,102,-8,70,7
7760,224,-46,105,-5,70,5
7765,229,-47,101,-3,69,5
7770,226,-46,101,-2,71,4
7775,228,-41,101,1,73,4
7780,227,-43,101,4,74,2
7785,227,-41,102,1,73,2
7790,225,-42,102,0,72,2
7795,226,-42,100,-3,72,1
7800,227,-42,103,-5,74,1
7805,229,-43,105,-7,75,0
7810,227,-42,101,-9,73,-1
7815,229,-45,103,-12,72,1
7820,228,-41,105,-13,70,2
7825,225,-46,103,-15,70,2
7830,226,-42,101,-17,69,3
7835,229,-46,104,-15,68,4
7840,228,-47,105,-15,67,6
7845,225,-45,102,-13,67,6
7850,226,-44,104,-10,66,5
7855,224,-46,104,-6,67,4
7860,223,-45,103,-2,68,4
7865,229,-43,104,2,69,4
7870,225,-43,102,3,68,4
7875,227,-44,103,3,69,5
7880,225,-45,102,2,70,5
7885,226,-44,103,1,71,5
7890,224,-44,101,-1,72,5
7895,228,-43,104,-1,73,5
7900,226,-44,102,-3,72,4
7905,227,-47,101,-4,74,3
7910,228,-42,100,-7,76,2
7915,224,-43,103,-9,79,2
7920,228,-43,103,-13,81,3
7925,228,-45,106,-15,82,3
7930,228,-43,106,-16,83,3
7935,228,-44,103,-17,83,2
7940,229,-44,100,-15,83,2
7945,228,-43,103,-16,82,3
7950,227,-43,103,-16,80,2
7955,227,-43,102,-16,75,1
7960,226,-46,100,-16,73,3
7965,225,-43,102,-16,73,4
7970,221,-47,106,-15,72,5
7975,227,-43,102,-14,75,3
7980,225,-44,107,-13,77,4
7985,226,-44,107,-13,77,6
7990,228,-43,103,-14,77,5
7995,231,-45,105,-16,78,4
8000,227,-45,103,-18,74,3
8005,225,-46,106,-14,71,2
8010,229,-48,106,-10,68,2
8015,229,-47,104,-4,66,3
8020,228,-44,103,3,67,3
8025,225,-44,103,11,68,3
8030,223,-42,101,16,69,3
8035,228,-46,102,20,70,3
8040,229,-46,103,23,72,4
8045,228,-48,101,26,75,5
8050,227,-43,103,29,75,4
8055,227,-45,101,27,80,3
8060,227,-44,104,27,82,5
8065,226,-43,101,26,82,6
8070,226,-43,104,24,84,6
8075,231,-42,105,20,86,6
8080,228,-42,103,18,87,5
8085,226,-40,103,15,88,6
8090,228,-45,104,11,87,4
8095,229,-44,102,7,87,3
8100,228,-43,103,3,87,3
8105,228,-43,107,2,86,2
8110,229,-45,103,-1,85,1
8115,228,-42,105,-2,85,-1
8120,228,-42,105,-4,85,-5
8125,228,-43,102,-8,88,-6
8130,226,-42,104,-14,89,-5
8135,229,-41,102,-18,87,-5
8140,227,-40,105,-22,84,-3
8145,229,-43,104,-27,79,0
8150,227,-43,104,-30,73,2
8155,227,-44,105,-33,70,4
8160,230,-45,103,-33,68,7
8165,226,-44,106,-31,69,10
8170,229,-47,100,-29,68,11
8175,228,-45,103,-28,69,14
8180,231,-44,100,-27,71,15
8185,234,-49,94,-26,73,17
8190,228,-47,103,-25,78,16
8195,229,-44,101,-25,85,17
8200,228,-41,104,-24,91,16
8205,228,-43,97,-25,95,15
8210,227,-39,100,-29,100,11
8215,228,-43,98,-33,104,9
8220,226,-41,100,-39,109,8
8225,229,-43,96,-46,117,9
8230,225,-41,102,-54,127,8
8235,228,-43,100,-59,134,6
8240,228,-42,103,-62,144,7
8245,227,-46,103,-64,152,7
8250,227,-44,106,-66,158,5
8255,228,-43,104,-67,165,5
8260,229,-44,103,-69,170,2
8265,230,-44,105,-72,171,-2
8270,225,-43,100,-77,174,-3
8275,228,-46,104,-83,175,-4
8280,225,-45,103,-87,171,-4
8285,228,-48,103,-91,168,-1
8290,227,-46,103,-90,166,1
8295,225,-47,99,-91,165,3
8300,226,-44,105,-90,165,8
8305,228,-48,102,-91,164,12
8310,227,-46,104,-88,165,17
8315,230,-47,98,-82,168,21
8320,229,-47,101,-73,172,26
8325,232,-48,100,-63,177,30
8330,231,-47,103,-55,181,32
8335,233,-44,105,-46,189,36
8340,229,-46,100,-41,191,38
8345,230,-44,99,-38,196,41
8350,232,-41,101,-38,200,45
8355,231,-40,102,-40,203,48
8360,230,-36,101,-44,205,50
8365,230,-40,103,-51,204,54
8370,229,-41,107,-59,202,58
8375,232,-39,106,-68,199,61
8380,228,-41,106,-78,197,62
8385,226,-38,106,-90,195,62
8390,228,-39,113,-102,191,63
8395,227,-41,113,-115,187,62
8400,216,-40,109,-127,184,60
8405,221,-40,115,-141,179,57
8410,219,-40,116,-157,170,54
8415,216,-42,118,-173,158,54
8420,215,-44,118,-192,148,53
8425,211,-45,120,-208,137,50
8430,214,-45,124,-224,122,48
8435,210,-46,127,-243,106,45
8440,209,-48,126,-268,84,41
8445,207,-44,126,-293,59,40
8450,213,-48,130,-319,34,45
8455,216,-52,130,-345,4,52
8460,223,-52,127,-369,-23,61
8465,224,-56,128,-390,-48,70
8470,226,-55,130,-405,-68,77
8475,223,-57,134,-416,-90,78
8480,221,-55,132,-422,-114,80
8485,224,-58,133,-431,-147,83
8490,221,-57,133,-447,-188,91
8495,223,-58,136,-468,-234,98
8500,226,-67,138,-492,-285,112
8505,226,-71,147,-506,-341,128
8510,230,-79,149,-505,-405,149
8515,233,-77,151,-483,-474,177
8520,231,-95,150,-443,-545,206
8525,241,-110,152,-384,-623,230
8530,239,-117,146,-297,-709,242
8535,241,-131,143,-179,-800,248
8540,241,-142,133,-25,-897,243
8545,243,-152,128,164,-990,223
8550,242,-154,116,385,-1067,187
8555,247,-160,110,635,-1113,146
8560,262,-158,96,906,-1114,92
8565,286,-155,91,1190,-1044,25
8570,305,-134,85,1453,-888,-57
8575,318,-115,82,1674,-649,-125
8580,311,-80,82,1820,-349,-193
8585,311,-56,80,1880,-44,-243
8590,313,-34,84,1849,240,-282
8595,307,-12,92,1749,489,-318
8600,301,-1,99,1596,710,-340
8605,287,7,106,1409,898,-342
8610,267,2,115,1209,1058,-324
8615,267,-10,127,1021,1159,-290
8620,260,-24,127,862,1200,-259
8625,252,-35,131,748,1220,-226
8630,240,-48,128,684,1228,-194
8635,234,-53,128,663,1222,-169
8640,244,-56,126,664,1207,-137
8645,253,-56,124,675,1196,-109
8650,254,-54,123,683,1213,-82
8655,251,-51,122,681,1263,-50
8660,243,-50,126,669,1313,-25
8665,240,-47,128,661,1359,-11
8670,237,-41,129,661,1406,-4
8675,232,-33,128,663,1465,7
8680,221,-29,133,658,1537,24
8685,213,-24,135,642,1609,43
8690,200,-26,142,619,1657,57
8695,189,-24,144,598,1688,67
8700,187,-27,147,579,1701,69
8705,176,-24,145,555,1704,77
8710,169,-26,142,537,1701,87
8715,163,-23,144,525,1681,96
8720,154,-21,144,523,1646,101
8725,150,-19,142,527,1601,103
8730,145,-15,138,530,1552,106
8735,135,-13,137,520,1514,109
8740,129,-14,135,502,1481,115
8745,124,-14,136,475,1443,130
8750,121,-15,134,457,1397,141
8755,124,-14,126,455,1353,150
8760,127,-11,130,460,1311,159
8765,125,-8,125,470,1277,167
8770,126,-5,127,463,1240,181
8775,126,-4,131,434,1201,202
8780,132,-3,123,409,1174,213
8785,136,-6,127,392,1154,224
8790,139,-5,123,372,1141,234
8795,140,-5,113,348,1133,244
8800,143,-6,114,323,1133,259
8805,140,-7,109,301,1147,277
8810,142,-12,116,262,1163,301
8815,144,-13,118,227,1171,323
8820,142,-15,117,209,1165,343
8825,145,-21,114,200,1146,360
8830,150,-22,121,193,1116,376
8835,143,-25,119,199,1080,384
8840,140,-27,120,208,1043,394
8845,139,-27,121,219,1001,401
8850,131,-28,119,230,953,409
8855,126,-29,119,242,901,418
8860,127,-29,121,249,845,424
8865,120,-31,121,254,785,429
8870,120,-33,124,262,733,431
8875,116,-31,131,280,686,426
8880,116,-34,131,299,641,423
8885,110,-28,134,315,595,419
8890,111,-19,135,324,542,415
8895,108,-17,131,328,482,411
8900,110,-6,128,322,412,405
8905,108,1,124,297,332,395
8910,109,8,118,254,249,389
8915,113,6,117,195,161,382
8920,118,8,112,133,78,369
8925,123,8,116,76,-7,355
8930,133,8,113,21,-89,345
8935,161,11,112,-53,-169,337
8940,187,16,112,-177,-235,330
8945,216,25,114,-341,-272,334
8950,230,15,126,-528,-283,343
8955,228,15,129,-718,-284,356
8960,233,9,139,-908,-297,372
8965,242,13,147,-1101,-324,379
8970,274,7,172,-1275,-350,366
8975,292,-4,185,-1421,-349,344
8980,323,-33,218,-1536,-284,337
8985,359,-50,247,-1632,-152,343
8990,368,-66,257,-1713,3,344
8995,382,-75,264,-1769,137,323
9000,383,-100,257,-1785,212,286
9005,355,-118,253,-1731,209,241
9010,329,-138,234,-1597,156,204
9015,293,-153,220,-1401,88,171
9020,249,-167,213,-1170,-3,135
9025,201,-170,202,-950,-138,99
9030,179,-174,179,-772,-304,65
9035,159,-163,167,-640,-471,30
9040,145,-162,156,-538,-599,-10
9045,145,-153,148,-446,-650,-57
9050,145,-147,137,-361,-605,-100
9055,148,-137,123,-267,-473,-119
9060,164,-113,118,-169,-280,-111
9065,176,-99,111,-89,-77,-92
9070,201,-75,126,-44,76,-76
9075,199,-70,132,-35,154,-71
9080,219,-49,142,-48,189,-85
9085,231,-31,141,-69,213,-105
9090,239,-12,125,-99,242,-113
9095,243,-2,118,-153,289,-105
9100,245,8,120,-206,339,-85
9105,243,5,120,-235,371,-63
9110,238,40,121,-243,392,-38
9115,232,18,138,-258,417,-10
9120,241,27,162,-291,439,25
9125,224,22,163,-336,451,63
9130,216,3,141,-388,466,99
9135,225,-8,154,-436,505,133
9140,231,-25,162,-470,577,167
9145,220,-38,133,-490,659,199
9150,203,-50,157,-499,723,224
9155,202,-58,166,-498,770,238
9160,190,-62,165,-481,810,243
9165,183,-68,168,-452,856,243
9170,175,-66,166,-436,907,239
9175,171,-63,170,-438,941,232
9180,177,-50,158,-452,956,224
9185,168,-61,169,-470,958,220
9190,156,-59,165,-483,950,217
9195,163,-55,154,-488,921,212
9200,157,-40,156,-476,896,209
9205,164,-61,169,-463,895,212
9210,155,-50,154,-454,914,219
9215,155,-52,164,-457,933,226
9220,152,-45,182,-466,944,231
9225,153,-47,163,-482,958,233
9230,151,-59,174,-494,983,239
9235,138,-67,177,-502,1015,242
9240,129,-75,187,-509,1042,243
9245,122,-84,206,-510,1051,247
9250,110,-88,200,-502,1039,251
9255,104,-89,205,-490,1016,256
9260,105,-88,198,-488,994,261
9265,102,-83,194,-494,986,260
9270,94,-85,196,-502,995,249
9275,100,-91,201,-500,1008,233
9280,103,-101,200,-481,1012,216
9285,112,-100,191,-447,1018,215
9290,128,-94,198,-410,1020,223
9295,129,-88,193,-393,1022,229
9300,140,-76,180,-396,1011,225
9305,141,-95,175,-412,986,215
9310,142,-93,177,-426,966,200
9315,137,-95,177,-431,953,183
9320,135,-94,180,-436,956,172
9325,137,-102,184,-446,977,162
9330,130,-101,188,-454,1002,158
9335,125,-104,191,-454,1030,162
9340,117,-118,187,-437,1064,168
9345,107,-122,194,-413,1101,164
9350,102,-121,196,-380,1134,155
9355,99,-135,206,-348,1157,139
9360,101,-131,200,-320,1169,106
9365,97,-140,198,-299,1171,78
9370,104,-135,202,-282,1165,47
9375,112,-131,195,-265,1144,17
9380,111,-144,202,-243,1109,-10
9385,111,-131,193,-221,1058,-42
9390,108,-130,190,-205,994,-79
9395,112,-128,188,-197,925,-113
9400,104,-125,194,-196,877,-135
9405,96,-123,184,-194,854,-164
9410,80,-119,189,-184,849,-187
9415,74,-126,182,-175,856,-193
9420,64,-124,183,-166,862,-194
9425,60,-141,183,-152,861,-182
9430,63,-137,186,-126,871,-164
9435,61,-140,192,-76,899,-154
9440,61,-136,191,-27,921,-144
9445,62,-131,199,16,924,-126
9450,60,-138,202,50,900,-105
9455,61,-126,206,67,857,-82
9460,60,-128,209,77,796,-60
9465,58,-126,210,94,726,-36
9470,62,-126,212,112,653,-18
9475,47,-117,215,125,589,-3
9480,59,-122,201,130,533,9
9485,63,-121,197,133,492,24
9490,63,-118,196,134,462,34
9495,68,-119,191,144,440,61
9500,75,-118,189,161,434,87
9505,82,-112,188,188,429,106
9510,84,-106,189,218,431,126
9515,88,-102,200,242,429,147
9520,87,-98,211,256,427,161
9525,88,-109,211,277,419,173
9530,91,-110,206,295,414,181
9535,90,-111,202,313,419,184
9540,84,-115,201,331,427,181
9545,83,-116,220,353,430,183
9550,79,-112,199,380,440,190
9555,74,-108,201,403,457,197
9560,70,-104,202,418,471,200
9565,73,-101,214,419,479,202
9570,70,-97,227,414,485,208
9575,72,-100,228,401,482,212
9580,70,-102,231,393,465,214
9585,72,-100,230,391,437,217
9590,71,-105,223,398,401,224
9595,67,-103,211,408,365,225
9600,60,-104,204,416,334,225
9605,68,-97,200,425,315,219
9610,71,-93,203,437,311,220
9615,73,-91,207,444,319,222
9620,73,-81,210,449,323,233
9625,77,-79,216,445,325,248
9630,73,-69,218,436,320,258
9635,77,-63,218,412,319,268
9640,76,-59,226,377,327,277
9645,73,-58,229,341,338,282
9650,69,-54,234,307,339,285
9655,67,-56,235,275,323,293
9660,65,-60,237,241,288,307
9665,68,-65,239,213,237,323
9670,70,-74,238,192,180,331
9675,71,-81,231,170,125,326
9680,75,-88,224,153,88,313
9685,74,-94,219,138,84,291
9690,70,-93,220,126,100,263
9695,69,-90,212,111,134,235
9700,70,-91,208,94,185,217
9705,66,-88,212,78,247,204
9710,65,-89,214,69,311,201
9715,64,-83,219,64,360,205
9720,61,-82,221,62,387,213
9725,60,-77,234,56,392,221
9730,54,-75,235,41,365,228
9735,50,-71,237,21,316,235
9740,47,-67,233,-6,251,237
9745,43,-66,229,-37,186,231
9750,40,-63,229,-68,128,224
9755,37,-61,230,-92,87,211
9760,37,-61,226,-110,65,198
9765,29,-59,228,-126,60,184
9770,31,-59,229,-140,65,171
9775,26,-63,228,-153,72,155
9780,31,-67,227,-166,80,139
9785,29,-69,230,-173,86,125
9790,31,-76,231,-175,94,112
9795,34,-79,234,-168,106,98
9800,35,-85,236,-159,120,87
9805,38,-87,235,-143,131,76
9810,36,-89,226,-127,136,65
9815,40,-90,223,-107,133,54
9820,42,-89,211,-87,128,46
9825,47,-93,219,-64,117,39
9830,47,-92,218,-40,102,31
9835,49,-90,217,-15,90,23
9840,50,-89,220,8,83,17
9845,51,-86,218,23,84,11
9850,51,-78,226,30,93,10
9855,55,-76,226,35,108,8
9860,53,-73,232,39,124,9
9865,53,-66,233,37,138,13
9870,57,-56,234,22,139,18
9875,54,-60,235,-10,125,21
9880,56,-59,235,-54,93,26
9885,58,-58,233,-95,52,30
9890,59,-59,234,-127,14,31
9895,61,-61,230,-154,-13,33
9900,61,-62,231,-181,-31,33
9905,61,-63,230,-208,-42,30
9910,65,-64,231,-233,-49,26
9915,68,-71,230,-258,-48,23
9920,67,-75,226,-277,-44,17
9925,71,-83,225,-291,-35,11
9930,70,-86,217,-298,-27,2
9935,69,-89,217,-294,-22,-9
9940,68,-95,209,-280,-17,-19
9945,67,-99,207,-258,-5,-27
9950,69,-102,200,-231,9,-34
9955,68,-102,196,-204,22,-41
9960,73,-106,201,-177,25,-48
9965,71,-102,202,-160,17,-56
9970,70,-98,210,-151,2,-66
9975,70,-99,216,-153,-19,-71
9980,71,-98,220,-157,-45,-82
9985,68,-96,222,-162,-75,-95
9990,68,-96,231,-165,-101,-107
9995,73,-95,229,-165,-125,-121
10000,75,-92,223,-168,-142,-133
10005,77,-87,225,-180,-149,-146
10010,83,-88,223,-195,-144,-154
10015,82,-84,217,-208,-126,-164
10020,85,-90,219,-215,-100,-170
10025,88,-90,219,-218,-71,-174
10030,90,-94,222,-217,-47,-179
10035,93,-84,215,-214,-28,-184
10040,86,-87,220,-219,-15,-192
10045,82,-81,219,-235,-8,-199
10050,78,-80,221,-263,7,-206
10055,77,-81,219,-297,29,-211
10060,79,-81,222,-332,54,-214
10065,73,-81,225,-364,83,-216
10070,67,-83,230,-389,114,-214
10075,61,-81,229,-410,150,-206
10080,55,-81,222,-434,183,-194
10085,54,-86,222,-460,220,-175
10090,51,-85,225,-486,259,-150
10095,56,-92,227,-510,301,-120
10100,57,-94,222,-527,342,-88
10105,54,-103,218,-538,379,-56
10110,57,-107,217,-540,405,-27
10115,59,-112,215,-531,417,-2
10120,60,-113,212,-515,414,17
10125,63,-118,211,-490,404,29
10130,62,-119,212,-461,387,42
10135,57,-115,212,-426,367,48
10140,62,-120,209,-387,351,51
10145,62,-118,217,-354,341,50
10150,64,-123,201,-324,338,42
10155,67,-120,204,-300,345,29
10160,70,-119,207,-281,360,16
10165,73,-117,205,-264,381,2
10170,77,-121,206,-248,404,-13
10175,74,-122,203,-232,431,-30
10180,74,-118,203,-221,457,-48
10185,70,-116,204,-211,474,-67
10190,69,-116,196,-200,482,-87
10195,65,-115,197,-187,485,-101
10200,63,-112,191,-174,482,-115
10205,60,-114,191,-166,470,-130
10210,61,-116,191,-155,456,-142
10215,60,-117,190,-133,445,-153
10220,55,-116,195,-104,435,-161
10225,52,-116,192,-73,426,-165
10230,49,-120,189,-50,415,-169
10235,48,-120,193,-37,401,-170
10240,46,-121,201,-34,387,-170
10245,44,-125,199,-35,377,-165
10250,46,-130,200,-29,369,-158
10255,44,-134,202,-16,363,-150
10260,45,-138,207,6,352,-138
10265,44,-141,206,42,337,-126
10270,46,-142,207,88,321,-120
10275,49,-141,205,138,304,-118
10280,49,-139,204,190,292,-114
10285,55,-138,204,239,276,-114
10290,55,-133,203,282,258,-113
10295,56,-129,204,317,240,-110
10300,55,-124,206,345,219,-106
10305,59,-120,206,368,203,-103
10310,61,-119,210,386,190,-102
10315,61,-117,209,394,174,-103
10320,59,-113,206,390,155,-106
10325,62,-109,208,376,133,-108
10330,54,-107,209,354,107,-112
10335,56,-107,210,323,85,-113
10340,53,-111,208,294,66,-114
10345,52,-111,207,264,51,-114
10350,55,-113,210,240,45,-114
10355,55,-116,211,227,43,-114
10360,54,-116,209,220,47,-115
10365,57,-118,215,221,56,-115
10370,54,-120,212,225,67,-118
10375,56,-123,208,227,78,-122
10380,54,-123,214,231,92,-124
10385,54,-125,207,245,99,-118
10390,54,-125,208,272,104,-111
10395,53,-122,209,302,113,-103
10400,52,-120,216,333,134,-91
10405,57,-114,214,352,169,-75
10410,58,-107,226,352,217,-52
10415,59,-97,229,338,260,-29
10420,53,-87,226,322,282,-8
10425,50,-84,227,317,277,9
10430,51,-75,232,328,245,20
10435,52,-62,230,349,208,22
10440,60,-55,223,379,179,22
10445,61,-48,220,398,162,23
10450,58,-45,217,384,157,32
10455,55,-47,218,334,148,43
10460,54,-54,218,260,128,55
10465,52,-59,217,184,101,70
10470,49,-71,220,122,73,87
10475,51,-81,224,78,48,106
10480,52,-95,225,56,28,126
10485,52,-107,227,63,21,145
10490,53,-114,229,98,20,164
10495,54,-120,229,157,28,181
10500,56,-122,229,238,47,191
10505,55,-123,223,338,77,200
10510,52,-120,220,439,114,207
10515,51,-116,216,531,155,212
10520,46,-107,215,605,184,218
10525,45,-104,215,659,207,220
10530,43,-96,207,704,221,218
10535,50,-90,214,737,230,215
10540,55,-85,214,758,244,210
10545,62,-84,215,777,268,203
10550,66,-78,219,795,301,188
10555,71,-76,220,808,335,171
10560,73,-76,226,817,370,146
10565,68,-73,229,824,395,115
10570,64,-69,231,822,405,93
10575,64,-71,236,807,399,71
10580,61,-70,232,788,380,42
10585,52,-63,230,763,356,20
10590,49,-61,232,721,322,8
10595,41,-61,236,676,285,2
10600,39,-67,237,623,248,5
10605,35,-73,243,568,210,11
10610,37,-80,250,515,174,18
10615,38,-85,261,461,143,22
10620,38,-94,269,413,120,19
10625,38,-100,280,386,110,14
10630,36,-101,285,375,111,12
10635,35,-104,287,387,120,15
10640,32,-100,291,415,135,22
10645,27,-99,291,444,141,33
10650,28,-98,291,472,129,53
10655,29,-94,292,495,102,79
10660,32,-91,294,508,62,116
10665,32,-83,292,510,11,159
10670,37,-79,288,503,-52,207
10675,38,-77,282,495,-120,252
10680,39,-75,277,488,-187,287
10685,37,-78,270,489,-252,313
10690,39,-73,264,506,-314,327
10695,45,-79,258,539,-363,324
10700,47,-79,249,584,-385,306
10705,52,-81,242,633,-379,282
10710,55,-73,238,672,-344,247
10715,57,-71,232,694,-282,208
10720,55,-64,235,694,-200,169
10725,49,-63,237,683,-100,136
10730,44,-62,240,670,5,107
10735,36,-61,246,662,107,84
10740,34,-65,248,666,204,71
10745,29,-66,254,692,293,63
10750,24,-67,254,735,373,63
10755,26,-65,260,796,441,68
10760,26,-56,262,863,498,71
10765,34,-53,258,926,541,74
10770,40,-41,256,976,579,76
10775,42,-28,253,1007,608,73
10780,43,-19,245,1018,629,70
10785,43,-5,236,1004,637,69
10790,46,8,227,963,633,75
10795,51,16,216,898,627,86
10800,53,17,206,805,621,104
10805,47,24,193,685,613,124
10810,43,21,186,548,603,145
10815,34,25,178,411,588,168
10820,31,25,172,282,566,192
10825,26,24,165,165,548,215
10830,29,21,160,63,537,239
10835,27,21,149,-24,534,260
10840,19,21,148,-98,533,279
10845,18,21,149,-161,533,295
10850,16,20,142,-214,536,306
10855,13,21,141,-258,542,316
10860,13,22,140,-295,549,324
10865,12,16,146,-325,554,329
10870,13,13,146,-344,559,331
10875,8,12,149,-350,563,328
10880,8,7,157,-342,565,321
10885,6,1,160,-324,567,311
10890,5,-5,169,-302,564,298
10895,5,-9,172,-275,556,278
10900,0,-11,176,-245,540,257
10905,-8,-11,179,-216,515,235
10910,-10,-14,182,-189,480,211
10915,-17,-10,187,-167,435,187
10920,-23,-11,192,-155,381,165
10925,-26,-10,195,-153,316,142
10930,-29,-11,194,-165,244,122
10935,-29,-5,193,-186,165,102
10940,-24,-7,197,-220,84,84
10945,-11,-9,203,-269,5,67
10950,6,-12,205,-331,-62,54
10955,11,-16,218,-403,-105,44
10960,9,-26,222,-473,-128,38
10965,15,-34,223,-528,-144,37
10970,26,-47,230,-564,-164,38
10975,36,-53,240,-581,-181,42
10980,53,-71,261,-574,-189,50
10985,66,-89,286,-542,-184,57
10990,89,-108,328,-485,-164,62
10995,100,-125,363,-396,-116,56
11000,99,-142,395,-269,-40,36
11005,90,-153,417,-102,53,-9
11010,78,-152,431,97,139,-80
11015,61,-139,425,307,191,-175
11020,44,-120,412,507,200,-271
11025,30,-102,389,665,162,-351
11030,29,-79,352,756,91,-399
11035,28,-58,312,747,11,-410
11040,33,-40,272,633,-58,-393
11045,35,-21,231,416,-99,-355
11050,40,-8,202,121,-107,-309
11055,41,-2,182,-200,-89,-269
11060,43,-4,176,-497,-54,-231
11065,48,-11,175,-731,-17,-194
11070,58,-21,180,-887,21,-158
11075,64,-32,186,-968,60,-123
11080,65,-41,195,-990,98,-92
11085,62,-49,202,-965,122,-68
11090,48,-50,212,-912,129,-51
11095,35,-54,216,-849,110,-37
11100,22,-57,222,-778,73,-25
11105,14,-57,233,-698,27,-16
11110,6,-59,238,-604,-9,-5
11115,1,-58,244,-487,-35,2
11120,0,-57,245,-350,-52,6
11125,-1,-50,251,-210,-59,5
11130,4,-50,250,-75,-55,8
11135,11,-47,248,39,-41,13
11140,19,-42,257,130,-13,25
11145,37,-35,254,189,29,36
11150,42,-32,260,216,76,46
11155,55,-32,255,207,127,57
11160,63,-29,257,165,172,65
11165,65,-26,255,102,205,68
11170,70,-25,253,23,222,74
11175,72,-30,244,-68,231,77
11180,75,-29,245,-167,233,85
11185,74,-34,239,-267,232,95
11190,75,-43,236,-358,223,106
11195,73,-57,232,-437,209,117
11200,71,-67,235,-495,193,129
11205,67,-78,234,-522,182,135
11210,62,-89,234,-513,180,138
11215,54,-91,241,-475,176,135
11220,46,-86,237,-419,169,130
11225,42,-87,239,-359,166,120
11230,37,-80,240,-298,165,113
11235,32,-74,235,-244,167,105
11240,34,-64,237,-200,175,98
11245,29,-55,241,-163,189,91
11250,28,-50,241,-132,208,85
11255,29,-45,239,-107,232,77
11260,25,-40,237,-88,258,72
11265,27,-36,237,-76,284,68
11270,24,-29,238,-69,311,65
11275,19,-27,240,-69,332,60
11280,22,-27,235,-75,346,59
11285,18,-26,239,-90,357,58
11290,20,-27,237,-104,360,58
11295,16,-26,243,-120,360,60
11300,18,-36,240,-140,356,63
11305,17,-39,238,-159,348,63
11310,16,-45,235,-173,338,65
11315,17,-52,242,-190,325,63
11320,18,-57,235,-200,314,59
11325,16,-62,235,-203,302,57
11330,15,-64,237,-200,288,51
11335,10,-70,238,-191,277,44
11340,15,-68,234,-168,266,41
11345,21,-74,236,-141,256,37
11350,19,-73,236,-123,257,31
11355,20,-69,233,-112,264,21
11360,22,-73,236,-105,273,13
11365,20,-70,237,-108,283,5
11370,19,-69,236,-110,293,-3
11375,19,-70,233,-110,300,-9
11380,16,-69,239,-115,309,-14
11385,12,-70,233,-121,314,-22
11390,9,-68,238,-130,320,-24
11395,6,-69,239,-139,327,-24
11400,7,-70,237,-147,335,-23
11405,6,-64,236,-159,341,-20
11410,5,-65,236,-171,348,-16
11415,1,-59,239,-182,353,-14
11420,-5,-64,238,-202,353,-10
11425,-8,-64,241,-224,348,-7
11430,-8,-66,239,-243,338,-2
11435,-11,-69,238,-265,322,3
11440,-14,-69,239,-284,305,8
11445,-18,-74,238,-300,285,16
11450,-29,-85,236,-312,267,21
11455,-23,-79,234,-320,248,28
11460,-23,-85,231,-318,225,35
11465,-27,-90,233,-313,201,39
11470,-25,-95,231,-297,176,43
11475,-26,-98,231,-275,152,43
11480,-25,-97,230,-252,128,43
11485,-23,-101,228,-226,107,45
11490,-18,-100,226,-196,97,46
11495,-17,-99,223,-166,97,46
11500,-12,-101,224,-138,105,45
11505,-11,-96,225,-114,117,40
11510,-7,-92,223,-102,131,35
11515,-6,-90,222,-102,147,28
11520,-5,-83,223,-113,162,23
11525,0,-81,220,-129,172,17
11530,0,-79,223,-149,180,13
11535,-4,-77,229,-171,185,12
11540,-2,-76,227,-190,186,12
11545,-2,-78,226,-205,182,10
11550,-6,-71,226,-215,178,8
11555,-4,-74,228,-226,169,6
11560,-11,-71,226,-236,161,5
11565,-7,-73,231,-243,152,6
11570,-11,-72,228,-248,141,4
11575,-7,-74,232,-256,129,2
11580,-9,-73,229,-260,122,-2
11585,-10,-71,237,-260,116,-6
11590,-5,-73,234,-248,102,-5
11595,-10,-72,233,-231,95,-8
11600,-10,-70,232,-211,91,-9
11605,-9,-67,233,-192,89,-9
11610,-9,-67,234,-171,89,-8
11615,-11,-65,236,-150,90,-6
11620,-11,-65,236,-132,90,-5
11625,-14,-63,233,-119,93,0
11630,-12,-61,240,-110,93,4
11635,-13,-65,238,-105,92,11
11640,-17,-62,236,-103,86,18
11645,-15,-62,238,-106,75,25
11650,-15,-66,240,-110,59,32
11655,-20,-66,236,-113,38,41
11660,-19,-70,239,-111,16,47
11665,-17,-70,234,-100,-9,53
11670,-21,-74,239,-81,-32,60
11675,-16,-73,234,-57,-54,66
11680,-19,-72,233,-28,-71,75
11685,-15,-73,235,2,-82,85
11690,-14,-71,235,30,-89,95
11695,-15,-69,237,51,-94,99
11700,-12,-66,232,61,-98,104
11705,-11,-67,234,59,-104,108
11710,-9,-69,240,49,-116,111
11715,-10,-73,238,32,-133,113
11720,-12,-71,242,13,-152,114
11725,-11,-76,238,-3,-173,116
11730,-13,-72,235,-17,-193,116
11735,-10,-77,231,-25,-211,115
11740,-11,-81,229,-28,-232,114
11745,-10,-85,225,-22,-250,117
11750,-5,-90,229,-8,-262,117
11755,1,-90,229,15,-267,119
11760,0,-91,228,41,-262,116
11765,2,-90,221,62,-249,114
11770,6,-88,215,75,-235,109
11775,7,-88,216,77,-221,101
11780,7,-89,212,73,-210,95
11785,1,-87,209,71,-206,90
11790,2,-90,212,70,-208,86
11795,-1,-88,211,79,-213,83
11800,0,-92,213,97,-224,79
11805,-3,-86,211,119,-238,74
11810,0,-89,213,150,-252,74
11815,0,-88,212,185,-264,72
11820,0,-86,215,220,-274,68
11825,-2,-82,213,248,-281,65
11830,0,-81,219,271,-284,65
11835,0,-76,221,286,-289,61
11840,-1,-79,221,289,-291,58
11845,0,-72,225,279,-292,54
11850,0,-71,229,260,-296,52
11855,0,-69,228,234,-301,47
11860,3,-73,233,205,-309,45
11865,1,-74,233,171,-322,44
11870,1,-72,238,141,-335,42
11875,4,-75,238,116,-349,41
11880,8,-81,238,99,-359,42
11885,9,-80,237,89,-365,41
11890,16,-94,237,84,-365,43
11895,15,-82,238,82,-361,43
11900,20,-87,240,80,-345,45
11905,25,-84,241,82,-323,46
11910,27,-84,239,86,-298,48
11915,28,-87,237,93,-271,49
11920,31,-88,235,100,-244,49
11925,36,-87,233,102,-219,48
11930,40,-82,237,98,-196,45
11935,38,-78,231,88,-177,39
11940,41,-80,234,65,-157,32
11945,40,-77,236,38,-139,26
11950,42,-74,234,5,-124,18
11955,41,-74,236,-27,-110,10
11960,44,-76,236,-64,-98,3
11965,46,-74,241,-94,-88,-5
11970,49,-77,245,-115,-80,-9
11975,51,-71,239,-124,-72,-14
11980,49,-74,243,-124,-65,-17
11985,51,-70,242,-118,-59,-20
11990,54,-71,238,-104,-52,-24
11995,54,-72,248,-86,-42,-27
