timestamp,acc_x,acc_y,acc_z,gyro_x,gyro_y,gyro_z
0,-2,-49,239,115,90,4
5,0,-52,243,113,93,4
10,-2,-49,241,112,94,7
15,1,-51,244,109,95,8
20,-1,-51,248,106,94,10
25,-12,-54,248,100,93,10
30,-2,-50,248,92,93,10
35,0,-51,243,86,92,12
40,0,-50,243,78,91,11
45,-3,-49,242,72,89,11
50,-1,-49,244,65,86,11
55,-3,-51,242,58,84,10
60,-2,-47,242,53,80,10
65,1,-50,241,49,78,9
70,-5,-45,243,44,75,8
75,-3,-46,241,42,71,7
80,-1,-46,241,40,67,6
85,-1,-44,242,37,65,4
90,-9,-39,239,35,62,3
95,-5,-43,239,33,60,1
100,0,-43,240,31,58,1
105,-4,-44,239,31,58,-2
110,-4,-40,237,30,56,-3
115,-3,-40,239,28,55,-4
120,-3,-46,242,27,55,-5
125,-1,-49,245,24,56,-5
130,-2,-44,240,21,57,-6
135,-6,-48,242,19,56,-6
140,-2,-45,242,14,57,-6
145,-3,-46,243,11,58,-5
150,-4,-47,245,7,59,-5
155,-4,-45,243,1,61,-5
160,-2,-46,242,-5,61,-4
165,-4,-45,246,-12,61,-5
170,-5,-42,246,-18,61,-4
175,-7,-44,242,-25,62,-4
180,-3,-47,246,-31,62,-5
185,-3,-47,246,-37,64,-3
190,-1,-44,247,-42,66,-6
195,-4,-45,246,-44,66,-6
200,-4,-45,247,-47,65,-6
205,-5,-42,246,-49,66,-5
210,-5,-46,246,-47,66,-6
215,-3,-44,242,-45,66,-7
220,-7,-44,244,-43,65,-7
225,-5,-46,241,-42,67,-9
230,-6,-46,244,-39,68,-10
235,-7,-47,242,-39,70,-11
240,-4,-48,237,-37,72,-13
245,-5,-44,240,-38,76,-12
250,-6,-49,238,-38,77,-14
255,-2,-47,241,-38,80,-14
260,0,-47,240,-42,82,-14
265,-5,-47,239,-42,83,-15
270,-1,-49,243,-45,84,-15
275,-5,-46,244,-45,85,-14
280,-5,-45,245,-47,85,-13
285,0,-49,240,-48,82,-14
290,-2,-46,241,-51,82,-13
295,0,-50,240,-52,81,-13
300,0,-50,242,-56,80,-12
305,0,-48,242,-61,78,-14
310,0,-49,240,-64,77,-12
315,-5,-49,244,-68,77,-13
320,-1,-47,245,-71,74,-14
325,-4,-48,247,-74,73,-14
330,-3,-52,242,-76,70,-14
335,-3,-48,241,-77,69,-14
340,-4,-51,242,-76,66,-15
345,-3,-46,246,-77,63,-16
350,-7,-48,243,-77,63,-15
355,-1,-48,243,-77,60,-15
360,-4,-46,244,-77,57,-13
365,-2,-47,238,-76,56,-14
370,-2,-48,238,-77,56,-14
375,-4,-47,241,-78,56,-13
380,-1,-52,240,-77,56,-14
385,-2,-48,238,-77,56,-14
390,-6,-49,242,-77,58,-12
395,-3,-49,239,-78,61,-14
400,-7,-50,243,-78,61,-11
405,-4,-51,238,-78,62,-10
410,-5,-52,240,-78,65,-8
415,-1,-49,246,-78,66,-9
420,-2,-53,239,-78,68,-7
425,-2,-50,246,-78,69,-7
430,-5,-47,240,-81,70,-7
435,-1,-48,244,-83,70,-6
440,0,-52,241,-86,71,-5
445,-2,-51,241,-88,70,-5
450,0,-50,244,-92,68,-6
455,-2,-50,240,-96,66,-5
460,-1,-58,240,-100,65,-7
465,-2,-51,245,-104,65,-8
470,-2,-52,240,-109,64,-8
475,-3,-49,242,-113,63,-9
480,-2,-49,239,-116,61,-10
485,-1,-51,242,-119,60,-10
490,-3,-52,244,-122,59,-11
495,-2,-50,239,-125,60,-10
500,-2,-52,242,-128,60,-11
505,0,-52,241,-128,60,-11
510,0,-53,242,-127,61,-12
515,0,-54,238,-125,62,-12
520,-1,-54,243,-125,62,-11
525,-3,-53,242,-122,64,-11
530,-3,-51,239,-119,65,-12
535,-1,-53,239,-118,63,-11
540,-1,-54,239,-116,64,-11
545,-1,-51,243,-118,64,-12
550,-5,-51,240,-119,65,-11
555,0,-54,238,-123,63,-10
560,-1,-56,238,-124,63,-11
565,-9,-55,238,-127,61,-12
570,-2,-55,239,-130,59,-10
575,-3,-54,240,-132,59,-10
580,-5,-54,239,-133,57,-12
585,-3,-56,239,-131,56,-11
590,-3,-56,237,-129,55,-11
595,-3,-55,237,-125,54,-12
600,-3,-55,241,-120,54,-11
605,-2,-57,238,-114,56,-10
610,-5,-54,240,-108,58,-10
615,-3,-56,240,-103,61,-8
620,0,-56,241,-99,62,-7
625,-3,-55,240,-96,65,-6
630,-3,-55,242,-94,69,-6
635,0,-56,241,-93,71,-6
640,-2,-55,240,-94,72,-5
645,0,-55,239,-97,73,-6
650,0,-56,237,-99,73,-5
655,-1,-55,237,-103,74,-6
660,-1,-54,238,-105,76,-5
665,0,-56,236,-108,77,-5
670,0,-55,233,-111,76,-4
675,-1,-55,231,-109,74,-6
680,-3,-54,241,-106,72,-6
685,-2,-56,238,-104,72,-5
690,-1,-57,237,-98,71,-4
695,-3,-57,239,-95,69,-3
700,0,-59,238,-90,69,-3
705,0,-59,235,-87,68,-3
710,0,-59,239,-84,68,-4
715,-3,-59,239,-81,67,-3
720,-1,-58,238,-77,66,-2
725,-1,-60,239,-75,65,-3
730,-3,-59,237,-75,63,-2
735,-1,-60,237,-74,61,-3
740,-1,-59,236,-75,60,-5
745,-2,-61,237,-75,57,-4
750,-4,-58,241,-77,55,-4
755,-2,-61,239,-80,52,-5
760,-2,-61,236,-84,52,-6
765,-3,-59,237,-83,51,-6
770,-2,-58,237,-83,53,-6
775,0,-60,237,-84,54,-6
780,-2,-59,240,-83,58,-6
785,-1,-57,230,-83,59,-6
790,0,-60,235,-79,62,-5
795,-4,-59,237,-77,65,-4
800,0,-60,234,-72,67,-4
805,-3,-60,237,-68,69,-5
810,-1,-59,238,-62,70,-3
815,-4,-57,234,-58,71,-3
820,-2,-63,236,-54,69,-3
825,-1,-62,239,-50,69,-2
830,-2,-59,233,-48,69,-2
835,-3,-58,239,-45,67,-2
840,-3,-59,237,-45,67,-2
845,-3,-57,235,-46,64,-2
850,0,-59,238,-47,63,-3
855,-2,-56,237,-48,63,-4
860,-3,-56,239,-51,61,-4
865,0,-60,236,-53,61,-4
870,0,-58,239,-53,63,-2
875,-1,-61,239,-55,62,-3
880,-4,-59,236,-55,62,-3
885,0,-62,237,-55,61,-3
890,-1,-63,237,-53,63,-3
895,-10,-65,242,-51,63,-4
900,0,-67,241,-49,64,-4
905,-3,-61,237,-49,65,-4
910,0,-61,235,-46,66,-4
915,-2,-58,239,-45,68,-4
920,0,-59,235,-43,69,-4
925,0,-58,238,-42,68,-3
930,0,-63,236,-42,66,-2
935,0,-62,234,-41,68,-2
940,-2,-64,240,-39,68,-1
945,-1,-60,237,-37,68,-2
950,0,-64,237,-32,71,-1
955,-2,-63,239,-30,70,-2
960,0,-59,234,-27,69,-2
965,0,-63,238,-23,71,-2
970,-2,-62,237,-21,70,-1
975,-5,-60,237,-18,71,-1
980,0,-63,237,-17,71,-1
985,-2,-57,241,-18,71,-2
990,-3,-61,239,-17,71,-2
995,-1,-58,238,-17,71,-2
1000,0,-61,238,-18,72,0
1005,-1,-61,234,-18,70,0
1010,-1,-60,235,-17,70,-1
1015,-3,-60,240,-21,68,0
1020,-3,-58,238,-23,67,-1
1025,-6,-58,239,-26,66,0
1030,0,-59,237,-30,65,0
1035,0,-59,239,-35,63,-1
1040,-3,-61,238,-38,62,-2
1045,0,-59,235,-41,61,-1
1050,-2,-59,236,-45,61,-2
1055,-1,-61,238,-46,62,0
1060,0,-62,239,-47,63,-1
1065,-3,-58,240,-46,64,0
1070,-2,-62,238,-44,64,0
1075,-1,-64,240,-40,64,-1
1080,-1,-64,236,-35,66,1
1085,-1,-62,236,-29,68,0
1090,-2,-59,236,-25,68,0
1095,-2,-64,236,-19,70,1
1100,-5,-63,234,-14,69,1
1105,0,-62,233,-9,69,2
1110,-2,-62,239,-6,70,1
1115,-3,-60,237,-4,71,1
1120,0,-62,235,-4,69,-2
1125,-1,-62,238,-5,71,-1
1130,-3,-61,236,-5,71,-2
1135,-2,-61,238,-6,70,-2
1140,0,-61,235,-8,71,-3
1145,-2,-64,237,-8,70,-4
1150,0,-61,239,-9,71,-5
1155,0,-60,237,-10,71,-5
1160,-2,-61,236,-11,71,-3
1165,-7,-65,244,-10,72,-5
1170,-4,-57,237,-9,70,-4
1175,-1,-58,239,-9,69,-3
1180,-1,-63,237,-11,69,-4
1185,-5,-53,240,-10,68,-2
1190,0,-61,235,-13,67,-2
1195,-9,-56,234,-14,66,-1
1200,1,-65,236,-17,65,-3
1205,7,-54,240,-18,66,-2
1210,2,-51,243,-18,67,-2
1215,-6,-64,248,-19,66,-2
1220,0,-61,238,-20,67,-3
1225,-2,-61,237,-19,68,-2
1230,0,-60,238,-18,70,-2
1235,0,-64,236,-16,72,-1
1240,-24,-59,261,-14,72,-1
1245,-9,-49,227,-11,74,-1
1250,-7,-70,233,-10,76,0
1255,-7,-49,221,-9,75,-1
1260,8,-82,240,-7,77,-1
1265,-1,-62,255,-6,75,0
1270,-4,-59,239,-3,75,-1
1275,-1,-53,240,-3,74,1
1280,13,-61,235,0,75,0
1285,-5,-57,234,2,72,0
1290,2,-61,239,5,68,-2
1295,-3,-61,240,9,64,-1
1300,-1,-59,239,12,60,0
1305,0,-60,238,15,54,-1
1310,0,-59,238,19,50,-2
1315,4,-59,237,25,46,-1
1320,5,-51,233,31,43,1
1325,-14,-70,238,39,41,2
1330,-7,-60,229,48,40,5
1335,7,-64,247,58,43,7
1340,0,-58,237,67,45,7
1345,0,-67,253,77,50,7
1350,1,-66,252,85,54,7
1355,-9,-68,237,94,59,7
1360,-5,-69,242,100,63,6
1365,3,-58,234,102,68,7
1370,-5,-62,239,105,72,7
1375,-3,-60,246,104,77,3
1380,-2,-62,249,102,81,3
1385,0,-61,245,98,83,2
1390,-2,-60,246,91,87,2
1395,11,-59,257,83,93,1
1400,0,-62,240,72,95,1
1405,-3,-54,253,57,96,2
1410,-6,-57,251,41,94,3
1415,-2,-63,258,25,93,3
1420,-14,-52,244,10,91,5
1425,0,-54,254,-6,88,7
1430,-13,-60,257,-22,86,8
1435,9,-53,240,-36,86,10
1440,-3,-43,237,-50,84,11
1445,3,-59,255,-62,83,12
1450,-1,-56,243,-70,81,11
1455,-4,-55,239,-76,80,11
1460,-2,-57,237,-79,77,8
1465,-1,-57,234,-76,78,7
1470,-2,-53,235,-70,80,6
1475,3,-66,226,-60,80,5
1480,-7,-47,224,-50,81,3
1485,-16,-55,228,-40,82,2
1490,3,-52,219,-27,80,0
1495,-10,-60,228,-13,80,0
1500,-9,-53,195,2,78,-2
1505,2,-67,237,14,76,-1
1510,4,-62,227,28,77,0
1515,2,-57,222,41,75,1
1520,1,-52,226,54,77,1
1525,1,-54,223,62,78,3
1530,1,-59,230,67,80,1
1535,0,-59,229,68,80,-1
1540,-4,-58,236,66,81,-1
1545,-4,-56,234,62,81,0
1550,-7,-54,241,53,80,-1
1555,-5,-61,232,44,77,0
1560,-1,-51,233,34,74,-2
1565,-6,-55,236,25,70,-1
1570,-10,-59,243,12,66,-2
1575,-5,-58,249,2,63,-4
1580,-3,-57,237,-6,60,-5
1585,-2,-58,245,-13,59,-6
1590,-9,-63,248,-19,60,-6
1595,-9,-60,245,-23,59,-5
1600,-6,-53,242,-28,62,-6
1605,-6,-63,237,-32,63,-7
1610,-6,-59,244,-37,66,-7
1615,-3,-61,237,-42,69,-7
1620,-8,-59,238,-47,69,-6
1625,-9,-61,245,-49,71,-6
1630,-2,-67,240,-50,73,-7
1635,-12,-57,237,-49,74,-7
1640,-5,-59,235,-45,75,-6
1645,-5,-60,234,-38,77,-6
1650,-3,-63,235,-30,78,-5
1655,-1,-58,235,-18,78,-5
1660,0,-61,235,-9,80,-5
1665,-1,-63,241,3,80,-3
1670,-2,-58,238,13,81,-3
1675,0,-58,234,22,82,-3
1680,0,-58,235,28,80,-1
1685,0,-59,238,31,78,0
1690,-2,-55,236,33,77,1
1695,-2,-56,237,31,75,2
1700,0,-57,237,29,74,2
1705,-2,-56,239,26,71,2
1710,-1,-56,243,21,69,3
1715,0,-58,242,17,67,2
1720,0,-58,237,12,65,3
1725,-2,-57,244,9,65,3
1730,-3,-57,242,4,63,4
1735,0,-56,241,1,61,4
1740,-4,-56,239,-1,58,2
1745,-3,-57,246,-3,57,2
1750,-3,-56,242,-7,56,1
1755,-1,-58,243,-7,56,0
1760,-4,-56,240,-7,55,-1
1765,-4,-59,239,-7,54,-2
1770,-1,-58,239,-6,54,-3
1775,-2,-57,240,-6,54,-2
1780,-3,-56,238,-5,53,-2
1785,-1,-57,240,-3,54,-1
1790,-2,-59,241,0,53,-2
1795,1,-57,241,1,53,-3
1800,-4,-57,242,5,54,-2
1805,-3,-56,238,8,55,-3
1810,0,-56,240,8,56,-2
1815,0,-56,242,10,58,-1
1820,-2,-60,242,11,60,0
1825,-4,-56,239,10,61,-1
1830,-1,-55,239,9,63,1
1835,-2,-57,240,7,66,1
1840,-2,-58,239,6,67,2
1845,-2,-57,243,5,69,2
1850,-3,-56,237,3,69,3
1855,-4,-57,240,2,70,3
1860,0,-57,239,-1,70,3
1865,-1,-56,237,-4,69,1
1870,-2,-56,240,-6,70,-1
1875,-1,-58,239,-7,67,-1
1880,-2,-57,236,-9,67,-2
1885,-3,-59,240,-10,67,-3
1890,-3,-57,238,-9,66,-3
1895,-1,-57,238,-7,66,-4
1900,0,-59,241,-6,66,-4
1905,0,-57,238,-2,67,-5
1910,-3,-58,242,1,69,-8
1915,-1,-56,240,5,69,-8
1920,-1,-58,241,8,68,-8
1925,-1,-58,237,11,69,-8
1930,-6,-57,240,13,68,-9
1935,-1,-58,241,13,67,-9
1940,-3,-56,238,12,66,-9
1945,-1,-58,237,7,66,-8
1950,-3,-56,237,1,65,-8
1955,0,-55,239,-3,67,-8
1960,0,-58,236,-10,68,-9
1965,-2,-59,235,-15,71,-8
1970,0,-56,237,-21,72,-8
1975,1,-56,234,-24,75,-7
1980,-2,-53,237,-27,77,-6
1985,-3,-58,238,-28,80,-4
1990,0,-55,239,-26,83,-5
1995,0,-57,242,-24,83,-4
2000,1,-56,237,-24,86,-4
2005,0,-56,242,-22,86,-4
2010,0,-60,239,-21,87,-4
2015,0,-60,236,-18,87,-7
2020,1,-58,238,-18,87,-7
2025,0,-58,237,-14,85,-11
2030,-2,-62,239,-10,85,-13
2035,-4,-57,233,-5,84,-16
2040,-6,-58,237,1,83,-19
2045,-3,-58,239,3,83,-22
2050,-4,-59,238,6,83,-23
2055,-1,-59,239,8,82,-26
2060,-3,-58,240,9,82,-26
2065,-4,-57,238,10,79,-27
2070,-5,-57,240,11,76,-27
2075,-3,-58,241,13,74,-27
2080,-3,-59,248,16,66,-27
2085,-4,-59,257,22,53,-25
2090,-1,-59,260,31,31,-26
2095,-3,-59,264,38,9,-24
2100,-3,-63,264,45,-5,-23
2105,-4,-59,259,45,-4,-23
2110,-6,-57,260,41,10,-22
2115,-10,-57,257,37,37,-24
2120,-13,-59,246,37,78,-27
2125,-15,-59,240,41,126,-32
2130,-20,-61,233,54,185,-37
2135,-21,-65,229,75,243,-42
2140,-19,-68,223,105,300,-43
2145,-13,-68,217,141,350,-42
2150,-17,-62,214,185,386,-42
2155,-13,-60,213,232,406,-40
2160,-12,-58,220,280,405,-37
2165,-14,-55,222,327,383,-37
2170,-12,-53,223,370,347,-37
2175,-9,-52,233,399,300,-38
2180,-11,-48,235,414,249,-39
2185,-9,-47,245,409,201,-40
2190,-8,-47,245,387,160,-42
2195,-9,-46,251,348,131,-42
2200,-7,-46,253,297,115,-43
2205,-9,-45,254,239,110,-43
2210,-4,-47,255,180,109,-45
2215,-6,-49,254,126,113,-46
2220,-1,-50,252,81,119,-45
2225,-2,-51,249,50,128,-46
2230,0,-51,248,37,138,-43
2235,0,-51,245,36,148,-40
2240,-1,-51,246,53,161,-38
2245,-2,-53,244,81,177,-31
2250,-3,-48,244,113,193,-27
2255,-8,-43,242,148,211,-26
2260,-7,-44,244,182,234,-26
2265,-5,-41,241,209,261,-26
2270,-8,-38,245,223,290,-25
2275,-11,-31,240,223,317,-24
2280,-12,-33,241,210,342,-25
2285,-14,-33,241,184,361,-23
2290,-11,-33,238,152,368,-25
2295,-12,-34,240,115,365,-22
2300,-16,-33,237,80,352,-21
2305,-16,-35,241,50,329,-19
2310,-24,-37,240,34,300,-19
2315,-19,-42,242,28,268,-18
2320,-24,-42,244,30,235,-15
2325,-25,-41,247,35,203,-15
2330,-30,-41,243,36,169,-14
2335,-36,-42,240,35,139,-15
2340,-33,-39,245,27,113,-19
2345,-35,-40,244,13,96,-25
2350,-32,-41,241,-7,90,-35
2355,-29,-37,240,-31,90,-41
2360,-26,-37,241,-60,97,-43
2365,-24,-33,243,-95,102,-41
2370,-26,-34,241,-133,104,-36
2375,-25,-35,240,-178,103,-31
2380,-21,-32,249,-224,98,-28
2385,-17,-32,251,-267,85,-25
2390,-18,-38,255,-302,73,-25
2395,-16,-39,255,-326,62,-23
2400,-12,-47,256,-335,54,-19
2405,-13,-47,250,-337,48,-10
2410,-16,-51,245,-331,43,1
2415,-19,-51,238,-318,41,11
2420,-22,-50,226,-303,45,26
2425,-30,-48,222,-295,57,37
2430,-36,-52,217,-295,60,46
2435,-46,-50,216,-303,42,52
2440,-47,-54,219,-312,0,55
2445,-44,-57,225,-319,-59,57
2450,-36,-56,237,-322,-124,54
2455,-32,-58,244,-319,-185,53
2460,-27,-60,251,-310,-240,58
2465,-23,-56,257,-309,-289,68
2470,-20,-53,260,-320,-338,81
2475,-16,-48,261,-351,-388,94
2480,-16,-45,254,-399,-444,104
2485,-11,-42,256,-457,-501,118
2490,-1,-45,244,-515,-557,138
2495,0,-49,248,-564,-607,158
2500,10,-53,245,-600,-658,175
2505,18,-54,234,-622,-708,192
2510,27,-57,231,-631,-738,199
2515,40,-58,227,-637,-740,209
2520,55,-64,230,-637,-721,223
2525,63,-64,224,-638,-693,243
2530,70,-66,220,-645,-662,267
2535,74,-68,228,-654,-628,289
2540,80,-70,230,-657,-593,310
2545,79,-69,229,-646,-556,332
2550,80,-67,228,-618,-512,355
2555,78,-66,225,-583,-455,381
2560,73,-60,224,-546,-392,408
2565,67,-56,226,-509,-328,434
2570,63,-54,223,-469,-270,454
2575,60,-54,231,-417,-218,469
2580,60,-55,236,-358,-169,478
2585,54,-53,239,-299,-119,489
2590,51,-54,241,-253,-70,503
2595,46,-57,242,-230,-32,516
2600,41,-57,243,-224,-14,528
2605,31,-64,242,-233,-10,540
2610,19,-69,243,-253,-20,549
2615,11,-72,239,-278,-38,554
2620,2,-73,239,-302,-66,553
2625,-4,-75,238,-328,-102,551
2630,-8,-76,236,-350,-139,543
2635,-15,-73,238,-373,-172,533
2640,-16,-72,236,-399,-205,523
2645,-15,-71,236,-424,-239,512
2650,-7,-71,235,-443,-265,497
2655,-1,-74,232,-450,-268,479
2660,-2,-75,225,-446,-241,468
2665,-1,-75,221,-436,-194,445
2670,-1,-81,217,-425,-169,420
2675,-10,-80,218,-411,-169,390
2680,-17,-91,213,-385,-200,363
2685,-23,-96,213,-345,-249,336
2690,-29,-103,211,-290,-304,305
2695,-30,-108,216,-230,-346,270
2700,-36,-118,216,-163,-376,242
2705,-34,-120,217,-94,-384,213
2710,-23,-126,215,-25,-365,175
2715,-13,-127,213,46,-325,130
2720,-4,-126,219,120,-277,98
2725,1,-125,222,200,-224,72
2730,7,-121,230,281,-179,43
2735,13,-118,233,355,-136,19
2740,11,-114,233,410,-97,3
2745,2,-106,225,438,-51,-5
2750,-2,-101,236,439,-7,-12
2755,-12,-98,238,424,22,-22
2760,-25,-97,238,401,24,-39
2765,-34,-97,238,376,1,-63
2770,-47,-95,236,362,-39,-94
2775,-54,-97,233,361,-79,-129
2780,-56,-99,232,374,-100,-161
2785,-60,-104,225,405,-93,-185
2790,-59,-111,230,450,-50,-202
2795,-63,-112,219,505,21,-215
2800,-57,-114,223,567,94,-229
2805,-52,-111,219,637,149,-235
2810,-43,-107,218,700,186,-234
2815,-36,-104,214,746,208,-235
2820,-31,-97,211,780,201,-236
2825,-23,-95,222,803,156,-232
2830,-17,-86,228,816,78,-230
2835,-8,-80,231,809,-8,-234
2840,0,-72,236,780,-86,-245
2845,0,-70,240,729,-147,-261
2850,2,-63,245,661,-196,-278
2855,14,-65,245,597,-235,-298
2860,8,-61,256,511,-270,-322
2865,17,-63,258,435,-301,-346
2870,15,-61,262,376,-326,-372
2875,22,-58,261,339,-343,-402
2880,25,-59,260,323,-359,-437
2885,24,-55,262,327,-377,-476
2890,26,-52,259,345,-396,-516
2895,29,-49,261,371,-416,-552
2900,29,-46,257,393,-436,-580
2905,26,-45,258,416,-453,-607
2910,29,-43,260,432,-468,-628
2915,27,-47,253,444,-483,-646
2920,23,-47,258,452,-501,-661
2925,23,-48,255,450,-520,-675
2930,23,-50,252,436,-539,-692
2935,22,-52,253,415,-556,-713
2940,22,-52,250,387,-572,-731
2945,26,-54,247,356,-592,-744
2950,25,-55,248,319,-615,-757
2955,25,-56,247,279,-638,-776
2960,28,-54,248,233,-665,-797
2965,31,-51,250,185,-694,-811
2970,28,-55,246,131,-716,-826
2975,34,-52,250,78,-731,-839
2980,29,-49,251,30,-739,-848
2985,30,-48,254,-13,-743,-854
2990,28,-41,261,-45,-748,-854
2995,23,-36,260,-74,-764,-851
3000,20,-35,263,-102,-793,-848
3005,7,-30,266,-131,-831,-854
3010,1,-28,264,-154,-885,-865
3015,2,-28,259,-174,-947,-882
3020,1,-32,257,-193,-1014,-910
3025,7,-27,251,-212,-1077,-948
3030,15,-29,253,-231,-1134,-987
3035,25,-29,249,-250,-1181,-1034
3040,30,-32,247,-264,-1228,-1087
3045,35,-38,244,-271,-1273,-1146
3050,42,-39,240,-271,-1315,-1212
3055,47,-38,235,-265,-1353,-1278
3060,59,-38,224,-260,-1387,-1345
3065,67,-38,216,-263,-1421,-1406
3070,76,-37,202,-273,-1463,-1461
3075,84,-35,194,-285,-1511,-1510
3080,94,-32,186,-300,-1562,-1550
3085,102,-33,177,-312,-1617,-1585
3090,109,-31,180,-327,-1676,-1607
3095,116,-28,178,-343,-1745,-1622
3100,121,-27,172,-357,-1823,-1632
3105,118,-25,174,-367,-1909,-1632
3110,123,-24,175,-369,-2000,-1626
3115,119,-21,179,-366,-2087,-1614
3120,121,-19,176,-359,-2167,-1596
3125,120,-19,181,-362,-2238,-1574
3130,123,-19,174,-372,-2300,-1554
3135,120,-14,172,-388,-2355,-1535
3140,121,-13,163,-410,-2408,-1514
3145,122,-9,158,-434,-2463,-1493
3150,124,-8,146,-463,-2517,-1475
3155,126,-7,137,-500,-2567,-1458
3160,128,-5,125,-547,-2620,-1439
3165,131,-4,121,-608,-2672,-1424
3170,129,-1,111,-678,-2716,-1406
3175,130,-6,106,-751,-2752,-1387
3180,135,2,99,-816,-2777,-1372
3185,145,0,101,-873,-2795,-1357
3190,148,3,104,-919,-2808,-1347
3195,158,8,103,-953,-2817,-1336
3200,161,6,101,-981,-2819,-1325
3205,163,9,103,-1006,-2818,-1315
3210,164,4,108,-1031,-2810,-1302
3215,164,3,110,-1055,-2797,-1284
3220,161,0,119,-1082,-2781,-1263
3225,164,-4,121,-1112,-2765,-1238
3230,162,-9,122,-1144,-2743,-1213
3235,168,-15,128,-1174,-2708,-1186
3240,175,-22,131,-1195,-2651,-1157
3245,179,-23,138,-1203,-2564,-1124
3250,189,-29,140,-1195,-2453,-1087
3255,193,-37,143,-1180,-2327,-1048
3260,201,-41,143,-1163,-2200,-1008
3265,207,-49,145,-1151,-2078,-967
3270,218,-57,147,-1142,-1962,-918
3275,228,-61,147,-1134,-1854,-861
3280,230,-65,148,-1127,-1756,-797
3285,241,-71,144,-1111,-1659,-725
3290,250,-79,144,-1089,-1563,-650
3295,253,-81,143,-1058,-1468,-576
3300,256,-87,150,-1012,-1371,-504
3305,262,-91,154,-952,-1272,-433
3310,269,-92,156,-881,-1170,-365
3315,273,-90,162,-807,-1065,-299
3320,279,-85,172,-725,-957,-239
3325,285,-83,176,-637,-850,-186
3330,285,-79,179,-556,-747,-143
3335,281,-73,186,-441,-657,-108
3340,274,-63,186,-315,-582,-75
3345,261,-58,181,-192,-531,-41
3350,246,-50,176,-84,-480,-4
3355,227,-38,170,0,-441,26
3360,209,-33,166,66,-413,50
3365,192,-27,167,128,-399,62
3370,185,-25,163,205,-404,57
3375,180,-17,162,301,-419,40
3380,171,-14,154,405,-431,9
3385,173,1,141,499,-438,-23
3390,156,8,139,560,-445,-53
3395,155,10,131,588,-467,-82
3400,155,12,124,588,-509,-115
3405,154,17,115,571,-571,-147
3410,162,14,107,539,-646,-171
3415,166,13,103,501,-725,-189
3420,175,14,96,460,-799,-199
3425,186,10,96,419,-862,-201
3430,190,4,93,387,-908,-194
3435,199,0,94,368,-942,-180
3440,204,-7,87,363,-963,-164
3445,213,-4,84,367,-974,-151
3450,221,-6,80,380,-977,-144
3455,230,-4,75,396,-972,-136
3460,236,-3,78,414,-955,-130
3465,242,-2,78,432,-926,-121
3470,246,-2,79,449,-882,-114
3475,250,1,76,463,-829,-111
3480,251,1,74,467,-776,-111
3485,251,7,77,458,-734,-121
3490,250,8,81,435,-698,-132
3495,248,9,77,402,-674,-147
3500,248,12,76,351,-664,-161
3505,248,10,73,292,-672,-177
3510,247,9,69,228,-696,-188
3515,244,5,70,170,-729,-200
3520,239,0,76,128,-765,-208
3525,238,-3,77,99,-802,-219
3530,237,-11,81,81,-839,-232
3535,235,-15,80,68,-875,-245
3540,234,-17,82,59,-907,-258
3545,231,-21,84,51,-937,-268
3550,231,-21,84,43,-965,-274
3555,230,-28,81,33,-999,-273
3560,234,-27,79,15,-1034,-268
3565,240,-30,74,-7,-1072,-257
3570,242,-29,65,-32,-1104,-239
3575,247,-29,58,-58,-1129,-212
3580,246,-33,50,-79,-1149,-183
3585,245,-32,44,-89,-1161,-153
3590,250,-32,33,-80,-1165,-124
3595,254,-33,25,-60,-1169,-97
3600,257,-26,16,-24,-1174,-70
3605,260,-28,7,19,-1180,-42
3610,268,-28,-1,72,-1180,-14
3615,270,-24,-9,130,-1171,12
3620,272,-22,-13,185,-1158,36
3625,280,-20,-13,231,-1141,53
3630,287,-17,-15,269,-1121,60
3635,292,-15,-16,298,-1098,58
3640,302,-11,-15,316,-1074,45
3645,306,-9,-14,320,-1053,24
3650,312,-6,-10,315,-1041,-7
3655,314,0,-5,306,-1038,-40
3660,315,4,-5,287,-1054,-80
3665,313,8,-4,250,-1090,-123
3670,309,12,-6,195,-1145,-169
3675,306,15,-7,135,-1216,-216
3680,294,17,-7,76,-1290,-256
3685,284,17,-15,22,-1369,-290
3690,275,18,-18,-24,-1450,-318
3695,262,12,-25,-59,-1525,-340
3700,251,12,-29,-78,-1586,-359
3705,246,7,-36,-81,-1626,-375
3710,237,2,-44,-69,-1647,-386
3715,222,-3,-41,-47,-1661,-392
3720,213,-10,-45,-10,-1673,-392
3725,204,-15,-44,30,-1689,-394
3730,204,-16,-52,72,-1708,-393
3735,202,-18,-53,106,-1721,-390
3740,204,-19,-60,127,-1729,-384
3745,204,-19,-60,138,-1726,-382
3750,206,-18,-59,139,-1710,-382
3755,214,-19,-63,135,-1681,-383
3760,219,-17,-65,126,-1636,-382
3765,230,-19,-64,112,-1578,-376
3770,239,-25,-64,99,-1513,-367
3775,254,-25,-68,90,-1444,-360
3780,270,-30,-70,83,-1367,-355
3785,280,-30,-70,75,-1280,-343
3790,293,-37,-66,69,-1191,-319
3795,298,-40,-72,70,-1108,-288
3800,307,-41,-69,80,-1039,-256
3805,316,-39,-69,107,-987,-228
3810,313,-29,-72,146,-945,-209
3815,325,-32,-76,190,-902,-198
3820,322,-15,-83,236,-865,-192
3825,321,-8,-83,278,-810,-187
3830,327,-1,-83,317,-753,-188
3835,326,9,-85,347,-687,-193
3840,321,16,-85,361,-609,-194
3845,323,19,-88,361,-522,-189
3850,317,22,-86,346,-430,-181
3855,311,24,-79,327,-338,-172
3860,302,26,-82,301,-256,-164
3865,294,25,-79,276,-180,-154
3870,281,29,-80,248,-122,-143
3875,273,32,-80,217,-84,-134
3880,269,27,-77,179,-67,-128
3885,257,29,-83,135,-64,-119
3890,254,31,-85,86,-73,-109
3895,247,28,-88,35,-84,-97
3900,245,24,-90,-14,-91,-84
3905,242,16,-91,-57,-94,-71
3910,241,9,-87,-88,-88,-56
3915,237,4,-86,-105,-76,-45
3920,238,-2,-85,-110,-55,-31
3925,233,2,-87,-106,-29,-18
3930,236,-8,-81,-94,0,-5
3935,239,-11,-79,-77,35,3
3940,241,-11,-82,-58,72,11
3945,246,-13,-83,-38,112,16
3950,248,-11,-81,-17,154,26
3955,255,-10,-81,2,198,33
3960,257,-3,-81,17,241,38
3965,258,-2,-82,29,281,43
3970,261,-1,-81,35,316,44
3975,261,5,-81,36,350,43
3980,260,3,-77,33,381,40
3985,262,7,-77,24,411,35
3990,258,9,-73,8,435,28
3995,256,11,-72,-11,458,20
4000,257,16,-65,-33,474,14
4005,251,19,-60,-54,484,5
4010,251,16,-61,-79,487,0
4015,249,18,-57,-102,484,-5
4020,248,17,-54,-129,476,-8
4025,248,19,-52,-157,470,-11
4030,248,22,-51,-184,464,-10
4035,250,23,-48,-207,460,-8
4040,250,20,-50,-229,460,-2
4045,251,15,-45,-241,462,7
4050,252,17,-42,-249,469,21
4055,255,13,-43,-248,478,36
4060,255,10,-43,-239,491,55
4065,257,11,-42,-223,505,74
4070,259,8,-39,-199,518,95
4075,258,9,-42,-174,532,114
4080,257,8,-41,-149,546,129
4085,260,8,-41,-127,556,142
4090,257,7,-39,-111,565,151
4095,255,8,-36,-103,570,158
4100,260,7,-35,-102,572,159
4105,257,6,-34,-106,568,156
4110,261,6,-37,-110,558,150
4115,259,1,-38,-116,549,139
4120,261,2,-37,-120,534,133
4125,257,1,-36,-122,520,126
4130,259,-1,-38,-124,509,120
4135,257,-2,-37,-129,503,115
4140,253,-1,-32,-132,499,110
4145,257,-1,-36,-135,497,105
4150,256,-4,-38,-133,497,99
4155,254,-3,-40,-128,497,95
4160,252,-4,-36,-121,497,93
4165,248,-4,-37,-110,495,92
4170,249,-7,-29,-99,493,93
4175,252,-9,-32,-86,491,96
4180,247,-8,-24,-70,484,98
4185,244,-9,-25,-53,474,101
4190,249,-11,-22,-32,461,102
4195,247,-12,-20,-10,448,102
4200,245,-8,-20,12,431,100
4205,245,-11,-20,34,412,96
4210,242,-9,-14,49,394,90
4215,243,-8,-16,60,374,84
4220,246,-5,-17,63,356,78
4225,245,-5,-14,60,338,70
4230,243,-4,-12,51,323,63
4235,242,-5,-9,36,309,56
4240,244,-4,-8,20,297,48
4245,243,-2,-8,4,285,42
4250,242,0,-9,-15,274,35
4255,248,-2,-11,-31,266,27
4260,248,-2,-10,-45,256,21
4265,251,-4,-7,-60,250,15
4270,252,1,-11,-73,246,10
4275,251,-5,-10,-82,241,7
4280,255,-3,-15,-90,234,2
4285,256,-6,-17,-91,228,-1
4290,256,-6,-15,-85,218,-5
4295,255,-3,-14,-74,212,-10
4300,257,-7,-19,-59,202,-14
4305,257,-7,-20,-41,192,-17
4310,253,-4,-20,-21,180,-21
4315,252,-5,-21,-3,168,-26
4320,252,-4,-20,11,155,-31
4325,252,-4,-20,19,139,-38
4330,249,-1,-19,21,124,-45
4335,249,-1,-22,17,105,-54
4340,250,1,-18,11,89,-62
4345,251,0,-20,4,73,-66
4350,251,1,-20,-4,58,-73
4355,249,5,-20,-9,45,-80
4360,243,2,-16,-12,38,-86
4365,251,1,-18,-17,35,-90
4370,250,5,-16,-21,34,-96
4375,249,5,-16,-28,34,-99
4380,252,2,-16,-36,37,-104
4385,252,2,-11,-45,38,-106
4390,254,6,-14,-53,38,-109
4395,254,3,-13,-62,35,-111
4400,255,5,-15,-69,28,-112
4405,256,4,-18,-70,18,-112
4410,260,5,-15,-71,4,-112
4415,262,0,-19,-68,-14,-112
4420,257,3,-22,-60,-32,-113
4425,260,-1,-19,-47,-48,-112
4430,264,-2,-23,-32,-62,-112
4435,262,0,-22,-12,-72,-111
4440,260,1,-23,4,-80,-111
4445,262,0,-26,18,-86,-107
4450,261,1,-28,28,-90,-107
4455,260,0,-26,38,-94,-107
4460,260,5,-30,43,-96,-106
4465,257,4,-28,47,-99,-104
4470,256,3,-41,49,-96,-102
4475,258,8,-28,47,-95,-99
4480,257,8,-26,35,-95,-97
4485,259,7,-29,21,-95,-93
4490,254,8,-30,7,-96,-90
4495,256,10,-28,-7,-95,-87
4500,253,10,-31,-15,-93,-83
4505,256,8,-30,-18,-87,-79
4510,256,8,-30,-20,-83,-75
4515,254,9,-33,-23,-77,-71
4520,255,8,-28,-26,-67,-68
4525,255,6,-30,-30,-56,-66
4530,255,6,-30,-33,-45,-63
4535,258,7,-26,-37,-36,-61
4540,256,8,-29,-38,-30,-61
4545,259,8,-27,-41,-29,-60
4550,259,7,-27,-42,-30,-60
4555,257,7,-31,-42,-34,-59
4560,258,9,-31,-44,-38,-59
4565,261,8,-36,-46,-41,-60
4570,258,7,-34,-49,-42,-61
4575,262,9,-33,-52,-41,-60
4580,260,10,-34,-55,-42,-60
4585,260,10,-34,-55,-44,-58
4590,261,10,-38,-53,-43,-56
4595,263,11,-35,-47,-44,-53
4600,261,9,-38,-36,-44,-52
4605,259,9,-35,-25,-44,-49
4610,260,10,-38,-9,-43,-46
4615,255,10,-34,6,-39,-42
4620,257,9,-34,23,-32,-42
4625,258,7,-33,35,-25,-41
4630,258,9,-33,45,-18,-39
4635,259,9,-32,48,-10,-38
4640,259,10,-30,47,-4,-38
4645,259,9,-30,43,0,-36
4650,262,9,-32,35,3,-33
4655,263,10,-32,23,5,-30
4660,261,10,-32,9,3,-27
4665,263,6,-33,-4,2,-24
4670,261,10,-36,-20,1,-20
4675,260,8,-39,-34,1,-15
4680,261,6,-40,-44,2,-10
4685,263,10,-42,-51,6,-6
4690,260,7,-46,-52,10,-2
4695,262,5,-40,-52,18,3
4700,258,6,-42,-46,27,8
4705,260,3,-38,-40,35,12
4710,258,7,-39,-33,42,15
4715,258,6,-38,-24,49,17
4720,256,8,-42,-18,54,18
4725,258,8,-39,-13,59,19
4730,256,8,-36,-11,66,21
4735,257,6,-36,-11,72,23
4740,256,9,-35,-14,80,23
4745,258,9,-34,-17,87,22
4750,255,8,-33,-21,94,23
4755,258,8,-36,-27,100,23
4760,257,9,-38,-35,107,24
4765,260,8,-33,-43,111,24
4770,257,8,-36,-48,116,25
4775,255,9,-32,-54,120,25
4780,255,6,-32,-58,123,26
4785,255,8,-33,-63,126,26
4790,255,4,-32,-64,129,27
4795,251,4,-37,-64,131,26
4800,256,3,-28,-66,131,24
4805,253,4,-33,-66,131,25
4810,254,8,-30,-69,130,21
4815,255,4,-29,-71,128,21
4820,253,8,-30,-75,125,15
4825,254,6,-26,-79,120,11
4830,252,10,-23,-84,115,8
4835,255,7,-24,-93,112,5
4840,253,8,-28,-101,108,2
4845,255,6,-26,-108,104,-3
4850,252,8,-29,-119,101,-5
4855,251,7,-27,-129,99,-7
4860,251,5,-29,-140,98,-10
4865,251,8,-27,-153,99,-11
4870,251,5,-27,-166,101,-13
4875,253,6,-33,-177,103,-14
4880,254,5,-28,-183,104,-15
4885,251,3,-33,-182,108,-15
4890,255,5,-30,-174,111,-15
4895,253,-3,-34,-161,113,-14
4900,256,1,-33,-145,116,-15
4905,256,-4,-37,-126,119,-13
4910,257,1,-37,-108,119,-16
4915,254,2,-35,-90,119,-15
4920,256,2,-34,-71,117,-14
4925,254,2,-34,-53,111,-15
4930,256,5,-29,-37,110,-16
4935,255,0,-32,-24,105,-16
4940,255,1,-30,-15,99,-17
4945,258,-1,-27,-9,94,-20
4950,256,6,-26,-5,90,-24
4955,256,4,-30,-5,82,-30
4960,256,7,-26,-6,77,-34
4965,256,8,-24,-8,71,-38
4970,255,8,-29,-12,66,-42
4975,256,8,-27,-18,59,-45
4980,256,8,-31,-22,54,-48
4985,258,7,-27,-27,47,-49
4990,255,8,-27,-31,40,-49
4995,256,10,-25,-37,35,-49
5000,258,6,-30,-43,33,-49
5005,257,9,-28,-48,30,-46
5010,257,9,-28,-51,31,-43
5015,256,13,-36,-54,29,-41
5020,256,8,-29,-54,27,-40
5025,256,9,-28,-55,24,-40
5030,256,8,-29,-54,21,-38
5035,254,9,-25,-53,17,-37
5040,256,9,-28,-54,14,-38
5045,254,9,-31,-56,9,-39
5050,256,8,-32,-56,8,-41
5055,257,9,-30,-58,9,-41
5060,256,11,-28,-59,9,-41
5065,257,9,-34,-62,10,-43
5070,257,10,-33,-63,11,-44
5075,257,12,-34,-63,14,-45
5080,255,10,-26,-62,15,-43
5085,256,10,-35,-60,16,-41
5090,258,9,-36,-57,20,-39
5095,257,11,-36,-52,23,-37
5100,256,10,-37,-47,26,-34
5105,258,10,-33,-41,29,-34
5110,255,10,-36,-35,32,-32
5115,258,10,-35,-27,34,-31
5120,256,9,-31,-22,36,-29
5125,255,13,-30,-16,38,-27
5130,255,9,-36,-12,41,-27
5135,254,14,-32,-9,43,-25
5140,255,10,-35,-7,46,-21
5145,254,10,-33,-7,49,-19
5150,251,14,-33,-8,54,-17
5155,257,11,-31,-11,55,-17
5160,255,11,-30,-17,57,-15
5165,253,11,-33,-22,60,-14
5170,251,12,-31,-29,61,-11
5175,256,11,-28,-35,61,-12
5180,255,11,-30,-42,60,-12
5185,255,11,-29,-48,58,-11
5190,256,9,-30,-54,55,-12
5195,257,10,-29,-58,52,-13
5200,254,9,-34,-59,50,-15
5205,256,9,-32,-58,46,-15
5210,256,11,-34,-57,41,-17
5215,260,9,-35,-52,41,-15
5220,257,8,-33,-48,41,-12
5225,258,7,-37,-40,44,-10
5230,257,13,-40,-31,45,-6
5235,257,9,-32,-22,46,-3
5240,257,9,-37,-13,50,0
5245,257,10,-36,-4,53,3
5250,256,8,-34,3,55,4
5255,256,10,-33,8,59,5
5260,257,10,-35,14,62,7
5265,256,8,-35,17,66,7
5270,257,8,-37,18,69,7
5275,253,10,-34,18,72,7
5280,254,9,-34,14,74,6
5285,256,8,-33,11,79,6
5290,253,9,-35,7,82,7
5295,254,10,-36,2,88,7
5300,255,9,-34,-1,92,7
5305,255,6,-32,1,97,8
5310,253,8,-31,2,100,9
5315,255,8,-35,3,104,10
5320,255,6,-35,7,105,10
5325,257,7,-36,10,108,10
5330,255,8,-35,12,108,12
5335,256,9,-35,14,109,10
5340,261,4,-28,14,109,11
5345,256,8,-28,17,109,12
5350,256,8,-30,16,108,13
5355,256,8,-31,14,105,10
5360,256,8,-31,12,103,8
5365,257,8,-31,11,100,7
5370,256,8,-32,10,96,6
5375,256,8,-26,10,91,5
5380,255,10,-28,9,87,2
5385,256,8,-30,8,85,-1
5390,256,4,-31,6,81,-2
5395,254,9,-30,4,77,-4
5400,254,10,-28,2,76,-6
5405,255,8,-31,1,74,-8
5410,256,8,-33,0,73,-9
5415,255,8,-31,-1,71,-9
5420,257,7,-35,-1,69,-9
5425,255,6,-32,-1,71,-8
5430,256,9,-33,0,71,-7
5435,255,8,-32,1,71,-6
5440,255,10,-30,0,73,-6
5445,254,9,-33,-1,76,-6
5450,253,14,-40,1,78,-5
5455,252,10,-34,0,80,-4
5460,256,8,-30,0,80,-3
5465,256,12,-31,3,80,-2
5470,255,9,-33,5,80,-2
5475,255,9,-30,6,79,-3
5480,255,8,-33,7,77,-2
5485,256,8,-31,9,77,-3
5490,256,8,-29,10,76,-3
5495,253,10,-30,10,78,-3
5500,257,6,-31,10,77,-3
5505,256,10,-32,10,76,-3
5510,256,8,-32,10,76,-3
5515,254,9,-32,9,75,-2
5520,257,9,-32,8,76,-2
5525,258,7,-31,7,76,0
5530,256,8,-32,8,75,-1
5535,256,6,-30,10,74,-1
5540,255,9,-31,11,72,-1
5545,255,10,-32,14,72,1
5550,256,10,-32,15,71,1
5555,255,10,-31,19,72,2
5560,251,13,-34,19,72,3
5565,254,7,-32,20,71,3
5570,255,9,-31,20,73,4
5575,257,8,-31,19,76,4
5580,256,8,-37,17,78,4
5585,254,8,-35,15,81,5
5590,254,10,-32,13,84,6
5595,255,10,-31,11,87,7
5600,255,10,-31,9,89,6
5605,253,8,-31,6,90,7
5610,254,11,-34,5,91,7
5615,256,6,-30,6,90,8
5620,255,7,-30,6,89,6
5625,258,8,-31,7,90,7
5630,256,9,-32,8,90,6
5635,255,9,-32,10,87,6
5640,255,9,-31,9,87,6
5645,258,8,-34,9,86,6
5650,256,8,-33,10,86,4
5655,253,10,-30,9,85,5
5660,256,7,-34,9,85,6
5665,256,8,-29,9,85,6
5670,255,7,-31,10,84,7
5675,256,6,-29,10,82,7
5680,255,8,-28,7,82,7
5685,257,7,-27,6,84,8
5690,254,10,-29,5,84,8
5695,255,8,-35,3,82,7
5700,254,8,-29,3,83,7
5705,255,8,-30,3,82,7
5710,256,6,-30,3,82,6
5715,255,9,-29,3,82,5
5720,256,8,-29,2,82,4
5725,256,8,-28,2,83,3
5730,256,7,-29,2,84,3
5735,253,8,-32,2,86,3
5740,256,8,-28,2,85,3
5745,256,8,-32,2,87,4
5750,256,8,-32,2,88,2
5755,254,8,-30,3,90,4
5760,257,8,-33,4,91,3
5765,255,7,-32,7,91,5
5770,256,8,-30,10,92,5
5775,249,7,-31,13,92,6
5780,259,8,-30,17,92,5
5785,255,9,-33,16,92,5
5790,256,8,-29,16,93,5
5795,259,7,-30,14,93,6
5800,257,7,-27,11,92,5
5805,255,7,-24,9,92,4
5810,259,8,-26,6,90,5
5815,255,9,-28,5,88,5
5820,257,8,-29,6,85,5
5825,255,9,-25,11,81,2
5830,256,6,-29,15,78,3
5835,257,8,-32,18,72,0
5840,256,5,-31,21,69,-4
5845,256,10,-29,24,66,-4
5850,257,9,-35,24,63,-6
5855,256,8,-30,23,63,-6
5860,253,9,-33,19,66,-7
5865,255,10,-29,16,67,-5
5870,256,9,-30,12,70,-4
5875,255,8,-29,8,75,-4
5880,256,9,-32,3,76,-4
5885,251,7,-35,-2,77,-3
5890,254,8,-29,-4,78,-1
5895,256,8,-30,-6,77,-4
5900,255,6,-31,-8,75,-3
5905,258,8,-30,-7,72,-5
5910,258,7,-27,-7,68,-6
5915,256,8,-29,-4,68,-7
5920,256,8,-32,-2,65,-7
5925,255,8,-30,3,63,-7
5930,256,10,-33,5,60,-8
5935,256,9,-30,7,59,-8
5940,256,10,-31,9,58,-9
5945,257,9,-33,8,59,-9
5950,253,9,-32,7,58,-8
5955,255,9,-29,2,56,-10
5960,256,8,-30,-3,54,-8
5965,258,9,-32,-8,53,-9
5970,257,9,-31,-15,54,-8
5975,256,10,-36,-18,52,-9
5980,258,11,-31,-21,52,-9
5985,256,9,-30,-25,49,-9
5990,255,10,-31,-28,47,-8
5995,257,10,-27,-30,44,-10
6000,257,9,-33,-33,42,-9
6005,255,9,-30,-33,41,-9
6010,254,8,-29,-35,39,-9
6015,255,9,-30,-36,41,-7
6020,255,8,-33,-35,42,-7
6025,254,9,-28,-34,43,-7
6030,257,8,-29,-36,45,-5
6035,256,8,-30,-38,49,-4
6040,255,8,-26,-40,50,-3
6045,255,6,-25,-45,53,-3
6050,255,7,-23,-49,52,-4
6055,256,5,-25,-52,52,-5
6060,252,9,-23,-52,51,-5
6065,255,7,-22,-51,46,-7
6070,255,5,-30,-49,41,-10
6075,253,6,-28,-46,36,-13
6080,257,8,-29,-44,31,-15
6085,253,7,-31,-43,25,-20
6090,254,7,-29,-41,21,-21
6095,251,9,-28,-43,18,-23
6100,253,8,-32,-46,16,-25
6105,256,9,-30,-52,15,-26
6110,250,11,-26,-58,18,-25
6115,254,10,-31,-62,21,-24
6120,255,11,-32,-65,25,-22
6125,255,8,-30,-67,29,-21
6130,255,8,-34,-68,34,-17
6135,255,7,-33,-67,40,-12
6140,254,8,-36,-64,46,-9
6145,256,9,-33,-61,54,-5
6150,256,9,-34,-60,61,-3
6155,259,9,-37,-57,70,0
6160,258,9,-40,-52,79,5
6165,256,10,-40,-48,89,8
6170,257,10,-37,-44,98,11
6175,258,8,-40,-38,107,14
6180,258,10,-40,-31,115,16
6185,261,8,-39,-26,120,19
6190,263,8,-37,-22,125,21
6195,259,6,-38,-19,129,22
6200,263,9,-37,-15,130,24
6205,260,6,-41,-13,129,23
6210,264,8,-36,-10,129,23
6215,269,8,-32,-7,126,23
6220,261,6,-39,-4,122,22
6225,259,8,-35,0,119,21
6230,259,8,-32,1,114,22
6235,260,7,-35,6,109,21
6240,256,8,-34,9,105,19
6245,256,8,-29,10,101,20
6250,254,10,-29,10,99,20
6255,256,8,-30,7,96,20
6260,254,4,-27,4,97,19
6265,253,8,-28,4,98,17
6270,254,6,-24,1,101,14
6275,251,8,-24,0,103,11
6280,253,8,-24,0,106,9
6285,252,7,-23,2,108,8
6290,250,8,-23,3,110,7
6295,251,13,-24,6,110,6
6300,253,12,-25,8,109,7
6305,255,8,-26,8,106,8
6310,254,9,-31,9,104,6
6315,255,11,-30,7,99,6
6320,255,9,-24,2,95,6
6325,256,12,-26,-4,90,5
6330,254,10,-31,-12,89,5
6335,258,9,-32,-21,89,4
6340,257,8,-28,-31,91,5
6345,255,10,-27,-40,90,5
6350,257,8,-27,-48,90,5
6355,257,8,-25,-54,89,4
6360,258,4,-30,-58,87,4
6365,256,5,-29,-61,84,4
6370,259,7,-26,-62,81,3
6375,256,6,-25,-63,79,2
6380,254,4,-24,-61,74,3
6385,256,5,-21,-57,70,2
6390,255,8,-27,-54,64,3
6395,256,6,-25,-49,60,1
6400,254,7,-26,-45,56,0
6405,255,8,-25,-40,54,-1
6410,253,8,-28,-35,48,-2
6415,252,8,-30,-30,44,-3
6420,252,8,-28,-25,40,-4
6425,253,6,-26,-21,36,-5
6430,250,4,-27,-18,31,-5
6435,252,8,-25,-14,29,-6
6440,255,6,-27,-9,25,-7
6445,253,8,-25,-7,22,-8
6450,252,7,-23,-3,20,-8
6455,254,8,-23,-4,20,-9
6460,250,8,-27,-4,18,-8
6465,251,7,-23,-7,18,-9
6470,253,9,-25,-10,18,-9
6475,251,9,-27,-15,19,-10
6480,252,8,-28,-23,18,-13
6485,254,8,-26,-28,17,-14
6490,252,7,-26,-34,17,-15
6495,253,6,-26,-40,16,-17
6500,253,7,-31,-46,16,-18
6505,254,8,-26,-52,17,-20
6510,253,8,-29,-56,17,-21
6515,254,7,-29,-60,19,-21
6520,256,10,-29,-61,21,-21
6525,258,5,-34,-59,22,-21
6530,256,8,-30,-58,23,-21
6535,258,8,-34,-61,23,-21
6540,257,11,-29,-59,23,-21
6545,258,9,-34,-59,22,-23
6550,256,10,-36,-57,18,-24
6555,259,8,-35,-53,15,-25
6560,258,6,-37,-48,11,-26
6565,259,8,-38,-40,7,-29
6570,257,12,-37,-35,8,-29
6575,258,9,-34,-31,9,-27
6580,257,10,-32,-27,11,-27
6585,256,7,-34,-26,15,-28
6590,256,10,-38,-25,19,-27
6595,255,9,-36,-26,24,-26
6600,258,10,-35,-30,26,-25
6605,256,8,-34,-33,28,-24
6610,256,8,-33,-37,30,-23
6615,253,10,-30,-38,30,-20
6620,256,8,-34,-39,30,-21
6625,258,8,-33,-39,29,-20
6630,256,9,-33,-38,28,-21
6635,253,9,-34,-37,26,-21
6640,255,9,-34,-37,26,-19
6645,255,6,-31,-39,26,-20
6650,254,10,-39,-42,28,-21
6655,255,9,-33,-45,31,-20
6660,257,9,-37,-47,35,-18
6665,255,11,-36,-52,41,-18
6670,255,9,-36,-56,45,-17
6675,257,9,-36,-58,52,-14
6680,256,8,-40,-60,59,-13
6685,255,10,-37,-62,65,-12
6690,255,10,-37,-63,71,-12
6695,256,10,-36,-62,76,-11
6700,256,8,-31,-62,80,-11
6705,256,10,-35,-62,86,-11
6710,255,10,-33,-62,88,-11
6715,258,9,-32,-62,91,-9
6720,255,11,-33,-62,93,-8
6725,256,9,-31,-62,93,-7
6730,257,10,-34,-62,94,-6
6735,255,9,-31,-60,97,-5
6740,257,9,-32,-59,97,-4
6745,256,9,-36,-58,99,-3
6750,256,9,-32,-58,100,-3
6755,254,8,-33,-60,101,-3
6760,253,9,-38,-64,102,-2
6765,255,10,-35,-70,103,-3
6770,258,10,-33,-75,102,-2
6775,256,10,-37,-77,103,-2
6780,257,10,-33,-77,103,0
6785,257,8,-32,-72,101,1
6790,257,9,-34,-65,100,2
6795,259,8,-36,-59,98,2
6800,256,8,-30,-53,97,4
6805,256,8,-34,-48,96,4
6810,258,8,-32,-45,95,5
6815,257,9,-31,-44,94,3
6820,258,8,-30,-46,91,1
6825,258,9,-29,-48,89,0
6830,258,8,-28,-52,86,-1
6835,256,9,-30,-55,82,-3
6840,258,10,-32,-56,79,-4
6845,259,9,-32,-57,75,-4
6850,257,10,-31,-61,69,-5
6855,257,9,-38,-65,67,-4
6860,258,10,-34,-64,63,-4
6865,250,15,-33,-63,60,-3
6870,259,8,-34,-62,57,-3
6875,257,8,-33,-58,57,-3
6880,255,7,-38,-54,58,-2
6885,258,8,-38,-49,58,-1
6890,255,8,-33,-46,59,-1
6895,255,8,-37,-43,62,-1
6900,255,8,-34,-41,61,0
6905,254,8,-36,-37,62,-1
6910,257,8,-33,-31,64,-2
6915,255,8,-35,-26,64,-1
6920,252,7,-30,-20,65,-3
6925,257,5,-32,-13,66,-4
6930,256,6,-33,-2,69,-5
6935,253,8,-32,6,69,-5
6940,254,8,-34,11,67,-7
6945,254,9,-32,18,66,-8
6950,254,8,-27,22,63,-9
6955,254,8,-27,22,56,-10
6960,255,7,-30,21,52,-13
6965,253,8,-25,19,46,-17
6970,252,8,-29,15,40,-21
6975,250,8,-32,10,30,-25
6980,254,8,-25,5,20,-29
6985,256,10,-21,0,9,-32
6990,255,8,-23,-5,-2,-36
6995,253,8,-25,-13,-14,-39
7000,254,9,-23,-20,-23,-46
7005,253,8,-27,-26,-32,-48
7010,252,10,-28,-32,-39,-51
7015,254,8,-21,-37,-46,-52
7020,255,8,-26,-42,-50,-52
7025,252,10,-23,-44,-50,-52
7030,255,8,-28,-47,-50,-50
7035,252,9,-30,-49,-52,-49
7040,254,9,-28,-51,-50,-48
7045,255,8,-29,-53,-50,-47
7050,255,9,-30,-54,-50,-47
7055,258,7,-33,-57,-51,-47
7060,257,8,-31,-58,-50,-46
7065,255,8,-31,-61,-51,-46
7070,256,9,-33,-65,-51,-46
7075,257,10,-37,-68,-52,-48
7080,256,8,-36,-73,-54,-50
7085,256,10,-37,-78,-56,-52
7090,255,7,-32,-83,-60,-56
7095,255,10,-38,-89,-63,-59
7100,257,10,-35,-96,-67,-63
7105,256,10,-36,-101,-72,-65
7110,254,9,-33,-106,-74,-67
7115,254,10,-34,-111,-75,-70
7120,256,10,-36,-111,-75,-72
7125,255,11,-41,-111,-75,-74
7130,252,11,-36,-107,-73,-75
7135,253,15,-38,-102,-69,-73
7140,255,10,-38,-98,-64,-71
7145,255,11,-38,-93,-59,-70
7150,254,13,-40,-86,-55,-68
7155,252,13,-36,-81,-51,-66
7160,257,8,-39,-77,-47,-65
7165,255,12,-45,-74,-45,-63
7170,255,13,-42,-76,-43,-61
7175,257,14,-42,-76,-40,-59
7180,255,11,-44,-74,-38,-57
7185,255,12,-42,-75,-34,-55
7190,254,13,-45,-73,-31,-53
7195,254,15,-44,-71,-28,-50
7200,255,12,-40,-67,-25,-49
7205,252,14,-45,-62,-22,-49
7210,253,12,-45,-59,-19,-45
7215,255,12,-40,-59,-17,-43
7220,251,13,-39,-62,-18,-44
7225,252,14,-39,-68,-20,-46
7230,253,13,-39,-77,-24,-48
7235,251,14,-34,-85,-29,-51
7240,253,15,-37,-95,-38,-54
7245,257,9,-32,-104,-48,-55
7250,255,15,-36,-111,-59,-59
7255,253,15,-34,-116,-70,-60
7260,256,16,-37,-115,-81,-60
7265,255,17,-40,-110,-95,-60
7270,256,15,-42,-98,-107,-57
7275,257,19,-45,-87,-117,-55
7280,258,20,-43,-78,-126,-52
7285,256,20,-43,-71,-135,-51
7290,261,19,-48,-67,-143,-50
7295,259,18,-44,-66,-151,-48
7300,263,18,-45,-70,-160,-47
7305,259,21,-49,-76,-168,-45
7310,259,22,-47,-86,-174,-44
7315,260,16,-48,-97,-178,-41
7320,258,18,-49,-104,-179,-41
7325,260,16,-46,-111,-177,-35
7330,259,14,-50,-114,-170,-30
7335,257,12,-49,-115,-160,-27
7340,259,14,-48,-110,-149,-21
7345,258,10,-51,-98,-139,-18
7350,258,11,-48,-81,-131,-15
7355,260,11,-51,-58,-125,-13
7360,257,10,-48,-33,-120,-9
7365,258,13,-49,-7,-117,-5
7370,256,12,-50,18,-115,-4
7375,256,12,-47,40,-115,1
7380,253,15,-51,55,-113,4
7385,252,14,-52,62,-107,8
7390,251,16,-50,63,-95,12
7395,247,19,-52,58,-83,18
7400,246,17,-48,53,-70,23
7405,248,15,-51,51,-63,26
7410,249,15,-50,51,-60,24
7415,250,16,-54,53,-61,23
7420,248,17,-52,53,-63,18
7425,249,16,-56,53,-67,17
7430,250,17,-59,51,-71,17
7435,250,17,-59,45,-72,18
7440,254,15,-58,38,-68,20
7445,254,14,-59,34,-61,21
7450,250,15,-59,29,-51,25
7455,250,12,-57,27,-43,27
7460,253,9,-59,28,-36,29
7465,254,12,-55,32,-30,31
7470,253,15,-61,36,-24,33
7475,251,13,-59,42,-19,33
7480,248,10,-59,49,-16,34
7485,250,11,-54,56,-15,31
7490,250,12,-57,63,-21,25
7495,250,11,-57,66,-31,16
7500,249,14,-57,68,-42,10
7505,249,12,-56,66,-55,5
7510,251,13,-57,65,-62,0
7515,251,14,-60,62,-66,0
7520,249,15,-48,61,-69,-2
7525,251,14,-58,65,-69,-1
7530,253,14,-60,75,-71,-2
7535,253,12,-65,85,-76,-6
7540,256,18,-67,96,-79,-10
7545,257,14,-72,106,-79,-13
7550,259,17,-76,111,-73,-17
7555,259,20,-77,115,-64,-21
7560,258,19,-81,119,-54,-24
7565,258,17,-84,121,-49,-29
7570,255,22,-85,117,-48,-36
7575,248,25,-91,111,-46,-44
7580,247,20,-93,106,-36,-52
7585,246,22,-96,105,-20,-60
7590,246,22,-103,104,3,-69
7595,244,24,-108,105,34,-71
7600,236,22,-102,102,68,-70
7605,237,20,-98,96,106,-65
7610,232,18,-92,93,145,-60
7615,229,21,-81,89,180,-56
7620,233,12,-76,82,213,-52
7625,235,11,-66,67,241,-52
7630,233,11,-64,43,263,-53
7635,241,8,-46,15,276,-53
7640,241,8,-40,-13,280,-52
7645,248,7,-28,-33,275,-50
7650,252,8,-23,-49,254,-47
7655,256,8,-24,-58,217,-47
7660,264,8,-24,-63,163,-48
7665,271,8,-31,-61,101,-50
7670,277,10,-40,-60,41,-50
7675,283,10,-48,-49,-12,-50
7680,280,18,-58,-33,-51,-48
7685,280,25,-62,-13,-74,-41
7690,273,25,-66,7,-83,-36
7695,269,31,-70,19,-78,-29
7700,262,34,-69,16,-64,-25
7705,258,38,-68,-4,-39,-22
7710,252,37,-66,-39,-3,-18
7715,249,37,-58,-87,37,-13
7720,246,30,-54,-139,77,-9
7725,242,28,-52,-181,112,-6
7730,240,23,-54,-204,135,-2
7735,239,16,-51,-212,153,-2
7740,239,14,-51,-205,165,1
7745,237,9,-53,-192,169,1
7750,241,8,-52,-172,165,-3
7755,243,4,-54,-152,157,-7
7760,245,8,-55,-135,150,-14
7765,250,6,-56,-119,145,-17
7770,250,3,-52,-103,141,-17
7775,255,8,-52,-84,139,-13
7780,256,9,-52,-61,136,-6
7785,256,10,-54,-40,135,0
7790,258,10,-45,-20,136,5
7795,259,11,-44,-1,139,11
7800,260,11,-44,14,140,17
7805,260,14,-44,26,139,25
7810,262,13,-43,32,137,33
7815,262,16,-44,42,137,39
7820,261,13,-56,57,137,42
7825,263,12,-58,84,133,42
7830,261,13,-70,116,127,38
7835,264,13,-77,152,116,26
7840,266,14,-86,181,103,10
7845,260,12,-90,198,95,-8
7850,262,16,-98,214,87,-31
7855,260,13,-98,236,71,-52
7860,258,11,-105,258,48,-79
7865,254,18,-105,267,28,-103
7870,257,18,-97,253,16,-123
7875,255,20,-88,215,12,-138
7880,258,22,-82,159,12,-147
7885,260,24,-62,89,24,-144
7890,258,27,-63,21,48,-133
7895,258,25,-56,-34,83,-114
7900,263,24,-39,-64,124,-91
7905,265,20,-34,-77,153,-71
7910,265,22,-37,-75,174,-56
7915,262,27,-22,-87,187,-40
7920,264,28,-22,-117,198,-24
7925,260,32,-48,-143,213,1
7930,263,42,-55,-177,238,50
7935,264,37,-38,-216,256,99
7940,254,37,-38,-221,261,136
7945,248,34,-50,-223,261,166
7950,241,34,-50,-226,257,188
7955,241,29,-58,-226,259,201
7960,240,31,-55,-231,268,203
7965,239,23,-56,-232,291,199
7970,240,16,-49,-235,322,193
7975,237,17,-53,-243,352,187
7980,240,13,-53,-261,379,177
7985,239,11,-54,-283,401,160
7990,245,11,-50,-302,422,142
7995,248,14,-48,-319,442,129
8000,252,14,-44,-337,456,116
8005,251,14,-50,-354,468,110
8010,260,25,-46,-369,474,108
8015,251,16,-44,-380,479,110
8020,250,16,-40,-386,476,112
8025,253,14,-46,-385,469,114
8030,252,14,-40,-378,462,114
8035,250,12,-44,-362,458,118
8040,252,9,-38,-340,454,127
8045,248,8,-30,-312,456,139
8050,248,8,-21,-282,461,147
8055,243,5,-17,-252,466,152
8060,245,8,-15,-227,469,147
8065,243,11,-8,-217,478,142
8070,241,17,-7,-223,497,139
8075,246,23,-3,-248,521,143
8080,247,26,6,-287,550,156
8085,249,27,8,-327,574,176
8090,251,25,16,-360,594,204
8095,250,22,14,-378,607,234
8100,243,17,19,-373,618,263
8105,246,8,16,-340,624,291
8110,242,3,13,-285,634,317
8115,241,-3,4,-212,652,338
8120,242,-10,-2,-139,667,354
8125,240,-14,-13,-76,688,359
8130,240,-12,-23,-31,721,353
8135,244,-11,-31,5,761,339
8140,245,-3,-39,41,792,321
8145,244,6,-42,74,811,306
8150,252,12,-41,99,816,292
8155,257,17,-42,105,806,270
8160,258,16,-40,79,775,249
8165,269,13,-35,33,726,236
8170,276,11,-28,-12,692,235
8175,274,6,-30,-44,680,240
8180,278,7,-22,-60,679,247
8185,272,9,-24,-70,692,259
8190,271,10,-26,-78,709,287
8195,265,13,-23,-88,709,313
8200,261,11,-18,-97,690,333
8205,261,13,-18,-100,670,339
8210,259,7,-12,-97,656,327
8215,254,10,-8,-89,642,305
8220,249,8,-10,-85,625,272
8225,246,10,2,-89,603,235
8230,246,9,-10,-112,579,210
8235,250,13,-10,-146,559,196
8240,252,14,-15,-192,552,199
8245,254,13,-16,-247,556,208
8250,253,9,-9,-305,559,218
8255,257,7,-4,-359,553,226
8260,258,6,-1,-411,543,230
8265,260,3,-5,-464,534,240
8270,264,-2,-3,-509,530,254
8275,266,-1,4,-541,527,269
8280,269,-3,2,-554,524,285
8285,273,-8,3,-553,516,302
8290,275,-9,-2,-545,510,311
8295,283,-11,-2,-530,503,313
8300,287,-12,-4,-514,485,316
8305,287,-12,-2,-487,452,309
8310,287,-8,-9,-454,417,301
8315,288,-2,-9,-421,398,290
8320,286,-1,-14,-403,410,284
8325,284,0,-15,-402,447,292
8330,280,2,-18,-418,490,307
8335,277,4,-18,-441,519,325
8340,278,-3,-17,-451,527,338
8345,269,-4,-14,-454,518,336
8350,269,-10,-5,-448,491,320
8355,271,-9,-6,-439,463,291
8360,270,-6,-7,-433,451,258
8365,270,1,-9,-441,448,240
8370,277,-2,-14,-458,458,240
8375,273,-13,-14,-472,475,250
8380,268,-20,-10,-467,482,259
8385,272,-30,-10,-439,475,267
8390,272,-37,-4,-393,464,264
8395,278,-38,-10,-334,457,254
8400,280,-39,-16,-270,463,248
8405,277,-43,-16,-217,478,249
8410,271,-48,-15,-170,496,249
8415,265,-49,-17,-118,512,244
8420,259,-52,-10,-58,525,238
8425,258,-52,-3,3,540,226
8430,258,-48,6,46,558,209
8435,261,-39,10,64,579,191
8440,262,-33,18,54,599,170
8445,267,-20,19,22,621,151
8450,264,-17,20,-14,647,140
8455,243,-17,42,-30,662,149
8460,265,12,17,12,632,211
8465,291,30,-11,27,639,313
8470,294,6,-6,-53,688,353
8475,274,-35,42,-138,705,259
8480,291,3,-10,-91,637,176
8485,283,0,-33,-51,655,208
8490,294,-19,-22,-126,775,244
8495,264,-42,2,-206,851,204
8500,252,-48,4,-200,836,161
8505,250,-38,-7,-134,818,194
8510,255,-30,-10,-53,819,275
8515,255,-27,-11,25,804,341
8520,254,-35,-11,95,766,366
8525,251,-33,-14,140,721,360
8530,251,-34,-12,161,682,344
8535,248,-35,-3,180,644,335
8540,250,-33,9,208,613,349
8545,247,-34,15,243,604,381
8550,248,-34,25,283,611,420
8555,243,-34,40,324,627,456
8560,243,-36,43,362,644,480
8565,240,-34,44,399,660,499
8570,240,-36,46,425,683,515
8575,230,-34,47,434,709,526
8580,221,-35,50,425,739,531
8585,218,-39,51,400,771,532
8590,215,-40,55,364,805,532
8595,213,-41,63,332,843,528
8600,217,-41,58,313,876,520
8605,225,-45,68,305,898,508
8610,220,-45,43,306,902,494
8615,239,-51,57,307,892,481
8620,242,-54,57,306,871,465
8625,246,-54,60,307,847,451
8630,255,-57,66,315,821,441
8635,258,-57,68,331,802,434
8640,262,-59,66,352,787,434
8645,264,-58,72,371,779,440
8650,260,-59,71,386,774,449
8655,252,-56,71,404,775,464
8660,242,-52,60,423,778,481
8665,232,-48,63,442,783,498
8670,229,-46,69,460,787,510
8675,222,-46,70,479,788,517
8680,220,-45,74,498,783,515
8685,219,-43,82,511,768,502
8690,219,-44,83,509,735,481
8695,220,-42,83,502,685,459
8700,224,-43,83,488,632,437
8705,227,-40,84,475,587,420
8710,229,-36,81,460,555,410
8715,228,-32,80,453,533,410
8720,224,-33,91,453,526,412
8725,227,-34,91,461,530,417
8730,231,-31,88,472,546,420
8735,234,-30,84,476,569,420
8740,229,-33,73,463,589,416
8745,228,-39,76,440,594,407
8750,227,-38,79,425,580,396
8755,233,-45,84,424,557,376
8760,236,-45,91,438,531,355
8765,242,-48,97,458,506,333
8770,253,-45,103,481,483,318
8775,256,-45,100,499,459,313
8780,258,-40,103,512,438,316
8785,258,-39,99,520,422,331
8790,256,-37,99,529,418,359
8795,252,-35,106,539,425,392
8800,246,-42,115,559,431,426
8805,239,-45,122,597,431,454
8810,234,-44,114,642,453,484
8815,223,-37,88,660,528,518
8820,211,-34,66,629,644,553
8825,194,-29,58,560,757,578
8830,184,-33,65,478,823,581
8835,181,-38,75,391,838,550
8840,186,-48,88,305,817,488
8845,192,-50,99,223,771,415
8850,201,-52,107,150,718,350
8855,213,-52,110,93,667,308
8860,220,-44,113,50,619,291
8865,227,-37,108,21,577,294
8870,231,-29,115,1,543,309
8875,234,-25,114,-11,520,333
8880,235,-18,115,-24,506,360
8885,241,-13,118,-39,501,387
8890,240,-8,125,-59,504,411
8895,240,-12,126,-79,510,434
8900,240,-11,125,-99,516,448
8905,235,-15,128,-117,518,457
8910,231,-17,126,-135,515,459
8915,228,-23,125,-153,510,460
8920,220,-28,123,-173,506,459
8925,213,-37,120,-196,499,456
8930,212,-39,121,-219,495,448
8935,211,-45,120,-242,488,437
8940,208,-58,124,-265,477,420
8945,211,-63,117,-281,462,402
8950,211,-68,107,-290,447,386
8955,214,-72,97,-304,442,376
8960,209,-78,98,-326,455,373
8965,203,-84,94,-346,488,376
8970,197,-93,98,-351,538,380
8975,196,-97,104,-335,593,382
8980,192,-101,109,-302,636,381
8985,192,-108,111,-254,665,377
8990,190,-107,118,-199,676,364
8995,189,-106,112,-143,666,344
9000,188,-102,116,-92,640,322
9005,190,-100,119,-42,607,301
9010,189,-96,120,1,574,281
9015,190,-96,119,38,543,266
9020,195,-97,119,68,516,258
9025,194,-98,125,91,492,254
9030,193,-96,122,116,470,249
9035,193,-101,123,149,450,244
9040,195,-102,124,191,432,241
9045,197,-102,128,242,414,239
9050,195,-110,126,295,402,237
9055,192,-104,127,346,392,234
9060,192,-102,130,389,387,230
9065,195,-104,130,417,390,233
9070,198,-105,127,436,390,239
9075,195,-100,120,450,383,237
9080,196,-97,122,460,373,227
9085,195,-97,121,471,355,213
9090,193,-94,119,479,335,198
9095,193,-93,116,485,320,183
9100,193,-89,115,487,310,168
9105,193,-88,113,484,306,157
9110,192,-84,118,476,306,148
9115,193,-85,117,467,309,143
9120,195,-85,120,461,317,140
9125,195,-82,120,458,329,137
9130,196,-81,123,460,338,133
9135,193,-73,132,461,340,127
9140,192,-74,133,461,341,123
9145,193,-73,132,451,344,131
9150,195,-68,136,431,352,138
9155,193,-69,135,405,360,135
9160,195,-66,138,373,362,125
9165,195,-68,137,343,351,111
9170,194,-64,136,321,329,88
9175,192,-64,135,313,295,63
9180,192,-64,136,320,258,34
9185,192,-65,137,336,219,6
9190,192,-64,134,351,185,-18
9195,195,-63,136,358,154,-37
9200,193,-66,133,352,120,-53
9205,193,-64,133,334,81,-66
9210,193,-67,129,311,38,-73
9215,191,-67,125,287,-1,-75
9220,192,-69,127,264,-31,-76
9225,189,-69,126,247,-52,-74
9230,190,-66,124,235,-68,-72
9235,190,-63,123,228,-76,-71
9240,190,-64,122,220,-78,-71
9245,191,-63,120,208,-74,-73
9250,194,-62,116,193,-66,-74
9255,192,-57,121,172,-55,-78
9260,196,-58,124,144,-40,-84
9265,195,-54,122,108,-26,-91
9270,195,-56,129,65,-13,-99
9275,199,-56,133,13,-7,-110
9280,206,-57,133,-47,-6,-118
9285,207,-61,134,-110,-4,-126
9290,210,-64,137,-169,-4,-136
9295,209,-63,140,-219,-10,-148
9300,212,-68,144,-256,-18,-158
9305,214,-70,147,-279,-27,-169
9310,214,-73,152,-291,-31,-180
9315,214,-72,150,-289,-26,-191
9320,215,-77,156,-278,-14,-202
9325,217,-78,156,-259,6,-206
9330,213,-76,155,-234,37,-207
9335,217,-80,152,-208,75,-206
9340,219,-80,152,-185,113,-202
9345,219,-77,148,-166,150,-199
9350,218,-76,149,-145,184,-193
9355,214,-76,142,-118,207,-187
9360,211,-81,147,-81,227,-182
9365,207,-76,141,-35,249,-181
9370,203,-77,134,17,276,-185
9375,208,-75,147,64,307,-192
9380,206,-73,150,104,344,-196
9385,211,-75,156,135,385,-204
9390,209,-77,153,158,428,-211
9395,209,-76,156,177,466,-214
9400,208,-78,159,189,496,-215
9405,207,-79,161,201,517,-215
9410,206,-80,157,213,535,-211
9415,217,-84,158,226,550,-210
9420,218,-79,153,241,572,-209
9425,217,-71,150,257,599,-202
9430,219,-65,144,271,632,-186
9435,216,-63,144,281,668,-162
9440,215,-62,143,288,706,-132
9445,216,-60,149,300,743,-99
9450,212,-63,153,318,783,-59
9455,214,-67,161,344,827,-11
9460,213,-67,168,370,875,43
9465,213,-66,170,403,925,97
9470,211,-66,171,432,973,148
9475,218,-70,177,461,1019,193
9480,218,-73,195,489,1064,233
9485,214,-71,188,521,1109,268
9490,213,-73,186,559,1142,298
9495,209,-73,188,602,1177,321
9500,205,-73,182,647,1209,342
9505,205,-71,182,692,1244,358
9510,199,-67,176,732,1280,369
9515,200,-70,175,763,1318,380
9520,191,-67,175,790,1362,390
9525,191,-73,174,812,1405,401
9530,185,-68,173,826,1447,413
9535,181,-67,177,829,1479,425
9540,177,-69,178,825,1500,433
9545,174,-60,180,818,1513,441
9550,168,-59,179,808,1525,450
9555,162,-54,186,795,1536,462
9560,158,-49,189,771,1542,476
9565,150,-45,187,735,1539,492
9570,147,-44,186,701,1529,513
9575,141,-42,185,671,1515,539
9580,139,-44,183,656,1503,567
9585,138,-45,186,659,1494,594
9590,129,-51,186,676,1485,622
9595,128,-42,193,703,1480,646
9600,125,-42,192,736,1479,671
9605,121,-39,188,770,1482,698
9610,121,-35,191,798,1484,721
9615,117,-28,187,819,1483,733
9620,116,-26,186,830,1478,744
9625,112,-22,184,826,1469,747
9630,112,-13,185,806,1454,747
9635,109,-8,181,772,1435,747
9640,108,-8,177,730,1420,744
9645,103,4,180,685,1404,738
9650,104,4,175,634,1391,730
9655,100,11,178,581,1382,719
9660,102,9,182,525,1380,704
9665,107,9,191,466,1379,690
9670,110,14,188,403,1379,677
9675,112,18,188,344,1374,662
9680,117,14,179,297,1361,664
9685,113,15,179,259,1341,651
9690,109,15,175,242,1306,634
9695,110,11,172,234,1258,615
9700,109,5,172,224,1206,594
9705,109,1,167,206,1155,577
9710,112,1,166,177,1114,562
9715,108,-4,164,137,1082,548
9720,99,-4,161,85,1056,533
9725,95,-6,166,30,1031,516
9730,91,-7,167,-28,1005,502
9735,89,-12,169,-85,976,490
9740,85,-16,172,-130,937,475
9745,82,-16,171,-170,884,459
9750,79,-18,174,-199,823,441
9755,77,-19,172,-219,758,422
9760,74,-20,177,-231,690,403
9765,74,-21,173,-244,622,383
9770,72,-26,174,-256,552,363
9775,71,-25,174,-268,475,340
9780,67,-26,172,-278,398,316
9785,63,-28,175,-283,318,292
9790,60,-31,178,-287,245,269
9795,56,-35,181,-288,179,243
9800,61,-38,187,-295,122,217
9805,57,-40,185,-308,73,186
9810,65,-38,192,-325,20,154
9815,67,-43,192,-351,-36,120
9820,73,-39,191,-380,-90,88
9825,86,-40,189,-413,-139,64
9830,94,-41,188,-448,-181,49
9835,102,-40,189,-481,-220,41
9840,115,-43,190,-515,-259,41
9845,125,-46,188,-550,-297,46
9850,133,-47,190,-580,-328,56
9855,140,-51,192,-603,-351,72
9860,146,-52,191,-622,-362,94
9865,153,-55,192,-632,-364,122
9870,154,-58,198,-635,-360,151
9875,162,-67,202,-633,-348,185
9880,159,-68,210,-630,-333,219
9885,158,-71,210,-626,-315,251
9890,156,-78,215,-623,-298,284
9895,149,-81,216,-622,-280,315
9900,141,-87,219,-625,-257,341
9905,136,-88,218,-634,-233,360
9910,130,-96,225,-649,-205,369
9915,129,-97,235,-665,-169,369
9920,129,-107,235,-675,-122,362
9925,134,-120,257,-665,-58,345
9930,154,-132,281,-618,29,315
9935,188,-146,301,-519,154,277
9940,211,-155,323,-376,320,255
9945,222,-160,337,-213,497,246
9950,223,-159,342,-65,634,238
9955,215,-149,342,54,698,228
9960,211,-136,318,143,682,216
9965,200,-121,294,199,604,210
9970,176,-108,266,220,498,220
9975,145,-94,242,207,388,253
9980,114,-86,222,167,295,302
9985,86,-78,204,112,223,350
9990,61,-73,194,50,172,379
9995,42,-68,190,-11,140,389
10000,29,-64,191,-58,133,390
10005,21,-56,196,-83,149,381
10010,20,-54,199,-88,186,367
10015,23,-52,203,-70,238,350
10020,29,-46,208,-35,304,331
10025,35,-40,205,15,377,316
10030,41,-31,207,69,453,303
10035,50,-30,206,118,521,296
10040,56,-27,200,156,579,290
10045,63,-31,194,180,624,283
10050,69,-33,196,190,655,286
10055,78,-42,192,189,673,286
10060,86,-45,197,186,681,287
10065,90,-54,199,176,678,283
10070,97,-62,205,162,663,281
10075,98,-66,207,141,640,274
10080,103,-77,207,115,614,264
10085,107,-83,209,85,588,251
10090,107,-85,210,47,569,229
10095,108,-86,208,7,559,199
10100,108,-88,207,-41,552,165
10105,106,-90,210,-91,548,124
10110,105,-85,207,-142,542,84
10115,102,-88,212,-186,530,47
10120,105,-82,215,-222,511,21
10125,98,-78,214,-251,492,-6
10130,98,-77,219,-271,479,-25
10135,90,-75,227,-282,485,-36
10140,87,-74,224,-284,514,-38
10145,78,-68,226,-279,563,-39
10150,72,-70,226,-267,621,-40
10155,69,-70,232,-242,677,-34
10160,65,-72,237,-205,721,-27
10165,63,-69,235,-156,754,-14
10170,60,-74,235,-100,777,-2
10175,62,-74,233,-45,798,8
10180,60,-76,236,5,814,16
10185,58,-72,239,47,819,21
10190,57,-76,242,76,811,20
10195,57,-74,240,91,791,14
10200,55,-75,247,91,765,4
10205,57,-74,247,77,737,-4
10210,55,-71,247,51,704,-9
10215,55,-72,243,18,670,-8
10220,58,-77,237,-22,641,-4
10225,56,-77,235,-66,623,0
10230,55,-82,227,-107,619,5
10235,51,-91,227,-143,631,10
10240,46,-93,217,-166,646,13
10245,42,-103,223,-175,660,11
10250,38,-108,221,-168,670,7
10255,37,-112,220,-145,677,-2
10260,32,-111,217,-118,687,-11
10265,31,-115,217,-89,704,-24
10270,23,-114,214,-63,724,-36
10275,22,-112,214,-39,744,-52
10280,19,-112,213,-19,759,-67
10285,20,-112,213,-4,765,-85
10290,19,-108,221,5,760,-105
10295,19,-110,220,9,745,-125
10300,21,-105,228,10,719,-144
10305,23,-101,230,7,689,-160
10310,27,-98,234,3,657,-174
10315,30,-91,240,-5,628,-183
10320,32,-91,243,-15,598,-189
10325,30,-85,240,-28,575,-190
10330,30,-85,239,-42,555,-188
10335,32,-77,235,-60,540,-184
10340,35,-78,239,-79,535,-180
10345,35,-73,235,-98,534,-175
10350,31,-74,237,-116,542,-169
10355,31,-71,234,-128,555,-161
10360,31,-76,231,-136,569,-155
10365,26,-79,234,-137,583,-148
10370,20,-84,232,-129,589,-142
10375,19,-87,231,-114,586,-133
10380,12,-90,230,-93,574,-128
10385,12,-88,232,-70,555,-125
10390,6,-92,231,-43,535,-122
10395,6,-93,228,-16,514,-118
10400,5,-93,226,13,495,-115
10405,6,-93,228,40,480,-116
10410,3,-90,230,64,467,-115
10415,1,-90,231,83,455,-114
10420,3,-89,233,95,445,-118
10425,4,-88,233,106,441,-121
10430,3,-85,234,113,442,-124
10435,2,-81,232,116,448,-128
10440,5,-82,229,111,454,-129
10445,9,-81,229,100,456,-132
10450,7,-81,228,81,454,-133
10455,7,-78,231,60,446,-140
10460,8,-84,222,39,435,-147
10465,12,-74,225,22,416,-157
10470,13,-78,220,11,395,-164
10475,13,-77,223,6,373,-169
10480,13,-75,227,6,347,-174
10485,13,-76,226,10,324,-177
10490,11,-76,230,16,304,-179
10495,13,-73,228,23,289,-177
10500,10,-72,227,31,275,-174
10505,11,-70,228,40,266,-168
10510,8,-73,227,45,258,-161
10515,5,-71,231,52,250,-153
10520,7,-71,232,60,237,-146
10525,1,-73,234,72,226,-137
10530,0,-77,234,84,210,-130
10535,-1,-74,233,102,198,-126
10540,-1,-71,230,121,188,-121
10545,1,-72,235,141,183,-117
10550,0,-74,232,160,181,-114
10555,2,-71,232,168,181,-115
10560,2,-68,233,167,179,-117
10565,7,-65,232,151,178,-121
10570,9,-62,231,120,174,-123
10575,14,-67,234,81,172,-127
10580,19,-67,236,37,168,-129
10585,21,-67,235,-5,159,-128
10590,19,-71,238,-41,149,-127
10595,25,-74,239,-65,134,-126
10600,25,-79,239,-80,115,-126
10605,27,-79,238,-79,99,-124
10610,28,-79,238,-68,82,-121
10615,27,-85,239,-47,73,-125
10620,31,-86,240,-19,68,-127
10625,29,-81,237,9,70,-131
10630,30,-80,233,31,75,-133
10635,31,-82,234,48,84,-137
10640,27,-77,235,53,96,-138
10645,29,-80,231,47,106,-139
10650,29,-81,234,37,113,-140
10655,29,-82,231,20,117,-138
10660,27,-86,232,6,117,-137
10665,29,-88,229,-6,119,-135
10670,27,-90,231,-9,125,-131
10675,29,-91,233,-4,129,-126
10680,23,-89,233,9,135,-118
10685,22,-89,234,31,138,-111
10690,21,-86,232,62,141,-104
10695,23,-85,234,87,139,-97
10700,17,-83,235,116,139,-92
10705,18,-80,235,139,140,-87
10710,20,-76,233,156,147,-83
10715,21,-72,234,165,157,-79
10720,19,-67,234,167,171,-77
10725,19,-65,233,163,184,-71
10730,18,-65,234,150,191,-65
10735,19,-64,234,130,200,-60
10740,20,-60,236,101,205,-51
10745,16,-61,236,70,211,-40
10750,19,-63,233,39,215,-26
10755,16,-64,234,11,220,-19
10760,18,-65,234,-8,223,-10
10765,16,-66,238,-20,227,0
10770,20,-67,238,-17,228,8
10775,19,-70,238,-5,229,17
10780,20,-69,242,14,229,18
10785,20,-66,238,36,226,21
10790,21,-68,233,57,221,18
10795,21,-65,236,73,215,19
10800,24,-66,233,84,206,18
10805,20,-60,233,93,199,15
10810,22,-58,227,99,194,9
10815,21,-60,230,101,190,6
10820,21,-59,229,94,187,2
10825,22,-58,230,78,187,1
10830,24,-56,230,62,193,4
10835,22,-53,230,51,197,8
10840,23,-55,228,22,205,13
10845,21,-60,232,-11,212,25
10850,21,-65,229,-34,217,43
10855,23,-73,231,-34,229,61
10860,20,-80,227,-14,246,76
10865,17,-77,226,16,269,88
10870,14,-83,231,48,292,102
10875,11,-81,230,75,310,118
10880,6,-85,230,97,326,136
10885,4,-82,229,107,342,156
10890,3,-82,232,102,358,174
10895,0,-81,234,85,370,189
10900,0,-79,233,60,376,196
10905,0,-77,233,31,375,200
10910,0,-75,232,-2,368,201
10915,1,-78,229,-28,365,200
10920,2,-77,223,-42,362,198
10925,3,-85,226,-37,358,194
10930,1,-87,226,-17,350,191
10935,0,-86,224,16,335,186
10940,-2,-88,231,61,311,179
10945,-3,-85,230,114,276,170
10950,-9,-81,231,170,238,159
10955,-12,-77,235,221,196,145
10960,-10,-72,236,264,157,132
10965,-9,-66,237,295,120,119
10970,-3,-61,235,317,90,107
10975,0,-59,240,328,68,99
10980,-2,-56,240,323,50,93
10985,0,-53,237,306,41,85
10990,1,-56,237,281,36,79
10995,2,-57,240,254,35,76
11000,5,-56,239,227,38,73
11005,3,-55,235,205,41,69
11010,1,-58,233,188,45,67
11015,1,-57,239,172,50,66
11020,3,-63,237,155,58,68
11025,-2,-59,233,134,64,73
11030,-2,-63,235,113,70,78
11035,-3,-63,235,92,75,86
11040,-8,-65,237,70,81,94
11045,-11,-64,238,50,85,98
11050,-17,-67,237,33,87,99
11055,-17,-68,233,22,92,101
11060,-18,-69,238,16,96,102
11065,-18,-69,239,17,101,102
11070,-16,-69,242,26,110,100
11075,-16,-70,242,35,122,102
11080,-16,-72,243,51,134,101
11085,-13,-68,241,66,147,98
11090,-10,-72,242,80,157,94
11095,-10,-65,243,90,166,91
11100,-5,-66,243,95,170,87
11105,-6,-62,241,96,170,84
11110,-1,-61,240,95,166,79
11115,-5,-61,244,90,155,76
11120,-3,-60,238,84,142,72
11125,-3,-56,242,79,126,65
11130,0,-56,238,75,107,61
11135,0,-56,239,69,88,58
11140,0,-57,238,62,69,54
11145,1,-57,235,56,51,52
11150,-3,-54,233,50,35,45
11155,-3,-55,234,44,18,39
11160,-5,-55,235,39,1,34
11165,-4,-55,227,33,-15,26
11170,-2,-58,231,28,-32,19
11175,-4,-58,235,22,-48,14
11180,-1,-56,230,22,-62,9
11185,-3,-57,232,30,-76,2
11190,-3,-57,235,39,-88,-4
11195,-2,-58,236,46,-97,-9
11200,-1,-58,238,48,-101,-12
11205,-2,-59,239,51,-102,-12
11210,0,-59,242,58,-101,-12
11215,-2,-60,243,69,-98,-10
11220,1,-56,247,82,-96,-7
11225,13,-51,248,93,-96,-3
11230,0,-54,241,98,-97,1
11235,3,-55,247,98,-99,7
11240,2,-53,242,89,-98,12
11245,0,-49,244,73,-100,16
11250,1,-53,242,51,-99,19
11255,4,-54,239,26,-100,21
11260,8,-53,241,0,-96,22
11265,8,-50,237,-27,-90,23
11270,10,-53,240,-55,-83,25
11275,9,-53,237,-81,-76,27
11280,10,-54,238,-106,-66,29
11285,13,-53,242,-129,-57,29
11290,15,-55,240,-144,-48,32
11295,15,-56,242,-148,-39,33
11300,13,-57,243,-148,-28,34
11305,15,-57,244,-140,-18,35
11310,14,-58,241,-128,-7,41
11315,14,-59,246,-114,1,42
11320,13,-60,245,-100,9,45
11325,13,-55,245,-84,13,46
11330,11,-58,239,-70,18,47
11335,10,-56,240,-56,22,50
11340,11,-57,242,-44,24,51
11345,9,-55,243,-35,25,51
11350,6,-54,238,-29,25,52
11355,6,-57,244,-26,22,51
11360,8,-56,241,-22,18,50
11365,8,-57,243,-23,12,49
11370,7,-54,242,-23,5,48
11375,8,-57,248,-24,-2,46
11380,10,-58,240,-26,-7,46
11385,11,-58,244,-25,-14,47
11390,10,-58,243,-22,-20,47
11395,13,-59,241,-16,-25,49
11400,17,-61,240,-9,-28,52
11405,19,-63,241,0,-29,53
11410,18,-60,243,10,-27,54
11415,17,-62,237,19,-25,52
11420,19,-64,238,30,-18,54
11425,22,-64,236,38,-9,54
11430,21,-64,236,42,0,53
11435,27,-66,240,44,6,51
11440,20,-66,240,43,8,51
11445,20,-63,235,36,7,50
11450,16,-64,238,27,2,48
11455,15,-65,238,20,-2,46
11460,18,-62,238,15,-6,46
11465,19,-62,236,14,-11,44
11470,17,-60,236,12,-12,43
11475,19,-62,234,12,-10,42
11480,19,-63,234,11,-3,43
11485,12,-60,232,12,6,44
11490,11,-58,231,8,21,45
11495,11,-58,229,5,41,46
11500,10,-58,231,-2,61,44
11505,10,-57,232,-9,79,43
11510,8,-55,231,-17,96,42
11515,8,-59,236,-25,108,38
11520,6,-57,236,-33,114,33
11525,2,-58,236,-37,114,29
11530,3,-59,238,-41,111,22
11535,6,-60,239,-41,107,16
11540,5,-61,238,-39,101,10
11545,6,-57,238,-38,98,4
11550,7,-63,239,-38,99,-1
11555,7,-60,235,-40,103,-5
11560,11,-63,232,-46,112,-10
11565,10,-61,233,-56,127,-14
11570,10,-59,230,-69,144,-18
11575,12,-59,224,-83,162,-21
11580,9,-59,229,-99,180,-24
11585,7,-58,227,-116,197,-28
11590,7,-59,227,-132,209,-33
11595,8,-59,233,-143,216,-38
11600,6,-57,235,-150,219,-45
11605,5,-61,237,-157,218,-52
11610,3,-61,239,-159,211,-56
11615,4,-61,239,-153,198,-62
11620,3,-66,246,-142,183,-67
11625,1,-65,246,-123,168,-73
11630,3,-64,248,-105,151,-77
11635,3,-65,247,-87,138,-79
11640,3,-66,245,-64,127,-82
11645,4,-66,245,-44,119,-82
11650,2,-63,242,-24,115,-82
11655,4,-63,246,-9,114,-79
11660,10,-59,254,0,116,-78
11665,7,-61,244,9,118,-74
11670,9,-57,242,13,120,-72
11675,8,-59,242,12,127,-71
11680,7,-58,241,9,132,-70
11685,12,-59,238,3,139,-67
11690,11,-58,242,0,145,-68
11695,13,-59,239,-7,149,-68
11700,8,-63,239,-13,157,-68
11705,11,-60,237,-20,164,-70
11710,9,-60,241,-25,168,-73
11715,9,-60,238,-28,174,-75
11720,8,-59,237,-29,179,-78
11725,11,-60,237,-31,181,-81
11730,9,-62,240,-30,183,-82
11735,7,-63,238,-27,185,-85
11740,4,-63,241,-21,184,-87
11745,8,-62,240,-14,183,-88
11750,4,-63,237,-8,182,-88
11755,8,-65,239,0,180,-85
11760,7,-64,238,7,177,-82
11765,4,-66,236,12,173,-78
11770,8,-65,230,19,167,-74
11775,5,-62,238,28,162,-68
11780,4,-65,237,37,156,-62
11785,6,-68,236,48,152,-55
11790,6,-65,238,61,144,-49
11795,3,-65,240,75,138,-42
11800,4,-66,238,90,133,-38
11805,8,-66,241,104,128,-32
11810,2,-63,237,118,125,-28
11815,5,-62,234,128,125,-24
11820,6,-63,237,135,122,-18
11825,3,-61,238,136,120,-13
11830,6,-60,236,132,118,-9
11835,2,-56,239,126,114,-9
11840,2,-56,234,114,110,-6
11845,4,-56,234,100,105,-7
11850,1,-56,236,85,99,-4
11855,2,-58,235,66,93,-2
11860,1,-55,235,46,87,0
11865,1,-55,236,26,82,1
11870,0,-55,235,8,78,3
11875,1,-55,232,-5,74,5
11880,-1,-59,235,-18,72,6
11885,2,-57,237,-24,69,10
11890,1,-59,236,-25,69,13
11895,1,-59,236,-20,69,16
11900,1,-61,237,-11,68,21
11905,0,-60,237,2,67,25
11910,0,-58,235,20,65,29
11915,-1,-57,237,40,66,33
11920,1,-59,237,59,63,37
11925,0,-59,238,78,61,41
11930,0,-59,239,95,59,44
11935,-2,-57,239,111,58,45
11940,0,-57,239,123,56,44
11945,0,-57,240,131,56,43
11950,-2,-55,240,135,53,42
11955,-1,-54,244,134,50,39
11960,-2,-53,241,131,48,37
11965,0,-55,243,123,43,36
11970,0,-53,241,114,36,34
11975,0,-55,241,104,30,29
11980,0,-54,243,93,25,27
11985,-2,-54,246,83,20,25
11990,1,-55,241,72,16,21
11995,-1,-53,242,62,13,19
