timestamp,acc_x,acc_y,acc_z,gyro_x,gyro_y,gyro_z
0,-29,-95,224,-21,6,-15
5,-34,-94,225,-24,7,-15
10,-34,-97,225,-25,10,-13
15,-33,-99,222,-26,10,-12
20,-31,-95,227,-28,10,-15
25,-34,-101,220,-29,10,-13
30,-33,-97,223,-29,12,-15
35,-32,-95,227,-31,14,-14
40,-32,-94,226,-30,14,-13
45,-28,-99,227,-30,12,-13
50,-31,-95,224,-30,11,-13
55,-32,-97,227,-30,11,-13
60,-35,-96,226,-32,10,-14
65,-32,-97,232,-30,9,-15
70,-30,-97,234,-30,8,-14
75,-31,-99,222,-28,6,-14
80,-33,-99,232,-27,5,-16
85,-30,-99,221,-24,2,-15
90,-32,-101,229,-20,0,-15
95,-31,-104,223,-15,0,-14
100,-28,-104,225,-10,-1,-14
105,-33,-102,226,-1,0,-14
110,-31,-103,223,7,-3,-13
115,-31,-102,225,14,0,-13
120,-31,-97,218,23,1,-10
125,-26,-104,225,28,2,-12
130,-35,-96,217,32,2,-14
135,-31,-99,224,33,2,-13
140,-29,-97,226,32,1,-13
145,-28,-98,221,33,0,-12
150,-30,-99,221,32,0,-12
155,-31,-98,225,27,-1,-13
160,-29,-98,224,24,-2,-14
165,-32,-94,227,19,-3,-13
170,-29,-98,218,14,-3,-15
175,-27,-96,222,9,-3,-13
180,-30,-100,225,4,-2,-11
185,-30,-98,223,-2,0,-11
190,-28,-96,222,-8,-1,-10
195,-28,-101,227,-11,2,-10
200,-29,-98,224,-19,3,-10
205,-30,-97,226,-24,5,-10
210,-31,-99,226,-26,6,-10
215,-31,-94,224,-31,7,-12
220,-29,-104,227,-32,8,-11
225,-35,-97,225,-34,7,-12
230,-31,-102,226,-34,6,-12
235,-28,-104,228,-33,5,-10
240,-33,-102,230,-33,6,-11
245,-31,-99,226,-30,6,-13
250,-30,-102,223,-26,4,-13
255,-29,-105,227,-24,5,-12
260,-29,-104,227,-20,3,-12
265,-30,-104,223,-18,1,-12
270,-32,-102,225,-14,0,-11
275,-31,-104,224,-10,1,-12
280,-29,-101,223,-8,0,-14
285,-32,-100,222,-6,-1,-13
290,-31,-101,221,-3,-2,-14
295,-31,-103,227,-2,-1,-13
300,-32,-102,222,-1,-2,-13
305,-29,-103,223,2,-2,-13
310,-33,-101,221,4,-2,-11
315,-30,-101,221,4,-1,-13
320,-29,-101,221,5,-3,-13
325,-30,-100,219,4,-4,-12
330,-30,-103,219,2,-1,-12
335,-30,-100,223,-1,-2,-12
340,-29,-103,223,-3,-1,-12
345,-28,-106,223,-5,1,-12
350,-24,-100,226,-8,1,-12
355,-28,-105,224,-12,1,-12
360,-31,-104,225,-13,2,-13
365,-27,-104,222,-14,2,-12
370,-30,-103,225,-15,1,-12
375,-28,-104,227,-17,3,-12
380,-29,-102,222,-18,5,-12
385,-31,-106,221,-18,8,-13
390,-33,-103,223,-18,8,-12
395,-31,-105,224,-18,9,-12
400,-27,-104,221,-13,9,-13
405,-32,-95,224,-10,11,-12
410,-31,-103,223,-7,11,-12
415,-30,-108,221,-3,11,-12
420,-32,-107,220,3,10,-12
425,-29,-108,224,7,9,-11
430,-33,-105,223,10,9,-11
435,-28,-102,220,15,7,-11
440,-28,-108,219,18,5,-12
445,-29,-105,224,21,4,-11
450,-30,-104,220,23,3,-10
455,-28,-107,215,23,2,-9
460,-29,-104,224,23,3,-11
465,-31,-107,224,22,2,-8
470,-33,-104,223,19,1,-11
475,-30,-107,224,15,2,-12
480,-28,-104,220,13,3,-11
485,-28,-105,220,8,2,-11
490,-27,-104,222,4,1,-12
495,-28,-105,223,2,2,-14
500,-29,-106,222,-1,2,-14
505,-27,-106,222,-2,1,-13
510,-28,-104,220,-3,1,-13
515,-31,-108,221,-3,0,-12
520,-29,-102,223,-4,1,-13
525,-28,-106,220,-5,-1,-13
530,-27,-103,224,-5,-1,-13
535,-30,-105,222,-5,-1,-12
540,-29,-105,221,-5,0,-12
545,-31,-104,215,-7,-5,-12
550,-26,-107,219,-7,-3,-11
555,-28,-105,222,-4,0,-10
560,-26,-106,226,-1,1,-11
565,-29,-105,221,3,3,-11
570,-28,-105,222,6,3,-11
575,-27,-106,222,9,4,-9
580,-28,-107,222,12,4,-11
585,-31,-107,220,14,3,-10
590,-29,-105,225,15,2,-10
595,-28,-110,220,16,0,-12
600,-28,-106,221,19,-1,-10
605,-27,-110,224,18,-2,-11
610,-27,-108,222,19,-3,-12
615,-29,-108,224,20,-6,-10
620,-27,-106,222,19,-8,-12
625,-29,-107,221,16,-9,-12
630,-28,-104,223,14,-11,-12
635,-29,-102,223,10,-11,-12
640,-29,-109,223,7,-9,-12
645,-30,-110,224,5,-8,-11
650,-29,-109,222,2,-7,-11
655,-28,-106,219,-3,-6,-10
660,-27,-107,222,-8,-4,-11
665,-30,-112,220,-12,-3,-10
670,-27,-109,225,-16,0,-12
675,-29,-104,209,-19,2,-11
680,-28,-107,224,-22,3,-12
685,-31,-106,224,-24,5,-12
690,-28,-109,221,-26,8,-11
695,-30,-108,223,-27,8,-11
700,-29,-107,219,-29,10,-12
705,-27,-107,223,-29,10,-12
710,-28,-104,223,-27,10,-11
715,-28,-107,218,-24,9,-10
720,-30,-109,218,-18,7,-10
725,-28,-110,224,-13,5,-12
730,-27,-111,219,-6,4,-12
735,-30,-109,220,-2,2,-12
740,-30,-108,223,3,2,-14
745,-27,-107,219,8,0,-15
750,-29,-110,223,14,-2,-14
755,-27,-113,219,19,-3,-15
760,-26,-110,223,23,-4,-14
765,-25,-111,223,26,-5,-14
770,-29,-110,219,27,-6,-14
775,-27,-108,216,31,-5,-14
780,-32,-109,222,34,-3,-14
785,-27,-111,222,38,-1,-13
790,-29,-109,222,42,0,-13
795,-24,-112,217,45,0,-13
800,-24,-113,218,47,2,-11
805,-26,-111,219,47,2,-12
810,-25,-109,214,48,5,-13
815,-27,-108,215,44,5,-9
820,-25,-107,216,44,5,-11
825,-28,-108,220,41,6,-12
830,-28,-106,219,38,4,-11
835,-30,-105,220,36,4,-12
840,-17,-111,226,32,3,-12
845,-26,-107,217,31,3,-10
850,-27,-106,216,29,1,-12
855,-27,-109,220,25,2,-12
860,-25,-108,219,20,3,-10
865,-27,-107,219,16,4,-10
870,-26,-111,219,14,5,-10
875,-24,-109,219,9,5,-10
880,-25,-110,219,7,6,-10
885,-27,-107,219,6,7,-10
890,-27,-110,218,6,7,-11
895,-27,-114,221,5,9,-13
900,-24,-112,219,8,9,-11
905,-27,-111,223,11,10,-11
910,-26,-111,219,14,10,-13
915,-27,-110,216,17,9,-12
920,-25,-109,219,24,11,-12
925,-29,-108,216,30,10,-11
930,-30,-110,217,38,9,-10
935,-28,-107,213,45,8,-9
940,-28,-109,213,54,8,-9
945,-26,-107,215,63,9,-7
950,-27,-106,223,70,8,-6
955,-25,-107,218,79,11,-8
960,-26,-106,213,86,11,-6
965,-28,-106,218,94,12,-6
970,-28,-107,217,99,13,-5
975,-28,-107,216,106,15,-7
980,-27,-108,213,113,15,-6
985,-26,-109,221,117,17,-4
990,-28,-107,212,121,17,-5
995,-26,-110,214,129,17,-4
1000,-28,-110,209,132,17,-4
1005,-35,-114,212,138,16,-5
1010,-23,-112,220,145,17,-6
1015,-26,-110,216,151,18,-5
1020,-28,-111,218,157,18,-7
1025,-26,-110,221,163,19,-7
1030,-30,-112,219,166,18,-7
1035,-30,-109,218,169,20,-6
1040,-31,-109,220,169,21,-5
1045,-30,-107,227,166,23,-7
1050,-29,-110,221,165,24,-6
1055,-27,-110,220,161,26,-6
1060,-27,-110,222,157,27,-7
1065,-29,-107,221,150,29,-5
1070,-27,-108,222,145,31,-5
1075,-26,-107,223,140,32,-4
1080,-28,-107,224,137,33,-5
1085,-27,-109,219,136,34,-3
1090,-26,-108,220,137,33,-2
1095,-29,-104,216,141,34,-4
1100,-25,-109,219,144,33,-4
1105,-29,-106,222,150,33,-3
1110,-30,-109,225,156,33,-5
1115,-27,-106,225,161,33,-5
1120,-29,-107,219,166,32,-6
1125,-28,-110,218,171,31,-5
1130,-29,-104,224,178,30,-4
1135,-27,-104,222,179,29,-5
1140,-27,-104,220,181,28,-6
1145,-27,-105,222,182,28,-6
1150,-25,-106,222,183,28,-7
1155,-29,-104,222,181,27,-7
1160,-33,-102,224,178,27,-7
1165,-29,-102,221,175,27,-8
1170,-30,-102,222,171,27,-8
1175,-27,-102,222,168,28,-9
1180,-27,-105,226,163,28,-9
1185,-29,-97,224,158,29,-8
1190,-28,-103,222,153,29,-9
1195,-25,-99,220,151,30,-8
1200,-27,-103,223,148,32,-8
1205,-33,-99,229,145,34,-7
1210,-31,-102,224,145,36,-8
1215,-28,-102,226,144,39,-7
1220,-26,-107,221,146,42,-8
1225,-31,-101,225,147,42,-6
1230,-27,-103,227,147,42,-8
1235,-28,-103,223,148,42,-6
1240,-32,-100,225,148,42,-8
1245,-28,-103,224,149,44,-8
1250,-25,-105,223,153,43,-5
1255,-31,-102,224,152,43,-5
1260,-33,-99,222,153,43,-6
1265,-29,-100,223,153,42,-5
1270,-31,-106,223,155,39,-7
1275,-28,-108,228,154,37,-4
1280,-25,-104,221,154,36,-2
1285,-27,-103,225,153,34,-2
1290,-31,-99,225,151,33,-3
1295,-27,-99,225,148,30,-3
1300,-30,-99,229,146,29,-3
1305,-29,-103,225,143,29,-3
1310,-27,-99,225,140,28,-3
1315,-27,-101,227,138,30,-4
1320,-27,-100,224,134,30,-6
1325,-30,-98,222,132,31,-5
1330,-36,-102,223,130,32,-6
1335,-28,-103,223,129,32,-5
1340,-31,-102,224,128,32,-7
1345,-31,-100,224,128,33,-8
1350,-32,-100,226,126,32,-7
1355,-32,-99,226,123,33,-5
1360,-30,-101,224,125,33,-6
1365,-31,-99,222,124,34,-7
1370,-32,-99,224,124,35,-7
1375,-28,-97,222,122,33,-7
1380,-30,-102,223,123,33,-9
1385,-35,-101,222,123,32,-8
1390,-28,-99,222,120,31,-9
1395,-32,-98,228,121,30,-10
1400,-30,-98,222,120,29,-10
1405,-27,-95,229,118,30,-9
1410,-33,-97,226,115,29,-11
1415,-31,-101,228,113,29,-10
1420,-31,-95,224,110,29,-11
1425,-30,-99,227,107,31,-10
1430,-29,-100,230,101,32,-10
1435,-31,-95,225,96,34,-10
1440,-32,-94,227,92,36,-11
1445,-26,-100,231,89,41,-10
1450,-27,-97,226,89,45,-11
1455,-26,-100,226,90,47,-13
1460,-28,-100,230,92,51,-14
1465,-29,-103,225,97,51,-16
1470,-28,-98,226,101,54,-19
1475,-25,-100,226,104,56,-20
1480,-24,-102,224,107,59,-25
1485,-25,-99,224,107,62,-29
1490,-23,-102,226,108,66,-35
1495,-29,-98,220,109,69,-39
1500,-23,-103,225,110,69,-46
1505,-24,-106,227,112,73,-53
1510,-21,-104,231,116,77,-60
1515,-20,-102,226,121,79,-68
1520,-16,-105,227,121,81,-75
1525,-20,-104,228,122,86,-83
1530,-17,-107,229,117,90,-88
1535,-18,-105,230,112,94,-97
1540,-18,-105,235,105,101,-106
1545,-17,-110,236,97,110,-116
1550,-20,-109,230,88,119,-126
1555,-17,-109,230,82,128,-137
1560,-15,-112,234,78,137,-145
1565,-18,-110,236,77,146,-155
1570,-21,-110,230,73,151,-163
1575,-18,-114,235,71,160,-170
1580,-18,-110,239,69,166,-178
1585,-23,-110,235,67,173,-183
1590,-18,-108,229,59,180,-187
1595,-17,-106,230,49,188,-189
1600,-12,-109,230,34,194,-189
1605,-18,-102,229,21,202,-188
1610,-17,-106,230,8,210,-185
1615,-18,-104,229,-4,214,-184
1620,-18,-107,229,-17,213,-186
1625,-14,-108,228,-37,211,-188
1630,-21,-104,224,-56,213,-188
1635,-19,-107,223,-74,215,-193
1640,-23,-109,225,-86,217,-199
1645,-20,-110,225,-92,214,-192
1650,-17,-112,225,-90,211,-186
1655,-27,-110,223,-88,208,-194
1660,-26,-112,223,-78,206,-206
1665,-30,-112,225,-56,199,-218
1670,-28,-110,225,-21,181,-223
1675,-34,-108,229,24,158,-219
1680,-41,-109,225,76,131,-213
1685,-58,-103,223,123,96,-214
1690,-78,-100,228,166,53,-225
1695,-85,-97,229,213,5,-233
1700,-77,-93,226,270,-59,-242
1705,-62,-87,230,322,-129,-250
1710,-46,-87,224,357,-192,-253
1715,-45,-80,228,367,-234,-260
1720,-44,-84,223,354,-261,-268
1725,-45,-86,227,329,-286,-284
1730,-50,-89,226,303,-311,-296
1735,-50,-94,239,287,-334,-305
1740,-46,-94,240,286,-366,-315
1745,-35,-100,242,290,-409,-330
1750,-35,-103,246,295,-454,-352
1755,-39,-104,253,295,-503,-373
1760,-34,-105,251,293,-548,-397
1765,-37,-106,250,289,-589,-417
1770,-44,-104,248,283,-639,-436
1775,-49,-102,248,272,-696,-451
1780,-54,-96,249,261,-762,-460
1785,-51,-95,250,240,-833,-466
1790,-46,-93,248,213,-904,-475
1795,-36,-92,243,178,-960,-489
1800,-30,-93,248,135,-1000,-505
1805,-25,-87,248,85,-1021,-521
1810,-22,-94,244,36,-1034,-537
1815,-19,-96,253,-21,-1044,-558
1820,-19,-99,245,-74,-1051,-579
1825,-9,-95,247,-122,-1058,-598
1830,-9,-96,244,-160,-1068,-618
1835,-12,-96,241,-187,-1077,-631
1840,-12,-95,241,-205,-1086,-645
1845,-4,-96,243,-212,-1093,-665
1850,0,-94,239,-216,-1094,-684
1855,2,-101,236,-217,-1092,-700
1860,0,-96,234,-216,-1082,-714
1865,5,-97,238,-215,-1070,-728
1870,5,-97,235,-210,-1054,-740
1875,8,-101,235,-199,-1040,-749
1880,7,-96,235,-183,-1031,-758
1885,8,-100,231,-163,-1025,-765
1890,6,-100,233,-141,-1029,-768
1895,6,-96,231,-118,-1036,-763
1900,12,-101,227,-95,-1046,-759
1905,7,-99,227,-78,-1054,-754
1910,11,-101,226,-59,-1061,-747
1915,17,-100,217,-41,-1071,-749
1920,23,-100,221,-27,-1080,-747
1925,15,-99,218,-16,-1083,-735
1930,18,-97,212,-7,-1081,-724
1935,19,-97,219,1,-1077,-716
1940,21,-95,214,9,-1078,-705
1945,21,-99,212,11,-1080,-696
1950,27,-92,210,10,-1078,-687
1955,30,-91,205,7,-1070,-673
1960,35,-91,203,0,-1057,-655
1965,39,-90,205,-14,-1040,-634
1970,40,-91,206,-30,-1021,-613
1975,42,-91,205,-48,-1002,-597
1980,50,-88,206,-65,-977,-581
1985,45,-84,206,-83,-956,-555
1990,47,-88,199,-100,-932,-528
1995,50,-84,201,-118,-904,-501
2000,53,-82,200,-133,-874,-476
2005,49,-84,202,-145,-839,-464
2010,51,-82,198,-158,-808,-447
2015,59,-87,198,-168,-779,-412
2020,56,-84,198,-171,-747,-370
2025,56,-87,192,-167,-713,-343
2030,52,-85,201,-158,-683,-318
2035,51,-88,198,-145,-650,-285
2040,50,-87,197,-133,-617,-239
2045,48,-83,198,-117,-583,-200
2050,49,-81,196,-99,-556,-177
2055,51,-81,198,-83,-537,-145
2060,45,-82,201,-63,-524,-102
2065,38,-82,201,-44,-513,-58
2070,36,-80,199,-24,-502,-12
2075,22,-76,208,-2,-492,44
2080,4,-77,210,25,-502,82
2085,-1,-78,209,55,-533,99
2090,-8,-79,219,79,-574,112
2095,-3,-84,215,109,-609,97
2100,6,-92,214,152,-619,107
2105,11,-97,206,226,-593,141
2110,7,-90,190,322,-523,179
2115,8,-89,171,408,-397,208
2120,15,-79,150,457,-227,239
2125,12,-70,133,458,-25,273
2130,8,-62,126,417,180,332
2135,9,-62,130,337,355,392
2140,6,-62,131,241,474,428
2145,0,-72,145,150,520,437
2150,10,-83,171,86,498,450
2155,17,-96,197,63,417,455
2160,25,-106,227,84,281,444
2165,26,-112,237,159,98,411
2170,27,-115,252,260,-122,357
2175,26,-115,267,352,-357,297
2180,33,-117,279,430,-572,241
2185,47,-120,285,490,-742,161
2190,63,-117,296,517,-859,85
2195,93,-118,302,507,-915,55
2200,109,-104,303,461,-917,49
2205,121,-94,299,384,-879,56
2210,127,-89,298,267,-826,33
2215,155,-93,296,104,-776,27
2220,174,-92,290,-90,-748,86
2225,184,-93,281,-265,-707,149
2230,173,-92,281,-420,-668,212
2235,163,-94,277,-525,-646,290
2240,147,-98,260,-547,-616,365
2245,133,-108,250,-502,-568,422
2250,129,-112,246,-442,-537,471
2255,130,-123,245,-355,-502,492
2260,122,-126,246,-249,-466,532
2265,95,-130,238,-124,-446,572
2270,46,-122,231,28,-432,556
2275,42,-118,211,201,-443,481
2280,30,-107,198,334,-513,411
2285,52,-109,171,417,-633,363
2290,70,-97,149,443,-769,281
2295,100,-97,141,450,-845,228
2300,88,-88,135,458,-859,199
2305,59,-92,143,496,-793,154
2310,97,-83,151,539,-732,92
2315,109,-78,163,549,-734,32
2320,120,-71,170,528,-757,-13
2325,127,-73,183,472,-767,-47
2330,143,-73,190,414,-781,-88
2335,139,-71,203,345,-796,-102
2340,118,-64,213,287,-806,-104
2345,68,-56,218,249,-850,-88
2350,85,-65,218,237,-896,-6
2355,113,-79,214,204,-976,12
2360,132,-70,209,148,-1064,6
2365,163,-72,201,109,-1134,49
2370,190,-76,195,74,-1205,82
2375,186,-80,189,39,-1275,92
2380,161,-77,191,32,-1261,74
2385,162,-87,203,43,-1209,82
2390,140,-90,211,44,-1198,117
2395,123,-92,211,53,-1249,122
2400,99,-92,203,75,-1282,183
2405,113,-102,204,102,-1301,227
2410,96,-108,197,120,-1338,204
2415,105,-106,195,122,-1347,185
2420,131,-105,188,125,-1362,218
2425,140,-107,175,128,-1385,233
2430,179,-109,157,138,-1391,234
2435,184,-109,131,146,-1381,226
2440,161,-109,120,152,-1323,187
2445,170,-111,112,166,-1223,158
2450,128,-98,118,190,-1128,134
2455,192,-111,129,242,-1007,188
2460,257,-124,141,293,-948,163
2465,230,-116,144,302,-995,53
2470,221,-110,149,292,-1004,-2
2475,213,-107,157,270,-960,8
2480,214,-108,164,234,-926,13
2485,209,-101,161,206,-894,17
2490,205,-99,162,184,-861,27
2495,198,-99,157,159,-827,48
2500,196,-98,144,137,-795,68
2505,202,-105,139,119,-756,90
2510,201,-95,137,115,-689,100
2515,198,-99,136,126,-604,109
2520,201,-93,144,139,-524,114
2525,192,-85,156,143,-464,126
2530,189,-88,166,130,-425,138
2535,186,-91,168,108,-401,148
2540,186,-91,172,75,-389,158
2545,185,-91,171,38,-383,163
2550,190,-94,167,-3,-375,153
2555,192,-95,169,-45,-364,151
2560,190,-103,172,-88,-344,148
2565,189,-105,162,-113,-299,146
2570,181,-106,155,-129,-235,132
2575,170,-108,160,-137,-173,112
2580,165,-109,161,-133,-128,91
2585,159,-108,165,-124,-104,81
2590,159,-113,166,-114,-96,82
2595,150,-110,168,-102,-85,68
2600,145,-109,167,-93,-70,60
2605,146,-112,172,-90,-48,56
2610,140,-112,169,-98,-29,57
2615,133,-114,175,-109,-16,56
2620,130,-122,182,-122,-14,46
2625,128,-124,191,-128,-29,32
2630,126,-130,191,-131,-51,20
2635,126,-133,192,-127,-73,4
2640,123,-132,183,-120,-76,-8
2645,121,-137,177,-115,-59,-29
2650,121,-140,176,-118,-28,-49
2655,115,-138,173,-122,1,-66
2660,114,-139,176,-121,19,-83
2665,116,-137,175,-119,28,-106
2670,116,-138,178,-110,30,-144
2675,119,-138,178,-90,25,-169
2680,118,-134,174,-63,24,-200
2685,117,-122,175,-41,29,-233
2690,125,-130,171,-26,37,-258
2695,125,-126,173,-16,35,-271
2700,118,-125,171,-13,32,-281
2705,119,-124,170,-19,27,-293
2710,118,-126,171,-28,19,-306
2715,117,-125,172,-38,10,-331
2720,125,-127,167,-50,6,-359
2725,125,-125,165,-62,5,-380
2730,133,-126,168,-74,9,-394
2735,137,-125,167,-86,15,-408
2740,148,-125,168,-98,13,-429
2745,154,-125,172,-99,-2,-450
2750,158,-126,172,-93,-25,-467
2755,160,-123,170,-78,-54,-495
2760,166,-121,162,-66,-86,-521
2765,169,-115,160,-59,-112,-544
2770,172,-109,155,-60,-131,-554
2775,172,-107,150,-70,-138,-546
2780,166,-105,158,-87,-130,-553
2785,162,-109,160,-99,-124,-568
2790,167,-101,159,-100,-133,-582
2795,164,-110,166,-104,-152,-583
2800,178,-102,162,-109,-172,-580
2805,184,-99,168,-116,-183,-574
2810,187,-102,166,-124,-187,-567
2815,188,-98,162,-128,-183,-560
2820,190,-94,160,-140,-171,-559
2825,190,-96,158,-157,-148,-564
2830,192,-99,163,-181,-122,-579
2835,192,-95,160,-202,-108,-589
2840,189,-91,165,-221,-102,-595
2845,186,-93,166,-239,-99,-602
2850,189,-95,169,-251,-79,-600
2855,181,-95,164,-267,-45,-598
2860,179,-95,162,-286,-20,-607
2865,174,-91,162,-308,-5,-604
2870,172,-97,162,-341,-3,-616
2875,171,-95,162,-368,-23,-645
2880,177,-94,163,-391,-52,-660
2885,174,-96,160,-402,-77,-679
2890,170,-91,155,-402,-107,-704
2895,169,-91,153,-400,-130,-721
2900,170,-85,152,-410,-141,-730
2905,171,-93,153,-438,-157,-702
2910,180,-96,157,-472,-183,-670
2915,181,-98,160,-495,-168,-660
2920,173,-101,168,-498,-135,-668
2925,164,-102,166,-487,-122,-687
2930,161,-106,166,-474,-132,-691
2935,162,-110,165,-464,-160,-690
2940,156,-108,163,-448,-197,-703
2945,158,-112,164,-426,-243,-724
2950,163,-114,159,-403,-281,-743
2955,158,-107,163,-378,-315,-761
2960,159,-101,153,-349,-353,-783
2965,165,-99,153,-321,-398,-798
2970,167,-97,147,-302,-447,-795
2975,163,-96,144,-292,-481,-792
2980,166,-92,145,-286,-511,-800
2985,173,-96,151,-281,-535,-807
2990,179,-93,150,-268,-561,-803
2995,188,-91,149,-253,-595,-814
3000,191,-81,147,-247,-614,-821
3005,194,-82,148,-244,-634,-825
3010,192,-71,148,-244,-666,-822
3015,189,-72,147,-245,-711,-826
3020,179,-75,145,-245,-750,-826
3025,167,-70,141,-241,-779,-840
3030,163,-71,138,-234,-804,-851
3035,164,-64,137,-231,-839,-879
3040,169,-55,127,-229,-875,-909
3045,175,-46,121,-229,-925,-920
3050,174,-40,116,-240,-966,-919
3055,191,-40,112,-256,-986,-913
3060,190,-41,114,-274,-971,-906
3065,194,-44,109,-288,-934,-905
3070,195,-36,108,-299,-872,-900
3075,197,-39,112,-311,-806,-894
3080,202,-35,118,-319,-750,-882
3085,207,-41,120,-312,-733,-815
3090,208,-46,126,-298,-733,-783
3095,213,-44,126,-275,-734,-786
3100,216,-41,121,-254,-755,-802
3105,212,-42,115,-253,-786,-795
3110,207,-46,115,-273,-792,-797
3115,208,-46,117,-291,-797,-811
3120,214,-47,115,-306,-813,-821
3125,219,-45,118,-318,-827,-813
3130,224,-49,120,-331,-837,-805
3135,228,-57,124,-329,-831,-802
3140,227,-56,124,-317,-817,-794
3145,229,-61,126,-299,-810,-773
3150,230,-56,127,-278,-800,-756
3155,230,-59,129,-255,-792,-735
3160,240,-56,127,-233,-808,-731
3165,227,-56,125,-210,-828,-717
3170,228,-53,121,-204,-825,-708
3175,219,-53,114,-214,-820,-703
3180,201,-50,113,-232,-836,-704
3185,193,-54,115,-247,-869,-719
3190,191,-49,109,-253,-885,-737
3195,198,-48,111,-244,-922,-751
3200,202,-46,112,-226,-969,-747
3205,209,-45,101,-199,-1000,-737
3210,211,-34,97,-181,-1023,-732
3215,218,-30,96,-186,-1043,-729
3220,223,-22,86,-213,-1055,-728
3225,229,-26,93,-251,-1054,-729
3230,229,-27,93,-279,-1050,-733
3235,235,-32,91,-291,-1047,-733
3240,235,-30,85,-286,-1049,-732
3245,239,-33,83,-269,-1055,-732
3250,245,-26,74,-251,-1061,-730
3255,249,-23,69,-239,-1073,-725
3260,251,-23,68,-235,-1086,-721
3265,254,-22,69,-242,-1089,-714
3270,257,-24,69,-249,-1080,-711
3275,257,-23,69,-254,-1066,-703
3280,266,-25,60,-251,-1052,-695
3285,261,-24,61,-241,-1029,-690
3290,266,-29,61,-231,-1010,-679
3295,263,-28,60,-216,-990,-668
3300,264,-25,58,-206,-967,-654
3305,256,-26,61,-194,-950,-644
3310,257,-26,60,-181,-940,-636
3315,261,-20,55,-172,-945,-629
3320,258,-20,52,-178,-956,-623
3325,257,-21,51,-185,-967,-620
3330,257,-19,51,-199,-968,-616
3335,261,-20,50,-214,-965,-614
3340,256,-18,47,-230,-951,-611
3345,254,-25,51,-248,-937,-605
3350,248,-24,53,-258,-924,-595
3355,248,-26,47,-253,-918,-579
3360,249,-29,43,-228,-917,-562
3365,251,-25,34,-201,-923,-552
3370,250,-17,29,-183,-933,-548
3375,250,-18,21,-175,-944,-552
3380,246,-17,25,-171,-953,-560
3385,243,-13,24,-164,-962,-567
3390,241,-14,19,-156,-968,-572
3395,239,-13,26,-150,-971,-575
3400,239,-12,22,-147,-972,-574
3405,241,-10,20,-152,-975,-568
3410,241,-9,23,-168,-974,-561
3415,241,-11,19,-192,-965,-551
3420,246,-15,18,-212,-951,-539
3425,251,-15,14,-225,-931,-527
3430,252,-19,16,-229,-906,-514
3435,254,-18,12,-227,-883,-500
3440,256,-18,10,-220,-865,-483
3445,261,-15,8,-214,-843,-468
3450,263,-11,14,-220,-817,-451
3455,269,-8,12,-244,-790,-434
3460,267,-9,16,-276,-764,-416
3465,266,-11,21,-307,-742,-399
3470,267,-15,23,-331,-719,-385
3475,267,-18,27,-354,-695,-377
3480,269,-16,32,-384,-664,-364
3485,268,-17,38,-423,-622,-343
3490,270,-21,44,-466,-570,-320
3495,273,-24,47,-501,-512,-293
3500,287,-33,50,-514,-459,-268
3505,284,-38,52,-503,-402,-249
3510,294,-43,50,-467,-360,-234
3515,300,-47,44,-416,-320,-221
3520,303,-43,37,-348,-275,-203
3525,307,-45,31,-290,-222,-180
3530,307,-43,35,-230,-164,-154
3535,307,-46,37,-170,-109,-119
3540,303,-45,38,-112,-59,-77
3545,298,-43,43,-60,-12,-36
3550,285,-38,41,-13,30,2
3555,282,-44,44,36,68,37
3560,269,-40,41,84,90,59
3565,261,-36,41,127,98,69
3570,260,-29,39,162,96,74
3575,255,-21,42,187,91,71
3580,255,-18,43,207,83,63
3585,255,-11,46,214,73,55
3590,256,-7,46,211,62,45
3595,255,-5,41,192,48,29
3600,252,3,40,161,31,12
3605,257,2,35,118,11,-4
3610,254,3,36,74,-10,-22
3615,258,3,35,35,-33,-37
3620,256,0,33,6,-55,-47
3625,255,2,26,-19,-74,-53
3630,254,-1,22,-35,-91,-58
3635,251,-1,24,-44,-102,-61
3640,248,-2,17,-47,-109,-63
3645,250,-5,16,-46,-111,-65
3650,248,-9,16,-37,-110,-66
3655,251,-6,16,-27,-109,-70
3660,247,-5,10,-14,-102,-72
3665,250,-2,11,3,-93,-71
3670,251,-11,11,23,-83,-65
3675,257,-13,7,42,-73,-61
3680,258,-10,9,60,-62,-52
3685,261,-9,8,78,-51,-42
3690,262,-10,12,96,-43,-29
3695,267,-7,13,110,-38,-18
3700,267,-4,11,124,-36,-8
3705,268,-2,12,135,-39,-1
3710,270,0,14,142,-44,4
3715,273,1,15,144,-49,9
3720,269,6,7,142,-55,12
3725,270,4,11,138,-63,12
3730,267,3,7,133,-71,15
3735,270,4,2,131,-79,12
3740,263,6,3,129,-88,14
3745,266,5,1,125,-97,17
3750,271,2,3,118,-99,21
3755,265,3,6,110,-101,28
3760,269,4,3,103,-96,31
3765,263,2,5,97,-92,34
3770,267,0,9,92,-91,32
3775,258,-1,8,91,-90,30
3780,263,-4,9,90,-88,29
3785,258,-5,16,91,-90,25
3790,261,-3,11,93,-93,21
3795,261,-7,13,94,-102,14
3800,262,-11,14,92,-119,6
3805,259,-9,15,92,-139,-6
3810,263,-8,9,90,-162,-18
3815,258,-7,4,88,-184,-33
3820,259,-9,3,83,-202,-45
3825,256,-9,-2,75,-218,-53
3830,255,-10,1,68,-228,-61
3835,260,-13,-1,64,-235,-64
3840,260,-16,-7,66,-240,-65
3845,260,-14,-3,71,-243,-65
3850,260,-17,-1,83,-243,-64
3855,262,-15,-5,98,-246,-61
3860,263,-19,-4,116,-250,-60
3865,265,-18,-6,135,-256,-61
3870,265,-17,-3,155,-261,-57
3875,261,-16,-8,170,-271,-54
3880,262,-17,-3,178,-281,-53
3885,265,-17,0,185,-289,-55
3890,267,-18,0,191,-299,-54
3895,265,-18,0,195,-314,-56
3900,261,-24,1,202,-338,-57
3905,263,-23,1,212,-364,-56
3910,266,-27,-4,225,-396,-55
3915,267,-27,-11,241,-429,-63
3920,270,-28,-18,261,-461,-75
3925,269,-23,-21,283,-486,-87
3930,269,-18,-32,310,-500,-100
3935,265,-14,-38,340,-499,-112
3940,265,-2,-39,369,-482,-122
3945,262,0,-41,390,-448,-124
3950,259,1,-43,402,-404,-118
3955,257,3,-42,406,-352,-107
3960,254,4,-34,403,-299,-91
3965,255,8,-32,393,-245,-70
3970,252,9,-26,371,-192,-48
3975,253,4,-23,338,-146,-25
3980,254,4,-21,296,-106,0
3985,253,3,-13,254,-71,26
3990,254,3,-25,218,-42,49
3995,258,1,-10,188,-19,68
4000,260,1,-10,167,-7,84
4005,261,3,-3,151,-5,98
4010,265,0,-6,139,-7,107
4015,265,-2,-6,129,-15,109
4020,267,-1,-4,121,-24,104
4025,266,-4,-6,117,-31,96
4030,267,-5,-6,118,-36,80
4035,267,-8,-2,123,-42,65
4040,263,-10,-5,128,-46,49
4045,260,-5,-2,135,-46,34
4050,259,-10,-2,143,-45,23
4055,257,-12,-5,148,-42,12
4060,259,-11,-3,154,-41,5
4065,262,-12,-3,162,-37,3
4070,258,-12,-2,170,-32,4
4075,260,-9,-1,183,-24,5
4080,261,-4,-1,192,-16,5
4085,262,-6,-3,203,-5,6
4090,263,-7,3,210,2,10
4095,265,-2,-1,214,6,10
4100,274,-6,6,213,6,9
4105,267,-3,0,210,4,10
4110,267,-1,1,204,-1,7
4115,267,0,1,197,-7,4
4120,265,0,-4,190,-15,0
4125,263,2,0,183,-24,-3
4130,265,0,-3,178,-27,-1
4135,263,-6,-4,173,-30,1
4140,261,-2,-2,173,-30,2
4145,259,-3,-5,172,-29,0
4150,258,-1,-1,173,-23,-3
4155,265,-6,-7,173,-18,-8
4160,256,-2,-6,173,-15,-12
4165,257,-5,-6,171,-15,-17
4170,259,0,-7,169,-16,-22
4175,255,0,-5,167,-17,-25
4180,259,-3,-5,164,-17,-26
4185,259,1,-5,156,-17,-27
4190,259,3,-2,150,-19,-29
4195,260,1,-7,143,-20,-29
4200,262,1,-10,135,-21,-28
4205,261,3,-8,126,-20,-27
4210,260,4,-10,117,-20,-26
4215,262,1,-7,102,-20,-24
4220,265,4,-8,86,-19,-19
4225,265,4,-12,70,-18,-15
4230,265,5,-10,53,-19,-10
4235,267,4,-11,38,-22,-7
4240,265,1,-12,27,-26,-1
4245,267,0,-9,19,-31,6
4250,265,-1,-16,16,-35,15
4255,264,-6,-18,19,-37,27
4260,262,-4,-12,25,-35,34
4265,261,-7,-10,36,-29,36
4270,261,-7,-13,50,-23,37
4275,263,-8,-13,64,-16,36
4280,259,-2,-11,78,-9,31
4285,260,-6,-12,88,-2,29
4290,261,-4,-12,96,1,26
4295,261,-2,-14,100,3,23
4300,258,-2,-13,101,8,21
4305,257,0,-19,95,12,22
4310,262,-4,-10,84,16,25
4315,264,-3,-15,73,16,23
4320,258,-4,-13,65,16,22
4325,266,-1,-17,58,20,21
4330,265,0,-15,47,22,20
4335,263,0,-17,38,24,19
4340,264,-1,-17,30,29,16
4345,262,0,-13,24,36,14
4350,266,0,-18,19,43,11
4355,263,0,-20,14,53,10
4360,265,0,-16,9,63,8
4365,262,1,-22,1,80,7
4370,261,-2,-16,-6,97,6
4375,261,1,-19,-14,117,3
4380,261,-2,-14,-25,135,7
4385,260,0,-9,-37,156,12
4390,258,-3,-12,-49,176,17
4395,260,-2,-13,-61,194,23
4400,261,-7,-9,-67,207,29
4405,259,-10,-9,-71,212,35
4410,260,-11,-4,-73,211,37
4415,261,-6,-13,-74,206,41
4420,261,-10,-4,-74,200,42
4425,260,-13,-8,-72,193,43
4430,262,-10,-8,-70,185,42
4435,263,-14,-7,-67,179,36
4440,261,-14,-5,-63,172,32
4445,259,-18,-6,-60,170,27
4450,261,-19,-4,-57,167,22
4455,259,-19,-2,-53,164,16
4460,253,-15,-1,-51,161,11
4465,257,-20,-8,-48,155,5
4470,258,-16,-8,-49,149,-1
4475,258,-16,-2,-49,143,-3
4480,254,-24,-6,-48,138,-3
4485,259,-19,0,-45,135,1
4490,258,-17,0,-40,133,2
4495,263,-20,0,-32,127,3
4500,261,-17,-4,-23,119,3
4505,264,-18,0,-10,108,5
4510,262,-15,-1,0,98,2
4515,260,-13,2,10,86,-1
4520,259,-11,-7,17,75,-4
4525,262,-12,-4,22,64,-4
4530,260,-9,-6,26,56,-6
4535,261,-7,-12,26,48,-6
4540,258,-8,-8,26,43,-8
4545,258,-12,-4,24,39,-8
4550,262,-13,-2,23,38,-9
4555,261,-13,-5,21,40,-10
4560,258,-12,-3,21,44,-8
4565,258,-12,-1,24,46,-5
4570,257,-12,-4,25,49,-3
4575,256,-9,-6,25,51,-5
4580,261,-12,-3,24,53,-3
4585,260,-9,0,20,54,-3
4590,258,-13,-5,16,54,-2
4595,260,-9,-5,12,52,-3
4600,260,-8,0,5,49,-3
4605,256,-8,-1,-3,44,-5
4610,256,-6,0,-11,38,-7
4615,258,-10,1,-20,35,-7
4620,258,-9,0,-27,32,-8
4625,258,-11,1,-34,30,-9
4630,260,-12,0,-38,33,-12
4635,259,-11,-1,-41,35,-14
4640,260,-6,-4,-42,35,-15
4645,258,-14,-2,-43,36,-18
4650,260,-12,-3,-43,37,-20
4655,264,-10,0,-41,39,-23
4660,260,-9,0,-40,39,-24
4665,262,-15,-2,-38,40,-25
4670,260,-7,0,-35,39,-26
4675,261,-10,-4,-33,40,-26
4680,264,-10,-2,-31,39,-25
4685,258,-8,-2,-30,39,-23
4690,261,-12,-2,-29,40,-21
4695,256,-11,-4,-28,40,-20
4700,263,-14,-6,-27,40,-20
4705,258,-10,-1,-26,40,-18
4710,260,-11,0,-23,39,-18
4715,260,-14,0,-22,40,-17
4720,256,-10,-3,-18,41,-15
4725,258,-14,0,-14,41,-15
4730,260,-12,0,-11,40,-15
4735,259,-10,-1,-6,37,-15
4740,257,-13,1,-2,33,-14
4745,259,-12,0,2,30,-14
4750,260,-12,-6,6,26,-17
4755,257,-14,4,11,20,-20
4760,262,-12,-2,15,14,-21
4765,258,-11,-2,16,11,-24
4770,261,-9,-2,17,6,-25
4775,262,-9,-1,15,3,-26
4780,257,-12,-2,13,2,-27
4785,257,-12,-4,10,1,-25
4790,261,-14,0,8,1,-26
4795,258,-11,-1,7,2,-26
4800,258,-10,1,7,1,-27
4805,259,-6,0,6,1,-27
4810,259,-13,-2,8,0,-27
4815,258,-11,-1,10,-2,-30
4820,260,-9,0,13,-2,-29
4825,261,-10,-1,15,-6,-31
4830,259,-9,0,18,-8,-33
4835,262,-12,-1,18,-9,-34
4840,260,-10,1,17,-10,-36
4845,261,-8,-2,18,-8,-39
4850,260,-11,-1,19,-7,-39
4855,259,-5,-4,15,-8,-41
4860,262,-9,-3,13,-6,-40
4865,259,-5,-2,9,-9,-40
4870,261,-10,-3,5,-11,-41
4875,262,-7,-5,2,-13,-43
4880,262,-10,-1,1,-15,-42
4885,262,-3,-2,0,-16,-42
4890,258,-6,-2,0,-17,-42
4895,260,-7,-2,1,-17,-43
4900,260,-5,-3,2,-17,-42
4905,260,-10,-9,3,-14,-42
4910,261,-10,0,4,-13,-43
4915,263,-11,2,3,-12,-42
4920,260,-8,-1,2,-11,-40
4925,259,-13,-1,1,-13,-40
4930,259,-11,-5,0,-14,-41
4935,261,-11,0,1,-16,-41
4940,256,-10,-4,0,-19,-42
4945,261,-12,-5,3,-19,-42
4950,259,-11,-5,6,-22,-42
4955,259,-11,-9,11,-23,-41
4960,258,-11,-1,15,-24,-42
4965,259,-9,-7,20,-23,-44
4970,255,-12,-9,26,-22,-46
4975,257,-12,-3,30,-22,-46
4980,258,-9,-2,33,-20,-47
4985,256,-11,-3,37,-16,-46
4990,260,-15,-4,39,-12,-46
4995,260,-10,-4,42,-10,-44
5000,261,-10,0,44,-10,-45
5005,261,-5,-4,47,-9,-47
5010,260,-4,-2,51,-13,-49
5015,260,-5,-5,53,-19,-52
5020,262,0,-10,49,-26,-55
5025,263,-3,-2,45,-33,-56
5030,264,-3,-2,40,-39,-56
5035,264,-4,-5,33,-46,-57
5040,263,0,-3,27,-49,-55
5045,264,-4,-5,21,-52,-55
5050,258,-1,0,14,-52,-52
5055,261,-3,-3,8,-52,-50
5060,258,-6,-7,5,-51,-47
5065,259,-5,-3,-1,-47,-45
5070,258,-6,-5,-4,-43,-44
5075,261,-5,-4,-6,-44,-43
5080,260,-6,-2,-7,-43,-43
5085,261,-6,-1,-7,-40,-43
5090,259,-1,-5,-8,-40,-42
5095,260,-3,-2,-10,-38,-42
5100,260,-2,-7,-11,-39,-40
5105,262,-8,-8,-11,-38,-40
5110,260,-3,-4,-12,-38,-39
5115,260,-5,-7,-13,-38,-39
5120,263,-2,-2,-13,-37,-38
5125,257,-2,-10,-15,-36,-36
5130,263,-7,-4,-13,-37,-39
5135,261,-8,-6,-11,-38,-39
5140,262,-6,-3,-10,-37,-38
5145,261,-6,-5,-6,-37,-40
5150,261,-4,-6,-5,-37,-41
5155,263,0,-2,-4,-35,-43
5160,260,-2,-9,-4,-35,-41
5165,262,0,-8,-5,-33,-39
5170,262,-7,-8,-7,-29,-38
5175,261,-6,-9,-9,-28,-39
5180,262,-7,-5,-10,-25,-37
5185,259,-2,-5,-10,-23,-36
5190,261,-3,-4,-10,-21,-33
5195,258,-2,-7,-9,-19,-31
5200,259,-3,-7,-9,-16,-28
5205,260,-2,-3,-9,-15,-27
5210,262,-5,-6,-7,-14,-28
5215,261,-4,-7,-5,-15,-26
5220,260,-4,-7,-4,-16,-27
5225,263,-7,-8,-3,-18,-30
5230,265,-5,-5,0,-18,-30
5235,261,-4,-7,4,-19,-31
5240,261,-2,-10,6,-18,-32
5245,265,-6,-11,8,-18,-32
5250,258,-4,-7,12,-18,-34
5255,261,-6,-11,14,-16,-34
5260,261,-4,-8,14,-15,-33
5265,261,-4,-8,15,-14,-31
5270,259,-3,-12,15,-12,-31
5275,260,-3,-9,12,-10,-30
5280,260,-1,-9,10,-7,-28
5285,259,-6,-4,11,-5,-28
5290,257,0,-5,6,-4,-26
5295,260,-5,-8,4,-2,-25
5300,263,-6,4,2,-1,-23
5305,256,-8,-11,1,1,-24
5310,262,-7,-7,-1,1,-23
5315,261,-3,-6,-2,0,-22
5320,262,-5,-5,-3,-3,-22
5325,262,-5,-4,-3,-7,-23
5330,263,-7,-7,-5,-10,-24
5335,267,-6,-9,-4,-11,-26
5340,260,-5,-6,-3,-12,-27
5345,261,-5,-9,-2,-13,-28
5350,264,-6,-12,-2,-15,-30
5355,258,0,-9,-2,-16,-30
5360,262,-7,-9,0,-14,-30
5365,260,-2,-10,2,-15,-30
5370,262,-5,-6,1,-15,-30
5375,260,-3,-8,3,-15,-32
5380,260,-3,-11,3,-16,-33
5385,259,-2,-6,4,-15,-33
5390,259,0,-11,5,-14,-31
5395,261,0,-7,5,-15,-34
5400,257,1,-8,4,-14,-32
5405,263,-5,-7,1,-14,-31
5410,260,-5,-9,-4,-12,-30
5415,259,-1,-6,-6,-11,-30
5420,258,0,-3,-8,-10,-30
5425,260,-4,-6,-10,-10,-27
5430,260,-8,-8,-12,-10,-26
5435,259,-3,-8,-13,-9,-26
5440,259,-7,-11,-11,-9,-26
5445,260,-9,-10,-8,-10,-24
5450,264,-6,-8,-5,-11,-25
5455,261,-5,-9,-2,-11,-25
5460,259,-5,-4,2,-14,-24
5465,263,-3,-7,6,-15,-25
5470,260,-5,-7,11,-15,-25
5475,261,-4,-10,14,-16,-27
5480,259,-5,-8,18,-17,-27
5485,261,-1,-10,23,-15,-28
5490,259,-4,-12,24,-15,-30
5495,261,-1,-7,25,-14,-30
5500,261,-4,-13,26,-13,-30
5505,263,-8,-14,26,-13,-29
5510,258,-3,-9,23,-11,-28
5515,262,-6,-7,22,-11,-27
5520,258,-2,-9,20,-10,-26
5525,262,-4,-6,19,-9,-27
5530,263,0,-9,18,-7,-27
5535,261,-4,-7,19,-7,-29
5540,258,0,-12,18,-6,-29
5545,259,-1,-8,18,-6,-28
5550,262,-2,-5,18,-5,-28
5555,258,0,-8,20,-3,-28
5560,263,-7,-7,21,0,-27
5565,261,-2,-13,20,2,-25
5570,265,-3,4,20,4,-26
5575,260,-3,-11,20,5,-26
5580,259,-3,-6,22,6,-22
5585,261,-1,-8,23,5,-23
5590,261,0,-11,23,4,-22
5595,260,0,-11,25,3,-22
5600,261,1,-10,25,3,-22
5605,263,0,-11,27,2,-20
5610,263,0,-16,27,-1,-19
5615,262,-2,-12,27,-2,-19
5620,264,-3,-7,28,-3,-19
5625,261,-9,-13,28,-3,-20
5630,262,0,-11,29,-4,-18
5635,260,-5,-13,31,-5,-17
5640,260,-1,-11,34,-6,-18
5645,260,-4,-10,38,-6,-19
5650,259,-3,-11,40,-7,-20
5655,261,-1,-11,44,-7,-20
5660,261,0,-17,45,-8,-19
5665,258,-5,-16,48,-6,-19
5670,258,-1,-12,51,-4,-19
5675,257,0,-14,54,-1,-17
5680,252,-3,-14,56,5,-16
5685,258,-2,-11,56,8,-16
5690,262,-2,-12,55,12,-13
5695,260,0,-13,56,15,-13
5700,262,-3,-15,57,18,-12
5705,259,-2,-10,58,20,-12
5710,260,-3,-9,59,22,-13
5715,260,-4,-9,60,23,-14
5720,262,-1,-10,60,24,-14
5725,260,-5,-5,59,22,-15
5730,261,-2,-10,58,20,-14
5735,260,1,-10,59,20,-13
5740,262,-2,-12,59,20,-12
5745,260,-2,-6,59,17,-11
5750,260,-3,-10,59,17,-10
5755,260,-3,-10,58,16,-10
5760,262,0,-10,56,14,-8
5765,262,-1,-11,56,13,-7
5770,262,-3,-12,55,13,-7
5775,263,1,-13,53,15,-7
5780,263,1,-13,53,16,-5
5785,262,-2,-8,52,16,-6
5790,263,1,-13,51,18,-7
5795,264,-5,-12,52,18,-5
5800,259,0,-12,54,19,-3
5805,258,1,-11,56,18,-2
5810,260,0,-11,58,20,-2
5815,260,0,-11,60,23,0
5820,261,-4,-10,65,24,3
5825,260,0,-11,67,28,6
5830,262,-4,-9,69,30,9
5835,258,-4,-8,73,33,12
5840,264,1,-10,77,36,12
5845,263,-6,-7,78,39,13
5850,261,0,-6,81,40,14
5855,260,-1,-8,82,39,15
5860,261,-1,-9,83,39,16
5865,259,-2,-10,82,40,15
5870,257,0,-10,79,39,15
5875,263,1,-12,75,38,15
5880,262,-4,-10,73,38,14
5885,261,1,-12,69,38,14
5890,261,-2,-10,65,37,13
5895,264,-5,-9,64,36,11
5900,263,-3,-10,63,37,9
5905,260,-1,-12,62,38,9
5910,257,0,-8,63,39,7
5915,260,-3,-13,63,41,6
5920,260,0,-9,65,42,7
5925,261,-1,-9,68,44,10
5930,261,-6,-12,68,47,11
5935,259,-4,-9,69,46,11
5940,261,-5,-11,71,48,12
5945,260,-1,-13,72,48,13
5950,264,-6,-5,75,50,13
5955,263,-3,-9,76,52,15
5960,260,0,-9,80,53,17
5965,263,-8,-11,83,53,18
5970,262,-4,-10,85,54,21
5975,260,-4,-10,87,53,22
5980,260,-5,-11,88,53,21
5985,259,-8,-8,89,52,22
5990,262,-2,-8,89,51,23
5995,263,-6,-9,90,49,22
6000,259,-4,-7,89,48,21
6005,257,-4,-12,90,47,20
6010,259,-2,-10,89,47,18
6015,260,-5,-10,88,48,17
6020,259,-5,-9,88,48,16
6025,259,-1,-12,88,48,15
6030,261,-4,-6,86,50,13
6035,257,-4,-8,85,49,12
6040,260,-6,-10,85,51,11
6045,260,-3,-5,83,50,11
6050,261,-2,-6,81,50,11
6055,262,-5,-10,81,51,12
6060,264,-6,-3,80,51,13
6065,261,-2,-5,81,50,14
6070,258,-4,-4,80,49,16
6075,260,-3,-9,79,50,17
6080,260,-6,-7,79,49,17
6085,261,-2,-3,80,49,17
6090,259,-8,-9,81,49,18
6095,260,-6,-2,82,49,20
6100,260,-5,-6,81,48,18
6105,259,-2,-8,79,48,15
6110,258,-3,-6,79,45,14
6115,260,1,-8,78,43,13
6120,259,-4,-4,76,40,10
6125,258,-1,-9,76,39,10
6130,257,-4,-4,75,38,9
6135,259,-4,-8,73,38,7
6140,259,-4,-7,72,37,7
6145,256,-4,-5,71,36,6
6150,259,-2,-10,70,37,5
6155,259,-8,-11,70,36,4
6160,260,-6,-8,70,35,4
6165,258,-3,-9,69,36,5
6170,259,-11,-4,71,36,4
6175,261,-5,-5,73,35,5
6180,262,-7,-3,75,35,2
6185,261,-8,-5,76,36,2
6190,261,-5,-5,76,36,3
6195,263,-6,-7,77,36,2
6200,260,-6,-9,77,36,3
6205,260,-7,-8,76,35,3
6210,259,-7,-8,76,34,2
6215,260,-8,-2,73,31,1
6220,258,-8,-3,71,29,1
6225,263,-11,-3,70,27,0
6230,260,-4,-4,69,24,-2
6235,259,-6,-4,67,22,-5
6240,259,-7,-3,63,18,-7
6245,259,-5,-5,59,17,-7
6250,263,-9,0,58,16,-11
6255,262,-6,-4,56,15,-10
6260,260,-7,-7,53,14,-11
6265,257,-6,-1,55,12,-12
6270,259,-2,-7,55,10,-13
6275,260,-6,-6,57,10,-13
6280,259,-12,-4,55,9,-15
6285,259,-3,-9,57,9,-14
6290,260,-8,-6,56,8,-14
6295,260,-5,-9,59,11,-13
6300,259,-7,-10,58,9,-14
6305,256,-5,-2,60,11,-12
6310,258,-5,-3,61,11,-13
6315,260,-3,-1,63,11,-13
6320,259,-5,-2,63,11,-13
6325,264,-7,-5,62,9,-12
6330,261,-6,-6,61,9,-11
6335,263,-5,-4,60,7,-11
6340,263,-5,-6,61,4,-11
6345,266,-5,-7,61,0,-10
6350,263,-5,-15,62,-2,-9
6355,262,-6,-9,65,-3,-9
6360,260,-5,-8,66,-3,-8
6365,263,-6,-12,70,0,-5
6370,260,-4,-14,74,3,-6
6375,262,-3,-7,77,7,-4
6380,260,-6,-10,81,12,-2
6385,262,-4,-11,84,16,0
6390,260,-3,-8,88,21,3
6395,263,-5,-9,90,26,4
6400,262,-1,-12,94,32,6
6405,263,-4,-9,96,36,7
6410,259,-1,-9,100,39,7
6415,263,-1,-9,103,44,8
6420,259,-2,-6,105,48,7
6425,258,-8,-10,110,50,6
6430,266,-9,-6,114,53,7
6435,264,-7,-7,121,57,8
6440,265,-8,-8,133,60,6
6445,265,-4,-3,145,62,2
6450,266,-1,-11,159,63,-3
6455,264,0,-5,172,64,-8
6460,263,-3,-7,185,67,-9
6465,264,-6,-11,197,70,-14
6470,266,-4,-7,207,75,-15
6475,263,-4,-10,216,83,-16
6480,264,-2,-12,225,89,-14
6485,263,-3,-10,232,95,-12
6490,266,-3,-13,236,98,-10
6495,265,-5,-13,239,101,-8
6500,264,-3,-9,239,103,-6
6505,263,-1,-10,240,104,-2
6510,264,-5,-9,240,108,2
6515,265,-3,-13,244,112,7
6520,264,-7,-11,247,116,13
6525,261,-7,-7,250,123,20
6530,265,-5,-6,252,133,23
6535,267,-1,-11,258,142,30
6540,267,0,-7,260,153,36
6545,272,1,-4,264,165,38
6550,267,0,4,264,177,42
6555,268,3,-8,257,192,47
6560,275,7,-10,247,204,54
6565,273,9,-9,234,215,62
6570,274,8,-1,213,225,74
6575,271,13,-5,177,236,84
6580,272,14,-2,138,248,99
6585,273,14,-4,97,260,116
6590,272,11,0,55,270,129
6595,271,8,2,16,278,143
6600,274,4,8,-17,284,153
6605,280,7,2,-39,288,161
6610,274,2,3,-53,286,163
6615,277,0,-1,-67,285,167
6620,279,1,-1,-84,282,172
6625,277,-1,-4,-100,288,179
6630,279,-6,-5,-115,298,190
6635,280,-9,-10,-130,312,204
6640,274,-7,-7,-140,330,214
6645,274,-9,-12,-145,347,221
6650,273,-9,-10,-146,364,231
6655,277,-18,-7,-140,378,235
6660,269,-13,-8,-129,385,240
6665,271,-12,-9,-115,394,245
6670,274,-10,-6,-101,404,254
6675,269,-10,-7,-94,419,263
6680,269,-7,-8,-97,431,274
6685,265,-5,-8,-103,448,282
6690,264,-5,-3,-114,466,293
6695,263,-6,-1,-117,485,298
6700,263,-12,2,-112,498,305
6705,261,-12,1,-102,506,312
6710,266,-15,2,-86,513,321
6715,263,-11,-1,-70,523,328
6720,267,-17,4,-52,535,336
6725,268,-16,1,-30,549,338
6730,266,-15,3,-11,564,338
6735,268,-16,1,6,576,336
6740,263,-16,1,19,586,334
6745,260,-19,4,26,594,331
6750,255,-15,0,32,599,330
6755,255,-18,8,35,604,330
6760,255,-20,5,37,609,333
6765,257,-24,8,36,618,338
6770,255,-27,2,34,626,345
6775,256,-26,9,37,634,354
6780,255,-25,11,43,643,359
6785,255,-30,11,56,651,364
6790,253,-26,16,71,656,366
6795,254,-31,14,88,658,368
6800,253,-28,18,101,661,371
6805,252,-29,21,110,665,376
6810,253,-28,25,116,672,380
6815,255,-26,29,118,681,384
6820,257,-24,26,113,688,388
6825,255,-24,28,104,694,393
6830,255,-20,30,87,696,397
6835,256,-22,35,67,696,401
6840,256,-25,36,49,693,407
6845,256,-27,38,31,688,412
6850,255,-26,43,15,685,413
6855,252,-26,46,5,682,414
6860,255,-31,47,0,676,412
6865,253,-35,49,4,669,411
6870,253,-37,46,14,660,410
6875,252,-37,48,24,649,408
6880,249,-43,44,34,639,408
6885,251,-41,49,43,628,411
6890,252,-44,55,51,621,412
6895,250,-44,54,61,615,409
6900,253,-48,54,77,609,405
6905,249,-46,56,96,602,402
6910,246,-48,63,113,600,401
6915,247,-49,56,130,598,401
6920,246,-48,61,140,594,399
6925,248,-47,60,147,593,392
6930,244,-47,55,148,585,391
6935,249,-48,62,143,582,390
6940,243,-43,61,134,575,388
6945,246,-47,57,124,569,388
6950,241,-46,62,114,564,382
6955,245,-49,62,106,559,380
6960,242,-49,63,100,557,378
6965,246,-51,60,96,556,377
6970,239,-56,63,95,558,371
6975,238,-54,56,104,557,371
6980,237,-56,60,116,554,373
6985,237,-51,60,125,553,374
6990,237,-53,61,135,551,375
6995,237,-52,61,138,550,380
7000,242,-56,58,138,548,382
7005,242,-54,61,137,544,382
7010,244,-50,63,132,540,383
7015,243,-53,62,129,535,387
7020,243,-57,64,128,527,391
7025,242,-57,66,131,520,392
7030,240,-54,66,134,513,392
7035,245,-56,63,140,503,393
7040,242,-59,72,141,496,390
7045,244,-55,65,139,496,385
7050,250,-60,63,139,496,385
7055,248,-60,64,142,501,387
7060,245,-59,67,154,509,388
7065,248,-62,65,174,517,385
7070,242,-62,72,196,524,382
7075,242,-63,66,219,528,380
7080,236,-61,76,241,533,378
7085,228,-57,72,261,536,375
7090,227,-63,75,279,538,366
7095,223,-65,75,292,546,357
7100,222,-61,81,305,550,349
7105,221,-60,90,320,550,347
7110,222,-59,91,327,549,346
7115,225,-53,92,328,545,342
7120,232,-53,91,318,545,341
7125,232,-52,93,300,544,332
7130,227,-54,94,279,542,325
7135,230,-63,98,261,530,321
7140,230,-62,96,252,518,314
7145,232,-70,100,250,508,306
7150,227,-75,99,262,504,294
7155,222,-74,96,279,497,285
7160,218,-75,99,304,493,276
7165,219,-74,97,326,487,259
7170,217,-76,97,335,477,247
7175,220,-78,95,340,472,237
7180,219,-75,98,337,464,223
7185,216,-74,98,335,458,225
7190,223,-75,103,334,457,233
7195,223,-70,98,332,455,232
7200,221,-68,104,332,449,230
7205,218,-69,106,326,435,234
7210,217,-66,98,316,414,240
7215,221,-63,97,299,399,240
7220,228,-65,99,279,385,244
7225,232,-65,100,261,378,250
7230,231,-64,97,244,376,267
7235,228,-63,101,232,381,279
7240,229,-66,98,229,386,274
7245,233,-65,97,226,386,269
7250,231,-70,108,229,383,272
7255,235,-71,103,237,383,274
7260,237,-75,101,250,392,272
7265,229,-71,108,265,391,257
7270,229,-74,109,277,375,248
7275,226,-69,106,287,353,246
7280,232,-68,104,294,334,244
7285,226,-69,105,299,323,248
7290,226,-68,104,305,327,255
7295,220,-72,111,312,321,250
7300,222,-68,115,318,311,236
7305,227,-70,111,318,301,225
7310,223,-69,108,318,294,220
7315,226,-65,113,320,289,214
7320,222,-68,113,319,283,225
7325,218,-67,109,322,282,241
7330,222,-72,111,325,281,241
7335,223,-67,113,326,276,235
7340,214,-65,112,325,265,233
7345,216,-70,110,319,259,247
7350,224,-75,115,308,257,259
7355,216,-67,114,295,264,271
7360,214,-68,114,287,262,250
7365,212,-63,116,280,255,225
7370,215,-66,106,268,250,216
7375,217,-70,110,259,250,220
7380,216,-69,112,252,256,232
7385,218,-70,112,250,270,235
7390,220,-70,110,250,284,234
7395,214,-70,114,254,298,241
7400,219,-72,116,262,317,248
7405,217,-72,116,271,334,255
7410,214,-72,118,274,344,265
7415,208,-73,123,279,343,260
7420,208,-72,119,288,338,251
7425,216,-72,124,295,328,243
7430,219,-74,121,298,317,234
7435,217,-73,121,298,305,230
7440,216,-74,121,296,294,226
7445,213,-70,120,294,284,222
7450,214,-68,120,289,271,222
7455,213,-74,125,285,259,225
7460,209,-72,127,281,258,224
7465,211,-72,125,280,260,217
7470,212,-71,124,280,260,211
7475,212,-70,127,277,255,207
7480,208,-72,128,271,245,208
7485,208,-74,131,264,238,205
7490,207,-69,131,262,231,205
7495,212,-74,137,267,228,206
7500,211,-69,133,270,221,211
7505,212,-63,134,269,210,212
7510,214,-64,132,260,195,208
7515,214,-63,127,243,183,206
7520,211,-65,120,223,179,202
7525,214,-64,121,204,185,199
7530,216,-62,125,189,198,195
7535,214,-62,120,177,220,196
7540,212,-61,125,163,243,193
7545,210,-63,125,149,265,193
7550,209,-63,125,135,284,192
7555,214,-64,127,122,297,192
7560,209,-63,126,105,308,194
7565,205,-62,125,88,315,195
7570,210,-65,127,70,318,196
7575,208,-68,140,55,320,197
7580,213,-69,131,40,321,195
7585,217,-68,136,29,322,190
7590,218,-68,133,13,320,179
7595,217,-69,135,-1,315,168
7600,215,-63,138,-20,301,156
7605,218,-69,134,-44,273,146
7610,219,-67,135,-71,235,135
7615,218,-71,137,-93,194,127
7620,221,-76,141,-97,148,120
7625,220,-79,139,-86,98,113
7630,223,-84,134,-57,44,105
7635,224,-78,128,-15,-19,96
7640,225,-81,130,28,-87,80
7645,230,-80,125,73,-154,62
7650,229,-81,121,122,-211,48
7655,223,-81,127,170,-268,35
7660,218,-80,130,210,-308,23
7665,213,-79,135,235,-341,17
7670,209,-78,135,249,-373,13
7675,210,-79,141,237,-391,10
7680,203,-73,148,203,-378,3
7685,195,-78,150,158,-327,7
7690,185,-82,147,117,-247,8
7695,180,-85,142,103,-155,10
7700,184,-89,134,123,-61,15
7705,182,-92,130,160,34,15
7710,181,-93,126,199,126,21
7715,184,-94,127,238,198,45
7720,184,-91,128,282,240,78
7725,193,-90,127,332,250,106
7730,193,-87,131,379,238,116
7735,197,-86,123,416,218,118
7740,190,-75,122,440,199,123
7745,196,-76,123,453,185,131
7750,191,-72,121,457,172,141
7755,187,-70,125,453,159,148
7760,184,-71,128,441,145,158
7765,184,-69,128,427,141,167
7770,186,-69,129,417,150,173
7775,182,-65,124,409,178,174
7780,181,-70,132,408,223,176
7785,172,-68,131,412,280,176
7790,166,-67,133,420,338,178
7795,169,-78,136,428,393,183
7800,166,-79,135,440,445,185
7805,160,-79,138,458,494,181
7810,154,-80,143,480,535,173
7815,153,-78,146,497,561,159
7820,152,-78,145,505,568,143
7825,160,-78,150,495,555,130
7830,156,-74,155,462,532,117
7835,165,-79,161,415,512,95
7840,162,-80,179,372,495,80
7845,162,-88,184,344,492,58
7850,172,-88,188,321,489,33
7855,176,-90,192,300,468,16
7860,181,-92,192,276,436,-3
7865,183,-84,192,247,389,-24
7870,182,-77,184,211,328,-46
7875,187,-78,180,176,260,-50
7880,185,-81,172,142,208,-57
7885,188,-80,164,112,166,-73
7890,200,-84,161,101,121,-83
7895,196,-82,153,118,85,-88
7900,194,-74,146,157,42,-82
7905,194,-61,136,209,5,-86
7910,193,-63,129,223,-29,-84
7915,203,-60,121,204,-41,-83
7920,202,-56,125,150,-27,-59
7925,204,-55,120,89,-1,-34
7930,201,-63,126,16,56,2
7935,198,-61,130,-41,142,10
7940,199,-56,136,-88,222,-4
7945,195,-56,137,-145,256,26
7950,183,-58,133,-220,291,52
7955,177,-63,137,-293,325,40
7960,169,-65,144,-351,325,15
7965,191,-69,142,-376,312,-21
7970,177,-74,152,-398,286,-11
7975,177,-76,146,-410,270,-16
7980,184,-78,153,-419,269,-28
7985,194,-84,156,-434,250,-21
7990,198,-91,160,-458,244,-2
7995,202,-97,160,-476,248,20
8000,195,-95,156,-485,265,30
8005,185,-95,153,-493,265,34
8010,147,-85,155,-492,262,16
8015,158,-94,151,-478,265,-1
8020,183,-96,156,-489,226,-11
8025,189,-102,149,-509,174,-18
8030,191,-104,144,-517,163,-8
8035,211,-105,138,-532,162,2
8040,193,-98,132,-551,168,-15
8045,178,-89,144,-561,198,-27
8050,178,-91,133,-563,239,-32
8055,161,-87,150,-586,251,-46
8060,150,-98,158,-605,251,-56
8065,152,-106,159,-601,242,-67
8070,173,-117,162,-554,246,-61
8075,201,-125,152,-478,256,-74
8080,187,-121,150,-413,226,-98
8085,178,-118,151,-325,219,-119
8090,177,-119,147,-248,213,-154
8095,177,-120,142,-197,210,-184
8100,178,-121,147,-162,221,-210
8105,179,-126,153,-124,240,-230
8110,179,-129,161,-74,259,-241
8115,174,-135,165,-4,269,-254
8120,179,-132,161,84,268,-259
8125,172,-127,163,181,262,-260
8130,165,-124,165,278,263,-259
8135,170,-118,160,367,269,-250
8140,162,-114,159,436,269,-234
8145,164,-110,161,487,263,-216
8150,166,-109,168,530,251,-191
8155,171,-105,161,563,232,-163
8160,173,-103,165,591,206,-138
8165,170,-97,166,616,182,-116
8170,175,-94,169,632,154,-99
8175,171,-95,176,641,122,-85
8180,175,-96,175,643,82,-76
8185,180,-91,175,641,31,-76
8190,185,-94,173,633,-20,-74
8195,191,-89,173,622,-60,-73
8200,192,-89,173,611,-84,-60
8205,197,-88,176,608,-95,-40
8210,204,-91,182,618,-101,-8
8215,207,-93,185,647,-116,22
8220,209,-90,178,690,-135,47
8225,210,-91,175,734,-149,84
8230,206,-91,171,773,-163,122
8235,208,-87,176,813,-170,161
8240,216,-90,178,848,-166,195
8245,222,-83,174,877,-138,220
8250,226,-80,176,897,-85,239
8255,229,-77,177,908,-5,251
8260,234,-76,180,917,88,257
8265,229,-74,181,931,178,267
8270,227,-76,179,957,260,281
8275,230,-82,178,1000,331,292
8280,216,-77,177,1052,403,299
8285,208,-80,176,1115,476,311
8290,203,-77,183,1182,547,330
8295,191,-73,195,1255,609,341
8300,192,-70,187,1327,672,362
8305,181,-67,187,1373,720,378
8310,174,-62,188,1377,756,400
8315,149,-59,186,1339,776,424
8320,149,-51,193,1266,776,446
8325,168,-46,198,1191,760,422
8330,192,-33,200,1139,770,364
8335,197,-31,196,1114,846,317
8340,201,-32,196,1092,1002,313
8345,190,-32,200,1057,1137,337
8350,164,-28,203,1012,1245,371
8355,163,-32,207,949,1306,406
8360,159,-33,211,907,1331,430
8365,152,-34,207,878,1341,444
8370,140,-28,209,849,1345,457
8375,131,-30,203,823,1339,473
8380,124,-30,203,801,1328,495
8385,122,-31,198,782,1324,509
8390,109,-32,203,763,1328,534
8395,99,-35,206,740,1347,557
8400,96,-32,212,721,1363,571
8405,91,-35,210,710,1371,579
8410,94,-31,210,702,1379,599
8415,95,-31,211,691,1386,618
8420,97,-34,207,667,1387,630
8425,101,-31,210,638,1380,626
8430,99,-34,214,620,1361,643
8435,104,-38,213,625,1333,661
8440,106,-43,210,654,1309,668
8445,114,-36,206,690,1296,664
8450,115,-35,199,717,1289,663
8455,126,-25,203,718,1295,674
8460,127,-29,194,683,1332,691
8465,126,-23,202,625,1380,714
8470,127,-29,214,572,1426,737
8475,123,-33,222,536,1476,766
8480,119,-34,229,517,1519,759
8485,121,-31,228,517,1550,736
8490,122,-29,225,516,1578,725
8495,126,-27,219,503,1614,725
8500,126,-32,220,469,1656,714
8505,123,-28,217,428,1689,698
8510,111,-23,211,389,1703,694
8515,114,-28,209,348,1712,683
8520,112,-28,210,297,1712,660
8525,110,-23,203,237,1699,641
8530,113,-29,207,179,1684,636
8535,109,-31,203,131,1674,633
8540,107,-34,197,92,1664,632
8545,104,-36,199,60,1650,617
8550,99,-35,192,39,1611,607
8555,95,-33,187,32,1550,605
8560,88,-33,185,30,1485,607
8565,86,-30,186,16,1423,589
8570,83,-28,182,-12,1362,573
8575,81,-27,183,-56,1306,568
8580,82,-28,186,-114,1258,569
8585,75,-33,190,-167,1213,573
8590,74,-39,194,-202,1175,571
8595,67,-46,195,-202,1140,556
8600,60,-48,197,-178,1098,527
8605,60,-49,194,-145,1040,503
8610,51,-46,189,-119,979,484
8615,57,-47,194,-112,927,461
8620,58,-54,202,-116,887,432
8625,61,-48,203,-128,864,404
8630,66,-49,214,-135,853,373
8635,65,-52,223,-125,845,342
8640,67,-56,226,-100,817,317
8645,66,-57,231,-62,761,294
8650,68,-50,236,-19,680,279
8655,74,-51,232,22,581,267
8660,77,-47,227,46,478,252
8665,77,-42,215,45,378,234
8670,82,-44,206,19,266,215
8675,88,-37,199,-16,183,201
8680,83,-38,191,-61,112,187
8685,83,-38,189,-104,57,178
8690,80,-46,188,-146,12,166
8695,77,-49,185,-178,-27,153
8700,79,-52,184,-201,-61,142
8705,80,-54,181,-217,-89,133
8710,85,-48,180,-224,-109,128
8715,92,-49,181,-233,-116,128
8720,99,-49,182,-242,-111,127
8725,103,-52,190,-246,-96,126
8730,105,-51,192,-244,-81,125
8735,104,-50,190,-237,-75,126
8740,104,-45,188,-236,-76,127
8745,109,-45,187,-253,-81,128
8750,110,-46,182,-294,-84,137
8755,113,-48,186,-347,-84,143
8760,115,-56,183,-396,-80,149
8765,112,-62,179,-433,-69,156
8770,111,-64,185,-459,-55,160
8775,102,-65,190,-481,-41,163
8780,99,-65,193,-501,-26,165
8785,98,-66,195,-522,-14,167
8790,93,-69,204,-549,8,167
8795,79,-76,221,-589,41,166
8800,42,-81,227,-637,67,169
8805,36,-91,249,-685,61,186
8810,50,-103,270,-726,34,211
8815,79,-118,301,-760,15,234
8820,120,-135,332,-790,33,253
8825,175,-160,366,-804,116,272
8830,208,-186,387,-787,296,294
8835,216,-200,405,-732,551,312
8840,198,-211,399,-651,837,317
8845,154,-199,374,-566,1104,309
8850,127,-188,353,-503,1298,291
8855,88,-168,326,-486,1368,277
8860,63,-144,289,-529,1308,279
8865,35,-119,256,-633,1154,273
8870,13,-96,218,-784,958,254
8875,-1,-90,199,-970,779,230
8880,-18,-80,191,-1141,658,202
8885,-25,-82,192,-1232,609,161
8890,-29,-85,195,-1205,631,124
8895,-31,-86,205,-1053,695,93
8900,-29,-78,208,-833,754,81
8905,-28,-72,210,-612,786,88
8910,-20,-61,203,-447,792,100
8915,-18,-48,205,-367,779,101
8920,-13,-43,200,-374,760,86
8925,-9,-48,198,-439,746,55
8930,-5,-56,197,-521,743,23
8935,-2,-67,197,-582,759,-2
8940,-6,-76,199,-602,798,-15
8945,-6,-89,201,-579,853,-20
8950,-8,-93,203,-523,916,-19
8955,-10,-99,206,-448,972,-15
8960,-10,-105,207,-375,1015,-10
8965,-11,-114,215,-311,1035,-5
8970,-16,-115,225,-262,1030,-2
8975,-19,-122,232,-230,997,-3
8980,-21,-127,239,-212,940,-8
8985,-24,-130,242,-208,865,-15
8990,-20,-128,239,-217,770,-22
8995,-25,-132,238,-239,702,-24
9000,-28,-129,232,-274,652,-24
9005,-28,-132,235,-321,622,-23
9010,-32,-130,234,-356,607,-22
9015,-35,-131,229,-390,600,-24
9020,-34,-133,230,-418,600,-27
9025,-35,-130,225,-433,603,-33
9030,-40,-130,223,-426,608,-40
9035,-37,-130,220,-394,616,-47
9040,-29,-129,214,-348,628,-54
9045,-30,-125,213,-298,649,-61
9050,-24,-122,207,-250,674,-68
9055,-19,-115,208,-212,700,-74
9060,-21,-119,206,-184,721,-81
9065,-18,-122,212,-161,736,-92
9070,-17,-124,212,-136,736,-100
9075,-21,-127,215,-107,723,-107
9080,-21,-126,216,-76,696,-113
9085,-23,-125,218,-46,660,-116
9090,-19,-128,223,-26,615,-116
9095,-27,-124,220,-21,572,-114
9100,-32,-124,222,-26,529,-111
9105,-37,-121,219,-36,490,-107
9110,-46,-120,214,-45,456,-104
9115,-46,-120,219,-51,426,-97
9120,-56,-112,213,-59,397,-91
9125,-63,-116,208,-73,370,-83
9130,-65,-109,204,-94,343,-75
9135,-62,-112,203,-119,317,-71
9140,-65,-115,203,-140,294,-68
9145,-61,-123,203,-154,276,-69
9150,-56,-126,201,-157,258,-68
9155,-57,-128,203,-146,243,-68
9160,-54,-128,207,-128,228,-69
9165,-50,-130,208,-113,213,-71
9170,-41,-128,212,-101,198,-70
9175,-40,-132,209,-90,184,-69
9180,-39,-129,208,-77,171,-70
9185,-36,-129,209,-60,158,-66
9190,-35,-129,208,-39,145,-60
9195,-30,-131,205,-18,128,-52
9200,-26,-130,211,6,110,-49
9205,-27,-133,211,34,85,-44
9210,-25,-131,210,63,60,-38
9215,-23,-135,210,95,37,-37
9220,-21,-135,209,125,21,-38
9225,-19,-138,211,149,9,-39
9230,-25,-135,207,167,2,-35
9235,-29,-139,212,181,-4,-31
9240,-29,-140,214,187,-11,-29
9245,-33,-139,211,196,-17,-21
9250,-35,-138,214,208,-21,-10
9255,-33,-137,217,226,-20,0
9260,-33,-130,208,246,-16,13
9265,-27,-128,211,263,-4,26
9270,-22,-121,215,271,16,41
9275,-8,-115,208,276,44,57
9280,-15,-112,211,279,71,72
9285,-11,-106,213,277,99,91
9290,-8,-102,213,273,120,98
9295,-7,-102,216,265,137,100
9300,-5,-96,218,257,143,102
9305,-2,-95,215,247,132,107
9310,-2,-93,224,238,112,115
9315,-2,-98,218,233,96,112
9320,-6,-99,221,235,79,105
9325,-9,-106,230,247,50,93
9330,-13,-111,227,267,22,80
9335,-4,-112,227,298,-10,69
9340,-11,-109,226,339,-31,60
9345,-12,-112,227,381,-41,60
9350,-18,-108,231,401,-41,62
9355,-17,-107,227,403,-38,68
9360,-17,-108,228,390,-32,71
9365,-18,-108,225,367,-17,74
9370,-19,-106,230,338,6,71
9375,-17,-113,229,307,33,68
9380,-18,-109,229,276,69,54
9385,-22,-108,232,245,109,41
9390,-25,-109,232,216,151,25
9395,-23,-110,228,187,191,14
9400,-21,-111,228,164,223,2
9405,-26,-111,232,146,247,-11
9410,-25,-113,233,133,260,-22
9415,-30,-114,224,127,261,-34
9420,-30,-114,229,132,254,-46
9425,-28,-117,233,141,242,-58
9430,-31,-113,230,154,228,-67
9435,-24,-112,232,167,213,-74
9440,-31,-111,226,176,197,-79
9445,-31,-109,225,182,176,-86
9450,-32,-110,221,183,155,-92
9455,-37,-106,221,188,135,-99
9460,-40,-104,217,196,111,-106
9465,-44,-101,217,213,81,-108
9470,-45,-96,213,240,50,-112
9475,-42,-95,213,272,22,-115
9480,-40,-97,212,302,-1,-122
9485,-38,-95,210,322,-22,-136
9490,-31,-99,215,336,-42,-153
9495,-29,-94,212,337,-62,-176
9500,-27,-95,213,325,-76,-201
9505,-23,-98,211,310,-91,-232
9510,-17,-100,214,295,-103,-255
9515,-23,-100,215,282,-112,-275
9520,-19,-105,217,279,-126,-298
9525,-20,-98,219,272,-137,-309
9530,-12,-102,224,271,-146,-319
9535,-12,-99,224,273,-154,-328
9540,-5,-101,225,277,-156,-339
9545,-3,-98,219,282,-151,-345
9550,-8,-101,221,286,-146,-347
9555,-9,-103,222,290,-143,-344
9560,-5,-103,224,295,-134,-337
9565,-11,-99,221,298,-127,-329
9570,-9,-102,219,303,-121,-319
9575,-12,-106,223,307,-113,-304
9580,-10,-103,224,313,-100,-286
9585,-15,-104,222,318,-87,-271
9590,-12,-99,222,320,-70,-249
9595,-13,-99,221,320,-46,-225
9600,-16,-98,217,317,-22,-202
9605,-16,-96,222,307,4,-175
9610,-18,-95,218,295,29,-144
9615,-20,-94,222,279,55,-116
9620,-24,-96,219,260,76,-86
9625,-30,-96,225,240,96,-60
9630,-33,-95,225,219,119,-41
9635,-36,-94,226,207,142,-23
9640,-36,-86,219,195,155,-1
9645,-45,-83,222,194,154,22
9650,-60,-86,224,194,139,49
9655,-70,-72,225,186,136,79
9660,-70,-82,221,175,141,101
9665,-67,-79,218,164,154,118
9670,-62,-75,218,153,167,136
9675,-61,-74,215,140,172,151
9680,-54,-73,214,127,177,165
9685,-56,-72,213,112,183,179
9690,-55,-76,213,98,193,184
9695,-61,-73,211,89,210,190
9700,-55,-79,211,85,226,196
9705,-56,-73,213,83,240,198
9710,-52,-69,215,82,251,195
9715,-48,-74,223,77,258,189
9720,-47,-77,225,68,261,184
9725,-44,-78,225,54,260,177
9730,-39,-86,227,38,254,166
9735,-46,-87,229,21,240,153
9740,-37,-95,234,4,212,138
9745,-32,-99,241,-16,195,129
9750,-34,-98,241,-34,177,115
9755,-36,-100,240,-53,151,101
9760,-33,-105,247,-73,120,91
9765,-29,-110,242,-92,89,84
9770,-28,-109,242,-108,67,75
9775,-23,-111,242,-121,50,66
9780,-22,-110,241,-127,38,60
9785,-20,-110,238,-131,33,61
9790,-22,-112,238,-132,35,57
9795,-19,-110,235,-130,40,55
9800,-15,-105,232,-129,48,55
9805,-17,-108,229,-124,52,60
9810,-24,-106,230,-119,52,64
9815,-24,-105,228,-113,49,60
9820,-28,-107,225,-108,44,63
9825,-21,-104,231,-101,42,63
9830,-19,-105,222,-91,36,66
9835,-26,-103,225,-81,30,67
9840,-26,-106,222,-73,31,65
9845,-27,-106,220,-64,29,58
9850,-30,-103,226,-49,27,53
9855,-29,-103,220,-28,21,48
9860,-30,-101,221,-10,16,45
9865,-26,-100,222,10,12,47
9870,-29,-99,222,30,8,50
9875,-34,-102,217,51,0,48
9880,-31,-99,219,67,-8,50
9885,-29,-101,223,85,-12,53
9890,-31,-98,223,103,-20,51
9895,-31,-98,223,116,-30,52
9900,-29,-100,225,130,-41,58
9905,-29,-98,222,141,-51,67
9910,-33,-96,225,150,-63,71
9915,-32,-100,224,156,-74,76
9920,-41,-99,224,162,-85,76
9925,-45,-99,222,163,-93,75
9930,-38,-97,225,166,-95,67
9935,-39,-97,224,168,-100,62
9940,-41,-101,225,167,-103,58
9945,-38,-97,225,163,-105,55
9950,-41,-96,225,153,-107,54
9955,-36,-98,225,143,-105,50
9960,-39,-96,226,131,-106,47
9965,-34,-99,230,119,-105,47
9970,-38,-97,230,107,-106,49
9975,-33,-102,229,97,-106,50
9980,-40,-100,225,86,-102,50
9985,-45,-100,231,76,-96,50
9990,-43,-98,230,67,-80,45
9995,-40,-99,228,58,-63,37
10000,-38,-100,226,50,-52,32
10005,-40,-97,228,43,-46,28
10010,-38,-97,224,40,-43,26
10015,-39,-97,223,33,-36,27
10020,-39,-97,230,27,-29,25
10025,-36,-94,231,21,-22,23
10030,-37,-95,226,19,-18,20
10035,-35,-101,234,15,-15,18
10040,-35,-96,230,16,-13,17
10045,-33,-98,232,17,-14,17
10050,-33,-98,232,17,-18,17
10055,-36,-95,229,19,-22,16
10060,-34,-99,227,22,-25,17
10065,-34,-95,232,26,-28,18
10070,-31,-101,225,32,-33,17
10075,-32,-100,228,40,-36,18
10080,-32,-97,226,47,-40,17
10085,-30,-96,225,56,-42,18
10090,-34,-95,221,65,-47,17
10095,-30,-97,223,76,-48,19
10100,-31,-96,224,86,-52,19
10105,-30,-96,223,97,-53,20
10110,-28,-100,220,107,-57,19
10115,-30,-96,221,115,-60,19
10120,-28,-97,226,123,-62,19
10125,-25,-98,222,133,-66,19
10130,-32,-97,224,141,-66,20
10135,-27,-97,224,149,-66,18
10140,-28,-95,232,154,-67,18
10145,-28,-102,227,158,-67,17
10150,-25,-96,224,159,-67,14
10155,-22,-99,226,160,-67,11
10160,-25,-95,228,159,-67,4
10165,-17,-98,226,160,-74,-9
10170,-26,-94,226,161,-80,-12
10175,-28,-95,227,156,-76,-6
10180,-25,-95,229,149,-68,2
10185,-20,-97,229,141,-59,7
10190,-21,-98,229,127,-56,7
10195,-25,-97,232,113,-55,10
10200,-25,-93,230,99,-55,12
10205,-24,-95,229,85,-54,14
10210,-24,-94,234,75,-56,15
10215,-24,-96,227,65,-56,15
10220,-22,-93,232,59,-58,14
10225,-25,-97,233,52,-58,14
10230,-27,-94,232,50,-61,13
10235,-26,-97,233,47,-63,11
10240,-25,-95,224,46,-65,9
10245,-25,-100,232,43,-66,9
10250,-29,-93,233,41,-67,7
10255,-29,-98,226,37,-67,8
10260,-25,-98,227,35,-66,5
10265,-26,-96,230,33,-68,7
10270,-26,-95,230,32,-68,7
10275,-27,-96,228,34,-67,7
10280,-22,-96,230,36,-67,9
10285,-24,-94,227,40,-65,11
10290,-28,-93,229,42,-66,11
10295,-23,-92,231,44,-65,15
10300,-20,-94,224,45,-64,14
10305,-25,-94,225,44,-63,16
10310,-25,-94,224,44,-60,18
10315,-26,-94,225,43,-60,19
10320,-22,-96,225,42,-59,20
10325,-23,-93,225,40,-57,22
10330,-24,-93,225,38,-58,23
10335,-27,-93,225,37,-60,23
10340,-25,-90,222,37,-62,26
10345,-24,-93,222,39,-65,28
10350,-21,-96,227,39,-65,28
10355,-22,-93,225,41,-67,29
10360,-24,-95,226,43,-70,32
10365,-25,-92,222,45,-72,32
10370,-22,-95,224,45,-75,34
10375,-23,-94,224,47,-73,35
10380,-22,-93,225,49,-75,33
10385,-23,-96,225,52,-73,35
10390,-20,-97,223,54,-73,34
10395,-20,-95,224,54,-72,34
10400,-20,-94,223,55,-72,32
10405,-19,-93,224,54,-72,34
10410,-21,-96,227,53,-73,31
10415,-23,-97,227,49,-71,26
10420,-25,-95,224,48,-70,29
10425,-22,-93,229,45,-65,30
10430,-22,-91,226,40,-60,34
10435,-20,-94,226,35,-56,33
10440,-23,-95,229,31,-53,31
10445,-24,-95,223,27,-51,31
10450,-18,-97,228,24,-48,31
10455,-22,-94,228,20,-45,28
10460,-23,-96,223,17,-44,27
10465,-20,-97,228,16,-43,24
10470,-20,-95,227,13,-43,24
10475,-21,-95,226,11,-43,21
10480,-20,-97,228,9,-43,20
10485,-21,-98,228,8,-42,21
10490,-18,-94,225,7,-40,19
10495,-22,-97,227,8,-39,17
10500,-20,-98,234,9,-37,14
10505,-19,-97,232,10,-36,14
10510,-20,-97,231,12,-34,12
10515,-18,-96,232,14,-33,9
10520,-17,-101,232,16,-31,8
10525,-24,-96,228,21,-27,6
10530,-20,-96,229,27,-25,4
10535,-20,-96,226,30,-24,4
10540,-21,-95,228,35,-25,0
10545,-21,-97,231,36,-24,3
10550,-20,-99,228,37,-24,2
10555,-23,-96,226,38,-22,-2
10560,-21,-96,229,39,-23,-2
10565,-23,-96,229,40,-21,0
10570,-21,-92,228,40,-20,1
10575,-17,-101,229,41,-18,-2
10580,-19,-97,229,40,-17,-3
10585,-21,-97,221,41,-17,-3
10590,-24,-93,229,40,-15,-3
10595,-20,-95,228,40,-13,-2
10600,-20,-95,229,38,-13,-3
10605,-21,-95,229,37,-13,-4
10610,-20,-96,229,37,-11,-3
10615,-17,-97,231,35,-12,-3
10620,-21,-96,222,35,-12,-1
10625,-18,-97,228,36,-12,-1
10630,-19,-95,230,36,-13,-2
10635,-11,-98,220,36,-13,-1
10640,-16,-97,227,35,-10,0
10645,-18,-98,229,39,-10,2
10650,-19,-99,229,42,-7,1
10655,-17,-100,223,45,-6,0
10660,-19,-96,228,47,-5,1
10665,-18,-95,228,50,-3,0
10670,-16,-94,225,51,-3,-1
10675,-20,-95,227,52,0,-2
10680,-17,-96,225,52,1,-2
10685,-18,-96,228,53,1,-1
10690,-20,-94,229,51,4,-1
10695,-19,-97,228,49,5,-1
10700,-19,-95,227,47,6,-3
10705,-19,-96,225,46,6,-3
10710,-17,-97,228,44,7,-2
10715,-17,-97,227,43,7,-4
10720,-20,-96,226,45,7,-5
10725,-17,-98,225,47,9,-6
10730,-18,-97,226,47,10,-7
10735,-19,-98,223,48,10,-7
10740,-19,-97,228,46,11,-7
10745,-22,-96,234,43,14,-5
10750,-18,-97,226,43,16,-5
10755,-22,-94,227,42,17,-6
10760,-19,-93,231,41,19,-6
10765,-19,-92,227,39,21,-5
10770,-18,-95,226,40,25,-7
10775,-21,-94,223,40,28,-8
10780,-18,-93,231,39,32,-7
10785,-17,-93,228,40,33,-6
10790,-17,-95,227,43,37,-8
10795,-21,-91,228,46,39,-8
10800,-26,-91,227,51,38,-8
10805,-21,-96,229,57,36,-8
10810,-19,-96,227,60,33,-8
10815,-22,-98,224,64,31,-10
10820,-18,-97,227,72,28,-10
10825,-19,-99,229,81,23,-10
10830,-22,-98,224,89,20,-9
10835,-17,-98,224,98,18,-10
10840,-16,-98,226,106,14,-15
10845,-24,-100,223,117,3,-24
10850,-23,-100,226,124,1,-21
10855,-16,-97,235,131,5,-14
10860,-22,-98,224,138,8,-11
10865,-19,-96,223,142,11,-8
10870,-20,-96,229,144,11,-12
10875,-16,-99,224,146,8,-16
10880,-21,-96,227,145,4,-21
10885,-24,-98,229,144,6,-19
10890,-25,-92,225,140,8,-16
10895,-23,-96,229,139,7,-14
10900,-22,-92,226,133,7,-15
10905,-25,-91,231,127,4,-20
10910,-19,-90,231,120,-2,-22
10915,-22,-93,228,108,2,-17
10920,-21,-93,229,93,9,-14
10925,-22,-92,229,76,16,-10
10930,-25,-90,229,61,19,-9
10935,-23,-91,231,46,25,-9
10940,-23,-91,231,35,30,-7
10945,-22,-90,229,24,35,-6
10950,-21,-91,229,17,39,-8
10955,-21,-97,230,12,43,-8
10960,-22,-97,232,9,44,-7
10965,-18,-95,230,9,45,-10
10970,-22,-93,229,10,44,-9
10975,-19,-97,231,14,43,-10
10980,-21,-94,228,18,41,-10
10985,-18,-91,227,22,38,-9
10990,-20,-98,231,28,36,-8
10995,-22,-94,228,34,34,-9
11000,-20,-98,225,39,32,-11
11005,-22,-97,226,44,30,-11
11010,-27,-96,223,50,29,-13
11015,-24,-98,226,56,27,-14
11020,-22,-93,227,60,26,-13
11025,-18,-96,225,64,26,-12
11030,-21,-95,227,67,25,-13
11035,-20,-95,227,72,22,-14
11040,-21,-93,224,74,24,-15
11045,-21,-94,228,77,23,-15
11050,-22,-91,224,78,22,-14
11055,-20,-92,229,78,21,-14
11060,-25,-92,224,78,19,-18
11065,-19,-94,225,79,14,-17
11070,-22,-100,222,77,14,-18
11075,-22,-92,227,78,16,-17
11080,-20,-95,228,78,18,-17
11085,-23,-93,225,77,20,-17
11090,-23,-96,228,75,23,-17
11095,-19,-95,231,73,26,-16
11100,-21,-97,228,71,28,-16
11105,-20,-97,227,71,28,-16
11110,-20,-98,228,72,28,-15
11115,-20,-92,231,74,28,-15
11120,-21,-94,233,77,27,-15
11125,-22,-96,226,79,26,-14
11130,-22,-93,225,79,26,-15
11135,-20,-94,229,79,25,-14
11140,-23,-92,226,82,22,-14
11145,-21,-94,229,85,19,-16
11150,-22,-97,225,88,18,-15
11155,-22,-93,226,88,17,-16
11160,-20,-93,224,87,16,-14
11165,-20,-93,227,83,16,-15
11170,-21,-97,229,79,17,-15
11175,-22,-90,230,75,18,-13
11180,-22,-93,228,73,22,-6
11185,-23,-97,230,70,23,-9
11190,-24,-92,227,69,23,-10
11195,-22,-94,227,64,21,-11
11200,-22,-92,228,62,19,-11
11205,-21,-93,230,59,18,-10
11210,-24,-95,226,59,19,-9
11215,-24,-93,227,58,20,-7
11220,-18,-92,228,58,20,-8
11225,-21,-97,228,57,20,-6
11230,-21,-93,229,58,21,-9
11235,-24,-97,233,59,19,-9
11240,-25,-94,228,59,18,-11
11245,-23,-94,229,61,17,-12
11250,-21,-92,230,65,14,-11
11255,-18,-93,231,66,11,-11
11260,-20,-94,229,67,11,-12
11265,-23,-93,229,69,12,-11
11270,-24,-92,226,71,12,-11
11275,-20,-92,228,74,13,-12
11280,-19,-92,226,76,14,-13
11285,-20,-94,230,77,12,-11
11290,-17,-92,230,77,11,-11
11295,-20,-88,229,78,12,-10
11300,-22,-92,228,79,13,-11
11305,-22,-93,229,78,14,-10
11310,-20,-94,226,79,12,-8
11315,-21,-94,228,78,11,-9
11320,-22,-94,227,77,11,-8
11325,-22,-92,230,78,10,-8
11330,-18,-93,228,77,8,-8
11335,-18,-96,230,78,6,-11
11340,-24,-94,230,82,2,-18
11345,-17,-91,222,80,3,-11
11350,-24,-93,229,83,8,-8
11355,-23,-92,229,84,9,-7
11360,-23,-94,231,84,9,-7
11365,-20,-96,229,85,6,-6
11370,-20,-93,227,86,4,-7
11375,-23,-90,228,86,1,-7
11380,-21,-95,227,87,-1,-8
11385,-24,-95,229,87,-1,-8
11390,-22,-89,228,87,-1,-6
11395,-23,-93,230,85,0,-9
11400,-23,-97,233,83,-1,-9
11405,-22,-92,228,79,-1,-9
11410,-20,-92,226,78,0,-9
11415,-18,-94,230,76,0,-9
11420,-21,-94,229,74,1,-10
11425,-20,-94,229,73,3,-9
11430,-23,-88,234,70,6,-10
11435,-20,-90,233,67,7,-11
11440,-20,-93,225,62,8,-10
11445,-21,-95,228,61,9,-11
11450,-23,-99,225,58,10,-10
11455,-24,-91,232,56,13,-9
11460,-20,-93,232,54,15,-11
11465,-22,-89,227,53,16,-12
11470,-23,-92,231,53,18,-12
11475,-20,-89,225,52,20,-11
11480,-23,-92,231,51,22,-11
11485,-20,-90,232,50,23,-11
11490,-21,-94,228,49,26,-10
11495,-18,-92,235,49,27,-10
11500,-21,-92,225,48,28,-10
11505,-19,-94,235,47,28,-8
11510,-20,-90,229,47,29,-10
11515,-22,-91,229,45,30,-10
11520,-22,-91,236,44,29,-9
11525,-19,-92,232,44,28,-11
11530,-21,-89,235,42,25,-12
11535,-25,-88,228,42,22,-12
11540,-21,-91,230,42,20,-12
11545,-19,-94,232,42,16,-12
11550,-22,-94,228,41,14,-10
11555,-17,-93,230,44,13,-13
11560,-21,-97,231,49,13,-13
11565,-19,-96,226,55,11,-11
11570,-21,-96,227,62,11,-12
11575,-20,-93,228,69,13,-11
11580,-25,-93,228,77,13,-11
11585,-19,-94,224,84,14,-10
11590,-22,-93,228,90,13,-11
11595,-19,-93,228,95,12,-12
11600,-20,-92,228,97,13,-12
11605,-24,-93,227,104,11,-14
11610,-20,-91,229,108,9,-17
11615,-13,-89,223,108,9,-14
11620,-20,-92,226,107,6,-15
11625,-23,-89,227,104,5,-17
11630,-25,-89,228,101,2,-17
11635,-24,-90,229,98,-1,-19
11640,-19,-91,228,92,-1,-16
11645,-19,-88,229,85,2,-16
11650,-21,-90,230,78,4,-15
11655,-22,-89,228,71,6,-12
11660,-23,-90,226,62,7,-12
11665,-22,-92,225,55,8,-11
11670,-23,-93,232,47,11,-10
11675,-18,-89,228,40,14,-10
11680,-21,-91,227,34,16,-8
11685,-17,-92,230,29,17,-7
11690,-23,-91,230,26,18,-7
11695,-20,-91,234,23,19,-7
11700,-23,-91,229,23,20,-7
11705,-20,-89,229,23,21,-7
11710,-19,-93,230,24,20,-8
11715,-21,-94,235,27,21,-6
11720,-20,-93,231,28,20,-7
11725,-25,-98,232,29,20,-8
11730,-19,-91,230,31,18,-9
11735,-19,-95,230,34,17,-9
11740,-24,-90,230,35,15,-8
11745,-20,-90,229,37,13,-10
11750,-21,-93,229,39,13,-10
11755,-22,-91,228,41,10,-11
11760,-20,-91,226,45,10,-12
11765,-22,-91,225,47,9,-10
11770,-23,-93,226,48,11,-11
11775,-17,-93,229,46,11,-10
11780,-19,-86,229,45,10,-10
11785,-22,-93,228,42,10,-12
11790,-21,-88,228,42,12,-10
11795,-20,-91,233,39,12,-12
11800,-21,-91,231,35,12,-12
11805,-20,-91,231,33,12,-12
11810,-22,-88,227,34,12,-11
11815,-19,-90,229,33,14,-14
11820,-23,-93,230,35,15,-14
11825,-23,-92,229,34,15,-14
11830,-20,-92,230,34,16,-13
11835,-25,-94,221,33,18,-15
11840,-23,-93,229,34,18,-13
11845,-21,-94,227,35,21,-13
11850,-20,-91,228,37,21,-14
11855,-23,-91,233,38,22,-13
11860,-20,-93,229,39,24,-11
11865,-20,-95,228,42,25,-14
11870,-19,-98,230,43,25,-14
11875,-20,-95,230,44,25,-15
11880,-22,-93,227,44,25,-15
11885,-18,-92,229,44,24,-14
11890,-27,-88,225,42,24,-15
11895,-21,-94,226,41,24,-14
11900,-20,-92,229,42,23,-13
11905,-22,-90,233,42,22,-12
11910,-20,-92,229,39,22,-13
11915,-21,-92,227,38,20,-13
11920,-19,-90,226,37,19,-11
11925,-19,-93,228,36,19,-11
11930,-20,-92,227,36,19,-13
11935,-22,-96,230,36,17,-12
11940,-21,-93,229,34,17,-12
11945,-23,-98,228,32,15,-12
11950,-22,-91,229,30,15,-13
11955,-23,-93,229,28,14,-12
11960,-19,-91,230,27,14,-12
11965,-22,-90,231,25,14,-13
11970,-21,-90,233,23,12,-14
11975,-19,-93,228,23,12,-12
11980,-22,-91,231,24,11,-13
11985,-20,-91,230,23,12,-13
11990,-23,-92,230,23,11,-14
11995,-21,-94,224,22,10,-14
