timestamp,acc_x,acc_y,acc_z,gyro_x,gyro_y,gyro_z
0,17,-245,0,57,19,-10
5,14,-247,0,57,20,-12
10,16,-248,0,57,19,-12
15,17,-248,-3,57,19,-12
20,13,-250,-3,56,19,-11
25,12,-247,-9,56,19,-10
30,13,-248,0,55,21,-12
35,14,-248,1,55,20,-12
40,13,-249,-2,55,21,-13
45,11,-248,0,55,20,-12
50,14,-249,-2,55,20,-14
55,15,-249,-2,54,20,-13
60,12,-247,0,56,20,-13
65,11,-247,-5,55,21,-13
70,10,-240,-4,55,20,-14
75,12,-247,-3,55,21,-14
80,13,-250,0,54,20,-13
85,12,-248,0,55,21,-15
90,12,-247,-2,55,20,-15
95,17,-249,0,57,20,-14
100,12,-247,-1,60,21,-13
105,11,-247,-1,62,21,-11
110,13,-245,-1,64,21,-12
115,17,-249,-2,65,20,-12
120,12,-246,-3,65,20,-12
125,15,-249,-2,63,19,-13
130,15,-250,-1,60,18,-13
135,14,-249,0,57,18,-12
140,15,-249,-2,54,16,-13
145,14,-249,-3,51,15,-13
150,15,-248,0,50,15,-11
155,11,-250,-2,48,13,-12
160,12,-249,-1,49,12,-11
165,14,-251,-1,50,10,-11
170,12,-248,0,49,9,-11
175,12,-249,0,50,8,-12
180,10,-249,0,52,9,-11
185,11,-247,0,53,9,-12
190,12,-249,-3,54,9,-13
195,13,-251,-3,57,11,-13
200,13,-249,1,58,13,-13
205,16,-251,-2,61,13,-13
210,14,-248,0,62,13,-11
215,10,-249,-2,63,13,-12
220,12,-246,-1,63,14,-14
225,13,-244,-2,63,13,-13
230,14,-250,1,62,13,-14
235,14,-249,0,60,13,-13
240,15,-249,5,61,13,-14
245,14,-248,0,63,13,-13
250,13,-250,1,61,12,-14
255,14,-247,-2,63,12,-12
260,14,-250,-2,62,12,-13
265,15,-249,0,64,11,-13
270,10,-251,0,64,11,-14
275,12,-249,0,64,9,-12
280,14,-249,-1,66,10,-12
285,13,-247,0,66,9,-12
290,14,-247,0,68,11,-12
295,8,-247,0,69,10,-13
300,15,-248,1,70,10,-13
305,13,-247,-1,71,11,-14
310,16,-249,-4,71,12,-13
315,16,-248,0,70,14,-13
320,13,-245,0,68,14,-14
325,11,-245,-2,66,14,-13
330,12,-249,0,65,15,-14
335,17,-248,-1,65,15,-14
340,14,-248,1,64,16,-13
345,13,-247,-2,65,16,-15
350,14,-247,0,65,17,-16
355,15,-250,-2,65,17,-14
360,15,-248,-1,65,16,-14
365,12,-247,0,66,15,-16
370,15,-248,1,64,16,-14
375,12,-249,0,64,17,-12
380,14,-250,-1,63,17,-13
385,13,-248,0,63,15,-12
390,13,-250,-3,62,14,-12
395,14,-252,1,64,15,-12
400,16,-249,0,64,14,-11
405,13,-249,1,64,14,-12
410,14,-247,0,67,14,-11
415,13,-249,-1,66,13,-12
420,13,-247,0,66,14,-12
425,13,-251,-2,65,13,-11
430,14,-248,0,66,15,-11
435,14,-247,0,65,15,-13
440,15,-247,0,64,15,-12
445,11,-248,-1,62,14,-12
450,15,-247,0,61,14,-13
455,17,-248,0,62,14,-14
460,12,-247,1,61,14,-14
465,12,-247,-2,61,14,-13
470,17,-250,0,61,14,-11
475,14,-250,1,60,13,-11
480,13,-250,0,59,12,-11
485,12,-246,-2,59,12,-12
490,15,-250,0,59,12,-11
495,16,-247,1,61,12,-11
500,15,-250,0,61,12,-13
505,14,-248,-2,61,12,-13
510,12,-252,0,63,10,-12
515,13,-247,-1,65,10,-11
520,16,-249,-1,65,10,-12
525,13,-250,0,67,9,-11
530,12,-248,-1,66,8,-12
535,12,-247,0,67,8,-11
540,15,-248,0,67,7,-9
545,15,-245,-2,69,7,-12
550,7,-259,-1,70,5,-11
555,14,-249,-4,68,6,-12
560,12,-249,0,68,5,-12
565,15,-251,1,68,8,-12
570,13,-248,0,69,8,-12
575,14,-248,1,69,9,-12
580,13,-245,1,70,8,-12
585,16,-248,1,71,9,-11
590,14,-250,-1,70,9,-13
595,9,-248,0,72,10,-13
600,12,-244,-1,72,10,-13
605,15,-250,0,72,8,-14
610,14,-245,0,71,9,-12
615,26,-251,0,69,7,-11
620,15,-249,-1,69,8,-11
625,15,-249,-5,70,6,-12
630,14,-249,0,71,5,-9
635,16,-249,-1,71,6,-9
640,9,-242,3,73,6,-10
645,18,-247,-2,75,7,-10
650,12,-245,1,76,9,-10
655,10,-247,-2,77,10,-10
660,15,-246,0,76,11,-11
665,16,-244,6,77,13,-11
670,16,-248,0,74,16,-11
675,14,-248,4,75,17,-11
680,14,-247,2,74,18,-12
685,22,-242,10,74,18,-13
690,16,-247,0,70,17,-15
695,15,-248,0,67,15,-14
700,15,-244,0,66,15,-13
705,13,-241,1,64,14,-15
710,10,-244,4,65,13,-13
715,14,-251,1,69,12,-14
720,16,-249,-1,70,10,-13
725,12,-247,2,72,9,-13
730,14,-247,1,73,10,-12
735,15,-248,0,73,10,-13
740,12,-248,3,72,11,-13
745,12,-246,1,71,11,-15
750,14,-248,0,70,12,-11
755,13,-251,1,67,12,-11
760,15,-249,-2,65,12,-11
765,19,-241,-15,62,13,-12
770,16,-249,0,62,13,-12
775,16,-245,0,60,12,-12
780,14,-247,-5,59,11,-11
785,14,-250,1,60,9,-12
790,14,-249,0,61,8,-11
795,14,-251,0,63,8,-11
800,14,-249,1,64,7,-10
805,13,-246,6,66,8,-10
810,15,-256,-3,69,9,-11
815,13,-247,1,71,11,-13
820,12,-249,0,74,14,-15
825,13,-247,0,75,15,-15
830,13,-247,2,76,16,-15
835,14,-247,1,75,16,-16
840,17,-249,-1,74,16,-16
845,13,-246,0,73,16,-16
850,14,-249,4,73,15,-16
855,15,-247,-1,70,15,-15
860,13,-248,0,69,14,-14
865,18,-247,1,68,13,-12
870,14,-244,0,67,13,-13
875,13,-249,1,66,14,-11
880,12,-248,-1,66,15,-12
885,12,-250,0,66,14,-11
890,13,-250,-1,66,15,-12
895,7,-257,11,67,15,-11
900,16,-252,-1,66,16,-11
905,16,-249,3,67,16,-10
910,15,-249,0,68,15,-12
915,11,-248,5,69,17,-11
920,15,-249,-1,68,17,-11
925,13,-248,0,68,17,-10
930,15,-250,0,69,16,-12
935,16,-245,15,69,15,-12
940,10,-241,0,70,15,-13
945,14,-248,2,70,16,-12
950,11,-246,-1,70,16,-12
955,13,-251,2,71,18,-11
960,11,-255,-4,69,18,-11
965,13,-249,1,70,17,-13
970,12,-250,3,71,19,-13
975,17,-249,4,69,19,-11
980,15,-247,3,69,17,-11
985,11,-244,1,68,16,-11
990,13,-247,3,65,16,-11
995,13,-248,4,64,16,-10
1000,15,-250,1,62,17,-9
1005,13,-250,0,62,15,-10
1010,13,-251,2,62,15,-10
1015,13,-248,0,62,14,-10
1020,13,-248,0,62,15,-10
1025,16,-249,0,63,15,-10
1030,13,-249,4,63,16,-10
1035,13,-248,0,65,15,-11
1040,14,-248,2,66,16,-11
1045,13,-249,0,66,15,-11
1050,12,-246,1,66,16,-11
1055,13,-248,1,65,16,-10
1060,13,-248,1,64,18,-10
1065,14,-248,0,63,16,-10
1070,12,-248,-1,62,15,-10
1075,13,-248,2,60,13,-10
1080,11,-249,0,60,13,-10
1085,15,-247,11,59,13,-10
1090,13,-248,1,58,11,-9
1095,13,-250,1,58,11,-11
1100,16,-249,-1,58,9,-9
1105,15,-250,1,58,9,-8
1110,14,-249,3,59,8,-9
1115,16,-248,1,60,9,-8
1120,16,-248,2,61,9,-9
1125,15,-248,4,61,8,-9
1130,15,-251,1,62,9,-10
1135,13,-251,4,62,9,-10
1140,11,-249,2,62,10,-10
1145,15,-248,1,63,10,-11
1150,14,-246,2,63,10,-11
1155,15,-246,4,64,9,-11
1160,13,-248,0,65,11,-10
1165,13,-251,3,65,10,-11
1170,12,-246,4,64,10,-10
1175,12,-248,2,62,11,-12
1180,14,-249,2,63,11,-11
1185,18,-249,2,61,10,-10
1190,13,-245,2,59,10,-10
1195,16,-250,2,57,9,-11
1200,15,-249,-1,56,10,-12
1205,15,-248,0,55,10,-11
1210,13,-249,2,54,9,-11
1215,16,-247,1,53,10,-11
1220,16,-249,0,53,10,-11
1225,16,-248,5,52,10,-12
1230,18,-251,0,52,10,-13
1235,14,-248,1,52,11,-12
1240,12,-248,1,53,11,-12
1245,13,-248,2,52,11,-14
1250,14,-248,0,53,13,-14
1255,11,-245,1,54,13,-13
1260,14,-248,-2,54,13,-13
1265,15,-246,1,53,15,-13
1270,15,-247,2,55,13,-14
1275,17,-249,3,56,15,-14
1280,12,-248,4,56,15,-12
1285,16,-249,3,55,16,-13
1290,14,-247,3,55,16,-12
1295,14,-250,2,56,16,-12
1300,14,-247,2,54,17,-12
1305,15,-249,1,53,15,-10
1310,14,-249,0,53,15,-11
1315,13,-248,2,52,14,-12
1320,12,-247,1,53,14,-11
1325,15,-250,1,54,14,-11
1330,13,-247,0,55,13,-10
1335,16,-250,1,56,12,-11
1340,16,-249,4,56,11,-11
1345,12,-249,2,57,12,-10
1350,14,-250,3,59,13,-11
1355,17,-251,1,58,12,-10
1360,14,-249,2,57,12,-10
1365,12,-248,1,55,13,-11
1370,13,-248,5,55,12,-11
1375,14,-246,2,54,12,-12
1380,13,-250,-1,54,12,-11
1385,13,-248,2,55,12,-10
1390,14,-244,0,57,12,-10
1395,13,-249,6,56,12,-11
1400,13,-248,2,55,11,-9
1405,12,-247,-2,56,11,-10
1410,14,-247,-1,56,11,-11
1415,14,-247,1,55,10,-11
1420,15,-248,2,55,11,-11
1425,13,-247,0,55,10,-11
1430,16,-244,3,56,10,-10
1435,14,-250,2,55,12,-12
1440,15,-247,2,56,11,-11
1445,14,-248,-4,58,11,-11
1450,15,-245,1,57,10,-11
1455,15,-247,0,60,11,-11
1460,13,-247,3,60,9,-11
1465,14,-250,1,61,10,-12
1470,14,-248,1,61,9,-10
1475,16,-248,3,59,9,-11
1480,15,-250,1,61,9,-11
1485,15,-248,0,60,10,-11
1490,15,-248,2,60,10,-13
1495,14,-245,1,61,11,-13
1500,15,-248,4,63,10,-12
1505,15,-250,1,63,11,-12
1510,15,-250,1,64,12,-10
1515,15,-248,1,63,11,-12
1520,13,-248,2,63,12,-12
1525,15,-249,1,62,11,-12
1530,13,-249,1,63,10,-11
1535,15,-248,0,63,11,-11
1540,11,-247,1,62,12,-12
1545,16,-248,1,62,10,-12
1550,15,-247,1,62,10,-12
1555,16,-250,1,60,9,-13
1560,16,-246,5,61,11,-13
1565,13,-247,4,61,11,-14
1570,14,-248,1,60,10,-13
1575,14,-249,-3,60,9,-13
1580,13,-248,3,57,9,-11
1585,12,-246,3,55,10,-12
1590,13,-248,0,53,10,-12
1595,13,-248,2,51,10,-10
1600,15,-248,3,50,10,-11
1605,13,-250,1,50,9,-11
1610,15,-247,0,52,8,-10
1615,15,-250,2,55,8,-11
1620,11,-247,3,56,8,-10
1625,17,-249,0,58,9,-8
1630,14,-250,4,59,11,-10
1635,14,-247,2,58,14,-11
1640,15,-249,1,59,16,-11
1645,16,-252,0,59,19,-11
1650,16,-251,2,60,21,-11
1655,15,-253,-2,60,21,-11
1660,15,-247,0,59,21,-12
1665,12,-247,1,59,21,-10
1670,13,-248,-5,56,20,-13
1675,13,-245,1,56,18,-12
1680,15,-249,0,54,16,-11
1685,14,-251,1,57,16,-10
1690,11,-246,1,59,15,-10
1695,14,-247,5,60,15,-9
1700,14,-247,1,61,15,-11
1705,13,-242,3,62,14,-13
1710,14,-249,1,63,15,-13
1715,11,-246,3,62,16,-12
1720,14,-246,2,62,16,-12
1725,14,-249,1,60,16,-13
1730,12,-249,-1,57,16,-13
1735,12,-246,1,54,18,-13
1740,19,-249,0,50,17,-11
1745,15,-246,3,50,16,-13
1750,15,-250,1,50,14,-11
1755,18,-251,2,51,13,-11
1760,14,-249,0,54,12,-11
1765,15,-249,2,57,9,-10
1770,15,-251,1,59,8,-10
1775,12,-249,3,61,9,-11
1780,12,-248,-7,64,9,-11
1785,12,-248,1,66,10,-11
1790,13,-251,1,67,11,-11
1795,13,-248,3,68,14,-11
1800,13,-250,1,67,15,-12
1805,16,-246,1,65,15,-13
1810,15,-247,2,62,16,-14
1815,12,-246,2,61,17,-12
1820,14,-248,1,57,17,-15
1825,16,-247,2,55,17,-14
1830,17,-249,2,53,16,-12
1835,15,-249,1,53,14,-11
1840,13,-248,2,51,11,-12
1845,13,-247,0,51,10,-9
1850,14,-248,0,51,10,-10
1855,15,-252,1,52,7,-10
1860,15,-251,0,52,8,-8
1865,16,-253,0,53,7,-9
1870,14,-248,1,56,7,-9
1875,15,-250,1,56,8,-6
1880,11,-249,1,58,8,-7
1885,14,-251,1,60,8,-9
1890,13,-247,2,61,7,-9
1895,15,-248,1,60,8,-9
1900,16,-248,2,60,10,-8
1905,15,-249,2,60,11,-7
1910,14,-249,1,57,11,-8
1915,15,-249,3,54,12,-8
1920,17,-247,2,53,10,-9
1925,14,-251,5,52,11,-9
1930,14,-250,1,51,11,-10
1935,13,-248,2,52,13,-8
1940,13,-251,3,51,11,-8
1945,13,-250,2,50,11,-9
1950,16,-247,3,50,10,-9
1955,13,-250,1,51,9,-10
1960,13,-249,1,53,9,-10
1965,14,-245,2,53,8,-9
1970,13,-249,0,54,8,-10
1975,15,-247,4,54,7,-11
1980,16,-249,3,55,6,-13
1985,11,-250,1,56,6,-10
1990,12,-249,-1,57,6,-9
1995,14,-248,2,56,7,-11
2000,12,-248,3,57,8,-12
2005,17,-249,0,57,8,-10
2010,13,-247,1,57,9,-11
2015,13,-247,1,57,9,-12
2020,16,-250,4,57,10,-13
2025,12,-248,-1,55,10,-12
2030,13,-248,1,53,9,-12
2035,14,-246,1,53,10,-11
2040,16,-251,0,53,7,-10
2045,13,-247,0,51,6,-10
2050,16,-246,4,49,6,-10
2055,14,-247,2,48,5,-9
2060,13,-249,3,46,6,-8
2065,13,-246,3,45,4,-8
2070,11,-248,2,44,4,-8
2075,16,-251,0,44,1,-7
2080,14,-245,1,44,1,-7
2085,15,-248,2,45,1,-7
2090,14,-250,4,46,3,-6
2095,14,-251,2,47,4,-7
2100,12,-246,1,49,6,-7
2105,15,-248,1,51,8,-6
2110,14,-249,1,52,9,-5
2115,13,-250,4,53,9,-7
2120,12,-249,2,53,9,-7
2125,15,-248,2,53,9,-9
2130,14,-248,3,51,9,-11
2135,12,-250,2,51,10,-11
2140,16,-245,3,50,10,-10
2145,14,-250,2,48,10,-11
2150,13,-251,13,47,11,-12
2155,15,-248,-2,46,12,-11
2160,15,-246,0,45,11,-13
2165,14,-247,0,44,12,-11
2170,14,-245,1,42,12,-13
2175,16,-251,1,41,13,-13
2180,16,-247,5,40,12,-13
2185,14,-249,1,40,12,-12
2190,15,-250,1,38,11,-11
2195,14,-247,0,38,11,-12
2200,16,-248,1,37,12,-12
2205,13,-248,6,37,10,-12
2210,16,-250,0,35,10,-12
2215,15,-246,0,35,9,-10
2220,14,-249,1,35,8,-10
2225,17,-250,3,35,9,-11
2230,15,-250,0,35,8,-11
2235,15,-247,0,35,8,-11
2240,16,-250,0,38,8,-12
2245,16,-249,0,41,8,-13
2250,13,-250,1,42,7,-12
2255,12,-249,4,43,7,-11
2260,14,-250,3,44,5,-11
2265,16,-250,2,45,6,-10
2270,15,-247,1,46,6,-11
2275,15,-249,1,46,5,-11
2280,15,-248,0,46,6,-9
2285,14,-251,2,47,6,-9
2290,18,-251,2,46,7,-9
2295,14,-248,0,46,6,-10
2300,15,-251,0,47,8,-11
2305,12,-249,2,47,7,-12
2310,14,-247,1,46,9,-10
2315,14,-246,2,46,9,-7
2320,14,-250,3,45,8,-8
2325,14,-248,2,44,9,-9
2330,16,-248,4,45,9,-8
2335,17,-249,2,43,9,-9
2340,15,-249,0,42,10,-9
2345,14,-248,1,42,11,-9
2350,15,-249,1,40,10,-9
2355,12,-245,2,39,10,-10
2360,10,-249,-1,39,11,-10
2365,13,-249,4,39,11,-11
2370,14,-249,2,38,10,-12
2375,13,-247,1,36,10,-12
2380,13,-249,3,35,9,-11
2385,15,-246,-1,34,9,-11
2390,13,-246,2,33,10,-11
2395,15,-248,-1,33,11,-12
2400,16,-251,1,32,11,-13
2405,15,-251,3,31,12,-12
2410,15,-245,1,32,13,-10
2415,12,-250,1,34,14,-13
2420,14,-247,-5,34,14,-11
2425,15,-243,0,35,14,-12
2430,14,-246,0,36,13,-12
2435,12,-252,1,36,14,-13
2440,17,-252,0,35,13,-12
2445,16,-248,2,34,13,-12
2450,15,-248,1,34,14,-14
2455,16,-249,-2,32,13,-11
2460,14,-247,-1,32,14,-11
2465,15,-250,2,33,13,-13
2470,16,-240,0,33,13,-14
2475,14,-250,0,35,12,-13
2480,14,-249,0,36,11,-11
2485,15,-249,1,37,12,-14
2490,14,-250,-2,36,12,-12
2495,13,-251,-1,37,10,-13
2500,13,-249,0,38,10,-11
2505,14,-248,1,39,10,-14
2510,14,-249,-1,39,10,-14
2515,14,-249,-1,40,11,-13
2520,13,-249,1,41,11,-14
2525,17,-251,1,41,12,-15
2530,14,-247,3,42,13,-14
2535,12,-247,0,42,12,-14
2540,13,-248,2,42,12,-14
2545,16,-249,1,42,13,-13
2550,15,-248,0,41,13,-14
2555,15,-246,0,38,13,-15
2560,14,-245,-2,39,13,-15
2565,17,-251,1,38,10,-14
2570,16,-248,2,37,8,-13
2575,14,-250,0,36,8,-13
2580,16,-250,-1,37,7,-12
2585,13,-249,1,36,6,-13
2590,15,-251,-1,36,4,-11
2595,15,-249,-1,36,4,-12
2600,14,-248,0,38,4,-10
2605,16,-249,-1,38,5,-11
2610,16,-250,0,41,6,-13
2615,14,-249,1,43,6,-12
2620,15,-248,-1,44,7,-14
2625,14,-249,1,46,10,-13
2630,13,-246,0,47,12,-12
2635,12,-247,-5,46,14,-14
2640,13,-251,-2,48,14,-14
2645,13,-246,0,49,14,-14
2650,16,-250,2,47,14,-13
2655,15,-249,0,45,14,-14
2660,15,-248,1,46,12,-13
2665,14,-248,1,47,9,-13
2670,13,-246,3,49,7,-13
2675,14,-248,3,51,6,-13
2680,13,-247,1,54,6,-14
2685,15,-246,0,54,5,-13
2690,12,-248,0,53,3,-14
2695,14,-247,1,53,3,-14
2700,13,-247,1,54,3,-13
2705,15,-248,-2,52,4,-12
2710,11,-247,-3,50,6,-14
2715,13,-246,0,45,9,-11
2720,13,-246,-1,40,11,-13
2725,16,-249,0,36,12,-12
2730,12,-249,-2,36,13,-12
2735,15,-250,-3,34,13,-13
2740,12,-250,1,33,12,-13
2745,14,-248,0,34,10,-11
2750,13,-249,0,35,8,-11
2755,14,-249,2,39,8,-11
2760,15,-254,0,42,8,-11
2765,12,-249,1,46,8,-11
2770,12,-251,2,49,9,-12
2775,11,-248,0,52,8,-11
2780,14,-247,1,53,8,-13
2785,13,-244,2,54,8,-13
2790,14,-246,0,54,7,-12
2795,14,-248,2,52,8,-13
2800,14,-244,0,52,7,-14
2805,13,-248,-1,50,7,-13
2810,15,-250,0,46,7,-11
2815,15,-247,0,45,7,-11
2820,16,-248,-4,42,7,-9
2825,16,-248,0,39,7,-10
2830,14,-249,0,39,6,-9
2835,16,-251,0,38,6,-7
2840,15,-249,-6,38,5,-7
2845,15,-253,-3,39,5,-8
2850,13,-250,-1,40,6,-7
2855,14,-250,0,42,5,-8
2860,13,-246,0,44,5,-8
2865,12,-246,-3,46,6,-8
2870,12,-248,0,50,6,-9
2875,11,-250,-4,50,7,-8
2880,15,-248,-1,51,8,-9
2885,14,-248,2,51,9,-11
2890,12,-248,0,52,9,-11
2895,12,-247,-1,53,10,-12
2900,12,-249,1,53,10,-10
2905,16,-247,1,54,12,-12
2910,17,-252,0,53,11,-12
2915,13,-249,-2,54,11,-12
2920,11,-246,2,55,10,-10
2925,17,-249,2,54,9,-11
2930,13,-247,0,54,7,-11
2935,14,-252,0,55,7,-10
2940,15,-245,-2,55,6,-9
2945,14,-248,2,55,5,-10
2950,12,-249,0,54,6,-9
2955,17,-251,1,54,6,-10
2960,14,-250,-4,54,6,-8
2965,12,-250,0,54,7,-10
2970,19,-252,-1,54,8,-11
2975,15,-250,-2,55,9,-11
2980,14,-248,-1,58,9,-11
2985,14,-250,0,60,9,-12
2990,14,-246,-1,62,11,-13
2995,16,-250,2,63,10,-10
3000,15,-250,0,64,10,-11
3005,13,-247,-3,64,11,-11
3010,14,-247,-2,61,10,-12
3015,16,-249,-1,57,9,-11
3020,15,-248,1,52,8,-10
3025,13,-245,-2,50,8,-10
3030,17,-248,-2,48,8,-8
3035,14,-250,-3,47,8,-8
3040,15,-247,0,48,8,-8
3045,16,-250,-4,48,8,-9
3050,13,-248,0,50,6,-8
3055,17,-249,-1,51,5,-9
3060,18,-249,-1,50,5,-8
3065,15,-248,-1,51,4,-8
3070,14,-249,-1,53,5,-7
3075,13,-249,-3,53,6,-7
3080,14,-247,0,54,8,-7
3085,14,-246,0,56,10,-8
3090,14,-249,0,57,11,-9
3095,15,-245,-3,58,12,-9
3100,13,-246,-1,60,13,-10
3105,12,-248,-3,61,12,-11
3110,13,-245,-1,60,14,-11
3115,16,-248,1,57,14,-12
3120,14,-247,0,56,15,-11
3125,16,-245,-1,54,15,-10
3130,14,-247,0,54,14,-8
3135,14,-246,1,53,16,-9
3140,13,-247,0,52,17,-10
3145,13,-247,0,52,17,-11
3150,15,-248,0,50,14,-11
3155,16,-249,0,52,15,-10
3160,15,-246,0,51,14,-11
3165,12,-248,0,51,14,-11
3170,16,-250,2,51,14,-11
3175,16,-249,2,51,15,-12
3180,17,-249,-2,51,14,-11
3185,16,-246,-2,51,16,-12
3190,15,-249,-1,52,19,-10
3195,14,-250,-1,52,19,-12
3200,16,-249,0,51,19,-13
3205,17,-249,0,52,19,-11
3210,15,-247,1,51,20,-12
3215,13,-249,1,49,20,-11
3220,16,-250,-2,50,20,-11
3225,17,-251,-2,51,20,-13
3230,18,-249,-3,52,19,-11
3235,16,-250,0,54,21,-9
3240,14,-250,-2,54,21,-9
3245,15,-249,0,53,20,-9
3250,13,-247,-1,54,21,-8
3255,15,-249,-2,55,22,-8
3260,18,-252,0,55,22,-7
3265,19,-254,1,56,23,-4
3270,13,-250,0,56,25,-3
3275,14,-253,0,57,25,-2
3280,17,-250,0,57,27,0
3285,14,-252,0,58,27,4
3290,16,-253,-1,60,27,5
3295,15,-252,-2,63,26,7
3300,14,-252,1,68,26,8
3305,15,-249,0,69,25,12
3310,15,-252,-1,70,22,14
3315,16,-250,-1,67,22,16
3320,17,-249,-4,63,20,17
3325,15,-250,0,56,19,20
3330,11,-248,-1,51,19,19
3335,15,-249,-8,44,20,24
3340,17,-253,1,40,21,27
3345,13,-252,-3,35,19,31
3350,15,-249,-3,30,18,34
3355,13,-250,-3,24,18,39
3360,17,-255,-10,17,17,41
3365,16,-255,-4,11,19,44
3370,13,-252,-5,8,18,47
3375,18,-255,-9,7,17,50
3380,14,-254,-4,5,16,51
3385,15,-254,-8,6,16,51
3390,13,-254,-9,7,16,55
3395,15,-253,-11,6,15,58
3400,15,-249,-6,5,16,58
3405,15,-252,-11,2,15,60
3410,12,-251,-11,1,14,60
3415,14,-253,-8,-2,13,63
3420,12,-251,-9,-4,12,65
3425,13,-253,-12,-6,9,65
3430,12,-249,-9,-9,7,67
3435,13,-249,-13,-14,4,68
3440,14,-248,-11,-18,2,68
3445,13,-248,-11,-24,1,68
3450,14,-248,-16,-30,1,68
3455,10,-247,-13,-39,4,66
3460,14,-245,-17,-48,10,64
3465,11,-246,-15,-57,14,65
3470,9,-246,-16,-66,18,62
3475,10,-248,-12,-77,24,60
3480,10,-249,-13,-86,26,57
3485,15,-255,-8,-93,29,56
3490,12,-247,-13,-100,32,53
3495,11,-248,-18,-106,34,50
3500,7,-242,-11,-112,35,50
3505,11,-241,-14,-118,37,48
3510,11,-246,-17,-122,39,49
3515,12,-245,-21,-127,43,48
3520,14,-243,-23,-131,45,45
3525,10,-238,-22,-135,50,46
3530,11,-238,-27,-136,52,46
3535,11,-239,-25,-136,53,49
3540,13,-238,-26,-134,51,52
3545,15,-237,-28,-133,50,53
3550,16,-231,-25,-132,47,55
3555,16,-231,-30,-128,45,60
3560,14,-230,-28,-126,44,63
3565,17,-227,-28,-126,45,65
3570,15,-223,-26,-127,44,70
3575,15,-223,-27,-127,43,70
3580,16,-224,-23,-132,43,75
3585,12,-218,-27,-137,42,79
3590,10,-215,-26,-149,40,82
3595,12,-214,-30,-163,35,86
3600,10,-212,-30,-181,30,90
3605,8,-211,-29,-202,29,92
3610,8,-210,-33,-226,27,96
3615,7,-207,-33,-252,22,98
3620,7,-207,-27,-276,21,96
3625,9,-208,-29,-298,21,92
3630,7,-208,-29,-320,18,87
3635,5,-208,-26,-339,19,83
3640,7,-204,-26,-355,20,73
3645,9,-207,-28,-370,28,62
3650,8,-206,-26,-383,39,47
3655,11,-207,-32,-398,50,30
3660,11,-206,-33,-411,62,11
3665,14,-201,-31,-427,71,-7
3670,16,-205,-33,-443,75,-25
3675,15,-203,-35,-461,78,-45
3680,19,-209,-39,-480,81,-63
3685,18,-204,-37,-500,82,-75
3690,16,-203,-40,-518,83,-85
3695,21,-200,-34,-536,86,-94
3700,21,-201,-36,-551,89,-101
3705,18,-198,-34,-567,97,-103
3710,23,-200,-42,-584,107,-103
3715,20,-196,-41,-603,122,-104
3720,20,-196,-33,-621,139,-100
3725,21,-198,-34,-643,160,-96
3730,23,-198,-36,-668,183,-92
3735,20,-196,-33,-696,204,-83
3740,23,-199,-33,-727,225,-74
3745,21,-204,-33,-759,244,-65
3750,20,-205,-36,-788,258,-53
3755,12,-202,-30,-812,268,-42
3760,16,-211,-32,-831,273,-32
3765,16,-215,-33,-841,275,-21
3770,14,-218,-34,-842,273,-13
3775,15,-223,-33,-834,266,-6
3780,11,-226,-36,-822,257,1
3785,9,-223,-36,-806,246,8
3790,9,-228,-41,-789,236,14
3795,8,-226,-42,-770,227,18
3800,7,-230,-43,-752,220,22
3805,7,-225,-49,-737,213,24
3810,6,-225,-50,-729,207,24
3815,7,-228,-50,-724,201,22
3820,5,-230,-57,-725,193,22
3825,7,-230,-57,-732,185,23
3830,3,-233,-63,-744,178,23
3835,3,-235,-62,-760,171,25
3840,1,-235,-57,-779,166,27
3845,0,-236,-64,-798,160,27
3850,0,-236,-63,-812,159,24
3855,-1,-237,-60,-824,161,22
3860,0,-238,-65,-829,162,18
3865,1,-239,-65,-830,164,13
3870,-1,-236,-63,-822,167,7
3875,4,-237,-64,-809,169,0
3880,1,-234,-63,-793,171,-9
3885,4,-235,-64,-776,173,-18
3890,3,-229,-65,-757,174,-24
3895,6,-230,-66,-735,176,-28
3900,2,-223,-68,-714,178,-34
3905,7,-224,-66,-687,182,-37
3910,5,-219,-65,-658,188,-40
3915,6,-216,-61,-630,194,-41
3920,8,-212,-64,-602,202,-42
3925,11,-208,-64,-573,213,-43
3930,11,-206,-63,-551,225,-42
3935,12,-200,-65,-535,237,-40
3940,11,-203,-66,-524,247,-35
3945,15,-199,-65,-517,257,-32
3950,12,-199,-65,-512,264,-29
3955,11,-199,-71,-510,270,-24
3960,11,-204,-68,-513,271,-18
3965,13,-202,-68,-517,270,-13
3970,15,-201,-70,-521,266,-10
3975,15,-202,-67,-525,261,-10
3980,12,-204,-69,-524,253,-8
3985,11,-205,-68,-520,241,-6
3990,10,-208,-66,-514,226,-4
3995,11,-209,-70,-504,211,-5
4000,11,-212,-66,-493,198,-6
4005,12,-207,-72,-483,182,-7
4010,7,-205,-70,-475,168,-8
4015,3,-209,-73,-468,158,-10
4020,4,-211,-73,-465,149,-11
4025,0,-208,-75,-466,142,-10
4030,4,-210,-77,-473,136,-10
4035,0,-207,-76,-485,130,-8
4040,1,-208,-82,-499,125,-8
4045,0,-207,-85,-516,119,-12
4050,0,-207,-89,-535,112,-9
4055,0,-207,-86,-559,101,-6
4060,-1,-210,-89,-584,92,0
4065,-1,-211,-90,-609,84,7
4070,0,-215,-91,-629,76,12
4075,0,-215,-88,-646,71,16
4080,-2,-217,-92,-652,64,20
4085,-1,-220,-94,-654,61,20
4090,0,-225,-92,-646,57,21
4095,1,-228,-94,-630,55,18
4100,3,-232,-90,-610,54,15
4105,0,-232,-97,-588,54,10
4110,5,-232,-97,-568,51,5
4115,7,-241,-98,-548,48,-2
4120,10,-238,-98,-528,43,-11
4125,9,-241,-98,-509,36,-17
4130,12,-243,-102,-493,31,-26
4135,16,-244,-100,-475,27,-35
4140,15,-243,-103,-454,25,-39
4145,19,-242,-106,-434,27,-43
4150,17,-245,-105,-416,28,-47
4155,17,-241,-104,-399,33,-49
4160,17,-240,-105,-379,39,-49
4165,22,-239,-103,-359,46,-48
4170,22,-238,-101,-343,53,-45
4175,22,-235,-103,-333,59,-43
4180,23,-232,-103,-325,65,-39
4185,22,-230,-104,-320,70,-35
4190,23,-227,-106,-315,73,-30
4195,23,-223,-112,-313,78,-24
4200,26,-219,-114,-315,81,-18
4205,21,-221,-115,-320,80,-14
4210,21,-215,-116,-327,77,-13
4215,19,-215,-118,-336,74,-12
4220,20,-219,-120,-344,70,-13
4225,17,-215,-119,-358,64,-14
4230,16,-216,-121,-367,56,-13
4235,12,-215,-123,-371,52,-12
4240,12,-219,-122,-376,47,-11
4245,7,-217,-124,-379,37,-13
4250,8,-219,-126,-380,26,-13
4255,3,-220,-122,-380,15,-15
4260,3,-219,-124,-384,3,-14
4265,0,-220,-127,-387,-7,-12
4270,1,-224,-127,-392,-17,-11
4275,0,-227,-128,-404,-27,-7
4280,0,-224,-125,-415,-35,-5
4285,0,-227,-123,-421,-41,-3
4290,0,-227,-126,-424,-45,-5
4295,1,-226,-125,-420,-49,-6
4300,-6,-232,-122,-405,-51,-7
4305,1,-232,-126,-386,-53,-13
4310,1,-230,-125,-365,-55,-19
4315,3,-233,-125,-344,-60,-27
4320,7,-232,-122,-323,-65,-31
4325,7,-233,-125,-298,-70,-34
4330,8,-232,-126,-272,-73,-38
4335,14,-231,-124,-245,-73,-43
4340,12,-227,-125,-217,-70,-47
4345,18,-229,-124,-190,-65,-55
4350,18,-225,-122,-165,-63,-61
4355,19,-221,-126,-142,-60,-65
4360,22,-222,-126,-121,-57,-66
4365,27,-218,-129,-98,-52,-67
4370,26,-215,-128,-83,-46,-64
4375,28,-213,-130,-71,-38,-62
4380,29,-212,-133,-62,-35,-64
4385,30,-211,-131,-56,-29,-63
4390,32,-209,-130,-51,-24,-64
4395,30,-209,-132,-44,-18,-66
4400,30,-208,-130,-40,-10,-68
4405,31,-206,-128,-40,1,-68
4410,27,-205,-132,-37,10,-69
4415,33,-208,-132,-40,18,-72
4420,29,-208,-132,-38,23,-81
4425,29,-207,-135,-29,27,-87
4430,28,-207,-134,-21,28,-88
4435,26,-205,-136,-10,30,-91
4440,23,-207,-133,4,31,-91
4445,22,-203,-138,18,30,-94
4450,19,-207,-138,36,27,-97
4455,20,-204,-135,50,24,-96
4460,18,-207,-136,58,15,-95
4465,15,-208,-137,62,4,-91
4470,10,-209,-135,60,-6,-89
4475,11,-205,-139,55,-16,-86
4480,8,-205,-136,38,-25,-83
4485,9,-205,-138,12,-28,-79
4490,4,-207,-140,-22,-29,-76
4495,6,-200,-143,-59,-26,-74
4500,5,-204,-141,-100,-17,-71
4505,5,-202,-143,-141,-5,-70
4510,8,-205,-140,-179,8,-69
4515,7,-208,-144,-211,18,-72
4520,4,-212,-134,-232,27,-71
4525,7,-212,-138,-245,30,-67
4530,10,-219,-139,-246,33,-66
4535,13,-222,-138,-238,31,-66
4540,9,-223,-138,-227,28,-65
4545,15,-226,-139,-211,19,-69
4550,12,-232,-139,-196,10,-70
4555,8,-229,-134,-182,-2,-69
4560,8,-225,-136,-170,-14,-77
4565,12,-229,-140,-164,-21,-84
4570,21,-226,-147,-165,-22,-89
4575,8,-224,-145,-174,-17,-89
4580,12,-222,-145,-181,-9,-91
4585,12,-217,-149,-191,-1,-88
4590,20,-218,-149,-206,11,-79
4595,22,-215,-150,-220,24,-73
4600,22,-211,-150,-229,34,-66
4605,20,-209,-148,-230,34,-61
4610,26,-210,-147,-229,28,-58
4615,25,-207,-146,-229,20,-54
4620,28,-206,-143,-225,8,-52
4625,28,-210,-145,-218,-9,-49
4630,30,-208,-148,-219,-25,-48
4635,28,-208,-146,-220,-35,-47
4640,29,-207,-147,-220,-42,-51
4645,29,-208,-139,-224,-40,-52
4650,32,-208,-139,-234,-35,-56
4655,31,-211,-145,-249,-27,-58
4660,29,-207,-140,-263,-17,-63
4665,27,-212,-141,-275,-6,-69
4670,22,-211,-146,-283,7,-74
4675,20,-215,-152,-280,14,-79
4680,14,-213,-150,-270,8,-82
4685,17,-213,-151,-246,1,-84
4690,19,-219,-155,-219,-2,-82
4695,15,-217,-157,-188,-7,-77
4700,17,-216,-162,-159,-13,-68
4705,15,-214,-163,-129,-19,-67
4710,14,-214,-167,-102,-26,-66
4715,13,-210,-171,-74,-36,-62
4720,15,-211,-170,-52,-41,-61
4725,15,-213,-176,-39,-44,-61
4730,14,-211,-179,-34,-47,-63
4735,17,-211,-179,-28,-56,-65
4740,16,-215,-180,-23,-67,-66
4745,19,-211,-182,-19,-78,-62
4750,22,-212,-181,-19,-79,-57
4755,22,-211,-177,-17,-81,-52
4760,20,-205,-175,-15,-85,-51
4765,19,-203,-175,-15,-88,-47
4770,21,-201,-172,-24,-88,-42
4775,21,-205,-169,-32,-92,-39
4780,20,-206,-175,-41,-103,-41
4785,16,-207,-167,-46,-117,-39
4790,18,-206,-167,-45,-129,-43
4795,19,-206,-169,-40,-139,-49
4800,14,-203,-171,-35,-149,-52
4805,15,-207,-177,-35,-155,-54
4810,9,-201,-175,-38,-152,-60
4815,8,-202,-181,-44,-146,-53
4820,6,-202,-179,-52,-137,-47
4825,7,-202,-179,-59,-135,-42
4830,4,-201,-176,-69,-127,-32
4835,7,-203,-177,-72,-127,-27
4840,3,-203,-174,-80,-129,-25
4845,4,-204,-172,-92,-126,-24
4850,7,-200,-169,-95,-133,-28
4855,10,-200,-167,-96,-135,-30
4860,9,-199,-167,-97,-132,-35
4865,11,-197,-173,-96,-129,-33
4870,13,-195,-175,-96,-128,-29
4875,13,-195,-177,-104,-123,-34
4880,17,-198,-181,-115,-112,-41
4885,21,-198,-183,-131,-101,-43
4890,20,-198,-188,-144,-89,-50
4895,24,-205,-181,-151,-80,-54
4900,22,-206,-180,-148,-73,-54
4905,28,-213,-181,-127,-75,-47
4910,24,-208,-180,-102,-78,-43
4915,19,-205,-179,-75,-86,-47
4920,23,-206,-177,-48,-91,-46
4925,20,-207,-183,-26,-95,-48
4930,26,-207,-185,-18,-94,-53
4935,19,-203,-187,-21,-90,-57
4940,20,-202,-186,-29,-83,-58
4945,23,-200,-184,-46,-74,-59
4950,16,-202,-182,-68,-65,-59
4955,18,-200,-177,-90,-67,-58
4960,21,-202,-184,-112,-64,-56
4965,31,-202,-183,-131,-58,-52
4970,26,-203,-182,-134,-47,-53
4975,26,-201,-190,-128,-41,-48
4980,30,-201,-183,-121,-36,-42
4985,31,-198,-185,-120,-32,-34
4990,28,-202,-180,-127,-26,-28
4995,27,-207,-181,-136,-24,-25
5000,24,-201,-180,-152,-21,-28
5005,26,-199,-174,-159,-24,-27
5010,26,-200,-175,-167,-21,-24
5015,21,-200,-167,-170,-19,-28
5020,25,-199,-166,-165,-25,-30
5025,22,-201,-160,-161,-24,-36
5030,18,-206,-159,-149,-24,-39
5035,21,-206,-157,-134,-22,-44
5040,19,-207,-157,-112,-14,-44
5045,22,-205,-155,-83,-2,-45
5050,16,-201,-161,-56,9,-45
5055,16,-202,-161,-34,17,-44
5060,22,-200,-163,-11,20,-43
5065,20,-209,-153,9,24,-39
5070,19,-199,-169,13,30,-40
5075,22,-198,-170,10,36,-39
5080,22,-199,-168,6,42,-32
5085,24,-202,-165,5,50,-28
5090,25,-202,-164,8,57,-26
5095,21,-203,-163,16,64,-22
5100,22,-204,-163,33,66,-19
5105,26,-206,-167,53,68,-22
5110,25,-210,-164,76,67,-23
5115,24,-211,-159,98,64,-23
5120,21,-203,-165,120,62,-23
5125,16,-203,-165,142,57,-25
5130,17,-197,-159,162,54,-26
5135,17,-200,-157,174,49,-24
5140,14,-196,-157,184,42,-21
5145,17,-194,-158,188,41,-18
5150,16,-197,-153,190,37,-13
5155,17,-197,-152,197,32,-7
5160,18,-192,-152,201,30,-3
5165,15,-193,-147,204,28,3
5170,15,-189,-146,201,28,6
5175,16,-190,-149,195,28,10
5180,17,-188,-146,184,28,13
5185,14,-188,-148,171,28,17
5190,15,-190,-153,158,27,17
5195,14,-191,-147,148,25,16
5200,15,-192,-149,141,25,14
5205,15,-191,-151,142,26,11
5210,19,-191,-152,147,24,9
5215,19,-192,-152,153,21,5
5220,16,-190,-157,153,17,3
5225,21,-191,-158,148,11,0
5230,20,-191,-156,138,6,-3
5235,21,-192,-155,128,1,-6
5240,20,-192,-156,119,-1,-7
5245,19,-189,-159,114,-3,-10
5250,22,-192,-163,114,-5,-9
5255,18,-188,-163,117,-9,-10
5260,19,-189,-165,121,-13,-13
5265,17,-189,-161,123,-17,-15
5270,19,-189,-164,124,-21,-18
5275,15,-187,-158,121,-25,-20
5280,17,-187,-162,118,-25,-20
5285,17,-191,-159,117,-24,-22
5290,17,-189,-156,116,-24,-22
5295,19,-192,-156,117,-22,-24
5300,16,-190,-160,116,-20,-22
5305,17,-191,-156,115,-16,-23
5310,18,-189,-158,112,-13,-23
5315,19,-189,-160,111,-11,-24
5320,18,-188,-164,111,-9,-27
5325,18,-189,-160,111,-9,-28
5330,19,-188,-161,110,-7,-31
5335,18,-192,-158,105,-4,-31
5340,18,-186,-159,101,-2,-32
5345,20,-186,-154,94,1,-29
5350,19,-190,-158,91,4,-27
5355,19,-189,-162,90,8,-23
5360,18,-190,-163,90,9,-24
5365,18,-189,-161,94,11,-25
5370,20,-191,-161,96,12,-24
5375,20,-190,-164,98,13,-23
5380,19,-191,-161,97,16,-21
5385,21,-193,-160,97,17,-18
5390,22,-192,-157,100,20,-15
5395,19,-195,-159,103,24,-14
5400,16,-190,-155,105,25,-11
5405,15,-189,-159,103,27,-8
5410,17,-190,-160,97,29,-5
5415,14,-188,-159,91,31,-3
5420,19,-190,-159,85,35,-1
5425,17,-191,-160,80,39,3
5430,15,-188,-158,78,41,6
5435,14,-189,-157,77,42,7
5440,15,-191,-155,75,42,13
5445,15,-190,-158,72,46,12
5450,16,-190,-156,68,48,13
5455,15,-189,-155,60,52,14
5460,18,-190,-157,54,55,16
5465,15,-191,-156,51,56,14
5470,18,-191,-159,50,56,16
5475,16,-193,-155,54,57,18
5480,18,-191,-156,55,59,16
5485,17,-191,-158,57,58,16
5490,18,-191,-160,58,58,18
5495,17,-190,-158,58,57,18
5500,17,-189,-158,57,58,16
5505,19,-191,-152,57,58,17
5510,18,-191,-157,56,58,17
5515,19,-192,-158,56,59,15
5520,18,-191,-157,55,62,16
5525,20,-191,-156,58,64,15
5530,17,-192,-154,59,67,16
5535,19,-191,-151,61,69,14
5540,19,-191,-156,61,71,13
5545,22,-191,-150,62,72,13
5550,17,-192,-153,65,70,8
5555,21,-192,-149,66,72,7
5560,18,-190,-157,69,73,7
5565,17,-192,-154,72,71,8
5570,16,-194,-157,73,69,7
5575,20,-192,-158,70,66,7
5580,19,-191,-156,68,64,7
5585,20,-192,-155,62,61,8
5590,19,-192,-153,57,62,9
5595,16,-194,-149,55,62,8
5600,20,-194,-153,57,64,8
5605,21,-196,-145,60,63,8
5610,16,-192,-155,62,61,6
5615,21,-192,-154,64,61,6
5620,17,-192,-157,63,61,7
5625,20,-192,-155,59,60,5
5630,19,-189,-155,55,61,6
5635,19,-192,-154,54,59,6
5640,16,-192,-152,53,58,6
5645,18,-188,-156,55,58,8
5650,20,-193,-156,56,56,7
5655,19,-192,-155,56,55,6
5660,20,-192,-151,55,55,8
5665,20,-192,-153,55,53,7
5670,17,-193,-157,57,52,7
5675,15,-192,-153,57,51,5
5680,16,-192,-157,57,47,7
5685,18,-193,-157,60,46,5
5690,17,-193,-153,62,45,4
5695,19,-192,-153,62,43,3
5700,18,-191,-154,64,42,5
5705,18,-192,-155,64,41,3
5710,21,-192,-156,66,42,4
5715,20,-192,-153,67,42,1
5720,18,-194,-154,70,42,0
5725,19,-192,-156,72,41,-1
5730,19,-192,-158,70,40,-2
5735,18,-192,-153,68,39,-3
5740,18,-191,-158,69,38,-3
5745,19,-190,-155,71,35,-2
5750,19,-191,-156,72,32,-3
5755,17,-192,-155,70,30,-5
5760,14,-189,-156,68,28,-5
5765,16,-192,-158,63,27,-2
5770,14,-193,-158,63,27,-1
5775,21,-195,-160,72,24,0
5780,18,-193,-157,81,22,0
5785,21,-192,-157,90,21,2
5790,19,-192,-163,93,20,-2
5795,21,-192,-156,89,18,-4
5800,18,-186,-154,80,18,-7
5805,20,-194,-157,72,18,-9
5810,19,-192,-158,68,18,-9
5815,17,-191,-152,64,18,-12
5820,15,-192,-153,66,18,-12
5825,17,-190,-157,68,20,-10
5830,19,-192,-155,70,19,-9
5835,17,-193,-154,70,19,-8
5840,17,-190,-152,72,17,-8
5845,18,-190,-151,71,16,-8
5850,18,-192,-152,71,15,-7
5855,18,-189,-155,71,15,-5
5860,20,-190,-154,68,14,-7
5865,18,-191,-158,65,13,-6
5870,17,-189,-156,62,12,-7
5875,19,-191,-156,56,12,-8
5880,19,-192,-154,50,13,-8
5885,17,-191,-154,44,14,-7
5890,20,-192,-153,40,16,-5
5895,18,-192,-155,39,15,-4
5900,20,-190,-156,39,16,-5
5905,18,-191,-155,39,16,-4
5910,18,-192,-155,39,17,-5
5915,22,-193,-155,36,16,-5
5920,19,-193,-156,35,17,-5
5925,17,-190,-156,33,17,-5
5930,18,-193,-156,34,16,-5
5935,19,-192,-158,33,14,-4
5940,18,-192,-158,34,12,-4
5945,20,-191,-160,34,11,-7
5950,17,-193,-155,35,10,-7
5955,17,-191,-156,33,10,-7
5960,16,-189,-154,34,12,-6
5965,15,-193,-159,34,15,-6
5970,20,-192,-157,36,15,-4
5975,20,-191,-156,38,15,-5
5980,19,-191,-158,39,17,-6
5985,19,-191,-161,41,19,-4
5990,21,-191,-157,40,19,-4
5995,17,-191,-157,40,20,-5
6000,19,-192,-153,38,20,-6
6005,21,-190,-158,38,18,-5
6010,21,-191,-154,37,19,-3
6015,20,-190,-153,38,19,-3
6020,21,-192,-156,41,20,-2
6025,17,-191,-156,44,21,-4
6030,23,-191,-153,47,21,-5
6035,20,-191,-158,47,21,-6
6040,19,-191,-157,49,22,-7
6045,20,-192,-155,50,22,-9
6050,21,-193,-155,51,23,-9
6055,20,-192,-158,51,23,-9
6060,21,-192,-153,52,25,-9
6065,18,-191,-158,54,26,-8
6070,17,-192,-156,54,28,-8
6075,20,-192,-161,55,27,-8
6080,22,-192,-158,56,28,-7
6085,20,-195,-157,57,27,-7
6090,22,-192,-160,60,28,-9
6095,22,-193,-158,61,26,-10
6100,24,-195,-163,66,27,-9
6105,20,-193,-159,70,27,-10
6110,22,-191,-157,73,26,-12
6115,15,-192,-158,75,26,-13
6120,17,-192,-151,77,27,-14
6125,17,-191,-156,79,27,-13
6130,18,-194,-154,83,27,-15
6135,15,-190,-157,86,25,-14
6140,19,-191,-156,89,24,-14
6145,19,-190,-155,90,23,-15
6150,18,-190,-147,88,21,-12
6155,18,-190,-156,87,22,-9
6160,19,-191,-155,85,23,-7
6165,17,-190,-158,85,22,-6
6170,18,-191,-158,85,22,-6
6175,20,-191,-153,86,23,-8
6180,20,-191,-158,84,22,-8
6185,19,-190,-151,82,22,-9
6190,17,-189,-156,79,23,-8
6195,19,-191,-154,76,23,-6
6200,19,-191,-152,71,24,-5
6205,18,-190,-157,71,24,-3
6210,20,-190,-158,70,23,-3
6215,20,-189,-156,70,23,0
6220,17,-189,-158,68,23,-2
6225,18,-189,-159,65,23,-2
6230,18,-191,-154,61,21,-4
6235,17,-189,-155,54,20,-3
6240,16,-187,-155,50,20,-8
6245,18,-187,-156,45,19,-9
6250,16,-189,-157,43,19,-10
6255,21,-190,-156,44,20,-9
6260,20,-191,-157,44,18,-7
6265,20,-189,-158,44,19,-7
6270,23,-192,-158,46,19,-7
6275,21,-190,-161,50,19,-5
6280,19,-188,-162,55,21,-4
6285,18,-189,-158,56,20,-7
6290,16,-187,-157,56,20,-8
6295,18,-189,-157,50,20,-7
6300,17,-188,-157,46,20,-7
6305,18,-191,-156,42,19,-7
6310,20,-191,-156,43,21,-7
6315,16,-191,-155,46,19,-7
6320,19,-189,-159,49,19,-5
6325,20,-191,-157,49,17,-6
6330,19,-191,-159,44,19,-5
6335,19,-192,-156,37,20,-4
6340,21,-190,-158,30,23,-4
6345,22,-192,-157,29,24,-3
6350,19,-191,-158,32,27,-3
6355,19,-191,-158,32,26,-4
6360,23,-193,-159,31,26,-3
6365,21,-192,-157,29,26,-3
6370,21,-196,-154,29,25,-3
6375,20,-193,-154,28,28,-6
6380,17,-190,-157,26,28,-6
6385,18,-191,-158,26,28,-6
6390,19,-192,-157,25,27,-3
6395,18,-191,-157,24,29,-2
6400,20,-191,-154,23,29,-1
6405,20,-190,-162,24,30,-2
6410,18,-193,-153,27,29,-2
6415,18,-194,-158,29,29,-2
6420,17,-193,-156,33,30,-4
6425,17,-191,-156,35,31,-4
6430,19,-193,-155,39,31,-4
6435,20,-192,-155,43,30,-4
6440,21,-193,-155,45,29,-2
6445,18,-190,-159,48,28,-3
6450,20,-190,-153,50,25,-2
6455,17,-190,-154,48,25,-1
6460,17,-190,-153,50,25,-2
6465,20,-191,-154,50,24,-2
6470,19,-192,-156,51,25,-2
6475,18,-192,-153,52,25,-2
6480,16,-189,-159,52,24,-4
6485,18,-189,-153,53,24,-4
6490,19,-192,-160,52,25,-6
6495,18,-190,-160,52,27,-8
6500,19,-190,-158,51,28,-9
6505,18,-191,-159,51,29,-8
6510,18,-192,-157,50,28,-8
6515,20,-192,-160,50,27,-8
6520,18,-189,-156,49,25,-8
6525,20,-190,-156,46,23,-8
6530,18,-189,-158,43,23,-7
6535,19,-190,-158,41,23,-7
6540,19,-191,-158,41,23,-7
6545,18,-189,-156,43,21,-7
6550,20,-190,-161,44,21,-8
6555,17,-191,-155,46,19,-8
6560,22,-192,-157,48,17,-9
6565,16,-189,-155,47,16,-8
6570,21,-191,-155,46,13,-9
6575,19,-190,-156,45,13,-9
6580,19,-190,-156,41,12,-8
6585,19,-192,-160,39,11,-9
6590,21,-191,-158,39,11,-8
6595,19,-191,-158,39,11,-8
6600,24,-193,-157,40,11,-8
6605,20,-192,-158,40,13,-9
6610,20,-191,-154,42,14,-9
6615,19,-191,-156,46,14,-10
6620,21,-192,-158,51,13,-11
6625,21,-193,-160,53,13,-10
6630,18,-191,-160,54,13,-10
6635,21,-190,-160,55,14,-9
6640,18,-191,-148,54,16,-7
6645,20,-190,-156,50,16,-8
6650,20,-189,-151,48,16,-9
6655,20,-186,-153,46,15,-6
6660,20,-188,-153,44,15,-5
6665,18,-191,-159,44,13,-3
6670,19,-191,-153,44,12,-3
6675,18,-191,-155,46,10,-2
6680,21,-193,-158,50,11,-1
6685,19,-193,-154,55,11,-2
6690,19,-189,-158,60,11,-1
6695,19,-190,-156,67,11,-3
6700,20,-191,-155,70,13,-3
6705,21,-191,-156,69,14,-4
6710,20,-191,-158,66,15,-4
6715,17,-187,-157,63,15,-4
6720,19,-187,-154,60,14,-6
6725,18,-190,-155,59,15,-5
6730,19,-191,-153,60,15,-4
6735,19,-191,-159,63,13,-4
6740,19,-188,-159,66,10,-4
6745,18,-189,-155,68,7,-6
6750,22,-190,-160,70,6,-7
6755,19,-188,-157,71,3,-7
6760,20,-191,-159,72,0,-8
6765,21,-193,-154,71,-3,-9
6770,18,-191,-158,71,-5,-11
6775,19,-193,-159,72,-7,-11
6780,20,-192,-158,73,-6,-12
6785,23,-191,-159,72,-6,-13
6790,21,-192,-157,72,-4,-14
6795,20,-192,-159,72,-3,-14
6800,22,-192,-156,71,-1,-13
6805,19,-192,-157,71,0,-13
6810,19,-191,-159,70,3,-14
6815,22,-192,-160,71,3,-15
6820,25,-193,-157,72,5,-17
6825,22,-190,-159,73,5,-18
6830,22,-191,-158,74,6,-17
6835,23,-194,-156,73,7,-15
6840,15,-190,-154,72,5,-14
6845,19,-190,-162,73,6,-11
6850,19,-191,-157,70,5,-13
6855,16,-190,-158,68,4,-14
6860,21,-190,-160,66,3,-15
6865,19,-192,-160,64,4,-12
6870,17,-189,-159,64,5,-14
6875,20,-191,-155,63,4,-13
6880,16,-190,-154,62,3,-12
6885,20,-191,-155,61,4,-13
6890,19,-191,-156,60,4,-11
6895,21,-190,-155,60,5,-10
6900,19,-190,-156,62,6,-11
6905,20,-191,-156,60,6,-10
6910,18,-189,-155,57,6,-10
6915,19,-190,-155,52,5,-12
6920,22,-192,-157,47,6,-12
6925,21,-191,-155,44,6,-14
6930,20,-191,-153,42,8,-15
6935,20,-190,-159,41,7,-14
6940,22,-192,-153,41,9,-15
6945,18,-190,-155,44,8,-16
6950,20,-191,-156,43,9,-18
6955,17,-189,-154,43,8,-19
6960,20,-190,-155,45,7,-19
6965,20,-190,-157,45,7,-19
6970,20,-189,-157,44,6,-20
6975,21,-192,-157,45,5,-21
6980,21,-191,-158,47,5,-21
6985,13,-191,-154,49,3,-21
6990,19,-190,-154,51,2,-21
6995,21,-191,-156,53,2,-22
7000,18,-192,-155,53,2,-22
7005,16,-188,-155,52,1,-24
7010,20,-191,-156,52,2,-22
7015,20,-192,-158,54,3,-20
7020,18,-192,-159,56,5,-21
7025,20,-192,-154,55,5,-21
7030,19,-192,-155,54,6,-18
7035,18,-190,-153,54,6,-18
7040,17,-192,-154,54,6,-17
7045,19,-190,-157,56,6,-16
7050,20,-191,-154,58,4,-15
7055,21,-191,-157,59,5,-13
7060,16,-189,-156,58,5,-14
7065,19,-190,-153,57,4,-14
7070,21,-191,-151,55,5,-14
7075,20,-191,-153,53,3,-15
7080,19,-189,-156,49,3,-16
7085,17,-190,-155,46,6,-19
7090,23,-191,-151,43,7,-18
7095,17,-191,-155,40,9,-16
7100,17,-186,-155,38,10,-15
7105,19,-190,-153,42,10,-14
7110,21,-193,-154,46,9,-13
7115,22,-191,-157,49,8,-11
7120,17,-191,-155,53,7,-11
7125,19,-189,-160,56,6,-11
7130,16,-191,-158,58,5,-14
7135,20,-189,-160,57,4,-13
7140,21,-192,-153,57,5,-13
7145,18,-192,-157,57,6,-15
7150,17,-188,-153,60,8,-14
7155,19,-189,-158,65,9,-12
7160,19,-190,-150,68,10,-10
7165,19,-190,-156,70,11,-13
7170,21,-191,-159,70,12,-13
7175,17,-189,-158,68,13,-14
7180,22,-192,-158,63,17,-12
7185,16,-187,-157,60,21,-12
7190,16,-191,-156,61,22,-11
7195,18,-191,-154,62,24,-10
7200,20,-193,-159,63,23,-8
7205,20,-191,-160,64,22,-8
7210,18,-189,-161,64,21,-6
7215,20,-189,-159,64,20,-5
7220,19,-191,-160,60,20,-5
7225,20,-191,-161,58,19,-7
7230,15,-190,-160,52,20,-8
7235,20,-191,-159,48,22,-8
7240,19,-189,-160,45,25,-11
7245,20,-193,-156,43,25,-12
7250,20,-190,-158,41,27,-10
7255,19,-191,-162,41,30,-9
7260,18,-190,-160,40,31,-8
7265,22,-192,-159,41,32,-6
7270,19,-192,-160,42,32,-6
7275,18,-191,-160,44,33,-4
7280,20,-193,-160,45,31,-4
7285,21,-192,-158,45,30,-5
7290,18,-189,-156,42,29,-4
7295,18,-190,-158,39,29,-3
7300,16,-192,-159,38,29,-3
7305,19,-189,-159,36,30,-2
7310,23,-190,-155,35,30,-3
7315,17,-188,-157,33,32,-1
7320,17,-190,-155,30,32,-1
7325,18,-186,-159,27,33,1
7330,17,-188,-160,24,32,0
7335,20,-190,-152,22,31,-2
7340,19,-191,-154,21,31,-2
7345,21,-191,-155,20,32,-2
7350,18,-193,-156,21,33,-1
7355,16,-196,-151,21,33,1
7360,16,-194,-157,23,32,3
7365,21,-192,-156,24,30,3
7370,18,-190,-153,28,30,1
7375,17,-190,-156,31,29,-1
7380,19,-190,-155,36,30,0
7385,18,-190,-154,37,30,-1
7390,20,-189,-159,37,29,-2
7395,17,-192,-157,37,28,-3
7400,19,-189,-159,37,26,-3
7405,20,-196,-151,35,25,-5
7410,18,-188,-160,34,23,-4
7415,22,-191,-151,32,22,-3
7420,22,-192,-157,32,20,-3
7425,18,-189,-154,32,20,-3
7430,21,-187,-158,32,19,-5
7435,18,-189,-154,33,20,-5
7440,21,-188,-154,35,21,-4
7445,21,-192,-160,36,21,-7
7450,22,-192,-156,36,22,-7
7455,22,-191,-156,37,21,-8
7460,18,-192,-157,38,20,-8
7465,25,-192,-157,40,21,-8
7470,21,-188,-158,42,19,-11
7475,21,-189,-155,42,19,-11
7480,22,-188,-155,42,18,-11
7485,19,-190,-152,42,19,-10
7490,21,-192,-155,43,18,-12
7495,19,-190,-158,45,16,-12
7500,20,-191,-155,49,15,-12
7505,19,-191,-159,52,14,-12
7510,18,-192,-157,53,13,-12
7515,21,-193,-161,51,11,-12
7520,18,-189,-155,47,9,-13
7525,20,-191,-160,45,7,-16
7530,20,-192,-157,47,7,-17
7535,22,-193,-161,51,7,-18
7540,20,-189,-156,55,6,-18
7545,20,-189,-159,60,6,-17
7550,17,-189,-158,62,6,-18
7555,22,-192,-158,61,6,-18
7560,19,-190,-162,58,6,-16
7565,18,-190,-158,55,6,-16
7570,18,-191,-156,53,8,-18
7575,19,-188,-156,53,8,-17
7580,19,-191,-160,52,9,-18
7585,19,-190,-156,51,8,-18
7590,17,-192,-158,51,7,-19
7595,19,-191,-156,52,8,-18
7600,19,-190,-156,53,7,-20
7605,20,-192,-159,55,6,-18
7610,18,-191,-155,56,7,-18
7615,16,-191,-160,56,7,-16
7620,18,-191,-161,57,7,-17
7625,31,-184,-161,57,9,-15
7630,19,-192,-160,58,7,-15
7635,20,-190,-156,61,8,-16
7640,19,-190,-160,62,8,-14
7645,20,-191,-157,63,9,-15
7650,21,-188,-155,64,11,-14
7655,21,-191,-155,65,11,-15
7660,20,-190,-158,65,13,-15
7665,18,-190,-155,67,13,-15
7670,21,-191,-155,67,13,-14
7675,23,-188,-165,69,13,-10
7680,16,-190,-157,70,14,-9
7685,17,-186,-155,71,14,-10
7690,20,-189,-157,71,13,-9
7695,18,-192,-156,71,12,-9
7700,20,-189,-160,69,12,-9
7705,21,-190,-157,68,13,-8
7710,20,-189,-157,68,13,-9
7715,21,-189,-159,65,15,-9
7720,20,-192,-155,61,17,-9
7725,23,-189,-158,60,20,-8
7730,21,-188,-155,57,22,-7
7735,22,-191,-153,57,23,-8
7740,17,-190,-156,56,24,-8
7745,17,-188,-158,55,26,-9
7750,21,-184,-155,56,28,-8
7755,18,-190,-156,55,28,-8
7760,18,-189,-157,52,29,-5
7765,19,-190,-156,51,29,-3
7770,19,-190,-157,50,28,-2
7775,19,-187,-156,51,28,-3
7780,19,-190,-157,50,27,-3
7785,21,-191,-158,51,29,-2
7790,18,-187,-160,53,29,-2
7795,20,-191,-156,55,29,-2
7800,21,-192,-158,58,31,-2
7805,21,-190,-155,61,31,-3
7810,20,-188,-158,60,33,-3
7815,23,-190,-155,59,35,-2
7820,21,-191,-157,57,36,-1
7825,22,-192,-159,55,38,2
7830,19,-191,-156,53,37,2
7835,20,-191,-153,52,39,3
7840,21,-189,-156,52,39,3
7845,21,-191,-158,52,40,4
7850,22,-191,-152,52,41,4
7855,25,-190,-155,52,40,2
7860,20,-191,-159,51,41,2
7865,20,-188,-153,49,43,1
7870,25,-191,-155,49,45,0
7875,25,-187,-157,46,46,1
7880,23,-189,-153,42,48,2
7885,21,-191,-154,36,53,4
7890,20,-192,-154,29,56,3
7895,18,-187,-147,25,61,4
7900,19,-192,-153,21,64,6
7905,18,-192,-156,18,68,6
7910,19,-193,-159,18,71,8
7915,21,-192,-157,21,74,9
7920,18,-191,-160,28,73,12
7925,24,-194,-160,36,69,15
7930,20,-195,-162,44,68,16
7935,22,-194,-160,52,65,16
7940,22,-195,-164,61,65,17
7945,21,-195,-163,66,66,18
7950,25,-196,-160,66,68,19
7955,23,-194,-159,63,71,20
7960,28,-197,-160,59,73,19
7965,27,-197,-157,55,74,20
7970,25,-193,-158,59,75,21
7975,28,-199,-162,67,77,23
7980,23,-197,-160,80,78,21
7985,26,-196,-163,95,78,20
7990,27,-195,-158,104,80,18
7995,22,-196,-158,106,91,23
8000,23,-199,-156,104,95,23
8005,21,-195,-161,103,95,18
8010,22,-195,-158,101,94,16
8015,23,-196,-160,99,98,20
8020,22,-195,-158,97,105,23
8025,25,-193,-166,95,111,27
8030,26,-193,-161,90,117,30
8035,30,-193,-161,84,119,34
8040,26,-192,-164,74,120,33
8045,29,-192,-167,62,115,31
8050,29,-193,-164,44,113,28
8055,28,-193,-162,23,114,29
8060,28,-192,-165,3,108,26
8065,33,-192,-165,-17,103,22
8070,33,-195,-166,-33,102,20
8075,32,-191,-165,-50,106,18
8080,32,-193,-167,-67,109,12
8085,26,-192,-166,-82,114,6
8090,31,-194,-167,-93,118,3
8095,33,-195,-168,-105,138,7
8100,26,-194,-172,-123,158,19
8105,29,-194,-175,-136,167,22
8110,30,-195,-173,-153,170,18
8115,32,-194,-174,-173,165,11
8120,31,-194,-174,-188,159,4
8125,31,-192,-173,-208,154,-5
8130,31,-192,-173,-231,150,-10
8135,29,-193,-171,-252,148,-12
8140,31,-198,-169,-270,145,-10
8145,31,-197,-176,-285,141,-14
8150,27,-198,-168,-295,138,-18
8155,29,-198,-164,-299,132,-22
8160,27,-201,-170,-300,124,-23
8165,26,-196,-164,-302,115,-29
8170,23,-200,-166,-300,109,-27
8175,28,-205,-170,-299,101,-25
8180,23,-204,-172,-298,92,-33
8185,26,-206,-173,-294,83,-34
8190,26,-200,-173,-290,75,-39
8195,28,-199,-173,-292,67,-45
8200,30,-203,-176,-303,63,-54
8205,29,-201,-177,-311,64,-54
8210,32,-202,-177,-317,68,-52
8215,27,-199,-176,-324,72,-58
8220,27,-203,-176,-330,68,-68
8225,26,-204,-186,-334,64,-71
8230,27,-207,-181,-331,59,-67
8235,26,-205,-185,-325,53,-63
8240,22,-203,-189,-319,42,-55
8245,22,-198,-190,-311,28,-47
8250,21,-196,-193,-304,16,-42
8255,18,-193,-195,-306,2,-41
8260,23,-192,-197,-315,-16,-35
8265,19,-192,-196,-333,-34,-38
8270,21,-192,-196,-358,-48,-41
8275,25,-194,-194,-389,-58,-43
8280,23,-191,-191,-413,-68,-42
8285,24,-191,-187,-429,-76,-36
8290,27,-191,-192,-434,-82,-30
8295,29,-191,-187,-427,-85,-28
8300,27,-190,-191,-416,-90,-30
8305,32,-191,-192,-399,-95,-33
8310,30,-185,-196,-377,-99,-40
8315,32,-186,-194,-357,-103,-45
8320,35,-184,-194,-350,-108,-53
8325,29,-179,-188,-356,-115,-57
8330,29,-180,-192,-372,-125,-60
8335,28,-183,-192,-391,-137,-63
8340,29,-183,-184,-404,-146,-65
8345,31,-180,-184,-408,-155,-68
8350,26,-180,-180,-407,-159,-66
8355,26,-178,-178,-412,-165,-60
8360,27,-181,-181,-424,-167,-55
8365,26,-176,-180,-438,-168,-52
8370,27,-175,-182,-447,-165,-47
8375,27,-172,-185,-445,-163,-42
8380,28,-177,-191,-433,-165,-39
8385,29,-172,-190,-412,-163,-37
8390,30,-170,-190,-392,-159,-38
8395,30,-175,-189,-375,-160,-38
8400,30,-178,-190,-353,-162,-34
8405,29,-175,-188,-320,-162,-28
8410,31,-172,-187,-281,-158,-23
8415,32,-171,-188,-247,-152,-21
8420,30,-171,-191,-220,-147,-20
8425,26,-167,-190,-198,-144,-23
8430,24,-166,-189,-180,-138,-26
8435,30,-169,-194,-166,-136,-29
8440,24,-169,-194,-161,-135,-32
8445,26,-165,-193,-158,-136,-36
8450,25,-163,-192,-153,-140,-41
8455,24,-166,-190,-144,-146,-48
8460,24,-165,-189,-131,-147,-46
8465,27,-165,-191,-114,-144,-45
8470,24,-165,-192,-94,-140,-41
8475,19,-164,-189,-68,-141,-33
8480,21,-166,-187,-39,-143,-21
8485,21,-168,-179,-11,-144,-9
8490,19,-166,-182,14,-141,4
8495,19,-165,-182,41,-135,19
8500,18,-163,-181,64,-132,32
8505,19,-165,-180,83,-129,44
8510,20,-168,-179,100,-124,53
8515,20,-166,-181,115,-119,60
8520,23,-165,-188,121,-107,63
8525,18,-164,-188,114,-95,62
8530,19,-171,-186,105,-85,53
8535,18,-171,-191,97,-72,46
8540,13,-174,-190,102,-59,40
8545,11,-168,-190,118,-42,36
8550,9,-167,-188,147,-20,31
8555,14,-169,-183,185,0,33
8560,14,-167,-181,227,21,31
8565,9,-169,-180,270,44,33
8570,14,-172,-179,315,64,33
8575,14,-173,-180,357,81,37
8580,12,-173,-182,391,95,48
8585,11,-177,-187,419,104,59
8590,14,-176,-188,443,106,64
8595,16,-177,-192,461,99,65
8600,12,-175,-189,469,87,59
8605,10,-172,-184,468,78,48
8610,13,-170,-182,461,78,41
8615,10,-167,-182,456,80,35
8620,10,-169,-184,456,82,33
8625,7,-168,-184,457,88,35
8630,9,-172,-185,457,93,44
8635,5,-167,-189,449,99,54
8640,5,-166,-190,438,104,65
8645,8,-168,-190,421,109,76
8650,6,-166,-188,404,111,87
8655,6,-169,-189,384,107,97
8660,4,-166,-197,364,101,103
8665,9,-171,-190,345,97,107
8670,7,-170,-191,329,94,106
8675,5,-177,-186,315,91,109
8680,8,-180,-186,308,91,111
8685,9,-181,-174,302,92,112
8690,8,-181,-174,305,93,114
8695,8,-190,-177,316,93,120
8700,7,-188,-177,329,91,123
8705,9,-192,-178,348,87,127
8710,8,-192,-176,369,82,131
8715,9,-188,-180,394,74,134
8720,9,-186,-184,414,68,131
8725,10,-184,-188,426,61,129
8730,11,-181,-193,436,49,124
8735,7,-178,-196,445,38,116
8740,5,-179,-196,457,29,110
8745,6,-178,-195,465,25,104
8750,4,-179,-194,464,28,99
8755,4,-180,-195,451,31,99
8760,4,-180,-192,429,28,100
8765,9,-181,-191,399,23,101
8770,6,-181,-185,362,19,104
8775,7,-177,-185,322,10,104
8780,7,-181,-175,285,-1,97
8785,9,-183,-180,255,-11,91
8790,7,-178,-174,229,-18,83
8795,11,-181,-168,207,-25,78
8800,10,-179,-171,191,-31,73
8805,10,-176,-167,180,-33,69
8810,8,-180,-167,180,-33,68
8815,10,-179,-170,184,-33,67
8820,9,-181,-167,191,-33,66
8825,12,-183,-168,197,-31,65
8830,12,-185,-170,202,-26,66
8835,12,-186,-166,204,-26,63
8840,12,-190,-166,205,-26,59
8845,13,-190,-168,210,-28,54
8850,13,-190,-169,222,-31,43
8855,15,-191,-168,235,-34,30
8860,19,-191,-172,248,-37,15
8865,21,-194,-172,256,-38,2
8870,18,-191,-173,260,-37,-11
8875,18,-191,-173,257,-35,-25
8880,18,-193,-173,247,-34,-41
8885,22,-193,-173,234,-29,-53
8890,19,-194,-175,217,-22,-64
8895,19,-191,-178,200,-14,-71
8900,19,-196,-176,185,-6,-77
8905,21,-195,-178,175,2,-81
8910,19,-195,-175,169,10,-82
8915,17,-198,-177,170,15,-82
8920,15,-199,-172,179,20,-79
8925,14,-200,-177,193,24,-79
8930,13,-196,-173,212,30,-76
8935,15,-198,-170,236,35,-72
8940,17,-198,-168,260,39,-69
8945,17,-197,-166,282,40,-63
8950,17,-199,-168,301,42,-57
8955,15,-197,-162,311,44,-53
8960,17,-197,-164,318,44,-50
8965,15,-195,-163,322,44,-43
8970,16,-198,-165,324,40,-38
8975,16,-197,-164,328,37,-34
8980,13,-193,-165,334,31,-31
8985,17,-195,-161,342,27,-28
8990,15,-195,-160,350,22,-26
8995,16,-194,-160,356,18,-23
9000,17,-192,-162,361,14,-20
9005,15,-190,-158,365,11,-21
9010,18,-191,-156,370,10,-19
9015,14,-190,-158,376,9,-17
9020,16,-191,-153,384,7,-13
9025,16,-191,-156,391,4,-10
9030,18,-188,-149,400,4,-7
9035,14,-191,-150,406,5,-6
9040,16,-189,-146,410,7,-5
9045,15,-188,-147,410,10,-4
9050,15,-185,-146,410,13,-2
9055,9,-188,-146,410,13,0
9060,9,-185,-139,412,11,2
9065,10,-187,-143,411,6,4
9070,7,-189,-143,410,0,4
9075,9,-188,-138,412,-6,5
9080,8,-185,-140,417,-15,7
9085,4,-187,-134,426,-24,10
9090,8,-186,-132,441,-34,13
9095,2,-183,-131,459,-43,15
9100,4,-180,-129,480,-54,20
9105,6,-181,-128,498,-64,23
9110,6,-174,-130,514,-73,26
9115,7,-176,-131,521,-77,30
9120,6,-174,-134,522,-84,32
9125,7,-174,-128,516,-85,34
9130,9,-177,-135,503,-88,34
9135,7,-169,-134,485,-90,35
9140,12,-172,-132,468,-91,34
9145,11,-171,-137,450,-90,33
9150,17,-174,-127,435,-88,29
9155,17,-175,-138,422,-89,27
9160,13,-170,-140,414,-93,23
9165,15,-176,-138,410,-100,16
9170,14,-174,-140,404,-106,10
9175,16,-176,-139,397,-110,6
9180,15,-177,-136,388,-114,3
9185,15,-182,-135,375,-116,-3
9190,11,-180,-135,360,-117,-7
9195,12,-182,-135,341,-114,-14
9200,22,-186,-124,319,-108,-20
9205,15,-190,-141,298,-99,-24
9210,12,-190,-142,281,-84,-30
9215,12,-192,-142,264,-70,-34
9220,13,-193,-143,253,-59,-39
9225,13,-198,-138,245,-48,-44
9230,11,-196,-143,245,-38,-49
9235,14,-200,-144,248,-29,-51
9240,15,-202,-146,256,-20,-55
9245,14,-200,-142,265,-15,-55
9250,15,-203,-146,278,-9,-56
9255,15,-202,-145,289,-5,-53
9260,15,-204,-146,301,-1,-51
9265,14,-204,-146,310,1,-51
9270,16,-202,-144,313,6,-47
9275,16,-202,-146,313,11,-45
9280,16,-201,-145,310,14,-40
9285,19,-200,-142,303,21,-34
9290,14,-196,-145,293,28,-31
9295,16,-198,-138,285,38,-27
9300,15,-198,-138,280,45,-20
9305,13,-195,-135,276,49,-16
9310,11,-196,-135,277,55,-11
9315,13,-193,-133,284,60,-5
9320,16,-193,-128,292,63,-2
9325,13,-193,-125,307,60,2
9330,12,-192,-123,322,54,2
9335,9,-190,-125,331,47,3
9340,8,-188,-124,332,42,2
9345,8,-187,-119,324,38,0
9350,10,-189,-128,307,36,-2
9355,10,-190,-128,285,38,-4
9360,9,-190,-127,257,40,-6
9365,12,-193,-130,232,42,-4
9370,10,-194,-133,207,43,-6
9375,11,-198,-134,190,41,-9
9380,10,-198,-134,179,35,-11
9385,12,-202,-134,173,29,-10
9390,11,-206,-134,173,23,-9
9395,9,-204,-136,178,16,-7
9400,12,-211,-134,185,8,-5
9405,7,-207,-135,194,0,-4
9410,11,-212,-132,204,-6,-3
9415,11,-214,-132,213,-10,-1
9420,10,-211,-136,222,-14,-3
9425,10,-215,-130,230,-16,-5
9430,8,-216,-135,237,-17,-4
9435,7,-217,-134,243,-17,-3
9440,8,-217,-128,250,-15,-6
9445,8,-215,-133,257,-12,-8
9450,8,-214,-131,264,-6,-10
9455,7,-216,-127,273,-2,-11
9460,8,-211,-129,282,2,-11
9465,8,-215,-130,291,7,-11
9470,6,-213,-128,299,11,-11
9475,10,-211,-127,308,13,-14
9480,10,-213,-122,319,16,-13
9485,8,-214,-122,328,21,-13
9490,13,-213,-124,335,25,-13
9495,13,-210,-122,343,30,-15
9500,15,-215,-124,351,34,-15
9505,15,-209,-121,355,40,-15
9510,14,-211,-125,357,49,-13
9515,14,-210,-123,354,57,-13
9520,16,-211,-124,351,65,-14
9525,16,-209,-125,346,71,-15
9530,15,-209,-123,342,74,-16
9535,13,-214,-119,340,75,-17
9540,15,-211,-121,342,72,-18
9545,18,-211,-123,348,70,-22
9550,12,-205,-118,352,67,-23
9555,14,-208,-122,360,62,-24
9560,15,-210,-118,365,57,-22
9565,10,-210,-117,370,52,-19
9570,14,-209,-118,376,50,-15
9575,14,-209,-115,382,48,-10
9580,10,-210,-113,391,47,-4
9585,12,-215,-119,400,46,3
9590,10,-210,-112,408,46,7
9595,12,-208,-116,415,49,12
9600,10,-211,-114,420,52,17
9605,9,-211,-114,424,56,20
9610,8,-209,-112,426,61,24
9615,9,-213,-111,423,65,25
9620,8,-211,-112,418,69,25
9625,10,-213,-116,410,72,28
9630,8,-213,-114,402,77,30
9635,10,-215,-108,395,81,30
9640,7,-214,-112,393,85,31
9645,9,-218,-110,393,86,31
9650,11,-214,-110,396,87,29
9655,12,-217,-109,402,89,28
9660,12,-218,-109,413,89,27
9665,11,-216,-109,427,89,28
9670,10,-214,-112,443,92,26
9675,11,-214,-105,457,94,27
9680,16,-215,-105,468,95,27
9685,13,-214,-106,478,99,25
9690,16,-211,-103,486,104,23
9695,15,-211,-102,492,108,21
9700,17,-215,-105,494,112,20
9705,16,-213,-101,492,118,17
9710,17,-208,-104,490,124,16
9715,18,-212,-106,485,129,14
9720,15,-212,-101,479,134,12
9725,16,-213,-104,473,137,12
9730,16,-214,-101,467,137,12
9735,14,-213,-101,465,137,10
9740,14,-213,-100,469,135,11
9745,13,-219,-92,476,132,12
9750,13,-217,-97,486,128,13
9755,11,-217,-95,495,125,16
9760,9,-217,-95,505,123,18
9765,11,-217,-97,514,124,23
9770,10,-219,-98,520,125,26
9775,10,-217,-96,524,123,29
9780,8,-220,-93,525,120,31
9785,8,-223,-97,524,114,35
9790,5,-222,-94,521,110,39
9795,9,-224,-95,523,104,42
9800,6,-223,-95,524,98,46
9805,4,-226,-93,525,91,53
9810,7,-226,-92,526,86,58
9815,6,-229,-89,527,81,63
9820,5,-227,-90,528,77,66
9825,0,-225,-91,530,71,69
9830,2,-225,-88,531,67,73
9835,1,-228,-85,535,59,76
9840,2,-227,-86,539,54,75
9845,4,-228,-84,548,49,76
9850,2,-227,-85,555,45,77
9855,2,-228,-83,560,42,75
9860,3,-226,-77,563,38,73
9865,1,-226,-78,565,34,68
9870,5,-226,-79,565,27,64
9875,3,-224,-78,568,21,59
9880,8,-228,-75,569,14,54
9885,6,-225,-77,567,7,48
9890,7,-223,-77,565,1,45
9895,4,-225,-76,564,-1,40
9900,8,-226,-73,560,-2,37
9905,9,-224,-80,554,-1,34
9910,10,-224,-74,545,-1,29
9915,11,-226,-78,538,0,24
9920,7,-225,-76,536,2,22
9925,14,-227,-75,536,2,17
9930,11,-228,-72,536,1,15
9935,12,-227,-70,536,3,14
9940,15,-226,-72,537,4,10
9945,14,-228,-71,542,6,4
9950,13,-225,-72,543,11,0
9955,12,-228,-69,545,13,-6
9960,12,-227,-67,547,17,-13
9965,8,-223,-68,550,18,-20
9970,13,-224,-68,550,18,-24
9975,14,-224,-66,547,20,-28
9980,18,-225,-67,543,20,-33
9985,12,-223,-67,538,24,-37
9990,14,-225,-68,532,30,-40
9995,14,-228,-70,524,35,-41
10000,13,-225,-68,516,39,-43
10005,14,-232,-66,505,44,-47
10010,12,-231,-67,497,50,-48
10015,14,-229,-64,493,55,-48
10020,12,-231,-64,493,57,-46
10025,12,-234,-64,493,58,-48
10030,15,-233,-63,493,55,-49
10035,15,-232,-59,494,50,-46
10040,14,-229,-61,492,48,-47
10045,13,-235,-55,489,46,-44
10050,10,-231,-62,485,46,-43
10055,9,-230,-58,480,45,-43
10060,16,-236,-60,475,44,-42
10065,12,-235,-54,472,44,-43
10070,14,-236,-53,471,45,-46
10075,11,-237,-56,470,45,-46
10080,14,-237,-54,468,42,-46
10085,14,-237,-55,465,39,-49
10090,16,-241,-52,459,32,-48
10095,14,-236,-56,453,23,-51
10100,14,-234,-57,452,17,-54
10105,10,-233,-57,443,13,-53
10110,11,-231,-58,439,9,-54
10115,12,-234,-56,426,3,-50
10120,11,-235,-56,404,-5,-52
10125,9,-239,-54,389,-9,-53
10130,13,-239,-56,381,-8,-55
10135,12,-239,-55,378,-7,-57
10140,9,-237,-55,382,-6,-59
10145,15,-239,-52,388,-8,-61
10150,12,-241,-54,396,-11,-60
10155,13,-240,-51,406,-13,-60
10160,9,-237,-51,417,-17,-60
10165,10,-235,-52,430,-22,-59
10170,8,-240,-53,443,-25,-56
10175,8,-239,-58,454,-25,-53
10180,10,-240,-47,462,-26,-53
10185,10,-239,-53,465,-27,-52
10190,11,-241,-54,465,-30,-47
10195,14,-241,-55,461,-30,-43
10200,13,-244,-51,456,-30,-39
10205,11,-242,-52,454,-30,-38
10210,14,-246,-46,454,-32,-34
10215,15,-246,-48,459,-29,-30
10220,16,-245,-46,466,-30,-27
10225,16,-245,-46,475,-31,-24
10230,17,-245,-44,486,-31,-22
10235,16,-248,-31,493,-31,-20
10240,20,-247,-45,502,-32,-19
10245,19,-243,-44,505,-32,-21
10250,22,-244,-39,509,-33,-20
10255,18,-243,-41,510,-34,-21
10260,20,-243,-40,508,-36,-24
10265,17,-243,-42,503,-35,-28
10270,21,-241,-41,498,-38,-32
10275,18,-242,-40,493,-38,-35
10280,20,-242,-39,486,-37,-38
10285,16,-239,-41,479,-38,-42
10290,18,-242,-38,473,-37,-48
10295,18,-240,-40,466,-37,-51
10300,15,-240,-45,458,-37,-55
10305,20,-241,-38,452,-36,-58
10310,20,-244,-39,445,-33,-61
10315,20,-239,-35,438,-28,-65
10320,14,-239,-36,433,-22,-68
10325,19,-241,-37,431,-14,-68
10330,18,-243,-37,425,-5,-71
10335,21,-243,-33,418,4,-73
10340,22,-241,-34,409,12,-77
10345,22,-241,-34,398,17,-80
10350,18,-242,-34,390,22,-81
10355,21,-243,-37,378,25,-82
10360,17,-244,-37,366,28,-82
10365,18,-245,-35,355,28,-82
10370,16,-245,-37,348,25,-81
10375,17,-245,-34,342,24,-81
10380,18,-246,-34,340,24,-81
10385,16,-246,-33,342,24,-79
10390,20,-245,-34,344,23,-77
10395,17,-246,-26,343,22,-78
10400,17,-243,-31,342,22,-77
10405,16,-239,-34,343,20,-74
10410,16,-240,-32,336,16,-72
10415,15,-242,-31,327,12,-71
10420,17,-241,-27,312,10,-70
10425,14,-242,-28,303,4,-66
10430,15,-237,-28,292,2,-62
10435,13,-238,-28,282,0,-60
10440,18,-241,-25,272,-2,-55
10445,13,-240,-26,263,-4,-52
10450,15,-244,-26,255,-7,-51
10455,14,-241,-20,248,-7,-50
10460,15,-242,-17,245,-12,-48
10465,14,-243,-22,242,-17,-46
10470,15,-238,-19,236,-20,-46
10475,15,-239,-20,232,-26,-46
10480,13,-243,-18,225,-30,-41
10485,15,-243,-22,217,-34,-37
10490,16,-245,-21,207,-37,-35
10495,16,-244,-21,200,-42,-32
10500,17,-250,-21,194,-46,-29
10505,16,-247,-21,191,-48,-27
10510,17,-248,-21,189,-53,-22
10515,17,-249,-20,190,-60,-18
10520,17,-249,-21,189,-63,-15
10525,18,-252,-25,189,-66,-11
10530,14,-250,-24,190,-66,-9
10535,14,-253,-24,190,-67,-8
10540,14,-251,-28,194,-68,-5
10545,13,-251,-24,198,-75,-1
10550,15,-252,-23,204,-78,2
10555,17,-253,-23,208,-84,5
10560,14,-254,-20,212,-90,8
10565,14,-254,-21,218,-94,13
10570,13,-253,-23,225,-100,15
10575,15,-252,-22,231,-106,16
10580,15,-254,-17,239,-110,17
10585,14,-251,-16,247,-113,21
10590,13,-251,-16,255,-115,24
10595,15,-254,-12,262,-116,24
10600,14,-249,-15,267,-118,26
10605,13,-250,-15,271,-121,27
10610,17,-249,-14,273,-122,28
10615,18,-251,-13,277,-126,30
10620,15,-252,-12,279,-130,29
10625,14,-248,-12,281,-133,29
10630,15,-246,-6,282,-137,29
10635,13,-242,-7,284,-141,28
10640,15,-246,-9,282,-144,27
10645,14,-245,-9,279,-145,25
10650,17,-245,-7,274,-145,19
10655,15,-246,-4,274,-148,19
10660,14,-242,-5,268,-152,15
10665,15,-244,-4,262,-152,12
10670,11,-242,-7,252,-151,10
10675,15,-241,-4,237,-148,6
10680,15,-241,-4,228,-147,2
10685,15,-244,-6,215,-146,-2
10690,17,-239,-8,204,-141,-5
10695,15,-241,-11,194,-140,-5
10700,17,-243,-5,181,-136,-6
10705,14,-240,-10,170,-136,-10
10710,15,-244,-8,158,-135,-10
10715,12,-244,-9,149,-135,-14
10720,11,-245,-8,140,-134,-21
10725,11,-245,-9,138,-136,-18
10730,15,-248,0,134,-138,-17
10735,12,-247,-4,133,-140,-20
10740,10,-250,-5,133,-142,-19
10745,12,-248,-6,129,-142,-20
10750,10,-248,-3,127,-143,-21
10755,10,-248,-6,124,-144,-20
10760,11,-251,-6,123,-145,-19
10765,12,-249,-3,121,-144,-20
10770,12,-253,-6,121,-143,-17
10775,9,-251,-4,120,-141,-13
10780,15,-253,-6,119,-138,-14
10785,17,-251,-3,119,-135,-14
10790,16,-252,-5,121,-132,-12
10795,16,-250,-6,123,-130,-9
10800,14,-247,-9,124,-128,-7
10805,18,-248,-8,125,-125,-5
10810,15,-250,-9,125,-121,-4
10815,14,-245,-8,129,-120,-2
10820,18,-248,-7,136,-123,2
10825,18,-247,-5,143,-126,5
10830,16,-246,-9,150,-127,6
10835,17,-246,-11,153,-129,5
10840,18,-247,-4,155,-133,6
10845,19,-247,1,155,-134,7
10850,18,-245,-5,154,-136,8
10855,18,-246,-1,151,-137,6
10860,22,-248,0,149,-136,4
10865,20,-247,-1,150,-136,7
10870,16,-247,0,149,-132,8
10875,19,-248,0,145,-126,7
10880,21,-246,0,140,-118,8
10885,20,-245,0,135,-110,7
10890,18,-249,0,130,-102,7
10895,19,-247,0,126,-94,6
10900,18,-242,0,118,-85,3
10905,18,-247,-1,117,-80,3
10910,19,-242,0,112,-75,4
10915,17,-245,1,108,-71,3
10920,17,-243,-1,103,-67,4
10925,17,-245,1,97,-62,6
10930,16,-243,3,92,-57,4
10935,18,-246,0,87,-52,3
10940,14,-244,2,83,-47,2
10945,16,-246,1,79,-44,2
10950,17,-244,2,75,-39,-1
10955,14,-245,1,72,-36,-2
10960,15,-246,3,67,-33,-6
10965,15,-241,2,63,-30,-6
10970,16,-246,0,57,-27,-6
10975,13,-246,1,52,-25,-8
10980,14,-246,-1,47,-24,-8
10985,17,-248,2,42,-22,-10
10990,10,-242,0,37,-19,-8
10995,13,-246,1,35,-19,-9
11000,14,-245,0,34,-15,-10
11005,16,-246,0,35,-12,-11
11010,18,-248,0,37,-8,-14
11015,15,-246,1,38,-4,-15
11020,14,-247,-1,41,-3,-16
11025,13,-246,2,44,1,-15
11030,12,-247,0,44,5,-15
11035,15,-247,3,43,10,-16
11040,13,-247,3,38,15,-18
11045,16,-247,3,34,18,-17
11050,18,-245,0,31,21,-17
11055,15,-247,1,28,21,-17
11060,17,-250,5,28,19,-19
11065,18,-251,2,26,18,-20
11070,16,-248,3,25,16,-22
11075,14,-248,4,24,13,-19
11080,15,-248,2,24,10,-22
11085,15,-248,2,23,7,-20
11090,15,-249,4,22,4,-21
11095,14,-248,6,25,3,-21
11100,13,-247,5,27,2,-22
11105,15,-248,5,29,4,-23
11110,16,-248,6,29,6,-22
11115,13,-246,0,28,9,-23
11120,14,-246,5,24,12,-20
11125,15,-245,3,17,14,-19
11130,17,-247,0,11,16,-19
11135,13,-246,1,4,16,-17
11140,13,-245,3,0,16,-17
11145,13,-248,3,-8,16,-21
11150,14,-246,0,-9,14,-17
11155,15,-247,-2,-9,9,-15
11160,14,-249,0,-10,2,-13
11165,13,-248,-3,-10,0,-10
11170,16,-253,1,-11,-3,-10
11175,13,-250,1,-9,-3,-10
11180,15,-253,1,-6,-4,-9
11185,13,-250,0,-1,-4,-9
11190,15,-251,0,5,-2,-8
11195,15,-254,-1,10,0,-7
11200,16,-250,0,16,3,-7
11205,16,-248,-5,21,7,-9
11210,16,-249,0,24,11,-8
11215,14,-247,-3,26,12,-8
11220,15,-249,0,29,15,-7
11225,16,-249,-4,31,17,-7
11230,17,-249,-1,32,18,-9
11235,11,-251,-3,33,19,-9
11240,16,-252,-2,35,19,-10
11245,15,-251,0,37,19,-13
11250,16,-254,1,44,20,-10
11255,13,-251,1,47,19,-12
11260,15,-250,0,50,19,-14
11265,18,-252,0,53,20,-16
11270,13,-250,-3,56,23,-17
11275,16,-251,-1,57,25,-16
11280,16,-248,1,59,26,-17
11285,13,-246,0,57,25,-18
11290,13,-246,0,55,26,-20
11295,13,-247,0,53,26,-20
11300,13,-245,3,51,24,-19
11305,12,-244,0,48,22,-20
11310,16,-245,2,46,20,-19
11315,16,-247,-1,43,16,-18
11320,15,-248,-3,42,14,-19
11325,14,-246,-1,38,13,-17
11330,15,-245,0,34,11,-15
11335,13,-245,0,29,10,-13
11340,14,-247,-3,25,9,-12
11345,14,-248,-2,24,6,-11
11350,12,-247,-3,22,5,-10
11355,14,-249,-2,21,5,-9
11360,12,-248,-3,21,4,-9
11365,13,-247,-2,20,1,-10
11370,14,-248,-4,21,0,-7
11375,13,-251,-7,21,0,-7
11380,13,-246,-5,19,-1,-7
11385,15,-247,-4,22,-1,-7
11390,11,-249,-2,23,-1,-7
11395,12,-248,-4,24,-2,-8
11400,16,-249,-3,23,-3,-9
11405,14,-250,-5,24,-3,-8
11410,12,-245,-3,23,-3,-12
11415,19,-246,5,25,-5,-9
11420,13,-244,-4,26,-5,-9
11425,15,-246,-4,23,-6,-8
11430,17,-246,-2,20,-7,-7
11435,15,-247,-4,18,-9,-7
11440,15,-249,-1,14,-11,-8
11445,16,-245,-4,11,-12,-5
11450,16,-245,-2,7,-12,-4
11455,14,-248,-2,4,-12,-3
11460,17,-247,-9,2,-13,-4
11465,17,-249,-4,3,-15,-3
11470,13,-248,-4,3,-17,-2
11475,13,-247,-3,5,-16,-3
11480,15,-249,-9,7,-18,-5
11485,15,-243,-6,8,-18,-4
11490,18,-249,-7,9,-17,-3
11495,16,-247,-4,8,-15,-4
11500,19,-245,-3,9,-16,-4
11505,16,-250,-9,8,-17,-4
11510,19,-249,-1,8,-16,-3
11515,15,-248,-5,10,-16,-3
11520,11,-251,-6,9,-15,-5
11525,18,-249,-1,8,-17,-5
11530,15,-248,-4,8,-16,-1
11535,14,-246,-4,8,-18,-2
11540,14,-250,-7,8,-20,-1
11545,14,-250,-4,9,-22,-1
11550,14,-248,-9,9,-24,0
11555,14,-251,-9,9,-25,1
11560,15,-251,-7,11,-27,5
11565,17,-250,-9,13,-29,6
11570,14,-247,-12,15,-29,4
11575,17,-248,-7,19,-28,4
11580,14,-252,-6,24,-26,4
11585,16,-252,-3,28,-27,4
11590,17,-248,-6,31,-24,4
11595,14,-250,-7,34,-21,4
11600,13,-249,-6,35,-20,4
11605,15,-249,-7,35,-18,3
11610,18,-249,-7,32,-18,1
11615,12,-245,-4,30,-17,3
11620,15,-249,-8,27,-19,2
11625,14,-249,-3,24,-19,2
11630,16,-245,-4,20,-19,1
11635,16,-244,-2,18,-21,2
11640,15,-249,-6,17,-21,-1
11645,16,-248,-5,17,-23,-1
11650,13,-247,-8,17,-24,-1
11655,14,-246,-6,18,-24,-1
11660,18,-248,-5,19,-24,0
11665,15,-250,-6,18,-24,-4
11670,12,-248,-5,19,-24,-3
11675,16,-250,-2,20,-23,-3
11680,16,-248,-8,21,-23,-4
11685,16,-249,-3,21,-21,-6
11690,14,-248,-7,23,-20,-5
11695,17,-249,-8,24,-18,-6
11700,18,-250,-5,23,-19,-8
11705,17,-250,-8,24,-18,-7
11710,14,-248,-9,24,-15,-8
11715,15,-251,-12,22,-14,-10
11720,16,-249,-7,20,-13,-11
11725,15,-249,-3,23,-15,-8
11730,14,-248,-3,25,-15,-9
11735,14,-249,-6,25,-12,-8
11740,14,-247,-10,24,-12,-8
11745,15,-246,-10,23,-10,-10
11750,15,-249,-6,20,-8,-8
11755,15,-247,-10,19,-10,-9
11760,13,-249,-10,17,-10,-10
11765,17,-250,-9,18,-12,-10
11770,15,-250,-8,21,-14,-8
11775,16,-250,-8,23,-16,-10
11780,15,-251,-9,25,-16,-10
11785,14,-251,-9,27,-19,-8
11790,11,-248,-7,28,-21,-7
11795,13,-250,-9,30,-20,-6
11800,17,-247,-12,31,-20,-6
11805,14,-247,-7,33,-19,-5
11810,15,-246,-7,33,-18,-7
11815,18,-248,-11,34,-17,-7
11820,13,-249,-11,36,-16,-7
11825,14,-250,-7,38,-14,-7
11830,16,-248,-11,37,-14,-6
11835,15,-247,-11,39,-13,-9
11840,14,-247,-8,38,-13,-9
11845,17,-251,-11,38,-12,-8
11850,18,-248,-7,38,-12,-9
11855,14,-251,-7,36,-11,-8
11860,12,-248,-9,35,-10,-6
11865,13,-246,-9,33,-10,-10
11870,17,-247,-5,33,-10,-8
11875,15,-248,-9,32,-10,-8
11880,15,-249,-10,30,-11,-8
11885,16,-250,-10,29,-12,-6
11890,12,-244,-9,29,-11,-6
11895,15,-252,-10,29,-12,-7
11900,14,-248,-3,25,-8,-12
11905,16,-250,-10,29,-10,-9
11910,14,-249,-11,32,-12,-8
11915,13,-247,-12,33,-11,-8
11920,12,-248,-12,34,-8,-9
11925,13,-249,-10,35,-7,-9
11930,14,-250,-10,38,-4,-10
11935,16,-250,-11,41,-3,-9
11940,15,-249,-12,45,-2,-10
11945,11,-249,-17,48,-4,-10
11950,14,-248,-12,51,-7,-10
11955,14,-250,-12,51,-11,-8
11960,17,-244,-14,51,-14,-8
11965,14,-245,-8,51,-15,-7
11970,15,-245,-13,50,-15,-8
11975,13,-249,-10,49,-17,-7
11980,16,-251,-12,48,-17,-7
11985,15,-250,-11,52,-16,-5
11990,10,-247,-12,56,-16,-8
11995,14,-250,-12,60,-15,-7
