timestamp,acc_x,acc_y,acc_z,gyro_x,gyro_y,gyro_z
0,15,-245,2,51,10,-11
5,14,-244,-2,47,13,-11
10,14,-248,0,44,13,-11
15,13,-248,2,42,13,-12
20,15,-249,0,40,14,-10
25,16,-254,-3,39,13,-8
30,16,-248,3,40,11,-9
35,14,-250,0,41,11,-8
40,16,-251,2,43,10,-8
45,12,-250,1,49,11,-9
50,14,-251,2,54,10,-9
55,15,-253,4,59,10,-10
60,13,-248,1,63,10,-11
65,13,-247,0,67,9,-14
70,14,-247,0,68,9,-13
75,15,-252,0,68,8,-14
80,16,-247,0,67,10,-15
85,15,-249,0,67,10,-15
90,11,-245,2,66,11,-14
95,15,-249,3,64,13,-15
100,16,-248,6,63,13,-15
105,15,-250,1,59,13,-13
110,15,-248,0,55,14,-12
115,16,-246,0,52,15,-13
120,11,-248,2,50,14,-10
125,19,-250,1,49,11,-10
130,14,-249,2,49,12,-11
135,13,-247,4,51,12,-13
140,16,-251,0,52,11,-11
145,12,-251,0,55,9,-12
150,13,-250,0,55,8,-12
155,13,-248,0,56,9,-11
160,12,-250,0,57,9,-11
165,17,-249,2,57,10,-12
170,11,-249,0,56,12,-12
175,14,-247,2,56,12,-12
180,11,-247,-1,57,14,-13
185,12,-249,1,57,15,-11
190,11,-250,4,57,15,-14
195,14,-248,0,55,15,-12
200,10,-247,1,55,16,-14
205,16,-251,2,56,18,-12
210,11,-246,2,56,17,-13
215,15,-249,2,54,17,-13
220,13,-248,3,54,17,-12
225,14,-250,1,52,17,-11
230,17,-250,1,50,16,-11
235,13,-246,-1,48,16,-11
240,14,-249,0,49,15,-10
245,14,-247,1,48,14,-10
250,14,-250,4,48,15,-12
255,15,-250,1,50,14,-11
260,13,-247,3,52,12,-9
265,12,-245,0,54,11,-11
270,15,-251,0,58,10,-10
275,12,-247,1,59,10,-12
280,11,-249,0,58,12,-12
285,9,-244,-6,56,11,-10
290,13,-248,2,54,11,-11
295,12,-248,4,51,13,-12
300,14,-250,0,50,13,-11
305,14,-248,1,48,14,-10
310,12,-249,-1,47,13,-12
315,15,-250,-3,48,12,-12
320,14,-249,1,49,10,-12
325,14,-247,3,49,7,-12
330,15,-249,1,51,5,-11
335,12,-247,1,52,3,-11
340,16,-249,4,54,1,-11
345,17,-248,1,54,1,-11
350,15,-250,1,55,2,-11
355,20,-248,1,56,3,-11
360,15,-249,0,56,6,-10
365,14,-246,0,55,9,-13
370,15,-250,0,55,10,-12
375,13,-249,2,55,11,-11
380,10,-245,-1,56,12,-13
385,10,-246,0,56,11,-13
390,18,-250,1,57,12,-11
395,16,-251,-1,57,13,-13
400,12,-245,-2,56,11,-13
405,15,-248,0,55,11,-14
410,14,-248,1,55,10,-13
415,15,-247,1,55,12,-12
420,14,-249,2,54,12,-12
425,17,-248,-1,54,12,-12
430,12,-247,2,54,12,-12
435,12,-246,2,53,12,-11
440,15,-248,3,53,13,-11
445,15,-249,0,54,13,-12
450,8,-241,0,54,13,-12
455,15,-249,1,56,11,-11
460,12,-247,4,56,12,-10
465,13,-246,0,56,12,-11
470,14,-249,1,57,11,-11
475,14,-250,0,58,11,-12
480,16,-247,3,58,11,-13
485,12,-247,1,57,11,-12
490,12,-246,0,56,12,-9
495,13,-246,4,57,14,-10
500,13,-246,0,57,14,-11
505,14,-250,1,58,15,-11
510,9,-246,0,57,15,-11
515,11,-249,-1,58,16,-11
520,14,-248,1,59,15,-11
525,19,-249,3,59,15,-10
530,14,-251,0,61,14,-9
535,12,-248,0,61,13,-10
540,11,-252,1,60,13,-10
545,15,-250,1,60,11,-10
550,14,-251,1,60,9,-11
555,14,-248,0,59,9,-10
560,12,-245,0,58,8,-10
565,12,-250,-1,59,8,-9
570,14,-250,0,59,8,-9
575,15,-249,3,59,8,-11
580,16,-249,0,59,9,-9
585,12,-247,3,60,10,-7
590,16,-249,2,60,10,-7
595,14,-248,1,61,11,-11
600,13,-250,-2,61,10,-10
605,11,-250,0,62,9,-10
610,15,-250,2,61,11,-10
615,14,-251,1,61,12,-9
620,12,-246,2,62,12,-9
625,17,-249,0,63,11,-10
630,11,-248,1,65,10,-10
635,15,-248,-1,66,11,-8
640,13,-251,2,68,10,-9
645,15,-249,0,68,11,-9
650,13,-248,2,68,12,-9
655,14,-248,2,67,10,-10
660,15,-246,-7,65,10,-10
665,15,-247,4,64,10,-10
670,15,-248,3,63,10,-10
675,16,-246,0,62,10,-9
680,14,-249,2,61,10,-9
685,13,-249,1,61,10,-8
690,15,-248,0,62,10,-7
695,14,-246,0,62,11,-8
700,12,-247,4,62,10,-7
705,15,-248,2,61,10,-7
710,13,-249,3,61,9,-7
715,14,-247,2,60,8,-9
720,13,-247,3,61,8,-11
725,16,-247,0,62,6,-9
730,16,-253,-1,62,6,-8
735,13,-251,1,62,7,-10
740,16,-249,2,62,5,-9
745,15,-248,2,62,7,-9
750,14,-251,0,62,6,-10
755,12,-248,4,62,7,-10
760,12,-248,2,60,8,-10
765,15,-248,1,60,8,-10
770,14,-245,-1,60,8,-9
775,15,-248,0,61,7,-10
780,12,-248,2,61,6,-9
785,17,-246,1,62,6,-10
790,13,-248,2,63,6,-10
795,12,-250,1,64,6,-11
800,14,-246,1,65,6,-11
805,13,-247,2,65,6,-10
810,16,-250,1,64,6,-10
815,16,-248,1,65,5,-11
820,14,-246,-1,63,6,-12
825,16,-250,2,64,7,-10
830,13,-247,2,63,7,-10
835,14,-245,1,62,8,-11
840,15,-247,2,61,7,-9
845,16,-248,4,60,8,-8
850,15,-247,0,59,9,-9
855,14,-249,1,60,9,-8
860,16,-249,-2,61,10,-8
865,16,-249,2,64,9,-9
870,13,-251,1,65,9,-9
875,15,-246,4,66,9,-8
880,14,-246,3,67,10,-8
885,14,-246,2,67,12,-8
890,14,-248,2,67,13,-9
895,13,-250,2,64,14,-9
900,15,-248,3,62,15,-10
905,16,-249,4,61,16,-12
910,13,-247,0,61,18,-12
915,16,-251,2,59,17,-12
920,13,-248,1,59,18,-11
925,15,-247,1,57,18,-12
930,14,-250,4,57,18,-11
935,14,-251,3,58,18,-11
940,13,-248,3,59,16,-11
945,13,-248,0,60,15,-13
950,12,-246,5,59,14,-13
955,13,-246,4,61,15,-13
960,14,-248,1,59,15,-14
965,14,-247,1,57,16,-16
970,12,-246,3,57,17,-13
975,14,-247,0,53,17,-14
980,15,-241,-11,49,18,-14
985,17,-249,2,46,19,-14
990,13,-247,2,46,20,-14
995,13,-247,4,44,20,-14
1000,14,-249,-2,44,19,-15
1005,13,-249,1,45,18,-13
1010,17,-248,2,48,15,-14
1015,15,-249,4,49,12,-13
1020,15,-251,0,55,10,-12
1025,15,-251,1,57,8,-11
1030,13,-253,-5,62,8,-12
1035,15,-251,3,65,7,-11
1040,12,-251,3,67,9,-12
1045,15,-247,4,69,9,-12
1050,16,-248,2,70,12,-13
1055,16,-250,1,71,15,-15
1060,13,-247,1,72,18,-14
1065,12,-246,-3,71,20,-14
1070,15,-247,6,69,21,-15
1075,14,-248,0,66,20,-17
1080,15,-247,0,64,20,-16
1085,12,-246,5,62,21,-14
1090,12,-246,4,58,21,-13
1095,16,-247,0,55,19,-13
1100,15,-249,1,53,17,-12
1105,13,-250,0,55,16,-11
1110,16,-247,0,54,15,-12
1115,13,-248,4,55,13,-11
1120,14,-246,-1,57,13,-11
1125,14,-250,1,57,12,-11
1130,15,-252,1,59,13,-11
1135,14,-247,1,60,14,-9
1140,16,-250,1,63,14,-10
1145,12,-251,0,63,14,-12
1150,11,-245,0,64,15,-13
1155,14,-251,4,64,15,-10
1160,14,-249,1,66,14,-12
1165,15,-247,1,65,15,-12
1170,14,-249,3,66,17,-12
1175,15,-249,1,67,16,-12
1180,13,-249,1,68,15,-13
1185,17,-250,1,68,15,-13
1190,12,-246,2,67,15,-12
1195,13,-247,4,67,15,-13
1200,14,-249,-1,66,14,-12
1205,16,-248,7,65,13,-12
1210,12,-249,6,65,12,-12
1215,15,-248,4,65,11,-11
1220,12,-250,1,66,11,-10
1225,15,-248,4,66,11,-10
1230,16,-250,6,65,12,-11
1235,13,-250,2,66,12,-13
1240,15,-248,1,66,12,-11
1245,15,-250,2,64,12,-11
1250,14,-251,2,64,13,-10
1255,14,-249,1,62,13,-11
1260,14,-247,2,62,14,-12
1265,12,-246,2,60,14,-11
1270,12,-249,5,60,14,-12
1275,13,-248,1,58,15,-12
1280,13,-244,1,57,15,-13
1285,13,-248,4,56,16,-11
1290,14,-247,1,55,15,-12
1295,15,-247,2,54,14,-12
1300,14,-247,2,54,13,-12
1305,14,-249,3,53,13,-11
1310,12,-247,1,53,10,-10
1315,15,-248,3,52,9,-9
1320,14,-247,4,52,9,-9
1325,12,-248,3,53,8,-9
1330,12,-249,4,53,7,-8
1335,14,-249,1,54,7,-7
1340,13,-250,2,55,8,-8
1345,12,-246,0,56,7,-8
1350,13,-247,3,57,9,-9
1355,15,-247,2,59,9,-10
1360,14,-249,3,60,10,-11
1365,15,-248,3,61,10,-10
1370,15,-247,1,62,11,-10
1375,16,-249,4,62,12,-11
1380,14,-252,5,63,11,-10
1385,11,-246,1,62,11,-10
1390,15,-251,5,61,12,-9
1395,13,-248,4,60,11,-9
1400,14,-247,0,60,13,-10
1405,16,-250,4,58,12,-11
1410,14,-250,3,57,11,-9
1415,13,-248,2,56,9,-8
1420,12,-245,2,57,9,-11
1425,14,-246,2,55,8,-8
1430,15,-249,9,56,8,-9
1435,13,-250,3,56,6,-9
1440,14,-253,2,57,6,-9
1445,14,-249,2,57,7,-9
1450,14,-248,2,59,6,-11
1455,13,-248,3,59,6,-10
1460,12,-248,4,59,4,-10
1465,14,-251,5,58,5,-11
1470,14,-245,1,58,6,-9
1475,14,-247,4,57,4,-9
1480,14,-248,4,56,4,-11
1485,14,-246,4,56,5,-10
1490,14,-250,2,56,3,-10
1495,12,-248,4,58,4,-9
1500,13,-248,2,58,5,-10
1505,14,-251,3,59,5,-10
1510,14,-247,3,58,5,-10
1515,14,-248,3,59,5,-12
1520,17,-248,7,59,6,-9
1525,12,-243,6,58,7,-10
1530,12,-248,3,56,9,-10
1535,15,-250,4,57,9,-10
1540,13,-247,3,55,8,-10
1545,16,-247,0,53,8,-11
1550,14,-249,2,52,7,-11
1555,15,-248,2,52,7,-10
1560,16,-251,3,51,8,-9
1565,14,-249,2,52,7,-10
1570,13,-248,3,52,7,-9
1575,13,-247,3,54,6,-8
1580,12,-247,0,54,7,-9
1585,16,-251,5,54,6,-9
1590,14,-249,1,54,7,-10
1595,14,-249,4,53,8,-8
1600,13,-246,4,52,8,-9
1605,15,-250,4,53,9,-8
1610,15,-251,2,52,8,-8
1615,12,-248,4,53,7,-8
1620,13,-249,3,53,8,-9
1625,14,-246,6,55,6,-10
1630,15,-248,2,56,7,-10
1635,14,-249,1,56,8,-9
1640,14,-251,6,57,7,-10
1645,15,-248,1,59,7,-10
1650,14,-249,3,59,6,-11
1655,14,-248,4,58,7,-10
1660,14,-249,-1,58,8,-11
1665,13,-247,4,57,9,-11
1670,17,-250,4,56,10,-13
1675,12,-247,2,55,8,-12
1680,13,-248,5,56,8,-13
1685,14,-251,5,55,7,-11
1690,16,-248,-1,55,9,-12
1695,13,-247,1,55,9,-11
1700,14,-249,1,56,10,-11
1705,14,-248,0,55,10,-12
1710,15,-248,4,56,10,-11
1715,12,-247,4,57,12,-12
1720,12,-247,1,58,11,-12
1725,15,-245,1,57,11,-12
1730,15,-249,2,55,12,-12
1735,14,-247,0,57,12,-11
1740,15,-249,2,55,12,-11
1745,11,-248,1,55,12,-12
1750,12,-247,1,56,13,-12
1755,13,-245,2,55,12,-12
1760,14,-247,5,55,12,-11
1765,14,-247,2,54,12,-12
1770,15,-247,5,54,12,-12
1775,13,-250,0,54,11,-11
1780,14,-248,3,54,11,-10
1785,10,-250,2,54,10,-11
1790,13,-250,0,54,10,-10
1795,13,-249,4,54,10,-11
1800,12,-249,1,55,10,-11
1805,14,-247,1,56,9,-11
1810,16,-247,3,57,10,-12
1815,11,-248,2,57,11,-12
1820,13,-247,4,57,9,-11
1825,13,-246,0,56,9,-13
1830,15,-248,1,56,10,-12
1835,13,-249,2,56,10,-11
1840,15,-251,7,55,9,-11
1845,12,-247,0,52,8,-12
1850,14,-247,4,52,8,-13
1855,14,-246,3,50,10,-12
1860,15,-248,2,49,9,-11
1865,15,-246,2,48,8,-13
1870,16,-248,5,47,8,-13
1875,14,-246,3,46,8,-12
1880,12,-247,2,46,7,-12
1885,12,-248,5,47,7,-11
1890,15,-247,2,48,8,-11
1895,16,-249,1,49,7,-11
1900,13,-249,3,50,8,-12
1905,12,-247,2,50,9,-12
1910,15,-250,5,51,12,-12
1915,14,-246,1,51,12,-13
1920,14,-249,4,52,14,-14
1925,15,-247,2,55,14,-13
1930,16,-251,3,55,15,-15
1935,14,-247,1,57,17,-15
1940,15,-252,2,56,16,-15
1945,14,-249,2,57,16,-15
1950,17,-247,0,58,16,-13
1955,17,-252,1,58,14,-15
1960,15,-251,1,59,12,-13
1965,12,-247,2,61,11,-13
1970,12,-249,3,62,9,-13
1975,16,-251,1,63,9,-13
1980,14,-248,3,63,8,-14
1985,15,-249,4,61,10,-13
1990,13,-248,3,57,12,-13
1995,14,-245,3,54,13,-14
2000,13,-245,1,52,15,-14
2005,17,-247,2,47,17,-15
2010,14,-247,2,44,19,-14
2015,14,-249,4,41,18,-14
2020,10,-248,1,38,17,-13
2025,14,-247,0,38,15,-13
2030,14,-249,5,37,12,-9
2035,15,-250,0,38,10,-11
2040,15,-250,1,39,8,-12
2045,16,-245,4,42,6,-11
2050,14,-252,1,46,5,-12
2055,14,-249,2,48,5,-11
2060,15,-249,-2,51,7,-10
2065,14,-252,4,56,10,-12
2070,15,-246,6,58,12,-12
2075,12,-248,3,61,13,-13
2080,12,-247,1,63,14,-15
2085,16,-247,0,63,15,-15
2090,16,-248,2,65,16,-16
2095,13,-249,2,64,17,-17
2100,15,-249,2,62,16,-15
2105,14,-247,3,59,15,-14
2110,13,-246,2,56,13,-13
2115,14,-247,1,52,14,-13
2120,16,-249,2,51,13,-12
2125,14,-247,2,48,12,-11
2130,15,-247,2,47,11,-10
2135,13,-250,1,46,10,-11
2140,14,-250,2,46,9,-10
2145,14,-250,1,47,10,-10
2150,15,-248,0,49,9,-9
2155,24,-249,-3,51,10,-9
2160,12,-251,5,49,9,-10
2165,12,-248,5,50,10,-10
2170,14,-249,0,51,10,-10
2175,15,-248,4,50,11,-10
2180,14,-251,1,50,12,-11
2185,14,-249,1,51,11,-12
2190,11,-248,3,51,12,-11
2195,16,-251,4,52,13,-12
2200,12,-249,1,51,13,-10
2205,14,-249,3,51,12,-11
2210,14,-249,2,53,11,-12
2215,17,-250,1,52,10,-11
2220,14,-248,7,51,11,-10
2225,16,-246,2,51,9,-12
2230,12,-249,1,52,10,-11
2235,13,-248,1,52,10,-12
2240,15,-248,4,51,10,-8
2245,13,-248,2,50,8,-10
2250,16,-247,1,49,8,-10
2255,13,-248,3,49,7,-10
2260,13,-249,1,49,8,-9
2265,18,-250,4,51,7,-10
2270,14,-247,3,52,7,-10
2275,12,-248,1,53,7,-10
2280,17,-247,4,52,7,-10
2285,14,-249,2,50,8,-10
2290,11,-246,3,48,8,-9
2295,14,-246,2,44,7,-10
2300,17,-251,2,41,8,-10
2305,12,-248,0,38,6,-11
2310,14,-246,2,36,6,-10
2315,13,-249,1,37,6,-11
2320,15,-249,0,38,4,-9
2325,11,-246,4,38,4,-9
2330,13,-249,1,38,2,-8
2335,14,-246,1,40,1,-7
2340,12,-249,2,41,1,-7
2345,15,-249,1,43,0,-9
2350,12,-247,3,43,-1,-6
2355,17,-251,1,45,-1,-8
2360,12,-248,5,46,0,-9
2365,15,-249,4,47,1,-9
2370,17,-248,1,49,2,-10
2375,13,-249,1,51,4,-10
2380,14,-250,2,52,5,-11
2385,15,-249,2,52,6,-11
2390,12,-246,2,53,5,-12
2395,12,-247,2,52,6,-13
2400,12,-246,5,50,7,-12
2405,12,-247,4,49,9,-12
2410,15,-247,1,48,9,-13
2415,14,-250,1,47,11,-12
2420,6,-248,4,46,11,-12
2425,15,-248,3,47,12,-11
2430,13,-249,0,48,12,-11
2435,16,-250,1,49,14,-11
2440,15,-250,2,50,13,-12
2445,12,-246,4,53,12,-12
2450,15,-249,-2,54,12,-12
2455,15,-246,2,55,12,-12
2460,13,-248,1,54,11,-13
2465,13,-246,1,55,9,-11
2470,16,-255,2,56,10,-11
2475,13,-247,1,56,10,-12
2480,13,-249,0,55,12,-12
2485,15,-249,0,55,11,-11
2490,14,-249,1,55,12,-11
2495,11,-247,2,55,12,-10
2500,15,-248,0,55,12,-9
2505,13,-248,2,55,14,-11
2510,14,-248,1,55,13,-11
2515,14,-252,-1,55,13,-10
2520,15,-250,3,57,11,-11
2525,14,-249,5,55,11,-10
2530,13,-246,1,54,10,-10
2535,14,-249,5,55,10,-9
2540,14,-247,0,53,10,-9
2545,12,-247,3,55,10,-9
2550,14,-251,0,57,9,-9
2555,13,-247,3,57,9,-10
2560,15,-249,1,57,8,-11
2565,13,-248,0,58,8,-12
2570,16,-249,3,58,8,-11
2575,13,-248,2,55,8,-11
2580,14,-247,5,54,9,-11
2585,14,-251,0,53,10,-11
2590,12,-246,1,52,9,-12
2595,14,-248,-1,51,10,-12
2600,15,-250,3,51,11,-12
2605,14,-248,2,50,11,-11
2610,14,-248,0,51,11,-10
2615,16,-250,-1,50,10,-12
2620,14,-249,0,49,10,-11
2625,11,-246,2,50,12,-11
2630,14,-248,0,50,13,-11
2635,15,-250,0,51,12,-11
2640,14,-249,3,51,12,-11
2645,13,-249,2,50,13,-10
2650,13,-248,1,51,14,-11
2655,14,-246,2,51,13,-12
2660,15,-249,2,50,14,-12
2665,15,-248,2,49,12,-13
2670,14,-249,3,48,12,-11
2675,13,-250,2,47,10,-9
2680,16,-247,3,47,10,-11
2685,13,-249,2,47,10,-9
2690,13,-250,2,48,10,-8
2695,14,-248,1,48,11,-9
2700,16,-249,1,51,12,-9
2705,14,-249,2,50,13,-9
2710,15,-250,1,51,14,-9
2715,17,-252,2,52,13,-8
2720,12,-246,1,50,13,-9
2725,13,-246,2,51,13,-8
2730,11,-246,0,49,13,-6
2735,16,-250,0,45,13,-7
2740,25,-249,-2,43,14,-5
2745,14,-253,1,42,15,-4
2750,14,-251,2,40,17,-3
2755,15,-251,1,39,19,-3
2760,16,-254,2,38,19,-2
2765,16,-252,-1,37,21,0
2770,14,-250,2,37,22,2
2775,15,-252,0,41,22,4
2780,14,-250,0,44,23,6
2785,13,-251,3,48,23,7
2790,25,-248,-4,47,22,10
2795,13,-249,0,48,21,15
2800,15,-246,0,45,18,16
2805,16,-246,-4,40,16,19
2810,15,-251,4,35,14,22
2815,14,-249,0,30,12,24
2820,12,-251,0,25,12,27
2825,14,-250,1,22,9,29
2830,11,-251,1,21,8,29
2835,12,-252,0,20,7,31
2840,15,-253,0,21,6,35
2845,14,-247,1,21,7,35
2850,13,-250,-2,22,9,37
2855,13,-248,1,22,11,37
2860,14,-249,-2,22,14,37
2865,14,-249,-4,23,17,37
2870,12,-248,-2,21,18,38
2875,13,-245,0,19,20,37
2880,15,-247,-1,16,20,39
2885,14,-248,-5,11,21,40
2890,13,-244,0,5,22,38
2895,14,-247,-2,1,24,40
2900,15,-246,-1,-5,28,40
2905,14,-248,-1,-9,30,41
2910,9,-247,-1,-11,34,40
2915,12,-245,-3,-12,38,40
2920,11,-242,3,-12,41,40
2925,11,-246,0,-12,43,40
2930,10,-247,1,-12,46,41
2935,11,-245,0,-11,46,40
2940,13,-245,-1,-15,47,39
2945,13,-244,1,-15,47,41
2950,11,-247,-1,-19,48,39
2955,5,-245,0,-23,50,41
2960,11,-246,-1,-27,50,39
2965,8,-247,-5,-31,51,39
2970,8,-247,-3,-33,50,38
2975,11,-246,-4,-38,50,39
2980,10,-246,-4,-42,49,38
2985,8,-245,-5,-48,49,38
2990,11,-246,-4,-54,51,40
2995,9,-247,-5,-59,52,39
3000,9,-245,-7,-63,52,40
3005,10,-246,-6,-70,53,41
3010,11,-249,-6,-78,53,43
3015,10,-244,-5,-86,54,45
3020,10,-243,-6,-97,56,45
3025,12,-244,-9,-108,57,46
3030,11,-248,-12,-119,57,46
3035,12,-244,-15,-132,57,47
3040,11,-242,-15,-143,57,48
3045,11,-243,-14,-155,58,50
3050,10,-247,-14,-165,57,52
3055,13,-243,-14,-175,57,55
3060,8,-239,-11,-184,56,57
3065,10,-245,-17,-198,55,59
3070,9,-248,-15,-210,55,62
3075,11,-246,-18,-222,53,64
3080,9,-245,-20,-235,53,69
3085,9,-248,-19,-244,53,72
3090,9,-244,-17,-253,53,73
3095,7,-246,-20,-257,53,76
3100,9,-247,-22,-260,52,80
3105,8,-248,-20,-259,51,83
3110,15,-248,-21,-258,49,84
3115,6,-247,-23,-253,49,88
3120,9,-243,-24,-247,48,87
3125,7,-242,-27,-237,47,89
3130,5,-241,-25,-228,45,89
3135,6,-241,-22,-223,43,91
3140,6,-239,-24,-221,39,95
3145,9,-236,-29,-224,35,99
3150,7,-236,-28,-230,31,103
3155,6,-237,-27,-242,26,106
3160,3,-234,-28,-254,23,107
3165,4,-229,-28,-266,18,108
3170,1,-232,-32,-278,17,107
3175,2,-225,-31,-291,15,109
3180,0,-225,-31,-304,11,107
3185,4,-223,-35,-317,9,104
3190,3,-223,-34,-330,6,100
3195,1,-218,-35,-343,6,95
3200,4,-219,-35,-356,6,87
3205,2,-216,-33,-367,7,83
3210,4,-213,-36,-381,10,77
3215,1,-215,-33,-396,16,68
3220,3,-217,-32,-408,22,58
3225,4,-215,-32,-418,30,46
3230,7,-217,-27,-426,40,35
3235,8,-215,-25,-431,52,24
3240,13,-217,-31,-434,68,13
3245,10,-213,-31,-437,84,1
3250,13,-217,-29,-443,101,-11
3255,19,-219,-33,-451,117,-20
3260,18,-216,-31,-463,132,-29
3265,20,-223,-32,-475,146,-38
3270,20,-217,-39,-488,156,-41
3275,23,-222,-40,-502,167,-45
3280,22,-221,-46,-516,175,-48
3285,24,-220,-43,-527,186,-50
3290,24,-217,-45,-536,194,-53
3295,24,-213,-48,-548,206,-55
3300,28,-211,-53,-561,220,-51
3305,24,-211,-47,-575,236,-45
3310,24,-210,-50,-596,254,-39
3315,23,-204,-48,-616,275,-33
3320,23,-202,-49,-636,296,-29
3325,25,-204,-46,-656,317,-24
3330,20,-200,-47,-676,335,-16
3335,18,-200,-46,-698,349,-10
3340,17,-203,-47,-719,353,-3
3345,15,-199,-44,-736,354,5
3350,14,-203,-44,-749,346,10
3355,11,-203,-43,-755,336,16
3360,8,-204,-44,-756,323,20
3365,8,-205,-44,-749,310,21
3370,4,-207,-44,-738,292,23
3375,2,-207,-47,-719,272,21
3380,2,-207,-49,-699,251,18
3385,2,-208,-48,-677,230,16
3390,3,-211,-54,-658,213,10
3395,4,-211,-58,-643,197,7
3400,0,-213,-57,-633,185,3
3405,5,-214,-62,-627,176,-2
3410,2,-212,-63,-623,170,-6
3415,2,-212,-63,-620,166,-11
3420,2,-216,-63,-617,161,-13
3425,3,-217,-62,-612,155,-13
3430,0,-217,-64,-607,149,-12
3435,1,-216,-61,-599,144,-11
3440,1,-213,-63,-589,141,-7
3445,1,-209,-63,-582,140,-2
3450,0,-209,-61,-579,139,2
3455,3,-209,-63,-582,139,7
3460,1,-205,-62,-589,139,9
3465,2,-202,-60,-599,138,12
3470,3,-201,-58,-613,138,12
3475,4,-205,-60,-632,136,10
3480,3,-204,-60,-650,131,7
3485,7,-202,-63,-663,126,5
3490,3,-200,-60,-674,119,1
3495,9,-204,-64,-683,112,-7
3500,9,-204,-64,-686,107,-16
3505,6,-204,-65,-690,103,-24
3510,8,-204,-64,-690,102,-36
3515,10,-203,-65,-687,103,-49
3520,12,-205,-68,-679,109,-62
3525,11,-206,-64,-664,117,-74
3530,8,-202,-66,-647,127,-85
3535,9,-202,-65,-630,137,-93
3540,11,-204,-65,-615,145,-103
3545,12,-201,-68,-597,154,-111
3550,10,-201,-70,-581,162,-117
3555,8,-202,-71,-569,166,-122
3560,11,-202,-73,-563,170,-123
3565,7,-202,-74,-560,173,-125
3570,11,-203,-75,-559,174,-123
3575,12,-204,-80,-560,175,-121
3580,12,-205,-79,-559,175,-120
3585,7,-204,-79,-558,172,-117
3590,10,-206,-78,-559,167,-111
3595,8,-206,-80,-556,156,-105
3600,9,-209,-83,-553,144,-100
3605,8,-210,-84,-551,130,-95
3610,12,-212,-87,-549,117,-89
3615,9,-214,-87,-548,105,-84
3620,14,-214,-89,-551,96,-78
3625,8,-215,-92,-557,84,-74
3630,8,-217,-87,-564,76,-71
3635,11,-222,-93,-570,69,-64
3640,8,-221,-94,-576,66,-59
3645,9,-223,-95,-580,65,-59
3650,8,-223,-94,-581,64,-56
3655,5,-220,-96,-577,64,-55
3660,8,-227,-92,-571,64,-54
3665,7,-227,-95,-564,63,-54
3670,5,-228,-96,-557,65,-53
3675,10,-227,-97,-545,68,-53
3680,12,-231,-102,-535,72,-55
3685,8,-231,-103,-531,79,-55
3690,10,-226,-100,-524,87,-52
3695,15,-231,-102,-515,90,-53
3700,17,-233,-103,-515,95,-55
3705,15,-228,-102,-511,103,-55
3710,17,-225,-108,-505,106,-54
3715,19,-225,-103,-494,110,-51
3720,24,-226,-106,-481,118,-48
3725,20,-222,-103,-474,125,-45
3730,19,-218,-106,-469,132,-40
3735,23,-219,-104,-460,140,-36
3740,22,-219,-105,-449,146,-29
3745,21,-218,-101,-439,148,-21
3750,23,-217,-102,-432,146,-19
3755,23,-212,-102,-428,144,-13
3760,21,-215,-108,-420,139,-10
3765,19,-214,-105,-415,133,-7
3770,14,-215,-101,-410,126,-5
3775,14,-214,-106,-407,113,-8
3780,8,-215,-110,-401,92,-14
3785,2,-216,-110,-393,67,-19
3790,1,-221,-114,-389,42,-20
3795,0,-222,-119,-389,19,-26
3800,-6,-224,-118,-388,-1,-34
3805,-9,-230,-123,-379,-23,-44
3810,-12,-234,-126,-370,-45,-49
3815,-18,-238,-129,-358,-58,-53
3820,-18,-239,-130,-346,-63,-56
3825,-18,-238,-133,-337,-62,-58
3830,-21,-240,-134,-328,-58,-59
3835,-14,-241,-129,-318,-55,-54
3840,-10,-242,-132,-306,-52,-50
3845,-4,-238,-127,-292,-50,-45
3850,0,-239,-130,-276,-50,-42
3855,2,-235,-128,-265,-50,-38
3860,8,-235,-129,-256,-52,-31
3865,14,-235,-126,-251,-50,-22
3870,18,-232,-124,-243,-52,-15
3875,25,-235,-127,-230,-55,-8
3880,33,-229,-118,-222,-60,0
3885,31,-231,-122,-216,-68,4
3890,35,-233,-120,-209,-83,8
3895,37,-231,-121,-200,-97,11
3900,35,-229,-123,-194,-106,12
3905,32,-226,-124,-193,-114,14
3910,32,-225,-123,-196,-121,10
3915,29,-220,-128,-203,-131,5
3920,23,-217,-125,-215,-142,0
3925,18,-216,-127,-233,-152,1
3930,14,-212,-132,-257,-158,-2
3935,9,-207,-130,-287,-161,-2
3940,7,-206,-134,-320,-164,-5
3945,1,-205,-133,-349,-165,-5
3950,0,-202,-136,-378,-162,-6
3955,0,-204,-136,-399,-155,-7
3960,1,-208,-138,-410,-139,-7
3965,0,-206,-138,-413,-122,-10
3970,-1,-213,-137,-410,-106,-14
3975,0,-214,-142,-404,-91,-20
3980,3,-218,-144,-394,-78,-31
3985,9,-220,-144,-379,-64,-42
3990,12,-227,-146,-356,-45,-55
3995,9,-225,-145,-324,-26,-65
4000,12,-229,-147,-292,-12,-76
4005,13,-232,-146,-261,-3,-91
4010,17,-232,-144,-236,3,-105
4015,18,-233,-147,-217,6,-119
4020,10,-232,-144,-206,6,-132
4025,19,-233,-145,-202,-3,-135
4030,16,-228,-145,-199,-14,-136
4035,19,-226,-147,-205,-23,-132
4040,20,-220,-141,-217,-37,-126
4045,16,-219,-144,-236,-51,-121
4050,19,-214,-146,-260,-65,-112
4055,15,-211,-143,-284,-77,-102
4060,17,-213,-140,-309,-83,-94
4065,15,-207,-142,-328,-86,-87
4070,16,-208,-143,-339,-83,-83
4075,16,-214,-150,-342,-76,-83
4080,15,-211,-146,-343,-68,-86
4085,20,-218,-150,-341,-50,-84
4090,18,-214,-148,-333,-35,-91
4095,16,-211,-154,-323,-21,-101
4100,14,-214,-152,-317,-7,-109
4105,20,-211,-154,-315,8,-112
4110,18,-213,-152,-322,24,-114
4115,18,-212,-154,-338,38,-120
4120,19,-208,-152,-362,50,-121
4125,23,-210,-144,-393,61,-121
4130,22,-207,-155,-422,71,-122
4135,20,-205,-153,-451,71,-119
4140,23,-202,-157,-478,61,-115
4145,24,-202,-157,-505,55,-105
4150,24,-201,-161,-523,49,-97
4155,20,-197,-162,-536,45,-90
4160,18,-198,-162,-546,39,-82
4165,21,-201,-161,-548,29,-84
4170,17,-198,-160,-545,17,-88
4175,17,-202,-162,-544,3,-95
4180,14,-206,-166,-543,-9,-104
4185,11,-202,-165,-546,-16,-114
4190,9,-201,-165,-546,-14,-115
4195,11,-203,-170,-540,-15,-115
4200,12,-208,-174,-531,-14,-114
4205,13,-204,-174,-522,-10,-115
4210,11,-203,-178,-515,-1,-115
4215,11,-200,-178,-509,7,-108
4220,16,-201,-183,-509,10,-109
4225,11,-197,-181,-517,12,-113
4230,17,-200,-187,-524,13,-117
4235,19,-201,-188,-530,17,-119
4240,16,-200,-185,-537,25,-112
4245,20,-204,-190,-535,16,-105
4250,19,-200,-186,-531,6,-106
4255,20,-206,-190,-523,2,-104
4260,16,-199,-186,-515,-7,-106
4265,18,-198,-193,-507,-20,-109
4270,20,-201,-194,-500,-28,-111
4275,23,-195,-196,-494,-28,-120
4280,22,-197,-193,-487,-26,-129
4285,25,-199,-192,-476,-23,-131
4290,20,-200,-189,-466,-12,-126
4295,24,-200,-194,-455,-2,-124
4300,21,-199,-193,-444,7,-122
4305,22,-201,-195,-427,12,-120
4310,26,-203,-196,-409,15,-114
4315,25,-197,-196,-394,19,-112
4320,23,-201,-198,-375,23,-108
4325,26,-201,-197,-355,26,-110
4330,21,-202,-197,-335,28,-110
4335,19,-199,-194,-312,31,-110
4340,23,-201,-201,-288,29,-108
4345,17,-199,-199,-264,37,-109
4350,16,-200,-200,-243,47,-111
4355,15,-200,-203,-217,49,-113
4360,18,-201,-205,-194,50,-111
4365,20,-197,-207,-169,46,-109
4370,25,-196,-204,-147,41,-106
4375,22,-197,-204,-132,36,-105
4380,25,-196,-205,-127,28,-95
4385,26,-195,-209,-129,23,-88
4390,29,-194,-205,-130,21,-82
4395,24,-188,-198,-133,21,-74
4400,27,-190,-201,-139,18,-65
4405,31,-189,-196,-143,17,-56
4410,28,-190,-199,-143,23,-53
4415,25,-191,-197,-132,29,-54
4420,27,-191,-184,-115,36,-53
4425,28,-190,-202,-93,40,-51
4430,26,-185,-200,-74,44,-46
4435,28,-184,-200,-63,51,-43
4440,26,-182,-197,-59,52,-40
4445,27,-180,-200,-62,52,-37
4450,24,-177,-197,-63,50,-34
4455,24,-175,-195,-68,46,-34
4460,21,-170,-195,-75,45,-31
4465,22,-164,-193,-85,41,-29
4470,20,-167,-188,-98,38,-29
4475,24,-165,-191,-109,32,-31
4480,20,-175,-182,-117,25,-30
4485,19,-168,-182,-114,20,-29
4490,22,-168,-180,-123,20,-38
4495,23,-169,-180,-129,22,-44
4500,24,-166,-182,-127,24,-51
4505,21,-167,-184,-119,25,-55
4510,28,-165,-184,-111,28,-56
4515,24,-165,-186,-104,31,-57
4520,27,-165,-189,-98,31,-59
4525,27,-164,-185,-99,39,-62
4530,26,-167,-190,-99,48,-61
4535,29,-164,-191,-102,56,-62
4540,29,-168,-194,-100,54,-62
4545,32,-167,-193,-95,53,-61
4550,32,-168,-189,-87,48,-59
4555,28,-171,-196,-82,39,-57
4560,22,-170,-195,-76,32,-58
4565,20,-176,-197,-69,19,-54
4570,16,-177,-201,-57,5,-53
4575,14,-170,-205,-38,-17,-55
4580,16,-166,-202,-32,-34,-56
4585,17,-166,-197,-36,-45,-55
4590,18,-164,-192,-41,-58,-55
4595,23,-162,-195,-38,-70,-58
4600,24,-164,-191,-32,-79,-60
4605,27,-161,-188,-24,-86,-62
4610,30,-161,-186,-15,-92,-62
4615,32,-158,-187,-18,-86,-58
4620,31,-161,-183,-25,-76,-49
4625,33,-163,-183,-34,-70,-44
4630,31,-161,-183,-40,-65,-38
4635,34,-161,-185,-43,-56,-35
4640,33,-161,-184,-43,-48,-35
4645,30,-163,-187,-47,-40,-36
4650,29,-165,-190,-46,-33,-38
4655,29,-163,-184,-39,-30,-38
4660,26,-163,-189,-33,-28,-35
4665,28,-161,-184,-23,-29,-34
4670,26,-160,-183,-16,-29,-35
4675,24,-159,-187,-13,-31,-33
4680,23,-158,-183,-11,-35,-31
4685,20,-159,-185,-12,-39,-30
4690,22,-159,-182,-16,-46,-32
4695,27,-158,-183,-21,-49,-32
4700,28,-160,-186,-29,-48,-33
4705,27,-161,-186,-28,-45,-34
4710,32,-160,-190,-22,-44,-31
4715,32,-159,-189,-13,-44,-29
4720,30,-158,-191,-5,-43,-27
4725,32,-159,-191,4,-42,-28
4730,31,-157,-195,12,-41,-30
4735,29,-155,-195,18,-41,-32
4740,28,-155,-195,21,-44,-36
4745,23,-158,-189,20,-45,-34
4750,29,-154,-192,17,-47,-33
4755,25,-156,-188,13,-43,-31
4760,27,-156,-188,9,-38,-29
4765,25,-153,-184,9,-32,-25
4770,22,-150,-189,7,-25,-20
4775,21,-149,-189,8,-19,-17
4780,18,-147,-188,6,-14,-15
4785,23,-149,-186,-1,-9,-13
4790,21,-151,-189,-8,-5,-11
4795,24,-149,-186,-19,-2,-10
4800,20,-150,-190,-32,0,-11
4805,23,-151,-189,-45,2,-10
4810,27,-151,-190,-52,4,-12
4815,27,-154,-192,-55,5,-10
4820,26,-150,-193,-57,8,-8
4825,27,-151,-191,-58,9,-7
4830,24,-151,-194,-57,8,-6
4835,27,-153,-195,-54,4,-8
4840,28,-154,-196,-47,5,-13
4845,22,-152,-195,-40,1,-13
4850,26,-153,-196,-32,-4,-10
4855,19,-154,-195,-27,-9,-8
4860,22,-152,-193,-22,-11,-9
4865,19,-151,-192,-22,-13,-6
4870,21,-150,-194,-25,-15,-7
4875,17,-153,-194,-26,-16,-8
4880,19,-150,-194,-26,-19,-7
4885,18,-148,-190,-27,-24,-7
4890,15,-148,-190,-29,-27,-11
4895,19,-151,-191,-35,-29,-15
4900,17,-153,-190,-43,-29,-19
4905,18,-152,-192,-46,-33,-23
4910,23,-153,-188,-48,-33,-26
4915,22,-155,-191,-44,-33,-27
4920,21,-157,-198,-33,-31,-27
4925,24,-158,-199,-26,-33,-27
4930,25,-159,-200,-17,-33,-25
4935,27,-157,-197,-7,-35,-23
4940,25,-159,-201,1,-38,-22
4945,29,-156,-200,7,-42,-23
4950,26,-156,-200,10,-42,-25
4955,29,-158,-205,14,-41,-24
4960,31,-159,-196,18,-35,-24
4965,27,-158,-194,23,-32,-25
4970,27,-155,-199,31,-28,-23
4975,25,-157,-195,39,-23,-23
4980,21,-158,-193,47,-18,-20
4985,23,-154,-192,55,-11,-17
4990,21,-149,-193,60,-8,-15
4995,18,-151,-192,61,-3,-14
5000,18,-150,-195,61,-1,-14
5005,19,-151,-192,58,2,-15
5010,17,-149,-190,53,5,-15
5015,19,-144,-188,46,8,-18
5020,22,-150,-193,44,6,-20
5025,21,-148,-192,39,8,-23
5030,18,-146,-194,33,11,-22
5035,21,-148,-195,28,12,-22
5040,20,-150,-200,25,11,-24
5045,23,-149,-194,24,12,-25
5050,22,-155,-195,25,12,-26
5055,23,-151,-192,25,13,-30
5060,21,-156,-192,32,15,-31
5065,22,-155,-195,41,16,-32
5070,23,-156,-197,57,17,-30
5075,19,-153,-194,72,17,-27
5080,21,-156,-190,85,16,-26
5085,20,-154,-192,97,16,-21
5090,14,-152,-191,105,16,-18
5095,15,-151,-195,111,16,-16
5100,15,-151,-194,115,12,-19
5105,16,-153,-193,121,11,-18
5110,15,-155,-195,127,7,-21
5115,15,-154,-192,133,4,-20
5120,15,-154,-193,136,1,-21
5125,19,-153,-196,143,-1,-21
5130,22,-153,-198,144,-5,-22
5135,20,-154,-194,149,-10,-22
5140,22,-154,-196,151,-14,-24
5145,19,-153,-192,155,-17,-26
5150,22,-157,-198,160,-21,-30
5155,21,-154,-195,165,-26,-32
5160,21,-146,-194,169,-31,-33
5165,20,-152,-193,172,-38,-33
5170,18,-152,-193,174,-40,-33
5175,18,-153,-193,180,-41,-33
5180,18,-155,-191,188,-41,-30
5185,20,-156,-193,198,-40,-28
5190,22,-155,-188,207,-39,-22
5195,20,-150,-193,214,-35,-23
5200,21,-151,-190,217,-31,-20
5205,17,-150,-189,218,-28,-19
5210,20,-152,-190,217,-23,-19
5215,21,-153,-191,218,-18,-19
5220,17,-152,-191,215,-14,-19
5225,20,-154,-189,217,-11,-19
5230,22,-155,-194,219,-10,-18
5235,19,-155,-191,221,-11,-17
5240,23,-153,-195,223,-11,-15
5245,21,-153,-192,224,-14,-17
5250,21,-155,-196,224,-12,-15
5255,20,-155,-191,222,-11,-14
5260,23,-154,-194,221,-9,-13
5265,21,-153,-194,220,-5,-12
5270,25,-155,-192,218,-2,-10
5275,22,-154,-193,216,1,-9
5280,22,-154,-189,214,6,-7
5285,24,-157,-190,214,10,-6
5290,16,-148,-191,213,13,-4
5295,26,-153,-193,212,16,-5
5300,24,-153,-188,209,16,-4
5305,21,-152,-192,203,17,-3
5310,22,-157,-192,194,17,-3
5315,22,-155,-192,186,18,-4
5320,20,-154,-191,181,19,-5
5325,16,-159,-195,180,20,-4
5330,18,-161,-192,183,20,-3
5335,16,-162,-193,189,21,-2
5340,12,-157,-186,195,19,-2
5345,18,-161,-193,201,18,-2
5350,18,-163,-191,199,17,-5
5355,17,-164,-191,190,18,-4
5360,17,-161,-190,179,17,-5
5365,18,-161,-191,170,20,-5
5370,18,-160,-189,162,23,-5
5375,22,-161,-190,160,26,-3
5380,22,-163,-189,160,27,-2
5385,22,-164,-190,161,29,-1
5390,22,-162,-189,161,30,1
5395,23,-160,-190,159,34,2
5400,22,-161,-191,155,37,3
5405,21,-162,-184,155,39,0
5410,23,-161,-184,153,40,-1
5415,19,-158,-185,152,41,0
5420,21,-159,-192,145,40,2
5425,19,-159,-191,137,43,1
5430,20,-160,-190,133,46,2
5435,20,-163,-191,136,47,5
5440,23,-163,-190,144,45,7
5445,19,-164,-190,154,41,9
5450,22,-167,-189,163,40,10
5455,22,-166,-188,166,40,7
5460,21,-168,-187,161,46,6
5465,20,-167,-186,154,53,7
5470,24,-166,-185,149,64,7
5475,24,-163,-180,146,76,6
5480,24,-164,-180,145,88,10
5485,22,-163,-181,147,97,11
5490,25,-163,-182,150,104,13
5495,21,-164,-181,154,111,14
5500,26,-164,-187,154,117,18
5505,24,-164,-182,150,121,18
5510,22,-166,-186,144,122,19
5515,23,-162,-188,136,124,23
5520,20,-168,-182,128,128,27
5525,23,-165,-185,123,128,27
5530,22,-166,-180,125,123,27
5535,20,-164,-179,129,115,25
5540,22,-167,-187,136,107,24
5545,22,-165,-180,140,100,23
5550,20,-168,-186,140,94,24
5555,22,-163,-180,137,89,22
5560,23,-165,-187,135,85,20
5565,22,-165,-180,131,84,19
5570,25,-166,-182,126,84,18
5575,26,-165,-185,119,85,18
5580,23,-169,-186,111,85,19
5585,25,-167,-183,106,84,17
5590,26,-167,-181,101,84,15
5595,26,-170,-181,96,84,14
5600,26,-167,-182,92,83,11
5605,25,-170,-178,87,82,10
5610,25,-166,-179,90,85,8
5615,23,-169,-182,89,83,9
5620,18,-173,-177,90,78,7
5625,24,-168,-179,89,73,4
5630,27,-168,-179,87,73,2
5635,26,-170,-179,83,73,-1
5640,22,-166,-178,78,71,-2
5645,24,-169,-182,75,67,-5
5650,24,-171,-179,76,65,-6
5655,23,-171,-183,77,61,-3
5660,23,-170,-177,79,58,0
5665,26,-171,-181,82,54,2
5670,25,-170,-179,89,51,6
5675,25,-171,-176,94,47,7
5680,25,-169,-182,94,43,6
5685,24,-166,-179,91,39,2
5690,27,-168,-181,86,34,-2
5695,23,-169,-177,80,36,-5
5700,26,-170,-180,75,35,-9
5705,21,-168,-184,78,35,-14
5710,30,-172,-180,83,33,-17
5715,25,-169,-183,88,33,-20
5720,23,-170,-182,91,30,-18
5725,26,-171,-186,96,29,-17
5730,25,-174,-185,99,28,-16
5735,24,-175,-177,106,26,-15
5740,21,-171,-181,111,25,-14
5745,24,-172,-182,116,25,-15
5750,25,-174,-181,121,23,-15
5755,27,-176,-182,126,21,-17
5760,24,-172,-183,129,18,-19
5765,25,-173,-183,129,10,-22
5770,26,-172,-177,128,5,-24
5775,24,-172,-178,122,2,-24
5780,26,-173,-179,115,0,-24
5785,27,-170,-173,113,-1,-24
5790,24,-172,-179,114,0,-25
5795,28,-176,-181,117,-1,-27
5800,24,-173,-183,120,-2,-29
5805,25,-173,-177,122,-6,-32
5810,24,-168,-182,122,-7,-36
5815,22,-169,-177,123,-7,-35
5820,23,-172,-178,128,-10,-34
5825,24,-173,-180,129,-11,-33
5830,22,-174,-180,129,-11,-31
5835,20,-177,-176,124,-10,-30
5840,26,-175,-173,117,-11,-26
5845,24,-172,-174,116,-14,-25
5850,25,-171,-174,114,-15,-25
5855,23,-170,-176,113,-17,-26
5860,28,-172,-177,113,-16,-25
5865,28,-172,-173,113,-18,-25
5870,28,-172,-176,111,-17,-27
5875,25,-173,-176,111,-16,-25
5880,26,-173,-176,111,-15,-26
5885,25,-174,-173,111,-15,-24
5890,24,-169,-179,113,-13,-24
5895,25,-174,-177,114,-12,-24
5900,23,-173,-178,115,-12,-22
5905,24,-176,-173,117,-12,-21
5910,24,-170,-175,120,-14,-18
5915,26,-175,-178,124,-15,-17
5920,24,-172,-174,129,-14,-14
5925,27,-178,-174,131,-15,-13
5930,25,-176,-175,133,-16,-12
5935,20,-172,-177,135,-16,-13
5940,25,-172,-177,135,-14,-15
5945,27,-172,-172,135,-13,-15
5950,24,-171,-176,133,-13,-17
5955,25,-170,-175,132,-13,-16
5960,25,-173,-173,129,-14,-17
5965,24,-169,-173,125,-16,-15
5970,27,-170,-174,120,-18,-16
5975,23,-173,-174,116,-15,-18
5980,26,-173,-178,112,-13,-15
5985,24,-169,-176,112,-11,-13
5990,27,-174,-176,111,-10,-11
5995,26,-173,-178,111,-7,-13
6000,26,-172,-174,108,-5,-11
6005,28,-173,-174,107,-3,-10
6010,25,-172,-172,103,-1,-9
6015,25,-169,-177,100,2,-8
6020,25,-170,-174,98,4,-9
6025,26,-171,-175,95,7,-9
6030,23,-168,-171,91,6,-8
6035,25,-170,-176,88,8,-5
6040,24,-171,-169,81,9,-3
6045,25,-172,-168,78,9,-5
6050,25,-173,-172,78,10,-6
6055,27,-173,-175,84,9,-5
6060,26,-170,-176,95,7,-3
6065,25,-172,-175,102,5,-3
6070,23,-170,-173,102,4,-2
6075,24,-170,-176,93,5,-6
6080,25,-169,-175,82,7,-5
6085,26,-167,-170,70,5,-6
6090,27,-168,-170,61,5,-6
6095,22,-170,-173,56,4,-7
6100,25,-168,-173,53,5,-6
6105,24,-169,-169,52,6,-8
6110,26,-173,-173,54,6,-7
6115,25,-173,-173,56,7,-10
6120,24,-172,-175,59,12,-10
6125,27,-171,-176,59,14,-9
6130,25,-171,-176,60,16,-11
6135,24,-170,-172,59,18,-7
6140,27,-170,-178,58,18,-6
6145,25,-172,-171,57,17,-4
6150,24,-173,-176,56,17,-1
6155,22,-172,-173,54,16,0
6160,24,-172,-174,53,16,2
6165,24,-173,-174,54,15,2
6170,27,-174,-174,56,14,4
6175,24,-172,-173,57,14,3
6180,25,-172,-175,59,13,0
6185,25,-175,-170,60,12,-2
6190,26,-175,-174,60,12,-2
6195,24,-175,-175,61,14,-2
6200,26,-178,-169,62,14,-2
6205,26,-173,-177,72,11,-4
6210,24,-172,-174,71,17,1
6215,25,-175,-178,61,19,3
6220,26,-174,-175,55,21,4
6225,24,-174,-175,53,19,4
6230,25,-173,-177,56,18,-1
6235,26,-175,-175,57,16,-1
6240,23,-174,-174,61,14,-2
6245,24,-173,-180,63,11,-4
6250,26,-173,-182,62,11,-5
6255,26,-175,-180,61,10,-6
6260,22,-174,-179,62,8,-7
6265,25,-177,-177,64,6,-8
6270,24,-174,-179,64,5,-10
6275,27,-172,-180,64,3,-12
6280,25,-168,-179,61,2,-12
6285,26,-174,-176,59,1,-12
6290,22,-172,-182,57,2,-14
6295,26,-173,-181,57,0,-14
6300,25,-171,-181,56,-2,-16
6305,25,-172,-178,55,-4,-17
6310,23,-174,-180,56,-7,-18
6315,24,-174,-180,56,-8,-18
6320,21,-174,-177,59,-8,-20
6325,22,-173,-174,60,-9,-20
6330,26,-172,-179,61,-10,-19
6335,26,-174,-178,61,-11,-19
6340,24,-173,-178,61,-11,-20
6345,21,-174,-177,61,-10,-20
6350,19,-174,-174,65,-13,-20
6355,24,-176,-176,68,-16,-22
6360,22,-172,-176,69,-14,-23
6365,23,-175,-180,67,-11,-22
6370,22,-172,-174,64,-9,-22
6375,23,-176,-178,64,-8,-19
6380,22,-170,-186,67,-8,-19
6385,23,-170,-177,67,-7,-19
6390,24,-171,-174,70,-6,-18
6395,24,-175,-170,74,-3,-20
6400,23,-174,-172,82,-1,-20
6405,20,-178,-170,98,2,-21
6410,19,-176,-167,123,5,-25
6415,21,-182,-168,158,-1,-29
6420,20,-184,-175,200,-7,-32
6425,25,-185,-172,245,-14,-37
6430,23,-187,-176,282,-11,-37
6435,20,-186,-177,305,-11,-33
6440,26,-188,-179,320,-10,-29
6445,27,-186,-169,332,-8,-30
6450,21,-182,-175,350,-7,-42
6455,25,-179,-175,350,-12,-25
6460,24,-176,-171,350,-11,-19
6465,27,-174,-178,347,-5,-17
6470,23,-169,-176,342,-1,-22
6475,23,-169,-179,321,0,-19
6480,23,-165,-185,289,3,-18
6485,23,-165,-182,248,5,-16
6490,23,-169,-180,203,3,-18
6495,20,-168,-178,163,3,-20
6500,20,-173,-177,132,6,-17
6505,21,-174,-176,109,7,-13
6510,23,-172,-176,93,8,-11
6515,23,-177,-173,77,8,-13
6520,20,-180,-174,64,7,-12
6525,25,-179,-172,53,4,-10
6530,21,-181,-172,44,3,-10
6535,22,-182,-165,36,2,-8
6540,19,-180,-169,30,3,-9
6545,24,-180,-161,26,9,-7
6550,24,-183,-163,24,12,-7
6555,22,-177,-163,25,13,-5
6560,25,-176,-165,27,9,-4
6565,23,-172,-165,23,11,-2
6570,22,-172,-165,17,13,0
6575,23,-172,-167,10,14,1
6580,22,-174,-176,6,13,4
6585,21,-174,-175,6,13,8
6590,20,-178,-176,9,10,8
6595,21,-179,-176,17,8,6
6600,21,-172,-178,25,7,4
6605,23,-176,-179,26,5,1
6610,23,-178,-174,27,4,0
6615,20,-179,-171,35,4,-1
6620,20,-182,-176,48,1,-1
6625,21,-181,-173,65,1,2
6630,23,-181,-178,84,3,5
6635,23,-181,-174,104,6,6
6640,22,-177,-175,121,9,7
6645,26,-178,-174,136,12,10
6650,25,-180,-170,146,16,12
6655,28,-179,-172,152,19,14
6660,27,-176,-176,149,22,16
6665,27,-176,-169,139,25,18
6670,26,-179,-167,126,27,18
6675,21,-177,-169,110,28,16
6680,26,-177,-172,94,29,15
6685,21,-182,-167,77,28,11
6690,24,-181,-166,63,26,9
6695,22,-182,-165,53,24,8
6700,24,-184,-167,47,21,9
6705,23,-180,-167,44,20,10
6710,26,-182,-162,43,20,11
6715,23,-178,-167,40,19,15
6720,22,-180,-166,35,19,16
6725,24,-180,-167,30,17,17
6730,24,-181,-164,24,16,19
6735,22,-178,-171,17,14,16
6740,22,-178,-170,13,14,15
6745,20,-179,-169,10,15,15
6750,22,-178,-171,10,16,12
6755,23,-177,-172,12,18,10
6760,23,-176,-172,12,18,10
6765,24,-176,-174,12,17,9
6770,26,-179,-173,9,18,10
6775,22,-171,-175,5,19,9
6780,23,-175,-171,2,19,8
6785,24,-173,-171,-3,19,5
6790,23,-174,-171,-3,18,2
6795,23,-175,-175,-2,18,-2
6800,21,-175,-177,2,14,-7
6805,22,-176,-176,4,10,-10
6810,21,-178,-175,8,7,-11
6815,22,-177,-173,15,7,-11
6820,21,-179,-174,24,6,-10
6825,23,-179,-169,35,6,-10
6830,22,-176,-175,42,8,-4
6835,25,-176,-170,49,10,-2
6840,23,-175,-172,52,13,0
6845,22,-175,-173,51,16,2
6850,24,-171,-168,48,16,3
6855,21,-174,-172,46,14,2
6860,21,-173,-171,42,13,2
6865,21,-177,-169,35,13,2
6870,25,-174,-172,30,12,-1
6875,19,-175,-170,27,14,0
6880,21,-174,-170,22,15,0
6885,21,-172,-167,18,15,0
6890,22,-171,-164,13,17,1
6895,22,-174,-168,5,17,0
6900,20,-175,-168,0,19,0
6905,22,-178,-167,-2,20,1
6910,22,-175,-168,-2,19,2
6915,21,-179,-168,1,17,2
6920,20,-176,-168,3,14,0
6925,15,-179,-177,4,11,0
6930,24,-176,-175,2,10,2
6935,21,-172,-170,-3,10,1
6940,20,-171,-173,-10,8,1
6945,22,-174,-175,-19,5,-2
6950,20,-174,-174,-22,3,-3
6955,21,-175,-175,-22,5,-3
6960,23,-172,-177,-20,6,-4
6965,24,-173,-173,-21,6,-6
6970,22,-175,-176,-17,8,-9
6975,24,-177,-175,-6,11,-7
6980,22,-174,-176,7,12,-7
6985,23,-175,-179,14,12,-6
6990,24,-177,-177,15,12,-8
6995,24,-175,-176,12,12,-8
7000,24,-178,-177,12,12,-8
7005,22,-177,-176,14,12,-9
7010,24,-177,-178,24,11,-7
7015,23,-174,-174,29,12,-10
7020,21,-177,-175,30,14,-15
7025,25,-177,-179,37,13,-15
7030,22,-179,-176,48,13,-16
7035,19,-178,-178,62,12,-18
7040,20,-179,-180,81,9,-19
7045,19,-182,-177,98,7,-19
7050,22,-183,-182,114,2,-20
7055,23,-183,-182,133,-3,-18
7060,23,-177,-177,148,-9,-14
7065,22,-179,-180,158,-13,-13
7070,23,-181,-177,161,-13,-12
7075,23,-179,-180,159,-11,-10
7080,24,-179,-175,155,-9,-10
7085,22,-178,-173,149,-5,-11
7090,23,-175,-173,142,0,-11
7095,23,-175,-178,133,5,-11
7100,24,-173,-178,123,8,-11
7105,25,-176,-176,109,9,-9
7110,23,-175,-176,95,11,-11
7115,26,-175,-175,83,13,-12
7120,25,-173,-178,72,14,-11
7125,26,-174,-178,61,14,-13
7130,24,-175,-175,49,15,-13
7135,27,-178,-177,36,16,-13
7140,24,-175,-177,24,17,-13
7145,26,-174,-176,14,19,-12
7150,25,-175,-174,2,20,-10
7155,25,-172,-175,-7,23,-10
7160,25,-176,-174,-16,28,-10
7165,22,-175,-174,-23,33,-8
7170,21,-174,-177,-30,38,-10
7175,26,-177,-175,-32,44,-6
7180,24,-175,-172,-35,49,-5
7185,22,-176,-171,-36,57,-2
7190,23,-175,-171,-41,62,-3
7195,34,-177,-163,-49,65,-2
7200,23,-171,-168,-63,68,1
7205,25,-173,-170,-82,71,5
7210,22,-171,-168,-108,78,8
7215,21,-171,-168,-139,85,11
7220,23,-171,-167,-180,94,15
7225,26,-171,-170,-223,104,16
7230,23,-172,-169,-269,115,19
7235,25,-175,-168,-315,129,24
7240,26,-174,-172,-353,141,29
7245,27,-172,-176,-379,154,32
7250,26,-169,-177,-389,167,32
7255,26,-169,-184,-389,179,32
7260,30,-173,-189,-387,187,30
7265,28,-172,-190,-385,191,24
7270,28,-172,-190,-384,197,18
7275,28,-169,-188,-387,204,13
7280,27,-166,-193,-390,210,16
7285,30,-178,-194,-389,220,21
7290,28,-176,-197,-381,229,27
7295,30,-173,-196,-374,236,31
7300,26,-170,-195,-371,241,34
7305,32,-170,-198,-374,244,35
7310,30,-169,-194,-384,247,35
7315,36,-166,-194,-400,251,30
7320,32,-166,-203,-415,255,19
7325,33,-168,-202,-416,255,11
7330,35,-176,-205,-405,250,-1
7335,34,-178,-209,-387,245,-13
7340,31,-181,-210,-367,243,-21
7345,34,-184,-209,-349,239,-23
7350,33,-184,-200,-335,234,-29
7355,29,-183,-200,-327,231,-29
7360,31,-184,-203,-327,232,-27
7365,21,-190,-202,-328,230,-27
7370,30,-189,-204,-331,233,-25
7375,32,-192,-197,-331,236,-27
7380,30,-191,-194,-324,237,-29
7385,35,-187,-194,-318,237,-30
7390,36,-192,-193,-324,249,-23
7395,28,-193,-186,-336,256,-14
7400,25,-194,-185,-353,241,-12
7405,26,-197,-188,-365,226,-3
7410,23,-201,-188,-368,214,11
7415,23,-206,-187,-364,205,30
7420,23,-206,-179,-342,195,54
7425,30,-209,-188,-302,174,73
7430,30,-204,-191,-250,155,88
7435,30,-196,-196,-191,139,92
7440,30,-195,-206,-121,114,105
7445,28,-191,-226,-57,92,104
7450,28,-186,-228,5,65,92
7455,28,-184,-243,64,39,76
7460,28,-179,-248,118,18,57
7465,26,-173,-248,162,1,40
7470,20,-177,-246,194,-13,28
7475,29,-166,-249,209,-24,20
7480,28,-164,-253,206,-33,18
7485,28,-166,-249,191,-39,14
7490,25,-167,-241,172,-43,11
7495,26,-168,-231,155,-48,9
7500,28,-172,-230,138,-58,5
7505,30,-176,-219,128,-68,-1
7510,30,-177,-216,127,-82,-7
7515,34,-174,-212,131,-97,-15
7520,26,-174,-205,142,-104,-24
7525,32,-175,-208,155,-107,-31
7530,32,-176,-211,166,-108,-36
7535,34,-173,-204,177,-109,-40
7540,33,-175,-204,192,-106,-41
7545,34,-174,-201,209,-103,-39
7550,32,-174,-197,227,-100,-36
7555,32,-173,-197,246,-100,-32
7560,33,-176,-197,267,-98,-26
7565,30,-171,-191,288,-96,-20
7570,32,-173,-192,310,-97,-5
7575,34,-172,-193,337,-102,4
7580,31,-176,-191,363,-101,13
7585,29,-176,-194,392,-106,23
7590,33,-172,-193,426,-114,32
7595,31,-175,-194,458,-124,39
7600,32,-175,-194,484,-135,46
7605,33,-172,-200,511,-143,51
7610,33,-169,-198,528,-141,60
7615,33,-175,-197,542,-139,65
7620,32,-173,-198,554,-134,69
7625,28,-169,-195,573,-133,71
7630,29,-164,-195,580,-131,73
7635,35,-164,-198,575,-139,74
7640,30,-158,-205,549,-141,73
7645,31,-157,-202,508,-137,76
7650,27,-153,-204,463,-134,82
7655,32,-155,-206,420,-130,88
7660,32,-163,-206,390,-124,94
7665,27,-159,-204,371,-114,95
7670,31,-157,-201,362,-104,96
7675,29,-162,-204,353,-89,96
7680,23,-163,-203,344,-74,97
7685,22,-164,-199,338,-60,98
7690,26,-165,-196,330,-44,97
7695,22,-166,-192,313,-28,96
7700,23,-167,-191,292,-12,93
7705,18,-168,-188,269,-3,89
7710,21,-169,-181,247,3,85
7715,22,-174,-178,233,7,77
7720,19,-173,-180,232,10,68
7725,19,-180,-176,240,13,57
7730,21,-181,-177,254,16,49
7735,18,-180,-176,272,21,37
7740,16,-182,-187,290,22,27
7745,18,-181,-176,306,19,18
7750,18,-181,-180,323,13,11
7755,19,-187,-178,337,9,11
7760,19,-188,-183,348,9,12
7765,18,-189,-176,355,13,5
7770,18,-192,-181,359,20,5
7775,20,-192,-179,358,25,7
7780,14,-190,-181,350,32,6
7785,16,-190,-181,339,37,6
7790,15,-190,-180,328,45,9
7795,16,-192,-185,318,51,19
7800,16,-191,-180,307,59,26
7805,22,-192,-178,298,67,32
7810,15,-192,-180,291,81,40
7815,20,-194,-181,286,88,51
7820,15,-192,-180,280,84,56
7825,17,-192,-178,278,78,57
7830,17,-198,-173,276,71,58
7835,18,-198,-178,282,66,63
7840,22,-198,-177,287,59,64
7845,24,-199,-176,292,50,58
7850,21,-200,-178,298,44,55
7855,21,-200,-177,303,35,53
7860,22,-204,-178,309,29,56
7865,21,-201,-178,316,26,55
7870,20,-201,-179,326,21,57
7875,18,-201,-178,339,18,59
7880,18,-204,-177,351,18,61
7885,21,-205,-179,359,16,60
7890,17,-204,-182,367,13,59
7895,16,-202,-178,370,9,56
7900,20,-208,-179,373,9,56
7905,15,-207,-177,373,7,56
7910,16,-210,-175,371,4,54
7915,16,-209,-177,366,0,49
7920,14,-210,-177,363,-1,47
7925,14,-215,-178,362,-3,45
7930,13,-212,-173,368,-4,41
7935,16,-215,-176,377,-6,37
7940,18,-219,-176,387,-8,30
7945,14,-216,-172,401,-14,21
7950,17,-220,-173,416,-21,13
7955,19,-220,-172,434,-26,7
7960,14,-221,-172,452,-32,5
7965,16,-221,-171,468,-39,1
7970,16,-222,-170,486,-47,-4
7975,17,-222,-168,504,-55,-10
7980,17,-221,-170,524,-64,-16
7985,20,-223,-167,547,-70,-21
7990,21,-222,-166,570,-74,-24
7995,19,-222,-166,595,-77,-24
8000,21,-220,-161,620,-78,-25
8005,19,-222,-163,647,-78,-23
8010,18,-222,-158,676,-77,-23
8015,20,-217,-156,709,-78,-21
8020,18,-214,-152,745,-78,-20
8025,17,-214,-152,782,-79,-16
8030,16,-214,-146,818,-79,-10
8035,15,-209,-144,852,-79,-3
8040,17,-206,-150,882,-81,2
8045,18,-203,-136,903,-83,6
8050,15,-200,-143,915,-86,12
8055,17,-201,-138,918,-89,13
8060,16,-195,-140,916,-90,14
8065,16,-194,-139,911,-90,17
8070,17,-194,-136,901,-86,19
8075,16,-191,-136,887,-86,19
8080,14,-191,-133,870,-85,15
8085,15,-191,-132,852,-82,10
8090,14,-191,-129,834,-76,5
8095,16,-188,-128,818,-69,-2
8100,15,-188,-128,801,-57,-8
8105,16,-187,-124,787,-43,-14
8110,19,-187,-124,775,-30,-17
8115,17,-185,-122,765,-19,-17
8120,16,-188,-120,757,-11,-17
8125,19,-188,-118,751,-4,-15
8130,16,-188,-114,751,4,-13
8135,21,-189,-115,753,5,-12
8140,16,-189,-116,756,1,-11
8145,21,-189,-116,760,-2,-6
8150,21,-192,-113,765,-7,-1
8155,16,-191,-110,771,-14,3
8160,18,-192,-110,779,-17,8
8165,19,-191,-113,784,-20,10
8170,18,-194,-112,789,-24,14
8175,15,-192,-109,793,-28,15
8180,21,-194,-110,791,-28,17
8185,18,-195,-107,795,-25,18
8190,17,-193,-106,797,-23,20
8195,16,-194,-102,802,-20,22
8200,16,-196,-103,808,-17,22
8205,13,-194,-104,815,-14,20
8210,18,-198,-100,821,-8,20
8215,17,-194,-100,827,-1,20
8220,15,-192,-101,832,6,19
8225,15,-197,-95,834,9,21
8230,15,-195,-95,833,7,21
8235,14,-194,-93,827,3,20
8240,16,-192,-94,819,-1,23
8245,14,-193,-93,807,0,28
8250,12,-193,-96,794,3,32
8255,9,-193,-91,780,6,33
8260,11,-195,-93,764,7,37
8265,11,-196,-89,751,8,41
8270,9,-194,-91,743,11,46
8275,15,-198,-84,737,12,53
8280,15,-201,-87,735,15,59
8285,20,-201,-85,735,17,62
8290,15,-202,-81,742,17,67
8295,16,-205,-83,752,16,68
8300,16,-208,-79,765,14,68
8305,16,-208,-80,776,14,70
8310,18,-208,-81,788,15,70
8315,19,-207,-81,799,16,73
8320,20,-207,-80,809,19,76
8325,21,-207,-75,814,25,78
8330,20,-208,-76,820,27,76
8335,19,-206,-75,824,28,76
8340,22,-209,-74,828,30,77
8345,19,-205,-70,831,32,74
8350,21,-204,-74,834,34,72
8355,19,-208,-71,835,34,70
8360,22,-204,-68,834,36,69
8365,22,-202,-70,832,37,69
8370,16,-199,-66,822,38,69
8375,17,-200,-64,818,40,66
8380,17,-196,-66,812,39,66
8385,17,-198,-61,812,37,67
8390,16,-196,-63,816,35,67
8395,14,-198,-58,821,36,67
8400,11,-196,-60,824,39,66
8405,11,-196,-61,827,39,65
8410,7,-193,-61,828,40,65
8415,10,-198,-61,826,40,64
8420,10,-195,-60,826,43,61
8425,10,-195,-65,823,48,59
8430,4,-196,-63,819,54,54
8435,9,-200,-63,817,56,52
8440,9,-198,-61,817,55,46
8445,11,-198,-62,818,52,40
8450,8,-199,-60,823,45,36
8455,12,-199,-61,827,35,34
8460,12,-201,-60,828,25,30
8465,10,-202,-62,827,18,28
8470,12,-206,-59,826,11,21
8475,11,-207,-55,822,4,16
8480,14,-208,-61,818,-3,14
8485,8,-211,-55,813,-11,14
8490,12,-212,-51,806,-17,13
8495,12,-213,-57,797,-21,17
8500,12,-211,-59,780,-23,20
8505,9,-217,-61,766,-24,24
8510,9,-216,-61,755,-26,30
8515,11,-216,-55,748,-25,38
8520,9,-214,-56,740,-22,45
8525,10,-217,-57,734,-18,52
8530,6,-213,-60,727,-15,64
8535,11,-213,-57,718,-18,72
8540,6,-213,-57,709,-21,77
8545,3,-212,-54,698,-27,76
8550,1,-212,-55,682,-37,75
8555,0,-215,-57,665,-51,71
8560,1,-209,-56,644,-65,67
8565,2,-209,-60,623,-78,62
8570,1,-210,-58,604,-90,58
8575,2,-210,-60,587,-102,54
8580,1,-213,-57,572,-113,51
8585,1,-210,-58,555,-120,47
8590,1,-214,-61,539,-125,41
8595,2,-214,-59,520,-128,34
8600,4,-218,-59,501,-134,30
8605,4,-222,-58,483,-139,23
8610,1,-221,-59,467,-143,16
8615,5,-229,-58,455,-150,11
8620,5,-226,-54,445,-155,4
8625,4,-231,-51,436,-159,-2
8630,9,-238,-52,431,-161,-6
8635,4,-240,-49,434,-161,-10
8640,4,-242,-50,439,-161,-15
8645,7,-242,-46,448,-160,-15
8650,7,-248,-46,456,-156,-14
8655,9,-247,-47,462,-154,-16
8660,10,-250,-43,466,-152,-16
8665,11,-250,-47,467,-148,-15
8670,13,-249,-46,467,-143,-16
8675,15,-249,-48,464,-139,-14
8680,15,-252,-43,462,-134,-11
8685,16,-249,-40,463,-130,-8
8690,18,-251,-37,468,-126,-3
8695,18,-250,-40,481,-121,3
8700,19,-250,-32,502,-116,9
8705,18,-244,-32,526,-111,15
8710,19,-244,-26,545,-104,20
8715,20,-241,-27,561,-96,24
8720,20,-236,-29,569,-88,27
8725,17,-233,-27,568,-80,31
8730,20,-238,-30,560,-70,34
8735,20,-233,-25,550,-62,35
8740,20,-232,-25,536,-52,32
8745,20,-228,-21,524,-41,27
8750,20,-232,-26,512,-29,19
8755,16,-231,-22,498,-15,16
8760,14,-230,-19,484,2,12
8765,10,-232,-21,472,11,9
8770,8,-236,-22,464,14,2
8775,6,-236,-25,459,10,-1
8780,8,-238,-24,456,2,-5
8785,7,-240,-20,453,-13,-4
8790,10,-246,-22,452,-29,-3
8795,10,-245,-24,454,-48,2
8800,13,-247,-20,457,-68,7
8805,12,-248,-23,467,-88,9
8810,12,-250,-20,481,-110,12
8815,9,-247,-24,498,-135,12
8820,10,-246,-21,509,-156,11
8825,8,-245,-23,516,-173,11
8830,8,-243,-24,518,-185,8
8835,10,-245,-23,513,-190,5
8840,14,-237,-22,503,-186,-5
8845,11,-239,-24,488,-172,-13
8850,12,-234,-24,466,-155,-24
8855,14,-232,-18,434,-131,-37
8860,11,-228,-24,394,-105,-46
8865,16,-232,-13,347,-76,-56
8870,15,-234,-20,291,-49,-68
8875,18,-236,-15,240,-22,-81
8880,15,-248,-13,192,-1,-83
8885,18,-244,-13,146,15,-87
8890,19,-246,-17,105,29,-87
8895,19,-252,-19,71,36,-85
8900,16,-256,-16,46,40,-83
8905,15,-261,-18,31,40,-80
8910,15,-259,-18,27,34,-78
8915,13,-260,-19,29,25,-73
8920,12,-260,-21,38,15,-69
8925,10,-261,-19,53,3,-67
8930,6,-259,-26,70,-8,-64
8935,7,-260,-20,89,-20,-64
8940,8,-258,-15,113,-31,-63
8945,6,-256,-19,138,-42,-62
8950,3,-248,-19,164,-52,-61
8955,2,-253,-18,189,-60,-58
8960,1,-244,-15,208,-66,-55
8965,2,-243,-15,220,-72,-53
8970,1,-242,-15,228,-78,-48
8975,1,-239,-11,232,-84,-42
8980,0,-241,-10,231,-90,-38
8985,3,-239,-10,228,-93,-34
8990,2,-237,-7,221,-92,-33
8995,1,-237,-5,213,-90,-32
9000,6,-237,0,208,-92,-28
9005,6,-240,-7,201,-95,-23
9010,6,-237,-3,194,-94,-22
9015,10,-241,-3,187,-93,-22
9020,11,-242,1,183,-91,-21
9025,8,-244,1,180,-88,-22
9030,13,-242,2,176,-84,-22
9035,13,-242,4,172,-83,-25
9040,15,-245,2,165,-80,-27
9045,14,-244,4,157,-79,-27
9050,19,-244,5,146,-78,-29
9055,15,-243,1,134,-77,-29
9060,19,-245,1,121,-78,-29
9065,16,-244,1,107,-78,-29
9070,18,-247,3,94,-78,-29
9075,14,-245,3,84,-76,-29
9080,16,-250,-1,76,-73,-29
9085,15,-249,1,69,-68,-28
9090,14,-248,-3,64,-61,-29
9095,15,-250,-4,60,-55,-28
9100,11,-249,-4,59,-47,-27
9105,13,-251,-6,59,-41,-26
9110,12,-249,-4,56,-33,-27
9115,16,-251,-3,60,-28,-23
9120,15,-252,-8,63,-25,-21
9125,17,-252,-6,65,-22,-18
9130,15,-251,-3,65,-19,-19
9135,14,-252,-3,65,-17,-18
9140,16,-249,-6,67,-15,-18
9145,17,-252,0,66,-15,-18
9150,17,-253,0,66,-14,-17
9155,14,-256,0,68,-15,-17
9160,14,-252,-2,72,-16,-16
9165,13,-251,-2,76,-17,-17
9170,14,-252,-4,83,-17,-19
9175,15,-252,-2,89,-17,-18
9180,15,-252,-2,96,-17,-18
9185,15,-253,0,102,-16,-18
9190,14,-253,-1,108,-14,-18
9195,17,-254,-3,110,-10,-19
9200,16,-250,0,114,-7,-19
9205,11,-250,-1,115,-3,-19
9210,13,-251,0,117,1,-19
9215,12,-250,0,121,4,-21
9220,15,-250,0,123,8,-23
9225,11,-250,-1,125,11,-23
9230,8,-250,5,128,14,-22
9235,16,-250,1,130,18,-22
9240,11,-250,1,130,19,-25
9245,6,-246,3,132,20,-25
9250,8,-246,1,128,21,-25
9255,8,-248,3,126,20,-26
9260,9,-247,1,121,21,-25
9265,10,-248,2,116,22,-27
9270,5,-246,4,113,20,-28
9275,8,-246,0,111,18,-30
9280,9,-245,1,109,17,-30
9285,9,-248,2,107,15,-28
9290,11,-247,4,103,15,-29
9295,6,-245,1,99,15,-28
9300,6,-247,2,94,14,-29
9305,9,-248,0,88,14,-27
9310,7,-246,3,82,15,-25
9315,6,-248,2,78,15,-24
9320,9,-248,1,75,15,-23
9325,9,-246,1,74,13,-23
9330,9,-251,4,72,12,-22
9335,8,-247,2,71,8,-20
9340,11,-245,4,72,4,-19
9345,8,-246,0,72,-1,-17
9350,7,-249,0,71,-6,-15
9355,11,-248,1,70,-11,-14
9360,8,-248,0,66,-16,-14
9365,5,-243,5,62,-21,-12
9370,11,-250,2,57,-22,-11
9375,8,-247,2,52,-23,-9
9380,8,-247,5,49,-23,-7
9385,6,-243,0,45,-25,-7
9390,8,-248,1,42,-24,-8
9395,7,-248,0,41,-23,-9
9400,8,-247,3,40,-25,-12
9405,10,-249,1,40,-26,-11
9410,6,-248,2,42,-26,-11
9415,9,-249,3,41,-28,-12
9420,9,-247,0,42,-29,-13
9425,10,-250,1,42,-29,-13
9430,10,-250,0,43,-29,-16
9435,9,-245,0,45,-28,-17
9440,10,-252,1,48,-28,-17
9445,13,-250,2,50,-28,-18
9450,12,-250,2,52,-26,-18
9455,11,-248,0,53,-25,-20
9460,10,-247,0,53,-26,-21
9465,11,-250,1,54,-25,-21
9470,9,-251,-1,52,-27,-20
9475,11,-248,0,49,-29,-20
9480,16,-251,1,48,-30,-18
9485,9,-250,0,45,-31,-16
9490,11,-249,2,45,-32,-14
9495,12,-251,0,46,-34,-14
9500,13,-251,3,50,-34,-14
9505,11,-250,0,54,-35,-14
9510,9,-251,6,56,-35,-15
9515,10,-251,2,58,-33,-15
9520,9,-251,1,60,-31,-17
9525,12,-248,0,62,-29,-18
9530,11,-247,0,61,-26,-18
9535,13,-248,3,60,-23,-18
9540,13,-248,1,58,-22,-19
9545,10,-249,0,57,-19,-21
9550,14,-246,1,57,-20,-23
9555,13,-248,0,56,-20,-23
9560,14,-250,2,57,-22,-23
9565,13,-250,2,56,-22,-25
9570,12,-249,2,57,-24,-22
9575,12,-247,3,55,-25,-25
9580,14,-251,1,53,-24,-24
9585,12,-249,0,52,-24,-22
9590,15,-249,1,53,-23,-23
9595,14,-249,2,53,-24,-24
9600,14,-249,0,53,-23,-23
9605,10,-249,3,56,-23,-24
9610,13,-247,1,57,-22,-23
9615,13,-246,1,57,-20,-24
9620,12,-247,2,58,-20,-24
9625,10,-248,2,56,-21,-24
9630,12,-248,5,56,-21,-24
9635,10,-247,0,55,-22,-24
9640,11,-246,2,53,-24,-25
9645,9,-250,1,55,-23,-25
9650,17,-250,2,54,-23,-26
9655,15,-249,2,54,-22,-27
9660,11,-250,0,55,-21,-27
9665,13,-250,2,57,-19,-26
9670,13,-252,2,58,-19,-27
9675,13,-246,4,57,-17,-28
9680,8,-249,6,56,-15,-29
9685,9,-245,2,53,-14,-30
9690,11,-248,3,52,-14,-30
9695,9,-246,4,48,-13,-29
9700,14,-246,2,46,-11,-29
9705,8,-245,2,43,-12,-29
9710,14,-247,3,42,-14,-29
9715,11,-248,4,42,-14,-30
9720,12,-245,2,41,-16,-28
9725,13,-248,1,40,-16,-28
9730,11,-248,-2,39,-16,-29
9735,12,-247,2,37,-17,-28
9740,12,-250,0,38,-16,-27
9745,14,-252,3,37,-14,-27
9750,14,-246,1,30,-10,-31
9755,13,-244,3,34,-9,-28
9760,12,-249,1,36,-10,-24
9765,13,-248,3,39,-8,-24
9770,13,-248,-2,42,-6,-25
9775,13,-249,0,45,-3,-25
9780,14,-247,2,48,0,-24
9785,14,-248,1,51,2,-26
9790,24,-246,1,54,5,-26
9795,12,-249,0,57,7,-26
9800,10,-249,1,57,9,-25
9805,11,-250,1,56,11,-25
9810,12,-250,0,56,13,-24
9815,12,-250,0,54,13,-24
9820,12,-248,-1,52,13,-24
9825,10,-248,3,51,13,-25
9830,13,-250,1,50,13,-24
9835,11,-248,1,48,16,-23
9840,10,-246,4,47,19,-26
9845,13,-250,3,49,19,-23
9850,10,-248,3,49,18,-24
9855,11,-245,0,48,19,-24
9860,12,-250,4,48,21,-23
9865,15,-248,3,49,20,-23
9870,12,-249,4,48,19,-22
9875,12,-251,5,47,19,-22
9880,15,-252,2,47,20,-20
9885,11,-250,5,48,19,-21
9890,11,-251,2,50,20,-21
9895,13,-249,0,52,21,-22
9900,10,-249,3,55,22,-21
9905,11,-250,3,54,21,-22
9910,11,-246,2,54,21,-22
9915,11,-248,4,52,22,-20
9920,11,-247,0,51,23,-20
9925,10,-247,1,49,23,-19
9930,12,-247,4,47,23,-20
9935,14,-248,3,45,26,-17
9940,11,-250,1,42,26,-17
9945,12,-248,1,39,26,-16
9950,13,-247,4,35,25,-15
9955,16,-248,0,33,25,-15
9960,11,-250,2,29,25,-15
9965,12,-247,1,27,26,-13
9970,11,-250,-1,26,24,-13
9975,11,-249,5,27,25,-12
9980,12,-250,0,27,25,-12
9985,11,-249,2,29,25,-14
9990,13,-252,1,34,23,-13
9995,11,-247,1,37,21,-9
10000,10,-247,1,39,18,-10
10005,11,-250,1,42,18,-11
10010,9,-248,1,44,15,-11
10015,12,-250,2,45,15,-10
10020,10,-248,2,46,14,-9
10025,12,-248,2,48,13,-10
10030,11,-250,0,49,11,-9
10035,9,-251,4,49,9,-9
10040,10,-248,2,49,8,-9
10045,11,-248,1,49,9,-8
10050,12,-251,4,48,7,-9
10055,10,-246,2,49,7,-8
10060,8,-248,-1,48,6,-9
10065,13,-248,1,47,6,-10
10070,12,-247,2,47,4,-9
10075,10,-251,1,46,3,-9
10080,10,-252,2,46,3,-9
10085,13,-248,3,45,0,-11
10090,11,-247,4,44,0,-10
10095,11,-249,1,44,-1,-9
10100,13,-245,3,43,-3,-8
10105,10,-248,1,42,-5,-6
10110,30,-244,8,41,-5,-8
10115,10,-248,5,42,-5,-8
10120,12,-246,3,41,-5,-9
10125,10,-249,1,39,-5,-9
10130,10,-249,2,39,-4,-9
10135,11,-248,-2,39,-3,-9
10140,11,-247,2,38,-2,-8
10145,11,-246,1,36,0,-8
10150,10,-244,-2,34,1,-9
10155,11,-246,1,33,1,-11
10160,10,-247,1,33,2,-10
10165,13,-247,2,32,2,-11
10170,13,-248,2,33,2,-11
10175,10,-247,1,33,3,-12
10180,12,-249,3,33,1,-12
10185,12,-246,3,33,-1,-10
10190,12,-247,0,33,-2,-11
10195,12,-248,1,31,-2,-10
10200,11,-247,2,28,-3,-11
10205,12,-249,0,25,-4,-10
10210,11,-247,0,22,-4,-11
10215,12,-247,2,19,-5,-11
10220,13,-249,-2,18,-6,-10
10225,13,-248,1,20,-7,-11
10230,11,-247,1,21,-9,-8
10235,14,-249,1,24,-9,-10
10240,11,-249,0,27,-7,-9
10245,13,-248,-1,30,-5,-9
10250,14,-251,-2,33,-2,-8
10255,14,-249,3,35,1,-8
10260,14,-251,0,38,2,-9
10265,14,-250,2,39,6,-10
10270,10,-248,1,41,9,-11
10275,14,-250,0,45,9,-10
10280,14,-249,0,48,10,-11
10285,18,-250,2,49,12,-10
10290,13,-247,2,49,14,-12
10295,13,-251,-1,47,14,-12
10300,14,-249,0,47,13,-11
10305,14,-247,0,48,12,-11
10310,13,-250,-2,48,10,-13
10315,12,-249,-3,50,9,-10
10320,12,-249,1,53,8,-10
10325,13,-250,0,57,8,-11
10330,15,-250,0,60,8,-12
10335,15,-250,0,60,8,-13
10340,18,-246,0,61,10,-12
10345,15,-248,0,62,9,-13
10350,15,-250,2,60,11,-12
10355,13,-246,-1,59,16,-14
10360,14,-249,1,55,18,-13
10365,12,-247,-1,50,22,-12
10370,14,-247,-3,43,24,-15
10375,10,-245,0,39,24,-13
10380,13,-251,1,36,25,-13
10385,13,-247,1,37,26,-14
10390,11,-250,4,38,26,-13
10395,16,-251,0,40,25,-15
10400,15,-249,1,44,24,-15
10405,13,-248,-1,48,23,-15
10410,13,-251,1,52,23,-15
10415,17,-252,0,56,24,-15
10420,15,-250,1,59,25,-16
10425,15,-247,0,58,25,-17
10430,12,-247,3,57,26,-19
10435,17,-249,0,58,25,-18
10440,13,-249,-2,57,27,-18
10445,15,-248,-2,56,27,-18
10450,14,-248,1,55,29,-17
10455,13,-248,-4,54,28,-16
10460,12,-247,-1,53,29,-17
10465,13,-245,0,53,29,-14
10470,15,-249,-3,52,30,-13
10475,14,-248,0,51,29,-12
10480,13,-249,-1,50,29,-13
10485,12,-250,0,52,30,-12
10490,14,-247,-2,53,30,-14
10495,13,-250,0,54,32,-12
10500,15,-249,2,56,31,-12
10505,13,-248,2,59,32,-12
10510,15,-250,-4,62,31,-13
10515,18,-251,2,65,32,-13
10520,13,-248,-1,66,31,-13
10525,13,-251,2,67,32,-12
10530,14,-246,0,68,31,-13
10535,11,-245,-2,68,30,-13
10540,13,-253,0,70,29,-12
10545,11,-247,-4,69,28,-13
10550,13,-249,1,68,27,-14
10555,14,-250,0,68,25,-16
10560,15,-250,0,70,24,-13
10565,14,-248,1,70,23,-13
10570,10,-247,0,67,23,-14
10575,13,-249,0,66,23,-12
10580,16,-251,0,65,22,-11
10585,10,-246,0,65,20,-12
10590,13,-247,-2,65,20,-11
10595,15,-250,-1,64,18,-12
10600,11,-248,2,63,17,-11
10605,15,-248,-1,64,17,-13
10610,13,-250,0,64,18,-11
10615,8,-247,-1,64,17,-10
10620,16,-248,0,65,18,-11
10625,15,-251,3,68,18,-11
10630,10,-250,1,71,18,-11
10635,13,-252,-2,72,17,-13
10640,13,-250,3,74,17,-15
10645,13,-247,0,73,15,-15
10650,12,-246,2,72,14,-14
10655,10,-248,-1,69,13,-16
10660,10,-249,1,65,11,-15
10665,13,-247,0,64,9,-14
10670,12,-247,2,62,8,-14
10675,10,-247,-1,60,5,-13
10680,13,-248,2,59,3,-13
10685,11,-247,0,57,1,-12
10690,12,-249,-1,58,-1,-11
10695,14,-251,-1,60,-3,-10
10700,13,-248,0,62,-4,-10
10705,10,-251,-3,64,-4,-10
10710,12,-251,0,67,-5,-9
10715,11,-248,-2,69,-5,-8
10720,13,-250,1,71,-4,-8
10725,10,-247,0,71,-4,-9
10730,14,-249,1,72,-4,-8
10735,11,-246,-21,74,-4,-8
10740,7,-251,-5,76,-4,-12
10745,14,-248,-4,76,-2,-14
10750,10,-234,19,76,-3,-14
10755,15,-249,-1,76,-2,-12
10760,13,-245,0,76,-3,-14
10765,11,-248,0,75,-4,-12
10770,11,-247,2,75,-5,-13
10775,14,-249,0,75,-5,-12
10780,12,-246,2,74,-5,-13
10785,10,-250,0,73,-5,-12
10790,9,-248,0,73,-6,-10
10795,16,-249,0,74,-6,-11
10800,15,-248,2,75,-6,-12
10805,15,-253,0,76,-7,-12
10810,14,-246,0,79,-5,-11
10815,15,-249,-1,81,-5,-12
10820,16,-251,1,84,-4,-12
10825,14,-249,1,86,-2,-14
10830,15,-248,0,87,-2,-12
10835,16,-249,0,87,0,-13
10840,13,-248,0,87,0,-13
10845,16,-251,3,87,2,-13
10850,13,-245,2,85,2,-13
10855,15,-249,3,83,3,-13
10860,13,-248,3,82,4,-12
10865,12,-247,4,82,6,-14
10870,11,-248,0,80,7,-15
10875,14,-250,1,79,7,-15
10880,10,-248,3,79,8,-15
10885,14,-250,3,79,8,-15
10890,14,-249,2,79,7,-14
10895,11,-249,0,77,6,-12
10900,11,-246,4,77,5,-12
10905,13,-249,1,77,4,-13
10910,13,-251,5,74,4,-12
10915,14,-250,1,74,3,-12
10920,12,-247,1,74,1,-11
10925,11,-247,0,73,1,-10
10930,13,-250,3,73,0,-11
10935,13,-250,2,72,1,-9
10940,13,-247,2,72,2,-11
10945,17,-249,1,73,2,-9
10950,15,-247,0,72,3,-10
10955,13,-245,0,71,2,-9
10960,13,-247,-1,71,3,-8
10965,12,-248,1,70,3,-9
10970,14,-248,2,67,4,-8
10975,11,-251,2,68,3,-9
10980,12,-249,0,67,3,-9
10985,15,-248,2,67,2,-9
10990,15,-248,3,67,5,-10
10995,15,-247,2,68,6,-10
11000,13,-250,3,69,7,-10
11005,14,-248,1,71,8,-10
11010,14,-250,2,72,9,-10
11015,13,-249,2,74,11,-10
11020,14,-251,0,76,13,-10
11025,12,-250,0,77,15,-11
11030,14,-250,1,78,17,-11
11035,13,-246,1,79,19,-10
11040,16,-250,2,82,21,-9
11045,14,-250,3,82,23,-11
11050,14,-247,-2,80,24,-11
11055,13,-250,1,79,26,-11
11060,11,-248,0,78,25,-11
11065,13,-249,1,75,25,-11
11070,13,-247,2,72,22,-11
11075,17,-248,2,70,21,-10
11080,12,-247,1,68,21,-10
11085,13,-247,3,66,22,-13
11090,13,-248,0,62,23,-12
11095,14,-246,2,62,23,-13
11100,11,-247,3,59,26,-14
11105,15,-249,4,57,28,-14
11110,15,-248,1,55,31,-13
11115,17,-246,2,54,32,-13
11120,12,-247,3,52,35,-12
11125,13,-250,-1,52,36,-12
11130,14,-250,2,51,36,-13
11135,13,-246,3,51,37,-13
11140,16,-248,1,50,38,-14
11145,12,-248,0,49,37,-14
11150,12,-246,4,46,38,-14
11155,14,-251,2,47,39,-14
11160,13,-249,3,48,41,-14
11165,13,-249,7,48,42,-14
11170,13,-249,1,49,43,-13
11175,14,-251,2,50,46,-14
11180,14,-251,4,53,48,-16
11185,12,-253,2,53,48,-16
11190,14,-248,6,55,48,-18
11195,12,-250,4,57,49,-17
11200,13,-247,1,58,49,-16
11205,15,-248,1,60,48,-16
11210,12,-247,2,61,47,-19
11215,14,-247,1,61,44,-17
11220,9,-249,3,63,42,-16
11225,9,-247,1,62,40,-16
11230,12,-249,2,62,39,-15
11235,15,-247,2,61,39,-16
11240,13,-249,4,60,37,-15
11245,12,-250,1,60,37,-15
11250,13,-249,1,62,37,-15
11255,12,-250,2,64,36,-16
11260,15,-250,1,67,35,-14
11265,13,-248,2,68,35,-12
11270,14,-250,5,71,35,-13
11275,9,-247,2,72,34,-14
11280,11,-247,2,74,35,-14
11285,9,-245,3,76,34,-15
11290,11,-247,2,77,35,-15
11295,14,-251,7,78,35,-15
11300,9,-248,5,77,36,-15
11305,10,-248,2,74,35,-14
11310,12,-247,3,72,34,-15
11315,15,-249,2,69,33,-14
11320,13,-248,3,68,33,-16
11325,13,-247,1,65,32,-15
11330,11,-249,2,63,31,-17
11335,15,-249,4,62,30,-17
11340,14,-248,2,60,28,-15
11345,13,-246,3,59,27,-16
11350,13,-248,6,59,27,-16
11355,12,-248,4,58,27,-16
11360,12,-250,7,56,27,-15
11365,15,-248,3,56,26,-16
11370,15,-248,3,52,26,-15
11375,12,-250,2,52,25,-13
11380,13,-248,5,52,26,-14
11385,13,-249,7,51,26,-16
11390,16,-248,7,52,27,-15
11395,12,-246,6,52,25,-15
11400,13,-246,3,51,25,-15
11405,12,-246,7,52,24,-15
11410,15,-249,7,51,24,-14
11415,12,-245,3,52,24,-14
11420,12,-246,4,52,24,-15
11425,12,-247,2,50,24,-13
11430,13,-249,3,48,24,-13
11435,14,-249,6,47,24,-13
11440,14,-252,3,46,23,-13
11445,16,-249,0,46,21,-12
11450,15,-251,0,47,22,-12
11455,14,-249,3,48,24,-12
11460,12,-248,2,50,24,-13
11465,13,-247,5,52,24,-12
11470,16,-254,2,53,25,-12
11475,14,-250,2,54,26,-12
11480,13,-249,4,55,28,-15
11485,15,-251,5,56,28,-14
11490,11,-246,4,55,30,-15
11495,13,-249,5,56,32,-17
11500,11,-247,1,57,32,-15
11505,14,-249,3,59,31,-16
11510,14,-252,4,59,32,-17
11515,14,-249,5,60,30,-18
11520,16,-250,6,61,30,-19
11525,17,-249,2,62,29,-20
11530,13,-247,2,63,27,-17
11535,17,-250,4,64,26,-19
11540,13,-247,3,66,23,-19
11545,11,-247,3,66,21,-18
11550,13,-248,3,67,21,-17
11555,15,-248,5,65,19,-15
11560,10,-248,1,66,18,-16
11565,15,-248,2,65,17,-16
11570,14,-249,5,63,17,-13
11575,12,-247,5,63,15,-14
11580,12,-248,1,63,15,-13
11585,10,-247,5,64,13,-12
11590,14,-249,3,64,13,-14
11595,13,-248,5,65,11,-13
11600,15,-250,4,66,11,-13
11605,12,-247,3,68,10,-11
11610,12,-247,6,68,9,-13
11615,13,-249,4,69,8,-12
11620,13,-249,2,69,7,-12
11625,16,-251,5,68,7,-11
11630,13,-245,5,69,7,-12
11635,13,-247,2,69,6,-11
11640,16,-249,2,67,5,-11
11645,14,-249,3,67,5,-10
11650,11,-246,4,67,3,-9
11655,14,-249,8,67,3,-10
11660,17,-253,1,65,1,-8
11665,14,-246,3,65,1,-8
11670,14,-247,2,65,0,-9
11675,19,-249,3,64,-1,-8
11680,14,-247,5,62,-1,-8
11685,14,-246,4,61,0,-8
11690,15,-247,0,59,1,-6
11695,15,-248,6,59,1,-8
11700,15,-249,3,59,0,-8
11705,15,-250,1,58,2,-8
11710,16,-246,3,59,2,-9
11715,14,-245,3,57,3,-9
11720,12,-245,2,57,3,-6
11725,15,-247,4,56,3,-8
11730,15,-249,4,54,4,-9
11735,13,-251,4,54,6,-9
11740,14,-250,1,53,5,-9
11745,12,-246,3,50,7,-10
11750,13,-250,3,50,8,-10
11755,13,-247,1,50,8,-11
11760,13,-248,2,52,9,-12
11765,15,-250,5,52,9,-11
11770,13,-246,2,54,10,-12
11775,13,-248,5,55,7,-10
11780,15,-246,4,55,8,-10
11785,14,-249,0,53,8,-11
11790,14,-244,5,53,8,-12
11795,16,-250,3,54,8,-11
11800,17,-248,2,52,7,-10
11805,14,-250,4,51,6,-9
11810,13,-249,3,51,5,-10
11815,13,-251,8,50,4,-10
11820,17,-248,4,50,3,-11
11825,16,-247,3,51,3,-10
11830,13,-249,6,52,3,-12
11835,14,-249,4,54,3,-8
11840,17,-246,3,55,3,-9
11845,13,-247,4,56,3,-9
11850,15,-250,1,55,4,-8
11855,13,-244,5,57,6,-9
11860,13,-249,3,56,7,-9
11865,10,-245,4,56,7,-8
11870,14,-247,2,55,7,-8
11875,11,-248,-2,54,7,-9
11880,12,-249,0,51,7,-9
11885,14,-249,2,50,7,-9
11890,11,-248,1,49,5,-8
11895,11,-249,4,47,2,-8
11900,12,-250,1,47,2,-8
11905,14,-250,4,47,-1,-8
11910,13,-249,0,48,-3,-8
11915,16,-251,3,50,-5,-7
11920,14,-251,4,52,-6,-5
11925,12,-247,1,52,-6,-6
11930,13,-249,0,52,-8,-5
11935,11,-245,1,51,-8,-5
11940,11,-250,2,49,-10,-2
11945,15,-247,0,49,-11,-3
11950,12,-247,3,46,-12,-4
11955,11,-248,3,47,-12,-4
11960,11,-248,2,47,-15,-4
11965,9,-249,2,49,-16,-4
11970,13,-250,1,50,-21,-5
11975,11,-252,6,52,-23,-3
11980,9,-250,5,54,-26,-4
11985,10,-253,3,56,-27,-4
11990,13,-250,7,60,-28,-3
11995,7,-249,4,60,-26,-5
