timestamp,acc_x,acc_y,acc_z,gyro_x,gyro_y,gyro_z
0,10,-247,-1,56,9,-16
5,14,-250,-3,56,11,-15
10,13,-249,-3,56,11,-15
15,13,-247,-3,55,12,-14
20,15,-248,1,53,14,-14
25,15,-250,-3,50,13,-14
30,13,-247,0,49,14,-14
35,13,-248,-4,46,14,-15
40,14,-249,-4,45,14,-15
45,13,-252,-1,44,13,-14
50,14,-250,-1,44,12,-12
55,12,-253,0,44,10,-13
60,13,-252,-4,46,10,-14
65,13,-252,-2,47,9,-13
70,14,-251,-3,52,9,-14
75,14,-249,-1,56,11,-17
80,13,-249,1,62,12,-17
85,13,-250,-1,65,14,-17
90,14,-251,-3,68,15,-16
95,14,-249,0,70,17,-17
100,13,-247,-1,69,17,-17
105,12,-248,0,71,19,-18
110,12,-246,1,70,21,-17
115,11,-247,-1,70,21,-17
120,14,-248,-5,67,23,-18
125,14,-249,9,65,21,-15
130,11,-248,-2,63,21,-16
135,12,-246,1,61,20,-15
140,12,-248,-3,60,18,-14
145,13,-249,-2,59,19,-14
150,14,-250,-2,60,18,-14
155,14,-249,-1,61,17,-14
160,14,-249,-5,61,17,-13
165,10,-250,-5,63,16,-13
170,10,-252,-7,64,15,-12
175,13,-250,-3,65,15,-13
180,11,-247,-1,66,15,-12
185,14,-248,-4,66,15,-11
190,13,-250,-1,66,15,-12
195,12,-246,0,65,16,-12
200,12,-245,-1,65,17,-12
205,13,-248,-6,64,17,-13
210,12,-249,-1,63,18,-13
215,16,-249,-2,62,18,-11
220,14,-249,0,64,18,-10
225,12,-245,-1,64,18,-10
230,14,-249,1,64,17,-8
235,12,-245,-2,65,15,-10
240,14,-248,-1,65,15,-9
245,10,-247,-1,65,15,-10
250,13,-249,-3,65,13,-9
255,14,-248,-3,66,12,-9
260,16,-249,-1,66,10,-10
265,13,-249,-2,65,9,-10
270,11,-248,-1,68,9,-8
275,13,-249,0,70,11,-9
280,14,-248,0,69,9,-8
285,11,-248,-1,71,10,-9
290,13,-250,-2,69,10,-9
295,12,-249,-2,68,11,-12
300,13,-250,-1,66,10,-10
305,14,-250,0,63,12,-10
310,13,-246,-1,60,12,-12
315,12,-249,1,58,12,-12
320,13,-249,-1,55,12,-11
325,12,-249,-3,55,11,-11
330,17,-250,-2,55,9,-11
335,16,-249,-4,56,10,-11
340,12,-247,-1,59,8,-10
345,13,-252,-2,59,7,-9
350,14,-247,1,61,8,-8
355,14,-248,-6,63,6,-8
360,13,-249,-2,64,6,-8
365,14,-249,0,65,6,-10
370,12,-248,-1,67,7,-9
375,15,-250,-3,67,9,-10
380,12,-248,-3,69,10,-9
385,14,-250,0,70,9,-11
390,15,-247,0,71,8,-10
395,15,-247,0,72,9,-11
400,13,-248,-1,72,9,-11
405,10,-246,2,71,11,-11
410,12,-248,1,71,13,-12
415,13,-247,-4,68,14,-12
420,14,-248,-1,65,15,-12
425,11,-247,1,62,15,-12
430,15,-249,0,61,15,-11
435,11,-250,-2,59,16,-13
440,12,-247,1,58,14,-12
445,14,-249,-1,57,14,-11
450,12,-247,0,56,13,-12
455,14,-250,-3,59,11,-13
460,15,-247,1,59,10,-13
465,11,-248,0,60,10,-12
470,13,-250,0,61,10,-10
475,12,-250,-1,62,9,-10
480,12,-248,3,63,9,-11
485,13,-249,0,63,10,-12
490,13,-250,-1,63,10,-12
495,12,-249,-1,62,12,-11
500,24,-238,8,62,11,-10
505,12,-247,0,62,12,-11
510,14,-251,0,61,13,-11
515,9,-246,1,62,12,-12
520,14,-250,-5,60,11,-11
525,14,-248,-3,61,10,-13
530,13,-249,-1,60,11,-12
535,14,-250,-3,61,11,-11
540,13,-248,0,60,9,-10
545,13,-249,0,59,10,-12
550,10,-261,-16,60,10,-9
555,13,-248,0,60,8,-11
560,12,-251,0,61,9,-10
565,9,-248,-1,61,9,-11
570,13,-249,-3,62,8,-9
575,12,-248,-1,62,10,-10
580,12,-248,-2,64,9,-11
585,15,-253,1,65,10,-11
590,13,-246,3,67,10,-12
595,14,-249,0,68,9,-11
600,13,-248,2,69,11,-13
605,14,-247,-3,68,12,-10
610,13,-249,1,67,12,-11
615,9,-246,0,66,13,-11
620,14,-250,-2,66,12,-12
625,12,-247,-3,66,14,-12
630,11,-247,-1,65,12,-10
635,13,-248,-1,64,14,-10
640,12,-246,2,64,14,-9
645,12,-248,0,63,14,-9
650,13,-247,1,62,14,-10
655,15,-249,0,62,14,-10
660,13,-249,-1,63,14,-9
665,14,-249,-2,62,13,-9
670,14,-249,0,61,14,-8
675,15,-248,0,60,13,-10
680,15,-248,0,62,13,-11
685,15,-252,1,63,15,-9
690,13,-250,0,64,14,-10
695,12,-245,-2,64,13,-9
700,14,-248,0,65,13,-10
705,10,-251,1,66,13,-8
710,17,-250,0,66,14,-10
715,13,-250,0,67,14,-10
720,12,-248,2,68,15,-9
725,12,-249,0,69,15,-8
730,13,-248,-4,68,15,-11
735,14,-248,0,67,15,-11
740,15,-249,3,68,16,-11
745,11,-246,1,68,17,-8
750,13,-248,-1,67,17,-10
755,14,-251,0,68,16,-10
760,11,-251,0,67,14,-8
765,12,-250,1,66,13,-9
770,12,-248,0,65,13,-9
775,16,-251,3,62,13,-10
780,12,-246,0,61,14,-10
785,16,-246,1,60,13,-11
790,13,-249,-2,59,12,-10
795,10,-250,-3,57,12,-11
800,14,-249,-2,55,12,-10
805,13,-248,0,56,10,-11
810,12,-247,1,56,9,-11
815,13,-250,0,57,10,-11
820,19,-250,6,57,10,-11
825,13,-250,1,58,11,-9
830,15,-249,-4,60,12,-11
835,13,-250,1,60,14,-9
840,13,-250,0,60,16,-10
845,14,-248,-2,61,17,-10
850,12,-250,-1,62,18,-11
855,13,-249,-1,63,18,-10
860,14,-248,2,64,18,-10
865,12,-249,0,65,17,-13
870,13,-242,-9,65,17,-12
875,13,-248,-3,65,15,-12
880,12,-249,1,65,12,-12
885,12,-247,0,65,12,-9
890,16,-251,1,64,11,-10
895,11,-248,0,64,12,-10
900,12,-246,0,62,11,-11
905,13,-246,0,60,13,-11
910,13,-247,3,55,13,-12
915,12,-249,-1,55,13,-10
920,11,-246,0,53,13,-10
925,12,-247,1,50,14,-9
930,11,-248,-1,50,15,-10
935,14,-247,0,48,15,-11
940,12,-248,0,47,13,-11
945,12,-252,-1,48,11,-11
950,14,-249,-1,51,10,-11
955,15,-247,0,54,9,-11
960,13,-252,2,57,7,-10
965,9,-251,0,61,7,-10
970,13,-251,0,64,6,-9
975,11,-248,0,68,10,-10
980,14,-248,1,70,10,-11
985,13,-250,-2,71,11,-12
990,10,-248,-1,72,13,-12
995,14,-248,-2,72,16,-13
1000,11,-243,3,73,17,-13
1005,10,-244,2,71,18,-13
1010,12,-248,1,70,18,-13
1015,15,-247,0,66,18,-12
1020,15,-251,2,65,18,-11
1025,11,-247,0,63,19,-10
1030,16,-250,1,61,16,-11
1035,14,-249,3,58,17,-10
1040,13,-251,0,59,16,-11
1045,13,-250,3,59,15,-9
1050,12,-250,-2,61,14,-9
1055,13,-249,-2,65,12,-8
1060,13,-248,-2,67,12,-7
1065,10,-249,0,71,12,-8
1070,14,-252,-2,74,14,-8
1075,11,-248,1,75,14,-8
1080,12,-250,2,76,13,-9
1085,13,-248,-1,76,14,-9
1090,14,-246,0,76,14,-8
1095,15,-247,0,75,14,-8
1100,15,-247,1,74,14,-9
1105,12,-246,0,74,14,-9
1110,12,-245,1,73,13,-10
1115,14,-251,0,71,15,-10
1120,8,-247,1,71,15,-9
1125,14,-246,1,71,15,-8
1130,14,-246,5,70,15,-8
1135,14,-251,2,71,16,-7
1140,15,-247,2,72,15,-6
1145,11,-248,0,71,16,-8
1150,17,-247,4,69,14,-7
1155,15,-244,1,68,15,-9
1160,13,-251,1,68,15,-6
1165,16,-249,1,68,14,-6
1170,12,-247,0,68,14,-6
1175,15,-249,2,68,13,-7
1180,13,-250,2,69,13,-7
1185,12,-248,1,68,12,-7
1190,13,-248,-1,69,15,-7
1195,11,-245,0,69,13,-8
1200,14,-246,1,70,14,-8
1205,15,-248,1,69,15,-8
1210,13,-247,2,67,15,-9
1215,14,-246,2,66,17,-10
1220,11,-247,0,63,16,-9
1225,15,-247,1,59,17,-8
1230,10,-246,1,57,18,-9
1235,11,-248,1,54,17,-8
1240,12,-247,0,52,15,-9
1245,10,-246,3,50,15,-10
1250,13,-248,3,52,14,-8
1255,11,-251,-2,52,13,-8
1260,11,-249,1,52,11,-9
1265,13,-252,2,55,9,-9
1270,13,-248,1,57,10,-8
1275,14,-253,4,59,9,-7
1280,11,-251,-1,61,9,-7
1285,12,-248,0,62,11,-7
1290,11,-248,1,64,11,-7
1295,14,-250,1,65,10,-9
1300,11,-249,-2,65,10,-10
1305,15,-252,6,65,11,-10
1310,13,-249,1,65,11,-10
1315,15,-249,2,64,13,-10
1320,12,-250,0,61,13,-10
1325,15,-246,0,60,15,-10
1330,15,-248,0,58,14,-10
1335,12,-249,0,58,14,-12
1340,12,-249,0,56,14,-11
1345,14,-248,2,57,13,-11
1350,11,-248,1,56,12,-10
1355,13,-248,2,55,12,-12
1360,14,-248,-1,55,11,-10
1365,13,-249,1,54,11,-9
1370,15,-247,1,54,10,-10
1375,14,-248,0,53,10,-12
1380,13,-249,4,54,10,-11
1385,13,-246,3,55,9,-11
1390,12,-251,2,55,9,-11
1395,14,-247,2,55,9,-9
1400,14,-249,1,56,10,-10
1405,9,-251,0,56,10,-11
1410,12,-248,1,56,10,-10
1415,12,-248,1,55,11,-10
1420,13,-247,2,55,10,-11
1425,14,-251,0,56,11,-10
1430,12,-247,1,56,12,-10
1435,13,-247,4,55,12,-9
1440,14,-248,2,54,12,-8
1445,11,-250,2,54,11,-9
1450,13,-248,3,55,12,-10
1455,10,-248,6,55,13,-10
1460,14,-247,0,54,12,-10
1465,13,-249,1,54,12,-11
1470,13,-247,1,55,12,-10
1475,13,-248,0,55,12,-10
1480,13,-245,1,55,11,-10
1485,13,-248,1,56,12,-9
1490,13,-249,4,55,13,-8
1495,13,-249,3,56,12,-9
1500,13,-250,3,55,13,-10
1505,12,-250,1,56,12,-8
1510,9,-247,4,56,13,-9
1515,10,-247,-1,55,14,-9
1520,13,-245,0,54,13,-9
1525,13,-249,4,54,14,-11
1530,11,-250,2,54,13,-11
1535,14,-249,1,56,14,-10
1540,16,-248,2,56,14,-10
1545,9,-251,4,58,14,-10
1550,11,-248,0,59,13,-12
1555,16,-250,-2,59,12,-9
1560,13,-247,0,59,13,-9
1565,13,-253,0,57,11,-10
1570,14,-250,2,55,12,-9
1575,12,-247,4,53,9,-9
1580,14,-246,2,53,9,-10
1585,11,-247,1,51,9,-9
1590,14,-250,1,50,10,-7
1595,12,-248,1,48,10,-7
1600,13,-250,1,47,10,-9
1605,10,-245,0,47,10,-9
1610,11,-246,0,47,11,-8
1615,12,-252,3,46,12,-9
1620,14,-250,0,45,9,-9
1625,12,-250,0,46,11,-10
1630,13,-248,2,46,11,-11
1635,13,-249,1,47,9,-10
1640,13,-247,1,48,9,-9
1645,12,-250,1,49,9,-9
1650,12,-250,3,51,8,-8
1655,12,-248,0,52,9,-10
1660,14,-249,1,54,8,-9
1665,15,-250,3,53,9,-10
1670,11,-249,3,52,9,-10
1675,14,-248,2,52,8,-12
1680,11,-248,1,51,9,-10
1685,13,-245,5,49,9,-11
1690,16,-246,0,47,9,-12
1695,15,-247,0,44,10,-10
1700,13,-248,3,41,10,-10
1705,12,-249,3,38,10,-10
1710,10,-247,4,36,9,-10
1715,13,-247,1,32,9,-9
1720,11,-248,3,28,7,-7
1725,13,-249,1,27,6,-7
1730,15,-251,2,26,5,-7
1735,13,-251,0,27,5,-8
1740,17,-252,-1,29,5,-6
1745,13,-251,0,31,4,-7
1750,12,-253,1,33,5,-8
1755,14,-251,0,36,7,-9
1760,12,-249,1,39,9,-7
1765,13,-250,0,40,11,-8
1770,12,-249,1,41,11,-6
1775,14,-250,2,43,12,-9
1780,15,-248,2,44,14,-11
1785,14,-251,3,45,13,-11
1790,10,-247,2,46,12,-11
1795,13,-246,1,46,12,-12
1800,11,-247,1,47,13,-11
1805,12,-245,1,48,10,-9
1810,13,-249,1,48,11,-11
1815,14,-244,1,49,11,-11
1820,11,-248,0,48,13,-11
1825,12,-247,1,47,11,-12
1830,12,-246,1,45,12,-12
1835,11,-248,0,44,12,-12
1840,16,-249,1,40,11,-11
1845,14,-247,1,38,11,-11
1850,14,-248,0,35,10,-11
1855,13,-250,0,34,11,-10
1860,11,-250,1,32,11,-9
1865,11,-248,1,32,10,-10
1870,14,-247,0,33,8,-10
1875,11,-248,1,34,5,-8
1880,14,-252,2,35,4,-8
1885,12,-253,4,36,4,-10
1890,14,-249,0,37,3,-9
1895,15,-251,1,39,4,-11
1900,12,-250,4,41,6,-11
1905,11,-247,0,43,9,-10
1910,9,-249,2,45,12,-11
1915,9,-243,0,48,13,-13
1920,11,-245,1,50,13,-14
1925,10,-244,1,50,13,-13
1930,15,-246,1,51,14,-13
1935,11,-249,3,49,15,-14
1940,12,-247,0,49,13,-13
1945,9,-244,-1,45,12,-14
1950,13,-245,0,44,12,-13
1955,14,-250,4,42,9,-10
1960,14,-248,0,41,7,-10
1965,14,-248,2,41,6,-10
1970,13,-250,-1,40,5,-10
1975,14,-250,1,41,3,-8
1980,14,-247,1,41,3,-8
1985,13,-253,-2,43,2,-8
1990,12,-250,2,45,1,-6
1995,9,-247,1,46,2,-9
2000,14,-249,0,46,3,-8
2005,13,-249,-2,49,4,-7
2010,14,-251,-1,48,4,-10
2015,11,-247,4,49,5,-8
2020,14,-248,0,48,5,-10
2025,11,-249,2,47,7,-11
2030,12,-247,1,46,8,-9
2035,15,-247,2,44,8,-9
2040,14,-250,0,44,7,-8
2045,13,-252,2,44,8,-9
2050,10,-246,1,45,10,-9
2055,10,-246,1,46,9,-10
2060,13,-248,1,47,8,-8
2065,12,-246,4,49,7,-10
2070,14,-247,-2,50,6,-11
2075,12,-245,-3,49,6,-11
2080,12,-249,2,50,7,-10
2085,10,-250,1,51,7,-9
2090,11,-249,2,51,8,-11
2095,11,-248,0,50,9,-11
2100,9,-247,1,52,9,-12
2105,12,-248,1,53,11,-13
2110,12,-248,0,55,12,-12
2115,12,-249,2,55,13,-12
2120,11,-247,-1,55,13,-13
2125,14,-244,0,53,12,-13
2130,13,-247,2,50,12,-11
2135,12,-249,-2,47,12,-11
2140,11,-248,4,43,12,-11
2145,13,-249,-3,41,12,-13
2150,11,-248,0,39,10,-11
2155,12,-248,-1,37,8,-11
2160,12,-249,1,38,7,-11
2165,11,-247,0,38,6,-10
2170,11,-246,0,38,4,-10
2175,13,-248,1,40,4,-9
2180,15,-250,0,41,4,-9
2185,11,-247,-4,42,5,-11
2190,12,-247,0,43,5,-10
2195,14,-253,2,43,5,-12
2200,10,-246,0,42,4,-11
2205,20,-239,6,42,7,-10
2210,11,-248,-1,42,7,-11
2215,10,-249,0,43,8,-12
2220,12,-248,0,44,9,-13
2225,10,-244,-1,45,8,-14
2230,10,-252,1,45,10,-15
2235,12,-246,0,46,9,-15
2240,11,-249,1,45,9,-14
2245,11,-247,1,46,9,-14
2250,13,-250,2,45,8,-12
2255,11,-246,0,46,9,-12
2260,13,-248,-3,45,8,-14
2265,16,-250,0,45,8,-16
2270,11,-248,0,46,7,-15
2275,12,-248,-1,46,7,-16
2280,10,-248,-3,45,6,-13
2285,14,-249,1,45,7,-14
2290,15,-247,-2,44,7,-12
2295,11,-248,0,42,7,-13
2300,12,-244,1,41,6,-14
2305,14,-249,-2,40,6,-14
2310,12,-246,1,40,7,-13
2315,14,-253,0,40,8,-14
2320,15,-249,1,39,7,-13
2325,11,-249,0,39,8,-13
2330,12,-247,1,36,12,-18
2335,16,-247,0,39,12,-16
2340,12,-249,0,41,10,-13
2345,13,-248,2,42,10,-14
2350,12,-248,2,41,11,-11
2355,14,-250,1,41,12,-13
2360,11,-247,0,40,11,-12
2365,13,-248,0,40,13,-12
2370,16,-247,1,39,12,-13
2375,15,-248,-1,40,12,-11
2380,13,-248,0,42,11,-14
2385,11,-248,-1,42,11,-11
2390,13,-252,0,44,9,-10
2395,14,-248,-3,44,9,-9
2400,14,-249,0,44,9,-10
2405,8,-248,1,43,9,-11
2410,12,-250,0,44,9,-10
2415,10,-249,-3,45,9,-11
2420,13,-248,0,46,11,-11
2425,14,-249,0,47,11,-11
2430,13,-251,0,49,12,-10
2435,11,-249,0,49,12,-12
2440,12,-247,0,49,13,-11
2445,11,-249,0,49,15,-12
2450,13,-247,-4,48,16,-12
2455,14,-248,0,48,16,-11
2460,11,-249,-2,46,16,-11
2465,12,-248,-3,45,15,-10
2470,11,-245,2,45,17,-11
2475,12,-247,-2,46,16,-12
2480,13,-248,0,48,16,-12
2485,11,-247,-4,48,15,-12
2490,11,-249,-1,48,17,-11
2495,12,-246,-2,51,16,-10
2500,13,-247,0,49,17,-11
2505,15,-251,0,52,16,-12
2510,12,-247,-2,52,18,-11
2515,11,-246,-1,51,18,-11
2520,13,-248,0,49,19,-11
2525,14,-249,1,49,19,-11
2530,14,-248,-5,47,19,-10
2535,11,-252,1,47,19,-11
2540,12,-247,-3,47,18,-11
2545,12,-249,-1,49,18,-13
2550,13,-249,-2,49,19,-12
2555,13,-246,-2,49,18,-11
2560,12,-252,-2,49,18,-12
2565,15,-245,2,49,18,-10
2570,13,-250,-3,49,18,-10
2575,11,-246,-1,49,18,-11
2580,15,-249,0,48,20,-11
2585,14,-248,-4,49,20,-11
2590,16,-251,-2,48,20,-12
2595,12,-251,-2,48,21,-11
2600,13,-250,0,48,19,-14
2605,12,-248,1,47,20,-13
2610,13,-247,-1,47,19,-13
2615,14,-248,0,46,20,-12
2620,12,-250,-6,45,18,-11
2625,14,-247,0,42,17,-9
2630,13,-248,-1,41,16,-11
2635,15,-250,-2,42,16,-11
2640,9,-249,0,42,15,-10
2645,14,-249,-1,42,14,-10
2650,13,-248,-3,44,15,-10
2655,11,-249,-3,46,15,-10
2660,12,-250,-4,46,15,-10
2665,12,-249,0,48,15,-10
2670,11,-247,-1,49,16,-11
2675,13,-250,1,49,18,-10
2680,11,-249,0,50,20,-11
2685,15,-248,3,52,22,-9
2690,13,-248,0,54,23,-8
2695,12,-251,-2,56,24,-9
2700,12,-247,-1,58,24,-11
2705,13,-250,-2,58,24,-11
2710,14,-253,1,55,22,-13
2715,11,-249,-2,53,19,-12
2720,14,-251,1,50,17,-11
2725,11,-247,1,50,15,-10
2730,13,-247,0,52,11,-11
2735,11,-247,1,53,11,-10
2740,14,-250,1,56,9,-8
2745,11,-246,0,57,9,-10
2750,15,-247,-3,59,9,-10
2755,11,-247,0,59,10,-11
2760,10,-247,0,58,11,-13
2765,14,-250,0,56,12,-11
2770,14,-250,-1,52,13,-10
2775,13,-249,0,47,16,-10
2780,13,-250,-1,41,16,-11
2785,15,-250,-2,38,17,-10
2790,10,-249,0,36,16,-9
2795,16,-251,0,34,14,-8
2800,11,-251,0,35,12,-9
2805,11,-247,1,38,10,-9
2810,12,-249,0,41,8,-9
2815,14,-252,-1,46,8,-9
2820,9,-248,1,50,7,-9
2825,10,-250,0,57,9,-10
2830,14,-251,-1,61,9,-9
2835,12,-250,0,65,10,-11
2840,12,-248,0,67,10,-13
2845,15,-249,-1,69,14,-12
2850,10,-245,0,69,15,-14
2855,11,-247,0,67,15,-12
2860,13,-247,3,66,15,-11
2865,11,-247,0,65,16,-11
2870,13,-246,-1,62,16,-12
2875,14,-249,-1,59,16,-10
2880,10,-249,0,58,15,-12
2885,12,-253,0,56,12,-9
2890,13,-249,-2,55,11,-10
2895,14,-250,3,55,9,-9
2900,20,-245,11,54,7,-8
2905,16,-251,-3,56,5,-8
2910,14,-250,-4,58,4,-8
2915,12,-250,-2,60,4,-8
2920,13,-248,-1,62,4,-6
2925,15,-251,-2,63,5,-7
2930,11,-253,-2,63,6,-9
2935,13,-250,-2,65,7,-9
2940,10,-248,-5,63,11,-9
2945,13,-246,0,64,13,-11
2950,13,-243,-3,63,13,-12
2955,14,-249,-2,63,13,-12
2960,12,-250,0,63,13,-12
2965,14,-249,0,63,14,-11
2970,14,-246,0,63,14,-12
2975,13,-248,-3,64,14,-11
2980,11,-249,0,64,13,-11
2985,12,-250,2,63,11,-11
2990,15,-248,-1,62,9,-10
2995,14,-251,-2,63,10,-11
3000,12,-249,-1,62,8,-11
3005,12,-249,-1,60,7,-11
3010,11,-251,-8,59,9,-9
3015,11,-248,1,58,8,-9
3020,16,-251,-1,59,7,-9
3025,11,-249,-1,60,9,-11
3030,14,-252,1,61,9,-10
3035,13,-248,0,64,12,-13
3040,14,-251,-2,66,12,-11
3045,12,-248,1,66,11,-13
3050,5,-245,0,68,13,-14
3055,13,-246,-3,65,13,-13
3060,11,-247,-1,65,13,-13
3065,12,-247,1,61,12,-12
3070,12,-246,0,59,13,-12
3075,12,-250,0,56,14,-12
3080,13,-248,-3,54,13,-12
3085,15,-249,1,53,12,-11
3090,12,-248,-2,51,11,-11
3095,15,-250,0,51,9,-9
3100,12,-250,0,52,7,-8
3105,11,-248,-3,52,6,-6
3110,14,-250,-2,52,5,-7
3115,14,-249,-3,52,6,-9
3120,13,-248,1,54,5,-9
3125,15,-247,-2,55,4,-9
3130,11,-249,-1,58,6,-10
3135,12,-247,1,60,5,-10
3140,13,-249,0,61,6,-10
3145,12,-250,0,62,6,-11
3150,15,-249,0,62,8,-10
3155,7,-248,0,64,8,-11
3160,12,-247,-3,63,10,-12
3165,14,-248,-2,63,11,-12
3170,12,-248,0,64,11,-14
3175,16,-249,1,63,10,-13
3180,11,-248,0,64,11,-13
3185,12,-247,-2,64,12,-11
3190,12,-249,0,63,11,-10
3195,13,-250,2,62,13,-11
3200,10,-251,1,62,13,-12
3205,13,-248,-2,63,11,-11
3210,14,-249,1,62,11,-11
3215,13,-248,-2,61,10,-12
3220,19,-252,0,61,10,-11
3225,13,-248,-1,61,8,-11
3230,15,-249,0,61,7,-12
3235,12,-251,0,61,8,-12
3240,12,-250,-2,63,8,-11
3245,14,-249,-1,62,8,-11
3250,12,-250,0,63,8,-12
3255,13,-249,2,63,8,-12
3260,11,-249,1,64,10,-12
3265,13,-250,1,65,10,-10
3270,12,-244,0,64,11,-12
3275,9,-250,-1,62,11,-11
3280,13,-247,0,62,12,-12
3285,13,-250,0,62,13,-10
3290,13,-252,-2,61,13,-10
3295,13,-246,-3,60,13,-9
3300,12,-245,0,62,13,-10
3305,11,-247,-2,61,12,-10
3310,17,-248,-3,62,14,-10
3315,14,-251,-2,62,14,-10
3320,13,-247,1,64,15,-10
3325,11,-249,0,64,14,-9
3330,11,-248,0,64,14,-11
3335,14,-251,-3,63,14,-10
3340,14,-251,-2,65,15,-12
3345,15,-251,-3,64,16,-10
3350,11,-247,1,64,14,-9
3355,10,-249,0,65,14,-11
3360,12,-247,-1,63,13,-9
3365,10,-249,0,64,13,-10
3370,14,-246,1,64,12,-9
3375,13,-246,-1,64,12,-9
3380,12,-248,0,66,12,-10
3385,15,-250,-1,66,13,-10
3390,12,-249,0,65,13,-7
3395,13,-248,-4,65,13,-8
3400,12,-250,0,65,14,-9
3405,10,-246,-1,65,14,-10
3410,10,-248,0,65,15,-11
3415,12,-253,1,64,16,-10
3420,12,-249,-1,63,15,-10
3425,12,-250,3,63,15,-10
3430,12,-249,0,62,15,-10
3435,10,-245,-3,63,15,-9
3440,15,-249,0,63,16,-8
3445,14,-252,1,63,16,-8
3450,15,-249,1,65,17,-8
3455,12,-247,-2,66,17,-9
3460,12,-248,2,67,17,-10
3465,12,-251,-1,65,17,-10
3470,15,-250,-1,65,16,-10
3475,14,-252,1,65,16,-8
3480,14,-251,-2,66,16,-9
3485,12,-249,1,66,16,-9
3490,13,-248,0,67,15,-9
3495,12,-247,0,67,16,-10
3500,12,-246,0,68,15,-9
3505,13,-246,-1,68,14,-10
3510,15,-251,-1,70,14,-10
3515,15,-250,-4,70,14,-9
3520,13,-247,0,73,12,-11
3525,11,-248,-1,73,11,-11
3530,13,-250,0,74,12,-11
3535,13,-251,3,75,11,-11
3540,15,-247,0,75,11,-11
3545,11,-249,0,74,13,-11
3550,11,-248,0,72,12,-10
3555,12,-246,2,70,12,-11
3560,13,-246,2,67,13,-10
3565,14,-248,-1,66,12,-10
3570,14,-247,5,63,12,-9
3575,10,-245,0,61,12,-7
3580,12,-248,0,60,12,-8
3585,15,-252,0,60,11,-7
3590,14,-250,8,63,10,-9
3595,16,-249,0,65,11,-9
3600,11,-247,1,68,11,-10
3605,14,-249,2,72,11,-10
3610,10,-244,0,73,11,-10
3615,15,-247,1,75,12,-10
3620,12,-250,1,74,14,-10
3625,13,-249,-1,72,15,-9
3630,14,-249,0,70,17,-10
3635,13,-249,0,68,18,-12
3640,13,-249,1,68,21,-12
3645,13,-249,1,66,22,-11
3650,14,-248,0,65,23,-12
3655,15,-250,0,64,24,-11
3660,11,-245,3,64,22,-13
3665,13,-247,0,64,21,-12
3670,12,-250,-1,64,19,-12
3675,14,-250,5,65,17,-14
3680,13,-248,1,65,16,-12
3685,15,-249,0,65,16,-11
3690,11,-245,0,63,14,-11
3695,11,-247,0,61,15,-10
3700,12,-247,2,60,15,-10
3705,13,-248,0,56,14,-10
3710,13,-247,2,55,15,-11
3715,11,-245,0,52,16,-11
3720,12,-246,-1,50,17,-12
3725,11,-246,1,49,18,-10
3730,14,-249,0,50,16,-12
3735,14,-250,0,50,16,-10
3740,14,-248,1,51,14,-11
3745,12,-253,-2,52,12,-9
3750,13,-248,1,54,11,-9
3755,14,-250,1,56,8,-8
3760,12,-249,0,58,9,-9
3765,12,-251,1,60,9,-9
3770,13,-250,2,63,9,-10
3775,10,-250,1,64,10,-9
3780,13,-249,1,65,11,-10
3785,11,-246,0,65,13,-11
3790,14,-250,1,65,13,-12
3795,12,-246,1,64,15,-11
3800,13,-248,0,62,18,-12
3805,12,-248,1,61,17,-12
3810,14,-248,3,59,17,-11
3815,13,-250,0,56,17,-12
3820,13,-250,0,55,16,-12
3825,12,-245,1,53,14,-9
3830,12,-245,1,52,14,-9
3835,16,-249,0,51,14,-10
3840,12,-249,-1,51,12,-9
3845,16,-251,0,53,11,-8
3850,13,-251,2,53,9,-7
3855,13,-250,1,54,9,-8
3860,12,-252,1,56,8,-7
3865,15,-249,0,58,9,-8
3870,14,-247,2,61,9,-9
3875,14,-248,2,61,8,-7
3880,10,-250,0,63,9,-9
3885,12,-246,0,63,11,-7
3890,11,-248,0,63,12,-9
3895,9,-247,1,65,13,-9
3900,12,-249,0,66,13,-8
3905,11,-247,3,65,15,-7
3910,18,-250,0,66,15,-6
3915,13,-251,0,65,14,-6
3920,15,-248,2,64,16,-9
3925,12,-251,1,64,14,-8
3930,12,-251,1,63,14,-8
3935,14,-248,2,62,15,-8
3940,11,-248,0,61,14,-9
3945,13,-248,1,59,16,-9
3950,13,-247,1,59,15,-8
3955,12,-250,4,58,15,-9
3960,12,-246,0,60,13,-9
3965,13,-246,1,60,13,-10
3970,14,-249,1,59,12,-10
3975,12,-248,1,59,13,-9
3980,16,-249,3,59,12,-11
3985,11,-248,1,59,12,-11
3990,15,-250,2,57,13,-11
3995,12,-247,1,55,12,-10
4000,11,-249,-2,54,11,-9
4005,14,-247,0,50,12,-10
4010,12,-250,0,45,10,-7
4015,15,-249,-2,41,8,-8
4020,12,-248,3,37,7,-8
4025,13,-248,-3,32,6,-6
4030,13,-250,-1,29,4,-6
4035,15,-251,0,28,3,-3
4040,14,-252,1,26,4,-2
4045,16,-249,-1,24,4,1
4050,14,-252,-4,21,8,5
4055,17,-254,-1,19,11,8
4060,17,-254,-1,21,15,9
4065,15,-256,-4,23,18,11
4070,17,-255,-2,27,24,14
4075,16,-253,0,32,25,18
4080,15,-255,-1,38,24,19
4085,16,-252,-2,42,22,21
4090,15,-252,-3,42,20,26
4095,15,-251,-4,39,17,27
4100,14,-252,-3,31,17,32
4105,14,-252,-7,19,18,35
4110,13,-251,-4,7,18,34
4115,11,-253,-6,-7,20,37
4120,12,-254,-4,-18,22,38
4125,12,-254,-6,-25,26,41
4130,11,-255,-9,-29,29,42
4135,13,-251,-7,-32,30,46
4140,12,-251,-8,-34,34,48
4145,11,-250,-11,-37,35,50
4150,11,-248,-13,-44,39,53
4155,11,-249,-11,-51,42,57
4160,15,-248,-15,-60,49,58
4165,14,-250,-11,-72,54,59
4170,10,-245,-10,-82,62,63
4175,12,-245,-13,-96,71,64
4180,13,-248,-13,-108,78,64
4185,15,-243,-12,-122,88,63
4190,15,-247,-15,-133,98,63
4195,13,-242,-11,-145,109,59
4200,13,-244,-7,-157,120,58
4205,13,-244,-14,-168,133,55
4210,11,-243,-11,-176,144,52
4215,18,-245,-11,-184,154,50
4220,14,-243,-17,-192,163,48
4225,13,-243,-18,-200,172,47
4230,15,-241,-17,-207,182,47
4235,17,-244,-20,-211,193,47
4240,13,-242,-21,-216,204,49
4245,15,-244,-20,-217,213,48
4250,14,-237,-22,-218,222,48
4255,15,-241,-20,-214,229,51
4260,19,-237,-24,-211,238,53
4265,18,-235,-23,-208,242,58
4270,13,-233,-23,-206,247,64
4275,14,-232,-22,-207,251,69
4280,13,-229,-24,-211,253,76
4285,14,-227,-27,-218,255,84
4290,15,-226,-26,-229,254,92
4295,11,-224,-26,-243,253,100
4300,8,-219,-27,-261,251,112
4305,6,-220,-28,-280,247,120
4310,9,-218,-27,-301,240,132
4315,10,-219,-34,-320,232,142
4320,6,-212,-32,-337,225,152
4325,8,-216,-32,-353,217,160
4330,6,-216,-34,-366,213,171
4335,6,-213,-36,-377,207,179
4340,3,-212,-30,-387,201,185
4345,5,-211,-31,-395,198,193
4350,3,-209,-36,-405,194,201
4355,3,-207,-37,-418,190,208
4360,5,-206,-29,-433,188,213
4365,2,-201,-37,-450,185,218
4370,4,-202,-38,-467,181,218
4375,2,-201,-36,-484,176,219
4380,3,-201,-32,-501,172,219
4385,4,-203,-36,-516,165,217
4390,6,-203,-34,-526,159,216
4395,4,-199,-29,-531,150,210
4400,7,-201,-26,-531,145,202
4405,8,-204,-28,-528,141,192
4410,7,-204,-29,-523,137,179
4415,7,-205,-30,-519,134,160
4420,6,-206,-34,-513,127,140
4425,7,-205,-35,-506,118,120
4430,6,-203,-30,-501,108,98
4435,9,-204,-36,-498,94,76
4440,5,-202,-34,-499,87,53
4445,6,-203,-37,-506,85,32
4450,9,-199,-35,-518,87,11
4455,11,-196,-37,-536,95,-10
4460,9,-199,-39,-560,109,-31
4465,8,-200,-34,-590,126,-48
4470,10,-200,-32,-625,142,-65
4475,11,-204,-33,-662,158,-83
4480,13,-202,-36,-702,175,-96
4485,12,-208,-37,-739,190,-109
4490,13,-211,-36,-773,206,-118
4495,13,-216,-38,-798,221,-126
4500,15,-219,-41,-814,234,-135
4505,15,-212,-24,-817,248,-145
4510,14,-224,-40,-809,263,-150
4515,17,-226,-46,-792,276,-155
4520,18,-230,-48,-769,291,-160
4525,18,-229,-54,-740,305,-168
4530,20,-231,-54,-707,318,-174
4535,17,-228,-56,-671,331,-183
4540,16,-224,-62,-638,342,-191
4545,17,-223,-67,-609,351,-198
4550,14,-219,-66,-585,358,-203
4555,12,-215,-70,-567,365,-205
4560,13,-216,-71,-557,370,-205
4565,12,-213,-68,-555,377,-204
4570,7,-209,-72,-557,381,-201
4575,6,-204,-67,-565,387,-197
4580,6,-204,-67,-578,387,-189
4585,1,-201,-73,-593,385,-179
4590,3,-203,-72,-614,375,-167
4595,-1,-201,-71,-632,362,-155
4600,-3,-205,-68,-647,348,-143
4605,-2,-202,-64,-663,326,-128
4610,0,-207,-65,-677,300,-114
4615,-5,-204,-62,-687,272,-101
4620,-7,-202,-63,-697,245,-87
4625,-8,-205,-60,-702,215,-78
4630,-8,-205,-61,-702,184,-69
4635,-6,-208,-54,-696,153,-63
4640,-7,-208,-54,-682,122,-59
4645,-8,-210,-52,-665,93,-59
4650,-5,-211,-54,-644,65,-62
4655,-4,-210,-57,-625,39,-68
4660,-3,-211,-56,-606,17,-77
4665,-1,-211,-58,-590,0,-87
4670,-2,-213,-62,-574,-11,-99
4675,2,-212,-64,-563,-17,-108
4680,2,-211,-66,-553,-16,-119
4685,2,-212,-66,-544,-10,-130
4690,5,-208,-65,-538,3,-139
4695,7,-209,-72,-532,17,-147
4700,11,-208,-69,-528,34,-153
4705,17,-207,-69,-526,51,-157
4710,15,-208,-69,-525,73,-162
4715,21,-209,-75,-525,93,-165
4720,19,-206,-78,-526,113,-167
4725,26,-210,-81,-526,135,-170
4730,29,-209,-82,-529,152,-170
4735,32,-210,-80,-530,166,-171
4740,31,-211,-83,-533,175,-171
4745,32,-213,-82,-537,180,-172
4750,33,-214,-85,-538,183,-174
4755,33,-218,-89,-536,176,-176
4760,27,-218,-89,-531,169,-180
4765,28,-223,-91,-526,158,-182
4770,24,-222,-96,-522,146,-183
4775,21,-225,-97,-520,135,-180
4780,16,-226,-97,-521,119,-178
4785,16,-229,-98,-523,108,-172
4790,11,-232,-101,-525,96,-165
4795,8,-234,-102,-529,82,-155
4800,3,-237,-103,-533,69,-145
4805,0,-241,-110,-537,59,-136
4810,-2,-248,-109,-536,51,-127
4815,0,-248,-106,-530,45,-114
4820,-2,-254,-104,-516,39,-104
4825,-7,-255,-108,-493,31,-93
4830,-5,-264,-100,-461,22,-83
4835,-7,-258,-105,-427,12,-70
4840,-1,-260,-102,-386,-1,-57
4845,-3,-257,-96,-347,-17,-42
4850,0,-258,-104,-311,-29,-29
4855,1,-257,-105,-277,-39,-16
4860,1,-255,-103,-246,-48,0
4865,4,-256,-103,-220,-54,14
4870,9,-250,-99,-199,-61,30
4875,14,-251,-105,-183,-71,44
4880,15,-249,-105,-171,-83,55
4885,24,-245,-99,-162,-94,60
4890,24,-244,-102,-160,-100,60
4895,29,-242,-102,-157,-100,59
4900,33,-236,-103,-155,-94,53
4905,29,-236,-103,-153,-88,47
4910,29,-233,-101,-151,-80,39
4915,31,-232,-101,-154,-72,30
4920,32,-229,-105,-160,-64,21
4925,29,-224,-105,-168,-54,10
4930,28,-225,-103,-180,-44,2
4935,24,-221,-101,-196,-33,-4
4940,26,-220,-104,-209,-26,-14
4945,20,-218,-103,-223,-21,-21
4950,20,-218,-105,-236,-19,-28
4955,17,-220,-101,-250,-18,-36
4960,14,-215,-102,-260,-21,-39
4965,7,-214,-102,-273,-17,-41
4970,9,-218,-108,-286,-18,-40
4975,6,-219,-102,-294,-21,-40
4980,4,-219,-104,-298,-29,-38
4985,1,-223,-105,-299,-41,-32
4990,0,-222,-110,-302,-52,-29
4995,0,-223,-105,-303,-61,-24
5000,-1,-226,-112,-303,-71,-19
5005,0,-225,-111,-300,-78,-15
5010,0,-228,-110,-298,-88,-9
5015,1,-233,-114,-293,-96,-4
5020,5,-230,-110,-282,-102,-1
5025,6,-238,-111,-270,-108,-1
5030,9,-234,-111,-255,-112,-2
5035,13,-236,-112,-239,-113,-3
5040,20,-237,-114,-224,-108,-4
5045,21,-236,-109,-205,-101,-10
5050,28,-235,-112,-182,-92,-13
5055,29,-237,-114,-158,-85,-18
5060,33,-236,-114,-137,-79,-23
5065,35,-237,-113,-115,-76,-31
5070,35,-231,-120,-93,-74,-47
5075,36,-231,-123,-74,-71,-60
5080,35,-231,-124,-54,-69,-73
5085,34,-228,-124,-37,-66,-84
5090,31,-229,-127,-24,-61,-92
5095,26,-224,-130,-14,-55,-99
5100,22,-226,-131,-10,-48,-102
5105,23,-222,-129,-7,-43,-106
5110,20,-224,-131,-5,-40,-109
5115,16,-218,-130,-1,-36,-110
5120,13,-217,-129,1,-32,-108
5125,11,-216,-130,4,-28,-107
5130,10,-216,-127,7,-24,-101
5135,12,-214,-130,8,-19,-95
5140,8,-216,-128,10,-11,-89
5145,8,-213,-130,12,-7,-85
5150,9,-216,-132,12,-5,-81
5155,5,-213,-132,12,-3,-81
5160,7,-217,-133,14,-3,-79
5165,6,-219,-134,18,-5,-80
5170,8,-220,-135,20,-9,-76
5175,10,-220,-137,21,-13,-76
5180,13,-221,-138,22,-13,-72
5185,13,-223,-138,26,-17,-71
5190,16,-226,-138,30,-23,-66
5195,17,-225,-139,35,-35,-63
5200,20,-226,-141,41,-47,-60
5205,24,-226,-142,48,-58,-59
5210,26,-225,-144,53,-67,-56
5215,29,-226,-141,52,-75,-54
5220,24,-223,-139,51,-79,-54
5225,29,-220,-138,42,-85,-58
5230,28,-222,-138,26,-88,-59
5235,25,-216,-141,6,-90,-62
5240,24,-216,-135,-14,-90,-66
5245,26,-216,-135,-38,-89,-65
5250,25,-215,-128,-62,-90,-68
5255,20,-216,-142,-82,-92,-69
5260,23,-216,-133,-98,-90,-66
5265,24,-214,-137,-110,-84,-69
5270,26,-215,-137,-119,-71,-73
5275,29,-218,-133,-134,-56,-71
5280,26,-217,-130,-152,-41,-67
5285,25,-220,-129,-167,-32,-67
5290,26,-218,-129,-179,-25,-69
5295,22,-222,-127,-190,-19,-74
5300,21,-223,-129,-206,-19,-75
5305,22,-227,-128,-224,-23,-75
5310,21,-223,-129,-241,-25,-84
5315,14,-224,-137,-260,-21,-95
5320,13,-227,-137,-280,-19,-104
5325,14,-226,-142,-298,-16,-105
5330,20,-231,-144,-314,-8,-100
5335,20,-226,-144,-323,3,-98
5340,20,-227,-146,-328,5,-95
5345,28,-229,-144,-328,6,-88
5350,24,-226,-147,-323,8,-83
5355,27,-226,-151,-320,13,-77
5360,27,-223,-148,-317,14,-76
5365,25,-222,-144,-311,12,-72
5370,24,-218,-151,-301,1,-69
5375,21,-216,-144,-292,-9,-69
5380,21,-217,-149,-284,-22,-69
5385,20,-218,-148,-279,-32,-69
5390,20,-218,-151,-279,-39,-67
5395,23,-217,-154,-281,-37,-64
5400,21,-214,-157,-290,-31,-62
5405,19,-211,-159,-309,-24,-55
5410,20,-209,-161,-333,-18,-45
5415,25,-211,-160,-361,-18,-36
5420,29,-211,-162,-389,-18,-29
5425,28,-208,-165,-415,-12,-21
5430,24,-210,-164,-435,-15,-14
5435,27,-210,-159,-452,-29,-11
5440,27,-207,-161,-470,-42,-14
5445,28,-206,-158,-482,-56,-14
5450,31,-208,-156,-495,-67,-15
5455,27,-209,-153,-504,-70,-17
5460,29,-217,-153,-500,-73,-27
5465,25,-220,-149,-480,-74,-52
5470,21,-220,-148,-443,-68,-84
5475,18,-219,-151,-394,-53,-105
5480,12,-215,-153,-337,-36,-121
5485,10,-214,-157,-280,-17,-128
5490,8,-214,-155,-230,2,-127
5495,4,-212,-160,-191,13,-120
5500,5,-211,-161,-164,18,-110
5505,11,-214,-169,-147,23,-99
5510,8,-212,-172,-145,21,-88
5515,14,-213,-180,-149,17,-75
5520,20,-213,-180,-157,11,-59
5525,22,-219,-182,-160,5,-52
5530,21,-217,-183,-159,-4,-50
5535,23,-217,-178,-156,-13,-42
5540,32,-220,-186,-146,-30,-33
5545,30,-218,-181,-137,-41,-37
5550,32,-218,-175,-124,-53,-38
5555,33,-218,-178,-111,-64,-43
5560,33,-213,-173,-108,-68,-46
5565,27,-209,-171,-108,-69,-45
5570,24,-206,-167,-108,-69,-45
5575,24,-206,-171,-112,-72,-44
5580,22,-202,-168,-117,-72,-49
5585,21,-202,-173,-117,-70,-56
5590,20,-201,-167,-110,-62,-61
5595,16,-202,-162,-96,-57,-60
5600,14,-198,-161,-85,-54,-58
5605,11,-204,-160,-75,-55,-52
5610,18,-206,-153,-70,-53,-48
5615,14,-204,-153,-70,-52,-55
5620,15,-201,-152,-64,-50,-63
5625,15,-201,-151,-54,-46,-59
5630,18,-201,-152,-31,-50,-54
5635,20,-206,-155,-11,-53,-51
5640,18,-202,-159,9,-54,-61
5645,16,-216,-176,11,-48,-60
5650,22,-201,-166,16,-36,-59
5655,31,-205,-178,18,-25,-57
5660,27,-202,-170,15,-16,-49
5665,23,-201,-176,8,-11,-44
5670,27,-201,-172,-7,-14,-39
5675,22,-199,-176,-20,-19,-36
5680,31,-202,-174,-32,-21,-25
5685,28,-204,-177,-40,-22,-20
5690,29,-209,-171,-42,-22,-12
5695,27,-207,-171,-42,-24,-4
5700,26,-206,-172,-35,-31,1
5705,30,-204,-170,-25,-40,4
5710,30,-203,-168,-15,-42,8
5715,27,-203,-163,-2,-46,6
5720,30,-202,-165,12,-49,4
5725,31,-205,-163,18,-44,0
5730,27,-199,-163,25,-40,-1
5735,29,-195,-162,34,-38,-4
5740,27,-193,-166,45,-28,-4
5745,28,-191,-164,51,-16,-5
5750,30,-192,-162,56,-4,-9
5755,35,-192,-170,55,4,-9
5760,31,-187,-164,48,12,-7
5765,30,-191,-161,34,18,-7
5770,27,-190,-151,9,25,-2
5775,27,-190,-153,-16,25,2
5780,29,-192,-149,-42,22,3
5785,23,-191,-140,-67,18,1
5790,23,-193,-137,-80,12,1
5795,20,-199,-138,-71,12,6
5800,19,-196,-143,-45,10,8
5805,27,-198,-154,-9,9,5
5810,22,-191,-159,14,15,-10
5815,21,-192,-163,25,21,-22
5820,20,-191,-169,29,29,-35
5825,21,-193,-170,28,29,-47
5830,23,-194,-174,19,29,-52
5835,22,-195,-170,5,31,-48
5840,24,-195,-164,-8,31,-43
5845,23,-197,-164,-13,30,-35
5850,24,-202,-162,-4,27,-26
5855,28,-208,-160,12,26,-16
5860,23,-202,-163,37,25,-13
5865,21,-200,-145,71,23,-12
5870,22,-199,-159,101,17,-14
5875,18,-198,-162,123,9,-16
5880,28,-199,-161,133,0,-23
5885,21,-194,-164,133,-7,-30
5890,24,-192,-162,124,-11,-29
5895,24,-193,-161,113,-11,-29
5900,24,-191,-162,102,-9,-24
5905,25,-195,-156,99,-6,-20
5910,25,-195,-155,100,-1,-18
5915,24,-197,-158,105,9,-14
5920,26,-195,-155,114,15,-16
5925,24,-199,-156,126,17,-17
5930,22,-199,-155,139,14,-20
5935,22,-199,-157,151,8,-23
5940,18,-197,-156,160,4,-22
5945,17,-193,-157,163,0,-20
5950,18,-192,-156,162,-8,-14
5955,21,-192,-154,157,-11,-11
5960,21,-191,-155,146,-13,-8
5965,22,-192,-154,136,-13,-7
5970,23,-191,-149,130,-10,-10
5975,22,-190,-157,128,-3,-11
5980,22,-192,-157,129,1,-18
5985,25,-192,-156,135,4,-21
5990,22,-192,-155,136,9,-24
5995,24,-196,-154,138,9,-24
6000,20,-193,-152,138,8,-23
6005,20,-193,-147,142,6,-22
6010,18,-192,-145,150,3,-21
6015,18,-193,-149,157,-2,-21
6020,14,-188,-150,160,-6,-24
6025,18,-191,-144,157,-8,-26
6030,17,-185,-145,146,-11,-25
6035,15,-191,-149,132,-11,-22
6040,16,-188,-146,118,-7,-23
6045,17,-190,-149,100,-1,-19
6050,18,-190,-142,81,3,-13
6055,20,-196,-146,65,8,-8
6060,17,-193,-152,62,9,-2
6065,18,-196,-151,62,11,-1
6070,19,-196,-151,62,8,0
6075,16,-195,-149,62,2,0
6080,16,-193,-151,65,-2,0
6085,20,-199,-153,63,-9,0
6090,19,-196,-152,55,-14,2
6095,19,-196,-148,44,-16,1
6100,18,-194,-147,33,-16,0
6105,17,-196,-150,28,-12,4
6110,18,-199,-148,38,-7,4
6115,17,-194,-144,57,-4,4
6120,16,-196,-151,68,-3,4
6125,18,-195,-146,71,2,8
6130,17,-194,-152,66,4,7
6135,20,-193,-152,59,6,10
6140,19,-194,-154,54,5,11
6145,17,-193,-151,51,3,12
6150,20,-193,-150,49,3,10
6155,19,-198,-150,49,4,7
6160,17,-193,-148,50,5,3
6165,16,-197,-148,52,4,1
6170,20,-197,-153,59,3,-1
6175,18,-194,-151,65,3,0
6180,14,-196,-148,70,5,2
6185,16,-195,-151,70,8,4
6190,11,-188,-147,68,11,8
6195,17,-198,-153,67,14,12
6200,20,-194,-150,67,17,13
6205,18,-193,-154,65,16,14
6210,19,-193,-153,64,13,11
6215,17,-194,-153,59,12,10
6220,20,-196,-159,53,10,6
6225,19,-195,-157,48,10,5
6230,18,-197,-150,45,10,6
6235,20,-193,-154,45,13,6
6240,23,-196,-150,48,16,5
6245,17,-196,-154,55,17,5
6250,21,-195,-155,63,19,4
6255,19,-191,-154,68,22,8
6260,21,-193,-153,68,25,8
6265,19,-193,-152,67,24,7
6270,18,-193,-151,63,23,8
6275,22,-192,-151,59,23,7
6280,23,-193,-151,56,22,4
6285,19,-194,-154,54,24,0
6290,21,-194,-150,53,25,-1
6295,18,-193,-153,53,27,-3
6300,20,-193,-154,54,26,-6
6305,19,-197,-153,53,26,-5
6310,19,-194,-155,52,25,-4
6315,21,-192,-154,49,25,-5
6320,18,-191,-153,44,27,-3
6325,21,-194,-154,38,28,-1
6330,19,-192,-152,33,27,-1
6335,19,-194,-156,28,25,-1
6340,21,-193,-157,25,22,-5
6345,18,-193,-154,21,20,-7
6350,20,-194,-155,18,18,-10
6355,17,-193,-156,16,16,-12
6360,21,-193,-153,16,15,-15
6365,18,-191,-150,18,12,-16
6370,18,-189,-155,15,11,-18
6375,18,-194,-152,10,12,-18
6380,21,-194,-153,10,15,-21
6385,18,-192,-154,5,18,-19
6390,20,-194,-149,1,15,-18
6395,21,-195,-152,2,16,-18
6400,20,-194,-154,8,13,-20
6405,18,-194,-153,14,13,-22
6410,27,-195,-150,17,10,-22
6415,20,-192,-156,19,6,-24
6420,21,-192,-154,18,3,-24
6425,21,-194,-153,15,4,-23
6430,21,-193,-150,9,5,-23
6435,22,-192,-153,4,7,-24
6440,18,-194,-158,3,10,-26
6445,16,-192,-152,2,12,-27
6450,20,-193,-153,1,14,-27
6455,19,-191,-150,0,15,-24
6460,21,-188,-163,1,16,-24
6465,13,-192,-151,2,15,-22
6470,17,-193,-150,4,12,-22
6475,17,-192,-154,4,11,-21
6480,22,-191,-151,1,10,-20
6485,20,-191,-150,-4,9,-21
6490,21,-197,-151,-8,6,-18
6495,23,-194,-150,-9,5,-16
6500,24,-193,-150,-10,5,-15
6505,19,-193,-150,-8,8,-15
6510,23,-192,-149,-7,9,-15
6515,22,-193,-151,1,13,-19
6520,22,-192,-154,4,16,-20
6525,23,-188,-152,4,14,-22
6530,21,-190,-153,3,11,-20
6535,22,-192,-152,5,10,-21
6540,22,-192,-152,4,8,-21
6545,20,-189,-155,4,9,-21
6550,17,-190,-155,6,10,-22
6555,21,-192,-156,12,11,-21
6560,21,-189,-154,16,10,-22
6565,22,-192,-157,21,8,-20
6570,23,-190,-155,25,8,-22
6575,21,-190,-151,29,7,-22
6580,20,-192,-154,30,6,-21
6585,20,-190,-152,28,5,-22
6590,20,-188,-151,27,6,-22
6595,21,-191,-157,29,5,-21
6600,20,-187,-155,30,4,-20
6605,23,-192,-159,31,2,-17
6610,19,-189,-152,31,-1,-16
6615,18,-191,-157,33,-1,-18
6620,24,-189,-160,38,-2,-17
6625,22,-189,-155,42,-3,-20
6630,19,-187,-157,45,-2,-20
6635,22,-189,-153,45,-1,-20
6640,21,-189,-155,47,-1,-18
6645,22,-189,-157,45,1,-15
6650,24,-189,-154,41,1,-15
6655,21,-187,-156,39,1,-14
6660,21,-188,-159,36,1,-14
6665,20,-187,-156,34,1,-12
6670,25,-191,-154,30,2,-12
6675,20,-187,-154,29,2,-11
6680,16,-186,-153,27,4,-11
6685,16,-188,-153,29,3,-6
6690,24,-192,-158,34,6,-5
6695,23,-192,-156,43,12,-10
6700,25,-192,-159,50,15,-9
6705,25,-194,-161,59,17,-9
6710,26,-190,-162,62,17,-9
6715,21,-189,-160,61,18,-11
6720,23,-188,-158,55,19,-12
6725,22,-191,-157,51,23,-12
6730,18,-192,-160,48,25,-10
6735,23,-192,-157,45,28,-10
6740,23,-192,-158,45,30,-8
6745,19,-192,-155,47,33,-7
6750,20,-194,-155,49,37,-7
6755,20,-194,-161,51,37,-5
6760,25,-193,-157,55,38,-7
6765,19,-193,-161,59,36,-7
6770,23,-195,-161,64,35,-7
6775,22,-191,-163,66,35,-8
6780,19,-191,-162,68,35,-7
6785,22,-193,-165,67,36,-6
6790,20,-191,-163,66,37,-5
6795,20,-191,-162,65,40,-3
6800,23,-189,-166,65,40,1
6805,21,-192,-162,63,40,2
6810,25,-192,-161,63,40,3
6815,22,-193,-161,64,39,5
6820,21,-192,-160,65,40,7
6825,21,-191,-160,62,41,9
6830,21,-192,-160,58,43,8
6835,22,-191,-160,53,42,7
6840,23,-191,-161,51,43,4
6845,19,-192,-167,48,42,4
6850,22,-189,-162,45,41,2
6855,20,-191,-161,42,40,2
6860,20,-188,-161,41,40,1
6865,23,-190,-164,40,39,0
6870,22,-190,-159,39,41,3
6875,24,-192,-162,37,42,4
6880,22,-190,-159,38,43,6
6885,23,-191,-163,41,45,7
6890,18,-188,-160,43,49,8
6895,22,-188,-163,46,51,6
6900,24,-192,-159,45,50,7
6905,22,-187,-160,45,51,7
6910,21,-188,-161,42,50,7
6915,22,-190,-163,39,47,7
6920,21,-187,-158,37,44,8
6925,24,-190,-161,33,43,8
6930,26,-191,-162,31,39,5
6935,23,-189,-159,29,39,4
6940,22,-185,-161,26,39,2
6945,24,-188,-158,24,39,3
6950,24,-188,-160,21,39,3
6955,22,-186,-159,16,38,4
6960,24,-189,-160,10,38,1
6965,27,-188,-162,8,37,1
6970,21,-184,-159,7,37,1
6975,20,-186,-158,7,39,0
6980,21,-190,-156,5,40,0
6985,23,-186,-159,6,41,3
6990,21,-187,-160,3,44,3
6995,21,-188,-155,2,45,4
7000,23,-187,-158,3,47,7
7005,22,-186,-155,4,47,7
7010,23,-188,-158,4,47,7
7015,20,-186,-159,6,47,7
7020,24,-190,-159,7,48,9
7025,21,-185,-155,9,48,7
7030,22,-189,-161,7,47,6
7035,24,-189,-161,7,43,3
7040,19,-188,-157,10,42,5
7045,24,-188,-156,11,40,3
7050,22,-187,-156,11,39,4
7055,23,-187,-159,10,38,3
7060,26,-190,-154,7,38,0
7065,23,-191,-159,6,38,2
7070,22,-187,-160,10,40,-1
7075,21,-189,-157,18,41,0
7080,26,-190,-158,25,41,0
7085,21,-189,-159,31,44,-1
7090,20,-188,-163,34,43,-2
7095,23,-188,-159,38,45,1
7100,22,-187,-156,39,44,2
7105,23,-190,-158,39,44,2
7110,19,-187,-155,41,41,3
7115,21,-188,-160,42,38,2
7120,18,-188,-160,45,37,2
7125,23,-189,-160,47,36,0
7130,24,-187,-159,49,36,0
7135,21,-188,-159,50,35,0
7140,25,-189,-159,49,34,-1
7145,26,-191,-157,46,35,-2
7150,25,-187,-160,47,36,-2
7155,22,-187,-158,46,36,-1
7160,23,-187,-160,51,38,-1
7165,24,-190,-158,55,38,0
7170,21,-189,-161,60,36,0
7175,21,-192,-160,64,35,1
7180,23,-188,-162,69,30,0
7185,24,-188,-161,71,29,-1
7190,21,-185,-162,69,28,-4
7195,22,-189,-159,66,27,-1
7200,21,-188,-164,63,27,0
7205,20,-187,-161,65,26,0
7210,21,-187,-160,67,23,0
7215,21,-189,-160,68,22,2
7220,22,-188,-162,70,20,0
7225,26,-190,-154,72,18,0
7230,22,-189,-160,75,16,-3
7235,21,-186,-162,75,16,-3
7240,21,-187,-157,74,18,-3
7245,23,-189,-162,72,19,-4
7250,23,-188,-163,70,21,-4
7255,21,-184,-161,69,22,-2
7260,25,-187,-161,65,20,-3
7265,24,-187,-163,64,19,-3
7270,25,-189,-164,66,19,0
7275,23,-187,-163,67,19,1
7280,24,-189,-163,65,18,0
7285,25,-188,-162,62,17,1
7290,21,-187,-162,58,18,0
7295,20,-189,-162,54,20,-1
7300,24,-187,-163,50,20,1
7305,22,-188,-164,47,19,-1
7310,20,-188,-161,45,18,-5
7315,21,-188,-165,46,18,-4
7320,23,-191,-163,49,18,-3
7325,24,-192,-165,51,17,-4
7330,22,-190,-166,56,14,-3
7335,20,-190,-160,60,12,-3
7340,21,-190,-164,59,9,-3
7345,23,-191,-163,58,9,-3
7350,21,-186,-157,57,8,-2
7355,21,-188,-162,58,9,-2
7360,23,-188,-160,60,10,-3
7365,20,-187,-164,61,11,-4
7370,24,-188,-161,61,12,-8
7375,19,-189,-164,61,13,-7
7380,18,-189,-164,59,13,-7
7385,17,-189,-161,57,13,-10
7390,17,-188,-158,55,13,-8
7395,19,-187,-159,53,14,-8
7400,20,-187,-159,49,11,-7
7405,21,-190,-158,47,7,-5
7410,21,-189,-160,45,5,-5
7415,23,-190,-160,46,4,-6
7420,25,-189,-157,48,3,-6
7425,21,-190,-161,50,3,-7
7430,22,-191,-162,51,3,-8
7435,22,-191,-157,51,3,-8
7440,20,-188,-160,50,3,-8
7445,25,-187,-152,52,3,-9
7450,24,-184,-163,56,4,-9
7455,20,-190,-159,59,4,-8
7460,20,-188,-160,63,5,-8
7465,20,-188,-156,65,6,-6
7470,16,-188,-158,67,6,-3
7475,21,-188,-158,69,6,-3
7480,16,-188,-159,69,4,-2
7485,21,-190,-157,69,3,-3
7490,22,-192,-162,69,1,-1
7495,22,-190,-156,72,0,-2
7500,23,-191,-157,70,0,-3
7505,20,-187,-158,70,0,-3
7510,20,-190,-157,70,1,-4
7515,20,-190,-157,69,2,-6
7520,21,-190,-156,69,4,-6
7525,23,-186,-157,70,3,-5
7530,22,-190,-163,69,3,-5
7535,20,-185,-158,68,3,-5
7540,21,-187,-160,68,4,-6
7545,18,-189,-160,68,3,-8
7550,19,-188,-159,69,3,-8
7555,24,-188,-161,72,6,-8
7560,20,-191,-159,72,6,-7
7565,22,-188,-155,73,6,-5
7570,25,-190,-157,74,6,-6
7575,22,-190,-159,75,5,-4
7580,22,-190,-159,75,4,-3
7585,21,-187,-157,75,3,-3
7590,22,-188,-160,76,3,-5
7595,21,-189,-157,78,4,-6
7600,20,-189,-155,81,4,-7
7605,20,-191,-155,79,3,-9
7610,21,-190,-159,79,5,-6
7615,19,-189,-158,74,5,-7
7620,19,-192,-156,69,8,-7
7625,21,-186,-159,66,8,-5
7630,17,-189,-156,63,9,-7
7635,18,-188,-160,61,10,-6
7640,20,-187,-159,63,10,-8
7645,21,-189,-162,61,9,-6
7650,18,-190,-159,61,9,-8
7655,21,-190,-157,62,9,-10
7660,20,-189,-161,61,9,-9
7665,21,-190,-156,62,9,-8
7670,19,-189,-161,63,8,-8
7675,19,-191,-161,64,8,-5
7680,20,-188,-157,63,9,-5
7685,24,-191,-158,62,10,-5
7690,21,-191,-156,60,10,-6
7695,20,-190,-155,61,11,-9
7700,18,-192,-158,61,11,-9
7705,21,-191,-158,63,13,-11
7710,19,-189,-159,64,13,-12
7715,22,-179,-149,65,12,-10
7720,21,-192,-159,65,13,-10
7725,19,-189,-159,66,12,-9
7730,18,-189,-155,65,12,-8
7735,21,-189,-159,65,12,-6
7740,22,-189,-160,64,13,-4
7745,20,-191,-155,66,11,-4
7750,24,-190,-160,66,10,-4
7755,21,-192,-159,65,9,-5
7760,22,-191,-157,63,9,-6
7765,21,-191,-160,60,8,-6
7770,26,-190,-158,58,9,-8
7775,22,-190,-157,58,8,-9
7780,22,-191,-157,56,11,-10
7785,21,-192,-159,55,9,-8
7790,23,-191,-158,58,10,-11
7795,21,-192,-158,59,9,-10
7800,17,-191,-161,60,9,-8
7805,19,-189,-161,62,9,-7
7810,21,-190,-157,62,9,-9
7815,20,-189,-156,59,9,-9
7820,20,-190,-158,57,8,-9
7825,22,-191,-159,55,8,-11
7830,24,-192,-159,53,8,-13
7835,21,-191,-159,51,9,-15
7840,18,-190,-156,48,10,-17
7845,23,-189,-155,47,10,-17
7850,18,-193,-160,49,11,-18
7855,18,-192,-155,51,10,-17
7860,22,-192,-159,55,11,-15
7865,19,-188,-157,59,11,-15
7870,21,-191,-162,59,12,-12
7875,21,-191,-157,60,12,-12
7880,20,-192,-156,56,13,-11
7885,20,-191,-159,54,13,-12
7890,22,-188,-158,54,14,-11
7895,20,-193,-156,56,14,-10
7900,21,-190,-159,58,11,-10
7905,22,-191,-156,60,12,-10
7910,21,-190,-156,59,13,-12
7915,19,-192,-157,59,12,-12
7920,19,-189,-154,61,13,-11
7925,20,-191,-156,60,12,-12
7930,19,-189,-157,60,11,-12
7935,19,-190,-156,58,10,-10
7940,21,-190,-156,57,9,-9
7945,20,-190,-156,56,10,-10
7950,21,-190,-160,57,12,-11
7955,22,-190,-156,60,12,-12
7960,24,-190,-159,61,13,-13
7965,24,-191,-159,62,14,-13
7970,20,-191,-160,61,15,-15
7975,21,-190,-154,58,16,-13
7980,19,-190,-158,57,16,-11
7985,20,-188,-157,53,17,-12
7990,24,-188,-155,52,17,-12
7995,23,-192,-158,52,18,-12
8000,20,-190,-160,55,16,-13
8005,22,-190,-160,58,15,-11
8010,20,-191,-158,58,14,-13
8015,21,-192,-159,60,15,-13
8020,21,-190,-156,61,14,-13
8025,20,-191,-156,60,14,-15
8030,21,-190,-154,55,15,-14
8035,18,-189,-159,51,18,-14
8040,18,-190,-153,48,20,-13
8045,25,-191,-157,52,20,-13
8050,24,-189,-158,56,22,-12
8055,21,-190,-157,56,22,-13
8060,24,-192,-158,55,22,-14
8065,22,-190,-157,56,22,-15
8070,22,-191,-159,58,19,-13
8075,20,-192,-156,56,19,-13
8080,21,-190,-162,55,18,-12
8085,20,-190,-158,53,18,-12
8090,24,-192,-159,52,20,-13
8095,20,-193,-162,54,18,-12
8100,23,-190,-158,57,19,-12
8105,19,-190,-158,60,20,-11
8110,23,-191,-156,62,21,-12
8115,23,-189,-155,64,21,-12
8120,24,-189,-160,64,20,-13
8125,20,-188,-156,63,20,-13
8130,21,-189,-157,59,19,-14
8135,18,-187,-153,55,18,-13
8140,19,-187,-159,51,18,-11
8145,21,-193,-156,48,21,-13
8150,20,-193,-157,45,22,-16
8155,19,-190,-155,46,23,-16
8160,19,-192,-156,49,24,-17
8165,23,-192,-159,52,22,-16
8170,19,-190,-161,55,22,-14
8175,21,-190,-158,58,18,-13
8180,21,-192,-162,58,18,-14
8185,21,-191,-160,58,18,-12
8190,23,-192,-163,57,17,-10
8195,24,-191,-159,57,16,-10
8200,24,-191,-160,57,14,-11
8205,22,-191,-157,54,13,-9
8210,21,-188,-159,51,11,-10
8215,26,-192,-160,46,10,-10
8220,24,-192,-158,42,8,-11
8225,22,-190,-159,39,9,-13
8230,20,-190,-158,36,9,-13
8235,21,-188,-155,35,11,-13
8240,21,-189,-159,36,11,-14
8245,20,-190,-157,33,14,-14
8250,22,-191,-160,32,15,-12
8255,20,-191,-161,29,15,-9
8260,15,-204,-158,24,16,-9
8265,24,-189,-160,19,17,-9
8270,23,-191,-158,15,19,-9
8275,22,-190,-162,12,20,-11
8280,26,-192,-159,12,21,-13
8285,22,-189,-161,11,21,-15
8290,24,-192,-160,10,22,-15
8295,22,-191,-160,10,21,-15
8300,21,-191,-160,13,22,-16
8305,20,-187,-158,17,22,-15
8310,19,-188,-156,20,22,-11
8315,20,-188,-160,24,22,-10
8320,21,-187,-158,26,22,-10
8325,24,-188,-154,25,23,-10
8330,23,-190,-153,27,22,-9
8335,22,-191,-155,29,23,-7
8340,22,-190,-155,29,23,-8
8345,24,-191,-154,29,24,-12
8350,22,-189,-153,29,25,-12
8355,21,-189,-156,28,25,-12
8360,19,-187,-153,25,25,-12
8365,19,-187,-159,21,26,-14
8370,22,-190,-156,17,26,-13
8375,22,-188,-151,12,26,-12
8380,22,-190,-160,7,27,-11
8385,20,-187,-159,2,28,-11
8390,21,-189,-157,0,28,-9
8395,22,-191,-157,2,29,-5
8400,24,-190,-155,4,29,-4
8405,22,-189,-156,9,26,-1
8410,24,-189,-157,11,24,1
8415,25,-191,-155,9,26,1
8420,25,-190,-162,7,28,6
8425,27,-192,-163,5,32,8
8430,23,-191,-162,4,36,6
8435,26,-191,-162,0,37,2
8440,27,-191,-166,-5,40,-1
8445,30,-189,-172,-17,44,-6
8450,32,-192,-171,-33,51,-9
8455,32,-191,-170,-52,58,-10
8460,32,-192,-172,-75,67,-9
8465,31,-194,-169,-95,75,-11
8470,31,-195,-166,-112,84,-15
8475,27,-195,-166,-123,91,-18
8480,37,-201,-163,-132,97,-23
8485,23,-203,-169,-135,100,-26
8490,20,-205,-167,-136,107,-27
8495,16,-203,-170,-134,113,-29
8500,13,-202,-167,-130,115,-32
8505,15,-202,-171,-126,116,-30
8510,15,-201,-176,-124,112,-27
8515,14,-196,-173,-129,108,-20
8520,13,-197,-177,-145,100,-12
8525,19,-197,-179,-162,94,-2
8530,26,-195,-180,-177,89,9
8535,22,-202,-181,-194,86,17
8540,23,-200,-180,-207,85,19
8545,29,-200,-178,-218,82,23
8550,33,-198,-179,-227,80,23
8555,34,-196,-179,-238,80,21
8560,31,-198,-177,-253,80,18
8565,34,-193,-180,-259,79,13
8570,29,-191,-177,-257,76,11
8575,32,-195,-180,-249,68,2
8580,33,-195,-180,-252,62,-6
8585,31,-192,-182,-262,59,-12
8590,31,-194,-175,-277,55,-18
8595,27,-191,-174,-293,50,-20
8600,24,-195,-178,-298,46,-20
8605,23,-197,-184,-292,40,-15
8610,19,-197,-185,-281,28,-8
8615,10,-197,-185,-277,11,-2
8620,15,-197,-183,-280,-12,-1
8625,15,-197,-181,-286,-34,1
8630,19,-200,-182,-289,-51,4
8635,19,-199,-182,-291,-61,8
8640,19,-203,-179,-288,-65,15
8645,21,-204,-177,-281,-63,19
8650,20,-204,-174,-274,-58,19
8655,22,-203,-171,-266,-50,25
8660,20,-202,-175,-252,-39,29
8665,15,-200,-175,-232,-33,32
8670,17,-199,-177,-208,-32,31
8675,17,-201,-178,-183,-36,27
8680,16,-198,-177,-156,-41,18
8685,18,-197,-178,-136,-43,9
8690,12,-197,-174,-122,-43,7
8695,15,-194,-176,-107,-41,7
8700,18,-193,-175,-88,-40,11
8705,18,-194,-177,-65,-40,15
8710,20,-195,-180,-40,-40,18
8715,19,-192,-179,-16,-46,21
8720,21,-191,-180,3,-52,24
8725,22,-187,-186,13,-58,23
8730,16,-184,-190,18,-62,23
8735,17,-180,-193,21,-64,21
8740,20,-180,-193,23,-68,16
8745,21,-181,-193,26,-73,11
8750,20,-180,-188,29,-83,7
8755,22,-183,-190,30,-95,3
8760,18,-179,-183,28,-105,-2
8765,21,-182,-180,27,-110,-4
8770,23,-183,-179,25,-116,-3
8775,22,-179,-175,26,-119,-3
8780,20,-185,-174,33,-119,-1
8785,21,-181,-175,48,-119,0
8790,20,-182,-174,60,-120,0
8795,19,-181,-179,72,-121,-2
8800,21,-182,-175,85,-124,-3
8805,22,-179,-174,94,-126,-5
8810,26,-182,-174,96,-129,-2
8815,22,-182,-174,99,-131,-3
8820,23,-180,-176,101,-131,-4
8825,29,-175,-173,107,-130,1
8830,29,-178,-173,113,-125,1
8835,27,-178,-172,126,-123,5
8840,28,-182,-173,142,-122,13
8845,28,-183,-174,157,-114,18
8850,25,-185,-172,176,-108,24
8855,26,-179,-174,193,-107,33
8860,22,-178,-172,208,-104,39
8865,23,-175,-173,212,-101,43
8870,23,-175,-172,205,-99,42
8875,23,-172,-173,189,-95,43
8880,22,-170,-171,175,-91,40
8885,23,-175,-179,172,-88,35
8890,19,-171,-178,178,-84,29
8895,22,-173,-174,187,-81,25
8900,21,-173,-173,195,-75,23
8905,19,-174,-175,203,-65,23
8910,22,-176,-173,210,-52,20
8915,19,-175,-171,219,-44,22
8920,21,-177,-175,226,-38,24
8925,16,-176,-176,232,-30,25
8930,17,-177,-179,235,-21,28
8935,21,-178,-181,236,-15,26
8940,22,-181,-184,234,-13,21
8945,23,-175,-185,226,-12,20
8950,19,-174,-189,215,-11,21
8955,20,-174,-183,202,-10,22
8960,20,-177,-183,187,-9,20
8965,16,-178,-187,175,-8,22
8970,17,-183,-184,168,-8,19
8975,18,-186,-181,165,-8,16
8980,15,-187,-180,170,-5,13
8985,14,-187,-180,180,-3,11
8990,16,-192,-181,190,0,6
8995,14,-192,-175,199,3,6
9000,15,-192,-180,208,5,1
9005,13,-192,-178,215,9,-6
9010,13,-189,-183,219,11,-11
9015,15,-191,-185,216,11,-12
9020,11,-191,-183,213,8,-15
9025,15,-193,-180,213,1,-16
9030,9,-189,-176,212,-7,-21
9035,8,-187,-178,210,-16,-25
9040,9,-191,-172,210,-22,-27
9045,5,-187,-174,209,-26,-26
9050,8,-187,-170,210,-30,-23
9055,6,-188,-171,213,-34,-17
9060,8,-187,-170,217,-36,-12
9065,7,-187,-169,224,-36,-10
9070,8,-190,-171,234,-36,-5
9075,9,-189,-175,244,-37,-2
9080,11,-191,-172,258,-40,3
9085,8,-192,-173,268,-42,9
9090,10,-193,-174,280,-44,10
9095,9,-193,-177,297,-47,13
9100,10,-193,-172,312,-53,12
9105,11,-192,-180,321,-59,9
9110,12,-191,-189,323,-66,3
9115,12,-192,-185,312,-71,-2
9120,10,-192,-181,299,-78,-9
9125,13,-193,-185,283,-86,-21
9130,11,-192,-182,262,-92,-32
9135,11,-194,-178,242,-95,-42
9140,9,-193,-177,225,-95,-49
9145,8,-196,-175,206,-95,-58
9150,13,-198,-171,191,-95,-62
9155,12,-199,-169,177,-95,-64
9160,12,-198,-169,169,-97,-66
9165,15,-202,-170,170,-96,-70
9170,11,-204,-164,176,-96,-72
9175,10,-203,-165,189,-96,-79
9180,10,-206,-167,207,-98,-81
9185,9,-210,-167,228,-98,-84
9190,10,-210,-168,253,-95,-85
9195,13,-207,-168,276,-90,-86
9200,9,-207,-171,299,-86,-84
9205,15,-208,-169,319,-81,-82
9210,15,-208,-174,331,-76,-80
9215,13,-208,-168,333,-71,-79
9220,16,-205,-172,328,-69,-78
9225,12,-204,-170,319,-70,-76
9230,16,-206,-174,304,-70,-76
9235,15,-210,-173,294,-70,-75
9240,12,-209,-169,288,-72,-79
9245,14,-208,-171,286,-72,-79
9250,17,-211,-173,292,-72,-82
9255,16,-213,-171,300,-74,-82
9260,13,-213,-171,307,-72,-80
9265,17,-214,-168,313,-68,-78
9270,16,-215,-172,317,-62,-77
9275,15,-214,-167,322,-55,-77
9280,14,-214,-172,328,-49,-79
9285,11,-215,-169,332,-44,-83
9290,11,-215,-170,335,-41,-86
9295,20,-215,-187,340,-37,-86
9300,13,-216,-164,345,-32,-86
9305,12,-213,-162,352,-30,-88
9310,11,-214,-165,358,-31,-90
9315,11,-215,-159,370,-34,-93
9320,12,-218,-164,383,-40,-94
9325,12,-218,-163,394,-47,-93
9330,13,-217,-163,405,-54,-95
9335,15,-218,-164,413,-60,-94
9340,10,-217,-157,418,-63,-94
9345,13,-219,-161,422,-66,-94
9350,13,-214,-160,425,-67,-91
9355,13,-216,-156,428,-65,-90
9360,12,-217,-155,431,-63,-91
9365,11,-217,-153,435,-61,-92
9370,11,-219,-152,438,-60,-94
9375,10,-215,-153,441,-59,-96
9380,10,-218,-154,445,-59,-98
9385,13,-214,-151,447,-60,-97
9390,9,-217,-151,453,-60,-92
9395,9,-215,-150,463,-62,-91
9400,8,-216,-147,471,-61,-91
9405,8,-215,-149,479,-60,-86
9410,7,-214,-145,486,-58,-79
9415,7,-214,-147,488,-55,-73
9420,6,-212,-144,487,-53,-64
9425,9,-213,-146,482,-48,-57
9430,4,-211,-144,477,-43,-48
9435,6,-211,-144,473,-41,-41
9440,7,-211,-142,471,-39,-34
9445,5,-213,-138,471,-38,-32
9450,6,-212,-135,472,-42,-30
9455,5,-213,-135,477,-44,-33
9460,13,-211,-134,483,-44,-30
9465,13,-212,-130,493,-45,-29
9470,13,-212,-132,502,-42,-27
9475,11,-212,-131,510,-37,-31
9480,15,-212,-129,518,-31,-31
9485,15,-211,-126,525,-23,-30
9490,15,-209,-130,530,-12,-31
9495,18,-213,-126,533,1,-29
9500,20,-215,-123,534,11,-27
9505,20,-211,-123,536,23,-26
9510,18,-211,-121,540,34,-25
9515,16,-210,-124,548,43,-20
9520,18,-210,-125,553,52,-14
9525,18,-209,-123,558,58,-10
9530,15,-208,-118,564,62,-3
9535,19,-209,-119,570,64,4
9540,15,-206,-117,575,65,10
9545,16,-207,-114,580,65,16
9550,15,-207,-116,581,66,22
9555,16,-209,-113,575,67,23
9560,11,-204,-113,568,70,27
9565,17,-199,-110,557,73,31
9570,14,-207,-109,547,77,37
9575,13,-203,-111,537,82,41
9580,14,-202,-110,526,88,45
9585,14,-201,-110,514,94,45
9590,11,-201,-108,505,100,48
9595,14,-202,-102,499,108,52
9600,12,-203,-99,494,114,53
9605,13,-201,-102,494,118,57
9610,14,-200,-99,495,124,59
9615,13,-202,-98,498,129,64
9620,14,-200,-100,501,132,67
9625,12,-202,-100,505,135,67
9630,14,-200,-101,508,137,70
9635,15,-202,-100,509,139,70
9640,14,-199,-100,512,142,69
9645,15,-201,-98,517,144,68
9650,14,-202,-98,522,146,66
9655,16,-202,-99,530,148,65
9660,15,-206,-97,536,149,64
9665,17,-204,-98,543,154,67
9670,15,-205,-99,548,155,66
9675,13,-200,-98,552,154,66
9680,16,-202,-97,551,153,63
9685,18,-205,-94,548,157,60
9690,19,-203,-94,547,161,56
9695,18,-205,-96,544,168,51
9700,18,-206,-97,544,176,48
9705,16,-206,-91,541,183,45
9710,22,-207,-92,545,188,41
9715,21,-209,-87,553,189,34
9720,24,-210,-87,565,185,28
9725,19,-207,-90,578,180,24
9730,23,-212,-88,592,174,18
9735,21,-208,-87,604,170,20
9740,21,-204,-88,614,168,21
9745,23,-206,-88,621,164,20
9750,18,-201,-83,627,160,23
9755,20,-204,-81,635,155,23
9760,16,-201,-80,642,150,25
9765,18,-201,-78,645,143,29
9770,15,-198,-79,651,135,33
9775,15,-198,-79,658,128,37
9780,15,-195,-81,663,120,41
9785,12,-193,-80,666,116,43
9790,15,-192,-80,663,112,49
9795,12,-190,-78,657,108,53
9800,14,-191,-85,647,105,59
9805,12,-189,-79,634,103,62
9810,13,-188,-74,622,103,65
9815,16,-192,-79,611,103,66
9820,13,-190,-79,605,102,67
9825,14,-188,-76,599,102,66
9830,14,-189,-75,599,101,63
9835,16,-191,-79,597,98,62
9840,14,-191,-77,596,97,60
9845,15,-188,-80,594,97,54
9850,12,-191,-80,590,95,51
9855,14,-192,-74,588,95,46
9860,15,-194,-76,586,94,43
9865,18,-199,-76,586,91,37
9870,17,-201,-77,588,89,32
9875,17,-202,-70,593,83,25
9880,16,-208,-74,604,79,19
9885,15,-211,-69,619,71,13
9890,19,-212,-70,639,59,9
9895,15,-216,-68,667,46,7
9900,14,-216,-66,692,31,5
9905,15,-216,-70,716,18,7
9910,12,-219,-72,737,5,11
9915,9,-220,-70,753,-7,15
9920,12,-221,-73,766,-13,20
9925,10,-221,-74,772,-16,25
9930,10,-223,-77,775,-17,32
9935,9,-221,-72,778,-16,39
9940,8,-221,-77,775,-13,46
9945,9,-220,-72,771,-12,51
9950,3,-216,-73,765,-12,57
9955,-5,-219,-50,761,-17,63
9960,11,-217,-65,753,-24,65
9965,8,-214,-69,749,-29,68
9970,2,-215,-66,746,-32,66
9975,5,-214,-63,741,-41,65
9980,4,-213,-66,741,-53,62
9985,5,-208,-64,741,-66,58
9990,6,-216,-63,743,-81,52
9995,5,-215,-67,745,-96,48
10000,6,-213,-65,746,-110,42
10005,4,-210,-64,746,-123,40
10010,6,-213,-62,747,-139,38
10015,4,-211,-63,743,-153,35
10020,5,-214,-61,730,-167,32
10025,5,-213,-61,713,-181,34
10030,7,-213,-62,695,-189,34
10035,6,-215,-58,673,-193,35
10040,4,-215,-57,649,-197,31
10045,4,-219,-56,632,-198,29
10050,7,-220,-54,619,-200,28
10055,4,-221,-51,610,-200,28
10060,5,-222,-54,601,-198,26
10065,7,-222,-49,595,-199,26
10070,11,-227,-51,586,-201,32
10075,11,-230,-48,577,-199,33
10080,13,-232,-53,567,-196,34
10085,12,-230,-49,558,-191,35
10090,12,-232,-51,550,-187,36
10095,13,-233,-53,545,-184,35
10100,14,-231,-53,541,-185,32
10105,15,-230,-51,540,-184,27
10110,16,-230,-52,540,-182,19
10115,17,-231,-50,540,-180,12
10120,17,-229,-52,540,-177,4
10125,19,-233,-49,542,-175,-4
10130,16,-231,-51,539,-172,-11
10135,18,-232,-54,534,-167,-21
10140,15,-230,-51,530,-163,-29
10145,17,-230,-54,526,-162,-36
10150,15,-233,-52,520,-158,-44
10155,14,-232,-44,514,-155,-47
10160,14,-231,-50,509,-151,-51
10165,11,-235,-47,505,-146,-54
10170,12,-236,-49,499,-140,-52
10175,9,-237,-44,496,-135,-53
10180,14,-240,-46,494,-129,-52
10185,13,-241,-44,488,-122,-53
10190,15,-242,-45,484,-117,-53
10195,13,-245,-44,480,-113,-53
10200,11,-240,-44,479,-109,-53
10205,15,-249,-45,478,-105,-53
10210,15,-251,-35,477,-101,-54
10215,16,-253,-38,474,-98,-54
10220,15,-250,-40,469,-93,-56
10225,20,-252,-38,463,-87,-59
10230,17,-251,-33,458,-83,-63
10235,23,-249,-36,453,-77,-67
10240,23,-253,-35,449,-73,-72
10245,21,-251,-34,443,-68,-80
10250,25,-248,-33,438,-61,-86
10255,24,-250,-38,432,-51,-96
10260,26,-247,-31,426,-41,-105
10265,29,-249,-32,418,-30,-112
10270,26,-243,-33,407,-21,-119
10275,26,-244,-34,393,-10,-128
10280,30,-245,-36,379,1,-135
10285,30,-243,-33,365,10,-140
10290,28,-242,-34,349,20,-142
10295,26,-244,-32,333,28,-146
10300,29,-243,-37,315,37,-143
10305,29,-241,-32,295,46,-141
10310,28,-242,-33,277,51,-133
10315,27,-246,-34,259,55,-125
10320,22,-246,-34,243,60,-118
10325,24,-250,-32,229,63,-109
10330,22,-252,-27,221,66,-97
10335,19,-252,-30,221,67,-86
10340,16,-252,-29,226,65,-75
10345,13,-253,-27,235,62,-66
10350,14,-253,-23,244,59,-55
10355,14,-252,-26,254,54,-46
10360,14,-252,-25,260,52,-36
10365,10,-249,-21,265,48,-30
10370,11,-249,-27,270,46,-20
10375,11,-248,-24,273,46,-16
10380,6,-242,-15,275,44,-13
10385,13,-247,-20,278,45,-12
10390,9,-246,-15,280,46,-12
10395,10,-248,-14,288,45,-15
10400,9,-246,-16,296,45,-17
10405,8,-247,-11,302,44,-20
10410,8,-246,-13,305,42,-25
10415,8,-243,-11,306,40,-29
10420,10,-240,-11,302,41,-31
10425,12,-243,-17,292,43,-29
10430,8,-246,-14,279,48,-32
10435,10,-243,-13,265,51,-36
10440,7,-237,-13,254,56,-41
10445,13,-245,-15,244,59,-42
10450,11,-243,-12,238,61,-38
10455,14,-243,-8,231,62,-38
10460,13,-244,-11,223,64,-37
10465,9,-245,-11,218,66,-39
10470,11,-242,-11,212,65,-40
10475,11,-245,-12,206,64,-38
10480,13,-246,-11,200,65,-38
10485,9,-246,-10,194,64,-37
10490,10,-243,-8,189,64,-35
10495,13,-246,-13,187,64,-34
10500,12,-244,-12,182,63,-33
10505,12,-246,-11,178,62,-31
10510,12,-241,-11,173,60,-30
10515,11,-245,-11,165,57,-30
10520,11,-244,-8,157,55,-27
10525,9,-243,-6,148,50,-26
10530,13,-248,-11,137,45,-23
10535,10,-247,-6,125,41,-21
10540,9,-248,-9,116,37,-20
10545,10,-250,-11,109,31,-18
10550,11,-250,-10,106,26,-16
10555,10,-254,-10,105,20,-15
10560,10,-251,-14,106,15,-12
10565,12,-253,-6,112,11,-9
10570,12,-253,-8,117,9,-6
10575,12,-249,-9,125,6,-3
10580,13,-251,-5,129,5,-1
10585,13,-250,-8,131,5,1
10590,12,-251,-7,135,7,5
10595,14,-248,-6,137,9,6
10600,11,-248,-7,137,9,6
10605,14,-247,-5,137,10,6
10610,14,-247,-2,138,12,8
10615,14,-248,-3,137,13,6
10620,13,-248,-1,135,15,6
10625,14,-248,-5,134,16,6
10630,11,-246,1,133,19,7
10635,10,-249,0,131,20,8
10640,12,-245,-1,128,23,7
10645,12,-248,-3,125,24,5
10650,10,-249,1,120,25,4
10655,12,-247,-3,114,26,2
10660,12,-250,0,109,28,0
10665,11,-244,1,104,27,1
10670,12,-244,-4,99,28,0
10675,11,-246,0,96,30,-1
10680,7,-248,-4,93,32,-1
10685,10,-250,-3,92,33,-3
10690,11,-250,0,92,32,-3
10695,9,-253,1,90,32,-4
10700,3,-251,1,87,29,-2
10705,8,-247,1,87,25,-2
10710,10,-247,1,88,24,-1
10715,8,-249,-2,91,21,-1
10720,8,-250,2,91,20,-1
10725,8,-249,1,91,20,-2
10730,12,-250,0,91,20,-3
10735,9,-248,2,90,21,-1
10740,9,-249,2,85,24,-1
10745,10,-248,1,83,25,-2
10750,10,-248,0,79,26,-3
10755,10,-248,1,77,25,-3
10760,12,-249,3,76,24,-4
10765,8,-248,1,75,23,-6
10770,10,-253,8,77,20,-9
10775,8,-248,3,77,17,-10
10780,9,-248,4,80,15,-12
10785,9,-250,5,81,15,-14
10790,9,-253,3,83,13,-17
10795,5,-250,7,82,13,-17
10800,8,-251,5,84,13,-18
10805,8,-249,5,85,12,-17
10810,11,-253,7,85,9,-19
10815,12,-249,2,88,5,-19
10820,11,-248,4,90,2,-17
10825,10,-245,5,92,-2,-15
10830,8,-244,2,93,-4,-12
10835,11,-245,5,94,-8,-10
10840,10,-243,6,91,-10,-9
10845,12,-246,6,87,-12,-7
10850,11,-247,6,83,-14,-4
10855,9,-243,4,78,-17,-3
10860,9,-243,6,71,-19,2
10865,12,-248,3,64,-23,3
10870,12,-245,5,55,-26,3
10875,10,-247,2,49,-29,6
10880,11,-247,5,41,-33,6
10885,12,-245,0,38,-37,8
10890,12,-247,8,37,-41,9
10895,10,-250,2,36,-44,10
10900,12,-252,1,37,-44,12
10905,12,-251,3,39,-45,10
10910,13,-249,2,43,-45,9
10915,14,-248,1,44,-45,8
10920,12,-250,0,46,-44,7
10925,14,-249,5,45,-44,5
10930,14,-247,1,46,-43,3
10935,12,-248,1,45,-42,3
10940,13,-248,1,45,-42,4
10945,14,-249,1,46,-40,2
10950,14,-249,2,47,-41,1
10955,13,-246,3,48,-44,1
10960,12,-245,1,49,-42,-1
10965,11,-246,0,50,-42,-2
10970,11,-250,3,51,-42,-4
10975,15,-246,0,51,-40,-3
10980,15,-247,1,53,-40,-5
10985,17,-249,2,54,-39,-6
10990,16,-246,0,54,-38,-6
10995,16,-246,0,54,-36,-6
11000,16,-250,1,51,-34,-8
11005,15,-246,2,50,-31,-8
11010,14,-247,3,49,-29,-7
11015,16,-245,2,45,-25,-8
11020,13,-245,2,42,-24,-8
11025,20,-247,2,39,-22,-11
11030,18,-245,2,39,-21,-9
11035,18,-249,6,36,-22,-9
11040,12,-246,5,34,-20,-10
11045,18,-251,3,33,-19,-9
11050,16,-247,4,32,-18,-8
11055,15,-247,2,32,-16,-9
11060,18,-246,1,30,-16,-8
11065,16,-244,4,29,-15,-7
11070,16,-250,2,29,-14,-10
11075,17,-247,2,28,-14,-9
11080,17,-249,4,29,-14,-9
11085,15,-245,3,29,-12,-9
11090,15,-248,4,29,-11,-9
11095,15,-246,4,29,-10,-10
11100,16,-247,4,28,-8,-10
11105,18,-249,2,28,-6,-12
11110,17,-249,5,28,-7,-12
11115,15,-247,3,28,-4,-12
11120,15,-247,5,28,-2,-13
11125,15,-247,4,26,-2,-14
11130,15,-248,9,24,-2,-13
11135,14,-246,4,25,-2,-13
11140,15,-247,4,24,-3,-14
11145,16,-249,3,24,-2,-12
11150,11,-250,3,23,-2,-11
11155,14,-249,3,22,0,-12
11160,13,-248,1,23,1,-13
11165,17,-250,0,25,3,-13
11170,16,-249,3,25,4,-15
11175,13,-248,4,29,7,-14
11180,15,-249,2,29,10,-14
11185,15,-246,2,28,13,-15
11190,14,-248,-1,28,17,-15
11195,16,-249,4,27,21,-17
11200,16,-248,3,26,24,-15
11205,13,-248,2,25,24,-17
11210,17,-251,1,26,26,-19
11215,15,-250,3,25,27,-20
11220,16,-247,1,24,28,-22
11225,15,-250,1,24,28,-21
11230,14,-249,1,24,29,-19
11235,17,-250,3,25,27,-20
11240,15,-247,3,26,27,-18
11245,17,-250,2,27,27,-19
11250,18,-246,3,29,28,-18
11255,17,-247,6,30,28,-18
11260,13,-248,4,31,29,-19
11265,13,-244,3,32,31,-19
11270,14,-249,3,32,31,-18
11275,17,-249,2,33,30,-18
11280,14,-248,2,33,30,-17
11285,13,-249,3,34,30,-18
11290,21,-250,9,33,29,-17
11295,12,-246,7,32,29,-16
11300,14,-247,4,30,28,-16
11305,17,-249,4,26,26,-17
11310,20,-250,6,25,26,-15
11315,14,-250,8,22,25,-14
11320,12,-249,6,21,25,-14
11325,12,-247,2,23,26,-14
11330,11,-247,5,26,27,-12
11335,13,-252,3,29,28,-14
11340,22,-253,6,31,31,-13
11345,14,-251,6,33,32,-13
11350,14,-251,4,33,34,-13
11355,14,-252,3,33,35,-11
11360,15,-254,4,32,36,-14
11365,13,-252,4,30,36,-11
11370,15,-253,2,29,37,-12
11375,14,-253,2,30,37,-12
11380,16,-253,7,31,37,-13
11385,12,-256,0,34,38,-12
11390,11,-254,-2,36,37,-13
11395,12,-257,-2,38,36,-12
11400,11,-256,-2,41,34,-11
11405,13,-256,-1,45,32,-12
11410,12,-255,-2,49,30,-11
11415,12,-253,-2,49,30,-14
11420,10,-257,0,56,28,-11
11425,11,-255,-1,61,23,-8
11430,12,-254,-2,67,20,-7
11435,9,-256,-3,74,17,-8
11440,9,-256,-1,81,13,-6
11445,8,-256,-3,84,10,-6
11450,4,-254,-3,86,5,-6
11455,5,-255,-4,89,3,-4
11460,9,-259,-6,91,0,-4
11465,7,-255,-1,90,-3,-4
11470,8,-255,1,92,-8,-4
11475,7,-255,-8,92,-13,-4
11480,5,-255,-6,94,-18,-4
11485,7,-254,-3,95,-22,-5
11490,8,-255,-7,95,-28,-3
11495,8,-256,-7,93,-33,-3
11500,8,-253,-10,93,-39,-3
11505,11,-252,-9,91,-41,-2
11510,10,-252,-11,90,-45,0
11515,9,-252,-9,88,-46,-1
11520,10,-249,-10,86,-46,2
11525,11,-249,-8,84,-49,1
11530,18,-249,-7,82,-50,2
11535,11,-245,-9,80,-49,6
11540,16,-247,-6,78,-48,9
11545,12,-241,-7,74,-49,13
11550,11,-240,-5,70,-48,17
11555,11,-239,-3,63,-46,24
11560,14,-243,-7,58,-45,29
11565,14,-239,-3,48,-40,35
11570,15,-241,-8,40,-38,42
11575,12,-241,-3,29,-39,51
11580,14,-244,-2,17,-42,61
11585,17,-248,-5,5,-49,67
11590,14,-247,-9,-8,-53,75
11595,13,-250,-12,-18,-55,82
11600,15,-251,-13,-28,-54,88
11605,11,-253,-17,-34,-51,90
11610,11,-250,-11,-36,-48,91
11615,6,-250,-18,-34,-48,91
11620,8,-253,-17,-28,-47,89
11625,8,-254,-16,-20,-48,86
11630,4,-247,-18,-9,-51,82
11635,5,-247,-12,0,-53,77
11640,8,-244,-16,10,-55,71
11645,6,-245,-17,15,-54,63
11650,9,-242,-18,17,-54,58
11655,6,-237,-17,16,-54,56
11660,9,-239,-18,16,-54,50
11665,13,-240,-17,13,-52,46
11670,10,-234,-22,13,-47,43
11675,15,-240,-18,15,-40,41
11680,9,-238,-17,17,-35,38
11685,16,-238,-15,17,-27,36
11690,19,-244,-17,16,-18,38
11695,17,-243,-12,14,-7,37
11700,18,-245,-16,17,4,37
11705,18,-245,-17,24,12,39
11710,18,-246,-13,32,19,39
11715,18,-244,-18,42,25,40
11720,15,-242,-14,54,32,42
11725,18,-242,-11,63,39,43
11730,17,-240,-17,71,44,40
11735,13,-241,-14,76,49,37
11740,12,-237,-11,80,56,34
11745,14,-239,-12,84,60,30
11750,10,-240,-12,87,64,23
11755,7,-238,-6,91,65,14
11760,9,-239,-6,95,64,6
11765,7,-236,-10,96,62,-2
11770,4,-235,-8,93,59,-9
11775,4,-239,-6,89,55,-16
11780,3,-239,-6,81,48,-21
11785,3,-238,-7,69,43,-27
11790,1,-240,-9,56,34,-28
11795,2,-243,-7,41,28,-29
11800,0,-241,-10,27,24,-31
11805,1,-247,-11,16,22,-34
11810,-3,-246,-12,8,23,-33
11815,1,-251,-11,2,25,-31
11820,1,-251,-10,0,29,-29
11825,4,-252,-10,0,34,-29
11830,4,-253,-10,2,38,-27
11835,8,-256,-9,5,43,-27
11840,5,-253,-11,7,46,-26
11845,9,-255,-11,10,50,-28
11850,9,-253,-11,14,52,-30
11855,10,-252,-10,16,54,-34
11860,10,-247,-12,19,54,-36
11865,11,-250,-8,21,55,-39
11870,12,-250,-9,20,55,-43
11875,9,-248,-11,17,56,-48
11880,11,-248,-12,12,55,-52
11885,14,-245,-13,6,52,-54
11890,14,-249,-13,0,52,-58
11895,12,-244,-9,-4,52,-62
11900,12,-247,-10,-5,50,-62
11905,12,-246,-8,-5,47,-63
11910,9,-247,-11,-5,45,-61
11915,11,-254,-3,-5,42,-59
11920,12,-245,-12,-8,38,-53
11925,14,-254,-8,-9,36,-49
11930,11,-253,-8,-11,35,-44
11935,11,-256,-10,-10,36,-39
11940,13,-256,-13,-7,37,-35
11945,12,-256,-12,-1,38,-29
11950,11,-256,-14,8,37,-25
11955,13,-255,-15,18,37,-20
11960,13,-255,-13,28,37,-18
11965,12,-255,-15,39,37,-17
11970,8,-254,-18,49,36,-16
11975,14,-249,-16,55,38,-17
11980,11,-246,-14,58,37,-19
11985,11,-247,-16,57,37,-24
11990,12,-245,-19,51,36,-27
11995,11,-248,-15,38,34,-29
