timestamp,acc_x,acc_y,acc_z,gyro_x,gyro_y,gyro_z
0,5,-249,-56,-50,52,-2
5,5,-253,-59,-48,54,-3
10,6,-250,-57,-47,56,-2
15,6,-249,-60,-45,58,-3
20,7,-250,-55,-43,60,-4
25,6,-251,-60,-42,61,-5
30,8,-253,-58,-40,62,-4
35,4,-252,-57,-38,64,-5
40,7,-251,-57,-37,65,-3
45,9,-250,-58,-34,66,-4
50,7,-253,-57,-32,67,-3
55,9,-252,-58,-30,68,-4
60,8,-252,-58,-30,69,-3
65,6,-251,-57,-29,68,-4
70,10,-252,-56,-26,69,-4
75,5,-252,-57,-26,66,-5
80,9,-253,-59,-28,66,-4
85,7,-250,-58,-29,65,-5
90,4,-253,-61,-31,62,-5
95,8,-251,-61,-33,61,-6
100,9,-251,-61,-35,59,-5
105,8,-253,-59,-36,59,-6
110,6,-251,-58,-38,57,-5
115,6,-253,-57,-38,59,-8
120,4,-249,-57,-38,61,-6
125,5,-253,-59,-35,61,-8
130,8,-252,-60,-37,63,-7
135,5,-251,-62,-33,66,-8
140,4,-249,-61,-32,68,-5
145,8,-250,-60,-31,70,-7
150,8,-252,-60,-29,73,-4
155,7,-251,-57,-26,75,-6
160,7,-248,-57,-26,74,-4
165,8,-249,-60,-25,75,-6
170,10,-251,-58,-24,72,-3
175,7,-252,-57,-24,71,-6
180,7,-249,-62,-24,70,-3
185,7,-249,-56,-24,68,-4
190,8,-250,-57,-25,68,-2
195,6,-249,-61,-25,69,-4
200,8,-251,-63,-25,69,-3
205,6,-250,-59,-25,71,-4
210,6,-251,-60,-27,70,-2
215,8,-253,-60,-28,71,-3
220,7,-249,-58,-28,74,-1
225,9,-253,-56,-28,73,-2
230,8,-251,-56,-27,73,2
235,8,-251,-58,-29,71,0
240,5,-252,-60,-28,72,1
245,8,-249,-59,-29,69,-1
250,8,-250,-58,-30,65,1
255,9,-252,-60,-33,66,-3
260,7,-252,-59,-35,65,0
265,7,-250,-59,-35,65,-5
270,9,-252,-64,-37,66,-3
275,6,-250,-62,-36,67,-6
280,5,-251,-57,-35,68,-3
285,6,-254,-61,-34,68,-6
290,4,-249,-58,-34,66,-3
295,5,-249,-60,-35,68,-7
300,9,-253,-62,-34,70,-5
305,5,-252,-60,-35,71,-9
310,8,-252,-59,-38,70,-8
315,7,-249,-62,-39,70,-10
320,7,-254,-63,-41,69,-7
325,9,-249,-58,-42,69,-9
330,5,-251,-57,-47,67,-6
335,8,-249,-60,-49,66,-10
340,5,-250,-59,-51,64,-7
345,10,-249,-59,-52,65,-9
350,5,-250,-61,-51,65,-7
355,5,-252,-60,-49,64,-8
360,5,-251,-59,-47,64,-5
365,7,-254,-60,-42,63,-7
370,6,-250,-62,-39,61,-3
375,8,-253,-61,-36,61,-6
380,6,-250,-59,-35,59,-4
385,6,-250,-67,-34,57,-5
390,5,-252,-63,-35,57,-3
395,8,-251,-61,-32,57,-5
400,7,-251,-59,-30,58,-2
405,9,-252,-61,-27,59,-4
410,6,-250,-59,-25,59,-3
415,8,-253,-59,-22,60,-4
420,6,-249,-59,-21,62,-2
425,7,-254,-61,-21,62,-4
430,6,-249,-58,-21,63,-3
435,8,-250,-59,-23,63,-6
440,8,-249,-62,-24,63,-3
445,10,-251,-59,-23,63,-5
450,6,-250,-63,-23,62,-5
455,7,-254,-62,-23,64,-7
460,8,-251,-66,-23,65,-5
465,9,-252,-59,-21,67,-7
470,7,-252,-63,-17,70,-5
475,11,-251,-63,-17,72,-6
480,7,-251,-60,-15,69,-4
485,5,-249,-62,-17,66,-5
490,8,-251,-64,-16,65,-3
495,8,-252,-59,-17,62,-4
500,6,-253,-65,-18,60,-2
505,5,-250,-63,-17,59,-2
510,10,-253,-62,-17,59,-1
515,7,-250,-63,-13,59,-2
520,8,-249,-62,-12,59,0
525,7,-251,-60,-10,58,-3
530,7,-250,-60,-11,61,-1
535,4,-251,-58,-11,61,-2
540,6,-250,-59,-12,61,-1
545,3,-247,-60,-15,62,-2
550,4,-250,-61,-18,62,-1
555,6,-247,-60,-23,62,-2
560,6,-247,-60,-26,63,-4
565,6,-251,-58,-30,62,-4
570,7,-249,-58,-35,63,-4
575,6,-250,-62,-37,63,-6
580,7,-252,-60,-39,63,-4
585,7,-252,-58,-41,62,-6
590,5,-251,-60,-42,63,-6
595,6,-250,-61,-40,63,-5
600,9,-250,-59,-39,64,-5
605,7,-250,-63,-35,64,-4
610,6,-252,-59,-31,64,-7
615,9,-252,-62,-28,63,-7
620,6,-252,-58,-22,62,-6
625,8,-252,-61,-19,60,-5
630,7,-251,-63,-16,59,-5
635,7,-253,-59,-14,55,-5
640,7,-253,-62,-10,53,-4
645,9,-253,-59,-7,51,-4
650,7,-250,-63,-5,51,-4
655,8,-250,-59,-6,51,-3
660,8,-252,-63,-8,48,-4
665,9,-249,-64,-11,46,-5
670,7,-252,-58,-14,46,-5
675,7,-248,-62,-18,46,-5
680,9,-249,-60,-20,44,-4
685,7,-247,-57,-24,44,-4
690,5,-247,-58,-26,44,-4
695,10,-248,-58,-29,46,-3
700,6,-248,-59,-30,47,-4
705,8,-250,-60,-32,49,-2
710,10,-252,-62,-34,51,-4
715,7,-249,-63,-37,54,-3
720,8,-251,-59,-37,55,-4
725,8,-253,-59,-39,57,-3
730,11,-252,-59,-40,58,-6
735,8,-252,-60,-38,61,-3
740,10,-253,-60,-36,64,-6
745,8,-253,-60,-34,66,-3
750,9,-255,-64,-32,68,-4
755,6,-251,-61,-31,70,-3
760,12,-254,-62,-29,70,-7
765,10,-254,-60,-27,68,-6
770,8,-253,-61,-21,68,-7
775,9,-252,-65,-14,68,-6
780,6,-252,-61,-7,70,-6
785,11,-253,-62,0,72,-2
790,9,-253,-64,5,75,-3
795,7,-252,-63,6,76,-1
800,6,-248,-63,5,75,-2
805,9,-252,-64,3,73,1
810,7,-248,-62,1,68,-1
815,5,-249,-61,-5,64,0
820,5,-249,-58,-8,60,-1
825,10,-250,-61,-12,57,0
830,4,-248,-60,-14,54,-1
835,3,-248,-59,-16,52,1
840,6,-251,-60,-16,52,0
845,6,-250,-57,-17,52,2
850,6,-251,-60,-18,53,0
855,5,-248,-59,-20,53,2
860,5,-249,-59,-22,53,-2
865,6,-251,-59,-25,52,1
870,8,-249,-57,-24,52,-2
875,7,-250,-64,-26,52,0
880,4,-250,-64,-26,53,-4
885,8,-250,-60,-26,53,-3
890,8,-249,-63,-29,54,-5
895,9,-251,-62,-29,56,-4
900,8,-248,-64,-30,59,-7
905,6,-251,-63,-34,62,-5
910,6,-253,-61,-37,63,-8
915,8,-253,-58,-36,64,-5
920,7,-254,-64,-36,65,-6
925,10,-251,-59,-34,65,-3
930,8,-252,-61,-31,63,-5
935,6,-252,-63,-26,64,-2
940,10,-251,-65,-22,63,-4
945,5,-250,-62,-18,60,1
950,9,-252,-61,-15,59,-2
955,8,-251,-62,-14,59,2
960,7,-251,-60,-11,60,-1
965,8,-254,-64,-8,59,2
970,7,-250,-59,-7,58,1
975,4,-251,-60,-4,57,4
980,5,-248,-58,-3,57,0
985,7,-251,-57,-2,56,4
990,7,-248,-62,-4,55,1
995,5,-252,-57,-6,54,3
1000,7,-250,-58,-8,53,0
1005,6,-249,-61,-11,52,1
1010,8,-252,-63,-13,54,-1
1015,5,-249,-60,-17,55,0
1020,8,-252,-59,-19,58,-4
1025,7,-250,-63,-21,59,-1
1030,8,-252,-65,-22,61,-5
1035,7,-251,-62,-26,61,-2
1040,7,-249,-61,-26,63,-4
1045,6,-248,-66,-28,62,-2
1050,7,-249,-63,-31,60,-4
1055,5,-249,-60,-31,58,-1
1060,6,-250,-63,-33,56,-5
1065,6,-248,-58,-33,54,-1
1070,7,-249,-59,-32,51,-4
1075,9,-253,-62,-31,49,-1
1080,8,-249,-61,-28,51,-3
1085,10,-251,-61,-27,50,0
1090,7,-249,-61,-25,50,-1
1095,9,-252,-62,-26,50,0
1100,7,-251,-60,-28,50,-3
1105,9,-254,-63,-27,49,0
1110,9,-253,-61,-30,49,-3
1115,7,-250,-63,-32,49,-3
1120,6,-252,-61,-34,49,-6
1125,8,-252,-63,-34,51,-5
1130,7,-251,-61,-34,50,-6
1135,6,-251,-59,-31,54,-6
1140,5,-250,-63,-26,57,-6
1145,5,-254,-67,-23,61,-6
1150,5,-251,-60,-22,64,-7
1155,8,-253,-60,-19,67,-5
1160,6,-249,-64,-19,67,-8
1165,8,-248,-64,-21,67,-6
1170,7,-248,-59,-22,65,-7
1175,7,-249,-61,-24,64,-5
1180,7,-249,-58,-27,59,-6
1185,6,-250,-61,-29,56,-4
1190,7,-251,-60,-30,52,-6
1195,9,-250,-57,-30,47,-4
1200,7,-250,-59,-30,45,-5
1205,7,-251,-59,-28,43,-4
1210,10,-250,-62,-27,43,-4
1215,5,-252,-59,-27,44,-2
1220,5,-249,-59,-27,45,-3
1225,9,-250,-62,-28,46,-2
1230,6,-251,-59,-28,47,-2
1235,7,-250,-62,-28,50,-3
1240,7,-248,-59,-30,51,-3
1245,8,-250,-63,-30,52,-2
1250,7,-250,-61,-30,52,-3
1255,7,-250,-64,-28,52,-2
1260,7,-252,-59,-24,54,-4
1265,8,-250,-63,-23,56,-4
1270,9,-253,-58,-21,58,-4
1275,7,-251,-61,-20,61,-5
1280,6,-250,-60,-20,63,-4
1285,10,-249,-58,-23,64,-5
1290,6,-247,-61,-26,66,-5
1295,8,-251,-59,-27,65,-7
1300,7,-251,-62,-31,66,-6
1305,11,-250,-64,-35,66,-6
1310,6,-248,-62,-35,62,-5
1315,6,-248,-58,-37,62,-6
1320,7,-252,-62,-35,61,-4
1325,7,-249,-65,-34,61,-6
1330,7,-247,-65,-34,61,-5
1335,7,-250,-63,-34,59,-6
1340,5,-250,-61,-34,57,-4
1345,8,-251,-61,-33,57,-5
1350,4,-250,-63,-33,55,-6
1355,9,-251,-63,-32,54,-5
1360,4,-250,-61,-32,52,-4
1365,5,-250,-60,-32,51,-4
1370,4,-254,-62,-32,51,-3
1375,7,-250,-63,-32,50,-4
1380,5,-251,-65,-34,49,-4
1385,7,-251,-61,-35,50,-4
1390,4,-249,-60,-34,51,-1
1395,7,-254,-62,-34,51,-4
1400,8,-252,-63,-34,51,-4
1405,7,-251,-59,-35,52,-6
1410,6,-250,-64,-33,53,-6
1415,6,-249,-66,-34,53,-7
1420,8,-250,-63,-32,55,-6
1425,8,-253,-63,-31,56,-8
1430,5,-249,-62,-31,57,-7
1435,10,-249,-60,-32,56,-9
1440,6,-249,-63,-33,55,-8
1445,7,-249,-61,-34,55,-9
1450,6,-249,-63,-33,54,-7
1455,8,-250,-63,-32,55,-8
1460,6,-248,-64,-31,54,-6
1465,7,-247,-61,-31,56,-7
1470,9,-248,-64,-31,57,-5
1475,10,-250,-63,-31,58,-6
1480,7,-251,-63,-34,60,-2
1485,7,-245,-65,-37,61,-4
1490,7,-250,-62,-39,61,-3
1495,9,-251,-63,-42,62,-4
1500,10,-252,-62,-42,62,-2
1505,8,-253,-61,-40,59,-4
1510,9,-252,-62,-39,59,-1
1515,9,-252,-64,-38,60,-2
1520,7,-251,-66,-35,60,1
1525,10,-251,-63,-34,58,-1
1530,6,-250,-60,-32,56,1
1535,6,-248,-61,-29,55,-1
1540,6,-250,-62,-28,53,1
1545,8,-254,-66,-25,53,-1
1550,8,-250,-63,-23,55,1
1555,7,-251,-60,-18,56,-1
1560,8,-251,-61,-17,59,0
1565,8,-250,-63,-16,60,-2
1570,10,-249,-64,-19,61,2
1575,6,-247,-62,-21,64,-2
1580,6,-249,-63,-23,68,1
1585,5,-247,-66,-25,67,-3
1590,6,-250,-64,-27,68,0
1595,3,-250,-64,-31,69,-3
1600,10,-249,-68,-36,70,-2
1605,5,-249,-64,-40,69,-4
1610,9,-250,-66,-42,66,-1
1615,8,-250,-66,-43,63,-4
1620,5,-251,-64,-43,60,-1
1625,7,-253,-67,-41,57,-2
1630,8,-249,-60,-39,54,0
1635,6,-247,-61,-34,55,-1
1640,7,-252,-66,-35,55,0
1645,6,-252,-66,-34,55,-1
1650,9,-249,-62,-34,55,3
1655,7,-251,-64,-34,56,0
1660,6,-250,-64,-33,54,3
1665,4,-249,-65,-30,56,0
1670,8,-256,-65,-27,56,2
1675,7,-250,-66,-25,56,-1
1680,8,-250,-67,-24,57,1
1685,7,-249,-66,-23,57,-2
1690,6,-247,-62,-24,58,-1
1695,6,-248,-66,-25,59,-3
1700,5,-247,-64,-27,60,-1
1705,5,-248,-67,-30,60,-5
1710,6,-247,-64,-33,61,-2
1715,7,-250,-65,-34,60,-5
1720,8,-250,-66,-34,60,-3
1725,5,-249,-65,-34,59,-4
1730,7,-251,-65,-34,57,-3
1735,6,-248,-65,-35,57,-5
1740,7,-251,-65,-35,58,-3
1745,7,-252,-66,-35,55,-6
1750,7,-252,-67,-34,56,-3
1755,5,-251,-69,-35,56,-5
1760,10,-253,-67,-32,55,-4
1765,7,-252,-66,-29,58,-5
1770,7,-250,-69,-26,61,-1
1775,7,-250,-65,-22,62,-4
1780,6,-248,-70,-20,64,-2
1785,6,-249,-65,-18,67,-2
1790,7,-249,-66,-14,69,1
1795,9,-247,-64,-16,70,-1
1800,7,-248,-65,-17,69,2
1805,7,-250,-65,-18,67,-2
1810,7,-246,-65,-19,67,0
1815,7,-246,-65,-21,65,-2
1820,7,-248,-62,-24,65,0
1825,8,-249,-65,-28,65,-2
1830,5,-249,-66,-29,61,-1
1835,7,-251,-67,-29,59,-1
1840,6,-249,-65,-27,59,0
1845,9,-248,-64,-26,57,-3
1850,8,-251,-66,-23,57,-1
1855,9,-249,-63,-23,58,-2
1860,5,-249,-66,-21,58,-1
1865,7,-249,-63,-21,59,-3
1870,6,-249,-69,-21,60,-1
1875,8,-251,-64,-24,60,-2
1880,6,-249,-62,-25,62,-2
1885,7,-248,-70,-26,62,-3
1890,9,-249,-65,-26,64,-1
1895,8,-250,-64,-27,64,-2
1900,9,-248,-68,-25,64,0
1905,6,-252,-62,-25,65,-3
1910,5,-252,-65,-23,65,-1
1915,4,-250,-67,-21,63,-1
1920,7,-248,-69,-19,64,0
1925,8,-250,-65,-17,64,-1
1930,8,-249,-68,-16,64,-1
1935,8,-250,-66,-16,64,-1
1940,11,-249,-66,-16,63,-1
1945,8,-250,-70,-16,63,-2
1950,6,-252,-67,-17,63,-1
1955,8,-250,-66,-17,62,0
1960,8,-250,-67,-17,59,-1
1965,6,-247,-67,-16,60,-2
1970,6,-248,-69,-16,59,0
1975,5,-251,-63,-16,60,-1
1980,7,-248,-67,-15,59,-1
1985,6,-252,-66,-16,59,-3
1990,8,-251,-66,-16,59,0
1995,5,-249,-65,-15,58,-2
2000,7,-250,-70,-12,58,-2
2005,5,-252,-68,-11,59,-1
2010,8,-251,-69,-12,59,-3
2015,6,-246,-64,-11,58,-3
2020,8,-249,-67,-12,56,-4
2025,6,-248,-68,-11,54,-5
2030,7,-252,-65,-14,54,-7
2035,6,-247,-66,-15,54,-7
2040,7,-248,-71,-17,55,-6
2045,8,-247,-63,-17,58,-5
2050,5,-248,-67,-19,58,-5
2055,7,-251,-70,-21,61,-2
2060,10,-251,-67,-24,64,-4
2065,11,-250,-69,-22,64,-1
2070,6,-248,-69,-19,64,-4
2075,8,-250,-68,-18,64,-2
2080,7,-251,-68,-16,62,-2
2085,10,-251,-68,-14,61,0
2090,10,-251,-68,-13,60,-1
2095,9,-251,-61,-11,58,0
2100,8,-248,-68,-10,55,-3
2105,8,-251,-69,-10,53,-1
2110,5,-251,-67,-9,52,-2
2115,7,-250,-68,-8,54,-1
2120,5,-250,-64,-7,53,-2
2125,8,-252,-69,-6,54,-1
2130,7,-249,-65,-3,55,-1
2135,7,-249,-66,1,58,0
2140,6,-248,-62,3,60,-1
2145,8,-247,-68,6,61,1
2150,6,-250,-63,6,63,-1
2155,6,-248,-66,5,65,0
2160,6,-245,-67,3,65,-2
2165,8,-248,-65,-1,65,0
2170,6,-250,-68,-3,64,-1
2175,7,-251,-67,-4,65,1
2180,7,-248,-67,-8,65,-2
2185,8,-252,-62,-10,63,0
2190,8,-249,-67,-13,60,-2
2195,8,-250,-67,-14,59,1
2200,8,-251,-67,-14,60,-1
2205,8,-251,-68,-15,58,2
2210,7,-251,-67,-16,59,1
2215,8,-248,-70,-14,57,2
2220,6,-248,-71,-15,57,-1
2225,7,-251,-67,-10,56,2
2230,7,-252,-66,-9,56,1
2235,6,-250,-66,-5,55,1
2240,7,-249,-66,-1,55,-1
2245,9,-254,-72,0,56,2
2250,10,-248,-68,1,55,-1
2255,6,-248,-65,2,56,1
2260,9,-251,-67,0,57,0
2265,8,-249,-65,-1,58,1
2270,8,-249,-69,-4,60,-3
2275,9,-251,-67,-6,60,0
2280,7,-250,-69,-8,60,-2
2285,9,-251,-65,-9,59,1
2290,5,-251,-65,-9,58,-1
2295,7,-247,-62,-10,60,2
2300,8,-248,-64,-10,61,-1
2305,9,-249,-68,-8,62,1
2310,6,-248,-66,-8,65,-2
2315,9,-252,-63,-6,65,2
2320,8,-251,-65,-4,64,-1
2325,7,-252,-63,-3,62,2
2330,9,-251,-65,-2,61,-1
2335,8,-252,-66,-2,59,1
2340,5,-250,-67,-1,58,-2
2345,6,-250,-60,-1,57,1
2350,10,-253,-63,-1,56,-3
2355,11,-251,-65,0,55,0
2360,9,-248,-68,0,56,-3
2365,8,-249,-64,-2,57,-1
2370,4,-252,-65,-3,58,-2
2375,8,-253,-64,-1,58,0
2380,6,-249,-65,-3,60,-2
2385,7,-248,-65,-2,59,0
2390,6,-248,-63,-4,59,-3
2395,8,-252,-64,-4,59,2
2400,4,-248,-66,-5,58,-2
2405,4,-248,-66,-4,59,1
2410,4,-247,-64,-4,59,-1
2415,8,-249,-67,-3,58,0
2420,7,-246,-68,-4,59,-2
2425,4,-251,-64,-5,60,1
2430,8,-249,-63,-6,61,-2
2435,10,-249,-66,-7,60,0
2440,8,-249,-67,-4,62,-2
2445,7,-249,-65,-2,63,0
2450,5,-248,-62,-1,62,-2
2455,8,-250,-68,-1,64,0
2460,6,-248,-64,0,64,0
2465,7,-249,-69,0,64,1
2470,7,-250,-61,0,65,-1
2475,5,-251,-64,0,64,1
2480,9,-251,-66,1,65,-1
2485,5,-247,-63,2,64,2
2490,7,-249,-62,4,64,0
2495,5,-247,-60,6,65,2
2500,4,-252,-63,6,65,0
2505,8,-250,-68,5,64,2
2510,8,-248,-60,2,63,0
2515,10,-248,-64,2,63,3
2520,6,-252,-65,0,63,-1
2525,6,-249,-63,-2,64,3
2530,6,-249,-64,-3,63,1
2535,9,-249,-63,-4,63,2
2540,6,-249,-62,-4,61,0
2545,6,-252,-65,-6,62,2
2550,7,-251,-64,-9,61,0
2555,7,-253,-69,-11,61,0
2560,4,-251,-66,-12,61,-1
2565,7,-249,-64,-14,61,0
2570,6,-249,-67,-15,60,-2
2575,5,-253,-63,-15,61,-1
2580,3,-253,-57,-13,61,-2
2585,5,-255,-65,-11,62,-2
2590,8,-251,-64,-10,64,-4
2595,5,-248,-64,-8,66,-3
2600,7,-247,-63,-6,65,-4
2605,3,-248,-66,-4,66,-2
2610,6,-247,-65,-1,68,-1
2615,7,-250,-65,-3,68,0
2620,7,-248,-66,-6,66,-2
2625,8,-248,-63,-8,64,0
2630,6,-244,-66,-11,64,-1
2635,7,-249,-69,-14,63,1
2640,8,-250,-66,-18,61,-1
2645,8,-250,-67,-17,60,1
2650,7,-250,-63,-18,59,1
2655,6,-253,-67,-16,58,1
2660,7,-253,-62,-14,57,1
2665,6,-250,-65,-13,55,2
2670,4,-252,-64,-10,54,0
2675,9,-253,-64,-8,51,2
2680,4,-247,-61,-4,51,2
2685,5,-251,-65,-2,51,2
2690,6,-252,-65,1,52,1
2695,7,-252,-61,2,53,1
2700,4,-247,-65,1,54,1
2705,7,-250,-61,2,56,0
2710,6,-248,-62,3,57,1
2715,5,-249,-61,1,58,1
2720,4,-246,-62,0,60,-1
2725,9,-250,-66,-4,62,1
2730,5,-247,-67,-6,62,-1
2735,7,-253,-64,-8,63,0
2740,8,-250,-66,-11,64,-1
2745,8,-252,-60,-14,64,-2
2750,7,-252,-67,-15,65,0
2755,8,-251,-64,-17,65,-2
2760,6,-249,-66,-17,67,1
2765,9,-249,-67,-18,67,0
2770,7,-251,-68,-18,66,-1
2775,8,-248,-62,-17,62,-2
2780,8,-249,-64,-17,62,-1
2785,6,-249,-61,-15,61,-1
2790,7,-252,-64,-14,59,1
2795,6,-251,-67,-12,57,1
2800,5,-254,-72,-8,58,1
2805,12,-247,-84,-6,58,0
2810,15,-245,-62,-3,59,1
2815,0,-250,-67,0,60,-1
2820,3,-256,-62,0,61,0
2825,8,-252,-69,0,62,0
2830,5,-252,-61,-2,63,0
2835,9,-251,-63,-3,62,0
2840,8,-250,-64,-6,62,2
2845,6,-248,-63,-8,64,-2
2850,9,-250,-68,-11,64,1
2855,4,-250,-66,-12,66,-1
2860,7,-252,-63,-15,65,0
2865,8,-251,-64,-16,64,-3
2870,5,-247,-65,-16,64,-1
2875,6,-248,-61,-16,64,-4
2880,7,-250,-63,-16,62,-2
2885,5,-249,-64,-19,62,-4
2890,7,-252,-63,-19,61,-3
2895,7,-251,-64,-19,59,-4
2900,7,-251,-66,-18,58,-3
2905,4,-250,-62,-18,57,-4
2910,5,-251,-67,-15,57,-2
2915,5,-252,-65,-12,56,-3
2920,8,-250,-67,-11,57,-1
2925,9,-251,-66,-9,58,-4
2930,8,-251,-68,-6,60,-1
2935,7,-249,-65,-4,62,-2
2940,7,-249,-62,-4,65,-1
2945,6,-245,-64,-4,66,-3
2950,5,-250,-64,-4,68,-1
2955,8,-248,-64,-6,68,-4
2960,4,-249,-62,-9,68,-2
2965,8,-250,-65,-14,66,-3
2970,9,-251,-64,-16,65,-2
2975,6,-249,-67,-18,63,-5
2980,8,-250,-64,-22,61,-3
2985,6,-251,-64,-24,62,-4
2990,8,-250,-67,-26,60,-3
2995,8,-251,-64,-27,61,-5
3000,7,-251,-64,-26,60,-3
3005,10,-250,-62,-24,61,-6
3010,9,-253,-62,-21,62,-5
3015,8,-253,-66,-17,65,-7
3020,6,-253,-68,-11,70,-5
3025,9,-252,-65,-6,71,-8
3030,9,-249,-64,-2,76,-4
3035,5,-249,-64,1,80,-6
3040,8,-248,-67,2,82,-2
3045,8,-249,-62,2,82,-5
3050,9,-248,-65,0,81,-3
3055,7,-250,-69,-2,81,-4
3060,7,-249,-63,-4,81,0
3065,7,-250,-66,-5,82,-3
3070,8,-253,-65,-7,80,0
3075,6,-251,-65,-7,79,-2
3080,8,-252,-62,-5,78,0
3085,5,-249,-64,-3,76,-3
3090,9,-257,-62,1,75,0
3095,7,-258,-59,6,73,-2
3100,5,-259,-59,18,68,0
3105,7,-263,-63,34,53,-3
3110,5,-264,-61,55,39,-4
3115,6,-264,-67,75,21,-9
3120,4,-270,-68,91,6,-10
3125,4,-269,-72,107,-6,-15
3130,5,-266,-73,120,-15,-16
3135,4,-264,-83,125,-21,-21
3140,2,-260,-88,121,-21,-20
3145,2,-254,-92,107,-17,-23
3150,2,-246,-94,82,-9,-22
3155,3,-243,-87,47,6,-22
3160,0,-235,-87,13,12,-18
3165,3,-236,-83,-25,15,-18
3170,4,-235,-84,-62,13,-15
3175,8,-235,-84,-94,11,-18
3180,6,-233,-81,-123,12,-16
3185,5,-232,-78,-145,14,-16
3190,9,-230,-80,-159,20,-13
3195,11,-228,-80,-168,26,-11
3200,13,-228,-79,-175,30,-6
3205,12,-228,-83,-179,38,-4
3210,12,-227,-82,-183,46,1
3215,15,-230,-84,-186,53,1
3220,14,-228,-90,-188,65,6
3225,11,-227,-92,-194,77,7
3230,12,-228,-93,-202,85,11
3235,8,-229,-97,-210,94,11
3240,6,-234,-93,-218,98,17
3245,6,-232,-99,-225,100,19
3250,3,-234,-99,-230,101,24
3255,1,-234,-99,-234,100,23
3260,-3,-233,-102,-235,95,28
3265,-6,-233,-99,-234,89,28
3270,-8,-234,-98,-236,83,30
3275,-7,-236,-102,-236,73,29
3280,-8,-237,-104,-235,62,32
3285,-7,-236,-99,-235,48,30
3290,-7,-233,-106,-234,36,28
3295,-7,-230,-106,-235,24,25
3300,-9,-231,-109,-236,11,23
3305,-8,-225,-110,-241,3,16
3310,-8,-224,-113,-241,-4,15
3315,-8,-219,-113,-243,-7,8
3320,-6,-216,-115,-247,-11,4
3325,-9,-214,-112,-252,-12,-1
3330,-10,-209,-108,-258,-14,-5
3335,-7,-212,-107,-259,-14,-10
3340,-8,-207,-101,-259,-17,-12
3345,-4,-206,-97,-257,-17,-16
3350,-4,-201,-94,-251,-18,-20
3355,-3,-198,-87,-247,-18,-25
3360,-4,-196,-81,-246,-19,-25
3365,-1,-195,-81,-247,-17,-29
3370,3,-193,-81,-255,-16,-33
3375,5,-184,-83,-270,-8,-36
3380,7,-188,-81,-293,0,-39
3385,5,-183,-86,-325,15,-42
3390,8,-179,-79,-360,32,-45
3395,10,-175,-81,-401,50,-47
3400,14,-175,-87,-454,82,-46
3405,15,-175,-86,-498,110,-46
3410,18,-172,-83,-543,140,-43
3415,17,-171,-81,-586,172,-39
3420,19,-170,-81,-624,199,-30
3425,17,-170,-79,-656,218,-21
3430,14,-168,-74,-683,228,-10
3435,12,-172,-70,-704,230,3
3440,7,-168,-68,-719,217,16
3445,5,-172,-69,-728,194,35
3450,6,-174,-68,-731,159,52
3455,4,-174,-72,-727,132,67
3460,5,-175,-78,-724,110,82
3465,2,-176,-82,-725,93,94
3470,1,-176,-81,-730,82,103
3475,1,-180,-83,-740,69,109
3480,-2,-178,-86,-754,56,110
3485,-5,-178,-93,-776,38,110
3490,-7,-178,-98,-807,10,105
3495,-4,-183,-105,-847,-28,97
3500,-3,-186,-114,-905,-61,89
3505,-3,-190,-119,-956,-90,82
3510,0,-191,-120,-1006,-109,74
3515,-1,-196,-124,-1050,-118,65
3520,3,-197,-120,-1084,-117,56
3525,4,-199,-127,-1108,-105,48
3530,5,-201,-119,-1119,-84,38
3535,7,-204,-118,-1120,-59,31
3540,12,-204,-119,-1117,-32,23
3545,8,-201,-112,-1108,1,14
3550,10,-202,-110,-1093,27,9
3555,10,-203,-108,-1078,48,7
3560,7,-201,-107,-1061,65,3
3565,8,-202,-105,-1043,81,6
3570,7,-204,-104,-1026,95,11
3575,14,-205,-106,-1012,108,21
3580,18,-203,-111,-1007,127,29
3585,18,-200,-110,-1005,152,37
3590,18,-200,-112,-1006,180,43
3595,16,-197,-104,-1002,209,58
3600,17,-197,-101,-982,223,73
3605,16,-198,-102,-953,224,89
3610,15,-191,-99,-925,214,101
3615,14,-194,-98,-904,191,110
3620,12,-191,-102,-881,166,113
3625,12,-189,-111,-851,139,118
3630,14,-186,-112,-831,117,117
3635,13,-183,-115,-817,101,115
3640,9,-179,-116,-809,90,106
3645,12,-175,-121,-808,82,100
3650,8,-177,-129,-825,81,86
3655,9,-171,-128,-855,80,74
3660,3,-170,-130,-890,83,62
3665,1,-171,-132,-926,88,58
3670,-5,-168,-125,-955,91,51
3675,-5,-173,-125,-974,88,52
3680,-10,-174,-123,-982,80,50
3685,-14,-174,-120,-982,70,54
3690,-12,-181,-119,-971,59,54
3695,-13,-184,-117,-949,48,56
3700,-20,-182,-114,-916,41,55
3705,-20,-184,-117,-877,41,59
3710,-20,-187,-118,-839,44,61
3715,-18,-187,-122,-810,46,68
3720,-21,-186,-125,-790,47,73
3725,-16,-187,-130,-783,41,82
3730,-11,-190,-132,-785,36,86
3735,-12,-190,-139,-786,34,97
3740,-8,-192,-150,-792,37,105
3745,-4,-196,-151,-808,44,112
3750,-1,-197,-151,-824,49,112
3755,2,-204,-152,-839,51,117
3760,0,-202,-143,-850,45,113
3765,-1,-209,-146,-859,29,116
3770,1,-212,-148,-863,2,117
3775,1,-219,-145,-866,-33,124
3780,-1,-219,-148,-861,-72,125
3785,-4,-224,-146,-848,-108,133
3790,-5,-228,-148,-806,-142,134
3795,-2,-229,-158,-776,-172,134
3800,-1,-234,-162,-758,-188,124
3805,-3,-233,-167,-733,-186,120
3810,0,-232,-176,-704,-170,108
3815,-4,-236,-180,-681,-148,100
3820,-3,-237,-178,-653,-136,88
3825,-5,-237,-177,-610,-129,83
3830,-4,-239,-179,-560,-122,73
3835,-5,-237,-179,-510,-118,64
3840,-8,-240,-180,-453,-106,54
3845,-7,-238,-179,-412,-90,49
3850,-10,-234,-180,-382,-71,44
3855,-8,-230,-178,-359,-56,45
3860,-5,-227,-179,-343,-43,43
3865,-11,-223,-177,-334,-35,46
3870,-11,-221,-173,-324,-29,45
3875,-11,-222,-170,-310,-25,53
3880,-11,-217,-163,-294,-27,59
3885,-11,-221,-165,-274,-35,76
3890,-12,-221,-162,-247,-47,88
3895,-10,-225,-164,-226,-61,102
3900,-10,-221,-170,-207,-71,112
3905,-4,-227,-171,-189,-74,123
3910,-1,-228,-179,-169,-66,129
3915,1,-232,-179,-149,-50,141
3920,1,-227,-189,-128,-42,148
3925,6,-227,-192,-113,-35,160
3930,3,-227,-195,-104,-28,167
3935,3,-229,-190,-97,-21,182
3940,4,-227,-192,-94,-21,183
3945,1,-232,-192,-88,-23,187
3950,-2,-231,-191,-84,-25,184
3955,-3,-235,-196,-72,-26,183
3960,-3,-235,-192,-57,-21,177
3965,-9,-239,-185,-31,-13,176
3970,-10,-240,-183,8,-1,170
3975,-9,-244,-178,57,14,169
3980,-12,-240,-177,108,31,166
3985,-12,-235,-174,172,50,165
3990,-10,-230,-164,224,61,162
3995,-12,-225,-172,269,64,165
4000,-12,-221,-173,292,56,164
4005,-15,-213,-172,290,48,170
4010,-13,-210,-179,277,44,176
4015,-12,-210,-179,253,52,189
4020,-12,-208,-178,220,54,193
4025,-12,-209,-176,186,52,196
4030,-16,-212,-174,156,49,193
4035,-16,-214,-175,130,43,192
4040,-21,-217,-173,125,34,190
4045,-25,-216,-172,125,19,192
4050,-29,-214,-171,129,-1,193
4055,-31,-220,-174,139,-26,202
4060,-23,-222,-179,149,-50,203
4065,-26,-223,-178,155,-64,201
4070,-21,-223,-180,161,-72,197
4075,-20,-220,-182,170,-62,197
4080,-15,-214,-185,176,-54,200
4085,-15,-212,-185,168,-46,201
4090,-18,-214,-188,154,-43,196
4095,-19,-216,-182,138,-45,190
4100,-21,-217,-182,131,-51,183
4105,-22,-213,-188,130,-54,179
4110,-25,-216,-183,124,-54,170
4115,-31,-219,-182,115,-62,163
4120,-31,-221,-182,102,-73,158
4125,-31,-220,-183,92,-70,155
4130,-28,-213,-184,71,-70,153
4135,-29,-213,-186,55,-72,153
4140,-32,-211,-180,33,-76,152
4145,-27,-211,-183,9,-93,155
4150,-29,-213,-186,-14,-102,157
4155,-24,-214,-194,-39,-109,155
4160,-23,-219,-203,-66,-108,151
4165,-31,-226,-195,-91,-102,142
4170,-32,-227,-191,-106,-100,132
4175,-27,-233,-197,-119,-99,116
4180,-30,-234,-192,-131,-96,100
4185,-29,-230,-193,-128,-91,89
4190,-33,-231,-196,-119,-89,84
4195,-38,-231,-192,-117,-91,81
4200,-36,-232,-197,-122,-102,82
4205,-34,-228,-192,-134,-112,84
4210,-35,-224,-196,-149,-118,87
4215,-28,-223,-197,-166,-125,91
4220,-28,-224,-199,-193,-134,92
4225,-26,-218,-197,-230,-144,88
4230,-19,-220,-204,-267,-143,80
4235,-17,-219,-207,-303,-137,72
4240,-21,-213,-209,-336,-128,65
4245,-20,-215,-211,-369,-113,53
4250,-22,-212,-209,-404,-94,40
4255,-23,-212,-211,-435,-81,34
4260,-25,-212,-216,-464,-71,31
4265,-28,-211,-216,-489,-57,29
4270,-27,-207,-217,-515,-42,24
4275,-26,-208,-220,-553,-15,20
4280,-26,-208,-222,-585,5,17
4285,-27,-212,-217,-611,25,17
4290,-25,-212,-221,-621,40,14
4295,-26,-213,-222,-624,47,9
4300,-25,-216,-225,-619,50,6
4305,-27,-217,-225,-610,52,2
4310,-27,-217,-223,-596,51,0
4315,-28,-217,-218,-577,52,-4
4320,-30,-210,-215,-562,47,-4
4325,-32,-208,-216,-547,47,-5
4330,-33,-203,-218,-537,42,-5
4335,-33,-202,-217,-538,39,-7
4340,-31,-200,-224,-546,32,-6
4345,-35,-199,-228,-552,28,-7
4350,-34,-201,-231,-556,28,-5
4355,-32,-198,-230,-553,27,-8
4360,-34,-198,-227,-539,30,-6
4365,-30,-197,-224,-521,32,-5
4370,-30,-197,-226,-494,34,0
4375,-30,-194,-226,-475,33,2
4380,-33,-189,-218,-463,32,4
4385,-33,-190,-219,-459,34,3
4390,-33,-187,-215,-462,36,3
4395,-33,-188,-217,-466,37,3
4400,-31,-186,-218,-466,40,8
4405,-31,-187,-221,-462,36,11
4410,-33,-182,-215,-457,33,18
4415,-34,-180,-214,-451,31,20
4420,-29,-179,-214,-442,34,27
4425,-29,-183,-212,-433,40,30
4430,-28,-181,-213,-425,41,33
4435,-25,-179,-217,-412,43,33
4440,-29,-176,-213,-403,44,33
4445,-26,-180,-213,-399,48,29
4450,-34,-180,-209,-395,49,31
4455,-36,-174,-209,-395,47,26
4460,-37,-177,-210,-397,39,24
4465,-40,-171,-207,-398,20,17
4470,-38,-168,-206,-396,6,16
4475,-35,-168,-205,-393,-7,13
4480,-31,-168,-208,-387,-13,17
4485,-29,-170,-207,-377,-14,16
4490,-27,-174,-213,-371,-9,19
4495,-26,-169,-207,-361,-4,17
4500,-26,-171,-205,-347,1,19
4505,-22,-167,-204,-332,3,16
4510,-22,-167,-202,-325,6,16
4515,-24,-163,-201,-314,10,13
4520,-26,-162,-201,-310,16,13
4525,-24,-164,-202,-309,22,8
4530,-27,-161,-201,-308,27,7
4535,-29,-166,-201,-305,31,2
4540,-28,-162,-201,-298,34,1
4545,-28,-163,-203,-288,36,-5
4550,-31,-160,-205,-280,33,-5
4555,-30,-156,-205,-272,31,-7
4560,-29,-156,-203,-264,31,-3
4565,-30,-155,-204,-256,34,-6
4570,-30,-159,-204,-253,39,-5
4575,-28,-157,-203,-246,44,-10
4580,-27,-155,-204,-238,49,-11
4585,-28,-155,-207,-230,58,-18
4590,-30,-157,-202,-217,64,-17
4595,-31,-157,-204,-201,70,-19
4600,-33,-157,-203,-185,73,-16
4605,-33,-157,-201,-167,70,-15
4610,-36,-154,-201,-156,61,-10
4615,-35,-151,-201,-145,51,-12
4620,-36,-148,-202,-141,38,-9
4625,-36,-147,-200,-137,25,-10
4630,-35,-147,-202,-138,14,-8
4635,-34,-148,-199,-138,3,-12
4640,-32,-144,-198,-137,-5,-10
4645,-31,-141,-198,-138,-9,-11
4650,-31,-145,-199,-141,-7,-10
4655,-29,-147,-205,-141,-4,-14
4660,-29,-148,-204,-139,7,-13
4665,-27,-150,-204,-135,13,-19
4670,-30,-146,-204,-129,21,-18
4675,-33,-148,-204,-121,25,-21
4680,-30,-149,-211,-112,28,-17
4685,-30,-146,-211,-105,31,-19
4690,-30,-148,-215,-98,31,-17
4695,-31,-146,-214,-91,31,-19
4700,-32,-141,-213,-87,32,-16
4705,-36,-141,-214,-83,30,-19
4710,-34,-138,-212,-84,30,-14
4715,-31,-140,-212,-85,26,-14
4720,-31,-142,-212,-89,25,-7
4725,-29,-143,-209,-93,24,-6
4730,-31,-142,-209,-94,26,-2
4735,-29,-144,-209,-94,27,-1
4740,-31,-145,-209,-92,29,2
4745,-31,-147,-217,-88,32,1
4750,-34,-144,-214,-83,37,2
4755,-37,-146,-214,-75,42,0
4760,-34,-148,-215,-66,44,0
4765,-36,-148,-215,-59,44,-5
4770,-37,-147,-219,-50,46,-7
4775,-38,-147,-217,-41,44,-11
4780,-36,-144,-218,-34,43,-9
4785,-36,-147,-215,-27,39,-12
4790,-37,-144,-219,-22,35,-9
4795,-36,-143,-218,-18,29,-8
4800,-32,-143,-217,-14,27,-2
4805,-33,-143,-221,-14,27,-4
4810,-33,-145,-218,-12,30,-4
4815,-31,-146,-219,-13,36,-9
4820,-35,-142,-222,-13,41,-7
4825,-33,-142,-222,-11,45,-10
4830,-38,-145,-226,-5,49,-8
4835,-38,-148,-223,-5,52,-9
4840,-37,-146,-224,-6,56,-10
4845,-41,-143,-222,-8,55,-11
4850,-38,-146,-223,-11,51,-10
4855,-41,-143,-220,-18,45,-12
4860,-38,-147,-222,-24,36,-10
4865,-39,-143,-216,-32,29,-13
4870,-35,-143,-214,-39,24,-13
4875,-36,-140,-215,-46,23,-14
4880,-35,-142,-207,-55,24,-12
4885,-32,-143,-213,-63,23,-9
4890,-32,-145,-215,-66,23,-5
4895,-30,-148,-216,-70,22,-2
4900,-34,-151,-218,-72,23,1
4905,-36,-150,-215,-74,22,0
4910,-36,-150,-220,-71,22,-1
4915,-34,-154,-221,-68,24,-5
4920,-32,-152,-220,-61,28,-8
4925,-35,-151,-219,-52,32,-13
4930,-35,-151,-221,-43,39,-15
4935,-33,-153,-220,-32,44,-16
4940,-34,-149,-218,-21,48,-18
4945,-35,-150,-215,-11,50,-18
4950,-30,-152,-211,-2,47,-17
4955,-36,-147,-215,3,43,-18
4960,-33,-146,-211,6,38,-20
4965,-32,-145,-216,7,39,-23
4970,-30,-144,-214,8,38,-24
4975,-32,-141,-213,6,40,-24
4980,-31,-145,-214,7,45,-24
4985,-31,-143,-214,4,50,-24
4990,-30,-143,-211,1,52,-25
4995,-28,-142,-213,-3,54,-24
5000,-33,-140,-213,-8,53,-21
5005,-37,-140,-211,-11,55,-18
5010,-35,-141,-214,-14,55,-14
5015,-31,-143,-214,-15,55,-9
5020,-33,-146,-214,-16,58,-6
5025,-33,-148,-208,-17,61,-5
5030,-26,-153,-204,-16,63,-6
5035,-32,-149,-203,-14,64,-7
5040,-32,-151,-212,-7,65,-8
5045,-34,-147,-216,3,70,-7
5050,-34,-149,-210,14,73,-7
5055,-35,-149,-211,22,78,-6
5060,-36,-147,-207,28,81,-7
5065,-37,-145,-208,34,83,-8
5070,-36,-145,-208,37,84,-8
5075,-34,-146,-211,40,83,-8
5080,-35,-142,-207,39,81,-8
5085,-34,-142,-208,42,80,-5
5090,-37,-143,-207,40,79,-7
5095,-37,-144,-207,36,76,-6
5100,-33,-145,-210,33,74,-6
5105,-39,-144,-212,28,70,-4
5110,-34,-148,-213,23,66,-5
5115,-33,-145,-210,21,62,-3
5120,-34,-151,-213,21,55,-6
5125,-37,-148,-215,22,52,-5
5130,-32,-152,-214,26,52,-8
5135,-31,-151,-215,32,55,-7
5140,-35,-146,-215,40,61,-12
5145,-34,-145,-212,50,67,-12
5150,-33,-144,-211,57,74,-15
5155,-33,-144,-215,60,80,-13
5160,-31,-146,-209,62,85,-15
5165,-35,-141,-215,61,90,-12
5170,-30,-146,-212,59,91,-12
5175,-31,-150,-211,59,91,-7
5180,-33,-151,-209,56,87,-9
5185,-29,-149,-213,55,85,-7
5190,-31,-153,-211,55,83,-7
5195,-32,-153,-210,57,82,-6
5200,-34,-154,-212,63,84,-8
5205,-35,-151,-215,70,86,-7
5210,-34,-150,-209,73,86,-9
5215,-33,-155,-206,76,85,-8
5220,-33,-154,-204,78,82,-11
5225,-34,-153,-205,79,77,-8
5230,-34,-150,-207,79,71,-8
5235,-35,-151,-206,77,65,-7
5240,-34,-149,-204,72,56,-9
5245,-31,-150,-211,66,53,-6
5250,-33,-148,-207,59,52,-8
5255,-29,-148,-204,49,50,-5
5260,-33,-151,-207,41,53,-7
5265,-30,-151,-209,37,55,-4
5270,-28,-155,-206,31,59,-7
5275,-27,-155,-203,27,62,-5
5280,-27,-155,-207,26,65,-10
5285,-26,-155,-206,28,71,-10
5290,-29,-158,-201,32,79,-14
5295,-33,-155,-209,39,85,-14
5300,-36,-154,-206,46,89,-16
5305,-34,-157,-204,54,90,-14
5310,-34,-154,-202,60,88,-17
5315,-34,-154,-203,65,88,-15
5320,-31,-153,-203,68,85,-16
5325,-33,-153,-203,69,84,-11
5330,-32,-154,-205,69,80,-10
5335,-32,-155,-206,70,75,-7
5340,-33,-152,-206,69,72,-8
5345,-31,-150,-206,70,68,-7
5350,-32,-153,-207,71,69,-10
5355,-34,-153,-208,72,68,-7
5360,-32,-155,-213,77,68,-10
5365,-31,-159,-210,80,69,-8
5370,-35,-155,-209,84,72,-12
5375,-30,-157,-207,85,72,-12
5380,-33,-157,-207,85,71,-19
5385,-33,-154,-210,84,69,-18
5390,-31,-156,-209,83,64,-24
5395,-32,-156,-209,84,62,-22
5400,-31,-155,-215,82,57,-26
5405,-34,-154,-218,79,55,-25
5410,-30,-154,-218,75,54,-25
5415,-34,-153,-211,69,53,-20
5420,-34,-156,-214,62,52,-22
5425,-34,-154,-214,57,49,-19
5430,-32,-153,-214,50,45,-21
5435,-33,-157,-213,46,41,-18
5440,-34,-158,-214,43,39,-21
5445,-29,-158,-213,41,37,-20
5450,-31,-156,-213,39,39,-22
5455,-31,-156,-211,39,39,-21
5460,-31,-157,-217,37,41,-22
5465,-29,-154,-214,38,44,-20
5470,-30,-158,-211,37,47,-21
5475,-28,-155,-209,36,51,-16
5480,-31,-154,-210,34,55,-19
5485,-30,-154,-210,31,58,-16
5490,-31,-154,-208,30,59,-17
5495,-31,-155,-211,28,60,-13
5500,-32,-156,-210,27,59,-15
5505,-32,-159,-210,24,58,-11
5510,-29,-159,-214,26,57,-13
5515,-34,-156,-210,28,56,-11
5520,-32,-157,-210,28,56,-14
5525,-32,-158,-209,31,54,-12
5530,-34,-160,-211,36,55,-13
5535,-30,-159,-208,37,53,-10
5540,-29,-158,-207,41,54,-11
5545,-30,-157,-210,44,54,-9
5550,-30,-160,-207,46,54,-12
5555,-32,-157,-209,46,53,-10
5560,-30,-157,-208,42,51,-12
5565,-31,-156,-207,37,48,-10
5570,-31,-158,-206,31,44,-10
5575,-31,-156,-208,27,39,-12
5580,-28,-157,-208,23,36,-15
5585,-29,-158,-211,20,37,-13
5590,-25,-159,-203,19,41,-13
5595,-27,-156,-209,18,46,-12
5600,-31,-156,-211,19,53,-13
5605,-27,-159,-207,22,59,-11
5610,-31,-159,-208,24,64,-10
5615,-31,-160,-205,25,67,-9
5620,-30,-159,-205,26,67,-10
5625,-34,-156,-204,27,66,-9
5630,-34,-160,-202,31,65,-10
5635,-30,-159,-199,35,65,-6
5640,-27,-161,-202,39,63,-8
5645,-34,-157,-208,44,62,-7
5650,-30,-157,-202,49,59,-6
5655,-29,-159,-205,51,59,-5
5660,-27,-158,-204,51,58,-5
5665,-27,-158,-202,51,59,-7
5670,-29,-156,-204,50,60,-10
5675,-28,-155,-199,49,62,-8
5680,-28,-156,-199,48,66,-11
5685,-28,-158,-198,47,71,-11
5690,-27,-157,-197,49,76,-14
5695,-27,-160,-199,48,80,-15
5700,-28,-158,-198,44,83,-17
5705,-29,-161,-199,44,83,-15
5710,-28,-159,-201,44,83,-15
5715,-29,-158,-200,46,83,-13
5720,-28,-159,-201,47,79,-13
5725,-31,-155,-199,48,77,-12
5730,-31,-156,-197,49,74,-14
5735,-32,-154,-200,48,74,-12
5740,-28,-154,-197,50,72,-10
5745,-29,-154,-199,50,73,-7
5750,-29,-155,-197,48,72,-6
5755,-31,-155,-196,43,72,-4
5760,-27,-159,-198,39,71,-4
5765,-30,-158,-198,33,70,-8
5770,-33,-162,-202,27,69,-13
5775,-34,-163,-197,27,66,-16
5780,-35,-162,-197,25,61,-20
5785,-36,-165,-198,25,55,-23
5790,-35,-162,-201,30,48,-24
5795,-35,-160,-200,33,40,-26
5800,-33,-165,-200,36,36,-26
5805,-33,-161,-201,40,32,-27
5810,-31,-163,-203,41,26,-26
5815,-32,-162,-200,40,23,-25
5820,-28,-159,-201,38,20,-24
5825,-29,-160,-202,36,18,-23
5830,-26,-165,-204,33,19,-20
5835,-26,-163,-205,32,19,-19
5840,-33,-161,-204,30,22,-17
5845,-31,-162,-210,29,27,-20
5850,-30,-165,-206,30,31,-20
5855,-30,-163,-208,32,37,-23
5860,-32,-164,-207,34,38,-23
5865,-33,-164,-207,36,39,-26
5870,-33,-163,-207,37,38,-26
5875,-33,-162,-205,38,36,-25
5880,-32,-161,-212,36,36,-23
5885,-29,-164,-209,35,33,-24
5890,-32,-163,-209,34,33,-21
5895,-33,-160,-208,34,33,-21
5900,-31,-164,-201,33,32,-17
5905,-32,-166,-211,31,32,-18
5910,-33,-165,-218,31,33,-16
5915,-31,-171,-213,28,35,-16
5920,-29,-168,-208,25,37,-17
5925,-36,-147,-199,20,35,-18
5930,-29,-157,-203,14,36,-18
5935,-31,-163,-208,11,36,-20
5940,-34,-163,-207,5,33,-20
5945,-34,-161,-205,2,32,-22
5950,-30,-165,-203,0,30,-22
5955,-33,-163,-206,0,29,-23
5960,-32,-167,-207,-1,27,-20
5965,-30,-164,-206,0,24,-20
5970,-32,-166,-207,1,21,-18
5975,-32,-164,-210,2,18,-19
5980,-34,-164,-209,1,16,-18
5985,-33,-161,-208,1,16,-19
5990,-32,-162,-209,0,17,-17
5995,-33,-158,-209,-4,21,-19
6000,-29,-161,-208,-9,26,-16
6005,-31,-161,-205,-15,28,-19
6010,-30,-161,-205,-20,31,-16
6015,-32,-163,-204,-26,32,-17
6020,-30,-163,-206,-30,30,-15
6025,-33,-164,-204,-35,26,-17
6030,-30,-166,-200,-38,22,-15
6035,-34,-165,-205,-40,18,-19
6040,-32,-165,-203,-37,16,-16
6045,-34,-166,-202,-35,15,-18
6050,-31,-167,-202,-31,18,-18
6055,-34,-167,-204,-27,19,-20
6060,-35,-164,-204,-24,22,-18
6065,-34,-165,-203,-22,26,-20
6070,-34,-162,-206,-19,28,-17
6075,-33,-161,-203,-18,30,-20
6080,-31,-162,-204,-20,31,-19
6085,-33,-161,-204,-22,31,-21
6090,-31,-160,-202,-23,33,-17
6095,-33,-162,-202,-26,35,-18
6100,-33,-164,-200,-26,37,-14
6105,-33,-164,-198,-24,39,-14
6110,-33,-164,-200,-21,38,-11
6115,-35,-163,-201,-18,39,-13
6120,-32,-163,-200,-14,39,-9
6125,-36,-162,-198,-13,41,-11
6130,-34,-160,-198,-11,41,-7
6135,-34,-164,-198,-10,43,-6
6140,-36,-162,-196,-9,45,-2
6145,-31,-160,-197,-9,46,-1
6150,-33,-161,-199,-10,45,5
6155,-32,-160,-201,-12,43,5
6160,-31,-162,-200,-16,42,9
6165,-35,-158,-197,-18,42,8
6170,-31,-161,-200,-16,42,9
6175,-31,-158,-196,-17,43,5
6180,-32,-161,-200,-17,45,7
6185,-31,-164,-199,-16,48,4
6190,-31,-162,-197,-16,51,5
6195,-31,-162,-198,-16,55,-1
6200,-31,-161,-196,-18,58,-1
6205,-32,-163,-203,-20,60,-6
6210,-31,-162,-205,-21,64,-7
6215,-31,-161,-201,-22,64,-12
6220,-32,-162,-199,-22,65,-10
6225,-29,-159,-204,-20,66,-14
6230,-33,-163,-203,-18,64,-12
6235,-34,-162,-200,-16,62,-15
6240,-33,-164,-201,-13,59,-11
6245,-32,-161,-206,-11,56,-13
6250,-33,-163,-201,-8,52,-11
6255,-35,-161,-202,-8,46,-11
6260,-35,-157,-198,-9,43,-8
6265,-33,-164,-199,-12,39,-10
6270,-33,-163,-200,-15,40,-8
6275,-35,-161,-204,-16,39,-8
6280,-37,-161,-201,-18,40,-5
6285,-36,-162,-199,-19,41,-7
6290,-34,-161,-201,-19,44,-4
6295,-32,-159,-203,-19,45,-7
6300,-32,-161,-199,-16,48,-7
6305,-32,-161,-203,-13,50,-9
6310,-32,-159,-198,-9,54,-7
6315,-33,-158,-198,-7,58,-8
6320,-35,-159,-204,-7,59,-6
6325,-32,-162,-201,-8,59,-8
6330,-32,-160,-203,-12,56,-5
6335,-35,-163,-209,-17,49,-8
6340,-34,-161,-203,-25,43,-7
6345,-32,-165,-207,-34,39,-11
6350,-34,-166,-207,-39,37,-11
6355,-32,-168,-210,-38,37,-14
6360,-32,-166,-207,-33,38,-14
6365,-33,-164,-209,-25,40,-15
6370,-35,-165,-212,-19,40,-14
6375,-36,-162,-212,-14,42,-17
6380,-34,-163,-208,-11,43,-16
6385,-35,-161,-210,-10,41,-18
6390,-34,-160,-207,-12,40,-16
6395,-33,-159,-205,-15,37,-16
6400,-32,-159,-202,-24,34,-14
6405,-32,-159,-205,-32,31,-12
6410,-33,-160,-203,-40,29,-7
6415,-33,-161,-204,-45,25,-8
6420,-32,-162,-199,-48,21,-4
6425,-33,-164,-203,-47,19,-4
6430,-33,-163,-204,-46,19,-3
6435,-33,-163,-205,-39,19,-4
6440,-32,-164,-207,-31,21,-5
6445,-33,-167,-207,-25,26,-10
6450,-34,-164,-209,-15,27,-13
6455,-33,-164,-205,-12,29,-19
6460,-31,-165,-205,-6,31,-21
6465,-29,-163,-206,-3,34,-23
6470,-27,-162,-204,-1,36,-26
6475,-32,-158,-204,1,41,-25
6480,-30,-161,-204,1,44,-25
6485,-33,-161,-205,-2,46,-25
6490,-29,-162,-202,-3,48,-23
6495,-31,-159,-201,-6,50,-23
6500,-32,-160,-202,-10,51,-22
6505,-32,-158,-200,-14,48,-22
6510,-32,-158,-206,-19,48,-20
6515,-33,-155,-200,-20,44,-17
6520,-31,-159,-203,-23,40,-17
6525,-33,-161,-202,-25,36,-16
6530,-33,-161,-202,-26,33,-17
6535,-33,-161,-199,-25,34,-18
6540,-35,-160,-197,-22,35,-20
6545,-33,-162,-200,-18,37,-21
6550,-29,-166,-199,-12,40,-23
6555,-35,-160,-197,-7,43,-25
6560,-33,-160,-199,2,49,-25
6565,-31,-162,-201,10,52,-24
6570,-33,-158,-201,17,54,-23
6575,-35,-158,-196,21,55,-24
6580,-31,-163,-200,22,56,-23
6585,-36,-159,-197,21,57,-20
6590,-32,-159,-198,18,58,-20
6595,-30,-161,-197,15,56,-18
6600,-33,-160,-202,12,54,-17
6605,-34,-160,-201,7,48,-13
6610,-36,-162,-206,2,41,-13
6615,-35,-160,-205,-3,35,-13
6620,-35,-163,-203,-9,30,-14
6625,-37,-164,-210,-11,25,-13
6630,-36,-160,-206,-14,24,-14
6635,-38,-163,-209,-16,22,-14
6640,-40,-164,-211,-15,18,-15
6645,-38,-161,-210,-14,16,-16
6650,-38,-163,-209,-13,16,-16
6655,-37,-167,-210,-13,17,-15
6660,-37,-168,-209,-14,20,-13
6665,-36,-167,-210,-13,22,-12
6670,-35,-177,-211,-15,21,-12
6675,-34,-176,-208,-16,20,-10
6680,-34,-176,-211,-14,21,-11
6685,-37,-179,-212,-10,20,-10
6690,-38,-181,-217,-5,16,-12
6695,-37,-181,-211,-5,11,-14
6700,-35,-182,-218,-4,9,-17
6705,-35,-181,-218,-6,13,-18
6710,-36,-182,-230,-9,20,-21
6715,-36,-182,-224,-13,28,-19
6720,-39,-183,-229,-18,34,-17
6725,-40,-182,-231,-28,36,-12
6730,-39,-183,-230,-39,38,-10
6735,-40,-185,-234,-53,34,-7
6740,-39,-187,-235,-65,32,-9
6745,-40,-190,-235,-76,28,-8
6750,-39,-193,-235,-85,26,-12
6755,-38,-193,-237,-92,20,-16
6760,-40,-194,-241,-99,13,-22
6765,-42,-193,-242,-102,9,-25
6770,-40,-194,-245,-108,9,-30
6775,-42,-193,-247,-111,15,-31
6780,-41,-193,-248,-113,22,-34
6785,-43,-194,-247,-116,29,-35
6790,-43,-193,-247,-118,36,-37
6795,-44,-194,-248,-118,45,-38
6800,-44,-192,-247,-117,50,-39
6805,-43,-193,-247,-112,55,-38
6810,-43,-191,-249,-109,58,-38
6815,-44,-192,-248,-103,62,-35
6820,-42,-192,-250,-95,66,-39
6825,-44,-192,-249,-88,73,-38
6830,-43,-193,-247,-81,85,-44
6835,-45,-190,-246,-79,95,-45
6840,-42,-194,-247,-76,111,-48
6845,-40,-194,-243,-74,122,-49
6850,-39,-193,-248,-74,134,-52
6855,-37,-194,-245,-72,147,-51
6860,-37,-191,-246,-69,160,-55
6865,-36,-188,-248,-65,176,-54
6870,-36,-187,-246,-58,194,-56
6875,-35,-187,-243,-46,210,-58
6880,-37,-189,-243,-39,230,-62
6885,-35,-184,-243,-24,248,-63
6890,-37,-178,-238,-14,261,-65
6895,-39,-182,-239,-9,275,-63
6900,-36,-180,-236,-5,286,-63
6905,-37,-178,-230,5,291,-57
6910,-37,-178,-230,13,296,-58
6915,-37,-174,-225,17,298,-54
6920,-31,-177,-224,18,303,-55
6925,-28,-179,-226,17,311,-52
6930,-29,-174,-224,16,321,-53
6935,-25,-179,-221,18,328,-54
6940,-27,-178,-222,25,336,-59
6945,-34,-175,-226,35,340,-61
6950,-30,-173,-222,43,342,-69
6955,-29,-171,-220,49,345,-70
6960,-29,-172,-219,55,348,-75
6965,-30,-173,-219,60,350,-76
6970,-27,-172,-216,66,351,-81
6975,-25,-175,-215,72,354,-79
6980,-23,-174,-211,78,357,-84
6985,-20,-171,-208,85,359,-86
6990,-22,-170,-212,87,356,-92
6995,-21,-169,-210,86,352,-94
7000,-20,-168,-210,81,347,-107
7005,-19,-168,-206,73,342,-116
7010,-20,-165,-204,64,338,-127
7015,-19,-166,-209,51,333,-134
7020,-20,-160,-208,35,325,-141
7025,-18,-159,-201,17,318,-140
7030,-18,-163,-202,4,310,-141
7035,-14,-166,-206,-11,298,-139
7040,-15,-166,-207,-21,280,-142
7045,-12,-168,-206,-25,255,-137
7050,-15,-165,-210,-28,231,-140
7055,-12,-169,-206,-41,215,-138
7060,-12,-169,-216,-51,197,-140
7065,-16,-168,-212,-50,180,-142
7070,-17,-169,-216,-57,165,-154
7075,-15,-166,-216,-67,159,-160
7080,-15,-169,-218,-77,155,-170
7085,-15,-170,-216,-87,158,-174
7090,-16,-174,-219,-97,161,-181
7095,-15,-173,-219,-102,162,-184
7100,-16,-174,-213,-103,159,-193
7105,-17,-176,-213,-101,155,-198
7110,-13,-180,-212,-99,151,-205
7115,-15,-181,-211,-102,146,-207
7120,-14,-180,-214,-109,138,-214
7125,-13,-180,-211,-117,129,-216
7130,-13,-181,-207,-122,118,-223
7135,-13,-181,-208,-124,108,-228
7140,-12,-182,-212,-133,98,-236
7145,-12,-180,-212,-145,96,-238
7150,-12,-183,-215,-161,98,-245
7155,-10,-186,-216,-177,101,-247
7160,-12,-186,-215,-191,108,-251
7165,-11,-188,-214,-198,119,-252
7170,-12,-185,-215,-197,129,-252
7175,-7,-190,-216,-188,141,-248
7180,-6,-188,-215,-176,148,-254
7185,-6,-189,-212,-160,146,-254
7190,-7,-186,-213,-143,136,-256
7195,-6,-186,-213,-126,126,-254
7200,-3,-188,-212,-114,113,-258
7205,-3,-187,-214,-98,99,-259
7210,-6,-185,-216,-83,92,-264
7215,-5,-183,-216,-71,86,-267
7220,-7,-179,-214,-65,87,-270
7225,-8,-178,-209,-60,86,-268
7230,-8,-176,-207,-53,85,-265
7235,-9,-175,-204,-45,89,-255
7240,-6,-171,-196,-34,91,-249
7245,-5,-170,-200,-24,91,-240
7250,-4,-166,-192,-10,87,-233
7255,-1,-164,-195,5,86,-221
7260,-1,-167,-197,19,91,-208
7265,2,-164,-194,37,99,-200
7270,0,-164,-190,50,99,-195
7275,5,-164,-191,64,96,-190
7280,3,-169,-196,77,94,-190
7285,3,-171,-198,86,94,-189
7290,3,-169,-195,98,101,-189
7295,2,-169,-197,110,113,-188
7300,2,-170,-194,126,126,-186
7305,4,-168,-190,145,137,-182
7310,1,-169,-187,169,147,-177
7315,1,-166,-181,209,153,-169
7320,-3,-166,-182,244,158,-164
7325,-4,-166,-181,277,162,-158
7330,-2,-165,-182,310,162,-152
7335,-2,-163,-180,339,159,-146
7340,-1,-162,-179,363,158,-140
7345,-2,-161,-177,384,153,-138
7350,-3,-158,-178,400,145,-135
7355,0,-154,-177,409,138,-133
7360,-3,-153,-179,411,126,-134
7365,-3,-151,-180,410,118,-133
7370,-1,-150,-179,410,111,-130
7375,-1,-149,-178,408,106,-125
7380,0,-150,-178,402,99,-121
7385,1,-151,-176,393,91,-121
7390,2,-151,-179,387,89,-120
7395,3,-152,-181,384,88,-120
7400,5,-154,-182,380,93,-119
7405,7,-151,-183,377,101,-118
7410,10,-155,-182,381,106,-120
7415,5,-153,-183,392,113,-121
7420,7,-151,-177,401,118,-121
7425,8,-155,-177,414,123,-119
7430,6,-154,-182,425,127,-117
7435,4,-156,-182,433,125,-117
7440,1,-158,-175,443,120,-116
7445,0,-157,-175,451,109,-117
7450,-4,-160,-174,459,97,-111
7455,-8,-160,-175,464,86,-103
7460,-7,-159,-178,465,77,-94
7465,-12,-158,-169,463,74,-86
7470,-12,-159,-172,461,72,-71
7475,-15,-161,-171,461,77,-58
7480,-14,-158,-169,461,81,-44
7485,-15,-157,-167,469,84,-30
7490,-12,-161,-169,482,83,-16
7495,-12,-161,-169,498,80,-5
7500,-10,-162,-167,515,75,11
7505,-5,-167,-172,532,68,20
7510,0,-168,-173,544,58,27
7515,4,-166,-175,552,45,30
7520,11,-171,-178,555,33,30
7525,16,-172,-180,552,18,24
7530,18,-177,-184,547,8,18
7535,21,-176,-184,540,1,6
7540,20,-179,-179,537,-2,-5
7545,23,-178,-179,540,-2,-19
7550,21,-181,-181,546,-3,-30
7555,19,-183,-175,557,4,-38
7560,17,-181,-176,570,11,-40
7565,16,-182,-173,582,21,-40
7570,14,-183,-169,596,32,-36
7575,11,-181,-169,613,41,-36
7580,7,-183,-170,631,51,-31
7585,4,-181,-168,648,61,-28
7590,1,-182,-169,662,68,-18
7595,0,-186,-163,672,73,-13
7600,0,-184,-165,681,80,-4
7605,-2,-185,-162,686,83,2
7610,-5,-186,-164,691,87,13
7615,-3,-189,-165,694,92,20
7620,-4,-188,-161,695,93,29
7625,-6,-192,-161,694,89,31
7630,-3,-192,-162,691,84,35
7635,0,-195,-165,691,75,34
7640,0,-195,-162,687,59,35
7645,-1,-196,-164,679,34,28
7650,1,-199,-163,670,11,24
7655,-2,-199,-165,663,-11,19
7660,0,-203,-163,660,-26,18
7665,0,-202,-160,656,-29,16
7670,-1,-205,-159,661,-21,18
7675,1,-205,-157,668,-7,20
7680,4,-207,-153,686,12,27
7685,5,-207,-159,696,33,26
7690,4,-209,-153,693,56,28
7695,1,-208,-152,689,72,26
7700,6,-210,-148,687,84,29
7705,7,-211,-147,688,91,28
7710,7,-211,-144,691,93,31
7715,8,-212,-147,697,97,29
7720,8,-215,-146,702,93,30
7725,6,-210,-144,703,89,27
7730,11,-215,-149,706,85,29
7735,13,-218,-143,711,86,25
7740,13,-217,-143,719,92,23
7745,12,-217,-144,728,106,16
7750,12,-213,-147,738,123,11
7755,14,-217,-136,746,144,4
7760,12,-216,-139,753,167,2
7765,13,-217,-139,756,186,-2
7770,10,-217,-134,758,206,1
7775,9,-216,-133,759,216,-4
7780,9,-215,-127,764,221,-1
7785,4,-215,-126,770,220,-4
7790,2,-211,-122,780,210,0
7795,-1,-211,-128,783,196,2
7800,-1,-210,-122,786,178,11
7805,-5,-211,-123,792,159,15
7810,-6,-207,-121,799,140,25
7815,-5,-207,-120,808,123,29
7820,-7,-204,-120,816,110,38
7825,-6,-204,-118,829,103,43
7830,-10,-201,-119,840,104,56
7835,-8,-197,-117,850,109,66
7840,-8,-195,-118,856,113,77
7845,-8,-195,-115,854,120,78
7850,-4,-192,-116,841,128,79
7855,-4,-195,-115,819,136,73
7860,-2,-194,-112,794,141,70
7865,-1,-193,-108,767,136,61
7870,-1,-192,-105,738,128,59
7875,-1,-195,-105,711,115,54
7880,3,-195,-104,686,96,53
7885,3,-198,-104,651,83,47
7890,5,-204,-108,621,71,47
7895,1,-207,-106,591,66,41
7900,1,-209,-111,562,64,37
7905,2,-210,-106,540,64,31
7910,3,-214,-106,531,63,32
7915,4,-215,-107,529,63,28
7920,4,-214,-106,534,66,30
7925,5,-220,-107,541,71,25
7930,7,-219,-114,542,81,26
7935,7,-219,-113,539,88,21
7940,7,-222,-114,531,97,19
7945,1,-217,-116,523,105,12
7950,6,-224,-114,517,105,10
7955,3,-227,-113,513,122,6
7960,4,-227,-106,516,135,6
7965,4,-229,-98,530,146,0
7970,4,-228,-103,549,151,-1
7975,7,-232,-95,574,154,-5
7980,4,-228,-97,597,150,-3
7985,3,-228,-101,610,144,-8
7990,5,-232,-94,616,136,-11
7995,1,-224,-95,626,122,-14
8000,4,-225,-89,640,104,-9
8005,3,-226,-97,649,90,-6
8010,4,-223,-98,650,77,-1
8015,2,-221,-100,638,66,-2
8020,3,-222,-99,618,58,0
8025,3,-220,-101,591,55,-1
8030,2,-221,-98,568,54,1
8035,3,-224,-104,547,55,1
8040,4,-227,-101,530,57,1
8045,0,-224,-101,518,59,0
8050,0,-226,-97,509,58,1
8055,2,-228,-97,503,58,1
8060,2,-227,-97,498,61,0
8065,1,-225,-95,493,63,-4
8070,0,-226,-96,487,68,-8
8075,1,-226,-97,474,71,-14
8080,1,-227,-97,463,78,-16
8085,1,-228,-92,448,86,-21
8090,3,-231,-93,437,99,-25
8095,2,-230,-93,427,109,-29
8100,6,-231,-88,423,117,-29
8105,3,-232,-90,422,125,-31
8110,1,-231,-81,423,130,-31
8115,2,-231,-86,424,134,-33
8120,2,-231,-86,423,130,-32
8125,3,-230,-84,418,122,-33
8130,2,-226,-89,406,118,-31
8135,2,-228,-86,389,115,-32
8140,2,-225,-88,367,115,-37
8145,1,-222,-89,344,112,-42
8150,2,-226,-85,323,107,-48
8155,3,-225,-85,303,103,-53
8160,-1,-226,-84,283,100,-59
8165,0,-232,-73,270,95,-65
8170,-2,-229,-76,260,90,-68
8175,-2,-230,-77,259,83,-72
8180,0,-233,-76,258,78,-75
8185,1,-232,-75,259,74,-79
8190,0,-232,-80,253,72,-84
8195,2,-232,-83,239,73,-89
8200,-1,-227,-87,218,77,-93
8205,-2,-229,-86,194,82,-99
8210,-3,-229,-88,165,87,-104
8215,-1,-233,-86,136,90,-106
8220,-1,-235,-86,109,89,-105
8225,-3,-232,-85,92,88,-106
8230,-2,-236,-84,79,83,-109
8235,-4,-236,-87,69,71,-109
8240,-6,-238,-85,59,61,-110
8245,-8,-239,-89,46,48,-109
8250,-5,-238,-95,28,36,-112
8255,-6,-237,-98,7,26,-111
8260,-3,-237,-96,-16,19,-112
8265,-4,-241,-99,-40,16,-111
8270,-4,-242,-100,-54,14,-109
8275,-2,-247,-100,-61,17,-106
8280,0,-250,-95,-58,21,-104
8285,0,-250,-97,-47,23,-99
8290,0,-253,-96,-29,24,-96
8295,-2,-253,-91,-10,24,-90
8300,3,-254,-91,13,24,-89
8305,5,-256,-90,37,25,-84
8310,6,-255,-90,62,28,-83
8315,7,-254,-85,91,33,-80
8320,9,-256,-80,110,40,-78
8325,13,-254,-89,127,47,-75
8330,13,-254,-85,138,57,-74
8335,14,-252,-85,150,67,-71
8340,17,-253,-82,159,76,-71
8345,19,-250,-80,169,86,-68
8350,20,-241,-83,179,92,-66
8355,17,-241,-84,185,97,-62
8360,17,-237,-89,186,103,-59
8365,18,-236,-88,182,106,-55
8370,18,-235,-90,173,109,-52
8375,19,-232,-88,160,110,-45
8380,15,-232,-90,142,113,-41
8385,16,-227,-90,125,116,-34
8390,14,-230,-87,110,118,-28
8395,13,-228,-83,101,116,-18
8400,10,-227,-86,94,115,-16
8405,10,-230,-80,88,114,-7
8410,10,-232,-82,82,112,-2
8415,6,-231,-74,79,110,5
8420,9,-232,-76,74,108,7
8425,10,-233,-78,68,110,10
8430,9,-235,-84,59,116,10
8435,10,-240,-78,47,122,13
8440,10,-242,-81,32,131,10
8445,14,-244,-83,16,141,12
8450,13,-243,-83,-3,152,10
8455,14,-246,-84,-19,160,10
8460,14,-248,-85,-34,166,8
8465,15,-252,-82,-40,172,7
8470,15,-252,-83,-40,175,5
8475,14,-251,-83,-35,177,5
8480,16,-250,-84,-28,180,2
8485,13,-248,-82,-22,182,2
8490,11,-248,-81,-20,183,1
8495,9,-245,-81,-19,186,3
8500,10,-248,-78,-18,182,1
8505,8,-249,-74,-14,177,6
8510,9,-251,-70,0,173,6
8515,5,-254,-72,13,165,11
8520,6,-253,-72,28,156,12
8525,5,-256,-73,41,147,18
8530,5,-253,-72,52,140,17
8535,7,-253,-72,58,131,19
8540,6,-254,-74,57,123,19
8545,7,-249,-74,53,118,21
8550,6,-248,-73,48,114,19
8555,4,-245,-71,38,112,20
8560,9,-248,-73,28,113,18
8565,11,-244,-72,20,114,21
8570,8,-248,-69,15,111,19
8575,13,-247,-71,10,110,20
8580,12,-244,-74,5,110,18
8585,11,-243,-74,-1,111,18
8590,14,-242,-71,-5,113,16
8595,15,-244,-71,-11,113,16
8600,20,-244,-73,-17,117,14
8605,17,-241,-72,-24,121,16
8610,18,-245,-76,-28,126,14
8615,21,-246,-71,-29,130,16
8620,23,-246,-72,-28,136,14
8625,21,-243,-73,-28,141,16
8630,22,-244,-75,-26,146,14
8635,23,-249,-74,-29,153,17
8640,20,-246,-73,-31,157,15
8645,23,-246,-78,-31,162,19
8650,24,-246,-77,-32,164,18
8655,23,-245,-72,-32,167,22
8660,22,-248,-70,-32,167,20
8665,20,-248,-72,-33,166,23
8670,17,-246,-73,-34,164,21
8675,16,-246,-69,-33,160,23
8680,13,-246,-72,-33,157,21
8685,13,-247,-69,-29,150,22
8690,11,-248,-69,-27,144,17
8695,10,-251,-70,-25,134,15
8700,7,-249,-66,-27,124,11
8705,10,-250,-71,-30,116,11
8710,10,-252,-69,-33,109,6
8715,11,-252,-72,-34,105,5
8720,8,-250,-72,-36,103,0
8725,7,-251,-73,-38,102,0
8730,10,-253,-72,-38,105,-1
8735,10,-249,-71,-37,106,1
8740,10,-253,-76,-36,112,-2
8745,11,-255,-74,-32,112,1
8750,12,-251,-73,-29,113,-1
8755,8,-249,-72,-26,111,0
8760,16,-252,-66,-25,107,-2
8765,11,-251,-69,-23,102,0
8770,16,-250,-71,-22,95,-2
8775,15,-249,-70,-20,92,-1
8780,18,-250,-68,-16,88,-4
8785,17,-251,-72,-12,87,-2
8790,15,-249,-69,-8,87,-5
8795,15,-249,-74,-3,87,-4
8800,15,-249,-70,-2,90,-8
8805,16,-247,-72,-1,92,-5
8810,16,-247,-74,-1,94,-9
8815,18,-248,-74,-2,99,-6
8820,16,-248,-71,0,101,-7
8825,14,-247,-76,0,106,-6
8830,15,-248,-72,1,109,-7
8835,14,-245,-72,2,113,-6
8840,14,-245,-74,2,116,-8
8845,12,-247,-69,2,117,-6
8850,13,-248,-68,2,118,-8
8855,10,-246,-71,1,119,-7
8860,12,-247,-70,0,120,-8
8865,10,-247,-72,-3,121,-7
8870,14,-247,-70,-8,120,-8
8875,10,-249,-69,-14,121,-8
8880,12,-246,-69,-20,120,-8
8885,12,-248,-71,-23,117,-6
8890,12,-247,-69,-25,115,-9
8895,9,-246,-68,-28,111,-7
8900,12,-248,-88,-28,106,-7
8905,1,-252,-66,-30,101,-6
8910,1,-245,-63,-31,94,-8
8915,14,-247,-72,-33,89,-6
8920,4,-255,-66,-33,84,-7
8925,6,-249,-79,-31,82,-6
8930,8,-253,-69,-31,81,-7
8935,8,-250,-71,-31,80,-5
8940,10,-250,-70,-32,80,-6
8945,9,-250,-67,-31,82,-6
8950,9,-248,-72,-31,84,-7
8955,-2,-252,-66,-31,88,-6
8960,12,-245,-71,-33,91,-5
8965,11,-247,-71,-34,91,-4
8970,11,-249,-68,-33,92,-4
8975,10,-250,-72,-33,91,-3
8980,12,-250,-68,-35,90,-4
8985,10,-250,-70,-39,87,-5
8990,11,-251,-67,-42,83,-4
8995,10,-248,-72,-45,80,-5
9000,10,-249,-70,-46,76,-6
9005,12,-248,-72,-47,73,-7
9010,8,-247,-71,-48,72,-7
9015,10,-251,-71,-49,71,-8
9020,11,-250,-72,-49,72,-8
9025,10,-249,-72,-50,73,-8
9030,11,-247,-71,-50,76,-7
9035,10,-247,-75,-53,77,-7
9040,8,-245,-73,-53,77,-7
9045,11,-245,-71,-53,78,-6
9050,11,-249,-70,-53,79,-5
9055,8,-254,-70,-51,79,-4
9060,10,-249,-70,-51,79,-3
9065,8,-249,-71,-48,82,-3
9070,11,-249,-72,-45,84,-1
9075,10,-249,-72,-43,84,-2
9080,10,-244,-70,-41,85,-2
9085,11,-249,-70,-40,85,-1
9090,11,-245,-70,-37,84,-1
9095,13,-246,-69,-40,81,-1
9100,10,-246,-72,-40,79,2
9105,10,-246,-70,-43,74,-1
9110,9,-245,-70,-43,67,0
9115,8,-246,-72,-47,61,-2
9120,9,-245,-73,-50,57,0
9125,6,-245,-68,-54,52,-4
9130,10,-244,-74,-60,49,-4
9135,7,-246,-72,-64,47,-4
9140,7,-246,-73,-67,42,-3
9145,8,-247,-76,-68,39,-3
9150,9,-251,-73,-65,38,-2
9155,8,-247,-74,-59,38,-3
9160,10,-253,-74,-51,36,-1
9165,9,-253,-68,-40,35,0
9170,10,-254,-72,-30,33,2
9175,12,-254,-76,-16,28,1
9180,10,-252,-72,-7,23,2
9185,11,-253,-70,-2,16,1
9190,12,-255,-70,1,13,2
9195,9,-254,-70,3,10,-1
9200,16,-256,-68,2,12,-1
9205,16,-250,-71,1,13,-2
9210,13,-250,-71,1,17,-1
9215,14,-250,-73,1,20,-4
9220,12,-246,-69,-1,25,-3
9225,11,-249,-73,-3,30,-4
9230,10,-246,-71,-8,34,-2
9235,12,-247,-72,-11,37,-4
9240,15,-246,-72,-16,39,-3
9245,12,-244,-74,-19,41,-4
9250,12,-246,-74,-21,43,-3
9255,12,-245,-70,-22,48,-6
9260,15,-247,-75,-22,51,-4
9265,13,-245,-74,-19,54,-6
9270,16,-249,-74,-18,56,-5
9275,14,-247,-75,-18,56,-7
9280,11,-246,-74,-19,56,-6
9285,13,-247,-70,-20,55,-5
9290,12,-246,-72,-19,52,-4
9295,10,-245,-73,-20,51,-5
9300,11,-246,-73,-19,49,-2
9305,12,-248,-75,-21,48,-3
9310,14,-248,-78,-21,48,2
9315,10,-247,-79,-21,49,0
9320,14,-246,-75,-23,48,0
9325,12,-250,-76,-23,49,0
9330,12,-249,-74,-23,49,1
9335,11,-246,-78,-22,51,-1
9340,8,-247,-74,-21,50,1
9345,12,-246,-74,-16,51,0
9350,12,-246,-76,-12,51,2
9355,13,-247,-72,-8,51,0
9360,11,-248,-71,-4,50,1
9365,12,-247,-73,3,51,-1
9370,15,-249,-72,5,50,2
9375,11,-245,-72,2,48,-2
9380,9,-246,-73,-2,46,-1
9385,10,-246,-70,-7,42,-2
9390,11,-245,-70,-13,39,-1
9395,10,-244,-74,-19,37,-3
9400,13,-247,-75,-25,37,-1
9405,12,-244,-73,-29,36,-2
9410,10,-249,-76,-32,37,1
9415,13,-247,-73,-34,40,0
9420,12,-251,-76,-33,39,3
9425,11,-248,-71,-30,40,1
9430,12,-247,-70,-28,41,5
9435,10,-247,-73,-26,38,2
9440,9,-246,-74,-21,37,4
9445,9,-249,-73,-14,36,2
9450,12,-247,-72,-9,34,6
9455,12,-250,-69,-5,33,3
9460,11,-248,-68,-2,30,4
9465,10,-250,-71,-3,28,1
9470,13,-247,-68,-4,26,2
9475,9,-250,-75,-8,26,0
9480,12,-248,-69,-12,25,1
9485,13,-248,-71,-14,26,-3
9490,14,-250,-70,-18,28,0
9495,15,-247,-74,-20,32,-3
9500,13,-246,-72,-24,34,-1
9505,16,-246,-69,-28,38,-3
9510,14,-247,-74,-31,41,-1
9515,15,-248,-69,-35,42,-3
9520,14,-248,-73,-35,41,-2
9525,13,-247,-70,-34,43,-4
9530,15,-249,-73,-32,44,0
9535,16,-246,-72,-28,44,-2
9540,11,-247,-73,-27,45,0
9545,14,-248,-70,-23,44,-1
9550,13,-248,-71,-20,45,2
9555,13,-246,-70,-18,44,0
9560,14,-249,-73,-17,42,3
9565,12,-246,-75,-18,43,0
9570,15,-248,-70,-16,40,3
9575,14,-249,-73,-14,41,0
9580,12,-249,-70,-16,41,4
9585,13,-251,-68,-17,44,1
9590,14,-247,-68,-17,48,2
9595,11,-251,-74,-18,52,2
9600,13,-248,-73,-18,54,3
9605,12,-247,-74,-21,58,0
9610,12,-248,-72,-20,58,2
9615,11,-248,-73,-20,59,-2
9620,13,-251,-72,-18,59,1
9625,9,-248,-70,-17,58,0
9630,13,-247,-69,-15,57,2
9635,8,-247,-72,-13,56,0
9640,11,-248,-69,-12,54,2
9645,10,-247,-74,-13,54,1
9650,9,-246,-73,-13,52,3
9655,8,-246,-72,-13,51,1
9660,13,-250,-73,-14,49,3
9665,10,-247,-75,-13,49,1
9670,11,-250,-74,-12,46,2
9675,8,-246,-72,-11,48,0
9680,10,-248,-74,-12,50,1
9685,11,-249,-72,-14,50,-1
9690,9,-249,-73,-13,51,0
9695,11,-251,-73,-14,52,-3
9700,10,-249,-75,-14,53,-1
9705,11,-249,-70,-11,54,-3
9710,9,-249,-73,-9,56,-1
9715,9,-249,-74,-4,57,-3
9720,11,-249,-73,-1,58,-2
9725,12,-246,-70,0,57,-4
9730,12,-248,-73,1,57,-3
9735,9,-246,-75,0,55,-3
9740,15,-247,-71,-2,55,-3
9745,15,-247,-70,-6,51,-5
9750,12,-246,-71,-8,47,-3
9755,14,-247,-72,-11,43,-4
9760,15,-245,-74,-13,40,-3
9765,12,-241,-76,-16,38,-4
9770,13,-246,-73,-17,36,-2
9775,11,-246,-75,-20,36,-1
9780,14,-250,-76,-22,37,0
9785,12,-249,-74,-23,38,0
9790,12,-248,-74,-23,40,1
9795,14,-250,-77,-21,44,0
9800,14,-249,-73,-17,47,2
9805,16,-251,-74,-14,48,0
9810,15,-252,-76,-8,50,2
9815,10,-247,-73,-6,51,0
9820,12,-248,-73,-4,51,0
9825,10,-246,-69,0,51,0
9830,14,-247,-71,1,53,0
9835,13,-246,-72,1,54,-1
9840,13,-247,-72,2,55,0
9845,11,-247,-73,0,55,0
9850,12,-248,-70,-2,55,0
9855,12,-248,-74,-5,56,-1
9860,9,-248,-75,-8,56,-2
9865,12,-246,-74,-10,57,-3
9870,12,-247,-73,-12,58,-2
9875,11,-250,-74,-13,58,-1
9880,13,-249,-75,-14,61,-2
9885,13,-250,-75,-14,63,-2
9890,12,-246,-70,-14,65,0
9895,11,-244,-75,-14,67,0
9900,9,-246,-73,-14,68,0
9905,14,-248,-77,-13,66,0
9910,11,-248,-75,-15,64,1
9915,11,-248,-73,-14,62,1
9920,12,-247,-76,-14,61,1
9925,9,-247,-68,-11,58,3
9930,13,-246,-72,-7,57,1
9935,11,-248,-77,-6,57,3
9940,11,-249,-74,-5,54,2
9945,11,-250,-75,-5,52,3
9950,10,-246,-72,-4,51,2
9955,7,-249,-69,-2,48,4
9960,12,-251,-73,-2,47,3
9965,11,-249,-71,-2,46,4
9970,11,-252,-74,0,47,1
9975,9,-248,-73,2,48,3
9980,11,-248,-71,4,49,2
9985,10,-246,-72,4,51,2
9990,11,-247,-70,3,54,0
9995,11,-247,-71,2,55,1
10000,10,-246,-72,0,56,-1
10005,12,-247,-72,-3,57,1
10010,10,-246,-73,-7,57,-2
10015,12,-247,-71,-8,57,1
10020,11,-247,-69,-8,56,-1
10025,12,-247,-76,-10,54,-1
10030,10,-246,-74,-10,53,-2
10035,11,-248,-73,-9,51,-1
10040,11,-250,-71,-9,52,-2
10045,12,-248,-71,-9,50,-1
10050,11,-249,-75,-9,50,-1
10055,12,-247,-73,-8,49,1
10060,11,-249,-70,-5,49,0
10065,10,-250,-74,-3,48,0
10070,11,-246,-70,-3,48,-2
10075,11,-247,-72,1,50,1
10080,10,-248,-72,4,49,0
10085,10,-249,-71,6,50,1
10090,13,-251,-70,8,48,-1
10095,10,-247,-71,8,48,-2
10100,11,-251,-72,8,47,-2
10105,10,-247,-71,7,46,1
10110,11,-248,-76,5,44,-2
10115,11,-248,-73,4,44,-1
10120,11,-248,-68,3,43,-3
10125,12,-246,-73,2,45,-2
10130,13,-253,-71,1,46,-3
10135,9,-247,-75,1,47,0
10140,10,-245,-72,-1,46,-3
10145,11,-244,-71,-1,47,0
10150,12,-244,-70,-1,49,-2
10155,11,-248,-69,-1,48,-1
10160,13,-249,-71,-1,50,-3
10165,10,-247,-71,-4,49,1
10170,13,-243,-71,-5,49,0
10175,12,-245,-75,-7,49,1
10180,11,-245,-71,-10,50,-2
10185,14,-250,-68,-12,51,0
10190,13,-248,-75,-14,51,-3
10195,12,-249,-76,-16,51,0
10200,13,-251,-71,-16,52,-2
10205,13,-250,-73,-17,54,-1
10210,11,-247,-73,-17,54,-2
10215,15,-246,-67,-18,55,-1
10220,12,-249,-72,-17,58,-3
10225,11,-250,-72,-15,58,-1
10230,9,-250,-69,-14,60,-3
10235,13,-249,-68,-12,62,-2
10240,12,-249,-69,-11,61,-4
10245,12,-251,-69,-9,62,-3
10250,13,-249,-71,-10,63,-5
10255,10,-248,-75,-9,64,-3
10260,14,-250,-75,-12,63,-6
10265,10,-248,-69,-13,61,-3
10270,11,-249,-72,-15,59,-5
10275,12,-251,-70,-16,58,-3
10280,10,-249,-69,-15,57,-5
10285,12,-248,-70,-15,58,-3
10290,10,-246,-69,-15,58,-5
10295,11,-249,-75,-13,58,-2
10300,15,-250,-66,-13,57,-4
10305,9,-247,-70,-11,58,-2
10310,12,-251,-70,-10,59,-2
10315,11,-248,-68,-11,59,1
10320,8,-246,-69,-11,57,-3
10325,10,-249,-71,-10,58,-1
10330,12,-251,-73,-9,58,-3
10335,8,-251,-69,-8,59,-1
10340,13,-250,-67,-4,60,-5
10345,11,-251,-69,-1,60,-3
10350,12,-252,-70,2,61,-4
10355,12,-248,-72,5,63,-2
10360,10,-250,-68,4,63,-5
10365,15,-250,-72,6,63,-4
10370,12,-246,-69,2,62,-5
10375,13,-247,-73,0,60,-3
10380,17,-250,-73,-4,57,-5
10385,13,-243,-70,-5,57,-3
10390,9,-243,-75,-8,54,-6
10395,13,-244,-72,-9,53,-2
10400,13,-246,-70,-10,51,-4
10405,9,-248,-71,-12,51,-1
10410,15,-248,-70,-14,50,0
10415,14,-251,-73,-18,51,2
10420,13,-250,-71,-16,50,0
10425,13,-247,-70,-14,51,3
10430,10,-251,-70,-9,50,0
10435,13,-252,-68,-3,52,3
10440,9,-251,-71,0,53,0
10445,12,-249,-73,1,53,3
10450,9,-249,-72,1,54,1
10455,9,-250,-69,3,55,1
10460,12,-248,-70,1,56,0
10465,11,-246,-72,2,57,1
10470,13,-247,-69,3,59,-1
10475,8,-246,-70,3,59,2
10480,13,-248,-68,5,61,-1
10485,12,-248,-73,5,61,1
10490,13,-248,-70,5,61,-2
10495,12,-245,-72,5,62,0
10500,14,-249,-73,2,62,-2
10505,9,-245,-73,2,62,1
10510,9,-246,-69,0,63,-1
10515,11,-246,-72,-3,65,0
10520,13,-248,-71,-5,64,-3
10525,11,-246,-71,-9,65,-1
10530,12,-249,-73,-9,65,-2
10535,10,-250,-72,-10,62,-1
10540,13,-250,-72,-10,62,-2
10545,12,-250,-72,-10,61,0
10550,10,-249,-73,-8,57,-1
10555,10,-247,-71,-8,56,0
10560,11,-250,-72,-7,54,-1
10565,12,-248,-74,-6,53,0
10570,8,-248,-71,-5,52,-1
10575,11,-248,-72,-5,50,0
10580,13,-250,-69,-4,50,-1
10585,9,-249,-69,-3,49,-1
10590,13,-250,-72,-4,49,-2
10595,11,-248,-70,-1,48,0
10600,12,-249,-70,1,49,-2
10605,14,-249,-69,4,50,1
10610,9,-249,-67,7,52,0
10615,11,-248,-72,9,51,0
10620,8,-247,-72,10,51,-4
10625,9,-249,-71,9,52,-3
10630,12,-247,-67,6,53,-3
10635,10,-247,-72,3,53,-3
10640,13,-247,-72,0,54,-2
10645,10,-245,-70,-5,53,-3
10650,13,-251,-69,-13,53,-4
10655,13,-248,-70,-16,53,-3
10660,12,-244,-71,-19,54,-4
10665,13,-248,-70,-21,55,-4
10670,10,-249,-68,-20,55,-3
10675,13,-248,-72,-18,56,-3
10680,14,-248,-67,-16,57,-3
10685,11,-247,-73,-14,61,-2
10690,11,-248,-71,-12,61,-3
10695,8,-249,-71,-10,61,-2
10700,10,-248,-68,-7,59,-2
10705,11,-249,-70,-6,56,-1
10710,12,-251,-69,-4,54,-1
10715,11,-250,-71,-3,54,-2
10720,11,-252,-70,-1,54,-1
10725,10,-250,-70,0,53,-1
10730,11,-246,-68,2,53,-1
10735,14,-250,-72,3,54,-1
10740,10,-248,-69,1,57,-2
10745,11,-248,-71,0,59,-1
10750,11,-249,-70,1,61,-2
10755,10,-249,-68,0,63,-1
10760,15,-251,-67,0,62,-1
10765,12,-247,-69,0,64,-1
10770,13,-249,-74,1,64,0
10775,12,-250,-69,-1,63,-1
10780,13,-249,-68,0,63,-1
10785,10,-248,-69,0,64,-2
10790,12,-248,-70,0,65,-2
10795,13,-248,-69,1,64,-2
10800,10,-246,-66,-1,67,-1
10805,12,-248,-68,0,68,0
10810,11,-246,-68,-1,68,0
10815,10,-244,-69,-3,69,0
10820,8,-246,-69,-2,66,2
10825,11,-249,-66,-4,64,-1
10830,10,-250,-66,-6,64,0
10835,11,-247,-71,-3,64,0
10840,9,-248,-70,-1,62,1
10845,9,-247,-69,-1,62,1
10850,9,-248,-70,0,61,2
10855,12,-249,-68,0,60,1
10860,11,-247,-71,2,59,1
10865,10,-250,-70,2,60,0
10870,10,-248,-72,1,59,1
10875,12,-251,-69,0,59,0
10880,11,-251,-70,0,59,2
10885,12,-251,-71,0,64,0
10890,12,-250,-70,-2,65,1
10895,10,-248,-70,-1,66,1
10900,9,-249,-67,-2,67,2
10905,12,-247,-66,-1,69,0
10910,11,-248,-70,-3,70,3
10915,13,-248,-68,-5,69,2
10920,15,-251,-68,-7,69,3
10925,9,-247,-67,-8,67,0
10930,11,-248,-65,-10,67,2
10935,9,-248,-67,-12,66,1
10940,12,-249,-70,-14,65,2
10945,11,-248,-70,-15,63,0
10950,11,-250,-65,-16,62,2
10955,7,-248,-73,-16,64,1
10960,9,-246,-69,-17,65,2
10965,11,-248,-69,-15,66,0
10970,10,-249,-65,-15,67,3
10975,8,-251,-68,-12,68,0
10980,11,-251,-70,-9,69,2
10985,11,-249,-71,-8,70,-1
10990,11,-249,-70,-7,71,-1
10995,12,-249,-70,-5,72,-1
11000,10,-246,-68,-6,72,-1
11005,12,-245,-72,-8,75,-3
11010,10,-250,-70,-12,76,-1
11015,11,-249,-71,-14,77,-4
11020,10,-247,-65,-17,78,-3
11025,11,-247,-68,-18,77,-5
11030,10,-244,-68,-20,79,-3
11035,10,-248,-68,-22,79,-5
11040,11,-250,-69,-24,76,-2
11045,12,-250,-68,-27,73,-3
11050,11,-252,-66,-28,74,0
11055,13,-252,-71,-25,74,-1
11060,12,-250,-71,-23,74,2
11065,8,-249,-69,-18,73,0
11070,11,-250,-73,-15,75,3
11075,10,-250,-69,-10,74,1
11080,11,-250,-67,-4,73,4
11085,10,-252,-70,-1,73,1
11090,9,-253,-67,2,72,3
11095,10,-251,-68,5,70,-1
11100,11,-249,-72,6,69,0
11105,12,-249,-66,8,71,-3
11110,10,-250,-65,8,70,-1
11115,10,-248,-68,7,71,-4
11120,8,-249,-69,5,71,1
11125,9,-247,-73,3,72,-2
11130,11,-249,-66,0,74,0
11135,12,-248,-73,-3,74,-2
11140,11,-247,-70,-7,73,0
11145,11,-246,-69,-8,72,-2
11150,11,-245,-71,-12,72,-2
11155,10,-247,-71,-14,70,-4
11160,11,-246,-68,-15,68,-1
11165,9,-243,-71,-17,66,-4
11170,13,-247,-70,-18,64,-1
11175,10,-248,-71,-16,63,-4
11180,10,-246,-66,-15,61,-1
11185,10,-247,-67,-13,60,-3
11190,9,-249,-73,-13,60,-1
11195,11,-250,-73,-10,60,-4
11200,12,-251,-68,-8,59,0
11205,10,-250,-69,-8,61,-2
11210,14,-249,-70,-7,60,0
11215,12,-246,-70,-7,60,-2
11220,13,-251,-74,-7,62,-1
11225,12,-249,-69,-8,62,-2
11230,9,-249,-71,-5,62,0
11235,13,-248,-72,-5,63,-4
11240,12,-247,-65,-3,64,-1
11245,11,-247,-68,-1,66,-4
11250,11,-247,-70,-1,65,-1
11255,10,-245,-69,-2,66,-4
11260,9,-248,-71,-4,65,-2
11265,10,-248,-71,-7,63,-4
11270,11,-247,-70,-12,61,-2
11275,11,-247,-68,-15,59,-4
11280,11,-249,-73,-16,56,-3
11285,11,-248,-67,-19,55,-5
11290,11,-248,-73,-21,54,-4
11295,10,-248,-67,-24,53,-7
11300,11,-249,-73,-26,53,-3
11305,13,-249,-72,-26,53,-6
11310,8,-247,-72,-27,56,-4
11315,11,-251,-69,-27,57,-5
11320,9,-249,-71,-24,60,-4
11325,11,-252,-68,-21,60,-6
11330,13,-247,-71,-20,60,-4
11335,11,-247,-69,-16,61,-6
11340,13,-250,-70,-14,60,-5
11345,13,-249,-71,-12,61,-6
11350,9,-248,-70,-11,61,-5
11355,11,-249,-66,-10,60,-6
11360,9,-246,-69,-10,60,-2
11365,12,-249,-70,-7,59,-3
11370,10,-249,-70,-6,57,-2
11375,10,-248,-71,-7,57,-4
11380,10,-249,-71,-6,57,-2
11385,10,-247,-68,-8,56,-4
11390,12,-248,-69,-10,56,-2
11395,10,-247,-66,-12,55,-4
11400,13,-251,-67,-14,54,-3
11405,9,-245,-70,-15,54,-3
11410,10,-249,-68,-17,53,-2
11415,10,-249,-72,-21,52,-4
11420,12,-248,-70,-23,52,-2
11425,14,-250,-70,-25,53,-3
11430,12,-248,-70,-27,55,-3
11435,13,-250,-72,-28,58,-4
11440,12,-252,-71,-29,58,-2
11445,13,-248,-71,-27,60,-4
11450,11,-250,-73,-25,61,-3
11455,11,-251,-68,-23,60,-3
11460,11,-249,-69,-19,60,-2
11465,9,-249,-67,-17,59,-3
11470,10,-250,-70,-14,58,-2
11475,9,-250,-68,-14,58,-3
11480,10,-246,-70,-11,58,-1
11485,8,-245,-73,-12,57,-3
11490,11,-249,-68,-11,58,-2
11495,11,-250,-68,-11,58,-2
11500,8,-248,-71,-11,57,-2
11505,8,-248,-66,-12,56,-3
11510,8,-249,-73,-11,55,-1
11515,9,-248,-67,-10,56,-3
11520,11,-248,-73,-9,57,-1
11525,9,-248,-70,-8,55,-1
11530,11,-250,-71,-8,54,-1
11535,14,-248,-69,-8,51,-1
11540,12,-250,-72,-9,51,-3
11545,10,-247,-66,-10,50,-4
11550,12,-250,-68,-13,50,-3
11555,12,-246,-67,-13,50,-3
11560,10,-249,-71,-14,52,-1
11565,14,-248,-66,-14,53,1
11570,12,-250,-69,-14,54,2
11575,12,-248,-66,-14,54,2
11580,10,-248,-67,-15,54,1
11585,11,-250,-70,-16,54,2
11590,12,-248,-69,-17,53,0
11595,11,-246,-69,-19,53,1
11600,10,-251,-68,-22,56,-1
11605,12,-251,-73,-23,58,-1
11610,11,-247,-70,-22,62,-2
11615,9,-246,-68,-25,63,-2
11620,10,-249,-71,-25,67,-2
11625,14,-248,-70,-23,69,-3
11630,13,-249,-71,-22,71,-3
11635,12,-246,-70,-22,71,-3
11640,12,-248,-71,-23,72,-6
11645,13,-248,-69,-23,69,-6
11650,12,-249,-71,-25,68,-6
11655,8,-247,-70,-27,66,-6
11660,13,-249,-69,-32,65,-4
11665,12,-247,-69,-37,64,-4
11670,11,-248,-72,-39,62,-3
11675,9,-248,-69,-39,60,-2
11680,12,-251,-66,-38,59,-2
11685,12,-250,-73,-34,61,-1
11690,11,-251,-68,-28,60,-2
11695,12,-251,-75,-23,60,1
11700,12,-253,-72,-17,59,0
11705,12,-252,-68,-12,57,0
11710,8,-252,-71,-8,56,1
11715,8,-250,-71,-6,53,1
11720,10,-250,-67,-3,53,-1
11725,11,-248,-70,0,53,0
11730,11,-250,-71,3,52,1
11735,10,-247,-69,5,55,1
11740,8,-248,-68,5,56,-1
11745,10,-246,-67,3,57,1
11750,11,-247,-68,1,58,-1
11755,14,-248,-68,-3,58,0
11760,10,-247,-70,-8,58,-2
11765,12,-248,-69,-11,58,-1
11770,9,-248,-71,-15,60,-3
11775,13,-246,-71,-18,64,-1
11780,8,-247,-70,-20,64,-2
11785,11,-246,-74,-23,66,-2
11790,19,-245,-71,-25,67,-3
11795,5,-248,-72,-25,68,0
11800,10,-267,-61,-26,67,-1
11805,16,-253,-73,-25,68,-1
11810,6,-251,-67,-26,67,-2
11815,13,-249,-70,-23,66,-1
11820,10,-249,-70,-20,66,-2
11825,11,-247,-71,-17,68,0
11830,12,-249,-69,-16,65,-2
11835,14,-249,-68,-13,63,-1
11840,4,-251,-93,-11,62,-1
11845,10,-250,-71,-9,63,1
11850,10,-248,-69,-7,62,-1
11855,10,-249,-67,-6,60,2
11860,11,-250,-68,-5,58,-1
11865,10,-249,-72,-5,58,2
11870,11,-251,-70,-6,56,-1
11875,11,-247,-70,-8,55,1
11880,10,-250,-69,-9,54,-1
11885,9,-248,-72,-14,55,1
11890,11,-248,-74,-17,55,-3
11895,11,-248,-70,-20,55,-1
11900,11,-249,-71,-20,56,-2
11905,13,-245,-69,-22,58,-1
11910,11,-246,-72,-24,59,-3
11915,13,-245,-70,-26,62,-2
11920,11,-248,-70,-27,62,-4
11925,11,-248,-68,-28,61,-2
11930,10,-248,-69,-29,63,-3
11935,14,-247,-71,-27,62,-1
11940,13,-248,-69,-26,62,-4
11945,11,-250,-70,-25,60,-1
11950,10,-248,-71,-24,59,-4
11955,9,-249,-73,-21,60,-1
11960,10,-248,-71,-21,60,-4
11965,12,-250,-70,-22,57,0
11970,11,-248,-69,-20,58,-2
11975,12,-249,-68,-19,57,0
11980,9,-249,-72,-19,59,-3
11985,11,-248,-70,-19,59,-1
11990,12,-247,-71,-21,60,-3
11995,9,-246,-73,-22,60,-2
