timestamp,acc_x,acc_y,acc_z,gyro_x,gyro_y,gyro_z
0,-8,-207,-136,55,21,-8
5,-7,-208,-135,58,20,-9
10,-9,-207,-135,58,18,-7
15,-10,-206,-134,57,19,-10
20,-11,-208,-133,56,19,-11
25,-8,-207,-137,55,21,-9
30,-11,-208,-138,56,19,-8
35,-8,-209,-136,60,19,-9
40,-8,-209,-134,62,17,-10
45,-11,-207,-133,62,16,-8
50,-12,-206,-136,63,15,-8
55,-10,-203,-136,63,13,-9
60,-14,-205,-136,62,13,-8
65,-7,-209,-136,61,12,-8
70,-11,-203,-135,60,10,-9
75,-7,-208,-132,60,11,-8
80,-10,-208,-135,60,11,-6
85,-11,-207,-138,60,12,-8
90,-11,-203,-134,61,13,-8
95,-11,-206,-133,60,12,-7
100,-8,-205,-136,56,12,-7
105,-10,-204,-133,53,12,-8
110,-5,-209,-132,49,12,-9
115,-10,-206,-136,48,11,-7
120,-13,-206,-138,50,9,-8
125,-14,-212,-140,51,8,-9
130,-10,-209,-133,54,7,-9
135,-11,-209,-136,56,4,-10
140,-9,-206,-134,57,2,-7
145,-10,-206,-137,56,-1,-2
150,-10,-209,-134,54,1,-6
155,-11,-205,-133,54,-1,-8
160,-8,-204,-133,55,-1,-8
165,-10,-204,-136,56,-2,-8
170,-9,-206,-134,58,-4,-9
175,-10,-207,-138,61,-7,-8
180,-9,-206,-136,63,-6,-9
185,-10,-206,-135,64,-6,-10
190,-10,-207,-138,63,-7,-8
195,-11,-204,-136,61,-8,-7
200,-11,-209,-137,60,-8,-7
205,-11,-205,-130,57,-6,-7
210,-11,-206,-137,55,-4,-6
215,-10,-208,-134,54,-2,-5
220,-9,-205,-136,52,1,-4
225,-11,-209,-137,53,6,-4
230,-10,-209,-133,57,8,-1
235,-11,-206,-134,61,11,0
240,-11,-209,-134,65,12,0
245,-6,-210,-136,67,14,1
250,-11,-206,-132,67,15,2
255,-10,-203,-137,66,17,1
260,-12,-201,-136,64,14,0
265,-10,-200,-134,58,14,0
270,-8,-205,-135,56,14,0
275,-10,-202,-140,53,13,0
280,-10,-205,-137,50,11,-1
285,-7,-203,-136,48,8,0
290,-10,-205,-140,47,6,-3
295,-8,-205,-139,47,4,-3
300,-8,-207,-135,50,3,-6
305,-9,-206,-135,51,3,-7
310,-8,-208,-137,53,4,-8
315,-10,-209,-137,55,4,-9
320,-9,-205,-134,55,4,-9
325,-13,-206,-131,56,2,-10
330,-8,-204,-134,57,0,-11
335,-8,-205,-136,56,-2,-12
340,-8,-204,-137,54,-4,-12
345,-12,-204,-132,52,-6,-12
350,-9,-206,-132,50,-8,-12
355,-11,-203,-135,52,-8,-9
360,-10,-205,-136,54,-6,-7
365,-12,-205,-135,58,-3,-6
370,-10,-206,-134,59,2,-6
375,-9,-206,-132,59,5,-3
380,-11,-209,-139,57,8,-1
385,-9,-207,-137,54,10,1
390,-11,-208,-137,53,11,0
395,-12,-205,-138,54,12,-1
400,-10,-208,-136,56,13,3
405,-11,-205,-136,58,12,2
410,-12,-204,-135,61,11,4
415,-10,-204,-138,63,11,2
420,-8,-203,-133,65,11,3
425,-8,-203,-137,66,11,3
430,-7,-203,-137,68,12,2
435,-5,-204,-136,68,12,2
440,-10,-205,-135,68,13,1
445,-9,-205,-136,65,13,0
450,-11,-203,-137,62,12,-2
455,-10,-206,-136,58,12,-4
460,-5,-204,-135,55,11,-6
465,-8,-205,-136,53,9,-7
470,-10,-205,-135,51,8,-7
475,-8,-205,-137,51,8,-6
480,-12,-207,-133,50,6,-7
485,-8,-204,-138,51,5,-8
490,-10,-204,-136,50,4,-9
495,-8,-204,-134,50,5,-8
500,-11,-204,-134,50,5,-9
505,-10,-205,-138,47,4,-9
510,-10,-203,-131,46,5,-9
515,-11,-205,-135,43,5,-10
520,-13,-204,-135,43,6,-10
525,-7,-204,-136,42,5,-10
530,-8,-208,-136,42,5,-11
535,-12,-205,-132,42,5,-11
540,-11,-203,-135,42,3,-10
545,-11,-207,-136,41,2,-11
550,-13,-204,-136,40,2,-10
555,-7,-206,-136,38,2,-12
560,-12,-205,-135,36,2,-11
565,-12,-208,-138,34,1,-12
570,-11,-207,-137,32,1,-11
575,-9,-208,-140,31,2,-10
580,-10,-204,-136,30,4,-11
585,-9,-207,-134,30,5,-10
590,-10,-207,-138,31,5,-9
595,-8,-207,-133,32,5,-8
600,-10,-208,-138,33,6,-7
605,-8,-207,-138,34,8,-6
610,-14,-206,-135,33,10,-5
615,-9,-206,-138,33,10,-4
620,-11,-206,-133,34,11,-4
625,-10,-208,-136,35,11,-5
630,-9,-209,-136,34,12,-6
635,-9,-205,-135,36,11,-6
640,-11,-208,-139,36,10,-6
645,-7,-207,-133,35,9,-8
650,-10,-206,-134,35,8,-8
655,-11,-203,-131,33,7,-9
660,-10,-206,-134,35,6,-8
665,-9,-208,-137,37,6,-10
670,-11,-207,-135,37,5,-11
675,-7,-207,-134,37,6,-11
680,-10,-209,-138,36,6,-12
685,-8,-207,-135,37,6,-13
690,-8,-207,-135,37,8,-14
695,-10,-207,-138,38,9,-14
700,-7,-205,-138,39,11,-13
705,-13,-204,-136,40,11,-14
710,-11,-207,-135,38,12,-15
715,-9,-206,-135,38,12,-15
720,-9,-208,-136,36,12,-14
725,-7,-205,-136,35,11,-17
730,-7,-210,-134,32,12,-14
735,-9,-207,-137,30,11,-15
740,-9,-206,-137,29,13,-17
745,-12,-207,-135,27,13,-16
750,-10,-207,-133,28,13,-15
755,-9,-210,-134,29,13,-16
760,-8,-207,-130,32,13,-18
765,-12,-211,-133,33,14,-16
770,-8,-207,-131,38,13,-18
775,-12,-206,-134,40,14,-19
780,-9,-194,-130,43,14,-17
785,-9,-204,-135,45,14,-18
790,-8,-208,-140,47,15,-18
795,-9,-209,-137,48,14,-17
800,-9,-204,-136,48,12,-16
805,-9,-208,-135,48,11,-17
810,-4,-212,-138,49,10,-16
815,-11,-203,-139,48,9,-17
820,-12,-204,-132,48,10,-16
825,-10,-207,-137,48,8,-18
830,-6,-207,-139,49,7,-18
835,-11,-206,-134,49,7,-18
840,-10,-206,-138,49,6,-18
845,-7,-206,-135,49,11,-17
850,-9,-206,-135,49,12,-18
855,-5,-206,-136,47,12,-17
860,-7,-206,-135,45,12,-17
865,-9,-205,-135,43,13,-16
870,-6,-205,-136,43,17,-17
875,-12,-209,-134,44,17,-18
880,-11,-207,-139,46,16,-18
885,-9,-210,-134,51,16,-18
890,-13,-207,-134,55,18,-17
895,-9,-210,-136,57,19,-17
900,-7,-207,-136,58,18,-16
905,-9,-203,-139,57,17,-16
910,-10,-206,-134,57,19,-15
915,-6,-203,-136,59,19,-14
920,-9,-204,-134,59,17,-15
925,-13,-201,-135,57,16,-13
930,-8,-205,-135,54,14,-14
935,-8,-204,-137,51,15,-15
940,-12,-206,-138,48,16,-16
945,-10,-203,-132,46,15,-15
950,-8,-204,-138,44,13,-15
955,-11,-206,-133,44,12,-15
960,-12,-204,-132,43,13,-16
965,-12,-205,-135,42,12,-16
970,-9,-205,-140,43,11,-18
975,-9,-204,-137,41,13,-16
980,-11,-208,-135,42,15,-18
985,-9,-207,-135,41,13,-19
990,-9,-207,-136,40,11,-17
995,-11,-208,-139,42,11,-18
1000,-7,-209,-133,44,9,-16
1005,-11,-208,-134,45,9,-14
1010,-9,-207,-135,49,7,-16
1015,-10,-206,-138,51,8,-14
1020,-8,-209,-136,55,9,-12
1025,-10,-208,-142,58,8,-12
1030,-5,-210,-134,61,8,-12
1035,-10,-206,-136,62,8,-12
1040,-9,-204,-138,61,9,-10
1045,-9,-206,-138,61,10,-9
1050,-6,-205,-149,58,11,-10
1055,-9,-205,-137,56,11,-9
1060,-8,-207,-135,53,11,-10
1065,-7,-208,-138,52,10,-11
1070,-9,-207,-134,50,10,-12
1075,-7,-206,-134,46,10,-12
1080,-9,-205,-135,44,10,-12
1085,-9,-208,-134,43,11,-13
1090,-6,-208,-136,43,11,-12
1095,-7,-208,-135,43,11,-12
1100,-7,-205,-136,47,10,-13
1105,-8,-207,-133,49,9,-14
1110,-10,-206,-134,53,8,-13
1115,-9,-205,-139,56,9,-13
1120,-9,-204,-139,56,9,-13
1125,-3,-206,-134,55,10,-12
1130,-9,-206,-137,56,10,-10
1135,-9,-204,-136,55,11,-11
1140,-9,-206,-139,55,12,-12
1145,-8,-207,-138,56,13,-12
1150,-9,-205,-137,58,15,-12
1155,-9,-209,-137,60,15,-11
1160,-9,-206,-136,61,15,-12
1165,-11,-202,-136,63,15,-12
1170,-11,-205,-139,65,14,-13
1175,-7,-204,-134,65,14,-12
1180,-10,-204,-136,64,15,-13
1185,-8,-202,-137,63,15,-15
1190,-9,-205,-133,60,14,-15
1195,-9,-204,-136,57,13,-15
1200,-10,-205,-138,54,13,-14
1205,-8,-205,-135,52,13,-14
1210,-9,-205,-137,49,11,-15
1215,-11,-205,-136,48,13,-15
1220,-10,-207,-132,47,14,-16
1225,-9,-206,-136,47,12,-17
1230,-11,-207,-134,46,11,-16
1235,-9,-208,-134,48,10,-16
1240,-6,-207,-137,51,11,-15
1245,-10,-205,-133,54,12,-15
1250,-9,-205,-137,55,11,-14
1255,-8,-204,-135,55,11,-14
1260,-5,-204,-139,54,12,-13
1265,-9,-209,-136,51,11,-14
1270,-9,-208,-139,50,12,-14
1275,-12,-202,-137,47,12,-15
1280,-11,-204,-139,48,12,-12
1285,-9,-205,-140,50,12,-13
1290,-6,-206,-135,53,12,-12
1295,-9,-207,-136,53,10,-12
1300,-9,-209,-135,57,10,-12
1305,-9,-205,-138,58,10,-12
1310,-9,-208,-135,59,8,-12
1315,-11,-201,-136,60,9,-11
1320,-9,-207,-136,59,8,-12
1325,-9,-206,-138,58,8,-13
1330,-9,-204,-135,56,8,-14
1335,-9,-206,-137,52,9,-13
1340,-9,-205,-134,51,9,-14
1345,-8,-205,-135,49,10,-15
1350,-11,-207,-135,46,11,-15
1355,-10,-206,-134,44,11,-15
1360,-9,-207,-136,43,10,-17
1365,-13,-204,-134,44,10,-18
1370,-10,-205,-139,45,10,-18
1375,-11,-210,-138,46,9,-18
1380,-10,-203,-134,46,9,-17
1385,-8,-209,-138,44,9,-17
1390,-9,-205,-136,43,11,-17
1395,-11,-208,-140,41,7,-17
1400,-8,-205,-136,40,10,-18
1405,-11,-203,-137,40,11,-18
1410,-11,-206,-137,42,13,-17
1415,-10,-205,-139,46,14,-17
1420,-10,-203,-135,47,13,-17
1425,-17,-203,-137,49,14,-18
1430,-10,-206,-134,50,13,-16
1435,-9,-206,-135,51,12,-15
1440,-8,-209,-137,52,12,-16
1445,-11,-207,-133,52,13,-16
1450,-9,-207,-137,55,11,-16
1455,-10,-206,-136,54,11,-18
1460,-10,-205,-137,53,12,-16
1465,-12,-204,-134,52,9,-16
1470,-9,-207,-134,52,8,-15
1475,-10,-203,-134,52,7,-16
1480,-8,-204,-136,51,6,-17
1485,-9,-205,-135,51,6,-19
1490,-10,-205,-134,50,7,-18
1495,-9,-208,-138,49,5,-16
1500,-11,-207,-136,45,5,-16
1505,-10,-203,-137,43,7,-16
1510,-9,-206,-135,40,7,-16
1515,-10,-205,-135,39,7,-16
1520,-10,-208,-134,40,8,-15
1525,-7,-209,-135,41,9,-16
1530,-9,-210,-135,43,10,-15
1535,-10,-204,-134,46,11,-15
1540,-9,-206,-134,47,11,-16
1545,-11,-204,-136,48,12,-14
1550,-11,-206,-136,48,12,-15
1555,-8,-205,-134,50,12,-15
1560,-9,-204,-134,52,13,-15
1565,-7,-205,-134,54,14,-12
1570,-10,-207,-136,56,14,-13
1575,-11,-206,-132,56,15,-12
1580,-10,-204,-134,57,17,-12
1585,-9,-205,-138,55,16,-10
1590,-9,-205,-137,53,15,-11
1595,-10,-205,-139,50,15,-13
1600,-11,-206,-137,47,15,-13
1605,-9,-204,-134,48,16,-15
1610,-12,-207,-132,48,14,-15
1615,-9,-204,-139,48,13,-16
1620,-9,-205,-138,50,11,-18
1625,-11,-202,-137,50,9,-17
1630,-11,-205,-136,50,8,-18
1635,-10,-205,-136,50,6,-19
1640,-11,-203,-137,49,5,-20
1645,-11,-206,-137,46,6,-20
1650,-11,-207,-138,46,4,-20
1655,-5,-206,-137,47,4,-17
1660,-8,-207,-136,48,6,-16
1665,-11,-205,-134,50,7,-15
1670,-8,-207,-133,51,8,-12
1675,-8,-206,-136,53,10,-13
1680,-6,-209,-137,54,11,-11
1685,-7,-208,-134,57,12,-11
1690,-9,-209,-133,58,14,-11
1695,-8,-205,-135,59,13,-10
1700,-8,-205,-136,60,14,-11
1705,-6,-206,-140,60,14,-11
1710,-8,-206,-140,59,15,-11
1715,-6,-206,-133,60,15,-10
1720,-9,-207,-137,58,13,-10
1725,-10,-204,-132,57,13,-11
1730,-8,-208,-133,57,12,-11
1735,-7,-202,-134,57,10,-11
1740,-7,-207,-140,59,10,-11
1745,-6,-206,-137,60,7,-10
1750,-9,-207,-137,63,8,-13
1755,-6,-205,-139,64,8,-12
1760,-5,-204,-137,64,9,-11
1765,-10,-205,-138,64,11,-11
1770,-7,-205,-137,62,12,-9
1775,-9,-206,-139,58,15,-9
1780,-11,-201,-136,54,13,-7
1785,-8,-207,-134,53,13,-8
1790,-11,-207,-135,53,14,-9
1795,-9,-207,-135,55,13,-8
1800,-9,-206,-136,57,15,-7
1805,-10,-204,-137,63,16,-6
1810,-9,-203,-134,66,17,-7
1815,-8,-206,-139,66,17,-8
1820,-9,-205,-139,64,16,-7
1825,-12,-207,-133,61,16,-8
1830,-10,-205,-133,58,16,-8
1835,-7,-208,-135,57,16,-9
1840,-5,-207,-138,59,15,-6
1845,-8,-207,-133,61,16,-9
1850,-9,-205,-137,62,16,-7
1855,-6,-207,-135,62,13,-8
1860,-10,-207,-139,63,14,-9
1865,-8,-202,-135,59,12,-8
1870,-7,-203,-140,57,10,-9
1875,-9,-204,-138,55,10,-9
1880,-9,-204,-135,53,8,-9
1885,-8,-206,-135,54,7,-11
1890,-11,-207,-136,54,6,-11
1895,-9,-207,-135,56,4,-11
1900,-11,-205,-138,57,2,-11
1905,-10,-201,-137,57,1,-10
1910,-8,-203,-136,56,2,-10
1915,-7,-204,-139,54,2,-11
1920,-7,-205,-138,53,2,-10
1925,-4,-205,-150,52,3,-10
1930,-4,-204,-141,48,2,-11
1935,-8,-203,-138,47,2,-11
1940,-10,-202,-137,44,2,-9
1945,-10,-203,-142,39,2,-12
1950,-8,-204,-140,35,1,-11
1955,-6,-205,-137,31,3,-12
1960,-8,-204,-137,26,3,-14
1965,-7,-206,-137,22,4,-13
1970,-10,-206,-142,20,4,-14
1975,-5,-203,-139,19,6,-13
1980,-11,-206,-140,19,6,-13
1985,-7,-207,-142,22,9,-14
1990,-8,-209,-142,24,12,-13
1995,-7,-208,-142,25,15,-15
2000,-6,-207,-139,26,17,-13
2005,-8,-206,-142,29,22,-13
2010,-2,-205,-138,30,27,-13
2015,-4,-206,-139,32,30,-12
2020,-4,-204,-136,34,34,-12
2025,-2,-201,-143,36,37,-12
2030,-9,-202,-137,39,38,-13
2035,-8,-200,-140,38,38,-14
2040,-5,-201,-138,36,35,-15
2045,-3,-200,-138,32,35,-17
2050,-1,-198,-141,28,35,-19
2055,-3,-200,-142,23,34,-19
2060,-8,-196,-137,17,33,-18
2065,-2,-200,-143,13,35,-20
2070,-5,-200,-141,9,37,-19
2075,-6,-200,-142,7,37,-18
2080,-4,-198,-144,6,38,-17
2085,-3,-201,-141,6,40,-16
2090,-6,-196,-145,5,42,-16
2095,-5,-199,-147,5,43,-14
2100,-5,-194,-148,6,41,-12
2105,-8,-197,-141,3,39,-11
2110,-6,-195,-147,1,37,-12
2115,-4,-193,-148,-3,36,-10
2120,-7,-192,-143,-7,35,-8
2125,-8,-193,-145,-13,32,-8
2130,-9,-193,-141,-20,29,-10
2135,-9,-193,-141,-27,27,-12
2140,-5,-175,-137,-34,24,-12
2145,-4,-192,-142,-40,22,-13
2150,-10,-190,-142,-46,23,-13
2155,-8,-187,-143,-52,26,-14
2160,-8,-188,-140,-59,29,-15
2165,-8,-187,-140,-65,34,-14
2170,-8,-188,-142,-73,37,-16
2175,-9,-183,-142,-80,41,-18
2180,-8,-183,-142,-90,42,-19
2185,-9,-184,-144,-103,44,-23
2190,-4,-182,-147,-116,44,-25
2195,-9,-179,-148,-130,44,-29
2200,-10,-182,-144,-146,42,-32
2205,-12,-181,-146,-163,41,-35
2210,-13,-180,-147,-177,38,-40
2215,-14,-181,-146,-192,34,-47
2220,-14,-179,-147,-204,30,-53
2225,-11,-185,-148,-214,24,-61
2230,-11,-190,-145,-223,18,-68
2235,-10,-189,-147,-225,12,-72
2240,-14,-185,-148,-225,10,-74
2245,-14,-189,-147,-224,8,-77
2250,-15,-184,-149,-223,6,-79
2255,-16,-184,-150,-220,4,-82
2260,-14,-184,-150,-217,-1,-86
2265,-18,-185,-147,-215,-8,-89
2270,-12,-187,-146,-213,-17,-91
2275,-13,-182,-148,-212,-23,-94
2280,-15,-183,-147,-213,-29,-95
2285,-14,-184,-142,-214,-31,-97
2290,-9,-183,-143,-218,-32,-98
2295,-7,-180,-142,-220,-32,-99
2300,-9,-182,-142,-223,-31,-101
2305,-8,-181,-143,-225,-31,-104
2310,-9,-179,-142,-224,-29,-107
2315,-10,-177,-144,-224,-28,-112
2320,-8,-174,-138,-221,-24,-117
2325,-7,-177,-145,-218,-20,-121
2330,-7,-176,-140,-218,-17,-126
2335,-7,-172,-140,-219,-13,-127
2340,-6,-174,-138,-221,-8,-128
2345,-4,-171,-139,-225,-3,-132
2350,-8,-170,-144,-232,3,-133
2355,-3,-173,-140,-239,8,-135
2360,0,-171,-144,-249,15,-136
2365,-5,-170,-141,-260,18,-139
2370,-3,-170,-142,-271,21,-140
2375,0,-173,-145,-283,26,-141
2380,-1,-172,-140,-292,30,-141
2385,0,-171,-144,-300,33,-143
2390,-1,-175,-146,-306,35,-147
2395,0,-172,-145,-311,37,-151
2400,0,-172,-142,-313,37,-156
2405,0,-173,-144,-314,36,-159
2410,0,-169,-148,-315,34,-160
2415,1,-170,-147,-317,35,-163
2420,0,-173,-148,-319,34,-167
2425,0,-170,-143,-320,33,-169
2430,0,-170,-144,-320,30,-170
2435,-1,-163,-141,-317,25,-170
2440,0,-165,-140,-313,21,-170
2445,0,-163,-141,-306,19,-169
2450,0,-156,-142,-297,17,-165
2455,3,-161,-140,-290,17,-163
2460,2,-158,-140,-284,18,-158
2465,0,-156,-141,-282,17,-155
2470,6,-154,-143,-283,18,-152
2475,7,-154,-142,-286,16,-148
2480,4,-153,-143,-292,14,-146
2485,5,-149,-138,-302,15,-145
2490,6,-152,-142,-315,17,-140
2495,7,-152,-143,-327,18,-137
2500,7,-151,-146,-343,19,-133
2505,9,-150,-148,-356,21,-129
2510,6,-149,-147,-368,25,-126
2515,4,-152,-147,-377,28,-121
2520,6,-152,-147,-386,31,-115
2525,3,-154,-150,-396,34,-112
2530,2,-156,-149,-402,35,-108
2535,4,-155,-150,-405,34,-106
2540,0,-152,-151,-406,29,-104
2545,2,-152,-154,-410,25,-104
2550,2,-153,-156,-412,20,-105
2555,1,-154,-155,-418,15,-107
2560,1,-155,-157,-420,13,-107
2565,3,-157,-159,-422,11,-108
2570,2,-159,-157,-427,11,-108
2575,0,-158,-164,-434,14,-109
2580,-2,-163,-163,-439,19,-110
2585,0,-163,-161,-444,21,-109
2590,-2,-164,-166,-447,21,-108
2595,-1,-167,-166,-444,22,-108
2600,0,-169,-172,-435,22,-105
2605,0,-170,-175,-419,20,-102
2610,0,-173,-171,-403,18,-98
2615,-2,-176,-170,-386,12,-93
2620,-5,-173,-172,-367,6,-89
2625,-2,-176,-179,-350,-1,-83
2630,-6,-174,-175,-337,-7,-76
2635,-2,-177,-174,-328,-12,-74
2640,-7,-179,-173,-319,-19,-69
2645,-7,-176,-170,-311,-25,-70
2650,-6,-180,-170,-301,-30,-69
2655,-6,-182,-172,-288,-33,-67
2660,-10,-180,-165,-268,-37,-68
2665,-10,-182,-166,-246,-40,-70
2670,-10,-181,-166,-215,-43,-74
2675,-12,-180,-162,-187,-48,-78
2680,-9,-177,-163,-157,-57,-81
2685,-11,-180,-165,-128,-66,-85
2690,-11,-177,-169,-99,-73,-88
2695,-10,-180,-167,-73,-77,-89
2700,-11,-176,-171,-53,-82,-90
2705,-4,-180,-169,-40,-88,-94
2710,-6,-177,-171,-36,-91,-98
2715,-5,-176,-171,-34,-95,-101
2720,-10,-173,-174,-34,-98,-102
2725,-8,-174,-169,-35,-104,-102
2730,-2,-177,-172,-37,-107,-104
2735,-1,-175,-176,-41,-111,-106
2740,-4,-171,-175,-44,-117,-107
2745,-3,-175,-176,-52,-121,-104
2750,-8,-174,-180,-59,-123,-99
2755,-4,-176,-179,-68,-122,-96
2760,-7,-177,-179,-75,-121,-90
2765,-8,-178,-182,-82,-118,-84
2770,-9,-179,-175,-88,-112,-79
2775,-7,-181,-173,-88,-105,-74
2780,-7,-179,-178,-84,-100,-65
2785,-6,-177,-177,-73,-91,-56
2790,-2,-184,-181,-53,-81,-45
2795,-1,-180,-175,-29,-67,-31
2800,1,-185,-177,1,-53,-21
2805,1,-186,-176,34,-40,-12
2810,5,-190,-184,65,-30,-3
2815,8,-190,-185,96,-19,0
2820,10,-188,-183,126,-6,4
2825,9,-190,-189,155,6,12
2830,10,-189,-187,180,16,22
2835,13,-191,-192,200,25,31
2840,9,-190,-186,210,35,39
2845,9,-191,-187,213,40,43
2850,8,-192,-188,213,45,45
2855,3,-187,-187,212,46,47
2860,1,-188,-186,212,48,47
2865,1,-187,-185,210,44,43
2870,-1,-187,-186,210,38,36
2875,0,-183,-179,211,34,31
2880,0,-183,-184,212,31,29
2885,-2,-178,-180,213,26,27
2890,-4,-177,-182,214,17,24
2895,-6,-170,-178,213,6,20
2900,-5,-176,-181,215,-3,23
2905,-5,-174,-181,219,-10,24
2910,-1,-174,-184,225,-20,30
2915,-4,-172,-187,230,-26,36
2920,-6,-177,-188,228,-30,37
2925,-5,-176,-185,224,-30,46
2930,-8,-177,-186,219,-27,59
2935,-2,-182,-186,212,-26,70
2940,-4,-184,-186,205,-21,75
2945,-4,-190,-186,195,-11,83
2950,-3,-192,-187,185,-3,86
2955,-5,-193,-183,173,2,92
2960,-7,-193,-188,165,6,93
2965,-1,-195,-189,164,9,93
2970,0,-197,-188,168,6,94
2975,0,-196,-188,180,5,88
2980,-2,-196,-183,195,8,85
2985,0,-197,-185,219,12,85
2990,1,-198,-186,247,17,85
2995,0,-199,-182,277,20,80
3000,-3,-193,-186,299,25,77
3005,0,-193,-181,319,28,77
3010,1,-191,-185,335,26,80
3015,9,-184,-183,347,22,71
3020,0,-187,-182,352,18,62
3025,2,-181,-183,349,18,60
3030,0,-179,-181,339,15,55
3035,2,-175,-181,325,11,51
3040,1,-176,-182,309,8,54
3045,0,-175,-183,288,7,55
3050,1,-174,-179,265,6,55
3055,3,-177,-177,240,6,55
3060,2,-178,-177,215,4,52
3065,0,-179,-180,194,4,48
3070,0,-177,-177,176,6,52
3075,5,-179,-175,161,6,59
3080,4,-182,-178,150,3,59
3085,6,-184,-179,143,3,55
3090,-1,-183,-176,136,4,58
3095,0,-187,-173,129,-7,69
3100,7,-191,-170,129,-12,63
3105,-3,-192,-175,133,-20,52
3110,5,-200,-180,135,-24,78
3115,10,-200,-167,142,-25,75
3120,1,-201,-172,154,-27,65
3125,-5,-196,-177,171,-33,59
3130,7,-200,-179,189,-29,65
3135,-5,-197,-180,210,-30,60
3140,3,-195,-177,229,-29,69
3145,5,-197,-183,244,-38,76
3150,3,-196,-184,254,-35,67
3155,0,-193,-177,256,-31,58
3160,5,-196,-174,255,-34,56
3165,2,-193,-176,254,-37,37
3170,5,-198,-179,251,-35,29
3175,8,-195,-179,251,-29,31
3180,10,-196,-180,254,-18,20
3185,2,-194,-182,254,-4,13
3190,3,-193,-182,254,0,24
3195,-38,-209,-209,244,-21,28
3200,15,-143,-186,248,-10,33
3205,20,-175,-139,261,34,7
3210,29,-225,-127,253,23,10
3215,-4,-222,-220,236,-16,27
3220,2,-177,-204,222,-12,24
3225,22,-177,-156,209,35,9
3230,28,-205,-131,196,50,0
3235,27,-208,-154,182,35,19
3240,0,-187,-207,170,44,14
3245,6,-184,-171,166,93,25
3250,30,-203,-132,166,118,31
3255,-44,-199,-161,160,95,29
3260,47,-159,-133,157,146,64
3265,28,-224,-189,172,106,49
3270,48,-213,-188,142,208,59
3275,70,-252,-152,50,426,110
3280,-66,-180,-147,117,413,73
3285,-64,-213,-197,277,181,11
3290,15,-234,-175,340,16,51
3295,29,-205,-160,324,-49,38
3300,19,-184,-172,277,-80,21
3305,9,-198,-190,213,-92,19
3310,9,-211,-189,147,-77,30
3315,11,-202,-169,97,-53,36
3320,14,-201,-170,73,-44,34
3325,14,-208,-177,73,-52,33
3330,11,-211,-188,87,-51,30
3335,15,-210,-173,108,-37,26
3340,10,-201,-162,130,-29,25
3345,13,-202,-167,147,-32,23
3350,6,-207,-183,160,-38,21
3355,4,-206,-185,169,-25,23
3360,8,-200,-163,173,-6,22
3365,8,-197,-159,176,-3,24
3370,2,-195,-168,177,-13,23
3375,-4,-192,-179,174,-12,20
3380,-2,-191,-174,171,2,17
3385,1,-188,-156,167,7,13
3390,1,-192,-162,168,-2,8
3395,-8,-190,-166,167,-5,6
3400,-9,-188,-171,165,-1,2
3405,-10,-189,-165,161,8,-1
3410,-9,-189,-161,155,10,-3
3415,-9,-188,-163,150,7,-6
3420,-11,-189,-174,143,13,-10
3425,-11,-191,-172,136,28,-14
3430,-5,-188,-160,127,36,-19
3435,-5,-189,-167,117,39,-26
3440,-14,-187,-173,114,40,-34
3445,-10,-192,-176,105,46,-36
3450,-6,-189,-174,91,51,-41
3455,-7,-192,-167,79,52,-45
3460,-9,-192,-172,72,52,-46
3465,-11,-192,-173,70,56,-48
3470,-9,-197,-168,70,59,-54
3475,-9,-193,-160,74,59,-57
3480,-9,-197,-166,83,54,-60
3485,-9,-196,-169,93,50,-62
3490,-11,-198,-170,104,53,-64
3495,-9,-199,-163,115,54,-67
3500,-10,-195,-164,125,51,-67
3505,-12,-195,-173,134,47,-66
3510,-13,-196,-175,146,45,-61
3515,-9,-192,-170,155,44,-59
3520,-9,-193,-167,161,39,-55
3525,-6,-192,-165,166,28,-52
3530,-9,-192,-170,168,19,-47
3535,-8,-189,-167,165,11,-44
3540,-4,-190,-164,161,4,-39
3545,-4,-190,-161,155,-6,-36
3550,-6,-190,-163,150,-14,-32
3555,-7,-189,-164,146,-20,-30
3560,-6,-192,-165,144,-24,-25
3565,-8,-191,-158,145,-28,-23
3570,-7,-191,-159,148,-36,-18
3575,-6,-192,-163,152,-41,-16
3580,-6,-191,-158,157,-45,-15
3585,-4,-192,-161,160,-49,-11
3590,0,-195,-159,161,-53,-8
3595,-2,-194,-167,158,-54,-6
3600,-1,-191,-166,156,-53,-5
3605,0,-192,-162,153,-51,-4
3610,-1,-191,-161,148,-52,-3
3615,0,-193,-158,144,-53,-2
3620,-4,-191,-165,141,-50,0
3625,1,-194,-161,139,-43,-1
3630,-1,-192,-161,138,-38,0
3635,-1,-190,-162,138,-37,3
3640,-3,-194,-165,138,-33,2
3645,-6,-193,-167,138,-31,2
3650,-7,-194,-164,138,-28,3
3655,-6,-192,-160,138,-25,2
3660,-4,-194,-160,138,-20,2
3665,-5,-192,-163,138,-15,2
3670,-2,-194,-164,138,-7,0
3675,-5,-194,-165,137,-4,-5
3680,-3,-193,-159,136,-3,-8
3685,-4,-195,-164,137,-3,-10
3690,-9,-193,-158,139,-3,-14
3695,-5,-197,-160,142,-1,-15
3700,-6,-195,-157,145,-2,-17
3705,-10,-194,-158,146,-3,-17
3710,-7,-193,-167,147,-4,-17
3715,-9,-193,-163,145,-5,-17
3720,-5,-195,-158,141,-9,-14
3725,-3,-193,-158,138,-11,-13
3730,-7,-192,-160,135,-12,-14
3735,-4,-193,-160,131,-14,-11
3740,-5,-194,-158,127,-16,-10
3745,-5,-195,-159,121,-17,-9
3750,-2,-192,-157,120,-18,-9
3755,-5,-193,-155,118,-20,-8
3760,-5,-193,-152,116,-21,-9
3765,-8,-195,-158,114,-23,-9
3770,-3,-194,-157,114,-22,-10
3775,-5,-195,-157,116,-24,-11
3780,-10,-195,-156,116,-25,-10
3785,-8,-196,-150,117,-25,-9
3790,-6,-194,-151,120,-28,-11
3795,-5,-196,-154,122,-30,-13
3800,-6,-193,-149,122,-34,-13
3805,-8,-192,-153,121,-36,-11
3810,-2,-195,-155,116,-39,-11
3815,-5,-193,-152,113,-42,-10
3820,-6,-196,-151,110,-45,-11
3825,-4,-194,-154,108,-45,-11
3830,-5,-198,-152,105,-43,-10
3835,-7,-193,-150,102,-39,-9
3840,-4,-197,-150,99,-38,-8
3845,-6,-198,-157,98,-33,-9
3850,-3,-198,-155,100,-28,-7
3855,-4,-198,-153,104,-23,-6
3860,-4,-197,-156,107,-21,-4
3865,-2,-198,-156,112,-21,-2
3870,-5,-199,-156,115,-23,-2
3875,-6,-197,-152,120,-26,-3
3880,-4,-198,-151,121,-29,-5
3885,-6,-187,-156,122,-34,-7
3890,-7,-197,-154,121,-36,-6
3895,-8,-194,-150,121,-40,-8
3900,-8,-195,-153,120,-41,-8
3905,-4,-198,-145,120,-44,-6
3910,-7,-194,-148,119,-47,-7
3915,-10,-196,-152,119,-47,-6
3920,-7,-197,-153,121,-44,-5
3925,-6,-193,-154,122,-40,-5
3930,-6,-192,-151,123,-40,-5
3935,-8,-192,-150,124,-38,-6
3940,-8,-193,-155,126,-35,-7
3945,-4,-194,-152,126,-32,-8
3950,-2,-197,-152,127,-29,-7
3955,-7,-194,-152,127,-28,-5
3960,-7,-194,-157,127,-26,-6
3965,-7,-191,-155,125,-25,-8
3970,-9,-192,-151,123,-26,-5
3975,-5,-193,-151,120,-27,-5
3980,-10,-192,-156,116,-29,-5
3985,-10,-191,-152,114,-32,-3
3990,-10,-192,-150,113,-33,-3
3995,-11,-193,-150,112,-36,-3
4000,-9,-193,-149,109,-36,0
4005,-10,-193,-148,107,-34,-1
4010,-11,-192,-149,106,-34,0
4015,-8,-193,-153,106,-32,1
4020,-9,-193,-153,109,-30,1
4025,-8,-192,-149,110,-29,2
4030,-11,-194,-152,110,-28,3
4035,-10,-193,-151,108,-26,5
4040,-10,-192,-150,105,-25,6
4045,-9,-193,-149,101,-23,6
4050,-9,-194,-152,98,-20,6
4055,-9,-193,-150,96,-19,8
4060,-9,-195,-151,96,-17,10
4065,-7,-194,-148,98,-15,9
4070,-9,-193,-152,100,-11,10
4075,-5,-195,-155,102,-8,9
4080,-10,-195,-152,103,-4,10
4085,-9,-199,-151,105,1,9
4090,-13,-194,-152,105,5,11
4095,-12,-195,-151,103,7,11
4100,-10,-197,-153,103,8,8
4105,-12,-194,-151,103,11,7
4110,-10,-198,-155,104,12,6
4115,-12,-197,-153,103,10,6
4120,-14,-192,-149,102,10,5
4125,-8,-197,-154,102,10,5
4130,-12,-196,-150,103,12,5
4135,-11,-199,-152,105,12,6
4140,-11,-199,-153,106,15,7
4145,-11,-194,-152,109,15,7
4150,-13,-197,-151,110,14,8
4155,-12,-195,-153,110,15,6
4160,-12,-194,-151,110,14,5
4165,-14,-195,-149,108,14,4
4170,-11,-197,-151,109,11,4
4175,-9,-198,-149,106,10,2
4180,-10,-199,-154,104,8,3
4185,-11,-199,-150,104,8,1
4190,-11,-194,-148,101,7,2
4195,-12,-195,-153,99,6,0
4200,-11,-196,-151,96,5,-1
4205,-11,-197,-148,92,5,-2
4210,-12,-195,-146,87,5,-4
4215,-10,-194,-152,82,6,-7
4220,-9,-198,-151,82,6,-8
4225,-12,-200,-151,81,6,-8
4230,-9,-200,-154,82,7,-10
4235,-14,-199,-153,83,6,-9
4240,-12,-199,-152,83,5,-6
4245,-9,-199,-147,84,4,-8
4250,-11,-203,-149,84,6,-8
4255,-11,-198,-152,88,6,-6
4260,-8,-200,-151,92,7,-4
4265,-8,-200,-151,98,6,-4
4270,-8,-197,-145,101,5,-6
4275,-9,-198,-147,100,1,-3
4280,-10,-199,-147,99,2,-3
4285,-7,-198,-149,98,1,-2
4290,-7,-198,-147,97,1,-2
4295,-10,-197,-151,94,0,-4
4300,-7,-198,-148,92,1,-3
4305,-10,-198,-148,91,2,-3
4310,-10,-198,-150,90,7,-1
4315,-8,-196,-147,90,13,1
4320,-8,-199,-149,88,18,4
4325,-6,-201,-150,84,23,7
4330,-6,-200,-154,84,28,7
4335,-4,-201,-147,83,32,8
4340,-5,-199,-144,83,34,9
4345,-8,-200,-147,82,34,8
4350,-7,-202,-146,80,33,9
4355,-11,-201,-148,79,32,7
4360,-4,-192,-144,77,31,7
4365,-12,-202,-145,78,31,7
4370,-9,-200,-151,78,31,8
4375,-12,-211,-139,78,28,8
4380,-7,-209,-150,77,29,10
4385,-20,-213,-152,78,30,12
4390,-11,-194,-161,81,32,11
4395,-3,-222,-113,82,34,16
4400,-4,-194,-146,84,37,18
4405,-19,-204,-143,86,42,20
4410,-19,-200,-155,88,47,22
4415,-7,-200,-154,92,47,22
4420,0,-198,-154,95,48,22
4425,-11,-200,-140,94,47,22
4430,-9,-201,-149,96,46,21
4435,-7,-199,-146,97,45,22
4440,-11,-201,-150,95,41,20
4445,-4,-201,-126,91,40,20
4450,-10,-196,-142,89,38,20
4455,-10,-199,-143,86,38,21
4460,-10,-197,-145,84,35,22
4465,-10,-196,-146,83,37,19
4470,-11,-197,-147,81,38,20
4475,-6,-199,-152,79,39,22
4480,-6,-200,-149,79,41,20
4485,-6,-198,-150,76,43,22
4490,-11,-197,-147,75,46,22
4495,-8,-200,-149,72,50,22
4500,-8,-203,-147,72,51,22
4505,-9,-201,-144,73,52,22
4510,-8,-201,-148,75,53,21
4515,-9,-200,-146,76,51,20
4520,-8,-201,-144,77,48,19
4525,-9,-200,-146,78,45,20
4530,-8,-199,-147,80,43,20
4535,-6,-200,-150,80,39,19
4540,-8,-192,-161,77,36,18
4545,-8,-196,-148,75,34,18
4550,-13,-200,-147,75,33,17
4555,-10,-195,-146,73,33,18
4560,-11,-199,-146,71,35,19
4565,-11,-197,-148,70,37,19
4570,-9,-198,-146,68,37,18
4575,-7,-196,-147,67,39,17
4580,-12,-195,-148,65,41,15
4585,-8,-194,-148,68,43,16
4590,-8,-194,-149,67,45,14
4595,-7,-197,-148,67,46,13
4600,-7,-195,-147,64,48,12
4605,-9,-197,-145,63,47,14
4610,-10,-198,-147,61,49,12
4615,-12,-196,-146,60,47,12
4620,-10,-197,-145,59,44,9
4625,-14,-195,-147,58,38,10
4630,-12,-198,-150,59,36,9
4635,-9,-199,-145,63,36,11
4640,-8,-198,-147,68,35,12
4645,-9,-197,-146,72,34,13
4650,-8,-197,-143,75,31,14
4655,-8,-193,-145,76,29,12
4660,-11,-198,-143,74,28,13
4665,-7,-195,-144,71,28,13
4670,-12,-197,-142,69,28,11
4675,-12,-198,-145,66,29,9
4680,-11,-197,-145,64,31,9
4685,-13,-198,-146,64,30,8
4690,-13,-194,-145,61,31,5
4695,-14,-195,-145,60,33,1
4700,-7,-200,-144,56,36,1
4705,-12,-196,-146,56,38,1
4710,-9,-197,-148,56,42,3
4715,-9,-198,-145,56,40,2
4720,-10,-199,-141,54,39,0
4725,-13,-199,-145,52,36,1
4730,-9,-202,-145,49,35,1
4735,-9,-203,-146,48,36,1
4740,-13,-203,-142,52,38,2
4745,-11,-205,-143,57,40,2
4750,-9,-203,-148,64,41,0
4755,-13,-201,-140,71,39,0
4760,-13,-201,-149,77,38,0
4765,-11,-198,-144,80,36,-2
4770,-12,-198,-150,83,34,-3
4775,-8,-199,-150,78,31,-4
4780,-13,-195,-146,71,28,-5
4785,-12,-200,-147,63,24,-6
4790,-11,-197,-142,55,20,-8
4795,-12,-201,-146,51,16,-7
4800,-12,-201,-145,48,11,-4
4805,-16,-200,-144,49,8,-4
4810,-13,-200,-145,49,3,-4
4815,-16,-201,-143,49,1,-3
4820,-14,-203,-146,50,2,-3
4825,-14,-201,-143,51,4,-4
4830,-13,-200,-146,52,5,-5
4835,-14,-200,-150,55,6,-6
4840,-11,-199,-147,58,8,-8
4845,-11,-200,-146,60,9,-9
4850,-11,-201,-149,63,9,-11
4855,-11,-197,-142,65,6,-13
4860,-10,-200,-148,64,2,-15
4865,-11,-201,-144,67,2,-18
4870,-11,-199,-139,70,1,-17
4875,-8,-203,-142,74,0,-15
4880,-12,-198,-143,79,-1,-13
4885,-14,-200,-145,82,-2,-13
4890,-11,-202,-148,84,0,-13
4895,-11,-197,-143,84,1,-14
4900,-10,-202,-145,83,2,-13
4905,-14,-197,-146,81,1,-14
4910,-9,-197,-146,82,3,-17
4915,-11,-201,-141,84,2,-20
4920,-14,-200,-145,85,0,-21
4925,-10,-196,-148,86,0,-22
4930,-14,-197,-147,87,1,-25
4935,-10,-199,-146,83,3,-26
4940,-12,-201,-146,81,4,-26
4945,-13,-198,-142,79,6,-28
4950,-11,-200,-145,81,6,-28
4955,-15,-197,-143,82,6,-29
4960,-11,-200,-143,83,3,-30
4965,-9,-197,-148,84,-2,-30
4970,-9,-203,-146,87,-4,-29
4975,-11,-194,-136,87,-9,-29
4980,-8,-199,-145,88,-10,-26
4985,-9,-199,-143,89,-12,-25
4990,-11,-198,-144,86,-15,-25
4995,-7,-200,-148,83,-18,-25
5000,-13,-200,-144,81,-20,-26
5005,-14,-198,-149,82,-22,-26
5010,-10,-195,-147,82,-24,-26
5015,-11,-200,-148,81,-26,-27
5020,-7,-198,-146,80,-26,-28
5025,-8,-197,-144,78,-26,-27
5030,-11,-198,-147,76,-27,-27
5035,-11,-194,-145,72,-25,-28
5040,-10,-199,-145,70,-24,-27
5045,-11,-200,-145,67,-23,-31
5050,-11,-202,-147,64,-23,-32
5055,-11,-197,-147,64,-24,-33
5060,-9,-202,-148,64,-23,-33
5065,-10,-203,-143,64,-22,-33
5070,-10,-201,-148,66,-21,-33
5075,-8,-199,-145,65,-19,-35
5080,-7,-200,-146,61,-17,-34
5085,-7,-200,-147,57,-15,-33
5090,-5,-201,-146,56,-14,-31
5095,-8,-202,-148,56,-19,-30
5100,-4,-203,-144,58,-19,-30
5105,-3,-199,-144,61,-21,-25
5110,-2,-201,-145,61,-22,-22
5115,-8,-202,-146,60,-22,-21
5120,-4,-200,-144,59,-23,-20
5125,-3,-201,-148,58,-24,-20
5130,-6,-196,-148,55,-23,-19
5135,-5,-199,-144,51,-21,-17
5140,-8,-201,-145,43,-20,-16
5145,-11,-201,-144,38,-18,-15
5150,-11,-198,-141,31,-16,-13
5155,-8,-201,-140,28,-17,-12
5160,-11,-197,-144,29,-18,-12
5165,-8,-200,-144,31,-19,-12
5170,-9,-201,-143,32,-18,-10
5175,-11,-200,-146,32,-17,-11
5180,-9,-199,-143,31,-16,-10
5185,-10,-201,-147,28,-13,-10
5190,-7,-193,-145,26,-10,-9
5195,-9,-199,-145,27,-5,-12
5200,-9,-201,-146,28,0,-11
5205,-10,-203,-149,29,5,-13
5210,-11,-198,-148,31,9,-13
5215,-9,-201,-144,33,12,-15
5220,-7,-201,-143,35,17,-16
5225,-11,-202,-143,35,18,-18
5230,-9,-201,-145,34,19,-17
5235,-11,-201,-142,31,18,-16
5240,-7,-198,-143,30,18,-17
5245,-10,-201,-144,30,17,-16
5250,-12,-201,-140,30,14,-16
5255,-11,-202,-141,30,13,-15
5260,-10,-201,-140,30,11,-13
5265,-15,-200,-143,29,10,-11
5270,-13,-200,-142,31,11,-10
5275,-10,-200,-142,32,7,-7
5280,-12,-200,-142,34,6,-5
5285,-13,-201,-141,34,4,-4
5290,-10,-199,-142,33,3,-3
5295,-14,-201,-142,35,4,-2
5300,-13,-202,-142,38,2,-2
5305,-13,-199,-144,38,1,-3
5310,-11,-198,-140,39,3,-1
5315,-12,-199,-142,39,4,-2
5320,-11,-199,-143,36,4,0
5325,-13,-201,-145,35,3,-1
5330,-10,-200,-142,36,3,-1
5335,-11,-198,-145,34,2,-1
5340,-13,-195,-141,33,1,-1
5345,-13,-197,-142,31,0,-2
5350,-16,-200,-146,30,-1,0
5355,-13,-200,-146,30,0,0
5360,-14,-199,-145,29,3,0
5365,-14,-201,-144,29,5,1
5370,-15,-200,-147,32,7,0
5375,-13,-198,-145,40,9,0
5380,-13,-202,-146,46,12,2
5385,-12,-197,-146,52,14,-1
5390,-10,-200,-145,57,16,-1
5395,-8,-198,-144,59,16,-1
5400,-9,-197,-145,60,19,-3
5405,-9,-199,-143,60,19,-3
5410,-12,-200,-141,61,21,-5
5415,-8,-197,-142,62,18,-7
5420,-8,-197,-143,61,19,-10
5425,-9,-197,-148,58,19,-9
5430,-11,-196,-146,55,19,-9
5435,-13,-196,-148,51,21,-10
5440,-11,-196,-146,47,21,-10
5445,-14,-198,-149,44,23,-10
5450,-12,-197,-149,44,23,-9
5455,-14,-199,-149,45,24,-10
5460,-14,-198,-146,48,24,-11
5465,-13,-198,-150,51,24,-13
5470,-13,-199,-145,53,24,-12
5475,-12,-196,-147,54,24,-11
5480,-7,-200,-149,54,20,-14
5485,-12,-195,-147,53,21,-15
5490,-8,-198,-146,52,18,-16
5495,-5,-201,-148,51,16,-15
5500,-6,-199,-147,51,16,-17
5505,-8,-198,-148,51,16,-16
5510,-8,-196,-146,52,16,-17
5515,-9,-198,-146,54,17,-16
5520,-7,-202,-144,54,17,-15
5525,-10,-200,-147,54,18,-14
5530,-11,-195,-146,53,18,-12
5535,-8,-199,-147,50,21,-14
5540,-8,-198,-147,50,21,-12
5545,-10,-198,-149,50,23,-11
5550,-13,-198,-142,50,24,-11
5555,-12,-200,-146,47,25,-12
5560,-12,-197,-143,46,23,-12
5565,-9,-201,-146,47,21,-11
5570,-12,-196,-152,47,18,-10
5575,-11,-197,-148,44,15,-10
5580,-10,-197,-145,40,12,-9
5585,-11,-199,-145,38,9,-7
5590,-9,-198,-147,35,7,-7
5595,-11,-199,-146,33,8,-7
5600,-7,-201,-147,33,9,-8
5605,-7,-199,-148,34,12,-9
5610,-8,-200,-146,37,14,-9
5615,-8,-201,-143,41,19,-10
5620,-6,-203,-143,47,23,-12
5625,-9,-200,-146,50,23,-15
5630,-11,-200,-146,51,23,-20
5635,-9,-202,-146,52,26,-22
5640,-10,-202,-143,53,26,-21
5645,-10,-199,-142,53,27,-21
5650,-10,-199,-147,52,27,-21
5655,-11,-202,-150,48,24,-21
5660,-12,-201,-148,42,21,-23
5665,-11,-201,-153,35,20,-26
5670,-9,-201,-146,29,20,-28
5675,-9,-200,-145,25,22,-30
5680,-12,-205,-147,21,21,-31
5685,-12,-204,-148,20,20,-31
5690,-12,-204,-151,17,22,-32
5695,-11,-206,-156,14,23,-31
5700,-10,-206,-158,10,26,-29
5705,-12,-207,-153,4,30,-28
5710,-11,-204,-156,-2,34,-29
5715,-12,-206,-155,-10,36,-27
5720,-3,-212,-152,-16,41,-26
5725,-8,-212,-151,-15,45,-25
5730,0,-198,-151,-14,51,-23
5735,-16,-212,-159,-14,55,-23
5740,-14,-218,-140,-13,58,-22
5745,-14,-212,-152,-14,62,-23
5750,-4,-224,-138,-16,64,-20
5755,-8,-209,-155,-21,65,-20
5760,-15,-217,-141,-29,63,-21
5765,-14,-202,-154,-34,60,-20
5770,-16,-211,-161,-37,56,-20
5775,-19,-216,-168,-45,50,-17
5780,-5,-198,-154,-54,46,-18
5785,-16,-223,-135,-66,38,-18
5790,-19,-213,-153,-81,28,-20
5795,-18,-205,-167,-99,19,-24
5800,-22,-211,-158,-118,11,-26
5805,-15,-222,-174,-136,7,-25
5810,-11,-221,-171,-152,7,-24
5815,-42,-235,-163,-161,10,-23
5820,-22,-222,-167,-168,17,-22
5825,-7,-214,-175,-174,24,-23
5830,0,-215,-164,-175,31,-26
5835,-6,-230,-165,-175,36,-29
5840,-7,-226,-178,-176,40,-30
5845,-13,-218,-157,-178,40,-33
5850,-29,-228,-183,-188,41,-34
5855,-12,-225,-164,-197,44,-33
5860,-13,-225,-167,-202,54,-29
5865,-7,-237,-173,-202,66,-22
5870,-9,-223,-175,-199,77,-17
5875,-8,-218,-180,-202,83,-13
5880,-8,-222,-178,-208,86,-7
5885,-12,-230,-178,-215,87,-2
5890,-2,-223,-177,-219,89,2
5895,0,-223,-177,-222,88,5
5900,-5,-222,-176,-224,90,6
5905,-1,-228,-175,-226,96,6
5910,-5,-232,-169,-229,106,8
5915,-3,-223,-171,-233,119,14
5920,-1,-229,-173,-236,134,23
5925,0,-225,-175,-236,151,31
5930,-1,-226,-171,-232,162,38
5935,-5,-219,-173,-230,169,42
5940,0,-218,-172,-230,171,43
5945,0,-214,-168,-232,173,46
5950,3,-217,-168,-237,174,46
5955,2,-213,-167,-243,176,44
5960,-1,-207,-168,-257,176,46
5965,-4,-205,-170,-271,175,44
5970,-2,-209,-168,-288,175,45
5975,-3,-205,-171,-303,176,47
5980,-4,-205,-175,-316,176,46
5985,-9,-206,-167,-328,174,46
5990,-8,-206,-168,-337,173,48
5995,-12,-205,-170,-342,172,45
6000,-11,-206,-172,-336,179,49
6005,-9,-207,-173,-325,188,51
6010,-6,-202,-171,-317,192,52
6015,-10,-201,-173,-308,196,58
6020,-6,-203,-176,-300,196,57
6025,-6,-201,-173,-297,199,53
6030,-4,-196,-173,-295,196,53
6035,-6,-196,-173,-297,192,55
6040,0,-195,-177,-298,187,55
6045,-2,-195,-174,-303,183,47
6050,-7,-189,-164,-308,177,48
6055,-6,-194,-166,-308,162,52
6060,-7,-194,-168,-308,146,45
6065,-6,-193,-167,-301,134,43
6070,2,-194,-163,-290,117,43
6075,-9,-190,-168,-283,95,29
6080,-10,-192,-171,-278,76,28
6085,2,-195,-173,-274,55,30
6090,-3,-192,-168,-271,34,19
6095,-5,-190,-166,-263,15,12
6100,5,-196,-173,-245,-2,19
6105,-9,-189,-181,-228,-13,2
6110,0,-188,-176,-210,-9,1
6115,-5,-190,-168,-196,-14,-1
6120,-2,-190,-177,-184,-17,-2
6125,-9,-186,-178,-180,-22,-12
6130,-10,-185,-179,-174,-19,-9
6135,-1,-185,-175,-171,-9,-2
6140,-7,-185,-172,-167,-7,0
6145,-9,-184,-179,-169,0,4
6150,-2,-185,-179,-175,4,7
6155,-4,-186,-175,-182,14,3
6160,12,-188,-175,-178,15,30
6165,0,-187,-189,-170,20,34
6170,-1,-184,-187,-160,42,34
6175,2,-188,-175,-144,56,40
6180,3,-185,-167,-130,59,38
6185,1,-184,-171,-113,59,38
6190,6,-186,-187,-93,68,45
6195,5,-185,-183,-82,73,21
6200,5,-185,-175,-77,89,11
6205,1,-180,-165,-73,95,15
6210,-2,-182,-182,-70,90,19
6215,1,-179,-178,-74,91,14
6220,3,-182,-172,-80,99,12
6225,-1,-175,-168,-89,103,3
6230,-10,-175,-166,-104,102,-1
6235,-12,-178,-174,-115,96,11
6240,-1,-178,-173,-123,102,15
6245,17,-180,-167,-129,105,2
6250,-10,-174,-164,-141,100,-37
6255,-11,-178,-180,-140,96,-28
6260,-10,-178,-170,-134,103,-14
6265,-3,-176,-167,-131,115,-17
6270,9,-182,-164,-130,116,-33
6275,-7,-181,-173,-139,114,-70
6280,-18,-167,-195,-144,118,-67
6285,-9,-178,-173,-146,135,-41
6290,-1,-182,-165,-152,144,-21
6295,-3,-182,-172,-163,140,-19
6300,-1,-185,-186,-175,131,-27
6305,-14,-178,-194,-187,138,-48
6310,-6,-181,-159,-198,165,-51
6315,-3,-183,-165,-197,156,-26
6320,-9,-186,-184,-196,134,-14
6325,-13,-184,-197,-191,133,-14
6330,-8,-182,-185,-182,146,-17
6335,16,-188,-168,-169,145,-19
6340,-13,-182,-186,-158,120,-48
6345,-15,-184,-193,-139,121,-38
6350,-12,-182,-182,-120,137,-10
6355,0,-183,-172,-103,139,3
6360,-2,-179,-176,-94,124,2
6365,-8,-183,-191,-90,112,-2
6370,-11,-181,-190,-86,119,-4
6375,-9,-178,-179,-83,130,-7
6380,-2,-177,-173,-83,125,-7
6385,-8,-177,-177,-85,110,-8
6390,-11,-174,-189,-87,107,-9
6395,-7,-172,-178,-85,118,-10
6400,-10,-174,-164,-82,122,-13
6405,-6,-174,-174,-81,113,-11
6410,-10,-171,-183,-78,102,-7
6415,-9,-172,-182,-73,104,-9
6420,-6,-167,-173,-67,113,-14
6425,-2,-165,-160,-61,108,-12
6430,-8,-168,-179,-59,95,-12
6435,-11,-168,-179,-56,85,-12
6440,-4,-168,-178,-53,84,-12
6445,-9,-168,-176,-44,70,-31
6450,-4,-166,-165,-40,64,-30
6455,-6,-164,-175,-34,51,-18
6460,-5,-166,-184,-28,35,-13
6465,-6,-167,-184,-19,38,-13
6470,-1,-170,-167,-5,41,-16
6475,4,-168,-162,13,25,-21
6480,-3,-169,-181,34,8,-17
6485,-1,-169,-187,61,6,-16
6490,-1,-166,-177,88,14,-14
6495,3,-165,-162,112,11,-9
6500,19,-163,-168,135,-3,-5
6505,-4,-182,-189,167,-29,-18
6510,-21,-163,-204,196,-44,4
6515,-4,-150,-175,213,27,7
6520,6,-164,-147,221,35,10
6525,1,-169,-176,228,6,14
6530,-3,-160,-193,236,-3,19
6535,1,-154,-183,241,18,20
6540,5,-156,-158,245,29,23
6545,15,-163,-146,244,6,30
6550,-1,-160,-188,241,-13,36
6555,-1,-156,-190,239,-4,42
6560,4,-160,-167,237,12,45
6565,10,-164,-145,240,10,45
6570,3,-162,-156,244,-6,48
6575,-6,-165,-189,254,-10,48
6580,0,-165,-176,267,6,48
6585,4,-165,-150,285,17,48
6590,0,-164,-158,307,-7,44
6595,-2,-161,-170,322,-17,46
6600,-2,-164,-176,338,-5,48
6605,0,-167,-159,351,10,41
6610,0,-165,-151,361,7,40
6615,-2,-165,-160,370,-6,42
6620,-6,-165,-174,377,-10,40
6625,-1,-163,-167,387,-9,39
6630,1,-165,-157,388,-18,43
6635,-1,-170,-158,381,-31,48
6640,-3,-164,-164,378,-43,48
6645,-2,-164,-176,376,-43,44
6650,1,-164,-158,376,-39,39
6655,2,-166,-151,378,-52,30
6660,5,-168,-162,379,-77,24
6665,-1,-170,-178,378,-87,17
6670,0,-170,-168,372,-86,11
6675,1,-171,-155,368,-89,2
6680,3,-171,-159,363,-102,-2
6685,3,-178,-174,360,-115,-13
6690,2,-179,-174,361,-115,-20
6695,3,-178,-160,366,-115,-30
6700,3,-182,-160,372,-124,-37
6705,3,-179,-166,386,-135,-45
6710,2,-179,-168,399,-141,-51
6715,0,-180,-169,417,-138,-57
6720,5,-177,-156,434,-132,-63
6725,0,-176,-160,449,-132,-68
6730,0,-169,-166,460,-139,-69
6735,0,-172,-170,472,-140,-72
6740,0,-169,-164,479,-133,-72
6745,0,-167,-153,484,-131,-71
6750,-2,-166,-161,487,-138,-72
6755,-4,-165,-164,488,-144,-67
6760,-7,-161,-165,485,-140,-66
6765,0,-160,-160,475,-133,-61
6770,0,-161,-157,463,-129,-58
6775,0,-162,-162,448,-129,-54
6780,-6,-160,-162,433,-124,-52
6785,-2,-165,-159,421,-114,-49
6790,-1,-166,-156,411,-109,-49
6795,-1,-166,-160,406,-109,-47
6800,-2,-169,-160,404,-108,-43
6805,-1,-169,-159,408,-101,-40
6810,-1,-166,-158,417,-94,-37
6815,2,-167,-151,427,-94,-37
6820,-1,-166,-159,436,-98,-37
6825,-2,-166,-160,438,-95,-33
6830,0,-165,-151,434,-86,-34
6835,1,-166,-154,424,-80,-35
6840,0,-163,-153,411,-81,-36
6845,-1,-165,-151,400,-80,-33
6850,0,-166,-149,386,-75,-35
6855,0,-164,-146,375,-71,-36
6860,0,-166,-148,362,-69,-36
6865,-2,-166,-151,350,-66,-36
6870,0,-175,-153,340,-61,-33
6875,0,-171,-148,331,-53,-34
6880,-1,-173,-146,325,-47,-33
6885,0,-175,-149,320,-39,-33
6890,-4,-176,-149,320,-34,-32
6895,0,-178,-152,318,-30,-32
6900,-1,-178,-148,317,-31,-30
6905,-2,-176,-146,316,-28,-32
6910,-2,-177,-150,318,-26,-33
6915,0,-182,-150,323,-21,-32
6920,-3,-178,-149,329,-15,-29
6925,-2,-181,-143,337,-7,-28
6930,-6,-180,-146,340,2,-28
6935,-8,-175,-154,343,12,-27
6940,-7,-179,-144,346,24,-23
6945,-6,-176,-140,349,34,-20
6950,-8,-176,-142,349,37,-18
6955,-8,-179,-146,349,37,-16
6960,-9,-175,-145,345,40,-16
6965,-6,-175,-138,340,44,-16
6970,-7,-175,-141,335,43,-14
6975,-11,-174,-140,327,43,-7
6980,-8,-173,-140,317,44,-4
6985,-11,-172,-138,306,49,1
6990,-7,-176,-136,294,52,6
6995,-1,-175,-145,279,53,11
7000,-8,-174,-142,269,52,16
7005,-10,-175,-143,260,55,18
7010,-8,-175,-141,251,56,18
7015,-10,-178,-142,243,54,17
7020,-13,-181,-145,235,51,17
7025,-10,-180,-146,231,46,18
7030,-8,-181,-142,227,43,15
7035,-11,-181,-148,222,39,15
7040,-11,-182,-147,215,35,13
7045,-12,-186,-150,210,32,9
7050,-10,-181,-146,207,32,6
7055,-12,-184,-147,205,30,4
7060,-8,-189,-148,203,31,0
7065,-11,-190,-151,202,34,-2
7070,-10,-189,-146,202,36,-4
7075,-10,-192,-151,200,40,-2
7080,-7,-192,-150,199,43,1
7085,-9,-193,-152,201,45,5
7090,-5,-194,-153,203,46,8
7095,-7,-195,-152,207,50,12
7100,-8,-195,-153,210,53,15
7105,-7,-193,-146,214,55,17
7110,-10,-194,-148,217,54,21
7115,-9,-196,-152,216,54,25
7120,-7,-192,-151,215,57,27
7125,-7,-196,-151,212,59,29
7130,-6,-193,-147,207,60,32
7135,-6,-192,-152,201,65,36
7140,-7,-195,-155,193,67,38
7145,-2,-194,-151,189,71,41
7150,-3,-196,-152,187,75,45
7155,-3,-197,-150,186,79,48
7160,0,-199,-148,186,85,52
7165,-2,-196,-150,186,92,54
7170,-3,-196,-151,187,99,57
7175,-5,-194,-149,185,100,59
7180,-6,-189,-148,179,102,59
7185,-6,-191,-145,171,103,60
7190,-10,-201,-145,161,103,58
7195,-10,-187,-140,149,100,60
7200,-8,-193,-147,138,97,59
7205,-10,-192,-144,130,96,60
7210,-9,-193,-141,123,94,60
7215,-6,-192,-147,118,91,60
7220,-8,-192,-145,110,85,60
7225,-9,-192,-151,103,80,62
7230,-9,-191,-145,95,77,62
7235,-11,-190,-143,91,74,60
7240,-12,-194,-145,85,68,58
7245,-9,-198,-142,83,64,58
7250,-12,-198,-145,84,60,57
7255,-9,-199,-144,87,56,54
7260,-9,-200,-144,94,51,53
7265,-9,-200,-141,103,47,53
7270,-10,-202,-140,112,45,51
7275,-14,-200,-136,123,42,50
7280,-10,-203,-137,133,39,50
7285,-10,-202,-137,142,36,50
7290,-11,-199,-138,147,35,51
7295,-10,-201,-136,150,36,51
7300,-13,-198,-136,151,35,52
7305,-8,-201,-138,150,34,52
7310,-4,-198,-140,147,35,53
7315,-11,-193,-134,143,35,52
7320,-5,-196,-142,136,33,52
7325,-7,-194,-142,127,32,54
7330,-5,-194,-148,115,31,53
7335,-3,-195,-143,100,31,50
7340,-4,-200,-147,85,31,47
7345,-6,-200,-147,69,30,43
7350,-1,-199,-148,58,29,40
7355,-3,-201,-147,48,30,40
7360,-2,-204,-147,43,31,38
7365,-2,-204,-147,40,33,36
7370,6,-194,-147,39,34,34
7375,0,-203,-144,39,35,34
7380,-1,-205,-142,40,37,29
7385,-1,-206,-146,43,39,29
7390,-1,-204,-146,46,41,30
7395,0,-203,-146,51,44,32
7400,-1,-206,-144,59,50,35
7405,0,-207,-139,66,56,38
7410,0,-200,-143,72,62,39
7415,2,-204,-142,79,69,41
7420,-3,-201,-144,87,74,43
7425,-1,-204,-140,92,79,44
7430,0,-196,-139,98,85,47
7435,-1,-200,-136,102,89,49
7440,0,-202,-140,104,91,51
7445,-2,-201,-136,107,92,51
7450,0,-204,-136,105,91,50
7455,0,-201,-133,103,89,49
7460,-1,-202,-141,100,87,48
7465,-3,-202,-138,96,84,49
7470,-1,-203,-137,90,79,47
7475,-3,-202,-142,86,75,44
7480,-5,-197,-135,83,72,45
7485,-5,-201,-138,78,69,45
7490,-7,-199,-137,73,67,44
7495,-6,-200,-142,64,65,44
7500,-7,-199,-143,57,62,43
7505,-5,-199,-139,51,61,44
7510,-7,-202,-139,47,60,44
7515,-8,-201,-138,44,60,43
7520,-6,-205,-140,42,60,44
7525,-5,-206,-142,42,62,45
7530,-7,-208,-146,41,63,48
7535,-5,-207,-138,45,64,47
7540,-4,-205,-143,51,69,49
7545,-2,-205,-144,57,71,49
7550,-3,-207,-143,63,73,48
7555,-5,-203,-137,68,75,47
7560,-2,-205,-143,71,78,47
7565,-4,-204,-143,72,81,46
7570,-1,-203,-143,74,82,45
7575,-6,-204,-139,75,84,46
7580,-4,-200,-142,75,83,46
7585,-1,-200,-140,73,85,46
7590,-18,-203,-131,71,85,49
7595,-6,-201,-141,70,86,48
7600,-5,-202,-140,68,84,48
7605,-2,-201,-139,66,84,46
7610,-5,-198,-140,65,81,46
7615,-2,-203,-138,63,82,47
7620,-8,-199,-138,63,81,45
7625,-7,-202,-140,63,80,44
7630,-7,-203,-139,65,78,44
7635,-7,-202,-139,67,77,41
7640,-5,-205,-136,68,76,39
7645,-5,-201,-138,67,73,38
7650,-8,-201,-142,63,68,37
7655,-8,-202,-140,59,65,36
7660,-8,-199,-144,55,63,35
7665,-8,-198,-141,49,61,34
7670,-8,-202,-142,47,60,33
7675,-5,-203,-140,45,58,32
7680,-4,-203,-142,44,59,32
7685,-5,-204,-143,44,59,32
7690,-8,-203,-140,43,59,33
7695,-7,-205,-143,42,58,31
7700,-6,-204,-141,42,59,30
7705,-5,-205,-140,45,60,28
7710,-6,-207,-138,46,61,28
7715,-6,-205,-139,51,63,29
7720,-6,-206,-143,55,63,27
7725,-8,-205,-138,60,63,26
7730,-9,-203,-140,63,63,25
7735,-6,-204,-139,66,64,26
7740,-7,-205,-141,67,63,25
7745,-6,-203,-139,68,63,25
7750,0,-202,-140,70,61,26
7755,-9,-200,-139,70,60,26
7760,-4,-200,-140,69,58,25
7765,-8,-198,-138,68,59,25
7770,-6,-201,-136,64,55,25
7775,-1,-201,-143,59,55,23
7780,0,-200,-141,54,53,23
7785,-3,-202,-140,48,52,24
7790,-4,-202,-139,44,51,22
7795,-4,-202,-137,41,49,22
7800,-7,-201,-143,37,47,18
7805,3,-205,-141,31,46,18
7810,-7,-200,-139,25,46,18
7815,-2,-205,-140,21,45,17
7820,-6,-204,-144,16,46,15
7825,-6,-204,-139,11,46,17
7830,-8,-207,-143,8,45,16
7835,-8,-206,-141,9,45,15
7840,-9,-207,-144,11,43,14
7845,-11,-204,-141,17,43,13
7850,-7,-205,-142,21,44,11
7855,-6,-205,-140,28,45,11
7860,-8,-203,-141,30,44,10
7865,-6,-204,-137,33,44,10
7870,-8,-205,-141,35,43,11
7875,-1,-203,-141,35,43,10
7880,-7,-203,-137,32,42,11
7885,-7,-201,-138,31,41,8
7890,-7,-203,-139,30,41,5
7895,-7,-201,-142,29,39,4
7900,-5,-204,-140,25,37,1
7905,-11,-198,-137,21,36,0
7910,-7,-202,-134,19,34,-1
7915,-9,-200,-137,16,31,-4
7920,-8,-206,-140,17,27,-5
7925,-5,-205,-138,19,24,-5
7930,-8,-204,-141,23,22,-9
7935,-4,-204,-140,25,18,-10
7940,-5,-204,-141,27,16,-12
7945,-9,-204,-137,29,14,-12
7950,-5,-203,-143,27,13,-13
7955,-6,-203,-142,24,12,-14
7960,-8,-205,-138,23,12,-13
7965,-7,-206,-143,23,14,-12
7970,-6,-203,-139,23,15,-11
7975,-3,-202,-139,24,17,-10
7980,-4,-204,-139,24,20,-10
7985,0,-206,-142,26,21,-10
7990,-5,-206,-145,26,21,-9
7995,-7,-203,-139,26,23,-8
8000,-4,-204,-141,26,25,-10
8005,-5,-202,-139,25,25,-9
8010,-5,-205,-141,25,26,-10
8015,-4,-204,-142,23,27,-12
8020,-5,-208,-139,24,26,-12
8025,-3,-211,-136,24,28,-13
8030,-5,-209,-144,24,27,-15
8035,-9,-205,-145,23,27,-13
8040,-8,-204,-140,21,25,-13
8045,-8,-205,-140,22,25,-15
8050,-9,-204,-140,22,24,-15
8055,-6,-200,-143,23,22,-16
8060,-4,-205,-143,26,22,-15
8065,-6,-202,-143,28,23,-15
8070,-6,-205,-143,31,24,-15
8075,-4,-208,-140,35,24,-16
8080,-4,-205,-142,40,25,-16
8085,-9,-204,-142,44,25,-15
8090,-5,-205,-144,46,26,-15
8095,-7,-201,-141,48,27,-16
8100,-5,-205,-139,50,26,-16
8105,-6,-204,-140,52,26,-16
8110,-2,-204,-142,52,27,-16
8115,-8,-204,-136,53,27,-16
8120,-10,-199,-141,52,25,-15
8125,-7,-206,-141,51,26,-14
8130,-8,-204,-138,49,26,-14
8135,-4,-206,-142,48,23,-13
8140,-9,-205,-140,48,24,-14
8145,-8,-205,-135,49,24,-13
8150,-5,-206,-137,51,24,-12
8155,-8,-206,-140,54,22,-10
8160,-11,-203,-137,57,23,-10
8165,-5,-206,-140,59,22,-10
8170,-6,-204,-140,62,21,-11
8175,-9,-204,-141,62,20,-12
8180,-7,-204,-137,63,21,-9
8185,-9,-203,-143,63,21,-8
8190,-6,-202,-139,64,22,-9
8195,-6,-203,-141,66,21,-11
8200,-9,-201,-141,66,20,-9
8205,-9,-203,-138,67,18,-8
8210,-4,-203,-142,65,17,-11
8215,-8,-200,-142,65,16,-13
8220,-8,-203,-138,67,15,-13
8225,-7,-201,-143,67,15,-14
8230,-7,-202,-143,68,15,-13
8235,-3,-203,-139,67,16,-15
8240,-4,-199,-148,67,15,-15
8245,-9,-202,-142,68,14,-15
8250,-7,-202,-144,69,14,-14
8255,-5,-201,-145,69,12,-14
8260,-9,-200,-139,69,13,-13
8265,-5,-202,-139,71,13,-14
8270,-8,-203,-142,69,12,-13
8275,-5,-202,-141,68,12,-15
8280,-5,-202,-143,68,13,-15
8285,-7,-203,-139,67,14,-13
8290,-8,-201,-138,67,13,-12
8295,-6,-201,-140,66,15,-12
8300,-7,-198,-142,65,14,-12
8305,-7,-202,-140,64,15,-10
8310,-5,-202,-139,63,14,-11
8315,-7,-205,-145,62,15,-11
8320,-8,-202,-142,62,15,-9
8325,-7,-203,-139,59,16,-8
8330,-9,-206,-141,59,17,-9
8335,-10,-205,-141,61,17,-9
8340,-9,-202,-145,60,17,-9
8345,-8,-204,-138,58,15,-10
8350,-4,-205,-144,56,14,-10
8355,-6,-203,-139,56,12,-12
8360,-8,-204,-143,57,8,-13
8365,-6,-201,-141,57,6,-13
8370,-7,-205,-142,59,6,-13
8375,-8,-204,-143,62,4,-14
8380,-3,-204,-141,64,4,-13
8385,-5,-204,-140,66,5,-14
8390,-4,-208,-140,68,4,-12
8395,-6,-201,-136,70,3,-12
8400,-1,-204,-137,71,5,-13
8405,-6,-203,-142,72,5,-13
8410,-6,-204,-138,72,5,-12
8415,-3,-205,-141,72,6,-9
8420,-6,-205,-142,73,8,-10
8425,-9,-203,-137,74,8,-5
8430,-3,-204,-137,74,11,-4
8435,-1,-206,-136,73,14,-3
8440,-8,-205,-140,74,14,-4
8445,-8,-203,-140,73,14,-4
8450,-7,-204,-137,74,14,-5
8455,-7,-204,-137,76,15,-5
8460,-10,-210,-133,76,16,-4
8465,-6,-202,-140,77,18,-3
8470,-4,-203,-138,77,18,-3
8475,-6,-203,-140,77,17,-3
8480,-7,-204,-141,77,19,-4
8485,-13,-201,-141,76,21,-3
8490,-5,-202,-142,75,23,-2
8495,-7,-202,-137,72,24,1
8500,-7,-200,-141,67,25,1
8505,-8,-205,-139,62,24,0
8510,-4,-203,-139,56,24,0
8515,-8,-204,-139,53,23,-2
8520,-10,-203,-143,53,22,-4
8525,-11,-204,-138,55,21,-5
8530,-8,-201,-142,55,19,-9
8535,-11,-205,-136,57,17,-9
8540,-10,-204,-141,60,13,-11
8545,-6,-205,-140,62,13,-14
8550,-5,-202,-144,64,11,-12
8555,-6,-202,-141,66,9,-13
8560,-7,-203,-140,66,7,-12
8565,-9,-202,-144,68,6,-11
8570,-7,-202,-141,70,5,-12
8575,-5,-203,-140,71,4,-12
8580,-4,-205,-136,72,5,-13
8585,-4,-205,-141,74,5,-10
8590,-7,-200,-140,75,4,-9
8595,-6,-205,-141,76,5,-8
8600,-5,-206,-141,75,6,-7
8605,-4,-201,-138,77,7,-8
8610,-2,-205,-140,77,7,-7
8615,-4,-203,-136,77,6,-6
8620,-6,-203,-138,77,7,-8
8625,-5,-208,-138,77,7,-7
8630,-6,-206,-138,76,5,-7
8635,-5,-205,-139,77,7,-4
8640,-5,-202,-141,77,8,-5
8645,-5,-204,-139,79,9,-5
8650,-7,-202,-138,79,9,-5
8655,-7,-204,-138,78,9,-5
8660,-8,-202,-137,78,9,-5
8665,-8,-204,-143,78,9,-5
8670,-6,-202,-139,78,9,-7
8675,-7,-202,-140,77,9,-8
8680,-5,-205,-139,76,11,-8
8685,-7,-202,-139,74,9,-6
8690,-10,-200,-142,71,9,-8
8695,-7,-200,-139,70,11,-7
8700,-8,-203,-142,68,12,-9
8705,-8,-201,-142,66,13,-7
8710,-7,-203,-135,64,13,-8
8715,-6,-202,-138,64,15,-9
8720,-9,-203,-137,63,15,-9
8725,-7,-204,-141,65,14,-11
8730,-8,-203,-140,67,13,-10
8735,-10,-207,-144,69,12,-11
8740,-8,-200,-140,71,13,-12
8745,-7,-204,-140,72,10,-11
8750,-8,-203,-141,72,9,-12
8755,-16,-205,-140,74,7,-14
8760,-6,-205,-139,77,7,-13
8765,-8,-204,-137,78,8,-13
8770,-8,-207,-140,80,7,-13
8775,-9,-200,-138,79,7,-14
8780,-8,-206,-139,77,5,-13
8785,-9,-201,-138,73,3,-15
8790,-5,-204,-139,70,3,-16
8795,-8,-201,-141,67,3,-15
8800,-20,-199,-137,62,3,-17
8805,-7,-210,-146,59,3,-17
8810,-9,-203,-137,57,4,-15
8815,10,-206,-121,55,3,-18
8820,-4,-204,-137,56,2,-19
8825,-6,-201,-139,56,2,-18
8830,-4,-203,-140,56,3,-20
8835,-10,-193,-140,55,2,-19
8840,-7,-204,-135,57,1,-19
8845,-7,-205,-138,54,0,-20
8850,-1,-205,-140,53,-2,-21
8855,-5,-202,-139,53,-3,-20
8860,-7,-202,-137,52,-4,-21
8865,-8,-203,-141,52,-6,-22
8870,-4,-202,-140,52,-6,-22
8875,-5,-203,-138,52,-6,-24
8880,-7,-202,-130,53,-6,-21
8885,-5,-204,-138,54,-7,-20
8890,-10,-206,-136,54,-7,-22
8895,-9,-203,-138,54,-6,-21
8900,-7,-205,-139,55,-6,-20
8905,-7,-203,-138,54,-4,-20
8910,-7,-202,-137,51,-4,-19
8915,-7,-202,-138,48,-3,-19
8920,-9,-202,-138,47,-2,-19
8925,-12,-198,-141,44,-3,-17
8930,-4,-207,-140,45,-3,-16
8935,-8,-205,-135,44,-2,-16
8940,-4,-204,-138,46,-3,-16
8945,-3,-206,-136,48,-2,-16
8950,-2,-205,-142,47,-3,-15
8955,-6,-207,-138,48,-2,-16
8960,-2,-205,-134,47,-3,-15
8965,-4,-207,-141,49,-2,-13
8970,3,-197,-152,52,-2,-15
8975,-7,-205,-138,55,-1,-14
8980,-6,-202,-136,55,1,-14
8985,-4,-204,-142,55,1,-13
8990,-1,-203,-139,57,0,-11
8995,-2,-204,-136,57,1,-10
9000,-5,-204,-139,58,3,-12
9005,-6,-204,-138,57,6,-10
9010,-6,-206,-134,54,6,-10
9015,0,-204,-139,53,7,-10
9020,-3,-205,-140,50,9,-11
9025,-1,-204,-140,46,9,-8
9030,-7,-205,-139,45,10,-7
9035,-10,-205,-136,44,12,-5
9040,-3,-204,-138,42,14,-5
9045,-8,-209,-133,41,15,-6
9050,-5,-208,-139,41,16,-4
9055,-6,-204,-140,42,18,-2
9060,-9,-209,-136,44,17,-1
9065,-5,-206,-140,47,20,-1
9070,-9,-204,-137,50,20,-1
9075,-4,-206,-138,53,22,-1
9080,-8,-208,-138,57,22,1
9085,-7,-208,-141,59,23,2
9090,-8,-205,-143,61,23,1
9095,-5,-205,-140,64,24,-1
9100,-7,-205,-141,66,27,-1
9105,-8,-205,-141,66,29,-2
9110,-8,-207,-140,66,29,-3
9115,-7,-202,-130,67,29,-3
9120,-5,-208,-136,65,29,-3
9125,-8,-203,-136,66,29,-4
9130,-8,-207,-135,69,27,-5
9135,-11,-207,-135,72,25,-7
9140,-12,-206,-138,74,24,-8
9145,-8,-205,-135,74,20,-8
9150,-11,-203,-140,76,18,-9
9155,-10,-206,-135,80,16,-12
9160,-7,-204,-136,82,14,-11
9165,-9,-204,-136,82,12,-12
9170,-5,-203,-141,82,9,-11
9175,-7,-204,-139,80,9,-12
9180,-6,-205,-135,76,9,-10
9185,-8,-203,-135,73,9,-9
9190,-9,-206,-133,72,11,-10
9195,-13,-208,-142,71,10,-7
9200,-11,-206,-136,67,10,-7
9205,-4,-206,-139,67,11,-7
9210,-4,-205,-140,67,13,-6
9215,-6,-206,-138,67,14,-6
9220,-9,-207,-138,67,16,-5
9225,-7,-205,-137,68,16,-4
9230,-11,-206,-138,70,15,-4
9235,-6,-211,-145,71,16,-4
9240,-9,-206,-134,72,15,-6
9245,-6,-209,-135,74,12,-6
9250,-8,-204,-138,75,10,-7
9255,-4,-210,-138,77,8,-8
9260,-2,-210,-140,79,4,-7
9265,-8,-209,-137,82,4,-8
9270,-10,-206,-137,86,0,-8
9275,-8,-206,-138,90,0,-7
9280,-9,-205,-135,92,0,-6
9285,-8,-204,-135,94,0,-6
9290,-8,-207,-138,95,0,-6
9295,-9,-204,-137,95,2,-8
9300,-10,-203,-142,94,2,-4
9305,-9,-204,-136,92,3,-7
9310,-7,-202,-139,89,4,-5
9315,-9,-205,-138,88,6,-5
9320,-9,-206,-131,84,6,-2
9325,-8,-205,-138,83,7,-4
9330,-7,-203,-125,80,8,-4
9335,-10,-205,-137,78,7,-5
9340,-9,-207,-137,77,6,-5
9345,-9,-202,-135,75,6,-6
9350,-9,-206,-135,75,7,-6
9355,-13,-204,-134,74,6,-5
9360,-9,-206,-139,75,7,-6
9365,-10,-204,-135,77,5,-8
9370,-10,-204,-134,78,4,-8
9375,-7,-206,-137,78,4,-7
9380,-9,-202,-136,77,5,-8
9385,-9,-208,-136,75,3,-9
9390,-11,-203,-135,73,3,-10
9395,-10,-207,-136,72,3,-10
9400,-10,-204,-137,71,4,-8
9405,-7,-204,-139,69,4,-9
9410,-6,-206,-136,68,3,-9
9415,-8,-209,-138,69,4,-9
9420,-5,-207,-138,70,6,-11
9425,-8,-206,-135,70,7,-11
9430,-9,-206,-140,70,7,-11
9435,-8,-204,-137,69,6,-10
9440,-8,-208,-138,67,6,-10
9445,-10,-199,-136,67,7,-11
9450,-6,-205,-139,67,6,-10
9455,-7,-205,-135,65,4,-11
9460,-6,-206,-136,64,4,-13
9465,-7,-207,-134,63,5,-13
9470,-4,-204,-139,65,3,-14
9475,-5,-210,-135,64,2,-13
9480,-6,-204,-136,65,2,-13
9485,-9,-204,-136,65,2,-11
9490,-8,-206,-136,66,2,-12
9495,-6,-207,-133,65,3,-11
9500,-8,-205,-136,67,4,-11
9505,-9,-205,-136,66,4,-12
9510,-8,-205,-137,65,3,-13
9515,-8,-208,-137,66,4,-13
9520,-7,-210,-137,63,4,-12
9525,-7,-207,-135,64,3,-13
9530,-5,-205,-135,62,3,-11
9535,-9,-206,-136,58,1,-14
9540,-9,-206,-132,56,3,-14
9545,-8,-205,-134,54,4,-12
9550,-6,-211,-134,53,5,-15
9555,-11,-208,-136,54,5,-13
9560,-11,-205,-136,54,6,-14
9565,-7,-207,-133,56,7,-14
9570,-5,-208,-137,59,7,-14
9575,-8,-208,-136,62,7,-14
9580,-7,-211,-135,66,6,-13
9585,-6,-209,-131,68,4,-14
9590,-8,-206,-133,73,5,-13
9595,-6,-207,-136,74,4,-12
9600,-9,-203,-136,76,4,-12
9605,-6,-208,-135,76,5,-12
9610,-7,-206,-137,78,5,-13
9615,-8,-205,-136,79,6,-11
9620,-10,-202,-134,80,7,-12
9625,-6,-206,-135,80,8,-12
9630,-8,-206,-138,78,9,-15
9635,-5,-207,-138,75,11,-12
9640,-9,-206,-133,72,10,-13
9645,-9,-206,-135,69,10,-14
9650,-10,-204,-137,67,11,-11
9655,-10,-204,-135,68,10,-12
9660,-8,-203,-138,67,12,-14
9665,-10,-205,-133,67,12,-15
9670,-13,-208,-133,66,11,-15
9675,-10,-206,-131,65,12,-15
9680,-12,-207,-135,62,12,-13
9685,-10,-208,-136,61,12,-15
9690,-11,-208,-136,64,13,-14
9695,-10,-207,-135,67,12,-14
9700,-11,-208,-135,72,12,-14
9705,-11,-209,-133,76,13,-12
9710,-9,-206,-134,77,13,-14
9715,-9,-208,-134,77,15,-13
9720,-10,-204,-136,78,15,-14
9725,-9,-206,-134,76,15,-12
9730,-7,-209,-136,74,16,-12
9735,-9,-207,-135,73,15,-11
9740,-6,-206,-134,72,14,-13
9745,-7,-205,-132,73,15,-14
9750,-9,-206,-133,72,13,-13
9755,-9,-205,-131,70,12,-15
9760,-10,-205,-133,69,11,-17
9765,-8,-209,-113,67,11,-17
9770,-9,-204,-133,67,9,-18
9775,-12,-204,-135,67,9,-17
9780,-8,-203,-133,68,6,-17
9785,-9,-203,-133,69,5,-18
9790,-11,-202,-136,69,4,-17
9795,-4,-204,-133,69,2,-19
9800,-9,-204,-138,67,2,-18
9805,-7,-206,-136,65,2,-17
9810,-9,-204,-135,63,3,-17
9815,-8,-203,-135,59,3,-16
9820,-7,-208,-137,57,3,-14
9825,-9,-206,-134,56,3,-13
9830,-7,-207,-135,55,4,-13
9835,-6,-206,-132,54,4,-16
9840,-8,-204,-131,53,3,-15
9845,-11,-204,-134,50,3,-14
9850,-7,-207,-134,49,2,-14
9855,-7,-205,-130,47,2,-14
9860,-7,-207,-133,46,2,-14
9865,-9,-208,-136,47,2,-15
9870,-8,-204,-137,48,3,-14
9875,-8,-208,-134,48,4,-13
9880,-8,-207,-133,49,5,-13
9885,-4,-205,-136,50,5,-13
9890,-9,-204,-136,51,5,-12
9895,-6,-203,-131,52,7,-12
9900,-7,-206,-134,53,7,-12
9905,-8,-207,-133,54,9,-10
9910,-4,-207,-133,53,9,-11
9915,-10,-203,-137,52,9,-10
9920,-4,-202,-136,50,8,-9
9925,-9,-202,-134,47,7,-9
9930,-5,-204,-136,46,7,-12
9935,-9,-206,-132,43,9,-12
9940,-6,-204,-135,39,7,-13
9945,-8,-206,-132,34,7,-13
9950,-8,-200,-131,32,6,-15
9955,-11,-206,-133,26,4,-16
9960,-8,-205,-135,24,3,-16
9965,-8,-205,-133,22,2,-16
9970,-11,-206,-135,21,0,-16
9975,-6,-208,-135,21,0,-17
9980,-7,-209,-136,22,-1,-19
9985,-8,-203,-144,25,-4,-20
9990,-11,-209,-135,28,-5,-19
9995,-8,-208,-133,30,-5,-18
