timestamp,acc_x,acc_y,acc_z,gyro_x,gyro_y,gyro_z
0,-6,-236,-99,-52,43,-26
5,-11,-237,-93,-47,35,-25
10,-5,-234,-98,-45,28,-26
15,-10,-235,-99,-44,24,-25
20,-8,-242,-96,-42,21,-26
25,-8,-238,-94,-41,23,-25
30,-6,-241,-97,-39,25,-27
35,-6,-240,-95,-39,28,-27
40,-8,-242,-96,-40,30,-28
45,-12,-244,-90,-39,30,-27
50,-9,-245,-97,-35,28,-26
55,-8,-243,-96,-30,27,-27
60,-8,-247,-96,-22,26,-29
65,-8,-245,-98,-12,25,-29
70,-7,-248,-99,2,24,-26
75,-7,-244,-102,16,22,-26
80,-6,-246,-98,29,21,-24
85,-5,-242,-94,42,21,-21
90,-7,-245,-99,50,22,-19
95,-5,-241,-102,55,24,-18
100,-8,-239,-99,57,28,-16
105,-11,-237,-98,54,33,-15
110,-9,-238,-93,49,39,-14
115,-8,-236,-96,42,41,-13
120,-3,-235,-94,34,45,-12
125,-8,-237,-96,26,49,-13
130,-8,-235,-91,17,50,-13
135,-9,-234,-91,10,51,-13
140,-9,-234,-95,2,52,-15
145,-8,-237,-99,-5,51,-15
150,-9,-238,-96,-9,49,-14
155,-5,-240,-94,-15,46,-13
160,-9,-241,-95,-18,44,-15
165,-6,-242,-93,-18,45,-13
170,-6,-243,-97,-17,43,-12
175,-7,-244,-94,-12,45,-11
180,-5,-246,-95,-7,45,-11
185,-8,-243,-98,-1,47,-11
190,-5,-245,-93,6,49,-11
195,-7,-245,-98,13,50,-9
200,-9,-244,-96,22,51,-8
205,-5,-243,-98,32,53,-7
210,-7,-241,-97,41,53,-5
215,-7,-241,-95,49,54,-4
220,-8,-240,-97,54,55,-2
225,-7,-241,-98,57,55,-2
230,-10,-240,-96,55,56,-3
235,-9,-238,-95,53,54,-3
240,-13,-236,-95,48,53,-3
245,-11,-236,-96,43,52,-2
250,-8,-240,-94,36,51,-3
255,-9,-237,-98,30,52,-2
260,-5,-240,-96,24,52,-3
265,-12,-238,-98,19,52,-3
270,-9,-240,-95,13,53,-3
275,-9,-238,-93,6,54,-4
280,-7,-237,-96,1,55,-4
285,-9,-240,-93,-3,55,-3
290,-8,-237,-94,-6,56,-3
295,-10,-239,-92,-8,56,-6
300,-10,-241,-96,-8,54,-7
305,-8,-242,-95,-8,54,-6
310,-11,-243,-96,-7,51,-6
315,-9,-244,-98,-6,52,-6
320,-11,-241,-93,-4,52,-6
325,-11,-243,-96,0,52,-7
330,-9,-243,-97,2,52,-5
335,-5,-245,-96,6,53,-4
340,-8,-241,-96,10,54,-4
345,-10,-241,-93,13,56,-4
350,-7,-242,-96,16,57,-4
355,-8,-240,-97,19,60,-2
360,-6,-240,-96,21,60,-4
365,-11,-241,-95,23,64,-4
370,-8,-239,-94,24,66,-5
375,-4,-241,-94,22,68,-4
380,-4,-241,-92,23,69,-4
385,-7,-242,-92,22,70,-4
390,-5,-242,-95,18,69,-3
395,-7,-240,-94,15,69,-5
400,-7,-240,-94,15,67,-4
405,-8,-239,-93,15,65,-5
410,-8,-241,-95,15,64,-5
415,-10,-240,-91,14,63,-2
420,-6,-244,-94,14,63,-1
425,-7,-245,-91,14,63,-1
430,-5,-241,-95,13,65,-1
435,-11,-243,-93,14,67,-1
440,-9,-243,-92,16,70,-1
445,-8,-242,-91,19,74,0
450,-6,-239,-93,23,78,-1
455,-8,-241,-92,24,83,0
460,-9,-241,-92,24,84,-1
465,-9,-244,-94,23,86,0
470,-10,-237,-93,22,87,-1
475,-7,-240,-90,18,89,-1
480,-6,-243,-91,16,89,0
485,-10,-244,-94,15,88,0
490,-7,-242,-97,13,88,1
495,-7,-245,-92,14,87,1
500,-9,-243,-94,13,86,2
505,-10,-240,-90,13,87,1
510,-10,-239,-92,12,84,0
515,-8,-240,-91,8,83,-1
520,-6,-240,-94,7,82,-1
525,-9,-240,-92,7,82,-2
530,-7,-242,-92,6,81,-2
535,-9,-241,-91,6,78,-3
540,-7,-244,-94,8,78,-4
545,-10,-240,-93,9,77,-4
550,-9,-242,-93,8,77,-5
555,-9,-239,-92,7,76,-6
560,-9,-241,-92,5,76,-5
565,-10,-242,-94,5,76,-6
570,-9,-240,-90,3,75,-6
575,-10,-241,-94,4,74,-5
580,-8,-241,-92,8,73,-5
585,-8,-240,-95,12,70,-4
590,-7,-242,-91,17,70,-6
595,-4,-243,-91,22,70,-6
600,-7,-243,-94,26,71,-7
605,-7,-241,-90,31,70,-6
610,-7,-242,-91,35,72,-7
615,-4,-245,-93,34,73,-8
620,-9,-243,-89,35,74,-9
625,-10,-241,-93,35,75,-7
630,-8,-240,-94,35,75,-7
635,-7,-241,-88,35,74,-7
640,-6,-245,-92,33,75,-5
645,-9,-238,-94,31,76,-4
650,-8,-240,-94,29,77,-4
655,-10,-239,-92,25,81,-4
660,-10,-240,-91,21,83,-3
665,-9,-241,-92,17,86,-4
670,-7,-240,-95,15,90,-4
675,-8,-240,-89,13,91,-5
680,-10,-242,-92,12,92,-5
685,-9,-243,-88,11,90,-6
690,-8,-240,-91,12,88,-7
695,-7,-240,-90,13,84,-5
700,-7,-244,-94,15,81,-6
705,-7,-240,-90,15,80,-6
710,-8,-242,-92,16,79,-5
715,-6,-244,-93,16,78,-4
720,-8,-243,-91,16,78,-4
725,-10,-244,-89,15,76,-4
730,-10,-246,-87,14,77,-4
735,-8,-246,-88,11,77,-5
740,-14,-242,-89,12,76,-6
745,-8,-245,-95,16,77,-7
750,-9,-244,-93,20,76,-9
755,-11,-242,-98,27,74,-11
760,-10,-240,-91,33,73,-12
765,-9,-244,-93,38,71,-11
770,-9,-242,-91,41,68,-12
775,-10,-244,-92,44,66,-12
780,-6,-244,-91,48,62,-12
785,-9,-243,-92,51,62,-12
790,-7,-246,-88,54,61,-11
795,-8,-243,-92,55,61,-12
800,-9,-242,-88,57,60,-10
805,-9,-243,-91,54,60,-8
810,-8,-242,-92,51,60,-6
815,-7,-244,-87,48,60,-4
820,-12,-241,-87,44,63,-6
825,-7,-242,-86,43,64,-4
830,-10,-241,-86,39,66,-4
835,-7,-243,-87,37,66,-5
840,-9,-241,-87,35,67,-5
845,-10,-242,-86,33,69,-5
850,-9,-244,-89,32,71,-4
855,-6,-245,-88,27,73,-4
860,-10,-243,-89,28,75,-5
865,-8,-245,-90,27,75,-4
870,-4,-243,-91,25,75,-2
875,-5,-242,-91,24,75,-3
880,-6,-245,-89,23,72,-3
885,-9,-242,-89,20,71,-2
890,-10,-241,-87,20,69,-2
895,-4,-243,-89,20,67,0
900,-8,-240,-91,19,64,-1
905,-6,-243,-86,18,61,0
910,-10,-245,-90,19,62,-3
915,-6,-244,-88,18,61,-3
920,-7,-239,-93,18,61,-3
925,-8,-241,-91,19,64,-5
930,-7,-243,-88,20,64,-4
935,-11,-241,-89,20,66,-4
940,-8,-242,-88,22,68,-5
945,-7,-242,-87,20,72,-5
950,-6,-243,-87,20,74,-4
955,-9,-241,-89,18,77,-4
960,-8,-243,-87,15,78,-4
965,-9,-243,-89,13,80,-3
970,-8,-243,-86,9,80,-3
975,-4,-243,-89,6,79,-2
980,-9,-242,-91,4,77,-2
985,-4,-245,-85,2,76,-3
990,-10,-243,-86,2,74,-2
995,-9,-243,-85,1,73,0
1000,-12,-244,-89,3,71,-2
1005,-9,-246,-90,7,68,-1
1010,-8,-244,-89,12,66,-5
1015,-12,-244,-91,18,64,-6
1020,-10,-247,-91,22,64,-5
1025,-10,-246,-90,26,62,-5
1030,-8,-244,-92,30,63,-7
1035,-8,-242,-88,34,64,-7
1040,-8,-245,-90,35,64,-8
1045,-7,-246,-90,36,65,-7
1050,-8,-242,-89,36,65,-7
1055,-4,-242,-89,35,64,-9
1060,-3,-242,-89,34,64,-8
1065,-8,-241,-85,33,63,-7
1070,-7,-247,-83,33,60,-7
1075,-6,-240,-88,33,60,-5
1080,-3,-245,-85,32,59,-5
1085,-8,-242,-87,31,59,-4
1090,-2,-246,-87,30,60,-5
1095,-5,-242,-84,27,61,-6
1100,-9,-245,-87,25,62,-6
1105,-9,-245,-86,24,62,-6
1110,-8,-244,-87,21,62,-5
1115,-9,-246,-85,17,64,-5
1120,-9,-243,-84,14,66,-6
1125,-8,-243,-84,10,68,-8
1130,-8,-244,-85,7,69,-8
1135,-6,-246,-85,4,70,-9
1140,-8,-244,-86,2,73,-10
1145,-12,-244,-85,2,74,-9
1150,-7,-245,-89,4,75,-10
1155,-5,-244,-86,7,76,-11
1160,-6,-251,-85,12,77,-9
1165,-7,-244,-87,17,76,-10
1170,-8,-245,-85,17,76,-9
1175,-5,-246,-89,16,77,-9
1180,-5,-245,-87,14,77,-9
1185,-5,-243,-86,10,75,-8
1190,-6,-243,-85,10,74,-7
1195,-8,-245,-86,11,75,-7
1200,-4,-244,-90,11,74,-6
1205,-9,-242,-87,13,73,-6
1210,-6,-246,-87,15,72,-4
1215,-4,-244,-87,14,71,-5
1220,-5,-244,-85,15,70,-2
1225,-8,-243,-84,15,69,-3
1230,-7,-247,-85,15,68,-2
1235,-9,-243,-85,14,67,-3
1240,-8,-244,-83,13,68,-3
1245,-7,-244,-83,13,70,-3
1250,-10,-242,-84,12,72,-5
1255,-7,-247,-85,11,74,-4
1260,-9,-245,-84,9,77,-5
1265,-7,-244,-85,8,79,-7
1270,-6,-246,-83,6,81,-8
1275,-4,-245,-87,4,81,-8
1280,-6,-245,-87,2,82,-9
1285,-9,-243,-86,-2,82,-11
1290,-6,-247,-86,-2,82,-12
1295,-6,-246,-86,0,79,-12
1300,-7,-244,-84,4,77,-10
1305,-4,-247,-88,9,77,-8
1310,-7,-246,-85,14,78,-7
1315,-9,-244,-87,21,77,-5
1320,-6,-245,-85,27,75,-4
1325,-8,-242,-84,31,77,-4
1330,-4,-246,-84,34,77,-4
1335,-7,-243,-84,35,77,-4
1340,-6,-243,-84,36,80,-5
1345,-7,-246,-86,36,81,-5
1350,-8,-243,-86,34,81,-5
1355,-8,-244,-88,30,81,-3
1360,-11,-240,-83,25,81,-6
1365,-9,-247,-84,19,82,-7
1370,-9,-246,-85,14,80,-7
1375,-10,-245,-83,9,79,-9
1380,-9,-242,-85,7,78,-8
1385,-9,-243,-85,8,79,-8
1390,-7,-244,-84,10,78,-6
1395,-7,-245,-90,15,77,-7
1400,-8,-243,-83,17,79,-7
1405,-8,-244,-87,18,79,-6
1410,-6,-245,-86,18,81,-5
1415,-9,-242,-84,14,81,-5
1420,-5,-242,-82,8,78,-5
1425,-9,-243,-84,-1,75,-7
1430,-9,-244,-84,-10,75,-9
1435,-8,-244,-84,-18,73,-9
1440,-5,-243,-87,-23,69,-10
1445,-8,-245,-85,-21,66,-10
1450,-12,-243,-87,-20,65,-11
1455,-9,-242,-88,-14,63,-12
1460,-3,-245,-85,-7,62,-12
1465,-9,-244,-85,0,59,-13
1470,-4,-243,-84,4,59,-11
1475,-2,-243,-89,7,58,-12
1480,-1,-241,-83,7,61,-12
1485,-4,-247,-86,6,63,-10
1490,-4,-243,-85,2,62,-8
1495,-3,-247,-86,-4,63,-6
1500,-6,-242,-88,-13,65,-3
1505,-2,-241,-90,-23,67,1
1510,-8,-243,-87,-31,70,4
1515,-4,-243,-89,-41,75,7
1520,-5,-242,-86,-47,80,8
1525,-7,-241,-91,-52,85,9
1530,-6,-239,-89,-58,91,9
1535,-2,-240,-92,-63,95,10
1540,-6,-241,-86,-66,101,10
1545,-3,-244,-93,-69,106,11
1550,-4,-243,-88,-73,111,11
1555,-6,-242,-90,-75,114,10
1560,-7,-241,-91,-72,114,9
1565,-7,-248,-92,-72,112,8
1570,-11,-244,-91,-68,107,4
1575,-10,-247,-94,-64,101,2
1580,-8,-247,-94,-59,94,4
1585,-11,-245,-92,-55,85,6
1590,-10,-244,-92,-52,74,6
1595,-13,-245,-95,-48,66,9
1600,-11,-245,-91,-41,60,8
1605,-14,-243,-94,-35,59,7
1610,-12,-242,-95,-29,58,6
1615,-12,-244,-93,-25,59,6
1620,-10,-243,-94,-23,58,6
1625,-13,-244,-89,-19,58,6
1630,-11,-242,-91,-15,58,5
1635,-10,-241,-88,-9,59,8
1640,-14,-238,-85,-4,60,10
1645,-11,-241,-84,0,58,12
1650,-8,-241,-90,-1,60,15
1655,-9,-241,-85,-5,58,15
1660,-9,-239,-88,-12,55,16
1665,-10,-236,-88,-24,52,19
1670,-7,-239,-89,-34,46,19
1675,-10,-238,-87,-43,45,21
1680,-8,-235,-89,-51,46,19
1685,-5,-236,-91,-58,49,18
1690,-8,-237,-90,-65,51,16
1695,-8,-238,-90,-75,54,14
1700,-6,-238,-90,-84,57,14
1705,-5,-239,-91,-93,61,12
1710,-3,-239,-87,-101,64,11
1715,-6,-241,-89,-107,67,10
1720,-3,-242,-91,-110,71,9
1725,-6,-241,-95,-112,75,8
1730,-4,-241,-87,-111,78,8
1735,-4,-243,-91,-111,82,11
1740,-7,-245,-90,-113,82,13
1745,-6,-243,-89,-114,81,14
1750,-7,-242,-90,-115,84,15
1755,-7,-244,-89,-112,83,16
1760,-12,-240,-90,-110,84,15
1765,-7,-242,-90,-107,82,14
1770,-8,-243,-91,-103,82,16
1775,-8,-243,-91,-100,80,16
1780,-9,-243,-89,-100,77,13
1785,-13,-243,-90,-99,72,13
1790,-9,-246,-88,-98,69,13
1795,-10,-242,-86,-97,64,15
1800,-13,-241,-90,-95,60,15
1805,-12,-240,-89,-95,57,15
1810,-14,-244,-88,-95,54,16
1815,-12,-243,-85,-97,51,19
1820,-10,-241,-89,-99,46,20
1825,-10,-242,-84,-101,41,21
1830,-10,-245,-87,-101,35,20
1835,-13,-244,-89,-103,31,21
1840,-12,-242,-91,-103,27,20
1845,-10,-245,-93,-106,23,20
1850,-10,-242,-93,-108,20,18
1855,-13,-241,-91,-112,18,16
1860,-10,-245,-94,-113,16,13
1865,-11,-244,-91,-116,14,10
1870,-11,-242,-93,-120,13,7
1875,-12,-243,-94,-121,10,6
1880,-14,-245,-90,-120,6,3
1885,-14,-242,-90,-116,3,0
1890,-12,-245,-90,-111,2,-1
1895,-14,-241,-90,-108,2,-3
1900,-13,-241,-90,-108,0,-4
1905,-11,-240,-93,-109,-2,-7
1910,-11,-241,-94,-115,-6,-5
1915,-12,-241,-89,-119,-14,-5
1920,-10,-242,-97,-120,-19,-2
1925,-12,-243,-92,-119,-27,1
1930,-13,-242,-94,-117,-35,1
1935,-13,-239,-90,-114,-40,4
1940,-14,-239,-93,-114,-41,6
1945,-12,-239,-96,-118,-41,7
1950,-12,-238,-91,-124,-39,7
1955,-12,-238,-96,-127,-38,7
1960,-10,-241,-98,-131,-34,8
1965,-10,-238,-97,-138,-32,9
1970,-12,-239,-102,-145,-30,9
1975,-8,-235,-100,-152,-30,10
1980,-8,-239,-100,-156,-31,11
1985,-8,-238,-100,-157,-33,13
1990,-11,-238,-107,-160,-32,14
1995,-11,-236,-107,-160,-31,15
2000,-10,-232,-101,-164,-32,16
2005,-11,-235,-107,-169,-34,18
2010,-10,-230,-110,-176,-34,18
2015,-12,-230,-106,-185,-33,19
2020,-11,-228,-106,-197,-27,19
2025,-12,-230,-104,-207,-22,18
2030,-11,-228,-111,-221,-14,17
2035,-11,-229,-111,-232,-8,16
2040,-8,-226,-111,-246,-4,14
2045,-10,-230,-113,-256,-1,11
2050,-9,-228,-110,-267,1,11
2055,-10,-231,-113,-272,-1,10
2060,-11,-227,-113,-275,-4,14
2065,-10,-224,-117,-277,-8,15
2070,-14,-225,-117,-281,-12,16
2075,-14,-224,-115,-286,-18,18
2080,-15,-220,-120,-293,-24,19
2085,-18,-216,-117,-301,-31,20
2090,-15,-218,-124,-308,-35,21
2095,-17,-216,-120,-317,-40,21
2100,-19,-212,-122,-325,-45,21
2105,-16,-215,-123,-335,-48,20
2110,-15,-210,-120,-346,-50,19
2115,-13,-211,-126,-358,-53,19
2120,-12,-209,-124,-372,-54,16
2125,-14,-208,-122,-389,-59,12
2130,-14,-205,-129,-407,-66,10
2135,-13,-204,-131,-426,-74,7
2140,-16,-200,-127,-446,-84,5
2145,-12,-200,-126,-464,-94,4
2150,-14,-205,-128,-479,-104,-1
2155,-13,-203,-127,-489,-114,-5
2160,-12,-206,-127,-496,-121,-12
2165,-13,-201,-127,-503,-123,-18
2170,-11,-203,-122,-511,-117,-27
2175,-9,-202,-120,-516,-110,-34
2180,-10,-201,-123,-521,-96,-42
2185,-5,-200,-120,-527,-80,-51
2190,-1,-199,-122,-536,-63,-57
2195,0,-198,-123,-547,-46,-61
2200,0,-192,-126,-557,-31,-62
2205,0,-191,-123,-569,-15,-60
2210,1,-188,-125,-580,2,-52
2215,3,-187,-123,-591,19,-46
2220,5,-186,-126,-601,41,-37
2225,7,-185,-125,-612,64,-25
2230,9,-187,-121,-618,83,-16
2235,11,-185,-120,-625,99,-3
2240,11,-186,-120,-631,114,12
2245,12,-184,-116,-640,121,26
2250,12,-184,-114,-651,127,40
2255,18,-189,-124,-663,127,52
2260,7,-185,-116,-678,122,67
2265,10,-183,-133,-693,109,78
2270,10,-172,-110,-704,91,87
2275,1,-182,-118,-712,73,91
2280,-4,-181,-117,-721,49,92
2285,-10,-181,-114,-731,24,92
2290,-16,-185,-115,-744,-3,86
2295,-24,-183,-115,-759,-28,77
2300,-31,-184,-118,-774,-43,66
2305,-36,-187,-120,-794,-54,50
2310,-38,-186,-126,-816,-61,30
2315,-42,-185,-132,-840,-67,12
2320,-46,-186,-137,-862,-69,-7
2325,-44,-187,-140,-880,-65,-26
2330,-44,-188,-145,-898,-54,-43
2335,-41,-188,-142,-907,-36,-54
2340,-34,-194,-142,-910,-17,-57
2345,-31,-194,-138,-911,1,-55
2350,-22,-197,-137,-913,12,-49
2355,-11,-203,-135,-910,21,-37
2360,-11,-205,-133,-905,27,-23
2365,0,-206,-131,-892,24,-7
2370,2,-206,-130,-872,17,10
2375,4,-205,-136,-854,6,27
2380,8,-205,-136,-838,-4,47
2385,10,-204,-137,-824,-14,61
2390,7,-199,-141,-812,-17,71
2395,9,-198,-136,-799,-15,72
2400,7,-197,-137,-786,-6,65
2405,1,-195,-142,-777,8,52
2410,1,-197,-140,-772,23,35
2415,-4,-197,-146,-774,41,14
2420,-5,-199,-144,-781,60,-7
2425,-9,-201,-149,-794,84,-28
2430,-16,-202,-148,-811,110,-49
2435,-20,-197,-152,-832,138,-65
2440,-20,-198,-157,-857,168,-76
2445,-22,-193,-161,-882,195,-82
2450,-18,-191,-163,-904,224,-83
2455,-18,-193,-161,-925,252,-82
2460,-12,-194,-157,-935,275,-75
2465,-12,-194,-154,-937,291,-65
2470,-12,-193,-151,-931,296,-51
2475,-13,-194,-155,-914,292,-37
2480,-16,-194,-153,-892,279,-25
2485,-16,-191,-150,-866,259,-13
2490,-17,-189,-151,-842,242,-4
2495,-15,-191,-152,-820,227,3
2500,-17,-190,-154,-800,218,5
2505,-17,-188,-152,-785,217,4
2510,-19,-188,-152,-774,221,0
2515,-17,-188,-156,-768,229,-6
2520,-18,-185,-157,-769,236,-14
2525,-17,-187,-158,-776,243,-17
2530,-15,-183,-161,-784,245,-22
2535,-15,-183,-159,-788,243,-23
2540,-16,-181,-156,-791,238,-20
2545,-18,-181,-161,-796,227,-15
2550,-21,-174,-162,-805,211,-6
2555,-20,-171,-168,-820,189,7
2560,-22,-169,-168,-839,167,20
2565,-22,-167,-173,-858,150,30
2570,-22,-166,-176,-880,140,37
2575,-20,-165,-172,-900,138,39
2580,-22,-163,-177,-919,136,42
2585,-25,-166,-171,-931,135,43
2590,-25,-166,-168,-939,134,44
2595,-21,-165,-168,-942,129,42
2600,-24,-166,-170,-936,122,42
2605,-20,-169,-168,-923,111,41
2610,-21,-168,-167,-905,100,37
2615,-21,-170,-168,-889,88,35
2620,-21,-170,-173,-877,76,33
2625,-21,-167,-176,-866,65,33
2630,-20,-164,-180,-862,59,34
2635,-17,-166,-184,-864,57,34
2640,-16,-165,-183,-871,57,33
2645,-14,-162,-184,-880,58,30
2650,-12,-166,-189,-887,60,24
2655,-13,-163,-188,-892,62,17
2660,-15,-162,-193,-891,65,8
2665,-15,-162,-193,-882,67,-1
2670,-13,-163,-190,-866,70,-10
2675,-12,-164,-197,-850,73,-18
2680,-13,-162,-200,-844,77,-25
2685,-11,-159,-205,-849,81,-29
2690,-10,-154,-209,-865,83,-33
2695,-14,-149,-212,-894,82,-35
2700,-16,-148,-215,-928,78,-35
2705,-18,-143,-220,-968,68,-33
2710,-19,-140,-224,-1014,56,-30
2715,-19,-145,-219,-1053,41,-25
2720,-18,-143,-220,-1081,32,-23
2725,-18,-150,-219,-1102,26,-17
2730,-16,-148,-218,-1118,26,-14
2735,-16,-151,-218,-1129,34,-15
2740,-13,-149,-215,-1129,50,-14
2745,-13,-147,-214,-1124,65,-14
2750,-11,-143,-219,-1119,80,-11
2755,-9,-139,-216,-1115,90,-11
2760,-6,-140,-218,-1114,98,-10
2765,-6,-133,-222,-1120,105,-9
2770,-4,-129,-223,-1124,115,-6
2775,0,-129,-217,-1131,123,-1
2780,0,-124,-220,-1132,129,1
2785,0,-124,-218,-1127,134,8
2790,0,-121,-218,-1112,133,12
2795,0,-121,-214,-1092,134,18
2800,0,-117,-220,-1068,134,19
2805,0,-108,-226,-1042,138,16
2810,2,-99,-227,-1014,150,14
2815,-5,-98,-229,-995,169,9
2820,-4,-109,-231,-992,184,4
2825,-1,-120,-229,-1008,190,-22
2830,-12,-136,-229,-1027,199,-77
2835,-13,-144,-225,-1035,222,-105
2840,-2,-151,-222,-1069,251,-100
2845,-1,-154,-219,-1107,260,-90
2850,-5,-149,-226,-1096,244,-79
2855,-8,-142,-231,-1071,219,-74
2860,-8,-132,-242,-1066,193,-69
2865,-6,-133,-243,-1064,175,-68
2870,-6,-130,-236,-1042,163,-62
2875,-4,-130,-235,-990,151,-53
2880,0,-124,-242,-922,143,-41
2885,0,-121,-239,-854,143,-32
2890,1,-119,-237,-797,157,-23
2895,2,-114,-240,-758,175,-21
2900,-1,-108,-240,-737,192,-19
2905,-4,-104,-234,-735,202,-20
2910,-7,-102,-234,-747,206,-23
2915,-8,-99,-232,-773,205,-28
2920,-10,-99,-231,-802,198,-28
2925,-6,-96,-234,-838,188,-24
2930,-12,-95,-229,-865,181,-18
2935,-11,-93,-228,-888,170,-17
2940,-12,-92,-233,-903,158,-20
2945,-11,-91,-231,-912,149,-28
2950,-8,-87,-230,-912,142,-39
2955,-7,-95,-230,-903,143,-48
2960,-7,-87,-229,-894,144,-54
2965,0,-92,-229,-889,154,-64
2970,0,-91,-229,-890,166,-70
2975,1,-94,-237,-891,167,-72
2980,2,-87,-237,-894,166,-74
2985,10,-87,-244,-891,163,-75
2990,9,-81,-247,-885,151,-74
2995,8,-78,-254,-874,126,-72
3000,11,-74,-259,-850,99,-68
3005,9,-69,-265,-807,78,-68
3010,8,-69,-268,-745,67,-73
3015,7,-64,-270,-668,63,-76
3020,6,-62,-268,-586,63,-78
3025,3,-62,-264,-516,66,-86
3030,2,-62,-260,-466,68,-93
3035,0,-64,-254,-435,75,-96
3040,1,-60,-255,-424,87,-99
3045,-4,-61,-252,-431,94,-98
3050,-6,-62,-244,-461,96,-96
3055,1,-58,-241,-506,95,-93
3060,-3,-58,-242,-557,92,-87
3065,-2,-57,-243,-613,85,-81
3070,-2,-53,-249,-667,82,-74
3075,-4,-54,-250,-718,79,-76
3080,0,-47,-247,-763,68,-85
3085,1,-44,-257,-807,54,-94
3090,0,-50,-252,-837,57,-103
3095,1,-50,-254,-856,61,-117
3100,3,-47,-258,-866,76,-129
3105,6,-53,-261,-865,98,-136
3110,5,-49,-258,-856,117,-140
3115,3,-55,-257,-844,120,-133
3120,2,-54,-256,-825,121,-120
3125,1,-54,-265,-815,115,-112
3130,0,-53,-260,-812,107,-111
3135,0,-46,-263,-806,97,-105
3140,4,-47,-264,-796,96,-96
3145,3,-40,-265,-787,98,-91
3150,6,-38,-268,-781,107,-87
3155,7,-36,-267,-780,121,-88
3160,3,-34,-268,-791,131,-92
3165,4,-34,-269,-807,132,-96
3170,4,-35,-266,-816,120,-92
3175,0,-33,-266,-819,113,-89
3180,0,-31,-270,-820,104,-87
3185,-1,-33,-267,-813,99,-88
3190,0,-34,-269,-790,102,-96
3195,-5,-30,-257,-766,103,-119
3200,-1,-21,-260,-750,88,-140
3205,2,-27,-261,-732,74,-135
3210,2,-23,-259,-719,71,-131
3215,-1,-26,-261,-712,54,-122
3220,3,-28,-261,-708,37,-115
3225,-4,-29,-266,-704,28,-112
3230,-6,-26,-264,-692,22,-117
3235,-11,-30,-259,-676,18,-107
3240,-1,-25,-267,-661,24,-111
3245,-4,-20,-270,-627,23,-94
3250,-5,-20,-273,-596,26,-81
3255,-5,-19,-272,-569,34,-72
3260,-7,-17,-270,-546,44,-62
3265,-10,-18,-263,-527,48,-60
3270,-9,-10,-262,-513,36,-61
3275,-6,-9,-271,-506,21,-63
3280,-5,-7,-264,-486,3,-74
3285,-4,-26,-271,-457,-29,-83
3290,-1,-2,-274,-428,-58,-106
3295,2,-3,-270,-378,-84,-94
3300,-2,-5,-274,-336,-103,-89
3305,0,2,-271,-296,-111,-94
3310,0,-4,-278,-267,-107,-92
3315,1,-1,-271,-230,-97,-94
3320,0,-2,-272,-197,-88,-89
3325,3,-4,-272,-180,-81,-80
3330,3,0,-274,-164,-67,-69
3335,0,-5,-273,-150,-56,-56
3340,-2,-5,-270,-135,-41,-48
3345,1,-13,-272,-118,-25,-37
3350,-2,-15,-275,-103,-14,-29
3355,-3,-13,-271,-90,-10,-20
3360,-4,-9,-273,-79,-10,-8
3365,0,-6,-272,-66,-17,5
3370,-2,3,-268,-59,-25,20
3375,-9,2,-263,-54,-26,29
3380,-9,2,-265,-60,-25,30
3385,-4,3,-266,-74,-25,37
3390,-5,4,-263,-88,-24,36
3395,-6,8,-270,-101,-28,33
3400,-5,6,-273,-106,-36,40
3405,-6,1,-274,-89,-40,43
3410,-7,-1,-278,-63,-35,48
3415,-9,-3,-276,-32,-20,55
3420,-6,-2,-272,2,-10,61
3425,-5,2,-277,39,-3,62
3430,-1,-4,-273,66,1,65
3435,-5,0,-276,90,2,79
3440,-7,-5,-272,104,4,88
3445,-2,3,-267,109,9,88
3450,-1,2,-270,106,12,101
3455,-3,5,-273,106,12,108
3460,-7,5,-269,113,10,112
3465,-9,7,-269,119,5,115
3470,-7,6,-270,126,4,119
3475,-9,6,-272,130,6,120
3480,-6,0,-270,134,8,117
3485,-8,-6,-266,138,10,115
3490,-4,-7,-264,143,11,108
3495,-6,-7,-262,145,12,107
3500,-11,-6,-266,151,16,110
3505,-9,-6,-262,162,27,108
3510,-10,-4,-264,171,43,102
3515,-16,-7,-265,181,57,100
3520,-8,-6,-265,185,62,93
3525,-13,0,-265,182,62,93
3530,-10,0,-266,179,59,96
3535,-10,5,-266,178,57,99
3540,-6,1,-269,180,60,99
3545,-7,1,-263,180,67,102
3550,-8,1,-260,174,82,106
3555,-13,-4,-262,162,98,107
3560,-14,-5,-260,149,109,110
3565,-13,-6,-263,146,117,116
3570,-14,-8,-259,152,122,122
3575,-15,-9,-262,165,122,126
3580,-14,-10,-259,181,117,125
3585,-12,-13,-260,197,113,125
3590,-11,-13,-259,211,110,126
3595,-7,-11,-256,218,107,123
3600,-9,-11,-260,223,102,124
3605,-9,-10,-260,228,100,121
3610,-9,-8,-258,233,101,120
3615,-9,-9,-264,235,105,119
3620,-7,-12,-261,236,114,120
3625,-5,-6,-261,237,127,120
3630,-7,-6,-255,235,139,121
3635,-6,-5,-256,235,147,122
3640,-4,-4,-259,234,152,122
3645,-7,-4,-258,229,154,121
3650,-8,-8,-256,221,156,119
3655,-10,-4,-250,208,158,111
3660,-7,-8,-254,194,160,102
3665,-5,-4,-255,175,157,95
3670,0,-5,-256,156,149,89
3675,-2,-3,-261,146,139,90
3680,0,-4,-261,145,131,89
3685,-4,-5,-264,152,126,87
3690,-6,-4,-268,163,127,85
3695,-8,-2,-266,170,127,78
3700,-7,1,-270,172,127,71
3705,-9,-1,-266,173,126,64
3710,-8,-5,-271,182,123,58
3715,-6,-5,-268,193,122,49
3720,-6,-5,-274,202,122,40
3725,-6,-4,-271,208,119,27
3730,-1,-6,-267,209,114,17
3735,-6,-5,-270,205,106,12
3740,-2,-7,-268,196,101,7
3745,-1,-9,-268,185,101,7
3750,-3,-10,-264,173,107,12
3755,-3,-8,-267,156,119,15
3760,-8,-10,-265,135,129,16
3765,-5,-15,-267,113,134,18
3770,-9,-16,-268,94,129,17
3775,-7,-19,-272,85,115,15
3780,-8,-18,-270,75,100,11
3785,-7,-18,-269,67,87,10
3790,-1,-16,-268,58,76,8
3795,-1,-18,-265,49,67,2
3800,-2,-15,-268,42,59,-4
3805,0,-19,-267,34,53,-5
3810,1,-19,-271,26,51,-3
3815,1,-16,-269,19,52,2
3820,1,-14,-273,12,54,4
3825,1,-16,-271,6,58,5
3830,2,-12,-271,5,66,6
3835,4,-13,-273,8,78,10
3840,0,-13,-270,11,91,14
3845,2,-16,-272,12,105,18
3850,0,-13,-271,16,117,16
3855,1,-17,-271,23,123,10
3860,-2,-12,-270,30,121,2
3865,-2,-14,-267,39,115,-7
3870,-3,-17,-267,44,104,-19
3875,0,-15,-268,46,89,-28
3880,-2,-16,-266,45,76,-37
3885,-1,-18,-264,48,64,-45
3890,-1,-22,-265,47,55,-49
3895,2,-25,-264,47,52,-51
3900,-1,-24,-261,40,54,-59
3905,1,-25,-258,32,52,-64
3910,1,-23,-259,29,51,-64
3915,-2,-21,-260,27,48,-61
3920,-2,-22,-256,28,47,-58
3925,0,-23,-262,30,46,-56
3930,0,-25,-254,32,46,-51
3935,-4,-24,-253,27,44,-51
3940,0,-25,-255,17,39,-49
3945,-1,-24,-255,10,31,-51
3950,-4,-27,-253,5,25,-56
3955,-8,-24,-256,3,20,-62
3960,-6,-28,-253,3,15,-68
3965,-4,-27,-256,2,11,-72
3970,0,-26,-255,2,9,-78
3975,1,-25,-253,-1,5,-80
3980,3,-23,-256,-7,-3,-80
3985,0,-20,-255,-12,-9,-76
3990,3,-25,-251,-16,-6,-73
3995,1,-24,-251,-16,-1,-69
4000,-1,-22,-252,-15,9,-68
4005,0,-26,-251,-18,15,-67
4010,-2,-26,-251,-23,20,-69
4015,-4,-25,-255,-26,23,-74
4020,-4,-23,-253,-24,20,-77
4025,-2,-27,-254,-20,17,-81
4030,-1,-28,-253,-10,10,-90
4035,1,-27,-250,-3,0,-100
4040,0,-26,-249,0,-11,-105
4045,2,-28,-252,-8,-26,-112
4050,0,-26,-254,-21,-44,-114
4055,2,-25,-255,-28,-54,-118
4060,1,-22,-250,-25,-61,-121
4065,1,-20,-258,-18,-61,-115
4070,-1,-21,-252,-12,-56,-113
4075,-1,-25,-255,-10,-47,-111
4080,-2,-26,-256,-11,-38,-108
4085,-2,-24,-260,-8,-29,-108
4090,-1,-27,-257,-3,-21,-110
4095,0,-26,-258,4,-15,-110
4100,-3,-26,-251,13,-12,-112
4105,0,-25,-252,25,-11,-114
4110,0,-27,-255,30,-11,-113
4115,1,-26,-252,25,-11,-112
4120,0,-24,-256,19,-13,-109
4125,0,-24,-254,15,-12,-101
4130,-2,-24,-254,10,-10,-94
4135,-3,-24,-255,1,-4,-89
4140,-2,-26,-255,-2,1,-84
4145,-3,-27,-257,0,9,-82
4150,-1,-26,-258,5,14,-82
4155,-4,-27,-257,5,15,-84
4160,-2,-25,-259,7,15,-84
4165,-3,-21,-256,13,14,-82
4170,-5,-24,-258,15,15,-80
4175,-6,-25,-258,17,22,-76
4180,-3,-26,-257,14,30,-73
4185,-6,-21,-255,10,39,-70
4190,-4,-24,-251,3,47,-67
4195,-3,-22,-256,-8,50,-67
4200,-8,-24,-254,-22,50,-67
4205,-2,-24,-252,-31,46,-65
4210,-5,-26,-259,-32,43,-61
4215,-7,-23,-254,-27,42,-60
4220,-7,-23,-253,-21,41,-58
4225,-3,-26,-254,-13,43,-56
4230,-7,-28,-255,-7,44,-54
4235,-8,-25,-253,-2,47,-51
4240,-8,-24,-252,4,49,-48
4245,-8,-25,-256,10,50,-44
4250,-5,-28,-252,19,51,-42
4255,-9,-31,-255,25,54,-38
4260,-5,-26,-255,30,58,-32
4265,0,-27,-255,33,64,-26
4270,-4,-25,-259,35,70,-19
4275,-7,-25,-251,34,78,-14
4280,-9,-24,-251,32,85,-8
4285,-6,-28,-249,29,90,-5
4290,-7,-23,-246,28,91,-4
4295,-4,-25,-248,26,90,-3
4300,-5,-25,-254,27,87,-2
4305,-8,-26,-251,29,84,-1
4310,-9,-24,-248,30,84,0
4315,-6,-25,-251,31,83,0
4320,-10,-24,-254,30,84,0
4325,-7,-27,-253,31,83,2
4330,-6,-26,-253,31,83,4
4335,-6,-25,-248,31,81,5
4340,-4,-27,-249,29,81,7
4345,-8,-26,-253,29,78,9
4350,-4,-28,-252,29,77,11
4355,-7,-26,-253,26,77,12
4360,-8,-24,-254,22,78,15
4365,-5,-25,-250,20,77,16
4370,-7,-23,-252,21,78,22
4375,-7,-27,-253,23,75,25
4380,-11,-23,-252,26,73,30
4385,-4,-22,-252,26,70,33
4390,-6,-24,-250,23,73,38
4395,-8,-21,-251,19,77,41
4400,-11,-20,-251,18,87,44
4405,-9,-27,-250,18,94,44
4410,-8,-26,-249,18,99,42
4415,-9,-25,-252,20,100,39
4420,-7,-28,-252,23,97,38
4425,-8,-25,-252,22,87,34
4430,-6,-30,-251,23,78,31
4435,-7,-28,-252,20,69,29
4440,-8,-26,-251,18,63,27
4445,-9,-27,-251,15,57,27
4450,-7,-28,-252,13,52,24
4455,-6,-26,-251,10,54,22
4460,-9,-25,-250,4,57,22
4465,-10,-22,-253,-1,62,22
4470,-10,-24,-253,0,68,20
4475,-10,-25,-254,6,76,21
4480,-8,-28,-255,12,80,22
4485,-13,-23,-251,15,85,21
4490,-10,-23,-255,15,85,19
4495,-9,-25,-253,12,80,18
4500,-7,-26,-256,5,75,19
4505,-8,-26,-255,-3,68,19
4510,-5,-25,-257,-13,63,20
4515,-5,-26,-257,-21,62,19
4520,-6,-27,-255,-27,65,18
4525,-10,-22,-254,-31,70,19
4530,-9,-26,-253,-37,76,21
4535,-10,-26,-255,-40,81,24
4540,-9,-23,-251,-40,84,26
4545,-13,-20,-255,-40,82,29
4550,-10,-24,-254,-38,79,31
4555,-10,-17,-255,-37,74,31
4560,-6,-28,-254,-37,66,31
4565,-8,-27,-251,-40,63,28
4570,-8,-26,-253,-44,57,28
4575,-3,-24,-254,-50,52,30
4580,-8,-26,-251,-55,51,34
4585,-9,-25,-253,-58,52,39
4590,-5,-25,-252,-61,54,44
4595,-4,-25,-254,-65,58,46
4600,-8,-24,-251,-70,58,47
4605,-8,-26,-252,-75,59,46
4610,-8,-28,-252,-79,60,45
4615,-9,-27,-249,-78,58,47
4620,-7,-27,-253,-74,59,45
4625,-6,-29,-254,-69,57,44
4630,-6,-25,-257,-63,56,43
4635,-6,-29,-253,-60,53,40
4640,-2,-31,-253,-56,52,36
4645,-4,-30,-251,-51,54,35
4650,-3,-28,-254,-45,55,32
4655,-7,-28,-254,-40,60,30
4660,-3,-25,-251,-40,64,31
4665,-8,-28,-250,-42,68,31
4670,-7,-20,-250,-43,69,30
4675,-8,-22,-253,-46,68,27
4680,-5,-25,-247,-49,65,22
4685,-7,-26,-249,-50,64,20
4690,-6,-23,-255,-51,61,17
4695,-8,-22,-252,-50,59,16
4700,-10,-23,-254,-47,60,15
4705,-9,-21,-253,-42,61,16
4710,-6,-25,-255,-43,57,17
4715,-4,-25,-252,-44,55,19
4720,-7,-26,-255,-44,54,23
4725,-6,-24,-254,-45,55,26
4730,-8,-20,-255,-44,56,28
4735,-7,-24,-255,-43,55,27
4740,-6,-26,-256,-36,57,27
4745,-10,-26,-260,-24,55,25
4750,-7,-24,-255,-10,53,21
4755,-6,-21,-255,-1,56,16
4760,-10,-21,-254,5,60,16
4765,-8,-18,-253,2,68,16
4770,-15,-24,-251,-3,75,17
4775,-10,-20,-249,-14,78,20
4780,-8,-22,-251,-24,80,22
4785,-8,-19,-248,-32,80,24
4790,-8,-25,-253,-43,76,23
4795,-11,-21,-255,-51,69,20
4800,-5,-25,-253,-56,65,16
4805,-8,-28,-254,-59,61,13
4810,-12,-26,-258,-60,58,10
4815,-11,-27,-253,-60,56,8
4820,-8,-22,-257,-61,52,10
4825,-7,-22,-256,-66,50,9
4830,-12,-19,-255,-66,47,0
4835,-13,-16,-258,-62,43,-4
4840,-15,-10,-258,-65,43,-5
4845,-8,-14,-256,-69,45,-7
4850,-11,-14,-255,-71,47,2
4855,-8,-16,-256,-72,48,3
4860,-6,-16,-260,-69,50,5
4865,-7,-16,-256,-63,54,6
4870,-8,-17,-258,-60,59,8
4875,-9,-17,-256,-59,66,11
4880,-6,-20,-257,-61,73,16
4885,-10,-20,-257,-66,83,20
4890,-7,-21,-255,-69,87,23
4895,-11,-16,-250,-69,90,26
4900,-7,-19,-251,-70,91,27
4905,-1,-19,-255,-70,90,29
4910,-9,-18,-252,-68,93,36
4915,-9,-18,-254,-73,97,34
4920,-11,-16,-257,-72,99,33
4925,-12,-12,-258,-73,101,37
4930,-12,-15,-257,-74,107,34
4935,-9,-18,-257,-70,110,27
4940,-8,-14,-257,-61,111,24
4945,-10,-12,-259,-53,108,24
4950,-7,-15,-257,-46,105,19
4955,-8,-17,-257,-36,100,16
4960,-11,-14,-260,-28,95,15
4965,-8,-15,-253,-30,91,6
4970,-11,-17,-261,-25,91,11
4975,-9,-17,-255,-16,91,13
4980,-7,-16,-258,-8,89,13
4985,-9,-18,-256,-2,89,12
4990,-9,-21,-254,1,88,12
4995,-8,-18,-252,1,89,12
5000,-5,-18,-255,2,88,8
5005,-4,-18,-257,5,87,6
5010,-7,-17,-258,10,84,3
5015,-9,-17,-254,14,81,1
5020,-5,-20,-255,17,79,0
5025,-7,-18,-256,19,76,-3
5030,-4,-17,-255,21,72,-5
5035,-5,-17,-254,24,69,-6
5040,-5,-16,-255,26,67,-5
5045,-4,-17,-255,25,68,-4
5050,-3,-13,-255,22,71,-3
5055,-5,-16,-250,20,76,-1
5060,-3,-16,-255,16,80,-2
5065,-5,-18,-255,13,83,0
5070,-6,-21,-257,8,86,0
5075,-6,-20,-253,5,85,1
5080,-4,-23,-252,3,83,1
5085,-6,-23,-255,3,80,-1
5090,-7,-23,-255,4,78,-3
5095,-5,-22,-258,7,75,-6
5100,-8,-19,-258,11,74,-9
5105,-5,-21,-253,16,76,-13
5110,-4,-19,-255,21,74,-15
5115,-7,-19,-256,25,74,-18
5120,-10,-18,-254,26,71,-19
5125,-4,-23,-253,26,67,-20
5130,-8,-21,-255,26,61,-21
5135,-4,-21,-256,25,56,-24
5140,-6,-20,-250,25,51,-28
5145,-9,-21,-250,24,51,-32
5150,-11,-20,-252,23,54,-37
5155,-5,-24,-253,22,57,-39
5160,-6,-19,-257,25,60,-42
5165,-4,-21,-256,28,63,-42
5170,-7,-21,-255,31,64,-39
5175,-5,-21,-260,35,64,-36
5180,-6,-21,-256,37,65,-34
5185,-3,-25,-258,39,63,-29
5190,-2,-21,-255,41,65,-29
5195,-2,-24,-252,41,69,-27
5200,-4,-25,-253,41,74,-25
5205,-5,-22,-253,42,78,-25
5210,-6,-23,-253,37,81,-25
5215,-7,-20,-250,33,83,-25
5220,-9,-21,-249,28,83,-23
5225,-9,-20,-248,26,81,-23
5230,-9,-23,-254,26,78,-24
5235,-7,-25,-254,29,73,-25
5240,-7,-25,-255,30,69,-25
5245,-8,-25,-252,33,65,-26
5250,-8,-25,-253,36,61,-27
5255,-3,-24,-257,38,58,-28
5260,-8,-24,-255,39,54,-29
5265,-5,-22,-256,39,53,-32
5270,-6,-19,-252,38,54,-30
5275,-2,-23,-253,38,58,-28
5280,-6,-23,-255,39,68,-26
5285,-4,-23,-257,39,77,-24
5290,-8,-23,-257,39,86,-18
5295,-7,-24,-254,38,89,-18
5300,-8,-22,-257,40,90,-15
5305,-8,-24,-257,43,87,-15
5310,-10,-24,-253,46,81,-17
5315,-7,-22,-257,49,74,-21
5320,-10,-27,-255,50,71,-22
5325,-4,-24,-251,50,64,-24
5330,-10,-24,-255,48,60,-26
5335,-6,-26,-253,46,58,-27
5340,-8,-21,-253,42,58,-26
5345,-9,-25,-255,40,58,-25
5350,-9,-25,-253,41,63,-25
5355,-10,-24,-254,41,66,-21
5360,-8,-26,-252,39,72,-22
5365,-9,-28,-255,39,75,-19
5370,-2,-31,-250,36,74,-17
5375,-3,-25,-252,32,72,-18
5380,-5,-29,-256,29,68,-17
5385,-10,-25,-256,29,65,-16
5390,-5,-25,-257,28,63,-15
5395,-5,-25,-257,26,62,-17
5400,-5,-28,-253,23,62,-18
5405,-10,-20,-253,22,62,-19
5410,-6,-23,-255,22,63,-19
5415,-5,-25,-254,19,59,-18
5420,-7,-22,-250,15,56,-18
5425,-6,-23,-253,10,51,-17
5430,-4,-25,-256,6,49,-17
5435,-5,-22,-258,5,48,-17
5440,-3,-28,-255,7,50,-15
5445,-5,-26,-256,11,52,-15
5450,-2,-29,-254,18,55,-16
5455,-5,-28,-259,27,60,-16
5460,-6,-25,-258,37,66,-17
5465,-6,-28,-253,43,74,-14
5470,-5,-25,-255,41,79,-12
5475,-3,-26,-254,33,84,-9
5480,-8,-21,-251,24,88,-6
5485,-4,-25,-253,14,90,-3
5490,0,-29,-256,10,90,-1
5495,-3,-26,-255,8,88,1
5500,-5,-27,-248,8,84,1
5505,-6,-30,-250,5,80,0
5510,-7,-27,-259,6,75,-3
5515,-7,-31,-254,6,68,-7
5520,-7,-28,-258,8,63,-10
5525,-5,-31,-257,10,58,-15
5530,-6,-26,-256,14,57,-19
5535,-6,-25,-258,16,57,-22
5540,-7,-29,-251,17,59,-21
5545,-7,-26,-255,18,62,-20
5550,-4,-27,-255,18,67,-17
5555,-4,-27,-252,15,72,-13
5560,-2,-29,-255,13,75,-9
5565,-2,-26,-251,9,77,-5
5570,-6,-25,-254,6,78,0
5575,-3,-28,-257,5,77,4
5580,-6,-25,-253,3,78,9
5585,-5,-25,-253,2,80,10
5590,-4,-27,-251,2,81,11
5595,-8,-28,-250,2,81,13
5600,-5,-27,-252,0,79,11
5605,-5,-28,-253,-2,75,12
5610,-6,-29,-252,-3,72,12
5615,-10,-27,-255,-3,68,13
5620,-3,-29,-252,-4,65,14
5625,-7,-27,-254,-3,63,15
5630,-6,-28,-254,-3,65,16
5635,-3,-29,-251,-3,68,16
5640,-5,-28,-255,-3,72,17
5645,-5,-26,-253,-1,74,18
5650,-2,-29,-256,-2,77,17
5655,-4,-29,-254,-3,78,17
5660,-4,-25,-253,-2,78,18
5665,-4,-25,-256,-2,77,18
5670,-4,-23,-254,1,77,20
5675,-6,-25,-253,1,77,22
5680,-7,-25,-255,0,78,23
5685,-10,-22,-256,-1,80,23
5690,-4,-26,-254,0,81,25
5695,-2,-25,-257,0,81,25
5700,-3,-27,-254,0,83,26
5705,-3,-25,-257,-1,83,28
5710,-7,-25,-258,-1,85,27
5715,-3,-28,-258,1,87,24
5720,-6,-27,-258,3,88,24
5725,-9,-26,-257,6,87,24
5730,-8,-29,-256,7,85,24
5735,-6,-28,-256,8,80,23
5740,-8,-26,-252,9,76,22
5745,-9,-25,-256,11,72,19
5750,-7,-26,-255,11,69,17
5755,-6,-25,-254,11,67,16
5760,-9,-23,-254,8,66,14
5765,-5,-27,-254,6,65,15
5770,-8,-25,-252,5,66,16
5775,-4,-25,-254,2,64,17
5780,-6,-30,-251,-2,65,17
5785,-4,-26,-250,-6,66,20
5790,-3,-25,-256,-12,65,20
5795,-1,-30,-255,-17,65,21
5800,-7,-29,-254,-18,65,19
5805,-4,-28,-255,-18,63,19
5810,-7,-32,-256,-17,63,17
5815,-7,-26,-255,-15,65,15
5820,-6,-28,-254,-16,65,13
5825,-7,-27,-250,-15,64,12
5830,-3,-28,-254,-15,64,12
5835,-7,-27,-250,-14,63,12
5840,-5,-30,-253,-13,62,13
5845,-6,-30,-252,-12,61,14
5850,-4,-29,-254,-12,60,14
5855,-2,-28,-252,-13,63,14
5860,-7,-27,-253,-15,65,14
5865,-4,-29,-258,-16,69,15
5870,-3,-28,-253,-17,72,14
5875,-6,-29,-252,-17,75,14
5880,-7,-26,-252,-17,78,14
5885,-7,-29,-252,-15,76,15
5890,-7,-27,-251,-13,76,16
5895,-7,-28,-248,-11,76,16
5900,-10,-25,-251,-10,76,19
5905,-6,-30,-250,-10,79,19
5910,-6,-30,-250,-12,83,19
5915,-6,-33,-251,-15,84,22
5920,-7,-26,-253,-15,80,20
5925,-6,-27,-249,-16,75,19
5930,-8,-27,-253,-15,70,18
5935,-7,-27,-253,-15,67,18
5940,-5,-28,-258,-13,66,18
5945,-6,-31,-253,-14,66,16
5950,-7,-25,-251,-15,71,14
5955,-3,-24,-249,-17,73,12
5960,-4,-32,-244,-19,76,11
5965,-5,-33,-258,-19,79,12
5970,-8,-28,-252,-19,79,14
5975,-6,-29,-258,-18,80,16
5980,-9,-24,-256,-19,79,17
5985,-6,-28,-255,-20,77,18
5990,-10,-25,-255,-20,74,20
5995,-8,-29,-252,-20,73,21
6000,-5,-26,-253,-19,73,20
6005,-4,-28,-252,-18,75,19
6010,-5,-27,-249,-17,76,19
6015,-9,-25,-250,-16,79,20
6020,-10,-27,-254,-16,80,21
6025,-6,-27,-252,-14,83,22
6030,-8,-27,-250,-12,84,21
6035,-6,-28,-253,-11,85,22
6040,-6,-28,-253,-13,83,24
6045,-6,-29,-254,-15,84,27
6050,-6,-28,-253,-16,87,30
6055,-6,-28,-251,-17,88,32
6060,-6,-27,-252,-20,89,32
6065,-6,-27,-253,-22,91,32
6070,-7,-26,-254,-23,93,32
6075,-10,-26,-252,-21,93,31
6080,-9,-27,-254,-19,94,31
6085,-9,-25,-254,-13,92,31
6090,-9,-28,-254,-10,90,31
6095,-7,-22,-255,-10,88,29
6100,-8,-25,-254,-9,87,27
6105,-9,-27,-253,-9,84,28
6110,-4,-23,-251,-9,81,30
6115,-6,-27,-253,-10,81,32
6120,-10,-28,-255,-10,80,34
6125,-8,-27,-252,-12,81,37
6130,-10,-26,-250,-15,84,37
6135,-9,-27,-255,-18,87,37
6140,-6,-27,-254,-20,91,37
6145,-6,-31,-255,-20,94,36
6150,-8,-27,-252,-18,94,34
6155,-10,-25,-254,-17,92,29
6160,-8,-28,-248,-18,89,28
6165,-4,-28,-251,-13,81,27
6170,-6,-25,-255,-10,75,26
6175,-7,-27,-252,-10,68,26
6180,-7,-26,-252,-13,66,27
6185,-4,-28,-254,-15,67,26
6190,-7,-29,-252,-16,69,25
6195,-7,-28,-255,-14,74,25
6200,-3,-29,-251,-13,76,24
6205,-5,-27,-257,-13,79,26
6210,-4,-27,-254,-14,80,27
6215,-6,-26,-256,-12,81,29
6220,-4,-25,-254,-11,81,30
6225,-5,-30,-253,-10,78,33
6230,-1,-26,-256,-8,77,33
6235,-4,-28,-255,-8,75,34
6240,-4,-24,-256,-9,76,32
6245,-7,-24,-258,-8,79,31
6250,-6,-28,-253,-9,83,29
6255,-7,-26,-253,-10,85,26
6260,-8,-28,-254,-14,87,24
6265,-2,-26,-252,-16,85,23
6270,-4,-28,-252,-18,80,23
6275,-6,-26,-250,-17,73,23
6280,-3,-27,-256,-16,70,22
6285,-2,-26,-259,-17,67,22
6290,-7,-26,-253,-18,70,21
6295,-7,-26,-256,-18,73,20
6300,-6,-27,-256,-17,77,20
6305,-1,-26,-253,-16,81,21
6310,-2,-27,-254,-15,85,20
6315,-5,-26,-250,-16,87,21
6320,-1,-29,-258,-14,85,18
6325,-7,-29,-253,-12,84,15
6330,-6,-26,-252,-10,80,15
6335,-1,-25,-255,-9,77,13
6340,-3,-28,-251,-12,75,13
6345,-4,-27,-254,-13,73,12
6350,-4,-26,-248,-13,73,15
6355,-2,-25,-253,-15,75,15
6360,-6,-26,-255,-20,77,14
6365,-5,-26,-254,-24,80,14
6370,-3,-28,-254,-24,84,14
6375,-8,-26,-254,-19,87,12
6380,-1,-27,-256,-14,88,10
6385,-5,-29,-252,-12,89,3
6390,-5,-30,-253,-9,87,5
6395,-7,-24,-252,-9,84,7
6400,-4,-27,-255,-10,80,5
6405,-6,-26,-252,-12,76,4
6410,-5,-25,-252,-14,70,1
6415,-6,-28,-253,-16,66,-3
6420,-6,-28,-254,-16,63,-5
6425,-7,-24,-254,-18,60,-8
6430,-5,-29,-255,-17,60,-13
6435,-2,-27,-256,-15,59,-15
6440,-5,-27,-257,-10,57,-18
6445,-4,-29,-253,-4,55,-21
6450,-3,-28,-253,0,54,-23
6455,-3,-27,-255,4,51,-22
6460,-6,-30,-254,6,52,-21
6465,-6,-26,-255,5,53,-21
6470,-5,-25,-255,5,57,-23
6475,-3,-24,-255,2,59,-23
6480,-3,-24,-254,-2,62,-25
6485,-4,-26,-253,-6,62,-23
6490,-2,-26,-254,-9,61,-22
6495,-4,-22,-250,-12,61,-22
6500,-1,-27,-252,-14,60,-18
6505,-1,-29,-254,-13,60,-16
6510,-4,-24,-253,-14,62,-16
6515,0,-29,-251,-15,65,-15
6520,-7,-27,-252,-17,67,-14
6525,-7,-27,-253,-17,69,-11
6530,-5,-27,-253,-16,71,-11
6535,-8,-28,-253,-15,70,-12
6540,-5,-33,-255,-16,70,-13
6545,-8,-27,-254,-19,68,-14
6550,-6,-26,-251,-21,66,-13
6555,-5,-29,-253,-22,61,-12
6560,-3,-30,-256,-22,57,-12
6565,-1,-28,-257,-21,55,-13
6570,-8,-30,-256,-20,55,-14
6575,-6,-28,-254,-20,56,-15
6580,-2,-29,-255,-21,56,-12
6585,-1,-29,-255,-21,60,-11
6590,-6,-26,-256,-23,62,-9
6595,-2,-28,-255,-23,65,-6
6600,-4,-27,-251,-22,66,-6
6605,-4,-31,-256,-22,69,-5
6610,-6,-26,-248,-22,71,-2
6615,-8,-28,-253,-25,73,0
6620,-5,-29,-254,-29,74,2
6625,-2,-29,-253,-32,73,2
6630,-4,-27,-255,-35,74,2
6635,-1,-27,-256,-33,75,3
6640,-7,-27,-251,-31,73,3
6645,-7,-27,-256,-30,71,4
6650,-6,-28,-253,-29,71,4
6655,-8,-26,-252,-28,71,2
6660,-6,-26,-254,-30,68,1
6665,-9,-27,-255,-33,69,1
6670,-6,-30,-248,-34,67,1
6675,-8,-23,-251,-35,65,0
6680,-6,-26,-255,-35,66,0
6685,-9,-24,-253,-36,65,0
6690,-7,-30,-253,-37,67,0
6695,-6,-29,-253,-37,68,-2
6700,-5,-30,-254,-34,71,-3
6705,-5,-25,-255,-29,71,-3
6710,-7,-25,-254,-25,71,0
6715,-8,-26,-250,-24,70,0
6720,-8,-27,-254,-26,68,3
6725,-6,-27,-247,-29,67,4
6730,-6,-24,-250,-32,66,5
6735,-4,-27,-253,-36,64,4
6740,-4,-28,-249,-42,65,2
6745,-4,-24,-253,-45,65,1
6750,-6,-27,-254,-43,66,1
6755,-2,-29,-253,-40,67,3
6760,-1,-27,-249,-39,68,5
6765,-6,-27,-251,-36,69,6
6770,-8,-22,-254,-37,72,9
6775,-9,-23,-255,-39,72,9
6780,-7,-23,-251,-43,72,7
6785,-4,-25,-251,-44,71,6
6790,-6,-26,-256,-42,69,4
6795,-6,-24,-253,-39,67,3
6800,-5,-24,-251,-38,64,0
6805,-3,-29,-255,-42,61,0
6810,-4,-25,-251,-47,58,-2
6815,-5,-29,-253,-49,56,-4
6820,-5,-24,-255,-45,56,-5
6825,-5,-26,-256,-40,59,-5
6830,-5,-25,-255,-33,63,-4
6835,-5,-29,-256,-27,65,-5
6840,-2,-27,-253,-25,65,-4
6845,-7,-25,-256,-24,66,-2
6850,-3,-27,-252,-23,71,-1
6855,-4,-26,-256,-24,73,-2
6860,-1,-26,-253,-24,72,-4
6865,-2,-26,-247,-26,71,-4
6870,-4,-23,-253,-24,71,-5
6875,-6,-24,-254,-22,72,-4
6880,-3,-25,-251,-19,70,-4
6885,-4,-24,-257,-14,71,-5
6890,-6,-27,-255,-12,69,-6
6895,-1,-25,-257,-8,70,-7
6900,-2,-25,-255,-8,71,-6
6905,-3,-24,-256,-9,73,-3
6910,-5,-24,-259,-11,74,-1
6915,-2,-23,-257,-11,76,1
6920,-5,-23,-260,-9,80,3
6925,-7,-22,-256,-8,82,6
6930,-4,-22,-257,-9,83,7
6935,-3,-25,-251,-9,83,9
6940,-9,-22,-255,-11,85,11
6945,-8,-21,-257,-13,84,10
6950,-5,-22,-252,-17,83,11
6955,-6,-21,-255,-18,83,12
6960,-8,-19,-252,-18,82,12
6965,-10,-20,-255,-19,81,10
6970,-10,-19,-252,-18,83,11
6975,-9,-20,-255,-16,84,8
6980,-7,-23,-253,-15,82,7
6985,-9,-24,-254,-17,82,7
6990,-3,-21,-253,-17,80,7
6995,-4,-21,-253,-18,76,10
7000,-4,-22,-252,-19,74,10
7005,-2,-22,-259,-20,73,12
7010,-8,-24,-256,-22,75,12
7015,-7,-23,-257,-20,79,9
7020,-2,-23,-253,-19,81,9
7025,-7,-20,-257,-20,80,10
7030,-7,-23,-256,-18,78,9
7035,-4,-22,-255,-17,74,8
7040,-7,-22,-251,-16,72,5
7045,-5,-24,-255,-16,69,4
7050,-6,-23,-255,-16,66,1
7055,-2,-22,-253,-15,65,1
7060,-4,-23,-254,-13,65,2
7065,-5,-22,-254,-11,67,2
7070,-3,-26,-258,-10,73,0
7075,-3,-23,-258,-8,80,-3
7080,-5,-23,-253,-8,83,-5
7085,-7,-24,-255,-8,84,-6
7090,-7,-24,-251,-10,83,-7
7095,-4,-23,-256,-10,78,-9
7100,-6,-22,-249,-11,70,-9
7105,0,-26,-253,-10,63,-10
7110,-1,-27,-254,-10,57,-11
7115,-1,-21,-254,-10,56,-11
7120,-2,-26,-255,-10,58,-13
7125,-3,-25,-254,-10,64,-13
7130,-7,-24,-255,-11,71,-12
7135,-1,-24,-254,-14,74,-13
7140,-6,-22,-251,-17,77,-14
7145,-3,-25,-252,-18,75,-14
7150,-4,-25,-253,-19,72,-14
7155,-2,-24,-252,-20,68,-14
7160,-1,-25,-256,-20,65,-14
7165,-4,-24,-254,-20,63,-13
7170,-2,-24,-255,-21,62,-15
7175,-3,-24,-261,-22,61,-14
7180,-4,-27,-256,-24,60,-15
7185,-3,-25,-257,-23,60,-12
7190,-6,-25,-256,-21,63,-11
7195,-3,-26,-258,-18,69,-9
7200,-7,-23,-258,-19,72,-8
7205,-5,-21,-256,-21,75,-8
7210,-4,-21,-260,-25,76,-9
7215,-3,-23,-257,-23,73,-7
7220,0,-24,-261,-19,70,-8
7225,-3,-24,-258,-13,67,-10
7230,-6,-24,-255,-11,64,-9
7235,-2,-24,-257,-14,62,-9
7240,-5,-22,-255,-18,63,-9
7245,-5,-23,-253,-24,64,-7
7250,-2,-23,-257,-28,65,-9
7255,-6,-22,-256,-31,65,-12
7260,-3,-24,-258,-30,67,-15
7265,-5,-23,-254,-33,69,-16
7270,-6,-23,-252,-39,68,-16
7275,-6,-22,-256,-48,64,-17
7280,-2,-26,-259,-54,61,-18
7285,0,-26,-260,-57,58,-15
7290,-2,-27,-259,-57,57,-14
7295,-5,-23,-260,-56,56,-13
7300,-5,-26,-262,-50,58,-14
7305,-4,-22,-262,-43,56,-16
7310,-1,-26,-259,-39,55,-17
7315,-3,-20,-256,-38,54,-17
7320,-3,-20,-254,-45,54,-16
7325,-7,-19,-253,-55,56,-14
7330,-4,-22,-255,-66,59,-15
7335,-2,-22,-255,-76,63,-15
7340,-3,-24,-254,-80,66,-17
7345,-3,-24,-255,-80,67,-18
7350,-2,-23,-256,-80,67,-18
7355,-2,-24,-258,-83,67,-19
7360,-5,-23,-258,-87,63,-20
7365,-3,-24,-259,-94,59,-21
7370,0,-24,-262,-99,55,-19
7375,-5,-24,-261,-103,54,-18
7380,-2,-22,-261,-104,53,-19
7385,0,-29,-265,-103,52,-18
7390,-2,-28,-267,-101,52,-19
7395,-6,-23,-262,-101,53,-21
7400,-3,-19,-264,-104,56,-19
7405,-4,-17,-264,-107,61,-18
7410,-3,-19,-261,-114,67,-16
7415,-5,-14,-262,-117,76,-16
7420,-1,-17,-260,-120,82,-16
7425,-2,-19,-259,-121,86,-18
7430,-3,-23,-263,-123,85,-17
7435,-3,-19,-258,-127,82,-18
7440,-4,-20,-256,-132,74,-19
7445,-2,-22,-256,-139,67,-20
7450,-3,-19,-253,-143,64,-19
7455,-6,-21,-259,-149,63,-20
7460,-6,-22,-255,-158,63,-22
7465,-6,-21,-256,-168,63,-24
7470,-5,-20,-257,-180,65,-25
7475,-4,-22,-260,-191,61,-24
7480,-1,-21,-255,-203,56,-20
7485,-2,-23,-258,-216,52,-17
7490,-6,-21,-260,-223,53,-12
7495,-3,-26,-260,-229,57,-8
7500,-6,-22,-258,-236,61,-8
7505,-6,-22,-259,-238,64,-6
7510,-5,-18,-260,-242,66,-7
7515,-2,-18,-262,-247,68,-8
7520,-6,-18,-259,-259,70,-9
7525,-5,-18,-257,-273,65,-11
7530,-7,-18,-261,-291,57,-11
7535,-10,-19,-262,-309,47,-12
7540,-8,-15,-265,-322,37,-13
7545,-8,-14,-263,-329,28,-14
7550,-9,-13,-266,-328,21,-18
7555,-8,-17,-266,-324,19,-19
7560,-8,-11,-267,-319,18,-21
7565,-9,-13,-267,-320,17,-23
7570,-11,-10,-264,-329,17,-25
7575,-10,-7,-267,-346,17,-29
7580,-3,-11,-265,-366,14,-31
7585,-4,-13,-267,-380,9,-33
7590,-6,-7,-268,-390,1,-36
7595,-7,-12,-265,-397,-9,-40
7600,-13,-10,-271,-401,-16,-43
7605,-6,-11,-273,-402,-22,-43
7610,-12,-4,-271,-412,-19,-39
7615,-12,-4,-270,-406,-20,-44
7620,-5,-8,-273,-399,-17,-48
7625,-3,-5,-273,-395,-15,-50
7630,-6,-6,-271,-396,-15,-52
7635,-4,-6,-274,-398,-20,-53
7640,-5,-8,-271,-400,-21,-52
7645,-7,-6,-269,-404,-20,-53
7650,-2,-10,-272,-406,-17,-52
7655,-6,-2,-274,-416,-14,-71
7660,-9,-3,-276,-412,-7,-60
7665,-5,-4,-276,-405,5,-52
7670,-4,0,-273,-399,10,-49
7675,-8,0,-272,-404,15,-40
7680,-7,0,-271,-402,12,-46
7685,-7,1,-273,-399,11,-47
7690,-6,4,-273,-395,8,-48
7695,-4,1,-275,-395,5,-50
7700,-4,1,-277,-396,2,-52
7705,-7,7,-276,-397,2,-54
7710,-6,6,-273,-397,6,-54
7715,-10,7,-275,-394,13,-57
7720,-6,8,-275,-390,22,-58
7725,-6,9,-275,-386,30,-60
7730,-6,7,-273,-382,38,-58
7735,-4,7,-275,-378,47,-53
7740,-6,8,-272,-373,57,-45
7745,-7,9,-272,-368,61,-42
7750,-8,9,-277,-361,61,-41
7755,-6,5,-272,-351,63,-42
7760,-10,7,-272,-336,68,-47
7765,-10,8,-280,-327,68,-46
7770,-8,8,-274,-317,68,-45
7775,-7,6,-277,-300,67,-43
7780,-3,9,-276,-282,68,-44
7785,-3,10,-275,-265,75,-45
7790,-1,17,-276,-250,83,-47
7795,-2,15,-275,-233,93,-44
7800,-10,16,-277,-220,100,-49
7805,-8,15,-277,-210,103,-54
7810,-10,15,-275,-201,100,-57
7815,-4,14,-274,-190,96,-62
7820,-3,21,-278,-173,97,-63
7825,-9,18,-282,-150,103,-65
7830,-7,17,-275,-120,113,-63
7835,-5,24,-273,-91,126,-61
7840,-6,19,-275,-64,141,-62
7845,-6,19,-273,-38,157,-53
7850,-1,18,-273,-19,172,-43
7855,-3,14,-275,3,184,-37
7860,-7,12,-272,30,189,-33
7865,-5,11,-269,57,188,-36
7870,-3,12,-267,83,184,-36
7875,-9,10,-266,105,183,-38
7880,-5,11,-267,132,177,-37
7885,-6,9,-265,164,174,-33
7890,-4,12,-268,194,168,-35
7895,-7,11,-267,215,164,-37
7900,-6,10,-269,233,159,-41
7905,-8,10,-269,255,155,-40
7910,-10,11,-267,277,150,-42
7915,-11,9,-268,303,151,-42
7920,-10,9,-264,326,152,-41
7925,-10,6,-263,348,152,-39
7930,-2,6,-265,375,149,-35
7935,-6,3,-264,408,147,-30
7940,-3,1,-271,462,145,-23
7945,-4,-1,-272,526,143,-22
7950,-4,-2,-269,598,146,-24
7955,0,-5,-264,669,145,-24
7960,-6,-1,-262,744,152,-22
7965,-3,-3,-262,800,155,-21
7970,-2,-4,-260,840,163,-22
7975,0,-4,-262,867,164,-18
7980,-5,5,-260,892,169,-19
7985,-7,5,-265,920,165,-12
7990,-8,-1,-261,952,158,-12
7995,-2,0,-266,977,149,-10
8000,-10,-1,-263,995,135,-10
8005,-8,-3,-262,1004,117,-13
8010,-8,0,-262,1012,99,-18
8015,-5,-5,-258,1011,87,-23
8020,-6,-4,-258,1007,79,-32
8025,-3,-10,-252,998,70,-34
8030,-3,-15,-256,991,60,-32
8035,-1,-17,-257,992,56,-33
8040,1,-21,-255,1004,52,-35
8045,-3,-22,-253,1021,54,-37
8050,0,-25,-253,1043,53,-35
8055,0,-30,-254,1063,49,-35
8060,-5,-24,-249,1076,49,-43
8065,-5,-27,-255,1084,54,-44
8070,-3,-27,-250,1088,61,-43
8075,-1,-33,-253,1092,70,-43
8080,-3,-31,-246,1096,78,-33
8085,-1,-37,-251,1103,86,-22
8090,-3,-37,-248,1104,90,-9
8095,-6,-38,-251,1102,88,0
8100,-5,-40,-252,1099,81,8
8105,-6,-41,-251,1096,67,18
8110,-5,-45,-249,1091,48,24
8115,-7,-41,-250,1084,32,25
8120,-5,-37,-250,1070,22,20
8125,-9,-41,-249,1050,18,10
8130,-4,-40,-247,1028,14,3
8135,-8,-44,-245,1007,11,0
8140,0,-44,-241,985,7,-6
8145,-6,-44,-245,958,4,-11
8150,0,-49,-243,935,1,-16
8155,-5,-50,-245,909,-5,-20
8160,-3,-51,-241,886,-10,-28
8165,-4,-54,-245,866,-12,-32
8170,-5,-60,-240,844,-8,-41
8175,-3,-64,-242,821,-2,-42
8180,-1,-65,-242,798,-1,-42
8185,-4,-64,-241,775,-6,-47
8190,-5,-70,-244,755,-12,-49
8195,-11,-71,-247,734,-20,-50
8200,-15,-76,-246,717,-29,-57
8205,-13,-79,-248,712,-39,-63
8210,-16,-79,-249,713,-47,-65
8215,-16,-83,-253,724,-55,-68
8220,-16,-82,-254,742,-58,-74
8225,-16,-85,-252,765,-55,-86
8230,-10,-89,-255,789,-54,-94
8235,-10,-90,-249,811,-51,-103
8240,-10,-92,-255,828,-48,-113
8245,-10,-89,-250,834,-48,-124
8250,-5,-92,-252,836,-45,-133
8255,-10,-90,-250,836,-40,-139
8260,-4,-96,-248,837,-35,-145
8265,-7,-95,-250,836,-27,-150
8270,-8,-93,-245,824,-17,-153
8275,-6,-93,-246,807,-8,-155
8280,-7,-93,-248,790,1,-155
8285,-11,-93,-243,775,8,-157
8290,-10,-97,-246,765,7,-159
8295,-13,-99,-244,760,5,-158
8300,-15,-98,-240,751,0,-158
8305,-16,-101,-241,748,-11,-159
8310,-20,-104,-243,748,-17,-162
8315,-18,-103,-240,750,-22,-167
8320,-16,-105,-243,753,-23,-173
8325,-17,-109,-240,754,-23,-177
8330,-15,-112,-241,759,-16,-180
8335,-17,-111,-237,765,-9,-175
8340,-18,-115,-236,770,-10,-165
8345,-15,-120,-237,778,-11,-162
8350,-19,-119,-243,777,-13,-162
8355,-14,-117,-233,771,-12,-159
8360,-9,-120,-231,771,-11,-155
8365,-4,-126,-232,770,-10,-145
8370,-9,-121,-233,770,-9,-133
8375,-11,-123,-230,763,-10,-125
8380,-8,-126,-229,759,-10,-119
8385,-8,-122,-229,755,-10,-108
8390,-6,-124,-230,755,-8,-105
8395,-7,-124,-232,757,-3,-100
8400,-7,-122,-230,755,-1,-95
8405,-8,-124,-228,745,2,-93
8410,-11,-126,-222,735,1,-95
8415,-8,-128,-225,722,-5,-99
8420,-8,-131,-223,713,-14,-98
8425,-14,-131,-227,705,-22,-95
8430,-11,-134,-227,698,-24,-98
8435,-9,-136,-229,691,-23,-97
8440,-10,-139,-227,693,-14,-97
8445,-13,-139,-230,698,1,-96
8450,-14,-139,-229,705,19,-93
8455,-12,-147,-225,716,35,-92
8460,-14,-141,-225,731,44,-91
8465,-11,-147,-224,751,48,-94
8470,-14,-146,-222,767,44,-93
8475,-12,-152,-218,782,38,-91
8480,-14,-153,-219,804,33,-90
8485,-16,-152,-213,823,28,-90
8490,-16,-152,-214,837,24,-88
8495,-17,-150,-215,850,20,-89
8500,-18,-153,-216,860,15,-83
8505,-20,-151,-214,871,8,-84
8510,-22,-151,-213,872,-1,-89
8515,-19,-154,-213,865,-10,-90
8520,-20,-153,-211,857,-14,-88
8525,-20,-155,-210,856,-19,-90
8530,-20,-151,-208,858,-22,-93
8535,-18,-151,-207,857,-26,-96
8540,-20,-152,-203,853,-33,-101
8545,-18,-151,-206,849,-38,-106
8550,-15,-155,-200,838,-35,-107
8555,-14,-151,-199,829,-29,-110
8560,-16,-151,-200,818,-17,-106
8565,-10,-156,-196,807,-3,-101
8570,-11,-155,-200,801,10,-101
8575,-12,-157,-201,789,25,-94
8580,-5,-158,-197,779,36,-89
8585,-5,-161,-203,774,46,-85
8590,-4,-163,-200,769,53,-83
8595,-5,-167,-201,771,60,-80
8600,-2,-170,-202,774,65,-75
8605,-3,-170,-199,778,69,-70
8610,-6,-175,-198,781,72,-68
8615,-9,-175,-205,788,73,-67
8620,-9,-175,-199,801,73,-66
8625,-10,-178,-195,814,72,-67
8630,-11,-178,-201,824,72,-68
8635,-11,-180,-194,832,73,-70
8640,-13,-180,-198,844,75,-70
8645,-15,-183,-194,860,76,-67
8650,-15,-181,-189,870,77,-64
8655,-17,-182,-191,882,73,-61
8660,-17,-182,-191,893,66,-63
8665,-15,-183,-188,902,61,-66
8670,-16,-184,-187,913,61,-67
8675,-17,-183,-187,924,66,-62
8680,-11,-184,-182,938,72,-63
8685,-16,-183,-179,946,78,-65
8690,-15,-186,-177,955,80,-64
8695,-13,-184,-177,962,82,-66
8700,-13,-184,-173,969,83,-68
8705,-14,-185,-175,972,82,-71
8710,-10,-183,-173,970,80,-71
8715,-9,-187,-173,967,79,-69
8720,-12,-185,-172,964,78,-68
8725,-9,-185,-175,961,78,-66
8730,-7,-184,-173,957,75,-63
8735,-6,-184,-169,955,77,-61
8740,-1,-183,-170,955,79,-60
8745,-5,-184,-171,956,78,-57
8750,-3,-188,-174,952,74,-56
8755,-5,-188,-170,948,68,-55
8760,2,-187,-171,947,62,-38
8765,-4,-192,-162,943,63,-25
8770,-2,-191,-165,929,64,-26
8775,-3,-190,-160,920,68,-26
8780,-2,-192,-160,911,73,-24
8785,0,-190,-160,901,81,-20
8790,0,-191,-156,888,91,-19
8795,-2,-191,-156,874,101,-17
8800,-2,-192,-155,862,106,-16
8805,-4,-189,-153,842,107,-15
8810,-3,-191,-152,820,99,-11
8815,-4,-195,-151,807,92,-8
8820,-3,-194,-149,801,81,-7
8825,-7,-195,-147,795,73,-6
8830,-8,-194,-150,790,70,-2
8835,-9,-195,-145,785,67,-1
8840,-5,-196,-147,781,71,1
8845,-8,-193,-146,779,75,3
8850,-10,-196,-147,769,79,4
8855,-11,-193,-141,757,85,5
8860,-11,-191,-147,747,90,5
8865,-9,-185,-144,739,92,7
8870,-3,-180,-148,730,88,9
8875,-8,-169,-143,717,85,2
8880,-15,-184,-115,722,85,-4
8885,-15,-193,-106,794,84,-1
8890,-12,-195,-117,902,81,7
8895,-15,-188,-122,951,84,5
8900,-12,-185,-129,926,85,-1
8905,-8,-188,-132,857,82,0
8910,-8,-189,-130,785,78,1
8915,-8,-192,-128,732,71,2
8920,-6,-200,-125,701,65,2
8925,-8,-200,-124,688,58,0
8930,-7,-201,-123,697,51,0
8935,-1,-205,-127,716,46,5
8940,-5,-202,-124,733,45,10
8945,-5,-203,-123,740,44,18
8950,-4,-202,-122,743,42,25
8955,-4,-203,-124,744,43,29
8960,-6,-204,-122,746,46,32
8965,-3,-203,-117,744,49,32
8970,0,-202,-120,741,51,31
8975,0,-202,-116,733,54,32
8980,0,-207,-119,725,59,32
8985,-1,-204,-118,721,64,30
8990,0,-208,-119,724,70,26
8995,-3,-201,-115,739,83,20
9000,1,-200,-113,764,96,13
9005,2,-204,-110,794,115,5
9010,3,-203,-107,827,135,2
9015,4,-202,-113,862,157,-3
9020,5,-202,-109,885,175,-10
9025,7,-200,-109,900,187,-17
9030,8,-197,-102,906,194,-24
9035,7,-195,-103,902,191,-24
9040,4,-195,-102,895,184,-23
9045,3,-196,-103,885,177,-25
9050,4,-192,-105,876,172,-24
9055,1,-188,-105,875,172,-14
9060,0,-186,-111,867,174,-6
9065,0,-186,-110,844,173,-2
9070,-3,-180,-110,809,176,3
9075,-3,-180,-107,770,183,13
9080,-4,-183,-105,731,201,23
9085,-1,-183,-103,696,223,33
9090,-2,-181,-103,667,243,41
9095,-1,-184,-100,642,256,49
9100,-2,-184,-99,618,261,51
9105,0,-184,-101,592,258,51
9110,0,-185,-106,566,249,45
9115,1,-184,-105,539,236,41
9120,1,-186,-109,509,220,37
9125,0,-188,-111,480,207,39
9130,-1,-189,-115,453,193,39
9135,-1,-195,-110,430,182,47
9140,0,-198,-109,412,175,49
9145,0,-204,-108,397,171,46
9150,0,-207,-104,383,170,43
9155,0,-215,-100,375,172,37
9160,-1,-216,-104,364,176,31
9165,-2,-222,-102,346,179,26
9170,-4,-223,-104,320,182,20
9175,-2,-228,-102,289,183,15
9180,-6,-231,-99,260,185,10
9185,-3,-235,-97,234,188,7
9190,-5,-240,-92,215,192,5
9195,-5,-246,-91,211,191,1
9200,-2,-248,-85,220,187,-1
9205,-1,-248,-87,238,181,-4
9210,-7,-252,-86,264,171,-5
9215,-8,-251,-84,294,164,-3
9220,-4,-254,-89,326,162,-4
9225,-5,-255,-89,355,166,-5
9230,0,-254,-91,385,174,-6
9235,1,-251,-93,410,187,-6
9240,2,-248,-93,424,198,-4
9245,6,-248,-93,430,209,2
9250,9,-245,-96,429,218,7
9255,5,-243,-92,426,224,13
9260,8,-241,-89,425,225,22
9265,7,-237,-89,423,226,32
9270,7,-235,-87,417,224,39
9275,8,-231,-85,406,219,41
9280,6,-231,-86,392,215,43
9285,5,-230,-85,365,212,47
9290,2,-231,-82,332,212,53
9295,-2,-227,-85,296,210,59
9300,-7,-230,-83,259,206,66
9305,-5,-231,-81,222,203,69
9310,-10,-234,-81,190,202,73
9315,-11,-235,-82,160,203,73
9320,-13,-235,-81,139,201,75
9325,-14,-234,-82,125,201,75
9330,-17,-236,-81,114,200,74
9335,-12,-235,-82,106,195,72
9340,-16,-232,-80,100,191,72
9345,-18,-230,-77,93,189,72
9350,-13,-231,-75,84,187,72
9355,-13,-233,-73,75,185,74
9360,-13,-235,-76,65,182,72
9365,-11,-233,-75,54,179,74
9370,-12,-236,-78,40,178,78
9375,-11,-238,-73,25,179,83
9380,-8,-238,-74,9,183,88
9385,-9,-241,-74,-5,189,93
9390,-9,-239,-76,-17,196,97
9395,-8,-241,-75,-24,200,100
9400,-7,-239,-77,-27,207,100
9405,-3,-243,-79,-28,214,99
9410,-5,-240,-77,-28,225,95
9415,-5,-242,-79,-28,239,93
9420,-5,-239,-78,-32,250,91
9425,-7,-242,-79,-36,252,91
9430,-11,-242,-78,-41,250,95
9435,-10,-244,-79,-44,244,96
9440,-12,-247,-77,-48,234,98
9445,-12,-248,-80,-57,224,99
9450,-13,-247,-78,-71,216,100
9455,-16,-249,-80,-89,208,100
9460,-15,-249,-80,-101,198,95
9465,-14,-248,-78,-109,189,90
9470,-16,-247,-77,-110,181,86
9475,-14,-248,-82,-106,175,79
9480,-16,-244,-79,-100,169,73
9485,-16,-244,-80,-94,165,67
9490,-16,-243,-77,-86,162,60
9495,-21,-241,-78,-82,158,52
9500,-20,-237,-78,-82,156,47
9505,-19,-241,-77,-86,153,40
9510,-22,-241,-79,-96,149,36
9515,-23,-240,-77,-115,142,34
9520,-24,-246,-81,-137,136,35
9525,-22,-248,-80,-159,127,34
9530,-21,-248,-79,-179,117,32
9535,-26,-249,-78,-191,107,31
9540,-23,-248,-79,-198,95,29
9545,-32,-245,-79,-194,82,26
9550,-18,-248,-81,-189,71,26
9555,-19,-257,-89,-185,62,23
9560,-19,-248,-90,-181,57,22
9565,-23,-253,-80,-179,56,25
9570,-13,-250,-84,-175,61,24
9575,-10,-254,-84,-168,63,27
9580,-8,-250,-80,-157,65,26
9585,-11,-249,-84,-139,65,23
9590,-8,-250,-85,-119,64,21
9595,-5,-247,-82,-97,63,22
9600,-7,-246,-81,-76,62,23
9605,-3,-243,-79,-62,65,26
9610,-2,-239,-78,-52,70,28
9615,-5,-241,-76,-51,75,27
9620,0,-240,-73,-62,79,29
9625,-1,-238,-73,-79,83,31
9630,-2,-238,-75,-99,82,33
9635,-3,-238,-78,-119,83,33
9640,-3,-236,-77,-137,83,34
9645,-7,-233,-75,-148,85,33
9650,-8,-236,-78,-154,90,31
9655,-9,-234,-80,-157,95,32
9660,-7,-236,-78,-162,99,35
9665,-8,-234,-81,-168,106,38
9670,-8,-241,-84,-183,116,37
9675,-10,-238,-83,-198,126,38
9680,-9,-244,-85,-212,135,38
9685,-11,-244,-86,-223,144,35
9690,-10,-246,-85,-227,152,32
9695,-15,-244,-85,-226,154,29
9700,-14,-249,-85,-220,155,29
9705,-19,-252,-81,-212,148,29
9710,-14,-254,-87,-201,136,28
9715,-17,-255,-91,-187,137,18
9720,-17,-255,-92,-168,149,23
9725,-15,-259,-87,-145,151,32
9730,-17,-257,-91,-120,134,33
9735,-12,-258,-89,-100,115,32
9740,-12,-252,-92,-82,104,26
9745,-14,-252,-95,-62,105,22
9750,-16,-251,-93,-40,109,22
9755,-14,-250,-95,-18,114,15
9760,-18,-249,-97,1,118,8
9765,-16,-250,-91,15,116,-3
9770,-19,-249,-95,29,111,-10
9775,-15,-249,-95,46,107,-18
9780,-16,-245,-88,61,104,-20
9785,-16,-246,-91,73,105,-18
9790,-10,-244,-86,83,102,-15
9795,-15,-241,-92,86,102,-14
9800,-11,-236,-87,81,100,-11
9805,-14,-231,-90,71,98,-10
9810,-10,-229,-85,58,99,-11
9815,-13,-235,-85,38,98,-12
9820,-14,-237,-87,15,97,-9
9825,-15,-239,-84,-9,97,-7
9830,-12,-238,-85,-25,95,-6
9835,-11,-239,-85,-37,92,-6
9840,-8,-242,-88,-46,87,-9
9845,-12,-237,-88,-53,83,-13
9850,-13,-241,-89,-58,82,-16
9855,-13,-239,-89,-62,80,-13
9860,-12,-240,-92,-59,77,-11
9865,-9,-242,-95,-51,74,-9
9870,-13,-241,-98,-38,69,-11
9875,-11,-240,-94,-26,66,-16
9880,-9,-243,-94,-19,64,-20
9885,-9,-242,-91,-10,62,-25
9890,-7,-244,-90,-5,58,-29
9895,-9,-243,-88,-4,55,-29
9900,-7,-246,-89,-2,51,-27
9905,-9,-246,-88,3,49,-28
9910,-8,-245,-90,9,49,-30
9915,-7,-241,-88,12,50,-33
9920,-5,-243,-92,14,53,-35
9925,-6,-243,-88,15,58,-38
9930,-7,-244,-89,12,62,-39
9935,-8,-240,-86,12,64,-41
9940,-11,-244,-88,11,68,-45
9945,-8,-242,-86,8,73,-46
9950,-10,-241,-90,2,76,-48
9955,-10,-244,-84,-5,80,-46
9960,-4,-243,-86,-15,84,-45
9965,-6,-244,-88,-23,85,-43
9970,-9,-244,-87,-30,85,-42
9975,-5,-243,-93,-36,83,-40
9980,-8,-245,-89,-38,82,-40
9985,-4,-247,-89,-35,81,-39
9990,-3,-245,-90,-31,81,-38
9995,-2,-242,-90,-24,80,-37
10000,0,-243,-89,-18,79,-36
10005,-4,-244,-85,-13,75,-36
10010,-5,-244,-88,-11,70,-35
10015,-8,-241,-87,-9,64,-36
10020,-7,-246,-87,-11,57,-35
10025,-9,-244,-87,-11,53,-32
10030,-9,-247,-85,-10,52,-32
10035,-8,-245,-88,-7,53,-28
10040,-10,-248,-88,-3,53,-26
10045,-5,-248,-89,2,54,-25
10050,-7,-243,-90,9,56,-23
10055,-10,-242,-89,14,57,-24
10060,-5,-245,-89,20,55,-24
10065,-6,-246,-89,27,53,-25
10070,-8,-243,-92,34,51,-27
10075,-8,-241,-91,37,48,-29
10080,-12,-241,-93,37,43,-30
10085,-7,-242,-94,37,40,-31
10090,-10,-244,-99,35,35,-31
10095,-9,-242,-92,33,34,-30
10100,-7,-244,-93,30,36,-27
10105,-10,-242,-91,27,37,-28
10110,-9,-242,-89,23,38,-25
10115,-7,-244,-94,22,39,-21
10120,-2,-242,-92,21,40,-18
10125,-3,-238,-90,21,43,-16
10130,-4,-241,-90,19,46,-16
10135,-5,-236,-88,15,47,-14
10140,-5,-238,-90,10,48,-15
10145,-6,-237,-88,4,47,-15
10150,-5,-239,-91,-3,47,-16
10155,-9,-239,-91,-12,46,-18
10160,-8,-241,-88,-20,47,-20
10165,-8,-239,-85,-26,49,-20
10170,-12,-241,-85,-31,51,-21
10175,-9,-241,-85,-34,52,-22
10180,-9,-243,-85,-36,54,-21
10185,-13,-244,-84,-36,56,-21
10190,-6,-245,-89,-34,60,-20
10195,-8,-245,-84,-30,65,-20
10200,-2,-243,-89,-22,71,-18
10205,-5,-245,-86,-16,79,-18
10210,-7,-246,-85,-9,87,-18
10215,-6,-242,-87,-4,95,-18
10220,-4,-243,-90,1,102,-18
10225,-8,-242,-87,1,104,-17
10230,-7,-247,-88,-3,105,-17
10235,-6,-245,-89,-6,104,-17
10240,-9,-245,-87,-11,102,-16
10245,-7,-242,-93,-16,97,-17
10250,-6,-240,-91,-23,94,-16
10255,-10,-241,-87,-28,89,-15
10260,-6,-241,-89,-31,83,-14
10265,-7,-246,-90,-31,76,-14
10270,-8,-244,-87,-27,70,-14
10275,-6,-244,-90,-23,66,-13
10280,-7,-244,-88,-19,62,-13
10285,-6,-247,-91,-16,58,-12
10290,-8,-243,-86,-14,59,-10
10295,-5,-248,-87,-16,61,-9
10300,-11,-245,-86,-17,63,-8
10305,-7,-248,-88,-18,66,-8
10310,-6,-247,-89,-19,69,-8
10315,-7,-248,-88,-17,71,-9
10320,-4,-247,-91,-13,71,-10
10325,-9,-247,-88,-8,72,-10
10330,-7,-245,-85,-5,72,-10
10335,-3,-246,-85,-3,72,-8
10340,-6,-245,-84,-2,73,-7
10345,-5,-242,-88,-2,72,-3
10350,-5,-244,-88,-3,73,-3
10355,-8,-242,-91,-2,72,-1
10360,-9,-240,-89,0,74,0
10365,-5,-243,-90,3,74,0
10370,-8,-242,-88,5,72,1
10375,-9,-244,-90,7,74,0
10380,-5,-246,-87,11,75,-1
10385,-9,-243,-86,15,76,-2
10390,-9,-245,-90,15,78,-4
10395,-5,-247,-87,13,75,-5
10400,-8,-244,-91,9,75,-4
10405,-8,-243,-88,7,77,-3
10410,-7,-242,-88,4,75,-2
10415,-4,-243,-87,4,75,-1
10420,-7,-243,-85,2,74,1
10425,-6,-243,-90,3,73,2
10430,-7,-245,-88,5,73,5
10435,-4,-244,-85,7,76,5
10440,-4,-244,-85,9,77,3
10445,-6,-242,-88,13,78,2
10450,-1,-246,-85,14,81,1
10455,-3,-248,-86,16,83,-1
10460,-1,-244,-91,17,84,-1
10465,-4,-246,-90,17,85,-2
10470,-5,-245,-87,14,85,-3
10475,-5,-242,-87,12,84,-3
10480,-3,-246,-88,11,85,-4
10485,-9,-243,-87,9,84,-4
10490,-10,-241,-84,9,85,-3
10495,-10,-243,-89,8,86,-1
10500,-10,-241,-86,8,85,-2
10505,-7,-245,-82,10,86,-1
10510,-8,-246,-88,13,87,0
10515,-9,-245,-86,13,88,0
10520,-6,-242,-84,12,89,1
10525,-7,-245,-88,12,89,2
10530,-7,-245,-87,10,92,4
10535,-6,-247,-86,8,91,6
10540,-7,-249,-86,3,90,5
10545,-6,-247,-85,-1,88,7
10550,-7,-249,-86,0,86,7
10555,-3,-247,-85,2,84,7
10560,-7,-246,-87,3,81,4
10565,-4,-248,-86,7,78,4
10570,-8,-247,-84,11,76,2
10575,-10,-242,-83,14,76,0
10580,-8,-245,-88,15,77,-1
10585,-6,-245,-87,17,79,-3
10590,-7,-243,-87,19,82,-1
10595,-5,-241,-85,20,84,-2
10600,-5,-245,-84,22,87,-2
10605,-5,-245,-87,23,92,-2
10610,-7,-248,-85,23,95,-4
10615,-4,-248,-85,24,96,-4
10620,-3,-248,-85,23,97,-5
10625,-4,-248,-86,22,98,-4
10630,-5,-248,-83,22,97,-4
10635,-9,-245,-85,21,94,-4
10640,-8,-247,-85,24,92,-3
10645,-6,-245,-84,29,91,-4
10650,-3,-247,-85,34,90,-4
10655,-6,-244,-85,40,88,-4
10660,-6,-244,-85,41,85,-2
10665,-9,-246,-85,45,85,-2
10670,-8,-243,-83,45,86,0
10675,-8,-245,-85,43,89,-1
10680,-4,-245,-86,40,92,1
10685,-6,-245,-85,36,92,2
10690,-10,-240,-84,27,94,2
10695,-13,-246,-80,20,96,3
10700,-6,-245,-88,13,99,4
10705,-7,-245,-83,11,104,4
10710,-4,-244,-84,9,107,7
10715,-6,-243,-85,11,111,9
10720,-6,-243,-86,12,112,12
10725,-4,-246,-85,16,111,14
10730,-6,-245,-85,17,107,13
10735,-8,-245,-84,17,102,12
10740,-4,-243,-83,16,97,11
10745,-5,-247,-88,14,94,10
10750,-2,-243,-84,12,90,10
10755,-4,-246,-87,11,89,10
10760,-1,-245,-86,14,88,9
10765,-4,-244,-85,19,92,8
10770,-5,-243,-85,25,94,9
10775,-6,-245,-85,29,96,9
10780,-6,-242,-81,30,99,9
10785,-6,-245,-83,25,101,8
10790,-4,-245,-83,19,105,9
10795,-6,-247,-82,11,107,8
10800,-6,-243,-84,4,105,7
10805,-7,-245,-82,-1,101,10
10810,-8,-244,-85,-4,96,11
10815,-8,-244,-84,-8,88,11
10820,-4,-247,-84,-8,81,12
10825,-11,-243,-84,-7,73,12
10830,-8,-246,-84,-5,65,13
10835,-8,-246,-83,0,62,13
10840,-6,-246,-82,5,60,14
10845,-7,-247,-81,9,59,14
10850,-9,-247,-82,10,59,12
10855,-8,-246,-79,10,60,12
10860,-6,-249,-80,9,58,10
10865,-9,-248,-82,8,58,8
10870,-11,-248,-83,7,58,5
10875,-7,-246,-87,8,60,2
10880,-9,-241,-84,11,61,1
10885,-8,-246,-89,13,59,2
10890,-7,-243,-85,18,56,1
10895,-4,-242,-89,22,52,0
10900,-9,-242,-83,27,48,1
10905,-3,-244,-86,31,44,0
10910,-5,-245,-84,35,38,1
10915,-6,-244,-84,36,37,1
10920,-3,-246,-82,40,37,0
10925,-6,-246,-82,42,39,1
10930,-4,-248,-81,42,40,0
10935,-3,-249,-82,40,46,0
10940,-7,-248,-81,40,51,0
10945,-4,-248,-82,37,54,2
10950,-6,-248,-81,30,56,1
10955,-2,-243,-79,28,59,0
10960,-6,-245,-81,26,59,-1
10965,-6,-246,-78,22,59,0
10970,-7,-245,-80,18,60,1
10975,-1,-242,-78,15,61,1
10980,-10,-242,-79,11,60,4
10985,-8,-242,-80,5,60,4
10990,-4,-245,-82,1,60,6
10995,-4,-241,-81,-3,61,8
11000,-6,-245,-79,-8,61,8
11005,-6,-244,-82,-12,61,9
11010,1,-243,-87,-12,61,11
11015,-5,-248,-80,-10,64,13
11020,-4,-246,-84,-8,66,15
11025,-6,-245,-82,-4,69,16
11030,-6,-245,-83,-3,70,16
11035,-5,-247,-81,-2,71,13
11040,-7,-247,-80,-2,71,13
11045,-8,-246,-82,0,71,13
11050,-3,-247,-83,2,71,14
11055,-8,-247,-83,5,69,13
11060,-7,-247,-84,6,67,12
11065,-6,-248,-84,7,65,12
11070,-6,-248,-83,10,65,9
11075,-5,-247,-81,11,65,7
11080,-1,-245,-83,15,65,6
11085,-6,-241,-82,21,66,6
11090,-4,-243,-81,26,69,5
11095,-6,-242,-81,30,73,7
11100,-3,-245,-83,30,77,5
11105,-4,-242,-84,24,81,7
11110,-2,-244,-82,16,84,6
11115,-5,-243,-79,4,85,7
11120,-6,-246,-83,-7,83,7
11125,-6,-245,-82,-14,79,6
11130,-10,-245,-81,-17,77,5
11135,-1,-247,-79,-16,75,8
11140,-4,-246,-83,-11,73,8
11145,-10,-243,-82,-6,74,9
11150,-4,-244,-83,-2,75,8
11155,-9,-246,-82,2,79,11
11160,-7,-247,-79,5,81,12
11165,-10,-245,-82,3,82,14
11170,-7,-246,-75,-1,86,15
11175,-6,-246,-78,-4,87,16
11180,-7,-245,-83,-7,87,14
11185,-8,-247,-79,-9,88,13
11190,-11,-247,-80,-9,87,13
11195,-11,-246,-83,-6,86,13
11200,-8,-248,-83,-6,85,12
11205,-8,-248,-80,-3,85,12
11210,-9,-246,-82,3,85,12
11215,-8,-246,-77,6,87,12
11220,-9,-245,-82,5,87,12
11225,-8,-245,-80,4,86,11
11230,-9,-246,-84,4,86,13
11235,-9,-246,-81,3,87,11
11240,-9,-246,-79,2,90,9
11245,-6,-247,-78,1,93,11
11250,-8,-248,-80,3,95,11
11255,-8,-247,-80,6,98,9
11260,-9,-246,-79,9,100,10
11265,-7,-247,-77,8,102,11
11270,-4,-245,-80,11,102,12
11275,-6,-242,-76,8,103,13
11280,-7,-245,-75,6,103,14
11285,-4,-247,-75,4,102,15
11290,-6,-245,-74,-1,100,18
11295,-5,-247,-81,-3,99,18
11300,-5,-248,-76,-6,99,19
11305,-8,-248,-78,-7,96,19
11310,-10,-247,-76,-8,94,20
11315,-10,-243,-77,-7,93,20
11320,-10,-250,-78,-6,93,19
11325,-9,-248,-78,-6,92,18
11330,-8,-247,-77,-4,93,17
11335,-10,-246,-77,-5,96,16
11340,-5,-246,-78,-5,99,18
11345,-5,-245,-82,-6,101,18
11350,-3,-248,-78,-9,101,17
11355,-7,-246,-77,-17,102,15
11360,-8,-247,-84,-26,103,13
11365,-8,-247,-80,-34,100,12
11370,-10,-246,-78,-43,98,12
11375,-8,-248,-79,-45,96,15
11380,-12,-247,-81,-45,95,16
11385,-8,-246,-76,-41,93,17
11390,-9,-249,-79,-35,93,16
11395,-10,-247,-81,-29,92,16
11400,-11,-247,-76,-22,91,15
11405,-8,-247,-77,-17,90,16
11410,-8,-247,-77,-16,90,16
11415,-6,-248,-78,-13,91,14
11420,-9,-249,-76,-14,93,15
11425,-8,-247,-80,-15,95,14
11430,-9,-246,-78,-17,94,15
11435,-11,-248,-77,-21,94,15
11440,-6,-248,-80,-22,90,14
11445,-8,-248,-82,-22,89,13
11450,-11,-246,-79,-21,87,15
11455,-8,-248,-81,-17,88,14
11460,-10,-248,-78,-12,88,14
11465,-7,-247,-79,-6,90,11
11470,-8,-247,-77,0,90,10
11475,-10,-248,-78,2,92,10
11480,-9,-246,-80,3,94,8
11485,-8,-246,-78,2,95,9
11490,-10,-245,-79,1,98,9
11495,-10,-246,-74,1,101,9
11500,-9,-245,-79,0,103,10
11505,-9,-245,-78,-2,105,10
11510,-7,-247,-77,-3,106,8
11515,-10,-247,-76,-2,109,10
11520,-6,-248,-78,0,112,10
11525,-6,-247,-77,0,112,10
11530,-10,-246,-80,-1,111,10
11535,-5,-247,-80,0,109,9
11540,-9,-245,-77,-3,106,8
11545,-5,-248,-77,-6,106,9
11550,-6,-246,-77,-9,105,9
11555,-8,-247,-76,-13,105,9
11560,-6,-246,-74,-17,106,9
11565,-6,-245,-78,-19,106,9
11570,-9,-246,-83,-21,109,9
11575,-5,-246,-81,-23,110,8
11580,-8,-247,-79,-25,110,7
11585,-8,-247,-78,-25,111,5
11590,-10,-247,-80,-24,111,4
11595,-9,-248,-75,-23,110,4
11600,-6,-247,-75,-20,110,4
11605,-12,-247,-82,-18,109,5
11610,-9,-246,-81,-15,108,3
11615,-10,-248,-80,-13,108,4
11620,-12,-246,-83,-12,106,3
11625,-11,-247,-82,-11,103,2
11630,-10,-247,-74,-11,102,2
11635,-9,-245,-78,-10,103,1
11640,-9,-247,-78,-12,102,0
11645,-9,-248,-78,-14,101,0
11650,-5,-248,-78,-17,102,-1
11655,-9,-247,-76,-21,102,-1
11660,-7,-247,-80,-24,103,-1
11665,-11,-246,-80,-28,105,0
11670,-8,-247,-78,-29,107,1
11675,-2,-247,-77,-28,111,1
11680,-8,-248,-80,-23,116,0
11685,-10,-246,-80,-19,118,-2
11690,-8,-247,-80,-13,119,-1
11695,-6,-247,-82,-6,117,-1
11700,-7,-248,-80,2,117,-1
11705,-8,-248,-77,7,114,-2
11710,-4,-248,-80,14,109,-3
11715,-6,-248,-77,18,105,-4
11720,-6,-247,-80,21,100,-3
11725,-8,-247,-81,23,97,-4
11730,-7,-244,-77,20,91,-4
11735,-7,-247,-78,19,86,-5
11740,-7,-244,-80,18,83,-3
11745,-9,-245,-80,16,81,-1
11750,-8,-246,-80,13,78,-1
11755,-11,-247,-79,14,80,0
11760,-11,-247,-78,13,79,0
11765,-11,-247,-77,15,80,0
11770,-11,-247,-80,14,82,-1
11775,-12,-245,-80,12,82,-2
11780,-9,-244,-83,10,84,-2
11785,-11,-245,-82,7,83,-2
11790,-10,-245,-78,4,85,-4
11795,-12,-245,-77,3,84,-2
11800,-9,-247,-78,3,84,-3
11805,-10,-246,-79,5,83,-2
11810,-10,-245,-79,7,82,-2
11815,-10,-249,-81,8,84,-1
11820,-6,-247,-77,9,86,-3
11825,-10,-245,-74,12,87,-4
11830,-4,-246,-78,12,88,-3
11835,-10,-247,-80,11,89,-3
11840,-9,-248,-77,10,87,-3
11845,-10,-248,-77,8,86,-5
11850,-7,-248,-77,6,84,-3
11855,-6,-247,-82,1,81,-3
11860,-11,-246,-78,0,78,-1
11865,-8,-249,-77,0,76,-1
11870,-9,-248,-77,2,75,-2
11875,-9,-245,-77,4,73,-1
11880,-10,-247,-80,8,73,-2
11885,-10,-246,-79,11,71,-3
11890,-12,-247,-75,12,71,-5
11895,-8,-246,-79,12,71,-4
11900,-9,-246,-78,13,72,-2
11905,-10,-246,-77,10,74,-2
11910,-6,-247,-82,7,75,-1
11915,-7,-246,-78,2,77,-2
11920,-9,-244,-76,-1,79,-2
11925,-4,-243,-78,-5,78,-2
11930,-10,-245,-78,-10,80,-2
11935,-9,-243,-77,-16,79,-3
11940,-10,-242,-80,-23,78,-4
11945,-10,-244,-75,-31,75,-5
11950,-7,-243,-77,-39,73,-4
11955,-12,-244,-79,-46,72,-5
11960,-12,-243,-79,-49,70,-4
11965,-10,-245,-81,-53,69,-4
11970,-10,-243,-80,-54,66,-5
11975,-11,-245,-77,-57,68,-6
11980,-11,-245,-78,-58,69,-7
11985,-6,-247,-81,-59,68,-5
11990,-9,-247,-78,-57,70,-5
11995,-10,-246,-81,-54,72,-6
