timestamp,acc_x,acc_y,acc_z,gyro_x,gyro_y,gyro_z
0,-11,-250,-60,-2,79,6
5,-12,-251,-57,-1,78,4
10,-9,-250,-57,-2,78,7
15,-10,-247,-65,-3,79,4
20,-10,-254,-59,-6,78,6
25,-6,-249,-59,-7,76,3
30,-9,-250,-60,-10,76,5
35,-11,-247,-63,-12,73,2
40,-12,-246,-58,-16,72,6
45,-9,-250,-56,-20,73,3
50,-9,-248,-62,-23,74,7
55,-9,-248,-63,-26,76,4
60,-12,-248,-60,-27,76,7
65,-13,-249,-63,-27,76,4
70,-8,-250,-57,-27,77,8
75,-9,-245,-64,-26,76,7
80,-10,-249,-61,-24,78,9
85,-9,-250,-59,-19,77,4
90,-12,-246,-59,-16,74,7
95,-9,-248,-60,-14,73,2
100,-11,-248,-59,-14,72,2
105,-11,-248,-57,-15,73,0
110,-11,-247,-59,-16,72,1
115,-11,-248,-59,-16,74,-2
120,-10,-248,-63,-18,74,-1
125,-10,-248,-59,-20,74,-5
130,-14,-252,-63,-19,74,-1
135,-11,-249,-60,-19,73,-3
140,-12,-250,-62,-21,74,0
145,-9,-250,-65,-20,75,-2
150,-9,-249,-62,-23,76,2
155,-10,-250,-62,-23,76,0
160,-10,-248,-60,-24,76,4
165,-10,-247,-58,-24,75,3
170,-12,-247,-63,-23,75,5
175,-10,-250,-63,-23,74,3
180,-8,-250,-62,-20,73,7
185,-11,-250,-61,-17,72,5
190,-10,-250,-58,-16,72,6
195,-11,-251,-55,-13,73,2
200,-8,-252,-61,-12,73,4
205,-10,-252,-61,-12,74,0
210,-9,-252,-60,-12,76,2
215,-10,-253,-59,-11,79,-1
220,-11,-252,-60,-10,79,0
225,-10,-255,-61,-12,79,-3
230,-12,-253,-62,-11,79,0
235,-14,-253,-61,-10,77,-4
240,-7,-248,-51,-9,77,-1
245,-14,-251,-54,-7,78,-4
250,-9,-254,-60,-5,78,-2
255,-10,-254,-56,-1,81,-3
260,-14,-252,-56,1,81,-1
265,-12,-251,-57,4,83,-4
270,-14,-250,-54,8,82,-1
275,-11,-256,-58,9,80,-5
280,-13,-248,-54,9,80,-1
285,-9,-252,-57,8,76,-3
290,-14,-250,-57,8,73,-1
295,-13,-251,-54,7,73,-2
300,-12,-251,-59,5,72,0
305,-9,-251,-55,5,70,-2
310,-12,-249,-57,2,70,1
315,-12,-249,-56,-3,70,-2
320,-11,-250,-57,-5,72,1
325,-8,-252,-54,-8,75,-2
330,-12,-249,-58,-9,77,0
335,-14,-253,-55,-11,78,-2
340,-13,-250,-56,-12,78,0
345,-10,-252,-58,-13,75,-4
350,-1,-238,-53,-15,73,0
355,-10,-247,-54,-16,71,-3
360,-11,-250,-55,-16,69,-2
365,-9,-252,-57,-17,68,-3
370,-7,-250,-59,-17,65,-2
375,-11,-251,-59,-19,66,-4
380,-13,-251,-61,-19,64,-1
385,-12,-251,-58,-21,63,-3
390,-12,-249,-58,-24,63,0
395,-13,-248,-57,-25,63,-4
400,-13,-251,-58,-26,64,0
405,-11,-253,-60,-27,67,-2
410,-12,-249,-59,-27,69,0
415,-12,-251,-56,-26,71,-2
420,-11,-252,-56,-22,72,0
425,-11,-253,-57,-19,73,-3
430,-12,-252,-55,-15,73,-2
435,-12,-249,-57,-13,71,-4
440,-11,-252,-59,-12,71,-2
445,-11,-248,-59,-11,70,-5
450,-10,-252,-61,-14,69,-3
455,-13,-249,-60,-16,69,-5
460,-9,-253,-59,-20,68,-5
465,-12,-250,-61,-22,69,-7
470,-13,-249,-60,-23,68,-5
475,-10,-252,-60,-24,67,-8
480,-11,-250,-57,-23,67,-4
485,-13,-249,-63,-19,66,-6
490,-9,-250,-56,-18,67,-4
495,-11,-249,-56,-17,66,-5
500,-10,-253,-55,-16,66,-3
505,-10,-252,-58,-14,66,-4
510,-10,-250,-60,-15,65,-1
515,-11,-250,-57,-17,66,-4
520,-12,-251,-57,-17,64,-2
525,-10,-248,-58,-18,65,-4
530,-10,-249,-59,-21,63,-2
535,-11,-252,-59,-21,60,-4
540,-9,-250,-57,-24,59,-1
545,-11,-250,-62,-27,58,-4
550,-13,-251,-57,-28,58,-1
555,-14,-249,-60,-29,58,-4
560,-10,-251,-56,-29,60,-1
565,-12,-254,-66,-29,61,-5
570,-10,-250,-62,-28,63,-2
575,-12,-251,-60,-26,62,-5
580,-11,-252,-59,-23,65,-3
585,-10,-250,-59,-21,67,-5
590,-14,-248,-55,-20,68,-3
595,-12,-247,-61,-20,70,-6
600,-10,-249,-60,-22,68,-3
605,-9,-250,-61,-24,68,-6
610,-10,-246,-57,-27,67,-3
615,-13,-247,-59,-30,64,-5
620,-10,-251,-58,-32,61,-1
625,-12,-251,-58,-35,59,-4
630,-10,-251,-59,-37,55,0
635,-11,-249,-59,-39,52,-3
640,-13,-251,-62,-42,47,1
645,-11,-250,-60,-43,44,-1
650,-11,-250,-59,-43,41,1
655,-13,-254,-62,-42,41,0
660,-9,-250,-61,-38,42,3
665,-12,-251,-60,-32,44,2
670,-11,-251,-59,-31,46,3
675,-15,-252,-51,-27,48,0
680,-10,-255,-56,-24,53,2
685,-12,-251,-58,-22,56,0
690,-13,-249,-58,-21,61,1
695,-10,-251,-62,-21,65,-1
700,-12,-248,-57,-23,69,-1
705,-11,-251,-61,-27,69,-4
710,-12,-251,-60,-29,69,-4
715,-9,-251,-62,-30,69,-6
720,-12,-251,-60,-31,67,-6
725,-11,-251,-59,-30,66,-7
730,-13,-250,-61,-30,63,-5
735,-13,-250,-61,-28,62,-8
740,-12,-249,-61,-27,61,-6
745,-10,-252,-61,-24,58,-8
750,-12,-247,-58,-25,55,-5
755,-13,-248,-60,-24,54,-7
760,-13,-247,-62,-25,53,-5
765,-12,-250,-60,-23,52,-7
770,-9,-248,-59,-24,51,-3
775,-14,-248,-61,-26,50,-6
780,-11,-249,-64,-28,49,-3
785,4,-238,-76,-29,50,-6
790,-11,-249,-60,-30,52,-2
795,-11,-248,-61,-31,49,-6
800,-8,-250,-61,-32,48,0
805,-14,-248,-61,-33,50,-3
810,-12,-249,-60,-33,51,-1
815,-11,-247,-59,-35,52,-3
820,-12,-248,-57,-34,52,-1
825,-12,-250,-59,-34,53,-4
830,-12,-250,-61,-33,53,-3
835,-12,-253,-61,-31,53,-6
840,-9,-252,-60,-29,54,-4
845,-12,-250,-61,-24,55,-6
850,-11,-250,-59,-23,56,-3
855,-13,-252,-60,-21,58,-7
860,-13,-250,-61,-22,59,-4
865,-15,-248,-59,-23,58,-7
870,-11,-253,-59,-23,59,-6
875,-11,-250,-62,-23,58,-8
880,-11,-251,-60,-25,59,-5
885,-13,-250,-63,-25,59,-7
890,-12,-249,-61,-27,57,-5
895,-15,-250,-59,-27,58,-7
900,-11,-249,-60,-28,57,-5
905,-11,-249,-58,-29,56,-6
910,-12,-247,-61,-29,55,-5
915,-10,-251,-59,-28,55,-7
920,-10,-249,-58,-26,53,-4
925,-9,-249,-58,-25,51,-7
930,-11,-253,-57,-24,51,-4
935,-12,-248,-61,-24,50,-7
940,-11,-246,-59,-25,52,-4
945,-11,-247,-64,-25,54,-4
950,-11,-250,-60,-25,54,-2
955,-10,-251,-59,-26,55,-6
960,-12,-250,-61,-27,55,-3
965,-10,-248,-60,-30,57,-5
970,-10,-251,-64,-31,56,-4
975,-13,-249,-63,-31,55,-6
980,-11,-250,-63,-32,57,-4
985,-9,-253,-61,-31,57,-8
990,-12,-250,-61,-30,57,-6
995,-11,-248,-60,-30,56,-6
1000,-9,-248,-61,-30,57,-4
1005,-9,-246,-67,-29,56,-6
1010,-12,-248,-63,-27,57,-4
1015,-11,-250,-61,-25,59,-6
1020,-9,-251,-60,-23,59,-3
1025,-13,-251,-61,-20,59,-5
1030,-8,-250,-63,-21,59,-3
1035,-13,-249,-63,-21,60,-6
1040,-9,-249,-66,-23,60,-4
1045,-12,-249,-62,-24,59,-5
1050,-12,-249,-65,-26,57,-3
1055,-10,-250,-61,-30,57,-3
1060,-10,-250,-64,-32,54,-1
1065,-13,-248,-55,-34,56,-3
1070,-13,-249,-64,-36,56,1
1075,-10,-249,-62,-38,57,-3
1080,-10,-251,-61,-37,57,0
1085,-13,-251,-59,-37,57,-3
1090,-14,-250,-59,-36,58,0
1095,-12,-249,-62,-34,59,-3
1100,-14,-248,-64,-32,60,0
1105,-11,-248,-63,-29,61,-3
1110,-10,-252,-36,-26,58,-1
1115,-13,-251,-62,-26,57,-1
1120,-13,-248,-61,-27,57,-2
1125,-11,-249,-65,-28,55,-3
1130,-12,-252,-63,-28,56,0
1135,-12,-251,-63,-29,57,-3
1140,-9,-249,-62,-30,57,-1
1145,-13,-250,-65,-33,57,-4
1150,-16,-248,-65,-34,56,-2
1155,-14,-248,-62,-35,54,-4
1160,-12,-249,-64,-35,56,-3
1165,-11,-251,-62,-34,56,-5
1170,-14,-250,-59,-32,55,-2
1175,-11,-250,-61,-32,54,-6
1180,-14,-249,-63,-32,52,-4
1185,-12,-251,-64,-30,52,-7
1190,-12,-251,-64,-31,54,-4
1195,-13,-250,-63,-31,55,-7
1200,-12,-248,-58,-32,55,-4
1205,-11,-247,-61,-30,56,-7
1210,-10,-253,-60,-29,55,-4
1215,-10,-250,-62,-30,54,-6
1220,-7,-247,-65,-29,55,-3
1225,-11,-249,-64,-29,56,-4
1230,-10,-247,-62,-29,57,-2
1235,-8,-251,-64,-29,56,-3
1240,-12,-249,-57,-28,57,-1
1245,-11,-250,-63,-28,58,-3
1250,-9,-250,-67,-27,56,-2
1255,-12,-251,-65,-26,55,-4
1260,-10,-249,-62,-27,58,-2
1265,-8,-249,-66,-27,58,-5
1270,-12,-247,-62,-27,60,-3
1275,-15,-247,-62,-26,60,-4
1280,-11,-249,-63,-27,61,-4
1285,-12,-247,-63,-29,62,-6
1290,-12,-250,-63,-28,61,-4
1295,-9,-250,-61,-30,61,-7
1300,-8,-249,-61,-31,63,-4
1305,-12,-249,-64,-32,64,-5
1310,-11,-249,-65,-30,64,-3
1315,-14,-251,-61,-30,67,-6
1320,-13,-251,-60,-31,67,-5
1325,-9,-250,-61,-29,68,-6
1330,-19,-256,-52,-28,68,-5
1335,-14,-250,-68,-28,70,-5
1340,-15,-246,-63,-28,72,-5
1345,-13,-251,-63,-26,72,-7
1350,-13,-249,-66,-23,73,-6
1355,-14,-250,-64,-24,73,-6
1360,-12,-249,-64,-22,75,-5
1365,-9,-249,-62,-20,77,-7
1370,-11,-249,-68,-20,77,-5
1375,-12,-250,-62,-19,77,-7
1380,-11,-249,-65,-18,76,-5
1385,-13,-251,-60,-20,73,-7
1390,-12,-247,-64,-20,69,-4
1395,-12,-249,-64,-24,66,-5
1400,-13,-248,-64,-25,63,-4
1405,-13,-247,-61,-28,61,-3
1410,-13,-249,-68,-29,60,-1
1415,-13,-250,-59,-30,62,-3
1420,-13,-247,-62,-30,62,-2
1425,-12,-249,-62,-29,63,-3
1430,-14,-248,-60,-28,65,0
1435,-10,-251,-59,-28,65,-2
1440,-4,-251,-74,-29,68,-1
1445,-12,-254,-61,-28,69,-4
1450,-11,-251,-63,-29,70,-3
1455,-12,-248,-65,-28,72,-4
1460,-13,-248,-64,-28,72,-2
1465,-13,-250,-63,-28,73,-4
1470,-12,-250,-65,-32,73,-4
1475,-15,-248,-65,-32,72,-5
1480,-15,-247,-64,-33,71,-4
1485,-14,-247,-64,-32,67,-5
1490,-14,-246,-60,-31,66,-3
1495,-11,-250,-65,-29,65,-4
1500,-10,-250,-65,-24,63,-1
1505,-12,-248,-63,-21,62,-3
1510,-12,-251,-63,-20,61,-2
1515,-11,-248,-66,-17,60,-3
1520,-12,-246,-64,-17,59,-1
1525,-11,-247,-66,-17,58,-1
1530,-11,-249,-62,-18,58,1
1535,-11,-249,-63,-21,58,-1
1540,-14,-249,-64,-26,55,0
1545,-11,-249,-61,-29,56,-3
1550,-11,-249,-58,-32,55,-1
1555,-13,-248,-65,-35,54,-2
1560,-13,-249,-64,-35,53,-1
1565,-11,-248,-65,-35,53,-2
1570,-12,-249,-61,-31,52,-1
1575,-13,-249,-64,-29,52,-2
1580,-13,-249,-64,-28,53,-2
1585,-13,-250,-63,-24,54,-3
1590,-14,-250,-62,-22,55,-2
1595,-15,-250,-64,-22,56,-4
1600,-14,-250,-62,-21,57,-3
1605,-14,-248,-62,-21,58,-5
1610,-12,-249,-67,-22,59,-3
1615,-14,-247,-66,-24,60,-5
1620,-13,-249,-64,-23,60,-2
1625,-13,-249,-65,-24,61,-3
1630,-14,-249,-65,-26,60,-2
1635,-12,-248,-64,-27,57,-4
1640,-12,-248,-60,-27,53,-3
1645,-13,-246,-65,-27,53,-5
1650,-12,-248,-65,-27,51,-4
1655,-16,-246,-65,-26,49,-6
1660,-12,-246,-63,-26,50,-5
1665,-15,-252,-66,-25,49,-7
1670,-12,-249,-64,-23,51,-6
1675,-13,-250,-64,-22,52,-7
1680,-12,-250,-64,-20,53,-6
1685,-12,-249,-65,-19,53,-7
1690,-12,-250,-65,-20,54,-7
1695,-12,-250,-62,-22,52,-8
1700,-11,-248,-62,-23,54,-7
1705,-10,-252,-65,-23,55,-9
1710,-11,-247,-67,-25,55,-7
1715,-14,-248,-67,-26,57,-9
1720,-12,-249,-63,-27,56,-7
1725,-11,-250,-63,-29,58,-8
1730,-7,-250,-64,-31,58,-7
1735,-12,-248,-65,-30,57,-8
1740,-12,-251,-63,-28,57,-7
1745,-12,-250,-63,-28,57,-7
1750,-11,-252,-61,-26,57,-5
1755,-10,-249,-65,-25,56,-6
1760,-12,-250,-62,-23,56,-5
1765,-10,-249,-71,-23,56,-5
1770,-12,-249,-69,-21,55,-4
1775,-12,-249,-64,-21,55,-5
1780,-11,-249,-69,-21,53,-5
1785,-10,-250,-61,-23,52,-5
1790,-13,-249,-64,-23,53,-5
1795,-11,-248,-64,-21,53,-6
1800,-11,-248,-65,-22,52,-5
1805,-13,-247,-64,-22,54,-6
1810,-12,-247,-67,-20,53,-7
1815,-13,-249,-61,-21,54,-8
1820,-10,-249,-65,-21,54,-6
1825,-12,-251,-68,-22,54,-8
1830,-13,-249,-65,-20,54,-6
1835,-13,-250,-69,-20,53,-5
1840,-11,-252,-65,-20,55,-6
1845,-12,-248,-62,-20,56,-6
1850,-10,-249,-63,-19,54,-5
1855,-13,-250,-61,-20,56,-5
1860,-9,-247,-66,-21,55,-3
1865,-14,-247,-65,-21,54,-2
1870,-13,-246,-65,-22,55,-1
1875,-10,-250,-49,-22,53,-3
1880,-11,-249,-70,-23,54,-1
1885,-12,-249,-64,-25,54,-2
1890,-12,-250,-65,-27,54,-1
1895,-14,-245,-63,-27,54,-2
1900,-11,-248,-64,-28,54,-3
1905,-13,-248,-66,-30,57,-3
1910,-14,-247,-63,-32,59,-4
1915,-12,-248,-65,-33,60,-4
1920,-8,-248,-65,-32,61,-4
1925,-13,-248,-64,-32,63,-7
1930,-10,-250,-62,-31,61,-6
1935,-12,-249,-64,-32,62,-6
1940,-12,-249,-64,-31,61,-4
1945,-13,-249,-64,-30,61,-4
1950,-8,-253,-65,-27,60,-3
1955,-13,-250,-61,-26,58,-4
1960,-11,-252,-62,-24,58,-4
1965,-11,-248,-67,-23,58,-3
1970,-13,-248,-67,-23,55,-3
1975,-12,-248,-64,-22,53,-3
1980,-10,-251,-63,-23,52,-2
1985,-10,-253,-70,-26,51,-5
1990,-11,-249,-65,-27,50,-4
1995,-13,-248,-68,-28,48,-6
2000,-13,-250,-67,-30,47,-4
2005,-11,-250,-66,-29,47,-6
2010,-11,-250,-65,-26,47,-7
2015,-10,-250,-67,-24,48,-6
2020,-12,-252,-67,-22,49,-6
2025,-9,-249,-66,-21,51,-6
2030,-13,-249,-64,-19,54,-5
2035,-7,-248,-63,-20,55,-6
2040,-13,-247,-66,-21,58,-6
2045,-10,-249,-65,-23,60,-6
2050,-11,-251,-65,-23,61,-5
2055,-9,-247,-68,-23,61,-5
2060,-10,-249,-66,-23,63,-4
2065,-12,-250,-65,-24,65,-4
2070,-9,-251,-65,-23,62,-4
2075,-8,-253,-67,-21,60,-5
2080,-10,-254,-64,-22,61,-3
2085,-12,-248,-69,-19,60,-3
2090,-6,-250,-74,-18,60,-3
2095,-13,-248,-70,-16,59,-4
2100,-10,-249,-65,-15,59,-3
2105,-12,-247,-64,-13,60,-4
2110,-13,-246,-68,-11,59,-3
2115,-9,-248,-66,-14,60,-3
2120,-13,-245,-64,-16,59,-5
2125,-12,-249,-66,-20,60,-4
2130,-9,-247,-64,-23,59,-2
2135,-11,-247,-67,-25,57,-3
2140,-13,-248,-67,-27,57,-2
2145,-11,-249,-63,-29,57,-1
2150,-13,-247,-68,-30,57,0
2155,-11,-249,-68,-31,57,-1
2160,-12,-249,-69,-31,56,1
2165,-12,-248,-65,-29,55,0
2170,-10,-249,-64,-26,56,0
2175,-12,-251,-63,-25,56,1
2180,-11,-248,-63,-23,57,1
2185,-7,-251,-60,-22,55,2
2190,-10,-251,-66,-20,56,2
2195,-11,-253,-68,-17,55,2
2200,-4,-256,-66,-14,55,2
2205,-13,-250,-68,-12,56,2
2210,-9,-251,-65,-10,58,2
2215,-11,-251,-66,-8,60,2
2220,-12,-253,-66,-8,62,4
2225,-11,-251,-67,-6,64,2
2230,-12,-249,-64,-5,67,0
2235,-8,-254,-62,0,68,1
2240,-9,-251,-65,2,69,-1
2245,-13,-252,-61,5,72,0
2250,-8,-250,-70,8,71,-1
2255,-9,-251,-65,9,73,-1
2260,-10,-249,-65,11,73,-1
2265,-13,-251,-66,11,72,-2
2270,-11,-250,-64,11,73,-2
2275,-11,-249,-65,11,72,-2
2280,-11,-250,-64,10,72,-1
2285,-11,-249,-64,7,71,-1
2290,-10,-246,-64,4,68,-3
2295,-11,-248,-65,2,67,-1
2300,-13,-247,-64,0,65,-1
2305,-11,-250,-64,0,63,-1
2310,-6,-236,-76,-3,63,1
2315,-11,-248,-63,-4,62,0
2320,-11,-248,-67,-4,62,1
2325,-9,-246,-64,-4,63,1
2330,-12,-248,-63,-4,64,1
2335,-10,-250,-57,-6,63,0
2340,-13,-251,-64,-7,64,0
2345,-13,-249,-65,-5,65,-1
2350,-13,-251,-64,-5,67,0
2355,-11,-249,-62,-5,67,0
2360,-9,-253,-67,-4,69,-1
2365,-13,-252,-60,-2,67,-1
2370,-12,-250,-65,0,66,-1
2375,-10,-252,-65,-1,64,-2
2380,-9,-251,-65,1,65,-2
2385,-13,-250,-66,-1,62,-4
2390,-9,-251,-66,-1,60,-3
2395,-12,-250,-63,3,60,-4
2400,-12,-246,-64,3,58,-4
2405,-13,-248,-60,6,59,-4
2410,-11,-249,-62,5,61,-6
2415,-13,-247,-66,8,60,-4
2420,-8,-251,-72,8,60,-3
2425,-13,-246,-64,8,60,-2
2430,-9,-250,-65,6,59,-3
2435,-11,-248,-64,4,60,-2
2440,-15,-247,-63,0,59,-3
2445,-12,-248,-65,-1,59,-4
2450,-9,-252,-66,-1,59,-4
2455,-15,-250,-62,-2,59,-5
2460,-12,-250,-61,-2,61,-5
2465,-10,-253,-62,-3,60,-4
2470,-9,-251,-62,-4,61,-5
2475,-9,-249,-66,-5,60,-5
2480,-10,-245,-64,-3,61,-7
2485,-13,-251,-61,-2,61,-6
2490,-10,-249,-66,0,61,-7
2495,-10,-247,-66,1,62,-7
2500,-12,-249,-64,3,62,-6
2505,-11,-249,-66,3,62,-6
2510,-13,-246,-62,4,62,-6
2515,-12,-250,-63,2,62,-6
2520,-11,-247,-64,0,63,-5
2525,-13,-249,-64,-1,64,-5
2530,-9,-246,-68,-3,63,-5
2535,-13,-249,-62,-5,65,-2
2540,-11,-251,-62,-8,64,-3
2545,-12,-248,-63,-8,64,-4
2550,-11,-248,-63,-8,62,-2
2555,-11,-248,-60,-7,62,-3
2560,-12,-245,-66,-6,61,-2
2565,-13,-247,-69,-6,60,-3
2570,-12,-246,-65,-5,59,-5
2575,-12,-246,-63,-6,59,-4
2580,-12,-247,-65,-7,59,-4
2585,-15,-247,-63,-7,57,-3
2590,-11,-248,-64,-9,60,-3
2595,-12,-248,-63,-12,59,-1
2600,-13,-246,-60,-15,58,-2
2605,-12,-248,-69,-18,57,-1
2610,-13,-250,-66,-21,57,-1
2615,-11,-249,-64,-23,55,-1
2620,-13,-250,-64,-25,55,-2
2625,-11,-250,-65,-25,52,0
2630,-14,-247,-67,-26,49,-2
2635,-8,-244,-78,-25,48,-2
2640,-11,-249,-62,-24,47,-2
2645,-12,-249,-67,-21,46,-2
2650,-12,-250,-67,-18,48,-3
2655,-13,-249,-64,-16,49,-4
2660,-10,-247,-64,-13,50,-5
2665,-13,-250,-62,-11,53,-5
2670,-13,-246,-61,-10,55,-6
2675,-12,-252,-61,-9,56,-5
2680,-11,-251,-63,-10,56,-7
2685,-10,-250,-66,-10,55,-6
2690,-13,-247,-62,-10,54,-7
2695,-12,-250,-67,-11,53,-6
2700,-9,-247,-68,-12,52,-8
2705,-14,-247,-61,-13,49,-6
2710,-11,-249,-65,-14,48,-6
2715,-14,-245,-63,-14,46,-4
2720,-13,-248,-64,-14,48,-4
2725,-10,-249,-66,-15,47,-3
2730,-10,-251,-64,-13,47,-3
2735,-12,-249,-63,-13,46,-3
2740,-13,-250,-62,-16,47,-3
2745,-14,-242,-69,-17,48,-2
2750,-9,-247,-63,-18,47,-4
2755,-10,-247,-62,-18,46,-3
2760,-10,-249,-62,-19,46,-4
2765,-10,-250,-64,-21,42,-4
2770,-12,-249,-65,-23,42,-6
2775,-10,-247,-63,-23,42,-5
2780,-12,-247,-68,-24,39,-5
2785,-10,-252,-64,-25,37,-4
2790,-10,-252,-60,-26,37,-4
2795,-10,-249,-65,-26,37,-3
2800,-11,-249,-62,-27,39,-6
2805,-13,-249,-63,-29,41,-3
2810,-11,-252,-64,-26,44,-6
2815,-11,-252,-61,-25,44,-4
2820,-11,-251,-62,-21,45,-4
2825,-11,-251,-63,-19,47,-4
2830,-14,-251,-62,-16,52,-5
2835,-11,-252,-64,-12,52,-4
2840,-11,-251,-64,-11,52,-4
2845,-9,-252,-61,-12,52,-5
2850,-10,-251,-66,-11,54,-7
2855,-5,-243,-56,-13,52,-4
2860,-10,-247,-65,-16,52,-6
2865,-13,-247,-68,-19,53,-5
2870,-10,-249,-61,-21,51,-6
2875,-11,-245,-67,-23,50,-4
2880,-11,-249,-64,-25,50,-5
2885,-12,-245,-63,-27,46,-4
2890,-12,-248,-63,-29,42,-4
2895,-12,-246,-62,-32,39,-2
2900,-11,-245,-61,-35,37,-2
2905,-13,-246,-66,-39,37,0
2910,-13,-243,-64,-40,35,0
2915,-13,-246,-62,-44,35,2
2920,-11,-245,-63,-44,35,1
2925,-10,-248,-65,-45,36,3
2930,-13,-248,-63,-45,40,1
2935,-14,-248,-61,-44,44,2
2940,-12,-248,-65,-44,48,2
2945,-12,-249,-62,-43,53,3
2950,-11,-253,-63,-42,56,2
2955,-12,-249,-68,-42,57,1
2960,-12,-252,-65,-42,58,0
2965,-12,-252,-57,-44,57,0
2970,-13,-250,-64,-43,58,-3
2975,-13,-249,-68,-43,55,-2
2980,-12,-250,-68,-43,54,-4
2985,-14,-247,-66,-43,53,-2
2990,-14,-246,-68,-44,51,-4
2995,-13,-245,-67,-45,51,-2
3000,-11,-244,-67,-46,50,-4
3005,-8,-245,-67,-49,51,-4
3010,-13,-244,-69,-51,49,-5
3015,-13,-241,-66,-55,50,-4
3020,-14,-243,-68,-57,49,-6
3025,-12,-240,-71,-62,47,-6
3030,-12,-240,-71,-65,47,-10
3035,-13,-238,-71,-71,45,-8
3040,-13,-241,-75,-74,43,-11
3045,-14,-236,-72,-79,42,-10
3050,-12,-236,-73,-85,39,-11
3055,-12,-235,-71,-92,38,-11
3060,-15,-233,-74,-98,34,-13
3065,-13,-235,-78,-106,32,-12
3070,-15,-232,-76,-115,31,-13
3075,-8,-224,-94,-122,29,-10
3080,-16,-230,-77,-128,27,-11
3085,-16,-226,-77,-134,26,-9
3090,-16,-227,-79,-137,26,-11
3095,-15,-227,-77,-140,25,-8
3100,-15,-226,-77,-139,23,-10
3105,-14,-223,-74,-140,24,-9
3110,-16,-225,-74,-141,29,-9
3115,-14,-225,-75,-141,30,-7
3120,-11,-225,-79,-142,37,-9
3125,-13,-226,-75,-144,42,-8
3130,-10,-226,-79,-149,50,-10
3135,-13,-224,-81,-160,58,-7
3140,-9,-225,-80,-172,60,-11
3145,-12,-225,-81,-185,63,-7
3150,-9,-227,-84,-197,58,-8
3155,-13,-223,-88,-208,54,-4
3160,-11,-226,-89,-218,50,-5
3165,-12,-226,-88,-227,45,-2
3170,-11,-227,-85,-233,41,-2
3175,-10,-225,-88,-238,35,3
3180,-13,-222,-84,-242,32,3
3185,-12,-225,-84,-245,30,6
3190,-10,-222,-87,-247,27,6
3195,-12,-221,-83,-245,25,10
3200,-14,-216,-81,-242,23,11
3205,-14,-214,-81,-240,19,16
3210,-15,-215,-80,-239,16,18
3215,-15,-214,-83,-237,16,22
3220,-14,-212,-85,-241,14,22
3225,-14,-207,-85,-248,12,26
3230,-15,-210,-86,-259,12,27
3235,-15,-207,-84,-272,12,32
3240,-16,-203,-87,-288,13,32
3245,-16,-201,-89,-306,13,37
3250,-16,-201,-86,-327,11,39
3255,-16,-199,-86,-344,8,42
3260,-16,-201,-85,-359,6,40
3265,-16,-200,-86,-371,5,42
3270,-16,-198,-86,-382,2,40
3275,-15,-199,-83,-389,2,39
3280,-16,-198,-84,-396,-1,33
3285,-15,-201,-88,-403,-1,31
3290,-9,-197,-93,-410,-4,23
3295,-16,-200,-90,-416,-4,18
3300,-16,-202,-87,-422,-5,9
3305,-15,-206,-89,-431,-5,6
3310,-15,-206,-91,-439,-3,-2
3315,-16,-204,-95,-447,0,-3
3320,-14,-206,-94,-458,2,-7
3325,-15,-207,-96,-469,6,-6
3330,-15,-207,-92,-480,7,-6
3335,-14,-206,-94,-489,7,-1
3340,-15,-208,-93,-495,5,2
3345,-15,-207,-94,-501,0,8
3350,-16,-209,-97,-500,-7,14
3355,-14,-211,-95,-496,-19,25
3360,-16,-213,-97,-488,-30,30
3365,-16,-214,-100,-482,-39,39
3370,-16,-215,-99,-477,-47,44
3375,-16,-216,-104,-475,-50,51
3380,-16,-216,-104,-471,-50,54
3385,-15,-214,-100,-472,-47,59
3390,-16,-215,-104,-472,-42,58
3395,-15,-213,-101,-474,-36,60
3400,-14,-208,-88,-476,-26,56
3405,-15,-213,-100,-481,-18,58
3410,-15,-209,-96,-487,-11,52
3415,-12,-211,-101,-499,-4,51
3420,-15,-207,-101,-512,0,45
3425,-13,-208,-103,-528,0,43
3430,-12,-208,-100,-546,-5,37
3435,-13,-210,-103,-563,-11,37
3440,-15,-210,-106,-580,-19,32
3445,-12,-214,-109,-599,-25,31
3450,-13,-213,-110,-617,-26,24
3455,-16,-213,-109,-634,-24,24
3460,-16,-215,-110,-648,-21,19
3465,-13,-218,-109,-660,-16,19
3470,-15,-218,-110,-666,-11,14
3475,-15,-223,-114,-669,-8,14
3480,-12,-224,-110,-666,-4,8
3485,-15,-224,-110,-662,-1,8
3490,-13,-229,-107,-656,-1,6
3495,-13,-227,-109,-649,-2,9
3500,-13,-226,-108,-642,-5,7
3505,-16,-225,-110,-634,-10,11
3510,-16,-223,-99,-627,-16,13
3515,-14,-225,-107,-618,-22,22
3520,-15,-226,-103,-608,-27,26
3525,-16,-224,-106,-601,-34,33
3530,-14,-223,-112,-596,-34,36
3535,-16,-224,-112,-590,-32,42
3540,-14,-220,-113,-587,-26,44
3545,-14,-220,-114,-585,-18,50
3550,-15,-215,-113,-584,-9,48
3555,-12,-221,-117,-583,3,51
3560,-12,-220,-118,-583,11,47
3565,-14,-219,-120,-584,16,45
3570,-15,-220,-119,-590,18,40
3575,-13,-220,-125,-596,19,41
3580,-14,-218,-125,-605,15,34
3585,-12,-221,-124,-618,12,34
3590,-14,-221,-123,-628,10,31
3595,-13,-221,-124,-634,10,30
3600,-15,-222,-122,-640,8,25
3605,-14,-222,-124,-639,7,26
3610,-15,-221,-118,-635,5,20
3615,-20,-230,-109,-628,-1,16
3620,-18,-223,-116,-617,-13,7
3625,-23,-224,-111,-603,-25,5
3630,-24,-221,-113,-588,-38,-3
3635,-24,-218,-117,-577,-52,-5
3640,-25,-222,-117,-565,-57,-12
3645,-24,-224,-116,-558,-56,-13
3650,-28,-223,-117,-549,-47,-22
3655,-29,-226,-116,-539,-37,-27
3660,-31,-226,-116,-521,-29,-39
3665,-31,-229,-116,-496,-23,-43
3670,-30,-229,-116,-468,-18,-50
3675,-29,-232,-116,-434,-14,-52
3680,-27,-237,-116,-402,-3,-55
3685,-24,-236,-120,-368,8,-53
3690,-25,-236,-119,-331,24,-55
3695,-25,-238,-119,-286,45,-51
3700,-20,-241,-122,-245,55,-50
3705,-18,-242,-120,-205,60,-43
3710,-21,-241,-118,-165,59,-41
3715,-17,-242,-123,-124,55,-35
3720,-16,-242,-120,-89,45,-36
3725,-14,-236,-122,-59,33,-31
3730,-16,-236,-120,-30,16,-33
3735,-15,-236,-120,-1,2,-30
3740,-15,-233,-123,30,-11,-31
3745,-14,-232,-121,62,-22,-26
3750,-14,-233,-121,96,-31,-25
3755,-13,-230,-124,121,-35,-19
3760,-15,-229,-122,142,-33,-15
3765,-16,-226,-126,164,-29,-7
3770,-18,-222,-123,184,-27,-4
3775,-19,-219,-125,203,-27,6
3780,-17,-220,-125,222,-26,11
3785,-20,-223,-122,240,-25,22
3790,-21,-223,-119,256,-24,29
3795,-20,-220,-121,268,-19,41
3800,-16,-225,-116,288,-7,44
3805,-16,-225,-114,312,14,48
3810,-20,-226,-112,346,30,49
3815,-19,-226,-109,381,45,53
3820,-19,-225,-106,421,61,51
3825,-24,-227,-104,462,72,52
3830,-19,-222,-103,504,82,53
3835,-36,-226,-102,551,96,59
3840,-19,-223,-105,594,111,62
3845,-16,-224,-111,632,128,68
3850,-16,-225,-105,663,143,74
3855,-14,-222,-109,685,154,80
3860,-15,-222,-111,701,160,79
3865,-15,-223,-111,709,161,81
3870,-14,-221,-111,715,159,75
3875,-15,-220,-115,713,156,77
3880,-15,-223,-115,706,148,74
3885,-15,-226,-118,703,136,71
3890,-16,-226,-118,692,116,68
3895,-16,-231,-118,679,102,67
3900,-15,-231,-112,658,90,55
3905,-16,-233,-116,646,87,48
3910,-16,-232,-110,630,90,33
3915,-16,-236,-110,621,102,27
3920,-20,-238,-103,637,113,10
3925,-21,-236,-106,658,124,1
3930,-23,-236,-105,678,132,-6
3935,-22,-237,-105,697,139,-9
3940,-26,-238,-102,719,146,-18
3945,-29,-235,-109,742,151,-23
3950,-32,-232,-103,762,156,-30
3955,-30,-234,-99,773,153,-32
3960,-29,-232,-101,783,148,-41
3965,-32,-235,-108,783,139,-51
3970,-33,-233,-105,768,124,-52
3975,-29,-237,-103,739,110,-43
3980,-24,-239,-106,724,99,-55
3985,-29,-238,-115,702,95,-75
3990,-25,-239,-113,664,86,-87
3995,-30,-239,-122,623,75,-82
4000,-19,-244,-120,565,63,-86
4005,-22,-240,-114,519,58,-94
4010,-19,-247,-121,492,68,-105
4015,-19,-244,-116,443,67,-105
4020,-22,-245,-112,391,77,-101
4025,-14,-254,-97,348,105,-75
4030,-12,-251,-99,326,144,-96
4035,-19,-247,-101,310,141,-116
4040,-21,-247,-102,269,109,-101
4045,-21,-249,-111,230,76,-83
4050,-22,-250,-108,174,53,-71
4055,-8,-248,-99,117,44,-52
4060,-19,-246,-104,80,45,-65
4065,-29,-247,-109,33,52,-51
4070,-17,-247,-107,-32,46,-14
4075,-16,-249,-107,-97,22,-6
4080,-25,-253,-111,-169,-1,2
4085,-19,-257,-116,-232,-29,36
4090,-25,-261,-113,-293,-51,59
4095,-24,-262,-111,-325,-60,81
4100,-14,-262,-95,-330,-54,90
4105,-18,-253,-105,-263,-11,56
4110,-37,-255,-138,-240,-23,18
4115,-32,-264,-136,-348,-75,75
4120,-13,-270,-117,-436,-85,133
4125,-13,-275,-105,-443,-50,151
4130,-26,-275,-108,-412,-9,140
4135,-22,-272,-101,-384,17,149
4140,-27,-273,-101,-348,27,162
4145,-27,-269,-105,-311,18,188
4150,-26,-265,-106,-286,-2,215
4155,-35,-271,-109,-264,-22,255
4160,-22,-261,-121,-247,-33,291
4165,-35,-269,-121,-232,-30,317
4170,-35,-268,-121,-219,-25,328
4175,-31,-266,-116,-197,-16,348
4180,-25,-269,-122,-167,-4,355
4185,-26,-272,-116,-139,6,359
4190,-18,-267,-117,-102,23,331
4195,-35,-264,-116,-71,37,319
4200,-38,-264,-112,-50,43,335
4205,-20,-255,-110,-34,50,339
4210,-38,-251,-103,-30,60,318
4215,-31,-252,-104,-35,70,325
4220,-30,-258,-95,-47,74,325
4225,-26,-253,-102,-32,74,325
4230,-21,-251,-102,-27,80,307
4235,-36,-254,-106,-41,100,281
4240,-25,-273,-103,-45,121,262
4245,-40,-276,-109,-30,137,224
4250,-48,-268,-106,-30,155,202
4255,-27,-272,-112,-23,171,197
4260,-23,-270,-108,-14,191,158
4265,-51,-259,-94,-2,207,119
4270,-37,-271,-99,19,204,134
4275,-43,-263,-105,50,181,139
4280,-45,-264,-111,69,158,139
4285,-36,-261,-117,68,145,155
4290,-54,-258,-100,52,135,151
4295,-41,-262,-87,49,122,166
4300,-36,-260,-119,74,92,159
4305,-42,-272,-119,49,86,155
4310,-43,-270,-116,20,90,149
4315,-41,-269,-112,21,83,151
4320,-48,-262,-113,11,82,126
4325,-21,-262,-111,9,86,119
4330,-34,-268,-108,12,88,101
4335,-42,-277,-105,29,82,116
4340,-43,-272,-101,63,71,139
4345,-31,-266,-109,106,58,160
4350,-35,-264,-106,129,55,153
4355,-39,-258,-108,140,64,145
4360,-35,-256,-101,145,71,136
4365,-25,-255,-98,155,74,131
4370,-32,-253,-99,166,72,116
4375,-32,-240,-119,172,70,112
4380,-28,-251,-100,146,80,101
4385,-56,-254,-105,148,87,80
4390,-34,-258,-97,143,97,99
4395,-37,-260,-108,163,90,127
4400,-27,-263,-111,181,98,140
4405,-30,-259,-102,185,108,127
4410,-31,-256,-106,190,119,100
4415,-33,-251,-101,196,120,73
4420,-17,-239,-118,194,117,57
4425,-38,-239,-99,146,129,16
4430,-39,-244,-93,89,140,-4
4435,-21,-234,-97,79,143,9
4440,-45,-242,-93,70,139,8
4445,-40,-243,-99,69,136,30
4450,-43,-247,-97,71,133,43
4455,-42,-245,-97,85,122,64
4460,-40,-244,-107,93,112,71
4465,-40,-245,-104,92,102,81
4470,-39,-242,-104,87,95,85
4475,-32,-243,-101,85,85,89
4480,-45,-246,-109,91,67,72
4485,-28,-244,-101,87,58,80
4490,-32,-241,-101,81,62,74
4495,-24,-249,-106,84,66,85
4500,-29,-240,-102,78,79,69
4505,-32,-241,-108,78,93,54
4510,-39,-236,-100,77,99,34
4515,-34,-239,-107,78,106,30
4520,-38,-237,-107,69,113,26
4525,-35,-234,-108,50,122,32
4530,-35,-235,-103,15,134,25
4535,-39,-233,-107,3,132,19
4540,-44,-237,-100,-10,119,22
4545,-38,-237,-100,-17,110,38
4550,-36,-236,-102,-19,97,42
4555,-38,-232,-102,-26,84,47
4560,-40,-233,-103,-34,74,48
4565,-38,-234,-98,-42,66,55
4570,-39,-233,-102,-50,60,58
4575,-40,-233,-103,-56,54,65
4580,-40,-235,-105,-62,47,70
4585,-38,-234,-103,-67,39,77
4590,-28,-221,-100,-73,34,80
4595,-35,-233,-104,-80,28,83
4600,-35,-236,-102,-87,29,82
4605,-32,-234,-101,-94,32,81
4610,-34,-231,-98,-98,40,74
4615,-30,-235,-99,-98,52,68
4620,-32,-241,-99,-93,68,57
4625,-28,-240,-96,-86,85,47
4630,-30,-242,-96,-79,106,34
4635,-30,-240,-95,-73,124,26
4640,-29,-241,-98,-67,144,12
4645,-36,-237,-95,-60,163,5
4650,-35,-236,-100,-53,182,-1
4655,-34,-242,-96,-49,196,-1
4660,-35,-238,-102,-48,202,-1
4665,-27,-223,-121,-52,205,5
4670,-36,-238,-109,-90,203,1
4675,-75,-218,-101,-142,204,-75
4680,-61,-254,-85,-172,202,-44
4685,-40,-245,-99,-145,178,-4
4690,-41,-242,-100,-111,168,3
4695,-39,-234,-105,-88,153,9
4700,-35,-227,-102,-78,139,11
4705,-38,-227,-104,-79,127,18
4710,-36,-231,-107,-87,122,18
4715,-38,-230,-109,-93,119,21
4720,-36,-231,-107,-97,115,18
4725,-38,-228,-111,-102,113,21
4730,-39,-226,-112,-104,110,20
4735,-37,-225,-110,-103,110,24
4740,-39,-225,-108,-102,107,25
4745,-34,-226,-106,-99,107,28
4750,-33,-227,-104,-99,109,28
4755,-31,-224,-110,-97,113,31
4760,-23,-216,-110,-119,125,3
4765,-44,-212,-106,-173,148,-49
4770,-43,-236,-97,-202,164,-39
4775,-22,-230,-103,-194,171,-20
4780,-21,-234,-108,-160,185,-17
4785,-39,-227,-104,-136,185,-28
4790,-54,-239,-92,-124,192,-23
4795,-40,-235,-100,-83,178,6
4800,-17,-226,-115,-57,169,8
4805,-49,-221,-118,-84,168,-23
4810,-38,-236,-101,-110,165,-9
4815,-41,-232,-110,-110,152,3
4820,-47,-237,-108,-97,138,12
4825,-41,-236,-109,-58,121,29
4830,-39,-231,-112,-33,107,37
4835,-21,-228,-116,-21,98,35
4840,-42,-226,-118,-41,98,7
4845,-47,-225,-109,-74,104,6
4850,-35,-232,-111,-93,110,-1
4855,-35,-230,-112,-103,114,-2
4860,-41,-234,-116,-102,116,1
4865,-32,-222,-123,-101,111,0
4870,-12,-242,-96,-112,116,-17
4875,-57,-228,-115,-116,119,-24
4880,-24,-229,-112,-122,105,9
4885,-48,-236,-108,-109,98,17
4890,-42,-233,-115,-88,88,28
4895,-35,-230,-114,-80,78,35
4900,-41,-227,-117,-73,69,39
4905,-29,-221,-117,-68,58,47
4910,-44,-220,-130,-79,46,33
4915,-39,-233,-119,-94,35,63
4920,-33,-235,-118,-95,24,71
4925,-42,-239,-115,-81,18,79
4930,-36,-234,-116,-68,6,81
4935,-38,-228,-119,-64,7,70
4940,-39,-229,-120,-67,9,55
4945,-46,-241,-110,-76,13,60
4950,-41,-236,-115,-62,6,76
4955,-43,-237,-113,-49,6,79
4960,-45,-231,-114,-29,0,81
4965,-44,-232,-116,-14,-12,85
4970,-40,-233,-117,-3,-21,84
4975,-36,-229,-109,8,-30,80
4980,-9,-201,-126,9,-37,67
4985,-60,-222,-106,-70,-25,13
4990,-39,-240,-111,-93,-23,48
4995,-41,-239,-107,-63,-35,73
5000,-37,-231,-113,-26,-44,85
5005,-32,-231,-109,-5,-45,83
5010,-32,-231,-115,3,-39,80
5015,-36,-232,-111,10,-28,78
5020,-37,-231,-112,13,-16,75
5025,-32,-237,-111,14,-2,75
5030,-42,-231,-110,18,10,74
5035,-40,-235,-110,19,13,76
5040,-43,-227,-109,20,14,75
5045,-51,-228,-105,3,15,66
5050,-38,-213,-118,-3,6,34
5055,-59,-235,-104,-33,9,14
5060,-42,-245,-99,-26,-4,56
5065,-46,-230,-110,13,-19,73
5070,-36,-233,-118,40,-32,90
5075,-39,-240,-113,37,-34,93
5080,-37,-239,-109,38,-22,81
5085,-42,-238,-111,41,-16,70
5090,-42,-239,-112,44,-9,62
5095,-41,-235,-109,48,-4,59
5100,-45,-238,-110,50,2,57
5105,-46,-235,-112,51,9,53
5110,-45,-240,-111,50,10,53
5115,-44,-237,-112,51,9,55
5120,-43,-237,-105,52,6,54
5125,-40,-236,-108,54,4,52
5130,-41,-237,-106,57,4,51
5135,-38,-243,-104,59,7,50
5140,-40,-236,-105,61,9,47
5145,-40,-235,-102,68,12,47
5150,-42,-234,-106,70,13,49
5155,-43,-233,-106,71,11,47
5160,-45,-233,-105,67,9,45
5165,-46,-234,-110,59,9,46
5170,-47,-235,-111,50,10,43
5175,-48,-236,-113,42,11,43
5180,-48,-236,-113,32,14,41
5185,-48,-239,-110,23,15,42
5190,-48,-234,-107,15,14,41
5195,-46,-238,-106,7,12,43
5200,-47,-233,-108,-3,6,45
5205,-46,-237,-107,-9,1,49
5210,-45,-237,-106,-14,-7,52
5215,-46,-239,-106,-20,-14,55
5220,-49,-236,-105,-24,-20,55
5225,-49,-234,-105,-28,-23,56
5230,-50,-234,-104,-32,-28,55
5235,-50,-235,-106,-35,-33,56
5240,-51,-233,-109,-39,-37,56
5245,-49,-238,-106,-40,-39,58
5250,-50,-235,-105,-45,-42,57
5255,-46,-235,-102,-47,-42,56
5260,-46,-236,-105,-47,-39,52
5265,-44,-232,-102,-45,-30,46
5270,-42,-234,-99,-38,-16,40
5275,-44,-236,-102,-27,-2,34
5280,-44,-234,-101,-18,10,30
5285,-43,-232,-98,-9,19,27
5290,-44,-232,-103,-4,26,26
5295,-50,-231,-103,0,35,25
5300,-49,-231,-103,0,42,23
5305,-49,-231,-103,2,46,24
5310,-50,-236,-104,1,45,23
5315,-52,-235,-104,0,44,25
5320,-54,-233,-104,-2,39,24
5325,-52,-233,-104,-6,27,25
5330,-55,-232,-107,-9,19,27
5335,-53,-232,-107,-14,10,30
5340,-51,-232,-106,-18,2,29
5345,-51,-231,-103,-20,-4,28
5350,-50,-231,-104,-25,-7,27
5355,-35,-224,-114,-27,-10,27
5360,-49,-232,-108,-30,-12,25
5365,-50,-233,-106,-33,-12,26
5370,-50,-235,-102,-36,-13,26
5375,-49,-233,-104,-34,-13,27
5380,-48,-232,-104,-37,-14,24
5385,-48,-232,-104,-36,-12,21
5390,-49,-235,-104,-38,-8,17
5395,-50,-231,-105,-38,2,12
5400,-47,-233,-106,-37,8,6
5405,-46,-231,-106,-35,18,2
5410,-47,-231,-103,-33,27,-2
5415,-52,-235,-102,-32,40,-3
5420,-52,-234,-104,-28,50,-5
5425,-49,-235,-102,-25,55,-5
5430,-51,-234,-102,-23,58,-4
5435,-51,-238,-100,-22,58,2
5440,-52,-237,-102,-23,52,8
5445,-50,-233,-106,-25,45,10
5450,-48,-234,-106,-29,40,10
5455,-48,-233,-105,-34,38,8
5460,-51,-233,-107,-38,35,4
5465,-45,-230,-108,-42,35,-2
5470,-49,-235,-105,-46,36,-8
5475,-48,-237,-108,-49,38,-11
5480,-52,-235,-102,-48,41,-13
5485,-52,-233,-106,-49,44,-11
5490,-52,-235,-105,-51,51,-11
5495,-52,-236,-106,-52,53,-11
5500,-51,-238,-106,-51,56,-9
5505,-52,-236,-107,-52,52,-5
5510,-54,-237,-105,-55,48,-2
5515,-54,-234,-105,-59,41,0
5520,-52,-237,-106,-64,36,-1
5525,-49,-232,-108,-69,33,1
5530,-49,-234,-106,-73,31,1
5535,-46,-235,-108,-75,33,1
5540,-47,-233,-106,-78,39,-3
5545,-47,-229,-103,-79,47,-7
5550,-52,-232,-105,-78,61,-11
5555,-47,-234,-105,-76,76,-14
5560,-50,-234,-104,-73,88,-16
5565,-50,-234,-105,-71,101,-18
5570,-54,-236,-107,-68,110,-21
5575,-52,-231,-101,-65,114,-22
5580,-50,-234,-104,-61,118,-24
5585,-52,-235,-107,-58,114,-25
5590,-52,-232,-107,-57,110,-25
5595,-54,-229,-105,-56,103,-25
5600,-50,-227,-106,-57,95,-23
5605,-53,-230,-107,-55,86,-24
5610,-49,-229,-108,-55,84,-22
5615,-50,-230,-107,-54,80,-23
5620,-50,-230,-105,-53,79,-22
5625,-49,-229,-105,-54,77,-22
5630,-50,-233,-105,-52,77,-18
5635,-54,-228,-102,-49,75,-13
5640,-55,-229,-105,-48,75,-7
5645,-56,-229,-107,-50,72,-1
5650,-50,-233,-104,-54,67,4
5655,-50,-235,-109,-53,61,6
5660,-48,-234,-106,-52,55,4
5665,-44,-230,-107,-49,53,-2
5670,-44,-232,-106,-43,54,-8
5675,-45,-227,-106,-36,59,-15
5680,-47,-235,-100,-32,70,-19
5685,-45,-227,-106,-28,82,-20
5690,-46,-225,-107,-29,91,-20
5695,-48,-228,-105,-30,98,-20
5700,-50,-229,-110,-30,103,-19
5705,-53,-228,-108,-31,105,-20
5710,-53,-227,-111,-34,104,-18
5715,-51,-233,-108,-39,98,-17
5720,-51,-231,-105,-45,89,-14
5725,-54,-232,-106,-48,78,-11
5730,-51,-234,-108,-48,65,-8
5735,-51,-229,-112,-52,55,-5
5740,-47,-232,-112,-55,45,-3
5745,-43,-231,-114,-59,42,-5
5750,-45,-228,-110,-61,40,-10
5755,-43,-227,-112,-60,46,-15
5760,-44,-226,-110,-62,56,-22
5765,-43,-227,-107,-60,69,-25
5770,-43,-228,-106,-58,83,-28
5775,-46,-225,-108,-56,93,-29
5780,-47,-225,-104,-51,103,-27
5785,-48,-226,-110,-46,109,-25
5790,-44,-235,-107,-43,114,-21
5795,-50,-230,-104,-39,116,-19
5800,-49,-231,-108,-36,117,-15
5805,-53,-230,-111,-33,115,-14
5810,-54,-231,-108,-33,111,-12
5815,-49,-231,-109,-28,107,-8
5820,-49,-231,-107,-27,99,-6
5825,-48,-230,-109,-27,93,-4
5830,-46,-227,-108,-28,89,0
5835,-50,-229,-108,-29,84,-1
5840,-46,-228,-110,-29,80,0
5845,-46,-227,-114,-31,80,1
5850,-49,-227,-109,-30,79,2
5855,-50,-226,-111,-31,81,-2
5860,-50,-225,-107,-30,84,-3
5865,-48,-228,-109,-31,87,-5
5870,-47,-226,-110,-30,91,-7
5875,-47,-228,-105,-30,97,-7
5880,-49,-229,-108,-25,101,-5
5885,-47,-228,-107,-17,104,-3
5890,-45,-231,-111,-13,107,2
5895,-43,-230,-111,-8,108,0
5900,-40,-223,-111,-3,110,0
5905,-45,-230,-111,-2,114,-3
5910,-45,-231,-112,-2,119,-8
5915,-48,-228,-111,-2,125,-12
5920,-46,-230,-110,-2,129,-13
5925,-47,-228,-110,-2,132,-16
5930,-48,-227,-108,-2,134,-16
5935,-48,-229,-107,-2,134,-16
5940,-49,-228,-107,-3,129,-11
5945,-47,-230,-108,-2,127,-7
5950,-48,-234,-109,-2,121,-4
5955,-50,-231,-112,-2,116,-3
5960,-51,-230,-110,-2,111,2
5965,-51,-229,-110,-2,106,5
5970,-50,-231,-109,-2,101,8
5975,-50,-228,-113,-3,97,10
5980,-47,-229,-112,-6,96,11
5985,-50,-226,-111,-9,94,11
5990,-45,-228,-115,-10,95,12
5995,-46,-229,-111,-11,95,11
6000,-45,-228,-113,-12,98,12
6005,-52,-235,-111,-13,101,8
6010,-46,-230,-110,-16,103,6
6015,-45,-232,-110,-17,106,0
6020,-48,-229,-106,-16,111,-2
6025,-45,-232,-109,-17,114,-7
6030,-49,-230,-107,-14,117,-8
6035,-49,-228,-111,-11,119,-11
6040,-49,-228,-110,-8,119,-9
6045,-45,-233,-112,-5,120,-7
6050,-51,-230,-107,-5,120,-4
6055,-51,-231,-110,-5,119,-5
6060,-48,-233,-109,-5,118,-4
6065,-49,-231,-111,-4,118,-8
6070,-47,-230,-112,-2,117,-7
6075,-46,-229,-111,1,116,-10
6080,-48,-229,-108,0,115,-9
6085,-46,-228,-112,-3,111,-10
6090,-47,-229,-110,-8,112,-11
6095,-44,-230,-111,-12,109,-14
6100,-45,-228,-108,-19,108,-12
6105,-48,-227,-110,-24,106,-15
6110,-46,-228,-107,-28,103,-11
6115,-47,-227,-102,-29,96,-10
6120,-47,-233,-109,-30,90,-4
6125,-46,-229,-107,-29,84,-1
6130,-50,-229,-109,-30,74,7
6135,-46,-227,-110,-31,67,12
6140,-45,-228,-108,-30,63,16
6145,-46,-231,-110,-30,61,15
6150,-45,-230,-109,-31,63,14
6155,-44,-230,-107,-28,67,10
6160,-42,-232,-111,-22,76,5
6165,-43,-230,-107,-16,86,-4
6170,-48,-229,-108,-8,95,-7
6175,-46,-231,-112,-3,100,-15
6180,-46,-228,-107,2,102,-16
6185,-46,-230,-108,4,103,-17
6190,-47,-227,-105,4,102,-13
6195,-49,-226,-107,4,98,-13
6200,-49,-227,-110,1,92,-11
6205,-48,-227,-111,-3,87,-11
6210,-47,-227,-107,-10,83,-7
6215,-45,-230,-105,-15,78,-5
6220,-49,-228,-109,-20,75,3
6225,-44,-226,-116,-20,68,5
6230,-44,-230,-106,-22,62,10
6235,-47,-228,-110,-24,57,8
6240,-47,-233,-107,-26,53,8
6245,-44,-232,-113,-23,51,1
6250,-43,-233,-110,-21,53,-4
6255,-45,-229,-110,-18,59,-10
6260,-46,-229,-112,-13,67,-14
6265,-44,-230,-110,-10,75,-17
6270,-48,-224,-112,-5,80,-15
6275,-48,-229,-109,-2,82,-15
6280,-46,-229,-114,-1,81,-11
6285,-44,-230,-112,-3,79,-13
6290,-44,-231,-110,-5,77,-8
6295,-50,-229,-112,-11,74,-11
6300,-49,-228,-114,-11,69,-8
6305,-47,-227,-111,-16,64,-9
6310,-48,-229,-113,-20,59,-5
6315,-47,-229,-115,-23,54,-6
6320,-47,-228,-111,-27,50,-2
6325,-48,-227,-109,-28,45,1
6330,-46,-229,-111,-29,38,7
6335,-54,-228,-115,-34,33,8
6340,-46,-229,-110,-35,28,11
6345,-46,-230,-109,-39,27,9
6350,-49,-229,-110,-40,26,10
6355,-45,-233,-111,-39,26,8
6360,-48,-233,-111,-39,26,8
6365,-46,-231,-108,-38,28,2
6370,-44,-230,-112,-35,33,-2
6375,-45,-234,-111,-31,37,-10
6380,-43,-233,-109,-25,42,-12
6385,-46,-231,-107,-17,47,-18
6390,-45,-229,-107,-9,53,-19
6395,-46,-227,-107,-4,56,-22
6400,-45,-230,-111,-1,61,-19
6405,-48,-230,-110,-2,61,-19
6410,-47,-228,-111,-5,60,-15
6415,-49,-231,-106,-8,58,-15
6420,-48,-232,-111,-9,52,-12
6425,-50,-230,-108,-10,47,-14
6430,-48,-230,-109,-12,41,-10
6435,-50,-233,-111,-13,36,-9
6440,-50,-227,-111,-14,31,-9
6445,-47,-229,-107,-16,26,-12
6450,-48,-224,-110,-20,24,-11
6455,-47,-227,-104,-22,22,-16
6460,-46,-228,-111,-23,24,-15
6465,-45,-229,-110,-23,26,-19
6470,-45,-229,-110,-24,27,-16
6475,-45,-229,-111,-23,31,-18
6480,-46,-230,-109,-21,34,-16
6485,-45,-230,-107,-19,34,-16
6490,-47,-232,-110,-14,33,-12
6495,-45,-230,-109,-10,31,-12
6500,-50,-235,-113,-9,29,-7
6505,-48,-233,-108,-10,25,-6
6510,-48,-232,-112,-12,23,-4
6515,-47,-230,-111,-14,19,-8
6520,-49,-227,-111,-16,16,-8
6525,-50,-228,-113,-20,16,-10
6530,-45,-225,-108,-22,15,-9
6535,-43,-228,-112,-26,14,-11
6540,-48,-227,-109,-27,13,-8
6545,-47,-229,-110,-28,14,-7
6550,-48,-219,-107,-31,15,0
6555,-45,-229,-106,-31,14,-4
6560,-42,-232,-109,-33,14,-1
6565,-45,-231,-107,-30,16,-2
6570,-47,-228,-107,-29,20,1
6575,-47,-227,-110,-29,22,-4
6580,-48,-228,-109,-30,27,-4
6585,-48,-229,-116,-29,33,-10
6590,-46,-230,-113,-30,37,-10
6595,-49,-231,-115,-29,43,-13
6600,-50,-230,-111,-26,46,-13
6605,-49,-230,-108,-23,50,-17
6610,-49,-229,-110,-23,49,-14
6615,-49,-232,-106,-20,45,-16
6620,-49,-232,-110,-20,38,-12
6625,-47,-231,-107,-20,31,-11
6630,-50,-227,-111,-21,22,-6
6635,-47,-229,-108,-21,16,-5
6640,-47,-228,-106,-25,11,2
6645,-46,-228,-110,-24,7,4
6650,-44,-226,-110,-26,3,9
6655,-46,-228,-112,-28,4,7
6660,-40,-226,-106,-30,9,6
6665,-45,-229,-111,-31,18,3
6670,-48,-227,-112,-31,24,1
6675,-46,-228,-108,-26,33,-2
6680,-46,-228,-109,-22,40,-3
6685,-45,-228,-111,-17,48,-8
6690,-46,-229,-111,-16,55,-9
6695,-44,-229,-111,-13,58,-13
6700,-48,-228,-109,-11,61,-11
6705,-46,-230,-112,-8,62,-11
6710,-47,-229,-111,-6,65,-5
6715,-47,-229,-108,-6,67,-7
6720,-52,-230,-113,-9,63,-2
6725,-50,-231,-113,-9,59,-3
6730,-52,-230,-109,-10,54,-1
6735,-48,-229,-108,-12,50,-4
6740,-49,-229,-110,-14,47,-3
6745,-50,-227,-111,-16,45,-6
6750,-49,-225,-113,-16,45,-5
6755,-44,-228,-112,-17,48,-8
6760,-47,-223,-113,-22,47,-4
6765,-45,-225,-112,-24,48,-3
6770,-53,-227,-102,-25,48,3
6775,-47,-228,-108,-27,45,2
6780,-45,-229,-112,-30,43,5
6785,-50,-229,-108,-30,42,1
6790,-50,-227,-107,-31,41,2
6795,-49,-228,-106,-29,39,0
6800,-47,-229,-110,-28,38,3
6805,-46,-232,-108,-27,38,2
6810,-48,-226,-109,-24,37,5
6815,-48,-232,-110,-18,36,3
6820,-48,-232,-107,-14,34,6
6825,-47,-230,-109,-10,33,3
6830,-46,-230,-110,-8,33,4
6835,-48,-229,-107,-4,35,0
6840,-50,-226,-108,-1,36,-1
6845,-47,-229,-109,2,41,-7
6850,-47,-229,-110,2,41,-7
6855,-44,-228,-106,4,45,-9
6860,-47,-226,-109,4,43,-7
6865,-44,-227,-109,5,41,-7
6870,-46,-230,-109,5,41,-5
6875,-50,-230,-108,4,40,-8
6880,-39,-236,-99,4,38,-5
6885,-51,-230,-110,5,38,-8
6890,-51,-230,-108,4,36,-6
6895,-49,-228,-109,3,36,-7
6900,-52,-224,-109,4,35,-3
6905,-49,-227,-106,4,35,-1
6910,-49,-228,-107,4,32,7
6915,-48,-228,-109,6,31,9
6920,-46,-228,-111,7,27,15
6925,-47,-232,-110,9,25,14
6930,-49,-229,-112,8,24,14
6935,-51,-228,-112,8,25,7
6940,-49,-228,-115,7,29,4
6945,-49,-228,-110,5,34,-3
6950,-49,-230,-115,6,39,-1
6955,-47,-227,-111,8,41,-6
6960,-48,-228,-111,9,44,-2
6965,-47,-226,-113,9,45,-3
6970,-51,-229,-109,7,48,5
6975,-51,-232,-108,4,45,6
6980,-51,-231,-112,2,42,15
6985,-53,-234,-110,3,38,18
6990,-54,-231,-111,4,34,22
6995,-49,-231,-113,4,31,22
7000,-51,-229,-110,4,27,23
7005,-52,-228,-110,-1,29,22
7010,-49,-231,-110,-6,28,27
7015,-48,-229,-108,-9,26,25
7020,-45,-233,-111,-11,26,24
7025,-50,-233,-111,-12,30,15
7030,-48,-234,-111,-11,36,13
7035,-52,-233,-114,-12,41,10
7040,-50,-234,-109,-12,44,12
7045,-53,-236,-108,-9,45,9
7050,-52,-233,-111,-4,45,11
7055,-51,-229,-110,-3,43,7
7060,-50,-231,-111,-4,42,9
7065,-47,-231,-107,-4,42,6
7070,-49,-228,-108,-8,41,9
7075,-49,-230,-107,-11,40,9
7080,-46,-232,-111,-11,40,16
7085,-53,-232,-109,-12,39,18
7090,-48,-232,-111,-12,36,21
7095,-45,-233,-106,-11,33,20
7100,-53,-239,-111,-10,32,22
7105,-51,-240,-110,-8,29,17
7110,-52,-240,-111,-7,29,18
7115,-52,-238,-111,-3,26,15
7120,-53,-237,-114,-4,24,19
7125,-51,-239,-109,-7,22,20
7130,-51,-237,-111,-15,22,26
7135,-51,-237,-109,-22,26,29
7140,-50,-240,-112,-31,29,37
7145,-48,-247,-112,-37,34,41
7150,-49,-246,-113,-43,40,47
7155,-48,-246,-111,-50,44,45
7160,-50,-248,-112,-55,52,44
7165,-50,-254,-112,-65,61,39
7170,-51,-254,-111,-72,69,37
7175,-51,-257,-113,-81,73,32
7180,-50,-256,-115,-94,74,33
7185,-52,-259,-115,-108,76,31
7190,-51,-259,-116,-126,76,33
7195,-54,-259,-116,-144,73,28
7200,-53,-261,-116,-163,70,23
7205,-53,-256,-114,-182,71,11
7210,-50,-262,-117,-202,73,0
7215,-51,-263,-119,-225,79,-23
7220,-50,-265,-115,-251,88,-43
7225,-52,-268,-115,-275,100,-68
7230,-56,-267,-116,-303,110,-93
7235,-52,-271,-115,-334,117,-117
7240,-56,-270,-118,-369,123,-134
7245,-55,-273,-119,-400,119,-158
7250,-60,-272,-124,-431,115,-174
7255,-58,-273,-124,-465,106,-192
7260,-61,-270,-129,-501,91,-203
7265,-62,-267,-131,-536,76,-214
7270,-58,-264,-136,-567,56,-221
7275,-58,-261,-139,-609,44,-229
7280,-60,-259,-140,-645,39,-234
7285,-60,-259,-142,-678,39,-245
7290,-55,-259,-146,-702,46,-254
7295,-56,-261,-148,-722,59,-270
7300,-56,-259,-145,-744,75,-283
7305,-53,-258,-148,-760,93,-294
7310,-53,-257,-138,-774,106,-299
7315,-59,-255,-146,-779,119,-304
7320,-55,-254,-151,-784,131,-304
7325,-55,-253,-149,-793,142,-316
7330,-52,-253,-156,-804,155,-324
7335,-54,-252,-153,-811,169,-344
7340,-51,-254,-154,-818,190,-362
7345,-45,-251,-150,-818,207,-384
7350,-52,-244,-142,-806,211,-390
7355,-50,-236,-147,-784,205,-381
7360,-51,-237,-145,-757,186,-359
7365,-44,-236,-145,-718,165,-327
7370,-49,-239,-151,-672,141,-299
7375,-45,-235,-150,-634,121,-270
7380,-47,-237,-151,-595,108,-233
7385,-45,-237,-152,-561,97,-217
7390,-46,-238,-148,-525,90,-202
7395,-39,-238,-151,-481,81,-186
7400,-39,-237,-146,-442,70,-179
7405,-41,-236,-145,-400,64,-164
7410,-47,-237,-142,-352,53,-143
7415,-64,-231,-143,-298,38,-124
7420,-58,-243,-159,-244,29,-99
7425,-57,-249,-141,-189,25,-67
7430,-58,-252,-129,-119,18,-23
7435,-45,-257,-135,-12,12,44
7440,-31,-258,-133,107,7,62
7445,-36,-249,-139,158,23,38
7450,-48,-252,-130,187,48,14
7455,-55,-259,-127,233,55,4
7460,-32,-240,-131,303,60,-11
7465,-63,-264,-117,366,57,-43
7470,-53,-272,-126,492,39,-9
7475,-32,-275,-133,595,14,-15
7480,-22,-256,-134,682,12,-37
7485,-40,-258,-135,755,28,-63
7490,-44,-256,-135,824,41,-60
7495,-36,-249,-136,894,50,-58
7500,-37,-240,-141,937,55,-47
7505,-36,-242,-136,965,62,-44
7510,-37,-243,-139,997,81,-36
7515,-36,-238,-141,1015,93,-37
7520,-35,-235,-144,1009,99,-39
7525,-38,-230,-148,978,96,-43
7530,-35,-232,-149,918,79,-42
7535,-27,-225,-149,839,67,-42
7540,-26,-218,-150,750,59,-48
7545,-24,-220,-146,646,40,-65
7550,-25,-218,-150,515,29,-75
7555,-32,-214,-149,397,11,-79
7560,-32,-212,-147,270,-18,-79
7565,-27,-219,-142,154,-31,-73
7570,-26,-221,-140,64,-22,-60
7575,-29,-223,-139,-16,4,-45
7580,-30,-221,-141,-97,26,-23
7585,-27,-228,-132,-170,44,-6
7590,-24,-232,-120,-216,71,4
7595,-21,-239,-119,-223,104,-7
7600,-25,-239,-118,-202,135,-16
7605,-22,-247,-118,-179,134,-12
7610,-21,-248,-112,-142,131,-19
7615,-23,-249,-113,-87,133,-32
7620,-27,-249,-113,-37,131,-39
7625,-26,-249,-115,3,114,-45
7630,-31,-247,-113,31,96,-49
7635,-29,-248,-117,48,77,-53
7640,-26,-246,-118,54,64,-61
7645,-29,-246,-111,50,59,-69
7650,-33,-242,-113,45,59,-75
7655,-34,-243,-116,34,65,-84
7660,-33,-242,-114,7,70,-92
7665,-31,-244,-117,-19,74,-104
7670,-31,-239,-118,-43,78,-119
7675,-35,-238,-117,-73,88,-135
7680,-34,-240,-119,-106,96,-144
7685,-33,-240,-121,-141,100,-156
7690,-34,-240,-122,-177,101,-163
7695,-32,-237,-128,-216,96,-167
7700,-30,-242,-122,-253,95,-174
7705,-30,-241,-124,-292,94,-182
7710,-31,-238,-128,-328,93,-189
7715,-34,-240,-127,-369,89,-193
7720,-32,-240,-127,-397,83,-191
7725,-30,-238,-126,-418,74,-191
7730,-30,-245,-123,-437,62,-190
7735,-32,-245,-124,-454,51,-195
7740,-32,-247,-121,-462,39,-193
7745,-28,-252,-121,-466,30,-184
7750,-30,-249,-117,-459,18,-172
7755,-28,-249,-117,-442,10,-179
7760,-28,-250,-119,-420,3,-185
7765,-27,-253,-117,-399,5,-195
7770,-33,-251,-116,-374,11,-196
7775,-31,-248,-122,-344,17,-189
7780,-33,-250,-116,-315,22,-179
7785,-29,-250,-116,-287,26,-168
7790,-22,-249,-119,-264,28,-154
7795,-24,-246,-116,-236,39,-161
7800,-25,-247,-118,-215,51,-165
7805,-25,-244,-118,-195,67,-167
7810,-18,-249,-114,-178,81,-167
7815,-23,-246,-114,-168,91,-176
7820,-23,-245,-114,-155,98,-172
7825,-24,-249,-111,-134,102,-167
7830,-16,-247,-115,-121,103,-169
7835,-16,-248,-113,-107,102,-174
7840,-16,-248,-107,-94,105,-180
7845,-16,-250,-107,-78,106,-183
7850,-15,-248,-109,-59,106,-185
7855,-13,-240,-111,-35,107,-192
7860,-16,-249,-107,-11,114,-201
7865,-14,-247,-108,24,119,-193
7870,-16,-249,-115,60,119,-184
7875,-13,-248,-112,90,115,-166
7880,-10,-247,-111,118,111,-157
7885,-14,-244,-111,158,108,-171
7890,-16,-243,-110,204,110,-181
7895,-16,-244,-113,249,114,-180
7900,-16,-241,-114,286,117,-175
7905,-20,-240,-108,314,115,-173
7910,-22,-238,-111,346,119,-172
7915,-23,-233,-109,378,123,-174
7920,-22,-230,-109,401,127,-172
7925,-23,-228,-109,413,125,-168
7930,-23,-225,-111,415,121,-167
7935,-22,-218,-109,429,124,-166
7940,-21,-220,-106,437,126,-168
7945,-26,-214,-106,440,122,-165
7950,-28,-216,-111,443,119,-162
7955,-27,-210,-109,453,112,-159
7960,-24,-212,-108,453,106,-163
7965,-27,-196,-111,450,97,-162
7970,-30,-203,-104,456,90,-148
7975,-31,-202,-106,469,88,-138
7980,-28,-199,-102,484,84,-128
7985,-39,-205,-106,497,78,-117
7990,-22,-196,-96,497,73,-91
7995,-24,-196,-97,511,72,-92
8000,-26,-193,-96,529,75,-97
8005,-27,-193,-98,541,75,-92
8010,-29,-189,-96,554,73,-87
8015,-27,-191,-99,556,67,-82
8020,-25,-188,-97,555,60,-76
8025,-27,-187,-97,549,54,-68
8030,-23,-189,-100,542,54,-64
8035,-20,-184,-99,532,54,-61
8040,-23,-185,-100,520,59,-60
8045,-20,-190,-98,507,63,-56
8050,-16,-187,-100,498,64,-52
8055,-18,-189,-99,494,62,-49
8060,-16,-193,-98,490,57,-50
8065,-18,-192,-100,484,49,-51
8070,-16,-193,-97,476,44,-49
8075,-19,-194,-96,470,36,-48
8080,-14,-194,-95,466,29,-48
8085,-15,-194,-95,460,26,-47
8090,-14,-195,-91,453,29,-45
8095,-14,-197,-90,447,39,-42
8100,-14,-195,-87,439,51,-42
8105,-16,-195,-87,438,60,-39
8110,-14,-194,-89,438,68,-38
8115,-15,-196,-89,440,74,-37
8120,-14,-197,-94,445,76,-38
8125,-12,-197,-92,449,76,-37
8130,-11,-197,-90,451,76,-38
8135,-14,-195,-92,458,75,-36
8140,-11,-194,-94,467,76,-33
8145,-12,-194,-90,478,74,-26
8150,-10,-194,-89,490,71,-23
8155,-11,-191,-90,509,71,-18
8160,-11,-195,-89,524,73,-16
8165,-7,-192,-88,531,79,-16
8170,-9,-192,-85,536,86,-17
8175,-7,-187,-85,536,97,-15
8180,-7,-183,-100,531,110,-17
8185,-9,-185,-85,520,118,-18
8190,-11,-184,-89,508,124,-19
8195,-12,-183,-88,494,124,-20
8200,-9,-183,-86,473,122,-30
8205,-13,-181,-84,452,115,-39
8210,-12,-180,-88,437,110,-28
8215,-20,-177,-83,426,105,-21
8220,-14,-183,-94,397,104,1
8225,-10,-186,-86,382,106,-15
8230,-13,-181,-88,366,109,-28
8235,-14,-186,-89,349,119,-29
8240,-13,-186,-87,328,130,-30
8245,-15,-185,-91,306,141,-32
8250,-12,-189,-92,281,151,-35
8255,-11,-192,-87,253,162,-38
8260,-7,-194,-93,224,175,-43
8265,-13,-192,-100,189,186,-45
8270,-12,-194,-101,159,201,-50
8275,-13,-196,-103,133,215,-54
8280,-13,-201,-98,110,228,-58
8285,-12,-205,-101,94,235,-59
8290,-8,-212,-98,84,240,-64
8295,-9,-210,-98,80,241,-66
8300,-12,-212,-102,80,242,-67
8305,-9,-215,-101,80,239,-67
8310,-5,-215,-96,82,239,-66
8315,-8,-220,-96,83,235,-62
8320,-8,-221,-101,83,227,-63
8325,-8,-221,-97,79,220,-59
8330,-9,-225,-97,74,209,-57
8335,-10,-226,-99,72,199,-52
8340,-12,-228,-98,74,186,-50
8345,-12,-231,-101,77,174,-47
8350,-14,-231,-102,83,163,-45
8355,-16,-232,-103,91,155,-42
8360,-16,-235,-104,98,153,-42
8365,-17,-235,-108,104,158,-41
8370,-16,-233,-106,110,166,-40
8375,-18,-234,-104,114,175,-36
8380,-17,-235,-105,116,184,-39
8385,-19,-231,-107,120,192,-36
8390,-24,-229,-104,122,199,-38
8395,-24,-229,-104,125,204,-38
8400,-30,-220,-105,128,203,-40
8405,-21,-228,-98,131,201,-41
8410,-21,-227,-99,133,200,-43
8415,-17,-229,-99,133,195,-43
8420,-16,-229,-96,133,191,-43
8425,-16,-228,-98,132,186,-43
8430,-16,-228,-98,132,179,-45
8435,-16,-229,-97,131,170,-45
8440,-15,-227,-97,125,162,-47
8445,-12,-229,-95,117,156,-45
8450,-16,-227,-94,110,153,-46
8455,-13,-226,-92,109,150,-42
8460,-14,-230,-94,104,149,-39
8465,-14,-227,-91,103,149,-36
8470,-11,-228,-85,100,152,-33
8475,-11,-230,-87,96,152,-29
8480,-12,-235,-81,89,155,-25
8485,-10,-230,-81,77,156,-19
8490,-12,-232,-80,62,157,-18
8495,-10,-234,-82,45,155,-15
8500,-11,-237,-84,28,155,-15
8505,-11,-238,-85,12,151,-11
8510,-10,-231,-95,-2,150,-12
8515,-10,-242,-86,-14,148,-8
8520,-7,-242,-87,-21,145,-9
8525,-11,-245,-86,-24,140,-8
8530,-12,-251,-86,-23,133,-9
8535,-11,-251,-81,-15,125,-7
8540,-11,-252,-82,-2,117,-8
8545,-10,-255,-86,12,108,-6
8550,-14,-252,-84,24,101,-6
8555,-13,-249,-78,38,94,-4
8560,-13,-256,-81,49,91,-9
8565,-15,-254,-81,58,92,-7
8570,-15,-253,-80,66,92,-11
8575,-15,-252,-79,69,94,-12
8580,-16,-251,-82,70,93,-16
8585,-16,-252,-80,70,89,-16
8590,-16,-250,-77,68,82,-20
8595,-16,-247,-82,66,74,-20
8600,-15,-246,-77,65,68,-23
8605,-16,-248,-79,67,60,-21
8610,-18,-247,-76,68,51,-22
8615,-14,-247,-76,68,44,-20
8620,-15,-236,-83,69,39,-22
8625,-15,-245,-79,70,33,-20
8630,-15,-245,-78,68,30,-22
8635,-12,-246,-75,67,27,-19
8640,-14,-245,-74,64,27,-21
8645,-13,-247,-75,62,27,-19
8650,-9,-246,-78,56,26,-21
8655,-12,-246,-79,57,26,-19
8660,-9,-244,-73,57,25,-21
8665,-8,-244,-73,57,26,-20
8670,-8,-242,-75,60,23,-23
8675,-8,-240,-77,58,21,-23
8680,-7,-244,-77,54,19,-27
8685,-9,-240,-76,48,16,-26
8690,-6,-244,-76,42,14,-29
8695,-5,-245,-76,36,13,-28
8700,-8,-243,-73,30,13,-33
8705,-9,-242,-73,24,13,-32
8710,-6,-247,-76,20,14,-37
8715,-9,-245,-71,18,15,-35
8720,-6,-249,-77,18,15,-37
8725,-8,-249,-73,19,15,-34
8730,-6,-250,-77,20,16,-36
8735,-5,-249,-74,22,16,-32
8740,-8,-248,-73,24,16,-31
8745,-6,-248,-73,29,12,-26
8750,-10,-245,-80,29,10,-24
8755,-8,-244,-72,30,4,-16
8760,-9,-246,-78,30,-2,-15
8765,-7,-246,-73,27,-9,-10
8770,-7,-247,-75,23,-13,-8
8775,-5,-249,-76,24,-15,-4
8780,-8,-248,-69,24,-14,-5
8785,-5,-247,-72,21,-14,-1
8790,-6,-252,-72,22,-11,-2
8795,-6,-248,-78,23,-7,1
8800,-5,-247,-74,28,-1,-1
8805,-5,-251,-72,32,5,1
8810,-6,-251,-73,34,10,-3
8815,-10,-247,-74,39,15,-1
8820,-6,-252,-70,42,16,-5
8825,-5,-251,-72,48,16,-4
8830,-5,-252,-74,54,12,-7
8835,-5,-251,-74,63,10,-5
8840,-9,-247,-71,70,8,-6
8845,-9,-247,-73,77,5,-3
8850,-8,-248,-72,82,3,-5
8855,-9,-243,-75,83,0,-2
8860,-9,-243,-74,81,1,-3
8865,-7,-245,-79,77,0,2
8870,-6,-239,-74,74,1,1
8875,-7,-240,-78,68,2,3
8880,-6,-239,-73,61,8,2
8885,0,-241,-72,53,12,6
8890,-5,-240,-71,43,16,5
8895,-4,-241,-74,33,18,6
8900,-4,-243,-70,24,20,3
8905,-6,-241,-73,14,20,4
8910,-5,-242,-70,6,22,2
8915,-5,-244,-74,1,25,2
8920,-5,-245,-68,-5,25,0
8925,-7,-245,-70,-10,26,1
8930,-5,-249,-72,-13,26,-2
8935,-5,-244,-72,-17,28,0
8940,-7,-248,-71,-15,31,-2
8945,-5,-250,-64,-12,33,0
8950,-4,-249,-67,-10,35,-2
8955,-8,-251,-69,-5,38,2
8960,-6,-251,-69,-2,43,1
8965,-7,-248,-71,-2,47,3
8970,-5,-250,-68,0,49,3
8975,-8,-248,-71,-2,53,6
8980,-6,-252,-68,-3,53,5
8985,-7,-248,-70,-4,55,8
8990,-6,-251,-70,-5,57,7
8995,-6,-251,-67,-3,58,10
9000,-5,-252,-70,1,56,7
9005,-9,-250,-67,1,57,9
9010,-8,-249,-66,5,57,6
9015,-8,-246,-68,8,56,7
9020,-8,-246,-68,9,54,5
9025,-7,-246,-70,10,55,6
9030,-7,-246,-66,11,52,2
9035,-7,-247,-69,9,56,4
9040,-10,-246,-62,7,59,2
9045,-9,-246,-63,5,62,5
9050,-7,-247,-68,1,65,-1
9055,-9,-252,-68,-2,68,1
9060,-7,-247,-68,-7,70,-2
9065,-8,-248,-64,-9,72,-2
9070,-9,-248,-64,-12,74,-4
9075,-9,-247,-66,-13,73,-3
9080,-10,-246,-62,-13,71,-6
9085,-9,-249,-69,-16,69,-3
9090,-11,-249,-66,-17,70,-4
9095,-8,-250,-66,-20,70,-1
9100,-8,-250,-68,-22,70,-3
9105,-12,-249,-62,-24,71,0
9110,-9,-253,-66,-23,71,-1
9115,-9,-252,-65,-23,73,2
9120,-9,-249,-68,-23,76,2
9125,-7,-251,-66,-18,75,7
9130,-9,-250,-64,-14,77,5
9135,-8,-251,-65,-8,75,9
9140,-6,-250,-62,-3,78,8
9145,-7,-250,-66,2,79,10
9150,-7,-250,-64,6,79,7
9155,-8,-247,-64,8,82,10
9160,-9,-247,-65,8,84,6
9165,-2,-249,-61,10,86,8
9170,-8,-248,-62,10,87,4
9175,-9,-250,-62,10,87,4
9180,-9,-252,-66,7,90,1
9185,-10,-249,-66,5,91,2
9190,-11,-252,-64,3,92,-2
9195,-11,-250,-64,2,91,-2
9200,-11,-251,-64,4,90,-5
9205,-9,-250,-64,6,88,-3
9210,-10,-253,-65,11,87,-4
9215,-11,-254,-65,19,85,-3
9220,-11,-254,-62,24,83,-7
9225,-9,-254,-68,30,82,-4
9230,-10,-252,-62,36,81,-8
9235,-10,-253,-63,41,80,-6
9240,-12,-250,-65,46,79,-8
9245,-8,-251,-62,48,78,-4
9250,-9,-249,-60,52,77,-7
9255,-10,-248,-63,55,77,-6
9260,-7,-251,-58,54,79,-6
9265,-10,-248,-64,53,79,-4
9270,-10,-253,-58,51,81,-6
9275,-8,-249,-61,46,81,-4
9280,-7,-250,-56,43,83,-6
9285,-7,-249,-61,39,84,-2
9290,-6,-247,-62,36,86,-4
9295,-8,-248,-63,33,88,-1
9300,-9,-247,-64,30,86,-3
9305,-9,-247,-64,29,85,2
9310,-8,-251,-67,28,83,0
9315,-8,-244,-61,27,82,5
9320,-8,-249,-64,23,79,3
9325,-6,-249,-61,21,77,6
9330,-5,-248,-64,19,76,4
9335,-7,-247,-64,18,75,7
9340,-8,-245,-56,17,72,5
9345,-6,-248,-61,17,71,9
9350,-8,-251,-58,16,68,7
9355,-9,-248,-58,14,65,9
9360,-9,-249,-59,14,63,7
9365,-9,-246,-59,13,59,7
9370,-8,-251,-61,10,59,5
9375,-6,-250,-60,11,58,7
9380,-16,-240,-63,10,58,4
9385,-9,-249,-61,10,60,4
9390,-6,-251,-62,8,61,2
9395,-8,-250,-63,7,62,4
9400,-9,-250,-66,5,65,0
9405,-10,-250,-60,4,67,4
9410,-9,-252,-63,2,65,1
9415,-11,-251,-61,3,63,5
9420,-11,-251,-61,5,61,3
9425,-12,-249,-60,9,57,4
9430,-9,-251,-60,12,56,2
9435,-10,-251,-59,17,54,3
9440,-7,-252,-62,19,53,2
9445,-10,-248,-60,22,51,2
9450,-11,-251,-62,25,51,0
9455,-9,-252,-64,26,51,2
9460,-8,-248,-59,25,51,-3
9465,-7,-251,-62,23,52,-1
9470,-9,-250,-65,20,53,-3
9475,-5,-249,-66,16,55,-1
9480,-9,-246,-65,15,57,-4
9485,-7,-247,-64,13,60,-3
9490,0,-246,-66,13,63,-5
9495,-9,-250,-62,14,65,-3
9500,-7,-248,-59,14,66,-6
9505,-6,-250,-63,12,68,-4
9510,-9,-248,-59,13,67,-7
9515,-9,-250,-63,11,67,-5
9520,-8,-251,-64,11,65,-9
9525,-7,-251,-61,9,65,-5
9530,-8,-250,-62,11,61,-7
9535,-7,-247,-60,12,58,-5
9540,-8,-247,-63,13,55,-4
9545,-7,-247,-64,18,53,-2
9550,-5,-251,-64,17,51,-5
9555,-5,-248,-64,15,50,-1
9560,-8,-249,-61,16,52,-2
9565,-9,-247,-65,14,56,1
9570,-11,-247,-61,15,58,-1
9575,-9,-251,-62,14,61,2
9580,-8,-248,-60,14,62,-2
9585,-9,-250,-61,13,64,0
9590,-7,-249,-63,14,68,-1
9595,-10,-246,-62,15,73,0
9600,-5,-251,-68,14,76,-1
9605,-9,-248,-58,14,77,0
9610,-9,-249,-65,15,78,-2
9615,-9,-250,-60,16,79,-1
9620,-9,-249,-66,14,79,-2
9625,-10,-248,-61,14,81,-1
9630,-8,-252,-61,12,81,-3
9635,-11,-251,-58,11,81,-2
9640,-9,-250,-60,10,81,-3
9645,-9,-247,-60,10,80,-1
9650,-8,-248,-64,10,80,-4
9655,-9,-246,-62,9,81,-1
9660,-9,-248,-63,8,79,-3
9665,-8,-250,-65,6,80,0
9670,-10,-250,-59,5,79,-2
9675,-6,-252,-62,4,78,1
9680,-10,-249,-62,4,82,0
9685,-10,-248,-62,4,82,3
9690,-9,-253,-62,3,83,2
9695,-8,-249,-63,4,84,5
9700,-8,-251,-63,2,81,4
9705,-11,-248,-59,2,78,7
9710,-9,-250,-58,2,75,5
9715,-12,-248,-64,4,73,8
9720,-12,-250,-63,5,70,6
9725,-9,-248,-61,6,69,8
9730,-12,-250,-63,5,69,5
9735,-12,-248,-62,5,69,8
9740,-11,-250,-59,4,70,5
9745,-11,-247,-61,1,71,6
9750,-9,-250,-63,-1,71,5
9755,-11,-248,-64,-3,71,5
9760,-10,-252,-61,-4,74,2
9765,-8,-249,-64,-6,75,3
9770,-10,-251,-63,-5,75,1
9775,-12,-251,-60,-3,73,3
9780,-10,-252,-62,-2,71,1
9785,-11,-250,-63,-1,69,3
9790,-11,-249,-57,-3,70,0
9795,-11,-248,-61,-5,66,3
9800,-8,-252,-66,-6,62,1
9805,-10,-250,-60,-8,57,3
9810,-10,-248,-61,-11,56,2
9815,3,-243,-70,-14,54,3
9820,-8,-251,-63,-15,52,2
9825,-10,-248,-65,-16,49,3
9830,-9,-250,-62,-16,48,2
9835,-9,-254,-61,-13,48,1
9840,-10,-250,-63,-10,46,-1
9845,-11,-252,-63,-7,44,1
9850,-9,-250,-57,-7,43,-2
9855,-8,-254,-61,-6,43,-1
9860,-11,-252,-62,-5,44,-2
9865,-12,-247,-60,-7,45,-2
9870,-10,-248,-63,-9,46,-3
9875,-11,-249,-64,-10,46,-4
9880,-10,-248,-60,-10,45,-4
9885,-10,-250,-64,-11,45,-3
9890,-10,-248,-59,-9,44,-3
9895,-9,-249,-63,-12,44,-2
9900,-9,-249,-65,-10,44,-4
9905,-9,-248,-60,-11,45,-1
9910,-10,-249,-61,-12,46,-3
9915,-8,-249,-63,-12,45,-2
9920,-9,-250,-59,-12,46,-3
9925,-8,-250,-74,-11,45,-3
9930,-9,-250,-58,-11,45,-4
9935,-6,-250,-63,-11,44,-3
9940,-10,-248,-63,-14,45,-6
9945,-8,-251,-61,-16,44,-5
9950,-7,-252,-61,-14,45,-6
9955,-10,-249,-60,-15,44,-3
9960,-7,-251,-65,-13,43,-5
9965,-11,-249,-61,-12,44,-4
9970,-7,-249,-59,-9,42,-6
9975,-10,-249,-60,-6,42,-5
9980,-9,-250,-58,-3,43,-5
9985,-8,-252,-62,0,44,-6
9990,-6,-249,-62,1,46,-6
9995,-8,-247,-58,1,48,-5
10000,-10,-249,-61,1,47,-6
10005,-6,-248,-61,-1,46,-4
10010,-8,-249,-62,-4,46,-3
10015,-9,-247,-60,-5,46,-1
10020,-9,-248,-63,-8,48,-3
10025,-8,-248,-65,-9,47,-1
10030,-11,-250,-59,-10,45,-2
10035,-9,-253,-59,-11,44,-1
10040,-9,-249,-57,-14,44,-2
10045,-10,-251,-58,-14,43,0
10050,-8,-248,-60,-17,45,-3
10055,-8,-252,-60,-19,48,-1
10060,-10,-252,-57,-19,51,-3
10065,-10,-252,-61,-17,50,-2
10070,-10,-251,-58,-16,51,-5
10075,-8,-251,-60,-13,51,-3
10080,-10,-251,-60,-11,52,-4
10085,-9,-251,-55,-8,52,-5
10090,-8,-254,-58,-5,53,-4
10095,-10,-252,-58,-3,53,-4
10100,-12,-251,-63,1,56,-5
10105,-11,-254,-66,3,58,-5
10110,-12,-251,-58,3,58,-4
10115,-7,-248,-61,3,56,-4
10120,-13,-249,-62,2,56,-6
10125,-12,-249,-65,1,58,-3
10130,-10,-249,-59,-1,59,-4
10135,-10,-247,-62,-4,58,-4
10140,-10,-248,-58,-5,57,-4
10145,-12,-247,-64,-6,57,-3
10150,-9,-251,-61,-6,58,-3
10155,-9,-246,-60,-4,59,-2
10160,-11,-249,-57,-1,61,-2
10165,-6,-251,-58,2,65,0
10170,-13,-248,-59,6,66,-1
10175,-7,-250,-61,7,67,1
10180,-10,-249,-59,8,68,0
10185,-9,-248,-59,8,66,3
10190,-11,-249,-58,7,66,2
10195,-11,-250,-60,4,65,1
10200,-10,-247,-58,2,65,1
10205,-10,-247,-56,-3,64,3
10210,-10,-248,-57,-5,63,1
10215,-10,-251,-57,-7,63,2
10220,-10,-251,-59,-7,62,1
10225,-9,-251,-59,-5,60,1
10230,-13,-248,-59,-5,58,0
10235,-10,-252,-59,-6,56,0
10240,-9,-250,-62,-5,53,-1
10245,-12,-250,-57,-4,53,-1
10250,-5,-255,-70,-4,50,-1
10255,-9,-254,-62,-4,50,1
10260,-10,-251,-60,-5,51,1
10265,-12,-251,-60,-4,54,2
10270,-13,-252,-55,-5,56,0
10275,-12,-250,-57,-6,57,-1
10280,-10,-250,-55,-6,58,-2
10285,-9,-251,-59,-4,59,-2
10290,-11,-251,-59,-4,61,-3
10295,-12,-250,-61,-5,61,-3
10300,-11,-253,-60,-6,63,-2
10305,-12,-251,-60,-6,60,-4
10310,-8,-252,-59,-6,60,-5
10315,-10,-252,-59,-6,58,-4
10320,-12,-250,-60,-7,57,-3
10325,-9,-247,-57,-6,56,-3
10330,-7,-253,-54,-7,55,-3
10335,-10,-252,-59,-6,55,-2
10340,-10,-249,-62,-4,52,-2
10345,-12,-247,-63,-5,50,-1
10350,-10,-250,-63,-4,48,-3
10355,-10,-249,-64,-4,45,-2
10360,-4,-247,-61,-6,43,0
10365,-12,-250,-59,-8,42,0
10370,-12,-249,-57,-10,40,0
10375,-12,-247,-62,-10,39,0
10380,-14,-249,-56,-10,40,-1
10385,-12,-249,-58,-9,41,0
10390,-10,-247,-58,-8,44,0
10395,-14,-252,-59,-8,45,0
10400,-9,-250,-61,-10,48,-1
10405,-10,-248,-58,-12,50,-2
10410,-10,-252,-55,-15,51,-1
10415,-9,-251,-59,-17,54,-3
10420,-11,-249,-59,-18,53,-2
10425,-12,-254,-56,-15,52,-3
10430,-10,-252,-62,-14,50,-4
10435,-10,-251,-55,-12,48,-5
10440,-11,-251,-58,-10,45,-5
10445,-12,-253,-56,-8,44,-6
10450,-12,-249,-60,-5,42,-5
10455,-11,-250,-58,-3,40,-6
10460,-11,-249,-62,-1,41,-6
10465,-9,-252,-61,2,41,-6
10470,-10,-249,-61,3,40,-4
10475,-10,-249,-60,4,40,-4
10480,-12,-250,-57,2,38,-4
10485,-13,-248,-58,-1,39,-4
10490,-9,-249,-60,-3,38,-4
10495,-9,-251,-59,-4,37,-5
10500,-10,-250,-58,-6,37,-4
10505,-9,-251,-59,-7,36,-5
10510,-12,-248,-57,-8,36,-5
10515,-13,-249,-60,-8,35,-4
10520,-9,-252,-57,-8,34,-5
10525,-13,-250,-60,-6,34,-7
10530,-10,-252,-57,-4,35,-4
10535,-12,-251,-58,-5,35,-6
10540,-8,-252,-55,-4,36,-6
10545,-10,-251,-60,-3,34,-6
10550,-11,-250,-59,-2,35,-6
10555,-9,-249,-56,-3,35,-6
10560,-10,-250,-58,-4,36,-6
10565,-11,-251,-56,-3,37,-8
10570,-10,-252,-57,-2,36,-8
10575,-10,-251,-57,0,36,-8
10580,-15,-256,-60,1,38,-8
10585,-9,-250,-59,4,38,-8
10590,-11,-251,-61,4,39,-8
10595,-9,-250,-58,5,40,-9
10600,-10,-251,-55,3,38,-8
10605,-11,-249,-55,2,38,-9
10610,-10,-250,-54,0,35,-8
10615,-11,-247,-59,-1,34,-8
10620,-9,-250,-57,-1,34,-8
10625,-13,-248,-58,0,36,-6
10630,-10,-252,-63,-1,36,-7
10635,-9,-250,-65,0,38,-7
10640,-10,-250,-61,-1,38,-6
10645,-11,-249,-62,0,38,-7
10650,-8,-251,-61,-1,38,-5
10655,-12,-249,-63,-3,39,-6
10660,-12,-247,-60,-2,39,-5
10665,-9,-251,-59,-4,38,-6
10670,-9,-249,-60,-5,40,-4
10675,-11,-250,-59,-4,40,-4
10680,-5,-247,-59,-7,41,-3
10685,-8,-248,-59,-9,42,-3
10690,-6,-248,-62,-11,42,-2
10695,-11,-250,-57,-11,41,-4
10700,-9,-248,-56,-12,41,-3
10705,-11,-249,-60,-14,40,-5
10710,-9,-251,-60,-13,40,-3
10715,-9,-251,-57,-14,41,-3
10720,-13,-249,-57,-13,40,-2
10725,-12,-248,-60,-13,41,-3
10730,-10,-249,-58,-11,42,-3
10735,-12,-250,-58,-10,45,-5
10740,-13,-246,-60,-10,46,-4
10745,-11,-251,-57,-9,45,-6
10750,-9,-250,-58,-10,45,-5
10755,-10,-248,-59,-8,45,-6
10760,-9,-250,-62,-8,46,-5
10765,-11,-250,-58,-10,45,-6
10770,-8,-251,-63,-10,45,-4
10775,-10,-251,-59,-12,45,-5
10780,-12,-247,-56,-11,44,-3
10785,-9,-250,-59,-13,45,-4
10790,-11,-248,-58,-12,46,-3
10795,-11,-253,-62,-10,45,-3
10800,-12,-250,-57,-9,47,-1
10805,-12,-250,-60,-10,46,-3
10810,-12,-249,-56,-8,50,-1
10815,-9,-253,-59,-8,52,-3
10820,-11,-251,-56,-8,54,-1
10825,-11,-251,-56,-10,53,-4
10830,-11,-250,-58,-12,50,-3
10835,-11,-251,-54,-14,48,-4
10840,-11,-249,-57,-14,49,-4
10845,-11,-251,-60,-16,46,-4
10850,-11,-250,-58,-18,47,-3
10855,-10,-249,-56,-15,47,-5
10860,-10,-250,-58,-11,46,-3
10865,-10,-251,-58,-9,48,-4
10870,-11,-252,-56,-5,50,-2
10875,-12,-249,-59,-3,51,-4
10880,-10,-252,-56,-3,53,-2
10885,-11,-252,-56,-4,56,-4
10890,-10,-249,-57,-6,56,-2
10895,-11,-251,-56,-7,56,-3
10900,-11,-251,-58,-9,55,-3
10905,-13,-248,-63,-13,53,-2
10910,-12,-247,-59,-14,53,-2
10915,-11,-251,-56,-17,53,-5
10920,-11,-250,-55,-18,54,-3
10925,-12,-253,-57,-18,55,-5
10930,-11,-250,-58,-18,57,-4
10935,-9,-251,-56,-17,56,-7
10940,-12,-253,-55,-14,57,-5
10945,-10,-253,-55,-12,57,-5
10950,-10,-251,-55,-10,56,-4
10955,-9,-251,-62,-7,55,-5
10960,-12,-250,-63,-7,52,-1
10965,-12,-251,-57,-6,49,-3
10970,-14,-246,-60,-8,46,-1
10975,-11,-248,-59,-8,45,-2
10980,-12,-252,-54,-8,45,0
10985,-13,-250,-58,-8,45,-3
10990,-13,-249,-57,-9,46,-2
10995,-11,-250,-58,-13,49,-5
11000,-14,-249,-57,-16,51,-3
11005,-14,-247,-60,-19,53,-7
11010,-13,-249,-61,-20,53,-5
11015,-16,-253,-59,-21,55,-7
11020,-13,-251,-60,-22,56,-6
11025,-12,-248,-61,-22,57,-7
11030,-12,-250,-56,-22,57,-4
11035,-12,-248,-59,-22,57,-5
11040,-13,-248,-60,-22,58,-3
11045,-9,-248,-57,-23,58,-3
11050,-13,-248,-58,-23,56,0
11055,-9,-249,-54,-24,56,0
11060,-12,-250,-54,-25,56,2
11065,-13,-251,-55,-26,56,1
11070,-11,-253,-58,-27,54,3
11075,-10,-251,-61,-28,55,2
11080,-10,-251,-57,-28,57,3
11085,-11,-252,-61,-29,59,-1
11090,-9,-251,-58,-30,60,1
11095,-11,-253,-59,-30,61,-2
11100,-10,-253,-61,-29,60,0
11105,-11,-251,-58,-29,61,-2
11110,-12,-254,-64,-26,62,-1
11115,-14,-251,-62,-27,63,-5
11120,-13,-253,-59,-26,64,-4
11125,-9,-244,-64,-24,63,-4
11130,-11,-251,-62,-22,64,-4
11135,-10,-253,-58,-22,66,-4
11140,-12,-250,-59,-20,68,-1
11145,-13,-248,-60,-18,68,-3
11150,-13,-248,-55,-19,69,-2
11155,-13,-247,-60,-20,67,-3
11160,-12,-251,-54,-20,62,-1
11165,-11,-251,-62,-20,61,-2
11170,-11,-251,-55,-20,57,0
11175,-10,-250,-57,-21,55,-1
11180,-10,-252,-58,-22,54,1
11185,-9,-252,-59,-24,55,0
11190,-11,-253,-58,-25,54,1
11195,-12,-253,-57,-26,55,0
11200,-11,-250,-55,-26,56,1
11205,-13,-253,-56,-29,54,-1
11210,-10,-250,-56,-29,54,1
11215,-12,-253,-57,-28,55,-3
11220,-11,-248,-57,-26,55,-2
11225,-13,-253,-54,-24,55,-3
11230,-12,-253,-60,-24,55,-3
11235,-7,-250,-59,-23,57,-6
11240,-12,-249,-62,-23,58,-3
11245,-14,-250,-57,-23,61,-5
11250,-12,-250,-59,-23,61,-2
11255,-10,-253,-61,-22,63,-5
11260,-14,-252,-57,-23,64,-2
11265,-10,-250,-60,-23,62,-4
11270,-11,-249,-58,-24,61,-3
11275,-11,-253,-60,-24,61,-4
11280,-13,-250,-57,-23,60,-3
11285,-11,-249,-59,-22,60,-4
11290,-12,-250,-61,-18,60,-2
11295,-10,-247,-59,-17,59,-5
11300,-9,-252,-63,-16,59,-2
11305,-11,-246,-62,-18,58,-5
11310,-14,-250,-63,-21,55,-3
11315,-13,-249,-61,-23,54,-7
11320,-11,-250,-60,-25,54,-5
11325,-15,-251,-60,-27,54,-7
11330,-11,-250,-63,-28,55,-5
11335,-11,-251,-56,-29,58,-7
11340,-15,-261,-45,-27,59,-4
11345,-11,-251,-59,-27,62,-7
11350,-12,-250,-57,-26,63,-4
11355,-10,-253,-59,-23,65,-5
11360,-10,-253,-59,-21,66,-4
11365,-11,-249,-62,-19,65,-6
11370,-11,-249,-56,-17,66,-4
11375,-11,-252,-58,-17,66,-6
11380,-10,-249,-59,-14,66,-4
11385,-12,-252,-58,-13,66,-5
11390,-13,-253,-62,-12,67,-3
11395,-12,-251,-57,-11,65,-6
11400,-10,-250,-56,-8,67,-4
11405,-13,-250,-58,-6,67,-7
11410,-10,-251,-56,-4,67,-5
11415,-10,-251,-58,-2,68,-8
11420,-11,-250,-62,-1,69,-6
11425,-10,-251,-59,-1,70,-9
11430,-12,-249,-63,-1,70,-6
11435,-8,-246,-61,-4,71,-8
11440,-10,-250,-59,-6,72,-6
11445,-11,-249,-60,-9,71,-8
11450,-6,-256,-55,-11,71,-6
11455,-10,-252,-59,-11,70,-8
11460,-13,-251,-53,-12,69,-6
11465,-11,-250,-58,-12,68,-8
11470,-10,-253,-57,-13,63,-7
11475,-10,-251,-62,-11,61,-8
11480,-11,-253,-57,-11,62,-4
11485,-8,-250,-55,-11,63,-6
11490,-9,-251,-60,-10,64,-4
11495,-9,-248,-56,-12,67,-8
11500,-9,-251,-57,-11,72,-4
11505,-13,-248,-60,-11,75,-7
11510,-9,-251,-60,-13,77,-4
11515,-11,-250,-57,-13,78,-6
11520,-11,-251,-60,-13,80,-6
11525,-11,-251,-55,-14,79,-6
11530,-8,-251,-61,-15,80,-3
11535,-7,-251,-60,-14,80,-8
11540,-12,-253,-62,-14,80,-4
11545,-9,-249,-61,-13,79,-5
11550,-14,-249,-61,-12,77,-2
11555,-11,-249,-58,-11,78,-5
11560,-9,-247,-53,-9,77,-3
11565,-12,-248,-56,-8,76,-6
11570,-10,-251,-60,-9,75,-2
11575,-13,-249,-59,-9,75,-6
11580,-10,-252,-62,-10,75,-3
11585,-9,-252,-60,-12,76,-5
11590,-12,-249,-58,-13,77,-4
11595,-11,-249,-58,-14,76,-7
11600,-11,-249,-57,-16,77,-4
11605,-12,-251,-61,-16,78,-6
11610,-12,-252,-59,-16,80,-4
11615,-12,-249,-60,-15,79,-5
11620,-12,-249,-60,-15,78,-3
11625,-10,-252,-63,-13,76,-6
11630,-12,-250,-59,-13,73,-4
11635,-13,-254,-62,-15,73,-6
11640,-11,-250,-59,-16,72,-2
11645,-11,-248,-59,-15,72,-5
11650,-8,-249,-61,-13,72,-3
11655,-12,-252,-58,-12,72,-6
11660,-11,-251,-57,-10,72,-4
11665,-9,-252,-56,-8,73,-6
11670,-11,-252,-52,-7,73,-5
11675,-11,-251,-58,-6,73,-8
11680,-11,-251,-58,-7,71,-5
11685,-10,-252,-59,-7,71,-8
11690,-11,-249,-57,-9,70,-6
11695,-11,-249,-57,-12,68,-8
11700,-9,-252,-59,-13,69,-5
11705,-11,-249,-60,-12,69,-8
11710,-10,-253,-57,-12,71,-5
11715,-10,-251,-57,-12,72,-8
11720,-10,-251,-56,-10,72,-5
11725,-11,-248,-60,-9,73,-7
11730,-9,-250,-56,-10,71,-5
11735,-12,-249,-55,-9,72,-8
11740,-8,-253,-59,-8,72,-5
11745,-11,-252,-60,-9,69,-7
11750,-10,-248,-55,-8,68,-5
11755,-10,-250,-60,-9,68,-9
11760,-12,-247,-58,-10,64,-6
11765,-13,-247,-57,-11,64,-8
11770,-11,-247,-61,-11,62,-5
11775,-20,-252,-53,-14,62,-7
11780,-9,-250,-56,-16,60,-5
11785,-10,-251,-55,-17,60,-7
11790,-10,-251,-55,-19,60,-5
11795,-10,-252,-56,-23,62,-7
11800,-11,-250,-56,-26,65,-6
11805,-11,-250,-61,-29,68,-8
11810,-12,-250,-62,-30,69,-4
11815,-9,-248,-55,-30,73,-8
11820,-10,-251,-61,-28,75,-4
11825,-9,-250,-56,-26,77,-7
11830,-8,-248,-59,-25,79,-4
11835,-8,-250,-58,-24,82,-6
11840,-10,-249,-59,-24,82,-2
11845,-6,-250,-60,-22,83,-2
11850,-6,-250,-61,-23,83,1
11855,-7,-247,-64,-24,81,0
11860,-3,-250,-62,-24,81,3
11865,-5,-248,-59,-24,82,1
11870,-3,-249,-58,-25,83,5
11875,-6,-247,-58,-27,86,3
11880,-7,-250,-57,-29,89,4
11885,-7,-254,-63,-29,92,3
11890,-9,-251,-62,-32,94,6
11895,-5,-253,-63,-34,95,2
11900,-8,-250,-57,-37,97,4
11905,-7,-251,-60,-35,99,3
11910,-12,-250,-62,-35,101,5
11915,-6,-252,-60,-32,103,4
11920,-7,-252,-60,-30,104,6
11925,-9,-248,-60,-28,104,3
11930,-12,-249,-62,-26,104,4
11935,-12,-248,-61,-24,102,1
11940,-13,-253,-58,-23,100,4
11945,-12,-250,-59,-22,96,1
11950,-15,-252,-62,-24,91,1
11955,-14,-250,-62,-24,87,-2
11960,-13,-251,-62,-24,84,-1
11965,-13,-251,-59,-23,79,-2
11970,-15,-251,-60,-23,73,-1
11975,-16,-249,-61,-25,68,-3
11980,-11,-253,-59,-27,63,-2
11985,-16,-252,-60,-27,58,-6
11990,-14,-252,-66,-27,52,-4
11995,-10,-243,-65,-27,48,-8
