timestamp,acc_x,acc_y,acc_z,gyro_x,gyro_y,gyro_z
0,6,-225,-105,15,11,-12
5,5,-224,-109,14,11,-12
10,6,-226,-108,13,12,-11
15,8,-227,-108,13,11,-10
20,5,-225,-106,13,11,-11
25,4,-219,-110,15,10,-12
30,4,-225,-109,18,10,-12
35,4,-223,-105,20,8,-12
40,2,-223,-112,21,6,-11
45,2,-226,-111,25,5,-14
50,3,-224,-111,27,4,-15
55,5,-228,-108,29,3,-15
60,6,-222,-109,31,1,-15
65,8,-224,-107,34,0,-15
70,2,-222,-113,36,0,-15
75,7,-223,-109,37,2,-17
80,8,-224,-115,36,3,-15
85,5,-218,-108,34,4,-14
90,2,-217,-110,30,6,-14
95,6,-221,-108,25,6,-12
100,7,-222,-103,21,6,-13
105,8,-226,-110,16,6,-14
110,8,-223,-106,12,6,-12
115,7,-223,-108,9,7,-13
120,6,-225,-111,8,6,-12
125,4,-222,-108,8,4,-14
130,2,-221,-107,12,5,-14
135,5,-225,-107,16,5,-12
140,5,-225,-112,19,7,-11
145,6,-225,-109,26,9,-11
150,5,-225,-106,35,11,-13
155,8,-224,-114,40,13,-12
160,4,-224,-109,44,14,-11
165,6,-225,-108,47,15,-9
170,7,-224,-111,49,16,-9
175,5,-223,-107,50,16,-8
180,6,-220,-109,50,16,-7
185,3,-223,-107,49,17,-8
190,4,-222,-110,47,15,-7
195,4,-220,-104,44,13,-6
200,7,-223,-111,42,9,-5
205,1,-220,-111,40,9,-6
210,5,-220,-109,38,7,-5
215,4,-222,-110,36,6,-6
220,7,-222,-109,33,4,-6
225,2,-218,-107,31,3,-8
230,5,-218,-111,29,2,-7
235,5,-224,-113,29,3,-5
240,8,-225,-111,29,2,-7
245,2,-222,-113,30,1,-8
250,5,-221,-114,31,1,-8
255,6,-223,-112,34,0,-9
260,4,-225,-111,34,2,-9
265,7,-225,-113,37,1,-10
270,7,-224,-110,37,1,-10
275,6,-223,-109,38,0,-9
280,3,-224,-111,42,-3,-9
285,5,-222,-116,45,-3,-11
290,5,-221,-111,47,-4,-13
295,5,-217,-112,49,-5,-14
300,6,-221,-112,53,-5,-16
305,5,-219,-115,54,-4,-16
310,9,-222,-112,51,-3,-18
315,7,-218,-114,51,-2,-21
320,6,-216,-113,47,0,-22
325,8,-218,-112,44,4,-23
330,11,-219,-113,43,8,-24
335,11,-222,-110,43,14,-25
340,14,-220,-108,43,18,-25
345,12,-218,-112,43,24,-26
350,16,-222,-122,43,31,-28
355,15,-219,-115,45,40,-31
360,15,-220,-114,48,49,-34
365,13,-216,-116,49,63,-36
370,16,-214,-119,48,76,-37
375,14,-212,-122,46,92,-38
380,15,-210,-123,39,107,-38
385,12,-209,-121,31,120,-43
390,18,-209,-126,22,131,-49
395,13,-210,-125,13,136,-56
400,15,-206,-127,7,138,-57
405,12,-210,-131,-2,138,-56
410,12,-205,-127,-13,136,-55
415,15,-205,-125,-26,131,-51
420,11,-199,-127,-41,123,-52
425,9,-197,-128,-56,113,-50
430,12,-201,-124,-73,98,-48
435,9,-199,-128,-87,85,-45
440,10,-197,-125,-101,72,-43
445,8,-197,-127,-115,60,-39
450,9,-199,-130,-127,48,-34
455,6,-203,-128,-138,33,-32
460,7,-202,-129,-152,22,-32
465,12,-203,-131,-162,10,-31
470,10,-199,-129,-174,-2,-30
475,8,-203,-132,-188,-15,-26
480,10,-200,-133,-205,-27,-19
485,11,-201,-131,-223,-39,-14
490,11,-199,-133,-242,-53,-11
495,10,-199,-132,-263,-67,-7
500,12,-199,-131,-284,-78,-5
505,13,-199,-132,-302,-88,-3
510,8,-198,-129,-322,-95,1
515,13,-200,-126,-337,-103,1
520,10,-194,-128,-348,-110,-1
525,10,-201,-131,-359,-115,-4
530,12,-199,-130,-367,-120,-9
535,8,-198,-133,-375,-125,-17
540,6,-194,-131,-382,-131,-24
545,10,-193,-135,-394,-137,-29
550,6,-190,-131,-407,-143,-36
555,7,-191,-137,-424,-148,-41
560,5,-187,-132,-442,-150,-45
565,10,-184,-133,-461,-150,-46
570,5,-183,-136,-483,-148,-48
575,4,-183,-132,-504,-149,-49
580,7,-183,-135,-527,-152,-51
585,8,-180,-133,-554,-157,-53
590,8,-182,-135,-584,-161,-49
595,15,-178,-137,-618,-165,-46
600,14,-177,-141,-654,-171,-43
605,17,-181,-143,-689,-178,-43
610,21,-178,-141,-724,-187,-38
615,23,-178,-143,-758,-194,-38
620,18,-184,-139,-792,-202,-35
625,17,-174,-146,-825,-209,-35
630,19,-171,-146,-856,-215,-33
635,18,-170,-147,-891,-222,-32
640,16,-169,-155,-925,-229,-33
645,15,-170,-154,-959,-237,-35
650,14,-168,-153,-988,-241,-36
655,8,-166,-152,-1016,-244,-36
660,6,-169,-153,-1042,-247,-37
665,6,-170,-153,-1063,-251,-39
670,6,-168,-150,-1078,-257,-38
675,0,-166,-147,-1089,-262,-39
680,-1,-171,-149,-1096,-264,-43
685,-1,-168,-154,-1102,-265,-46
690,-1,-166,-151,-1111,-263,-54
695,-5,-166,-154,-1117,-262,-62
700,-6,-162,-160,-1125,-259,-72
705,-5,-160,-157,-1133,-254,-83
710,-4,-158,-159,-1140,-248,-97
715,-2,-161,-160,-1150,-241,-111
720,-4,-162,-161,-1161,-236,-130
725,-7,-162,-157,-1170,-236,-154
730,-6,-162,-160,-1180,-243,-172
735,-10,-167,-158,-1185,-252,-188
740,-8,-167,-161,-1187,-265,-203
745,-9,-165,-161,-1187,-276,-217
750,-11,-173,-162,-1181,-284,-230
755,-11,-171,-162,-1170,-289,-240
760,-9,-175,-159,-1155,-292,-251
765,-6,-174,-161,-1136,-290,-263
770,-7,-174,-162,-1112,-279,-275
775,-1,-173,-163,-1089,-271,-288
780,-2,-172,-168,-1071,-264,-300
785,0,-175,-166,-1056,-262,-308
790,3,-177,-168,-1050,-263,-315
795,8,-173,-171,-1046,-265,-320
800,10,-171,-168,-1045,-271,-323
805,10,-169,-172,-1048,-269,-316
810,9,-167,-173,-1057,-261,-304
815,4,-173,-176,-1076,-248,-287
820,0,-170,-177,-1093,-225,-265
825,1,-178,-174,-1106,-201,-241
830,0,-182,-177,-1108,-178,-217
835,-5,-180,-176,-1095,-165,-192
840,-5,-180,-176,-1071,-167,-171
845,-7,-181,-179,-1035,-177,-153
850,-12,-181,-172,-993,-192,-137
855,-9,-181,-172,-944,-204,-122
860,-6,-179,-174,-896,-209,-106
865,-8,-178,-177,-861,-211,-97
870,-7,-176,-172,-839,-210,-89
875,-11,-171,-181,-833,-205,-84
880,-11,-167,-181,-839,-195,-77
885,-13,-165,-181,-858,-178,-66
890,-15,-154,-192,-885,-160,-56
895,-20,-154,-186,-916,-144,-47
900,-24,-149,-185,-950,-130,-35
905,-19,-149,-185,-979,-114,-24
910,-23,-147,-181,-1004,-97,-17
915,-23,-145,-187,-1021,-84,-11
920,-27,-145,-183,-1034,-74,-12
925,-28,-142,-187,-1042,-69,-12
930,-25,-142,-190,-1053,-64,-11
935,-24,-141,-190,-1063,-60,-5
940,-20,-135,-195,-1072,-55,5
945,-23,-138,-195,-1080,-55,18
950,-20,-132,-198,-1087,-56,35
955,-22,-129,-195,-1085,-66,50
960,-21,-130,-196,-1077,-83,65
965,-26,-129,-194,-1064,-104,78
970,-25,-126,-194,-1046,-126,93
975,-28,-125,-193,-1029,-146,108
980,-30,-123,-191,-1009,-158,120
985,-30,-119,-191,-992,-160,135
990,-30,-115,-187,-984,-153,149
995,-34,-116,-187,-978,-136,163
1000,-26,-114,-180,-977,-109,177
1005,-28,-111,-178,-977,-80,188
1010,-22,-116,-173,-980,-50,194
1015,-24,-116,-169,-978,-24,199
1020,-27,-114,-168,-968,-9,197
1025,-27,-112,-164,-954,1,193
1030,-19,-105,-163,-938,9,186
1035,-23,-101,-164,-919,21,180
1040,-18,-95,-170,-899,40,173
1045,-15,-92,-175,-883,67,168
1050,-15,-93,-171,-869,94,163
1055,-24,-87,-171,-856,110,151
1060,-29,-89,-174,-839,106,132
1065,-28,-92,-174,-817,82,112
1070,-32,-94,-175,-786,55,89
1075,-31,-93,-177,-752,32,75
1080,-33,-90,-184,-717,21,69
1085,-29,-98,-182,-694,21,72
1090,-31,-97,-193,-686,23,78
1095,-25,-97,-188,-700,25,83
1100,-25,-102,-191,-727,23,87
1105,-19,-105,-195,-755,15,91
1110,-15,-108,-194,-784,10,89
1115,-12,-107,-195,-805,6,88
1120,-8,-111,-197,-817,6,87
1125,-2,-113,-208,-822,15,83
1130,-3,-111,-213,-818,30,79
1135,-1,-109,-216,-807,46,80
1140,0,-107,-219,-784,62,88
1145,-1,-107,-221,-747,75,96
1150,-4,-106,-227,-692,82,101
1155,-8,-100,-227,-626,80,93
1160,-10,-98,-236,-560,70,86
1165,-15,-96,-227,-492,52,77
1170,-15,-95,-225,-438,30,65
1175,-21,-96,-225,-405,7,58
1180,-22,-97,-222,-391,-32,53
1185,-22,-96,-214,-384,-66,56
1190,-20,-97,-217,-388,-99,53
1195,-15,-95,-210,-396,-123,55
1200,-13,-97,-215,-406,-136,60
1205,-12,-92,-217,-417,-142,66
1210,-8,-92,-227,-425,-145,70
1215,-1,-92,-229,-430,-148,73
1220,0,-89,-236,-429,-153,74
1225,4,-86,-243,-421,-157,69
1230,8,-83,-250,-406,-153,65
1235,9,-82,-249,-387,-144,64
1240,12,-77,-246,-361,-128,65
1245,13,-80,-250,-336,-114,65
1250,14,-77,-248,-315,-104,56
1255,9,-73,-241,-293,-95,42
1260,12,-69,-243,-264,-85,33
1265,10,-66,-242,-249,-80,22
1270,11,-70,-243,-236,-84,23
1275,6,-67,-244,-225,-97,33
1280,4,-67,-242,-219,-120,38
1285,1,-65,-248,-219,-143,35
1290,0,-69,-248,-214,-169,30
1295,-3,-68,-254,-204,-184,25
1300,-7,-65,-255,-192,-193,19
1305,-6,-64,-256,-179,-194,13
1310,-4,-63,-258,-168,-183,11
1315,-6,-60,-260,-166,-167,18
1320,-6,-59,-258,-174,-149,27
1325,-7,-60,-257,-187,-140,33
1330,-1,-56,-254,-200,-128,42
1335,2,-56,-255,-221,-112,48
1340,6,-57,-256,-247,-91,56
1345,11,-55,-256,-274,-70,60
1350,12,-57,-253,-295,-48,61
1355,12,-53,-251,-316,-31,55
1360,14,-58,-250,-337,-15,49
1365,8,-57,-252,-350,-5,41
1370,5,-59,-252,-352,3,32
1375,2,-63,-254,-350,14,18
1380,2,-60,-255,-343,27,1
1385,0,-63,-254,-343,38,-17
1390,-4,-64,-256,-344,53,-37
1395,-3,-62,-255,-349,73,-57
1400,-8,-62,-253,-352,91,-69
1405,-10,-63,-254,-353,103,-77
1410,-9,-63,-253,-346,116,-76
1415,-14,-60,-252,-334,124,-71
1420,-5,-60,-251,-317,129,-63
1425,-1,-61,-252,-302,133,-47
1430,4,-62,-252,-291,136,-32
1435,3,-64,-252,-282,135,-17
1440,4,-62,-249,-271,134,-13
1445,10,-64,-249,-259,131,-9
1450,10,-63,-249,-247,126,-10
1455,7,-61,-244,-234,120,-13
1460,8,-62,-245,-219,112,-15
1465,1,-61,-249,-198,105,-21
1470,1,-63,-251,-175,95,-31
1475,1,-61,-248,-145,88,-44
1480,-2,-58,-244,-115,83,-57
1485,-8,-58,-243,-92,80,-76
1490,-11,-58,-246,-74,82,-94
1495,-10,-55,-247,-63,81,-109
1500,-12,-55,-245,-51,81,-119
1505,-16,-57,-245,-34,77,-129
1510,-15,-54,-243,-14,70,-136
1515,-17,-58,-243,7,57,-131
1520,-12,-54,-250,24,40,-120
1525,-7,-52,-247,37,23,-105
1530,-1,-56,-254,46,5,-85
1535,-1,-50,-252,53,-16,-68
1540,2,-49,-255,49,-34,-58
1545,7,-49,-254,43,-48,-50
1550,4,-50,-260,38,-58,-49
1555,6,-53,-259,38,-64,-55
1560,11,-55,-260,47,-67,-63
1565,5,-57,-258,58,-68,-74
1570,1,-56,-257,70,-69,-86
1575,6,-54,-260,81,-70,-95
1580,2,-54,-263,92,-73,-103
1585,2,-52,-259,101,-73,-110
1590,3,-55,-250,107,-74,-115
1595,0,-49,-261,112,-70,-119
1600,-1,-46,-260,115,-63,-119
1605,-1,-43,-256,112,-54,-113
1610,-2,-42,-254,110,-45,-107
1615,-3,-44,-255,102,-42,-101
1620,-1,-42,-255,92,-36,-92
1625,-6,-46,-256,84,-29,-89
1630,-5,-47,-256,80,-22,-84
1635,-6,-41,-253,76,-16,-80
1640,-1,-43,-255,72,-11,-79
1645,0,-49,-258,67,-9,-75
1650,-1,-44,-258,63,-8,-70
1655,-9,-44,-262,57,-9,-62
1660,-8,-48,-260,49,-8,-58
1665,-10,-52,-257,39,-10,-59
1670,-11,-50,-259,35,-14,-65
1675,-10,-52,-258,33,-19,-74
1680,-7,-50,-257,30,-25,-92
1685,-8,-48,-256,30,-28,-107
1690,-7,-44,-259,26,-32,-119
1695,-5,-43,-257,26,-38,-127
1700,-2,-45,-256,21,-40,-125
1705,-5,-46,-257,13,-43,-121
1710,-2,-46,-255,-1,-44,-111
1715,0,-49,-254,-16,-41,-104
1720,-5,-49,-257,-29,-32,-99
1725,-2,-53,-258,-34,-21,-101
1730,-6,-53,-262,-32,-12,-106
1735,-9,-50,-258,-25,-3,-111
1740,-9,-54,-261,-14,2,-116
1745,-8,-48,-263,-5,6,-121
1750,-7,-53,-267,2,11,-123
1755,-9,-50,-264,3,17,-127
1760,-12,-48,-266,-1,17,-126
1765,-8,-53,-265,-5,13,-126
1770,-8,-50,-263,-14,7,-128
1775,-8,-46,-263,-23,5,-130
1780,-4,-46,-263,-33,4,-133
1785,-9,-48,-260,-45,3,-134
1790,-12,-43,-263,-57,4,-137
1795,-15,-49,-265,-66,6,-133
1800,-16,-43,-267,-76,4,-133
1805,-21,-41,-265,-83,2,-131
1810,-7,-53,-267,-86,-1,-132
1815,-14,-52,-266,-87,-3,-131
1820,-14,-50,-270,-93,-10,-131
1825,-11,-49,-267,-99,-17,-129
1830,-11,-49,-264,-105,-28,-132
1835,-14,-50,-265,-110,-41,-133
1840,-16,-51,-264,-110,-54,-137
1845,-14,-56,-265,-99,-64,-145
1850,-15,-62,-268,-81,-73,-155
1855,-11,-69,-269,-60,-79,-170
1860,-13,-65,-272,-36,-83,-181
1865,-12,-63,-274,-16,-83,-195
1870,-15,-60,-270,3,-86,-207
1875,-10,-58,-273,22,-91,-214
1880,-11,-52,-268,38,-93,-218
1885,-12,-54,-273,52,-89,-225
1890,-11,-52,-270,64,-79,-231
1895,-10,-51,-275,79,-63,-236
1900,-17,-53,-271,100,-44,-241
1905,-15,-57,-271,130,-23,-246
1910,-20,-60,-278,162,-3,-246
1915,-16,-60,-270,190,11,-243
1920,-19,-60,-269,215,19,-235
1925,-22,-55,-270,232,18,-223
1930,-20,-55,-268,240,12,-210
1935,-21,-51,-270,242,5,-196
1940,-23,-48,-262,240,2,-183
1945,-22,-48,-264,236,2,-173
1950,-25,-44,-262,232,1,-165
1955,-17,-47,-262,226,3,-156
1960,-17,-43,-260,218,1,-147
1965,-9,-49,-264,209,-3,-137
1970,-15,-41,-259,195,-9,-127
1975,-14,-40,-257,183,-19,-120
1980,-13,-46,-258,171,-27,-114
1985,-14,-44,-257,168,-33,-111
1990,-17,-44,-257,167,-38,-111
1995,-17,-43,-252,170,-44,-110
2000,-17,-41,-252,175,-51,-108
2005,-13,-40,-250,177,-59,-104
2010,-10,-40,-251,176,-67,-100
2015,-18,-39,-249,175,-76,-98
2020,-15,-43,-247,173,-85,-93
2025,-16,-44,-247,175,-96,-91
2030,-18,-40,-246,176,-103,-91
2035,-17,-40,-244,182,-111,-98
2040,-17,-40,-245,187,-113,-103
2045,-15,-40,-246,190,-114,-108
2050,-16,-38,-243,192,-112,-111
2055,-18,-38,-243,191,-109,-114
2060,-16,-34,-241,189,-104,-114
2065,-14,-38,-241,184,-98,-110
2070,-11,-45,-233,182,-91,-107
2075,-12,-37,-243,177,-84,-108
2080,-9,-42,-237,175,-79,-107
2085,-10,-41,-239,174,-76,-106
2090,-13,-41,-240,176,-74,-106
2095,-14,-40,-241,174,-75,-107
2100,-15,-45,-244,173,-78,-108
2105,-15,-47,-241,174,-80,-110
2110,-16,-44,-241,177,-84,-112
2115,-16,-42,-238,180,-86,-116
2120,-13,-43,-243,182,-86,-118
2125,-13,-46,-241,186,-87,-119
2130,-12,-44,-243,188,-89,-118
2135,-12,-39,-240,187,-91,-119
2140,-14,-39,-241,184,-93,-119
2145,-15,-38,-245,175,-98,-120
2150,-14,-42,-245,168,-101,-120
2155,-14,-41,-242,161,-105,-117
2160,-13,-39,-243,156,-107,-115
2165,-11,-39,-244,150,-109,-112
2170,-13,-39,-245,143,-109,-108
2175,-8,-40,-249,136,-107,-110
2180,-7,-44,-245,131,-102,-109
2185,-15,-42,-247,130,-96,-109
2190,-16,-42,-247,130,-90,-109
2195,-16,-45,-254,129,-84,-111
2200,-16,-47,-251,129,-78,-113
2205,-18,-45,-250,132,-73,-114
2210,-16,-44,-252,135,-70,-114
2215,-19,-44,-254,139,-68,-114
2220,-15,-47,-252,141,-69,-113
2225,-19,-44,-254,145,-67,-113
2230,-15,-48,-254,148,-68,-114
2235,-17,-46,-253,148,-68,-113
2240,-17,-45,-258,146,-67,-111
2245,-15,-43,-255,138,-62,-110
2250,-13,-46,-256,129,-56,-109
2255,-15,-45,-256,120,-49,-108
2260,-16,-46,-252,113,-44,-104
2265,-15,-52,-254,107,-40,-103
2270,-15,-46,-255,103,-37,-101
2275,-19,-49,-254,99,-38,-99
2280,-19,-47,-251,93,-38,-96
2285,-23,-43,-252,87,-41,-92
2290,-21,-49,-250,82,-46,-88
2295,-22,-48,-247,79,-52,-85
2300,-23,-51,-246,76,-60,-85
2305,-20,-53,-247,76,-67,-87
2310,-24,-53,-247,76,-70,-85
2315,-21,-53,-246,78,-72,-86
2320,-20,-55,-249,74,-73,-87
2325,-19,-52,-247,75,-73,-87
2330,-21,-53,-247,76,-75,-85
2335,-20,-53,-247,79,-76,-84
2340,-19,-56,-247,85,-79,-80
2345,-22,-54,-245,87,-80,-75
2350,-20,-56,-246,88,-82,-73
2355,-24,-53,-243,87,-83,-71
2360,-26,-52,-244,86,-81,-67
2365,-21,-53,-242,87,-79,-65
2370,-22,-51,-242,88,-76,-63
2375,-28,-54,-240,89,-72,-62
2380,-23,-53,-247,93,-69,-63
2385,-21,-49,-241,98,-65,-62
2390,-23,-51,-244,99,-60,-62
2395,-20,-48,-249,103,-56,-60
2400,-21,-52,-245,105,-54,-58
2405,-21,-54,-245,106,-54,-58
2410,-22,-54,-242,105,-55,-58
2415,-21,-57,-244,103,-54,-56
2420,-23,-50,-240,102,-51,-55
2425,-23,-52,-242,100,-46,-55
2430,-29,-49,-240,98,-39,-56
2435,-23,-50,-238,95,-32,-55
2440,-23,-51,-239,91,-26,-56
2445,-22,-57,-238,86,-20,-57
2450,-21,-53,-242,82,-12,-54
2455,-22,-51,-246,76,-6,-53
2460,-21,-56,-244,73,0,-51
2465,-21,-53,-246,72,6,-47
2470,-22,-54,-247,74,11,-43
2475,-23,-57,-249,77,15,-36
2480,-22,-56,-247,83,19,-34
2485,-25,-57,-243,88,22,-28
2490,-24,-57,-249,90,25,-24
2495,-25,-56,-249,90,29,-21
2500,-27,-59,-246,93,34,-18
2505,-25,-52,-249,94,37,-16
2510,-25,-53,-246,94,40,-14
2515,-25,-50,-247,92,42,-9
2520,-25,-51,-248,88,46,-4
2525,-22,-53,-243,82,49,1
2530,-24,-53,-248,73,54,5
2535,-26,-50,-248,63,60,11
2540,-25,-54,-249,54,70,16
2545,-28,-54,-247,43,80,22
2550,-28,-55,-253,32,88,28
2555,-24,-60,-245,19,95,31
2560,-30,-59,-249,11,98,33
2565,-29,-59,-249,5,100,36
2570,-32,-59,-248,1,98,39
2575,-31,-57,-247,1,96,42
2580,-30,-58,-247,0,92,45
2585,-27,-57,-248,0,86,48
2590,-30,-55,-245,-6,86,52
2595,-26,-56,-243,-14,81,55
2600,-29,-55,-245,-23,81,60
2605,-26,-58,-246,-33,85,65
2610,-33,-55,-241,-39,88,67
2615,-29,-61,-241,-44,92,65
2620,-29,-63,-243,-47,96,67
2625,-30,-63,-243,-46,99,68
2630,-32,-62,-242,-46,99,70
2635,-29,-64,-240,-46,99,73
2640,-32,-63,-239,-46,96,77
2645,-31,-61,-243,-46,96,83
2650,-28,-62,-242,-45,96,86
2655,-28,-62,-240,-44,94,91
2660,-29,-62,-238,-45,93,97
2665,-28,-58,-236,-49,92,100
2670,-26,-64,-233,-51,92,100
2675,-26,-62,-232,-55,91,105
2680,-24,-61,-232,-54,93,104
2685,-24,-62,-232,-53,94,109
2690,-26,-59,-233,-52,98,110
2695,-27,-61,-234,-48,99,110
2700,-26,-62,-234,-45,101,114
2705,-24,-60,-233,-40,101,114
2710,-25,-60,-231,-33,99,118
2715,-26,-61,-235,-27,98,121
2720,-22,-61,-234,-22,97,120
2725,-19,-62,-235,-17,95,122
2730,-22,-59,-233,-14,94,119
2735,-22,-59,-230,-10,94,119
2740,-20,-61,-235,-5,95,117
2745,-21,-59,-234,-1,96,115
2750,-17,-63,-235,2,98,113
2755,-19,-58,-234,7,97,112
2760,-19,-60,-235,9,95,113
2765,-18,-60,-230,13,96,111
2770,-15,-59,-232,15,94,113
2775,-20,-55,-232,17,94,113
2780,-17,-55,-233,20,93,115
2785,-15,-53,-236,21,93,116
2790,-16,-55,-236,23,91,117
2795,-18,-56,-232,24,92,116
2800,-19,-54,-234,25,94,115
2805,-17,-57,-236,27,95,114
2810,-21,-56,-240,31,97,111
2815,-19,-56,-234,35,99,107
2820,-18,-58,-236,39,99,104
2825,-15,-56,-240,43,97,101
2830,-18,-55,-235,48,95,98
2835,-18,-55,-239,51,90,96
2840,-20,-57,-237,51,85,95
2845,-15,-54,-240,54,79,93
2850,-17,-54,-239,55,70,93
2855,-17,-51,-239,57,65,95
2860,-16,-51,-242,60,61,93
2865,-16,-57,-243,63,59,93
2870,-17,-50,-244,65,58,92
2875,-17,-52,-245,65,58,90
2880,-18,-51,-240,64,56,87
2885,-16,-55,-243,65,54,83
2890,-15,-53,-241,66,52,81
2895,-18,-50,-244,68,50,78
2900,-16,-51,-243,68,48,76
2905,-17,-51,-243,69,44,73
2910,-14,-47,-247,68,40,72
2915,-10,-47,-246,65,38,72
2920,-12,-51,-241,60,38,72
2925,-12,-51,-243,55,38,70
2930,-11,-54,-249,51,39,69
2935,-11,-52,-248,48,41,68
2940,-13,-52,-248,47,44,67
2945,-12,-52,-249,46,44,67
2950,-13,-52,-251,45,44,67
2955,-13,-53,-247,44,44,67
2960,-11,-49,-246,41,42,67
2965,-14,-48,-247,38,43,66
2970,-12,-52,-248,38,43,63
2975,-12,-53,-247,38,43,59
2980,-14,-50,-250,38,41,57
2985,-13,-47,-245,38,39,53
2990,-13,-50,-247,39,37,51
2995,-10,-50,-249,38,35,47
3000,-11,-49,-253,38,31,45
3005,-11,-48,-247,37,27,44
3010,-9,-48,-249,34,26,44
3015,-9,-47,-247,31,21,41
3020,-10,-44,-245,28,21,38
3025,-10,-46,-246,23,16,33
3030,-11,-45,-243,21,12,31
3035,-10,-47,-246,23,10,28
3040,-13,-50,-247,25,8,24
3045,-12,-50,-248,26,7,20
3050,-13,-47,-247,26,9,17
3055,-13,-45,-251,28,11,14
3060,-13,-45,-244,27,10,12
3065,-13,-46,-243,26,14,9
3070,-12,-46,-239,20,16,4
3075,-11,-49,-244,15,19,2
3080,-13,-48,-247,10,22,-2
3085,-13,-46,-239,4,25,-7
3090,-9,-45,-242,-1,26,-11
3095,-11,-43,-243,-3,26,-12
3100,-11,-45,-240,-8,27,-16
3105,-13,-46,-244,-11,27,-21
3110,-11,-47,-241,-14,27,-21
3115,-10,-50,-245,-15,25,-22
3120,-9,-48,-243,-15,23,-20
3125,-10,-49,-242,-16,21,-20
3130,-13,-53,-239,-13,20,-22
3135,-10,-46,-241,-10,18,-20
3140,-14,-49,-242,-5,15,-19
3145,-13,-48,-239,0,13,-21
3150,-18,-55,-239,4,12,-23
3155,-8,-50,-242,5,11,-25
3160,-13,-48,-241,5,12,-25
3165,-15,-50,-243,6,12,-27
3170,-15,-51,-242,7,11,-28
3175,-13,-50,-240,7,12,-29
3180,-13,-47,-238,9,12,-31
3185,-8,-52,-242,11,12,-31
3190,-12,-49,-239,15,12,-33
3195,-6,-50,-244,21,13,-36
3200,-15,-47,-241,24,11,-37
3205,-7,-44,-241,28,10,-36
3210,-12,-49,-243,27,10,-36
3215,-11,-47,-242,27,8,-38
3220,-11,-48,-240,26,8,-37
3225,-12,-43,-236,26,6,-38
3230,-12,-47,-239,24,4,-37
3235,-11,-43,-239,25,4,-38
3240,-13,-48,-244,24,3,-36
3245,-15,-48,-237,24,3,-38
3250,-15,-50,-238,24,4,-37
3255,-16,-46,-238,25,4,-37
3260,-10,-47,-240,25,3,-37
3265,-13,-46,-243,27,2,-38
3270,-14,-51,-240,29,0,-39
3275,-12,-47,-241,30,0,-41
3280,-16,-44,-240,32,-1,-42
3285,-11,-48,-245,33,-1,-42
3290,-10,-46,-240,35,0,-42
3295,-9,-48,-240,35,-1,-41
3300,-8,-49,-241,35,-1,-43
3305,-12,-46,-238,36,-1,-43
3310,-6,-51,-248,38,1,-43
3315,-11,-47,-244,39,1,-43
3320,-13,-49,-243,39,3,-44
3325,-15,-44,-245,40,2,-44
3330,-13,-48,-244,42,4,-44
3335,-11,-43,-241,45,3,-44
3340,-14,-45,-245,47,3,-45
3345,-15,-48,-247,47,2,-45
3350,-16,-45,-244,48,3,-46
3355,-14,-47,-245,50,0,-46
3360,-15,-44,-242,52,-1,-47
3365,-14,-47,-246,55,-1,-47
3370,-15,-45,-245,53,-1,-46
3375,-11,-44,-244,50,-2,-44
3380,-17,-43,-242,49,-3,-42
3385,-14,-47,-244,46,-3,-44
3390,-17,-43,-245,45,-3,-42
3395,-13,-46,-244,44,-2,-41
3400,-16,-45,-244,41,-2,-42
3405,-14,-44,-248,41,-2,-41
3410,-12,-46,-246,39,-3,-39
3415,-13,-44,-246,40,-5,-38
3420,-12,-50,-244,41,-2,-37
3425,-16,-46,-245,42,-5,-39
3430,-15,-45,-245,43,-3,-41
3435,-14,-46,-248,46,-2,-42
3440,-19,-46,-245,49,-3,-41
3445,-15,-45,-242,52,-3,-40
3450,-12,-46,-245,53,-3,-40
3455,-16,-46,-249,52,-3,-40
3460,-11,-47,-242,55,-3,-41
3465,-14,-41,-242,54,-2,-40
3470,-15,-45,-244,53,-3,-41
3475,-16,-48,-247,52,-3,-39
3480,-12,-46,-247,52,-2,-39
3485,-14,-48,-245,51,0,-39
3490,-14,-50,-246,54,1,-40
3495,-14,-48,-247,58,2,-40
3500,-10,-47,-245,61,4,-39
3505,-14,-46,-245,64,5,-38
3510,-12,-47,-244,65,5,-38
3515,-16,-46,-247,66,6,-38
3520,-14,-44,-243,67,6,-35
3525,-14,-44,-243,66,5,-34
3530,-13,-47,-245,64,5,-35
3535,-9,-42,-241,62,5,-33
3540,-15,-46,-245,60,6,-31
3545,-15,-45,-241,59,5,-31
3550,-15,-46,-240,59,7,-32
3555,-14,-46,-240,60,8,-31
3560,-14,-46,-240,58,9,-31
3565,-16,-42,-246,58,9,-29
3570,-13,-46,-238,57,10,-28
3575,-15,-48,-247,56,8,-26
3580,-15,-54,-243,58,8,-26
3585,-13,-46,-241,57,9,-23
3590,-14,-50,-247,57,7,-21
3595,-15,-47,-247,59,7,-19
3600,-15,-47,-244,61,7,-19
3605,-17,-50,-247,63,6,-19
3610,-15,-48,-246,66,6,-16
3615,-15,-49,-246,68,6,-14
3620,-13,-47,-238,69,8,-14
3625,-19,-42,-243,71,9,-14
3630,-14,-47,-244,70,10,-12
3635,-23,-47,-243,72,10,-11
3640,-16,-47,-242,71,10,-12
3645,-13,-51,-242,71,11,-12
3650,-15,-52,-241,72,12,-12
3655,-14,-50,-240,76,13,-11
3660,-14,-54,-244,78,14,-10
3665,-13,-52,-246,82,15,-12
3670,-18,-52,-243,87,16,-11
3675,-13,-51,-246,90,16,-11
3680,-15,-49,-241,93,16,-10
3685,-13,-48,-244,93,16,-12
3690,-13,-53,-251,90,15,-11
3695,-15,-46,-240,84,15,-10
3700,-15,-48,-243,79,15,-10
3705,-14,-49,-239,76,15,-11
3710,-15,-48,-242,74,16,-13
3715,-14,-50,-240,72,15,-16
3720,-15,-47,-241,70,17,-16
3725,-17,-50,-240,68,17,-16
3730,-16,-50,-241,65,17,-16
3735,-16,-48,-241,64,15,-15
3740,-15,-50,-241,63,13,-14
3745,-17,-48,-246,62,11,-14
3750,-13,-51,-241,62,10,-15
3755,-17,-48,-245,61,9,-15
3760,-18,-49,-241,62,8,-16
3765,-15,-53,-244,65,7,-16
3770,-14,-48,-245,68,7,-18
3775,-13,-50,-242,72,5,-20
3780,-17,-52,-241,73,5,-19
3785,-16,-50,-244,76,4,-18
3790,-15,-50,-240,76,1,-18
3795,-14,-49,-245,76,1,-19
3800,-20,-48,-242,75,1,-20
3805,-16,-50,-244,73,0,-17
3810,-13,-49,-242,72,-1,-19
3815,-16,-48,-241,72,1,-19
3820,-19,-48,-245,72,3,-19
3825,-12,-51,-242,71,5,-20
3830,-16,-49,-243,71,4,-23
3835,-15,-47,-243,72,6,-25
3840,-16,-50,-243,70,6,-25
3845,-16,-52,-242,68,5,-27
3850,-12,-51,-241,63,4,-26
3855,-16,-48,-237,62,6,-26
3860,-18,-50,-245,62,5,-25
3865,-15,-49,-243,61,3,-24
3870,-13,-53,-243,63,3,-24
3875,-16,-51,-245,64,3,-24
3880,-16,-52,-243,66,4,-23
3885,-18,-49,-244,66,4,-24
3890,-18,-49,-245,66,4,-23
3895,-18,-49,-246,66,2,-22
3900,-15,-51,-243,67,3,-23
3905,-14,-48,-240,65,2,-25
3910,-18,-46,-244,65,1,-26
3915,-17,-48,-242,62,2,-25
3920,-17,-49,-240,61,0,-28
3925,-15,-51,-243,60,0,-28
3930,-14,-50,-242,59,-1,-26
3935,-17,-50,-240,58,-2,-26
3940,-15,-51,-246,58,-1,-27
3945,-14,-53,-244,58,-2,-25
3950,-15,-52,-245,59,-2,-23
3955,-14,-50,-246,57,-1,-23
3960,-18,-48,-244,57,1,-22
3965,-18,-50,-247,57,-1,-21
3970,-17,-50,-244,57,1,-23
3975,-18,-53,-243,58,2,-21
3980,-13,-52,-244,59,1,-21
3985,-18,-53,-240,59,0,-21
3990,-17,-51,-241,59,0,-21
3995,-17,-50,-242,60,-2,-20
4000,-17,-50,-245,60,-3,-23
4005,-14,-50,-246,60,-5,-22
4010,-15,-49,-241,59,-5,-23
4015,-20,-48,-251,59,-5,-21
4020,-15,-52,-240,59,-5,-21
4025,-16,-52,-242,62,-2,-21
4030,-15,-49,-241,62,-1,-22
4035,-16,-52,-241,61,0,-19
4040,-18,-51,-246,62,1,-20
4045,-13,-51,-243,62,1,-20
4050,-17,-53,-244,63,2,-19
4055,-17,-53,-241,62,3,-19
4060,-18,-49,-245,61,4,-20
4065,-16,-54,-242,60,3,-19
4070,-14,-53,-238,58,3,-18
4075,-16,-51,-242,58,4,-18
4080,-15,-50,-244,58,5,-19
4085,-19,-50,-244,58,4,-18
4090,-17,-49,-238,59,5,-19
4095,-15,-49,-241,60,5,-20
4100,-16,-51,-239,60,4,-18
4105,-17,-48,-240,60,5,-18
4110,-20,-50,-241,57,4,-17
4115,-18,-49,-245,57,6,-16
4120,-15,-52,-243,56,5,-15
4125,-16,-50,-239,56,5,-16
4130,-15,-48,-245,56,4,-14
4135,-19,-48,-241,54,5,-15
4140,-20,-48,-243,51,4,-13
4145,-19,-49,-243,49,5,-13
4150,-17,-51,-242,49,7,-13
4155,-14,-51,-244,49,8,-15
4160,-19,-51,-239,51,9,-14
4165,-18,-50,-243,54,8,-16
4170,-15,-52,-241,53,9,-14
4175,-14,-50,-245,56,6,-13
4180,-23,-52,-242,57,6,-12
4185,-15,-52,-246,57,7,-12
4190,-16,-49,-246,59,5,-13
4195,-19,-49,-241,59,5,-12
4200,-17,-52,-245,59,5,-11
4205,-15,-51,-245,59,3,-10
4210,-16,-54,-244,61,4,-10
4215,-13,-51,-238,61,4,-10
4220,-17,-50,-246,61,0,-8
4225,-15,-51,-243,63,4,-8
4230,-16,-47,-247,63,5,-7
4235,-21,-52,-244,64,7,-8
4240,-17,-49,-243,63,10,-9
4245,-17,-52,-245,61,12,-9
4250,-19,-50,-242,59,14,-10
4255,-18,-49,-243,57,15,-9
4260,-16,-53,-240,57,15,-10
4265,-19,-51,-243,57,16,-8
4270,-16,-53,-246,60,16,-6
4275,-17,-53,-247,66,17,-6
4280,-18,-54,-247,70,15,-4
4285,-17,-53,-248,72,14,-2
4290,-17,-53,-247,74,13,0
4295,-18,-50,-243,75,12,-2
4300,-18,-50,-247,74,12,0
4305,-18,-49,-245,73,10,-1
4310,-19,-50,-243,71,8,-2
4315,-17,-55,-243,69,8,-3
4320,-17,-51,-243,67,8,-6
4325,-18,-48,-237,64,6,-6
4330,-16,-52,-241,60,8,-7
4335,-19,-48,-237,59,9,-6
4340,-19,-52,-244,56,10,-5
4345,-12,-52,-247,54,8,-5
4350,-15,-53,-244,53,8,-5
4355,-18,-52,-238,52,7,-4
4360,-16,-52,-243,53,8,-3
4365,-15,-51,-241,55,8,-5
4370,-17,-51,-240,57,8,-5
4375,-17,-51,-243,58,7,-2
4380,-14,-52,-242,59,7,-2
4385,-17,-55,-245,60,6,-2
4390,-17,-49,-246,58,5,1
4395,-14,-52,-242,58,5,2
4400,-20,-52,-242,57,3,2
4405,-14,-50,-243,55,4,3
4410,-14,-51,-242,55,4,3
4415,-15,-50,-240,53,5,0
4420,-17,-51,-244,53,7,-2
4425,-13,-54,-242,54,8,-3
4430,-14,-54,-242,54,11,-7
4435,-14,-51,-242,54,12,-8
4440,-13,-53,-243,56,12,-12
4445,-18,-51,-240,56,14,-15
4450,-18,-56,-244,56,14,-18
4455,-14,-55,-244,57,14,-21
4460,-16,-52,-240,57,14,-23
4465,-15,-54,-242,58,12,-24
4470,-15,-52,-239,59,9,-24
4475,-14,-54,-240,60,8,-25
4480,-16,-53,-244,61,9,-25
4485,-16,-52,-242,63,6,-25
4490,-16,-54,-243,64,7,-26
4495,-15,-52,-242,66,7,-26
4500,-14,-54,-245,66,6,-25
4505,-20,-57,-243,66,5,-26
4510,-19,-53,-238,66,6,-28
4515,-17,-53,-242,64,4,-29
4520,-19,-52,-237,61,2,-30
4525,-19,-50,-240,58,1,-32
4530,-19,-50,-242,54,-1,-31
4535,-16,-50,-237,50,-3,-32
4540,-16,-50,-236,46,-3,-34
4545,-17,-52,-239,44,-4,-34
4550,-14,-51,-241,42,-5,-34
4555,-19,-51,-239,43,-6,-35
4560,-17,-55,-242,42,-7,-33
4565,-19,-50,-248,43,-6,-34
4570,-18,-51,-243,44,-4,-32
4575,-15,-53,-243,44,-4,-31
4580,-17,-49,-242,44,-6,-30
4585,-16,-51,-245,43,-7,-31
4590,-18,-50,-246,43,-7,-31
4595,-16,-49,-241,40,-8,-29
4600,-21,-50,-244,39,-8,-30
4605,-18,-52,-243,40,-8,-30
4610,-17,-51,-239,41,-8,-28
4615,-23,-56,-243,39,-10,-28
4620,-16,-54,-239,38,-10,-28
4625,-20,-52,-243,37,-10,-28
4630,-17,-53,-244,37,-9,-30
4635,-16,-55,-238,37,-8,-29
4640,-16,-55,-242,39,-6,-29
4645,-17,-53,-242,42,-6,-30
4650,-21,-48,-243,45,-3,-31
4655,-19,-52,-244,45,-3,-32
4660,-14,-54,-245,46,-2,-31
4665,-21,-51,-240,49,-1,-33
4670,-11,-52,-235,49,-2,-32
4675,-17,-48,-245,51,-2,-30
4680,-15,-52,-244,52,-2,-29
4685,-16,-50,-241,53,-1,-30
4690,-18,-50,-243,52,-1,-31
4695,-21,-52,-242,52,-2,-30
4700,-16,-52,-238,49,-2,-29
4705,-17,-51,-244,48,0,-28
4710,-17,-49,-240,46,1,-25
4715,-18,-54,-240,46,2,-26
4720,-21,-53,-243,44,2,-28
4725,-22,-53,-242,42,4,-28
4730,-20,-49,-243,40,5,-28
4735,-19,-53,-240,38,6,-29
4740,-20,-50,-239,38,7,-27
4745,-19,-49,-242,40,7,-26
4750,-22,-50,-241,39,6,-26
4755,-21,-49,-238,39,4,-25
4760,-17,-50,-239,39,2,-25
4765,-24,-49,-239,41,2,-20
4770,-19,-51,-243,43,-2,-20
4775,-21,-48,-243,46,-4,-20
4780,-20,-54,-238,49,-5,-19
4785,-20,-53,-241,51,-5,-19
4790,-21,-52,-243,52,-5,-17
4795,-20,-50,-240,51,-6,-18
4800,-19,-50,-239,52,-5,-17
4805,-24,-47,-239,51,-5,-16
4810,-18,-49,-242,49,-5,-16
4815,-17,-52,-242,48,-5,-14
4820,-17,-49,-242,46,-4,-12
4825,-17,-47,-239,45,-4,-12
4830,-16,-50,-239,44,-3,-11
4835,-21,-52,-237,42,-3,-11
4840,-21,-50,-241,41,0,-13
4845,-21,-51,-243,39,2,-16
4850,-21,-52,-241,38,5,-18
4855,-19,-53,-242,38,6,-19
4860,-20,-49,-244,38,8,-18
4865,-15,-51,-246,40,8,-18
4870,-18,-51,-242,44,7,-16
4875,-17,-51,-245,49,4,-15
4880,-17,-49,-249,51,4,-16
4885,-20,-50,-244,51,3,-16
4890,-18,-53,-246,49,4,-14
4895,-16,-48,-241,50,3,-16
4900,-19,-48,-239,48,5,-15
4905,-17,-50,-242,47,6,-15
4910,-16,-52,-243,46,8,-14
4915,-17,-51,-246,47,9,-14
4920,-19,-53,-245,49,11,-13
4925,-18,-50,-241,51,10,-12
4930,-18,-48,-241,52,9,-11
4935,-19,-54,-247,55,8,-10
4940,-19,-53,-249,58,7,-8
4945,-23,-49,-251,60,6,-4
4950,-17,-49,-243,61,4,-3
4955,-19,-50,-246,61,3,-3
4960,-16,-49,-244,59,5,-4
4965,-18,-46,-242,55,6,-4
4970,-14,-51,-239,51,7,-7
4975,-17,-48,-239,47,10,-8
4980,-17,-50,-239,45,12,-8
4985,-15,-49,-239,45,13,-10
4990,-13,-50,-242,44,14,-12
4995,-14,-52,-234,44,16,-11
5000,-15,-53,-237,44,16,-12
5005,-16,-50,-242,46,18,-13
5010,-14,-54,-245,48,17,-13
5015,-16,-54,-243,49,15,-15
5020,-16,-53,-240,50,16,-15
5025,-15,-53,-239,53,16,-18
5030,-14,-53,-243,56,16,-18
5035,-17,-50,-242,60,14,-19
5040,-21,-50,-245,61,13,-17
5045,-18,-49,-240,62,13,-18
5050,-21,-53,-242,64,13,-19
5055,-19,-48,-240,66,12,-18
5060,-15,-51,-245,68,10,-20
5065,-18,-52,-243,69,8,-21
5070,-20,-52,-243,67,5,-21
5075,-18,-50,-242,66,4,-23
5080,-19,-48,-236,65,1,-23
5085,-17,-47,-243,65,-1,-23
5090,-22,-46,-244,65,-2,-22
5095,-16,-47,-240,65,-4,-23
5100,-17,-45,-242,66,-4,-23
5105,-20,-42,-243,62,-4,-22
5110,-21,-50,-244,60,-4,-23
5115,-28,-47,-243,59,-3,-23
5120,-19,-52,-242,58,-3,-24
5125,-26,-49,-246,57,0,-24
5130,-21,-46,-253,58,0,-25
5135,-17,-48,-242,59,1,-26
5140,-24,-53,-243,61,1,-25
5145,-22,-48,-249,62,2,-25
5150,-13,-47,-251,62,-3,-24
5155,-21,-54,-245,60,-3,-25
5160,-21,-52,-241,58,-3,-25
5165,-27,-53,-246,58,-5,-24
5170,-20,-49,-237,59,-6,-24
5175,-23,-49,-243,57,-5,-28
5180,-27,-54,-243,59,-5,-27
5185,-18,-51,-240,57,-3,-28
5190,-18,-45,-249,56,-1,-27
5195,-14,-49,-246,55,1,-29
5200,-18,-47,-241,54,3,-31
5205,-17,-51,-249,53,5,-31
5210,-22,-52,-246,52,5,-32
5215,-19,-46,-240,52,6,-32
5220,-24,-51,-239,51,6,-31
5225,-21,-43,-244,51,6,-30
5230,-22,-51,-248,50,5,-30
5235,-19,-49,-234,50,4,-29
5240,-19,-50,-242,51,5,-29
5245,-17,-54,-237,54,4,-28
5250,-18,-53,-247,56,6,-28
5255,-19,-52,-239,57,3,-27
5260,-20,-51,-241,56,3,-29
5265,-22,-48,-245,56,4,-31
5270,-23,-49,-238,54,5,-29
5275,-22,-47,-241,53,6,-30
5280,-17,-51,-238,51,6,-30
5285,-19,-48,-240,48,7,-31
5290,-20,-48,-241,48,7,-31
5295,-17,-48,-237,48,8,-30
5300,-19,-47,-240,45,8,-30
5305,-21,-49,-239,45,10,-30
5310,-22,-50,-241,44,13,-30
5315,-10,-51,-237,43,11,-30
5320,-16,-52,-244,43,11,-30
5325,-19,-52,-245,44,12,-28
5330,-18,-50,-239,45,9,-28
5335,-23,-49,-240,48,9,-27
5340,-24,-49,-243,50,8,-26
5345,-18,-52,-238,53,7,-25
5350,-19,-51,-238,54,5,-24
5355,-24,-53,-239,56,3,-22
5360,-16,-54,-241,58,3,-22
5365,-20,-52,-242,62,2,-21
5370,-18,-51,-236,67,1,-19
5375,-23,-53,-242,70,3,-21
5380,-20,-52,-243,72,2,-20
5385,-19,-51,-244,71,3,-21
5390,-18,-53,-245,73,4,-21
5395,-21,-47,-245,73,5,-23
5400,-22,-46,-244,79,5,-24
5405,-25,-44,-246,81,3,-25
5410,-20,-44,-246,81,2,-25
5415,-25,-44,-250,77,0,-25
5420,-22,-42,-252,70,-3,-24
5425,-21,-45,-253,61,-7,-20
5430,-22,-35,-256,51,-9,-12
5435,-21,-42,-259,43,-15,-5
5440,-22,-40,-257,35,-20,2
5445,-25,-38,-256,29,-25,6
5450,-25,-35,-265,22,-28,10
5455,-25,-38,-269,12,-27,10
5460,-25,-37,-268,4,-26,13
5465,-32,-34,-269,-7,-25,15
5470,-29,-32,-270,-25,-21,19
5475,-28,-36,-274,-45,-13,25
5480,-31,-38,-276,-67,-4,31
5485,-30,-41,-276,-88,8,39
5490,-32,-33,-285,-105,18,50
5495,-32,-32,-279,-121,28,60
5500,-30,-32,-284,-132,37,71
5505,-31,-29,-288,-142,45,82
5510,-31,-27,-284,-154,56,92
5515,-31,-26,-291,-174,65,100
5520,-29,-24,-291,-197,77,110
5525,-32,-20,-293,-222,87,118
5530,-26,-20,-288,-250,102,125
5535,-26,-19,-288,-276,113,133
5540,-27,-20,-292,-299,126,137
5545,-30,-19,-285,-320,138,141
5550,-29,-19,-289,-339,149,142
5555,-26,-23,-284,-359,157,146
5560,-30,-22,-284,-382,164,147
5565,-27,-26,-283,-405,169,148
5570,-27,-28,-284,-429,176,151
5575,-28,-30,-280,-446,184,155
5580,-27,-34,-281,-457,194,163
5585,-23,-34,-281,-462,201,172
5590,-27,-31,-287,-459,205,183
5595,-28,-32,-277,-449,205,196
5600,-24,-34,-274,-437,200,210
5605,-25,-29,-273,-428,192,219
5610,-30,-28,-266,-427,180,223
5615,-31,-30,-264,-434,165,219
5620,-33,-30,-263,-440,147,209
5625,-35,-31,-264,-440,130,201
5630,-36,-31,-263,-439,114,189
5635,-35,-31,-269,-441,111,178
5640,-33,-27,-270,-441,119,167
5645,-26,-31,-271,-443,133,155
5650,-24,-24,-263,-445,147,147
5655,-21,-24,-262,-445,159,143
5660,-16,-25,-265,-448,164,148
5665,-14,-25,-263,-460,164,159
5670,-12,-26,-264,-481,155,179
5675,-11,-29,-256,-502,142,195
5680,-14,-31,-261,-523,128,208
5685,-5,-38,-262,-535,116,210
5690,-12,-39,-267,-541,112,205
5695,-13,-36,-261,-538,116,201
5700,-20,-33,-272,-522,126,192
5705,-11,-32,-269,-497,136,187
5710,-8,-31,-273,-467,141,181
5715,-9,-26,-271,-436,142,182
5720,-6,-25,-270,-400,137,182
5725,-3,-26,-264,-363,133,183
5730,-1,-26,-260,-327,127,180
5735,-5,-23,-258,-297,124,176
5740,-2,-27,-258,-276,123,174
5745,-6,-26,-257,-258,125,168
5750,-6,-29,-256,-245,130,163
5755,-8,-25,-255,-237,135,159
5760,-4,-25,-257,-235,142,158
5765,-4,-26,-258,-237,149,158
5770,-7,-20,-255,-244,155,155
5775,-6,-19,-256,-252,160,151
5780,-5,-22,-258,-262,163,147
5785,-7,-22,-258,-272,166,144
5790,-5,-24,-259,-281,168,142
5795,-6,-25,-260,-284,171,138
5800,-6,-25,-257,-286,173,141
5805,-4,-28,-253,-290,172,140
5810,-12,-18,-257,-302,167,134
5815,-6,-27,-258,-309,160,135
5820,-9,-26,-261,-309,151,132
5825,-11,-23,-261,-301,143,127
5830,-9,-26,-263,-287,133,117
5835,-5,-29,-264,-268,122,109
5840,-3,-26,-267,-245,107,105
5845,-5,-24,-271,-221,91,101
5850,-2,-24,-268,-197,78,94
5855,-2,-25,-270,-177,67,86
5860,2,-26,-275,-157,57,81
5865,-1,-24,-269,-138,47,79
5870,0,-25,-270,-127,37,73
5875,0,-25,-268,-119,27,65
5880,0,-24,-261,-116,18,55
5885,0,-19,-266,-117,6,45
5890,3,-24,-268,-119,-4,37
5895,4,-20,-269,-124,-10,28
5900,4,-19,-266,-130,-12,21
5905,6,-19,-272,-133,-10,10
5910,5,-18,-270,-134,-6,3
5915,7,-19,-274,-131,2,-6
5920,6,-17,-274,-125,11,-14
5925,4,-16,-272,-122,21,-20
5930,5,-13,-272,-116,29,-25
5935,5,-12,-273,-110,37,-30
5940,4,-11,-274,-105,39,-37
5945,6,-8,-266,-103,37,-44
5950,4,-7,-271,-99,35,-53
5955,6,-4,-271,-100,33,-64
5960,3,-7,-266,-99,29,-74
5965,1,-6,-268,-97,26,-86
5970,2,-7,-264,-96,25,-95
5975,3,-8,-263,-91,25,-106
5980,1,-4,-265,-86,25,-126
5985,1,-7,-264,-81,29,-129
5990,3,-9,-260,-78,32,-132
5995,0,-9,-264,-72,35,-140
6000,2,-1,-258,-64,35,-148
6005,2,-8,-261,-53,33,-156
6010,0,-5,-254,-37,36,-149
6015,2,-3,-258,-24,39,-146
6020,-1,-8,-260,-12,40,-149
6025,1,-1,-255,-6,39,-157
6030,-4,0,-252,1,43,-158
6035,-6,1,-252,4,41,-156
6040,-5,1,-254,3,37,-162
6045,-3,1,-256,4,32,-169
6050,-8,1,-255,9,28,-165
6055,-2,0,-249,10,22,-166
6060,-4,3,-250,18,16,-161
6065,-7,3,-249,24,10,-157
6070,-3,3,-251,33,3,-156
6075,-5,5,-242,44,-3,-150
6080,-7,1,-243,57,-9,-146
6085,-9,0,-238,68,-13,-141
6090,-12,0,-237,79,-23,-144
6095,-12,0,-237,92,-34,-148
6100,-8,0,-236,105,-50,-150
6105,-11,1,-237,121,-62,-150
6110,-8,-1,-233,140,-70,-145
6115,-10,0,-229,154,-72,-136
6120,-9,0,-234,176,-82,-135
6125,-10,-10,-241,191,-88,-130
6130,-10,0,-230,203,-93,-120
6135,-12,5,-231,213,-95,-115
6140,-11,-4,-230,216,-90,-110
6145,-16,-5,-230,226,-93,-115
6150,-12,-2,-226,233,-87,-113
6155,-11,-3,-224,238,-81,-111
6160,-13,0,-229,238,-72,-105
6165,-9,-1,-224,235,-60,-97
6170,-10,-2,-225,232,-51,-93
6175,-14,-4,-222,229,-45,-80
6180,-9,-9,-228,231,-43,-73
6185,-11,-4,-225,237,-41,-69
6190,-9,-8,-232,250,-38,-63
6195,-12,-7,-227,270,-38,-60
6200,-11,-5,-224,294,-36,-60
6205,-15,-6,-229,316,-37,-55
6210,-16,-5,-230,334,-39,-53
6215,-13,-7,-226,349,-36,-55
6220,-11,-5,-231,356,-30,-58
6225,-13,-4,-231,362,-22,-57
6230,-11,-9,-224,369,-18,-54
6235,-6,-11,-227,374,-18,-50
6240,-9,-4,-231,374,-19,-44
6245,-7,-7,-234,375,-16,-37
6250,-8,-9,-235,381,-17,-34
6255,-7,-14,-231,390,-19,-35
6260,-8,-17,-236,400,-21,-34
6265,-7,-17,-233,413,-19,-37
6270,-8,-19,-232,430,-15,-42
6275,-10,-21,-233,446,-8,-47
6280,-12,-17,-235,459,3,-51
6285,-9,-17,-230,465,14,-52
6290,-7,-19,-234,468,27,-49
6295,-6,-18,-236,469,41,-46
6300,-8,-17,-234,471,53,-40
6305,-11,-17,-226,471,59,-34
6310,-5,-24,-228,475,65,-26
6315,-7,-24,-226,485,70,-18
6320,-7,-26,-231,501,76,-9
6325,-11,-24,-225,520,80,2
6330,-10,-27,-229,538,84,8
6335,-10,-30,-225,555,85,15
6340,-10,-28,-224,566,84,18
6345,-11,-26,-229,575,84,23
6350,-14,-25,-229,579,87,27
6355,-11,-23,-226,582,86,31
6360,-10,-28,-228,583,89,36
6365,-10,-29,-231,584,93,41
6370,-11,-28,-232,587,98,47
6375,-8,-29,-232,592,101,49
6380,-9,-29,-234,595,105,51
6385,-10,-30,-235,597,105,55
6390,-6,-29,-236,598,102,56
6395,-10,-32,-234,596,93,56
6400,-14,-37,-231,600,85,53
6405,-11,-32,-237,605,78,49
6410,-11,-35,-242,615,73,42
6415,-13,-36,-241,625,73,38
6420,-17,-36,-242,636,76,34
6425,-15,-37,-243,648,80,34
6430,-14,-38,-239,661,85,38
6435,-15,-42,-241,673,92,41
6440,-13,-42,-243,679,98,45
6445,-13,-48,-240,682,101,49
6450,-17,-46,-251,685,103,50
6455,-12,-45,-245,683,103,53
6460,-8,-44,-244,680,105,56
6465,-11,-46,-242,678,108,58
6470,-6,-49,-239,678,112,64
6475,-9,-50,-242,681,114,67
6480,-8,-54,-242,691,115,72
6485,-6,-56,-242,708,117,76
6490,-3,-55,-242,726,118,81
6495,-5,-53,-245,739,122,82
6500,0,-52,-243,747,128,87
6505,-4,-52,-241,751,136,88
6510,-1,-58,-247,750,144,89
6515,-3,-56,-243,750,152,91
6520,-1,-56,-242,754,158,93
6525,-6,-59,-241,755,167,97
6530,-5,-58,-244,759,173,99
6535,-2,-60,-240,764,180,103
6540,-5,-61,-242,774,188,109
6545,0,-64,-239,784,198,115
6550,1,-68,-242,798,212,121
6555,0,-67,-234,813,225,130
6560,1,-66,-233,826,233,137
6565,2,-70,-234,839,239,143
6570,2,-72,-229,847,240,148
6575,2,-73,-230,855,239,151
6580,3,-73,-229,864,237,153
6585,4,-70,-230,871,240,159
6590,1,-75,-225,877,248,165
6595,4,-75,-225,884,256,171
6600,4,-79,-224,893,265,178
6605,1,-78,-222,901,274,185
6610,1,-79,-222,914,280,193
6615,-1,-76,-213,927,285,201
6620,2,-81,-221,945,287,207
6625,5,-82,-222,959,289,212
6630,7,-80,-219,972,289,219
6635,7,-82,-221,981,286,223
6640,7,-82,-220,986,285,225
6645,9,-88,-214,989,285,224
6650,6,-87,-215,992,287,222
6655,6,-86,-218,996,288,225
6660,6,-89,-219,1000,288,225
6665,4,-91,-221,1002,285,225
6670,6,-90,-214,1007,281,224
6675,7,-89,-215,1011,277,221
6680,6,-94,-217,1019,272,216
6685,7,-93,-218,1024,267,215
6690,4,-100,-216,1030,261,213
6695,7,-100,-218,1036,261,212
6700,9,-98,-213,1048,262,214
6705,8,-94,-218,1062,266,218
6710,16,-102,-220,1070,274,221
6715,15,-99,-211,1075,282,222
6720,14,-101,-211,1079,285,227
6725,16,-107,-217,1082,284,227
6730,18,-107,-208,1082,283,229
6735,19,-107,-210,1081,280,231
6740,23,-108,-213,1080,279,228
6745,23,-107,-213,1081,283,224
6750,22,-107,-212,1086,287,220
6755,19,-114,-211,1093,292,217
6760,20,-113,-211,1108,292,216
6765,20,-113,-216,1123,287,212
6770,26,-117,-211,1139,287,207
6775,22,-116,-211,1157,288,201
6780,24,-113,-207,1172,290,195
6785,25,-114,-210,1181,294,193
6790,21,-114,-211,1184,300,190
6795,20,-117,-209,1183,303,185
6800,22,-118,-206,1174,303,179
6805,18,-120,-206,1165,298,174
6810,13,-123,-200,1158,292,166
6815,12,-122,-202,1153,284,161
6820,11,-125,-198,1150,278,158
6825,16,-129,-198,1150,276,155
6830,18,-128,-197,1152,280,153
6835,11,-129,-193,1155,288,156
6840,17,-132,-191,1159,295,159
6845,18,-134,-193,1172,298,156
6850,18,-134,-190,1185,296,151
6855,19,-134,-189,1195,289,145
6860,22,-138,-192,1202,279,140
6865,23,-134,-192,1209,265,126
6870,22,-133,-192,1209,249,114
6875,21,-133,-190,1205,231,99
6880,17,-135,-193,1202,210,86
6885,19,-135,-193,1198,194,74
6890,19,-138,-192,1190,184,65
6895,17,-133,-189,1184,176,64
6900,16,-136,-192,1177,168,63
6905,19,-138,-190,1168,165,63
6910,19,-140,-185,1160,161,59
6915,17,-143,-189,1155,154,55
6920,14,-141,-183,1144,144,50
6925,12,-147,-186,1133,128,44
6930,12,-144,-182,1124,113,39
6935,13,-147,-184,1113,102,34
6940,14,-149,-184,1098,93,27
6945,13,-150,-186,1084,87,23
6950,14,-148,-182,1073,84,20
6955,12,-150,-184,1061,84,14
6960,12,-150,-180,1042,79,11
6965,10,-152,-182,1025,70,9
6970,8,-152,-178,1012,55,5
6975,2,-154,-177,997,37,6
6980,6,-153,-175,981,14,5
6985,5,-153,-180,968,-10,0
6990,7,-156,-173,950,-35,-4
6995,10,-167,-182,928,-56,-10
7000,4,-160,-174,901,-76,-12
7005,2,-152,-177,875,-91,-14
7010,7,-158,-177,846,-101,-14
7015,7,-158,-176,818,-109,-14
7020,7,-158,-174,792,-111,-13
7025,8,-159,-174,766,-115,-14
7030,5,-161,-168,741,-121,-15
7035,3,-162,-163,716,-128,-17
7040,3,-167,-165,698,-134,-23
7045,0,-163,-164,681,-142,-27
7050,4,-164,-166,667,-153,-34
7055,-4,-164,-166,656,-166,-36
7060,-2,-164,-163,642,-175,-38
7065,-5,-169,-163,631,-186,-36
7070,-3,-171,-161,617,-193,-35
7075,-2,-174,-159,606,-196,-29
7080,-3,-177,-163,594,-200,-26
7085,-2,-182,-161,584,-204,-25
7090,-7,-181,-155,576,-208,-23
7095,-10,-183,-164,565,-211,-18
7100,-9,-185,-158,554,-214,-15
7105,-11,-185,-165,545,-218,-9
7110,-10,-191,-159,535,-220,-1
7115,-7,-192,-158,520,-217,8
7120,-10,-194,-159,509,-219,15
7125,-6,-194,-159,508,-219,22
7130,-10,-195,-159,506,-219,29
7135,-9,-198,-164,503,-219,33
7140,-9,-199,-167,497,-219,36
7145,-8,-204,-162,486,-218,41
7150,-9,-203,-161,477,-221,44
7155,-8,-202,-157,467,-225,46
7160,-8,-205,-159,467,-227,50
7165,-8,-209,-161,465,-228,53
7170,-12,-202,-157,460,-228,59
7175,-12,-206,-149,445,-224,65
7180,-13,-209,-147,434,-223,70
7185,-15,-206,-145,425,-226,76
7190,-18,-204,-139,416,-225,84
7195,-17,-206,-142,415,-223,90
7200,-16,-205,-135,414,-215,97
7205,-12,-207,-136,425,-200,100
7210,-14,-207,-137,427,-179,102
7215,-14,-207,-133,436,-157,102
7220,-11,-207,-136,460,-133,101
7225,-13,-203,-128,474,-108,97
7230,-14,-200,-129,495,-88,95
7235,-15,-201,-131,511,-66,92
7240,-14,-197,-128,521,-50,89
7245,-14,-198,-130,528,-36,88
7250,-16,-196,-126,528,-24,83
7255,-16,-198,-125,523,-14,80
7260,-13,-199,-122,506,-2,76
7265,-16,-199,-118,501,10,74
7270,-19,-205,-117,507,20,75
7275,-13,-207,-113,512,33,75
7280,-12,-210,-114,514,48,76
7285,-16,-208,-113,515,61,77
7290,-16,-210,-117,514,75,80
7295,-11,-216,-112,517,87,82
7300,-10,-216,-113,525,107,83
7305,-6,-218,-114,536,130,84
7310,-4,-217,-120,546,155,87
7315,-3,-217,-122,552,182,86
7320,-1,-220,-123,554,208,87
7325,-2,-220,-124,552,230,85
7330,-3,-212,-122,548,249,81
7335,-2,-217,-122,544,268,77
7340,-2,-216,-121,536,286,73
7345,-1,-214,-123,532,302,67
7350,0,-215,-126,528,317,55
7355,0,-212,-120,527,331,43
7360,-4,-211,-123,525,342,28
7365,-2,-216,-124,525,349,9
7370,-9,-214,-124,521,349,-8
7375,-9,-211,-119,509,341,-26
7380,-7,-218,-122,506,325,-43
7385,-13,-210,-123,512,305,-58
7390,-9,-212,-126,517,287,-69
7395,-11,-210,-128,518,273,-79
7400,-9,-209,-126,511,258,-88
7405,-7,-212,-128,501,239,-95
7410,-1,-216,-129,492,219,-102
7415,-1,-213,-126,484,195,-106
7420,1,-213,-135,479,170,-106
7425,2,-218,-129,474,143,-105
7430,0,-214,-136,462,111,-99
7435,-1,-205,-136,445,73,-95
7440,-2,-202,-142,421,30,-88
7445,-1,-199,-144,393,-10,-81
7450,-6,-197,-146,360,-50,-71
7455,-9,-195,-142,321,-89,-64
7460,-9,-192,-142,279,-124,-55
7465,-12,-196,-140,238,-158,-47
7470,-14,-195,-135,203,-185,-39
7475,-16,-194,-135,173,-208,-34
7480,-16,-199,-130,146,-222,-25
7485,-12,-203,-128,129,-227,-17
7490,-14,-200,-128,122,-224,-9
7495,-11,-199,-124,120,-218,-1
7500,-6,-201,-123,123,-210,7
7505,-3,-202,-124,132,-198,10
7510,0,-209,-120,143,-179,12
7515,0,-205,-118,159,-162,12
7520,6,-208,-118,181,-148,10
7525,9,-211,-120,212,-132,6
7530,12,-211,-118,230,-114,2
7535,14,-213,-121,248,-100,-5
7540,15,-209,-121,262,-89,-13
7545,14,-211,-121,270,-78,-19
7550,18,-217,-124,275,-69,-21
7555,21,-214,-130,274,-57,-25
7560,17,-213,-128,264,-42,-27
7565,19,-215,-128,248,-26,-29
7570,19,-215,-127,232,-8,-28
7575,20,-219,-126,221,12,-31
7580,19,-220,-123,210,34,-31
7585,15,-220,-122,195,57,-35
7590,19,-217,-119,196,76,-37
7595,18,-220,-111,202,92,-41
7600,20,-217,-118,215,108,-43
7605,18,-218,-121,226,123,-45
7610,16,-214,-120,237,137,-44
7615,15,-213,-117,247,148,-46
7620,12,-208,-114,254,155,-44
7625,15,-215,-112,256,159,-44
7630,17,-211,-111,255,159,-42
7635,17,-214,-111,253,157,-40
7640,13,-215,-110,251,153,-37
7645,13,-216,-110,245,145,-32
7650,14,-215,-109,235,131,-28
7655,14,-220,-111,222,112,-23
7660,11,-221,-109,207,90,-19
7665,9,-219,-113,188,66,-16
7670,7,-221,-108,169,42,-13
7675,9,-228,-111,150,21,-14
7680,4,-219,-114,133,3,-15
7685,7,-220,-110,119,-12,-15
7690,5,-224,-108,111,-19,-16
7695,0,-220,-111,109,-28,-21
7700,-2,-223,-107,108,-31,-24
7705,-1,-228,-109,111,-34,-28
7710,-1,-224,-110,114,-35,-32
7715,0,-223,-105,119,-35,-37
7720,-2,-226,-107,125,-38,-42
7725,-1,-225,-106,135,-41,-45
7730,0,-228,-106,147,-44,-49
7735,0,-226,-104,160,-43,-51
7740,-1,-224,-102,171,-43,-51
7745,3,-223,-112,181,-40,-49
7750,1,-225,-113,191,-34,-47
7755,3,-223,-109,199,-28,-44
7760,3,-221,-107,205,-24,-43
7765,8,-223,-110,210,-17,-42
7770,5,-221,-109,210,-14,-42
7775,8,-221,-110,207,-12,-39
7780,7,-218,-109,201,-11,-40
7785,10,-219,-109,190,-10,-39
7790,6,-219,-106,180,-12,-39
7795,7,-221,-112,168,-15,-40
7800,10,-223,-112,157,-16,-40
7805,10,-222,-106,145,-19,-39
7810,11,-223,-107,134,-23,-36
7815,11,-220,-111,125,-26,-35
7820,12,-223,-105,115,-28,-36
7825,13,-223,-111,111,-30,-35
7830,13,-222,-110,107,-34,-35
7835,12,-223,-108,105,-37,-35
7840,15,-224,-108,101,-40,-35
7845,12,-225,-106,102,-43,-34
7850,16,-222,-109,102,-44,-34
7855,10,-224,-106,104,-43,-32
7860,6,-217,-108,108,-44,-32
7865,9,-223,-107,109,-46,-30
7870,4,-224,-103,107,-45,-28
7875,11,-219,-106,103,-43,-27
7880,5,-219,-104,100,-40,-26
7885,9,-222,-102,95,-37,-25
7890,4,-219,-106,91,-32,-26
7895,3,-222,-105,85,-25,-26
7900,5,-218,-103,81,-18,-25
7905,8,-224,-100,80,-11,-24
7910,6,-222,-106,78,-7,-23
7915,7,-225,-102,76,-1,-21
7920,3,-221,-103,74,5,-20
7925,6,-227,-105,69,10,-19
7930,6,-223,-102,67,13,-18
7935,4,-225,-103,66,15,-19
7940,4,-225,-100,66,16,-20
7945,5,-226,-104,69,16,-18
7950,3,-226,-103,73,15,-19
7955,7,-226,-101,76,14,-19
7960,6,-224,-105,81,14,-20
7965,8,-227,-103,87,14,-20
7970,9,-225,-102,90,13,-21
7975,8,-224,-108,90,13,-20
7980,8,-224,-107,90,8,-22
7985,5,-227,-107,87,8,-23
7990,5,-224,-105,82,6,-25
7995,7,-224,-104,77,4,-24
8000,6,-222,-101,73,2,-27
8005,5,-223,-105,69,1,-26
8010,6,-223,-103,64,-2,-30
8015,4,-225,-105,61,-2,-30
8020,5,-221,-104,58,-5,-31
8025,8,-229,-103,55,-8,-31
8030,11,-219,-107,51,-8,-31
8035,2,-224,-106,49,-10,-30
8040,7,-224,-107,48,-9,-27
8045,5,-223,-108,49,-9,-28
8050,5,-224,-102,49,-9,-27
8055,5,-222,-103,51,-10,-29
8060,8,-224,-103,51,-10,-28
8065,6,-227,-103,51,-12,-28
8070,5,-225,-105,49,-12,-28
8075,7,-226,-105,45,-14,-29
8080,4,-220,-103,42,-13,-31
8085,7,-220,-104,39,-15,-32
8090,5,-225,-104,38,-15,-32
8095,5,-227,-105,36,-16,-32
8100,7,-224,-106,36,-18,-32
8105,5,-226,-103,35,-20,-31
8110,7,-226,-104,38,-20,-31
8115,7,-223,-107,39,-21,-31
8120,6,-223,-109,39,-23,-29
8125,4,-222,-106,41,-22,-31
8130,9,-226,-106,43,-23,-31
8135,5,-224,-105,45,-24,-31
8140,6,-226,-107,47,-24,-34
8145,7,-226,-102,49,-26,-34
8150,6,-223,-109,52,-25,-35
8155,7,-225,-106,55,-28,-35
8160,7,-223,-105,58,-31,-35
8165,5,-227,-103,58,-34,-35
8170,3,-223,-107,62,-35,-34
8175,5,-220,-109,64,-37,-32
8180,6,-227,-109,65,-38,-31
8185,5,-225,-106,64,-38,-31
8190,2,-224,-108,64,-39,-31
8195,6,-227,-103,63,-40,-31
8200,6,-226,-104,62,-40,-31
8205,3,-227,-108,61,-41,-32
8210,5,-224,-107,64,-39,-28
8215,2,-225,-107,65,-38,-28
8220,5,-224,-102,66,-37,-30
8225,4,-225,-106,67,-36,-32
8230,4,-228,-108,70,-35,-31
8235,3,-224,-105,72,-36,-32
8240,4,-227,-105,74,-33,-32
8245,5,-221,-104,74,-32,-31
8250,3,-224,-107,74,-31,-31
8255,5,-224,-105,74,-31,-34
8260,8,-224,-107,75,-30,-34
8265,7,-228,-104,75,-30,-34
8270,9,-227,-103,75,-28,-35
8275,7,-225,-105,74,-25,-35
8280,6,-223,-103,74,-24,-34
8285,8,-224,-106,75,-23,-34
8290,7,-223,-108,75,-19,-34
8295,5,-224,-104,74,-16,-33
8300,9,-226,-107,74,-15,-32
8305,7,-223,-105,74,-15,-32
8310,6,-224,-102,74,-14,-31
8315,5,-222,-103,74,-12,-31
8320,4,-222,-103,74,-11,-28
8325,6,-227,-103,72,-10,-29
8330,4,-223,-101,71,-8,-28
8335,4,-223,-108,66,-7,-27
8340,3,-224,-107,66,-5,-24
8345,8,-228,-105,65,-5,-22
8350,5,-227,-102,63,0,-22
8355,1,-224,-106,64,3,-22
8360,4,-228,-101,66,6,-19
8365,5,-226,-105,67,8,-19
8370,4,-224,-105,67,10,-18
8375,6,-225,-105,67,13,-17
8380,6,-227,-104,64,17,-17
8385,8,-228,-101,63,20,-16
8390,5,-226,-105,62,23,-15
8395,5,-226,-107,63,27,-15
8400,4,-228,-104,63,27,-14
8405,5,-228,-107,61,28,-16
8410,5,-226,-108,61,29,-15
8415,2,-228,-107,58,28,-13
8420,3,-225,-107,58,29,-13
8425,4,-227,-102,55,28,-14
8430,4,-227,-106,55,30,-11
8435,1,-224,-102,54,30,-9
8440,6,-229,-102,55,31,-8
8445,3,-225,-104,54,31,-9
8450,6,-224,-99,55,33,-7
8455,3,-226,-102,54,31,-7
8460,3,-227,-102,54,32,-7
8465,-2,-223,-104,54,31,-7
8470,5,-231,-101,56,32,-6
8475,4,-225,-106,57,30,-5
8480,7,-227,-102,57,31,-7
8485,4,-228,-100,59,30,-8
8490,4,-228,-101,60,30,-7
8495,5,-227,-100,63,28,-7
8500,4,-225,-103,66,28,-8
8505,7,-229,-106,69,28,-8
8510,6,-223,-107,70,28,-7
8515,3,-219,-108,70,29,-8
8520,1,-224,-101,69,29,-7
8525,5,-224,-104,65,31,-7
8530,5,-224,-106,61,33,-7
8535,2,-222,-105,56,31,-6
8540,4,-224,-103,51,32,-5
8545,5,-227,-101,47,31,-4
8550,4,-224,-101,43,30,-3
8555,6,-230,-100,42,28,-4
8560,4,-226,-104,44,28,-3
8565,9,-229,-103,45,29,-3
8570,5,-227,-99,47,30,-3
8575,5,-226,-97,50,30,-4
8580,5,-229,-99,53,32,-7
8585,7,-227,-102,56,32,-6
8590,5,-226,-100,59,32,-6
8595,6,-224,-99,61,32,-5
8600,7,-227,-104,62,31,-7
8605,3,-226,-102,62,30,-10
8610,4,-226,-100,60,29,-9
8615,4,-228,-97,59,26,-11
8620,4,-226,-99,57,24,-10
8625,4,-229,-104,55,21,-10
8630,4,-225,-101,53,19,-10
8635,5,-226,-99,51,21,-10
8640,4,-227,-105,49,20,-10
8645,4,-226,-104,47,18,-10
8650,2,-225,-102,47,19,-9
8655,7,-226,-107,46,18,-10
8660,6,-229,-102,45,18,-9
8665,5,-224,-100,46,17,-9
8670,3,-225,-100,48,18,-10
8675,6,-225,-107,49,16,-8
8680,3,-225,-100,51,16,-7
8685,3,-225,-102,53,15,-7
8690,3,-229,-100,55,15,-9
8695,6,-227,-106,57,15,-12
8700,7,-227,-103,57,13,-11
8705,4,-224,-100,57,14,-11
8710,3,-225,-104,57,15,-11
8715,3,-224,-101,57,16,-11
8720,5,-226,-105,55,16,-9
8725,2,-227,-103,55,16,-11
8730,5,-224,-105,54,16,-13
8735,3,-225,-97,54,15,-14
8740,6,-228,-102,57,17,-14
8745,3,-224,-98,59,16,-15
8750,5,-224,-103,59,16,-14
8755,5,-226,-100,62,16,-13
8760,4,-224,-101,62,15,-12
8765,4,-227,-95,61,14,-12
8770,4,-227,-105,61,15,-12
8775,5,-226,-102,61,14,-11
8780,2,-226,-104,61,12,-12
8785,6,-227,-100,61,13,-13
8790,6,-225,-101,63,13,-12
8795,3,-226,-104,64,14,-12
8800,4,-223,-101,63,15,-15
8805,5,-224,-104,61,14,-14
8810,4,-225,-101,60,13,-12
8815,5,-228,-103,58,12,-13
8820,5,-226,-104,58,12,-14
8825,1,-223,-104,55,11,-14
8830,1,-225,-104,55,11,-12
8835,5,-227,-104,53,11,-11
8840,4,-224,-102,52,10,-10
8845,9,-230,-102,52,10,-11
8850,5,-227,-108,53,11,-14
8855,7,-226,-101,52,12,-13
8860,5,-225,-101,52,12,-14
8865,5,-228,-103,51,12,-12
8870,3,-227,-106,50,11,-13
8875,6,-225,-100,50,10,-13
8880,9,-226,-101,51,10,-13
8885,1,-224,-99,52,12,-13
8890,7,-229,-101,53,13,-13
8895,4,-228,-99,53,12,-13
8900,8,-227,-97,52,12,-11
8905,3,-225,-105,52,13,-11
8910,4,-227,-103,53,13,-10
8915,10,-226,-102,52,13,-10
8920,5,-225,-103,51,13,-12
8925,5,-224,-100,50,15,-10
8930,8,-226,-99,48,15,-9
8935,6,-225,-101,49,15,-10
8940,9,-227,-102,50,16,-10
8945,5,-224,-100,50,16,-10
8950,3,-226,-101,52,15,-10
8955,2,-229,-106,51,14,-11
8960,3,-223,-104,50,14,-10
8965,5,-223,-100,50,13,-12
8970,4,-222,-101,49,12,-11
8975,4,-227,-104,47,11,-12
8980,5,-226,-103,45,12,-11
8985,5,-227,-105,44,13,-11
8990,5,-228,-100,43,14,-11
8995,6,-228,-105,45,17,-10
9000,3,-226,-102,45,17,-8
9005,3,-224,-102,48,17,-9
9010,8,-228,-99,50,18,-9
9015,8,-227,-102,51,19,-9
9020,3,-227,-101,50,19,-9
9025,6,-226,-101,49,19,-9
9030,3,-226,-101,49,16,-9
9035,5,-228,-103,47,15,-6
9040,6,-228,-98,46,15,-8
9045,3,-225,-101,47,14,-9
9050,6,-229,-100,49,14,-8
9055,6,-225,-102,51,14,-8
9060,6,-230,-100,52,13,-8
9065,7,-224,-102,53,15,-9
9070,5,-225,-104,54,14,-9
9075,7,-227,-106,55,15,-9
9080,4,-225,-100,55,14,-11
9085,4,-226,-101,58,12,-11
9090,5,-227,-105,58,12,-11
9095,7,-229,-99,57,12,-10
9100,5,-225,-100,57,11,-10
9105,3,-220,-97,57,10,-11
9110,6,-226,-110,55,11,-11
9115,5,-225,-102,54,10,-12
9120,2,-225,-108,55,11,-12
9125,6,-228,-103,56,9,-14
9130,8,-227,-102,56,9,-11
9135,6,-226,-99,56,7,-12
9140,4,-227,-102,55,7,-13
9145,4,-225,-101,54,8,-14
9150,5,-226,-101,53,7,-13
9155,7,-226,-101,53,9,-13
9160,3,-223,-102,50,9,-13
9165,7,-226,-99,50,9,-12
9170,5,-224,-102,51,12,-14
9175,7,-228,-100,51,12,-14
9180,7,-228,-103,51,13,-12
9185,6,-224,-99,52,14,-15
9190,5,-226,-102,54,15,-11
9195,6,-228,-101,57,17,-12
9200,5,-226,-99,58,17,-11
9205,5,-227,-104,59,19,-13
9210,5,-227,-105,60,18,-13
9215,5,-225,-105,63,19,-11
9220,6,-227,-102,65,20,-12
9225,3,-224,-103,65,21,-14
9230,10,-231,-107,65,20,-12
9235,7,-225,-101,66,21,-12
9240,5,-225,-103,64,22,-12
9245,3,-224,-104,64,21,-12
9250,10,-226,-98,61,22,-12
9255,5,-227,-104,60,20,-11
9260,4,-226,-102,58,18,-13
9265,3,-224,-101,60,19,-12
9270,5,-226,-103,61,19,-10
9275,6,-224,-103,59,18,-12
9280,5,-229,-101,59,17,-12
9285,5,-226,-102,59,15,-11
9290,3,-227,-104,58,15,-13
9295,7,-228,-100,58,14,-15
9300,8,-230,-101,64,15,-15
9305,3,-227,-102,68,14,-14
9310,6,-226,-105,74,13,-13
9315,7,-228,-103,80,14,-14
9320,5,-226,-105,83,14,-14
9325,5,-225,-102,83,15,-13
9330,1,-223,-105,80,17,-11
9335,7,-224,-109,76,18,-13
9340,6,-220,-95,68,18,-11
9345,7,-225,-101,62,18,-9
9350,3,-221,-100,55,17,-8
9355,5,-228,-105,51,17,-7
9360,6,-225,-101,47,16,-7
9365,6,-230,-99,46,16,-7
9370,4,-228,-104,47,18,-7
9375,7,-230,-100,49,18,-9
9380,5,-231,-104,51,20,-7
9385,8,-227,-103,53,21,-7
9390,6,-225,-104,56,23,-9
9395,5,-224,-103,58,25,-8
9400,3,-223,-102,60,24,-8
9405,7,-226,-102,62,22,-10
9410,3,-225,-99,64,22,-12
9415,5,-227,-100,63,21,-13
9420,3,-228,-98,61,21,-13
9425,3,-227,-101,60,20,-11
9430,7,-227,-104,57,22,-12
9435,2,-225,-104,57,21,-11
9440,6,-225,-106,54,20,-11
9445,3,-228,-99,51,20,-10
9450,3,-228,-103,50,19,-10
9455,1,-223,-105,48,19,-12
9460,6,-227,-103,45,19,-10
9465,4,-226,-104,44,19,-10
9470,4,-226,-102,45,20,-9
9475,6,-225,-101,45,21,-10
9480,3,-226,-102,45,20,-8
9485,4,-226,-103,45,20,-11
9490,5,-227,-102,45,17,-8
9495,6,-228,-104,45,18,-8
9500,6,-227,-101,46,19,-10
9505,7,-224,-104,46,19,-9
9510,6,-223,-105,47,20,-9
9515,7,-228,-100,46,20,-10
9520,4,-225,-99,47,21,-9
9525,5,-227,-102,48,22,-9
9530,5,-222,-104,47,19,-8
9535,4,-223,-104,44,17,-9
9540,4,-226,-104,44,16,-10
9545,5,-224,-105,40,16,-8
9550,7,-226,-103,36,15,-9
9555,4,-225,-106,33,15,-8
9560,7,-226,-103,33,17,-11
9565,5,-226,-102,32,17,-12
9570,6,-226,-107,33,16,-11
9575,6,-225,-99,36,14,-11
9580,6,-230,-105,39,13,-12
9585,5,-226,-107,41,13,-12
9590,3,-223,-101,43,13,-12
9595,7,-231,-100,42,12,-13
9600,7,-226,-108,41,10,-11
9605,3,-227,-100,40,10,-10
9610,3,-226,-103,39,12,-11
9615,5,-226,-102,38,11,-11
9620,6,-226,-104,38,11,-11
9625,8,-227,-102,39,11,-12
9630,7,-225,-101,39,10,-14
9635,6,-225,-105,40,10,-12
9640,7,-225,-104,39,11,-13
9645,7,-226,-105,40,11,-13
9650,5,-224,-108,40,11,-12
9655,3,-223,-105,39,12,-14
9660,6,-223,-108,40,13,-15
9665,6,-226,-110,40,14,-14
9670,3,-222,-105,41,14,-15
9675,9,-228,-102,41,15,-15
9680,4,-224,-101,43,14,-15
9685,5,-221,-103,42,14,-14
9690,6,-224,-103,43,15,-14
9695,7,-228,-100,42,15,-12
9700,7,-229,-102,43,16,-11
9705,7,-226,-102,44,16,-12
9710,4,-222,-102,43,17,-13
9715,6,-224,-104,45,18,-12
9720,5,-231,-101,44,17,-11
9725,8,-227,-102,43,16,-12
9730,5,-226,-101,43,17,-10
9735,6,-225,-99,43,16,-11
9740,10,-228,-105,44,15,-12
9745,9,-228,-105,43,16,-12
9750,2,-226,-102,46,16,-12
9755,8,-227,-97,45,16,-13
9760,6,-225,-103,47,16,-12
9765,8,-228,-104,49,16,-9
9770,8,-226,-105,49,18,-11
9775,3,-225,-103,49,18,-11
9780,7,-226,-107,49,19,-10
9785,5,-228,-100,48,19,-10
9790,8,-226,-102,47,21,-9
9795,5,-226,-104,47,19,-8
9800,7,-226,-105,48,21,-9
9805,6,-226,-102,50,20,-11
9810,7,-226,-102,50,21,-11
9815,5,-225,-102,52,22,-10
9820,5,-223,-102,53,20,-10
9825,6,-229,-101,55,21,-9
9830,6,-229,-104,54,21,-10
9835,7,-225,-103,54,21,-11
9840,4,-225,-105,54,21,-10
9845,6,-225,-103,53,18,-9
9850,4,-225,-106,54,19,-9
9855,6,-226,-104,51,19,-10
9860,5,-227,-103,52,19,-8
9865,6,-223,-106,51,19,-10
9870,6,-225,-108,52,19,-10
9875,5,-225,-101,52,18,-10
9880,2,-225,-101,51,18,-9
9885,5,-227,-100,52,16,-9
9890,5,-226,-104,49,20,-8
9895,4,-225,-101,48,19,-8
9900,3,-224,-103,47,18,-7
9905,5,-227,-105,47,19,-9
9910,5,-226,-103,46,19,-9
9915,6,-225,-102,47,18,-9
9920,6,-224,-105,47,18,-8
9925,6,-227,-103,50,17,-7
9930,6,-228,-103,52,17,-5
9935,7,-227,-102,53,18,-5
9940,5,-229,-103,56,17,-6
9945,3,-228,-103,61,18,-5
9950,7,-225,-102,63,18,-5
9955,5,-226,-100,68,18,-7
9960,5,-225,-103,69,18,-6
9965,7,-227,-103,71,17,-6
9970,6,-227,-106,73,17,-6
9975,6,-226,-106,73,18,-7
9980,5,-226,-100,73,18,-7
9985,5,-224,-108,73,18,-7
9990,4,-228,-107,74,19,-9
9995,5,-227,-102,72,17,-9
10000,1,-225,-102,73,17,-10
10005,5,-227,-105,72,17,-8
10010,5,-225,-105,71,17,-8
10015,6,-225,-105,69,15,-7
10020,1,-227,-104,70,15,-5
10025,3,-224,-103,71,17,-6
10030,6,-224,-105,73,17,-5
10035,7,-227,-103,74,16,-4
10040,6,-224,-106,75,14,-4
10045,15,-228,-108,75,13,-5
10050,5,-226,-102,75,14,-5
10055,4,-226,-104,76,13,-7
10060,4,-227,-101,79,10,-7
10065,7,-226,-100,80,8,-7
10070,2,-225,-106,83,7,-8
10075,8,-226,-105,86,7,-9
10080,4,-221,-110,88,8,-9
10085,7,-221,-108,87,10,-9
10090,4,-223,-111,82,12,-6
10095,7,-223,-107,76,13,-6
10100,9,-224,-106,69,15,-9
10105,6,-226,-110,64,18,-8
10110,5,-225,-101,58,19,-7
10115,9,-227,-103,53,20,-7
10120,9,-230,-101,52,18,-8
10125,7,-231,-104,51,19,-7
10130,6,-231,-100,54,20,-5
10135,5,-227,-101,55,21,-6
10140,6,-229,-102,61,23,-6
10145,5,-225,-100,66,22,-5
10150,7,-223,-99,71,23,-5
10155,7,-231,-100,75,22,-5
10160,6,-226,-99,79,22,-5
10165,4,-228,-103,82,23,-7
10170,7,-227,-104,83,23,-6
10175,7,-226,-100,83,23,-6
10180,8,-224,-101,81,23,-5
10185,9,-226,-104,78,22,-7
10190,5,-225,-105,75,22,-7
10195,6,-227,-98,73,22,-9
10200,1,-225,-102,72,20,-8
10205,7,-227,-105,70,20,-8
10210,4,-229,-111,69,20,-6
10215,4,-227,-101,69,20,-5
10220,7,-227,-104,67,22,-8
10225,6,-227,-102,67,23,-6
10230,4,-228,-104,66,24,-4
10235,4,-225,-100,67,24,-2
10240,5,-228,-102,68,26,-4
10245,9,-226,-103,70,26,-4
10250,7,-225,-101,70,25,-4
10255,7,-225,-103,70,24,-4
10260,4,-227,-102,70,24,-6
10265,4,-227,-104,71,25,-3
10270,6,-227,-103,70,25,-3
10275,7,-224,-102,69,25,-4
10280,4,-227,-101,67,26,-5
10285,5,-227,-103,66,25,-6
10290,6,-227,-102,65,27,-5
10295,7,-228,-102,65,27,-6
10300,6,-223,-103,66,27,-5
10305,3,-224,-105,67,27,-5
10310,4,-225,-105,68,27,-5
10315,5,-229,-104,69,27,-5
10320,6,-228,-103,69,26,-5
10325,7,-225,-102,69,25,-6
10330,4,-229,-100,69,23,-7
10335,7,-228,-101,70,24,-9
10340,5,-226,-100,71,22,-9
10345,5,-225,-99,73,22,-8
10350,5,-227,-101,73,19,-8
10355,4,-228,-99,74,19,-8
10360,4,-226,-104,72,18,-8
10365,7,-228,-96,69,17,-7
10370,5,-224,-101,66,16,-7
10375,12,-226,-105,64,17,-6
10380,4,-224,-104,61,17,-7
10385,4,-229,-104,58,15,-7
10390,4,-225,-98,57,15,-7
10395,8,-228,-102,57,15,-7
10400,5,-227,-101,57,15,-8
10405,6,-225,-101,58,15,-9
10410,8,-227,-100,57,15,-8
10415,9,-228,-101,59,17,-9
10420,7,-230,-98,60,15,-10
10425,6,-230,-100,61,17,-11
10430,6,-227,-102,64,18,-10
10435,5,-228,-102,65,18,-10
10440,4,-224,-99,66,18,-9
10445,8,-225,-99,67,17,-8
10450,6,-227,-99,66,18,-9
10455,8,-226,-100,64,17,-10
10460,8,-227,-100,64,17,-10
10465,6,-226,-100,64,16,-10
10470,8,-229,-99,62,16,-8
10475,8,-226,-101,64,15,-9
10480,5,-225,-100,63,15,-9
10485,4,-227,-106,63,15,-9
10490,2,-228,-108,63,14,-10
10495,6,-228,-103,64,16,-9
10500,6,-224,-100,64,16,-10
10505,6,-227,-103,64,13,-10
10510,7,-228,-100,61,13,-11
10515,6,-223,-104,60,13,-12
10520,8,-226,-97,59,12,-13
10525,3,-225,-104,59,12,-10
10530,7,-228,-99,59,13,-10
10535,7,-230,-102,58,13,-11
10540,6,-227,-105,57,13,-12
10545,3,-224,-102,58,14,-11
10550,6,-227,-102,56,15,-11
10555,7,-226,-99,54,16,-10
10560,6,-225,-100,51,16,-11
10565,5,-224,-99,49,17,-10
10570,4,-229,-100,48,18,-10
10575,7,-225,-100,45,17,-9
10580,5,-225,-101,44,17,-9
10585,5,-227,-102,43,18,-10
10590,5,-226,-106,42,18,-10
10595,5,-226,-97,40,18,-11
10600,4,-225,-101,39,16,-10
10605,8,-229,-100,37,16,-10
10610,8,-227,-97,37,17,-7
10615,4,-228,-99,36,18,-7
10620,7,-226,-98,37,19,-9
10625,3,-226,-101,39,19,-8
10630,4,-224,-101,42,19,-8
10635,5,-227,-98,44,18,-8
10640,5,-229,-99,46,18,-6
10645,7,-227,-99,48,20,-5
10650,9,-227,-100,49,20,-6
10655,6,-225,-99,46,22,-7
10660,7,-228,-103,47,22,-8
10665,7,-229,-99,45,23,-10
10670,6,-230,-101,45,23,-9
10675,7,-227,-102,44,25,-9
10680,5,-228,-103,44,24,-9
10685,6,-228,-101,45,25,-10
10690,5,-227,-103,45,24,-9
10695,2,-228,-103,46,23,-11
10700,5,-226,-105,46,23,-9
10705,7,-228,-102,47,22,-10
10710,7,-226,-96,46,21,-10
10715,4,-228,-102,44,19,-9
10720,5,-230,-100,43,18,-10
10725,6,-230,-102,42,19,-8
10730,7,-226,-98,41,19,-8
10735,6,-224,-100,42,20,-11
10740,4,-225,-96,42,20,-11
10745,4,-227,-101,42,19,-12
10750,6,-227,-99,40,19,-14
10755,6,-225,-105,39,18,-14
10760,6,-227,-100,40,18,-12
10765,5,-227,-100,38,18,-11
10770,5,-227,-99,38,17,-12
10775,5,-226,-103,37,15,-11
10780,4,-225,-103,36,16,-11
10785,6,-227,-104,33,16,-10
10790,7,-225,-101,31,18,-9
10795,7,-221,-103,26,21,-10
10800,6,-225,-98,23,20,-8
10805,7,-225,-106,20,21,-8
10810,5,-221,-98,18,22,-7
10815,7,-229,-101,18,23,-9
10820,8,-226,-98,16,22,-7
10825,6,-232,-98,18,23,-8
10830,5,-230,-99,19,22,-9
10835,4,-226,-100,24,21,-8
10840,3,-227,-97,28,21,-9
10845,5,-230,-97,32,22,-9
10850,8,-229,-100,34,21,-10
10855,5,-226,-103,38,19,-9
10860,7,-230,-101,40,19,-10
10865,2,-228,-97,41,19,-11
10870,5,-226,-100,42,18,-10
10875,9,-226,-102,42,17,-12
10880,6,-228,-101,42,16,-10
10885,5,-227,-101,39,16,-10
10890,5,-226,-103,37,16,-10
10895,5,-225,-98,35,15,-12
10900,9,-229,-102,35,15,-10
10905,4,-230,-104,36,16,-9
10910,3,-224,-98,36,15,-9
10915,6,-225,-104,36,15,-9
10920,8,-229,-112,37,15,-8
10925,7,-231,-100,39,14,-9
10930,5,-227,-103,39,14,-9
10935,5,-226,-102,39,13,-8
10940,3,-226,-102,39,13,-7
10945,6,-229,-101,41,14,-8
10950,6,-224,-105,43,16,-8
10955,4,-228,-103,44,15,-7
10960,5,-227,-101,44,18,-8
10965,4,-228,-100,45,17,-8
10970,7,-224,-102,45,19,-8
10975,6,-230,-100,46,18,-7
10980,6,-224,-102,45,18,-8
10985,7,-228,-106,45,17,-9
10990,5,-226,-103,45,17,-10
10995,3,-223,-102,45,16,-11
11000,3,-226,-99,44,17,-11
11005,4,-227,-104,43,17,-11
11010,8,-224,-101,42,15,-11
11015,7,-227,-100,42,15,-11
11020,7,-224,-100,42,14,-11
11025,5,-227,-100,44,14,-10
11030,6,-227,-101,44,14,-11
11035,6,-227,-105,47,14,-11
11040,3,-224,-101,48,15,-11
11045,3,-226,-102,48,14,-11
11050,3,-224,-102,47,14,-12
11055,4,-226,-103,46,13,-10
11060,3,-228,-99,45,13,-10
11065,4,-227,-100,44,12,-11
11070,3,-225,-103,45,12,-12
11075,4,-227,-100,45,12,-9
11080,4,-227,-98,45,12,-10
11085,7,-229,-95,45,11,-10
11090,4,-226,-101,48,11,-10
11095,4,-229,-101,50,10,-9
11100,6,-228,-102,53,10,-9
11105,5,-227,-101,56,13,-11
11110,5,-227,-104,57,12,-10
11115,7,-229,-101,58,12,-10
11120,5,-227,-101,59,12,-12
11125,5,-226,-101,61,10,-12
11130,4,-223,-100,64,12,-12
11135,5,-232,-109,66,11,-11
11140,7,-229,-100,68,12,-10
11145,6,-228,-98,71,12,-9
11150,4,-224,-102,73,12,-8
11155,8,-228,-103,74,13,-8
11160,7,-226,-102,74,13,-9
11165,5,-226,-103,74,13,-9
11170,6,-227,-102,74,13,-9
11175,6,-227,-102,75,12,-9
11180,6,-223,-98,74,12,-9
11185,5,-227,-103,74,12,-8
11190,4,-229,-102,74,12,-10
11195,5,-224,-104,74,11,-9
11200,7,-226,-103,73,10,-9
11205,5,-224,-99,73,12,-10
11210,5,-227,-104,71,11,-10
11215,7,-226,-100,69,13,-11
11220,5,-225,-98,69,14,-9
11225,8,-230,-99,68,14,-10
11230,5,-229,-95,66,15,-9
11235,5,-228,-98,66,16,-10
11240,6,-227,-97,65,17,-10
11245,7,-232,-106,66,17,-9
11250,7,-226,-100,65,18,-10
11255,6,-225,-104,64,16,-11
11260,7,-229,-105,62,16,-11
11265,5,-228,-100,60,15,-11
11270,5,-224,-101,59,17,-9
11275,6,-225,-103,58,17,-9
11280,8,-226,-99,56,17,-10
11285,7,-223,-103,55,17,-11
11290,6,-225,-104,56,17,-10
11295,9,-228,-99,56,18,-9
11300,3,-234,-106,55,16,-9
11305,6,-227,-104,54,17,-9
11310,2,-227,-100,54,19,-9
11315,4,-225,-105,55,17,-8
11320,5,-226,-102,55,17,-8
11325,7,-227,-96,55,20,-7
11330,6,-226,-98,56,21,-8
11335,4,-228,-96,57,21,-8
11340,4,-228,-102,59,20,-7
11345,7,-229,-99,59,20,-7
11350,3,-227,-95,61,20,-8
11355,13,-231,-98,60,20,-8
11360,8,-228,-100,59,21,-8
11365,5,-226,-104,58,21,-8
11370,5,-228,-101,55,21,-7
11375,7,-226,-101,55,21,-8
11380,6,-228,-97,54,21,-10
11385,4,-226,-102,53,21,-10
11390,4,-223,-97,52,20,-8
11395,6,-227,-102,52,21,-6
11400,4,-225,-100,50,20,-5
11405,5,-227,-100,50,21,-6
11410,1,-225,-104,52,20,-7
11415,3,-228,-99,52,19,-7
11420,3,-227,-104,51,19,-9
11425,5,-227,-101,51,20,-7
11430,5,-227,-99,49,19,-8
11435,4,-227,-99,49,16,-8
11440,6,-228,-101,48,14,-9
11445,6,-230,-98,51,14,-11
11450,3,-225,-100,54,13,-12
11455,6,-227,-99,59,10,-11
11460,7,-225,-99,63,9,-12
11465,3,-225,-105,62,9,-12
11470,4,-224,-102,63,10,-10
11475,6,-224,-106,60,11,-10
11480,3,-225,-100,54,10,-9
11485,5,-224,-103,49,13,-9
11490,6,-228,-99,42,13,-10
11495,4,-225,-101,39,13,-10
11500,8,-227,-103,38,15,-9
11505,7,-228,-99,37,13,-8
11510,7,-230,-97,39,13,-9
11515,6,-235,-100,42,15,-7
11520,3,-229,-99,47,15,-9
11525,6,-227,-101,51,14,-9
11530,8,-228,-103,55,15,-9
11535,5,-227,-102,57,16,-7
11540,3,-226,-103,59,17,-7
11545,7,-228,-101,60,17,-7
11550,5,-226,-100,60,17,-8
11555,5,-228,-97,60,17,-8
11560,6,-225,-100,60,17,-9
11565,9,-227,-100,58,18,-9
11570,5,-226,-109,57,18,-9
11575,8,-225,-101,55,18,-11
11580,6,-229,-101,52,16,-10
11585,7,-228,-101,49,15,-10
11590,4,-226,-102,47,16,-10
11595,6,-226,-98,47,16,-10
11600,5,-227,-104,44,16,-9
11605,8,-228,-100,43,16,-7
11610,4,-227,-100,46,18,-6
11615,5,-226,-100,47,18,-9
11620,7,-228,-105,49,19,-8
11625,6,-228,-99,51,19,-8
11630,8,-226,-101,53,21,-8
11635,5,-227,-98,57,22,-8
11640,6,-227,-100,59,21,-6
11645,3,-225,-99,61,21,-8
11650,8,-227,-102,61,21,-7
11655,5,-229,-101,61,20,-7
11660,7,-228,-98,60,19,-7
11665,4,-230,-105,58,19,-7
11670,4,-225,-102,57,19,-8
11675,5,-222,-100,55,19,-8
11680,13,-236,-93,54,19,-8
11685,5,-226,-98,52,18,-9
11690,6,-227,-100,51,18,-7
11695,7,-230,-99,51,18,-11
11700,7,-227,-98,51,17,-10
11705,5,-225,-103,53,16,-11
11710,6,-226,-106,54,15,-11
11715,10,-227,-102,56,16,-11
11720,7,-226,-101,58,16,-9
11725,1,-226,-101,57,15,-12
11730,10,-225,-100,56,14,-10
11735,5,-226,-98,55,14,-12
11740,5,-227,-101,53,13,-13
11745,7,-227,-97,50,15,-12
11750,4,-227,-101,47,15,-11
11755,3,-225,-99,46,15,-11
11760,5,-229,-100,44,15,-11
11765,6,-229,-103,46,14,-11
11770,1,-230,-99,46,14,-11
11775,7,-229,-102,47,13,-11
11780,2,-226,-101,48,14,-9
11785,7,-227,-102,50,14,-10
11790,10,-229,-106,52,15,-12
11795,6,-226,-100,54,15,-10
11800,5,-227,-100,57,16,-12
11805,5,-228,-100,59,17,-11
11810,3,-227,-105,62,16,-13
11815,7,-228,-99,64,15,-10
11820,6,-227,-103,65,15,-10
11825,5,-222,-100,66,15,-9
11830,7,-228,-96,64,13,-10
11835,4,-227,-98,62,14,-11
11840,5,-221,-100,58,13,-10
11845,16,-220,-104,56,14,-10
11850,7,-227,-100,56,14,-10
11855,6,-228,-103,56,13,-10
11860,6,-224,-101,55,12,-12
11865,4,-229,-102,54,11,-11
11870,6,-231,-101,54,12,-11
11875,5,-228,-99,55,11,-10
11880,8,-226,-100,55,11,-10
11885,5,-225,-104,56,12,-10
11890,9,-226,-101,56,14,-9
11895,5,-229,-98,56,14,-9
11900,4,-228,-105,55,14,-10
11905,10,-230,-101,55,12,-11
11910,7,-229,-104,55,14,-11
11915,8,-228,-102,55,14,-11
11920,9,-227,-100,55,14,-10
11925,6,-229,-100,55,15,-10
11930,5,-229,-103,53,16,-10
11935,8,-227,-101,54,15,-10
11940,5,-227,-101,54,15,-10
11945,6,-227,-103,54,13,-10
11950,6,-226,-105,54,13,-11
11955,5,-229,-101,54,13,-10
11960,5,-227,-100,55,12,-9
11965,5,-228,-99,55,13,-9
11970,5,-226,-103,56,13,-11
11975,7,-226,-99,56,11,-11
11980,7,-225,-101,56,13,-10
11985,5,-229,-99,56,12,-10
11990,6,-230,-105,56,13,-11
11995,4,-224,-99,55,13,-11
