timestamp,acc_x,acc_y,acc_z,gyro_x,gyro_y,gyro_z
0,10,-251,-6,-6,80,0
5,11,-248,-5,-9,79,-3
10,12,-252,-7,-11,78,-2
15,11,-247,-5,-12,77,-4
20,11,-249,-6,-15,77,-1
25,10,-252,-3,-18,77,-4
30,11,-251,-10,-21,76,-2
35,7,-251,-8,-25,78,-4
40,9,-251,-2,-27,78,-1
45,10,-249,-7,-29,78,-3
50,12,-250,-5,-28,77,-1
55,10,-253,-8,-26,75,-2
60,12,-254,-3,-23,74,1
65,9,-251,-8,-18,73,-1
70,14,-254,-2,-13,72,2
75,8,-252,-2,-13,71,0
80,13,-251,-6,-11,71,3
85,10,-253,-7,-12,73,0
90,9,-252,-5,-13,70,1
95,11,-254,-5,-14,69,0
100,10,-250,-7,-18,67,1
105,12,-251,-5,-20,67,0
110,11,-255,-5,-22,67,0
115,8,-252,-5,-24,68,-2
120,11,-251,-2,-24,70,0
125,11,-251,-8,-26,70,-3
130,10,-250,-3,-25,73,-1
135,10,-251,-7,-26,78,-4
140,14,-250,-6,-27,79,-1
145,12,-253,-4,-27,79,-3
150,11,-250,-7,-28,81,-1
155,8,-249,-5,-28,82,-4
160,11,-250,-6,-30,83,-1
165,12,-248,-7,-31,84,-3
170,15,-252,-5,-32,84,1
175,12,-249,-7,-31,86,-1
180,10,-251,-9,-31,87,0
185,13,-251,-11,-31,90,-2
190,12,-248,-8,-31,91,1
195,12,-248,-8,-34,93,-1
200,13,-248,-11,-38,92,1
205,14,-250,-8,-40,93,-3
210,13,-249,-10,-42,93,-1
215,13,-249,-9,-44,94,-4
220,15,-251,-8,-46,97,-2
225,12,-248,-7,-46,97,-6
230,15,-253,-8,-45,99,-4
235,13,-251,-4,-44,100,-8
240,13,-250,-11,-43,101,-6
245,12,-251,-8,-41,102,-9
250,12,-251,-8,-39,103,-8
255,11,-250,-5,-34,102,-12
260,12,-254,-5,-33,103,-10
265,12,-251,-6,-32,101,-13
270,12,-252,-7,-32,101,-10
275,10,-254,-5,-30,102,-11
280,7,-252,-4,-24,101,-9
285,10,-251,-3,-19,100,-10
290,11,-254,-2,-15,100,-9
295,11,-252,-6,-13,99,-11
300,10,-256,-4,-10,97,-12
305,8,-249,-2,-8,94,-13
310,8,-251,-8,-8,90,-12
315,7,-251,-4,-8,88,-13
320,5,-251,-2,-9,86,-10
325,8,-252,0,-10,85,-12
330,7,-252,-9,-11,84,-8
335,8,-252,-11,-9,82,-11
340,9,-252,-5,-8,81,-10
345,9,-250,-4,-8,80,-12
350,17,-249,-1,-6,79,-10
355,8,-253,-3,-6,80,-11
360,9,-253,-4,-7,80,-10
365,11,-254,0,-7,80,-12
370,10,-252,-5,-6,79,-10
375,9,-251,-2,-4,79,-13
380,9,-252,0,-4,80,-12
385,9,-250,0,-3,78,-13
390,9,-252,-8,-3,79,-12
395,11,-253,-2,-2,79,-15
400,12,-251,-1,-4,80,-13
405,12,-253,-2,-4,80,-14
410,10,-252,-6,-4,82,-14
415,13,-253,-5,-6,80,-15
420,15,-248,0,-6,80,-14
425,14,-255,0,-9,80,-15
430,14,-252,-7,-11,78,-14
435,9,-252,-3,-11,78,-14
440,11,-252,-3,-13,78,-11
445,12,-247,-5,-11,77,-13
450,12,-253,-7,-12,75,-11
455,12,-250,-7,-14,75,-11
460,9,-250,-7,-15,74,-12
465,12,-253,-4,-15,73,-11
470,10,-254,-5,-15,73,-9
475,11,-252,-4,-16,73,-10
480,8,-249,-6,-14,73,-8
485,7,-248,-6,-13,74,-7
490,10,-252,-4,-11,73,-9
495,8,-248,-3,-9,72,-8
500,10,-251,-3,-7,73,-7
505,10,-252,-5,-6,73,-7
510,10,-252,-5,-8,73,-7
515,9,-251,-1,-9,71,-6
520,9,-251,-4,-10,70,-5
525,9,-250,-8,-10,69,-5
530,9,-250,0,-10,69,-5
535,11,-253,-7,-11,67,-5
540,12,-251,-3,-12,65,-5
545,8,-252,-3,-11,65,-5
550,10,-252,-10,-12,64,-4
555,9,-251,-8,-10,63,-4
560,10,-250,-3,-9,64,-3
565,11,-250,-6,-8,63,-4
570,11,-252,-4,-7,62,-2
575,11,-253,-2,-7,62,-2
580,9,-252,-2,-6,61,-3
585,10,-248,-2,-7,59,-2
590,11,-251,-3,-8,61,-2
595,11,-251,-3,-10,60,-1
600,12,-255,-5,-11,58,-1
605,11,-252,-5,-11,56,-1
610,10,-251,-3,-12,55,-2
615,13,-252,-4,-11,55,-1
620,12,-252,-2,-10,54,0
625,12,-251,-2,-7,56,0
630,11,-252,0,-6,56,-2
635,13,-249,-5,-4,56,-1
640,14,-252,-2,-3,57,-4
645,16,-252,-2,-5,58,-3
650,12,-252,-4,-9,59,-5
655,10,-251,-4,-12,57,-4
660,13,-252,-3,-12,59,-5
665,11,-251,-7,-16,61,-4
670,10,-251,-7,-16,63,-6
675,13,-251,-6,-15,63,-5
680,13,-251,-3,-15,64,-6
685,11,-250,-5,-15,62,-4
690,10,-252,-3,-16,62,-6
695,11,-250,-4,-15,63,-5
700,12,-252,-2,-15,64,-7
705,14,-250,-4,-16,64,-3
710,15,-252,-3,-16,65,-6
715,11,-249,-3,-16,67,-5
720,13,-249,-8,-17,66,-7
725,12,-250,-5,-19,66,-5
730,14,-253,-6,-21,65,-7
735,11,-251,-5,-22,65,-5
740,11,-250,-4,-23,66,-8
745,13,-252,-1,-23,64,-6
750,14,-250,-8,-23,65,-9
755,11,-250,-3,-23,67,-5
760,14,-250,-6,-25,68,-7
765,9,-251,-3,-24,68,-6
770,13,-250,-6,-26,67,-8
775,11,-249,-8,-26,66,-5
780,10,-253,-7,-25,66,-7
785,6,-253,-3,-25,67,-7
790,11,-251,-7,-24,67,-8
795,13,-253,-7,-23,67,-6
800,11,-252,-1,-22,65,-7
805,11,-252,-8,-21,65,-5
810,13,-253,-7,-21,64,-7
815,13,-252,-8,-22,61,-6
820,13,-249,-7,-23,58,-6
825,13,-252,-4,-25,58,-4
830,11,-249,-2,-26,55,-7
835,12,-249,-5,-26,57,-5
840,11,-252,-6,-27,57,-8
845,9,-249,-9,-27,59,-5
850,13,-252,-8,-28,61,-9
855,11,-253,-4,-29,63,-7
860,12,-251,-5,-31,67,-11
865,12,-250,-8,-31,68,-8
870,9,-252,-2,-29,65,-10
875,12,-251,-7,-27,63,-8
880,9,-251,-6,-23,62,-9
885,12,-253,-7,-20,59,-7
890,14,-251,-10,-21,58,-9
895,10,-253,-8,-21,57,-6
900,10,-251,-4,-21,57,-8
905,13,-250,-5,-24,56,-5
910,11,-251,-8,-27,54,-7
915,12,-249,-6,-30,54,-5
920,12,-251,-7,-33,53,-7
925,15,-249,-7,-37,55,-4
930,12,-250,-8,-42,58,-6
935,9,-249,-4,-45,59,-4
940,12,-253,-3,-48,62,-8
945,13,-253,-6,-49,63,-6
950,13,-250,-9,-49,65,-8
955,12,-249,-4,-45,65,-7
960,12,-251,-3,-40,64,-9
965,11,-254,-8,-35,65,-6
970,12,-252,-1,-31,64,-9
975,15,-253,-7,-28,63,-8
980,10,-253,-5,-25,63,-9
985,9,-252,-7,-25,61,-7
990,11,-251,-4,-26,62,-9
995,10,-250,-5,-28,61,-7
1000,16,-248,-10,-33,62,-9
1005,9,-250,-5,-36,61,-6
1010,11,-252,-8,-38,61,-8
1015,11,-252,-7,-40,63,-7
1020,8,-251,-5,-41,65,-8
1025,11,-250,-9,-40,65,-8
1030,12,-250,-6,-38,64,-7
1035,12,-253,-5,-36,63,-6
1040,11,-251,-6,-34,62,-8
1045,13,-249,-5,-31,62,-7
1050,9,-251,-8,-31,64,-7
1055,13,-253,-9,-29,64,-4
1060,10,-251,-8,-27,63,-6
1065,11,-251,-5,-27,63,-4
1070,11,-253,-9,-28,62,-3
1075,9,-252,-9,-28,62,-1
1080,10,-249,-7,-28,61,-3
1085,14,-252,-7,-29,60,-2
1090,13,-250,-10,-31,60,-1
1095,11,-249,-7,-29,60,0
1100,11,-250,-6,-33,61,-2
1105,11,-249,-9,-33,60,0
1110,12,-254,-3,-35,59,-3
1115,12,-250,-7,-34,62,-1
1120,13,-253,-4,-35,60,-3
1125,12,-251,-2,-34,59,-3
1130,11,-249,-3,-33,61,-3
1135,13,-253,-7,-32,62,-5
1140,11,-248,-7,-31,62,-5
1145,10,-249,-2,-30,63,-5
1150,13,-250,-3,-30,64,-6
1155,12,-251,-4,-30,66,-6
1160,12,-251,-4,-28,68,-7
1165,9,-247,-7,-30,70,-7
1170,11,-249,-10,-33,70,-8
1175,13,-250,-2,-32,71,-6
1180,14,-251,-6,-34,69,-7
1185,12,-250,-4,-36,68,-7
1190,11,-250,-8,-38,67,-5
1195,8,-250,-6,-39,65,-5
1200,14,-249,-7,-39,65,-4
1205,11,-251,-6,-40,63,-3
1210,16,-254,-10,-40,62,-2
1215,11,-253,-11,-40,59,-1
1220,9,-251,-8,-39,61,-1
1225,12,-252,-5,-38,59,0
1230,15,-251,-6,-34,59,-1
1235,11,-252,-7,-31,59,0
1240,13,-252,-9,-27,59,-2
1245,12,-253,-7,-25,61,-3
1250,13,-251,-10,-25,60,-2
1255,12,-249,-6,-25,60,-4
1260,10,-248,-4,-26,62,-4
1265,9,-248,-7,-28,62,-4
1270,12,-252,-7,-28,62,-5
1275,10,-250,-10,-29,62,-7
1280,11,-253,-8,-29,65,-6
1285,9,-252,-1,-29,64,-7
1290,9,-252,-7,-28,66,-7
1295,11,-253,-7,-28,66,-7
1300,11,-254,-3,-28,65,-5
1305,9,-249,-5,-28,65,-7
1310,11,-247,-8,-26,63,-5
1315,13,-253,-9,-27,64,-7
1320,9,-253,-5,-25,63,-4
1325,9,-251,-7,-24,63,-5
1330,8,-250,-7,-23,60,-4
1335,8,-251,-5,-24,60,-3
1340,12,-251,-8,-24,58,-3
1345,10,-251,-6,-25,59,-4
1350,10,-249,-5,-25,57,-2
1355,14,-253,-4,-28,57,-4
1360,11,-250,-7,-27,56,-1
1365,12,-249,-3,-25,57,-3
1370,9,-251,-6,-24,60,-2
1375,14,-253,-6,-20,61,-5
1380,12,-255,-11,-20,59,-2
1385,11,-251,-9,-19,61,-5
1390,12,-250,-9,-19,62,-3
1395,12,-251,-3,-20,62,-4
1400,13,-252,-4,-21,62,-4
1405,14,-252,-8,-21,63,-6
1410,13,-252,-8,-21,63,-4
1415,10,-251,-9,-23,62,-6
1420,10,-252,-11,-21,62,-4
1425,13,-249,-7,-19,62,-6
1430,14,-254,-6,-16,62,-3
1435,10,-243,-5,-16,61,-6
1440,11,-252,-10,-16,59,-4
1445,13,-249,-8,-14,59,-5
1450,11,-251,-8,-13,59,-2
1455,9,-251,-7,-14,61,-3
1460,12,-252,-8,-16,60,-2
1465,12,-251,-10,-14,62,-4
1470,11,-252,-8,-14,61,-3
1475,13,-251,-10,-12,61,-7
1480,13,-254,-8,-11,62,-3
1485,9,-251,-10,-11,62,-6
1490,13,-251,-6,-10,63,-3
1495,11,-253,-2,-9,64,-5
1500,13,-249,-8,-8,64,-1
1505,14,-252,-10,-7,63,-5
1510,11,-252,-7,-8,62,-2
1515,11,-249,-8,-8,62,-4
1520,12,-251,-9,-7,63,-2
1525,12,-248,-9,-9,62,-5
1530,12,-251,-7,-11,63,-1
1535,12,-247,-11,-9,63,-4
1540,11,-252,-11,-9,65,-2
1545,16,-252,-7,-11,63,-3
1550,9,-249,-9,-12,63,-2
1555,14,-253,-7,-11,64,-5
1560,11,-253,-9,-11,65,-3
1565,15,-250,-11,-11,64,-5
1570,11,-248,-7,-11,65,-1
1575,13,-251,-8,-9,65,-4
1580,10,-250,-6,-9,66,-2
1585,11,-250,-6,-10,66,-5
1590,12,-253,-3,-9,67,-2
1595,12,-251,-11,-11,66,-5
1600,12,-251,-8,-11,65,-2
1605,12,-252,-5,-9,65,-5
1610,9,-251,-8,-9,66,-2
1615,9,-249,-12,-10,65,-3
1620,14,-253,-7,-9,66,0
1625,12,-251,-4,-9,64,-4
1630,10,-251,-8,-8,62,-2
1635,11,-252,-8,-8,62,-4
1640,10,-252,-10,-7,62,-1
1645,14,-251,-9,-6,62,-5
1650,8,-246,-11,-5,58,-1
1655,10,-254,0,-4,59,-3
1660,12,-251,-9,-5,58,0
1665,10,-246,-10,-5,59,0
1670,15,-253,-9,-5,60,1
1675,15,-251,-6,-4,59,-2
1680,12,-251,-8,-5,59,1
1685,14,-252,-7,-6,60,-1
1690,11,-251,-6,-6,61,0
1695,13,-250,-12,-7,62,-2
1700,15,-251,-9,-7,63,0
1705,13,-251,-11,-6,63,-3
1710,14,-250,-6,-2,65,-2
1715,11,-252,-10,0,65,-5
1720,13,-250,-6,5,65,-4
1725,14,-250,-7,7,65,-7
1730,13,-250,-5,10,66,-6
1735,13,-247,-7,12,64,-8
1740,10,-247,-8,12,63,-8
1745,12,-251,-7,13,62,-8
1750,14,-249,-7,9,61,-7
1755,12,-250,-5,6,62,-9
1760,12,-250,-2,2,61,-7
1765,13,-251,-6,-3,61,-8
1770,13,-250,-4,-7,62,-7
1775,11,-252,-4,-6,63,-7
1780,13,-253,-6,-6,63,-7
1785,11,-250,-3,-5,63,-7
1790,11,-250,-3,-3,62,-7
1795,10,-249,-6,-1,61,-7
1800,9,-252,-6,1,60,-7
1805,11,-250,-8,3,60,-8
1810,15,-249,-7,6,58,-7
1815,10,-253,-6,6,58,-6
1820,13,-252,-8,9,56,-6
1825,10,-250,-4,12,57,-7
1830,12,-252,-7,13,56,-7
1835,11,-251,-4,15,58,-7
1840,12,-253,-3,16,57,-8
1845,9,-251,-5,14,58,-9
1850,9,-249,-7,13,58,-9
1855,11,-252,-4,8,57,-8
1860,8,-251,-5,6,57,-9
1865,9,-250,-6,4,57,-6
1870,11,-251,-6,2,57,-7
1875,8,-251,-7,2,57,-6
1880,12,-253,-6,0,56,-6
1885,9,-250,-7,0,55,-7
1890,8,-249,-5,2,54,-7
1895,10,-249,-7,3,53,-5
1900,11,-252,-8,4,52,-5
1905,11,-253,-5,7,51,-4
1910,13,-250,-2,9,52,-3
1915,9,-250,-6,12,51,-2
1920,9,-252,-4,15,50,-3
1925,13,-250,-3,14,49,-1
1930,11,-250,-3,13,47,-1
1935,13,-251,-7,11,49,1
1940,10,-250,-7,11,47,1
1945,10,-248,-8,10,48,1
1950,11,-250,-10,8,48,1
1955,13,-250,-5,6,48,2
1960,11,-249,-10,6,48,2
1965,12,-251,-6,3,47,3
1970,14,-252,-6,2,46,0
1975,13,-253,-8,0,48,2
1980,8,-254,-4,-1,48,-1
1985,13,-254,-7,-2,47,2
1990,11,-249,-4,-3,48,0
1995,10,-252,-3,-3,49,1
2000,9,-249,-9,-6,49,-1
2005,12,-251,-5,-5,49,2
2010,12,-252,-8,-4,51,0
2015,16,-251,-7,-3,52,1
2020,15,-251,-8,-2,54,-3
2025,15,-250,-8,-1,56,-2
2030,14,-250,-2,-1,58,-5
2035,13,-253,-3,0,58,-3
2040,12,-249,-6,0,61,-5
2045,14,-252,-5,2,62,-3
2050,14,-248,-6,3,63,-6
2055,16,-251,-2,2,64,-4
2060,12,-250,-6,1,62,-6
2065,14,-253,-4,0,62,-4
2070,12,-250,-7,1,62,-5
2075,14,-250,-7,2,61,-4
2080,15,-252,-7,0,60,-6
2085,16,-248,-2,0,58,-4
2090,14,-253,2,-2,58,-6
2095,14,-250,-4,-2,60,-3
2100,13,-252,-6,-4,58,-6
2105,14,-249,-7,-3,58,-5
2110,10,-249,-7,-6,58,-7
2115,14,-249,-6,-5,58,-5
2120,13,-252,-6,-6,57,-7
2125,13,-251,-7,-5,57,-5
2130,16,-252,-9,-5,58,-8
2135,11,-253,-3,-3,57,-7
2140,14,-253,-6,-2,59,-9
2145,13,-252,-5,-2,59,-8
2150,12,-253,-2,-1,60,-11
2155,7,-252,-5,-2,61,-10
2160,12,-248,-3,-1,61,-14
2165,12,-253,0,-2,63,-10
2170,11,-252,-5,-1,61,-14
2175,12,-252,-1,-1,62,-12
2180,11,-254,-5,-2,63,-15
2185,10,-251,0,-1,64,-12
2190,13,-256,-2,0,62,-14
2195,13,-251,-6,0,60,-10
2200,12,-250,-8,0,58,-13
2205,14,-253,-6,-2,56,-9
2210,12,-252,-1,-3,57,-10
2215,11,-247,-1,-3,55,-8
2220,11,-251,-3,-4,54,-9
2225,12,-252,-8,-5,54,-6
2230,10,-252,0,-6,55,-9
2235,11,-253,-3,-8,54,-8
2240,13,-248,-1,-8,55,-9
2245,11,-249,-2,-9,55,-7
2250,11,-252,-1,-10,54,-9
2255,10,-250,-4,-10,54,-7
2260,11,-254,-2,-10,54,-9
2265,10,-249,-3,-9,54,-6
2270,11,-250,-1,-8,52,-7
2275,8,-250,-3,-6,52,-5
2280,10,-250,0,-3,53,-6
2285,14,-252,-5,-1,54,-4
2290,11,-253,0,-1,55,-4
2295,12,-252,-1,1,55,-2
2300,12,-253,0,3,55,-2
2305,14,-251,-4,3,56,-1
2310,12,-253,-3,5,56,-2
2315,14,-251,-1,5,56,-1
2320,13,-251,-4,4,56,-3
2325,12,-250,-3,4,56,-1
2330,14,-250,-2,4,55,-4
2335,14,-252,-3,0,57,-3
2340,10,-249,-4,0,57,-5
2345,14,-254,-1,-1,59,-2
2350,10,-251,-5,-3,60,-5
2355,12,-253,-8,-4,62,-4
2360,13,-251,-4,-5,64,-4
2365,10,-251,-3,-4,64,-3
2370,11,-250,-1,-5,68,-4
2375,9,-250,-2,-4,69,-3
2380,10,-249,-3,-4,68,-3
2385,10,-252,-6,-2,69,-2
2390,12,-251,-1,-2,70,-3
2395,14,-250,2,-2,71,-2
2400,14,-249,-7,-4,69,-3
2405,11,-251,-2,-4,67,-1
2410,10,-249,-4,-5,66,0
2415,13,-251,0,-9,66,0
2420,11,-249,-2,-12,65,0
2425,10,-252,-6,-15,65,1
2430,11,-253,0,-17,66,1
2435,10,-251,0,-18,65,0
2440,12,-251,-2,-19,63,0
2445,11,-252,-6,-18,63,0
2450,12,-252,-5,-16,61,0
2455,11,-251,-7,-14,61,0
2460,10,-247,-4,-12,62,-1
2465,10,-253,-4,-12,62,0
2470,10,-250,-6,-13,64,0
2475,11,-251,-2,-14,63,-1
2480,12,-251,-1,-14,64,0
2485,9,-247,-2,-16,63,-1
2490,14,-250,-3,-12,63,-1
2495,11,-252,-4,-14,63,-1
2500,11,-253,-3,-12,64,-1
2505,8,-250,-9,-11,64,-2
2510,11,-252,-2,-11,62,-1
2515,12,-253,-5,-11,61,-2
2520,11,-253,-4,-10,60,0
2525,19,-252,-8,-10,59,-2
2530,9,-251,-3,-12,59,0
2535,11,-251,-1,-12,56,-2
2540,10,-251,-5,-12,54,0
2545,12,-251,-6,-14,54,-2
2550,11,-249,-3,-14,53,-1
2555,14,-252,-2,-17,54,-2
2560,11,-252,0,-17,53,-3
2565,13,-248,-3,-19,53,-3
2570,13,-251,-3,-19,52,-2
2575,11,-248,-6,-18,51,-3
2580,11,-249,-1,-17,51,-1
2585,15,-256,-3,-16,51,-3
2590,11,-254,-6,-17,51,0
2595,14,-250,-4,-18,50,-2
2600,15,-249,-3,-20,51,-1
2605,13,-253,0,-22,53,-2
2610,12,-250,-6,-24,56,-1
2615,14,-253,-2,-26,56,-2
2620,14,-251,0,-25,59,-1
2625,12,-251,-3,-23,60,-2
2630,14,-250,-3,-22,57,0
2635,15,-251,-2,-22,56,-3
2640,14,-248,-5,-24,55,0
2645,11,-251,-1,-24,54,0
2650,14,-252,-7,-26,57,1
2655,15,-254,0,-25,59,-1
2660,14,-253,-4,-23,63,-1
2665,14,-254,-8,-25,67,-5
2670,8,-251,-9,-26,70,-4
2675,10,-251,-7,-33,68,-5
2680,8,-244,-4,-45,64,0
2685,10,-246,-9,-63,56,0
2690,9,-247,-11,-79,49,7
2695,9,-247,-15,-95,45,6
2700,10,-246,-14,-111,45,9
2705,7,-243,-17,-128,52,7
2710,8,-244,-13,-144,62,8
2715,11,-242,-17,-163,76,4
2720,8,-241,-24,-180,90,4
2725,9,-241,-22,-198,103,0
2730,6,-242,-25,-216,112,1
2735,9,-243,-31,-229,122,-5
2740,9,-240,-27,-239,134,-4
2745,9,-243,-29,-242,146,-10
2750,11,-247,-28,-239,154,-10
2755,11,-243,-29,-233,161,-15
2760,15,-242,-30,-228,163,-15
2765,16,-244,-30,-224,157,-17
2770,18,-240,-30,-222,151,-17
2775,18,-240,-35,-224,139,-21
2780,21,-240,-40,-231,133,-19
2785,21,-237,-35,-240,128,-26
2790,20,-235,-40,-248,127,-27
2795,21,-236,-38,-259,127,-34
2800,26,-238,-47,-265,128,-35
2805,21,-235,-44,-275,128,-40
2810,20,-234,-48,-281,129,-39
2815,21,-232,-48,-287,125,-46
2820,25,-233,-46,-293,122,-47
2825,24,-231,-55,-298,118,-52
2830,24,-229,-52,-303,116,-52
2835,21,-228,-56,-310,114,-59
2840,23,-228,-54,-317,113,-60
2845,18,-227,-56,-322,110,-65
2850,27,-214,-54,-332,109,-66
2855,19,-225,-56,-342,109,-71
2860,16,-224,-55,-353,107,-72
2865,18,-225,-58,-365,107,-75
2870,15,-225,-59,-379,105,-75
2875,16,-226,-57,-391,102,-81
2880,14,-225,-56,-400,96,-83
2885,12,-226,-60,-407,93,-91
2890,10,-226,-60,-409,89,-91
2895,8,-224,-58,-410,84,-98
2900,8,-227,-59,-409,74,-104
2905,7,-225,-62,-406,67,-114
2910,7,-226,-60,-402,58,-119
2915,7,-227,-62,-401,48,-124
2920,10,-228,-65,-399,40,-127
2925,10,-226,-66,-397,30,-130
2930,9,-227,-66,-395,22,-130
2935,7,-228,-72,-391,12,-135
2940,8,-226,-72,-388,4,-135
2945,14,-228,-74,-381,-5,-136
2950,16,-227,-73,-372,-12,-134
2955,12,-227,-79,-362,-18,-133
2960,16,-233,-72,-347,-26,-133
2965,17,-231,-82,-333,-29,-130
2970,17,-232,-85,-313,-33,-127
2975,18,-236,-88,-292,-37,-128
2980,22,-240,-86,-266,-39,-127
2985,23,-241,-94,-236,-43,-129
2990,27,-242,-92,-201,-40,-128
2995,32,-244,-91,-158,-34,-132
3000,30,-245,-89,-106,-25,-134
3005,31,-247,-92,-50,-16,-136
3010,39,-248,-88,10,-2,-143
3015,36,-248,-88,87,9,-154
3020,35,-247,-83,145,18,-158
3025,35,-246,-84,193,29,-162
3030,41,-242,-81,234,36,-164
3035,36,-235,-78,267,44,-167
3040,40,-230,-77,288,48,-167
3045,40,-223,-78,294,53,-168
3050,38,-215,-75,279,54,-172
3055,37,-206,-70,250,56,-175
3060,37,-195,-68,211,56,-178
3065,38,-189,-66,156,57,-181
3070,39,-179,-64,66,58,-178
3075,34,-171,-60,-28,59,-173
3080,33,-163,-59,-139,59,-165
3085,38,-160,-58,-268,62,-157
3090,39,-155,-45,-405,74,-152
3095,41,-159,-38,-543,94,-149
3100,43,-164,-31,-675,127,-151
3105,42,-174,-22,-790,167,-154
3110,41,-189,-6,-873,203,-159
3115,39,-203,0,-922,234,-160
3120,38,-214,4,-946,259,-171
3125,37,-224,17,-943,272,-169
3130,36,-236,22,-912,280,-159
3135,37,-248,36,-847,279,-150
3140,33,-255,45,-745,266,-151
3145,29,-260,46,-606,248,-146
3150,26,-270,45,-442,221,-143
3155,18,-275,37,-277,187,-134
3160,16,-279,30,-125,144,-122
3165,8,-286,16,-1,94,-118
3170,0,-290,7,89,42,-111
3175,-7,-291,-12,153,-23,-98
3180,-19,-288,-20,165,-72,-88
3185,-14,-296,-30,142,-115,-67
3190,-20,-298,-36,78,-146,-67
3195,-21,-302,-47,-14,-157,-65
3200,-16,-307,-52,-118,-156,-67
3205,-13,-311,-57,-221,-142,-84
3210,-8,-313,-57,-320,-116,-101
3215,0,-310,-57,-408,-77,-116
3220,4,-303,-53,-483,-26,-141
3225,19,-293,-44,-557,33,-166
3230,25,-282,-31,-649,103,-184
3235,34,-271,-12,-724,150,-191
3240,33,-261,-6,-787,185,-195
3245,43,-256,7,-833,206,-186
3250,49,-247,15,-863,212,-177
3255,53,-244,21,-874,205,-162
3260,57,-244,27,-865,184,-149
3265,61,-246,31,-841,155,-133
3270,62,-247,28,-800,118,-118
3275,70,-250,27,-747,79,-99
3280,60,-257,12,-673,40,-104
3285,45,-260,14,-585,11,-66
3290,58,-265,8,-506,-11,-15
3295,56,-274,-4,-423,-29,7
3300,61,-280,-15,-344,-36,23
3305,62,-284,-18,-269,-32,37
3310,58,-286,-31,-197,-21,35
3315,54,-283,-37,-140,-4,44
3320,54,-287,-45,-89,9,52
3325,57,-288,-43,-54,23,63
3330,47,-292,-52,-27,28,61
3335,46,-294,-62,-12,27,73
3340,38,-290,-62,-5,22,64
3345,35,-292,-66,-1,15,63
3350,29,-292,-65,-2,6,47
3355,18,-273,-65,-11,-5,34
3360,17,-270,-65,-25,-13,30
3365,14,-259,-60,-50,-16,14
3370,17,-247,-52,-85,-15,-15
3375,1,-235,-47,-113,-10,-58
3380,2,-230,-41,-142,-2,-64
3385,1,-220,-30,-175,0,-68
3390,11,-222,-30,-201,-3,-82
3395,9,-224,-23,-226,-11,-115
3400,11,-223,-17,-241,-10,-155
3405,10,-228,-16,-239,-9,-194
3410,3,-236,-7,-226,1,-199
3415,7,-240,-2,-205,4,-179
3420,13,-247,-3,-161,0,-166
3425,16,-255,-12,-105,-4,-164
3430,12,-254,-12,-48,-4,-188
3435,10,-255,-14,20,3,-170
3440,19,-265,-29,96,7,-161
3445,16,-261,-36,148,7,-160
3450,12,-260,-44,199,5,-144
3455,17,-273,-60,228,2,-112
3460,24,-266,-66,226,-1,-83
3465,26,-268,-72,207,-6,-71
3470,28,-266,-77,160,3,-44
3475,29,-262,-78,88,12,-11
3480,40,-264,-75,7,18,17
3485,28,-267,-85,-64,21,51
3490,37,-270,-75,-149,25,96
3495,34,-263,-69,-229,20,114
3500,52,-261,-51,-290,18,130
3505,27,-265,-51,-324,17,123
3510,24,-261,-43,-345,21,152
3515,25,-261,-30,-345,18,174
3520,25,-260,-33,-324,11,183
3525,19,-255,-25,-286,13,186
3530,23,-258,-20,-227,25,159
3535,19,-257,-20,-177,46,138
3540,24,-255,-16,-109,68,125
3545,14,-256,-22,-28,83,87
3550,16,-258,-18,48,96,91
3555,27,-252,-11,139,111,111
3560,43,-267,-28,205,112,91
3565,25,-263,-36,250,114,39
3570,40,-260,-38,277,125,29
3575,22,-268,-51,289,127,5
3580,21,-267,-58,270,112,0
3585,16,-269,-64,234,90,-15
3590,24,-277,-65,189,70,-22
3595,22,-276,-70,131,53,-23
3600,27,-278,-70,75,39,-56
3605,26,-286,-61,18,35,-67
3610,24,-273,-71,-48,30,-46
3615,30,-264,-65,-102,22,-49
3620,19,-272,-65,-132,19,-57
3625,24,-270,-62,-163,23,-39
3630,25,-262,-59,-183,27,-18
3635,34,-259,-52,-187,23,-8
3640,29,-256,-51,-172,23,-6
3645,14,-254,-51,-144,22,10
3650,7,-241,-43,-121,15,49
3655,31,-253,-56,-100,4,102
3660,35,-249,-60,-80,-5,87
3665,18,-247,-70,-50,4,74
3670,13,-242,-73,-46,16,101
3675,23,-235,-68,-55,6,117
3680,19,-247,-80,-60,-11,97
3685,14,-248,-81,-88,-17,98
3690,14,-235,-79,-121,-19,112
3695,34,-248,-76,-153,-32,129
3700,40,-253,-73,-182,-43,107
3705,17,-258,-80,-204,-47,69
3710,23,-257,-76,-227,-42,68
3715,24,-254,-71,-253,-48,73
3720,48,-261,-62,-267,-54,60
3725,23,-270,-76,-267,-57,28
3730,28,-268,-78,-267,-45,28
3735,28,-267,-76,-278,-37,25
3740,41,-264,-74,-290,-28,13
3745,45,-262,-65,-299,-17,-11
3750,29,-269,-73,-291,-8,-28
3755,23,-265,-73,-285,4,-35
3760,28,-263,-79,-289,17,-29
3765,28,-261,-76,-293,23,-26
3770,27,-260,-73,-292,24,-24
3775,45,-256,-64,-289,25,-31
3780,3,-251,-74,-271,26,-41
3785,21,-254,-75,-254,29,-1
3790,24,-250,-74,-250,21,19
3795,23,-247,-71,-243,19,23
3800,19,-247,-71,-230,19,33
3805,13,-249,-78,-205,10,33
3810,16,-254,-80,-189,2,59
3815,15,-251,-81,-178,-8,81
3820,19,-252,-84,-172,-12,95
3825,29,-251,-84,-165,-10,89
3830,12,-256,-88,-162,-11,79
3835,14,-256,-94,-169,0,92
3840,20,-256,-91,-185,15,108
3845,21,-255,-92,-201,27,111
3850,23,-255,-88,-212,39,112
3855,24,-255,-83,-214,51,109
3860,25,-254,-81,-210,65,111
3865,28,-256,-85,-204,73,111
3870,38,-252,-87,-193,81,111
3875,25,-255,-88,-172,89,89
3880,23,-253,-85,-151,102,94
3885,30,-251,-88,-136,104,106
3890,33,-251,-87,-129,104,106
3895,31,-252,-88,-119,105,97
3900,30,-245,-87,-107,104,96
3905,34,-249,-90,-97,101,90
3910,31,-246,-93,-92,97,88
3915,31,-246,-93,-92,94,83
3920,31,-248,-89,-96,90,82
3925,31,-250,-87,-103,90,76
3930,32,-250,-93,-107,89,75
3935,33,-249,-88,-110,91,69
3940,31,-250,-91,-113,90,65
3945,34,-250,-89,-111,92,57
3950,29,-250,-86,-106,93,54
3955,33,-249,-86,-96,97,46
3960,33,-247,-89,-85,100,43
3965,35,-244,-93,-72,103,33
3970,33,-244,-87,-61,109,31
3975,32,-246,-94,-53,112,23
3980,31,-243,-89,-47,115,18
3985,29,-239,-91,-47,118,12
3990,33,-242,-93,-41,123,12
3995,27,-241,-92,-32,130,7
4000,25,-241,-91,-25,134,7
4005,26,-242,-90,-20,136,8
4010,25,-243,-88,-15,137,11
4015,23,-246,-87,-11,138,7
4020,25,-244,-86,-4,138,13
4025,25,-242,-84,6,140,12
4030,24,-244,-86,17,135,16
4035,25,-241,-89,32,135,15
4040,26,-239,-87,46,132,19
4045,25,-238,-97,55,127,24
4050,25,-239,-97,58,125,27
4055,22,-239,-92,57,125,30
4060,20,-234,-93,55,127,34
4065,23,-233,-93,48,126,35
4070,23,-237,-88,38,121,38
4075,23,-235,-88,35,118,38
4080,25,-238,-81,35,119,42
4085,24,-237,-80,35,120,41
4090,21,-235,-80,42,120,44
4095,24,-236,-80,47,125,44
4100,23,-233,-74,53,129,44
4105,23,-236,-77,61,132,41
4110,24,-235,-81,72,133,42
4115,23,-237,-80,82,134,41
4120,25,-241,-76,93,134,42
4125,25,-240,-80,103,133,40
4130,25,-243,-85,111,131,40
4135,21,-243,-79,120,130,35
4140,44,-245,-79,125,130,35
4145,5,-249,-89,144,132,-6
4150,11,-248,-97,150,128,15
4155,29,-249,-96,113,120,42
4160,21,-249,-96,87,120,39
4165,24,-253,-93,70,119,40
4170,25,-250,-94,54,117,39
4175,25,-251,-91,40,119,36
4180,25,-254,-90,28,120,33
4185,26,-252,-92,20,122,30
4190,28,-252,-86,15,127,27
4195,27,-253,-89,11,129,21
4200,27,-249,-88,6,133,17
4205,25,-245,-86,-1,137,15
4210,26,-244,-83,-14,140,12
4215,25,-242,-80,-22,143,11
4220,26,-242,-82,-30,146,8
4225,25,-241,-80,-37,146,8
4230,27,-243,-73,-41,143,5
4235,26,-242,-73,-45,140,5
4240,26,-244,-79,-46,135,2
4245,28,-242,-79,-44,130,-1
4250,24,-247,-82,-46,130,-4
4255,30,-245,-85,-50,130,-6
4260,28,-247,-81,-58,133,-13
4265,28,-250,-85,-70,136,-14
4270,24,-250,-84,-85,140,-19
4275,25,-248,-83,-97,145,-19
4280,24,-247,-82,-109,149,-21
4285,24,-248,-76,-119,151,-19
4290,25,-247,-76,-126,149,-21
4295,27,-247,-74,-129,143,-20
4300,23,-245,-76,-129,139,-19
4305,26,-243,-66,-127,137,-20
4310,25,-246,-69,-118,133,-21
4315,29,-244,-67,-105,127,-22
4320,28,-247,-64,-90,123,-27
4325,27,-246,-67,-76,119,-29
4330,27,-246,-70,-67,116,-37
4335,29,-247,-78,-61,116,-40
4340,28,-247,-81,-65,120,-48
4345,31,-251,-77,-73,121,-53
4350,30,-249,-81,-89,127,-61
4355,32,-248,-82,-111,130,-66
4360,30,-248,-84,-132,133,-72
4365,22,-242,-86,-154,136,-75
4370,29,-247,-77,-175,136,-79
4375,31,-246,-76,-189,135,-77
4380,31,-245,-68,-196,133,-78
4385,25,-240,-69,-196,130,-77
4390,24,-241,-64,-188,128,-76
4395,25,-242,-64,-174,126,-68
4400,23,-239,-65,-157,122,-66
4405,23,-235,-62,-136,118,-61
4410,22,-236,-64,-112,112,-61
4415,21,-234,-68,-91,107,-55
4420,23,-235,-64,-72,103,-52
4425,19,-237,-68,-50,97,-46
4430,18,-236,-74,-34,95,-46
4435,21,-234,-67,-18,92,-42
4440,20,-236,-72,0,91,-42
4445,23,-238,-72,17,92,-40
4450,20,-237,-67,36,90,-39
4455,22,-237,-67,55,90,-33
4460,22,-240,-69,73,89,-31
4465,23,-242,-70,91,91,-27
4470,19,-238,-69,108,89,-27
4475,25,-245,-68,122,87,-17
4480,18,-244,-73,140,84,-16
4485,19,-245,-76,149,82,-10
4490,23,-243,-78,154,80,-6
4495,21,-245,-77,152,77,2
4500,24,-246,-71,148,73,3
4505,23,-247,-76,147,65,5
4510,24,-248,-73,150,58,0
4515,24,-250,-73,155,52,-2
4520,27,-250,-78,159,48,-13
4525,27,-253,-80,153,49,-20
4530,30,-253,-80,140,58,-35
4535,30,-252,-85,113,69,-44
4540,28,-253,-88,85,80,-59
4545,32,-252,-86,56,90,-69
4550,30,-255,-81,30,97,-81
4555,30,-256,-78,10,102,-85
4560,27,-256,-73,3,103,-92
4565,25,-255,-69,4,101,-92
4570,25,-254,-62,12,98,-93
4575,25,-253,-64,29,93,-87
4580,22,-252,-63,49,88,-83
4585,23,-249,-64,66,82,-71
4590,24,-249,-64,87,76,-63
4595,23,-248,-67,102,70,-53
4600,23,-247,-66,111,64,-45
4605,22,-244,-68,114,58,-33
4610,22,-243,-70,111,53,-28
4615,21,-243,-68,106,49,-19
4620,23,-240,-66,105,45,-13
4625,22,-240,-71,102,42,-4
4630,18,-240,-65,102,39,-2
4635,25,-243,-63,105,39,6
4640,24,-242,-64,110,40,7
4645,23,-242,-64,120,43,9
4650,25,-242,-67,132,46,10
4655,22,-241,-67,139,52,13
4660,25,-242,-69,145,59,12
4665,24,-242,-75,144,66,18
4670,24,-246,-80,135,70,18
4675,24,-245,-83,121,74,25
4680,26,-249,-80,103,78,28
4685,24,-245,-82,82,81,36
4690,25,-247,-80,58,84,40
4695,21,-249,-80,35,87,45
4700,20,-248,-76,10,88,49
4705,18,-247,-78,-7,87,53
4710,20,-246,-76,-24,85,57
4715,19,-247,-75,-36,81,61
4720,18,-249,-70,-42,79,60
4725,24,-248,-66,-44,76,61
4730,18,-246,-61,-41,76,56
4735,21,-246,-64,-32,75,52
4740,22,-249,-64,-23,76,44
4745,26,-252,-61,-11,79,34
4750,25,-248,-64,2,83,25
4755,24,-247,-65,6,87,16
4760,25,-246,-67,9,92,8
4765,26,-246,-69,9,97,-2
4770,24,-247,-72,8,103,-10
4775,25,-247,-72,8,107,-18
4780,24,-245,-72,9,111,-26
4785,24,-248,-74,10,112,-30
4790,24,-247,-73,13,111,-31
4795,26,-248,-67,18,110,-32
4800,29,-246,-65,22,108,-29
4805,26,-245,-72,25,102,-28
4810,27,-246,-72,27,99,-23
4815,26,-247,-76,25,90,-20
4820,26,-246,-76,20,89,-15
4825,25,-247,-72,16,81,-11
4830,27,-245,-73,13,74,-6
4835,27,-244,-71,14,68,-1
4840,27,-244,-74,12,63,2
4845,29,-246,-68,13,57,5
4850,27,-244,-67,16,54,7
4855,28,-244,-72,18,52,8
4860,26,-243,-71,24,51,10
4865,27,-244,-68,30,52,9
4870,26,-245,-69,35,52,8
4875,30,-245,-72,39,54,7
4880,28,-244,-72,38,56,8
4885,30,-246,-69,38,61,3
4890,30,-245,-76,35,64,2
4895,30,-247,-74,31,70,-2
4900,30,-243,-76,28,74,-2
4905,27,-246,-76,24,75,-6
4910,31,-245,-73,21,77,-8
4915,28,-242,-74,17,77,-12
4920,28,-243,-73,18,78,-11
4925,26,-244,-73,21,75,-14
4930,28,-243,-71,25,72,-13
4935,29,-242,-73,29,67,-15
4940,28,-244,-71,35,65,-12
4945,28,-242,-71,39,60,-12
4950,24,-244,-69,43,56,-6
4955,27,-244,-69,47,56,-7
4960,29,-244,-71,48,56,-3
4965,29,-244,-71,47,58,-2
4970,26,-244,-70,43,60,1
4975,28,-244,-73,40,60,-2
4980,29,-244,-73,38,62,4
4985,27,-244,-67,36,62,1
4990,29,-245,-69,37,61,4
4995,29,-247,-66,38,59,3
5000,27,-245,-67,43,57,6
5005,27,-246,-65,48,55,6
5010,28,-248,-67,54,55,6
5015,29,-248,-68,61,55,4
5020,29,-250,-71,69,61,4
5025,31,-253,-68,71,64,-1
5030,29,-250,-72,72,66,-2
5035,27,-251,-73,70,72,-6
5040,27,-253,-73,67,76,-6
5045,30,-255,-68,64,80,-10
5050,31,-255,-71,63,81,-7
5055,29,-254,-67,61,83,-11
5060,29,-255,-69,62,83,-9
5065,32,-256,-69,63,84,-7
5070,32,-255,-66,64,86,-4
5075,31,-254,-69,63,84,-5
5080,31,-253,-71,63,85,-2
5085,27,-250,-72,61,83,-6
5090,26,-247,-70,57,80,-3
5095,26,-246,-71,52,79,-3
5100,27,-246,-69,47,78,0
5105,25,-246,-70,40,77,-4
5110,25,-249,-72,33,78,-3
5115,23,-244,-72,28,78,-5
5120,27,-243,-68,24,78,-5
5125,26,-241,-76,25,79,-10
5130,26,-245,-73,28,77,-10
5135,28,-245,-67,28,76,-13
5140,27,-245,-73,28,76,-16
5145,24,-244,-74,28,74,-21
5150,25,-243,-73,29,71,-21
5155,25,-242,-75,29,70,-26
5160,22,-239,-75,31,68,-26
5165,23,-239,-74,31,67,-30
5170,25,-243,-73,29,62,-30
5175,27,-243,-72,27,58,-32
5180,27,-245,-72,24,54,-28
5185,25,-244,-74,18,50,-30
5190,24,-244,-75,14,48,-27
5195,26,-245,-75,11,46,-25
5200,29,-243,-72,9,42,-22
5205,25,-243,-68,5,41,-22
5210,26,-244,-72,1,40,-17
5215,33,-247,-70,1,41,-17
5220,28,-244,-72,-1,40,-15
5225,26,-243,-73,-3,38,-16
5230,29,-243,-70,-3,37,-12
5235,30,-246,-72,-3,35,-10
5240,27,-245,-69,-2,32,-10
5245,30,-242,-69,2,29,-9
5250,29,-242,-67,6,29,-8
5255,27,-243,-66,11,26,-6
5260,32,-244,-66,15,26,-3
5265,30,-242,-66,20,23,-4
5270,26,-242,-65,23,23,-3
5275,26,-245,-70,26,23,-5
5280,28,-246,-70,28,21,-5
5285,27,-245,-68,29,22,-5
5290,27,-244,-67,25,21,-6
5295,30,-246,-68,20,23,-10
5300,28,-244,-71,14,26,-11
5305,28,-245,-65,6,29,-14
5310,26,-243,-66,1,31,-17
5315,29,-247,-65,-1,32,-21
5320,25,-246,-65,-2,35,-22
5325,27,-248,-66,-1,35,-26
5330,27,-247,-64,0,36,-27
5335,27,-246,-62,1,37,-30
5340,40,-252,-72,1,36,-32
5345,28,-246,-66,1,34,-33
5350,27,-244,-65,-2,33,-35
5355,28,-245,-69,-4,33,-34
5360,31,-245,-67,-7,32,-37
5365,30,-245,-68,-11,33,-37
5370,30,-245,-66,-15,35,-36
5375,32,-244,-69,-21,36,-37
5380,30,-242,-70,-27,36,-36
5385,30,-247,-68,-34,37,-36
5390,32,-247,-66,-43,39,-36
5395,33,-246,-66,-49,39,-35
5400,34,-249,-68,-55,36,-37
5405,32,-246,-69,-60,35,-37
5410,32,-248,-66,-66,32,-40
5415,31,-247,-68,-70,31,-40
5420,33,-248,-67,-74,31,-42
5425,29,-246,-67,-76,30,-42
5430,29,-245,-67,-80,28,-44
5435,30,-247,-69,-79,27,-44
5440,28,-246,-72,-80,26,-45
5445,27,-245,-70,-81,24,-46
5450,32,-244,-72,-80,25,-50
5455,26,-243,-68,-79,25,-50
5460,31,-248,-70,-74,24,-50
5465,25,-244,-67,-67,22,-45
5470,23,-243,-69,-61,23,-43
5475,24,-242,-69,-57,22,-39
5480,25,-245,-73,-55,23,-37
5485,26,-243,-68,-55,22,-33
5490,26,-246,-71,-54,22,-31
5495,24,-247,-68,-54,21,-26
5500,24,-246,-71,-58,21,-23
5505,24,-245,-69,-58,21,-19
5510,25,-244,-69,-61,21,-17
5515,23,-245,-67,-64,20,-12
5520,22,-245,-70,-66,21,-12
5525,25,-245,-67,-66,22,-6
5530,22,-244,-69,-64,24,-4
5535,26,-247,-70,-62,26,0
5540,25,-243,-64,-60,29,-1
5545,25,-246,-66,-56,34,3
5550,27,-245,-64,-51,36,2
5555,26,-246,-64,-45,43,4
5560,23,-237,-62,-41,45,-1
5565,26,-248,-65,-36,47,0
5570,28,-247,-65,-31,48,-5
5575,25,-245,-65,-28,51,-7
5580,28,-246,-71,-27,51,-14
5585,25,-245,-65,-25,52,-16
5590,25,-247,-66,-23,53,-23
5595,28,-248,-65,-20,56,-25
5600,29,-250,-65,-17,59,-32
5605,29,-244,-66,-12,63,-35
5610,27,-245,-64,-6,66,-42
5615,30,-246,-66,-2,66,-43
5620,29,-247,-65,0,65,-47
5625,32,-249,-68,2,66,-45
5630,32,-246,-65,3,65,-49
5635,30,-248,-66,2,65,-47
5640,33,-247,-67,0,61,-48
5645,27,-246,-68,-3,59,-42
5650,30,-243,-69,-11,56,-44
5655,31,-245,-69,-20,53,-38
5660,31,-243,-69,-30,52,-35
5665,32,-242,-73,-41,48,-28
5670,30,-238,-72,-52,48,-26
5675,34,-242,-68,-64,45,-14
5680,33,-243,-70,-73,46,-9
5685,33,-241,-66,-84,45,0
5690,34,-242,-64,-94,44,6
5695,35,-244,-67,-100,43,14
5700,33,-243,-65,-107,43,20
5705,32,-240,-64,-110,42,28
5710,35,-245,-69,-111,41,30
5715,34,-243,-67,-112,40,36
5720,33,-247,-70,-111,40,36
5725,32,-245,-69,-109,41,39
5730,29,-248,-69,-111,42,37
5735,31,-245,-69,-114,42,37
5740,30,-246,-71,-117,42,31
5745,30,-247,-69,-123,43,30
5750,27,-249,-71,-127,44,24
5755,28,-248,-70,-128,43,20
5760,25,-248,-72,-127,43,13
5765,25,-251,-70,-122,42,11
5770,26,-251,-68,-116,42,5
5775,24,-251,-66,-104,40,2
5780,21,-258,-75,-94,37,-2
5785,25,-249,-68,-85,33,-2
5790,20,-248,-67,-76,29,-4
5795,22,-247,-68,-69,29,-4
5800,23,-249,-69,-65,26,-5
5805,24,-248,-71,-60,22,-4
5810,22,-248,-69,-55,22,-4
5815,23,-248,-69,-50,20,-2
5820,23,-243,-66,-43,19,-2
5825,22,-249,-71,-39,16,0
5830,28,-251,-72,-30,15,2
5835,24,-246,-65,-24,13,5
5840,24,-248,-69,-15,12,6
5845,25,-248,-68,-11,11,7
5850,26,-249,-66,-9,13,10
5855,25,-248,-66,-7,15,12
5860,26,-245,-68,-8,16,15
5865,28,-247,-69,-9,18,20
5870,30,-249,-71,-10,23,22
5875,30,-247,-71,-13,25,24
5880,29,-249,-69,-14,28,25
5885,29,-246,-66,-14,30,24
5890,27,-246,-64,-15,34,25
5895,28,-246,-70,-16,35,24
5900,29,-248,-68,-16,38,21
5905,28,-246,-65,-17,41,18
5910,30,-248,-72,-19,45,14
5915,29,-246,-68,-22,51,10
5920,27,-245,-69,-26,60,6
5925,29,-245,-73,-33,65,4
5930,25,-244,-74,-41,70,1
5935,28,-242,-71,-57,75,-5
5940,29,-242,-77,-68,77,-6
5945,26,-241,-75,-80,78,-10
5950,27,-237,-77,-92,78,-11
5955,25,-241,-79,-100,76,-12
5960,28,-246,-78,-109,76,-12
5965,28,-242,-74,-116,76,-13
5970,29,-241,-75,-118,76,-13
5975,26,-244,-73,-120,76,-15
5980,29,-241,-73,-120,78,-14
5985,30,-244,-71,-120,83,-20
5990,29,-245,-73,-121,85,-20
5995,23,-247,-66,-123,86,-25
6000,29,-243,-70,-123,87,-24
6005,28,-243,-74,-124,89,-28
6010,29,-243,-74,-128,91,-27
6015,32,-245,-75,-131,92,-29
6020,31,-244,-76,-134,93,-29
6025,29,-244,-74,-138,93,-31
6030,30,-244,-78,-142,96,-30
6035,28,-244,-80,-147,97,-32
6040,29,-243,-78,-150,97,-33
6045,30,-248,-76,-150,96,-33
6050,33,-248,-80,-152,93,-31
6055,31,-246,-78,-150,90,-33
6060,30,-246,-74,-148,86,-28
6065,30,-248,-81,-144,84,-29
6070,28,-244,-80,-140,80,-27
6075,30,-243,-79,-136,75,-27
6080,27,-244,-78,-132,70,-24
6085,31,-245,-80,-124,66,-26
6090,27,-247,-76,-116,62,-22
6095,27,-247,-79,-106,56,-23
6100,29,-250,-80,-98,52,-19
6105,19,-251,-76,-90,49,-19
6110,25,-242,-77,-84,45,-13
6115,26,-246,-77,-78,43,-13
6120,26,-245,-79,-73,42,-9
6125,27,-243,-81,-69,37,-8
6130,25,-245,-80,-65,38,-1
6135,29,-247,-77,-65,36,0
6140,31,-247,-80,-62,36,4
6145,31,-247,-80,-61,37,5
6150,28,-244,-81,-59,38,10
6155,27,-242,-79,-54,38,11
6160,27,-243,-79,-50,41,16
6165,29,-242,-80,-47,43,15
6170,30,-245,-78,-41,47,20
6175,30,-243,-77,-36,49,18
6180,30,-243,-76,-34,51,21
6185,29,-244,-78,-29,52,18
6190,28,-243,-74,-24,55,21
6195,32,-246,-80,-19,57,20
6200,29,-243,-81,-12,59,23
6205,29,-243,-75,-5,59,22
6210,32,-245,-79,-1,59,26
6215,33,-236,-70,0,60,23
6220,31,-243,-83,1,60,27
6225,29,-240,-80,2,58,25
6230,30,-239,-81,-1,56,27
6235,33,-244,-86,-5,53,27
6240,31,-239,-84,-11,52,28
6245,32,-244,-83,-19,49,25
6250,32,-243,-82,-27,48,27
6255,32,-245,-84,-34,45,23
6260,35,-241,-83,-43,44,24
6265,33,-243,-83,-52,43,18
6270,32,-242,-83,-58,42,16
6275,32,-242,-83,-65,40,11
6280,33,-242,-82,-71,40,11
6285,34,-245,-82,-72,39,6
6290,32,-245,-78,-73,39,4
6295,29,-243,-73,-72,40,0
6300,31,-244,-76,-69,41,-1
6305,30,-243,-76,-60,43,-4
6310,32,-244,-71,-51,47,-3
6315,32,-245,-78,-42,49,-6
6320,33,-241,-75,-38,53,-5
6325,31,-241,-80,-34,56,-6
6330,33,-241,-77,-33,59,-3
6335,30,-244,-79,-33,60,-4
6340,31,-242,-82,-34,61,-1
6345,33,-242,-84,-36,61,-1
6350,31,-244,-76,-38,61,4
6355,31,-242,-85,-37,58,2
6360,28,-245,-79,-39,58,4
6365,31,-242,-84,-39,55,5
6370,30,-244,-82,-40,51,6
6375,28,-245,-78,-40,47,5
6380,29,-247,-83,-40,43,8
6385,30,-247,-82,-40,40,6
6390,27,-243,-78,-41,38,7
6395,29,-247,-83,-43,34,7
6400,26,-247,-77,-46,32,7
6405,28,-246,-79,-46,30,7
6410,25,-244,-77,-46,29,9
6415,24,-243,-76,-43,29,9
6420,26,-245,-76,-35,29,8
6425,24,-247,-76,-26,29,9
6430,19,-242,-82,-14,32,8
6435,24,-243,-74,-2,33,8
6440,24,-246,-75,14,35,6
6445,24,-246,-78,29,36,4
6450,26,-247,-78,41,38,3
6455,28,-244,-82,49,41,1
6460,23,-245,-82,52,44,0
6465,26,-246,-84,47,45,-3
6470,25,-246,-86,39,47,-6
6475,25,-247,-84,29,47,-7
6480,23,-246,-84,16,50,-10
6485,24,-244,-86,7,51,-12
6490,28,-245,-86,-2,52,-16
6495,24,-242,-81,-9,52,-18
6500,27,-244,-78,-13,52,-20
6505,27,-245,-80,-15,52,-22
6510,25,-243,-82,-15,53,-24
6515,26,-242,-81,-12,52,-25
6520,28,-242,-73,-10,52,-26
6525,27,-241,-79,-7,52,-24
6530,27,-241,-74,-4,54,-25
6535,29,-239,-77,-3,55,-23
6540,32,-241,-79,-1,56,-23
6545,28,-240,-76,1,58,-21
6550,26,-242,-83,3,60,-20
6555,27,-241,-79,5,61,-16
6560,29,-243,-79,9,61,-15
6565,27,-241,-77,10,62,-13
6570,28,-243,-80,14,64,-12
6575,28,-243,-79,21,63,-9
6580,28,-242,-80,28,64,-7
6585,30,-248,-77,34,66,-4
6590,27,-246,-78,41,65,-5
6595,29,-244,-78,45,66,-3
6600,29,-244,-82,48,63,-4
6605,25,-244,-80,50,63,0
6610,27,-245,-80,52,62,-1
6615,29,-246,-80,53,58,4
6620,29,-247,-78,55,54,8
6625,30,-245,-78,55,50,16
6630,28,-246,-78,55,44,21
6635,28,-246,-79,58,38,30
6640,27,-244,-79,60,35,36
6645,28,-247,-74,64,28,47
6650,20,-238,-64,67,24,51
6655,26,-244,-81,67,21,60
6660,27,-246,-77,67,18,63
6665,27,-242,-77,66,16,69
6670,27,-241,-77,64,16,71
6675,24,-239,-79,61,16,76
6680,25,-240,-75,58,17,75
6685,29,-239,-75,58,16,82
6690,27,-238,-72,61,17,82
6695,28,-239,-69,66,17,87
6700,25,-239,-71,75,17,87
6705,24,-240,-66,87,17,94
6710,24,-240,-65,98,16,94
6715,24,-245,-67,110,14,99
6720,24,-243,-66,122,14,98
6725,24,-242,-67,134,16,99
6730,22,-245,-71,139,18,93
6735,24,-245,-71,139,22,90
6740,22,-246,-76,133,24,84
6745,24,-247,-79,118,29,79
6750,22,-249,-78,97,32,73
6755,20,-250,-79,73,35,67
6760,27,-238,-82,51,37,59
6765,22,-244,-78,26,39,56
6770,22,-247,-80,2,37,49
6775,18,-244,-81,-21,35,50
6780,22,-244,-76,-39,31,44
6785,20,-246,-75,-55,27,44
6790,20,-238,-74,-67,24,44
6795,20,-239,-71,-71,20,44
6800,24,-238,-68,-66,19,42
6805,23,-238,-66,-59,17,42
6810,24,-237,-67,-46,18,37
6815,25,-236,-70,-36,19,38
6820,25,-237,-70,-29,20,34
6825,24,-239,-75,-24,20,33
6830,25,-241,-71,-23,22,27
6835,24,-242,-77,-27,19,28
6840,23,-240,-81,-32,18,22
6845,23,-241,-78,-43,17,20
6850,27,-245,-82,-52,14,16
6855,28,-245,-85,-62,12,15
6860,29,-248,-82,-72,12,9
6865,22,-251,-83,-81,10,5
6870,27,-250,-84,-90,10,1
6875,31,-251,-78,-101,8,0
6880,30,-254,-79,-107,6,-7
6885,31,-249,-79,-113,8,-8
6890,29,-247,-78,-116,9,-10
6895,30,-249,-77,-114,7,-12
6900,31,-250,-78,-111,5,-12
6905,30,-247,-73,-107,3,-7
6910,30,-244,-77,-95,0,-7
6915,25,-244,-71,-83,-2,-2
6920,26,-245,-68,-75,-3,5
6925,26,-242,-64,-65,-5,13
6930,22,-243,-68,-51,-5,17
6935,27,-242,-67,-33,-7,25
6940,26,-242,-68,-16,-8,33
6945,25,-246,-74,-2,-9,40
6950,28,-247,-70,7,-13,47
6955,24,-247,-74,15,-13,53
6960,25,-247,-75,18,-12,58
6965,24,-250,-80,17,-8,63
6970,24,-250,-79,11,-6,68
6975,23,-251,-80,3,-1,69
6980,26,-251,-75,-5,2,70
6985,24,-251,-77,-14,4,69
6990,21,-252,-80,-19,8,67
6995,21,-253,-79,-26,11,70
7000,20,-251,-77,-32,14,71
7005,21,-254,-77,-39,17,67
7010,20,-250,-76,-47,19,63
7015,18,-252,-75,-50,23,63
7020,19,-250,-74,-50,27,60
7025,16,-252,-75,-49,32,56
7030,16,-251,-74,-44,38,54
7035,15,-251,-75,-40,45,52
7040,18,-249,-75,-37,50,51
7045,17,-250,-75,-32,53,48
7050,15,-251,-78,-26,56,46
7055,15,-250,-75,-18,60,42
7060,11,-248,-76,-11,63,41
7065,13,-247,-77,-4,67,37
7070,13,-247,-81,-1,71,35
7075,13,-248,-78,3,73,29
7080,11,-247,-80,4,77,25
7085,10,-243,-71,1,79,19
7090,14,-244,-81,-1,86,14
7095,13,-246,-84,-6,88,8
7100,17,-246,-83,-11,92,5
7105,13,-245,-81,-14,95,0
7110,14,-246,-80,-19,99,-2
7115,18,-244,-78,-21,103,-5
7120,17,-246,-79,-21,106,-4
7125,14,-241,-80,-18,110,-7
7130,17,-243,-80,-13,110,-6
7135,19,-245,-78,-7,110,-7
7140,19,-245,-82,-2,106,-4
7145,18,-245,-80,2,104,-6
7150,17,-240,-79,5,103,-5
7155,20,-246,-80,2,101,-9
7160,20,-246,-80,-1,100,-10
7165,21,-243,-80,-3,101,-15
7170,21,-243,-80,-6,101,-16
7175,20,-244,-82,-8,101,-20
7180,22,-243,-83,-9,100,-22
7185,22,-242,-83,-12,101,-28
7190,19,-242,-81,-13,104,-29
7195,23,-249,-75,-12,105,-33
7200,19,-241,-82,-13,106,-34
7205,21,-240,-80,-11,108,-37
7210,21,-240,-79,-10,110,-35
7215,20,-242,-82,-6,112,-35
7220,19,-240,-79,-2,114,-30
7225,15,-239,-76,3,116,-28
7230,19,-239,-76,8,118,-22
7235,15,-239,-76,14,116,-19
7240,16,-241,-79,18,114,-13
7245,18,-239,-82,21,114,-9
7250,16,-243,-80,23,111,-2
7255,14,-240,-78,23,108,1
7260,16,-241,-80,21,107,8
7265,16,-241,-78,18,104,11
7270,18,-242,-77,19,103,15
7275,17,-241,-77,19,103,17
7280,14,-241,-78,21,105,20
7285,18,-243,-75,23,106,20
7290,18,-244,-81,21,107,21
7295,23,-244,-78,21,108,20
7300,22,-242,-74,18,108,20
7305,21,-244,-79,14,107,17
7310,19,-246,-77,11,108,19
7315,20,-243,-82,8,106,13
7320,19,-242,-81,5,106,12
7325,21,-242,-80,2,106,7
7330,23,-243,-76,1,106,7
7335,21,-243,-78,1,108,1
7340,22,-241,-81,0,110,1
7345,22,-242,-79,-3,111,-4
7350,22,-245,-77,-4,113,-4
7355,21,-242,-79,-6,115,-6
7360,24,-244,-80,-10,115,-5
7365,23,-243,-79,-14,114,-7
7370,23,-243,-79,-18,114,-4
7375,21,-244,-75,-22,110,-5
7380,22,-243,-77,-25,110,-1
7385,22,-243,-75,-26,107,0
7390,23,-244,-76,-25,103,2
7395,21,-243,-79,-25,101,0
7400,22,-246,-80,-25,98,2
7405,22,-243,-76,-21,95,3
7410,11,-248,-77,-22,91,4
7415,22,-244,-78,-22,88,2
7420,24,-245,-75,-22,88,4
7425,24,-248,-80,-23,85,1
7430,20,-244,-75,-24,85,0
7435,22,-244,-77,-24,85,-3
7440,23,-245,-77,-24,85,-6
7445,22,-243,-75,-23,88,-9
7450,23,-247,-75,-24,87,-9
7455,22,-249,-73,-22,88,-11
7460,20,-247,-76,-22,88,-10
7465,21,-245,-77,-22,89,-8
7470,22,-246,-75,-23,88,-5
7475,19,-243,-75,-22,86,-5
7480,17,-245,-77,-21,85,-1
7485,16,-246,-76,-20,83,1
7490,18,-245,-78,-18,83,4
7495,20,-246,-75,-19,80,5
7500,21,-248,-74,-18,77,7
7505,17,-245,-76,-21,78,7
7510,20,-245,-75,-21,78,6
7515,23,-246,-69,-21,76,6
7520,25,-243,-85,-19,77,4
7525,22,-246,-68,-11,78,-1
7530,23,-247,-72,-4,80,-2
7535,23,-249,-79,6,82,-5
7540,21,-246,-74,12,83,-8
7545,23,-250,-74,16,82,-11
7550,20,-247,-78,20,80,-13
7555,22,-246,-74,20,76,-13
7560,22,-250,-76,20,72,-15
7565,27,-249,-73,21,68,-17
7570,24,-251,-71,24,64,-19
7575,21,-252,-74,25,61,-22
7580,23,-251,-68,29,61,-23
7585,26,-254,-70,32,60,-22
7590,25,-251,-72,37,60,-27
7595,24,-254,-68,43,61,-27
7600,22,-254,-65,50,63,-30
7605,21,-256,-66,58,65,-29
7610,22,-256,-64,70,68,-33
7615,25,-258,-64,86,72,-33
7620,22,-261,-64,102,80,-35
7625,23,-265,-66,120,83,-35
7630,18,-264,-67,136,87,-37
7635,23,-268,-64,152,91,-36
7640,21,-265,-68,163,94,-37
7645,16,-267,-70,169,97,-34
7650,20,-267,-71,169,97,-35
7655,18,-269,-72,164,98,-32
7660,15,-270,-79,153,98,-33
7665,14,-265,-75,137,102,-32
7670,18,-267,-77,117,102,-34
7675,16,-264,-77,96,103,-33
7680,17,-262,-75,71,104,-37
7685,19,-264,-74,47,109,-39
7690,22,-265,-73,25,111,-46
7695,19,-261,-73,3,116,-50
7700,20,-260,-73,-23,119,-57
7705,22,-257,-75,-47,121,-61
7710,24,-256,-71,-70,124,-70
7715,22,-254,-74,-94,129,-74
7720,24,-255,-74,-119,134,-79
7725,24,-252,-66,-145,138,-81
7730,25,-249,-71,-169,141,-90
7735,29,-247,-76,-196,144,-93
7740,26,-247,-76,-223,142,-101
7745,27,-247,-75,-253,141,-106
7750,29,-240,-77,-289,139,-114
7755,32,-244,-78,-323,137,-119
7760,33,-244,-80,-356,132,-132
7765,35,-242,-71,-393,131,-137
7770,38,-241,-77,-424,130,-150
7775,41,-239,-74,-454,130,-161
7780,44,-242,-76,-481,131,-178
7785,45,-235,-68,-501,134,-189
7790,43,-234,-71,-513,137,-207
7795,42,-236,-64,-511,139,-219
7800,45,-237,-62,-493,142,-240
7805,52,-239,-58,-450,145,-250
7810,49,-236,-57,-400,146,-265
7815,49,-239,-60,-342,145,-274
7820,49,-241,-60,-272,144,-283
7825,47,-243,-62,-201,141,-290
7830,47,-245,-61,-129,141,-302
7835,44,-245,-60,-61,137,-307
7840,44,-242,-61,5,134,-312
7845,31,-236,-56,72,126,-307
7850,32,-247,-65,137,115,-304
7855,27,-248,-71,209,97,-292
7860,23,-250,-71,266,79,-279
7865,17,-253,-82,312,58,-258
7870,13,-254,-80,350,37,-235
7875,11,-256,-83,378,14,-205
7880,9,-255,-92,394,-9,-176
7885,7,-257,-98,397,-25,-139
7890,5,-257,-100,387,-40,-102
7895,7,-258,-101,363,-49,-60
7900,9,-260,-101,329,-55,-19
7905,9,-258,-98,291,-54,30
7910,9,-261,-96,247,-47,67
7915,13,-261,-92,219,-36,103
7920,13,-262,-83,201,-24,132
7925,18,-262,-78,196,-7,155
7930,22,-261,-74,202,17,169
7935,25,-261,-66,212,45,179
7940,30,-261,-63,231,77,174
7945,31,-260,-64,253,108,167
7950,25,-261,-64,280,137,153
7955,34,-261,-57,311,162,137
7960,32,-263,-56,349,185,115
7965,39,-263,-55,382,197,92
7970,38,-265,-55,408,205,66
7975,38,-264,-55,429,206,46
7980,40,-263,-57,445,201,25
7985,37,-265,-51,462,189,3
7990,37,-261,-58,474,173,-15
7995,39,-268,-59,488,155,-23
8000,36,-264,-56,494,135,-36
8005,35,-266,-53,498,114,-47
8010,36,-266,-57,502,94,-57
8015,35,-269,-51,509,73,-63
8020,41,-273,-50,511,56,-62
8025,39,-272,-52,514,39,-61
8030,39,-270,-51,515,25,-59
8035,37,-270,-53,515,14,-55
8040,36,-270,-50,513,7,-50
8045,34,-266,-49,516,-2,-39
8050,31,-266,-48,523,-4,-28
8055,32,-266,-45,532,-4,-14
8060,35,-260,-37,542,-2,0
8065,33,-263,-41,553,5,14
8070,37,-262,-43,565,17,23
8075,35,-261,-41,574,30,24
8080,32,-258,-42,584,45,26
8085,34,-260,-36,590,60,24
8090,34,-258,-36,596,74,24
8095,34,-260,-34,603,88,21
8100,34,-259,-29,609,101,19
8105,33,-262,-28,621,115,17
8110,33,-261,-23,635,132,11
8115,34,-262,-22,651,147,1
8120,34,-267,-18,673,166,-7
8125,36,-266,-20,691,177,-15
8130,37,-267,-16,712,191,-19
8135,36,-268,-14,735,203,-23
8140,35,-271,-13,763,212,-22
8145,36,-273,-9,789,217,-21
8150,34,-271,-8,812,218,-16
8155,32,-272,-9,836,214,-8
8160,33,-273,-6,861,209,3
8165,27,-268,-3,884,200,16
8170,31,-273,-2,906,190,35
8175,30,-272,-1,930,180,47
8180,28,-270,-1,948,173,58
8185,26,-270,-3,969,165,64
8190,25,-269,-1,986,159,73
8195,25,-270,-3,1002,153,75
8200,27,-267,-3,1012,151,81
8205,23,-266,-7,1023,148,83
8210,25,-263,-10,1022,144,92
8215,24,-258,-13,1019,140,93
8220,26,-257,-7,1008,136,98
8225,22,-253,-9,1004,133,93
8230,22,-252,-8,1004,131,94
8235,24,-248,-10,1010,131,96
8240,23,-248,-11,1011,130,103
8245,24,-243,-15,1003,129,105
8250,23,-241,-17,985,127,108
8255,22,-236,-13,961,121,116
8260,24,-233,-16,934,114,119
8265,26,-229,-12,902,110,118
8270,33,-236,-16,870,105,114
8275,28,-232,-12,823,109,103
8280,26,-231,-14,759,115,96
8285,24,-230,-6,703,122,86
8290,28,-232,-6,651,129,86
8295,25,-237,-3,608,134,90
8300,32,-234,1,575,136,100
8305,34,-237,4,551,138,79
8310,33,-237,8,534,141,59
8315,32,-240,12,523,147,40
8320,29,-237,14,517,149,29
8325,29,-240,20,518,149,19
8330,28,-239,18,522,147,18
8335,29,-243,18,538,145,21
8340,34,-240,19,552,143,28
8345,32,-234,24,562,141,26
8350,37,-238,21,568,135,30
8355,40,-236,21,577,130,8
8360,35,-230,20,576,134,-4
8365,34,-233,22,570,140,-9
8370,36,-229,19,555,144,-7
8375,35,-230,20,528,146,-11
8380,32,-229,16,493,149,-8
8385,40,-230,20,437,151,1
8390,34,-231,18,391,155,-2
8395,41,-234,16,329,163,10
8400,45,-227,19,270,172,-7
8405,37,-227,24,221,180,-30
8410,37,-230,21,182,192,-30
8415,37,-232,22,145,200,-29
8420,32,-235,24,111,206,-21
8425,35,-235,25,76,212,-3
8430,34,-238,26,51,214,-4
8435,28,-236,19,24,218,6
8440,36,-242,24,-11,223,17
8445,39,-241,24,-29,229,-3
8450,32,-242,26,-47,241,-10
8455,29,-241,25,-61,257,-12
8460,30,-242,24,-62,272,9
8465,28,-243,26,-58,280,23
8470,18,-249,17,-55,281,44
8475,34,-242,32,-55,280,75
8480,33,-240,24,-42,273,55
8485,29,-238,25,-23,269,30
8490,31,-243,15,-7,271,22
8495,25,-236,26,-3,272,8
8500,18,-235,20,6,277,27
8505,17,-242,8,14,282,51
8510,35,-239,20,14,283,76
8515,36,-238,13,30,280,49
8520,30,-235,15,46,273,18
8525,26,-235,14,64,272,-7
8530,26,-239,11,83,273,-10
8535,21,-231,7,96,272,-25
8540,19,-231,9,101,276,-20
8545,27,-231,10,110,279,12
8550,14,-232,1,110,271,23
8555,32,-224,9,93,265,42
8560,32,-221,6,81,255,17
8565,28,-220,6,68,254,0
8570,26,-217,4,55,259,-8
8575,29,-217,3,42,269,-14
8580,25,-212,8,23,274,-16
8585,24,-215,5,7,278,-7
8590,24,-213,7,-12,282,8
8595,28,-218,5,-51,288,31
8600,8,-224,8,-85,289,37
8605,37,-220,10,-123,292,45
8610,34,-219,11,-149,292,2
8615,29,-222,14,-170,299,-26
8620,24,-227,17,-183,306,-25
8625,28,-229,18,-181,312,-7
8630,29,-230,22,-175,311,2
8635,27,-233,22,-166,312,3
8640,25,-234,22,-152,315,1
8645,28,-241,19,-131,323,0
8650,28,-247,23,-103,331,5
8655,28,-247,23,-74,342,13
8660,28,-248,20,-33,343,-1
8665,30,-250,21,0,345,-8
8670,28,-249,18,19,347,-14
8675,30,-250,12,25,346,-20
8680,23,-249,15,22,342,-35
8685,23,-253,10,18,339,-49
8690,24,-256,7,9,335,-69
8695,15,-249,4,-12,332,-79
8700,18,-253,5,-30,329,-58
8705,23,-254,2,-44,320,-45
8710,7,-255,1,-60,304,-37
8715,18,-253,-1,-112,300,34
8720,19,-249,1,-147,284,13
8725,10,-252,-1,-179,267,-21
8730,9,-252,1,-208,261,-33
8735,14,-257,-2,-224,256,-29
8740,9,-254,-1,-229,248,-36
8745,8,-255,-3,-229,244,-39
8750,20,-267,-8,-218,245,-23
8755,8,-251,0,-220,252,-25
8760,0,-252,-4,-210,259,20
8765,27,-256,3,-204,255,69
8770,24,-254,1,-171,236,25
8775,18,-252,2,-132,228,3
8780,20,-254,0,-91,230,1
8785,21,-253,1,-46,234,9
8790,21,-248,0,-8,233,11
8795,20,-245,-3,21,228,15
8800,20,-244,-10,32,221,7
8805,23,-236,-9,22,218,-1
8810,34,-241,-19,10,217,8
8815,21,-227,-13,-11,212,-4
8820,27,-226,-11,-24,209,13
8825,25,-223,-19,-42,203,29
8830,11,-225,-19,-85,196,60
8835,36,-224,-16,-145,186,107
8840,28,-219,-18,-188,167,60
8845,25,-219,-18,-233,158,38
8850,25,-221,-20,-276,158,31
8855,25,-227,-16,-324,157,32
8860,22,-225,-16,-361,153,28
8865,22,-225,-13,-392,148,31
8870,27,-234,-19,-424,144,27
8875,18,-232,-12,-459,140,20
8880,16,-232,-14,-483,139,22
8885,6,-236,-18,-493,139,34
8890,14,-237,-12,-507,144,46
8895,17,-237,-3,-539,146,89
8900,20,-236,-6,-547,135,84
8905,12,-235,-7,-534,121,28
8910,8,-239,-5,-499,118,39
8915,12,-245,-4,-479,115,53
8920,10,-246,-6,-462,107,57
8925,8,-251,1,-442,99,65
8930,7,-254,-4,-421,90,67
8935,6,-255,-5,-398,79,71
8940,4,-258,-1,-375,67,70
8945,5,-257,-3,-355,54,82
8950,8,-259,-5,-334,42,86
8955,6,-262,-2,-309,30,80
8960,6,-264,0,-273,18,71
8965,8,-267,-4,-239,7,70
8970,5,-268,-5,-205,-3,67
8975,6,-268,-2,-169,-13,66
8980,4,-270,-6,-135,-21,61
8985,9,-271,-10,-105,-31,62
8990,11,-270,-3,-81,-40,60
8995,11,-267,-10,-56,-47,59
9000,14,-267,-11,-36,-56,55
9005,10,-262,-16,-29,-61,52
9010,16,-263,-12,-23,-67,53
9015,14,-260,-10,-25,-72,58
9020,17,-257,-12,-30,-79,61
9025,9,-256,-7,-37,-84,70
9030,18,-258,-17,-51,-89,82
9035,8,-259,-9,-80,-92,119
9040,26,-254,-3,-96,-104,141
9045,25,-256,-4,-90,-110,92
9050,21,-256,0,-84,-107,74
9055,25,-257,-2,-81,-104,56
9060,25,-259,-3,-80,-101,15
9065,16,-248,7,-56,-91,25
9070,21,-251,5,-8,-92,54
9075,22,-251,2,33,-95,67
9080,25,-253,3,62,-99,68
9085,24,-250,1,82,-97,67
9090,25,-251,-1,99,-93,64
9095,25,-252,-2,108,-89,63
9100,24,-250,-6,111,-86,59
9105,22,-251,-4,111,-82,55
9110,22,-249,-5,104,-80,51
9115,23,-248,-2,93,-75,46
9120,22,-247,-6,79,-72,43
9125,19,-248,-10,65,-68,41
9130,21,-249,-9,48,-64,41
9135,20,-247,-6,31,-59,39
9140,26,-250,5,18,-51,35
9145,19,-250,-5,5,-45,34
9150,21,-250,-3,-1,-40,33
9155,20,-252,-6,-6,-34,32
9160,21,-252,-4,-7,-26,30
9165,21,-253,-6,-6,-20,29
9170,24,-251,0,1,-12,42
9175,24,-249,-2,15,-8,36
9180,19,-248,-1,34,-4,31
9185,22,-252,-4,51,1,27
9190,21,-251,-3,70,6,27
9195,23,-251,-2,89,9,24
9200,23,-250,-5,110,10,23
9205,25,-253,-6,131,11,18
9210,22,-248,-5,150,11,14
9215,24,-242,-7,165,7,8
9220,23,-242,-3,180,5,1
9225,21,-238,-8,192,2,-3
9230,20,-239,-8,194,-3,-6
9235,22,-236,-8,188,-7,-9
9240,16,-236,-11,177,-10,-11
9245,20,-238,-10,161,-13,-15
9250,22,-240,-12,142,-15,-13
9255,20,-239,-4,123,-14,-16
9260,18,-237,-9,106,-15,-17
9265,20,-238,-6,88,-16,-18
9270,18,-237,-3,69,-15,-16
9275,19,-237,1,51,-13,-19
9280,18,-240,2,38,-9,-17
9285,15,-241,4,26,-7,-20
9290,15,-241,2,13,-5,-18
9295,17,-240,7,-2,-4,-20
9300,16,-246,8,-18,-2,-20
9305,15,-245,12,-37,0,-22
9310,12,-245,9,-56,0,-22
9315,15,-249,12,-73,3,-23
9320,13,-253,13,-90,7,-19
9325,11,-255,15,-101,12,-20
9330,11,-256,17,-107,15,-17
9335,15,-260,15,-103,16,-18
9340,14,-259,21,-94,16,-13
9345,13,-258,21,-78,17,-16
9350,14,-257,19,-54,17,-12
9355,14,-262,13,-31,18,-13
9360,13,-256,22,-8,19,-12
9365,13,-256,20,10,22,-12
9370,18,-256,17,25,20,-12
9375,15,-256,16,34,20,-14
9380,16,-254,17,42,17,-12
9385,19,-253,15,43,14,-15
9390,18,-251,18,45,11,-13
9395,20,-251,20,46,7,-16
9400,20,-251,19,48,6,-13
9405,21,-248,24,53,5,-14
9410,17,-246,19,57,5,-11
9415,17,-246,19,62,5,-12
9420,20,-247,22,64,6,-8
9425,16,-242,25,66,5,-7
9430,16,-246,26,68,2,-6
9435,16,-246,28,74,-3,-7
9440,13,-247,28,79,-8,-3
9445,15,-245,22,86,-13,-5
9450,12,-245,25,92,-20,0
9455,12,-246,25,92,-26,-2
9460,10,-243,19,87,-32,3
9465,7,-243,14,79,-33,2
9470,10,-242,20,66,-34,8
9475,12,-242,19,50,-32,6
9480,10,-244,18,29,-30,11
9485,9,-243,14,6,-25,9
9490,11,-246,19,-24,-23,4
9495,12,-245,11,-46,-16,4
9500,12,-244,14,-60,-11,14
9505,16,-247,14,-73,-9,11
9510,21,-256,9,-92,-7,-3
9515,20,-264,9,-106,-4,-14
9520,8,-243,16,-119,2,-23
9525,11,-247,15,-108,2,0
9530,15,-252,15,-92,-3,17
9535,15,-252,17,-82,-8,20
9540,15,-250,21,-68,-10,24
9545,14,-250,16,-54,-9,25
9550,13,-250,16,-36,-8,24
9555,14,-250,17,-20,-4,23
9560,17,-251,14,-6,-2,24
9565,12,-250,13,7,0,23
9570,13,-252,17,15,1,24
9575,21,-251,18,19,1,23
9580,14,-249,14,24,1,23
9585,10,-249,14,28,1,19
9590,13,-250,15,32,-3,19
9595,9,-250,16,39,-7,16
9600,5,-244,11,40,-14,15
9605,5,-246,16,44,-19,13
9610,3,-244,16,45,-27,11
9615,1,-245,18,45,-34,8
9620,1,-242,18,45,-42,6
9625,1,-238,15,43,-51,5
9630,0,-241,13,40,-61,4
9635,0,-240,13,34,-69,3
9640,1,-237,14,22,-77,2
9645,0,-239,13,6,-84,3
9650,0,-237,8,-8,-91,2
9655,1,-239,8,-27,-96,2
9660,0,-238,9,-51,-103,4
9665,2,-240,6,-73,-109,6
9670,3,-245,5,-91,-118,9
9675,3,-242,6,-108,-127,12
9680,6,-247,3,-126,-135,21
9685,4,-246,6,-134,-141,32
9690,9,-249,5,-138,-148,44
9695,13,-252,3,-141,-155,56
9700,11,-251,2,-139,-158,63
9705,14,-254,1,-138,-161,70
9710,17,-256,1,-134,-164,76
9715,16,-256,0,-134,-163,82
9720,21,-255,0,-135,-164,85
9725,20,-256,0,-134,-164,88
9730,19,-253,0,-130,-167,92
9735,20,-257,-1,-130,-168,97
9740,22,-257,-3,-131,-169,99
9745,25,-257,-3,-136,-169,104
9750,22,-253,-7,-128,-165,99
9755,25,-257,-8,-110,-162,102
9760,21,-256,-10,-95,-157,105
9765,26,-256,-3,-90,-151,112
9770,21,-255,-17,-87,-147,108
9775,2,-264,-25,-94,-137,132
9780,37,-253,-8,-119,-125,171
9785,29,-253,-7,-110,-125,117
9790,16,-256,-3,-96,-111,94
9795,24,-256,0,-78,-97,86
9800,23,-255,-1,-52,-88,75
9805,21,-252,1,-13,-84,72
9810,24,-253,0,21,-81,64
9815,23,-250,1,49,-74,58
9820,26,-247,-1,69,-68,47
9825,24,-244,0,81,-59,41
9830,26,-244,0,83,-49,31
9835,28,-243,-5,79,-42,27
9840,26,-246,-2,72,-32,18
9845,25,-247,-2,63,-24,14
9850,25,-245,-1,55,-17,6
9855,25,-244,0,49,-9,3
9860,27,-247,-3,45,-2,-3
9865,24,-244,-2,43,3,-2
9870,27,-245,3,42,11,-8
9875,26,-244,2,39,19,-7
9880,25,-245,5,32,26,-10
9885,24,-249,1,23,34,-8
9890,24,-250,6,15,43,-10
9895,24,-251,3,4,50,-8
9900,24,-252,15,-6,58,-8
9905,23,-251,3,-10,68,-7
9910,21,-254,8,-7,74,-11
9915,19,-254,10,-3,81,-7
9920,18,-254,9,4,86,-9
9925,22,-256,8,15,92,-7
9930,18,-256,11,27,94,-12
9935,17,-256,10,39,97,-11
9940,16,-256,6,49,101,-15
9945,12,-253,6,54,103,-14
9950,12,-253,8,59,106,-18
9955,10,-251,8,59,108,-16
9960,11,-251,3,53,111,-19
9965,8,-250,5,46,113,-19
9970,9,-246,6,38,114,-24
9975,8,-247,8,33,114,-24
9980,5,-244,10,30,113,-26
9985,4,-245,9,26,112,-25
9990,2,-244,10,25,107,-30
9995,3,-243,6,23,100,-28
10000,6,-240,9,19,90,-29
10005,2,-239,5,11,78,-28
10010,5,-241,11,2,65,-28
10015,6,-238,11,-16,50,-24
10020,8,-241,10,-32,37,-22
10025,8,-236,11,-48,28,-16
10030,12,-241,5,-64,19,-15
10035,14,-244,12,-79,13,-8
10040,13,-243,9,-87,13,-6
10045,17,-244,8,-96,12,1
10050,16,-244,11,-101,14,1
10055,18,-249,11,-104,19,8
10060,13,-250,13,-105,23,13
10065,17,-253,11,-100,23,26
10070,18,-253,13,-89,19,31
10075,22,-250,11,-78,14,33
10080,21,-254,8,-73,12,41
10085,22,-254,11,-74,6,51
10090,21,-251,15,-65,-1,48
10095,23,-253,7,-52,-7,46
10100,26,-250,10,-44,-7,44
10105,27,-254,2,-46,-4,48
10110,22,-256,3,-55,-1,53
10115,19,-259,3,-66,5,59
10120,17,-256,6,-71,9,56
10125,19,-257,7,-61,9,50
10130,18,-256,7,-45,11,42
10135,17,-253,5,-30,16,35
10140,18,-254,5,-14,24,21
10145,17,-250,2,-1,33,8
10150,23,-253,6,10,41,-3
10155,21,-253,7,10,54,-16
10160,17,-254,7,8,63,-26
10165,15,-252,6,3,70,-34
10170,20,-253,9,-5,78,-42
10175,16,-250,14,-11,87,-46
10180,14,-250,11,-11,95,-42
10185,19,-251,11,-12,96,-41
10190,17,-251,13,-14,99,-43
10195,17,-249,10,-13,103,-50
10200,21,-247,4,-11,105,-57
10205,20,-247,6,-10,107,-61
10210,23,-248,5,-16,107,-61
10215,18,-247,5,-27,105,-58
10220,18,-246,6,-40,103,-54
10225,17,-246,10,-52,105,-45
10230,17,-246,10,-62,107,-37
10235,16,-246,8,-70,112,-33
10240,18,-248,9,-78,116,-27
10245,15,-248,13,-84,118,-23
10250,14,-246,12,-88,120,-20
10255,13,-250,15,-85,120,-20
10260,14,-250,14,-74,120,-20
10265,12,-250,14,-56,119,-20
10270,10,-251,15,-38,118,-22
10275,7,-254,17,-22,117,-25
10280,6,-252,14,-4,114,-24
10285,6,-251,8,9,111,-25
10290,7,-252,7,21,107,-23
10295,4,-252,12,30,104,-24
10300,5,-253,12,37,104,-23
10305,6,-250,6,41,105,-24
10310,5,-251,10,43,108,-25
10315,6,-248,6,42,112,-26
10320,5,-247,5,41,114,-25
10325,2,-250,12,36,116,-26
10330,3,-250,-7,29,118,-24
10335,7,-250,5,18,115,-26
10340,6,-247,9,7,111,-21
10345,3,-247,8,-2,104,-21
10350,1,-248,11,-6,98,-16
10355,3,-249,9,-9,89,-15
10360,3,-251,6,-7,80,-9
10365,2,-248,13,0,70,-5
10370,4,-249,12,7,61,0
10375,5,-249,11,18,54,2
10380,5,-246,13,27,45,6
10385,2,-250,11,30,34,7
10390,5,-249,10,29,25,13
10395,2,-245,10,25,17,13
10400,5,-248,9,18,7,17
10405,3,-245,10,8,1,16
10410,2,-245,10,-2,-5,17
10415,5,-248,9,-13,-11,16
10420,2,-247,9,-22,-16,19
10425,3,-246,10,-31,-22,16
10430,5,-250,4,-38,-28,18
10435,8,-251,5,-44,-36,18
10440,5,-248,9,-45,-45,24
10445,8,-249,8,-42,-52,21
10450,8,-250,6,-40,-55,25
10455,7,-250,8,-35,-59,24
10460,7,-250,9,-30,-62,26
10465,8,-250,6,-24,-65,25
10470,7,-250,6,-20,-65,27
10475,11,-253,4,-17,-67,24
10480,8,-247,3,-18,-67,26
10485,6,-248,3,-18,-66,23
10490,9,-249,1,-23,-65,27
10495,8,-249,3,-30,-67,24
10500,9,-250,5,-36,-67,26
10505,8,-253,1,-39,-67,26
10510,10,-251,3,-42,-68,27
10515,7,-250,6,-41,-69,25
10520,10,-248,4,-40,-71,28
10525,11,-248,7,-35,-74,27
10530,10,-252,9,-28,-75,28
10535,12,-249,11,-22,-78,25
10540,10,-247,5,-18,-80,28
10545,12,-250,5,-14,-84,27
10550,12,-248,7,-12,-87,29
10555,13,-248,7,-16,-93,28
10560,10,-247,4,-19,-96,30
10565,10,-247,2,-23,-98,29
10570,11,-250,6,-28,-103,31
10575,14,-248,4,-31,-105,29
10580,9,-248,5,-30,-105,32
10585,11,-250,4,-30,-105,34
10590,10,-250,5,-26,-106,37
10595,11,-250,2,-23,-108,34
10600,11,-249,2,-20,-108,36
10605,11,-251,8,-15,-109,35
10610,11,-249,6,-13,-112,37
10615,11,-251,8,-11,-113,36
10620,9,-246,5,-11,-113,39
10625,9,-249,7,-12,-112,37
10630,11,-249,5,-16,-112,39
10635,13,-253,7,-19,-112,38
10640,11,-249,9,-23,-108,39
10645,11,-251,6,-27,-106,37
10650,12,-250,4,-30,-105,38
10655,13,-251,6,-33,-106,37
10660,13,-250,3,-35,-106,38
10665,14,-252,4,-36,-108,37
10670,14,-251,1,-33,-111,37
10675,10,-253,5,-29,-114,36
10680,15,-250,6,-26,-112,38
10685,12,-250,3,-22,-112,35
10690,12,-251,5,-18,-111,37
10695,13,-252,2,-14,-110,38
10700,14,-251,6,-11,-109,38
10705,13,-251,2,-8,-107,39
10710,12,-251,2,-5,-107,39
10715,11,-249,0,-3,-107,40
10720,9,-250,1,-3,-106,42
10725,14,-253,0,-1,-106,43
10730,15,-252,0,0,-106,46
10735,15,-251,0,0,-107,46
10740,16,-251,0,-2,-107,48
10745,17,-250,1,-6,-105,49
10750,17,-250,0,-8,-103,51
10755,16,-250,1,-12,-100,51
10760,20,-251,-2,-19,-100,51
10765,20,-254,-1,-25,-96,53
10770,17,-251,1,-29,-93,50
10775,16,-251,-2,-31,-89,49
10780,16,-249,1,-32,-87,46
10785,19,-252,4,-32,-81,46
10790,21,-252,0,-31,-77,43
10795,22,-251,-2,-32,-71,41
10800,20,-252,0,-31,-66,37
10805,19,-254,2,-29,-61,36
10810,20,-251,1,-30,-55,30
10815,17,-253,2,-30,-52,29
10820,17,-253,0,-32,-47,25
10825,17,-252,3,-33,-41,24
10830,19,-251,-1,-34,-39,20
10835,20,-252,2,-34,-35,18
10840,17,-252,4,-34,-32,16
10845,20,-253,1,-33,-30,16
10850,18,-252,3,-30,-31,14
10855,17,-252,5,-25,-31,12
10860,15,-256,4,-20,-32,10
10865,14,-252,7,-11,-33,11
10870,13,-256,3,-4,-36,7
10875,11,-251,10,4,-38,9
10880,12,-252,5,12,-40,7
10885,9,-250,8,17,-42,10
10890,11,-251,5,22,-43,7
10895,11,-249,6,25,-45,8
10900,13,-250,7,25,-47,8
10905,10,-248,8,23,-47,8
10910,10,-247,4,18,-48,8
10915,12,-248,6,9,-47,11
10920,11,-250,4,-3,-46,10
10925,12,-247,6,-12,-46,12
10930,15,-245,3,-20,-40,10
10935,12,-249,6,-30,-39,12
10940,11,-249,6,-34,-36,10
10945,13,-252,6,-37,-34,12
10950,14,-249,4,-38,-29,8
10955,14,-250,5,-39,-26,10
10960,13,-250,7,-37,-20,7
10965,15,-250,4,-37,-17,7
10970,14,-248,3,-37,-11,2
10975,15,-247,5,-36,-6,3
10980,21,-250,5,-37,-2,0
10985,18,-250,5,-37,2,2
10990,18,-249,5,-38,6,-2
10995,18,-251,4,-38,10,-1
11000,17,-248,4,-41,13,-4
11005,18,-250,7,-41,17,-3
11010,21,-250,5,-42,20,-5
11015,19,-251,7,-40,22,-3
11020,18,-250,6,-38,24,-6
11025,19,-252,4,-37,26,-4
11030,20,-250,1,-36,28,-6
11035,23,-253,11,-34,30,-3
11040,18,-250,5,-32,32,-6
11045,17,-250,5,-31,35,-2
11050,16,-250,4,-30,37,-4
11055,15,-249,7,-30,41,-2
11060,17,-253,4,-31,46,-5
11065,15,-248,4,-30,49,-2
11070,13,-250,8,-29,51,-5
11075,14,-251,10,-28,56,-4
11080,13,-251,2,-27,60,-5
11085,12,-253,6,-24,65,-4
11090,16,-252,5,-21,68,-7
11095,16,-250,16,-20,71,-5
11100,12,-250,6,-17,75,-8
11105,14,-251,4,-15,79,-7
11110,15,-254,5,-15,82,-12
11115,11,-248,0,-14,86,-12
11120,14,-249,3,-14,89,-16
11125,14,-250,4,-16,91,-17
11130,14,-248,6,-19,90,-19
11135,13,-251,7,-21,92,-19
11140,12,-249,7,-25,93,-21
11145,10,-249,4,-27,92,-19
11150,10,-245,7,-29,93,-19
11155,13,-251,5,-31,92,-17
11160,12,-250,10,-32,95,-19
11165,10,-249,2,-31,95,-17
11170,11,-249,4,-31,95,-19
11175,9,-249,7,-31,94,-17
11180,13,-251,8,-30,92,-16
11185,12,-250,5,-28,93,-14
11190,9,-249,7,-24,94,-14
11195,9,-252,9,-18,95,-13
11200,13,-249,6,-12,94,-15
11205,9,-249,5,-8,95,-13
11210,9,-251,7,-5,95,-13
11215,9,-250,4,-4,96,-11
11220,10,-250,3,-4,95,-12
11225,11,-247,4,-6,91,-9
11230,9,-249,6,-10,92,-9
11235,9,-249,7,-13,91,-8
11240,7,-247,6,-16,90,-8
11245,12,-249,4,-18,89,-8
11250,9,-249,8,-18,89,-7
11255,11,-252,7,-19,89,-5
11260,11,-248,3,-19,87,-5
11265,13,-250,5,-18,87,-4
11270,12,-248,6,-20,86,-4
11275,9,-248,3,-19,87,-4
11280,10,-250,5,-17,86,-4
11285,8,-247,2,-16,86,-5
11290,9,-249,6,-13,86,-3
11295,11,-250,6,-9,86,-4
11300,8,-249,4,-9,86,-2
11305,11,-249,3,-9,86,-1
11310,10,-247,4,-12,83,0
11315,8,-246,4,-17,82,0
11320,13,-248,6,-23,81,2
11325,8,-247,2,-30,79,1
11330,8,-246,4,-38,77,2
11335,11,-248,7,-44,75,1
11340,10,-247,3,-48,74,3
11345,10,-248,2,-50,75,2
11350,12,-251,2,-49,74,2
11355,8,-250,4,-46,74,1
11360,9,-246,6,-42,75,2
11365,7,-248,6,-37,74,0
11370,9,-250,5,-30,75,1
11375,9,-250,5,-23,74,-1
11380,7,-253,5,-19,73,0
11385,11,-252,3,-16,74,-3
11390,8,-251,7,-15,73,-1
11395,10,-252,2,-13,72,-3
11400,6,-250,3,-12,71,-3
11405,12,-252,4,-13,68,-6
11410,11,-252,0,-14,67,-3
11415,8,-251,2,-16,65,-4
11420,11,-252,6,-18,61,-1
11425,9,-251,1,-19,57,-4
11430,9,-247,5,-22,56,-2
11435,7,-250,2,-25,54,-3
11440,9,-249,1,-24,53,0
11445,11,-253,4,-24,52,-1
11450,7,-250,3,-24,52,2
11455,10,-250,5,-23,52,0
11460,13,-250,5,-23,53,4
11465,9,-250,3,-23,53,2
11470,17,-249,1,-24,51,6
11475,9,-248,2,-25,52,4
11480,12,-249,3,-25,50,8
11485,11,-249,4,-25,47,6
11490,10,-249,4,-27,47,10
11495,10,-248,1,-29,45,10
11500,12,-248,1,-35,42,13
11505,8,-246,1,-41,41,11
11510,12,-249,0,-43,39,15
11515,7,-248,1,-46,39,13
11520,10,-250,0,-49,36,15
11525,14,-252,8,-50,36,13
11530,8,-253,2,-52,36,14
11535,13,-252,3,-53,39,11
11540,13,-248,1,-53,40,13
11545,13,-249,1,-53,42,10
11550,13,-251,0,-52,47,11
11555,14,-249,3,-48,51,9
11560,14,-250,0,-46,55,11
11565,14,-250,0,-44,58,8
11570,12,-248,-1,-43,62,10
11575,14,-249,0,-43,65,6
11580,15,-254,-3,-43,68,10
11585,14,-249,1,-43,71,6
11590,15,-251,2,-42,73,8
11595,14,-251,0,-43,74,6
11600,13,-252,-4,-42,75,7
11605,12,-251,1,-41,76,5
11610,15,-253,0,-37,77,5
11615,15,-252,0,-37,80,4
11620,13,-250,1,-34,79,4
11625,16,-254,2,-31,80,2
11630,13,-251,0,-27,82,1
11635,13,-253,1,-24,85,-2
11640,19,-248,-3,-19,87,-1
11645,15,-254,0,-14,88,-5
11650,13,-254,1,-8,88,-5
11655,10,-250,3,-1,89,-7
11660,13,-250,1,4,88,-6
11665,12,-254,3,9,88,-9
11670,10,-250,2,13,85,-9
11675,10,-251,3,16,83,-11
11680,11,-249,1,17,81,-9
11685,9,-250,2,18,79,-10
11690,10,-251,1,18,74,-11
11695,8,-251,3,18,72,-11
11700,9,-251,4,18,72,-9
11705,8,-252,5,20,69,-10
11710,9,-250,7,18,68,-10
11715,9,-253,3,17,66,-10
11720,10,-249,3,16,65,-10
11725,7,-248,3,14,64,-11
11730,6,-253,5,9,62,-9
11735,7,-250,3,6,63,-11
11740,10,-250,4,3,60,-10
11745,10,-253,8,0,60,-10
11750,6,-249,4,-2,58,-9
11755,6,-254,3,-6,56,-9
11760,7,-254,4,-11,54,-9
11765,9,-253,4,-13,50,-9
11770,8,-252,3,-15,49,-9
11775,7,-249,2,-19,47,-8
11780,12,-252,3,-22,46,-9
11785,11,-251,6,-23,43,-7
11790,9,-249,3,-24,41,-6
11795,11,-251,3,-25,42,-6
11800,9,-252,3,-25,42,-4
11805,11,-250,3,-25,41,-4
11810,10,-252,5,-26,41,-4
11815,12,-250,3,-27,39,-3
11820,10,-252,4,-27,38,-3
11825,9,-251,3,-26,37,-1
11830,9,-251,2,-25,36,-1
11835,10,-251,3,-23,35,0
11840,11,-251,1,-21,33,0
11845,12,-252,3,-18,32,0
11850,12,-252,4,-16,32,0
11855,15,-251,6,-16,31,2
11860,9,-249,6,-15,30,1
11865,8,-251,1,-14,29,2
11870,11,-252,2,-11,29,1
11875,12,-254,0,-9,29,2
11880,10,-252,0,-9,29,2
11885,13,-253,4,-8,29,3
11890,11,-250,2,-5,28,3
11895,10,-252,4,-4,29,4
11900,10,-253,2,-2,30,3
11905,10,-253,3,-1,30,5
11910,10,-240,1,0,30,4
11915,13,-251,1,-1,31,5
11920,10,-250,2,-2,30,5
11925,8,-249,5,-5,32,9
11930,10,-250,4,-6,30,6
11935,9,-251,2,-8,30,8
11940,10,-249,3,-10,30,6
11945,12,-251,6,-10,29,7
11950,11,-254,4,-11,29,5
11955,11,-247,6,-10,31,8
11960,11,-251,4,-8,33,6
11965,18,-248,11,-8,33,7
11970,32,-233,9,-7,31,4
11975,21,-250,-4,-6,31,5
11980,7,-259,3,-4,30,4
11985,11,-253,10,-2,29,7
11990,13,-247,-3,-2,30,2
11995,9,-247,10,-1,28,4
