timestamp,acc_x,acc_y,acc_z,gyro_x,gyro_y,gyro_z
0,0,-262,47,-35,59,5
5,-2,-263,48,-33,60,4
10,-1,-260,46,-32,62,3
15,-2,-263,47,-31,64,2
20,0,-263,44,-29,64,2
25,2,-263,46,-27,64,2
30,-1,-260,48,-26,64,1
35,0,-260,47,-26,66,1
40,0,-265,44,-26,66,1
45,3,-261,45,-27,67,1
50,3,-267,46,-27,67,-1
55,3,-265,50,-28,69,1
60,2,-262,44,-27,69,1
65,2,-264,48,-27,68,1
70,-2,-260,47,-27,69,1
75,-9,-254,40,-30,68,1
80,0,-261,44,-29,70,1
85,-4,-260,47,-30,69,1
90,1,-265,46,-30,69,-1
95,-3,-261,49,-29,69,0
100,-3,-260,45,-28,69,0
105,-2,-259,46,-28,71,-1
110,1,-262,49,-29,72,-1
115,-1,-260,47,-30,71,-2
120,2,-261,45,-30,73,-2
125,3,-261,51,-31,73,-2
130,0,-260,47,-32,73,-2
135,-2,-261,47,-35,73,-2
140,-2,-259,49,-36,74,-2
145,-1,-259,48,-37,73,-4
150,1,-260,48,-40,73,-4
155,-3,-264,47,-39,74,-4
160,-4,-258,43,-40,72,-5
165,-3,-261,47,-39,72,-6
170,-1,-263,45,-37,70,-5
175,3,-263,42,-38,70,-5
180,-3,-261,47,-38,69,-4
185,2,-266,46,-36,68,-5
190,0,-261,46,-36,68,-3
195,-2,-262,44,-37,67,-5
200,-6,-264,49,-36,66,-3
205,0,-261,46,-37,65,-5
210,1,-259,45,-37,64,-4
215,-1,-263,44,-36,65,-5
220,-4,-263,48,-36,64,-5
225,-4,-264,44,-35,64,-5
230,-1,-261,44,-36,63,-6
235,-3,-263,48,-34,64,-7
240,1,-262,45,-33,65,-7
245,1,-263,47,-32,65,-6
250,-1,-265,47,-33,66,-6
255,-1,-259,45,-33,68,-6
260,-1,-263,48,-32,68,-9
265,0,-263,49,-31,67,-8
270,2,-266,48,-32,68,-7
275,1,-263,45,-31,70,-8
280,-2,-260,46,-30,70,-10
285,-3,-258,44,-28,72,-10
290,-2,-262,42,-28,72,-11
295,3,-261,44,-29,72,-10
300,-5,-263,44,-30,73,-10
305,-1,-261,44,-31,73,-10
310,1,-260,45,-32,75,-12
315,0,-260,47,-32,75,-11
320,0,-261,44,-30,75,-12
325,-1,-258,46,-31,76,-13
330,2,-262,48,-33,78,-13
335,0,-259,48,-35,78,-14
340,-5,-260,45,-37,79,-13
345,2,-261,46,-37,79,-12
350,-2,-262,43,-36,83,-14
355,2,-264,46,-34,82,-14
360,3,-264,43,-29,84,-13
365,-4,-263,45,-27,84,-13
370,0,-263,42,-25,85,-12
375,0,-262,44,-24,85,-12
380,-1,-264,42,-23,87,-12
385,0,-263,44,-23,85,-10
390,4,-261,38,-22,86,-13
395,-1,-265,42,-21,85,-13
400,-2,-263,45,-21,85,-13
405,-3,-261,43,-20,85,-12
410,-4,-264,44,-18,83,-11
415,-2,-263,43,-16,82,-11
420,-1,-263,47,-18,83,-10
425,-5,-262,45,-17,81,-10
430,-3,-264,46,-18,79,-11
435,-3,-265,43,-19,80,-11
440,-4,-262,45,-21,79,-10
445,-2,-261,45,-21,80,-10
450,3,-263,42,-22,81,-9
455,-2,-263,45,-21,78,-10
460,-6,-261,45,-20,78,-9
465,-3,-264,43,-18,80,-8
470,-2,-262,45,-17,80,-9
475,-3,-261,45,-15,78,-10
480,-4,-259,43,-14,78,-10
485,-2,-262,42,-13,78,-10
490,-4,-263,49,-14,78,-11
495,2,-264,45,-12,77,-9
500,-2,-259,44,-13,75,-10
505,-2,-262,35,-12,75,-11
510,-3,-265,49,-12,75,-9
515,-5,-259,46,-11,73,-9
520,-5,-262,46,-11,74,-9
525,0,-262,47,-11,74,-7
530,0,-265,41,-12,72,-8
535,-3,-261,43,-10,71,-9
540,-4,-262,42,-9,70,-7
545,-2,-261,46,-10,68,-7
550,0,-261,44,-8,67,-6
555,-4,-263,46,-7,65,-5
560,-2,-262,46,-9,65,-7
565,0,-261,44,-6,64,-5
570,2,-261,43,-5,63,-6
575,-2,-263,43,-6,61,-4
580,-1,-259,44,-6,59,-6
585,-1,-265,46,-5,59,-4
590,-1,-261,42,-5,59,-4
595,-3,-261,46,-3,59,-4
600,-6,-260,45,-2,56,-5
605,-3,-258,46,-1,56,-4
610,-6,-264,44,-1,57,-4
615,-3,-260,43,1,56,-4
620,0,-261,48,2,57,-4
625,0,-261,45,2,58,-3
630,0,-263,46,2,58,-5
635,2,-262,42,2,59,-4
640,-1,-260,43,2,59,-5
645,0,-262,45,2,58,-5
650,-3,-261,44,3,59,-5
655,-1,-263,42,1,58,-5
660,-3,-264,37,0,59,-6
665,2,-261,45,-1,59,-5
670,-3,-262,48,-3,61,-4
675,-2,-261,47,-5,61,-4
680,-1,-260,41,-7,62,-5
685,-1,-264,42,-8,62,-4
690,3,-260,42,-9,61,-4
695,1,-266,44,-10,60,-4
700,3,-261,44,-10,61,-3
705,1,-261,43,-11,63,-4
710,1,-263,46,-11,63,-2
715,-2,-263,48,-11,63,-1
720,2,-264,44,-12,64,-2
725,3,-263,43,-12,65,-2
730,2,-264,43,-11,66,-2
735,-3,-260,44,-12,67,-3
740,3,-263,41,-10,66,-4
745,3,-264,43,-9,69,-4
750,0,-262,45,-8,68,-5
755,0,-262,41,-7,68,-4
760,3,-262,46,-8,68,-5
765,2,-264,42,-7,68,-4
770,-2,-262,43,-7,70,-4
775,0,-261,43,-7,72,-4
780,0,-262,47,-6,70,-3
785,-3,-260,45,-6,71,-4
790,-1,-262,44,-7,71,-5
795,-3,-263,42,-7,70,-4
800,2,-265,44,-7,71,-4
805,-3,-262,45,-8,72,-2
810,-3,-261,51,-9,71,-3
815,-2,-260,44,-9,72,-4
820,2,-262,45,-10,72,-4
825,2,-261,49,-10,73,-3
830,-1,-262,48,-11,73,-5
835,3,-262,45,-12,73,-4
840,4,-260,47,-12,74,-5
845,-1,-264,48,-12,72,-4
850,-1,-262,46,-15,73,-4
855,0,-262,49,-13,72,-4
860,3,-264,43,-14,73,-4
865,-2,-263,45,-13,69,-4
870,-2,-261,44,-14,68,-3
875,-3,-261,47,-15,67,-2
880,0,-259,44,-16,67,-3
885,0,-261,46,-17,65,-3
890,-5,-262,46,-18,65,-4
895,0,-262,48,-17,63,-3
900,1,-259,43,-18,61,-2
905,-2,-263,43,-19,62,-1
910,-3,-263,48,-19,63,-1
915,-3,-262,46,-18,61,-2
920,-2,-262,46,-17,62,-1
925,1,-261,52,-18,62,-1
930,-1,-263,44,-16,64,-2
935,-2,-263,43,-13,63,-3
940,3,-262,47,-13,64,-2
945,-3,-261,45,-12,66,-3
950,0,-261,46,-11,66,-5
955,2,-260,45,-11,67,-5
960,1,-263,48,-10,67,-7
965,-2,-263,48,-9,69,-8
970,3,-265,46,-9,71,-9
975,0,-262,45,-8,73,-9
980,2,-261,47,-7,75,-8
985,-2,-261,48,-7,74,-9
990,0,-261,48,-6,76,-9
995,1,-262,45,-6,76,-10
1000,3,-266,42,-8,77,-11
1005,2,-265,47,-8,76,-10
1010,-1,-263,43,-7,76,-8
1015,-3,-263,44,-7,76,-8
1020,-1,-261,45,-6,76,-7
1025,1,-261,42,-4,76,-8
1030,-1,-266,43,-2,76,-6
1035,1,-260,45,-1,75,-6
1040,2,-261,45,0,77,-6
1045,0,-264,47,-1,77,-5
1050,0,-262,45,-1,77,-3
1055,-1,-263,45,-2,77,-4
1060,1,-262,47,-3,78,-1
1065,1,-263,45,-4,78,-2
1070,2,-262,45,-3,77,-2
1075,-1,-263,42,-3,77,0
1080,3,-264,46,-2,76,0
1085,2,-263,42,-1,74,0
1090,3,-256,47,-2,73,0
1095,-3,-262,49,-3,73,1
1100,0,-263,44,-4,71,2
1105,2,-260,41,-5,71,3
1110,3,-261,44,-8,69,2
1115,4,-265,45,-8,67,4
1120,3,-262,45,-9,66,3
1125,-2,-261,43,-8,65,3
1130,2,-262,42,-8,66,2
1135,0,-262,45,-6,66,2
1140,0,-261,42,-6,67,1
1145,2,-256,31,-6,66,-1
1150,-2,-260,44,-4,69,0
1155,2,-262,40,-5,71,-1
1160,2,-262,40,-5,70,-3
1165,3,-261,43,-5,71,-3
1170,-2,-260,43,-5,69,-3
1175,1,-260,44,-4,69,-4
1180,1,-261,43,-5,69,-5
1185,-1,-262,46,-5,71,-6
1190,-3,-263,38,-5,70,-6
1195,-1,-263,45,-4,70,-5
1200,1,-260,42,-7,68,-6
1205,0,-262,45,-7,66,-5
1210,2,-261,45,-8,64,-5
1215,-3,-262,42,-9,63,-6
1220,-3,-261,44,-10,61,-6
1225,1,-265,42,-12,61,-6
1230,0,-260,43,-12,60,-6
1235,-2,-260,45,-12,61,-4
1240,-2,-263,43,-13,61,-4
1245,4,-261,44,-12,61,-6
1250,0,-262,47,-13,60,-6
1255,-4,-261,46,-12,60,-6
1260,-1,-261,42,-11,60,-4
1265,2,-264,46,-9,61,-5
1270,-1,-260,45,-6,60,-5
1275,1,-262,42,-5,61,-5
1280,-1,-262,44,-3,61,-5
1285,-2,-263,47,-1,60,-6
1290,2,-265,44,1,61,-6
1295,1,-262,46,4,60,-5
1300,0,-263,46,5,58,-6
1305,-1,-264,46,6,57,-5
1310,-1,-262,43,6,59,-6
1315,-5,-257,42,6,57,-4
1320,2,-262,48,5,57,-4
1325,-3,-262,44,5,56,-6
1330,-2,-262,46,6,56,-5
1335,0,-261,43,7,56,-6
1340,0,-261,47,9,55,-4
1345,-2,-263,48,11,53,-3
1350,-4,-265,47,11,53,-2
1355,-6,-263,38,11,52,-2
1360,-3,-264,47,11,52,-1
1365,0,-262,44,11,50,-1
1370,-2,-262,48,10,49,0
1375,-2,-264,47,10,48,-1
1380,-1,-264,43,12,46,1
1385,-1,-261,46,11,47,2
1390,-1,-261,42,12,47,4
1395,-3,-260,46,13,45,3
1400,-2,-261,43,13,46,2
1405,-2,-258,46,12,45,2
1410,-2,-260,43,13,44,4
1415,1,-261,45,11,44,1
1420,-1,-259,47,12,44,2
1425,-3,-260,48,10,43,2
1430,0,-261,45,8,42,2
1435,-3,-262,46,5,42,4
1440,-1,-261,43,4,43,4
1445,1,-261,43,3,41,3
1450,-2,-262,47,2,40,2
1455,-6,-261,46,1,41,4
1460,3,-261,44,-1,40,4
1465,0,-259,48,-3,41,3
1470,-1,-263,41,-4,41,3
1475,-1,-260,48,-7,42,4
1480,-1,-260,45,-8,43,1
1485,-3,-262,47,-9,44,2
1490,2,-262,50,-10,45,1
1495,3,-263,48,-12,46,3
1500,-1,-261,45,-11,47,2
1505,3,-263,47,-12,48,2
1510,1,-263,45,-11,49,3
1515,-1,-263,47,-10,51,3
1520,4,-264,48,-7,51,3
1525,1,-260,44,-8,53,3
1530,-2,-261,47,-7,53,4
1535,0,-261,45,-5,55,4
1540,3,-262,47,-4,54,3
1545,1,-262,49,-4,56,4
1550,0,-260,50,-5,56,6
1555,-1,-259,48,-5,57,4
1560,0,-261,46,-6,59,5
1565,1,-263,44,-5,60,4
1570,1,-255,38,-7,63,4
1575,-1,-258,45,-7,63,5
1580,1,-258,49,-7,63,4
1585,6,-266,41,-8,65,4
1590,-6,-260,50,-8,67,3
1595,-4,-268,53,-7,67,3
1600,-1,-261,59,-6,67,2
1605,0,-262,53,-7,68,4
1610,-1,-261,38,-8,69,3
1615,1,-254,50,-8,71,3
1620,-7,-260,54,-8,71,2
1625,0,-262,47,-7,73,4
1630,2,-263,49,-8,72,4
1635,-1,-258,47,-8,72,3
1640,-2,-261,45,-10,70,3
1645,-2,-262,48,-10,71,4
1650,-3,-266,50,-10,70,3
1655,2,-264,57,-9,69,4
1660,-3,-260,53,-8,68,3
1665,-8,-267,43,-10,69,3
1670,-6,-263,50,-10,69,5
1675,1,-264,43,-10,68,5
1680,-3,-263,50,-11,67,3
1685,-1,-262,38,-12,64,3
1690,-7,-266,52,-10,63,3
1695,2,-258,51,-10,62,3
1700,-5,-260,48,-11,62,4
1705,-1,-262,46,-12,60,4
1710,-3,-262,46,-13,61,3
1715,-1,-261,46,-14,62,4
1720,-6,-258,75,-15,59,4
1725,-10,-260,53,-16,58,5
1730,0,-265,44,-16,57,3
1735,3,-261,53,-17,55,2
1740,-3,-262,52,-16,55,2
1745,-3,-259,55,-17,52,2
1750,-6,-268,48,-16,51,3
1755,-4,-263,47,-16,50,3
1760,-4,-268,45,-17,51,6
1765,-4,-260,54,-18,48,4
1770,0,-255,55,-19,47,3
1775,-1,-263,45,-19,45,5
1780,-1,-266,46,-19,46,3
1785,2,-263,45,-17,45,4
1790,-3,-260,47,-15,44,3
1795,0,-261,46,-13,45,2
1800,0,-261,49,-11,44,2
1805,1,-259,50,-9,45,1
1810,-7,-266,43,-7,47,2
1815,2,-254,44,-5,47,1
1820,8,-260,56,-3,48,-1
1825,-11,-266,44,-4,50,-1
1830,-9,-259,45,-4,50,-1
1835,0,-264,81,-3,52,-2
1840,-3,-262,40,-2,52,-2
1845,-7,-260,44,-1,53,-3
1850,-1,-263,47,0,55,0
1855,2,-264,51,1,56,-3
1860,3,-263,49,2,57,-3
1865,-4,-263,51,3,57,-2
1870,3,-259,46,2,57,-2
1875,2,-258,51,3,58,-1
1880,-1,-260,43,2,62,-2
1885,0,-258,43,1,61,0
1890,4,-258,46,-1,62,1
1895,4,-260,54,-4,62,0
1900,4,-260,52,-4,63,0
1905,2,-258,42,-6,64,1
1910,0,-263,47,-8,65,1
1915,-1,-260,52,-10,65,0
1920,7,-261,45,-11,66,0
1925,0,-261,45,-10,66,-1
1930,-1,-262,50,-10,67,-1
1935,-3,-259,47,-10,69,-2
1940,-2,-259,45,-12,68,-2
1945,-4,-248,46,-12,68,-3
1950,1,-263,40,-12,70,-3
1955,-1,-253,48,-11,70,-3
1960,-5,-277,52,-11,71,-3
1965,8,-253,48,-12,71,-3
1970,-4,-268,43,-11,72,-3
1975,1,-274,44,-11,72,-3
1980,1,-262,40,-11,72,-4
1985,-6,-267,51,-12,72,-5
1990,-3,-260,50,-13,73,-4
1995,-3,-253,48,-14,72,-4
2000,-3,-263,46,-14,73,-5
2005,-3,-260,47,-13,73,-6
2010,-1,-259,44,-13,73,-5
2015,1,-265,50,-13,74,-7
2020,-8,-259,50,-12,75,-7
2025,0,-264,49,-12,75,-7
2030,0,-264,46,-12,75,-7
2035,2,-267,38,-11,77,-8
2040,3,-263,53,-11,77,-8
2045,-2,-261,46,-11,77,-9
2050,0,-263,44,-11,77,-9
2055,-1,-260,47,-8,77,-10
2060,-1,-265,42,-8,77,-10
2065,-2,-263,50,-7,78,-11
2070,2,-264,46,-7,77,-10
2075,-2,-259,42,-7,78,-11
2080,2,-262,45,-5,77,-11
2085,-2,-264,51,-6,78,-12
2090,0,-262,41,-8,77,-12
2095,1,-264,47,-8,77,-13
2100,1,-261,47,-9,78,-14
2105,-1,-263,42,-7,78,-13
2110,0,-264,42,-8,79,-13
2115,1,-261,45,-9,80,-14
2120,-2,-260,48,-10,81,-13
2125,-3,-259,48,-12,83,-14
2130,2,-260,47,-13,84,-13
2135,-2,-261,36,-14,84,-14
2140,0,-259,46,-15,86,-14
2145,-1,-262,45,-18,88,-15
2150,0,-262,48,-19,88,-16
2155,-3,-257,32,-20,90,-16
2160,-1,-260,43,-21,90,-16
2165,2,-260,43,-23,90,-17
2170,2,-262,43,-22,91,-16
2175,-1,-263,48,-24,90,-15
2180,0,-262,45,-23,89,-15
2185,2,-261,43,-23,89,-14
2190,2,-262,48,-22,90,-14
2195,0,-265,46,-22,89,-15
2200,-1,-260,46,-24,88,-14
2205,4,-265,46,-25,88,-15
2210,3,-259,44,-25,86,-14
2215,-1,-260,42,-27,87,-13
2220,1,-260,42,-28,87,-15
2225,1,-260,45,-29,87,-13
2230,2,-260,45,-29,87,-14
2235,-4,-259,42,-33,87,-13
2240,2,-262,47,-33,89,-13
2245,-4,-261,44,-35,89,-14
2250,2,-260,45,-36,91,-13
2255,-1,-261,43,-35,90,-14
2260,-3,-261,44,-37,91,-12
2265,-2,-262,44,-36,93,-12
2270,1,-264,44,-35,93,-12
2275,1,-261,45,-35,92,-11
2280,1,-260,44,-36,93,-12
2285,2,-264,45,-36,93,-12
2290,1,-261,43,-35,92,-11
2295,0,-258,45,-36,92,-13
2300,3,-261,45,-36,95,-14
2305,-2,-260,45,-38,95,-15
2310,0,-264,46,-40,96,-14
2315,-1,-259,43,-42,97,-15
2320,0,-262,42,-42,99,-14
2325,1,-260,45,-42,99,-15
2330,4,-264,41,-41,99,-15
2335,2,-261,42,-38,101,-14
2340,3,-264,42,-37,100,-14
2345,-2,-266,42,-33,102,-15
2350,3,-262,43,-32,103,-13
2355,0,-261,41,-31,102,-13
2360,-2,-263,45,-28,104,-13
2365,2,-261,40,-27,104,-14
2370,-1,-261,43,-26,105,-11
2375,1,-265,41,-24,106,-13
2380,1,-264,42,-25,107,-13
2385,-2,-263,42,-23,108,-12
2390,1,-263,44,-23,108,-12
2395,-1,-262,40,-19,111,-12
2400,-1,-263,40,-18,112,-12
2405,4,-267,44,-16,112,-11
2410,0,-262,42,-14,114,-12
2415,2,-261,40,-11,115,-14
2420,-1,-265,42,-11,117,-12
2425,1,-263,41,-9,118,-13
2430,2,-262,43,-10,118,-13
2435,1,-264,44,-10,118,-13
2440,2,-264,44,-10,119,-14
2445,3,-262,42,-12,120,-14
2450,0,-263,38,-13,123,-15
2455,1,-260,43,-15,123,-16
2460,4,-259,43,-18,124,-17
2465,2,-257,44,-20,125,-15
2470,3,-256,42,-22,125,-14
2475,4,-256,39,-25,127,-17
2480,3,-258,38,-28,128,-16
2485,2,-257,38,-31,130,-15
2490,-2,-258,41,-35,132,-18
2495,4,-262,42,-37,133,-17
2500,3,-258,41,-40,132,-18
2505,2,-259,44,-41,134,-20
2510,1,-262,43,-42,136,-19
2515,4,-260,41,-44,137,-19
2520,2,-261,40,-43,138,-19
2525,0,-262,43,-46,137,-21
2530,-5,-259,28,-47,137,-21
2535,1,-260,41,-50,138,-21
2540,1,-262,41,-52,137,-21
2545,1,-258,37,-54,137,-23
2550,-2,-262,43,-56,138,-23
2555,0,-263,37,-59,138,-23
2560,-2,-260,40,-60,139,-25
2565,-2,-262,41,-60,138,-23
2570,-2,-260,38,-59,135,-22
2575,2,-261,41,-60,134,-23
2580,-2,-259,39,-59,132,-22
2585,2,-262,39,-58,131,-20
2590,-2,-260,40,-58,127,-18
2595,0,-262,39,-57,125,-18
2600,-5,-260,42,-55,123,-16
2605,-2,-260,39,-55,119,-13
2610,0,-262,39,-55,116,-13
2615,-3,-260,37,-56,114,-9
2620,-2,-259,36,-59,112,-8
2625,-1,-257,37,-65,111,-8
2630,-2,-259,39,-72,110,-6
2635,1,-255,36,-80,109,-3
2640,0,-261,38,-88,108,-3
2645,-1,-256,33,-97,107,-2
2650,-5,-256,34,-106,107,-2
2655,-3,-257,39,-112,106,-1
2660,-3,-258,40,-118,104,0
2665,-7,-255,35,-124,104,1
2670,-2,-259,36,-129,102,1
2675,-2,-258,37,-134,100,5
2680,-2,-259,39,-140,96,6
2685,-3,-257,39,-147,95,5
2690,-3,-256,36,-154,93,7
2695,-2,-257,35,-164,91,8
2700,-3,-256,37,-173,92,10
2705,-3,-256,33,-186,94,9
2710,-1,-259,32,-198,94,9
2715,-3,-257,33,-210,93,8
2720,1,-259,31,-221,94,8
2725,-1,-257,33,-232,94,9
2730,0,-257,31,-237,94,8
2735,0,-256,33,-245,93,6
2740,-2,-257,33,-253,93,6
2745,-2,-251,30,-265,94,7
2750,1,-256,32,-280,94,7
2755,-3,-257,25,-294,94,7
2760,-1,-255,29,-307,96,7
2765,-1,-256,29,-318,97,7
2770,1,-256,27,-331,97,8
2775,0,-258,29,-340,99,7
2780,3,-256,25,-350,101,6
2785,3,-257,26,-357,101,3
2790,-1,-257,27,-367,103,3
2795,-1,-256,26,-375,105,3
2800,0,-260,22,-383,106,2
2805,1,-257,19,-392,107,1
2810,3,-258,17,-400,109,0
2815,-1,-260,17,-407,109,-2
2820,0,-259,21,-412,112,-1
2825,2,-260,19,-418,111,0
2830,2,-260,19,-421,111,0
2835,3,-257,18,-428,112,0
2840,2,-261,12,-436,113,0
2845,0,-260,16,-444,116,1
2850,-4,-254,10,-453,116,2
2855,2,-257,13,-462,117,3
2860,4,-260,10,-470,120,4
2865,2,-257,9,-481,118,5
2870,2,-256,12,-490,117,5
2875,1,-256,6,-501,116,5
2880,2,-256,8,-513,114,7
2885,1,-257,9,-525,115,9
2890,-2,-254,9,-534,113,10
2895,-1,-254,4,-545,111,12
2900,-1,-256,6,-556,112,15
2905,-3,-256,2,-568,111,14
2910,-3,-253,7,-578,110,15
2915,-5,-251,2,-588,110,14
2920,0,-255,5,-598,110,15
2925,1,-256,3,-608,110,16
2930,0,-255,1,-617,110,17
2935,-4,-253,4,-628,108,16
2940,-1,-253,0,-641,108,14
2945,0,-255,2,-654,110,14
2950,-2,-251,0,-667,111,12
2955,-3,-255,0,-679,112,12
2960,3,-251,2,-691,114,13
2965,2,-257,-8,-704,114,13
2970,-3,-257,-1,-716,113,13
2975,-4,-256,-7,-726,114,12
2980,1,-256,-8,-735,115,11
2985,-4,-255,-7,-740,118,11
2990,1,-257,-7,-745,121,12
2995,1,-258,-7,-750,123,11
3000,0,-259,-6,-753,124,10
3005,3,-257,-8,-755,127,9
3010,0,-257,-13,-759,129,8
3015,2,-261,-10,-762,130,7
3020,3,-260,-9,-765,133,3
3025,4,-261,-12,-769,136,-1
3030,2,-260,-12,-772,138,-4
3035,3,-258,-17,-776,140,-6
3040,5,-261,-17,-780,144,-10
3045,5,-258,-19,-783,145,-11
3050,4,-260,-22,-785,148,-15
3055,4,-256,-19,-788,151,-15
3060,4,-256,-21,-792,150,-17
3065,9,-250,-26,-796,151,-21
3070,4,-256,-21,-803,154,-22
3075,5,-258,-28,-813,155,-22
3080,5,-260,-24,-826,157,-21
3085,5,-256,-28,-836,160,-21
3090,4,-256,-24,-846,162,-20
3095,4,-255,-31,-856,165,-19
3100,6,-255,-32,-870,166,-17
3105,5,-255,-34,-886,165,-15
3110,4,-254,-32,-903,164,-15
3115,6,-257,-27,-916,164,-13
3120,2,-254,-37,-927,167,-12
3125,4,-257,-31,-933,167,-12
3130,2,-256,-35,-938,168,-12
3135,1,-255,-32,-943,165,-13
3140,4,-255,-36,-944,161,-17
3145,3,-255,-40,-949,156,-19
3150,2,-253,-37,-959,153,-23
3155,-3,-253,-39,-965,148,-25
3160,-1,-253,-42,-969,144,-27
3165,1,-251,-41,-971,141,-30
3170,0,-251,-43,-978,137,-35
3175,3,-254,-44,-984,135,-39
3180,-4,-249,-46,-992,130,-41
3185,-4,-254,-48,-998,126,-43
3190,-5,-248,-45,-1006,120,-44
3195,-2,-248,-49,-1012,115,-43
3200,-3,-251,-51,-1023,108,-42
3205,-3,-251,-47,-1030,104,-40
3210,-1,-254,-53,-1038,99,-37
3215,-1,-254,-56,-1050,95,-33
3220,-2,-251,-60,-1061,94,-31
3225,2,-256,-62,-1068,90,-28
3230,-1,-253,-61,-1072,86,-24
3235,3,-255,-63,-1074,78,-20
3240,-4,-254,-67,-1076,72,-17
3245,-1,-253,-71,-1079,66,-13
3250,2,-256,-70,-1081,62,-9
3255,2,-257,-70,-1085,62,-8
3260,2,-256,-77,-1085,63,-8
3265,-1,-255,-75,-1083,63,-10
3270,-1,-256,-78,-1078,62,-10
3275,1,-256,-77,-1073,60,-12
3280,1,-253,-80,-1068,59,-17
3285,0,-256,-78,-1061,59,-22
3290,-1,-255,-86,-1057,57,-29
3295,2,-255,-78,-1053,56,-35
3300,3,-258,-85,-1044,54,-47
3305,2,-258,-81,-1020,55,-55
3310,2,-256,-79,-991,51,-65
3315,2,-255,-79,-958,47,-74
3320,2,-253,-79,-921,42,-80
3325,3,-249,-83,-891,40,-85
3330,2,-249,-90,-869,42,-89
3335,4,-246,-88,-856,44,-93
3340,5,-240,-89,-852,49,-97
3345,5,-240,-92,-850,53,-100
3350,7,-241,-90,-852,62,-102
3355,6,-238,-92,-853,69,-102
3360,10,-238,-98,-856,79,-104
3365,10,-239,-97,-859,84,-104
3370,10,-239,-98,-867,90,-107
3375,13,-240,-99,-874,96,-108
3380,9,-238,-99,-881,102,-113
3385,8,-239,-101,-886,106,-115
3390,5,-236,-102,-885,111,-116
3395,7,-238,-102,-883,114,-121
3400,5,-238,-105,-883,118,-125
3405,5,-235,-106,-879,122,-131
3410,4,-238,-106,-875,125,-134
3415,4,-235,-107,-869,127,-140
3420,4,-235,-108,-862,129,-147
3425,4,-236,-113,-855,130,-152
3430,1,-231,-113,-847,131,-157
3435,1,-231,-113,-842,134,-159
3440,3,-232,-111,-834,137,-161
3445,3,-232,-116,-825,137,-160
3450,3,-230,-117,-814,137,-157
3455,5,-232,-114,-800,133,-154
3460,5,-230,-119,-787,129,-151
3465,4,-229,-123,-770,123,-146
3470,5,-231,-123,-757,117,-141
3475,7,-228,-121,-754,112,-132
3480,6,-229,-121,-746,109,-124
3485,6,-225,-120,-741,107,-118
3490,6,-227,-123,-734,105,-115
3495,5,-227,-123,-731,101,-114
3500,9,-223,-116,-723,98,-112
3505,5,-226,-121,-714,98,-109
3510,7,-231,-115,-700,98,-107
3515,7,-226,-123,-680,98,-103
3520,8,-226,-124,-661,100,-102
3525,7,-227,-124,-639,105,-103
3530,7,-226,-130,-623,109,-104
3535,5,-229,-127,-608,114,-105
3540,6,-225,-125,-595,115,-104
3545,5,-224,-130,-587,115,-103
3550,7,-223,-135,-582,116,-106
3555,8,-220,-135,-584,119,-108
3560,5,-219,-134,-588,121,-109
3565,8,-222,-136,-595,119,-111
3570,3,-217,-132,-605,118,-115
3575,7,-218,-134,-612,114,-115
3580,4,-215,-136,-614,113,-117
3585,4,-212,-143,-619,109,-118
3590,7,-212,-136,-628,105,-117
3595,6,-214,-140,-630,102,-118
3600,2,-211,-136,-633,100,-119
3605,4,-210,-141,-638,99,-119
3610,3,-205,-141,-639,92,-115
3615,4,-212,-144,-641,90,-116
3620,6,-208,-149,-646,85,-116
3625,5,-209,-144,-645,81,-114
3630,4,-206,-150,-648,76,-111
3635,5,-206,-148,-649,74,-111
3640,4,-208,-144,-645,70,-108
3645,6,-205,-146,-642,68,-105
3650,5,-205,-150,-640,65,-104
3655,7,-202,-148,-642,62,-101
3660,8,-205,-148,-638,62,-98
3665,7,-203,-148,-632,57,-93
3670,6,-202,-151,-624,54,-92
3675,6,-204,-154,-617,51,-92
3680,6,-201,-156,-610,49,-89
3685,7,-202,-157,-603,49,-89
3690,7,-202,-156,-598,51,-89
3695,11,-200,-158,-595,54,-88
3700,10,-199,-160,-595,56,-86
3705,12,-197,-158,-594,57,-85
3710,10,-195,-163,-599,62,-85
3715,11,-193,-159,-604,64,-86
3720,13,-195,-158,-604,67,-83
3725,11,-193,-162,-602,69,-85
3730,11,-195,-160,-597,71,-83
3735,12,-196,-160,-592,71,-83
3740,9,-194,-162,-586,69,-83
3745,12,-192,-161,-582,68,-84
3750,14,-194,-166,-576,67,-85
3755,12,-194,-168,-573,68,-86
3760,12,-190,-170,-572,68,-88
3765,13,-190,-167,-574,69,-90
3770,18,-191,-174,-576,74,-93
3775,14,-189,-166,-576,74,-95
3780,13,-187,-172,-574,75,-98
3785,15,-188,-167,-570,76,-103
3790,14,-188,-170,-565,79,-104
3795,16,-187,-171,-556,79,-105
3800,13,-185,-172,-549,77,-105
3805,16,-185,-173,-543,81,-106
3810,15,-184,-174,-537,84,-105
3815,14,-184,-176,-533,84,-102
3820,14,-185,-177,-526,87,-100
3825,14,-184,-177,-522,88,-98
3830,14,-184,-175,-519,91,-96
3835,17,-186,-175,-512,93,-91
3840,16,-187,-178,-502,96,-90
3845,15,-184,-177,-493,98,-86
3850,16,-182,-179,-486,96,-83
3855,17,-182,-176,-479,97,-81
3860,16,-182,-180,-469,95,-82
3865,19,-186,-181,-459,91,-81
3870,19,-187,-180,-450,90,-82
3875,16,-182,-182,-441,88,-83
3880,17,-180,-177,-433,87,-86
3885,16,-182,-184,-425,87,-88
3890,18,-179,-180,-418,85,-89
3895,19,-179,-182,-413,87,-87
3900,19,-176,-185,-408,89,-87
3905,19,-177,-180,-402,91,-86
3910,17,-174,-186,-399,92,-84
3915,20,-174,-183,-393,91,-84
3920,18,-175,-187,-387,90,-84
3925,18,-175,-189,-382,89,-85
3930,20,-177,-190,-380,89,-84
3935,23,-183,-180,-380,88,-86
3940,20,-174,-189,-379,87,-87
3945,19,-173,-191,-380,86,-85
3950,22,-171,-191,-382,85,-82
3955,16,-169,-188,-383,83,-82
3960,19,-170,-187,-384,84,-81
3965,17,-171,-190,-387,85,-79
3970,20,-170,-192,-389,85,-77
3975,21,-168,-190,-390,84,-77
3980,20,-167,-189,-390,84,-73
3985,16,-166,-185,-387,84,-71
3990,20,-164,-190,-383,83,-68
3995,18,-164,-188,-380,83,-63
4000,21,-164,-189,-376,81,-59
4005,19,-163,-188,-371,81,-54
4010,19,-163,-186,-365,79,-52
4015,17,-161,-187,-355,79,-47
4020,18,-161,-188,-346,79,-46
4025,18,-159,-189,-337,77,-45
4030,20,-163,-190,-330,76,-45
4035,21,-159,-190,-322,75,-46
4040,20,-159,-191,-313,72,-48
4045,26,-157,-194,-303,71,-49
4050,22,-161,-188,-295,68,-52
4055,18,-161,-191,-290,70,-57
4060,19,-161,-192,-287,71,-60
4065,19,-159,-191,-283,70,-63
4070,22,-160,-192,-276,70,-64
4075,22,-160,-193,-267,70,-66
4080,21,-157,-192,-259,72,-68
4085,22,-157,-194,-249,74,-70
4090,21,-154,-193,-240,77,-71
4095,23,-157,-196,-235,80,-72
4100,20,-155,-193,-229,82,-73
4105,19,-157,-195,-224,83,-73
4110,19,-154,-194,-221,87,-74
4115,20,-152,-193,-216,89,-75
4120,23,-158,-195,-211,88,-76
4125,22,-152,-192,-202,90,-81
4130,21,-155,-193,-193,89,-80
4135,22,-154,-198,-189,86,-78
4140,20,-150,-194,-188,83,-78
4145,21,-152,-192,-188,84,-76
4150,22,-151,-194,-188,83,-73
4155,20,-152,-193,-188,82,-73
4160,24,-153,-193,-185,82,-72
4165,18,-153,-196,-181,78,-73
4170,21,-155,-191,-174,75,-71
4175,20,-152,-199,-165,72,-71
4180,20,-156,-196,-158,72,-69
4185,20,-153,-193,-152,72,-66
4190,22,-152,-195,-148,70,-66
4195,20,-151,-196,-143,69,-63
4200,18,-151,-199,-137,69,-61
4205,21,-151,-198,-133,69,-59
4210,21,-154,-195,-129,70,-58
4215,21,-153,-193,-129,70,-56
4220,21,-153,-195,-127,72,-55
4225,21,-154,-196,-126,71,-54
4230,22,-155,-199,-123,71,-54
4235,21,-155,-195,-121,69,-57
4240,20,-154,-198,-115,67,-58
4245,19,-155,-193,-108,70,-60
4250,24,-154,-193,-102,71,-64
4255,19,-154,-194,-94,73,-64
4260,20,-153,-196,-86,74,-66
4265,18,-151,-194,-77,74,-68
4270,23,-152,-201,-70,76,-71
4275,18,-152,-197,-67,78,-72
4280,20,-152,-198,-65,78,-75
4285,19,-152,-201,-66,78,-74
4290,20,-152,-197,-67,80,-76
4295,20,-152,-196,-67,81,-75
4300,19,-154,-196,-65,81,-75
4305,19,-152,-196,-64,81,-74
4310,19,-150,-196,-60,81,-71
4315,21,-152,-195,-57,81,-70
4320,20,-152,-195,-54,80,-68
4325,20,-153,-193,-50,79,-66
4330,23,-154,-195,-45,78,-67
4335,19,-153,-192,-39,79,-64
4340,21,-149,-194,-31,78,-62
4345,20,-148,-193,-24,76,-57
4350,22,-150,-193,-18,74,-52
4355,20,-146,-197,-12,70,-48
4360,24,-145,-195,-9,68,-43
4365,25,-150,-196,-5,66,-40
4370,21,-149,-197,-4,62,-38
4375,22,-147,-196,-1,61,-36
4380,25,-149,-196,2,59,-37
4385,21,-149,-198,5,57,-35
4390,22,-148,-197,10,58,-35
4395,20,-150,-196,16,57,-33
4400,21,-146,-196,22,57,-33
4405,21,-150,-195,29,58,-29
4410,20,-149,-196,34,60,-27
4415,22,-147,-197,38,59,-27
4420,19,-147,-199,43,58,-25
4425,19,-149,-195,48,59,-25
4430,21,-148,-194,52,60,-23
4435,19,-149,-198,55,61,-22
4440,19,-149,-195,59,62,-21
4445,23,-152,-197,62,65,-21
4450,22,-151,-198,67,65,-20
4455,19,-149,-196,69,67,-19
4460,24,-150,-200,73,68,-20
4465,21,-153,-193,76,68,-18
4470,24,-148,-196,78,69,-18
4475,24,-149,-197,81,69,-17
4480,20,-152,-198,84,70,-18
4485,22,-149,-195,86,68,-18
4490,22,-148,-194,90,66,-18
4495,21,-146,-195,93,66,-17
4500,24,-151,-191,94,64,-16
4505,25,-149,-193,97,64,-17
4510,22,-147,-191,98,64,-13
4515,23,-145,-195,100,65,-11
4520,23,-147,-194,101,65,-10
4525,24,-147,-194,100,64,-8
4530,25,-148,-192,100,64,-7
4535,24,-152,-193,100,62,-6
4540,26,-149,-192,100,62,-5
4545,23,-150,-194,99,61,-4
4550,23,-152,-191,99,61,-4
4555,22,-153,-192,100,60,-4
4560,22,-150,-193,99,58,-4
4565,24,-149,-194,101,58,-6
4570,24,-151,-193,101,58,-7
4575,23,-148,-192,101,56,-8
4580,22,-148,-194,100,57,-9
4585,23,-148,-193,100,56,-11
4590,23,-148,-193,100,57,-12
4595,24,-151,-191,101,58,-13
4600,25,-155,-192,100,60,-12
4605,21,-150,-194,100,62,-13
4610,21,-152,-193,100,63,-13
4615,23,-152,-191,102,64,-15
4620,22,-153,-191,103,64,-15
4625,24,-154,-191,106,65,-13
4630,25,-155,-193,109,65,-13
4635,23,-156,-192,109,67,-13
4640,21,-157,-190,109,68,-14
4645,23,-152,-192,111,66,-13
4650,24,-156,-193,112,66,-15
4655,22,-152,-192,112,67,-13
4660,22,-153,-191,109,67,-11
4665,25,-153,-193,109,67,-14
4670,24,-154,-192,107,65,-14
4675,23,-151,-189,104,65,-14
4680,23,-156,-190,102,63,-14
4685,24,-156,-193,102,62,-13
4690,24,-157,-191,101,61,-13
4695,24,-158,-191,102,59,-13
4700,23,-152,-190,104,59,-11
4705,27,-154,-192,105,57,-10
4710,24,-157,-189,103,57,-9
4715,24,-154,-187,103,57,-10
4720,23,-157,-188,101,56,-10
4725,26,-155,-190,99,55,-9
4730,25,-156,-185,100,55,-9
4735,23,-155,-188,100,54,-11
4740,23,-156,-189,102,53,-11
4745,26,-159,-187,100,54,-10
4750,26,-158,-189,99,54,-11
4755,25,-157,-188,97,53,-10
4760,25,-158,-189,95,51,-11
4765,22,-154,-187,90,52,-12
4770,20,-156,-190,87,52,-10
4775,23,-158,-188,86,51,-12
4780,25,-159,-188,85,50,-11
4785,27,-159,-185,86,50,-12
4790,27,-158,-188,88,50,-12
4795,24,-157,-189,86,49,-12
4800,23,-159,-187,85,48,-14
4805,23,-163,-193,87,50,-14
4810,24,-161,-188,86,47,-15
4815,22,-157,-189,86,46,-17
4820,23,-159,-190,84,47,-20
4825,25,-158,-191,82,48,-20
4830,24,-159,-189,81,48,-21
4835,22,-159,-189,80,48,-22
4840,25,-157,-188,79,50,-21
4845,23,-158,-187,77,49,-23
4850,24,-159,-190,77,47,-23
4855,20,-159,-188,76,48,-23
4860,23,-156,-187,74,48,-22
4865,23,-159,-186,74,47,-22
4870,21,-157,-185,73,48,-21
4875,21,-160,-186,72,45,-22
4880,25,-161,-187,69,46,-20
4885,21,-157,-186,68,44,-20
4890,24,-160,-188,63,43,-20
4895,24,-157,-188,61,43,-20
4900,24,-160,-188,58,42,-21
4905,24,-159,-187,57,42,-21
4910,25,-157,-189,55,42,-22
4915,22,-160,-185,54,41,-22
4920,23,-160,-188,52,40,-24
4925,23,-160,-188,52,40,-25
4930,26,-163,-188,50,40,-25
4935,22,-160,-186,46,40,-26
4940,25,-159,-189,46,41,-27
4945,21,-162,-189,45,41,-27
4950,23,-159,-189,43,42,-29
4955,23,-159,-186,41,43,-31
4960,24,-161,-187,41,44,-32
4965,22,-161,-188,44,45,-34
4970,19,-160,-186,45,45,-37
4975,22,-162,-189,46,47,-35
4980,23,-161,-185,48,47,-36
4985,22,-158,-189,49,50,-35
4990,23,-160,-187,49,50,-37
4995,21,-160,-188,49,49,-37
5000,25,-160,-190,49,49,-37
5005,22,-159,-185,49,50,-38
5010,23,-162,-185,48,49,-39
5015,25,-159,-185,49,48,-39
5020,24,-163,-186,49,48,-40
5025,21,-164,-191,47,48,-41
5030,23,-160,-185,47,48,-42
5035,23,-157,-189,44,47,-41
5040,22,-161,-190,41,46,-42
5045,23,-161,-184,39,45,-41
5050,24,-158,-182,37,45,-42
5055,21,-161,-184,34,46,-40
5060,22,-163,-186,30,44,-39
5065,24,-158,-186,26,43,-41
5070,22,-162,-186,25,43,-40
5075,21,-160,-187,25,42,-40
5080,21,-159,-187,26,41,-40
5085,24,-163,-185,27,40,-39
5090,23,-164,-186,27,40,-39
5095,26,-162,-184,28,39,-39
5100,20,-162,-190,28,38,-39
5105,24,-161,-187,28,38,-40
5110,24,-162,-191,29,38,-40
5115,20,-162,-187,28,38,-42
5120,28,-162,-186,28,38,-44
5125,21,-161,-188,27,38,-44
5130,22,-163,-187,27,39,-44
5135,21,-162,-186,25,39,-44
5140,25,-163,-188,26,40,-44
5145,24,-162,-183,26,40,-44
5150,23,-161,-184,27,38,-47
5155,25,-162,-185,24,38,-49
5160,25,-162,-188,23,37,-48
5165,22,-163,-184,21,36,-49
5170,25,-162,-188,20,38,-50
5175,23,-162,-181,19,37,-50
5180,22,-162,-185,19,36,-50
5185,23,-161,-187,18,36,-50
5190,24,-163,-183,20,36,-50
5195,24,-164,-185,19,37,-50
5200,24,-163,-186,18,38,-50
5205,24,-165,-189,19,36,-50
5210,23,-166,-183,19,37,-52
5215,24,-165,-185,17,36,-53
5220,24,-162,-186,19,38,-53
5225,24,-166,-184,19,37,-52
5230,24,-165,-186,22,39,-51
5235,25,-165,-186,23,39,-50
5240,23,-163,-187,25,39,-53
5245,27,-165,-184,26,40,-51
5250,27,-163,-184,24,41,-53
5255,24,-161,-184,24,42,-52
5260,27,-164,-187,22,42,-53
5265,29,-162,-186,20,40,-53
5270,26,-160,-184,18,40,-53
5275,26,-164,-183,19,42,-55
5280,25,-164,-184,20,40,-54
5285,25,-162,-184,20,40,-55
5290,27,-164,-183,19,40,-56
5295,24,-160,-185,18,41,-56
5300,24,-162,-183,17,42,-57
5305,27,-163,-183,15,41,-57
5310,24,-162,-182,13,42,-56
5315,27,-163,-182,12,42,-56
5320,27,-163,-185,11,43,-55
5325,26,-164,-184,11,41,-56
5330,22,-160,-184,12,42,-55
5335,22,-164,-186,15,41,-56
5340,27,-163,-184,17,40,-55
5345,26,-163,-187,18,41,-56
5350,20,-162,-186,17,42,-55
5355,23,-164,-183,18,41,-55
5360,27,-165,-185,15,40,-54
5365,29,-164,-185,16,40,-55
5370,24,-165,-181,15,39,-53
5375,29,-165,-182,16,40,-50
5380,26,-170,-186,16,41,-51
5385,26,-167,-186,18,41,-50
5390,25,-167,-186,20,41,-49
5395,23,-166,-185,20,41,-48
5400,27,-165,-180,19,40,-47
5405,27,-163,-183,17,40,-48
5410,25,-165,-183,17,41,-47
5415,29,-167,-180,15,40,-47
5420,27,-164,-185,15,39,-46
5425,25,-164,-184,15,40,-46
5430,23,-164,-185,17,40,-45
5435,24,-163,-185,15,42,-43
5440,24,-164,-184,14,42,-41
5445,26,-168,-182,13,43,-39
5450,22,-163,-184,13,43,-39
5455,24,-166,-188,10,42,-38
5460,24,-162,-183,11,41,-38
5465,23,-163,-183,13,41,-38
5470,25,-166,-182,13,41,-38
5475,26,-161,-186,14,42,-38
5480,26,-165,-185,13,41,-38
5485,24,-164,-182,12,41,-37
5490,23,-165,-181,13,42,-33
5495,24,-165,-183,11,41,-32
5500,23,-163,-181,10,40,-31
5505,26,-163,-184,10,42,-29
5510,21,-166,-183,9,42,-28
5515,21,-164,-183,7,43,-27
5520,23,-163,-184,7,43,-27
5525,27,-163,-184,5,44,-25
5530,27,-167,-188,5,45,-25
5535,22,-163,-182,4,45,-25
5540,23,-164,-184,5,44,-23
5545,23,-166,-183,5,46,-25
5550,28,-166,-180,5,47,-22
5555,24,-164,-182,4,47,-23
5560,26,-167,-181,4,48,-21
5565,25,-167,-185,3,49,-22
5570,27,-167,-187,2,49,-20
5575,25,-165,-180,2,51,-19
5580,24,-165,-185,1,53,-16
5585,25,-167,-182,-1,55,-17
5590,24,-167,-185,-3,56,-18
5595,25,-165,-183,-3,57,-19
5600,23,-168,-183,-3,58,-17
5605,23,-165,-183,-3,58,-17
5610,22,-164,-184,-2,61,-17
5615,25,-165,-183,-2,61,-16
5620,18,-164,-186,-1,63,-14
5625,24,-166,-183,-1,63,-13
5630,25,-163,-188,-1,63,-13
5635,24,-164,-185,-1,63,-13
5640,23,-163,-184,-4,63,-12
5645,24,-165,-182,-5,62,-11
5650,23,-161,-184,-8,62,-12
5655,21,-163,-183,-10,62,-11
5660,23,-165,-179,-11,63,-11
5665,24,-163,-183,-13,64,-11
5670,25,-165,-182,-13,65,-11
5675,23,-166,-184,-16,64,-8
5680,26,-169,-184,-16,64,-9
5685,27,-164,-181,-17,65,-10
5690,23,-164,-182,-17,66,-7
5695,22,-163,-182,-18,66,-8
5700,22,-163,-179,-19,66,-6
5705,21,-164,-184,-20,66,-5
5710,23,-164,-182,-21,68,-5
5715,22,-165,-185,-22,67,-4
5720,23,-164,-187,-22,67,-4
5725,25,-168,-182,-23,66,-5
5730,23,-168,-184,-23,67,-3
5735,22,-163,-183,-23,68,-2
5740,22,-164,-183,-22,69,-3
5745,24,-169,-186,-21,70,-1
5750,27,-166,-183,-22,69,-1
5755,23,-164,-184,-20,69,-1
5760,23,-162,-185,-19,69,-1
5765,24,-166,-183,-18,70,0
5770,25,-161,-187,-20,72,1
5775,25,-165,-184,-21,73,1
5780,26,-162,-181,-21,73,2
5785,24,-163,-182,-22,73,2
5790,25,-162,-181,-25,74,2
5795,21,-159,-183,-27,73,2
5800,26,-164,-187,-30,74,2
5805,24,-166,-183,-30,74,1
5810,23,-164,-184,-31,73,2
5815,23,-165,-185,-30,73,3
5820,25,-166,-181,-29,72,2
5825,26,-163,-186,-28,72,1
5830,26,-166,-178,-29,73,3
5835,25,-164,-182,-29,73,2
5840,21,-163,-180,-30,73,2
5845,29,-163,-182,-32,74,3
5850,26,-166,-182,-34,74,0
5855,23,-166,-185,-35,73,1
5860,24,-163,-185,-37,74,0
5865,26,-165,-186,-35,73,0
5870,23,-165,-183,-35,74,1
5875,24,-168,-185,-33,75,1
5880,25,-166,-184,-32,77,1
5885,22,-163,-186,-28,76,2
5890,25,-165,-186,-27,77,2
5895,26,-165,-182,-22,78,3
5900,24,-161,-183,-18,77,2
5905,24,-164,-185,-16,78,3
5910,23,-166,-186,-15,78,1
5915,24,-165,-181,-12,78,1
5920,24,-167,-182,-11,77,3
5925,25,-164,-185,-13,76,2
5930,28,-167,-180,-13,76,2
5935,21,-163,-183,-14,75,2
5940,22,-165,-186,-15,75,3
5945,25,-167,-184,-15,75,2
5950,22,-163,-188,-17,75,3
5955,22,-162,-187,-17,74,2
5960,26,-166,-187,-19,75,4
5965,24,-163,-187,-19,75,4
5970,23,-164,-188,-20,76,4
5975,27,-164,-186,-21,74,5
5980,24,-164,-184,-20,75,6
5985,25,-163,-186,-20,74,5
5990,23,-164,-187,-21,77,6
5995,21,-164,-184,-19,75,5
6000,25,-166,-183,-20,74,5
6005,24,-163,-184,-17,73,5
6010,26,-165,-185,-16,74,4
6015,26,-166,-184,-13,74,4
6020,26,-169,-180,-12,74,5
6025,25,-167,-183,-9,75,4
6030,23,-165,-185,-8,76,5
6035,24,-167,-187,-7,76,3
6040,26,-165,-186,-6,77,3
6045,25,-167,-184,-4,76,5
6050,23,-167,-184,-2,77,4
6055,26,-166,-184,-1,78,4
6060,25,-165,-189,-1,78,2
6065,22,-164,-188,-2,78,3
6070,23,-164,-184,-2,78,3
6075,24,-166,-186,-3,78,4
6080,22,-166,-184,-1,77,3
6085,21,-168,-185,1,78,4
6090,23,-165,-184,4,78,6
6095,23,-166,-185,7,79,5
6100,24,-168,-182,10,79,6
6105,22,-168,-182,13,77,6
6110,24,-168,-184,14,78,8
6115,22,-165,-184,14,77,9
6120,27,-167,-186,17,78,9
6125,19,-168,-181,19,76,10
6130,24,-168,-186,22,76,11
6135,22,-168,-185,24,75,11
6140,25,-171,-183,25,75,11
6145,26,-168,-188,27,73,11
6150,23,-166,-184,31,73,10
6155,20,-168,-184,33,72,10
6160,25,-171,-180,35,74,9
6165,23,-167,-184,36,73,9
6170,23,-165,-183,36,73,10
6175,22,-168,-186,38,73,10
6180,25,-168,-183,40,73,9
6185,24,-169,-186,45,74,10
6190,24,-173,-179,50,73,11
6195,24,-173,-183,55,75,10
6200,23,-170,-184,61,75,12
6205,24,-176,-183,69,75,14
6210,26,-177,-183,77,75,15
6215,28,-178,-186,84,74,16
6220,31,-175,-182,93,74,18
6225,26,-179,-180,99,74,18
6230,24,-179,-183,104,72,20
6235,22,-178,-184,112,72,20
6240,25,-179,-181,116,70,22
6245,23,-176,-185,119,69,23
6250,23,-179,-183,123,68,22
6255,25,-179,-184,125,68,25
6260,20,-177,-183,127,69,25
6265,22,-176,-182,129,69,27
6270,22,-178,-180,130,69,29
6275,19,-176,-179,133,71,29
6280,22,-177,-179,135,71,31
6285,22,-176,-183,137,72,32
6290,20,-176,-182,139,73,35
6295,22,-179,-178,142,73,36
6300,23,-178,-182,144,72,34
6305,23,-176,-181,145,71,34
6310,22,-178,-178,148,68,34
6315,22,-177,-181,151,67,36
6320,20,-175,-180,153,66,37
6325,23,-174,-177,156,66,39
6330,21,-174,-180,160,66,40
6335,23,-174,-179,162,66,42
6340,20,-172,-181,166,64,44
6345,19,-174,-182,169,65,46
6350,23,-176,-177,172,64,48
6355,21,-176,-176,175,63,50
6360,23,-173,-179,177,64,53
6365,25,-174,-176,179,66,56
6370,24,-178,-176,183,66,59
6375,23,-179,-180,186,66,63
6380,21,-176,-179,191,68,64
6385,24,-175,-177,195,69,66
6390,22,-177,-178,196,69,69
6395,23,-180,-180,198,71,71
6400,21,-178,-177,201,72,72
6405,26,-179,-176,204,72,73
6410,26,-182,-171,207,72,74
6415,25,-181,-172,213,73,73
6420,23,-185,-174,218,72,75
6425,23,-181,-170,221,70,74
6430,21,-180,-175,227,69,73
6435,19,-181,-168,230,68,73
6440,19,-180,-173,233,68,72
6445,20,-182,-171,236,67,71
6450,22,-185,-169,241,65,72
6455,25,-184,-176,244,65,72
6460,20,-183,-176,248,66,73
6465,24,-185,-173,250,67,74
6470,22,-185,-172,255,68,75
6475,19,-184,-173,259,69,76
6480,21,-185,-171,264,70,78
6485,21,-190,-173,267,71,80
6490,20,-186,-171,268,73,82
6495,20,-188,-174,269,76,85
6500,20,-189,-171,272,80,87
6505,22,-188,-171,274,81,88
6510,21,-189,-170,276,84,91
6515,20,-188,-173,279,88,91
6520,20,-192,-169,282,91,95
6525,20,-192,-169,287,95,97
6530,19,-192,-168,290,97,97
6535,21,-190,-171,293,100,96
6540,20,-192,-170,295,101,95
6545,21,-192,-170,296,103,93
6550,16,-189,-170,299,106,90
6555,23,-195,-166,301,109,87
6560,22,-191,-168,302,110,84
6565,26,-193,-169,305,113,81
6570,21,-194,-168,308,116,79
6575,24,-192,-169,312,118,76
6580,21,-193,-166,316,118,74
6585,20,-191,-167,319,119,71
6590,22,-192,-164,325,120,67
6595,23,-192,-162,330,119,66
6600,20,-194,-160,337,119,63
6605,22,-193,-163,342,117,60
6610,20,-195,-162,350,116,57
6615,18,-193,-163,359,115,58
6620,21,-197,-161,367,116,58
6625,22,-197,-157,376,115,57
6630,21,-200,-160,385,115,58
6635,20,-195,-159,390,113,62
6640,20,-196,-162,397,113,62
6645,20,-197,-160,403,112,63
6650,20,-200,-157,407,111,64
6655,23,-201,-160,412,111,65
6660,16,-204,-165,413,109,66
6665,23,-202,-160,417,107,67
6670,18,-201,-160,420,108,67
6675,19,-201,-159,421,107,64
6680,21,-204,-157,424,106,66
6685,15,-201,-158,426,105,66
6690,18,-201,-154,427,104,69
6695,18,-203,-156,427,106,70
6700,18,-203,-154,427,108,71
6705,17,-202,-157,427,110,74
6710,19,-205,-152,425,110,73
6715,17,-208,-152,426,112,76
6720,21,-205,-151,428,115,78
6725,20,-207,-151,429,117,78
6730,18,-205,-153,429,120,82
6735,19,-207,-151,432,121,84
6740,20,-209,-150,433,124,85
6745,20,-208,-148,433,127,86
6750,16,-209,-149,437,128,89
6755,18,-207,-150,441,133,90
6760,18,-207,-147,446,136,93
6765,14,-205,-154,446,136,96
6770,22,-208,-146,447,132,98
6775,19,-210,-148,450,128,101
6780,20,-206,-148,449,125,103
6785,20,-209,-149,448,127,101
6790,17,-211,-144,443,129,96
6795,17,-212,-142,439,131,92
6800,14,-213,-143,438,133,88
6805,16,-214,-142,438,134,84
6810,17,-212,-144,441,135,79
6815,21,-212,-147,446,134,78
6820,17,-215,-142,449,132,77
6825,17,-216,-145,452,132,78
6830,19,-213,-144,454,130,77
6835,18,-214,-143,455,129,76
6840,18,-214,-140,454,130,79
6845,18,-213,-137,454,130,80
6850,18,-214,-139,454,131,82
6855,21,-216,-139,456,131,83
6860,16,-215,-138,456,132,87
6865,18,-218,-131,457,132,89
6870,21,-219,-132,458,132,92
6875,23,-219,-130,459,132,94
6880,18,-219,-129,461,131,98
6885,20,-221,-130,463,130,99
6890,17,-225,-131,463,128,104
6895,18,-223,-130,461,127,105
6900,16,-222,-131,464,127,107
6905,18,-225,-130,464,125,110
6910,16,-222,-128,466,125,109
6915,19,-228,-123,468,126,111
6920,19,-225,-126,468,126,110
6925,14,-224,-126,468,127,111
6930,14,-227,-125,470,127,110
6935,12,-228,-127,472,128,110
6940,15,-225,-120,474,127,110
6945,10,-229,-123,474,127,108
6950,14,-226,-122,475,128,105
6955,11,-226,-126,476,127,106
6960,12,-227,-125,476,128,105
6965,13,-228,-121,477,128,105
6970,13,-225,-121,477,127,106
6975,12,-225,-120,476,127,106
6980,12,-228,-121,476,128,106
6985,14,-229,-117,472,126,106
6990,12,-227,-119,471,126,107
6995,12,-224,-120,469,128,107
7000,13,-226,-116,468,126,106
7005,11,-225,-119,468,126,105
7010,10,-222,-116,466,125,105
7015,11,-230,-115,465,123,109
7020,11,-230,-117,464,123,108
7025,15,-226,-115,465,123,108
7030,9,-226,-114,467,124,108
7035,11,-226,-116,466,122,110
7040,13,-227,-115,467,123,111
7045,13,-230,-113,468,123,111
7050,8,-226,-116,467,123,111
7055,14,-229,-117,467,122,112
7060,13,-226,-115,464,121,113
7065,15,-226,-112,462,121,113
7070,11,-229,-112,459,123,115
7075,13,-229,-110,457,122,117
7080,14,-227,-106,456,123,118
7085,10,-227,-109,456,123,118
7090,13,-230,-111,458,123,120
7095,10,-231,-112,461,123,119
7100,13,-231,-107,466,122,120
7105,11,-234,-106,472,121,120
7110,13,-234,-109,480,121,120
7115,13,-234,-106,488,122,121
7120,12,-235,-106,493,122,120
7125,12,-235,-104,502,121,119
7130,10,-235,-102,509,120,119
7135,13,-237,-100,518,118,117
7140,11,-235,-105,526,115,117
7145,12,-240,-101,536,115,115
7150,15,-238,-102,545,118,113
7155,9,-237,-103,552,122,109
7160,9,-238,-96,561,121,109
7165,11,-239,-97,567,119,108
7170,8,-240,-98,574,118,104
7175,8,-240,-93,581,119,103
7180,11,-242,-97,589,117,100
7185,10,-243,-96,593,115,97
7190,11,-242,-95,599,114,93
7195,10,-243,-92,606,112,90
7200,7,-240,-97,612,111,86
7205,7,-246,-90,617,110,84
7210,9,-244,-93,624,109,83
7215,7,-244,-88,629,108,80
7220,5,-240,-89,634,107,79
7225,5,-246,-85,640,106,76
7230,6,-245,-86,645,106,76
7235,8,-244,-87,651,105,76
7240,7,-246,-85,657,104,77
7245,8,-246,-85,664,103,76
7250,6,-247,-84,668,100,78
7255,4,-244,-80,672,96,80
7260,6,-244,-82,673,95,81
7265,6,-246,-80,672,92,82
7270,6,-246,-84,671,90,85
7275,7,-245,-77,670,87,86
7280,6,-245,-77,665,84,88
7285,6,-245,-76,663,80,89
7290,5,-246,-76,662,77,92
7295,7,-247,-76,664,75,93
7300,5,-248,-72,665,74,95
7305,5,-250,-68,670,73,97
7310,3,-249,-74,675,75,99
7315,6,-251,-71,682,75,100
7320,7,-253,-72,687,79,99
7325,6,-251,-69,692,81,101
7330,4,-250,-71,691,82,101
7335,7,-250,-69,688,83,101
7340,4,-251,-68,685,85,102
7345,5,-250,-66,680,87,104
7350,6,-253,-63,678,88,104
7355,7,-253,-65,675,89,104
7360,6,-253,-64,676,90,104
7365,4,-253,-62,676,92,102
7370,5,-255,-62,674,92,99
7375,8,-256,-58,675,93,95
7380,5,-255,-56,676,94,93
7385,6,-254,-59,677,95,92
7390,5,-256,-60,679,95,90
7395,10,-256,-60,684,96,87
7400,7,-256,-54,689,98,84
7405,4,-257,-55,693,98,83
7410,5,-256,-53,701,98,81
7415,5,-256,-55,704,100,79
7420,4,-256,-49,708,101,77
7425,5,-257,-50,714,102,73
7430,6,-258,-49,720,104,73
7435,4,-258,-49,727,107,72
7440,4,-255,-52,727,108,72
7445,4,-256,-51,727,109,72
7450,4,-257,-48,726,109,71
7455,4,-256,-48,724,108,68
7460,5,-257,-48,721,109,66
7465,3,-256,-45,719,108,63
7470,4,-256,-47,716,110,60
7475,4,-257,-43,713,113,58
7480,4,-258,-40,711,115,55
7485,4,-257,-42,712,117,53
7490,2,-257,-36,711,116,52
7495,4,-257,-37,711,116,51
7500,0,-259,-35,711,116,51
7505,2,-257,-39,710,117,51
7510,0,-256,-36,711,117,47
7515,0,-260,-34,714,116,46
7520,1,-258,-33,714,113,46
7525,4,-257,-32,715,109,46
7530,2,-257,-32,713,107,46
7535,0,-258,-32,712,107,44
7540,1,-257,-34,709,107,44
7545,1,-258,-28,703,107,45
7550,2,-258,-31,697,106,45
7555,1,-257,-28,688,103,45
7560,0,-257,-25,679,101,44
7565,-5,-259,-27,670,99,47
7570,2,-258,-23,660,96,47
7575,-1,-259,-24,655,94,47
7580,-3,-259,-21,648,92,48
7585,1,-261,-19,643,92,46
7590,3,-258,-19,641,90,45
7595,3,-263,-17,637,87,44
7600,2,-261,-18,637,87,42
7605,1,-263,-14,639,86,41
7610,1,-260,-18,641,86,38
7615,-1,-262,-16,644,85,37
7620,-1,-264,-15,648,86,35
7625,1,-262,-14,650,84,34
7630,0,-261,-15,648,83,30
7635,3,-262,-8,648,81,29
7640,-1,-263,-10,646,79,27
7645,-2,-260,-11,645,76,26
7650,0,-257,-12,641,72,24
7655,-2,-260,-10,634,71,25
7660,3,-259,-11,625,70,25
7665,4,-258,-11,616,68,23
7670,2,-256,-8,603,69,23
7675,-3,-257,-3,592,68,23
7680,0,-258,-4,583,70,24
7685,-1,-260,-2,576,69,26
7690,-2,-258,0,569,66,28
7695,1,-259,-6,562,65,32
7700,1,-258,-2,554,64,32
7705,2,-259,2,546,64,36
7710,4,-259,0,539,64,36
7715,1,-261,0,533,64,38
7720,0,-262,3,527,64,39
7725,-1,-258,0,521,63,40
7730,0,-259,1,514,62,40
7735,4,-261,3,508,62,41
7740,2,-259,2,500,60,42
7745,-1,-259,8,494,58,42
7750,-4,-258,6,488,56,45
7755,-2,-258,8,484,55,43
7760,0,-259,6,476,52,43
7765,0,-257,6,469,50,42
7770,-1,-259,3,462,49,40
7775,1,-256,5,454,47,41
7780,4,-260,8,445,48,39
7785,0,-258,8,434,48,36
7790,-2,-256,6,422,48,32
7795,2,-256,13,411,47,31
7800,2,-257,12,400,47,29
7805,1,-259,11,392,48,27
7810,2,-256,15,383,47,24
7815,4,-256,13,375,47,24
7820,1,-258,15,366,47,22
7825,4,-259,17,356,46,20
7830,4,-260,12,345,45,20
7835,4,-258,15,336,44,18
7840,3,-257,15,324,44,16
7845,5,-259,16,312,42,15
7850,-2,-260,12,299,41,14
7855,5,-258,15,287,38,14
7860,2,-259,19,279,36,12
7865,4,-257,16,273,38,11
7870,5,-257,19,269,40,12
7875,5,-260,23,266,41,12
7880,4,-257,23,262,41,12
7885,4,-262,19,261,43,12
7890,5,-261,22,260,46,12
7895,4,-261,28,259,49,14
7900,3,-258,19,259,52,16
7905,3,-260,24,255,52,17
7910,3,-259,22,249,53,17
7915,3,-258,20,243,57,18
7920,4,-260,21,237,57,15
7925,4,-259,23,231,62,15
7930,4,-257,19,225,64,15
7935,5,-258,26,216,67,13
7940,4,-260,23,207,71,11
7945,5,-258,23,195,74,9
7950,5,-257,25,187,79,5
7955,5,-259,24,178,83,4
7960,2,-257,25,172,86,0
7965,4,-258,26,165,90,0
7970,3,-259,26,164,93,-2
7975,3,-260,31,163,97,-5
7980,3,-258,30,162,97,-4
7985,2,-258,31,164,100,-5
7990,4,-263,29,163,100,-5
7995,0,-262,29,164,101,-4
8000,3,-262,30,165,102,-6
8005,4,-264,32,167,106,-6
8010,4,-263,31,166,106,-6
8015,0,-258,32,167,106,-8
8020,4,-260,33,165,106,-6
8025,2,-261,33,160,107,-7
8030,-1,-256,36,159,105,-6
8035,1,-259,34,155,105,-7
8040,-1,-259,41,151,102,-6
8045,1,-261,36,146,104,-7
8050,0,-262,38,143,100,-4
8055,-2,-260,41,140,97,-4
8060,-2,-262,37,137,95,-5
8065,1,-261,37,133,90,-6
8070,0,-263,40,130,85,-6
8075,-1,-262,39,131,81,-7
8080,-5,-261,39,132,79,-7
8085,-4,-262,37,132,75,-2
8090,-5,-262,42,132,72,0
8095,-10,-258,44,130,65,-1
8100,-12,-257,38,129,59,0
8105,-9,-260,39,126,55,4
8110,-7,-259,42,120,50,11
8115,-10,-261,42,110,43,18
8120,-10,-260,44,101,35,26
8125,-8,-262,47,95,30,32
8130,-11,-262,47,94,26,37
8135,-11,-266,48,100,23,41
8140,-11,-263,44,108,16,47
8145,-9,-265,45,115,7,50
8150,-11,-261,42,120,-3,55
8155,-10,-265,41,126,-12,58
8160,-10,-264,43,132,-19,62
8165,-9,-268,42,139,-27,64
8170,-4,-267,47,150,-32,66
8175,-8,-266,41,158,-38,68
8180,-7,-266,46,167,-42,72
8185,-6,-265,45,174,-45,73
8190,-7,-262,49,181,-47,72
8195,-1,-264,44,185,-51,74
8200,-3,-262,48,189,-53,72
8205,0,-261,46,190,-56,71
8210,-5,-258,48,188,-57,70
8215,0,-261,48,184,-58,66
8220,-1,-257,47,182,-60,65
8225,0,-258,42,183,-58,63
8230,3,-257,48,181,-55,63
8235,2,-257,47,174,-54,62
8240,-1,-258,47,164,-53,61
8245,3,-257,53,154,-55,60
8250,3,-256,54,145,-56,59
8255,1,-257,50,136,-58,57
8260,4,-258,52,131,-58,55
8265,4,-258,51,125,-56,54
8270,3,-257,51,120,-56,50
8275,6,-267,54,115,-55,48
8280,4,-256,50,110,-55,46
8285,4,-259,47,105,-53,42
8290,4,-257,48,99,-52,41
8295,4,-258,45,89,-51,39
8300,3,-259,45,74,-47,37
8305,4,-260,45,59,-43,37
8310,3,-258,47,42,-35,36
8315,5,-262,46,28,-31,38
8320,1,-263,47,20,-23,37
8325,-8,-265,48,15,-17,37
8330,-5,-262,46,23,-16,39
8335,-2,-260,47,36,-18,39
8340,-3,-259,46,47,-19,38
8345,-2,-257,47,47,-16,38
8350,-4,-257,46,40,-14,40
8355,-5,-258,45,29,-13,41
8360,-5,-263,47,16,-13,42
8365,-4,-260,53,5,-13,44
8370,-9,-260,54,0,-15,44
8375,-11,-258,51,4,-18,45
8380,-8,-261,49,11,-22,44
8385,-8,-258,47,21,-30,42
8390,-4,-256,53,26,-34,41
8395,-5,-255,51,25,-31,40
8400,-6,-256,52,20,-22,40
8405,-8,-255,54,16,-17,38
8410,-3,-257,50,11,-21,40
8415,-2,-256,51,10,-22,39
8420,4,-256,52,10,-19,42
8425,-3,-258,54,10,-13,45
8430,0,-260,57,11,-10,45
8435,-1,-256,50,9,-13,47
8440,-3,-256,52,7,-15,50
8445,0,-259,50,6,-12,51
8450,-1,-256,54,1,-7,51
8455,0,-260,53,-2,-3,55
8460,-1,-259,53,-4,-2,58
8465,-2,-258,56,-4,-3,60
8470,0,-261,51,-4,-2,61
8475,-1,-259,55,-6,-2,63
8480,-3,-262,52,-6,-1,65
8485,-4,-258,50,-8,-1,63
8490,-3,-261,50,-10,-1,63
8495,-2,-263,53,-8,-3,62
8500,-4,-260,55,-9,-5,64
8505,-2,-259,53,-11,-6,64
8510,-4,-260,51,-12,-4,65
8515,-5,-261,55,-16,-3,65
8520,-2,-263,55,-23,-2,66
8525,-3,-262,57,-32,0,66
8530,-2,-261,56,-36,3,63
8535,-6,-262,56,-33,5,61
8540,-1,-262,57,-29,2,60
8545,2,-261,54,-21,1,62
8550,-4,-260,52,-16,4,60
8555,0,-259,54,-14,7,59
8560,1,-262,56,-17,9,57
8565,2,-258,55,-19,11,57
8570,1,-260,52,-24,14,57
8575,2,-263,53,-25,19,55
8580,-2,-259,55,-26,18,51
8585,-2,-259,52,-26,21,47
8590,-5,-261,55,-26,24,39
8595,-6,-264,49,-20,22,33
8600,-4,-262,57,-8,18,26
8605,-2,-262,57,3,14,22
8610,-6,-263,56,6,11,13
8615,-2,-260,55,2,10,8
8620,1,-260,53,-2,15,10
8625,-3,-260,57,-5,21,12
8630,0,-266,56,-3,25,13
8635,-3,-265,58,9,26,7
8640,-3,-263,54,20,21,3
8645,2,-264,55,27,16,0
8650,1,-261,55,25,15,-3
8655,0,-258,56,22,24,-3
8660,1,-261,56,18,31,-3
8665,-5,-262,58,18,35,-5
8670,-7,-260,61,19,35,-6
8675,-1,-259,56,10,28,-11
8680,4,-260,57,-9,16,-21
8685,6,-260,56,-15,26,-20
8690,5,-264,55,-4,51,-14
8695,4,-262,51,3,70,-8
8700,4,-263,56,0,89,-4
8705,2,-257,60,2,99,0
8710,2,-261,52,16,104,7
8715,1,-258,57,34,107,11
8720,-5,-254,52,38,105,15
8725,-5,-255,60,25,102,15
8730,-10,-253,56,-6,91,5
8735,-6,-258,59,-49,76,-11
8740,0,-258,54,-101,60,-32
8745,4,-258,53,-136,62,-39
8750,3,-258,57,-132,85,-32
8755,-7,-258,55,-109,102,-29
8760,-3,-256,53,-88,110,-29
8765,-4,-258,52,-78,110,-34
8770,-6,-255,53,-77,106,-39
8775,-2,-256,56,-78,106,-41
8780,-5,-253,55,-79,110,-43
8785,-6,-250,56,-80,120,-45
8790,-5,-252,53,-80,130,-47
8795,-8,-253,55,-88,129,-48
8800,-10,-253,52,-102,114,-51
8805,-12,-256,57,-127,96,-51
8810,-9,-257,57,-152,78,-50
8815,-12,-261,56,-174,61,-49
8820,-18,-268,56,-186,45,-48
8825,-17,-271,54,-180,28,-49
8830,-14,-280,49,-157,13,-49
8835,-10,-281,46,-119,2,-49
8840,-6,-284,40,-75,-3,-50
8845,-4,-284,39,-28,0,-52
8850,-6,-281,35,20,11,-53
8855,-5,-275,36,61,28,-51
8860,-5,-276,35,93,46,-49
8865,-5,-274,37,118,64,-46
8870,-1,-269,39,136,81,-43
8875,-4,-265,40,147,95,-39
8880,-3,-262,46,157,109,-37
8885,-5,-260,54,165,120,-32
8890,-5,-261,52,171,128,-29
8895,-3,-259,56,177,130,-25
8900,-1,-260,60,184,130,-20
8905,2,-258,61,189,127,-16
8910,-2,-256,59,191,120,-11
8915,2,-257,62,190,110,-7
8920,1,-257,58,185,100,-2
8925,-3,-256,64,175,92,3
8930,-1,-253,64,156,85,5
8935,-3,-252,62,135,76,3
8940,-4,-255,62,112,66,5
8945,-8,-253,60,91,56,3
8950,-10,-258,60,69,44,1
8955,-7,-256,62,48,34,-4
8960,-11,-256,60,31,26,-6
8965,-8,-259,60,17,17,-6
8970,-6,-259,56,6,11,-9
8975,-10,-260,56,-3,9,-11
8980,-7,-259,56,-14,9,-11
8985,-4,-262,57,-20,10,-11
8990,-4,-259,52,-23,11,-11
8995,-3,-261,54,-26,12,-11
9000,-6,-261,51,-29,11,-10
9005,-6,-260,48,-30,12,-8
9010,-5,-259,52,-28,14,-4
9015,-4,-258,49,-26,18,-3
9020,-2,-259,49,-22,25,1
9025,-6,-260,50,-20,31,3
9030,-8,-258,53,-18,38,7
9035,-5,-257,50,-12,43,10
9040,-7,-259,56,-7,49,11
9045,-4,-258,52,-2,53,12
9050,-7,-258,56,4,57,11
9055,-6,-258,55,10,59,11
9060,-3,-260,54,16,61,9
9065,2,-263,57,20,61,3
9070,-8,-259,54,14,60,-11
9075,-7,-256,61,9,67,-16
9080,-6,-257,59,20,73,-15
9085,-6,-260,61,21,75,-16
9090,-5,-260,58,19,78,-22
9095,-8,-258,63,19,78,-24
9100,-7,-262,56,21,79,-23
9105,-5,-262,56,21,80,-24
9110,-1,-261,57,17,81,-26
9115,-4,-267,62,13,81,-28
9120,-6,-262,60,14,81,-28
9125,-4,-261,58,13,79,-25
9130,-4,-259,61,14,78,-24
9135,-3,-262,58,15,76,-24
9140,-6,-260,55,14,74,-23
9145,1,-264,60,14,74,-22
9150,-2,-262,59,15,74,-21
9155,-5,-261,58,16,74,-21
9160,-8,-260,56,17,74,-21
9165,-3,-264,61,19,74,-20
9170,-4,-262,55,21,72,-20
9175,-6,-260,54,25,72,-19
9180,-6,-260,58,25,72,-19
9185,-6,-259,57,24,73,-17
9190,-6,-256,60,22,74,-16
9195,-5,-259,57,20,74,-15
9200,-9,-256,61,19,73,-14
9205,-9,-256,63,19,72,-14
9210,-7,-257,60,18,71,-13
9215,-5,-256,57,19,72,-11
9220,-9,-256,62,20,70,-8
9225,-7,-257,60,20,68,-9
9230,-5,-257,63,19,69,-7
9235,-5,-258,65,19,68,-6
9240,-10,-256,59,17,68,-5
9245,-5,-259,60,14,69,-4
9250,-7,-258,59,12,67,-2
9255,-6,-257,60,11,67,-2
9260,-7,-258,64,7,69,-4
9265,-9,-259,63,5,68,-4
9270,-7,-257,63,4,70,-5
9275,-10,-257,62,1,69,-6
9280,-9,-257,58,-2,70,-10
9285,-11,-256,64,-7,71,-11
9290,-4,-257,61,-10,71,-13
9295,-5,-258,60,-13,73,-13
9300,-6,-259,63,-18,73,-14
9305,-6,-257,59,-20,74,-18
9310,-3,-259,61,-21,73,-20
9315,-5,-256,60,-23,73,-19
9320,-5,-259,62,-26,73,-19
9325,-8,-257,58,-26,74,-20
9330,-5,-260,63,-29,72,-22
9335,-4,-260,60,-29,71,-23
9340,-3,-262,59,-29,70,-22
9345,-3,-258,56,-28,70,-23
9350,-1,-260,58,-27,68,-22
9355,-3,-259,60,-26,67,-21
9360,-6,-259,61,-26,67,-22
9365,-6,-259,59,-28,65,-20
9370,-4,-257,59,-27,66,-20
9375,-6,-258,59,-26,66,-20
9380,0,-262,58,-27,66,-19
9385,-7,-259,61,-28,66,-17
9390,-7,-260,62,-28,66,-18
9395,-4,-259,62,-27,66,-18
9400,-5,-261,55,-25,66,-16
9405,-6,-258,55,-25,65,-14
9410,-6,-260,58,-25,65,-15
9415,-7,-260,54,-24,64,-14
9420,-4,-262,61,-23,62,-12
9425,0,-263,60,-22,61,-11
9430,-8,-258,60,-18,62,-10
9435,-1,-259,58,-17,61,-9
9440,-4,-260,59,-16,61,-10
9445,-3,-260,57,-15,60,-7
9450,-1,-258,59,-14,62,-7
9455,-6,-257,62,-14,62,-8
9460,-3,-261,59,-15,62,-7
9465,-1,-261,59,-15,61,-8
9470,-2,-257,61,-16,63,-9
9475,-1,-259,59,-17,63,-10
9480,-4,-260,57,-20,64,-10
9485,-3,-259,60,-24,65,-11
9490,-3,-261,59,-26,64,-12
9495,-6,-259,61,-28,67,-13
9500,-4,-257,59,-31,69,-13
9505,-3,-259,61,-36,71,-14
9510,-4,-259,58,-38,71,-14
9515,-2,-258,61,-40,72,-14
9520,1,-259,62,-43,73,-16
9525,-4,-259,60,-45,74,-15
9530,-2,-257,62,-46,77,-16
9535,-2,-258,60,-47,78,-18
9540,-2,-260,61,-49,82,-17
9545,-3,-260,61,-47,83,-19
9550,-7,-257,59,-47,84,-18
9555,-5,-257,62,-47,85,-19
9560,-2,-259,63,-47,85,-19
9565,-5,-258,61,-48,85,-19
9570,-5,-255,58,-49,86,-18
9575,-4,-256,59,-53,86,-19
9580,-4,-256,59,-55,85,-19
9585,-5,-258,58,-59,85,-18
9590,-3,-257,63,-63,87,-17
9595,-4,-258,58,-65,87,-17
9600,-3,-260,57,-66,87,-17
9605,-1,-264,59,-67,85,-15
9610,-2,-259,60,-67,84,-14
9615,-3,-260,57,-69,84,-15
9620,-4,-259,55,-70,84,-14
9625,-4,-259,59,-70,84,-13
9630,-3,-258,56,-71,83,-12
9635,-5,-258,58,-71,82,-9
9640,-3,-259,61,-71,82,-10
9645,-5,-260,54,-69,81,-11
9650,-3,-261,59,-66,81,-10
9655,-2,-259,57,-64,81,-10
9660,-3,-261,56,-63,82,-10
9665,-2,-259,57,-62,83,-10
9670,-6,-260,59,-61,83,-10
9675,-5,-260,56,-61,84,-10
9680,-3,-260,57,-62,83,-11
9685,-3,-260,58,-63,86,-10
9690,-5,-259,56,-65,84,-12
9695,-3,-257,54,-67,85,-13
9700,-5,-259,53,-69,85,-13
9705,-6,-261,54,-72,85,-13
9710,2,-259,55,-72,86,-14
9715,0,-260,54,-73,87,-13
9720,-1,-261,54,-74,87,-13
9725,-3,-260,55,-72,87,-14
9730,-3,-261,53,-72,89,-14
9735,-1,-262,53,-69,89,-13
9740,0,-263,51,-66,89,-13
9745,-4,-259,52,-63,88,-12
9750,-2,-261,47,-62,89,-12
9755,-3,-262,54,-59,90,-12
9760,-4,-261,53,-56,89,-12
9765,-5,-262,49,-53,88,-11
9770,-3,-262,54,-50,88,-11
9775,-3,-261,52,-49,87,-10
9780,-3,-261,51,-48,87,-8
9785,-4,-260,55,-47,84,-7
9790,0,-261,52,-46,84,-6
9795,1,-262,55,-45,84,-6
9800,-1,-264,53,-43,82,-5
9805,-2,-261,54,-42,82,-5
9810,-2,-260,54,-38,81,-4
9815,-5,-261,57,-38,82,-3
9820,5,-262,52,-36,82,-2
9825,-1,-260,53,-37,83,-2
9830,1,-261,51,-37,82,-1
9835,0,-262,54,-37,83,-2
9840,-6,-261,52,-37,83,-2
9845,-3,-259,54,-36,83,-2
9850,0,-262,52,-36,84,-2
9855,-4,-263,53,-36,84,-3
9860,-2,-260,53,-36,85,-3
9865,-4,-262,53,-34,84,-4
9870,3,-261,54,-35,85,-6
9875,-1,-261,51,-34,85,-7
9880,-5,-263,54,-34,87,-7
9885,-4,-258,54,-35,88,-6
9890,-3,-259,51,-35,89,-6
9895,1,-263,53,-36,90,-7
9900,-1,-258,49,-34,88,-8
9905,0,-260,50,-33,88,-9
9910,-2,-261,51,-33,89,-9
9915,-4,-261,51,-33,88,-9
9920,-3,-261,51,-34,88,-9
9925,-1,-262,52,-33,89,-10
9930,-2,-260,51,-33,87,-11
9935,0,-261,52,-36,88,-12
9940,0,-259,48,-37,88,-12
9945,-1,-263,53,-39,88,-12
9950,-4,-257,51,-40,86,-12
9955,-4,-260,51,-41,86,-13
9960,-2,-261,47,-42,85,-13
9965,-3,-262,51,-43,83,-12
9970,-5,-260,53,-42,84,-12
9975,-4,-257,51,-43,83,-13
9980,-2,-261,50,-42,82,-13
9985,-2,-260,47,-42,81,-14
9990,-2,-262,50,-41,80,-13
9995,-1,-260,53,-42,80,-13
10000,-2,-259,53,-41,81,-12
10005,0,-261,51,-39,80,-11
10010,-3,-263,53,-39,78,-12
10015,-1,-261,48,-39,79,-11
10020,-5,-259,50,-38,77,-11
10025,-6,-261,54,-37,78,-11
10030,-2,-260,49,-34,80,-11
10035,-4,-261,50,-33,77,-11
10040,-2,-262,49,-30,76,-11
10045,-1,-261,50,-29,75,-11
10050,3,-262,48,-28,75,-11
10055,-1,-263,51,-27,73,-11
10060,2,-264,50,-25,73,-11
10065,-5,-263,51,-23,72,-11
10070,-2,-258,48,-21,69,-11
10075,-1,-263,49,-19,70,-10
10080,1,-266,48,-17,69,-11
10085,1,-265,58,-15,68,-11
10090,-2,-259,52,-12,68,-10
10095,-1,-259,51,-12,69,-11
10100,2,-260,52,-11,70,-12
10105,0,-263,54,-8,71,-11
10110,-1,-262,52,-7,71,-10
10115,-4,-259,50,-7,70,-11
10120,-3,-259,50,-6,71,-12
10125,-1,-262,52,-4,71,-11
10130,0,-260,50,-2,72,-11
10135,-1,-263,55,-2,72,-13
10140,-3,-260,51,0,73,-11
10145,-5,-264,53,0,72,-10
10150,-2,-259,51,-1,70,-11
10155,-5,-259,51,-1,70,-10
10160,1,-259,51,-3,71,-10
10165,-3,-259,54,-6,71,-9
10170,-4,-260,50,-7,69,-8
10175,-4,-259,55,-10,69,-9
10180,-4,-258,50,-13,68,-9
10185,-4,-259,53,-16,66,-9
10190,-1,-261,49,-19,65,-9
10195,-3,-260,56,-21,65,-9
10200,-4,-263,52,-22,66,-8
10205,0,-259,53,-23,66,-9
10210,-6,-259,53,-24,64,-7
10215,0,-263,46,-23,63,-9
10220,2,-259,52,-25,62,-7
10225,-4,-260,56,-26,60,-8
10230,-4,-261,54,-27,60,-6
10235,-3,-261,51,-27,61,-6
10240,-4,-262,51,-28,61,-7
10245,-4,-259,52,-28,61,-5
10250,-4,-261,53,-29,60,-6
10255,-4,-259,52,-30,57,-5
10260,-2,-260,53,-29,58,-4
10265,-2,-263,50,-30,55,-5
10270,-3,-260,49,-30,56,-5
10275,-3,-261,50,-30,55,-5
10280,-3,-258,52,-30,56,-5
10285,0,-261,54,-29,56,-5
10290,-2,-261,52,-29,55,-5
10295,1,-261,53,-28,56,-5
10300,-1,-261,50,-28,57,-6
10305,-9,-267,56,-27,56,-5
10310,-1,-261,55,-25,56,-6
10315,0,-262,50,-22,56,-6
10320,-3,-258,54,-22,56,-6
10325,-6,-259,52,-21,54,-6
10330,-2,-261,52,-22,53,-7
10335,-2,-262,48,-22,53,-7
10340,2,-261,48,-23,52,-6
10345,1,-263,52,-25,52,-6
10350,-2,-262,51,-26,52,-6
10355,-3,-262,51,-27,51,-6
10360,0,-262,51,-25,50,-8
10365,0,-262,49,-24,49,-6
10370,-2,-264,48,-23,50,-6
10375,3,-258,47,-23,47,-4
10380,-3,-259,49,-23,47,-5
10385,-1,-261,51,-23,48,-5
10390,-1,-261,48,-24,50,-3
10395,-3,-258,50,-25,50,-3
10400,-1,-261,48,-26,51,-3
10405,1,-263,52,-25,51,-3
10410,1,-264,51,-24,54,-2
10415,1,-261,53,-21,54,-3
10420,2,-264,51,-20,55,-4
10425,-2,-260,50,-18,54,-1
10430,3,-261,52,-16,55,0
10435,-1,-259,49,-15,58,0
10440,-3,-261,48,-16,56,-1
10445,1,-264,52,-16,57,1
10450,-2,-264,48,-18,58,-1
10455,-3,-257,51,-18,58,0
10460,3,-261,49,-20,58,0
10465,-2,-261,47,-22,59,0
10470,-2,-262,51,-23,59,-1
10475,-2,-262,46,-24,59,-1
10480,1,-266,50,-25,60,-1
10485,4,-264,51,-25,60,-1
10490,1,-266,53,-23,61,-1
10495,-2,-257,53,-23,62,-2
10500,1,-263,51,-22,63,-2
10505,-2,-260,51,-20,64,-2
10510,-4,-260,50,-19,66,-2
10515,-1,-260,53,-18,68,-2
10520,2,-261,48,-18,66,-2
10525,3,-264,51,-16,66,-2
10530,2,-263,51,-17,67,-2
10535,-3,-260,49,-16,69,-2
10540,-2,-260,48,-16,68,-3
10545,1,-258,50,-17,69,-3
10550,3,-263,50,-15,69,-3
10555,-2,-260,52,-17,70,-3
10560,-1,-261,50,-16,69,-2
10565,-4,-259,54,-17,69,-2
10570,1,-260,46,-15,69,-2
10575,-1,-261,51,-14,69,-1
10580,-2,-261,50,-14,69,-2
10585,-2,-263,48,-12,68,-3
10590,-1,-263,46,-12,68,0
10595,-5,-259,51,-12,68,-1
10600,-1,-261,52,-12,68,1
10605,0,-261,48,-11,67,1
10610,0,-262,48,-11,68,1
10615,-1,-262,48,-12,68,0
10620,-3,-262,55,-13,67,-1
10625,-3,-261,53,-11,67,0
10630,-3,-259,49,-10,67,1
10635,-1,-261,49,-7,68,0
10640,0,-265,51,-8,67,0
10645,-1,-264,51,-7,67,0
10650,0,-261,52,-7,69,-1
10655,-1,-260,52,-7,68,1
10660,-3,-258,49,-8,67,1
10665,-1,-260,51,-8,69,2
10670,-3,-263,52,-8,68,1
10675,-4,-262,51,-7,66,-1
10680,-3,-263,50,-6,69,-1
10685,0,-260,55,-5,69,0
10690,0,-261,51,-6,68,-1
10695,-1,-263,50,-3,70,-1
10700,0,-260,50,-4,72,0
10705,2,-262,51,-5,71,0
10710,-4,-261,52,-3,70,-1
10715,0,-258,50,-2,69,-1
10720,-1,-262,52,-1,70,-2
10725,2,-263,45,-2,72,-2
10730,1,-256,55,-2,72,-1
10735,2,-263,49,-4,70,0
10740,-2,-261,53,-3,69,0
10745,-1,-260,51,-5,68,0
10750,-3,-262,49,-6,70,1
10755,-1,-262,54,-7,71,0
10760,-2,-262,50,-7,71,0
10765,-4,-261,52,-7,71,0
10770,0,-262,48,-8,72,-1
10775,-2,-260,52,-7,71,-1
10780,0,-262,53,-8,72,0
10785,-5,-262,50,-8,72,1
10790,0,-261,54,-7,71,1
10795,-3,-260,50,-8,70,0
10800,0,-261,50,-8,71,1
10805,-1,-261,53,-7,71,-1
10810,-3,-261,53,-8,72,1
10815,-3,-262,54,-9,71,2
10820,-3,-260,53,-10,71,1
10825,1,-262,52,-10,71,1
10830,-1,-260,49,-11,72,1
10835,-4,-258,50,-10,70,2
10840,0,-263,57,-10,70,2
10845,-2,-258,50,-9,70,0
10850,-3,-263,51,-8,69,3
10855,-2,-263,50,-7,67,3
10860,-3,-259,48,-7,69,3
10865,-4,-260,51,-9,70,4
10870,-5,-260,51,-9,68,5
10875,-4,-259,47,-8,68,3
10880,0,-262,50,-8,68,4
10885,-5,-260,53,-9,68,5
10890,0,-262,51,-9,68,3
10895,-5,-259,48,-10,68,4
10900,-2,-262,49,-10,68,4
10905,-2,-258,53,-10,68,3
10910,-3,-262,48,-10,68,4
10915,-4,-261,50,-11,69,5
10920,-1,-260,50,-12,69,4
10925,-1,-262,49,-12,70,3
10930,-1,-262,49,-13,68,4
10935,-1,-262,52,-14,68,4
10940,-2,-259,50,-13,69,3
10945,-4,-258,55,-12,69,3
10950,-3,-261,51,-13,69,3
10955,-4,-259,52,-12,68,4
10960,-1,-262,48,-12,68,3
10965,-4,-261,52,-12,69,3
10970,-4,-260,52,-11,69,2
10975,-3,-260,52,-11,68,3
10980,-6,-262,56,-13,68,2
10985,0,-262,49,-11,68,2
10990,-1,-262,47,-10,67,4
10995,0,-260,53,-10,69,3
11000,-3,-263,50,-10,68,3
11005,-3,-260,50,-10,66,4
11010,0,-263,48,-9,67,4
11015,-4,-261,51,-9,66,4
11020,-2,-258,50,-9,66,4
11025,-5,-260,49,-8,66,4
11030,0,-264,51,-9,65,4
11035,-1,-262,50,-9,65,5
11040,-1,-263,54,-10,65,4
11045,2,-262,50,-11,64,5
11050,-4,-260,54,-13,65,5
11055,-4,-259,48,-12,65,5
11060,-2,-260,56,-12,64,5
11065,-2,-261,49,-13,63,5
11070,-1,-262,51,-14,64,6
11075,-2,-261,49,-15,65,5
11080,-3,-262,54,-17,65,5
11085,-6,-259,53,-17,64,5
11090,-3,-261,51,-16,64,6
11095,-3,-260,47,-15,64,5
11100,-5,-264,51,-13,63,4
11105,-2,-261,51,-11,64,5
11110,-3,-259,51,-12,64,5
11115,-6,-261,53,-10,64,5
11120,-4,-259,47,-9,63,4
11125,-3,-260,49,-10,65,3
11130,-5,-259,49,-11,66,3
11135,-6,-259,54,-12,65,3
11140,-4,-259,52,-12,64,4
11145,-3,-258,51,-12,64,2
11150,-1,-264,49,-11,62,2
11155,0,-262,51,-10,61,3
11160,-3,-261,53,-9,62,3
11165,-2,-261,51,-10,61,3
11170,-2,-262,47,-11,60,2
11175,1,-261,53,-13,60,3
11180,-5,-259,47,-14,60,4
11185,-1,-263,48,-15,62,6
11190,-2,-261,53,-14,61,4
11195,-4,-260,52,-13,60,3
11200,-4,-260,53,-10,61,3
11205,-3,-260,51,-7,61,3
11210,-4,-261,51,-5,63,4
11215,-2,-262,55,-2,62,3
11220,-5,-261,51,-2,64,5
11225,0,-262,53,-1,63,3
11230,-4,-261,51,-2,61,3
11235,-2,-264,51,-3,62,4
11240,0,-260,50,-7,59,5
11245,-5,-263,53,-8,59,6
11250,-4,-262,51,-9,59,5
11255,-4,-262,54,-12,59,6
11260,-3,-258,52,-12,60,7
11265,-10,-264,52,-12,59,6
11270,-2,-261,54,-11,59,5
11275,-1,-261,54,-10,59,5
11280,-4,-263,51,-9,60,5
11285,-4,-263,47,-8,61,5
11290,-2,-265,51,-8,60,5
11295,-3,-259,46,-6,61,5
11300,-6,-262,53,-6,60,4
11305,-2,-261,54,-6,62,5
11310,1,-261,46,-4,62,6
11315,-3,-260,52,-3,63,3
11320,-2,-260,50,-3,64,3
11325,-4,-257,53,-4,62,3
11330,-3,-259,53,-4,64,4
11335,-4,-258,51,-4,62,5
11340,-4,-260,51,-5,61,4
11345,-3,-260,53,-6,61,4
11350,-4,-261,51,-5,62,4
11355,-4,-261,51,-6,61,6
11360,-6,-259,53,-7,62,7
11365,-1,-258,49,-5,60,7
11370,-1,-263,53,-6,60,8
11375,-2,-261,51,-7,60,8
11380,-3,-260,50,-10,60,9
11385,-4,-259,50,-11,61,9
11390,-2,-260,50,-13,62,7
11395,-6,-262,51,-14,61,8
11400,-2,-263,50,-15,61,7
11405,0,-259,50,-15,63,6
11410,-5,-261,53,-14,64,5
11415,-3,-261,53,-15,63,6
11420,0,-259,52,-14,63,4
11425,-6,-260,50,-15,64,5
11430,-6,-261,52,-16,64,5
11435,-4,-260,54,-15,63,4
11440,-5,-258,54,-17,64,4
11445,-2,-262,51,-17,64,5
11450,0,-264,51,-16,65,4
11455,-1,-262,52,-18,65,4
11460,-4,-261,55,-18,64,4
11465,-2,-263,52,-18,63,5
11470,-2,-262,50,-18,64,3
11475,-4,-262,48,-15,64,4
11480,-2,-264,57,-16,64,2
11485,-4,-262,49,-15,65,3
11490,-4,-262,51,-15,63,3
11495,-6,-259,52,-14,63,3
11500,-3,-263,49,-13,63,3
11505,-2,-261,52,-13,63,1
11510,-1,-261,49,-13,63,2
11515,-4,-261,51,-13,63,1
11520,-4,-263,50,-13,64,0
11525,-6,-262,50,-13,62,1
11530,-2,-262,51,-14,62,-1
11535,3,-267,50,-15,63,-1
11540,0,-264,52,-15,62,-1
11545,-3,-261,51,-14,62,-2
11550,-4,-262,47,-12,61,-2
11555,-5,-263,50,-10,60,-2
11560,-3,-259,49,-10,60,-1
11565,-3,-262,50,-9,61,-2
11570,-1,-263,49,-8,61,0
11575,-4,-263,49,-7,61,-1
11580,2,-264,49,-6,63,-2
11585,-1,-261,51,-4,62,-2
11590,-4,-261,50,-3,63,-1
11595,-4,-260,49,-2,63,-2
11600,-3,-264,50,0,62,-1
11605,-3,-263,51,3,62,-3
11610,-1,-261,54,4,63,-1
11615,0,-263,50,5,62,-2
11620,-3,-262,49,6,61,-3
11625,-1,-263,55,7,61,-1
11630,-2,-263,50,8,60,-1
11635,-5,-261,49,9,61,0
11640,-3,-261,51,10,61,0
11645,0,-263,49,10,60,-2
11650,-3,-262,50,10,60,-1
11655,-4,-261,52,9,60,-1
11660,-4,-263,54,11,60,-1
11665,-2,-260,50,10,62,-2
11670,-1,-263,48,12,62,-3
11675,-3,-261,51,13,63,-1
11680,-3,-262,49,13,63,-1
11685,2,-260,53,14,63,0
11690,-1,-261,47,15,63,0
11695,-4,-262,50,14,64,-1
11700,0,-263,55,15,63,-2
11705,-2,-262,51,15,64,-2
11710,-1,-261,49,14,66,-3
11715,-3,-263,53,14,67,-3
11720,-4,-261,48,12,69,-4
11725,-3,-263,50,11,69,-5
11730,-1,-263,47,10,69,-4
11735,-2,-257,49,8,68,-4
11740,-1,-260,50,5,69,-6
11745,-3,-260,51,4,69,-5
11750,-1,-263,53,3,69,-6
11755,-4,-258,48,0,69,-7
11760,-1,-259,52,-4,71,-6
11765,-1,-259,48,-6,70,-5
11770,1,-260,48,-8,71,-5
11775,-3,-261,48,-10,71,-7
11780,-2,-262,50,-14,71,-7
11785,-5,-260,51,-16,71,-6
11790,-4,-262,50,-19,70,-6
11795,-5,-260,49,-21,72,-6
11800,0,-261,44,-24,72,-6
11805,1,-261,52,-26,73,-7
11810,-4,-259,49,-28,72,-6
11815,-3,-261,51,-28,73,-7
11820,-2,-262,49,-30,72,-7
11825,-4,-260,49,-31,74,-5
11830,1,-261,48,-33,75,-7
11835,-2,-260,51,-35,76,-5
11840,-5,-259,46,-38,75,-6
11845,-2,-262,52,-40,77,-5
11850,-2,-261,53,-41,77,-6
11855,-4,-260,51,-42,78,-7
11860,-3,-260,49,-42,80,-5
11865,-2,-261,53,-42,79,-6
11870,-5,-259,49,-41,80,-5
11875,-4,-262,45,-41,81,-5
11880,-4,-261,47,-42,81,-5
11885,-4,-263,46,-43,82,-5
11890,-4,-263,45,-44,82,-6
11895,-2,-262,49,-45,82,-5
11900,-2,-257,49,-45,84,-5
11905,-2,-260,44,-44,83,-4
11910,-2,-265,48,-43,84,-3
11915,-4,-260,47,-42,85,-4
11920,-5,-263,48,-39,85,-5
11925,0,-264,47,-36,83,-5
11930,-4,-265,49,-33,84,-5
11935,-4,-262,48,-30,83,-4
11940,-5,-264,53,-29,83,-5
11945,-5,-263,52,-26,82,-6
11950,-1,-265,47,-23,81,-5
11955,-7,-258,51,-21,81,-4
11960,-4,-264,50,-20,78,-5
11965,-3,-261,48,-19,78,-3
11970,-4,-260,48,-19,76,-3
11975,-6,-263,47,-19,74,-2
11980,-3,-260,49,-21,73,-2
11985,-5,-263,49,-21,73,-2
11990,-3,-262,49,-21,73,-1
11995,-5,-260,51,-20,70,0
