timestamp,acc_x,acc_y,acc_z,gyro_x,gyro_y,gyro_z
0,31,-240,-35,33,35,-7
5,32,-241,-40,37,37,-8
10,34,-241,-34,38,37,-7
15,31,-240,-43,38,34,-6
20,35,-244,-41,36,35,-5
25,29,-248,-41,34,35,-6
30,32,-243,-40,32,35,-5
35,31,-247,-39,30,33,-7
40,30,-242,-41,27,30,-7
45,32,-243,-41,25,27,-5
50,34,-240,-40,23,24,-7
55,30,-243,-43,22,22,-7
60,31,-246,-36,21,19,-6
65,32,-245,-41,21,19,-5
70,35,-245,-37,23,18,-5
75,30,-249,-41,26,17,-5
80,26,-247,-39,28,18,-4
85,34,-244,-38,30,18,-4
90,35,-247,-34,31,19,-2
95,34,-243,-42,32,21,-5
100,33,-243,-39,34,20,-3
105,34,-244,-37,37,20,-3
110,29,-244,-41,39,22,-4
115,32,-243,-41,41,22,-4
120,32,-244,-39,42,23,-3
125,33,-245,-38,45,25,-5
130,30,-240,-45,45,25,-4
135,33,-245,-41,45,27,-5
140,33,-241,-40,44,26,-7
145,34,-247,-41,43,27,-8
150,31,-244,-39,43,27,-6
155,33,-243,-44,42,24,-7
160,32,-243,-36,43,24,-6
165,34,-243,-41,42,24,-5
170,29,-241,-42,44,24,-7
175,32,-241,-43,46,25,-7
180,32,-247,-38,48,25,-7
185,28,-240,-44,50,24,-9
190,31,-243,-40,50,22,-9
195,34,-242,-39,50,21,-9
200,35,-246,-41,51,20,-11
205,32,-243,-42,53,20,-11
210,32,-244,-40,55,19,-13
215,32,-242,-37,57,19,-13
220,32,-243,-36,59,20,-13
225,34,-245,-41,62,22,-14
230,33,-244,-41,64,22,-13
235,34,-248,-41,64,23,-11
240,32,-241,-41,63,24,-11
245,35,-245,-40,62,24,-8
250,33,-245,-43,61,24,-9
255,33,-247,-38,57,23,-9
260,32,-244,-37,54,22,-9
265,32,-245,-41,51,21,-9
270,35,-243,-40,47,20,-9
275,36,-245,-41,46,20,-10
280,33,-244,-41,45,16,-9
285,28,-243,-37,44,16,-11
290,34,-252,-38,45,11,-10
295,31,-243,-39,45,8,-12
300,33,-246,-42,44,4,-12
305,33,-245,-38,45,2,-12
310,34,-247,-38,45,1,-13
315,31,-245,-40,46,1,-12
320,33,-245,-39,48,2,-13
325,34,-243,-41,49,2,-15
330,34,-246,-36,51,4,-14
335,34,-244,-36,51,6,-15
340,31,-240,-40,49,8,-15
345,32,-247,-34,48,11,-14
350,36,-243,-40,48,12,-13
355,34,-242,-40,46,14,-13
360,34,-244,-43,45,16,-13
365,35,-244,-39,43,17,-13
370,32,-247,-38,45,20,-13
375,32,-244,-42,47,21,-13
380,32,-241,-40,50,23,-13
385,35,-244,-46,53,23,-13
390,33,-243,-46,55,23,-13
395,36,-235,-39,56,21,-14
400,32,-246,-42,55,20,-15
405,34,-241,-45,54,18,-15
410,34,-243,-41,52,16,-15
415,30,-243,-36,50,14,-13
420,34,-243,-40,50,12,-14
425,32,-243,-40,50,10,-14
430,30,-245,-37,50,9,-13
435,33,-245,-34,49,7,-13
440,31,-243,-34,49,5,-13
445,28,-241,-33,51,6,-14
450,32,-244,-41,53,6,-14
455,30,-244,-43,57,7,-15
460,33,-243,-38,62,8,-15
465,33,-243,-36,67,8,-15
470,33,-243,-40,74,10,-12
475,29,-238,-38,81,12,-11
480,33,-241,-42,85,14,-10
485,33,-243,-41,85,16,-9
490,33,-242,-45,86,18,-10
495,33,-240,-40,81,18,-10
500,34,-240,-44,75,19,-10
505,29,-242,-36,68,19,-11
510,30,-232,-40,58,18,-12
515,31,-243,-42,49,17,-13
520,31,-243,-40,41,17,-16
525,33,-246,-41,36,16,-16
530,31,-246,-37,34,14,-17
535,33,-243,-38,34,12,-18
540,31,-248,-40,38,12,-19
545,32,-245,-37,44,11,-20
550,32,-245,-40,50,11,-17
555,36,-245,-39,57,10,-15
560,36,-246,-37,64,11,-15
565,33,-245,-39,68,10,-15
570,34,-247,-36,72,11,-12
575,34,-243,-38,74,9,-11
580,31,-238,-41,74,7,-11
585,33,-244,-41,74,6,-11
590,30,-242,-40,73,5,-8
595,36,-243,-39,71,3,-8
600,33,-243,-42,68,3,-8
605,37,-244,-41,67,1,-8
610,32,-241,-37,63,1,-9
615,34,-241,-42,60,1,-8
620,32,-241,-43,59,1,-8
625,28,-242,-40,54,3,-10
630,36,-245,-39,52,3,-9
635,33,-242,-37,51,5,-11
640,33,-243,-39,52,5,-13
645,33,-241,-41,49,6,-13
650,34,-247,-36,47,8,-15
655,37,-244,-38,47,9,-16
660,33,-243,-40,45,11,-15
665,34,-246,-38,45,13,-15
670,32,-244,-33,46,13,-15
675,32,-243,-40,46,13,-16
680,34,-245,-36,46,14,-16
685,34,-245,-37,47,14,-15
690,30,-243,-37,46,15,-14
695,35,-246,-38,44,16,-15
700,36,-245,-37,42,17,-16
705,33,-244,-39,40,17,-17
710,31,-242,-42,39,16,-17
715,34,-244,-39,41,15,-17
720,34,-246,-38,44,15,-16
725,33,-244,-43,47,13,-14
730,33,-247,-40,51,12,-13
735,33,-246,-39,56,10,-11
740,32,-242,-41,59,10,-10
745,34,-242,-40,62,8,-10
750,32,-243,-35,62,6,-9
755,32,-242,-42,62,3,-8
760,29,-241,-40,60,1,-6
765,31,-242,-34,57,1,-6
770,31,-239,-42,52,-1,-6
775,36,-243,-41,49,0,-7
780,29,-245,-41,46,-1,-6
785,34,-244,-41,43,1,-6
790,34,-245,-39,42,2,-7
795,35,-243,-35,41,1,-7
800,34,-245,-39,39,4,-8
805,33,-241,-40,40,6,-8
810,35,-247,-40,40,8,-8
815,35,-247,-37,43,10,-9
820,30,-245,-42,43,11,-9
825,36,-247,-39,45,11,-7
830,27,-245,-40,48,11,-9
835,33,-246,-40,53,12,-8
840,32,-246,-39,56,12,-9
845,33,-243,-39,59,13,-9
850,33,-246,-37,63,13,-6
855,30,-243,-36,65,12,-8
860,33,-242,-40,66,13,-9
865,33,-243,-43,66,12,-10
870,34,-246,-37,65,12,-11
875,30,-242,-37,63,10,-10
880,31,-238,-37,62,8,-11
885,37,-243,-39,59,7,-11
890,32,-242,-36,60,6,-9
895,31,-243,-38,58,5,-10
900,32,-244,-45,58,5,-10
905,30,-244,-41,57,4,-9
910,34,-245,-37,56,6,-10
915,33,-245,-42,56,6,-9
920,34,-244,-38,56,5,-9
925,32,-245,-42,55,6,-11
930,32,-242,-41,56,7,-10
935,33,-243,-39,55,8,-12
940,38,-242,-36,56,9,-13
945,34,-242,-39,57,10,-13
950,32,-243,-40,57,10,-13
955,32,-243,-40,57,11,-13
960,31,-242,-39,57,12,-14
965,34,-246,-42,58,14,-16
970,33,-244,-40,58,14,-14
975,29,-241,-39,57,12,-14
980,30,-246,-38,59,12,-15
985,31,-243,-37,58,10,-14
990,33,-243,-41,58,8,-14
995,33,-246,-41,58,6,-11
1000,34,-243,-41,58,3,-12
1005,33,-243,-41,56,0,-11
1010,32,-243,-41,55,-2,-14
1015,33,-243,-41,53,-3,-13
1020,35,-245,-38,52,-6,-13
1025,32,-246,-39,53,-7,-12
1030,30,-242,-44,53,-8,-13
1035,33,-242,-39,54,-10,-13
1040,32,-244,-40,56,-11,-10
1045,35,-246,-40,57,-12,-9
1050,27,-246,-45,61,-13,-7
1055,32,-245,-39,63,-13,-6
1060,31,-244,-40,65,-14,-5
1065,33,-245,-40,65,-14,-3
1070,30,-244,-41,64,-15,-4
1075,33,-245,-40,64,-17,-4
1080,30,-246,-38,61,-16,-3
1085,36,-242,-41,58,-16,-2
1090,30,-242,-37,57,-16,-5
1095,31,-248,-38,58,-15,-5
1100,35,-245,-41,59,-15,-5
1105,33,-244,-39,63,-15,-7
1110,32,-241,-39,68,-15,-7
1115,32,-244,-39,73,-15,-7
1120,34,-244,-36,75,-16,-9
1125,33,-242,-35,75,-15,-9
1130,33,-242,-40,72,-13,-11
1135,29,-238,-40,67,-11,-12
1140,31,-243,-42,62,-11,-14
1145,33,-243,-41,59,-12,-16
1150,28,-242,-39,58,-13,-16
1155,30,-241,-36,55,-18,-15
1160,34,-244,-37,54,-19,-14
1165,30,-242,-37,54,-22,-15
1170,29,-245,-40,55,-24,-15
1175,34,-246,-37,53,-23,-14
1180,33,-242,-38,54,-22,-15
1185,31,-243,-38,54,-20,-16
1190,35,-244,-37,57,-19,-15
1195,31,-241,-38,59,-17,-14
1200,34,-243,-40,63,-18,-14
1205,33,-240,-37,66,-17,-12
1210,36,-245,-37,68,-15,-12
1215,36,-243,-41,68,-14,-11
1220,33,-240,-40,67,-15,-13
1225,36,-246,-42,65,-15,-15
1230,32,-242,-39,63,-17,-15
1235,35,-245,-41,59,-16,-15
1240,33,-243,-39,57,-16,-15
1245,27,-238,-41,55,-16,-14
1250,31,-246,-39,51,-17,-14
1255,33,-243,-35,48,-17,-17
1260,32,-244,-42,46,-18,-17
1265,32,-249,-41,44,-18,-16
1270,34,-246,-41,45,-15,-16
1275,31,-245,-37,46,-12,-14
1280,34,-244,-41,49,-8,-12
1285,34,-247,-42,52,-4,-13
1290,30,-243,-38,58,2,-12
1295,30,-245,-42,60,7,-11
1300,31,-243,-40,62,11,-10
1305,33,-245,-39,64,15,-10
1310,36,-243,-36,67,15,-10
1315,32,-239,-36,68,15,-9
1320,28,-245,-44,68,12,-10
1325,33,-242,-40,68,10,-13
1330,31,-242,-41,67,7,-12
1335,33,-242,-40,64,5,-13
1340,33,-243,-41,61,2,-13
1345,35,-241,-36,59,-1,-14
1350,33,-246,-36,57,-3,-14
1355,31,-241,-41,56,-5,-16
1360,29,-242,-39,55,-5,-15
1365,32,-245,-37,54,-5,-15
1370,33,-244,-39,52,-5,-15
1375,33,-243,-42,51,-5,-15
1380,32,-242,-40,51,-3,-15
1385,33,-245,-38,48,-1,-14
1390,33,-241,-37,48,0,-15
1395,33,-247,-38,49,1,-13
1400,33,-246,-40,50,3,-14
1405,30,-245,-43,53,6,-13
1410,29,-247,-38,54,5,-15
1415,31,-247,-38,54,7,-15
1420,32,-244,-38,51,10,-15
1425,40,-240,-42,49,11,-14
1430,31,-243,-40,48,10,-14
1435,34,-245,-41,48,11,-13
1440,34,-244,-43,49,11,-13
1445,32,-240,-41,50,12,-12
1450,36,-246,-38,54,12,-12
1455,32,-242,-39,57,12,-11
1460,32,-245,-41,60,12,-10
1465,30,-239,-37,61,11,-10
1470,30,-241,-43,61,11,-10
1475,33,-241,-39,58,10,-9
1480,33,-240,-39,54,7,-9
1485,35,-242,-37,50,7,-10
1490,31,-239,-39,45,5,-9
1495,33,-240,-42,43,5,-8
1500,32,-243,-40,41,5,-7
1505,33,-246,-41,41,8,-10
1510,33,-244,-41,40,8,-9
1515,33,-242,-38,41,10,-9
1520,33,-246,-39,43,11,-9
1525,31,-246,-35,46,14,-9
1530,34,-246,-36,48,17,-12
1535,31,-246,-41,51,19,-9
1540,30,-244,-39,54,20,-10
1545,32,-243,-41,57,22,-11
1550,31,-243,-39,59,23,-10
1555,30,-240,-41,59,24,-10
1560,31,-243,-41,59,25,-9
1565,32,-245,-42,60,25,-10
1570,33,-247,-42,61,24,-8
1575,33,-241,-36,61,23,-8
1580,36,-243,-41,60,22,-7
1585,33,-241,-46,58,21,-8
1590,35,-244,-40,57,19,-8
1595,31,-243,-38,56,17,-8
1600,31,-243,-45,53,16,-7
1605,32,-240,-37,50,14,-6
1610,31,-242,-40,48,13,-7
1615,33,-244,-41,48,14,-7
1620,34,-240,-40,47,16,-8
1625,32,-245,-40,47,18,-10
1630,35,-247,-39,49,19,-10
1635,32,-241,-41,50,20,-11
1640,31,-246,-38,51,21,-11
1645,32,-247,-41,55,22,-12
1650,31,-244,-40,58,23,-12
1655,31,-245,-38,62,24,-12
1660,32,-245,-39,64,25,-11
1665,33,-243,-39,66,27,-12
1670,34,-245,-38,67,27,-10
1675,30,-243,-39,67,29,-10
1680,32,-240,-38,65,31,-9
1685,35,-247,-42,62,33,-10
1690,32,-244,-40,58,34,-9
1695,30,-242,-42,57,35,-11
1700,33,-246,-45,55,37,-9
1705,33,-239,-40,55,38,-8
1710,32,-241,-39,54,39,-9
1715,33,-244,-45,51,39,-8
1720,31,-242,-39,50,37,-9
1725,33,-243,-38,49,35,-9
1730,32,-244,-38,46,33,-9
1735,35,-241,-43,45,30,-9
1740,35,-245,-38,45,27,-12
1745,33,-244,-39,45,23,-12
1750,32,-246,-40,47,20,-12
1755,32,-243,-39,47,18,-11
1760,35,-245,-39,48,17,-11
1765,31,-244,-39,48,17,-9
1770,33,-243,-40,49,19,-9
1775,33,-243,-37,48,18,-9
1780,32,-245,-37,48,21,-7
1785,30,-244,-41,47,22,-8
1790,29,-243,-37,44,23,-9
1795,32,-247,-39,42,22,-8
1800,36,-246,-38,38,21,-6
1805,26,-245,-41,33,21,-8
1810,32,-245,-38,32,20,-7
1815,32,-245,-38,31,20,-7
1820,32,-244,-39,34,20,-7
1825,35,-244,-39,35,20,-8
1830,33,-244,-38,39,21,-9
1835,33,-242,-41,43,22,-9
1840,33,-247,-39,47,24,-10
1845,28,-246,-43,50,24,-8
1850,31,-242,-43,51,25,-11
1855,30,-245,-38,49,25,-10
1860,33,-244,-40,47,25,-11
1865,34,-244,-37,45,25,-11
1870,33,-243,-38,41,25,-13
1875,32,-243,-39,36,23,-11
1880,32,-242,-39,32,23,-9
1885,31,-244,-34,29,23,-10
1890,32,-247,-41,25,23,-8
1895,29,-243,-39,21,23,-9
1900,33,-243,-42,21,24,-9
1905,32,-247,-40,19,25,-10
1910,35,-247,-38,22,25,-9
1915,33,-246,-37,26,23,-9
1920,31,-245,-38,32,25,-7
1925,33,-245,-37,42,25,-7
1930,35,-244,-42,51,26,-7
1935,34,-244,-38,58,25,-6
1940,36,-243,-41,64,23,-3
1945,32,-242,-39,67,23,-5
1950,32,-243,-35,68,21,-5
1955,36,-243,-43,66,19,-5
1960,30,-241,-39,62,21,-6
1965,33,-241,-39,59,21,-7
1970,33,-244,-48,56,20,-8
1975,33,-244,-39,51,22,-9
1980,34,-245,-38,46,22,-11
1985,33,-244,-40,44,24,-14
1990,34,-247,-37,45,26,-11
1995,34,-247,-39,44,28,-12
2000,36,-247,-43,45,31,-11
2005,32,-246,-38,48,32,-9
2010,31,-246,-35,50,32,-8
2015,35,-244,-40,52,33,-4
2020,35,-244,-44,55,32,-3
2025,33,-245,-36,60,31,-5
2030,34,-245,-38,63,29,-3
2035,36,-244,-38,65,29,-1
2040,32,-245,-42,65,26,-2
2045,35,-243,-39,67,26,-3
2050,32,-244,-36,67,24,-2
2055,31,-243,-38,67,23,-4
2060,34,-241,-35,66,21,-4
2065,32,-244,-39,66,21,-5
2070,33,-247,-39,65,20,-6
2075,37,-245,-27,65,19,-7
2080,35,-244,-38,64,18,-9
2085,31,-241,-35,66,19,-10
2090,29,-242,-39,64,17,-8
2095,32,-239,-39,65,17,-7
2100,31,-242,-41,66,19,-8
2105,31,-242,-39,66,21,-9
2110,32,-244,-37,65,22,-8
2115,34,-243,-38,63,23,-9
2120,31,-242,-36,61,24,-8
2125,32,-243,-40,59,25,-8
2130,32,-247,-45,56,27,-7
2135,34,-245,-38,54,28,-6
2140,32,-245,-37,52,30,-6
2145,32,-245,-40,50,31,-9
2150,36,-246,-39,48,31,-9
2155,32,-244,-37,46,30,-11
2160,32,-246,-39,48,31,-11
2165,31,-245,-40,49,29,-13
2170,30,-245,-42,51,29,-12
2175,33,-246,-35,53,27,-12
2180,31,-243,-37,56,25,-12
2185,33,-248,-43,60,27,-9
2190,35,-244,-41,65,25,-9
2195,34,-245,-39,66,24,-9
2200,34,-241,-40,67,24,-9
2205,34,-242,-39,67,24,-7
2210,36,-245,-38,64,24,-7
2215,34,-242,-40,60,23,-7
2220,33,-242,-36,55,25,-10
2225,33,-240,-40,48,24,-12
2230,31,-241,-38,44,24,-11
2235,31,-243,-43,40,24,-13
2240,41,-246,-46,39,23,-12
2245,29,-243,-39,39,24,-11
2250,32,-241,-41,41,23,-9
2255,32,-244,-36,44,24,-8
2260,33,-243,-36,47,24,-9
2265,33,-246,-37,48,24,-7
2270,31,-244,-37,51,25,-8
2275,32,-246,-42,52,24,-6
2280,34,-243,-41,52,24,-6
2285,34,-241,-38,52,25,-7
2290,32,-241,-39,52,24,-6
2295,35,-246,-37,50,23,-3
2300,33,-244,-36,50,22,-5
2305,31,-244,-37,51,21,-6
2310,30,-243,-38,50,20,-5
2315,32,-248,-42,51,20,-7
2320,33,-242,-38,52,19,-7
2325,34,-248,-37,54,17,-7
2330,31,-240,-37,57,17,-6
2335,29,-242,-38,60,16,-5
2340,33,-243,-39,63,15,-5
2345,30,-238,-35,62,14,-5
2350,29,-242,-35,64,13,-7
2355,34,-244,-37,63,12,-7
2360,30,-240,-38,62,12,-7
2365,34,-243,-40,61,10,-8
2370,30,-243,-42,59,10,-6
2375,31,-244,-39,59,8,-9
2380,34,-244,-40,58,9,-9
2385,32,-246,-41,58,9,-11
2390,32,-244,-37,58,10,-11
2395,34,-247,-36,61,12,-11
2400,34,-239,-33,65,14,-12
2405,32,-245,-40,67,15,-11
2410,34,-244,-38,70,18,-9
2415,33,-243,-39,72,22,-9
2420,35,-245,-36,73,24,-10
2425,30,-242,-39,72,24,-6
2430,35,-248,-37,69,23,-7
2435,30,-241,-36,66,22,-6
2440,30,-243,-38,64,20,-7
2445,28,-246,-37,60,17,-8
2450,33,-241,-37,58,14,-9
2455,33,-239,-42,54,12,-10
2460,32,-245,-37,52,9,-10
2465,33,-246,-36,51,6,-10
2470,35,-245,-32,51,1,-11
2475,33,-245,-36,52,-1,-11
2480,33,-246,-38,54,-4,-11
2485,31,-244,-37,56,-5,-12
2490,35,-249,-37,56,-4,-13
2495,32,-244,-38,58,-3,-12
2500,35,-246,-34,60,-1,-12
2505,32,-243,-35,60,2,-12
2510,34,-249,-38,59,5,-13
2515,31,-241,-37,57,8,-12
2520,32,-242,-42,55,12,-14
2525,34,-246,-42,52,15,-13
2530,33,-244,-36,50,18,-14
2535,29,-243,-36,48,22,-15
2540,38,-245,-35,47,25,-14
2545,33,-243,-41,49,27,-15
2550,31,-245,-40,50,28,-16
2555,31,-245,-40,51,28,-16
2560,33,-250,-36,57,26,-16
2565,33,-243,-38,59,25,-14
2570,32,-245,-44,61,23,-15
2575,34,-247,-39,62,21,-14
2580,31,-245,-41,63,17,-11
2585,32,-246,-37,64,13,-12
2590,32,-244,-37,64,13,-13
2595,33,-245,-40,63,10,-13
2600,35,-247,-39,62,7,-14
2605,34,-247,-34,60,7,-11
2610,30,-245,-36,58,5,-12
2615,34,-245,-39,56,4,-12
2620,29,-245,-39,54,6,-12
2625,28,-244,-37,56,6,-13
2630,34,-244,-36,54,5,-13
2635,32,-248,-38,57,7,-13
2640,32,-244,-43,61,8,-13
2645,30,-244,-36,66,10,-13
2650,34,-244,-35,72,12,-12
2655,32,-248,-38,78,13,-10
2660,35,-246,-38,82,15,-11
2665,30,-243,-39,83,17,-11
2670,34,-248,-35,83,16,-11
2675,32,-244,-42,80,16,-11
2680,32,-244,-35,75,15,-10
2685,34,-245,-38,69,14,-11
2690,34,-243,-38,62,12,-12
2695,32,-248,-39,56,8,-10
2700,37,-245,-38,53,7,-14
2705,34,-243,-37,51,7,-14
2710,30,-244,-38,49,5,-12
2715,34,-248,-39,49,5,-13
2720,33,-248,-43,50,6,-13
2725,41,-240,-40,52,9,-13
2730,34,-246,-33,55,11,-11
2735,35,-245,-39,58,12,-9
2740,33,-244,-38,63,14,-10
2745,32,-240,-36,66,14,-9
2750,33,-245,-36,67,16,-10
2755,31,-244,-35,70,17,-9
2760,34,-247,-38,72,15,-9
2765,33,-245,-39,73,15,-9
2770,30,-241,-38,72,15,-9
2775,33,-242,-36,71,12,-9
2780,34,-242,-37,70,11,-10
2785,31,-242,-35,67,9,-11
2790,34,-244,-38,65,9,-9
2795,32,-241,-40,64,8,-10
2800,32,-243,-35,63,8,-9
2805,32,-241,-40,62,8,-10
2810,32,-243,-35,61,8,-8
2815,32,-244,-37,60,9,-9
2820,32,-243,-36,59,10,-10
2825,34,-243,-33,58,11,-9
2830,32,-252,-38,58,12,-9
2835,34,-245,-35,58,13,-9
2840,29,-246,-36,58,13,-9
2845,31,-244,-33,58,14,-7
2850,32,-247,-35,57,15,-6
2855,34,-245,-35,59,15,-7
2860,32,-245,-33,59,15,-7
2865,29,-246,-38,60,14,-7
2870,32,-245,-38,59,15,-8
2875,35,-242,-34,57,13,-8
2880,37,-246,-38,55,12,-9
2885,35,-245,-37,52,11,-9
2890,34,-246,-33,52,10,-9
2895,31,-247,-35,51,8,-8
2900,33,-246,-34,53,6,-9
2905,32,-244,-32,55,8,-7
2910,34,-247,-33,61,9,-6
2915,33,-249,-33,66,8,-5
2920,33,-247,-34,73,9,-5
2925,33,-245,-32,79,10,-3
2930,36,-246,-34,84,10,-1
2935,33,-245,-33,89,9,-1
2940,33,-247,-36,93,11,0
2945,33,-244,-31,96,12,0
2950,32,-245,-35,96,12,0
2955,34,-246,-31,97,13,0
2960,34,-248,-31,96,11,-1
2965,36,-247,-34,95,11,-2
2970,32,-247,-33,94,10,-4
2975,35,-248,-32,93,9,-4
2980,32,-242,-29,93,8,-3
2985,34,-243,-32,91,7,-5
2990,31,-237,-37,88,5,-5
2995,31,-230,-38,83,4,-5
3000,33,-240,-34,80,3,-6
3005,33,-241,-34,74,2,-5
3010,36,-237,-30,69,2,-4
3015,35,-239,-33,65,2,-4
3020,34,-238,-32,59,4,-3
3025,35,-241,-34,51,4,-4
3030,33,-238,-35,45,5,-5
3035,33,-238,-31,40,4,-4
3040,32,-237,-35,33,4,-4
3045,35,-240,-36,24,4,-5
3050,33,-238,-38,17,0,-4
3055,30,-237,-35,8,-4,-4
3060,30,-234,-39,1,-6,-1
3065,29,-238,-37,-6,-9,0
3070,33,-241,-35,-14,-13,1
3075,31,-237,-37,-20,-15,2
3080,28,-239,-38,-25,-16,4
3085,29,-238,-40,-28,-17,4
3090,30,-242,-42,-29,-16,7
3095,33,-239,-40,-29,-16,11
3100,23,-238,-38,-27,-15,14
3105,32,-241,-37,-22,-15,16
3110,30,-239,-36,-19,-14,21
3115,30,-240,-39,-14,-14,23
3120,33,-239,-39,-12,-11,27
3125,32,-237,-37,-8,-9,32
3130,33,-234,-42,-8,-8,33
3135,32,-234,-42,-12,-8,36
3140,30,-232,-41,-15,-11,36
3145,31,-235,-39,-20,-13,36
3150,29,-231,-41,-31,-16,36
3155,25,-226,-50,-45,-17,36
3160,34,-234,-48,-66,-18,37
3165,30,-228,-48,-88,-17,35
3170,29,-231,-48,-112,-16,36
3175,30,-232,-47,-137,-12,36
3180,32,-234,-51,-159,-9,36
3185,31,-231,-52,-180,-4,35
3190,29,-236,-50,-199,1,37
3195,29,-234,-47,-213,8,41
3200,30,-233,-47,-225,15,42
3205,34,-234,-41,-231,21,46
3210,27,-236,-45,-233,25,49
3215,28,-233,-48,-236,29,52
3220,28,-233,-44,-234,31,55
3225,30,-236,-48,-232,31,57
3230,34,-234,-44,-228,30,60
3235,32,-232,-41,-224,29,63
3240,30,-234,-41,-223,26,65
3245,27,-234,-43,-225,24,67
3250,29,-232,-41,-229,19,69
3255,32,-233,-42,-236,15,69
3260,25,-231,-47,-249,12,68
3265,29,-225,-44,-261,9,68
3270,30,-230,-50,-276,6,68
3275,28,-231,-51,-292,6,71
3280,28,-229,-49,-306,6,71
3285,29,-228,-53,-321,6,70
3290,28,-230,-52,-333,8,72
3295,29,-229,-58,-344,9,74
3300,24,-227,-54,-351,9,76
3305,28,-226,-55,-355,11,78
3310,26,-225,-57,-355,11,80
3315,23,-223,-58,-353,9,83
3320,22,-226,-53,-349,6,85
3325,21,-223,-58,-345,2,89
3330,22,-226,-58,-341,-3,90
3335,20,-220,-62,-338,-8,89
3340,18,-220,-64,-339,-16,89
3345,18,-216,-60,-346,-26,88
3350,16,-218,-66,-359,-37,86
3355,17,-215,-65,-379,-48,83
3360,17,-219,-68,-403,-59,78
3365,15,-215,-66,-431,-70,75
3370,15,-210,-73,-460,-78,73
3375,13,-211,-73,-486,-86,73
3380,15,-211,-70,-510,-91,75
3385,14,-206,-72,-526,-96,78
3390,13,-206,-75,-539,-101,84
3395,16,-207,-73,-548,-107,91
3400,15,-203,-75,-556,-113,96
3405,14,-197,-75,-564,-120,102
3410,14,-196,-75,-574,-128,108
3415,15,-191,-74,-589,-134,110
3420,14,-194,-77,-612,-138,114
3425,18,-188,-87,-637,-143,113
3430,21,-191,-75,-673,-147,111
3435,24,-188,-85,-713,-147,108
3440,23,-181,-86,-759,-144,107
3445,27,-179,-90,-813,-137,108
3450,25,-170,-92,-870,-126,105
3455,27,-170,-94,-929,-116,106
3460,27,-170,-98,-985,-106,105
3465,33,-165,-96,-1039,-94,104
3470,30,-161,-103,-1091,-81,101
3475,29,-158,-108,-1140,-65,98
3480,33,-157,-105,-1184,-51,95
3485,30,-150,-110,-1230,-35,92
3490,27,-145,-112,-1271,-25,90
3495,23,-141,-114,-1311,-17,89
3500,22,-138,-109,-1352,-15,87
3505,18,-136,-111,-1393,-13,84
3510,18,-132,-119,-1435,-14,82
3515,14,-131,-116,-1481,-16,78
3520,15,-128,-122,-1527,-16,76
3525,11,-130,-121,-1576,-15,75
3530,14,-129,-128,-1628,-14,71
3535,8,-129,-130,-1681,-10,69
3540,6,-126,-132,-1737,-9,64
3545,2,-128,-133,-1793,-11,61
3550,0,-128,-130,-1852,-18,61
3555,-4,-127,-135,-1914,-32,59
3560,-6,-129,-130,-1977,-52,61
3565,-14,-133,-138,-2039,-80,65
3570,-15,-142,-132,-2100,-114,73
3575,-16,-144,-136,-2153,-154,83
3580,-14,-155,-136,-2200,-194,94
3585,-14,-162,-139,-2236,-230,105
3590,-13,-173,-143,-2266,-264,117
3595,-14,-181,-150,-2285,-296,126
3600,-12,-189,-153,-2295,-327,137
3605,-11,-201,-157,-2294,-359,144
3610,-8,-211,-165,-2272,-387,145
3615,-2,-230,-172,-2232,-413,143
3620,-1,-239,-175,-2169,-434,139
3625,3,-251,-186,-2087,-450,142
3630,3,-257,-190,-1988,-457,150
3635,11,-261,-195,-1875,-451,167
3640,15,-262,-193,-1755,-432,193
3645,18,-267,-202,-1635,-404,227
3650,23,-262,-210,-1529,-364,264
3655,26,-256,-212,-1444,-314,288
3660,32,-252,-216,-1388,-260,307
3665,33,-235,-221,-1365,-202,320
3670,33,-232,-216,-1372,-133,326
3675,32,-223,-215,-1396,-79,330
3680,30,-211,-210,-1430,-35,333
3685,24,-204,-207,-1465,-2,337
3690,20,-197,-197,-1493,20,341
3695,17,-193,-193,-1517,27,341
3700,12,-185,-190,-1531,19,343
3705,9,-176,-180,-1545,-8,341
3710,5,-169,-175,-1562,-50,339
3715,2,-160,-174,-1593,-105,337
3720,2,-157,-167,-1631,-170,329
3725,2,-153,-165,-1679,-243,320
3730,-3,-145,-172,-1733,-309,297
3735,-5,-144,-173,-1787,-373,283
3740,-7,-145,-179,-1845,-433,273
3745,-10,-143,-183,-1897,-487,263
3750,-8,-142,-194,-1935,-526,249
3755,-7,-146,-192,-1955,-542,239
3760,-13,-148,-195,-1957,-543,230
3765,-10,-150,-196,-1939,-529,224
3770,-14,-151,-198,-1898,-504,223
3775,-15,-152,-197,-1839,-467,221
3780,-12,-150,-196,-1764,-420,221
3785,-17,-150,-195,-1679,-367,220
3790,-19,-147,-199,-1592,-312,225
3795,-20,-142,-203,-1512,-262,237
3800,-19,-143,-203,-1446,-222,250
3805,-14,-134,-212,-1400,-191,258
3810,-14,-130,-214,-1379,-170,264
3815,-19,-127,-223,-1385,-161,277
3820,-17,-122,-229,-1416,-165,290
3825,-11,-119,-236,-1470,-180,304
3830,-6,-117,-248,-1542,-199,311
3835,-4,-113,-256,-1624,-220,311
3840,-3,-109,-254,-1710,-238,305
3845,-7,-113,-262,-1794,-253,301
3850,-5,-111,-269,-1867,-266,296
3855,-10,-107,-272,-1932,-280,290
3860,-5,-114,-266,-1979,-290,280
3865,-2,-116,-269,-2005,-295,272
3870,-5,-115,-266,-2010,-298,262
3875,-5,-115,-267,-1998,-297,251
3880,-6,-110,-265,-1973,-293,248
3885,-6,-112,-267,-1934,-285,246
3890,-10,-109,-264,-1892,-274,244
3895,-13,-104,-268,-1853,-260,246
3900,-12,-98,-262,-1816,-248,254
3905,-9,-98,-261,-1784,-233,262
3910,-10,-99,-262,-1753,-216,265
3915,-17,-91,-254,-1728,-201,264
3920,-17,-88,-255,-1701,-193,267
3925,-17,-83,-248,-1671,-186,259
3930,-20,-78,-249,-1637,-184,254
3935,-15,-74,-250,-1603,-188,257
3940,-12,-65,-245,-1568,-196,250
3945,-13,-64,-241,-1530,-207,242
3950,-19,-57,-242,-1492,-218,243
3955,-15,-52,-238,-1458,-228,249
3960,-23,-47,-243,-1425,-242,245
3965,-18,-43,-241,-1401,-263,243
3970,-15,-39,-236,-1386,-283,247
3975,-18,-34,-239,-1377,-300,247
3980,-17,-30,-235,-1369,-311,246
3985,-16,-30,-238,-1365,-317,239
3990,-19,-26,-237,-1363,-317,233
3995,-19,-26,-236,-1360,-312,227
4000,-21,-27,-240,-1359,-304,222
4005,-21,-23,-245,-1356,-298,217
4010,-24,-22,-247,-1354,-288,214
4015,-27,-20,-252,-1350,-280,207
4020,-23,-14,-253,-1348,-267,205
4025,-25,-13,-254,-1346,-253,205
4030,-25,-8,-255,-1344,-239,206
4035,-27,-10,-259,-1345,-231,208
4040,-26,-4,-259,-1346,-223,207
4045,-30,-3,-258,-1348,-214,210
4050,-29,-6,-259,-1350,-205,212
4055,-31,0,-265,-1351,-195,221
4060,-31,0,-261,-1350,-181,228
4065,-31,5,-261,-1349,-168,234
4070,-32,3,-265,-1346,-153,236
4075,-33,3,-265,-1342,-136,240
4080,-38,7,-268,-1336,-118,246
4085,-42,7,-266,-1328,-106,250
4090,-46,7,-267,-1314,-102,244
4095,-43,12,-265,-1293,-100,236
4100,-43,15,-266,-1263,-104,231
4105,-41,14,-264,-1237,-105,231
4110,-42,18,-267,-1210,-107,226
4115,-43,23,-270,-1190,-110,211
4120,-50,17,-273,-1172,-121,200
4125,-41,23,-268,-1160,-131,198
4130,-39,24,-266,-1155,-144,194
4135,-40,28,-266,-1149,-159,181
4140,-40,31,-265,-1140,-176,167
4145,-41,30,-261,-1126,-192,164
4150,-39,34,-262,-1103,-208,158
4155,-42,38,-269,-1079,-218,163
4160,-46,38,-269,-1049,-226,161
4165,-41,46,-267,-1017,-231,163
4170,-37,36,-260,-986,-223,157
4175,-39,45,-264,-957,-209,149
4180,-37,46,-264,-931,-189,141
4185,-38,48,-264,-906,-167,129
4190,-39,47,-262,-884,-147,119
4195,-44,50,-259,-860,-128,107
4200,-39,49,-258,-835,-113,97
4205,-39,52,-258,-813,-103,88
4210,-41,55,-247,-791,-94,81
4215,-47,55,-254,-770,-87,75
4220,-45,55,-244,-739,-78,67
4225,-46,54,-255,-709,-70,60
4230,-49,60,-249,-674,-64,58
4235,-46,63,-250,-635,-66,57
4240,-48,63,-249,-596,-75,53
4245,-48,64,-248,-564,-84,56
4250,-50,71,-251,-542,-93,58
4255,-49,69,-247,-533,-101,56
4260,-52,72,-251,-531,-107,59
4265,-51,68,-249,-526,-112,62
4270,-44,69,-250,-512,-116,58
4275,-41,69,-253,-490,-120,59
4280,-45,70,-255,-466,-119,60
4285,-44,72,-253,-442,-115,64
4290,-49,74,-256,-420,-109,61
4295,-46,73,-253,-404,-102,59
4300,-46,77,-256,-394,-94,59
4305,-40,77,-254,-386,-87,57
4310,-37,76,-250,-377,-72,52
4315,-46,77,-254,-363,-58,51
4320,-45,75,-255,-345,-44,48
4325,-43,77,-253,-322,-33,46
4330,-45,81,-262,-296,-20,42
4335,-42,77,-244,-270,-6,35
4340,-41,77,-254,-249,7,28
4345,-45,78,-247,-236,14,25
4350,-41,80,-248,-232,19,23
4355,-44,84,-246,-236,22,21
4360,-41,81,-243,-240,25,21
4365,-41,79,-237,-240,28,21
4370,-44,79,-236,-238,29,22
4375,-44,85,-238,-228,31,22
4380,-40,81,-233,-213,32,21
4385,-49,82,-240,-195,32,21
4390,-44,80,-237,-177,32,21
4395,-45,83,-238,-159,35,18
4400,-43,83,-235,-146,39,17
4405,-44,84,-238,-131,46,18
4410,-45,84,-237,-116,54,14
4415,-48,83,-230,-103,59,14
4420,-44,88,-228,-90,62,13
4425,-46,91,-233,-78,64,11
4430,-45,88,-228,-67,63,8
4435,-46,96,-234,-57,62,6
4440,-49,88,-236,-48,57,1
4445,-46,89,-232,-41,52,-3
4450,-45,88,-235,-34,46,-8
4455,-45,92,-233,-32,38,-12
4460,-45,93,-233,-29,33,-17
4465,-43,90,-236,-27,28,-23
4470,-45,91,-235,-22,26,-27
4475,-40,91,-232,-18,24,-33
4480,-42,94,-232,-19,24,-37
4485,-40,86,-230,-20,24,-40
4490,-42,89,-235,-24,24,-42
4495,-42,91,-235,-26,27,-43
4500,-44,92,-232,-27,27,-41
4505,-48,93,-234,-26,29,-43
4510,-46,91,-231,-25,29,-39
4515,-44,90,-232,-23,29,-39
4520,-44,91,-234,-18,29,-36
4525,-42,87,-232,-13,29,-35
4530,-46,91,-234,-10,30,-33
4535,-43,88,-235,-4,30,-31
4540,-44,90,-236,5,30,-28
4545,-39,90,-227,15,30,-25
4550,-46,93,-232,23,30,-24
4555,-45,92,-233,30,32,-23
4560,-45,91,-234,37,37,-22
4565,-47,92,-234,43,40,-20
4570,-45,94,-233,45,44,-19
4575,-46,94,-235,45,48,-20
4580,-46,95,-230,47,53,-18
4585,-46,96,-233,48,58,-16
4590,-48,96,-225,46,59,-13
4595,-41,90,-224,48,58,-12
4600,-45,87,-231,50,55,-9
4605,-45,89,-230,56,51,-7
4610,-40,88,-229,65,47,-6
4615,-41,88,-228,77,43,-3
4620,-42,89,-232,90,38,0
4625,-41,87,-232,103,32,1
4630,-39,89,-235,114,30,3
4635,-43,90,-232,123,30,6
4640,-40,89,-233,130,29,9
4645,-48,90,-234,135,31,9
4650,-45,89,-227,139,35,11
4655,-41,82,-232,142,40,10
4660,-42,89,-231,144,45,10
4665,-44,89,-229,147,50,8
4670,-42,85,-226,150,56,6
4675,-43,86,-231,154,61,6
4680,-42,87,-228,159,65,4
4685,-44,88,-227,164,65,4
4690,-44,86,-227,167,64,3
4695,-41,87,-230,172,60,3
4700,-43,90,-232,177,55,4
4705,-41,90,-231,179,48,1
4710,-46,84,-236,179,41,1
4715,-45,92,-230,177,33,0
4720,-46,95,-232,171,25,1
4725,-43,93,-231,165,19,0
4730,-41,91,-235,155,13,2
4735,-43,95,-233,142,9,3
4740,-45,92,-237,127,7,8
4745,-46,92,-235,110,5,10
4750,-41,95,-237,94,4,13
4755,-47,87,-227,81,7,15
4760,-43,88,-228,67,10,16
4765,-42,87,-228,54,13,17
4770,-38,90,-228,44,16,16
4775,-39,92,-229,32,19,17
4780,-37,91,-228,23,16,16
4785,-38,90,-227,14,15,17
4790,-38,91,-228,8,15,18
4795,-38,91,-225,2,13,18
4800,-35,90,-226,0,11,18
4805,-39,89,-229,-1,12,18
4810,-37,88,-229,1,12,18
4815,-39,88,-236,3,13,16
4820,-40,87,-232,6,14,15
4825,-40,89,-230,8,15,14
4830,-38,89,-227,10,18,14
4835,-36,88,-231,13,19,12
4840,-36,84,-230,17,20,13
4845,-35,84,-228,23,20,13
4850,-39,84,-228,30,20,10
4855,-36,88,-228,35,21,8
4860,-36,88,-232,40,22,8
4865,-40,90,-227,42,21,5
4870,-37,89,-227,42,21,6
4875,-38,87,-225,39,21,5
4880,-42,91,-228,37,21,3
4885,-38,88,-226,35,20,4
4890,-40,90,-230,34,20,4
4895,-40,88,-227,33,18,4
4900,-38,86,-227,35,16,2
4905,-40,86,-231,37,14,2
4910,-40,85,-226,42,10,0
4915,-38,86,-234,49,3,-4
4920,-38,87,-232,55,-2,-7
4925,-41,82,-230,61,-7,-9
4930,-41,79,-237,65,-11,-14
4935,-43,89,-237,69,-12,-15
4940,-43,87,-235,69,-10,-16
4945,-41,88,-238,72,-7,-18
4950,-44,88,-234,74,-2,-18
4955,-45,91,-239,74,3,-17
4960,-40,86,-235,72,7,-16
4965,-41,86,-238,70,10,-18
4970,-41,87,-234,69,11,-18
4975,-40,88,-234,68,11,-19
4980,-42,82,-234,69,13,-20
4985,-39,85,-231,69,14,-22
4990,-38,85,-230,68,16,-22
4995,-36,88,-231,68,19,-22
5000,-37,85,-228,67,21,-23
5005,-39,82,-230,66,25,-25
5010,-37,85,-233,68,28,-25
5015,-36,86,-232,70,31,-28
5020,-38,83,-229,73,33,-31
5025,-38,83,-230,78,35,-32
5030,-38,83,-232,82,35,-33
5035,-40,81,-231,86,34,-34
5040,-41,87,-233,91,33,-33
5045,-41,86,-232,97,33,-35
5050,-39,84,-233,102,34,-36
5055,-39,85,-232,108,36,-34
5060,-40,85,-232,114,39,-34
5065,-42,88,-236,120,44,-34
5070,-42,85,-232,124,49,-34
5075,-38,82,-230,126,53,-34
5080,-42,85,-236,129,58,-34
5085,-37,84,-228,133,61,-34
5090,-40,87,-233,135,62,-31
5095,-36,83,-232,137,61,-31
5100,-42,85,-227,136,58,-30
5105,-41,84,-230,135,55,-28
5110,-41,89,-231,131,50,-30
5115,-40,89,-233,125,45,-27
5120,-40,88,-231,117,41,-26
5125,-39,84,-235,109,37,-24
5130,-36,90,-229,102,35,-26
5135,-39,89,-232,93,33,-26
5140,-37,87,-237,85,32,-27
5145,-43,92,-235,79,29,-25
5150,-36,90,-229,74,28,-25
5155,-35,89,-232,69,24,-22
5160,-37,86,-230,65,20,-23
5165,-36,87,-230,63,17,-21
5170,-38,90,-227,60,13,-20
5175,-37,90,-226,59,7,-20
5180,-36,86,-227,56,1,-19
5185,-38,87,-233,54,-5,-18
5190,-33,85,-227,51,-9,-18
5195,-37,83,-230,49,-9,-20
5200,-35,83,-234,47,-7,-20
5205,-36,84,-236,49,-2,-18
5210,-36,84,-237,51,4,-18
5215,-38,87,-239,51,14,-17
5220,-37,86,-238,52,23,-16
5225,-37,82,-232,51,35,-14
5230,-40,85,-237,52,44,-13
5235,-36,85,-232,52,53,-13
5240,-38,83,-234,54,58,-11
5245,-38,84,-233,55,62,-10
5250,-35,82,-229,57,64,-11
5255,-36,81,-236,61,63,-12
5260,-35,85,-225,66,63,-16
5265,-37,83,-229,69,60,-19
5270,-36,83,-229,73,56,-21
5275,-39,85,-228,73,50,-24
5280,-37,86,-231,73,46,-25
5285,-37,82,-235,70,43,-29
5290,-39,87,-237,69,40,-30
5295,-40,86,-230,67,39,-32
5300,-40,84,-230,65,40,-33
5305,-40,86,-231,65,42,-35
5310,-36,87,-235,65,43,-37
5315,-40,85,-230,65,45,-38
5320,-43,87,-227,64,46,-39
5325,-41,86,-232,61,44,-40
5330,-38,85,-228,57,42,-40
5335,-38,85,-230,55,40,-41
5340,-39,87,-228,51,36,-41
5345,-37,87,-233,49,33,-42
5350,-38,87,-231,48,32,-42
5355,-40,88,-232,47,31,-42
5360,-37,87,-228,48,31,-43
5365,-30,86,-237,49,30,-43
5370,-35,83,-232,50,31,-44
5375,-38,86,-233,51,31,-43
5380,-34,85,-227,50,33,-43
5385,-37,86,-233,51,36,-41
5390,-36,84,-233,50,39,-40
5395,-35,86,-231,49,41,-40
5400,-34,86,-235,47,43,-41
5405,-35,85,-226,46,46,-41
5410,-39,88,-230,44,47,-40
5415,-37,88,-233,44,50,-39
5420,-36,84,-226,42,51,-41
5425,-38,86,-233,41,50,-40
5430,-36,84,-235,42,50,-41
5435,-35,89,-233,43,47,-39
5440,-37,83,-231,46,44,-39
5445,-38,83,-234,50,42,-38
5450,-36,83,-241,56,41,-37
5455,-37,84,-235,63,42,-36
5460,-37,84,-234,69,43,-34
5465,-34,82,-230,73,45,-35
5470,-40,85,-237,77,45,-34
5475,-36,81,-234,81,45,-34
5480,-35,84,-236,83,44,-32
5485,-36,85,-231,82,42,-32
5490,-36,83,-233,84,39,-32
5495,-36,80,-232,86,38,-32
5500,-36,80,-228,86,37,-31
5505,-36,82,-229,86,40,-31
5510,-35,82,-233,87,41,-32
5515,-37,83,-234,84,45,-34
5520,-39,83,-234,83,46,-33
5525,-35,82,-233,81,45,-35
5530,-34,80,-232,80,43,-35
5535,-33,80,-232,78,40,-37
5540,-35,84,-233,78,37,-35
5545,-33,82,-233,80,33,-34
5550,-35,84,-229,79,31,-36
5555,-34,83,-235,79,29,-37
5560,-35,86,-232,77,28,-38
5565,-35,88,-233,71,28,-37
5570,-34,84,-235,65,26,-38
5575,-35,88,-239,61,26,-39
5580,-26,91,-231,57,28,-37
5585,-36,85,-229,55,25,-35
5590,-32,82,-232,53,23,-35
5595,-35,84,-232,52,22,-34
5600,-36,85,-231,50,23,-34
5605,-36,84,-230,48,23,-36
5610,-37,83,-229,44,24,-34
5615,-37,81,-239,41,25,-33
5620,-36,85,-236,34,28,-33
5625,-39,85,-236,30,30,-32
5630,-37,84,-228,27,33,-33
5635,-41,86,-232,25,35,-34
5640,-37,82,-234,26,37,-36
5645,-35,82,-231,29,40,-37
5650,-36,83,-233,34,40,-37
5655,-33,82,-235,40,39,-36
5660,-35,82,-235,42,37,-37
5665,-34,82,-236,46,35,-35
5670,-37,82,-231,48,34,-35
5675,-32,83,-231,53,33,-36
5680,-35,81,-235,57,32,-36
5685,-31,81,-227,60,30,-34
5690,-31,82,-235,62,29,-33
5695,-34,85,-231,64,30,-31
5700,-36,83,-231,64,29,-29
5705,-31,83,-232,64,28,-30
5710,-33,83,-235,65,25,-29
5715,-34,83,-237,64,24,-29
5720,-35,84,-236,64,23,-30
5725,-36,81,-233,65,21,-30
5730,-36,80,-234,65,21,-29
5735,-35,85,-234,63,22,-31
5740,-33,85,-232,61,23,-30
5745,-39,83,-234,57,24,-29
5750,-34,80,-231,56,23,-29
5755,-35,85,-234,56,24,-27
5760,-32,81,-231,56,23,-25
5765,-34,84,-234,57,24,-24
5770,-33,84,-237,59,24,-27
5775,-38,87,-231,61,24,-25
5780,-36,84,-232,61,24,-27
5785,-34,82,-230,62,25,-25
5790,-34,80,-230,63,24,-24
5795,-32,79,-230,60,24,-23
5800,-34,81,-234,58,22,-24
5805,-34,86,-234,54,21,-23
5810,-36,83,-233,51,18,-22
5815,-33,84,-235,48,18,-20
5820,-36,84,-232,47,19,-20
5825,-31,81,-234,45,19,-18
5830,-34,84,-235,43,20,-17
5835,-31,80,-235,43,23,-18
5840,-32,83,-233,45,26,-18
5845,-32,78,-232,48,29,-17
5850,-34,85,-231,51,31,-18
5855,-39,92,-233,56,32,-15
5860,-33,83,-232,60,31,-15
5865,-34,82,-231,63,30,-15
5870,-35,81,-234,64,27,-15
5875,-37,86,-232,64,22,-12
5880,-33,84,-233,62,18,-12
5885,-35,82,-233,59,17,-13
5890,-35,85,-232,57,14,-13
5895,-39,83,-232,52,15,-13
5900,-33,86,-232,49,14,-14
5905,-34,83,-228,45,16,-13
5910,-34,83,-242,44,17,-14
5915,-35,82,-236,41,18,-14
5920,-34,85,-235,41,20,-15
5925,-35,86,-233,41,22,-17
5930,-33,83,-235,42,24,-17
5935,-38,88,-234,43,25,-18
5940,-36,87,-235,44,24,-19
5945,-33,82,-229,44,25,-20
5950,-35,79,-230,45,22,-20
5955,-34,86,-229,44,20,-20
5960,-34,87,-234,43,18,-20
5965,-29,80,-232,41,16,-19
5970,-33,84,-233,39,16,-19
5975,-33,83,-232,38,14,-19
5980,-35,88,-232,39,14,-19
5985,-32,83,-235,38,17,-18
5990,-37,86,-230,38,17,-18
5995,-34,86,-238,39,18,-19
6000,-36,85,-234,41,20,-20
6005,-33,83,-233,42,20,-24
6010,-32,85,-234,45,20,-23
6015,-36,86,-230,45,21,-23
6020,-31,85,-232,44,23,-24
6025,-32,85,-237,44,25,-23
6030,-35,83,-232,43,27,-24
6035,-35,85,-236,42,27,-25
6040,-34,85,-235,42,29,-26
6045,-37,86,-236,45,29,-25
6050,-34,81,-233,46,28,-26
6055,-37,87,-233,49,28,-26
6060,-32,85,-229,51,28,-25
6065,-33,83,-234,51,29,-26
6070,-34,86,-235,51,30,-23
6075,-37,86,-233,50,30,-22
6080,-32,85,-230,50,32,-22
6085,-34,85,-230,51,32,-20
6090,-35,83,-231,51,34,-22
6095,-35,87,-231,50,34,-20
6100,-36,82,-231,49,35,-20
6105,-35,85,-229,48,33,-20
6110,-37,86,-230,45,31,-19
6115,-37,86,-233,44,29,-19
6120,-33,86,-229,44,26,-19
6125,-38,87,-236,42,23,-19
6130,-32,85,-231,43,18,-19
6135,-34,84,-229,42,15,-19
6140,-33,83,-232,45,8,-20
6145,-35,83,-233,46,5,-20
6150,-34,83,-231,48,3,-20
6155,-35,89,-234,48,1,-18
6160,-39,89,-234,50,2,-17
6165,-33,84,-235,50,6,-17
6170,-37,89,-233,48,10,-17
6175,-33,84,-231,46,14,-16
6180,-39,87,-233,43,19,-16
6185,-32,85,-232,40,22,-16
6190,-35,86,-232,38,23,-14
6195,-34,85,-236,34,26,-15
6200,-31,86,-231,32,27,-14
6205,-34,86,-233,34,28,-12
6210,-35,84,-229,34,27,-13
6215,-32,84,-230,34,25,-13
6220,-35,87,-236,34,25,-13
6225,-38,86,-231,37,22,-12
6230,-33,85,-233,41,21,-12
6235,-36,91,-237,46,19,-10
6240,-34,84,-232,51,17,-11
6245,-35,84,-232,53,16,-11
6250,-32,84,-230,56,16,-11
6255,-34,87,-232,55,17,-11
6260,-33,83,-233,53,16,-11
6265,-32,85,-231,51,19,-12
6270,-31,83,-231,48,17,-13
6275,-36,89,-228,46,16,-13
6280,-34,85,-228,45,14,-12
6285,-35,89,-235,46,15,-13
6290,-41,79,-235,47,15,-12
6295,-34,84,-234,48,16,-13
6300,-35,86,-237,47,19,-12
6305,-35,87,-232,46,22,-11
6310,-34,85,-235,42,23,-11
6315,-34,86,-236,37,25,-11
6320,-35,87,-234,31,26,-10
6325,-33,85,-235,25,25,-10
6330,-36,85,-234,23,23,-9
6335,-33,84,-228,20,23,-8
6340,-31,82,-231,21,21,-7
6345,-35,83,-230,22,19,-7
6350,-35,87,-234,21,17,-8
6355,-34,86,-234,21,15,-9
6360,-38,85,-229,22,15,-8
6365,-33,87,-229,24,14,-10
6370,-33,86,-231,27,13,-10
6375,-34,82,-233,29,12,-11
6380,-36,86,-231,34,10,-11
6385,-35,81,-235,37,9,-11
6390,-32,85,-231,40,8,-11
6395,-36,86,-237,43,9,-12
6400,-32,91,-234,44,9,-12
6405,-35,84,-235,46,10,-14
6410,-32,85,-233,46,13,-16
6415,-32,85,-231,47,15,-14
6420,-31,82,-234,48,18,-12
6425,-32,86,-231,50,20,-13
6430,-34,86,-233,52,22,-14
6435,-34,87,-229,55,24,-13
6440,-32,87,-229,54,26,-13
6445,-36,88,-232,54,26,-13
6450,-33,87,-232,52,25,-13
6455,-31,83,-228,50,26,-14
6460,-33,83,-230,47,25,-13
6465,-33,88,-231,43,26,-13
6470,-33,87,-230,38,25,-15
6475,-35,86,-233,37,25,-14
6480,-32,86,-234,39,26,-15
6485,-35,85,-234,39,27,-15
6490,-34,83,-228,41,26,-15
6495,-36,89,-230,43,26,-18
6500,-36,89,-233,44,27,-20
6505,-33,85,-231,45,27,-20
6510,-34,86,-231,44,26,-21
6515,-34,87,-236,43,25,-22
6520,-32,87,-231,42,24,-23
6525,-32,84,-230,41,22,-24
6530,-32,84,-232,40,22,-26
6535,-32,87,-232,41,21,-25
6540,-35,87,-229,41,19,-25
6545,-35,84,-233,39,18,-25
6550,-34,80,-229,38,18,-25
6555,-34,86,-232,37,16,-26
6560,-36,87,-236,37,16,-25
6565,-33,83,-231,38,17,-25
6570,-34,85,-231,38,16,-25
6575,-35,88,-233,39,17,-23
6580,-35,85,-234,39,20,-23
6585,-35,88,-234,38,21,-23
6590,-34,85,-232,38,21,-23
6595,-33,85,-233,38,21,-24
6600,-37,85,-228,40,19,-22
6605,-35,87,-232,42,18,-23
6610,-35,89,-231,43,18,-23
6615,-40,82,-235,46,18,-26
6620,-34,86,-232,48,19,-27
6625,-35,89,-231,49,18,-23
6630,-33,86,-234,48,18,-23
6635,-32,86,-233,47,21,-23
6640,-33,86,-231,43,24,-22
6645,-37,88,-232,41,26,-24
6650,-35,83,-230,39,26,-21
6655,-33,88,-231,36,26,-21
6660,-34,89,-229,36,25,-20
6665,-32,85,-233,37,24,-16
6670,-35,84,-236,36,25,-15
6675,-32,88,-232,36,23,-16
6680,-33,88,-229,36,22,-15
6685,-33,87,-234,34,22,-12
6690,-33,88,-233,33,19,-14
6695,-35,88,-230,31,19,-14
6700,-34,86,-230,28,17,-14
6705,-30,87,-228,27,18,-15
6710,-34,87,-231,26,18,-15
6715,-30,88,-231,28,20,-14
6720,-34,86,-230,29,23,-15
6725,-27,88,-235,32,24,-16
6730,-33,89,-232,32,24,-16
6735,-31,83,-230,32,25,-15
6740,-30,88,-229,33,26,-15
6745,-31,85,-233,33,25,-14
6750,-32,86,-234,34,25,-13
6755,-31,87,-233,36,25,-14
6760,-33,87,-228,37,24,-14
6765,-32,86,-232,37,24,-15
6770,-34,85,-234,37,26,-14
6775,-36,85,-233,38,26,-16
6780,-33,87,-232,39,27,-17
6785,-33,84,-231,41,28,-17
6790,-31,85,-233,43,26,-17
6795,-30,82,-231,43,27,-18
6800,-33,88,-235,44,26,-19
6805,-32,85,-232,45,26,-21
6810,-31,86,-232,46,25,-21
6815,-28,85,-234,48,23,-22
6820,-32,87,-235,50,23,-22
6825,-35,87,-235,52,21,-23
6830,-33,87,-235,53,20,-24
6835,-30,87,-239,55,19,-25
6840,-31,88,-236,57,20,-24
6845,-33,89,-237,58,21,-24
6850,-33,86,-233,60,22,-25
6855,-34,86,-234,61,23,-24
6860,-34,89,-232,61,25,-22
6865,-29,88,-231,60,27,-21
6870,-32,88,-229,58,30,-20
6875,-34,86,-232,57,30,-21
6880,-33,87,-234,56,30,-18
6885,-33,87,-235,55,30,-19
6890,-35,87,-235,55,30,-17
6895,-32,84,-234,56,27,-18
6900,-33,85,-229,57,23,-18
6905,-33,87,-235,56,19,-18
6910,-33,88,-237,55,15,-20
6915,-34,88,-231,54,13,-20
6920,-32,85,-232,53,10,-21
6925,-33,87,-230,52,9,-21
6930,-32,85,-232,50,8,-22
6935,-32,85,-231,50,10,-22
6940,-33,82,-231,50,10,-22
6945,-33,85,-235,52,12,-22
6950,-31,86,-237,50,15,-22
6955,-32,84,-235,52,16,-18
6960,-32,87,-231,52,17,-18
6965,-32,86,-234,53,16,-21
6970,-34,89,-232,56,16,-22
6975,-36,86,-229,57,16,-22
6980,-35,86,-228,59,13,-21
6985,-33,86,-230,61,13,-21
6990,-37,90,-231,61,13,-21
6995,-29,82,-228,59,14,-21
7000,-31,84,-228,55,15,-21
7005,-31,87,-233,52,17,-21
7010,-32,86,-233,49,18,-21
7015,-33,90,-233,45,19,-19
7020,-32,85,-237,45,20,-17
7025,-34,88,-234,44,19,-17
7030,-29,86,-231,44,20,-17
7035,-32,83,-236,47,20,-16
7040,-34,88,-233,47,22,-14
7045,-34,85,-234,46,19,-13
7050,-37,84,-232,44,20,-13
7055,-33,84,-231,43,19,-13
7060,-32,87,-230,41,19,-16
7065,-32,85,-231,39,19,-15
7070,-33,86,-231,41,19,-17
7075,-35,84,-233,45,20,-17
7080,-30,86,-234,47,19,-16
7085,-36,90,-236,50,17,-16
7090,-34,88,-234,50,16,-17
7095,-33,87,-229,51,16,-18
7100,-33,86,-232,48,15,-19
7105,-34,81,-238,46,17,-18
7110,-33,90,-231,43,17,-19
7115,-34,88,-232,40,18,-18
7120,-34,86,-230,39,18,-19
7125,-33,85,-229,36,18,-19
7130,-31,84,-230,37,19,-19
7135,-32,86,-233,38,19,-20
7140,-30,83,-233,39,18,-18
7145,-30,83,-229,41,17,-18
7150,-31,85,-233,44,15,-17
7155,-30,85,-233,44,16,-16
7160,-37,81,-235,41,15,-16
7165,-27,87,-238,37,14,-14
7170,-30,88,-236,34,16,-15
7175,-34,88,-232,33,16,-13
7180,-30,85,-233,31,19,-13
7185,-29,86,-232,32,20,-13
7190,-32,89,-233,34,22,-13
7195,-34,89,-229,36,23,-13
7200,-30,85,-231,37,23,-14
7205,-29,82,-230,38,21,-15
7210,-32,86,-233,41,19,-16
7215,-32,83,-232,42,17,-19
7220,-33,87,-232,44,14,-19
7225,-33,90,-233,44,14,-20
7230,-32,87,-232,43,13,-22
7235,-31,87,-233,41,14,-19
7240,-34,88,-231,37,15,-19
7245,-32,88,-232,33,18,-18
7250,-34,89,-234,30,20,-17
7255,-34,86,-239,30,22,-16
7260,-33,87,-234,31,22,-14
7265,-34,87,-233,31,23,-15
7270,-33,87,-238,33,23,-13
7275,-30,85,-233,36,24,-12
7280,-31,89,-229,37,26,-13
7285,-33,86,-232,38,27,-15
7290,-31,90,-231,38,28,-15
7295,-32,87,-231,39,27,-17
7300,-32,88,-232,39,26,-20
7305,-32,91,-227,39,26,-19
7310,-35,87,-231,41,26,-20
7315,-30,88,-228,42,25,-19
7320,-34,88,-230,42,23,-20
7325,-36,90,-235,43,22,-20
7330,-34,90,-233,44,21,-18
7335,-30,89,-228,46,20,-18
7340,-32,89,-232,49,18,-16
7345,-30,88,-231,50,18,-16
7350,-30,87,-231,51,21,-17
7355,-33,90,-228,50,19,-18
7360,-32,91,-235,49,22,-18
7365,-31,89,-233,46,23,-18
7370,-36,88,-233,43,24,-19
7375,-33,88,-229,41,26,-19
7380,-34,94,-233,39,27,-20
7385,-30,90,-233,39,28,-18
7390,-32,89,-234,39,27,-19
7395,-31,89,-234,38,28,-19
7400,-30,88,-231,37,27,-17
7405,-32,88,-232,38,27,-17
7410,-32,88,-233,40,29,-17
7415,-28,87,-227,41,26,-16
7420,-30,89,-231,43,26,-15
7425,-32,90,-234,44,26,-16
7430,-33,91,-234,48,24,-16
7435,-31,90,-238,49,22,-18
7440,-35,89,-231,51,21,-17
7445,-33,90,-231,52,18,-18
7450,-33,89,-230,55,16,-19
7455,-31,89,-230,56,13,-19
7460,-32,89,-229,56,12,-18
7465,-36,87,-233,57,8,-17
7470,-36,89,-234,56,5,-16
7475,-32,87,-232,56,2,-16
7480,-36,91,-230,55,1,-14
7485,-31,86,-232,52,-2,-14
7490,-29,88,-235,48,-1,-14
7495,-31,90,-235,46,1,-12
7500,-34,90,-232,45,3,-12
7505,-32,90,-230,44,6,-13
7510,-30,87,-230,44,9,-13
7515,-36,93,-231,43,11,-13
7520,-35,96,-230,45,13,-14
7525,-32,85,-231,48,14,-15
7530,-39,95,-231,50,15,-14
7535,-30,89,-229,51,15,-12
7540,-41,88,-228,50,15,-13
7545,-32,90,-230,50,15,-13
7550,-32,90,-234,49,13,-13
7555,-32,88,-231,47,12,-12
7560,-31,91,-228,46,13,-11
7565,-31,87,-229,45,13,-12
7570,-34,89,-233,45,14,-12
7575,-34,88,-233,46,15,-13
7580,-31,88,-229,49,14,-12
7585,-30,88,-227,54,14,-12
7590,-33,89,-226,58,15,-12
7595,-31,84,-228,60,15,-12
7600,-31,90,-229,59,16,-11
7605,-32,90,-230,58,16,-13
7610,-27,90,-230,59,18,-12
7615,-31,90,-231,57,21,-11
7620,-32,88,-230,54,24,-9
7625,-30,87,-228,50,27,-9
7630,-32,89,-229,45,29,-7
7635,-35,91,-232,43,30,-7
7640,-33,88,-232,40,30,-8
7645,-33,88,-230,41,32,-8
7650,-34,85,-236,42,31,-11
7655,-32,92,-229,43,30,-10
7660,-32,90,-231,46,27,-11
7665,-30,87,-231,49,22,-10
7670,-31,88,-229,52,16,-10
7675,-31,85,-230,54,9,-9
7680,-33,89,-231,56,6,-10
7685,-31,92,-229,57,4,-10
7690,-35,88,-228,58,2,-9
7695,-27,91,-238,57,2,-9
7700,-34,90,-233,57,2,-9
7705,-33,86,-245,57,1,-11
7710,-31,89,-233,59,0,-13
7715,-31,90,-234,60,3,-12
7720,-33,85,-235,63,6,-12
7725,-33,89,-232,65,9,-12
7730,-31,90,-234,65,11,-14
7735,-31,88,-230,66,13,-13
7740,-32,87,-226,66,14,-12
7745,-32,84,-228,66,16,-15
7750,-34,88,-227,67,16,-17
7755,-33,86,-229,72,14,-16
7760,-35,77,-229,78,10,-20
7765,-33,85,-230,86,7,-20
7770,-33,86,-230,94,2,-21
7775,-36,85,-233,98,-1,-20
7780,-38,84,-229,106,-7,-20
7785,-35,81,-231,117,-13,-16
7790,-33,77,-228,130,-21,-15
7795,-37,74,-235,144,-30,-15
7800,-40,76,-236,155,-41,-14
7805,-37,79,-238,167,-52,-15
7810,-41,80,-242,177,-63,-13
7815,-48,81,-244,189,-72,-9
7820,-41,79,-249,200,-80,-3
7825,-44,84,-256,205,-87,2
7830,-43,82,-251,206,-91,5
7835,-43,83,-258,206,-92,8
7840,-38,82,-260,209,-91,13
7845,-40,84,-261,221,-85,19
7850,-44,78,-256,242,-76,23
7855,-38,71,-258,264,-66,25
7860,-44,71,-259,288,-55,27
7865,-40,68,-252,314,-45,28
7870,-43,66,-249,345,-36,28
7875,-43,67,-250,377,-30,28
7880,-41,64,-246,411,-23,29
7885,-42,64,-248,446,-15,31
7890,-40,62,-245,479,-12,30
7895,-40,63,-244,506,-7,29
7900,-42,62,-246,528,-6,25
7905,-41,63,-250,551,-6,16
7910,-38,62,-245,574,-11,14
7915,-40,63,-248,595,-12,7
7920,-45,56,-251,617,-13,4
7925,-39,59,-252,639,-13,2
7930,-34,62,-256,661,-12,0
7935,-35,61,-258,681,-11,0
7940,-33,60,-257,697,-6,-2
7945,-30,54,-262,713,1,-6
7950,-33,57,-261,728,16,-12
7955,-27,56,-263,748,33,-17
7960,-33,57,-263,774,52,-21
7965,-26,57,-264,804,75,-25
7970,-29,51,-261,839,103,-29
7975,-31,50,-261,871,128,-38
7980,-27,54,-264,904,151,-44
7985,-30,53,-263,936,176,-48
7990,-31,59,-265,967,201,-50
7995,-27,57,-265,994,223,-51
8000,-36,61,-263,1022,241,-53
8005,-32,58,-260,1050,255,-56
8010,-32,54,-259,1079,268,-63
8015,-31,52,-258,1110,281,-68
8020,-33,47,-258,1138,293,-73
8025,-37,46,-256,1162,303,-79
8030,-30,40,-261,1185,311,-85
8035,-37,42,-254,1208,315,-88
8040,-38,42,-254,1229,317,-88
8045,-35,36,-253,1252,316,-86
8050,-37,41,-255,1275,315,-84
8055,-33,39,-254,1294,317,-81
8060,-32,38,-254,1313,317,-79
8065,-31,38,-254,1336,315,-77
8070,-33,33,-249,1358,312,-75
8075,-29,30,-250,1377,306,-74
8080,-29,29,-245,1389,297,-70
8085,-22,22,-253,1395,287,-66
8090,-27,28,-252,1392,271,-61
8095,-27,19,-247,1381,250,-60
8100,-25,19,-253,1367,230,-56
8105,-23,17,-253,1348,212,-51
8110,-25,15,-251,1329,196,-44
8115,-23,13,-257,1311,182,-37
8120,-18,7,-257,1296,164,-30
8125,-19,7,-257,1286,150,-22
8130,-17,4,-258,1278,138,-17
8135,-19,8,-265,1271,129,-10
8140,-16,3,-258,1268,121,-4
8145,-16,-2,-262,1267,113,3
8150,-18,-2,-257,1265,111,14
8155,-16,-3,-258,1261,108,23
8160,-16,-3,-258,1256,108,32
8165,-14,-6,-254,1248,109,38
8170,-12,-8,-255,1241,115,49
8175,-13,-9,-248,1237,124,57
8180,-11,-15,-252,1234,134,66
8185,-13,-17,-249,1233,142,73
8190,-7,-11,-247,1235,148,78
8195,-9,-15,-248,1236,153,78
8200,-12,-14,-246,1236,152,81
8205,-13,-16,-247,1233,147,83
8210,-11,-15,-242,1229,139,89
8215,-10,-15,-240,1221,128,100
8220,-10,-20,-241,1205,121,115
8225,-8,-19,-242,1184,119,130
8230,-11,-20,-246,1157,117,139
8235,-11,-20,-247,1127,118,150
8240,-14,-20,-245,1098,116,160
8245,-15,-22,-251,1067,117,165
8250,-14,-26,-250,1039,114,168
8255,-11,-29,-250,1017,109,168
8260,-15,-31,-252,997,105,170
8265,-12,-36,-251,977,104,171
8270,-13,-38,-256,959,106,171
8275,-15,-42,-251,942,105,170
8280,-14,-43,-252,927,105,168
8285,-18,-46,-252,914,109,167
8290,-13,-55,-251,903,110,167
8295,-20,-55,-255,898,115,164
8300,-15,-55,-249,901,118,159
8305,-12,-56,-248,910,127,158
8310,-13,-60,-249,923,135,158
8315,-13,-60,-244,938,143,158
8320,-15,-61,-242,955,149,157
8325,-10,-63,-244,975,153,159
8330,-9,-63,-240,990,159,159
8335,-9,-58,-238,1006,162,157
8340,-9,-61,-243,1024,166,155
8345,-10,-58,-241,1038,169,152
8350,-2,-60,-243,1051,174,148
8355,-5,-64,-244,1054,180,139
8360,-3,-65,-249,1056,183,130
8365,-4,-66,-243,1052,185,113
8370,-5,-69,-251,1047,187,96
8375,0,-77,-250,1044,189,79
8380,-2,-77,-250,1038,194,59
8385,-2,-80,-253,1030,201,41
8390,-4,-83,-256,1018,210,24
8395,-1,-88,-255,1006,219,8
8400,-9,-88,-257,995,228,-3
8405,-3,-95,-254,982,238,-8
8410,-3,-98,-253,970,249,-12
8415,0,-104,-250,958,262,-14
8420,0,-105,-248,953,273,-19
8425,-2,-103,-246,952,283,-19
8430,-5,-106,-246,952,292,-17
8435,-7,-105,-238,954,299,-17
8440,-6,-104,-231,961,300,-15
8445,-7,-103,-233,968,300,-8
8450,-7,-103,-224,978,299,-4
8455,-7,-98,-228,989,297,-2
8460,-8,-100,-221,1003,297,1
8465,-6,-104,-223,1015,299,4
8470,-11,-96,-221,1024,299,4
8475,-10,-98,-217,1032,299,4
8480,-7,-96,-219,1039,299,3
8485,-14,-94,-220,1044,296,-3
8490,-15,-89,-221,1051,294,-10
8495,-12,-96,-223,1055,289,-16
8500,-12,-93,-224,1054,284,-20
8505,-10,-94,-223,1049,276,-26
8510,-11,-101,-226,1037,269,-33
8515,-5,-100,-226,1023,262,-41
8520,-7,-102,-230,1005,255,-56
8525,-7,-108,-229,988,249,-66
8530,-6,-109,-226,967,245,-81
8535,-7,-114,-226,950,240,-90
8540,-7,-115,-227,933,236,-96
8545,-4,-121,-226,924,236,-98
8550,-5,-124,-229,920,238,-101
8555,-1,-125,-227,925,242,-103
8560,0,-129,-220,938,245,-109
8565,-1,-134,-223,957,250,-117
8570,1,-139,-219,980,255,-126
8575,1,-139,-218,1009,262,-137
8580,2,-143,-220,1041,273,-149
8585,2,-142,-216,1077,284,-157
8590,4,-150,-214,1115,293,-163
8595,1,-149,-214,1151,303,-169
8600,4,-152,-213,1185,308,-177
8605,3,-153,-213,1215,308,-185
8610,0,-152,-206,1244,303,-188
8615,2,-155,-214,1271,295,-190
8620,2,-147,-210,1290,283,-200
8625,1,-153,-199,1307,267,-207
8630,2,-151,-200,1320,249,-215
8635,4,-153,-200,1327,227,-218
8640,1,-148,-197,1328,205,-222
8645,1,-147,-197,1323,184,-223
8650,5,-148,-195,1312,165,-223
8655,7,-144,-196,1295,152,-224
8660,2,-143,-197,1280,147,-223
8665,3,-146,-200,1260,147,-217
8670,6,-144,-192,1241,149,-215
8675,1,-142,-192,1219,155,-214
8680,0,-142,-193,1199,162,-211
8685,1,-143,-190,1180,170,-210
8690,1,-146,-189,1162,177,-207
8695,0,-142,-188,1145,183,-203
8700,0,-143,-190,1132,187,-199
8705,3,-148,-189,1122,191,-199
8710,0,-146,-189,1114,190,-195
8715,2,-146,-189,1108,188,-192
8720,1,-147,-184,1105,184,-196
8725,4,-147,-184,1103,180,-192
8730,1,-147,-179,1102,176,-185
8735,2,-148,-183,1103,171,-180
8740,0,-148,-180,1104,161,-177
8745,1,-151,-179,1101,151,-176
8750,0,-150,-175,1096,141,-179
8755,1,-152,-175,1091,129,-180
8760,1,-151,-176,1085,117,-178
8765,1,-152,-176,1078,103,-176
8770,3,-157,-177,1067,90,-177
8775,2,-157,-174,1052,76,-179
8780,3,-161,-173,1039,63,-179
8785,5,-164,-172,1022,52,-182
8790,5,-163,-167,1003,48,-188
8795,8,-168,-166,986,45,-193
8800,11,-171,-167,972,44,-202
8805,11,-171,-167,960,46,-210
8810,13,-174,-165,950,51,-219
8815,14,-176,-165,943,59,-225
8820,14,-177,-162,942,73,-231
8825,15,-178,-162,941,91,-234
8830,19,-181,-157,947,109,-243
8835,14,-180,-159,957,128,-252
8840,17,-178,-159,957,147,-247
8845,17,-179,-157,955,163,-234
8850,22,-180,-154,952,173,-223
8855,22,-181,-156,946,180,-213
8860,23,-178,-152,936,183,-205
8865,25,-177,-152,925,182,-193
8870,29,-184,-149,910,179,-188
8875,23,-180,-148,894,174,-186
8880,27,-179,-147,879,169,-182
8885,21,-178,-153,867,161,-174
8890,20,-185,-141,854,150,-168
8895,22,-186,-149,842,135,-163
8900,22,-188,-147,833,122,-153
8905,20,-191,-147,823,107,-147
8910,22,-190,-148,813,93,-142
8915,23,-191,-147,804,85,-143
8920,22,-192,-144,792,79,-144
8925,19,-193,-144,783,76,-149
8930,20,-198,-143,774,74,-150
8935,22,-200,-140,769,76,-155
8940,22,-196,-138,765,77,-163
8945,22,-196,-145,766,80,-170
8950,25,-195,-134,768,84,-179
8955,22,-197,-134,774,90,-190
8960,22,-196,-133,779,95,-196
8965,20,-192,-132,783,99,-197
8970,21,-191,-133,788,100,-195
8975,23,-191,-129,788,102,-188
8980,23,-189,-130,784,105,-183
8985,27,-188,-129,779,110,-174
8990,24,-187,-133,774,118,-165
8995,30,-188,-129,765,124,-160
9000,23,-191,-139,754,127,-158
9005,24,-185,-131,745,127,-152
9010,24,-187,-131,735,126,-145
9015,24,-191,-130,723,125,-141
9020,23,-190,-130,708,124,-135
9025,22,-192,-129,693,122,-136
9030,19,-188,-134,683,120,-134
9035,22,-192,-126,677,120,-133
9040,19,-192,-124,674,119,-134
9045,20,-193,-125,673,117,-135
9050,25,-197,-126,671,116,-136
9055,18,-203,-122,669,113,-136
9060,19,-193,-122,665,110,-136
9065,21,-197,-122,660,105,-136
9070,22,-202,-121,655,99,-133
9075,22,-201,-113,651,92,-129
9080,24,-203,-114,646,82,-126
9085,23,-206,-112,643,71,-122
9090,20,-203,-114,637,59,-120
9095,28,-206,-112,631,49,-116
9100,29,-208,-114,625,38,-115
9105,26,-210,-115,620,30,-114
9110,31,-216,-104,615,23,-112
9115,32,-214,-111,609,18,-110
9120,32,-213,-108,605,13,-110
9125,35,-213,-110,601,8,-111
9130,34,-213,-107,595,4,-111
9135,34,-216,-110,591,1,-114
9140,32,-215,-111,585,-2,-116
9145,33,-212,-109,575,-7,-113
9150,35,-213,-108,563,-13,-111
9155,29,-215,-107,551,-15,-111
9160,34,-210,-106,541,-14,-109
9165,39,-214,-106,534,-13,-105
9170,36,-215,-104,530,-15,-104
9175,37,-210,-104,526,-18,-105
9180,33,-215,-94,524,-22,-107
9185,37,-213,-95,524,-25,-105
9190,39,-213,-101,520,-27,-102
9195,37,-210,-97,520,-27,-102
9200,38,-213,-99,519,-27,-103
9205,42,-216,-95,517,-26,-107
9210,43,-211,-94,512,-26,-109
9215,40,-213,-100,508,-23,-111
9220,37,-211,-97,504,-17,-111
9225,40,-211,-98,498,-12,-110
9230,40,-211,-96,488,-11,-114
9235,41,-215,-99,479,-8,-112
9240,41,-212,-98,472,-3,-113
9245,43,-212,-92,466,2,-114
9250,39,-211,-93,461,5,-119
9255,41,-211,-92,458,7,-121
9260,43,-216,-92,457,8,-123
9265,40,-216,-96,456,7,-124
9270,38,-214,-95,453,5,-122
9275,40,-215,-95,449,4,-123
9280,40,-215,-96,445,5,-121
9285,34,-216,-93,438,4,-118
9290,36,-215,-97,431,2,-116
9295,37,-217,-95,423,-4,-113
9300,38,-220,-92,419,-13,-112
9305,35,-217,-90,417,-21,-111
9310,36,-220,-94,419,-29,-109
9315,35,-218,-89,422,-38,-112
9320,41,-225,-93,424,-44,-110
9325,34,-221,-95,428,-47,-109
9330,38,-219,-89,433,-47,-111
9335,37,-218,-89,439,-46,-110
9340,39,-222,-91,443,-43,-107
9345,40,-220,-90,446,-43,-103
9350,39,-222,-87,446,-41,-98
9355,38,-220,-87,447,-39,-96
9360,41,-222,-85,446,-34,-93
9365,45,-223,-85,446,-30,-95
9370,41,-219,-79,443,-28,-94
9375,44,-216,-78,444,-25,-95
9380,39,-222,-81,446,-23,-98
9385,44,-220,-80,445,-22,-98
9390,41,-222,-75,442,-20,-93
9395,44,-221,-77,435,-20,-91
9400,43,-223,-78,426,-20,-87
9405,40,-223,-79,413,-20,-86
9410,44,-222,-79,403,-24,-81
9415,43,-225,-75,391,-27,-80
9420,44,-224,-75,382,-30,-78
9425,42,-229,-75,373,-31,-76
9430,43,-227,-74,368,-31,-73
9435,44,-223,-74,365,-31,-72
9440,46,-231,-75,366,-32,-72
9445,41,-225,-74,371,-33,-74
9450,40,-229,-75,376,-33,-74
9455,43,-227,-75,381,-32,-76
9460,44,-229,-75,384,-32,-75
9465,41,-230,-74,385,-31,-76
9470,40,-226,-74,379,-28,-75
9475,39,-227,-77,368,-29,-74
9480,42,-227,-72,352,-28,-72
9485,44,-228,-72,333,-29,-70
9490,45,-231,-74,311,-31,-68
9495,42,-228,-76,290,-34,-65
9500,42,-230,-74,269,-38,-63
9505,44,-232,-72,250,-41,-59
9510,41,-231,-75,235,-47,-58
9515,42,-230,-75,222,-51,-55
9520,47,-234,-71,211,-57,-52
9525,40,-229,-74,203,-61,-52
9530,43,-227,-69,197,-62,-50
9535,47,-227,-68,191,-66,-46
9540,40,-228,-72,186,-65,-45
9545,38,-232,-70,181,-63,-45
9550,44,-231,-67,176,-63,-41
9555,44,-232,-66,171,-60,-41
9560,45,-230,-69,167,-58,-40
9565,46,-233,-66,164,-57,-38
9570,45,-231,-63,160,-55,-37
9575,47,-231,-64,156,-54,-35
9580,48,-230,-65,154,-52,-36
9585,45,-230,-63,150,-48,-35
9590,45,-231,-65,146,-45,-33
9595,48,-230,-65,141,-42,-33
9600,49,-234,-61,134,-39,-33
9605,50,-231,-64,128,-35,-32
9610,50,-231,-63,121,-31,-32
9615,48,-232,-62,116,-24,-32
9620,49,-232,-69,111,-19,-32
9625,48,-235,-66,107,-12,-32
9630,51,-234,-66,103,-5,-32
9635,46,-232,-63,102,0,-32
9640,46,-232,-66,103,7,-32
9645,53,-238,-63,107,13,-32
9650,49,-235,-67,112,17,-35
9655,48,-234,-62,121,20,-34
9660,49,-234,-65,132,21,-37
9665,49,-236,-64,142,22,-41
9670,49,-235,-63,151,21,-40
9675,50,-234,-67,158,18,-39
9680,50,-232,-61,165,17,-38
9685,51,-235,-60,168,15,-38
9690,50,-238,-62,171,12,-38
9695,47,-235,-60,171,10,-38
9700,44,-237,-60,168,6,-36
9705,54,-235,-62,164,5,-38
9710,47,-242,-63,160,4,-39
9715,44,-238,-62,156,3,-40
9720,45,-239,-61,151,4,-40
9725,43,-242,-63,147,6,-37
9730,42,-236,-65,143,7,-36
9735,41,-240,-63,140,9,-34
9740,43,-241,-62,137,13,-32
9745,41,-240,-60,136,18,-31
9750,43,-242,-63,133,23,-28
9755,43,-240,-62,134,28,-26
9760,41,-238,-63,134,31,-23
9765,38,-250,-63,132,34,-19
9770,42,-240,-62,131,36,-17
9775,44,-240,-62,129,37,-14
9780,44,-238,-62,128,38,-12
9785,41,-233,-63,126,39,-10
9790,41,-237,-61,126,40,-8
9795,45,-239,-61,127,40,-7
9800,41,-238,-63,128,39,-5
9805,44,-238,-57,128,40,-4
9810,47,-240,-59,129,40,-2
9815,45,-234,-59,126,39,-1
9820,42,-237,-63,123,38,0
9825,45,-237,-59,119,37,0
9830,45,-235,-60,116,36,-2
9835,45,-234,-63,112,36,0
9840,41,-234,-59,107,34,-1
9845,43,-235,-60,101,34,-1
9850,41,-239,-55,96,34,-2
9855,46,-237,-58,90,31,-3
9860,44,-241,-58,84,29,-1
9865,46,-239,-58,80,28,-3
9870,51,-241,-56,79,27,-4
9875,47,-239,-62,81,27,-9
9880,46,-237,-60,84,25,-6
9885,43,-238,-60,89,25,-4
9890,47,-241,-59,95,26,-3
9895,46,-240,-60,101,27,-2
9900,44,-238,-59,107,28,0
9905,42,-240,-57,114,31,4
9910,44,-238,-59,119,34,6
9915,42,-237,-63,122,37,5
9920,45,-239,-59,124,39,7
9925,41,-242,-58,125,40,7
9930,46,-241,-58,122,43,7
9935,45,-239,-58,120,46,7
9940,45,-241,-56,116,45,3
9945,44,-240,-58,112,45,2
9950,46,-241,-55,109,44,1
9955,43,-241,-58,107,42,0
9960,45,-243,-57,107,41,1
9965,43,-240,-53,108,38,-1
9970,46,-244,-55,111,34,-2
9975,42,-242,-60,114,33,-1
9980,41,-242,-61,118,30,-1
9985,43,-237,-58,120,28,-1
9990,44,-242,-59,124,27,2
9995,41,-240,-56,126,25,1
10000,45,-239,-57,128,23,2
10005,42,-238,-55,130,21,5
10010,47,-241,-57,132,19,4
10015,46,-240,-63,134,18,5
10020,48,-240,-59,134,19,6
10025,43,-237,-55,136,20,6
10030,42,-236,-56,135,19,7
10035,38,-238,-54,134,20,6
10040,47,-241,-59,133,20,6
10045,44,-239,-58,132,22,5
10050,42,-239,-53,128,23,5
10055,43,-236,-59,127,24,3
10060,42,-237,-57,126,25,1
10065,44,-239,-59,125,26,2
10070,44,-240,-58,125,25,0
10075,46,-242,-53,126,26,-1
10080,41,-237,-57,127,28,0
10085,46,-238,-54,129,30,-1
10090,42,-238,-62,133,30,-1
10095,45,-240,-58,136,31,-1
10100,44,-240,-56,139,32,-1
10105,45,-239,-54,144,33,-1
10110,42,-238,-53,148,33,-1
10115,43,-241,-57,152,33,-3
10120,43,-242,-52,152,32,-4
10125,45,-243,-53,153,31,-5
10130,42,-241,-59,156,30,-5
10135,40,-236,-54,157,28,-4
10140,43,-238,-54,157,26,-7
10145,43,-238,-49,159,27,-7
10150,43,-235,-54,159,26,-8
10155,44,-238,-57,159,22,-9
10160,47,-242,-55,158,22,-8
10165,41,-236,-54,155,19,-8
10170,43,-235,-52,150,17,-8
10175,43,-239,-51,145,16,-8
10180,43,-237,-53,140,14,-8
10185,44,-244,-50,134,14,-10
10190,41,-236,-56,128,12,-10
10195,43,-238,-54,124,11,-11
10200,47,-239,-51,119,10,-13
10205,42,-238,-53,118,9,-13
10210,42,-237,-51,119,11,-13
10215,42,-240,-52,121,11,-14
10220,43,-239,-53,123,11,-12
10225,46,-238,-53,126,11,-10
10230,45,-236,-51,132,12,-10
10235,42,-238,-50,135,12,-10
10240,43,-235,-55,137,11,-10
10245,40,-236,-54,139,11,-8
10250,41,-236,-55,137,11,-9
10255,37,-239,-59,134,10,-8
10260,45,-240,-52,131,11,-9
10265,45,-236,-52,125,11,-9
10270,44,-238,-51,122,11,-8
10275,44,-237,-52,115,12,-9
10280,46,-236,-52,111,12,-9
10285,44,-240,-48,106,14,-12
10290,46,-241,-52,103,13,-10
10295,42,-244,-49,97,12,-10
10300,44,-240,-51,94,13,-10
10305,41,-239,-48,90,12,-12
10310,46,-239,-53,91,12,-12
10315,45,-242,-50,91,11,-13
10320,44,-238,-46,92,12,-15
10325,44,-239,-51,95,11,-14
10330,46,-240,-45,99,11,-14
10335,43,-239,-49,104,12,-13
10340,46,-241,-51,109,12,-15
10345,48,-241,-51,113,11,-12
10350,45,-239,-50,114,10,-14
10355,46,-240,-46,115,10,-14
10360,45,-241,-50,116,11,-14
10365,44,-239,-46,116,11,-15
10370,45,-238,-48,115,12,-16
10375,44,-242,-48,113,11,-16
10380,45,-239,-48,111,13,-18
10385,41,-239,-49,105,15,-18
10390,44,-238,-45,103,16,-20
10395,45,-239,-48,98,18,-21
10400,48,-239,-47,94,20,-23
10405,45,-240,-52,90,23,-22
10410,47,-243,-49,86,25,-22
10415,43,-242,-52,84,27,-24
10420,45,-242,-51,82,29,-25
10425,48,-241,-52,82,30,-25
10430,45,-241,-46,81,32,-23
10435,46,-241,-46,81,32,-24
10440,45,-243,-51,82,33,-23
10445,45,-241,-47,81,32,-25
10450,44,-241,-49,83,32,-24
10455,45,-239,-49,83,30,-24
10460,44,-242,-49,82,30,-25
10465,47,-242,-51,83,26,-26
10470,43,-242,-45,84,25,-24
10475,44,-238,-47,84,22,-23
10480,44,-237,-45,84,20,-23
10485,44,-243,-49,82,18,-23
10490,44,-239,-52,81,15,-22
10495,43,-239,-47,80,14,-20
10500,42,-239,-47,78,13,-19
10505,43,-241,-42,75,12,-17
10510,41,-237,-46,72,12,-18
10515,42,-242,-45,71,11,-15
10520,46,-238,-48,69,10,-14
10525,42,-241,-45,69,8,-13
10530,43,-241,-44,68,10,-14
10535,43,-241,-43,71,11,-14
10540,44,-240,-43,72,12,-13
10545,43,-240,-48,74,13,-13
10550,44,-238,-52,75,15,-13
10555,43,-239,-46,77,15,-12
10560,44,-238,-46,78,16,-11
10565,45,-238,-50,78,16,-9
10570,46,-240,-48,77,17,-8
10575,49,-239,-40,75,17,-7
10580,52,-239,-50,70,17,-7
10585,48,-240,-50,66,17,-7
10590,43,-238,-43,63,17,-8
10595,46,-239,-47,59,16,-9
10600,44,-239,-49,53,15,-11
10605,47,-242,-49,47,10,-11
10610,45,-242,-47,44,7,-12
10615,40,-239,-43,41,3,-12
10620,44,-239,-45,39,3,-14
10625,41,-239,-49,37,2,-16
10630,48,-246,-43,37,0,-16
10635,42,-242,-52,37,-1,-19
10640,45,-243,-48,39,-1,-20
10645,44,-241,-47,39,-1,-21
10650,46,-241,-47,40,1,-22
10655,45,-241,-43,41,3,-23
10660,45,-244,-41,43,4,-25
10665,47,-243,-44,43,7,-24
10670,45,-244,-46,46,9,-22
10675,46,-243,-45,47,10,-22
10680,45,-240,-47,50,11,-18
10685,44,-238,-50,54,12,-17
10690,50,-242,-47,58,13,-18
10695,46,-240,-48,60,13,-18
10700,41,-239,-47,61,13,-16
10705,46,-239,-47,62,13,-18
10710,43,-238,-42,59,12,-16
10715,47,-243,-48,56,11,-18
10720,48,-240,-49,53,12,-18
10725,44,-239,-48,52,12,-17
10730,42,-237,-49,49,11,-17
10735,44,-244,-46,46,8,-17
10740,44,-237,-49,43,6,-17
10745,46,-245,-49,41,3,-18
10750,43,-239,-48,38,1,-17
10755,44,-239,-50,34,0,-16
10760,44,-239,-48,34,-4,-18
10765,43,-239,-49,34,-6,-17
10770,47,-241,-45,34,-6,-15
10775,44,-239,-46,37,-8,-14
10780,45,-235,-46,40,-9,-11
10785,44,-240,-48,43,-10,-10
10790,48,-237,-51,47,-10,-7
10795,42,-240,-51,48,-12,-4
10800,48,-235,-45,49,-13,-2
10805,49,-239,-50,49,-14,-2
10810,45,-240,-47,49,-14,1
10815,47,-240,-44,47,-13,1
10820,46,-241,-46,45,-14,1
10825,43,-242,-50,43,-13,-1
10830,49,-238,-49,40,-14,-1
10835,47,-239,-48,37,-14,-2
10840,45,-244,-49,34,-15,-2
10845,43,-240,-43,31,-16,-2
10850,46,-244,-45,29,-16,-1
10855,44,-240,-48,29,-17,0
10860,45,-242,-45,28,-16,-1
10865,47,-243,-50,31,-16,0
10870,48,-243,-46,33,-16,1
10875,47,-241,-48,35,-15,2
10880,47,-243,-49,38,-15,4
10885,48,-242,-47,41,-15,4
10890,50,-242,-50,43,-16,5
10895,45,-242,-48,47,-17,6
10900,49,-240,-47,47,-19,8
10905,49,-243,-45,48,-18,8
10910,44,-240,-47,48,-18,8
10915,46,-238,-49,47,-17,9
10920,46,-237,-51,46,-16,8
10925,48,-240,-52,44,-16,8
10930,48,-241,-50,42,-14,7
10935,44,-239,-48,39,-11,7
10940,45,-239,-49,35,-11,7
10945,42,-236,-42,34,-9,8
10950,49,-242,-48,28,-8,7
10955,43,-238,-50,24,-7,7
10960,40,-242,-49,21,-7,5
10965,47,-241,-51,19,-7,4
10970,46,-240,-48,18,-5,3
10975,44,-242,-52,15,-2,4
10980,47,-242,-50,15,-3,3
10985,44,-242,-47,15,-3,2
10990,44,-238,-48,15,-1,-1
10995,47,-243,-51,17,0,-1
11000,46,-242,-47,19,1,0
11005,43,-238,-47,20,1,-2
11010,45,-241,-52,23,2,-2
11015,49,-244,-41,25,3,-3
11020,45,-243,-51,27,5,-3
11025,45,-241,-52,27,4,-4
11030,45,-243,-51,27,5,-4
11035,44,-240,-49,29,5,-5
11040,46,-243,-51,28,4,-6
11045,45,-239,-51,27,4,-5
11050,46,-242,-46,26,6,-5
11055,47,-242,-49,23,6,-5
11060,48,-245,-51,20,8,-4
11065,45,-238,-52,19,7,-7
11070,40,-239,-52,17,8,-6
11075,44,-242,-50,16,8,-8
11080,43,-240,-49,18,7,-10
11085,45,-241,-55,20,9,-12
11090,43,-238,-54,21,9,-9
11095,46,-243,-49,26,10,-10
11100,44,-239,-54,31,10,-9
11105,41,-238,-48,36,10,-9
11110,43,-241,-51,39,10,-9
11115,42,-242,-47,41,10,-11
11120,46,-243,-51,42,11,-12
11125,41,-237,-55,41,10,-12
11130,44,-237,-50,40,9,-12
11135,43,-238,-48,38,8,-14
11140,44,-238,-52,37,7,-13
11145,42,-243,-52,37,5,-11
11150,44,-240,-48,36,5,-11
11155,42,-241,-55,36,5,-10
11160,47,-237,-53,36,5,-10
11165,44,-242,-53,36,6,-10
11170,43,-241,-49,36,7,-8
11175,48,-244,-53,38,7,-9
11180,43,-246,-53,40,7,-8
11185,43,-241,-48,42,7,-7
11190,45,-243,-50,45,5,-6
11195,42,-239,-51,50,5,-5
11200,43,-240,-51,53,3,-7
11205,42,-241,-50,55,3,-6
11210,42,-241,-52,56,3,-8
11215,46,-242,-52,57,4,-11
11220,42,-241,-48,58,5,-13
11225,45,-240,-55,59,4,-15
11230,46,-238,-49,60,5,-16
11235,45,-245,-48,59,5,-15
11240,46,-239,-51,55,4,-16
11245,45,-238,-50,51,4,-15
11250,45,-240,-52,47,4,-13
11255,45,-239,-51,42,4,-14
11260,45,-243,-51,36,4,-12
11265,45,-239,-51,32,4,-10
11270,46,-241,-50,29,6,-10
11275,41,-241,-56,27,8,-10
11280,42,-238,-54,27,10,-11
11285,46,-240,-48,28,10,-10
11290,44,-247,-53,29,11,-12
11295,44,-240,-51,31,12,-11
11300,42,-241,-47,34,10,-10
11305,42,-242,-52,36,10,-9
11310,44,-243,-54,39,10,-9
11315,44,-240,-52,43,9,-10
11320,44,-242,-50,44,10,-8
11325,45,-239,-51,46,9,-10
11330,41,-239,-54,47,9,-10
11335,43,-242,-52,47,9,-13
11340,43,-241,-50,47,8,-14
11345,38,-238,-52,46,9,-15
11350,42,-239,-49,44,7,-16
11355,40,-238,-48,42,5,-17
11360,42,-241,-55,39,4,-17
11365,45,-241,-55,39,4,-19
11370,42,-242,-51,37,3,-17
11375,44,-244,-55,37,3,-18
11380,43,-241,-52,37,4,-19
11385,45,-244,-50,41,3,-19
11390,44,-243,-51,42,3,-17
11395,42,-236,-49,46,3,-16
11400,43,-239,-48,51,5,-16
11405,44,-244,-52,54,4,-16
11410,45,-239,-50,57,4,-15
11415,45,-241,-51,62,5,-14
11420,42,-240,-49,66,6,-17
11425,42,-241,-53,71,5,-16
11430,44,-238,-54,72,5,-17
11435,45,-241,-51,73,4,-15
11440,42,-237,-51,71,3,-14
11445,46,-240,-52,71,1,-13
11450,48,-243,-50,68,-1,-15
11455,43,-239,-52,64,-4,-14
11460,44,-239,-49,60,-6,-13
11465,43,-241,-52,56,-7,-14
11470,42,-242,-53,54,-7,-18
11475,43,-239,-50,52,-6,-17
11480,45,-242,-52,50,-6,-19
11485,45,-241,-53,49,-4,-21
11490,41,-237,-51,50,-2,-23
11495,45,-245,-57,51,1,-25
11500,46,-238,-51,54,2,-26
11505,44,-238,-50,58,4,-26
11510,48,-242,-51,60,7,-25
11515,45,-244,-55,64,7,-24
11520,44,-241,-54,67,9,-26
11525,44,-240,-48,68,10,-24
11530,41,-240,-53,68,11,-23
11535,43,-240,-51,68,12,-22
11540,42,-236,-55,70,14,-22
11545,45,-241,-51,71,16,-18
11550,47,-238,-47,72,18,-18
11555,43,-243,-51,73,20,-16
11560,47,-239,-55,73,23,-14
11565,43,-241,-53,74,22,-15
11570,43,-235,-52,73,23,-13
11575,47,-242,-54,73,22,-11
11580,43,-235,-52,73,21,-10
11585,44,-241,-50,75,20,-10
11590,45,-237,-52,73,18,-9
11595,45,-239,-49,72,18,-7
11600,44,-238,-50,69,15,-9
11605,46,-241,-53,68,12,-8
11610,45,-241,-54,66,10,-9
11615,43,-242,-54,65,5,-13
11620,43,-238,-46,64,1,-14
11625,41,-240,-51,65,0,-16
11630,42,-238,-53,65,-2,-17
11635,45,-239,-53,70,-2,-16
11640,42,-239,-52,74,-3,-15
11645,46,-242,-50,79,-1,-13
11650,46,-241,-49,83,0,-10
11655,44,-241,-51,87,2,-8
11660,44,-237,-52,87,5,-7
11665,45,-242,-55,86,8,-7
11670,44,-242,-51,82,12,-8
11675,43,-238,-54,77,15,-7
11680,47,-242,-50,70,17,-7
11685,42,-240,-53,63,20,-9
11690,40,-240,-52,56,20,-9
11695,46,-242,-54,52,21,-8
11700,45,-242,-50,49,20,-9
11705,46,-243,-48,48,17,-9
11710,45,-242,-50,51,16,-7
11715,46,-244,-49,56,13,-9
11720,40,-241,-49,61,12,-7
11725,42,-245,-45,68,11,-6
11730,46,-242,-51,73,7,-5
11735,47,-244,-51,80,4,-5
11740,45,-244,-46,85,4,-5
11745,45,-242,-51,90,2,-3
11750,45,-241,-50,93,1,-4
11755,44,-241,-50,94,1,-2
11760,44,-241,-48,93,0,-1
11765,45,-241,-48,91,1,-1
11770,47,-246,-52,89,0,0
11775,46,-242,-49,85,0,-2
11780,44,-245,-53,82,0,-1
11785,46,-239,-54,77,2,-2
11790,44,-237,-52,73,3,-3
11795,41,-236,-51,70,5,-4
11800,41,-237,-51,66,7,-4
11805,45,-238,-51,62,10,-5
11810,45,-238,-49,60,12,-4
11815,46,-239,-48,57,13,-3
11820,44,-243,-48,58,15,-6
11825,41,-243,-52,61,14,-6
11830,47,-246,-46,62,16,-8
11835,47,-246,-50,63,16,-5
11840,44,-240,-52,65,14,-6
11845,45,-242,-52,66,15,-7
11850,46,-241,-53,66,16,-8
11855,44,-244,-49,68,18,-10
11860,42,-241,-53,69,19,-11
11865,44,-239,-47,70,20,-9
11870,47,-244,-46,70,23,-10
11875,44,-240,-51,72,22,-11
11880,45,-244,-46,75,24,-11
11885,39,-241,-50,77,24,-10
11890,43,-240,-50,77,25,-10
11895,45,-241,-50,78,25,-11
11900,44,-240,-50,76,22,-12
11905,42,-238,-49,75,20,-13
11910,44,-241,-46,73,19,-12
11915,44,-238,-46,71,16,-12
11920,42,-241,-45,70,14,-12
11925,45,-237,-45,70,13,-11
11930,40,-241,-47,72,12,-10
11935,43,-236,-45,74,10,-11
11940,42,-245,-50,76,9,-8
11945,43,-238,-50,80,8,-6
11950,44,-240,-51,83,8,-7
11955,44,-238,-50,84,8,-7
11960,44,-238,-47,83,8,-8
11965,45,-240,-46,82,10,-9
11970,46,-239,-47,78,10,-8
11975,42,-238,-54,75,12,-9
11980,41,-239,-53,73,12,-9
11985,44,-243,-49,70,14,-12
11990,44,-239,-45,67,15,-10
11995,39,-238,-50,66,14,-9
