timestamp,acc_x,acc_y,acc_z,gyro_x,gyro_y,gyro_z
0,-1,-252,-77,-16,85,-1
5,0,-248,-76,-14,84,-1
10,-3,-245,-78,-13,84,-2
15,-1,-249,-74,-12,84,-2
20,-2,-249,-79,-10,82,-3
25,-2,-247,-77,-10,81,-3
30,-2,-247,-77,-11,79,-4
35,1,-248,-75,-11,80,-3
40,1,-251,-75,-13,79,-4
45,1,-248,-80,-14,76,-4
50,-1,-246,-77,-15,77,-5
55,-1,-250,-78,-15,76,-5
60,0,-248,-76,-14,79,-5
65,-2,-248,-78,-12,81,-6
70,-1,-248,-78,-11,81,-5
75,-4,-245,-76,-10,82,-6
80,0,-250,-77,-9,83,-6
85,0,-249,-76,-8,83,-7
90,-2,-248,-75,-8,81,-5
95,2,-247,-80,-9,81,-6
100,1,-248,-75,-9,79,-6
105,1,-246,-79,-10,79,-7
110,-1,-249,-73,-12,80,-6
115,0,-246,-75,-12,81,-4
120,-1,-251,-75,-12,81,-5
125,2,-250,-76,-13,79,-5
130,0,-251,-75,-12,78,-5
135,-1,-248,-75,-14,77,-5
140,4,-251,-76,-14,76,-4
145,4,-248,-75,-17,77,-2
150,-1,-247,-80,-18,76,-1
155,1,-248,-77,-18,77,-2
160,1,-248,-81,-18,77,-2
165,1,-246,-79,-19,75,-2
170,1,-248,-75,-19,76,-2
175,0,-247,-73,-18,77,-2
180,3,-246,-75,-19,77,-1
185,5,-249,-76,-19,78,0
190,2,-244,-80,-19,79,-2
195,3,-247,-79,-20,80,-2
200,2,-246,-77,-20,81,-1
205,2,-246,-74,-21,81,-1
210,-1,-248,-76,-23,79,-1
215,0,-250,-75,-25,78,-1
220,1,-246,-75,-28,77,-1
225,4,-247,-79,-32,76,-1
230,3,-247,-76,-37,75,-1
235,1,-251,-79,-39,75,-1
240,2,-253,-78,-41,76,-1
245,2,-247,-77,-42,76,0
250,0,-252,-78,-41,75,-3
255,-2,-250,-75,-40,76,-2
260,1,-247,-79,-38,74,-3
265,-1,-250,-78,-35,73,-3
270,0,-249,-79,-31,75,-5
275,-1,-250,-79,-30,74,-4
280,3,-250,-78,-30,74,-5
285,4,-246,-77,-30,74,-4
290,1,-246,-79,-30,73,-5
295,-7,-245,-79,-31,73,-7
300,2,-247,-80,-31,73,-7
305,4,-249,-76,-33,73,-6
310,0,-248,-79,-33,73,-6
315,3,-249,-73,-34,70,-6
320,-1,-248,-79,-37,69,-7
325,1,-249,-78,-38,70,-6
330,4,-250,-77,-40,70,-6
335,2,-247,-79,-42,69,-6
340,4,-249,-76,-43,70,-5
345,4,-248,-76,-43,68,-5
350,4,-250,-77,-44,68,-4
355,3,-247,-78,-46,70,-4
360,3,-248,-77,-47,71,-2
365,3,-249,-79,-48,72,-1
370,4,-249,-78,-49,72,-1
375,4,-250,-77,-49,73,-2
380,4,-249,-76,-49,74,-1
385,2,-248,-74,-49,76,-1
390,1,-252,-73,-47,76,-1
395,2,-250,-76,-47,79,0
400,3,-250,-72,-45,80,0
405,3,-250,-75,-44,81,0
410,1,-248,-70,-41,81,1
415,0,-249,-78,-38,81,1
420,4,-248,-72,-38,81,0
425,1,-250,-78,-37,79,0
430,2,-252,-72,-37,79,3
435,3,-247,-73,-36,78,3
440,4,-247,-79,-36,80,3
445,3,-245,-73,-37,80,3
450,4,-250,-79,-38,80,1
455,4,-249,-77,-40,78,2
460,3,-246,-73,-43,80,1
465,2,-252,-75,-45,80,3
470,3,-252,-77,-47,79,5
475,3,-249,-76,-51,79,2
480,-1,-248,-76,-52,80,1
485,4,-251,-74,-50,81,0
490,3,-251,-80,-50,83,-1
495,4,-250,-75,-48,82,0
500,4,-248,-79,-45,83,0
505,1,-248,-74,-43,85,1
510,3,-249,-78,-41,85,0
515,1,-250,-76,-37,86,-1
520,3,-250,-77,-37,86,-1
525,5,-251,-77,-36,86,-1
530,1,-249,-75,-36,87,-3
535,0,-250,-74,-36,88,0
540,0,-248,-77,-36,91,-1
545,3,-247,-76,-38,90,-2
550,0,-250,-73,-39,93,-1
555,2,-251,-76,-39,91,-2
560,3,-250,-77,-38,93,-1
565,2,-249,-74,-37,92,-2
570,4,-252,-78,-38,94,-1
575,2,-248,-77,-37,93,1
580,4,-250,-80,-38,93,1
585,3,-250,-78,-36,92,0
590,4,-249,-82,-37,92,0
595,2,-249,-79,-37,89,2
600,4,-250,-79,-36,89,3
605,4,-253,-79,-37,86,3
610,4,-249,-78,-36,86,2
615,3,-246,-79,-37,86,2
620,4,-250,-79,-38,88,2
625,2,-248,-78,-36,90,3
630,2,-247,-81,-36,89,3
635,0,-249,-77,-35,90,5
640,2,-249,-75,-34,92,5
645,4,-249,-77,-33,93,4
650,2,-247,-77,-29,92,4
655,5,-251,-76,-28,93,5
660,2,-248,-80,-27,93,5
665,4,-246,-77,-28,92,6
670,5,-248,-78,-28,91,5
675,4,-250,-77,-28,91,5
680,3,-250,-78,-28,90,5
685,3,-249,-78,-28,88,3
690,0,-248,-75,-26,87,6
695,5,-250,-79,-25,88,5
700,3,-250,-82,-23,89,4
705,2,-252,-80,-21,90,4
710,3,-249,-75,-20,90,3
715,3,-246,-80,-18,92,3
720,4,-251,-77,-18,92,3
725,2,-250,-73,-17,90,3
730,3,-249,-80,-17,88,3
735,2,-248,-76,-17,87,3
740,4,-246,-80,-17,87,3
745,0,-248,-77,-17,88,3
750,3,-251,-77,-17,87,2
755,0,-247,-81,-15,86,2
760,1,-249,-78,-16,87,3
765,3,-248,-78,-14,87,0
770,4,-253,-81,-14,86,2
775,4,-248,-78,-13,86,2
780,4,-250,-79,-12,86,3
785,4,-247,-77,-12,84,3
790,4,-249,-78,-11,85,3
795,4,-246,-75,-13,85,2
800,4,-250,-80,-13,84,3
805,2,-250,-75,-13,83,2
810,4,-249,-76,-14,81,2
815,3,-247,-76,-14,80,1
820,4,-246,-77,-15,80,0
825,4,-249,-77,-13,79,0
830,4,-250,-78,-13,78,0
835,2,-247,-85,-13,78,0
840,1,-243,-78,-13,77,-1
845,3,-248,-80,-12,79,0
850,2,-248,-80,-16,77,-1
855,1,-247,-80,-15,76,-1
860,1,-246,-76,-15,75,-2
865,1,-248,-78,-15,75,0
870,4,-249,-79,-15,75,-1
875,1,-249,-77,-14,75,0
880,4,-247,-78,-13,74,-2
885,1,-246,-75,-13,75,-2
890,4,-247,-81,-13,74,-1
895,4,-249,-78,-13,73,-2
900,2,-247,-75,-13,72,-2
905,3,-248,-78,-14,73,-1
910,4,-247,-80,-13,73,-3
915,2,-245,-79,-14,73,-2
920,0,-246,-79,-15,74,-2
925,2,-247,-82,-15,74,-2
930,4,-248,-77,-15,73,-2
935,4,-247,-80,-16,74,-3
940,3,-246,-76,-15,73,-3
945,1,-247,-80,-14,71,-3
950,3,-250,-76,-13,70,-2
955,3,-247,-78,-12,68,-4
960,2,-248,-80,-12,68,-4
965,4,-248,-78,-11,69,-4
970,4,-247,-81,-12,68,-3
975,4,-250,-81,-11,68,-4
980,3,-249,-79,-12,67,-3
985,2,-249,-78,-13,69,-3
990,1,-246,-80,-12,69,-4
995,2,-247,-79,-12,70,-4
1000,3,-248,-79,-12,69,-3
1005,4,-250,-80,-12,68,-4
1010,5,-249,-79,-14,68,-4
1015,2,-247,-78,-13,68,-2
1020,4,-249,-77,-13,68,-3
1025,4,-249,-79,-14,69,-2
1030,0,-248,-77,-13,67,-2
1035,4,-247,-80,-14,66,-3
1040,6,-249,-81,-13,67,-3
1045,2,-248,-79,-11,67,-2
1050,1,-244,-78,-9,68,-3
1055,4,-250,-76,-9,67,-2
1060,4,-246,-79,-9,66,-3
1065,3,-245,-79,-10,67,-3
1070,3,-245,-81,-11,68,-2
1075,3,-248,-79,-14,68,-1
1080,4,-248,-80,-15,71,0
1085,2,-248,-79,-18,71,-2
1090,4,-248,-79,-20,72,-2
1095,4,-250,-79,-22,74,-2
1100,2,-249,-78,-22,73,-2
1105,3,-248,-80,-20,72,-2
1110,4,-250,-79,-18,74,-4
1115,4,-249,-76,-15,73,-3
1120,1,-248,-79,-12,73,-5
1125,1,-244,-79,-10,71,-4
1130,4,-250,-76,-8,72,-3
1135,3,-247,-79,-8,72,-3
1140,2,-249,-79,-9,73,-3
1145,1,-247,-79,-9,74,-3
1150,3,-251,-81,-10,75,-3
1155,1,-246,-82,-10,75,-2
1160,-4,-252,-77,-10,74,-4
1165,3,-251,-80,-11,74,-2
1170,4,-250,-81,-11,72,-3
1175,0,-249,-81,-10,70,-5
1180,3,-248,-79,-9,69,-4
1185,2,-248,-78,-8,69,-4
1190,3,-245,-79,-6,67,-2
1195,2,-249,-79,-8,66,-1
1200,4,-246,-81,-7,66,-3
1205,2,-250,-81,-7,64,-2
1210,1,-248,-82,-7,65,-1
1215,-1,-246,-78,-7,66,-1
1220,2,-246,-78,-7,68,-2
1225,1,-247,-79,-6,70,-1
1230,1,-248,-76,-7,71,0
1235,5,-251,-80,-8,72,0
1240,1,-246,-78,-6,73,1
1245,0,-248,-76,-6,75,0
1250,4,-248,-77,-5,77,-1
1255,1,-251,-77,-5,78,-2
1260,1,-249,-77,-4,78,-1
1265,4,-251,-75,-4,78,-2
1270,0,-257,-76,-3,78,-1
1275,2,-248,-79,-4,77,-4
1280,1,-246,-79,-2,78,-4
1285,4,-251,-79,-2,76,-3
1290,3,-250,-80,-3,74,-2
1295,3,-247,-79,-3,74,-3
1300,3,-247,-78,-3,74,-3
1305,4,-249,-82,-4,73,-2
1310,4,-249,-81,-2,72,-1
1315,1,-247,-78,-3,70,-2
1320,4,-248,-79,-3,69,-1
1325,2,-247,-76,-4,68,-1
1330,3,-247,-79,-5,68,0
1335,2,-247,-79,-5,67,0
1340,2,-247,-80,-7,68,1
1345,4,-248,-78,-7,70,1
1350,0,-246,-80,-6,69,1
1355,2,-249,-79,-5,69,2
1360,1,-245,-79,-5,70,1
1365,0,-244,-75,-4,69,2
1370,2,-246,-80,-4,71,0
1375,1,-244,-77,-3,71,0
1380,2,-243,-83,-3,72,1
1385,-1,-245,-76,-3,72,-1
1390,0,-244,-76,-2,75,0
1395,2,-249,-79,-3,75,-1
1400,1,-249,-76,-4,75,-3
1405,0,-249,-79,-8,76,-2
1410,1,-248,-80,-9,74,-3
1415,1,-248,-79,-10,74,-3
1420,3,-251,-79,-12,75,-2
1425,2,-246,-80,-11,73,-2
1430,2,-250,-79,-8,72,-4
1435,0,-249,-78,-7,74,-2
1440,2,-249,-77,-5,71,-3
1445,3,-245,-76,-4,71,-3
1450,2,-246,-83,-4,69,-2
1455,-1,-247,-80,-3,68,0
1460,0,-248,-78,-3,68,-1
1465,4,-249,-81,-5,69,-1
1470,3,-248,-78,-7,69,-1
1475,2,-247,-77,-8,69,0
1480,0,-248,-79,-8,71,0
1485,3,-248,-80,-8,70,2
1490,0,-250,-80,-7,71,1
1495,2,-250,-77,-6,69,1
1500,-2,-250,-78,-3,70,1
1505,2,-249,-77,-2,71,0
1510,2,-249,-79,-2,71,0
1515,2,-248,-80,-3,71,0
1520,0,-244,-81,-4,71,-1
1525,1,-248,-80,-8,73,-2
1530,1,-248,-80,-9,73,-2
1535,4,-246,-78,-10,76,-2
1540,1,-248,-76,-9,75,-2
1545,-2,-247,-74,-9,75,-1
1550,2,-248,-77,-7,75,-2
1555,4,-249,-74,-5,75,-2
1560,3,-249,-78,-4,76,-2
1565,2,-248,-78,-4,75,-1
1570,-1,-247,-80,-4,76,-1
1575,1,-249,-81,-3,76,-2
1580,3,-251,-76,-3,75,-2
1585,1,-248,-75,-2,74,0
1590,4,-248,-78,-1,74,0
1595,4,-250,-78,-1,74,2
1600,-2,-249,-82,-1,73,2
1605,4,-251,-80,-2,72,2
1610,-1,-246,-80,0,72,1
1615,4,-251,-76,0,70,1
1620,3,-250,-78,0,69,0
1625,1,-249,-77,-2,69,2
1630,2,-251,-78,1,70,1
1635,3,-250,-81,0,71,1
1640,2,-248,-77,0,71,-1
1645,3,-248,-79,1,72,-1
1650,2,-249,-79,0,73,1
1655,3,-250,-79,-1,73,0
1660,2,-246,-79,-1,75,0
1665,4,-246,-81,0,74,0
1670,-2,-247,-76,-1,74,-1
1675,0,-248,-76,-2,74,-2
1680,2,-246,-77,-1,73,-2
1685,4,-248,-78,-1,74,0
1690,3,-247,-79,1,73,0
1695,1,-250,-77,0,73,1
1700,3,-248,-76,0,73,1
1705,-2,-246,-76,1,71,1
1710,4,-245,-81,1,72,2
1715,4,-249,-80,-2,71,2
1720,1,-248,-78,-4,70,3
1725,3,-249,-80,-6,72,2
1730,3,-246,-80,-8,73,2
1735,2,-249,-75,-8,73,1
1740,0,-249,-77,-8,72,1
1745,1,-250,-79,-8,71,-1
1750,2,-247,-78,-6,70,-1
1755,1,-250,-79,-5,70,-1
1760,-2,-248,-78,-3,69,-2
1765,2,-250,-77,-2,69,-3
1770,1,-248,-75,-1,70,-3
1775,2,-248,-77,-2,69,-3
1780,0,-246,-78,-4,67,-4
1785,-1,-245,-79,-4,68,-4
1790,2,-250,-78,-3,67,-4
1795,2,-245,-78,-3,67,-2
1800,-1,-251,-76,-2,68,-3
1805,3,-251,-80,0,70,-3
1810,2,-247,-74,1,69,-3
1815,1,-248,-80,1,68,-2
1820,2,-247,-78,-2,68,-1
1825,1,-247,-76,-5,69,-1
1830,4,-250,-81,-8,69,1
1835,4,-249,-75,-12,69,0
1840,4,-251,-79,-15,69,0
1845,1,-250,-78,-15,69,-1
1850,2,-247,-78,-15,69,-1
1855,2,-248,-77,-12,69,-2
1860,1,-250,-78,-11,71,0
1865,2,-250,-76,-10,71,-1
1870,4,-249,-77,-9,71,0
1875,3,-248,-80,-8,72,-1
1880,3,-245,-74,-8,73,1
1885,3,-249,-77,-9,74,1
1890,1,-247,-77,-10,73,0
1895,2,-249,-78,-11,74,-2
1900,4,-251,-77,-10,75,-1
1905,4,-247,-80,-10,76,0
1910,2,-248,-79,-10,75,1
1915,4,-251,-76,-7,76,2
1920,3,-250,-76,-5,77,1
1925,3,-249,-74,-3,78,3
1930,2,-245,-70,-2,78,3
1935,4,-250,-80,1,78,1
1940,-2,-247,-76,-1,76,1
1945,3,-248,-79,-2,75,2
1950,3,-246,-76,-5,76,3
1955,-1,-249,-79,-6,74,2
1960,1,-248,-75,-10,74,2
1965,3,-251,-76,-10,72,2
1970,0,-251,-78,-10,75,2
1975,0,-249,-75,-7,74,1
1980,1,-247,-76,-3,73,1
1985,3,-250,-78,-1,77,0
1990,-2,-248,-77,2,77,0
1995,3,-248,-72,3,78,1
2000,3,-249,-81,3,80,0
2005,1,-248,-75,1,78,-2
2010,0,-247,-77,-2,79,0
2015,0,-246,-76,-4,78,-2
2020,4,-246,-75,-6,76,-1
2025,4,-251,-74,-8,76,-1
2030,-2,-252,-78,-7,75,-2
2035,3,-249,-77,-6,74,-1
2040,4,-250,-77,-3,72,-1
2045,1,-250,-79,-4,72,0
2050,3,-251,-77,-2,71,2
2055,1,-251,-75,-2,67,2
2060,0,-249,-73,-1,64,2
2065,4,-248,-73,-2,64,3
2070,1,-248,-77,-4,64,3
2075,3,-248,-75,-5,63,3
2080,-1,-249,-73,-7,62,4
2085,-1,-246,-72,-6,63,2
2090,0,-246,-74,-8,64,1
2095,3,-251,-80,-7,68,2
2100,4,-251,-83,-8,70,2
2105,-1,-251,-77,-8,70,2
2110,0,-250,-77,-6,71,1
2115,1,-249,-77,-3,74,0
2120,2,-250,-74,0,75,0
2125,3,-250,-76,1,74,-2
2130,-1,-250,-76,4,73,-1
2135,3,-249,-78,4,72,-1
2140,-1,-249,-76,3,71,-1
2145,-1,-253,-87,4,69,-1
2150,-1,-249,-76,4,68,0
2155,2,-247,-77,4,65,0
2160,2,-250,-77,4,63,0
2165,3,-247,-77,5,63,0
2170,1,-250,-76,6,62,0
2175,1,-248,-80,6,60,0
2180,4,-247,-78,6,60,0
2185,3,-250,-79,5,61,1
2190,1,-249,-74,5,62,-1
2195,1,-251,-74,5,64,-2
2200,3,-251,-76,6,63,-2
2205,3,-251,-76,6,64,-3
2210,1,-249,-76,7,64,-2
2215,2,-248,-77,7,66,-2
2220,0,-253,-78,7,66,-3
2225,1,-249,-75,9,68,-3
2230,4,-247,-74,7,67,-4
2235,2,-248,-74,7,66,-4
2240,1,-248,-75,6,66,-4
2245,-2,-247,-76,6,66,-4
2250,-1,-247,-70,4,67,-3
2255,3,-251,-86,1,67,-3
2260,2,-250,-76,0,68,-2
2265,-1,-248,-77,-2,66,-3
2270,0,-247,-74,-3,67,-3
2275,1,-245,-79,-5,67,-2
2280,3,-247,-77,-4,68,-1
2285,0,-247,-78,-5,69,-2
2290,2,-250,-77,-6,69,-1
2295,1,-247,-75,-7,68,0
2300,2,-247,-78,-8,66,1
2305,3,-246,-76,-8,65,-1
2310,2,-248,-74,-9,66,-1
2315,2,-248,-74,-10,67,-1
2320,2,-248,-76,-11,68,1
2325,0,-249,-71,-11,69,0
2330,1,-253,-80,-11,67,1
2335,4,-249,-76,-10,67,2
2340,2,-249,-75,-10,70,1
2345,3,-250,-77,-9,69,3
2350,0,-247,-73,-11,70,2
2355,-1,-249,-73,-12,71,3
2360,0,-250,-77,-11,69,2
2365,4,-245,-76,-11,71,2
2370,0,-250,-75,-14,71,3
2375,3,-250,-78,-14,71,2
2380,4,-249,-75,-15,73,3
2385,1,-251,-76,-16,74,3
2390,2,-249,-77,-17,76,2
2395,-1,-254,-75,-17,75,2
2400,2,-249,-72,-16,75,1
2405,-1,-249,-76,-14,75,1
2410,2,-252,-76,-13,76,1
2415,2,-253,-72,-12,76,1
2420,-2,-249,-74,-9,77,1
2425,2,-250,-72,-9,76,0
2430,3,-252,-75,-8,76,1
2435,0,-249,-73,-8,76,1
2440,-1,-248,-74,-9,73,0
2445,1,-248,-76,-10,74,1
2450,-1,-250,-75,-10,73,1
2455,3,-252,-77,-9,73,1
2460,1,-250,-72,-9,72,1
2465,0,-248,-72,-11,72,2
2470,2,-251,-72,-9,72,3
2475,7,-244,-69,-9,72,2
2480,-1,-249,-75,-9,71,2
2485,-1,-245,-78,-9,69,3
2490,1,-251,-76,-11,70,2
2495,0,-250,-74,-13,70,1
2500,2,-250,-74,-15,71,3
2505,3,-249,-72,-16,72,1
2510,-1,-248,-76,-18,72,1
2515,-2,-249,-75,-18,71,0
2520,-1,-251,-74,-18,70,0
2525,2,-248,-76,-17,70,0
2530,1,-249,-73,-16,70,0
2535,3,-250,-71,-15,69,2
2540,2,-251,-75,-15,67,0
2545,2,-247,-75,-15,69,0
2550,0,-250,-74,-15,69,0
2555,0,-250,-74,-14,71,-1
2560,-2,-249,-77,-14,71,0
2565,4,-250,-74,-15,69,0
2570,-1,-249,-78,-17,69,0
2575,1,-252,-74,-18,68,1
2580,2,-250,-74,-19,66,1
2585,0,-248,-69,-20,65,1
2590,-3,-250,-74,-21,64,2
2595,1,-252,-72,-19,63,1
2600,3,-249,-75,-17,62,0
2605,-2,-246,-78,-17,65,0
2610,-2,-250,-75,-15,64,-1
2615,1,-249,-75,-15,66,-1
2620,1,-250,-73,-17,67,-2
2625,-1,-249,-77,-18,68,-1
2630,1,-248,-75,-19,69,-1
2635,0,-249,-74,-19,70,-2
2640,1,-250,-77,-18,71,-2
2645,1,-248,-74,-19,70,-2
2650,2,-251,-73,-18,69,-2
2655,3,-248,-74,-17,68,-3
2660,1,-248,-72,-17,69,-3
2665,4,-250,-73,-17,68,-2
2670,2,-249,-76,-17,68,-1
2675,0,-249,-74,-16,68,-1
2680,1,-249,-76,-18,66,-1
2685,0,-247,-75,-20,66,-3
2690,5,-247,-73,-21,67,0
2695,2,-247,-77,-22,65,0
2700,2,-251,-78,-23,66,1
2705,3,-249,-77,-23,68,1
2710,-1,-247,-75,-23,68,1
2715,3,-250,-74,-22,69,1
2720,-2,-249,-77,-23,70,1
2725,2,-248,-73,-24,71,-1
2730,-2,-249,-73,-25,71,0
2735,1,-250,-79,-25,70,0
2740,3,-250,-76,-26,70,1
2745,3,-251,-73,-25,69,0
2750,2,-246,-79,-24,69,0
2755,2,-250,-75,-23,69,1
2760,2,-249,-72,-22,69,1
2765,3,-248,-73,-22,69,2
2770,1,-248,-71,-21,68,0
2775,2,-248,-77,-19,70,0
2780,-1,-247,-71,-19,69,0
2785,-1,-249,-77,-19,68,0
2790,0,-249,-77,-22,71,1
2795,3,-248,-76,-24,73,0
2800,3,-250,-71,-27,73,1
2805,0,-248,-77,-29,73,0
2810,0,-250,-77,-31,71,-1
2815,1,-251,-75,-32,73,0
2820,-3,-248,-75,-33,74,0
2825,-1,-251,-74,-29,75,1
2830,-1,-251,-72,-28,76,-1
2835,1,-252,-78,-26,75,0
2840,0,-248,-76,-21,75,0
2845,1,-252,-75,-19,74,0
2850,1,-248,-76,-16,74,0
2855,-1,-249,-79,-15,73,-1
2860,0,-247,-74,-12,73,-1
2865,2,-247,-77,-13,71,-1
2870,4,-246,-77,-17,71,0
2875,-2,-248,-78,-18,70,-1
2880,-1,-246,-77,-21,70,-1
2885,-4,-246,-76,-24,69,-2
2890,1,-245,-77,-26,67,-2
2895,2,-249,-74,-28,65,-2
2900,1,-247,-76,-28,65,0
2905,1,-246,-74,-29,64,0
2910,1,-247,-78,-30,64,-1
2915,-1,-250,-75,-30,62,-1
2920,-2,-248,-77,-31,61,0
2925,0,-251,-76,-32,60,0
2930,2,-249,-75,-34,59,0
2935,-1,-247,-75,-33,61,1
2940,0,-252,-76,-33,61,0
2945,-1,-251,-73,-32,63,-1
2950,2,-250,-73,-29,67,0
2955,3,-248,-75,-25,67,0
2960,-1,-251,-75,-23,68,-2
2965,0,-250,-78,-19,70,-1
2970,1,-250,-77,-20,71,-1
2975,2,-250,-74,-18,71,-2
2980,2,-250,-76,-16,72,-1
2985,0,-251,-75,-13,71,-1
2990,1,-251,-77,-12,71,-3
2995,0,-247,-78,-10,70,-1
3000,0,-247,-75,-9,70,-1
3005,4,-251,-76,-7,69,-1
3010,0,-249,-76,-7,68,-1
3015,2,-250,-75,-8,68,0
3020,-2,-243,-86,-8,69,-1
3025,0,-244,-76,-10,69,0
3030,1,-246,-75,-12,70,-1
3035,1,-247,-75,-16,70,1
3040,1,-247,-74,-17,71,2
3045,2,-248,-74,-20,72,1
3050,0,-249,-74,-23,73,0
3055,-4,-248,-76,-27,74,0
3060,-1,-248,-73,-29,74,0
3065,-2,-248,-76,-30,74,0
3070,0,-249,-73,-28,74,0
3075,-1,-251,-80,-27,73,0
3080,1,-250,-76,-24,73,0
3085,-4,-251,-73,-24,73,-1
3090,-2,-251,-75,-23,74,-2
3095,-3,-247,-78,-22,75,-2
3100,-3,-248,-73,-21,74,-1
3105,-1,-251,-80,-22,74,-1
3110,-4,-247,-74,-23,74,-2
3115,0,-250,-75,-23,73,-1
3120,-2,-249,-73,-24,73,-2
3125,-6,-242,-73,-25,75,-2
3130,-1,-252,-76,-22,74,-2
3135,0,-250,-77,-22,74,-3
3140,-1,-249,-76,-19,73,-2
3145,-1,-247,-72,-21,72,-2
3150,0,-251,-79,-19,72,-1
3155,0,-250,-75,-19,73,-1
3160,0,-245,-77,-19,70,-3
3165,0,-246,-76,-20,69,-3
3170,2,-249,-79,-22,69,-3
3175,-1,-248,-77,-24,69,-2
3180,3,-248,-80,-27,69,-1
3185,1,-248,-76,-30,70,-1
3190,2,-249,-78,-32,70,-1
3195,0,-247,-79,-36,72,-2
3200,1,-247,-77,-36,72,-3
3205,-2,-248,-77,-34,72,-2
3210,0,-248,-76,-31,73,-3
3215,2,-251,-74,-30,73,-3
3220,-1,-249,-76,-30,75,-4
3225,-1,-251,-76,-29,75,-2
3230,2,-252,-77,-28,76,-2
3235,1,-247,-75,-28,77,-3
3240,2,-250,-76,-28,75,-3
3245,3,-250,-80,-28,75,-3
3250,-2,-248,-82,-29,73,-2
3255,2,-250,-81,-30,74,-2
3260,3,-251,-79,-32,73,-2
3265,0,-249,-74,-33,75,-1
3270,0,-247,-79,-36,77,-1
3275,1,-248,-76,-37,77,-1
3280,3,-249,-77,-36,76,-1
3285,1,-249,-75,-37,76,0
3290,-1,-250,-76,-37,75,1
3295,0,-246,-76,-38,75,0
3300,3,-247,-78,-38,75,-1
3305,1,-247,-73,-36,75,0
3310,-1,-249,-79,-35,73,1
3315,0,-250,-76,-36,74,0
3320,1,-245,-81,-34,75,-2
3325,0,-246,-75,-33,76,-1
3330,1,-249,-73,-35,76,0
3335,0,-246,-74,-36,76,0
3340,2,-248,-79,-36,77,0
3345,1,-244,-74,-37,79,-2
3350,1,-249,-77,-41,80,0
3355,-2,-248,-78,-42,83,-1
3360,1,-248,-79,-44,82,-1
3365,2,-248,-76,-44,83,-1
3370,1,-247,-76,-43,84,-1
3375,-1,-252,-77,-42,85,-1
3380,3,-252,-74,-40,86,-2
3385,1,-249,-76,-40,83,-1
3390,3,-247,-75,-39,83,-1
3395,-2,-250,-73,-37,82,0
3400,0,-249,-79,-37,82,-1
3405,-1,-248,-76,-35,82,0
3410,-1,-249,-76,-35,81,0
3415,3,-251,-75,-34,81,1
3420,-2,-249,-77,-35,81,1
3425,0,-249,-78,-36,79,2
3430,1,-248,-81,-36,78,0
3435,-2,-245,-78,-35,80,0
3440,2,-249,-83,-36,80,0
3445,-4,-246,-79,-37,81,1
3450,0,-247,-78,-38,82,0
3455,-1,-249,-73,-39,81,0
3460,3,-247,-75,-42,82,0
3465,1,-248,-79,-47,84,0
3470,1,-246,-81,-55,87,-1
3475,2,-249,-80,-65,90,-1
3480,-3,-246,-81,-74,90,-2
3485,2,-249,-82,-83,92,-3
3490,4,-249,-85,-91,96,-4
3495,0,-247,-78,-97,98,-6
3500,2,-248,-82,-102,99,-5
3505,3,-249,-81,-107,96,-6
3510,-3,-246,-78,-113,95,-6
3515,1,-248,-82,-120,92,-6
3520,2,-254,-87,-127,90,-7
3525,3,-251,-82,-134,89,-5
3530,-2,-248,-84,-140,89,-5
3535,-4,-244,-84,-142,85,-4
3540,1,-245,-86,-140,81,-2
3545,1,-244,-87,-134,78,-1
3550,-6,-241,-86,-124,76,-1
3555,-4,-241,-88,-114,71,-1
3560,-4,-241,-87,-106,67,2
3565,-5,-237,-89,-97,63,2
3570,-4,-238,-86,-94,62,4
3575,-4,-237,-87,-91,60,5
3580,-2,-235,-91,-91,61,9
3585,-4,-235,-88,-94,61,9
3590,-4,-234,-91,-98,65,8
3595,3,-233,-87,-103,68,10
3600,-3,-234,-91,-110,69,9
3605,-2,-234,-94,-118,71,10
3610,-3,-232,-98,-125,71,10
3615,6,-232,-95,-131,71,10
3620,-2,-233,-94,-134,69,9
3625,-3,-236,-96,-135,70,9
3630,2,-236,-93,-135,73,7
3635,-1,-239,-99,-134,74,8
3640,0,-240,-99,-132,74,9
3645,-3,-238,-100,-128,77,9
3650,3,-240,-99,-122,79,9
3655,-2,-239,-98,-114,81,11
3660,1,-245,-102,-104,82,12
3665,-2,-240,-100,-90,83,11
3670,-8,-239,-96,-78,83,12
3675,-2,-238,-97,-66,81,13
3680,1,-239,-101,-58,79,13
3685,-6,-233,-105,-53,77,14
3690,0,-234,-104,-48,76,14
3695,-2,-235,-101,-48,76,14
3700,-1,-231,-105,-46,76,13
3705,-3,-231,-101,-46,76,14
3710,-1,-231,-101,-50,75,14
3715,-1,-233,-104,-54,74,15
3720,2,-226,-114,-58,72,15
3725,-3,-229,-101,-66,71,15
3730,-2,-225,-101,-74,69,15
3735,1,-228,-100,-80,68,17
3740,-1,-226,-101,-90,68,18
3745,3,-224,-103,-97,67,19
3750,3,-223,-103,-108,69,21
3755,1,-222,-98,-120,71,22
3760,4,-222,-99,-134,72,25
3765,2,-217,-98,-150,76,28
3770,4,-221,-98,-164,78,30
3775,4,-223,-98,-179,81,30
3780,3,-220,-93,-195,82,32
3785,4,-222,-100,-213,83,32
3790,4,-222,-103,-233,83,33
3795,2,-219,-101,-252,85,33
3800,4,-224,-103,-274,86,36
3805,4,-223,-104,-296,89,37
3810,5,-228,-103,-316,91,38
3815,3,-228,-108,-336,92,38
3820,4,-224,-111,-350,97,39
3825,3,-227,-112,-359,101,38
3830,5,-227,-107,-363,103,37
3835,4,-231,-107,-361,100,36
3840,4,-230,-106,-354,101,37
3845,4,-229,-109,-348,100,36
3850,0,-228,-111,-341,101,33
3855,3,-227,-108,-339,100,33
3860,0,-228,-110,-337,105,32
3865,0,-226,-111,-340,109,29
3870,0,-226,-116,-347,113,29
3875,-1,-222,-115,-353,117,28
3880,-1,-225,-108,-360,121,28
3885,-2,-221,-106,-364,124,26
3890,2,-220,-106,-363,128,25
3895,-1,-221,-110,-363,132,25
3900,-3,-218,-105,-358,131,23
3905,-1,-218,-107,-356,133,23
3910,-1,-218,-103,-358,132,23
3915,1,-217,-107,-364,133,21
3920,2,-213,-101,-375,135,21
3925,0,-215,-104,-394,137,22
3930,2,-210,-108,-418,139,23
3935,4,-214,-103,-443,140,23
3940,2,-216,-104,-471,139,26
3945,-2,-214,-101,-498,137,29
3950,4,-217,-102,-523,132,31
3955,0,-218,-102,-546,128,31
3960,-1,-217,-105,-568,124,33
3965,2,-218,-103,-588,120,36
3970,4,-221,-106,-609,116,36
3975,2,-220,-106,-630,112,38
3980,0,-223,-115,-653,109,38
3985,-3,-224,-114,-677,106,40
3990,0,-227,-116,-695,103,43
3995,-4,-226,-118,-708,98,45
4000,-4,-224,-122,-720,93,45
4005,-1,-230,-119,-725,91,45
4010,-1,-229,-121,-721,87,45
4015,-1,-228,-122,-714,84,45
4020,-2,-229,-120,-703,83,44
4025,-3,-229,-121,-690,83,43
4030,-1,-228,-120,-676,85,41
4035,-3,-229,-120,-657,87,40
4040,-6,-225,-120,-638,87,41
4045,-7,-223,-117,-619,87,38
4050,-5,-220,-117,-601,90,37
4055,-9,-220,-117,-590,90,35
4060,-11,-218,-114,-581,88,31
4065,-11,-219,-112,-574,83,28
4070,-10,-213,-117,-569,76,25
4075,-11,-215,-114,-570,68,20
4080,-11,-214,-116,-576,59,15
4085,-13,-215,-118,-587,48,13
4090,-14,-208,-122,-603,40,12
4095,-13,-212,-123,-624,36,9
4100,-11,-211,-125,-648,34,10
4105,-7,-209,-128,-676,34,7
4110,-10,-210,-130,-704,35,6
4115,-13,-212,-127,-731,37,3
4120,-8,-215,-126,-753,38,0
4125,-6,-219,-127,-770,36,-2
4130,-4,-218,-129,-779,36,-5
4135,-7,-220,-128,-784,29,-5
4140,-4,-222,-129,-784,20,-7
4145,-6,-220,-131,-779,10,-6
4150,-4,-221,-130,-771,0,-5
4155,-4,-220,-130,-762,-7,-5
4160,-4,-221,-130,-751,-11,-5
4165,-1,-222,-131,-739,-13,-4
4170,-2,-223,-130,-727,-13,-4
4175,-3,-223,-131,-709,-9,-8
4180,-4,-221,-128,-689,-6,-8
4185,-5,-219,-129,-666,-5,-10
4190,-7,-219,-133,-645,-8,-7
4195,-1,-223,-129,-628,-12,-5
4200,-6,-221,-133,-612,-18,-5
4205,-6,-218,-131,-602,-24,-4
4210,-7,-217,-132,-596,-30,-3
4215,-11,-215,-138,-593,-35,-4
4220,-6,-214,-140,-591,-36,-4
4225,-8,-210,-136,-590,-36,-6
4230,-8,-209,-136,-587,-34,-12
4235,-8,-204,-135,-586,-29,-19
4240,-15,-201,-135,-584,-23,-28
4245,-13,-202,-136,-585,-16,-33
4250,-12,-201,-136,-588,-6,-40
4255,-9,-201,-137,-596,4,-44
4260,-12,-203,-141,-608,12,-48
4265,-9,-202,-140,-624,19,-50
4270,-9,-201,-145,-639,27,-55
4275,-9,-206,-148,-653,35,-57
4280,-9,-205,-149,-663,43,-59
4285,-8,-209,-147,-671,50,-55
4290,-10,-207,-149,-672,54,-47
4295,-5,-208,-152,-666,59,-40
4300,-5,-209,-152,-654,61,-29
4305,0,-214,-151,-634,60,-18
4310,2,-211,-154,-608,59,-5
4315,-3,-216,-153,-582,56,8
4320,1,-215,-154,-551,51,22
4325,4,-215,-155,-518,46,35
4330,3,-217,-152,-486,38,51
4335,1,-215,-152,-451,29,63
4340,2,-216,-147,-420,21,73
4345,4,-213,-154,-387,16,81
4350,4,-210,-152,-356,15,82
4355,3,-212,-149,-330,18,84
4360,3,-209,-149,-306,22,88
4365,2,-212,-152,-285,32,89
4370,4,-206,-152,-267,43,85
4375,0,-207,-150,-252,57,83
4380,-2,-203,-154,-241,72,82
4385,3,-205,-156,-230,84,82
4390,-1,-202,-151,-213,91,81
4395,-4,-198,-158,-193,99,80
4400,-3,-196,-157,-180,107,78
4405,-4,-195,-157,-163,116,73
4410,-5,-199,-155,-146,124,73
4415,-6,-197,-159,-127,132,73
4420,-7,-200,-159,-107,139,75
4425,-7,-199,-156,-85,144,78
4430,-8,-202,-157,-66,146,80
4435,-4,-202,-160,-50,145,83
4440,-7,-200,-162,-34,143,88
4445,-10,-198,-162,-20,144,94
4450,-3,-202,-163,-2,144,101
4455,-4,-204,-165,23,145,99
4460,-4,-200,-166,50,144,95
4465,-6,-201,-165,83,144,85
4470,-8,-200,-163,111,147,75
4475,-9,-201,-167,135,154,71
4480,-8,-202,-163,158,158,68
4485,-7,-200,-162,179,160,63
4490,-8,-201,-164,199,163,50
4495,-7,-200,-162,215,166,45
4500,-7,-200,-160,226,166,40
4505,-6,-195,-157,237,166,33
4510,-9,-196,-161,246,163,25
4515,-6,-196,-161,250,163,21
4520,-7,-197,-162,244,163,23
4525,-9,-198,-162,238,165,25
4530,-7,-200,-164,226,169,35
4535,-5,-196,-160,221,173,39
4540,-7,-195,-159,218,173,38
4545,-9,-191,-163,215,169,37
4550,-6,-197,-161,214,163,36
4555,-7,-199,-160,214,153,37
4560,-9,-197,-161,213,142,38
4565,-6,-199,-159,206,130,41
4570,-6,-198,-159,203,120,46
4575,-5,-202,-158,205,110,45
4580,-9,-200,-160,210,106,39
4585,-11,-205,-158,219,105,32
4590,-10,-206,-158,233,103,26
4595,-11,-205,-154,253,102,20
4600,-11,-206,-158,271,102,16
4605,-12,-205,-157,294,102,15
4610,-7,-206,-158,313,100,9
4615,-6,-202,-161,328,102,4
4620,-10,-197,-162,336,105,5
4625,-10,-198,-167,333,113,13
4630,-9,-195,-167,318,121,20
4635,-6,-194,-166,291,128,23
4640,-6,-198,-169,260,136,30
4645,-7,-198,-165,224,145,34
4650,-8,-200,-166,184,148,38
4655,-6,-201,-162,153,149,45
4660,-6,-201,-163,120,147,33
4665,-4,-202,-165,94,144,28
4670,-5,-202,-160,73,140,27
4675,-5,-204,-159,58,134,26
4680,-4,-203,-154,50,128,22
4685,-7,-203,-159,49,122,19
4690,2,-209,-155,56,124,22
4695,-2,-207,-156,63,122,11
4700,-5,-204,-157,71,125,5
4705,-4,-204,-156,81,127,2
4710,-2,-202,-155,92,125,-1
4715,-6,-200,-156,99,124,-2
4720,-10,-187,-148,98,121,0
4725,-3,-196,-162,95,118,10
4730,-4,-198,-158,81,116,3
4735,-3,-194,-156,62,115,1
4740,-4,-197,-164,41,116,2
4745,-7,-195,-158,19,115,3
4750,-7,-196,-158,-1,109,3
4755,-9,-194,-158,-18,104,3
4760,-12,-187,-162,-31,96,6
4765,-9,-198,-156,-34,88,19
4770,-7,-197,-159,-40,75,11
4775,-8,-196,-156,-44,70,6
4780,-8,-194,-156,-45,68,1
4785,-10,-194,-151,-44,70,-1
4790,-13,-193,-150,-40,75,-3
4795,-8,-194,-148,-35,81,-7
4800,-11,-193,-150,-27,89,-13
4805,-16,-193,-155,-16,95,-7
4810,-7,-197,-150,1,100,-8
4815,-8,-197,-155,6,100,-20
4820,-10,-195,-150,12,103,-32
4825,-10,-199,-155,19,103,-40
4830,-7,-198,-153,24,103,-46
4835,-11,-201,-156,28,102,-45
4840,-7,-205,-157,32,101,-46
4845,-7,-206,-157,35,100,-55
4850,-6,-205,-155,42,102,-59
4855,-7,-203,-156,52,104,-62
4860,-8,-208,-163,65,111,-61
4865,-4,-207,-161,78,116,-63
4870,-4,-210,-162,85,124,-73
4875,0,-208,-163,93,134,-77
4880,-2,-205,-167,100,142,-80
4885,1,-209,-166,108,147,-73
4890,3,-207,-160,108,150,-69
4895,3,-203,-165,101,147,-73
4900,4,-203,-167,89,146,-71
4905,6,-202,-161,72,140,-70
4910,4,-205,-163,59,135,-83
4915,3,-203,-161,39,130,-85
4920,3,-203,-160,13,119,-71
4925,6,-205,-160,-5,107,-49
4930,5,-203,-160,-21,93,-43
4935,4,-202,-159,-40,83,-47
4940,5,-203,-156,-57,77,-47
4945,4,-199,-158,-70,69,-46
4950,4,-200,-154,-83,62,-43
4955,0,-200,-151,-92,57,-40
4960,4,-201,-153,-99,56,-41
4965,0,-198,-155,-104,55,-42
4970,1,-202,-149,-107,58,-41
4975,1,-199,-151,-105,62,-41
4980,1,-202,-150,-104,66,-41
4985,4,-203,-152,-100,72,-42
4990,-3,-201,-153,-92,80,-45
4995,3,-205,-152,-77,89,-39
5000,2,-202,-154,-70,91,-45
5005,0,-204,-152,-64,99,-52
5010,-1,-204,-151,-55,106,-56
5015,2,-202,-152,-45,111,-60
5020,-2,-202,-155,-38,116,-64
5025,4,-200,-153,-32,120,-64
5030,2,-200,-153,-27,123,-66
5035,2,-195,-162,-24,129,-66
5040,2,-204,-153,-22,133,-65
5045,0,-204,-156,-19,138,-63
5050,-3,-196,-153,-15,141,-63
5055,5,-203,-152,-8,145,-58
5060,2,-200,-157,-1,145,-78
5065,4,-200,-154,-2,142,-68
5070,-2,-201,-154,-5,134,-58
5075,1,-200,-155,-6,123,-49
5080,3,-199,-155,-7,112,-41
5085,-1,-199,-150,-6,101,-35
5090,-1,-195,-154,-3,91,-32
5095,1,-201,-152,-3,82,-26
5100,2,-199,-157,0,75,-21
5105,1,-200,-155,5,68,-18
5110,-3,-204,-162,10,63,-12
5115,1,-203,-155,16,57,0
5120,0,-200,-152,16,53,-6
5125,-1,-198,-157,14,52,-7
5130,1,-200,-156,10,54,-8
5135,-4,-195,-160,2,53,-7
5140,-1,-201,-160,-7,53,-8
5145,0,-200,-160,-16,52,-6
5150,-1,-199,-159,-24,52,-8
5155,3,-202,-159,-32,54,-7
5160,0,-204,-156,-37,56,-8
5165,0,-203,-154,-43,55,-13
5170,4,-203,-157,-47,55,-17
5175,-1,-204,-153,-50,56,-20
5180,1,-203,-155,-51,56,-24
5185,4,-206,-155,-51,57,-26
5190,-1,-204,-155,-53,57,-31
5195,3,-206,-155,-53,57,-35
5200,0,-202,-160,-57,59,-38
5205,2,-205,-160,-58,61,-41
5210,3,-202,-160,-62,62,-44
5215,4,-198,-160,-67,65,-47
5220,2,-200,-162,-70,68,-48
5225,4,-196,-158,-73,71,-49
5230,2,-197,-156,-75,74,-49
5235,5,-199,-158,-77,76,-48
5240,6,-198,-159,-75,79,-47
5245,4,-199,-154,-74,81,-47
5250,2,-196,-152,-69,83,-41
5255,5,-195,-157,-66,83,-40
5260,5,-198,-155,-60,82,-35
5265,2,-198,-156,-54,80,-34
5270,4,-197,-155,-49,77,-30
5275,4,-197,-156,-43,75,-26
5280,4,-200,-155,-37,71,-25
5285,4,-201,-155,-33,66,-22
5290,2,-201,-157,-26,60,-16
5295,3,-202,-153,-17,56,-14
5300,1,-199,-153,-7,50,-12
5305,3,-195,-156,1,45,-11
5310,4,-198,-158,8,38,-9
5315,3,-198,-158,15,33,-8
5320,1,-197,-158,18,28,-7
5325,2,-199,-159,21,24,-6
5330,0,-196,-158,22,21,-5
5335,3,-196,-158,20,18,-4
5340,4,-197,-159,17,16,-6
5345,0,-193,-161,15,16,-8
5350,3,-193,-164,10,18,-11
5355,0,-194,-157,8,19,-14
5360,3,-194,-159,5,23,-14
5365,-1,-193,-156,4,30,-19
5370,2,-192,-156,3,36,-22
5375,2,-191,-157,4,44,-25
5380,3,-193,-151,3,52,-28
5385,4,-192,-157,5,63,-31
5390,2,-193,-156,5,72,-35
5395,3,-192,-154,7,80,-36
5400,2,-194,-153,9,87,-37
5405,2,-192,-154,9,92,-36
5410,4,-193,-153,11,96,-36
5415,6,-198,-158,13,98,-35
5420,3,-194,-154,12,99,-33
5425,2,-193,-155,13,97,-32
5430,5,-197,-157,13,94,-31
5435,4,-198,-156,12,90,-30
5440,4,-193,-162,10,87,-29
5445,4,-195,-160,8,79,-28
5450,3,-193,-157,5,72,-27
5455,6,-201,-158,4,66,-27
5460,4,-198,-156,3,59,-25
5465,5,-196,-161,4,51,-25
5470,3,-196,-160,7,46,-23
5475,3,-199,-156,12,41,-22
5480,5,-196,-155,16,38,-20
5485,3,-196,-159,21,34,-19
5490,2,-197,-156,25,31,-19
5495,5,-196,-157,31,29,-18
5500,4,-199,-157,34,29,-17
5505,4,-196,-155,38,27,-17
5510,0,-197,-157,40,26,-16
5515,4,-194,-157,41,26,-14
5520,2,-195,-154,40,27,-15
5525,3,-192,-158,37,29,-15
5530,3,-192,-159,32,33,-14
5535,4,-194,-160,26,37,-15
5540,4,-199,-157,18,42,-15
5545,3,-193,-158,10,48,-16
5550,4,-193,-160,1,53,-19
5555,2,-192,-158,-6,57,-20
5560,4,-193,-159,-12,62,-22
5565,2,-197,-158,-17,68,-25
5570,4,-196,-158,-18,72,-25
5575,4,-194,-155,-19,72,-26
5580,2,-196,-158,-18,74,-29
5585,4,-193,-155,-13,76,-29
5590,5,-192,-156,-10,78,-31
5595,4,-195,-151,-5,78,-29
5600,2,-195,-150,0,79,-29
5605,4,-196,-155,5,79,-29
5610,2,-192,-150,9,79,-26
5615,4,-195,-153,11,76,-24
5620,3,-195,-155,12,75,-21
5625,4,-194,-153,12,70,-20
5630,5,-194,-156,12,65,-17
5635,3,-194,-153,11,62,-15
5640,4,-196,-156,10,59,-14
5645,4,-195,-154,9,55,-12
5650,5,-197,-152,9,53,-12
5655,2,-194,-156,9,53,-14
5660,2,-196,-153,9,51,-13
5665,4,-197,-153,8,51,-15
5670,-1,-197,-153,7,53,-16
5675,1,-198,-153,6,55,-15
5680,4,-197,-156,7,59,-15
5685,3,-195,-156,6,63,-16
5690,4,-196,-157,6,65,-16
5695,1,-198,-158,6,70,-17
5700,3,-200,-156,7,71,-17
5705,2,-197,-156,8,72,-16
5710,4,-197,-155,11,73,-16
5715,4,-197,-154,14,74,-15
5720,4,-198,-157,17,73,-13
5725,4,-196,-156,21,73,-12
5730,4,-198,-157,24,73,-11
5735,4,-192,-155,26,74,-13
5740,3,-198,-158,25,75,-13
5745,4,-198,-157,24,74,-11
5750,3,-197,-157,23,75,-9
5755,4,-199,-156,19,74,-9
5760,4,-196,-155,15,73,-10
5765,4,-195,-155,12,73,-9
5770,4,-199,-153,9,72,-9
5775,3,-197,-153,8,72,-7
5780,2,-198,-154,7,71,-6
5785,3,-196,-152,6,70,-6
5790,1,-197,-156,6,69,-4
5795,4,-199,-154,6,68,-3
5800,3,-198,-155,5,65,-3
5805,4,-195,-153,7,64,0
5810,1,-199,-154,8,63,2
5815,3,-197,-157,8,61,3
5820,4,-197,-155,7,61,3
5825,4,-200,-153,8,61,4
5830,4,-196,-154,7,61,3
5835,2,-196,-155,6,63,2
5840,3,-194,-151,5,63,0
5845,4,-200,-147,2,64,0
5850,5,-202,-153,0,65,-1
5855,4,-198,-154,-2,65,-2
5860,3,-196,-154,-5,67,-6
5865,3,-197,-157,-5,69,-7
5870,5,-200,-156,-5,70,-8
5875,5,-200,-154,-6,73,-8
5880,6,-202,-157,-5,76,-9
5885,4,-201,-157,-4,77,-11
5890,4,-198,-153,-3,80,-10
5895,5,-202,-154,-1,83,-10
5900,3,-200,-155,0,85,-9
5905,4,-203,-153,3,84,-9
5910,4,-198,-156,7,83,-8
5915,4,-203,-150,12,81,-8
5920,4,-200,-151,16,81,-6
5925,2,-197,-151,22,78,-4
5930,4,-201,-149,24,77,-3
5935,4,-202,-156,28,73,-1
5940,5,-200,-150,29,71,1
5945,4,-200,-150,30,69,2
5950,3,-197,-151,28,66,3
5955,3,-198,-155,26,66,3
5960,6,-200,-157,23,64,3
5965,4,-198,-152,24,65,3
5970,4,-198,-152,22,65,2
5975,4,-200,-151,21,65,-1
5980,5,-199,-150,18,67,-3
5985,4,-200,-151,17,70,-3
5990,4,-196,-154,15,71,-3
5995,5,-200,-153,14,71,-4
6000,1,-196,-151,13,71,-5
6005,1,-197,-153,12,72,-6
6010,3,-198,-149,10,71,-6
6015,4,-200,-154,10,72,-8
6020,3,-201,-157,9,71,-7
6025,4,-200,-152,8,72,-6
6030,7,-199,-152,7,70,-5
6035,3,-198,-151,7,69,-3
6040,4,-200,-148,7,70,-3
6045,4,-199,-151,8,71,-2
6050,4,-199,-149,9,73,0
6055,5,-198,-153,12,73,0
6060,3,-201,-147,13,74,0
6065,5,-198,-152,15,74,1
6070,3,-201,-155,17,73,3
6075,4,-200,-155,18,73,4
6080,2,-199,-155,19,71,4
6085,4,-200,-155,20,68,5
6090,4,-203,-152,20,67,6
6095,4,-202,-155,18,64,7
6100,2,-198,-151,18,66,6
6105,4,-204,-151,17,66,5
6110,4,-202,-151,18,66,5
6115,2,-202,-148,18,67,5
6120,5,-203,-149,19,70,4
6125,4,-203,-152,22,71,2
6130,2,-201,-150,24,71,3
6135,5,-202,-152,28,70,1
6140,2,-197,-154,30,70,0
6145,4,-201,-151,31,70,-1
6150,4,-196,-150,28,72,0
6155,2,-197,-151,25,71,1
6160,4,-198,-154,24,70,1
6165,5,-199,-148,21,67,0
6170,4,-199,-152,19,67,1
6175,4,-201,-151,18,69,2
6180,7,-200,-149,17,69,4
6185,5,-201,-149,18,71,3
6190,5,-198,-149,20,74,3
6195,5,-202,-152,21,75,3
6200,4,-204,-152,25,76,2
6205,4,-202,-154,29,78,1
6210,4,-203,-149,32,77,0
6215,4,-200,-150,33,78,1
6220,2,-201,-152,34,74,0
6225,4,-200,-148,31,73,1
6230,5,-202,-153,30,72,-1
6235,5,-202,-152,28,69,0
6240,4,-204,-148,25,65,1
6245,3,-202,-153,24,64,1
6250,4,-199,-150,22,60,1
6255,4,-201,-152,21,58,0
6260,4,-205,-156,20,59,1
6265,4,-201,-149,19,59,2
6270,3,-202,-150,17,59,3
6275,3,-200,-152,15,62,3
6280,6,-206,-151,16,62,3
6285,0,-204,-151,14,64,2
6290,4,-203,-152,13,63,3
6295,4,-202,-146,13,63,4
6300,3,-203,-148,14,62,4
6305,3,-202,-147,16,62,2
6310,2,-202,-148,16,63,4
6315,-1,-199,-147,14,64,3
6320,4,-201,-148,15,64,1
6325,4,-200,-153,15,66,2
6330,1,-201,-151,16,66,2
6335,2,-202,-145,16,67,3
6340,2,-203,-151,17,68,2
6345,4,-201,-150,18,69,1
6350,3,-200,-151,17,70,3
6355,3,-200,-155,19,70,3
6360,5,-206,-154,19,70,3
6365,5,-203,-153,21,70,3
6370,4,-204,-154,20,70,4
6375,4,-204,-150,17,71,3
6380,3,-203,-152,17,72,3
6385,4,-201,-153,15,73,2
6390,1,-197,-151,11,73,2
6395,5,-202,-151,8,74,5
6400,5,-201,-149,6,74,2
6405,1,-201,-149,5,75,1
6410,2,-202,-149,1,74,2
6415,4,-200,-149,-1,74,1
6420,3,-199,-149,1,74,1
6425,5,-201,-149,0,73,-1
6430,2,-201,-146,1,74,-2
6435,2,-198,-146,3,76,-1
6440,3,-202,-148,5,78,1
6445,0,-199,-148,7,81,1
6450,4,-198,-148,8,82,1
6455,4,-202,-150,12,83,4
6460,3,-203,-148,13,84,4
6465,3,-199,-147,16,82,6
6470,4,-200,-146,17,81,5
6475,-1,-201,-143,19,79,7
6480,1,-199,-151,22,78,5
6485,0,-202,-147,23,78,7
6490,2,-202,-150,23,76,7
6495,3,-201,-146,24,76,7
6500,3,-202,-154,24,75,9
6505,-2,-204,-150,25,75,8
6510,2,-203,-151,25,78,10
6515,4,-203,-152,25,79,9
6520,0,-204,-150,26,81,7
6525,3,-203,-148,26,83,8
6530,1,-202,-149,25,84,9
6535,4,-205,-150,23,87,6
6540,3,-202,-152,22,86,6
6545,1,-204,-147,21,85,5
6550,3,-202,-149,21,84,5
6555,2,-202,-150,21,83,6
6560,3,-205,-150,22,81,7
6565,-1,-204,-147,22,78,6
6570,3,-202,-151,23,75,6
6575,3,-204,-151,22,73,7
6580,1,-204,-148,22,70,8
6585,3,-203,-151,19,68,7
6590,4,-202,-147,17,67,7
6595,-1,-201,-151,14,64,8
6600,0,-200,-144,11,66,7
6605,3,-203,-148,9,66,7
6610,4,-196,-150,6,65,6
6615,3,-204,-150,4,67,4
6620,3,-201,-149,4,69,2
6625,4,-203,-145,2,72,2
6630,4,-203,-149,2,76,0
6635,4,-203,-150,3,79,1
6640,2,-202,-149,3,82,-1
6645,4,-203,-147,2,84,-1
6650,2,-206,-144,0,85,-1
6655,2,-202,-145,-1,87,-2
6660,4,-203,-150,-3,87,-3
6665,4,-203,-148,-4,89,-4
6670,4,-204,-148,-5,89,-3
6675,-1,-200,-144,-4,89,-6
6680,5,-204,-144,-4,87,-3
6685,2,-204,-148,-3,87,-3
6690,1,-207,-145,-1,85,-1
6695,4,-203,-147,0,83,-1
6700,1,-205,-147,5,80,1
6705,5,-205,-143,8,79,2
6710,1,-204,-147,11,75,6
6715,2,-207,-146,14,72,7
6720,3,-206,-150,15,69,9
6725,4,-204,-147,19,64,11
6730,4,-207,-151,22,63,14
6735,2,-207,-148,22,60,13
6740,3,-204,-153,24,58,14
6745,4,-207,-149,25,56,15
6750,2,-204,-151,25,54,15
6755,0,-203,-147,25,53,12
6760,2,-202,-149,24,53,12
6765,5,-207,-146,24,53,11
6770,4,-204,-146,20,53,9
6775,4,-207,-147,19,54,7
6780,2,-204,-148,15,56,6
6785,1,-206,-147,12,58,5
6790,4,-203,-148,10,59,4
6795,4,-202,-145,5,61,3
6800,3,-202,-151,1,63,2
6805,1,-201,-149,0,65,1
6810,2,-202,-147,-1,68,1
6815,2,-204,-150,-3,70,1
6820,0,-204,-148,-4,72,-2
6825,4,-205,-144,-6,73,-1
6830,3,-202,-145,-7,74,-2
6835,4,-204,-146,-8,79,-4
6840,4,-208,-145,-7,80,-4
6845,2,-203,-143,-7,82,-5
6850,4,-205,-151,-4,84,-5
6855,5,-205,-148,-3,85,-6
6860,1,-207,-147,-1,85,-6
6865,1,-204,-147,4,87,-5
6870,4,-206,-144,9,86,-6
6875,4,-203,-145,14,84,-7
6880,5,-204,-142,20,83,-5
6885,4,-204,-147,25,82,-5
6890,5,-205,-149,29,79,-5
6895,3,-205,-147,31,76,-4
6900,1,-203,-146,34,73,-6
6905,4,-204,-149,34,69,-5
6910,4,-206,-148,34,64,-2
6915,1,-205,-146,35,64,-2
6920,2,-204,-147,36,62,-1
6925,-1,-206,-150,36,61,1
6930,-1,-206,-146,36,61,1
6935,1,-204,-145,35,59,2
6940,-1,-211,-140,37,59,3
6945,1,-209,-146,38,60,5
6950,1,-208,-149,40,60,4
6955,-1,-206,-143,42,60,4
6960,0,-208,-147,43,58,5
6965,-2,-209,-147,42,56,4
6970,0,-206,-146,42,54,6
6975,1,-207,-146,39,50,7
6980,2,-206,-144,35,49,6
6985,2,-205,-150,29,47,8
6990,1,-203,-149,25,48,7
6995,2,-207,-146,20,48,8
7000,0,-203,-145,15,50,5
7005,1,-204,-145,11,53,6
7010,1,-203,-145,5,59,5
7015,1,-203,-149,2,62,2
7020,3,-205,-147,-1,67,2
7025,3,-207,-145,-1,70,0
7030,4,-204,-140,-1,75,-1
7035,4,-204,-141,0,78,-2
7040,3,-206,-146,6,80,-4
7045,3,-206,-145,8,82,-5
7050,4,-206,-135,13,80,-5
7055,4,-206,-142,17,81,-5
7060,1,-204,-146,20,78,-5
7065,4,-208,-147,22,77,-5
7070,2,-203,-145,23,77,-5
7075,2,-207,-147,20,74,-5
7080,3,-205,-142,18,70,-3
7085,5,-205,-146,14,71,-4
7090,4,-202,-148,12,69,-3
7095,2,-204,-148,9,67,-1
7100,6,-208,-147,9,68,-2
7105,2,-204,-142,9,68,0
7110,-1,-209,-141,11,67,1
7115,4,-207,-143,14,67,3
7120,0,-206,-138,16,67,5
7125,1,-206,-141,21,66,5
7130,2,-205,-142,26,66,5
7135,3,-207,-139,31,67,7
7140,1,-205,-140,36,68,7
7145,3,-209,-143,39,66,8
7150,0,-205,-142,44,66,8
7155,1,-206,-143,46,63,10
7160,2,-208,-147,44,62,9
7165,-2,-204,-144,43,61,10
7170,4,-203,-146,40,60,8
7175,3,-205,-144,38,60,7
7180,2,-208,-146,34,61,6
7185,-1,-206,-146,29,60,4
7190,2,-206,-148,25,61,5
7195,0,-206,-139,22,63,3
7200,0,-206,-145,20,68,2
7205,-2,-205,-141,19,70,1
7210,0,-206,-143,19,72,2
7215,2,-208,-144,17,74,0
7220,0,-209,-145,18,76,-1
7225,0,-207,-145,18,77,-3
7230,0,-207,-147,16,79,-4
7235,2,-209,-145,15,80,-4
7240,1,-206,-146,12,79,-5
7245,2,-205,-145,11,81,-5
7250,4,-207,-144,8,80,-5
7255,0,-207,-148,4,80,-4
7260,2,-206,-146,0,79,-5
7265,5,-211,-142,-2,80,-4
7270,4,-206,-145,-5,79,-3
7275,3,-206,-144,-7,78,-1
7280,3,-205,-149,-10,79,-4
7285,4,-206,-143,-11,77,-3
7290,4,-204,-142,-12,76,-2
7295,2,-208,-143,-13,73,-2
7300,4,-207,-140,-13,71,-1
7305,-3,-206,-146,-11,67,1
7310,0,-206,-144,-10,68,1
7315,2,-207,-140,-8,64,3
7320,2,-206,-144,-6,64,3
7325,0,-206,-140,-3,62,4
7330,2,-203,-143,-1,61,5
7335,2,-205,-143,2,61,6
7340,1,-205,-144,4,60,6
7345,3,-206,-144,8,60,5
7350,1,-206,-145,9,61,5
7355,1,-208,-143,9,62,7
7360,2,-206,-142,10,62,6
7365,3,-207,-145,12,62,6
7370,2,-208,-146,12,60,6
7375,3,-208,-141,13,61,5
7380,2,-207,-143,13,61,6
7385,3,-209,-141,14,61,5
7390,2,-206,-142,14,62,4
7395,2,-206,-147,14,62,2
7400,3,-210,-139,15,63,1
7405,0,-204,-145,15,63,1
7410,-1,-208,-140,14,63,-3
7415,1,-204,-143,14,65,-2
7420,4,-205,-144,13,64,-3
7425,3,-205,-142,15,65,-5
7430,0,-203,-143,15,65,-6
7435,4,-207,-141,16,67,-6
7440,2,-204,-141,19,67,-8
7445,0,-207,-138,20,69,-7
7450,-1,-208,-143,23,69,-7
7455,3,-207,-145,26,70,-7
7460,3,-210,-141,30,70,-7
7465,0,-207,-139,34,71,-5
7470,3,-209,-141,38,70,-4
7475,4,-208,-145,42,72,-3
7480,0,-211,-141,46,72,-2
7485,9,-203,-143,49,71,0
7490,4,-210,-140,48,70,1
7495,6,-215,-143,47,68,1
7500,1,-208,-147,43,65,3
7505,2,-207,-144,40,64,2
7510,2,-209,-144,35,62,2
7515,4,-212,-143,29,62,-1
7520,4,-207,-145,22,63,-1
7525,1,-206,-144,16,62,-3
7530,2,-207,-147,11,64,-2
7535,2,-207,-145,7,65,-2
7540,2,-207,-144,2,64,-2
7545,1,-205,-142,1,63,-3
7550,-1,-207,-139,0,63,-2
7555,4,-209,-139,-1,61,-2
7560,0,-207,-139,1,61,-1
7565,1,-208,-135,2,61,-2
7570,1,-209,-142,3,61,-1
7575,2,-209,-140,5,59,-1
7580,1,-209,-141,5,60,2
7585,-2,-208,-139,7,60,2
7590,-3,-211,-140,5,59,4
7595,3,-214,-147,3,58,6
7600,4,-210,-142,-1,58,5
7605,1,-208,-145,-4,55,7
7610,2,-209,-143,-8,54,6
7615,3,-210,-142,-12,53,5
7620,4,-209,-141,-14,52,6
7625,3,-209,-143,-15,53,5
7630,2,-211,-140,-14,55,5
7635,1,-211,-140,-13,57,3
7640,4,-213,-138,-10,60,0
7645,-1,-209,-143,-7,63,-2
7650,1,-210,-141,-4,66,-4
7655,3,-210,-140,0,69,-4
7660,4,-208,-138,2,69,-5
7665,2,-208,-144,3,71,-6
7670,1,-211,-137,5,71,-8
7675,1,-209,-144,3,68,-8
7680,1,-209,-145,2,67,-8
7685,2,-209,-143,-2,66,-7
7690,4,-207,-143,-6,64,-8
7695,-1,-207,-146,-11,61,-7
7700,2,-210,-141,-17,58,-6
7705,1,-213,-142,-25,57,-4
7710,3,-211,-143,-30,57,-4
7715,4,-212,-144,-36,55,-2
7720,0,-209,-141,-40,54,-1
7725,1,-210,-143,-43,55,2
7730,4,-212,-144,-43,53,3
7735,2,-211,-137,-43,52,6
7740,4,-213,-142,-39,50,7
7745,4,-212,-143,-34,51,9
7750,4,-210,-141,-32,50,9
7755,2,-210,-146,-30,50,10
7760,3,-210,-144,-28,51,10
7765,3,-208,-144,-29,53,11
7770,3,-207,-144,-31,55,11
7775,0,-208,-144,-34,56,10
7780,3,-208,-142,-39,58,10
7785,2,-210,-143,-40,61,11
7790,3,-206,-143,-40,64,10
7795,-1,-207,-144,-38,67,7
7800,3,-211,-142,-35,69,5
7805,0,-210,-142,-27,70,3
7810,-3,-209,-146,-22,72,2
7815,-1,-210,-144,-15,71,1
7820,1,-213,-144,-7,71,0
7825,3,-209,-145,0,72,-2
7830,2,-212,-144,6,70,-1
7835,0,-210,-143,10,68,-2
7840,1,-208,-143,14,65,-1
7845,1,-209,-143,15,62,1
7850,4,-209,-143,16,60,2
7855,4,-209,-146,15,60,1
7860,3,-207,-143,16,59,0
7865,5,-211,-137,18,60,0
7870,3,-207,-138,19,61,0
7875,3,-211,-135,22,62,-1
7880,3,-210,-141,25,63,-1
7885,4,-211,-140,28,64,1
7890,0,-209,-141,31,66,0
7895,3,-210,-138,35,67,3
7900,1,-210,-144,39,69,4
7905,0,-210,-137,41,70,6
7910,-2,-210,-141,43,70,8
7915,2,-212,-140,44,68,9
7920,-1,-215,-139,43,68,13
7925,0,-211,-145,43,66,15
7930,1,-212,-140,42,63,16
7935,0,-212,-144,39,61,18
7940,-2,-212,-142,37,58,20
7945,-2,-212,-142,38,57,22
7950,0,-212,-141,38,56,22
7955,-4,-217,-138,39,56,24
7960,2,-214,-143,41,55,24
7965,0,-215,-145,46,58,27
7970,-3,-213,-141,50,59,26
7975,-1,-213,-142,56,58,25
7980,2,-213,-141,62,59,25
7985,-5,-217,-141,69,58,28
7990,-1,-218,-138,74,58,28
7995,-6,-215,-141,81,55,30
8000,0,-218,-139,86,54,31
8005,-3,-216,-139,91,54,34
8010,1,-217,-141,95,53,34
8015,1,-220,-143,100,53,34
8020,1,-223,-136,104,55,35
8025,0,-220,-139,106,56,37
8030,9,-217,-136,107,58,37
8035,-1,-219,-141,109,59,37
8040,1,-220,-142,111,61,35
8045,2,-222,-143,113,63,36
8050,4,-223,-142,117,65,35
8055,3,-223,-140,120,68,33
8060,3,-225,-141,122,71,33
8065,-2,-222,-139,124,74,31
8070,1,-226,-139,128,75,31
8075,2,-225,-139,131,77,30
8080,3,-221,-141,135,75,31
8085,-1,-225,-138,142,72,32
8090,-3,-228,-136,145,71,35
8095,-1,-228,-136,150,65,38
8100,-6,-227,-137,154,60,39
8105,-3,-229,-142,156,52,41
8110,-3,-229,-140,159,44,43
8115,-3,-232,-136,162,35,48
8120,0,-231,-137,162,28,49
8125,-4,-228,-136,161,21,53
8130,-4,-229,-135,161,13,56
8135,-4,-230,-135,159,8,57
8140,-3,-228,-134,155,5,60
8145,-5,-233,-133,153,3,61
8150,-5,-230,-137,150,3,64
8155,-5,-233,-133,150,2,64
8160,-7,-230,-138,150,3,64
8165,-7,-234,-135,153,4,64
8170,-2,-233,-134,156,4,63
8175,-3,-235,-131,160,5,62
8180,-6,-233,-134,163,4,61
8185,-6,-230,-133,163,4,58
8190,0,-227,-142,162,5,54
8195,-3,-232,-135,161,7,50
8200,-5,-228,-133,157,4,45
8205,-3,-227,-131,150,3,41
8210,-5,-226,-131,142,1,36
8215,-5,-224,-128,136,0,33
8220,-4,-224,-130,127,2,27
8225,-4,-220,-129,119,2,20
8230,0,-224,-130,111,5,15
8235,-4,-223,-128,105,6,8
8240,0,-224,-127,101,9,3
8245,0,-226,-125,100,12,-1
8250,0,-225,-127,99,13,-6
8255,-4,-225,-128,101,14,-9
8260,-5,-226,-128,107,16,-11
8265,-1,-233,-129,113,17,-14
8270,1,-225,-128,121,20,-13
8275,-2,-231,-128,130,19,-13
8280,-2,-231,-127,139,17,-13
8285,-3,-230,-128,147,15,-11
8290,-2,-230,-126,154,13,-10
8295,-8,-228,-128,157,7,-10
8300,-7,-229,-127,161,3,-9
8305,-6,-229,-126,164,-1,-4
8310,-8,-228,-127,167,-3,-1
8315,-8,-227,-126,167,-6,0
8320,-9,-226,-127,165,-10,0
8325,-10,-228,-124,161,-11,2
8330,-9,-226,-121,159,-12,1
8335,-10,-229,-123,156,-13,2
8340,-10,-228,-123,152,-12,3
8345,-11,-227,-123,147,-12,4
8350,-7,-228,-123,141,-9,4
8355,-14,-230,-127,136,-6,2
8360,-8,-228,-123,133,-4,-1
8365,-6,-232,-120,129,0,-4
8370,-6,-228,-119,124,4,-10
8375,-7,-228,-126,121,8,-14
8380,-8,-230,-123,117,12,-16
8385,-7,-229,-121,113,13,-21
8390,-4,-232,-125,107,14,-24
8395,-7,-228,-121,101,13,-27
8400,-5,-228,-120,97,12,-29
8405,-8,-225,-125,92,9,-31
8410,-6,-228,-122,87,7,-30
8415,-8,-229,-121,85,5,-34
8420,-5,-226,-120,80,3,-36
8425,-5,-227,-122,76,0,-36
8430,-12,-226,-120,72,-3,-38
8435,-7,-228,-121,70,-3,-39
8440,-6,-227,-120,69,-4,-40
8445,-6,-228,-121,70,-7,-41
8450,-6,-228,-119,70,-10,-41
8455,-7,-225,-121,68,-13,-46
8460,-8,-227,-121,66,-16,-47
8465,-4,-225,-125,63,-20,-47
8470,-9,-224,-120,60,-22,-48
8475,-7,-224,-119,56,-23,-47
8480,-11,-224,-118,52,-25,-47
8485,-8,-224,-121,47,-25,-49
8490,-5,-224,-122,41,-24,-49
8495,-8,-225,-116,36,-21,-54
8500,-10,-227,-116,32,-19,-56
8505,-9,-227,-117,29,-16,-56
8510,-9,-231,-117,28,-13,-55
8515,-10,-233,-111,29,-13,-56
8520,-6,-232,-118,29,-13,-58
8525,-10,-230,-118,32,-15,-59
8530,-8,-229,-122,36,-18,-59
8535,-8,-230,-119,40,-22,-61
8540,-8,-233,-121,43,-23,-59
8545,-10,-230,-116,46,-23,-59
8550,-9,-235,-118,51,-24,-61
8555,-8,-232,-119,57,-23,-64
8560,-9,-233,-116,64,-24,-68
8565,-10,-235,-117,72,-26,-70
8570,-8,-232,-115,81,-26,-71
8575,3,-232,-111,91,-29,-71
8580,-8,-232,-111,99,-31,-72
8585,-13,-232,-112,108,-34,-76
8590,-11,-229,-112,117,-38,-76
8595,-13,-232,-115,122,-42,-74
8600,-11,-230,-113,123,-47,-74
8605,-12,-230,-114,121,-52,-72
8610,-10,-229,-111,115,-54,-69
8615,-10,-231,-111,107,-58,-68
8620,-11,-232,-112,99,-57,-70
8625,-15,-230,-119,91,-55,-73
8630,-9,-235,-111,80,-51,-75
8635,-13,-234,-116,72,-46,-79
8640,-9,-235,-112,64,-41,-83
8645,-11,-237,-115,61,-36,-85
8650,-13,-236,-108,60,-33,-89
8655,-12,-238,-112,66,-30,-88
8660,-12,-239,-111,75,-29,-89
8665,-12,-240,-111,89,-28,-91
8670,-8,-238,-112,106,-23,-91
8675,-10,-242,-109,125,-20,-90
8680,-6,-242,-110,145,-16,-91
8685,-7,-246,-102,163,-10,-95
8690,-9,-239,-107,180,-7,-98
8695,-8,-240,-109,196,-3,-100
8700,-7,-241,-115,204,1,-103
8705,-10,-240,-111,209,-1,-113
8710,-7,-237,-115,216,1,-109
8715,-8,-241,-110,222,3,-107
8720,-7,-240,-107,226,2,-106
8725,-6,-239,-110,231,2,-106
8730,-5,-236,-108,240,0,-106
8735,-2,-236,-102,250,-2,-105
8740,-6,-238,-105,258,-6,-105
8745,-4,-237,-105,264,-4,-104
8750,-2,-237,-106,266,0,-101
8755,-6,-232,-110,265,5,-98
8760,-3,-235,-106,262,14,-99
8765,-2,-239,-109,253,19,-99
8770,-4,-235,-106,239,23,-110
8775,-4,-238,-107,234,28,-105
8780,-2,-241,-109,229,33,-101
8785,-5,-240,-112,228,37,-102
8790,0,-234,-110,234,40,-99
8795,1,-241,-109,248,41,-98
8800,-4,-241,-105,268,41,-96
8805,-1,-239,-104,292,39,-94
8810,-1,-242,-101,320,37,-95
8815,-5,-236,-105,344,36,-90
8820,-5,-237,-105,367,36,-89
8825,-1,-239,-103,388,38,-89
8830,-4,-236,-102,400,41,-91
8835,-2,-233,-104,407,46,-95
8840,-5,-232,-103,408,53,-106
8845,-5,-228,-104,404,57,-113
8850,-7,-232,-106,404,67,-100
8855,-6,-230,-105,399,77,-96
8860,-3,-229,-104,395,83,-96
8865,-7,-229,-104,389,87,-98
8870,-8,-228,-103,387,93,-98
8875,-4,-229,-100,384,98,-99
8880,-2,-231,-101,382,103,-98
8885,-4,-228,-99,382,110,-95
8890,-3,-229,-102,383,116,-94
8895,-1,-229,-101,382,125,-91
8900,-2,-229,-99,381,133,-90
8905,-2,-226,-101,380,141,-88
8910,-4,-225,-100,379,145,-87
8915,0,-231,-97,374,146,-93
8920,-5,-221,-102,362,137,-104
8925,-2,-220,-98,362,130,-82
8930,-2,-220,-98,365,123,-75
8935,-5,-222,-100,368,118,-73
8940,-3,-220,-95,368,115,-69
8945,-5,-218,-98,367,113,-68
8950,-9,-217,-98,363,113,-63
8955,-5,-217,-97,354,115,-58
8960,-1,-221,-95,342,118,-52
8965,-3,-221,-96,326,125,-47
8970,-5,-216,-97,308,131,-44
8975,-5,-215,-100,289,136,-40
8980,-1,-219,-102,272,138,-38
8985,-8,-216,-98,255,143,-35
8990,-2,-222,-98,236,144,-30
8995,-8,-221,-102,217,144,-25
9000,-4,-221,-100,203,142,-20
9005,-4,-223,-101,194,140,-15
9010,-5,-223,-99,188,136,-10
9015,-4,-227,-97,186,131,-4
9020,-3,-229,-99,185,126,-1
9025,-1,-231,-97,189,123,2
9030,1,-229,-97,189,123,-5
9035,-5,-227,-97,185,115,-17
9040,4,-232,-95,193,112,9
9045,0,-231,-98,200,109,21
9050,4,-232,-94,203,106,23
9055,-1,-232,-99,204,98,24
9060,-1,-231,-99,203,90,25
9065,-1,-234,-97,200,85,27
9070,4,-235,-99,193,83,23
9075,-1,-235,-94,184,77,20
9080,2,-238,-101,179,75,23
9085,-2,-236,-97,176,73,22
9090,-1,-236,-94,169,73,29
9095,-2,-238,-98,170,67,27
9100,-1,-239,-96,175,58,16
9105,-3,-236,-93,182,54,17
9110,-4,-235,-93,190,53,15
9115,-3,-238,-92,196,53,14
9120,-4,-237,-89,199,58,13
9125,-1,-238,-95,201,61,12
9130,-6,-237,-90,204,63,13
9135,-6,-237,-95,205,63,12
9140,-3,-237,-92,205,60,12
9145,-3,-236,-95,202,60,7
9150,-3,-238,-89,198,65,2
9155,-2,-237,-92,190,71,0
9160,-3,-232,-89,185,77,1
9165,-2,-235,-87,185,83,1
9170,3,-238,-85,189,86,1
9175,-1,-234,-77,197,85,-3
9180,-1,-239,-80,207,86,-4
9185,4,-238,-79,212,85,-5
9190,1,-234,-76,210,82,-4
9195,-1,-237,-79,203,79,-6
9200,3,-236,-80,191,73,-7
9205,3,-237,-75,177,66,-5
9210,3,-239,-81,163,57,-7
9215,1,-240,-84,152,51,-6
9220,1,-247,-81,144,45,-4
9225,2,-245,-83,139,44,-5
9230,1,-249,-80,130,44,0
9235,0,-239,-80,108,46,-19
9240,0,-241,-80,121,44,-15
9245,-1,-249,-80,137,47,-11
9250,2,-250,-80,151,55,-8
9255,0,-248,-80,163,60,-11
9260,0,-248,-80,174,61,-10
9265,-2,-250,-80,184,58,-13
9270,-4,-247,-82,189,57,-13
9275,-5,-247,-84,189,56,-14
9280,0,-245,-80,186,58,-16
9285,-5,-244,-84,181,59,-17
9290,-5,-243,-84,177,62,-19
9295,-2,-243,-83,175,63,-22
9300,-2,-244,-83,174,61,-23
9305,-3,-244,-83,173,58,-24
9310,-2,-240,-80,175,55,-24
9315,-3,-241,-80,179,54,-25
9320,-3,-237,-84,181,55,-27
9325,-4,-239,-81,177,54,-28
9330,-4,-238,-85,169,56,-29
9335,-1,-238,-85,156,58,-32
9340,-1,-238,-82,142,57,-35
9345,-5,-235,-84,130,57,-37
9350,-2,-237,-81,119,56,-38
9355,-4,-236,-80,106,51,-40
9360,-2,-240,-80,98,49,-41
9365,-1,-239,-75,89,46,-42
9370,2,-243,-79,83,43,-41
9375,3,-242,-78,79,40,-39
9380,3,-244,-77,75,40,-37
9385,0,-245,-78,72,40,-35
9390,1,-244,-79,70,44,-33
9395,4,-244,-78,67,47,-33
9400,1,-246,-80,67,48,-30
9405,3,-250,-79,69,48,-32
9410,4,-254,-78,72,47,-32
9415,1,-255,-79,77,44,-32
9420,-1,-254,-75,80,44,-32
9425,4,-259,-79,85,48,-31
9430,2,-256,-77,93,54,-31
9435,0,-252,-76,102,60,-31
9440,-1,-255,-78,115,66,-31
9445,-2,-251,-75,126,71,-31
9450,0,-250,-75,135,76,-29
9455,1,-248,-71,140,81,-29
9460,-1,-250,-74,142,86,-29
9465,0,-249,-73,144,91,-28
9470,4,-249,-67,144,94,-27
9475,2,-247,-75,143,97,-25
9480,2,-251,-75,141,97,-24
9485,2,-248,-76,138,95,-22
9490,4,-248,-77,131,93,-20
9495,3,-246,-77,120,93,-20
9500,2,-246,-75,111,92,-20
9505,3,-245,-76,104,92,-17
9510,4,-242,-78,99,93,-14
9515,2,-243,-72,97,93,-11
9520,5,-243,-77,98,94,-9
9525,4,-244,-72,98,95,-6
9530,4,-244,-71,98,97,-3
9535,5,-241,-71,96,96,-1
9540,4,-239,-68,92,96,0
9545,5,-238,-72,84,94,0
9550,4,-243,-68,72,95,2
9555,4,-240,-68,54,95,3
9560,4,-242,-71,37,98,1
9565,4,-245,-71,23,101,1
9570,4,-245,-72,13,101,2
9575,4,-246,-70,6,103,3
9580,4,-247,-69,3,104,4
9585,4,-246,-70,3,106,4
9590,5,-252,-67,6,110,3
9595,4,-248,-68,8,115,4
9600,3,-250,-66,8,119,4
9605,4,-253,-65,4,124,4
9610,3,-251,-68,1,125,1
9615,1,-252,-69,-3,126,1
9620,1,-253,-69,-7,127,0
9625,1,-254,-67,-11,124,-1
9630,2,-255,-66,-15,122,-2
9635,-1,-254,-69,-18,120,-3
9640,-5,-252,-69,-17,120,-4
9645,0,-258,-68,-16,119,-5
9650,-3,-254,-68,-11,120,-3
9655,3,-253,-69,-7,123,-1
9660,-1,-254,-65,-2,124,1
9665,-2,-249,-66,1,125,3
9670,3,-251,-68,3,123,3
9675,2,-252,-70,3,124,3
9680,2,-253,-66,3,120,4
9685,0,-252,-69,0,116,2
9690,1,-249,-69,-5,112,1
9695,-1,-248,-69,-8,108,1
9700,1,-251,-67,-12,106,2
9705,0,-253,-67,-14,103,2
9710,2,-250,-66,-16,100,1
9715,3,-249,-67,-17,97,2
9720,2,-249,-67,-15,94,3
9725,4,-248,-69,-14,93,3
9730,2,-248,-67,-13,90,2
9735,4,-249,-68,-16,87,3
9740,0,-248,-62,-17,88,3
9745,3,-249,-65,-19,87,4
9750,4,-250,-67,-22,87,2
9755,2,-249,-69,-27,90,3
9760,2,-251,-65,-32,93,3
9765,5,-246,-69,-40,94,4
9770,1,-255,-65,-45,95,4
9775,3,-253,-64,-50,95,2
9780,3,-255,-66,-50,92,3
9785,3,-255,-71,-49,89,3
9790,1,-255,-64,-47,88,3
9795,1,-252,-65,-44,87,3
9800,0,-253,-66,-43,87,1
9805,3,-252,-65,-42,87,1
9810,2,-253,-64,-40,86,0
9815,4,-253,-63,-40,88,0
9820,0,-253,-63,-40,91,-1
9825,5,-256,-65,-39,91,-1
9830,2,-256,-68,-38,91,-2
9835,2,-254,-67,-38,91,-5
9840,3,-253,-67,-36,91,-6
9845,2,-256,-67,-35,91,-6
9850,3,-255,-69,-35,90,-7
9855,4,-253,-67,-35,88,-6
9860,2,-252,-69,-36,87,-6
9865,1,-255,-69,-34,86,-7
9870,4,-253,-67,-33,86,-7
9875,3,-255,-68,-33,88,-8
9880,0,-255,-71,-30,91,-6
9885,2,-253,-69,-26,93,-7
9890,0,-250,-69,-22,89,-6
9895,-1,-252,-68,-17,87,-8
9900,-2,-250,-70,-13,83,-7
9905,-1,-253,-65,-12,80,-8
9910,1,-253,-66,-12,78,-7
9915,0,-248,-66,-11,78,-5
9920,1,-252,-64,-13,80,-3
9925,-1,-250,-66,-13,80,-4
9930,1,-251,-66,-14,81,-3
9935,-1,-248,-66,-17,80,-4
9940,-1,-251,-65,-22,81,-3
9945,2,-249,-64,-26,79,-1
9950,3,-251,-66,-30,79,0
9955,1,-249,-64,-34,79,-1
9960,4,-249,-69,-39,79,0
9965,4,-251,-64,-43,76,-1
9970,2,-251,-63,-46,74,-1
9975,3,-253,-64,-49,71,-2
9980,2,-255,-66,-51,68,-1
9985,2,-252,-67,-53,65,-1
9990,-3,-241,-70,-53,63,-2
9995,2,-252,-64,-54,60,-2
10000,4,-255,-64,-55,57,-2
10005,2,-257,-65,-54,57,-3
10010,2,-255,-66,-51,55,-3
10015,4,-252,-68,-49,54,-3
10020,2,-255,-67,-47,54,-1
10025,4,-255,-66,-47,53,-2
10030,3,-255,-69,-45,52,-2
10035,3,-255,-70,-45,50,-1
10040,4,-253,-70,-43,50,-1
10045,3,-253,-66,-40,51,-2
10050,3,-254,-69,-37,50,-2
10055,4,-253,-69,-32,53,-2
10060,3,-254,-66,-31,53,-3
10065,5,-253,-69,-27,54,-3
10070,4,-250,-66,-26,54,-4
10075,4,-252,-69,-23,55,-5
10080,3,-251,-67,-23,55,-5
10085,3,-252,-64,-21,57,-6
10090,4,-248,-66,-20,58,-7
10095,3,-250,-65,-19,61,-7
10100,5,-251,-58,-20,63,-9
10105,6,-251,-67,-21,64,-10
10110,5,-252,-64,-25,66,-10
10115,4,-251,-66,-28,69,-9
10120,6,-251,-68,-30,69,-9
10125,4,-253,-66,-31,70,-11
10130,6,-256,-69,-30,72,-10
10135,5,-253,-67,-28,71,-9
10140,6,-253,-66,-27,71,-9
10145,4,-254,-64,-25,71,-10
10150,4,-252,-70,-24,72,-8
10155,4,-250,-67,-25,73,-7
10160,5,-253,-66,-26,73,-4
10165,3,-254,-69,-26,73,-2
10170,4,-252,-68,-27,74,-4
10175,4,-254,-67,-27,74,-1
10180,4,-250,-69,-26,74,-1
10185,4,-253,-68,-23,74,1
10190,5,-251,-66,-20,75,0
10195,5,-255,-64,-17,76,0
10200,4,-252,-69,-15,77,0
10205,4,-252,-69,-14,75,0
10210,4,-254,-72,-16,75,0
10215,4,-254,-70,-19,72,-2
10220,1,-250,-66,-21,69,-3
10225,-1,-250,-66,-24,67,-3
10230,4,-254,-68,-27,65,-3
10235,1,-251,-69,-30,64,-4
10240,5,-252,-67,-31,64,-3
10245,3,-250,-70,-30,68,-5
10250,1,-253,-68,-28,68,-4
10255,3,-252,-67,-24,69,-7
10260,1,-253,-68,-20,69,-6
10265,-3,-250,-68,-18,68,-8
10270,-1,-253,-70,-17,70,-7
10275,1,-253,-67,-17,68,-6
10280,2,-254,-68,-19,66,-5
10285,4,-253,-72,-19,65,-6
10290,-1,-249,-70,-18,62,-5
10295,-3,-251,-67,-19,61,-5
10300,0,-250,-68,-19,57,-5
10305,-4,-252,-68,-20,56,-6
10310,2,-252,-69,-20,53,-5
10315,9,-252,-71,-20,54,-6
10320,4,-253,-68,-21,51,-6
10325,0,-251,-65,-23,50,-7
10330,4,-250,-66,-24,50,-7
10335,3,-255,-66,-25,50,-8
10340,2,-253,-67,-26,51,-10
10345,2,-254,-69,-25,54,-9
10350,3,-252,-70,-22,54,-9
10355,2,-251,-68,-19,55,-9
10360,-2,-250,-71,-15,56,-8
10365,2,-247,-69,-13,56,-7
10370,-3,-243,-69,-13,54,-8
10375,1,-251,-69,-14,53,-7
10380,0,-246,-70,-17,50,-5
10385,1,-252,-72,-21,49,-5
10390,2,-253,-70,-24,48,-5
10395,0,-252,-72,-28,47,-5
10400,1,-251,-72,-29,46,-4
10405,2,-251,-69,-30,45,-5
10410,1,-248,-64,-31,43,-3
10415,2,-251,-69,-31,42,-4
10420,0,-251,-69,-32,42,-5
10425,4,-252,-79,-31,40,-6
10430,1,-250,-68,-32,40,-5
10435,3,-254,-69,-35,41,-7
10440,2,-250,-69,-37,44,-8
10445,4,-255,-65,-39,43,-7
10450,3,-251,-68,-37,43,-8
10455,2,-250,-69,-37,43,-7
10460,4,-252,-69,-35,42,-9
10465,3,-253,-70,-34,45,-8
10470,4,-253,-66,-33,46,-8
10475,1,-253,-68,-33,47,-8
10480,4,-254,-68,-33,48,-8
10485,1,-252,-67,-33,49,-6
10490,-1,-251,-67,-32,49,-4
10495,2,-251,-68,-31,47,-4
10500,2,-253,-66,-29,46,-4
10505,4,-250,-68,-28,46,-4
10510,2,-249,-68,-28,44,-3
10515,2,-253,-68,-29,45,-3
10520,3,-251,-67,-31,46,-1
10525,4,-250,-69,-34,49,-2
10530,3,-249,-69,-37,50,-1
10535,0,-249,-67,-39,51,-3
10540,1,-248,-69,-40,53,-2
10545,4,-252,-72,-41,52,-2
10550,2,-250,-70,-41,54,-3
10555,4,-253,-70,-40,55,-2
10560,4,-252,-70,-38,59,-2
10565,0,-250,-72,-37,57,-4
10570,3,-252,-69,-36,58,-3
10575,0,-254,-69,-34,58,-4
10580,4,-253,-73,-33,58,-5
10585,4,-251,-72,-32,57,-6
10590,1,-253,-72,-35,58,-6
10595,1,-253,-69,-39,58,-6
10600,3,-252,-71,-40,60,-4
10605,2,-253,-69,-39,60,-5
10610,2,-250,-70,-40,61,-5
10615,0,-254,-66,-37,61,-4
10620,1,-251,-70,-36,64,-4
10625,4,-251,-70,-33,63,-4
10630,2,-252,-67,-31,61,-2
10635,4,-252,-68,-28,60,-3
10640,4,-251,-67,-25,59,-2
10645,3,-248,-62,-23,60,-2
10650,1,-251,-68,-21,59,-3
10655,4,-251,-70,-18,59,-2
10660,1,-251,-69,-17,60,0
10665,4,-253,-67,-17,61,-1
10670,4,-250,-68,-19,62,-1
10675,3,-254,-70,-20,61,-1
10680,1,-252,-68,-22,60,-1
10685,4,-251,-71,-26,60,-1
10690,-1,-252,-66,-30,61,-1
10695,4,-254,-70,-30,63,0
10700,-1,-253,-69,-30,63,-1
10705,0,-253,-69,-29,66,-1
10710,0,-252,-67,-28,69,0
10715,-2,-253,-67,-28,70,-1
10720,1,-252,-65,-27,71,0
10725,3,-252,-67,-25,71,-1
10730,4,-252,-71,-23,71,-2
10735,0,-251,-70,-22,71,-2
10740,0,-253,-71,-21,69,-2
10745,2,-254,-68,-22,69,-2
10750,4,-253,-72,-22,67,-3
10755,-3,-253,-68,-22,67,-3
10760,3,-254,-70,-21,65,-3
10765,-2,-249,-74,-19,66,-3
10770,3,-250,-70,-16,67,-1
10775,0,-249,-70,-13,66,-1
10780,4,-254,-70,-9,66,0
10785,3,-250,-71,-6,66,0
10790,-2,-250,-69,-4,64,-2
10795,-2,-251,-67,-4,65,1
10800,4,-247,-69,-6,65,0
10805,0,-250,-70,-7,65,0
10810,-1,-249,-70,-9,64,1
10815,3,-251,-71,-12,64,1
10820,2,-250,-73,-11,63,1
10825,2,-252,-69,-12,61,1
10830,2,-249,-69,-12,60,0
10835,2,-254,-67,-9,59,0
10840,1,-249,-71,-7,57,0
10845,1,-249,-68,-8,55,-2
10850,1,-251,-67,-9,55,-1
10855,2,-252,-67,-12,56,-2
10860,-1,-246,-67,-15,57,-3
10865,-3,-251,-68,-18,58,-3
10870,-1,-249,-70,-20,58,-4
10875,0,-252,-66,-23,57,-5
10880,2,-251,-69,-24,57,-5
10885,1,-249,-69,-25,56,-6
10890,0,-252,-69,-25,56,-6
10895,1,-251,-69,-26,55,-7
10900,2,-252,-68,-27,54,-6
10905,0,-253,-69,-27,52,-6
10910,1,-250,-74,-27,52,-8
10915,2,-253,-70,-27,51,-8
10920,3,-250,-76,-27,50,-7
10925,3,-252,-72,-28,52,-6
10930,-1,-249,-67,-28,51,-6
10935,2,-252,-69,-28,51,-6
10940,0,-251,-68,-28,51,-6
10945,3,-250,-68,-26,50,-7
10950,1,-251,-70,-27,49,-5
10955,3,-253,-70,-24,46,-6
10960,2,-251,-71,-23,44,-6
10965,4,-251,-70,-23,43,-6
10970,-2,-248,-69,-24,42,-7
10975,-1,-249,-70,-23,40,-6
10980,1,-255,-70,-24,39,-6
10985,3,-252,-74,-25,39,-7
10990,0,-250,-70,-27,38,-6
10995,0,-250,-72,-27,39,-8
11000,0,-250,-70,-27,39,-9
11005,0,-251,-70,-29,42,-7
11010,-1,-252,-70,-28,42,-8
11015,0,-249,-68,-27,44,-8
11020,-2,-249,-67,-26,46,-8
11025,0,-252,-71,-27,47,-9
11030,2,-251,-68,-27,49,-7
11035,-1,-251,-72,-28,49,-7
11040,4,-250,-71,-28,53,-8
11045,0,-251,-72,-28,53,-7
11050,0,-251,-68,-30,54,-7
11055,3,-255,-73,-30,55,-8
11060,3,-250,-73,-30,53,-9
11065,1,-253,-72,-30,53,-10
11070,3,-253,-69,-31,51,-8
11075,4,-254,-68,-32,52,-7
11080,6,-251,-69,-31,52,-8
11085,3,-253,-69,-30,52,-9
11090,-1,-250,-67,-30,51,-8
11095,0,-251,-69,-29,51,-9
11100,-3,-252,-71,-29,49,-8
11105,0,-250,-70,-30,48,-10
11110,-1,-249,-68,-28,47,-8
11115,0,-251,-72,-31,45,-9
11120,2,-254,-72,-29,45,-7
11125,-1,-251,-73,-27,45,-8
11130,2,-250,-69,-26,46,-7
11135,3,-250,-72,-22,46,-7
11140,3,-249,-69,-21,47,-7
11145,1,-251,-73,-20,47,-6
11150,1,-251,-73,-21,49,-5
11155,1,-251,-70,-22,49,-6
11160,0,-249,-72,-22,51,-5
11165,4,-255,-71,-20,54,-5
11170,3,-252,-71,-22,55,-5
11175,0,-251,-70,-21,57,-6
11180,4,-252,-70,-21,59,-5
11185,0,-252,-71,-19,62,-5
11190,3,-253,-71,-19,63,-4
11195,2,-252,-67,-18,64,-5
11200,4,-249,-69,-18,64,-4
11205,-2,-250,-72,-19,65,-2
11210,4,-253,-75,-19,65,-3
11215,3,-252,-70,-20,67,-4
11220,-2,-255,-69,-19,69,-4
11225,2,-252,-74,-19,69,-4
11230,2,-251,-68,-18,70,-4
11235,2,-250,-71,-16,71,-2
11240,-1,-253,-70,-18,71,-3
11245,1,-251,-72,-15,73,-2
11250,-1,-248,-70,-16,73,-1
11255,2,-252,-70,-17,72,-1
11260,2,-253,-71,-19,70,-1
11265,-1,-251,-75,-19,73,0
11270,0,-251,-71,-19,74,0
11275,-1,-251,-71,-18,74,0
11280,0,-251,-68,-17,74,0
11285,3,-251,-69,-15,75,1
11290,2,-253,-70,-12,76,4
11295,1,-251,-70,-11,76,2
11300,1,-250,-69,-10,77,3
11305,1,-251,-76,-10,79,3
11310,-3,-249,-71,-9,79,2
11315,-1,-249,-71,-8,80,2
11320,1,-252,-73,-8,81,3
11325,1,-251,-72,-6,82,1
11330,-3,-252,-67,-7,82,2
11335,2,-249,-71,-8,83,1
11340,1,-251,-71,-7,82,1
11345,-1,-253,-71,-9,83,-1
11350,2,-252,-73,-12,84,0
11355,0,-249,-71,-13,86,0
11360,-1,-249,-71,-14,86,2
11365,-1,-253,-71,-13,87,2
11370,1,-252,-70,-14,87,2
11375,4,-253,-69,-15,86,2
11380,0,-251,-73,-14,85,2
11385,-2,-252,-72,-15,84,2
11390,-2,-249,-69,-14,83,3
11395,-1,-251,-67,-14,83,2
11400,0,-251,-70,-15,81,3
11405,0,-253,-69,-12,80,3
11410,-1,-252,-69,-12,79,3
11415,-1,-249,-70,-11,77,3
11420,2,-250,-69,-10,77,4
11425,0,-251,-65,-12,76,4
11430,0,-254,-69,-10,76,4
11435,-2,-250,-72,-10,76,2
11440,-1,-251,-73,-10,73,2
11445,-1,-251,-71,-12,72,1
11450,2,-253,-71,-13,73,-1
11455,-4,-251,-72,-14,72,1
11460,-1,-253,-71,-14,71,0
11465,-2,-252,-70,-14,72,1
11470,1,-252,-71,-15,72,-1
11475,-2,-255,-72,-13,71,0
11480,-1,-253,-70,-12,71,-2
11485,-2,-252,-70,-11,71,-1
11490,1,-251,-72,-7,71,-2
11495,0,-251,-71,-5,69,-2
11500,2,-253,-72,-4,71,-1
11505,3,-250,-73,-3,72,-1
11510,-2,-252,-71,-1,73,-3
11515,2,-247,-73,-3,73,-2
11520,4,-249,-68,-5,74,-3
11525,-2,-250,-71,-6,73,-1
11530,2,-252,-72,-8,75,-2
11535,0,-249,-70,-8,77,-4
11540,2,-252,-69,-6,75,-4
11545,2,-252,-71,-5,74,-2
11550,1,-253,-70,-2,72,-2
11555,3,-252,-71,-1,70,-2
11560,0,-253,-74,0,71,-2
11565,0,-249,-71,1,70,-2
11570,2,-249,-73,-1,70,-3
11575,3,-250,-69,1,70,-3
11580,4,-254,-71,-1,68,-2
11585,2,-253,-71,-4,67,-2
11590,3,-250,-68,-7,67,-2
11595,2,-252,-66,-11,68,-5
11600,2,-252,-68,-10,72,-3
11605,1,-250,-70,-12,75,-3
11610,0,-253,-70,-10,78,-3
11615,2,-254,-72,-9,78,-3
11620,4,-253,-72,-8,79,-2
11625,0,-255,-71,-4,81,-4
11630,2,-252,-72,-4,84,-3
11635,2,-251,-68,-4,83,-3
11640,3,-253,-72,-5,81,-5
11645,2,-251,-72,-8,79,-4
11650,-3,-250,-65,-9,77,-4
11655,3,-252,-72,-9,76,-4
11660,4,-253,-68,-10,74,-2
11665,0,-252,-72,-9,73,-2
11670,2,-251,-70,-9,72,-2
11675,3,-252,-69,-8,71,-1
11680,2,-250,-74,-9,73,-1
11685,0,-248,-71,-6,74,-2
11690,4,-252,-71,-7,75,-2
11695,3,-249,-70,-7,76,-3
11700,1,-252,-71,-7,74,-4
11705,3,-252,-73,-7,75,-3
11710,2,-252,-72,-8,73,-4
11715,4,-253,-69,-8,73,-4
11720,3,-253,-69,-7,72,-5
11725,3,-252,-68,-7,71,-4
11730,-2,-251,-70,-4,72,-6
11735,1,-251,-75,-5,71,-6
11740,-1,-250,-72,-5,72,-6
11745,0,-251,-69,-3,73,-6
11750,-1,-252,-72,-4,75,-6
11755,1,-250,-71,-5,77,-6
11760,-2,-252,-66,-5,79,-8
11765,4,-249,-70,-4,78,-8
11770,1,-251,-73,-5,76,-7
11775,1,-251,-70,-4,75,-6
11780,2,-252,-72,-3,73,-6
11785,2,-251,-72,-5,72,-6
11790,4,-255,-70,-5,72,-6
11795,4,-250,-68,-7,70,-7
11800,4,-253,-70,-9,67,-7
11805,3,-251,-71,-10,66,-7
11810,3,-253,-71,-10,65,-7
11815,-2,-254,-69,-10,65,-6
11820,-2,-247,-68,-11,65,-6
11825,0,-252,-70,-11,67,-7
11830,0,-253,-70,-10,69,-7
11835,1,-252,-74,-10,69,-8
11840,0,-254,-68,-7,70,-8
11845,-1,-253,-71,-6,71,-8
11850,0,-250,-71,-4,71,-8
11855,2,-250,-70,-3,73,-7
11860,2,-251,-74,-1,72,-7
11865,2,-251,-72,-2,71,-8
11870,1,-254,-70,0,71,-8
11875,3,-252,-68,0,70,-6
11880,3,-253,-71,1,69,-6
11885,4,-249,-75,0,67,-5
11890,4,-254,-69,-1,68,-5
11895,3,-253,-73,-1,68,-3
11900,0,-251,-73,-1,71,-3
11905,2,-250,-70,-2,72,-2
11910,1,-251,-70,-1,73,-3
11915,1,-253,-67,0,72,-1
11920,4,-251,-70,3,73,-1
11925,2,-253,-68,2,74,-1
11930,1,-250,-70,5,72,-1
11935,0,-252,-68,5,72,-1
11940,0,-250,-72,4,71,-1
11945,-1,-249,-69,4,72,-1
11950,2,-250,-65,2,73,-2
11955,0,-252,-71,-1,74,-1
11960,1,-251,-70,-3,77,-1
11965,3,-250,-72,-6,77,1
11970,-2,-250,-72,-8,78,0
11975,3,-251,-70,-9,77,0
11980,4,-251,-74,-9,75,0
11985,-2,-251,-73,-11,76,0
11990,1,-252,-72,-11,73,0
11995,2,-252,-75,-11,74,1
