timestamp,acc_x,acc_y,acc_z,gyro_x,gyro_y,gyro_z
0,17,-255,8,-62,9,4
5,15,-255,8,-62,10,4
10,18,-258,6,-63,12,3
15,16,-259,11,-64,14,3
20,17,-248,6,-66,16,2
25,13,-256,8,-66,14,1
30,14,-255,8,-65,15,2
35,15,-256,7,-64,15,1
40,15,-257,6,-63,15,1
45,14,-254,10,-63,14,0
50,15,-256,11,-62,16,-2
55,15,-258,9,-63,17,-2
60,15,-257,7,-62,18,0
65,14,-256,10,-66,20,0
70,18,-256,7,-69,19,0
75,14,-255,6,-71,18,1
80,16,-258,9,-72,19,2
85,14,-257,7,-71,19,1
90,14,-256,6,-71,19,2
95,13,-255,9,-67,18,3
100,14,-257,11,-66,18,2
105,17,-259,8,-63,18,3
110,15,-260,8,-62,19,3
115,17,-260,8,-61,18,1
120,16,-257,4,-62,19,2
125,14,-257,8,-62,18,2
130,15,-259,10,-63,19,3
135,16,-258,9,-64,19,2
140,13,-258,6,-62,19,0
145,14,-259,7,-61,18,-1
150,13,-257,10,-59,20,-1
155,14,-258,9,-56,19,-1
160,14,-257,10,-53,21,-2
165,14,-257,10,-51,21,-2
170,14,-258,8,-47,23,-2
175,16,-257,10,-45,23,-3
180,19,-258,7,-46,24,-6
185,14,-251,10,-46,27,-6
190,14,-256,7,-47,27,-4
195,14,-256,8,-46,26,-3
200,18,-256,7,-48,26,-3
205,14,-256,8,-48,26,-3
210,16,-256,6,-50,24,-5
215,14,-255,10,-51,24,-3
220,16,-257,11,-53,22,-3
225,15,-256,5,-52,22,-2
230,16,-257,7,-55,22,-2
235,14,-254,6,-57,20,-3
240,15,-256,6,-57,19,-1
245,15,-258,6,-58,19,-1
250,15,-256,7,-59,20,-1
255,10,-255,8,-58,17,-2
260,14,-255,6,-57,18,-2
265,16,-257,9,-57,17,-3
270,18,-257,7,-55,17,-3
275,17,-256,5,-56,18,-3
280,14,-257,10,-55,20,-3
285,13,-258,9,-54,20,-4
290,14,-257,6,-55,20,-4
295,13,-258,6,-53,22,-4
300,16,-257,5,-54,22,-4
305,14,-256,4,-55,22,-4
310,14,-258,6,-55,22,-3
315,14,-258,7,-55,21,-4
320,11,-256,5,-54,21,-4
325,14,-257,6,-54,21,-2
330,14,-256,4,-54,20,-2
335,17,-257,6,-53,22,-3
340,15,-256,6,-52,21,-3
345,17,-256,10,-52,21,-3
350,15,-257,8,-50,22,-4
355,16,-258,3,-48,22,-3
360,15,-256,4,-50,21,-3
365,15,-255,7,-48,20,-2
370,12,-256,7,-50,20,-3
375,16,-255,4,-50,20,-4
380,16,-257,6,-54,20,-4
385,15,-255,7,-54,21,-3
390,16,-259,8,-55,20,-3
395,14,-257,7,-57,20,-1
400,15,-257,7,-57,20,-2
405,14,-258,8,-58,21,-2
410,13,-256,10,-58,21,-1
415,15,-258,5,-56,21,-1
420,13,-258,6,-57,20,0
425,13,-258,8,-55,21,-1
430,11,-256,4,-54,20,-1
435,14,-257,9,-51,20,-1
440,13,-257,8,-52,20,-2
445,12,-257,4,-52,20,-2
450,14,-258,9,-52,20,-2
455,14,-256,8,-52,20,-3
460,15,-258,6,-52,22,-3
465,15,-257,7,-53,23,-3
470,14,-257,6,-55,25,-3
475,15,-258,6,-56,25,-3
480,13,-256,8,-57,25,-3
485,15,-258,9,-57,25,-3
490,16,-257,4,-58,23,-4
495,13,-256,8,-62,21,-2
500,15,-258,8,-61,21,-1
505,14,-257,6,-61,20,-1
510,12,-257,6,-64,20,-1
515,13,-256,4,-65,19,0
520,12,-255,7,-65,17,1
525,15,-257,9,-67,15,0
530,12,-257,3,-69,14,2
535,13,-258,6,-69,14,2
540,15,-259,5,-70,14,1
545,13,-258,7,-70,14,2
550,16,-259,5,-66,15,2
555,13,-255,7,-60,15,1
560,16,-258,7,-55,16,1
565,15,-259,9,-51,15,0
570,13,-257,5,-49,16,0
575,16,-258,6,-50,19,1
580,15,-257,5,-54,21,1
585,14,-256,5,-58,23,0
590,13,-256,8,-59,23,1
595,13,-258,3,-62,22,0
600,14,-256,5,-61,21,0
605,14,-256,12,-60,21,1
610,14,-256,8,-58,19,0
615,14,-267,21,-55,19,1
620,12,-256,8,-53,20,0
625,14,-258,9,-50,20,0
630,13,-256,6,-52,19,1
635,13,-255,7,-52,19,-1
640,14,-256,7,-53,21,-2
645,13,-256,6,-55,21,-1
650,15,-258,8,-55,22,-1
655,13,-256,7,-56,23,-2
660,14,-256,6,-56,22,-3
665,14,-257,4,-56,22,-2
670,10,-250,4,-57,20,-2
675,14,-258,7,-57,19,-1
680,11,-255,4,-59,18,0
685,11,-258,7,-58,17,0
690,12,-258,6,-57,16,-1
695,12,-258,7,-56,15,-2
700,14,-257,3,-54,16,0
705,13,-259,4,-53,17,1
710,13,-256,6,-53,16,1
715,15,-260,9,-51,18,2
720,13,-258,5,-50,17,0
725,14,-256,7,-48,17,-1
730,9,-257,6,-48,17,0
735,12,-256,5,-50,18,0
740,14,-257,4,-51,18,-1
745,13,-256,6,-50,17,-1
750,12,-256,6,-51,15,1
755,12,-254,8,-50,16,2
760,14,-256,2,-51,16,2
765,12,-256,8,-51,15,1
770,12,-258,5,-49,15,2
775,13,-256,7,-50,14,2
780,12,-256,4,-49,14,3
785,13,-256,6,-50,14,2
790,15,-257,7,-52,14,2
795,13,-257,4,-54,14,2
800,12,-256,6,-54,13,3
805,13,-257,5,-55,13,4
810,12,-259,7,-54,12,1
815,14,-259,10,-52,11,2
820,9,-256,7,-50,12,2
825,15,-258,8,-46,11,2
830,11,-254,5,-47,12,3
835,12,-256,5,-47,13,3
840,12,-257,4,-48,13,2
845,13,-258,6,-50,14,2
850,14,-257,5,-52,15,2
855,14,-258,10,-54,16,1
860,13,-257,8,-56,16,2
865,11,-258,7,-55,14,2
870,13,-258,8,-53,14,1
875,14,-258,5,-51,14,1
880,14,-260,3,-47,15,2
885,13,-256,7,-44,13,0
890,13,-257,5,-42,13,-1
895,14,-257,4,-40,14,-2
900,15,-257,8,-39,14,-2
905,14,-256,5,-41,15,-2
910,15,-257,4,-42,17,-1
915,12,-254,3,-41,16,0
920,14,-258,8,-41,16,-1
925,13,-257,4,-40,16,-2
930,13,-256,4,-40,16,-1
935,14,-259,3,-41,14,1
940,10,-257,6,-40,15,-1
945,12,-256,8,-43,14,-1
950,16,-258,5,-43,13,0
955,12,-257,3,-45,13,0
960,12,-258,5,-44,12,1
965,11,-256,4,-44,14,1
970,14,-257,4,-45,14,0
975,11,-255,7,-44,14,-1
980,12,-257,6,-45,15,-1
985,14,-257,4,-43,14,-2
990,10,-256,6,-43,16,-3
995,13,-258,6,-43,17,-2
1000,11,-257,8,-41,17,-4
1005,11,-256,9,-40,17,-5
1010,13,-257,10,-41,18,-5
1015,15,-257,4,-40,18,-2
1020,16,-259,5,-41,17,-3
1025,15,-256,4,-41,15,-4
1030,13,-259,2,-41,16,-4
1035,13,-256,8,-40,15,-3
1040,10,-256,5,-40,14,-5
1045,13,-256,4,-40,14,-4
1050,14,-256,8,-39,15,-5
1055,13,-257,6,-38,16,-4
1060,12,-257,6,-39,17,-5
1065,13,-256,3,-39,17,-4
1070,12,-257,8,-38,18,-3
1075,12,-254,6,-40,18,-4
1080,17,-256,4,-41,16,-4
1085,13,-256,6,-43,16,-3
1090,12,-256,5,-43,16,-2
1095,12,-257,4,-45,15,-2
1100,12,-257,3,-46,15,-2
1105,13,-256,5,-49,15,-1
1110,12,-258,5,-51,14,-2
1115,11,-256,5,-52,13,0
1120,11,-256,3,-52,15,1
1125,14,-256,4,-53,16,0
1130,12,-258,6,-53,15,0
1135,10,-259,3,-52,15,0
1140,13,-258,3,-51,14,-1
1145,12,-256,7,-51,14,1
1150,13,-259,8,-48,13,1
1155,11,-258,4,-49,13,0
1160,11,-257,8,-47,14,0
1165,16,-259,4,-45,12,-1
1170,14,-258,7,-44,13,-1
1175,14,-257,5,-44,13,-1
1180,9,-256,6,-46,11,-1
1185,11,-258,5,-47,12,-1
1190,11,-259,8,-48,8,-1
1195,12,-257,9,-51,3,1
1200,10,-263,9,-50,-4,4
1205,10,-261,9,-54,-17,8
1210,7,-265,7,-60,-40,13
1215,7,-263,1,-68,-74,19
1220,5,-267,-1,-79,-116,29
1225,4,-266,-8,-90,-163,39
1230,4,-267,-13,-102,-206,44
1235,7,-274,-22,-105,-242,49
1240,9,-276,-28,-96,-264,49
1245,10,-280,-34,-68,-269,47
1250,11,-284,-44,-25,-257,42
1255,8,-281,-40,24,-241,41
1260,7,-276,-45,69,-234,40
1265,6,-273,-40,110,-233,43
1270,9,-269,-33,145,-233,44
1275,9,-261,-18,173,-229,48
1280,10,-259,-14,192,-215,48
1285,7,-252,-7,202,-192,44
1290,12,-254,-5,199,-157,40
1295,13,-250,2,184,-117,33
1300,12,-245,18,162,-75,27
1305,12,-246,16,144,-40,20
1310,12,-247,23,131,-12,11
1315,8,-245,31,124,8,5
1320,14,-247,31,131,17,5
1325,16,-245,22,142,15,7
1330,10,-245,23,154,4,9
1335,9,-245,18,162,-11,15
1340,13,-244,10,165,-28,19
1345,13,-244,3,164,-45,24
1350,14,-244,-4,157,-59,29
1355,14,-245,-7,143,-70,33
1360,11,-242,-15,118,-75,33
1365,14,-240,-16,81,-72,31
1370,14,-239,-18,32,-64,28
1375,11,-238,-21,-25,-54,23
1380,16,-232,-11,-84,-44,18
1385,17,-241,-17,-133,-29,13
1390,14,-243,-4,-178,-12,8
1395,12,-248,-7,-209,4,4
1400,12,-249,-1,-229,17,1
1405,13,-252,1,-239,26,0
1410,14,-253,7,-238,33,0
1415,14,-255,11,-229,37,1
1420,10,-255,9,-216,40,3
1425,10,-253,14,-205,40,6
1430,9,-254,13,-195,39,9
1435,8,-251,14,-192,39,12
1440,8,-254,6,-196,36,16
1445,7,-249,12,-204,32,20
1450,8,-252,9,-220,27,24
1455,7,-249,1,-243,26,25
1460,8,-248,3,-274,27,25
1465,10,-248,0,-309,31,26
1470,9,-248,4,-344,37,24
1475,10,-250,-5,-376,45,21
1480,11,-254,2,-401,52,20
1485,12,-255,2,-421,61,20
1490,11,-256,1,-430,68,19
1495,14,-258,0,-429,73,19
1500,12,-256,0,-422,77,19
1505,11,-258,1,-407,77,20
1510,12,-256,1,-390,75,21
1515,10,-256,-5,-374,73,26
1520,10,-255,-1,-361,67,30
1525,13,-255,-10,-355,62,34
1530,9,-253,-10,-357,57,39
1535,13,-255,-10,-371,50,44
1540,11,-251,-13,-396,45,47
1545,12,-253,-19,-421,39,49
1550,7,-252,-19,-447,30,54
1555,10,-254,-13,-469,24,56
1560,9,-254,-18,-487,19,56
1565,6,-253,-15,-492,15,57
1570,7,-253,-18,-494,13,57
1575,7,-256,-16,-488,13,56
1580,6,-256,-13,-482,13,56
1585,4,-260,-16,-475,13,55
1590,4,-261,-21,-466,14,54
1595,4,-262,-18,-458,16,54
1600,1,-261,-11,-445,19,53
1605,2,-260,-13,-432,21,54
1610,3,-260,-15,-417,25,55
1615,2,-254,-17,-408,25,56
1620,0,-250,-15,-399,25,59
1625,4,-249,-17,-402,20,60
1630,3,-247,-16,-410,15,65
1635,5,-249,-19,-422,9,69
1640,4,-247,-20,-440,5,73
1645,4,-245,-22,-456,3,77
1650,6,-245,-23,-473,2,81
1655,6,-245,-19,-488,0,86
1660,9,-248,-27,-500,-2,89
1665,7,-248,-30,-509,-8,94
1670,8,-246,-25,-514,-12,98
1675,11,-248,-26,-518,-18,100
1680,8,-248,-29,-518,-23,103
1685,7,-252,-26,-521,-26,105
1690,6,-251,-29,-525,-28,105
1695,5,-253,-27,-535,-31,103
1700,7,-254,-35,-544,-33,103
1705,2,-256,-29,-552,-37,101
1710,3,-257,-30,-558,-38,99
1715,3,-261,-28,-559,-36,93
1720,1,-258,-28,-559,-32,90
1725,4,-258,-25,-554,-30,88
1730,1,-253,-26,-546,-28,85
1735,7,-254,-24,-537,-26,82
1740,2,-253,-23,-530,-23,81
1745,4,-251,-26,-527,-16,79
1750,7,-246,-26,-530,-12,77
1755,7,-242,-27,-536,-4,75
1760,6,-238,-28,-548,2,74
1765,7,-234,-28,-565,7,73
1770,12,-237,-34,-586,12,74
1775,12,-234,-34,-609,12,77
1780,12,-239,-38,-636,11,80
1785,16,-243,-39,-665,9,82
1790,16,-242,-40,-693,4,84
1795,15,-249,-47,-715,0,84
1800,16,-253,-49,-731,-7,82
1805,15,-256,-48,-737,-13,78
1810,15,-262,-48,-733,-19,76
1815,14,-267,-50,-725,-21,68
1820,16,-270,-46,-705,-23,57
1825,11,-270,-43,-679,-21,48
1830,13,-272,-43,-644,-18,38
1835,8,-272,-36,-605,-9,26
1840,8,-269,-42,-566,1,15
1845,9,-263,-38,-532,11,5
1850,6,-258,-36,-504,21,-3
1855,6,-256,-39,-489,31,-10
1860,14,-255,-39,-488,39,-14
1865,12,-253,-42,-501,48,-17
1870,11,-254,-43,-523,56,-20
1875,12,-254,-48,-550,64,-19
1880,12,-253,-46,-574,73,-18
1885,11,-255,-42,-589,78,-16
1890,9,-259,-48,-591,81,-13
1895,8,-259,-49,-584,79,-7
1900,11,-264,-52,-563,73,0
1905,8,-266,-55,-534,62,9
1910,8,-269,-59,-498,48,20
1915,8,-269,-60,-461,33,30
1920,7,-270,-59,-423,21,38
1925,9,-272,-63,-385,12,42
1930,10,-275,-60,-350,14,41
1935,8,-269,-60,-319,27,39
1940,10,-258,-57,-294,49,37
1945,6,-251,-55,-278,80,31
1950,6,-237,-54,-278,108,21
1955,4,-226,-49,-303,130,12
1960,5,-220,-58,-358,146,8
1965,7,-221,-52,-447,155,7
1970,7,-222,-59,-572,155,8
1975,18,-227,-67,-724,146,9
1980,7,-241,-60,-886,134,10
1985,6,-254,-61,-1030,119,8
1990,4,-267,-58,-1131,106,8
1995,2,-281,-53,-1173,89,9
2000,1,-293,-52,-1157,72,11
2005,2,-302,-49,-1082,53,18
2010,1,-309,-55,-960,34,23
2015,0,-319,-56,-808,18,27
2020,0,-320,-65,-636,3,30
2025,-2,-317,-68,-456,-7,35
2030,-10,-316,-69,-280,-12,42
2035,0,-303,-83,-120,-10,50
2040,-4,-288,-83,12,2,56
2045,-3,-274,-87,108,15,60
2050,-4,-260,-91,166,30,61
2055,-7,-246,-93,170,44,59
2060,-7,-231,-94,116,53,58
2065,-6,-221,-90,10,58,56
2070,-7,-213,-90,-138,60,54
2075,-8,-208,-87,-319,61,52
2080,-6,-211,-78,-512,59,50
2085,-5,-218,-73,-693,58,49
2090,-6,-229,-64,-845,56,46
2095,-5,-240,-58,-949,48,45
2100,1,-253,-54,-1001,37,44
2105,0,-259,-51,-1004,22,46
2110,0,-269,-53,-960,3,47
2115,4,-278,-59,-880,-16,52
2120,-2,-279,-62,-773,-32,55
2125,0,-280,-67,-655,-49,58
2130,1,-277,-76,-535,-66,64
2135,2,-272,-88,-427,-83,68
2140,1,-265,-102,-336,-100,73
2145,4,-257,-109,-272,-108,79
2150,2,-252,-113,-244,-109,84
2155,4,-243,-121,-253,-101,90
2160,3,-240,-125,-298,-86,95
2165,2,-231,-124,-372,-67,100
2170,-1,-226,-117,-472,-49,104
2175,-3,-221,-117,-587,-36,104
2180,-4,-221,-107,-710,-27,98
2185,-1,-225,-102,-828,-16,92
2190,-1,-230,-97,-935,-3,79
2195,0,-237,-87,-1022,11,67
2200,1,-243,-80,-1086,26,54
2205,3,-254,-77,-1119,38,41
2210,4,-259,-73,-1123,44,29
2215,6,-270,-71,-1102,51,16
2220,7,-275,-70,-1050,55,8
2225,7,-282,-75,-977,55,-1
2230,4,-285,-82,-888,50,-9
2235,4,-284,-84,-789,41,-11
2240,7,-286,-94,-684,25,-8
2245,4,-283,-100,-583,11,-2
2250,4,-276,-112,-495,0,9
2255,3,-273,-116,-417,-2,22
2260,3,-268,-124,-361,2,36
2265,1,-258,-127,-327,11,48
2270,-2,-253,-128,-312,21,57
2275,1,-247,-130,-321,36,65
2280,0,-243,-133,-353,53,69
2285,3,-236,-133,-408,74,71
2290,0,-233,-130,-483,97,68
2295,0,-232,-128,-568,119,61
2300,0,-233,-125,-665,136,54
2305,0,-236,-118,-757,149,44
2310,-1,-240,-113,-840,155,34
2315,-1,-244,-107,-902,156,24
2320,-2,-254,-104,-942,150,13
2325,-4,-256,-101,-954,142,3
2330,-4,-265,-98,-942,130,-7
2335,-5,-271,-97,-903,118,-14
2340,-7,-275,-100,-840,106,-19
2345,-7,-278,-99,-753,98,-23
2350,-11,-277,-107,-652,90,-23
2355,-12,-273,-114,-547,77,-20
2360,-9,-270,-115,-443,62,-7
2365,-10,-264,-126,-352,44,11
2370,-8,-260,-130,-268,34,31
2375,-6,-252,-132,-187,33,53
2380,-6,-244,-135,-122,40,73
2385,-2,-239,-142,-67,50,95
2390,1,-232,-143,-25,60,108
2395,3,-229,-149,0,72,120
2400,6,-221,-151,0,87,129
2405,9,-221,-151,-26,100,135
2410,9,-221,-153,-70,112,133
2415,7,-216,-149,-122,117,127
2420,10,-217,-148,-188,119,120
2425,9,-218,-149,-261,119,111
2430,6,-217,-149,-346,117,99
2435,6,-222,-148,-428,115,86
2440,3,-223,-139,-508,111,73
2445,3,-228,-136,-577,105,60
2450,1,-232,-136,-633,100,46
2455,0,-243,-137,-670,94,33
2460,0,-247,-135,-689,90,23
2465,-4,-250,-133,-687,86,15
2470,-8,-256,-129,-670,82,6
2475,-11,-260,-128,-630,79,-4
2480,-10,-263,-129,-573,75,-10
2485,-13,-268,-125,-494,76,-12
2490,-12,-267,-128,-393,75,-14
2495,-10,-270,-127,-272,74,-13
2500,-6,-268,-128,-143,72,-7
2505,-5,-268,-126,-2,75,1
2510,-2,-263,-130,150,76,13
2515,0,-258,-128,299,79,41
2520,2,-256,-133,443,85,63
2525,0,-244,-137,563,89,78
2530,3,-237,-141,645,95,92
2535,2,-223,-153,660,97,103
2540,2,-216,-161,605,96,114
2545,5,-208,-169,490,95,119
2550,6,-205,-174,325,93,112
2555,4,-203,-174,136,95,106
2560,5,-207,-173,-50,102,105
2565,3,-209,-168,-224,107,91
2570,2,-213,-162,-381,111,77
2575,1,-221,-159,-512,119,71
2580,1,-234,-148,-616,121,67
2585,2,-248,-141,-688,118,55
2590,1,-253,-132,-716,110,32
2595,1,-263,-127,-706,104,14
2600,0,-274,-124,-661,89,-1
2605,-1,-282,-115,-593,71,-16
2610,0,-281,-110,-487,66,-28
2615,0,-286,-108,-365,56,-37
2620,-1,-281,-110,-245,46,-45
2625,-8,-269,-111,-134,31,-38
2630,0,-266,-118,-16,19,-24
2635,-5,-256,-123,98,11,-22
2640,-1,-252,-132,193,11,-11
2645,-8,-244,-137,263,18,-6
2650,-8,-239,-145,310,21,14
2655,-7,-233,-150,318,23,29
2660,-5,-227,-153,304,24,44
2665,-8,-228,-159,289,25,60
2670,-5,-229,-164,256,25,80
2675,-6,-223,-156,219,29,91
2680,-6,-239,-170,166,24,100
2685,-6,-246,-166,98,13,99
2690,0,-257,-167,18,-4,104
2695,-2,-260,-161,-37,-3,71
2700,-5,-262,-155,-109,-1,44
2705,0,-261,-143,-204,-13,26
2710,3,-263,-143,-270,-12,-6
2715,-1,-258,-121,-320,-11,-32
2720,4,-259,-112,-334,-10,-33
2725,5,-263,-106,-315,-9,-40
2730,-2,-257,-94,-262,-3,-60
2735,1,-259,-98,-192,0,-60
2740,3,-260,-103,-119,0,-62
2745,3,-264,-107,-37,-1,-54
2750,4,-267,-115,45,-2,-57
2755,0,-262,-122,115,10,-69
2760,0,-262,-137,173,24,-71
2765,0,-253,-143,186,35,-73
2770,-1,-254,-152,162,39,-61
2775,0,-250,-155,121,43,-50
2780,-9,-249,-161,80,52,-58
2785,-9,-249,-161,49,71,-54
2790,-1,-250,-163,16,85,-55
2795,-9,-237,-156,-24,97,-68
2800,-3,-255,-160,-78,99,-49
2805,-5,-246,-152,-144,94,-46
2810,0,-258,-156,-193,93,-45
2815,3,-258,-149,-249,81,-58
2820,-2,-256,-142,-303,73,-70
2825,-19,-244,-136,-351,66,-69
2830,-10,-247,-135,-380,52,-38
2835,-7,-259,-128,-390,44,-44
2840,-14,-255,-118,-362,48,-49
2845,-2,-278,-138,-300,60,-34
2850,-8,-271,-143,-306,66,-36
2855,-10,-262,-141,-293,95,-51
2860,-21,-250,-145,-287,119,-44
2865,-10,-255,-146,-305,128,-5
2870,-8,-248,-143,-343,125,22
2875,-4,-248,-146,-365,125,44
2880,-3,-266,-160,-355,122,71
2885,5,-260,-157,-376,106,95
2890,6,-258,-158,-415,89,75
2895,1,-250,-152,-452,88,55
2900,0,-245,-148,-483,87,45
2905,1,-242,-143,-516,85,31
2910,-7,-236,-141,-542,83,19
2915,-2,-241,-142,-550,82,12
2920,2,-248,-139,-543,80,3
2925,4,-254,-135,-528,80,0
2930,2,-257,-140,-525,79,-23
2935,2,-256,-140,-531,77,-49
2940,0,-251,-139,-527,84,-70
2945,2,-247,-139,-509,97,-76
2950,1,-244,-138,-476,107,-81
2955,-3,-241,-140,-446,109,-76
2960,-1,-252,-148,-431,106,-76
2965,-7,-245,-149,-414,106,-87
2970,-35,-215,-144,-369,111,-87
2975,0,-252,-159,-351,98,-39
2980,0,-239,-159,-390,78,-54
2985,-8,-234,-157,-418,79,-60
2990,-4,-234,-155,-426,85,-47
2995,-7,-225,-154,-441,85,-28
3000,-2,-228,-155,-456,86,-6
3005,-6,-225,-153,-481,88,9
3010,-3,-229,-154,-500,97,23
3015,0,-231,-150,-502,106,33
3020,-2,-232,-146,-486,106,39
3025,0,-231,-155,-463,100,43
3030,0,-233,-160,-447,95,46
3035,0,-225,-161,-443,88,51
3040,-2,-228,-165,-438,84,53
3045,-3,-235,-169,-434,83,50
3050,-4,-234,-175,-438,82,45
3055,-5,-233,-178,-443,78,42
3060,-1,-232,-178,-451,74,47
3065,0,-237,-183,-458,72,52
3070,0,-228,-174,-471,71,48
3075,-1,-224,-169,-481,72,49
3080,-3,-221,-164,-479,71,56
3085,-3,-217,-161,-461,66,61
3090,-2,-219,-157,-432,63,61
3095,0,-221,-159,-399,68,61
3100,-2,-217,-164,-373,75,59
3105,-2,-221,-169,-358,85,58
3110,-2,-227,-169,-352,97,56
3115,-1,-229,-174,-347,107,55
3120,-4,-226,-175,-341,111,61
3125,0,-232,-169,-331,110,71
3130,0,-229,-170,-314,108,83
3135,2,-230,-173,-293,109,92
3140,1,-222,-173,-278,107,104
3145,1,-223,-171,-276,102,113
3150,0,-221,-171,-272,99,116
3155,-1,-226,-174,-262,100,116
3160,-3,-225,-176,-253,102,111
3165,-3,-226,-183,-249,104,107
3170,-7,-226,-186,-251,106,98
3175,-15,-228,-182,-256,108,93
3180,-15,-227,-184,-261,108,93
3185,-15,-223,-186,-259,109,99
3190,-13,-224,-186,-256,109,109
3195,-12,-226,-189,-252,113,118
3200,-13,-224,-187,-253,117,126
3205,-6,-225,-185,-259,116,133
3210,-6,-222,-189,-267,114,142
3215,-7,-220,-186,-275,110,148
3220,-5,-220,-178,-279,106,154
3225,-5,-221,-180,-273,102,156
3230,-4,-222,-181,-269,97,156
3235,-1,-223,-175,-263,92,155
3240,-3,-225,-178,-254,88,153
3245,-6,-224,-178,-238,86,149
3250,-4,-222,-179,-217,86,144
3255,-4,-224,-182,-197,89,138
3260,-4,-223,-185,-183,94,131
3265,-6,-219,-182,-176,100,121
3270,-4,-213,-184,-171,99,116
3275,-13,-222,-176,-164,96,108
3280,-8,-211,-180,-164,89,103
3285,-6,-211,-179,-162,80,99
3290,-2,-207,-178,-157,74,95
3295,-2,-211,-178,-150,71,90
3300,-6,-214,-183,-140,72,83
3305,-3,-213,-186,-128,76,74
3310,-9,-213,-180,-117,80,67
3315,-13,-215,-184,-107,87,59
3320,-12,-218,-182,-94,95,51
3325,-12,-219,-186,-78,104,44
3330,-8,-213,-199,-68,104,39
3335,-12,-218,-187,-63,100,36
3340,-12,-217,-184,-62,89,35
3345,-9,-217,-181,-61,78,34
3350,-9,-211,-181,-54,66,32
3355,-11,-214,-182,-44,56,28
3360,-6,-210,-182,-36,54,25
3365,-9,-208,-184,-30,56,21
3370,-6,-207,-184,-25,58,18
3375,-5,-205,-187,-23,63,15
3380,-4,-204,-189,-20,67,16
3385,-3,-203,-190,-22,68,17
3390,-3,-210,-193,-26,67,19
3395,-1,-211,-187,-35,66,20
3400,-6,-211,-189,-42,61,17
3405,-5,-215,-186,-47,58,14
3410,-4,-215,-186,-46,54,9
3415,-5,-213,-188,-43,53,1
3420,-5,-211,-187,-33,56,-6
3425,-10,-208,-190,-29,63,-13
3430,-7,-210,-194,-34,68,-14
3435,-10,-213,-195,-47,74,-17
3440,-5,-210,-200,-70,78,-18
3445,-9,-213,-200,-96,80,-16
3450,-10,-215,-198,-119,77,-12
3455,-6,-216,-192,-136,73,-7
3460,-7,-219,-191,-145,71,-1
3465,-9,-217,-185,-143,69,4
3470,-9,-215,-188,-140,68,8
3475,-1,-216,-190,-142,69,10
3480,-5,-214,-194,-145,74,13
3485,-5,-208,-197,-154,83,13
3490,0,-213,-195,-165,92,15
3495,-3,-215,-196,-179,98,15
3500,0,-216,-193,-191,103,17
3505,-1,-213,-188,-202,106,19
3510,-1,-213,-191,-200,105,19
3515,-1,-215,-189,-194,101,20
3520,-1,-211,-188,-191,94,20
3525,-3,-205,-188,-190,82,20
3530,-5,-209,-188,-192,73,22
3535,-7,-208,-184,-195,67,20
3540,-5,-210,-187,-193,67,19
3545,-4,-212,-182,-189,65,13
3550,-6,-216,-177,-180,63,7
3555,-7,-218,-183,-160,64,-1
3560,-2,-213,-185,-142,64,-6
3565,-4,-213,-188,-127,63,-9
3570,0,-211,-187,-111,62,-11
3575,0,-210,-186,-101,63,-10
3580,1,-212,-186,-96,63,-9
3585,-3,-214,-189,-96,66,-7
3590,-4,-215,-189,-92,64,-7
3595,-4,-213,-187,-83,60,-10
3600,-2,-214,-186,-69,55,-13
3605,0,-213,-189,-52,51,-15
3610,-3,-210,-191,-40,51,-16
3615,-4,-209,-190,-37,50,-17
3620,-4,-205,-191,-42,47,-17
3625,-3,-205,-188,-53,44,-18
3630,0,-204,-189,-64,39,-16
3635,0,-205,-193,-75,36,-15
3640,-2,-208,-193,-80,32,-14
3645,0,-206,-189,-82,31,-14
3650,-3,-210,-189,-85,29,-15
3655,-2,-212,-187,-80,28,-17
3660,0,-213,-189,-75,30,-20
3665,1,-214,-189,-70,32,-21
3670,0,-214,-188,-66,32,-22
3675,0,-213,-190,-60,29,-21
3680,-2,-213,-185,-53,24,-22
3685,0,-213,-192,-48,21,-24
3690,0,-210,-188,-41,18,-26
3695,-4,-208,-185,-35,17,-29
3700,-1,-211,-187,-30,16,-32
3705,-1,-208,-188,-27,16,-33
3710,0,-207,-189,-27,16,-35
3715,0,-205,-187,-27,13,-34
3720,0,-206,-188,-26,10,-33
3725,0,-212,-187,-22,6,-30
3730,0,-209,-183,-23,3,-28
3735,1,-210,-188,-20,-1,-26
3740,0,-206,-189,-19,-4,-25
3745,-4,-209,-194,-25,-5,-27
3750,0,-210,-193,-35,-2,-29
3755,0,-213,-192,-47,-1,-32
3760,-1,-214,-190,-55,0,-38
3765,-1,-214,-190,-55,0,-40
3770,0,-213,-189,-51,0,-44
3775,0,-215,-189,-47,0,-45
3780,0,-213,-186,-42,-1,-44
3785,-2,-211,-193,-37,-1,-43
3790,0,-214,-189,-35,1,-43
3795,-1,-214,-191,-37,-1,-41
3800,1,-213,-192,-40,1,-43
3805,1,-217,-186,-40,3,-45
3810,0,-215,-186,-37,7,-47
3815,2,-216,-190,-30,10,-47
3820,2,-216,-187,-23,16,-48
3825,0,-216,-191,-14,19,-48
3830,0,-215,-194,-12,18,-48
3835,-1,-215,-194,-15,15,-48
3840,0,-214,-191,-19,11,-48
3845,-2,-219,-191,-25,8,-45
3850,-2,-213,-195,-29,7,-43
3855,-6,-207,-191,-32,7,-40
3860,-3,-213,-190,-35,5,-33
3865,-5,-209,-191,-38,5,-30
3870,0,-214,-189,-42,4,-23
3875,0,-212,-188,-41,4,-19
3880,-1,-209,-188,-39,4,-15
3885,-2,-208,-187,-42,6,-11
3890,-1,-208,-189,-47,8,-10
3895,0,-209,-190,-54,11,-10
3900,0,-211,-187,-62,13,-9
3905,1,-210,-191,-66,16,-12
3910,0,-213,-190,-68,16,-13
3915,0,-211,-189,-65,16,-12
3920,0,-211,-190,-63,16,-11
3925,-2,-211,-192,-60,16,-9
3930,0,-212,-190,-60,15,-8
3935,2,-214,-190,-62,14,-8
3940,1,-207,-192,-66,13,-7
3945,1,-207,-189,-67,12,-7
3950,2,-210,-187,-69,11,-7
3955,4,-209,-191,-67,10,-4
3960,1,-213,-185,-64,10,-4
3965,0,-209,-188,-61,11,-6
3970,0,-214,-186,-55,12,-5
3975,0,-212,-187,-48,16,-8
3980,-2,-214,-186,-42,17,-11
3985,-7,-211,-193,-39,17,-11
3990,0,-214,-193,-38,16,-12
3995,0,-217,-191,-37,14,-14
4000,-2,-213,-190,-33,11,-17
4005,0,-213,-187,-34,8,-20
4010,0,-215,-188,-31,7,-22
4015,-1,-216,-186,-29,7,-23
4020,1,-214,-185,-22,7,-24
4025,0,-211,-189,-15,6,-25
4030,0,-213,-190,-9,7,-26
4035,1,-211,-189,-5,4,-23
4040,1,-225,-186,-3,3,-22
4045,3,-217,-191,-3,2,-22
4050,0,-214,-194,-8,3,-21
4055,0,-216,-191,-16,5,-22
4060,-2,-214,-193,-23,5,-22
4065,0,-215,-189,-22,5,-21
4070,-2,-215,-184,-17,8,-19
4075,0,-213,-187,-9,9,-16
4080,3,-214,-189,-7,8,-10
4085,0,-210,-189,-5,7,-7
4090,1,-210,-187,-5,5,-4
4095,-1,-212,-189,-6,4,-3
4100,2,-214,-191,-8,3,-2
4105,0,-210,-186,-7,3,-3
4110,1,-209,-192,-5,4,-3
4115,0,-207,-191,-6,6,-4
4120,1,-208,-192,-9,9,-6
4125,-1,-210,-192,-12,11,-8
4130,0,-208,-191,-19,10,-8
4135,-2,-208,-191,-25,8,-9
4140,0,-211,-189,-32,7,-5
4145,0,-209,-188,-39,6,-5
4150,0,-210,-190,-45,4,-4
4155,-2,-209,-192,-49,5,-3
4160,0,-209,-190,-52,5,-3
4165,0,-210,-188,-57,8,-2
4170,0,-209,-188,-61,10,-2
4175,0,-211,-189,-65,10,0
4180,0,-210,-187,-69,10,4
4185,0,-210,-186,-74,9,6
4190,1,-211,-187,-73,7,8
4195,0,-212,-187,-70,7,6
4200,1,-215,-184,-66,6,6
4205,0,-210,-189,-60,7,3
4210,1,-214,-190,-56,9,1
4215,1,-214,-189,-50,12,-2
4220,0,-214,-189,-47,16,-5
4225,0,-216,-191,-44,19,-6
4230,-2,-218,-191,-41,20,-7
4235,-4,-213,-187,-42,19,-6
4240,-1,-220,-188,-42,15,-5
4245,-3,-215,-188,-46,13,-6
4250,-2,-216,-190,-47,13,-5
4255,-1,-214,-188,-50,15,-3
4260,-4,-212,-188,-51,16,-2
4265,0,-216,-187,-52,18,1
4270,0,-212,-186,-52,20,3
4275,-1,-216,-188,-52,21,4
4280,-1,-215,-187,-45,23,7
4285,-2,-215,-190,-42,23,9
4290,0,-211,-190,-39,22,9
4295,0,-208,-189,-41,20,11
4300,-2,-211,-190,-47,22,14
4305,-2,-209,-193,-55,22,15
4310,-1,-210,-189,-61,25,18
4315,0,-212,-186,-67,27,21
4320,0,-215,-187,-65,31,22
4325,-1,-215,-187,-61,35,23
4330,-2,-215,-189,-57,37,26
4335,-4,-212,-189,-48,36,28
4340,-2,-215,-188,-42,35,29
4345,-2,-213,-191,-37,32,28
4350,0,-219,-192,-38,31,26
4355,-1,-215,-191,-42,31,25
4360,0,-215,-191,-47,31,24
4365,-3,-211,-185,-54,32,24
4370,0,-216,-190,-59,34,25
4375,0,-212,-191,-61,36,26
4380,-1,-214,-188,-62,36,27
4385,1,-213,-188,-63,37,25
4390,-2,-210,-185,-62,39,24
4395,0,-216,-186,-59,39,22
4400,-2,-213,-188,-55,40,19
4405,-3,-213,-191,-53,41,16
4410,-2,-214,-184,-48,42,12
4415,-3,-212,-186,-44,43,12
4420,-4,-211,-187,-37,45,11
4425,-2,-212,-191,-30,45,12
4430,-4,-210,-190,-26,47,12
4435,-6,-209,-189,-27,47,13
4440,-3,-209,-189,-28,48,15
4445,-3,-210,-190,-30,50,16
4450,-3,-212,-189,-31,50,18
4455,-6,-212,-191,-34,50,18
4460,-7,-212,-191,-39,49,19
4465,-3,-210,-188,-46,49,20
4470,-4,-210,-191,-54,48,20
4475,0,-216,-191,-61,49,19
4480,-3,-210,-188,-64,49,19
4485,-4,-212,-186,-66,49,18
4490,-1,-213,-186,-66,50,19
4495,-4,-212,-189,-67,50,21
4500,-3,-211,-190,-63,50,22
4505,0,-211,-183,-61,52,24
4510,0,-211,-185,-56,52,26
4515,-2,-212,-189,-52,51,28
4520,-1,-213,-186,-49,50,30
4525,-2,-214,-187,-49,51,30
4530,-1,-211,-189,-50,51,31
4535,1,-213,-191,-50,50,29
4540,-1,-214,-192,-49,48,28
4545,-1,-215,-188,-46,51,25
4550,-1,-214,-188,-43,51,23
4555,-1,-213,-188,-39,52,20
4560,-4,-216,-193,-35,51,17
4565,-3,-215,-189,-32,52,15
4570,-5,-218,-190,-32,53,13
4575,-4,-214,-190,-30,54,11
4580,-4,-217,-188,-31,54,10
4585,-2,-213,-190,-31,54,10
4590,-3,-218,-189,-28,55,13
4595,-4,-215,-186,-25,57,15
4600,-3,-213,-184,-22,56,15
4605,-3,-213,-186,-20,54,18
4610,-2,-215,-187,-18,54,22
4615,-2,-212,-190,-17,53,24
4620,-3,-212,-191,-18,53,27
4625,-1,-215,-189,-20,52,30
4630,-1,-212,-193,-21,52,30
4635,-1,-203,-201,-25,53,29
4640,0,-213,-189,-29,53,29
4645,-3,-215,-190,-33,54,29
4650,-1,-211,-188,-33,54,27
4655,-2,-214,-186,-28,52,28
4660,-3,-214,-186,-24,51,27
4665,0,-213,-188,-19,50,27
4670,-3,-212,-189,-18,50,28
4675,-2,-214,-186,-15,47,27
4680,0,-211,-190,-13,46,27
4685,-1,-213,-190,-16,47,26
4690,-2,-213,-184,-21,43,25
4695,-1,-210,-188,-22,42,20
4700,-3,-214,-185,-22,43,17
4705,-2,-216,-186,-21,45,14
4710,-3,-215,-185,-19,48,13
4715,-2,-213,-187,-18,49,10
4720,-6,-216,-187,-22,51,9
4725,-2,-215,-187,-28,49,9
4730,-2,-211,-188,-31,46,9
4735,-4,-211,-186,-31,42,11
4740,-5,-211,-185,-33,38,11
4745,-4,-211,-186,-34,33,12
4750,-2,-212,-183,-37,29,11
4755,-2,-213,-189,-36,27,11
4760,0,-216,-184,-38,29,11
4765,-6,-213,-187,-36,32,12
4770,-1,-213,-182,-34,34,11
4775,0,-216,-185,-32,35,12
4780,-2,-215,-185,-28,35,15
4785,-2,-218,-185,-24,34,17
4790,-4,-214,-188,-22,32,22
4795,0,-216,-186,-19,27,23
4800,0,-214,-184,-19,23,25
4805,0,-215,-187,-20,21,26
4810,-1,-215,-188,-22,18,27
4815,0,-215,-189,-25,16,25
4820,-2,-213,-188,-28,15,23
4825,-2,-214,-190,-32,16,21
4830,-2,-212,-188,-34,18,18
4835,0,-215,-184,-33,20,12
4840,-4,-213,-183,-35,21,7
4845,-2,-216,-187,-35,24,1
4850,-5,-214,-187,-35,27,-3
4855,-2,-216,-187,-34,29,-9
4860,-5,-217,-186,-35,29,-12
4865,-5,-217,-189,-37,30,-15
4870,0,-217,-185,-34,31,-18
4875,0,-216,-188,-31,32,-20
4880,0,-215,-188,-28,33,-23
4885,-1,-217,-188,-29,33,-22
4890,1,-214,-187,-31,33,-22
4895,-2,-215,-189,-33,32,-22
4900,-5,-211,-187,-33,30,-19
4905,-2,-215,-189,-30,26,-19
4910,-6,-216,-184,-32,24,-17
4915,-4,-215,-187,-39,22,-16
4920,-5,-211,-185,-41,22,-14
4925,-2,-215,-183,-38,20,-13
4930,-1,-218,-185,-33,19,-10
4935,-2,-215,-183,-26,18,-6
4940,-3,-217,-188,-19,17,-2
4945,-5,-215,-188,-14,15,0
4950,-6,-215,-188,-10,14,2
4955,-3,-217,-189,-8,15,4
4960,-8,-216,-188,-6,15,6
4965,-1,-213,-187,-6,14,6
4970,0,-215,-189,-5,12,8
4975,0,-213,-191,-6,11,11
4980,2,-212,-189,-7,10,10
4985,0,-212,-190,-12,7,13
4990,0,-210,-188,-14,5,12
4995,1,-216,-190,-20,6,10
5000,0,-215,-191,-21,8,7
5005,-1,-214,-187,-20,10,5
5010,0,-212,-188,-17,10,1
5015,-3,-214,-187,-12,10,-2
5020,0,-217,-188,-11,12,-6
5025,-1,-215,-189,-9,10,-8
5030,-2,-216,-189,-4,11,-9
5035,-2,-217,-187,0,10,-9
5040,-2,-217,-190,6,9,-10
5045,-1,-213,-188,10,8,-10
5050,-4,-213,-190,12,6,-10
5055,-2,-218,-191,13,7,-8
5060,-7,-217,-189,15,8,-8
5065,-5,-217,-188,20,7,-8
5070,-3,-220,-188,26,6,-6
5075,-3,-216,-188,33,7,-6
5080,-2,-217,-188,37,9,-5
5085,-1,-218,-188,41,11,-5
5090,-1,-220,-186,45,13,-3
5095,-2,-219,-184,54,13,-5
5100,-3,-214,-185,66,12,-6
5105,0,-216,-185,74,12,-5
5110,-2,-213,-188,78,11,-7
5115,-5,-215,-185,77,10,-5
5120,-1,-214,-186,77,10,-7
5125,-2,-214,-187,80,8,-7
5130,-5,-216,-182,89,9,-7
5135,-3,-217,-186,103,10,-7
5140,-5,-219,-186,117,10,-6
5145,-4,-216,-187,125,11,-7
5150,-3,-215,-189,126,12,-6
5155,-4,-216,-188,120,11,-3
5160,-7,-214,-190,112,8,-1
5165,-2,-219,-187,105,9,1
5170,-1,-219,-183,102,9,2
5175,-3,-216,-181,104,9,1
5180,-1,-214,-180,109,13,-1
5185,-3,-218,-183,115,20,0
5190,-2,-216,-180,127,26,-2
5195,-2,-215,-183,137,32,-6
5200,-3,-217,-182,146,35,-6
5205,-3,-221,-182,154,36,-5
5210,-5,-220,-184,159,36,-6
5215,-3,-220,-183,163,35,-5
5220,-7,-219,-181,163,34,-6
5225,-4,-219,-183,159,34,-5
5230,-9,-218,-187,156,36,-3
5235,-6,-220,-179,152,35,-1
5240,-5,-222,-183,150,36,0
5245,-4,-224,-183,152,36,1
5250,-4,-224,-178,157,36,4
5255,-3,-224,-182,161,34,6
5260,0,-223,-181,163,34,9
5265,0,-220,-178,165,34,10
5270,-3,-219,-178,164,34,12
5275,0,-221,-174,161,31,13
5280,-1,-221,-170,161,28,12
5285,0,-220,-171,165,23,10
5290,-7,-221,-172,173,21,8
5295,-1,-225,-172,185,23,2
5300,-3,-223,-170,198,24,-4
5305,-6,-224,-173,208,26,-10
5310,-3,-220,-176,217,30,-17
5315,-3,-220,-177,224,31,-25
5320,-5,-219,-175,225,32,-32
5325,-7,-224,-181,221,31,-34
5330,-4,-221,-181,215,32,-40
5335,-5,-225,-178,213,31,-42
5340,-5,-227,-174,211,31,-43
5345,-1,-221,-190,213,31,-42
5350,-5,-229,-173,215,35,-41
5355,-2,-229,-169,220,37,-40
5360,0,-238,-174,228,41,-38
5365,-4,-234,-173,240,45,-39
5370,-1,-240,-171,257,47,-36
5375,-2,-243,-166,279,46,-34
5380,-4,-240,-167,303,42,-33
5385,-5,-237,-168,324,38,-31
5390,0,-237,-170,340,34,-29
5395,1,-235,-163,351,31,-28
5400,0,-228,-162,354,29,-30
5405,1,-234,-163,354,26,-34
5410,0,-230,-161,357,24,-37
5415,0,-233,-160,366,25,-44
5420,0,-231,-161,377,24,-49
5425,0,-235,-162,389,25,-54
5430,-2,-232,-161,402,27,-58
5435,-5,-229,-160,416,27,-59
5440,-1,-233,-165,425,27,-61
5445,-4,-231,-167,429,24,-61
5450,-2,-229,-164,430,21,-60
5455,-3,-233,-165,428,17,-57
5460,-4,-234,-162,425,14,-53
5465,-2,-232,-163,418,10,-50
5470,-6,-229,-165,409,5,-45
5475,0,-231,-162,396,-1,-41
5480,0,-231,-165,382,-5,-37
5485,-1,-233,-163,371,-5,-34
5490,1,-232,-160,364,-5,-29
5495,3,-237,-158,357,-5,-28
5500,1,-236,-153,353,-4,-26
5505,1,-237,-147,351,-2,-26
5510,1,-240,-142,358,-1,-27
5515,0,-240,-141,374,1,-28
5520,0,-241,-139,391,4,-26
5525,2,-245,-136,412,4,-26
5530,2,-245,-138,434,8,-28
5535,3,-243,-130,458,8,-32
5540,1,-242,-141,480,10,-33
5545,1,-241,-137,498,9,-38
5550,0,-240,-141,511,10,-39
5555,0,-237,-144,517,7,-35
5560,3,-239,-145,522,1,-32
5565,2,-240,-146,524,-7,-32
5570,1,-244,-145,525,-14,-32
5575,1,-239,-147,523,-20,-30
5580,0,-241,-149,520,-24,-29
5585,0,-245,-149,513,-25,-30
5590,0,-245,-152,499,-27,-28
5595,0,-245,-146,484,-30,-26
5600,-5,-243,-150,467,-32,-22
5605,-5,-242,-145,451,-33,-16
5610,-4,-243,-147,434,-35,-9
5615,-7,-243,-143,416,-36,-3
5620,-5,-245,-138,399,-36,3
5625,-5,-243,-137,384,-37,7
5630,-2,-248,-136,373,-36,11
5635,-2,-250,-132,371,-34,10
5640,-3,-249,-126,378,-30,11
5645,-3,-248,-126,386,-28,14
5650,-2,-246,-131,396,-25,16
5655,-2,-244,-126,402,-24,20
5660,0,-241,-128,400,-24,22
5665,3,-242,-125,396,-24,23
5670,2,-240,-126,389,-26,27
5675,5,-240,-124,383,-30,30
5680,6,-237,-122,376,-33,32
5685,2,-234,-124,368,-36,36
5690,3,-237,-122,360,-38,38
5695,3,-240,-124,353,-37,39
5700,3,-241,-124,346,-37,41
5705,3,-244,-125,341,-35,43
5710,2,-246,-126,333,-36,45
5715,0,-247,-124,321,-35,46
5720,1,-251,-128,308,-35,46
5725,-1,-249,-127,295,-36,46
5730,0,-249,-127,279,-36,43
5735,-3,-248,-129,266,-36,41
5740,1,-253,-126,254,-37,36
5745,-4,-252,-124,248,-36,31
5750,-1,-252,-124,245,-36,23
5755,-1,-248,-126,241,-36,15
5760,0,-254,-124,236,-37,6
5765,1,-253,-122,230,-37,-3
5770,1,-253,-124,225,-36,-10
5775,1,-253,-119,224,-35,-16
5780,3,-256,-115,223,-32,-18
5785,2,-256,-116,224,-29,-18
5790,4,-254,-116,224,-26,-17
5795,6,-253,-114,223,-24,-14
5800,5,-252,-113,227,-23,-10
5805,3,-251,-113,231,-22,-7
5810,0,-254,-110,237,-26,-4
5815,1,-256,-117,244,-30,1
5820,0,-256,-112,253,-33,3
5825,0,-254,-116,262,-37,6
5830,-4,-256,-120,268,-40,8
5835,-4,-259,-118,268,-42,9
5840,-4,-261,-118,264,-45,9
5845,-9,-259,-118,256,-48,7
5850,-8,-261,-111,246,-53,4
5855,-8,-260,-113,237,-58,1
5860,-10,-257,-111,228,-63,0
5865,-10,-259,-105,223,-68,-1
5870,-11,-254,-107,219,-71,-2
5875,-9,-253,-105,222,-75,-4
5880,-2,-250,-101,225,-76,-3
5885,-1,-251,-101,232,-77,-1
5890,0,-246,-98,242,-76,2
5895,1,-249,-102,248,-77,4
5900,2,-250,-103,254,-73,9
5905,2,-250,-103,255,-73,13
5910,5,-250,-108,253,-73,17
5915,3,-252,-109,247,-72,22
5920,3,-255,-110,236,-72,29
5925,2,-255,-110,219,-71,37
5930,0,-259,-112,197,-71,43
5935,0,-261,-108,177,-72,47
5940,0,-265,-111,156,-75,50
5945,-1,-261,-111,138,-77,49
5950,0,-266,-110,128,-81,47
5955,0,-266,-108,122,-84,43
5960,-1,-268,-106,123,-86,36
5965,-2,-267,-103,128,-85,28
5970,-6,-268,-102,143,-81,18
5975,-11,-267,-99,172,-76,5
5980,-12,-268,-98,204,-71,-4
5985,-10,-265,-99,240,-67,-11
5990,-9,-262,-100,273,-64,-15
5995,-9,-256,-100,298,-64,-18
6000,-1,-252,-94,314,-63,-16
6005,-8,-251,-97,320,-62,-12
6010,-4,-247,-98,319,-64,-7
6015,-3,-245,-97,308,-64,0
6020,-6,-243,-94,296,-66,10
6025,-4,-245,-98,281,-69,19
6030,0,-248,-100,262,-72,29
6035,0,-251,-96,243,-76,35
6040,-4,-254,-96,224,-79,37
6045,-4,-256,-98,208,-83,38
6050,-6,-267,-84,192,-86,33
6055,-7,-263,-101,181,-88,29
6060,-9,-266,-96,173,-87,21
6065,-10,-268,-98,166,-85,12
6070,-11,-268,-96,165,-83,4
6075,-10,-270,-90,164,-83,-3
6080,-10,-268,-92,170,-85,-10
6085,-9,-265,-92,181,-86,-13
6090,-1,-266,-95,189,-88,-15
6095,-5,-262,-89,193,-90,-17
6100,-4,-261,-90,201,-94,-16
6105,-2,-258,-90,206,-96,-14
6110,-4,-258,-84,207,-98,-12
6115,0,-256,-87,209,-99,-7
6120,-2,-258,-84,211,-99,-4
6125,-6,-258,-81,215,-99,0
6130,-5,-260,-77,216,-99,1
6135,-5,-259,-80,219,-100,1
6140,-9,-262,-85,221,-102,1
6145,-10,-264,-81,225,-104,0
6150,-11,-266,-83,227,-110,0
6155,-13,-267,-89,227,-114,-2
6160,-14,-267,-85,226,-118,-4
6165,-14,-267,-89,225,-120,-4
6170,-11,-269,-87,228,-116,-4
6175,-14,-268,-87,234,-111,-2
6180,-13,-271,-81,245,-105,2
6185,-12,-266,-80,256,-98,3
6190,-11,-268,-81,270,-91,8
6195,-8,-268,-80,284,-83,11
6200,-3,-265,-76,297,-76,15
6205,-3,-268,-75,309,-69,15
6210,0,-266,-81,320,-67,18
6215,-1,-265,-76,328,-66,19
6220,-4,-262,-77,334,-66,17
6225,-2,-262,-80,337,-67,11
6230,-3,-261,-79,341,-69,5
6235,-1,-260,-79,338,-70,-1
6240,-4,-260,-76,334,-70,-5
6245,-6,-260,-76,331,-71,-13
6250,-7,-261,-74,325,-71,-18
6255,-4,-260,-76,321,-68,-25
6260,-5,-263,-76,318,-66,-29
6265,-7,-261,-73,308,-63,-30
6270,-8,-263,-71,306,-59,-30
6275,-7,-265,-70,307,-51,-30
6280,-10,-267,-71,307,-46,-29
6285,-8,-267,-69,309,-41,-27
6290,-7,-272,-71,314,-38,-24
6295,-9,-264,-65,312,-38,-24
6300,-8,-262,-67,325,-39,-20
6305,-7,-264,-71,345,-39,-14
6310,-7,-264,-69,366,-39,-9
6315,-6,-267,-75,377,-46,-7
6320,-8,-260,-66,375,-57,-11
6325,-7,-259,-68,384,-63,-16
6330,-6,-259,-66,392,-69,-11
6335,-2,-259,-67,391,-72,-9
6340,-6,-256,-69,377,-78,-10
6345,-6,-257,-65,373,-76,-12
6350,-6,-258,-69,364,-72,-12
6355,-6,-257,-64,349,-68,-11
6360,-8,-258,-66,338,-62,-14
6365,-4,-265,-66,323,-57,-20
6370,-5,-260,-62,306,-51,-26
6375,-8,-262,-63,309,-43,-33
6380,-5,-262,-62,314,-37,-38
6385,-3,-265,-62,321,-34,-45
6390,-12,-259,-59,322,-35,-60
6395,-7,-263,-60,331,-37,-56
6400,-4,-270,-64,340,-38,-51
6405,-6,-260,-62,329,-42,-52
6410,-8,-263,-61,332,-50,-55
6415,-5,-263,-62,332,-55,-56
6420,-6,-260,-61,330,-55,-58
6425,-6,-261,-61,325,-57,-56
6430,-6,-262,-60,322,-58,-55
6435,-5,-263,-63,316,-59,-50
6440,-2,-261,-56,302,-58,-56
6445,-4,-265,-56,280,-62,-48
6450,-7,-260,-50,268,-60,-35
6455,-1,-260,-55,273,-55,-20
6460,-2,-262,-51,283,-51,-15
6465,0,-262,-51,296,-51,-18
6470,-2,-265,-47,310,-53,-26
6475,-5,-264,-52,320,-57,-33
6480,-2,-262,-49,329,-58,-34
6485,-3,-261,-45,338,-59,-31
6490,0,-266,-53,342,-59,-42
6495,-10,-257,-48,342,-62,-59
6500,-5,-258,-51,349,-59,-57
6505,-7,-261,-48,357,-50,-46
6510,-9,-259,-48,361,-46,-41
6515,-8,-260,-45,361,-46,-35
6520,-8,-265,-50,355,-44,-29
6525,-7,-258,-43,334,-41,-36
6530,-8,-261,-43,326,-44,-41
6535,-6,-258,-45,321,-43,-41
6540,-10,-259,-48,319,-39,-38
6545,-8,-257,-42,322,-34,-39
6550,-6,-261,-43,322,-29,-40
6555,-6,-257,-37,312,-26,-44
6560,3,-267,-47,296,-20,-46
6565,-4,-256,-36,268,-15,-71
6570,0,-260,-38,260,-19,-78
6575,0,-258,-38,261,-18,-78
6580,0,-259,-39,268,-19,-81
6585,0,-259,-36,282,-23,-81
6590,-5,-264,-37,297,-28,-78
6595,3,-265,-33,299,-31,-66
6600,2,-262,-37,307,-40,-74
6605,8,-272,-39,326,-53,-93
6610,-2,-261,-36,333,-68,-124
6615,0,-259,-40,348,-74,-113
6620,-1,-260,-37,365,-73,-94
6625,0,-263,-46,372,-77,-83
6630,0,-260,-38,363,-78,-63
6635,1,-258,-41,356,-80,-67
6640,-2,-258,-34,346,-86,-80
6645,-3,-256,-37,344,-84,-93
6650,0,-255,-35,343,-76,-90
6655,-4,-257,-35,336,-69,-80
6660,-4,-257,-39,329,-59,-69
6665,-1,-255,-30,322,-47,-45
6670,0,-256,-30,321,-39,-44
6675,7,-266,-39,322,-41,-64
6680,1,-249,-26,300,-46,-119
6685,-5,-252,-30,294,-50,-124
6690,-2,-250,-27,295,-43,-98
6695,5,-254,-25,295,-40,-76
6700,10,-252,-34,282,-41,-64
6705,6,-248,-23,259,-42,-49
6710,9,-249,-26,252,-47,-64
6715,10,-250,-27,251,-60,-88
6720,7,-247,-28,236,-72,-122
6725,7,-244,-27,213,-76,-123
6730,10,-251,-22,189,-75,-103
6735,1,-248,-30,177,-70,-85
6740,7,-250,-28,168,-65,-59
6745,8,-253,-21,174,-60,-52
6750,6,-253,-21,186,-64,-61
6755,5,-245,-33,197,-67,-72
6760,4,-256,-22,214,-63,-76
6765,12,-267,-27,221,-58,-83
6770,0,-252,-17,193,-57,-126
6775,-4,-247,-16,192,-56,-110
6780,-1,-251,-14,201,-47,-67
6785,-3,-247,-11,201,-36,-39
6790,-9,-251,-13,197,-29,-24
6795,-3,-246,-20,180,-24,0
6800,1,-246,-10,166,-14,8
6805,3,-249,-11,155,-10,-8
6810,7,-246,-14,137,-9,-28
6815,0,-241,-11,102,-12,-52
6820,1,-239,-11,75,-12,-40
6825,6,-240,-7,49,-4,-16
6830,5,-238,-9,40,1,-2
6835,11,-239,-8,18,4,26
6840,12,-242,-4,5,4,20
6845,14,-241,-13,3,-3,-10
6850,11,-240,-12,-10,-9,-39
6855,12,-238,-13,-21,-15,-43
6860,12,-241,-15,-45,-18,-32
6865,11,-241,-18,-81,-19,-25
6870,12,-247,-16,-110,-23,-29
6875,5,-253,-19,-129,-29,-37
6880,7,-254,-20,-149,-34,-45
6885,5,-260,-20,-187,-38,-86
6890,-7,-253,-14,-224,-40,-115
6895,-4,-260,-16,-219,-33,-88
6900,-5,-265,-14,-194,-25,-58
6905,-2,-271,-11,-177,-14,-50
6910,-6,-274,-13,-149,-6,-56
6915,-9,-275,-6,-113,2,-61
6920,-7,-278,-13,-72,10,-65
6925,-6,-280,-11,-36,24,-50
6930,-3,-278,-15,9,30,-61
6935,-6,-278,-12,49,34,-74
6940,-12,-278,-12,80,36,-75
6945,-11,-280,-11,113,33,-70
6950,-7,-280,-14,144,28,-65
6955,-9,-278,-13,165,25,-60
6960,-7,-276,-10,181,20,-57
6965,-6,-275,-10,196,12,-51
6970,-9,-273,-13,217,-1,-49
6975,-5,-271,-19,239,-16,-49
6980,5,-278,-21,240,-22,-45
6985,-1,-267,-15,214,-21,-59
6990,-3,-259,-11,203,-22,-48
6995,2,-262,-9,220,-28,-26
7000,1,-259,-10,238,-39,-13
7005,3,-259,-13,261,-55,-8
7010,5,-256,-17,271,-65,-7
7015,4,-253,-17,268,-67,-6
7020,8,-254,-17,242,-61,4
7025,7,-250,-12,224,-62,4
7030,18,-266,-32,212,-66,-10
7035,4,-244,-16,160,-65,-79
7040,1,-244,-16,145,-61,-76
7045,9,-244,-20,170,-53,-35
7050,3,-246,-23,187,-40,-4
7055,15,-251,-23,175,-27,35
7060,16,-249,-21,175,-13,2
7065,13,-245,-22,177,-1,-34
7070,14,-248,-21,169,13,-43
7075,9,-245,-20,157,28,-43
7080,9,-247,-21,161,33,-49
7085,10,-244,-26,171,30,-61
7090,8,-247,-23,163,32,-64
7095,9,-244,-25,135,41,-64
7100,6,-247,-23,101,46,-61
7105,3,-250,-18,64,48,-57
7110,2,-248,-18,41,43,-52
7115,1,-252,-22,30,29,-47
7120,2,-255,-20,35,14,-43
7125,0,-257,-21,50,-1,-43
7130,1,-257,-24,54,-16,-58
7135,-2,-255,-28,50,-22,-64
7140,1,-256,-21,58,-19,-38
7145,2,-258,-17,74,-15,-21
7150,0,-257,-24,87,-17,-16
7155,4,-259,-20,98,-17,-17
7160,5,-261,-22,108,-19,-19
7165,4,-256,-21,113,-16,-21
7170,4,-256,-20,116,-14,-23
7175,6,-258,-23,119,-7,-28
7180,4,-258,-21,111,0,-32
7185,6,-256,-20,97,6,-35
7190,11,-259,-19,85,14,-41
7195,6,-258,-17,80,17,-50
7200,6,-259,-17,79,17,-59
7205,4,-257,-18,74,22,-59
7210,9,-260,-14,71,29,-60
7215,8,-258,-15,72,35,-65
7220,7,-255,-17,75,40,-74
7225,7,-253,-14,84,39,-78
7230,8,-254,-11,91,38,-83
7235,11,-253,-17,89,36,-87
7240,8,-252,-9,82,39,-91
7245,6,-251,-10,69,42,-94
7250,4,-252,-10,56,39,-95
7255,5,-254,-12,28,38,-73
7260,7,-256,-13,13,35,-74
7265,3,-254,-11,5,22,-90
7270,0,-254,-9,-3,13,-90
7275,4,-258,-1,-6,11,-84
7280,1,-258,-4,-4,11,-77
7285,1,-257,-2,2,12,-68
7290,4,-258,-6,11,12,-58
7295,6,-259,-1,22,11,-49
7300,8,-261,1,34,11,-41
7305,9,-265,-1,51,10,-33
7310,7,-257,-4,65,11,-28
7315,6,-257,-4,80,12,-23
7320,9,-257,0,91,16,-22
7325,14,-255,-1,98,20,-21
7330,14,-255,0,99,23,-21
7335,14,-256,-2,94,23,-22
7340,15,-254,-2,86,20,-29
7345,16,-255,-1,74,18,-36
7350,11,-255,-17,42,16,-76
7355,5,-247,-2,-13,8,-134
7360,7,-253,0,-18,17,-94
7365,15,-259,0,-8,27,-54
7370,9,-263,1,-4,25,-48
7375,5,-266,2,1,19,-50
7380,6,-270,0,11,15,-48
7385,4,-273,1,26,8,-46
7390,4,-271,0,42,1,-41
7395,4,-276,-3,61,-4,-37
7400,5,-274,-1,83,-5,-32
7405,8,-278,13,102,-2,-27
7410,4,-268,-3,125,3,-23
7415,3,-263,-2,147,7,-20
7420,2,-259,0,166,8,-18
7425,9,-257,0,178,8,-14
7430,6,-253,0,184,7,-11
7435,8,-252,4,181,8,-9
7440,8,-250,1,175,10,-7
7445,7,-249,2,166,13,-6
7450,8,-248,1,155,15,-6
7455,9,-247,1,143,19,-8
7460,19,-249,10,133,23,-10
7465,14,-249,4,122,27,-13
7470,14,-254,6,114,32,-16
7475,14,-254,6,111,35,-18
7480,17,-257,12,111,34,-22
7485,8,-253,7,116,32,-23
7490,14,-252,5,121,28,-23
7495,16,-255,9,128,27,-22
7500,12,-249,8,132,26,-20
7505,16,-252,6,130,28,-20
7510,19,-249,7,120,32,-22
7515,15,-247,2,105,36,-24
7520,17,-248,3,83,41,-25
7525,16,-243,4,58,45,-25
7530,14,-245,9,31,50,-26
7535,11,-242,2,4,54,-28
7540,12,-245,3,-20,57,-28
7545,11,-244,3,-41,61,-29
7550,9,-243,8,-58,66,-30
7555,11,-246,9,-72,70,-32
7560,8,-245,4,-84,72,-32
7565,8,-242,4,-92,73,-33
7570,5,-244,8,-101,75,-37
7575,5,-244,4,-109,78,-40
7580,7,-248,5,-116,80,-43
7585,4,-248,4,-123,83,-45
7590,6,-248,3,-129,84,-47
7595,8,-246,3,-135,84,-47
7600,4,-250,3,-143,83,-44
7605,4,-250,1,-150,80,-41
7610,5,-250,6,-159,75,-37
7615,2,-253,2,-169,67,-35
7620,3,-252,3,-174,56,-33
7625,0,-253,4,-184,47,-28
7630,3,-254,5,-204,44,-16
7635,2,-256,8,-216,40,-9
7640,4,-256,3,-218,35,0
7645,2,-256,5,-209,24,7
7650,4,-258,3,-199,12,13
7655,1,-256,3,-185,3,18
7660,3,-256,8,-175,-5,24
7665,5,-259,3,-167,-11,27
7670,4,-259,2,-167,-15,32
7675,3,-259,2,-170,-20,35
7680,8,-261,1,-174,-24,37
7685,5,-263,0,-178,-27,39
7690,6,-265,0,-180,-28,38
7695,9,-271,2,-177,-28,38
7700,8,-272,0,-168,-27,36
7705,8,-272,-1,-153,-28,34
7710,8,-272,2,-133,-29,33
7715,10,-272,-1,-114,-32,32
7720,14,-274,-1,-93,-36,31
7725,9,-268,-1,-76,-43,28
7730,9,-266,-5,-61,-49,27
7735,10,-265,-2,-49,-53,25
7740,11,-263,-3,-39,-58,23
7745,12,-268,-2,-31,-58,21
7750,10,-261,-2,-27,-58,21
7755,10,-254,-1,-25,-57,20
7760,10,-252,0,-26,-53,19
7765,9,-250,0,-30,-50,20
7770,9,-249,0,-39,-48,20
7775,9,-247,-2,-50,-48,23
7780,10,-250,2,-65,-46,27
7785,10,-247,0,-81,-47,32
7790,13,-249,0,-98,-46,37
7795,11,-252,0,-116,-48,41
7800,14,-251,0,-131,-49,46
7805,13,-254,-1,-140,-50,51
7810,16,-256,-4,-150,-50,53
7815,16,-259,-1,-150,-47,55
7820,14,-259,-4,-152,-45,52
7825,15,-264,-2,-148,-40,48
7830,17,-263,-5,-140,-36,43
7835,15,-262,-4,-131,-30,37
7840,15,-264,-4,-124,-25,30
7845,16,-268,-3,-113,-17,21
7850,14,-264,-4,-101,-10,13
7855,13,-267,-2,-85,0,5
7860,17,-268,-1,-68,10,-2
7865,14,-263,-4,-52,21,-8
7870,13,-263,0,-40,30,-15
7875,12,-258,0,-32,37,-21
7880,16,-258,-3,-28,46,-25
7885,13,-256,4,-29,54,-28
7890,14,-254,4,-37,62,-30
7895,13,-256,1,-46,67,-31
7900,13,-254,3,-58,71,-32
7905,15,-255,3,-69,72,-32
7910,11,-251,0,-79,74,-31
7915,12,-252,0,-85,74,-27
7920,15,-256,2,-91,77,-26
7925,13,-257,1,-96,79,-23
7930,12,-258,2,-98,82,-20
7935,10,-255,-3,-103,84,-18
7940,11,-261,-2,-104,85,-16
7945,13,-259,-7,-106,86,-15
7950,8,-265,-5,-106,88,-14
7955,11,-264,-7,-103,90,-15
7960,11,-267,-2,-101,92,-16
7965,7,-267,-5,-97,94,-18
7970,8,-264,-5,-90,94,-19
7975,5,-263,-3,-82,97,-21
7980,8,-264,-7,-73,99,-23
7985,5,-265,-2,-61,100,-25
7990,3,-263,-1,-50,102,-27
7995,6,-260,2,-41,102,-29
8000,3,-259,2,-32,101,-32
8005,4,-258,0,-24,104,-33
8010,6,-258,2,-18,105,-34
8015,3,-257,1,-16,106,-35
8020,3,-255,5,-16,105,-36
8025,4,-255,2,-20,104,-36
8030,4,-254,0,-25,102,-37
8035,1,-255,8,-28,100,-36
8040,7,-256,0,-31,100,-34
8045,9,-255,3,-33,97,-33
8050,5,-259,1,-33,94,-30
8055,3,-258,-9,-35,92,-29
8060,6,-258,1,-39,90,-28
8065,7,-260,1,-42,89,-27
8070,5,-261,2,-44,86,-27
8075,4,-260,-2,-48,84,-26
8080,5,-262,-2,-45,82,-26
8085,5,-264,-2,-42,80,-28
8090,4,-263,0,-35,77,-27
8095,5,-263,0,-28,77,-27
8100,1,-260,0,-20,73,-28
8105,9,-254,-19,-12,67,-28
8110,6,-263,-2,-5,67,-29
8115,6,-259,-1,1,64,-29
8120,3,-257,-1,5,62,-30
8125,5,-259,-1,10,61,-27
8130,6,-259,1,13,58,-28
8135,3,-256,1,15,56,-28
8140,6,-256,0,18,55,-28
8145,6,-255,3,17,54,-29
8150,6,-255,2,14,53,-30
8155,9,-254,3,10,53,-30
8160,8,-252,6,3,51,-29
8165,8,-254,2,-5,48,-29
8170,10,-254,1,-12,46,-29
8175,11,-254,0,-21,42,-27
8180,10,-256,2,-29,39,-28
8185,7,-256,2,-38,36,-25
8190,9,-257,0,-42,30,-25
8195,5,-256,3,-47,26,-23
8200,8,-257,-1,-50,23,-22
8205,7,-257,0,-51,20,-20
8210,9,-257,3,-53,18,-20
8215,10,-257,0,-54,18,-19
8220,8,-259,0,-56,17,-20
8225,7,-260,1,-57,18,-18
8230,11,-259,4,-57,20,-16
8235,10,-259,4,-56,21,-18
8240,8,-258,0,-53,22,-17
8245,8,-258,-2,-52,25,-18
8250,12,-261,3,-47,28,-19
8255,9,-260,-1,-45,31,-19
8260,13,-261,1,-41,31,-19
8265,10,-262,2,-38,33,-20
8270,9,-259,3,-37,34,-20
8275,10,-260,1,-36,34,-20
8280,11,-259,2,-33,34,-21
8285,12,-259,0,-32,35,-21
8290,12,-261,2,-29,34,-20
8295,10,-256,0,-28,33,-21
8300,10,-258,-2,-27,33,-20
8305,11,-258,0,-30,33,-20
8310,13,-260,1,-29,33,-18
8315,11,-258,1,-33,33,-16
8320,10,-254,2,-35,31,-17
8325,11,-258,0,-36,33,-16
8330,7,-256,-1,-40,33,-14
8335,10,-257,2,-41,32,-14
8340,10,-257,-1,-43,31,-13
8345,10,-255,4,-44,31,-13
8350,7,-257,1,-48,31,-13
8355,10,-258,-1,-49,30,-11
8360,12,-260,1,-49,31,-13
8365,12,-260,3,-49,31,-14
8370,12,-258,2,-45,33,-15
8375,8,-258,1,-41,34,-15
8380,11,-258,-1,-37,34,-15
8385,8,-255,0,-35,35,-16
8390,7,-258,-1,-34,34,-16
8395,8,-257,2,-38,32,-16
8400,12,-256,2,-43,29,-15
8405,9,-257,0,-50,27,-14
8410,9,-256,2,-57,25,-14
8415,7,-257,0,-63,23,-13
8420,6,-256,3,-67,21,-13
8425,7,-257,5,-71,19,-13
8430,7,-255,4,-72,15,-10
8435,9,-259,3,-71,11,-10
8440,10,-260,1,-69,7,-8
8445,7,-262,1,-66,3,-6
8450,10,-261,1,-61,0,-5
8455,9,-259,2,-58,-2,-5
8460,11,-258,0,-52,-4,-4
8465,10,-264,2,-51,-7,-3
8470,10,-259,2,-50,-9,-3
8475,12,-260,2,-49,-8,-4
8480,12,-260,2,-48,-7,-5
8485,12,-260,0,-45,-6,-6
8490,14,-259,0,-41,-4,-7
8495,13,-261,3,-36,-2,-7
8500,11,-259,1,-32,-2,-7
8505,12,-257,1,-27,-1,-9
8510,13,-256,1,-21,-1,-8
8515,12,-260,6,-18,0,-10
8520,11,-255,-1,-18,1,-11
8525,9,-254,4,-19,4,-10
8530,11,-256,1,-24,5,-11
8535,13,-255,4,-28,7,-12
8540,11,-254,1,-34,9,-13
8545,10,-254,0,-41,11,-14
8550,14,-255,2,-46,11,-14
8555,12,-256,0,-52,12,-15
8560,13,-257,-1,-58,12,-16
8565,11,-257,2,-60,12,-16
8570,10,-257,2,-59,10,-15
8575,13,-259,1,-56,8,-13
8580,12,-260,0,-55,8,-14
8585,10,-261,0,-52,7,-13
8590,10,-258,0,-49,9,-13
8595,12,-264,-1,-46,10,-13
8600,11,-260,0,-40,10,-11
8605,14,-260,-1,-38,10,-11
8610,10,-258,2,-35,13,-11
8615,10,-260,-2,-36,16,-11
8620,15,-259,1,-37,19,-11
8625,11,-256,1,-37,22,-11
8630,12,-257,2,-38,21,-12
8635,13,-258,2,-37,22,-11
8640,9,-256,1,-36,23,-11
8645,11,-259,3,-34,25,-12
8650,9,-256,6,-32,26,-12
8655,11,-257,2,-34,28,-12
8660,11,-256,0,-38,29,-13
8665,10,-255,2,-39,29,-14
8670,12,-257,2,-43,29,-14
8675,10,-257,1,-45,28,-14
8680,10,-255,2,-48,28,-15
8685,9,-257,1,-48,28,-13
8690,9,-256,0,-50,26,-14
8695,9,-259,0,-48,27,-12
8700,9,-259,0,-50,28,-13
8705,7,-258,0,-51,26,-12
8710,8,-259,0,-51,26,-11
8715,6,-257,-1,-54,25,-12
8720,9,-260,-1,-54,26,-12
8725,10,-256,0,-53,24,-11
8730,13,-257,2,-52,23,-10
8735,8,-256,1,-50,23,-10
8740,7,-256,2,-48,23,-11
8745,9,-259,1,-49,24,-11
8750,11,-256,3,-48,25,-12
8755,11,-256,2,-46,24,-13
8760,26,-258,1,-45,24,-12
8765,13,-258,0,-44,22,-11
8770,11,-256,3,-46,22,-12
8775,9,-254,0,-47,21,-11
8780,10,-256,1,-49,20,-12
8785,9,-257,2,-47,18,-10
8790,10,-258,-1,-45,17,-10
8795,12,-257,3,-45,17,-9
8800,8,-261,4,-45,15,-8
8805,10,-257,-1,-45,15,-8
8810,9,-256,2,-46,11,-8
8815,7,-261,16,-46,12,-8
8820,8,-260,0,-48,11,-7
8825,5,-257,3,-47,8,-7
8830,9,-256,1,-48,7,-8
8835,9,-257,0,-49,5,-7
8840,7,-259,0,-49,5,-7
8845,10,-258,3,-51,3,-6
8850,9,-258,1,-52,2,-7
8855,8,-256,2,-52,0,-6
8860,10,-259,2,-50,-1,-5
8865,10,-259,2,-48,-2,-6
8870,11,-261,12,-44,-3,-5
8875,12,-258,3,-42,-4,-6
8880,8,-255,7,-41,-4,-6
8885,9,-256,0,-38,-4,-4
8890,9,-257,2,-37,-4,-5
8895,10,-261,1,-36,-5,-3
8900,14,-259,2,-35,-7,-3
8905,12,-258,0,-36,-8,-3
8910,11,-256,1,-35,-7,-3
8915,11,-257,0,-35,-7,-4
8920,11,-257,3,-34,-6,-2
8925,11,-257,2,-35,-6,-3
8930,12,-257,0,-37,-6,-3
8935,10,-255,1,-39,-7,-3
8940,14,-257,2,-43,-7,-4
8945,11,-253,5,-47,-7,-5
8950,10,-256,3,-53,-7,-3
8955,11,-257,3,-57,-7,-2
8960,11,-256,1,-57,-9,-1
8965,11,-257,1,-61,-8,-1
8970,11,-256,2,-62,-7,0
8975,13,-259,1,-63,-7,1
8980,10,-260,1,-62,-7,1
8985,11,-260,1,-61,-4,2
8990,13,-258,1,-61,-4,2
8995,12,-258,1,-61,-3,3
9000,11,-257,1,-61,-3,1
9005,10,-257,5,-59,-2,3
9010,9,-258,6,-62,-1,2
9015,9,-258,2,-60,-1,0
9020,13,-258,0,-58,-1,0
9025,12,-258,2,-56,0,-1
9030,12,-258,0,-53,-1,-2
9035,15,-257,-2,-52,1,-3
9040,15,-260,1,-51,2,-6
9045,13,-256,1,-53,3,-6
9050,10,-256,4,-54,4,-7
9055,11,-256,5,-58,5,-8
9060,13,-258,3,-59,4,-8
9065,12,-258,-1,-60,4,-9
9070,12,-257,2,-62,3,-6
9075,12,-257,0,-60,4,-7
9080,11,-257,3,-62,4,-7
9085,13,-257,2,-64,8,-5
9090,14,-259,1,-64,10,-6
9095,14,-260,4,-65,11,-6
9100,12,-257,1,-64,11,-6
9105,11,-257,-1,-60,10,-5
9110,14,-257,0,-58,8,-5
9115,11,-258,0,-55,8,-5
9120,10,-258,1,-54,7,-4
9125,10,-259,1,-55,8,-5
9130,11,-261,0,-56,7,-4
9135,12,-260,1,-58,9,-5
9140,12,-258,-2,-59,9,-5
9145,9,-257,4,-59,11,-5
9150,12,-259,0,-55,10,-7
9155,11,-258,1,-54,9,-6
9160,11,-257,0,-52,8,-7
9165,10,-259,1,-45,8,-7
9170,11,-258,2,-46,8,-6
9175,11,-259,1,-43,9,-5
9180,11,-258,1,-42,11,-5
9185,8,-256,0,-42,11,-5
9190,12,-258,2,-44,12,-5
9195,15,-256,0,-46,12,-5
9200,14,-258,-1,-49,13,-3
9205,15,-256,1,-51,14,-4
9210,11,-256,1,-53,13,-3
9215,15,-258,-1,-54,14,-3
9220,14,-257,-2,-53,13,-2
9225,13,-256,-1,-54,15,-2
9230,14,-257,0,-56,14,-2
9235,13,-257,1,-58,13,-2
9240,10,-258,1,-57,15,-3
9245,9,-256,-1,-59,15,-4
9250,10,-257,-1,-59,14,-3
9255,13,-259,1,-60,15,-5
9260,13,-258,2,-58,16,-5
9265,11,-255,2,-56,17,-7
9270,13,-258,3,-56,20,-7
9275,10,-259,0,-56,20,-7
9280,12,-259,1,-54,21,-8
9285,12,-257,0,-53,21,-9
9290,7,-256,0,-54,20,-10
9295,12,-255,0,-55,20,-11
9300,12,-255,0,-55,20,-9
9305,11,-257,0,-56,20,-9
9310,12,-256,0,-58,22,-10
9315,15,-259,-3,-60,24,-10
9320,12,-257,1,-60,25,-11
9325,11,-260,-2,-59,27,-9
9330,13,-259,3,-58,27,-9
9335,13,-259,2,-60,28,-11
9340,12,-259,0,-60,28,-11
9345,14,-259,0,-59,28,-12
9350,16,-259,1,-58,29,-11
9355,10,-261,0,-56,28,-10
9360,14,-258,1,-56,27,-11
9365,13,-259,-2,-54,28,-11
9370,12,-258,-2,-54,28,-12
9375,12,-258,-2,-52,29,-11
9380,13,-259,0,-53,29,-12
9385,12,-258,-1,-54,27,-11
9390,11,-258,-3,-55,26,-10
9395,9,-258,0,-55,26,-10
9400,11,-257,-1,-53,25,-10
9405,11,-260,-3,-54,25,-9
9410,11,-257,2,-52,24,-8
9415,13,-260,-1,-52,24,-7
9420,12,-258,1,-53,24,-9
9425,9,-258,-2,-54,24,-8
9430,12,-258,-2,-56,25,-8
9435,14,-258,2,-58,24,-6
9440,13,-256,0,-59,23,-7
9445,13,-258,-1,-62,23,-7
9450,9,-257,-2,-63,22,-8
9455,12,-257,2,-64,22,-8
9460,13,-256,2,-63,20,-9
9465,19,-247,-4,-63,20,-8
9470,10,-260,1,-62,18,-9
9475,11,-259,0,-61,19,-10
9480,14,-259,1,-59,20,-11
9485,13,-260,3,-58,20,-9
9490,15,-259,2,-55,21,-11
9495,14,-260,1,-54,21,-9
9500,12,-257,1,-54,22,-7
9505,12,-258,1,-50,23,-8
9510,13,-259,0,-49,24,-8
9515,11,-257,-3,-48,24,-7
9520,12,-250,-8,-49,25,-7
9525,13,-256,0,-51,25,-6
9530,12,-258,1,-51,26,-7
9535,9,-256,4,-54,28,-6
9540,14,-259,0,-55,28,-8
9545,10,-258,2,-56,28,-5
9550,12,-259,0,-57,26,-5
9555,9,-259,0,-56,27,-4
9560,12,-258,3,-56,24,-4
9565,13,-258,0,-56,23,-3
9570,12,-258,2,-54,22,-1
9575,8,-258,0,-53,20,-3
9580,13,-259,-1,-51,18,-1
9585,11,-258,-3,-49,18,-2
9590,7,-258,1,-48,19,-2
9595,7,-256,-1,-47,18,-1
9600,12,-258,0,-47,18,-2
9605,13,-259,1,-46,20,-3
9610,11,-258,1,-44,19,-3
9615,11,-259,0,-44,20,-3
9620,12,-260,-3,-38,19,-4
9625,9,-259,-1,-35,20,-5
9630,12,-262,1,-30,19,-6
9635,12,-260,1,-27,19,-7
9640,10,-261,-1,-24,19,-7
9645,9,-260,2,-22,17,-3
9650,8,-257,1,-20,16,-6
9655,12,-258,1,-21,15,-4
9660,10,-257,1,-23,16,-4
9665,11,-258,0,-23,16,-5
9670,13,-258,3,-26,14,-5
9675,13,-259,2,-26,16,-5
9680,10,-260,0,-28,18,-6
9685,11,-257,1,-29,16,-5
9690,13,-260,1,-27,16,-5
9695,13,-258,2,-25,16,-6
9700,13,-259,0,-23,15,-5
9705,11,-258,-1,-22,15,-5
9710,12,-259,1,-18,15,-4
9715,12,-260,0,-15,15,-5
9720,12,-257,1,-14,13,-5
9725,14,-263,6,-15,13,-5
9730,4,-251,-13,-14,13,-4
9735,6,-260,3,-14,13,-4
9740,11,-258,0,-13,13,-4
9745,11,-258,-1,-15,13,-5
9750,14,-256,0,-16,13,-5
9755,12,-261,0,-17,13,-5
9760,10,-257,3,-17,12,-5
9765,11,-257,-1,-19,11,-4
9770,14,-260,0,-18,10,-4
9775,11,-257,0,-18,11,-4
9780,11,-257,1,-18,8,-4
9785,13,-258,1,-16,7,-4
9790,14,-258,2,-14,6,-3
9795,7,-257,1,-12,7,-2
9800,15,-256,2,-12,6,-2
9805,13,-257,-1,-14,7,-1
9810,11,-258,1,-15,9,-2
9815,14,-257,2,-17,10,-4
9820,14,-257,3,-18,10,-4
9825,12,-259,-1,-15,9,-4
9830,15,-256,2,-13,8,-4
9835,12,-257,2,-12,7,-4
9840,12,-257,1,-12,6,-3
9845,14,-258,3,-12,7,-5
9850,13,-258,3,-13,9,-4
9855,11,-260,1,-15,11,-5
9860,8,-258,2,-16,12,-6
9865,12,-257,2,-16,13,-8
9870,10,-257,3,-18,13,-7
9875,14,-259,5,-16,13,-9
9880,11,-260,1,-15,15,-8
9885,11,-260,1,-12,15,-9
9890,10,-258,1,-8,15,-9
9895,14,-260,5,-5,18,-10
9900,14,-257,1,-3,19,-9
9905,14,-259,0,-2,20,-9
9910,14,-254,5,-4,21,-8
9915,15,-256,4,-5,21,-8
9920,14,-256,-1,-8,20,-8
9925,13,-257,2,-11,20,-7
9930,11,-255,0,-14,19,-7
9935,11,-259,0,-17,20,-7
9940,14,-257,1,-18,20,-8
9945,12,-256,1,-19,22,-7
9950,10,-257,3,-19,22,-7
9955,13,-256,0,-18,22,-8
9960,12,-256,3,-18,25,-8
9965,13,-261,1,-18,24,-9
9970,11,-257,1,-20,23,-8
9975,9,-254,2,-23,23,-9
9980,8,-255,4,-24,23,-7
9985,10,-257,2,-25,23,-7
9990,13,-258,1,-26,24,-4
9995,13,-259,1,-25,25,-4
10000,12,-257,0,-23,25,-4
10005,11,-258,1,-22,25,-4
10010,10,-257,4,-21,27,-4
10015,10,-257,3,-20,29,-5
10020,10,-258,1,-19,30,-5
10025,11,-256,0,-18,30,-3
10030,9,-257,2,-18,32,-4
10035,11,-257,0,-20,34,-4
10040,13,-258,2,-21,35,-4
10045,14,-258,3,-21,36,-5
10050,12,-256,4,-24,35,-4
10055,13,-258,0,-28,37,-6
10060,14,-257,4,-31,37,-6
10065,11,-257,-3,-35,36,-7
10070,9,-257,4,-36,35,-7
10075,11,-259,1,-36,33,-6
10080,10,-256,2,-38,31,-7
10085,10,-256,4,-38,33,-8
10090,10,-257,3,-37,32,-8
10095,7,-258,3,-35,30,-6
10100,8,-259,0,-34,28,-6
10105,9,-259,5,-30,27,-6
10110,10,-261,0,-28,25,-6
10115,10,-259,3,-26,24,-5
10120,11,-257,4,-23,23,-6
10125,10,-257,3,-22,24,-7
10130,10,-257,0,-25,23,-7
10135,11,-257,2,-23,22,-7
10140,9,-258,2,-27,24,-7
10145,11,-256,1,-28,25,-6
10150,8,-257,6,-32,23,-7
10155,10,-258,4,-32,24,-8
10160,9,-257,3,-33,25,-8
10165,10,-256,3,-33,26,-8
10170,11,-259,3,-31,25,-7
10175,21,-257,7,-29,24,-8
10180,11,-259,3,-29,24,-8
10185,10,-256,2,-26,23,-8
10190,10,-257,1,-24,23,-8
10195,12,-257,6,-22,25,-9
10200,11,-256,5,-25,25,-9
10205,11,-256,4,-27,26,-8
10210,10,-257,1,-26,28,-9
10215,11,-256,4,-26,28,-10
10220,13,-256,4,-28,28,-10
10225,11,-261,6,-29,28,-12
10230,26,-255,10,-30,27,-12
10235,12,-256,1,-30,28,-11
10240,11,-257,5,-29,27,-12
10245,13,-257,3,-31,27,-11
10250,11,-256,5,-31,28,-11
10255,11,-257,3,-31,30,-11
10260,11,-258,4,-31,30,-12
10265,10,-258,0,-31,30,-12
10270,11,-257,4,-30,30,-12
10275,11,-256,6,-29,31,-13
10280,15,-258,2,-28,32,-11
10285,10,-257,2,-29,31,-11
10290,12,-259,5,-28,32,-11
10295,11,-260,4,-27,33,-10
10300,11,-256,4,-28,33,-10
10305,10,-258,1,-27,35,-10
10310,11,-255,2,-27,35,-9
10315,10,-256,4,-27,36,-10
10320,17,-257,2,-25,36,-9
10325,11,-256,1,-24,36,-10
10330,13,-257,5,-25,35,-10
10335,11,-258,7,-25,36,-10
10340,10,-257,4,-27,37,-12
10345,11,-258,6,-26,40,-13
10350,15,-259,6,-24,41,-12
10355,11,-255,6,-24,41,-13
10360,14,-257,6,-24,40,-13
10365,9,-257,5,-22,41,-14
10370,12,-257,2,-22,40,-14
10375,11,-256,6,-23,42,-14
10380,10,-257,5,-25,41,-15
10385,12,-256,3,-27,40,-15
10390,9,-251,6,-31,40,-15
10395,11,-256,7,-35,40,-16
10400,16,-257,6,-38,40,-16
10405,11,-256,4,-42,40,-17
10410,8,-256,5,-44,40,-16
10415,9,-257,3,-45,39,-16
10420,12,-257,4,-47,38,-15
10425,11,-257,6,-48,39,-14
10430,9,-256,1,-47,37,-13
10435,12,-257,7,-47,37,-13
10440,7,-256,6,-44,37,-13
10445,11,-256,4,-44,38,-12
10450,9,-259,3,-40,37,-13
10455,13,-258,3,-39,36,-13
10460,14,-257,8,-36,37,-15
10465,14,-259,3,-33,36,-15
10470,11,-259,4,-31,37,-15
10475,12,-258,9,-30,36,-14
10480,12,-260,9,-31,36,-15
10485,12,-256,2,-29,34,-15
10490,12,-258,1,-30,34,-16
10495,10,-258,5,-30,34,-16
10500,12,-257,2,-30,32,-16
10505,8,-256,9,-31,30,-16
10510,11,-256,4,-29,29,-14
10515,14,-258,4,-27,26,-14
10520,8,-255,7,-26,26,-15
10525,13,-256,3,-27,24,-15
10530,11,-255,6,-30,25,-13
10535,15,-256,4,-35,25,-13
10540,13,-258,9,-41,27,-13
10545,12,-255,2,-45,27,-12
10550,12,-259,6,-45,27,-12
10555,13,-256,7,-44,27,-13
10560,16,-258,7,-40,25,-12
10565,12,-254,3,-36,23,-12
10570,14,-257,4,-33,23,-11
10575,14,-257,3,-33,23,-12
10580,11,-257,4,-34,24,-12
10585,13,-257,6,-37,26,-13
10590,12,-256,6,-43,27,-13
10595,10,-256,6,-51,28,-13
10600,12,-258,1,-54,27,-13
10605,12,-259,9,-58,25,-12
10610,12,-258,4,-57,24,-13
10615,12,-259,5,-54,24,-14
10620,12,-257,6,-50,23,-12
10625,10,-258,3,-46,23,-12
10630,11,-256,3,-40,22,-11
10635,10,-257,5,-38,22,-12
10640,9,-256,4,-38,22,-14
10645,12,-257,5,-39,24,-13
10650,14,-257,8,-40,23,-11
10655,14,-258,2,-40,23,-11
10660,12,-255,4,-42,24,-12
10665,12,-256,6,-42,26,-13
10670,8,-256,6,-40,26,-13
10675,13,-256,5,-38,25,-12
10680,12,-258,2,-36,23,-12
10685,8,-256,4,-36,23,-13
10690,11,-256,6,-38,22,-12
10695,12,-258,2,-38,21,-13
10700,13,-256,3,-38,20,-13
10705,14,-257,3,-42,19,-14
10710,14,-256,5,-44,18,-13
10715,12,-256,6,-45,16,-13
10720,9,-256,6,-45,16,-12
10725,12,-259,4,-46,16,-10
10730,10,-255,4,-46,16,-10
10735,11,-256,6,-46,15,-10
10740,11,-256,6,-46,15,-10
10745,13,-257,5,-46,13,-8
10750,10,-258,6,-46,12,-7
10755,13,-263,1,-45,12,-6
10760,13,-257,6,-45,12,-6
10765,12,-256,5,-41,12,-5
10770,12,-259,7,-39,12,-6
10775,8,-257,5,-36,14,-6
10780,13,-257,8,-39,15,-6
10785,13,-256,5,-37,14,-7
10790,12,-260,6,-35,13,-8
10795,12,-261,3,-35,14,-7
10800,13,-258,5,-33,14,-9
10805,16,-257,3,-33,13,-7
10810,14,-257,4,-33,12,-8
10815,13,-258,2,-31,11,-8
10820,11,-256,6,-32,10,-8
10825,11,-256,7,-32,11,-8
10830,12,-255,4,-34,10,-6
10835,8,-256,7,-35,8,-5
10840,13,-256,5,-37,5,-5
10845,12,-256,2,-38,6,-4
10850,10,-259,4,-38,5,-4
10855,12,-258,3,-40,4,-5
10860,13,-258,10,-38,5,-5
10865,14,-257,6,-38,4,-3
10870,11,-256,6,-37,3,-3
10875,11,-259,1,-37,4,-3
10880,13,-256,7,-38,4,-3
10885,9,-264,12,-39,3,-5
10890,14,-257,7,-41,5,-5
10895,13,-255,5,-44,6,-6
10900,11,-257,3,-43,6,-5
10905,12,-256,5,-44,6,-6
10910,16,-259,6,-45,4,-4
10915,13,-258,6,-46,3,-5
10920,13,-257,4,-47,2,-3
10925,12,-257,3,-47,1,-5
10930,13,-256,5,-46,0,-4
10935,11,-256,6,-43,-1,-4
10940,13,-265,17,-42,-1,-3
10945,13,-258,2,-42,-1,-2
10950,13,-258,8,-42,-2,-2
10955,11,-257,3,-40,-2,-3
10960,11,-257,6,-39,-1,-4
10965,12,-258,5,-36,-1,-3
10970,14,-257,9,-34,-1,-3
10975,12,-256,3,-34,-2,-3
10980,13,-257,7,-34,-2,-5
10985,11,-257,8,-35,-1,-4
10990,15,-259,7,-34,-1,-4
10995,12,-257,7,-32,-2,-4
11000,12,-256,3,-35,0,-5
11005,11,-256,7,-34,-1,-4
11010,13,-258,9,-36,0,-3
11015,12,-258,5,-35,0,-4
11020,14,-258,3,-35,0,-5
11025,12,-257,5,-36,1,-4
11030,12,-254,5,-34,2,-5
11035,11,-254,9,-33,2,-5
11040,15,-257,4,-35,2,-4
11045,12,-255,6,-33,2,-5
11050,13,-258,1,-34,1,-5
11055,14,-260,5,-32,1,-4
11060,11,-259,6,-33,1,-5
11065,13,-258,5,-33,2,-5
11070,12,-256,5,-33,2,-6
11075,20,-258,7,-33,2,-5
11080,14,-257,8,-32,1,-6
11085,14,-258,4,-30,3,-6
11090,14,-257,6,-30,3,-6
11095,15,-257,4,-29,5,-7
11100,11,-257,5,-29,4,-6
11105,11,-256,8,-28,4,-6
11110,12,-258,2,-29,3,-6
11115,14,-256,6,-31,5,-5
11120,12,-257,5,-29,7,-6
11125,11,-256,7,-30,7,-6
11130,14,-255,7,-31,8,-7
11135,15,-256,2,-32,9,-7
11140,13,-256,7,-34,8,-7
11145,15,-255,6,-36,10,-6
11150,14,-255,5,-37,10,-7
11155,13,-257,7,-36,9,-8
11160,13,-257,5,-37,9,-8
11165,14,-258,8,-39,10,-8
11170,11,-258,6,-39,11,-8
11175,14,-257,4,-36,11,-8
11180,10,-257,6,-34,11,-8
11185,13,-256,4,-34,12,-9
11190,11,-258,1,-32,12,-10
11195,14,-257,6,-31,12,-8
11200,14,-259,6,-29,14,-9
11205,12,-258,6,-27,14,-9
11210,12,-261,3,-25,16,-9
11215,12,-258,7,-22,16,-9
11220,11,-255,5,-22,16,-9
11225,15,-258,3,-21,16,-9
11230,15,-255,9,-23,15,-9
11235,16,-256,4,-24,16,-9
11240,16,-256,6,-25,17,-10
11245,12,-256,7,-26,15,-9
11250,12,-256,3,-32,15,-10
11255,11,-254,9,-34,16,-9
11260,11,-255,7,-35,17,-8
11265,12,-255,8,-39,16,-9
11270,11,-256,4,-46,16,-9
11275,12,-254,6,-50,19,-10
11280,12,-257,6,-56,19,-9
11285,15,-260,4,-59,18,-9
11290,12,-257,6,-56,18,-8
11295,15,-258,10,-52,18,-7
11300,14,-257,2,-48,16,-7
11305,13,-257,7,-42,16,-8
11310,14,-259,3,-38,15,-8
11315,14,-259,6,-37,16,-7
11320,12,-256,8,-39,20,-8
11325,12,-257,6,-42,21,-8
11330,14,-258,4,-48,23,-7
11335,12,-257,7,-50,23,-8
11340,16,-257,5,-53,23,-9
11345,12,-259,7,-52,23,-8
11350,15,-258,11,-49,23,-8
11355,13,-257,5,-43,22,-10
11360,17,-259,7,-38,21,-10
11365,13,-258,7,-34,20,-11
11370,14,-258,5,-32,21,-12
11375,15,-257,6,-31,21,-11
11380,14,-256,0,-29,21,-11
11385,14,-256,4,-33,22,-11
11390,11,-255,5,-36,23,-12
11395,13,-256,7,-39,22,-11
11400,15,-258,4,-42,24,-11
11405,14,-256,3,-44,24,-11
11410,9,-254,5,-46,25,-10
11415,10,-256,8,-47,23,-11
11420,13,-256,7,-50,23,-10
11425,14,-256,10,-51,23,-10
11430,13,-257,7,-51,22,-9
11435,11,-255,4,-51,22,-8
11440,13,-256,8,-53,21,-7
11445,8,-257,8,-54,20,-7
11450,14,-258,10,-53,20,-6
11455,13,-257,5,-54,19,-6
11460,15,-259,6,-51,19,-7
11465,13,-256,9,-49,19,-7
11470,12,-258,9,-49,17,-5
11475,13,-256,9,-46,19,-5
11480,14,-257,8,-43,18,-5
11485,11,-257,6,-41,19,-4
11490,14,-259,8,-42,19,-4
11495,17,-260,7,-40,17,-5
11500,12,-261,2,-39,18,-6
11505,14,-256,6,-39,19,-4
11510,14,-258,8,-38,21,-5
11515,13,-257,7,-38,20,-4
11520,13,-257,5,-38,21,-3
11525,14,-258,4,-39,22,-3
11530,13,-257,4,-37,22,-4
11535,10,-259,9,-35,21,-4
11540,12,-259,7,-36,20,-5
11545,14,-255,7,-34,21,-6
11550,12,-253,6,-35,22,-5
11555,12,-257,5,-36,22,-5
11560,12,-256,7,-40,21,-5
11565,13,-255,9,-42,21,-4
11570,11,-259,8,-42,21,-4
11575,14,-255,8,-43,17,-4
11580,15,-257,2,-43,16,-4
11585,11,-256,5,-43,16,-4
11590,12,-253,-5,-43,16,-4
11595,12,-254,7,-42,16,-4
11600,11,-256,7,-42,15,-4
11605,14,-254,6,-45,16,-2
11610,14,-256,4,-46,15,-2
11615,16,-260,6,-47,17,-2
11620,14,-258,2,-48,17,-3
11625,12,-257,6,-50,18,-3
11630,14,-259,12,-50,17,-4
11635,13,-257,6,-49,17,-5
11640,13,-259,5,-48,18,-5
11645,13,-258,8,-47,16,-4
11650,13,-258,3,-46,15,-4
11655,13,-258,3,-46,15,-4
11660,16,-256,7,-43,14,-3
11665,12,-256,6,-43,15,-3
11670,15,-256,5,-43,15,-3
11675,16,-256,5,-43,15,-5
11680,13,-256,3,-44,16,-3
11685,13,-259,5,-45,15,-3
11690,14,-256,6,-46,14,-3
11695,13,-256,6,-46,13,-4
11700,12,-256,5,-46,13,-4
11705,17,-256,8,-46,13,-2
11710,10,-255,5,-47,13,-3
11715,13,-257,6,-47,12,-2
11720,15,-256,8,-49,11,-3
11725,13,-256,5,-49,12,-3
11730,11,-256,8,-50,11,-3
11735,14,-256,7,-50,13,-3
11740,15,-258,8,-49,13,-3
11745,16,-258,9,-50,13,-3
11750,12,-256,5,-49,15,-2
11755,11,-255,8,-49,16,-2
11760,13,-260,9,-48,16,-3
11765,12,-255,8,-48,15,-1
11770,13,-256,8,-48,14,0
11775,11,-256,5,-49,14,-1
11780,16,-257,6,-51,13,0
11785,13,-259,2,-49,12,0
11790,12,-256,7,-48,12,1
11795,16,-258,3,-48,13,1
11800,13,-258,9,-49,13,0
11805,14,-258,9,-48,13,1
11810,13,-258,10,-47,13,0
11815,14,-258,8,-48,12,1
11820,11,-256,7,-49,14,0
11825,13,-259,7,-47,14,-1
11830,15,-258,6,-47,14,-1
11835,12,-260,6,-47,14,-2
11840,10,-260,5,-45,14,-1
11845,12,-257,5,-44,13,-1
11850,12,-257,6,-42,12,-1
11855,13,-259,7,-42,13,-2
11860,12,-258,8,-42,13,-2
11865,13,-257,6,-41,12,-1
11870,11,-255,6,-40,12,-1
11875,14,-256,4,-39,14,-1
11880,11,-256,4,-40,13,-1
11885,14,-256,7,-40,12,-1
11890,13,-257,8,-41,13,0
11895,15,-259,9,-44,14,0
11900,13,-256,5,-44,13,-1
11905,13,-256,5,-46,13,0
11910,14,-256,7,-47,14,0
11915,13,-256,9,-47,14,1
11920,12,-256,9,-47,13,1
11925,11,-257,9,-45,13,1
11930,10,-257,6,-43,11,0
11935,15,-258,6,-44,13,1
11940,13,-256,7,-42,11,0
11945,14,-256,3,-44,10,1
11950,13,-256,4,-42,11,0
11955,14,-257,4,-44,12,0
11960,12,-257,2,-45,13,-1
11965,13,-256,3,-47,14,1
11970,15,-259,6,-48,13,-1
11975,11,-257,6,-49,13,-2
11980,13,-256,6,-50,13,-3
11985,13,-257,5,-52,13,-2
11990,12,-256,6,-51,12,-1
11995,12,-256,9,-50,11,-1
