timestamp,acc_x,acc_y,acc_z,gyro_x,gyro_y,gyro_z
0,10,-234,-79,59,26,-8
5,12,-232,-82,61,25,-6
10,13,-233,-83,59,23,-6
15,9,-235,-77,57,23,-6
20,10,-234,-89,55,22,-5
25,7,-232,-71,52,20,-5
30,8,-235,-77,49,21,-5
35,11,-233,-83,47,19,-6
40,9,-231,-84,48,20,-4
45,12,-235,-78,47,19,-5
50,12,-234,-82,47,17,-5
55,14,-234,-81,47,18,-6
60,11,-233,-81,47,17,-7
65,12,-236,-80,47,17,-5
70,10,-234,-81,46,18,-6
75,14,-234,-77,44,18,-7
80,10,-243,-91,44,19,-7
85,14,-235,-81,44,20,-7
90,12,-234,-81,43,20,-7
95,10,-234,-84,43,19,-8
100,11,-234,-83,43,18,-9
105,11,-235,-84,44,19,-8
110,11,-229,-80,44,18,-9
115,12,-234,-81,42,19,-8
120,12,-232,-84,43,19,-9
125,12,-232,-83,39,19,-11
130,6,-238,-84,37,19,-9
135,11,-232,-86,34,18,-10
140,8,-232,-80,33,16,-9
145,9,-234,-81,31,16,-9
150,10,-233,-78,30,16,-11
155,11,-233,-82,29,16,-11
160,11,-235,-81,28,15,-13
165,15,-232,-81,28,16,-13
170,11,-233,-82,26,16,-14
175,9,-234,-81,24,17,-14
180,10,-234,-79,25,17,-15
185,10,-238,-84,23,18,-14
190,11,-231,-82,23,20,-16
195,13,-233,-82,21,19,-16
200,13,-236,-82,20,19,-16
205,12,-233,-83,18,19,-16
210,13,-234,-80,20,19,-14
215,11,-234,-79,17,18,-17
220,10,-232,-81,16,16,-15
225,11,-232,-82,16,16,-16
230,13,-236,-85,13,14,-16
235,9,-234,-86,12,12,-14
240,14,-236,-82,12,10,-17
245,11,-235,-82,11,10,-18
250,12,-235,-83,11,9,-16
255,8,-232,-83,12,9,-16
260,13,-234,-85,14,8,-18
265,10,-234,-82,12,7,-16
270,9,-233,-84,14,7,-16
275,12,-235,-83,14,6,-17
280,7,-232,-86,14,6,-16
285,11,-234,-80,14,6,-16
290,7,-233,-88,13,5,-18
295,8,-233,-81,14,5,-17
300,10,-232,-83,14,4,-19
305,14,-235,-83,13,1,-20
310,12,-235,-83,13,2,-19
315,11,-235,-85,14,0,-22
320,9,-235,-85,13,-2,-21
325,12,-231,-83,12,-3,-20
330,5,-232,-82,8,-4,-20
335,9,-233,-88,5,-5,-20
340,9,-234,-88,1,-6,-21
345,11,-234,-81,0,-6,-21
350,11,-235,-85,-1,-7,-21
355,10,-230,-83,-3,-6,-22
360,13,-234,-81,-6,-6,-23
365,10,-232,-85,-9,-7,-22
370,9,-232,-81,-10,-7,-24
375,13,-233,-83,-13,-8,-24
380,10,-231,-86,-13,-10,-24
385,11,-233,-82,-16,-11,-26
390,11,-236,-89,-18,-11,-26
395,11,-234,-82,-18,-13,-27
400,8,-234,-86,-19,-15,-27
405,7,-228,-79,-17,-15,-28
410,10,-236,-85,-16,-18,-28
415,11,-232,-89,-18,-20,-26
420,9,-233,-85,-17,-20,-28
425,11,-232,-89,-16,-22,-28
430,10,-230,-87,-18,-23,-27
435,14,-228,-87,-22,-24,-27
440,11,-229,-93,-24,-25,-28
445,10,-228,-88,-29,-24,-27
450,12,-227,-91,-33,-23,-29
455,13,-227,-89,-40,-22,-28
460,9,-232,-88,-47,-22,-28
465,11,-226,-89,-53,-23,-30
470,7,-226,-88,-59,-23,-31
475,12,-227,-92,-66,-25,-32
480,8,-229,-89,-72,-26,-31
485,7,-227,-89,-76,-29,-31
490,6,-226,-96,-80,-31,-32
495,6,-228,-89,-85,-33,-33
500,10,-227,-91,-87,-34,-32
505,9,-224,-93,-90,-36,-32
510,8,-227,-95,-93,-37,-34
515,11,-223,-99,-97,-42,-34
520,9,-226,-92,-101,-43,-35
525,7,-227,-93,-107,-47,-36
530,8,-224,-95,-113,-52,-35
535,5,-228,-94,-120,-58,-38
540,8,-227,-95,-127,-61,-38
545,9,-226,-90,-133,-63,-38
550,12,-228,-96,-139,-65,-38
555,8,-225,-100,-147,-64,-38
560,8,-226,-99,-155,-64,-39
565,5,-216,-98,-163,-65,-41
570,9,-219,-96,-173,-64,-42
575,7,-218,-104,-184,-65,-42
580,6,-220,-103,-196,-66,-45
585,6,-221,-102,-208,-68,-46
590,8,-219,-103,-221,-71,-47
595,8,-219,-102,-234,-75,-48
600,9,-221,-102,-245,-78,-49
605,11,-223,-101,-256,-82,-51
610,9,-225,-102,-263,-82,-51
615,13,-220,-102,-269,-83,-52
620,12,-225,-109,-275,-84,-50
625,12,-218,-105,-283,-86,-50
630,13,-217,-105,-290,-87,-50
635,13,-220,-108,-300,-88,-48
640,10,-214,-108,-310,-87,-47
645,12,-218,-108,-324,-85,-46
650,12,-216,-108,-337,-84,-48
655,13,-213,-109,-352,-85,-47
660,11,-211,-109,-367,-84,-47
665,14,-213,-115,-384,-84,-46
670,14,-210,-116,-398,-84,-46
675,9,-209,-120,-410,-82,-48
680,11,-209,-116,-421,-81,-48
685,13,-213,-114,-434,-78,-50
690,13,-211,-116,-444,-76,-50
695,12,-210,-119,-455,-74,-52
700,13,-209,-116,-466,-72,-53
705,13,-210,-119,-479,-71,-53
710,10,-204,-125,-490,-67,-54
715,16,-208,-123,-503,-63,-54
720,16,-205,-126,-516,-59,-53
725,10,-204,-126,-529,-54,-53
730,16,-211,-125,-544,-51,-54
735,12,-204,-126,-559,-49,-54
740,11,-202,-125,-575,-46,-55
745,9,-200,-126,-589,-44,-56
750,12,-202,-127,-604,-46,-55
755,13,-198,-126,-621,-44,-55
760,13,-199,-129,-639,-42,-56
765,16,-200,-131,-658,-39,-56
770,14,-197,-129,-674,-35,-57
775,13,-196,-132,-690,-32,-58
780,10,-193,-133,-705,-30,-56
785,13,-199,-132,-717,-29,-57
790,14,-193,-134,-731,-29,-55
795,15,-193,-137,-742,-29,-54
800,10,-192,-139,-758,-28,-53
805,12,-188,-141,-775,-23,-52
810,14,-187,-141,-795,-18,-52
815,15,-190,-143,-817,-14,-52
820,15,-191,-141,-837,-8,-51
825,17,-187,-139,-854,-8,-54
830,16,-187,-139,-867,-7,-54
835,20,-188,-140,-880,-9,-56
840,16,-190,-145,-894,-12,-58
845,13,-189,-142,-907,-17,-59
850,13,-187,-145,-917,-23,-60
855,13,-185,-144,-928,-31,-61
860,15,-186,-147,-940,-35,-62
865,11,-183,-152,-948,-37,-59
870,11,-181,-149,-960,-41,-57
875,10,-179,-150,-972,-47,-58
880,9,-175,-149,-986,-52,-58
885,10,-178,-157,-1004,-56,-59
890,14,-176,-147,-1022,-59,-61
895,13,-180,-152,-1038,-57,-62
900,10,-176,-152,-1053,-55,-63
905,12,-179,-150,-1064,-54,-66
910,11,-180,-151,-1075,-52,-67
915,12,-180,-153,-1085,-52,-70
920,9,-181,-152,-1091,-56,-72
925,12,-185,-150,-1096,-62,-76
930,8,-182,-154,-1101,-70,-79
935,10,-183,-157,-1103,-77,-80
940,14,-184,-156,-1101,-83,-82
945,16,-186,-156,-1099,-87,-85
950,16,-188,-164,-1089,-91,-86
955,12,-186,-159,-1077,-97,-88
960,15,-186,-161,-1072,-103,-88
965,9,-185,-161,-1071,-112,-88
970,16,-186,-163,-1071,-119,-89
975,16,-187,-165,-1069,-124,-91
980,15,-191,-160,-1065,-124,-94
985,15,-184,-161,-1053,-124,-97
990,15,-188,-167,-1047,-125,-98
995,10,-182,-167,-1042,-126,-100
1000,8,-183,-170,-1039,-129,-100
1005,11,-183,-167,-1034,-133,-98
1010,16,-187,-167,-1028,-136,-98
1015,15,-187,-165,-1021,-140,-102
1020,15,-183,-172,-1011,-143,-108
1025,13,-187,-171,-1007,-148,-117
1030,12,-188,-173,-1001,-154,-124
1035,14,-187,-178,-993,-164,-130
1040,13,-184,-178,-982,-174,-135
1045,9,-183,-179,-965,-179,-139
1050,14,-186,-185,-953,-180,-141
1055,10,-180,-187,-945,-178,-143
1060,11,-182,-187,-938,-177,-142
1065,10,-178,-185,-931,-177,-140
1070,8,-179,-184,-926,-177,-139
1075,7,-178,-183,-912,-183,-134
1080,11,-181,-181,-891,-191,-129
1085,6,-177,-182,-870,-200,-130
1090,7,-176,-182,-850,-211,-130
1095,7,-176,-185,-835,-221,-129
1100,9,-175,-184,-828,-227,-130
1105,10,-172,-189,-823,-229,-133
1110,13,-171,-191,-815,-225,-136
1115,9,-167,-192,-805,-225,-138
1120,12,-162,-192,-796,-222,-142
1125,14,-160,-194,-788,-212,-144
1130,11,-155,-196,-788,-203,-144
1135,10,-154,-190,-786,-200,-145
1140,11,-149,-188,-781,-201,-147
1145,10,-152,-187,-773,-207,-154
1150,9,-148,-190,-768,-217,-160
1155,7,-151,-190,-769,-226,-161
1160,6,-146,-195,-776,-231,-164
1165,6,-142,-195,-788,-228,-167
1170,11,-143,-196,-800,-217,-165
1175,8,-139,-196,-808,-208,-165
1180,11,-134,-196,-817,-203,-165
1185,10,-135,-198,-822,-202,-162
1190,10,-138,-196,-825,-206,-159
1195,10,-135,-198,-827,-210,-158
1200,9,-132,-206,-831,-212,-157
1205,11,-134,-209,-840,-212,-157
1210,9,-131,-211,-850,-215,-155
1215,10,-135,-208,-866,-218,-153
1220,8,-136,-217,-877,-219,-153
1225,9,-133,-212,-881,-217,-159
1230,10,-131,-214,-874,-212,-161
1235,9,-131,-216,-868,-205,-162
1240,9,-132,-217,-862,-199,-164
1245,9,-131,-219,-861,-192,-162
1250,10,-134,-221,-864,-186,-163
1255,6,-132,-221,-869,-183,-162
1260,7,-131,-222,-872,-179,-161
1265,3,-129,-219,-872,-178,-157
1270,4,-132,-225,-865,-175,-153
1275,3,-131,-224,-854,-173,-153
1280,5,-131,-224,-838,-173,-149
1285,5,-129,-220,-819,-177,-146
1290,4,-130,-217,-796,-180,-149
1295,2,-126,-219,-766,-188,-145
1300,3,-127,-221,-736,-196,-140
1305,4,-122,-223,-714,-199,-140
1310,1,-117,-220,-700,-197,-138
1315,3,-119,-222,-691,-190,-135
1320,5,-115,-222,-684,-183,-133
1325,2,-120,-227,-680,-177,-132
1330,4,-109,-228,-675,-168,-128
1335,3,-109,-233,-671,-161,-123
1340,3,-105,-230,-667,-157,-118
1345,5,-108,-231,-661,-151,-112
1350,6,-107,-236,-653,-139,-111
1355,7,-104,-229,-646,-130,-109
1360,5,-103,-232,-641,-123,-105
1365,6,-105,-232,-637,-116,-105
1370,7,-102,-232,-634,-109,-104
1375,6,-103,-233,-632,-106,-99
1380,13,-106,-232,-631,-105,-94
1385,4,-100,-237,-633,-108,-94
1390,12,-104,-234,-633,-110,-94
1395,5,-96,-236,-636,-115,-95
1400,6,-98,-233,-630,-122,-84
1405,6,-97,-234,-622,-130,-81
1410,4,-96,-234,-614,-136,-76
1415,4,-98,-240,-605,-142,-75
1420,6,-90,-230,-596,-143,-74
1425,2,-95,-227,-593,-142,-72
1430,2,-93,-233,-585,-143,-64
1435,3,-91,-237,-575,-149,-58
1440,0,-88,-227,-568,-157,-54
1445,2,-88,-235,-563,-158,-57
1450,2,-88,-232,-562,-157,-58
1455,4,-88,-232,-562,-152,-61
1460,1,-86,-238,-561,-147,-64
1465,8,-84,-239,-556,-137,-67
1470,1,-81,-236,-552,-127,-68
1475,4,-81,-244,-547,-120,-68
1480,1,-77,-244,-539,-121,-66
1485,1,-78,-237,-529,-125,-63
1490,1,-80,-241,-520,-132,-64
1495,3,-83,-241,-508,-139,-67
1500,0,-74,-238,-497,-141,-81
1505,0,-74,-238,-479,-143,-77
1510,1,-75,-241,-465,-137,-72
1515,2,-74,-242,-460,-128,-69
1520,3,-76,-240,-460,-121,-65
1525,6,-75,-238,-462,-118,-62
1530,5,-74,-244,-463,-115,-58
1535,5,-72,-241,-465,-115,-53
1540,4,-72,-244,-469,-115,-49
1545,6,-71,-246,-471,-114,-47
1550,5,-66,-248,-471,-114,-47
1555,4,-64,-244,-473,-115,-45
1560,10,-63,-246,-471,-119,-47
1565,7,-62,-246,-467,-127,-49
1570,3,-61,-244,-466,-134,-54
1575,0,-62,-246,-463,-144,-57
1580,2,-63,-246,-459,-149,-60
1585,1,-60,-242,-452,-151,-65
1590,0,-60,-245,-443,-149,-71
1595,3,-57,-243,-437,-139,-74
1600,0,-45,-238,-436,-130,-81
1605,-6,-52,-241,-444,-122,-89
1610,-6,-49,-237,-449,-126,-87
1615,-8,-53,-238,-457,-129,-84
1620,-10,-49,-238,-463,-137,-78
1625,-12,-47,-241,-464,-148,-74
1630,-10,-49,-232,-462,-160,-71
1635,-11,-49,-230,-457,-166,-70
1640,-15,-49,-233,-450,-168,-69
1645,-14,-49,-229,-438,-171,-68
1650,-14,-45,-229,-428,-175,-68
1655,-14,-44,-231,-419,-179,-66
1660,-13,-42,-230,-411,-190,-58
1665,-8,-48,-233,-405,-204,-57
1670,-10,-44,-235,-400,-213,-64
1675,-9,-44,-239,-388,-226,-62
1680,-12,-47,-244,-376,-236,-60
1685,-6,-53,-248,-363,-239,-60
1690,-15,-49,-244,-351,-236,-63
1695,-12,-52,-250,-338,-232,-67
1700,-13,-51,-248,-326,-227,-70
1705,-14,-50,-249,-316,-219,-75
1710,-15,-50,-252,-314,-212,-78
1715,-19,-42,-248,-318,-205,-86
1720,-17,-44,-250,-321,-204,-86
1725,-15,-37,-248,-327,-205,-85
1730,-17,-37,-250,-332,-208,-83
1735,-15,-38,-248,-340,-214,-82
1740,-13,-37,-250,-347,-221,-81
1745,-17,-39,-253,-348,-229,-79
1750,-18,-40,-253,-345,-233,-76
1755,-17,-39,-255,-337,-231,-75
1760,-16,-38,-256,-324,-230,-72
1765,-16,-38,-250,-311,-226,-69
1770,-14,-36,-248,-294,-224,-64
1775,-16,-36,-247,-278,-223,-59
1780,-15,-31,-246,-263,-227,-56
1785,-18,-33,-246,-254,-226,-55
1790,-20,-33,-247,-249,-227,-52
1795,-15,-27,-236,-250,-227,-40
1800,-20,-26,-246,-243,-224,-45
1805,-17,-23,-244,-239,-227,-46
1810,-20,-25,-242,-244,-230,-44
1815,-24,-24,-240,-252,-236,-41
1820,-20,-21,-234,-264,-241,-39
1825,-20,-19,-244,-272,-245,-39
1830,-22,-25,-244,-275,-249,-36
1835,-21,-24,-247,-274,-249,-35
1840,-24,-23,-244,-268,-250,-38
1845,-26,-23,-242,-256,-247,-40
1850,-24,-23,-242,-242,-243,-43
1855,-25,-25,-238,-230,-238,-48
1860,-23,-25,-244,-217,-235,-50
1865,-29,-22,-240,-209,-231,-54
1870,-27,-24,-245,-203,-228,-56
1875,-29,-25,-247,-203,-222,-55
1880,-26,-24,-249,-203,-218,-51
1885,-30,-21,-248,-206,-212,-45
1890,-30,-23,-252,-211,-211,-37
1895,-29,-19,-251,-215,-210,-29
1900,-30,-21,-249,-221,-206,-22
1905,-29,-23,-249,-225,-205,-14
1910,-32,-25,-255,-223,-205,-10
1915,-33,-21,-254,-219,-206,-4
1920,-29,-27,-248,-213,-208,-1
1925,-29,-21,-254,-205,-213,2
1930,-30,-24,-253,-194,-215,5
1935,-34,-21,-252,-177,-218,6
1940,-32,-22,-249,-164,-223,9
1945,-29,-20,-253,-150,-229,11
1950,-30,-18,-254,-138,-235,11
1955,-34,-17,-249,-127,-240,11
1960,-33,-17,-251,-117,-245,5
1965,-34,-15,-250,-106,-246,1
1970,-34,-18,-253,-96,-247,-2
1975,-34,-23,-255,-86,-245,-7
1980,-34,-19,-253,-77,-238,-9
1985,-35,-18,-252,-71,-231,-13
1990,-36,-16,-252,-69,-223,-11
1995,-33,-21,-253,-74,-216,-7
2000,-33,-18,-254,-86,-209,-5
2005,-34,-17,-251,-105,-202,-3
2010,-35,-20,-254,-130,-192,-3
2015,-33,-19,-251,-152,-183,-4
2020,-34,-16,-252,-172,-173,-8
2025,-35,-15,-250,-186,-164,-10
2030,-34,-20,-246,-194,-156,-12
2035,-36,-19,-250,-197,-151,-13
2040,-36,-19,-251,-197,-148,-12
2045,-37,-15,-251,-198,-143,-12
2050,-36,-13,-254,-201,-141,-11
2055,-32,-15,-250,-205,-134,-14
2060,-31,-14,-250,-211,-130,-16
2065,-35,-15,-247,-219,-125,-17
2070,-37,-7,-248,-229,-122,-16
2075,-36,-12,-249,-240,-119,-19
2080,-42,-14,-251,-252,-118,-22
2085,-37,-11,-251,-263,-114,-24
2090,-38,-11,-251,-272,-112,-27
2095,-37,-14,-253,-279,-109,-27
2100,-40,-9,-249,-284,-105,-25
2105,-37,-12,-248,-291,-104,-19
2110,-39,-12,-245,-295,-102,-15
2115,-36,-5,-244,-301,-96,-13
2120,-34,-8,-246,-307,-92,-10
2125,-35,-9,-244,-311,-87,-10
2130,-33,-9,-246,-316,-82,-11
2135,-37,-5,-244,-315,-78,-13
2140,-36,-4,-247,-310,-74,-17
2145,-35,-6,-246,-304,-68,-22
2150,-37,-4,-247,-298,-65,-25
2155,-36,-2,-246,-292,-59,-29
2160,-39,-2,-247,-283,-56,-32
2165,-37,-4,-248,-271,-53,-35
2170,-40,-2,-252,-266,-50,-34
2175,-43,-3,-251,-262,-49,-35
2180,-46,0,-250,-258,-48,-35
2185,-44,3,-247,-255,-48,-33
2190,-43,0,-244,-251,-49,-31
2195,-45,0,-247,-247,-54,-28
2200,-45,0,-246,-242,-54,-24
2205,-48,0,-244,-240,-57,-23
2210,-44,2,-244,-240,-58,-24
2215,-42,1,-244,-239,-59,-24
2220,-44,3,-244,-240,-60,-22
2225,-40,3,-246,-242,-62,-17
2230,-42,3,-246,-243,-61,-16
2235,-40,2,-250,-241,-61,-15
2240,-42,2,-249,-242,-61,-14
2245,-38,2,-248,-242,-62,-14
2250,-43,3,-248,-240,-61,-13
2255,-42,3,-245,-235,-61,-11
2260,-45,11,-248,-226,-62,-13
2265,-42,8,-245,-217,-62,-16
2270,-45,9,-247,-205,-62,-18
2275,-49,10,-245,-193,-62,-17
2280,-47,8,-250,-183,-61,-17
2285,-47,7,-250,-174,-58,-14
2290,-48,14,-252,-167,-57,-10
2295,-52,8,-244,-163,-57,-5
2300,-45,11,-248,-163,-55,3
2305,-46,9,-243,-166,-53,8
2310,-45,12,-246,-170,-51,11
2315,-42,9,-249,-171,-51,13
2320,-44,11,-246,-167,-48,15
2325,-45,13,-242,-159,-48,16
2330,-41,11,-249,-145,-44,18
2335,-40,16,-249,-132,-43,17
2340,-42,15,-249,-122,-42,18
2345,-42,17,-249,-110,-41,19
2350,-43,15,-251,-106,-40,21
2355,-42,15,-248,-107,-37,22
2360,-41,15,-247,-112,-32,25
2365,-41,15,-250,-120,-29,28
2370,-40,16,-250,-129,-26,34
2375,-40,14,-248,-135,-23,36
2380,-37,15,-244,-138,-21,39
2385,-36,22,-243,-138,-20,41
2390,-42,19,-245,-135,-19,41
2395,-40,21,-247,-129,-19,41
2400,-42,17,-236,-121,-19,38
2405,-39,20,-240,-108,-21,33
2410,-38,15,-237,-96,-22,29
2415,-43,20,-243,-84,-21,25
2420,-44,19,-243,-75,-19,21
2425,-44,21,-243,-69,-14,21
2430,-41,20,-247,-66,-10,21
2435,-41,22,-246,-66,-4,22
2440,-44,20,-252,-69,3,24
2445,-42,23,-248,-74,9,28
2450,-39,17,-248,-81,14,32
2455,-40,24,-247,-86,18,35
2460,-41,25,-250,-90,18,37
2465,-39,23,-244,-92,20,41
2470,-39,21,-245,-96,21,43
2475,-37,23,-246,-95,21,47
2480,-40,25,-244,-94,19,50
2485,-38,22,-244,-93,18,51
2490,-39,24,-247,-92,18,51
2495,-38,23,-245,-89,17,50
2500,-43,25,-253,-87,15,51
2505,-46,23,-244,-83,16,52
2510,-43,21,-245,-77,16,56
2515,-42,22,-248,-70,16,62
2520,-43,23,-244,-65,16,69
2525,-44,26,-243,-58,17,77
2530,-43,25,-246,-54,16,83
2535,-42,25,-247,-49,13,95
2540,-41,24,-246,-44,13,100
2545,-43,24,-243,-38,13,105
2550,-44,26,-246,-30,12,105
2555,-42,31,-249,-19,13,103
2560,-48,25,-246,-9,18,98
2565,-44,29,-248,0,23,94
2570,-48,30,-249,9,30,91
2575,-45,32,-247,17,36,91
2580,-46,30,-246,21,46,94
2585,-47,29,-246,20,57,95
2590,-46,31,-247,16,65,99
2595,-43,30,-241,14,71,103
2600,-40,32,-245,13,78,105
2605,-44,32,-241,13,82,106
2610,-42,35,-242,16,88,102
2615,-46,31,-247,17,93,100
2620,-42,30,-239,24,95,96
2625,-40,33,-240,31,96,88
2630,-44,35,-241,38,101,80
2635,-44,34,-239,41,104,71
2640,-43,35,-241,41,110,63
2645,-41,35,-244,34,115,60
2650,-45,33,-244,24,122,56
2655,-46,31,-244,14,124,54
2660,-47,34,-250,8,125,52
2665,-40,32,-244,4,126,51
2670,-41,30,-246,3,126,51
2675,-47,33,-243,2,128,51
2680,-46,34,-242,1,129,55
2685,-45,36,-247,4,129,60
2690,-44,30,-245,7,127,64
2695,-48,27,-247,5,124,71
2700,-47,29,-247,0,121,79
2705,-51,27,-249,-7,119,89
2710,-50,31,-246,-18,119,96
2715,-49,31,-241,-32,123,100
2720,-51,26,-240,-48,126,106
2725,-50,23,-246,-61,131,111
2730,-49,25,-242,-70,136,116
2735,-49,21,-238,-73,141,123
2740,-52,21,-238,-69,145,127
2745,-45,16,-239,-61,150,133
2750,-47,22,-233,-51,155,135
2755,-42,20,-238,-41,159,137
2760,-42,27,-237,-36,163,133
2765,-40,28,-240,-38,167,131
2770,-41,29,-244,-42,170,127
2775,-34,29,-243,-46,174,122
2780,-36,32,-245,-52,178,115
2785,-34,33,-248,-56,181,110
2790,-34,34,-245,-64,183,105
2795,-34,31,-249,-72,182,103
2800,-35,32,-244,-85,180,104
2805,-35,34,-245,-95,179,103
2810,-34,35,-244,-102,180,103
2815,-37,29,-243,-111,181,105
2820,-33,31,-242,-119,181,102
2825,-34,28,-244,-129,182,100
2830,-34,25,-232,-139,188,102
2835,-40,28,-242,-149,196,104
2840,-36,32,-237,-154,202,106
2845,-38,32,-236,-157,212,108
2850,-36,35,-241,-156,220,109
2855,-41,31,-238,-150,231,111
2860,-39,31,-239,-146,236,111
2865,-36,31,-237,-142,241,113
2870,-43,34,-240,-137,244,119
2875,-36,31,-240,-134,246,128
2880,-39,32,-243,-132,244,140
2885,-32,38,-248,-134,242,153
2890,-37,33,-243,-138,241,166
2895,-32,33,-247,-144,241,182
2900,-33,35,-247,-149,243,198
2905,-33,32,-246,-156,244,212
2910,-33,29,-247,-171,240,224
2915,-29,31,-247,-189,234,234
2920,-30,31,-242,-210,230,241
2925,-29,31,-241,-234,225,245
2930,-31,32,-250,-259,216,243
2935,-29,36,-245,-286,206,243
2940,-28,34,-243,-308,193,242
2945,-27,35,-244,-317,186,240
2950,-28,36,-246,-310,178,236
2955,-23,32,-248,-299,175,231
2960,-25,35,-249,-286,172,228
2965,-28,34,-246,-274,168,229
2970,-25,33,-244,-264,164,231
2975,-26,39,-244,-254,163,237
2980,-25,38,-244,-250,160,246
2985,-26,40,-246,-249,156,249
2990,-24,38,-241,-243,152,251
2995,-31,42,-243,-226,150,254
3000,-30,40,-241,-200,145,257
3005,-34,40,-241,-165,140,257
3010,-30,42,-246,-126,134,253
3015,-31,42,-245,-91,132,253
3020,-26,37,-250,-67,129,254
3025,-22,35,-249,-57,126,255
3030,-28,40,-248,-60,126,255
3035,-24,39,-245,-74,123,255
3040,-23,45,-250,-91,118,254
3045,-25,39,-246,-103,112,251
3050,-22,43,-250,-109,109,247
3055,-21,42,-253,-113,105,241
3060,-22,44,-250,-117,100,236
3065,-23,45,-248,-122,95,232
3070,-24,47,-253,-125,89,233
3075,-20,51,-252,-130,82,232
3080,-20,53,-249,-134,76,230
3085,-21,55,-248,-137,72,231
3090,-21,52,-250,-140,63,229
3095,-20,48,-250,-142,57,225
3100,-16,50,-249,-144,54,220
3105,-14,49,-250,-147,52,214
3110,-15,49,-245,-151,48,210
3115,-13,53,-250,-154,43,210
3120,-13,54,-248,-154,40,209
3125,-11,59,-245,-152,39,205
3130,-13,56,-250,-148,41,202
3135,-12,53,-241,-148,42,196
3140,-14,54,-245,-151,42,192
3145,-12,54,-241,-152,44,183
3150,-15,53,-246,-152,43,175
3155,-15,48,-241,-150,41,168
3160,-14,53,-244,-145,36,163
3165,-16,54,-243,-136,30,158
3170,-13,55,-244,-125,27,153
3175,-15,53,-241,-116,23,149
3180,-12,53,-243,-109,22,144
3185,-15,55,-244,-101,22,141
3190,-12,54,-241,-90,23,134
3195,-10,54,-244,-77,25,130
3200,-14,55,-242,-61,28,122
3205,-5,53,-247,-50,30,113
3210,-12,56,-246,-44,31,105
3215,-15,59,-248,-42,30,96
3220,-12,61,-245,-46,26,90
3225,-12,58,-243,-47,23,84
3230,-14,60,-242,-51,19,79
3235,-11,62,-241,-55,16,73
3240,-11,60,-243,-56,10,67
3245,-13,61,-241,-56,4,62
3250,-13,62,-245,-58,1,56
3255,-6,58,-244,-62,-2,48
3260,-6,57,-246,-63,-5,42
3265,-11,57,-243,-64,-6,37
3270,-7,60,-246,-64,-6,31
3275,-6,59,-242,-62,-3,24
3280,-7,62,-241,-62,0,17
3285,-9,63,-241,-62,4,9
3290,-7,61,-237,-60,8,0
3295,-9,63,-244,-60,13,-8
3300,-13,63,-237,-59,18,-17
3305,-7,61,-238,-58,22,-26
3310,-13,62,-243,-57,26,-32
3315,-14,64,-242,-57,30,-37
3320,-15,63,-239,-54,33,-43
3325,-13,65,-241,-51,35,-47
3330,-15,64,-241,-50,36,-51
3335,-15,62,-236,-50,37,-56
3340,-15,64,-243,-55,35,-58
3345,-17,62,-239,-61,33,-60
3350,-13,63,-240,-66,32,-62
3355,-14,61,-238,-68,30,-65
3360,-13,63,-241,-72,24,-69
3365,-11,61,-241,-73,23,-72
3370,-15,69,-243,-74,20,-75
3375,-16,65,-238,-76,15,-78
3380,-12,69,-238,-76,14,-79
3385,-16,66,-240,-77,12,-80
3390,-13,65,-241,-74,12,-80
3395,-13,64,-241,-69,12,-80
3400,-15,68,-242,-65,14,-82
3405,-15,66,-244,-58,18,-83
3410,-16,66,-241,-53,21,-83
3415,-16,68,-248,-51,23,-84
3420,-13,64,-240,-52,27,-86
3425,-12,76,-243,-51,31,-86
3430,-19,69,-239,-49,31,-88
3435,-15,67,-243,-47,30,-88
3440,-15,66,-242,-48,29,-90
3445,-18,66,-240,-46,27,-91
3450,-15,69,-243,-45,24,-91
3455,-17,66,-240,-43,20,-89
3460,-16,70,-245,-38,17,-88
3465,-17,68,-242,-31,16,-86
3470,-16,67,-242,-22,16,-84
3475,-16,69,-240,-16,16,-83
3480,-16,69,-244,-11,15,-80
3485,-16,73,-241,-9,16,-77
3490,-17,70,-240,-7,17,-76
3495,-11,72,-241,-6,17,-75
3500,-12,69,-239,-7,18,-73
3505,-12,68,-238,-7,20,-71
3510,-12,70,-239,-6,21,-70
3515,-15,67,-240,-6,24,-69
3520,-15,69,-237,-7,27,-68
3525,-19,70,-243,-5,29,-69
3530,-20,72,-240,-4,31,-71
3535,-17,68,-239,-5,32,-71
3540,-14,70,-241,-5,33,-69
3545,-19,72,-238,-7,32,-68
3550,-17,72,-241,-8,31,-67
3555,-17,69,-241,-10,29,-68
3560,-15,68,-239,-10,26,-66
3565,-17,69,-234,-8,21,-64
3570,-17,67,-235,-6,15,-64
3575,-17,68,-237,-3,15,-62
3580,-14,70,-239,2,12,-60
3585,-20,77,-236,6,12,-58
3590,-15,66,-240,8,11,-56
3595,-15,68,-241,10,12,-56
3600,-16,66,-239,11,13,-50
3605,-17,69,-239,11,14,-47
3610,-13,67,-241,12,14,-46
3615,-13,67,-240,12,14,-45
3620,-15,68,-239,10,15,-44
3625,-12,68,-237,11,15,-43
3630,-18,69,-243,13,17,-44
3635,-12,71,-243,16,18,-45
3640,-19,71,-248,17,18,-46
3645,-14,69,-243,18,19,-48
3650,-15,68,-243,17,20,-46
3655,-18,70,-243,15,21,-45
3660,-16,71,-237,13,22,-43
3665,-16,70,-241,12,24,-41
3670,-17,69,-239,10,25,-38
3675,-17,70,-239,9,25,-39
3680,-15,67,-240,9,26,-37
3685,-18,66,-241,8,26,-37
3690,-17,71,-238,9,25,-36
3695,-13,64,-235,9,23,-35
3700,-17,67,-240,11,22,-31
3705,-15,69,-241,11,22,-28
3710,-11,66,-241,9,22,-26
3715,-15,69,-240,8,22,-26
3720,-10,72,-237,5,24,-24
3725,-11,72,-241,4,24,-21
3730,-10,71,-243,1,25,-19
3735,-13,74,-241,-1,25,-16
3740,-13,71,-236,-3,25,-15
3745,-12,70,-240,-4,26,-17
3750,-13,68,-243,-6,27,-14
3755,-13,69,-242,-6,27,-15
3760,-13,68,-240,-8,25,-14
3765,-12,72,-237,-10,24,-16
3770,-14,70,-239,-10,23,-17
3775,-12,72,-239,-10,22,-17
3780,-11,71,-240,-8,20,-16
3785,-13,70,-243,-5,19,-16
3790,-12,70,-239,0,19,-18
3795,-12,70,-240,5,19,-17
3800,-9,68,-240,9,19,-15
3805,-11,65,-235,12,17,-14
3810,-15,68,-243,13,16,-12
3815,-12,69,-244,14,15,-11
3820,-11,73,-242,14,14,-11
3825,-11,71,-241,12,14,-12
3830,-14,72,-237,11,12,-12
3835,-12,71,-238,10,12,-13
3840,-13,72,-240,9,12,-15
3845,-13,69,-242,7,12,-16
3850,-15,76,-241,6,13,-18
3855,-12,72,-239,5,14,-18
3860,-15,76,-242,5,13,-18
3865,-12,73,-239,4,12,-18
3870,-13,75,-238,5,11,-17
3875,-12,71,-242,4,9,-19
3880,-10,72,-241,5,10,-19
3885,-12,71,-240,6,8,-19
3890,-9,72,-240,4,8,-19
3895,-11,66,-239,4,9,-18
3900,-12,70,-237,5,10,-19
3905,-10,71,-241,5,12,-23
3910,-8,72,-240,4,13,-24
3915,-14,70,-239,1,15,-23
3920,-12,72,-241,1,14,-24
3925,-13,71,-240,-2,13,-21
3930,-13,73,-237,-2,12,-22
3935,-14,72,-238,-2,12,-22
3940,-16,69,-242,-1,12,-21
3945,-13,68,-238,0,12,-22
3950,-14,70,-238,0,12,-21
3955,-13,69,-237,2,10,-23
3960,-16,75,-244,2,10,-23
3965,-16,74,-235,3,6,-22
3970,-14,71,-240,4,6,-22
3975,-15,72,-241,4,5,-21
3980,-14,74,-239,3,4,-20
3985,-15,73,-240,2,2,-20
3990,-15,72,-238,1,3,-20
3995,-14,75,-239,0,1,-20
4000,-16,76,-242,1,0,-22
4005,-17,74,-244,0,0,-21
4010,-14,71,-236,1,-3,-22
4015,-9,74,-241,3,-3,-22
4020,-9,69,-244,4,-4,-23
4025,-15,75,-236,6,-5,-23
4030,-17,74,-237,5,-5,-22
4035,-14,73,-241,7,-5,-21
4040,-16,77,-237,9,-3,-21
4045,-15,72,-236,10,-1,-21
4050,-15,74,-238,13,0,-20
4055,-12,72,-242,15,2,-16
4060,-13,72,-239,16,3,-16
4065,-12,73,-243,17,4,-14
4070,-15,74,-238,18,5,-13
4075,-9,69,-242,19,6,-13
4080,-17,74,-244,18,6,-10
4085,-15,77,-238,16,7,-10
4090,-17,74,-237,15,6,-9
4095,-19,80,-239,15,5,-8
4100,-17,77,-237,13,5,-8
4105,-15,74,-238,12,4,-8
4110,-18,77,-235,10,3,-7
4115,-15,74,-234,11,2,-6
4120,-20,74,-238,12,2,-5
4125,-18,80,-239,11,0,-6
4130,-14,77,-228,11,0,-4
4135,-14,75,-235,13,1,-4
4140,-14,77,-240,14,2,-3
4145,-19,76,-237,15,3,-2
4150,-12,73,-239,17,2,-2
4155,-16,75,-242,19,3,-4
4160,-15,76,-236,19,4,-3
4165,-16,73,-240,21,4,-1
4170,-20,76,-240,23,3,-2
4175,-17,79,-237,23,3,0
4180,-18,77,-237,23,3,-2
4185,-15,74,-241,21,2,-1
4190,-15,76,-237,21,2,1
4195,-17,75,-236,19,2,3
4200,-17,77,-238,18,0,4
4205,-16,79,-239,16,-2,4
4210,-18,77,-241,14,-3,6
4215,-18,79,-235,14,-3,6
4220,-20,79,-239,15,-4,6
4225,-16,78,-241,16,-4,6
4230,-16,78,-237,16,-4,8
4235,-17,79,-240,17,-4,8
4240,-10,80,-243,18,-3,8
4245,-16,77,-235,19,-2,8
4250,-17,76,-239,19,-1,9
4255,-16,76,-236,22,0,7
4260,-15,76,-236,24,0,8
4265,-17,78,-236,28,-2,9
4270,-15,73,-237,31,0,10
4275,-15,72,-240,34,-1,10
4280,-18,77,-236,35,-1,10
4285,-14,77,-235,37,-1,10
4290,-15,78,-236,38,0,9
4295,-13,80,-241,41,0,8
4300,-19,77,-236,41,1,6
4305,-16,79,-233,41,2,6
4310,-17,78,-238,41,2,7
4315,-17,77,-238,41,1,7
4320,-17,77,-234,42,0,9
4325,-16,74,-239,43,1,9
4330,-18,79,-242,45,1,11
4335,-15,75,-238,44,3,13
4340,-13,74,-241,44,2,13
4345,-14,78,-234,43,3,14
4350,-18,77,-235,40,3,12
4355,-16,75,-236,38,4,12
4360,-14,74,-239,36,4,11
4365,-19,80,-242,33,6,14
4370,-17,77,-237,31,9,12
4375,-13,76,-238,29,9,10
4380,-16,75,-239,29,8,9
4385,-14,77,-239,27,10,10
4390,-18,79,-240,26,7,9
4395,-17,79,-238,28,7,8
4400,-17,76,-236,29,6,8
4405,-16,75,-229,30,5,6
4410,-19,79,-241,32,5,7
4415,-18,80,-239,34,5,3
4420,-18,80,-237,35,6,3
4425,-15,76,-237,37,5,1
4430,-18,80,-237,36,5,3
4435,-13,80,-236,36,5,4
4440,-19,80,-240,36,4,2
4445,-17,80,-237,37,5,2
4450,-14,82,-242,39,3,1
4455,-14,76,-238,41,3,0
4460,-17,81,-240,42,3,0
4465,-15,78,-241,45,1,-1
4470,-15,79,-240,46,2,0
4475,-16,78,-237,50,3,-2
4480,-16,82,-235,52,4,-1
4485,-13,78,-235,55,5,-1
4490,-15,80,-238,55,7,0
4495,-14,78,-239,55,7,-1
4500,-17,78,-239,56,8,2
4505,-17,80,-238,54,10,0
4510,-19,83,-236,53,11,0
4515,-15,80,-240,49,11,1
4520,-18,79,-239,45,11,-1
4525,-19,79,-238,43,9,-3
4530,-18,78,-237,42,11,-3
4535,-18,76,-236,41,10,-6
4540,-18,77,-240,42,11,-8
4545,-23,81,-239,45,11,-8
4550,-18,80,-234,48,13,-8
4555,-16,77,-240,52,13,-5
4560,-18,79,-234,55,11,-4
4565,-22,71,-234,56,11,-4
4570,-18,79,-232,57,9,-4
4575,-17,78,-237,57,7,-4
4580,-16,79,-234,56,7,-5
4585,-17,76,-234,55,7,-8
4590,-15,77,-234,55,9,-10
4595,-17,78,-237,56,10,-12
4600,-17,76,-241,56,11,-13
4605,-17,75,-238,57,13,-15
4610,-18,79,-241,58,13,-16
4615,-17,75,-236,60,13,-16
4620,-18,74,-242,61,13,-17
4625,-18,79,-241,63,11,-17
4630,-14,76,-237,63,10,-18
4635,-17,77,-237,62,10,-17
4640,-16,77,-240,62,11,-16
4645,-17,79,-240,63,11,-17
4650,-18,79,-238,64,12,-17
4655,-20,79,-238,64,12,-18
4660,-18,77,-234,62,13,-16
4665,-16,77,-233,62,14,-19
4670,-16,79,-240,60,14,-21
4675,-24,79,-242,59,14,-21
4680,-16,78,-238,57,14,-20
4685,-18,78,-238,56,14,-20
4690,-17,79,-240,54,14,-20
4695,-16,78,-240,52,14,-19
4700,-18,77,-239,52,13,-20
4705,-17,76,-241,52,14,-20
4710,-16,78,-237,55,16,-19
4715,-17,77,-242,55,17,-20
4720,-16,75,-240,55,15,-21
4725,-18,81,-239,54,15,-21
4730,-15,79,-242,53,16,-23
4735,-17,79,-241,54,16,-23
4740,-17,78,-241,55,15,-24
4745,-18,81,-241,58,14,-22
4750,-19,77,-239,61,12,-21
4755,-14,77,-244,67,12,-20
4760,-16,79,-242,75,10,-19
4765,-17,72,-244,83,7,-15
4770,-17,73,-241,89,5,-10
4775,-17,75,-247,94,2,-7
4780,-15,77,-244,100,0,-6
4785,-22,78,-249,104,-1,-3
4790,-17,74,-253,109,-1,-3
4795,-18,75,-247,115,-2,-2
4800,-17,72,-247,122,-2,-1
4805,-13,76,-251,130,-6,3
4810,-16,77,-247,139,-7,5
4815,-15,79,-247,145,-9,7
4820,-18,80,-249,150,-11,5
4825,-15,83,-248,156,-8,2
4830,-18,84,-248,161,-4,-4
4835,-19,80,-248,166,3,-11
4840,-23,84,-241,171,9,-18
4845,-18,77,-245,178,16,-24
4850,-17,71,-248,189,22,-31
4855,-17,71,-247,205,28,-34
4860,-17,67,-248,222,29,-34
4865,-19,64,-246,242,31,-35
4870,-17,66,-243,262,33,-36
4875,-15,64,-246,282,38,-34
4880,-18,64,-244,297,43,-31
4885,-15,68,-244,309,49,-26
4890,-13,63,-245,318,56,-20
4895,-17,63,-241,326,58,-16
4900,-13,63,-239,335,60,-12
4905,-14,63,-243,348,61,-7
4910,-18,63,-241,365,61,-6
4915,-17,64,-243,381,61,-4
4920,-17,63,-241,400,61,-1
4925,-21,68,-243,420,63,2
4930,-23,66,-245,436,65,5
4935,-19,64,-242,446,66,11
4940,-18,64,-242,453,65,18
4945,-20,62,-238,459,65,24
4950,-17,57,-243,463,61,29
4955,-19,58,-240,470,57,30
4960,-14,57,-239,475,53,30
4965,-16,55,-237,484,48,23
4970,-15,53,-234,495,42,19
4975,-14,49,-236,509,40,14
4980,-11,48,-237,526,37,7
4985,-16,48,-237,544,35,1
4990,-17,46,-235,567,33,-6
4995,-14,44,-233,590,34,-10
5000,-14,41,-238,616,36,-12
5005,-16,43,-237,644,37,-14
5010,-16,44,-239,675,39,-14
5015,-15,44,-239,706,40,-14
5020,-17,46,-242,736,40,-10
5025,-14,42,-244,762,41,-7
5030,-15,48,-245,788,43,-5
5035,-16,48,-248,809,44,-5
5040,-13,48,-247,826,45,-6
5045,-14,51,-252,837,45,-11
5050,-15,49,-247,840,47,-15
5055,-20,47,-250,837,50,-18
5060,-10,49,-254,825,55,-22
5065,-14,50,-251,811,59,-27
5070,-14,45,-254,792,63,-31
5075,-14,47,-253,770,67,-37
5080,-11,45,-248,748,69,-43
5085,-13,43,-249,730,72,-46
5090,-12,39,-248,713,71,-51
5095,-11,39,-247,704,69,-55
5100,-9,38,-248,696,67,-58
5105,-11,34,-246,694,64,-59
5110,-13,36,-245,693,61,-59
5115,-12,32,-249,697,58,-59
5120,-12,31,-250,701,55,-60
5125,-11,28,-246,704,50,-62
5130,-11,30,-250,706,45,-64
5135,-10,26,-251,705,44,-68
5140,-14,28,-255,701,40,-71
5145,-13,21,-251,693,38,-75
5150,-6,23,-250,684,37,-76
5155,-12,20,-253,676,37,-77
5160,-14,23,-253,671,37,-80
5165,-18,24,-255,664,35,-81
5170,-15,26,-253,658,33,-84
5175,-14,22,-256,650,36,-87
5180,-15,20,-257,641,37,-91
5185,-14,22,-257,634,38,-94
5190,-15,20,-257,623,42,-95
5195,-15,17,-259,607,45,-96
5200,-13,13,-259,590,49,-96
5205,-16,12,-255,574,53,-93
5210,-16,17,-255,558,58,-91
5215,-19,14,-256,546,60,-89
5220,-19,10,-254,537,61,-85
5225,-16,12,-256,530,61,-82
5230,-17,11,-253,526,61,-82
5235,-18,10,-254,522,61,-78
5240,-17,9,-252,516,63,-78
5245,-15,7,-254,512,64,-79
5250,-17,7,-252,507,64,-84
5255,-20,7,-250,503,64,-86
5260,-15,7,-250,500,65,-87
5265,-17,2,-243,497,68,-91
5270,-13,1,-252,497,70,-92
5275,-14,1,-252,494,68,-91
5280,-12,1,-251,491,66,-91
5285,-16,-2,-252,486,65,-91
5290,-10,-4,-249,484,61,-89
5295,-13,-4,-250,486,58,-90
5300,-17,-1,-253,491,57,-88
5305,-17,-3,-251,497,56,-86
5310,-16,-7,-251,506,55,-85
5315,-15,-10,-252,514,54,-86
5320,-18,-14,-250,523,54,-90
5325,-15,-6,-259,533,55,-89
5330,-18,-11,-255,540,58,-90
5335,-15,-11,-253,547,56,-91
5340,-11,-12,-254,556,54,-96
5345,-13,-10,-250,563,53,-101
5350,-12,-12,-253,565,54,-103
5355,-9,-13,-254,567,55,-106
5360,-8,-18,-252,568,56,-109
5365,-12,-17,-253,568,60,-108
5370,-7,-17,-251,566,58,-107
5375,-17,-19,-251,568,59,-107
5380,-10,-17,-250,569,59,-106
5385,-9,-17,-252,570,61,-102
5390,-9,-20,-252,572,61,-104
5395,-13,-20,-253,577,63,-103
5400,-12,-23,-253,581,63,-104
5405,-14,-19,-252,582,63,-106
5410,-12,-25,-252,587,67,-108
5415,-11,-25,-248,592,67,-110
5420,-13,-23,-252,594,69,-111
5425,-13,-22,-254,600,67,-116
5430,-12,-24,-252,611,67,-121
5435,-13,-28,-252,624,66,-119
5440,-10,-28,-252,639,66,-117
5445,-14,-28,-250,654,69,-111
5450,-15,-23,-253,665,71,-103
5455,-11,-30,-256,674,69,-102
5460,-8,-26,-251,680,71,-101
5465,-9,-28,-256,680,75,-97
5470,-7,-27,-255,681,75,-91
5475,-4,-27,-253,680,78,-88
5480,-1,-30,-252,680,84,-81
5485,-6,-27,-252,678,88,-74
5490,-8,-29,-251,677,90,-72
5495,-9,-26,-248,676,91,-70
5500,-8,-32,-245,679,96,-68
5505,-5,-36,-245,679,98,-66
5510,-8,-33,-248,682,96,-66
5515,-10,-35,-241,685,91,-62
5520,-3,-35,-250,686,86,-60
5525,-6,-40,-241,688,82,-58
5530,-5,-44,-247,690,80,-56
5535,-10,-46,-253,691,78,-52
5540,-8,-48,-249,694,76,-53
5545,-9,-47,-245,704,75,-53
5550,-11,-48,-248,714,77,-54
5555,-7,-51,-247,724,83,-56
5560,-7,-46,-250,736,91,-53
5565,-4,-47,-247,752,97,-49
5570,-7,-48,-244,765,105,-45
5575,-7,-52,-244,778,109,-37
5580,-8,-50,-238,789,110,-32
5585,-4,-45,-242,792,111,-26
5590,-9,-51,-242,790,112,-18
5595,-9,-49,-241,788,106,-16
5600,-8,-54,-243,787,97,-12
5605,-9,-56,-242,785,90,-9
5610,-8,-54,-242,784,90,-8
5615,-9,-56,-242,782,93,-3
5620,-11,-57,-244,779,93,2
5625,-10,-57,-245,777,91,5
5630,-12,-56,-243,776,89,8
5635,-8,-58,-242,776,87,14
5640,-8,-63,-251,777,88,17
5645,-6,-63,-242,780,89,20
5650,-2,-64,-245,783,90,18
5655,-5,-67,-248,785,89,14
5660,-7,-66,-247,789,87,13
5665,-8,-65,-245,792,87,13
5670,-7,-68,-247,797,86,15
5675,-3,-68,-245,801,83,17
5680,-8,-71,-243,799,78,20
5685,-4,-75,-239,798,72,23
5690,-1,-75,-239,795,66,22
5695,-2,-82,-236,791,59,23
5700,-6,-79,-237,786,56,23
5705,-7,-79,-235,779,54,24
5710,-6,-78,-237,773,54,23
5715,-6,-82,-236,771,55,24
5720,-5,-83,-233,775,55,28
5725,-5,-86,-230,782,55,31
5730,-2,-85,-234,794,57,33
5735,-4,-87,-235,806,59,39
5740,-3,-91,-238,822,60,43
5745,-6,-92,-230,838,61,44
5750,-4,-89,-237,851,62,46
5755,-7,-89,-234,858,61,49
5760,-5,-90,-226,862,58,47
5765,-3,-88,-225,862,55,47
5770,-4,-87,-224,857,55,45
5775,-5,-86,-228,850,58,45
5780,-2,-90,-226,843,61,42
5785,-4,-89,-229,836,68,40
5790,-5,-90,-223,831,75,40
5795,-3,-93,-224,824,81,38
5800,0,-98,-224,815,86,40
5805,0,-99,-220,808,84,40
5810,-4,-98,-223,802,81,40
5815,-2,-100,-221,799,75,42
5820,-2,-96,-226,800,66,41
5825,-3,-105,-224,801,59,37
5830,-5,-101,-218,807,54,36
5835,-5,-106,-221,815,49,36
5840,-3,-105,-217,822,48,35
5845,-1,-107,-224,825,47,35
5850,-6,-107,-219,825,52,35
5855,-2,-112,-222,825,56,39
5860,-3,-110,-220,825,57,41
5865,-5,-111,-220,826,56,43
5870,-5,-109,-225,828,52,41
5875,-7,-111,-223,829,50,42
5880,-6,-119,-218,831,47,44
5885,-1,-117,-216,834,47,44
5890,-5,-119,-218,838,51,44
5895,-9,-120,-218,845,56,43
5900,-8,-121,-219,850,60,44
5905,-6,-118,-219,855,64,44
5910,-5,-120,-215,860,68,47
5915,-2,-112,-207,865,71,50
5920,-8,-116,-215,870,74,49
5925,-2,-119,-210,874,72,50
5930,-2,-121,-212,876,69,52
5935,0,-122,-208,876,67,53
5940,-1,-123,-213,877,65,52
5945,-3,-124,-209,875,62,53
5950,0,-129,-207,870,57,54
5955,0,-129,-208,866,55,53
5960,-2,-127,-203,862,55,50
5965,-1,-131,-203,858,54,47
5970,1,-129,-203,857,59,45
5975,-1,-130,-205,854,60,43
5980,0,-128,-204,851,65,42
5985,2,-129,-207,847,73,41
5990,-3,-127,-206,844,79,43
5995,2,-129,-204,844,85,44
6000,5,-132,-207,847,89,45
6005,3,-135,-200,849,93,46
6010,0,-141,-200,854,94,47
6015,0,-137,-199,860,93,48
6020,0,-145,-199,868,92,50
6025,0,-143,-197,873,90,52
6030,-2,-145,-201,876,90,52
6035,0,-145,-199,879,92,54
6040,-2,-145,-199,878,95,55
6045,0,-145,-198,877,94,56
6050,1,-145,-195,876,97,53
6055,0,-147,-200,875,101,51
6060,0,-148,-192,872,106,51
6065,0,-147,-193,872,113,50
6070,0,-151,-194,871,119,49
6075,-7,-152,-191,872,127,50
6080,0,-155,-191,874,134,50
6085,-1,-154,-189,877,136,55
6090,0,-159,-186,879,136,56
6095,0,-156,-190,879,134,58
6100,2,-161,-189,881,134,58
6105,3,-160,-187,880,134,58
6110,1,-161,-187,882,136,57
6115,-1,-154,-192,880,137,62
6120,4,-157,-190,874,138,68
6125,9,-161,-186,868,137,70
6130,4,-157,-187,863,141,69
6135,1,-160,-180,859,146,72
6140,2,-163,-181,854,149,72
6145,0,-164,-178,847,156,71
6150,2,-166,-177,841,160,70
6155,1,-168,-175,834,161,72
6160,-1,-168,-168,831,158,69
6165,-4,-170,-172,828,152,65
6170,-5,-171,-168,827,145,63
6175,-8,-173,-171,826,142,58
6180,-5,-174,-168,827,136,55
6185,-4,-179,-167,825,131,52
6190,-3,-179,-170,827,128,54
6195,-2,-178,-171,828,126,53
6200,0,-181,-168,831,125,53
6205,-2,-182,-168,834,124,53
6210,1,-183,-167,838,124,56
6215,-1,-184,-169,843,122,58
6220,-2,-185,-162,846,119,61
6225,1,-190,-164,848,112,65
6230,-2,-190,-164,853,105,65
6235,0,-190,-162,859,103,64
6240,1,-194,-164,861,105,63
6245,3,-194,-166,863,108,62
6250,0,-192,-166,862,109,60
6255,3,-194,-165,859,113,59
6260,3,-196,-159,855,119,56
6265,1,-195,-162,848,123,51
6270,1,-196,-157,839,122,45
6275,1,-198,-156,833,121,35
6280,4,-199,-155,831,118,26
6285,2,-198,-150,831,117,19
6290,4,-197,-151,830,116,15
6295,2,-196,-162,832,116,13
6300,3,-198,-158,834,114,11
6305,3,-198,-148,832,108,9
6310,3,-200,-147,832,104,9
6315,4,-198,-150,828,102,11
6320,1,-196,-148,823,104,8
6325,4,-197,-147,817,107,4
6330,2,-198,-140,808,106,1
6335,0,-199,-142,801,104,-3
6340,4,-196,-135,794,103,-4
6345,3,-201,-142,792,104,-5
6350,4,-203,-133,790,101,-9
6355,3,-199,-137,788,100,-13
6360,3,-196,-141,786,101,-17
6365,2,-198,-135,784,104,-22
6370,4,-201,-136,782,107,-24
6375,4,-202,-136,779,110,-24
6380,7,-202,-131,771,108,-29
6385,6,-202,-133,763,105,-36
6390,8,-205,-129,761,101,-47
6395,2,-204,-128,769,92,-52
6400,0,-207,-128,778,85,-47
6405,0,-216,-126,783,77,-43
6410,3,-208,-128,789,72,-41
6415,3,-208,-132,797,72,-38
6420,2,-209,-129,802,76,-35
6425,6,-208,-127,804,80,-35
6430,2,-205,-129,806,85,-39
6435,5,-208,-129,801,86,-41
6440,5,-214,-131,798,81,-39
6445,5,-210,-129,797,77,-39
6450,4,-210,-125,789,74,-42
6455,10,-211,-124,779,70,-41
6460,7,-211,-124,772,67,-44
6465,8,-216,-129,766,66,-45
6470,5,-214,-126,758,66,-46
6475,5,-214,-123,755,65,-49
6480,3,-215,-127,754,62,-51
6485,0,-216,-122,750,54,-52
6490,5,-219,-125,751,44,-52
6495,3,-216,-124,750,40,-51
6500,2,-216,-124,743,40,-54
6505,3,-217,-120,733,47,-54
6510,2,-214,-124,722,52,-54
6515,4,-217,-115,709,55,-54
6520,4,-217,-116,700,56,-57
6525,5,-216,-115,696,58,-59
6530,6,-217,-117,691,59,-58
6535,6,-219,-111,685,63,-58
6540,3,-218,-110,682,63,-57
6545,4,-217,-115,683,60,-55
6550,7,-217,-109,682,56,-53
6555,9,-218,-110,679,55,-50
6560,12,-223,-109,681,55,-48
6565,5,-222,-110,680,59,-46
6570,13,-219,-111,684,68,-47
6575,10,-217,-111,686,74,-46
6580,15,-217,-113,688,74,-40
6585,11,-214,-109,678,75,-44
6590,10,-212,-112,665,77,-45
6595,11,-216,-106,649,74,-45
6600,12,-212,-109,632,74,-45
6605,12,-212,-108,617,78,-48
6610,10,-214,-107,607,83,-47
6615,10,-216,-105,591,84,-44
6620,9,-217,-110,573,82,-42
6625,9,-215,-107,553,84,-40
6630,6,-217,-109,536,85,-38
6635,9,-218,-106,523,86,-35
6640,12,-219,-107,513,88,-35
6645,10,-218,-103,503,91,-34
6650,10,-218,-100,495,94,-32
6655,13,-220,-105,486,97,-31
6660,4,-217,-105,478,100,-29
6665,4,-219,-104,468,103,-28
6670,8,-223,-97,465,103,-25
6675,9,-224,-100,460,104,-25
6680,9,-222,-102,454,109,-24
6685,13,-221,-101,446,114,-25
6690,6,-220,-101,441,122,-24
6695,6,-216,-102,436,125,-17
6700,4,-219,-99,425,119,-12
6705,5,-220,-100,413,115,-7
6710,13,-225,-95,401,112,0
6715,6,-219,-98,387,116,-4
6720,7,-221,-95,374,116,-2
6725,7,-223,-95,365,115,-2
6730,12,-220,-96,355,114,-3
6735,9,-220,-100,343,116,-6
6740,11,-222,-101,335,121,-8
6745,10,-219,-99,324,126,-7
6750,6,-221,-97,313,135,-9
6755,7,-220,-96,300,139,-7
6760,6,-218,-96,286,137,-6
6765,12,-223,-97,275,135,-6
6770,10,-219,-95,264,134,-6
6775,2,-222,-99,256,136,-6
6780,5,-221,-94,246,130,-4
6785,5,-222,-94,231,123,-3
6790,7,-223,-94,219,119,-3
6795,8,-224,-96,207,118,-1
6800,6,-227,-92,199,120,1
6805,2,-227,-91,190,118,3
6810,2,-223,-92,178,115,7
6815,5,-228,-91,167,108,6
6820,6,-229,-92,154,107,8
6825,4,-226,-91,142,110,8
6830,5,-228,-93,135,111,8
6835,5,-227,-88,129,111,6
6840,1,-226,-96,124,109,7
6845,5,-227,-90,117,103,6
6850,3,-230,-88,111,100,5
6855,6,-230,-87,105,99,2
6860,6,-229,-86,101,100,3
6865,7,-232,-87,101,99,3
6870,7,-229,-82,97,99,2
6875,5,-233,-83,93,95,4
6880,7,-227,-87,87,88,5
6885,6,-230,-83,79,81,7
6890,6,-229,-85,69,75,9
6895,8,-228,-86,61,73,6
6900,1,-228,-89,53,71,6
6905,4,-231,-88,48,67,11
6910,9,-232,-89,44,63,9
6915,4,-231,-88,37,62,6
6920,9,-229,-87,37,61,5
6925,3,-233,-83,35,59,3
6930,10,-237,-80,33,56,0
6935,6,-235,-82,31,53,-4
6940,8,-232,-80,28,48,-8
6945,3,-232,-81,26,45,-11
6950,2,-231,-82,24,43,-13
6955,5,-232,-81,20,39,-15
6960,7,-233,-79,17,33,-16
6965,3,-234,-78,13,25,-18
6970,7,-235,-81,10,21,-21
6975,8,-233,-78,10,17,-22
6980,3,-232,-82,10,16,-23
6985,5,-237,-81,9,12,-24
6990,3,-234,-86,9,8,-26
6995,2,-231,-80,10,6,-27
7000,6,-237,-86,10,5,-30
7005,7,-247,-82,10,5,-31
7010,4,-236,-83,8,1,-30
7015,9,-234,-82,8,0,-31
7020,6,-236,-83,7,-3,-32
7025,8,-240,-78,6,-5,-30
7030,5,-237,-82,8,-5,-28
7035,8,-241,-80,11,-5,-27
7040,9,-240,-79,16,-5,-26
7045,9,-239,-81,21,-4,-26
7050,7,-239,-82,26,-5,-27
7055,7,-233,-74,29,-7,-26
7060,8,-237,-79,32,-5,-28
7065,2,-238,-80,34,-5,-26
7070,6,-239,-78,36,-8,-26
7075,7,-240,-82,41,-13,-27
7080,7,-241,-81,48,-14,-28
7085,7,-240,-82,57,-15,-26
7090,8,-243,-80,67,-15,-25
7095,4,-240,-76,74,-16,-25
7100,9,-237,-80,82,-15,-24
7105,9,-238,-80,87,-15,-24
7110,3,-230,-79,91,-17,-25
7115,9,-238,-78,92,-20,-26
7120,2,-236,-79,96,-22,-26
7125,6,-235,-76,99,-23,-27
7130,4,-237,-77,105,-27,-27
7135,2,-234,-80,107,-31,-27
7140,3,-234,-77,112,-34,-26
7145,5,-239,-79,115,-38,-25
7150,4,-236,-74,115,-40,-25
7155,8,-234,-77,112,-39,-25
7160,8,-230,-77,107,-40,-24
7165,2,-235,-84,102,-40,-25
7170,6,-233,-78,96,-42,-26
7175,7,-234,-78,91,-44,-26
7180,5,-236,-78,84,-46,-28
7185,5,-233,-76,81,-48,-24
7190,6,-236,-78,80,-52,-25
7195,3,-233,-80,80,-57,-23
7200,3,-233,-80,84,-60,-23
7205,7,-233,-77,86,-61,-21
7210,5,-236,-81,89,-59,-20
7215,8,-239,-73,91,-58,-20
7220,6,-237,-78,91,-58,-19
7225,9,-236,-78,89,-58,-17
7230,7,-237,-73,91,-57,-18
7235,11,-239,-76,94,-54,-18
7240,5,-236,-78,98,-53,-18
7245,9,-238,-75,99,-53,-19
7250,7,-237,-76,102,-53,-17
7255,6,-235,-79,104,-52,-19
7260,10,-241,-76,107,-52,-19
7265,8,-238,-80,110,-50,-19
7270,7,-234,-79,112,-47,-20
7275,6,-232,-77,114,-42,-19
7280,12,-239,-79,114,-38,-19
7285,12,-238,-83,116,-35,-21
7290,9,-233,-80,118,-29,-21
7295,12,-235,-80,120,-23,-19
7300,9,-233,-79,121,-17,-20
7305,12,-235,-78,123,-11,-22
7310,9,-232,-82,121,-8,-20
7315,9,-234,-79,120,-7,-20
7320,9,-232,-79,118,-7,-20
7325,11,-235,-80,114,-4,-19
7330,9,-234,-79,110,-3,-20
7335,10,-233,-78,104,0,-21
7340,9,-231,-83,101,3,-20
7345,12,-234,-82,97,5,-18
7350,11,-237,-75,94,7,-17
7355,8,-233,-75,93,11,-17
7360,10,-231,-80,93,16,-14
7365,13,-235,-78,92,20,-13
7370,9,-232,-80,90,22,-11
7375,7,-231,-83,89,26,-7
7380,7,-236,-80,85,30,-6
7385,10,-239,-80,81,32,-5
7390,7,-234,-77,80,34,-4
7395,8,-236,-77,76,33,-3
7400,6,-236,-78,74,33,-3
7405,9,-232,-78,71,35,-2
7410,6,-237,-77,69,36,-3
7415,7,-236,-74,67,36,-2
7420,4,-233,-78,68,37,-2
7425,5,-238,-76,68,39,-2
7430,7,-235,-77,72,42,-4
7435,8,-236,-77,72,43,-4
7440,6,-232,-79,74,44,-3
7445,7,-234,-76,72,43,-4
7450,4,-234,-77,72,42,-4
7455,6,-233,-78,71,40,-5
7460,7,-235,-76,71,38,-4
7465,8,-235,-75,69,36,-3
7470,7,-234,-76,65,32,-2
7475,8,-231,-76,62,31,-3
7480,5,-235,-79,61,27,-4
7485,8,-234,-79,59,27,-4
7490,14,-234,-77,55,25,-6
7495,5,-233,-79,51,25,-5
7500,4,-236,-77,50,24,-4
7505,4,-235,-76,47,23,-4
7510,7,-235,-78,44,22,-5
7515,8,-236,-75,42,21,-5
7520,6,-235,-77,42,24,-6
7525,7,-238,-77,40,26,-6
7530,5,-237,-75,42,27,-6
7535,8,-237,-73,42,27,-7
7540,8,-230,-77,44,26,-7
7545,4,-240,-76,43,25,-6
7550,9,-238,-75,44,23,-6
7555,9,-233,-76,44,22,-7
7560,8,-237,-75,42,20,-7
7565,5,-233,-79,42,19,-9
7570,8,-234,-80,40,17,-8
7575,7,-238,-75,39,17,-8
7580,7,-235,-76,36,17,-8
7585,7,-236,-75,35,17,-8
7590,7,-236,-75,34,18,-9
7595,9,-233,-83,35,20,-8
7600,7,-232,-75,33,22,-10
7605,4,-233,-75,31,21,-10
7610,9,-234,-77,28,20,-12
7615,5,-234,-73,24,19,-13
7620,5,-236,-73,21,19,-14
7625,6,-235,-71,18,19,-13
7630,9,-237,-75,17,19,-14
7635,3,-234,-72,16,18,-14
7640,4,-236,-73,16,16,-13
7645,6,-235,-72,17,17,-14
7650,11,-237,-73,20,15,-13
7655,13,-236,-72,21,13,-15
7660,6,-235,-76,22,12,-15
7665,8,-235,-77,21,11,-14
7670,8,-233,-74,19,9,-14
7675,9,-234,-75,15,8,-14
7680,8,-236,-75,11,8,-15
7685,8,-237,-78,9,7,-16
7690,6,-236,-76,7,6,-15
7695,9,-233,-76,6,5,-16
7700,5,-234,-81,5,4,-16
7705,7,-241,-78,6,5,-14
7710,6,-236,-81,6,5,-15
7715,6,-232,-79,6,5,-14
7720,5,-235,-76,6,6,-11
7725,9,-237,-78,5,7,-10
7730,8,-237,-78,3,9,-10
7735,3,-235,-76,5,11,-9
7740,5,-239,-76,6,12,-9
7745,7,-241,-75,10,13,-9
7750,7,-237,-81,13,13,-8
7755,5,-235,-78,17,14,-8
7760,8,-239,-72,21,15,-9
7765,3,-236,-75,26,17,-8
7770,8,-237,-78,30,20,-10
7775,6,-238,-75,33,20,-10
7780,7,-241,-76,36,20,-12
7785,6,-236,-75,39,22,-11
7790,7,-239,-74,41,20,-13
7795,10,-239,-74,42,21,-14
7800,7,-240,-79,43,21,-15
7805,7,-237,-77,43,20,-12
7810,8,-239,-75,42,18,-13
7815,10,-236,-79,41,18,-12
7820,10,-236,-73,38,16,-11
7825,9,-237,-76,36,16,-12
7830,8,-235,-76,34,15,-12
7835,12,-236,-76,33,14,-11
7840,8,-237,-73,35,14,-12
7845,8,-234,-77,38,14,-12
7850,6,-235,-79,41,13,-12
7855,7,-237,-79,43,11,-12
7860,7,-236,-79,45,11,-14
7865,7,-237,-78,44,12,-12
7870,7,-234,-76,44,11,-12
7875,6,-239,-79,46,8,-14
7880,6,-235,-80,48,7,-13
7885,8,-236,-78,51,6,-13
7890,6,-235,-82,54,3,-13
7895,8,-235,-81,59,2,-12
7900,5,-234,-76,61,2,-12
7905,9,-236,-79,61,0,-13
7910,5,-231,-82,56,1,-11
7915,6,-234,-80,52,0,-11
7920,7,-236,-80,46,-2,-11
7925,5,-237,-80,42,-1,-12
7930,2,-236,-79,41,-1,-12
7935,7,-236,-78,42,0,-15
7940,9,-236,-78,44,-1,-17
7945,6,-237,-78,48,-1,-14
7950,11,-236,-80,55,0,-13
7955,7,-236,-77,59,1,-14
7960,8,-234,-77,64,1,-15
7965,5,-236,-83,68,2,-14
7970,7,-237,-81,72,1,-13
7975,11,-236,-78,76,0,-15
7980,7,-230,-79,77,-1,-15
7985,5,-233,-81,79,-2,-14
7990,7,-230,-80,80,-3,-14
7995,8,-234,-81,78,-5,-15
8000,6,-233,-83,75,-4,-14
8005,10,-233,-77,70,-3,-15
8010,8,-235,-83,65,-3,-15
8015,8,-237,-80,61,-2,-15
8020,7,-233,-85,60,-2,-14
8025,8,-237,-76,58,-2,-14
8030,10,-237,-83,57,-3,-13
8035,6,-236,-85,58,-2,-15
8040,6,-237,-81,59,-1,-15
8045,9,-236,-82,60,-2,-14
8050,9,-235,-78,62,-1,-14
8055,9,-240,-81,65,-1,-15
8060,8,-236,-82,69,-2,-13
8065,10,-237,-83,73,-2,-12
8070,8,-235,-84,78,-2,-13
8075,8,-233,-79,80,-2,-15
8080,7,-233,-81,82,-1,-15
8085,8,-232,-83,82,-1,-13
8090,15,-237,-73,80,-1,-13
8095,10,-234,-81,79,-1,-13
8100,8,-235,-79,78,0,-14
8105,10,-235,-82,78,1,-15
8110,8,-237,-81,79,0,-14
8115,11,-237,-79,78,0,-15
8120,5,-233,-77,80,1,-13
8125,8,-235,-82,81,1,-12
8130,7,-234,-81,80,1,-14
8135,9,-233,-78,79,-1,-13
8140,6,-238,-72,79,0,-13
8145,9,-238,-84,78,-1,-11
8150,8,-235,-78,75,-2,-12
8155,9,-234,-81,75,-2,-11
8160,6,-231,-81,74,-2,-12
8165,5,-236,-79,73,-1,-12
8170,7,-236,-81,72,-1,-12
8175,9,-236,-80,71,-2,-13
8180,5,-234,-81,71,-2,-12
8185,9,-234,-81,69,-2,-13
8190,7,-234,-78,67,0,-13
8195,8,-236,-80,67,-1,-11
8200,8,-235,-81,66,-1,-13
8205,8,-236,-75,64,1,-12
8210,11,-236,-78,65,1,-12
8215,9,-235,-77,63,3,-10
8220,9,-235,-76,64,4,-12
8225,11,-237,-78,66,3,-13
8230,7,-234,-79,66,4,-16
8235,10,-236,-79,66,3,-14
8240,9,-235,-78,67,2,-14
8245,10,-238,-80,65,2,-15
8250,9,-238,-80,64,3,-14
8255,11,-233,-81,64,1,-15
8260,6,-234,-75,62,3,-14
8265,8,-237,-80,61,1,-14
8270,9,-236,-75,60,2,-14
8275,11,-236,-79,60,0,-13
8280,7,-238,-78,58,0,-14
8285,8,-235,-75,58,-3,-13
8290,8,-239,-76,57,-2,-14
8295,9,-239,-80,55,-2,-14
8300,11,-235,-83,56,-2,-14
8305,7,-237,-74,55,-3,-14
8310,5,-238,-76,53,-1,-12
8315,8,-233,-78,52,0,-12
8320,6,-234,-77,50,0,-14
8325,7,-235,-76,49,2,-13
8330,6,-234,-80,47,2,-14
8335,12,-236,-73,47,3,-14
8340,7,-234,-74,47,3,-16
8345,9,-237,-72,48,3,-16
8350,9,-235,-76,49,3,-16
8355,6,-233,-79,49,1,-15
8360,9,-237,-78,50,2,-16
8365,7,-239,-83,50,2,-17
8370,8,-239,-77,50,1,-18
8375,7,-237,-73,51,3,-17
8380,9,-235,-77,51,2,-18
8385,7,-235,-78,52,4,-17
8390,9,-237,-77,53,4,-17
8395,7,-235,-74,50,4,-16
8400,9,-236,-78,48,2,-17
8405,9,-235,-73,46,3,-18
8410,11,-236,-75,46,2,-19
8415,8,-237,-71,47,1,-16
8420,6,-233,-81,49,3,-17
8425,7,-235,-77,50,3,-17
8430,8,-237,-72,50,3,-16
8435,7,-235,-77,52,4,-17
8440,11,-237,-74,52,4,-18
8445,9,-236,-72,53,7,-17
8450,9,-235,-74,54,7,-18
8455,6,-239,-80,56,8,-18
8460,5,-236,-76,58,8,-18
8465,10,-242,-74,61,8,-17
8470,6,-234,-71,63,8,-16
8475,12,-244,-73,64,8,-16
8480,8,-237,-74,66,6,-15
8485,11,-236,-73,67,6,-15
8490,9,-236,-74,69,7,-16
8495,8,-238,-78,70,8,-14
8500,7,-237,-75,71,9,-14
8505,6,-236,-77,71,7,-13
8510,10,-235,-72,71,8,-14
8515,7,-235,-72,72,8,-13
8520,10,-235,-73,71,8,-14
8525,9,-237,-76,70,8,-15
8530,4,-235,-72,69,8,-15
8535,8,-234,-75,67,9,-15
8540,7,-237,-74,64,9,-15
8545,8,-235,-74,63,6,-16
8550,5,-233,-77,61,6,-16
8555,8,-237,-78,61,5,-17
8560,10,-239,-76,63,3,-19
8565,5,-236,-75,66,5,-17
8570,9,-237,-73,70,5,-16
8575,6,-237,-77,73,4,-17
8580,13,-236,-75,75,5,-15
8585,8,-234,-77,72,6,-13
8590,7,-235,-79,68,8,-13
8595,12,-236,-75,66,8,-14
8600,9,-236,-78,64,10,-11
8605,8,-234,-77,65,10,-10
8610,7,-235,-77,64,11,-10
8615,8,-237,-77,64,12,-11
8620,6,-234,-74,64,12,-11
8625,9,-242,-71,64,13,-9
8630,10,-238,-74,66,13,-10
8635,7,-236,-67,70,13,-9
8640,5,-237,-73,71,14,-10
8645,6,-235,-72,76,13,-9
8650,6,-236,-76,78,13,-9
8655,8,-237,-74,81,12,-9
8660,8,-237,-76,82,12,-7
8665,8,-236,-75,83,11,-8
8670,6,-235,-77,81,9,-9
8675,7,-234,-78,78,9,-9
8680,7,-238,-78,74,8,-11
8685,9,-234,-71,71,8,-9
8690,9,-235,-77,67,9,-9
8695,8,-237,-76,63,11,-7
8700,8,-236,-74,58,12,-8
8705,6,-235,-76,57,13,-8
8710,8,-238,-77,56,15,-7
8715,8,-240,-77,53,18,-7
8720,8,-235,-75,52,20,-6
8725,8,-236,-78,51,22,-7
8730,6,-236,-81,49,24,-6
8735,9,-236,-75,47,28,-6
8740,9,-232,-78,49,29,-9
8745,9,-229,-77,50,29,-9
8750,6,-244,-76,53,31,-10
8755,7,-235,-76,56,30,-9
8760,6,-234,-76,58,30,-9
8765,5,-235,-76,59,29,-8
8770,8,-236,-76,61,27,-10
8775,11,-238,-75,61,27,-7
8780,10,-237,-71,58,27,-9
8785,5,-234,-74,56,26,-8
8790,4,-236,-77,53,26,-7
8795,8,-236,-78,50,27,-7
8800,9,-233,-81,48,27,-8
8805,9,-238,-76,48,28,-8
8810,9,-238,-74,48,27,-8
8815,3,-234,-77,50,25,-9
8820,6,-236,-73,55,24,-9
8825,4,-236,-72,59,23,-9
8830,5,-236,-78,64,23,-10
8835,10,-239,-75,66,23,-10
8840,7,-241,-74,65,22,-10
8845,5,-237,-72,64,19,-11
8850,8,-239,-75,62,18,-9
8855,4,-234,-74,63,16,-10
8860,6,-237,-76,62,15,-11
8865,6,-236,-74,62,15,-11
8870,6,-237,-79,60,14,-11
8875,6,-237,-71,60,14,-12
8880,7,-235,-72,60,14,-10
8885,8,-239,-69,58,15,-11
8890,8,-240,-73,58,16,-11
8895,6,-234,-74,59,16,-11
8900,10,-241,-71,59,17,-12
8905,6,-239,-72,60,17,-12
8910,11,-242,-70,61,18,-13
8915,7,-240,-77,63,19,-13
8920,6,-237,-71,65,18,-12
8925,9,-235,-78,69,18,-13
8930,9,-237,-78,70,17,-13
8935,8,-240,-69,73,17,-13
8940,10,-238,-74,75,16,-12
8945,4,-233,-73,77,15,-13
8950,8,-235,-71,79,15,-12
8955,9,-234,-71,80,15,-13
8960,10,-238,-72,80,14,-13
8965,13,-235,-75,81,15,-15
8970,7,-234,-75,81,15,-12
8975,9,-234,-75,80,15,-13
8980,7,-235,-75,78,14,-11
8985,8,-237,-75,74,15,-13
8990,5,-235,-75,72,14,-12
8995,10,-238,-69,68,15,-12
9000,9,-235,-75,67,15,-10
9005,9,-236,-71,65,17,-12
9010,8,-234,-75,65,17,-10
9015,11,-239,-75,64,18,-11
9020,8,-232,-72,66,19,-11
9025,9,-236,-71,66,20,-9
9030,10,-239,-76,68,21,-10
9035,5,-239,-72,67,23,-10
9040,9,-240,-74,68,22,-11
9045,7,-239,-73,69,22,-11
9050,9,-239,-75,68,21,-10
9055,9,-241,-75,68,21,-9
9060,9,-234,-73,67,22,-10
9065,8,-235,-79,66,23,-10
9070,4,-232,-81,64,23,-9
9075,7,-236,-73,63,24,-8
9080,4,-237,-71,64,25,-7
9085,8,-238,-76,63,26,-7
9090,9,-233,-74,63,26,-8
9095,9,-236,-71,61,26,-7
9100,7,-235,-73,62,26,-8
9105,13,-240,-73,61,27,-7
9110,9,-234,-70,61,28,-6
9115,9,-239,-77,61,29,-7
9120,15,-234,-74,60,28,-8
9125,14,-236,-79,61,28,-7
9130,7,-236,-72,60,28,-8
9135,10,-238,-72,61,28,-9
9140,8,-237,-73,61,28,-9
9145,10,-236,-78,61,28,-8
9150,6,-236,-73,60,29,-8
9155,6,-236,-74,62,30,-8
9160,4,-235,-75,63,32,-8
9165,9,-239,-72,63,31,-9
9170,10,-239,-75,63,32,-10
9175,11,-242,-70,64,32,-8
9180,12,-239,-77,64,31,-7
9185,7,-236,-73,62,31,-7
9190,6,-236,-74,62,28,-6
9195,7,-237,-75,61,27,-7
9200,8,-237,-73,61,25,-8
9205,7,-235,-71,62,25,-10
9210,6,-236,-73,62,24,-10
9215,7,-235,-71,60,23,-11
9220,9,-234,-69,61,21,-11
9225,8,-241,-72,62,19,-12
9230,8,-239,-70,63,17,-11
9235,9,-241,-81,64,16,-11
9240,7,-238,-72,67,14,-10
9245,8,-240,-75,70,14,-11
9250,6,-235,-75,72,15,-11
9255,11,-234,-78,72,15,-9
9260,9,-239,-78,68,16,-9
9265,12,-234,-73,66,17,-9
9270,9,-237,-73,63,18,-9
9275,11,-235,-66,59,19,-7
9280,14,-236,-72,55,21,-8
9285,12,-236,-70,53,18,-7
9290,15,-233,-75,50,18,-9
9295,12,-239,-70,50,17,-8
9300,8,-238,-73,52,17,-8
9305,10,-242,-73,55,17,-10
9310,9,-240,-71,59,19,-10
9315,7,-240,-71,63,21,-10
9320,5,-239,-71,66,21,-10
9325,13,-237,-74,69,21,-10
9330,8,-239,-68,71,20,-11
9335,9,-238,-71,73,20,-12
9340,10,-241,-70,74,20,-14
9345,13,-242,-73,74,19,-12
9350,10,-238,-73,73,18,-13
9355,9,-239,-71,73,19,-12
9360,10,-235,-75,72,18,-12
9365,9,-236,-74,69,18,-13
9370,10,-235,-73,64,16,-12
9375,11,-237,-73,60,15,-11
9380,5,-235,-78,57,17,-10
9385,9,-241,-78,55,18,-10
9390,6,-239,-72,54,20,-9
9395,8,-233,-77,54,20,-9
9400,7,-237,-76,54,20,-11
9405,9,-239,-76,57,20,-10
9410,9,-238,-71,59,22,-11
9415,8,-239,-73,60,22,-11
9420,7,-236,-73,60,23,-11
9425,4,-235,-76,61,24,-9
9430,8,-238,-72,60,24,-9
9435,6,-234,-74,61,24,-9
9440,7,-237,-70,61,23,-9
9445,10,-241,-68,61,21,-10
9450,11,-237,-71,58,21,-9
9455,5,-234,-77,56,21,-9
9460,8,-239,-72,53,22,-11
9465,6,-232,-74,49,22,-11
9470,7,-237,-70,47,22,-12
9475,7,-237,-72,46,20,-12
9480,6,-234,-72,43,19,-12
9485,9,-239,-74,45,18,-11
9490,6,-236,-71,45,17,-11
9495,8,-237,-75,46,15,-11
9500,10,-236,-77,47,16,-12
9505,7,-239,-73,47,15,-11
9510,10,-242,-67,47,15,-11
9515,9,-239,-71,49,13,-11
9520,7,-238,-73,49,12,-11
9525,8,-236,-73,50,11,-11
9530,8,-239,-74,49,10,-10
9535,8,-239,-72,49,8,-11
9540,10,-239,-74,50,8,-11
9545,9,-240,-71,50,8,-12
9550,8,-237,-79,52,7,-14
9555,6,-236,-75,53,7,-14
9560,8,-236,-79,54,8,-13
9565,6,-237,-72,54,8,-12
9570,9,-238,-73,54,9,-10
9575,8,-236,-70,55,8,-12
9580,8,-235,-71,57,9,-13
9585,6,-237,-73,58,10,-10
9590,11,-236,-73,57,8,-12
9595,8,-238,-73,57,9,-14
9600,8,-234,-77,54,8,-14
9605,8,-236,-73,51,8,-14
9610,9,-235,-72,50,9,-14
9615,6,-237,-83,49,9,-13
9620,9,-235,-71,46,9,-13
9625,10,-238,-69,47,9,-13
9630,8,-238,-73,47,10,-13
9635,11,-236,-73,47,8,-14
9640,7,-237,-71,47,8,-13
9645,11,-238,-72,47,7,-14
9650,8,-236,-75,47,6,-13
9655,11,-234,-74,49,7,-14
9660,10,-236,-73,48,7,-13
9665,8,-238,-73,49,8,-14
9670,9,-234,-74,47,8,-12
9675,7,-234,-72,47,8,-14
9680,7,-238,-70,46,7,-13
9685,7,-237,-70,47,10,-12
9690,5,-235,-75,47,10,-13
9695,6,-240,-72,46,11,-13
9700,8,-237,-76,46,13,-12
9705,7,-238,-76,47,12,-14
9710,8,-235,-75,46,11,-13
9715,10,-238,-73,44,12,-13
9720,11,-236,-73,44,13,-14
9725,10,-235,-73,44,13,-12
9730,7,-234,-73,44,12,-13
9735,9,-240,-75,43,12,-14
9740,10,-237,-74,43,11,-13
9745,7,-237,-73,43,10,-12
9750,7,-237,-71,42,9,-14
9755,11,-237,-74,42,11,-13
9760,7,-235,-79,43,10,-14
9765,8,-240,-71,44,11,-13
9770,9,-238,-71,47,10,-12
9775,8,-239,-71,47,10,-13
9780,11,-242,-72,49,10,-10
9785,8,-239,-75,51,12,-13
9790,8,-238,-72,53,11,-13
9795,9,-239,-70,53,12,-12
9800,8,-237,-70,53,13,-12
9805,7,-238,-72,53,13,-12
9810,8,-237,-72,53,13,-10
9815,10,-237,-73,53,13,-11
9820,9,-237,-73,51,13,-11
9825,7,-239,-74,50,11,-14
9830,7,-238,-74,50,11,-13
9835,10,-235,-65,50,10,-13
9840,6,-235,-75,51,8,-13
9845,6,-236,-73,50,7,-13
9850,5,-236,-75,52,7,-12
9855,8,-235,-73,52,6,-13
9860,10,-236,-74,51,5,-12
9865,8,-237,-73,52,4,-12
9870,7,-237,-71,50,3,-14
9875,7,-237,-74,52,4,-14
9880,10,-236,-73,52,3,-14
9885,9,-235,-72,54,4,-13
9890,6,-240,-75,54,5,-14
9895,9,-236,-77,53,5,-13
9900,9,-235,-75,50,4,-12
9905,6,-236,-73,48,3,-11
9910,6,-236,-73,46,3,-14
9915,9,-239,-74,45,2,-14
9920,9,-235,-70,46,2,-12
9925,11,-236,-78,48,2,-12
9930,9,-236,-77,49,2,-12
9935,9,-237,-80,48,5,-11
9940,11,-239,-78,47,7,-10
9945,10,-239,-72,45,9,-10
9950,13,-240,-71,43,10,-11
9955,8,-237,-73,41,10,-12
9960,7,-235,-71,39,12,-11
9965,11,-240,-73,38,11,-11
9970,11,-236,-73,39,12,-11
9975,8,-236,-73,40,12,-10
9980,7,-236,-70,44,12,-10
9985,9,-237,-76,45,12,-11
9990,4,-237,-69,48,13,-10
9995,7,-241,-68,49,12,-12
10000,9,-235,-79,50,12,-14
10005,7,-240,-76,53,13,-12
10010,7,-236,-72,54,12,-12
10015,9,-238,-75,55,10,-14
10020,7,-237,-75,54,9,-12
10025,8,-237,-74,55,10,-12
10030,8,-238,-75,53,8,-13
10035,9,-236,-72,50,7,-12
10040,7,-235,-70,46,7,-11
10045,10,-238,-72,43,7,-11
10050,7,-237,-71,39,8,-12
10055,8,-235,-76,37,8,-12
10060,6,-236,-73,36,9,-12
10065,8,-238,-71,35,10,-12
10070,7,-235,-75,34,10,-12
10075,8,-235,-74,35,12,-11
10080,8,-235,-75,37,13,-10
10085,8,-236,-75,39,13,-10
10090,8,-238,-79,41,12,-10
10095,11,-237,-76,42,12,-11
10100,10,-236,-71,43,11,-8
10105,9,-237,-72,44,11,-10
10110,9,-237,-76,44,11,-10
10115,11,-239,-72,46,11,-8
10120,10,-239,-78,44,13,-8
10125,7,-236,-74,43,12,-9
10130,9,-237,-71,42,12,-9
10135,11,-235,-74,42,13,-10
10140,7,-233,-76,40,13,-9
10145,9,-238,-74,39,13,-10
10150,13,-236,-71,39,12,-12
10155,8,-236,-71,38,11,-12
10160,9,-240,-75,38,10,-11
10165,10,-236,-78,40,9,-12
10170,6,-237,-76,41,9,-12
10175,6,-235,-75,41,8,-12
10180,10,-236,-76,39,8,-10
10185,9,-236,-76,40,10,-11
10190,10,-237,-73,39,9,-10
10195,9,-238,-75,39,8,-9
10200,10,-238,-73,38,8,-9
10205,10,-233,-74,39,8,-9
10210,10,-238,-80,39,7,-10
10215,7,-237,-67,40,8,-10
10220,10,-238,-72,41,9,-9
10225,7,-236,-78,40,9,-10
10230,9,-238,-76,41,10,-10
10235,7,-237,-73,42,12,-9
10240,9,-235,-74,43,13,-10
10245,9,-240,-74,44,14,-12
10250,11,-235,-78,43,13,-12
10255,15,-239,-74,44,12,-12
10260,8,-241,-77,42,14,-11
10265,7,-238,-75,44,15,-10
10270,7,-235,-78,42,15,-11
10275,10,-238,-73,42,15,-12
10280,7,-234,-75,41,15,-11
10285,11,-237,-72,42,15,-10
10290,10,-241,-74,41,16,-10
10295,9,-236,-73,40,16,-9
10300,10,-239,-73,43,15,-10
10305,13,-241,-75,42,13,-11
10310,5,-237,-75,42,15,-10
10315,7,-234,-79,42,13,-11
10320,6,-233,-75,41,14,-9
10325,9,-239,-72,40,15,-10
10330,7,-234,-77,37,15,-9
10335,8,-235,-76,36,15,-10
10340,7,-234,-73,34,16,-9
10345,12,-237,-77,33,17,-10
10350,9,-238,-75,32,17,-11
10355,9,-235,-73,31,19,-9
10360,13,-236,-72,31,19,-9
10365,10,-235,-70,30,19,-9
10370,8,-240,-74,29,20,-8
10375,9,-238,-74,29,21,-9
10380,11,-236,-79,30,21,-9
10385,9,-239,-78,29,21,-10
10390,8,-238,-73,30,21,-11
10395,9,-240,-71,31,20,-10
10400,8,-237,-74,31,19,-11
10405,8,-237,-77,31,19,-11
10410,7,-237,-72,32,20,-12
10415,9,-241,-76,32,20,-11
10420,11,-241,-79,33,18,-10
10425,8,-235,-76,34,17,-10
10430,9,-234,-80,34,18,-7
10435,7,-236,-71,37,18,-9
10440,9,-239,-70,37,18,-11
10445,8,-238,-73,39,18,-11
10450,9,-239,-73,40,18,-11
10455,7,-237,-78,41,18,-11
10460,5,-236,-78,44,17,-12
10465,8,-236,-74,45,18,-12
10470,6,-240,-78,46,18,-13
10475,7,-238,-76,44,18,-13
10480,9,-238,-75,43,18,-13
10485,9,-237,-71,42,19,-13
10490,12,-239,-75,43,18,-13
10495,6,-237,-72,43,18,-13
10500,8,-237,-78,43,18,-12
10505,6,-237,-78,44,17,-13
10510,8,-237,-77,47,17,-11
10515,9,-237,-75,47,17,-12
10520,10,-236,-78,47,15,-13
10525,6,-233,-71,47,15,-11
10530,12,-238,-81,46,15,-11
10535,5,-235,-72,46,14,-12
10540,4,-233,-75,47,14,-12
10545,4,-233,-80,47,12,-12
10550,9,-236,-73,48,12,-14
10555,10,-234,-71,47,11,-13
10560,9,-236,-77,47,10,-13
10565,7,-237,-74,47,11,-13
10570,8,-237,-72,46,9,-14
10575,7,-241,-77,47,8,-14
10580,7,-240,-72,48,7,-14
10585,9,-239,-75,52,6,-12
10590,5,-230,-82,57,4,-14
10595,11,-237,-68,60,3,-12
10600,7,-232,-77,63,5,-12
10605,8,-235,-77,62,6,-12
10610,9,-233,-79,61,7,-10
10615,7,-234,-80,57,9,-10
10620,6,-236,-78,53,11,-10
10625,8,-233,-77,49,11,-10
10630,11,-238,-72,45,13,-11
10635,5,-235,-81,42,12,-12
10640,8,-235,-76,39,11,-11
10645,8,-238,-76,40,9,-11
10650,10,-240,-75,42,11,-11
10655,10,-238,-74,43,12,-11
10660,9,-236,-74,46,12,-10
10665,11,-237,-78,50,13,-9
10670,10,-241,-74,55,14,-10
10675,8,-238,-75,60,17,-8
10680,10,-238,-74,64,16,-8
10685,9,-235,-73,67,15,-9
10690,4,-238,-73,70,15,-10
10695,11,-235,-76,70,16,-10
10700,10,-234,-75,68,15,-10
10705,5,-235,-81,64,15,-10
10710,9,-235,-73,60,14,-10
10715,9,-236,-72,56,13,-10
10720,8,-236,-73,52,14,-10
10725,9,-236,-74,49,15,-9
10730,10,-237,-77,49,15,-9
10735,8,-235,-71,47,16,-8
10740,9,-238,-79,47,17,-9
10745,8,-238,-76,49,17,-8
10750,9,-238,-79,50,17,-8
10755,8,-237,-73,52,18,-7
10760,10,-229,-76,53,18,-9
10765,11,-237,-74,55,19,-9
10770,9,-237,-71,56,19,-8
10775,9,-235,-71,57,20,-8
10780,9,-236,-76,57,20,-6
10785,8,-236,-78,57,21,-7
10790,8,-235,-74,58,20,-7
10795,7,-236,-77,59,20,-7
10800,10,-236,-77,58,20,-8
10805,7,-235,-71,58,20,-9
10810,11,-237,-75,58,19,-8
10815,5,-236,-66,59,17,-9
10820,8,-236,-69,59,17,-9
10825,3,-237,-59,60,16,-9
10830,7,-232,-74,64,16,-10
10835,7,-241,-70,65,15,-10
10840,6,-234,-76,66,15,-11
10845,10,-244,-72,65,14,-11
10850,7,-228,-83,63,13,-9
10855,10,-234,-80,60,12,-10
10860,6,-236,-61,59,10,-8
10865,12,-241,-85,57,10,-10
10870,5,-231,-86,55,8,-10
10875,12,-245,-73,54,7,-10
10880,4,-243,-76,55,9,-11
10885,10,-236,-73,56,8,-12
10890,7,-237,-77,58,8,-11
10895,1,-236,-72,58,8,-10
10900,12,-241,-73,59,9,-10
10905,18,-240,-76,59,10,-11
10910,3,-240,-78,58,10,-9
10915,3,-238,-77,58,11,-9
10920,9,-238,-67,59,12,-11
10925,9,-237,-73,60,12,-10
10930,17,-236,-70,60,12,-10
10935,12,-244,-68,58,12,-12
10940,9,-239,-72,58,12,-12
10945,7,-237,-72,59,12,-13
10950,5,-233,-81,57,11,-13
10955,7,-241,-73,57,10,-12
10960,6,-240,-81,57,9,-13
10965,9,-240,-78,59,11,-15
10970,11,-235,-72,58,10,-13
10975,7,-235,-75,57,12,-13
10980,9,-237,-78,58,13,-14
10985,16,-246,-76,57,13,-11
10990,12,-238,-74,56,10,-12
10995,8,-238,-73,58,12,-12
11000,12,-239,-72,59,12,-11
11005,9,-240,-72,57,12,-11
11010,13,-239,-67,56,11,-10
11015,7,-239,-76,56,11,-10
11020,11,-232,-77,56,10,-10
11025,6,-238,-71,55,11,-10
11030,7,-230,-67,55,10,-10
11035,5,-234,-79,57,11,-10
11040,9,-237,-76,58,12,-9
11045,9,-236,-75,60,13,-11
11050,9,-238,-73,61,14,-11
11055,4,-238,-77,60,16,-10
11060,9,-233,-75,59,15,-11
11065,9,-237,-75,58,16,-10
11070,9,-238,-71,55,16,-10
11075,12,-237,-76,54,15,-10
11080,10,-239,-77,53,15,-9
11085,7,-236,-70,51,16,-10
11090,13,-235,-68,50,15,-9
11095,9,-236,-75,49,16,-9
11100,8,-237,-76,50,19,-10
11105,11,-237,-73,51,18,-8
11110,9,-238,-72,51,18,-9
11115,9,-239,-71,53,18,-11
11120,10,-239,-71,54,20,-12
11125,7,-242,-77,55,20,-12
11130,7,-238,-76,58,20,-10
11135,7,-239,-73,62,20,-9
11140,8,-238,-70,63,22,-10
11145,6,-238,-73,65,20,-11
11150,10,-240,-72,65,20,-11
11155,9,-236,-73,66,19,-11
11160,8,-237,-73,65,19,-11
11165,7,-237,-71,64,18,-13
11170,5,-239,-70,63,17,-11
11175,9,-238,-71,62,16,-11
11180,11,-237,-76,63,16,-10
11185,8,-237,-75,63,16,-10
11190,8,-239,-74,63,16,-9
11195,14,-238,-75,63,15,-11
11200,8,-235,-74,63,14,-11
11205,7,-234,-74,62,13,-10
11210,12,-238,-73,61,14,-12
11215,9,-237,-70,60,13,-11
11220,8,-236,-73,59,13,-11
11225,6,-237,-74,57,12,-13
11230,9,-236,-73,56,10,-13
11235,10,-244,-72,56,7,-13
11240,7,-237,-75,56,7,-13
11245,8,-236,-71,57,4,-13
11250,8,-238,-74,58,3,-13
11255,10,-238,-77,61,2,-12
11260,9,-235,-77,65,2,-12
11265,9,-238,-71,67,2,-11
11270,9,-236,-77,67,2,-12
11275,10,-239,-75,65,3,-12
11280,11,-240,-76,64,5,-11
11285,7,-239,-74,62,7,-9
11290,10,-236,-69,59,8,-9
11295,11,-239,-73,58,8,-9
11300,6,-234,-72,56,10,-10
11305,7,-232,-80,57,9,-12
11310,11,-240,-76,58,9,-11
11315,11,-237,-72,61,10,-11
11320,8,-237,-69,65,10,-11
11325,11,-238,-74,66,12,-11
11330,10,-237,-76,67,12,-11
11335,8,-236,-74,69,13,-11
11340,10,-234,-74,69,14,-12
11345,6,-237,-73,68,13,-12
11350,11,-232,-76,68,13,-12
11355,8,-235,-72,69,12,-11
11360,9,-237,-69,68,13,-11
11365,10,-236,-75,66,13,-11
11370,9,-235,-75,66,13,-12
11375,7,-233,-72,64,12,-11
11380,7,-235,-77,63,12,-11
11385,8,-238,-75,60,12,-10
11390,9,-235,-72,59,13,-9
11395,8,-236,-76,56,14,-10
11400,8,-235,-73,55,13,-10
11405,9,-236,-71,53,13,-10
11410,6,-232,-75,52,14,-9
11415,8,-234,-67,53,14,-9
11420,8,-237,-72,53,15,-10
11425,8,-236,-76,55,15,-9
11430,8,-238,-77,54,17,-8
11435,9,-237,-70,55,18,-8
11440,11,-236,-68,54,17,-7
11445,8,-237,-76,55,18,-8
11450,8,-240,-74,56,18,-8
11455,7,-235,-74,56,19,-7
11460,10,-240,-73,56,20,-9
11465,6,-239,-72,57,19,-8
11470,5,-240,-73,58,19,-9
11475,8,-237,-74,57,18,-11
11480,9,-237,-74,56,17,-12
11485,10,-238,-75,56,15,-11
11490,7,-234,-71,55,15,-12
11495,9,-235,-74,55,14,-12
11500,7,-235,-72,54,13,-12
11505,6,-236,-73,54,13,-12
11510,7,-239,-69,53,12,-10
11515,5,-239,-76,51,10,-9
11520,12,-240,-70,50,9,-9
11525,4,-240,-75,48,8,-9
11530,8,-237,-70,48,7,-11
11535,12,-239,-70,48,7,-10
11540,10,-239,-74,49,8,-11
11545,9,-239,-73,47,8,-12
11550,9,-241,-72,48,8,-11
11555,11,-238,-73,48,8,-11
11560,9,-239,-74,50,8,-9
11565,9,-233,-73,50,10,-9
11570,10,-238,-72,52,10,-11
11575,8,-236,-76,52,11,-12
11580,11,-239,-69,53,10,-10
11585,9,-236,-77,54,11,-11
11590,9,-238,-71,55,12,-11
11595,9,-234,-75,56,10,-11
11600,9,-237,-70,54,10,-10
11605,8,-237,-71,53,10,-12
11610,10,-238,-73,54,10,-11
11615,12,-237,-75,52,11,-11
11620,13,-237,-78,53,10,-11
11625,11,-236,-77,51,9,-11
11630,10,-244,-80,52,11,-11
11635,13,-239,-73,51,11,-11
11640,8,-235,-73,50,12,-11
11645,10,-238,-71,51,11,-11
11650,12,-239,-73,50,12,-12
11655,12,-237,-73,49,11,-11
11660,10,-239,-72,48,11,-13
11665,7,-235,-74,46,10,-11
11670,11,-235,-73,43,10,-10
11675,12,-241,-73,43,9,-10
11680,7,-237,-72,43,10,-11
11685,11,-238,-71,44,9,-11
11690,9,-234,-73,46,10,-9
11695,6,-236,-72,48,11,-10
11700,10,-236,-73,50,12,-9
11705,10,-235,-71,50,12,-11
11710,11,-238,-71,49,14,-10
11715,8,-234,-72,50,14,-9
11720,10,-240,-74,50,14,-9
11725,8,-233,-72,49,15,-10
11730,9,-241,-70,48,14,-10
11735,5,-236,-69,46,15,-10
11740,8,-237,-77,45,15,-10
11745,11,-239,-75,44,15,-10
11750,9,-236,-74,42,15,-10
11755,10,-238,-71,41,16,-10
11760,8,-236,-72,40,16,-11
11765,9,-236,-71,40,17,-11
11770,9,-240,-74,41,17,-10
11775,11,-240,-73,42,17,-10
11780,11,-239,-71,44,17,-9
11785,9,-239,-76,46,16,-9
11790,10,-234,-77,47,17,-10
11795,11,-241,-66,49,18,-9
11800,10,-240,-77,51,18,-8
11805,10,-238,-72,53,17,-10
11810,11,-241,-76,53,16,-10
11815,10,-236,-75,56,16,-10
11820,10,-234,-77,57,17,-10
11825,8,-237,-75,57,17,-11
11830,6,-236,-75,58,15,-11
11835,8,-237,-77,58,16,-12
11840,11,-235,-72,58,17,-11
11845,8,-235,-74,58,17,-12
11850,13,-234,-74,58,18,-12
11855,8,-237,-71,56,18,-13
11860,5,-236,-77,55,18,-11
11865,9,-238,-76,55,17,-12
11870,10,-238,-73,54,16,-11
11875,10,-236,-72,55,14,-11
11880,8,-236,-75,55,13,-13
11885,8,-236,-76,52,13,-13
11890,8,-239,-74,49,9,-12
11895,10,-239,-70,49,9,-11
11900,10,-235,-70,47,11,-11
11905,6,-237,-80,47,11,-12
11910,12,-238,-72,47,9,-14
11915,8,-237,-68,50,6,-14
11920,12,-237,-75,54,4,-14
11925,7,-235,-71,56,3,-13
11930,10,-237,-77,58,4,-10
11935,10,-237,-73,58,6,-10
11940,11,-234,-78,56,8,-9
11945,10,-232,-77,52,12,-8
11950,8,-238,-80,51,14,-8
11955,8,-238,-76,47,15,-9
11960,5,-242,-84,44,15,-9
11965,9,-235,-72,43,14,-9
11970,10,-236,-74,43,13,-10
11975,8,-239,-70,42,13,-10
11980,9,-240,-72,44,13,-10
11985,9,-237,-72,47,14,-12
11990,8,-239,-73,51,14,-10
