timestamp,acc_x,acc_y,acc_z,gyro_x,gyro_y,gyro_z
0,35,-267,-47,98,-97,-123
5,39,-271,-48,90,-90,-123
10,39,-271,-52,82,-84,-124
15,34,-273,-50,76,-81,-123
20,33,-276,-53,73,-80,-118
25,34,-281,-52,73,-83,-113
30,31,-279,-51,74,-91,-108
35,31,-281,-54,76,-101,-99
40,29,-283,-52,79,-114,-88
45,34,-282,-48,84,-129,-78
50,30,-284,-52,88,-144,-65
55,31,-283,-46,95,-159,-50
60,29,-279,-49,106,-174,-36
65,31,-278,-46,115,-189,-18
70,30,-279,-47,127,-203,-3
75,37,-276,-37,142,-216,14
80,27,-273,-42,158,-228,29
85,31,-273,-52,172,-237,42
90,32,-267,-40,183,-243,54
95,33,-263,-40,194,-244,64
100,36,-260,-38,205,-242,72
105,38,-259,-40,211,-238,79
110,38,-261,-36,215,-231,85
115,40,-255,-32,216,-223,90
120,39,-255,-30,215,-215,92
125,37,-252,-33,218,-204,93
130,34,-255,-36,217,-193,93
135,43,-251,-35,215,-180,88
140,42,-249,-35,211,-166,85
145,40,-246,-31,207,-151,78
150,42,-248,-33,202,-136,72
155,43,-247,-29,195,-119,66
160,44,-246,-28,184,-101,58
165,43,-246,-31,174,-81,50
170,42,-246,-29,163,-62,41
175,42,-249,-30,153,-42,34
180,42,-248,-31,142,-23,27
185,47,-244,-26,128,-6,18
190,43,-255,-28,114,8,13
195,41,-254,-31,100,20,8
200,39,-254,-27,85,29,3
205,40,-258,-34,73,37,-3
210,36,-258,-32,62,42,-4
215,36,-260,-33,54,45,-5
220,40,-263,-30,49,46,-5
225,35,-266,-35,46,47,-5
230,37,-263,-32,43,49,-5
235,34,-269,-38,45,48,-7
240,35,-263,-37,47,47,-8
245,31,-266,-35,48,46,-9
250,35,-270,-38,51,46,-10
255,31,-265,-34,55,44,-11
260,31,-267,-35,61,41,-12
265,29,-266,-41,68,41,-12
270,33,-264,-38,74,37,-12
275,30,-265,-43,81,32,-13
280,32,-264,-39,87,25,-15
285,30,-264,-39,93,19,-14
290,32,-261,-34,98,14,-13
295,33,-258,-38,101,10,-13
300,35,-258,-40,100,7,-11
305,33,-259,-42,98,5,-11
310,32,-257,-38,91,2,-8
315,31,-259,-36,86,0,-5
320,31,-257,-32,78,-2,-2
325,32,-255,-32,68,-3,3
330,31,-258,-31,58,-3,7
335,27,-257,-31,49,-3,11
340,30,-262,-27,40,0,15
345,34,-258,-30,35,1,19
350,30,-260,-26,31,3,21
355,32,-259,-24,30,6,22
360,31,-260,-22,31,8,26
365,30,-258,-25,32,11,25
370,36,-260,-25,37,14,24
375,34,-261,-28,42,17,23
380,38,-260,-22,48,19,19
385,32,-258,-21,53,23,16
390,35,-257,-27,57,28,13
395,39,-260,-28,59,34,8
400,38,-266,-31,58,39,5
405,42,-261,-22,56,47,-3
410,40,-257,-25,53,54,-7
415,42,-258,-28,48,62,-13
420,44,-259,-28,42,71,-17
425,46,-260,-26,36,79,-22
430,44,-258,-28,28,85,-26
435,47,-259,-27,23,91,-30
440,39,-258,-28,17,98,-32
445,43,-259,-30,11,106,-35
450,43,-259,-26,5,114,-36
455,43,-259,-28,4,120,-39
460,41,-260,-29,3,124,-40
465,37,-257,-27,0,127,-40
470,38,-260,-25,0,129,-40
475,36,-261,-27,1,130,-39
480,33,-258,-28,5,132,-41
485,34,-260,-26,5,134,-42
490,35,-262,-27,10,137,-42
495,31,-262,-30,15,139,-44
500,28,-260,-23,18,142,-44
505,31,-264,-23,22,148,-46
510,28,-264,-25,25,152,-47
515,32,-262,-23,28,155,-48
520,30,-262,-23,31,159,-48
525,32,-265,-26,32,161,-50
530,33,-265,-26,34,163,-47
535,35,-269,-20,32,164,-46
540,33,-268,-23,34,165,-44
545,32,-268,-23,38,164,-44
550,34,-271,-23,43,161,-41
555,31,-270,-21,48,155,-39
560,35,-272,-22,57,150,-35
565,34,-271,-18,62,143,-30
570,33,-270,-24,69,137,-25
575,32,-267,-20,75,130,-19
580,31,-268,-19,83,126,-14
585,31,-268,-22,91,120,-9
590,32,-266,-21,96,118,-7
595,31,-264,-18,101,116,-2
600,29,-264,-19,105,116,1
605,28,-260,-20,108,119,3
610,32,-260,-21,109,119,6
615,29,-259,-10,110,120,11
620,30,-258,-18,109,121,13
625,26,-257,-14,106,122,14
630,28,-256,-19,104,120,16
635,28,-257,-15,98,119,16
640,30,-254,-16,90,118,16
645,29,-256,-15,82,117,16
650,32,-256,-13,77,116,15
655,29,-253,-15,69,113,14
660,31,-256,-14,63,113,12
665,31,-255,-8,56,110,11
670,35,-254,-15,52,108,10
675,30,-256,-15,49,106,8
680,32,-258,-15,46,102,5
685,31,-258,-11,44,100,3
690,29,-256,-9,39,98,3
695,29,-256,-13,40,97,1
700,33,-260,-18,40,95,2
705,30,-259,-14,41,93,-1
710,30,-260,-14,42,92,-1
715,27,-256,-13,43,89,-4
720,30,-261,-13,43,87,-6
725,27,-266,-19,42,86,-5
730,27,-258,-13,43,84,-6
735,28,-258,-15,42,82,-6
740,29,-261,-13,42,79,-4
745,27,-260,-18,41,77,-3
750,27,-258,-18,44,72,0
755,28,-262,-14,42,68,0
760,26,-262,-13,43,66,3
765,29,-262,-14,45,64,5
770,27,-261,-18,47,59,5
775,25,-260,-9,48,56,4
780,28,-262,-13,51,53,4
785,27,-259,-11,52,49,6
790,29,-260,-11,53,47,4
795,30,-263,-15,53,45,5
800,30,-258,-14,54,42,5
805,29,-260,-12,53,41,5
810,32,-263,-15,56,40,4
815,31,-262,-10,57,37,5
820,30,-260,-11,60,36,6
825,27,-260,-21,63,34,5
830,32,-264,-14,62,32,5
835,29,-265,-6,65,30,6
840,31,-262,-16,67,27,8
845,29,-263,-19,72,24,10
850,29,-265,-14,74,19,14
855,28,-263,-16,80,13,17
860,28,-265,-19,85,6,19
865,26,-266,-18,91,-1,23
870,25,-267,-20,98,-9,26
875,24,-264,-24,105,-15,27
880,26,-264,-20,112,-20,29
885,32,-265,-20,120,-21,30
890,28,-264,-18,129,-24,32
895,28,-266,-23,134,-24,34
900,29,-263,-20,141,-23,34
905,32,-263,-18,148,-21,34
910,26,-261,-17,152,-21,34
915,27,-261,-16,158,-19,34
920,31,-258,-19,159,-17,35
925,28,-259,-21,160,-17,33
930,29,-259,-14,159,-17,33
935,29,-259,-18,157,-19,33
940,30,-258,-27,153,-22,33
945,28,-258,-18,149,-26,34
950,29,-257,-18,146,-29,34
955,29,-255,-16,142,-33,34
960,30,-255,-14,140,-38,35
965,29,-255,-19,136,-43,34
970,28,-257,-19,133,-47,34
975,26,-255,-19,129,-49,34
980,27,-254,-21,123,-51,35
985,29,-255,-14,114,-52,34
990,30,-256,-22,103,-52,33
995,30,-252,-20,94,-50,30
1000,27,-254,-18,84,-49,31
1005,27,-255,-22,72,-44,30
1010,29,-256,-15,60,-40,27
1015,28,-255,-17,47,-31,26
1020,29,-256,-19,36,-24,23
1025,29,-255,-23,24,-18,21
1030,28,-255,-14,12,-15,18
1035,25,-254,-19,0,-15,15
1040,26,-255,-18,-10,-16,10
1045,26,-255,-18,-23,-18,7
1050,29,-256,-20,-35,-19,5
1055,28,-252,-14,-46,-21,3
1060,27,-256,-12,-58,-23,2
1065,28,-255,-14,-68,-25,2
1070,26,-253,-12,-79,-27,4
1075,28,-256,-15,-86,-30,2
1080,27,-254,-17,-94,-32,4
1085,30,-256,-12,-98,-35,2
1090,28,-254,-14,-103,-34,1
1095,30,-255,-12,-110,-34,0
1100,31,-256,-17,-115,-34,0
1105,30,-254,-14,-124,-32,-1
1110,30,-256,-16,-131,-29,-2
1115,28,-252,-17,-139,-26,-2
1120,30,-257,-15,-150,-26,-4
1125,27,-255,-17,-156,-22,-5
1130,29,-254,-16,-163,-21,-6
1135,27,-256,-12,-168,-21,-5
1140,24,-255,-14,-173,-22,-5
1145,26,-256,-9,-180,-24,-6
1150,25,-256,-10,-184,-24,-7
1155,22,-255,-15,-189,-27,-5
1160,26,-257,-12,-194,-29,-5
1165,22,-255,-16,-201,-33,-4
1170,25,-256,-12,-203,-34,-2
1175,26,-256,-16,-205,-32,-2
1180,26,-257,-13,-207,-32,-2
1185,25,-255,-13,-210,-34,1
1190,24,-257,-12,-210,-33,-1
1195,27,-257,-16,-212,-34,-2
1200,25,-260,-13,-214,-34,-2
1205,26,-258,-16,-218,-34,-1
1210,31,-251,-12,-220,-34,-3
1215,25,-256,-15,-222,-36,-4
1220,26,-254,-13,-226,-38,-6
1225,29,-256,-15,-230,-39,-8
1230,25,-252,-13,-234,-42,-12
1235,28,-254,-9,-240,-43,-15
1240,29,-255,-15,-245,-44,-21
1245,32,-256,-10,-250,-48,-22
1250,28,-256,-10,-258,-51,-23
1255,28,-256,-15,-261,-54,-24
1260,27,-253,-8,-267,-57,-27
1265,27,-255,-12,-271,-61,-28
1270,26,-255,-11,-276,-63,-29
1275,27,-255,-12,-281,-64,-30
1280,28,-256,-10,-285,-64,-30
1285,30,-256,-12,-287,-63,-31
1290,27,-256,-10,-289,-63,-31
1295,24,-256,-11,-291,-62,-30
1300,30,-259,-14,-292,-64,-30
1305,27,-257,-7,-297,-65,-30
1310,26,-259,-7,-298,-66,-28
1315,24,-256,-2,-298,-70,-27
1320,25,-259,-8,-298,-72,-24
1325,25,-258,-5,-296,-76,-21
1330,26,-259,-3,-296,-77,-19
1335,25,-259,-5,-295,-77,-17
1340,26,-260,-6,-294,-76,-15
1345,25,-260,-3,-292,-74,-17
1350,26,-259,-6,-289,-70,-16
1355,27,-262,-7,-285,-66,-17
1360,29,-266,-2,-281,-62,-19
1365,27,-267,-7,-275,-58,-22
1370,22,-267,-5,-268,-56,-22
1375,29,-270,-2,-263,-56,-26
1380,29,-267,-5,-256,-53,-27
1385,28,-266,-2,-249,-50,-29
1390,30,-268,-8,-242,-46,-32
1395,28,-269,-8,-232,-40,-36
1400,32,-269,-6,-224,-35,-39
1405,34,-269,-3,-216,-29,-42
1410,34,-269,-1,-208,-24,-44
1415,31,-269,-4,-200,-20,-46
1420,34,-266,0,-195,-15,-48
1425,32,-268,0,-190,-11,-51
1430,33,-270,-8,-185,-7,-54
1435,37,-269,-6,-178,-4,-54
1440,32,-268,-4,-176,-2,-55
1445,36,-264,-1,-171,-2,-55
1450,36,-266,-8,-167,-2,-57
1455,33,-265,-8,-163,-1,-56
1460,32,-265,-7,-160,0,-57
1465,31,-266,-11,-158,0,-57
1470,30,-263,-10,-154,2,-57
1475,28,-266,-11,-152,2,-57
1480,30,-260,-11,-149,3,-59
1485,31,-265,-10,-148,6,-59
1490,27,-264,-15,-147,7,-58
1495,29,-263,-17,-145,8,-58
1500,27,-262,-16,-142,11,-59
1505,33,-263,-12,-141,11,-58
1510,28,-264,-12,-139,17,-57
1515,34,-268,-16,-135,20,-56
1520,29,-263,-13,-131,22,-57
1525,29,-264,-18,-126,25,-55
1530,31,-263,-15,-122,26,-54
1535,37,-265,-23,-117,29,-52
1540,31,-266,-18,-113,32,-51
1545,30,-264,-13,-107,34,-51
1550,33,-266,-18,-102,35,-51
1555,29,-265,-13,-97,36,-50
1560,31,-266,-22,-90,36,-51
1565,31,-269,-19,-86,36,-49
1570,29,-268,-19,-79,37,-50
1575,30,-268,-23,-73,35,-50
1580,31,-268,-24,-64,31,-47
1585,30,-265,-21,-58,29,-45
1590,29,-267,-22,-52,24,-43
1595,31,-262,-22,-47,23,-42
1600,29,-265,-18,-44,21,-39
1605,29,-263,-22,-41,19,-35
1610,30,-262,-23,-39,18,-34
1615,29,-261,-24,-39,18,-31
1620,28,-263,-21,-41,19,-29
1625,24,-261,-25,-41,20,-27
1630,30,-259,-20,-43,21,-26
1635,28,-260,-23,-47,22,-23
1640,30,-261,-24,-48,23,-21
1645,30,-260,-24,-50,24,-19
1650,30,-260,-22,-49,25,-18
1655,28,-257,-25,-50,24,-18
1660,30,-261,-24,-48,24,-18
1665,32,-262,-27,-46,23,-20
1670,31,-259,-26,-43,22,-19
1675,31,-262,-26,-40,18,-19
1680,27,-258,-23,-38,16,-21
1685,30,-257,-24,-40,12,-21
1690,30,-255,-25,-44,9,-22
1695,23,-262,-26,-48,6,-23
1700,30,-259,-27,-51,2,-23
1705,29,-259,-28,-53,-1,-24
1710,29,-258,-29,-57,-2,-24
1715,32,-262,-29,-58,-2,-23
1720,34,-263,-28,-59,-4,-22
1725,30,-262,-30,-56,-6,-23
1730,31,-266,-25,-54,-7,-22
1735,31,-262,-30,-49,-10,-19
1740,29,-261,-32,-45,-12,-19
1745,32,-262,-30,-40,-15,-16
1750,31,-262,-25,-34,-19,-12
1755,32,-266,-29,-29,-21,-10
1760,31,-263,-28,-25,-22,-7
1765,32,-263,-32,-24,-23,-5
1770,30,-264,-26,-23,-23,-2
1775,30,-260,-29,-23,-21,0
1780,30,-259,-27,-27,-21,2
1785,31,-261,-28,-32,-19,4
1790,32,-261,-22,-36,-19,4
1795,33,-262,-25,-42,-19,7
1800,30,-259,-25,-45,-21,8
1805,33,-262,-22,-48,-21,7
1810,28,-261,-23,-52,-23,7
1815,28,-260,-22,-51,-24,8
1820,31,-261,-24,-53,-28,9
1825,30,-259,-24,-53,-32,9
1830,31,-260,-21,-53,-34,9
1835,30,-258,-23,-53,-34,9
1840,32,-259,-25,-53,-34,9
1845,31,-258,-23,-53,-35,10
1850,33,-258,-27,-52,-33,10
1855,34,-258,-27,-51,-33,12
1860,35,-260,-21,-52,-30,12
1865,33,-258,-25,-52,-28,12
1870,35,-259,-24,-54,-25,12
1875,33,-259,-26,-57,-24,13
1880,36,-257,-27,-58,-23,11
1885,35,-258,-28,-58,-21,11
1890,36,-259,-31,-60,-21,11
1895,33,-262,-24,-61,-20,8
1900,34,-257,-22,-62,-16,8
1905,35,-261,-24,-64,-14,7
1910,36,-260,-22,-67,-11,4
1915,42,-262,-29,-69,-8,4
1920,36,-260,-19,-73,-4,4
1925,36,-258,-22,-76,-1,4
1930,34,-257,-22,-80,1,0
1935,34,-260,-24,-84,1,0
1940,35,-258,-23,-86,4,-1
1945,37,-261,-21,-86,3,-2
1950,37,-261,-25,-87,3,-3
1955,36,-261,-25,-87,2,-4
1960,37,-260,-26,-87,3,-6
1965,31,-264,-21,-86,4,-6
1970,37,-263,-25,-83,6,-8
1975,36,-263,-25,-81,7,-8
1980,37,-262,-27,-76,9,-9
1985,33,-262,-29,-75,11,-10
1990,36,-261,-24,-75,14,-13
1995,34,-260,-28,-76,17,-14
2000,35,-260,-22,-77,19,-16
2005,34,-263,-28,-80,23,-18
2010,34,-259,-26,-81,24,-19
2015,34,-259,-27,-82,26,-19
2020,32,-261,-28,-83,27,-19
2025,34,-257,-31,-85,30,-20
2030,34,-260,-25,-86,30,-20
2035,35,-259,-25,-88,30,-20
2040,34,-258,-25,-92,32,-20
2045,36,-260,-25,-95,31,-19
2050,35,-258,-24,-98,29,-17
2055,39,-258,-28,-101,28,-15
2060,35,-260,-25,-104,27,-13
2065,37,-258,-25,-106,26,-13
2070,36,-258,-21,-107,26,-11
2075,36,-261,-12,-107,24,-8
2080,38,-259,-25,-108,22,-7
2085,37,-262,-25,-105,24,-6
2090,34,-260,-24,-103,23,-6
2095,35,-259,-25,-101,24,-6
2100,34,-259,-21,-100,25,-4
2105,35,-264,-23,-101,26,-5
2110,31,-259,-21,-103,27,-6
2115,33,-260,-25,-106,29,-7
2120,31,-262,-24,-111,32,-7
2125,37,-260,-31,-115,35,-7
2130,31,-259,-24,-118,37,-5
2135,32,-257,-26,-118,40,-7
2140,31,-261,-26,-119,42,-7
2145,33,-262,-25,-119,43,-8
2150,34,-257,-24,-119,44,-9
2155,30,-258,-27,-119,46,-10
2160,36,-258,-26,-117,47,-11
2165,33,-261,-27,-117,46,-12
2170,36,-259,-26,-118,47,-13
2175,35,-262,-26,-121,46,-15
2180,34,-259,-32,-125,44,-15
2185,38,-263,-33,-127,44,-15
2190,35,-262,-28,-128,43,-16
2195,34,-261,-30,-127,43,-17
2200,36,-263,-26,-126,45,-17
2205,36,-261,-27,-125,46,-20
2210,34,-262,-28,-123,45,-19
2215,35,-263,-31,-120,43,-19
2220,32,-262,-35,-116,42,-19
2225,33,-259,-30,-111,40,-20
2230,33,-261,-32,-107,39,-20
2235,32,-261,-30,-101,36,-19
2240,38,-256,-31,-98,34,-17
2245,31,-263,-28,-92,31,-16
2250,30,-261,-27,-91,31,-13
2255,31,-260,-27,-93,30,-11
2260,29,-262,-30,-91,30,-9
2265,30,-260,-30,-93,31,-7
2270,31,-261,-24,-95,32,-5
2275,31,-259,-29,-96,33,-2
2280,33,-262,-28,-97,34,-2
2285,34,-261,-27,-96,35,0
2290,30,-263,-32,-97,36,0
2295,34,-259,-28,-94,34,-1
2300,32,-258,-31,-95,32,-1
2305,34,-257,-29,-95,33,0
2310,36,-258,-30,-95,31,-1
2315,32,-257,-25,-95,29,-3
2320,33,-257,-27,-95,26,-4
2325,33,-254,-30,-97,28,-6
2330,32,-258,-30,-100,28,-6
2335,35,-257,-31,-102,29,-8
2340,38,-257,-32,-107,31,-9
2345,36,-259,-31,-114,35,-10
2350,37,-261,-30,-120,37,-12
2355,32,-259,-33,-124,40,-13
2360,36,-259,-31,-127,45,-13
2365,37,-259,-35,-129,49,-14
2370,33,-261,-34,-130,52,-14
2375,34,-260,-35,-130,57,-15
2380,35,-263,-34,-128,57,-16
2385,31,-260,-34,-124,59,-15
2390,34,-263,-35,-121,58,-15
2395,31,-262,-32,-117,57,-15
2400,34,-265,-29,-110,56,-16
2405,31,-264,-35,-107,54,-17
2410,32,-266,-34,-101,52,-16
2415,34,-266,-37,-97,52,-16
2420,32,-264,-31,-94,52,-18
2425,31,-263,-33,-89,53,-17
2430,32,-263,-36,-89,54,-17
2435,29,-262,-36,-85,56,-19
2440,32,-268,-37,-83,57,-19
2445,32,-263,-31,-83,58,-19
2450,33,-261,-38,-82,59,-17
2455,33,-268,-35,-82,60,-19
2460,32,-260,-33,-81,62,-19
2465,33,-258,-33,-82,62,-19
2470,31,-257,-37,-83,59,-20
2475,34,-261,-36,-83,58,-20
2480,32,-257,-38,-84,57,-20
2485,33,-259,-36,-84,57,-21
2490,31,-258,-37,-84,55,-22
2495,31,-260,-34,-82,54,-22
2500,36,-262,-36,-83,53,-24
2505,29,-259,-39,-81,55,-25
2510,33,-260,-40,-83,56,-27
2515,35,-260,-38,-84,56,-29
2520,35,-262,-38,-87,57,-29
2525,35,-262,-37,-87,59,-31
2530,33,-261,-40,-90,61,-31
2535,35,-264,-40,-91,63,-32
2540,36,-265,-36,-93,67,-34
2545,33,-265,-39,-94,71,-32
2550,38,-265,-32,-94,74,-32
2555,35,-263,-40,-90,76,-30
2560,28,-268,-42,-84,77,-28
2565,36,-267,-37,-80,78,-25
2570,37,-269,-37,-76,78,-25
2575,40,-270,-42,-72,79,-22
2580,35,-267,-42,-70,80,-19
2585,33,-262,-39,-67,80,-16
2590,35,-266,-43,-66,80,-13
2595,36,-265,-43,-64,79,-12
2600,33,-262,-42,-66,78,-9
2605,38,-264,-39,-69,78,-8
2610,36,-263,-40,-71,77,-6
2615,38,-258,-37,-70,78,-4
2620,35,-261,-40,-72,81,-5
2625,31,-257,-39,-71,82,-5
2630,34,-258,-41,-70,82,-3
2635,37,-260,-44,-69,82,-3
2640,35,-261,-38,-66,82,-3
2645,33,-260,-41,-63,83,-4
2650,33,-263,-44,-60,82,-3
2655,34,-261,-46,-56,84,-4
2660,32,-260,-39,-53,86,-5
2665,37,-261,-43,-51,87,-5
2670,34,-263,-41,-47,87,-4
2675,34,-260,-40,-44,86,-3
2680,34,-260,-40,-42,87,-5
2685,35,-261,-39,-42,87,-7
2690,40,-262,-40,-41,87,-6
2695,37,-264,-40,-40,88,-9
2700,33,-261,-40,-39,89,-10
2705,37,-263,-39,-37,92,-8
2710,36,-263,-41,-36,93,-6
2715,34,-263,-37,-37,96,-5
2720,36,-265,-35,-36,97,-5
2725,29,-260,-42,-36,96,-5
2730,35,-263,-37,-35,96,-6
2735,31,-262,-44,-31,92,-6
2740,36,-264,-39,-26,90,-6
2745,31,-260,-41,-19,88,-8
2750,34,-261,-46,-14,87,-9
2755,33,-260,-40,-9,87,-10
2760,33,-261,-42,-7,87,-12
2765,35,-259,-43,-5,88,-12
2770,37,-263,-40,-5,89,-12
2775,45,-261,-41,-9,93,-13
2780,36,-256,-40,-15,95,-12
2785,35,-256,-46,-25,99,-12
2790,35,-257,-43,-34,100,-12
2795,36,-257,-43,-46,100,-11
2800,35,-257,-43,-64,95,-11
2805,35,-258,-46,-80,89,-10
2810,36,-260,-44,-100,80,-10
2815,31,-257,-50,-118,73,-8
2820,33,-261,-47,-130,70,-6
2825,32,-264,-49,-139,71,-5
2830,28,-267,-54,-150,76,-7
2835,34,-262,-57,-157,80,-9
2840,31,-259,-57,-168,85,-13
2845,33,-260,-63,-183,91,-18
2850,34,-257,-63,-206,97,-18
2855,33,-257,-62,-235,108,-20
2860,36,-260,-61,-268,114,-23
2865,34,-256,-67,-308,121,-26
2870,32,-255,-68,-347,126,-29
2875,37,-256,-69,-387,129,-29
2880,39,-259,-72,-418,131,-31
2885,39,-257,-70,-437,130,-33
2890,33,-258,-70,-443,124,-36
2895,33,-260,-72,-437,119,-33
2900,35,-258,-73,-423,112,-30
2905,35,-259,-79,-400,101,-27
2910,32,-256,-80,-375,88,-26
2915,31,-258,-88,-347,72,-25
2920,31,-255,-95,-319,56,-28
2925,27,-253,-92,-293,40,-31
2930,31,-251,-100,-269,26,-36
2935,24,-246,-100,-248,12,-40
2940,29,-241,-102,-227,2,-44
2945,33,-241,-110,-213,-7,-46
2950,31,-238,-111,-205,-13,-51
2955,31,-236,-111,-202,-17,-56
2960,34,-230,-108,-208,-19,-61
2965,35,-230,-111,-223,-20,-66
2970,36,-227,-110,-247,-22,-68
2975,35,-223,-111,-280,-25,-70
2980,34,-224,-110,-320,-30,-72
2985,37,-224,-101,-365,-35,-72
2990,36,-224,-100,-413,-42,-72
2995,40,-223,-101,-462,-50,-72
3000,35,-226,-99,-506,-58,-72
3005,37,-231,-97,-544,-66,-71
3010,33,-231,-98,-578,-73,-72
3015,36,-234,-90,-609,-78,-74
3020,32,-231,-95,-630,-82,-78
3025,27,-230,-89,-644,-87,-84
3030,29,-230,-89,-651,-91,-85
3035,30,-232,-83,-657,-92,-87
3040,26,-230,-91,-660,-96,-90
3045,27,-226,-87,-666,-96,-93
3050,25,-220,-80,-681,-97,-96
3055,25,-219,-93,-701,-99,-95
3060,24,-217,-88,-721,-101,-95
3065,23,-215,-86,-743,-106,-96
3070,24,-218,-90,-767,-112,-97
3075,26,-216,-94,-795,-121,-97
3080,26,-221,-94,-824,-132,-97
3085,26,-219,-89,-850,-146,-100
3090,31,-219,-92,-878,-160,-103
3095,32,-221,-90,-903,-172,-105
3100,28,-224,-90,-925,-182,-110
3105,25,-222,-92,-941,-190,-113
3110,37,-224,-83,-956,-197,-119
3115,35,-227,-84,-965,-205,-124
3120,35,-230,-83,-974,-212,-126
3125,38,-233,-82,-989,-218,-127
3130,41,-234,-80,-1005,-221,-131
3135,42,-236,-81,-1021,-220,-137
3140,43,-241,-82,-1036,-216,-140
3145,45,-248,-78,-1052,-211,-143
3150,43,-252,-79,-1060,-204,-149
3155,42,-256,-81,-1060,-195,-148
3160,46,-259,-84,-1054,-183,-148
3165,46,-266,-81,-1039,-171,-155
3170,47,-273,-85,-1023,-158,-161
3175,45,-279,-85,-1006,-143,-162
3180,47,-282,-88,-985,-125,-157
3185,53,-288,-89,-959,-103,-155
3190,52,-288,-88,-933,-80,-155
3195,53,-289,-87,-905,-58,-153
3200,54,-291,-90,-876,-41,-150
3205,52,-290,-92,-858,-25,-147
3210,58,-285,-95,-850,-11,-142
3215,57,-285,-95,-844,1,-139
3220,54,-274,-95,-845,9,-130
3225,55,-275,-92,-851,19,-118
3230,54,-269,-97,-860,26,-106
3235,54,-263,-96,-870,31,-98
3240,53,-257,-100,-886,37,-88
3245,54,-253,-97,-905,40,-81
3250,49,-251,-100,-925,44,-75
3255,52,-246,-92,-946,45,-72
3260,46,-248,-98,-962,44,-73
3265,47,-243,-102,-969,43,-80
3270,40,-245,-100,-970,44,-80
3275,39,-248,-102,-964,48,-79
3280,35,-251,-107,-948,53,-85
3285,36,-254,-107,-915,56,-98
3290,34,-255,-106,-865,57,-119
3295,24,-257,-112,-816,55,-131
3300,26,-258,-113,-774,58,-127
3305,31,-263,-116,-735,56,-120
3310,26,-270,-117,-695,46,-113
3315,24,-273,-124,-657,33,-106
3320,30,-279,-129,-620,12,-99
3325,19,-273,-125,-592,-10,-94
3330,19,-275,-121,-557,-32,-84
3335,14,-272,-125,-527,-55,-72
3340,17,-272,-124,-506,-72,-60
3345,15,-268,-125,-492,-90,-47
3350,15,-268,-123,-484,-101,-39
3355,16,-263,-124,-480,-107,-33
3360,21,-259,-123,-481,-105,-28
3365,20,-256,-123,-482,-95,-24
3370,20,-253,-130,-482,-86,-23
3375,23,-247,-128,-484,-78,-22
3380,25,-244,-126,-488,-72,-23
3385,26,-244,-127,-494,-72,-23
3390,29,-239,-128,-495,-71,-25
3395,30,-234,-122,-488,-74,-28
3400,32,-239,-124,-477,-81,-37
3405,34,-234,-123,-469,-88,-47
3410,40,-233,-127,-455,-95,-58
3415,44,-234,-127,-444,-101,-69
3420,43,-239,-133,-434,-109,-79
3425,45,-232,-135,-427,-113,-90
3430,46,-241,-144,-425,-113,-101
3435,48,-247,-145,-423,-112,-110
3440,48,-247,-149,-420,-110,-119
3445,50,-252,-155,-417,-108,-122
3450,54,-255,-159,-417,-108,-123
3455,52,-256,-157,-417,-109,-126
3460,56,-257,-158,-422,-109,-130
3465,56,-262,-153,-432,-108,-131
3470,54,-264,-160,-441,-105,-125
3475,61,-261,-155,-452,-101,-118
3480,59,-261,-153,-461,-97,-110
3485,58,-262,-152,-469,-91,-101
3490,56,-262,-157,-478,-84,-88
3495,55,-257,-154,-488,-76,-76
3500,57,-256,-153,-495,-71,-62
3505,57,-255,-148,-499,-63,-47
3510,58,-251,-152,-498,-60,-37
3515,56,-247,-145,-499,-58,-26
3520,56,-242,-147,-493,-58,-16
3525,51,-235,-143,-490,-57,-9
3530,55,-239,-149,-487,-56,-6
3535,52,-239,-154,-485,-52,-5
3540,52,-233,-156,-478,-52,-4
3545,53,-233,-155,-475,-46,-4
3550,50,-232,-159,-478,-40,-8
3555,52,-235,-165,-481,-34,-13
3560,49,-232,-166,-482,-28,-20
3565,47,-232,-166,-483,-19,-27
3570,49,-236,-168,-479,-9,-33
3575,51,-237,-166,-469,1,-40
3580,51,-242,-175,-458,12,-47
3585,52,-243,-171,-445,20,-50
3590,54,-241,-169,-431,26,-53
3595,53,-248,-168,-419,31,-57
3600,53,-250,-167,-404,39,-59
3605,55,-253,-164,-387,46,-63
3610,52,-253,-168,-370,55,-66
3615,54,-256,-167,-353,63,-69
3620,52,-256,-165,-338,72,-73
3625,55,-256,-162,-324,81,-75
3630,55,-255,-164,-308,90,-76
3635,53,-256,-156,-292,103,-77
3640,55,-257,-159,-274,111,-74
3645,53,-252,-157,-261,120,-69
3650,49,-253,-161,-247,126,-61
3655,49,-250,-166,-234,124,-53
3660,48,-245,-170,-222,122,-44
3665,47,-240,-163,-211,116,-34
3670,45,-241,-168,-203,106,-23
3675,41,-236,-171,-199,95,-12
3680,41,-231,-169,-194,83,-5
3685,36,-228,-175,-192,72,4
3690,37,-227,-177,-194,64,9
3695,34,-226,-177,-199,55,15
3700,32,-221,-179,-208,47,18
3705,35,-221,-176,-216,42,20
3710,33,-222,-177,-226,38,21
3715,33,-224,-176,-232,36,23
3720,35,-225,-175,-237,32,24
3725,34,-224,-173,-238,32,26
3730,35,-225,-173,-240,35,25
3735,35,-226,-170,-235,34,25
3740,38,-229,-167,-228,35,26
3745,36,-228,-165,-220,38,25
3750,45,-229,-164,-206,37,23
3755,46,-230,-165,-190,37,23
3760,46,-229,-167,-174,36,21
3765,50,-229,-165,-158,35,22
3770,50,-230,-166,-145,32,20
3775,49,-228,-165,-131,30,18
3780,52,-227,-164,-124,28,16
3785,55,-230,-167,-116,23,17
3790,55,-225,-169,-112,19,16
3795,52,-226,-174,-108,15,14
3800,54,-227,-174,-108,10,12
3805,53,-230,-178,-111,5,11
3810,54,-228,-177,-117,1,9
3815,54,-229,-175,-124,-5,4
3820,57,-230,-176,-131,-12,0
3825,55,-231,-177,-134,-17,-4
3830,53,-230,-177,-135,-23,-8
3835,53,-229,-181,-136,-26,-11
3840,52,-229,-176,-134,-29,-13
3845,51,-224,-173,-135,-28,-17
3850,52,-225,-175,-136,-28,-19
3855,54,-226,-170,-137,-27,-21
3860,49,-223,-171,-137,-23,-24
3865,53,-223,-170,-130,-23,-27
3870,53,-225,-173,-124,-20,-30
3875,53,-224,-164,-117,-17,-32
3880,52,-223,-173,-108,-12,-36
3885,54,-221,-167,-101,-8,-40
3890,53,-224,-169,-94,-3,-44
3895,58,-221,-168,-88,0,-46
3900,50,-220,-168,-83,6,-47
3905,52,-220,-167,-76,8,-48
3910,51,-218,-170,-70,8,-47
3915,50,-220,-170,-65,4,-45
3920,53,-216,-172,-65,-1,-44
3925,51,-213,-171,-67,-10,-41
3930,48,-212,-173,-73,-19,-40
3935,50,-210,-170,-79,-27,-34
3940,50,-210,-171,-85,-35,-31
3945,49,-208,-171,-91,-40,-27
3950,46,-209,-173,-100,-43,-26
3955,49,-209,-174,-107,-43,-25
3960,47,-209,-177,-115,-42,-25
3965,51,-214,-174,-118,-37,-24
3970,44,-213,-175,-118,-30,-23
3975,50,-214,-176,-114,-20,-24
3980,50,-214,-178,-110,-11,-23
3985,51,-214,-180,-104,-4,-24
3990,52,-217,-178,-95,2,-22
3995,51,-218,-180,-89,5,-21
4000,54,-220,-183,-83,5,-21
4005,51,-224,-185,-79,6,-22
4010,52,-224,-188,-78,4,-23
4015,50,-222,-185,-78,-2,-24
4020,52,-223,-183,-79,-8,-26
4025,53,-221,-192,-79,-13,-29
4030,53,-226,-186,-81,-19,-30
4035,56,-227,-183,-82,-23,-33
4040,50,-224,-186,-84,-26,-34
4045,53,-225,-186,-86,-29,-35
4050,49,-225,-185,-87,-31,-36
4055,49,-224,-180,-84,-35,-37
4060,50,-225,-182,-81,-38,-37
4065,47,-225,-181,-77,-40,-38
4070,50,-224,-178,-72,-43,-38
4075,42,-222,-180,-70,-43,-38
4080,48,-223,-176,-68,-40,-36
4085,47,-220,-181,-67,-37,-33
4090,47,-218,-177,-67,-31,-30
4095,48,-217,-179,-68,-25,-26
4100,48,-217,-178,-67,-18,-23
4105,51,-216,-176,-65,-13,-20
4110,50,-214,-174,-62,-8,-16
4115,53,-216,-171,-57,-5,-13
4120,50,-216,-174,-52,-1,-9
4125,51,-214,-176,-44,2,-7
4130,54,-218,-177,-39,4,-4
4135,55,-215,-174,-34,7,-2
4140,52,-216,-179,-34,7,1
4145,54,-217,-175,-37,10,2
4150,50,-212,-179,-43,12,5
4155,50,-210,-178,-50,13,8
4160,50,-209,-178,-60,14,12
4165,48,-210,-183,-71,13,15
4170,48,-208,-180,-80,9,19
4175,45,-210,-186,-90,3,23
4180,48,-209,-182,-100,-5,27
4185,47,-210,-179,-108,-13,30
4190,45,-213,-188,-115,-21,30
4195,40,-210,-186,-121,-29,31
4200,43,-208,-184,-127,-32,33
4205,42,-213,-183,-131,-35,32
4210,40,-210,-184,-137,-35,31
4215,39,-214,-182,-138,-33,31
4220,45,-214,-182,-140,-29,28
4225,41,-214,-181,-141,-24,24
4230,41,-213,-188,-141,-18,19
4235,43,-218,-184,-138,-14,14
4240,43,-221,-180,-133,-9,8
4245,44,-223,-186,-130,-3,1
4250,50,-226,-187,-126,2,-6
4255,50,-224,-186,-122,6,-11
4260,53,-224,-187,-117,13,-17
4265,53,-224,-182,-112,17,-20
4270,56,-225,-184,-106,22,-21
4275,54,-225,-181,-98,23,-21
4280,50,-218,-180,-90,25,-20
4285,55,-221,-183,-82,28,-17
4290,55,-219,-176,-75,30,-13
4295,57,-223,-176,-68,30,-9
4300,52,-222,-182,-67,31,-6
4305,52,-219,-183,-67,32,-1
4310,50,-216,-181,-73,34,3
4315,47,-213,-185,-80,34,8
4320,47,-212,-181,-88,36,12
4325,48,-214,-179,-99,38,17
4330,46,-212,-182,-110,39,23
4335,46,-210,-179,-125,41,27
4340,45,-208,-184,-137,41,29
4345,43,-210,-183,-146,38,32
4350,47,-212,-189,-156,35,33
4355,38,-208,-182,-161,33,33
4360,39,-211,-184,-163,32,34
4365,40,-212,-177,-163,30,31
4370,40,-214,-180,-158,28,30
4375,42,-213,-180,-153,29,29
4380,42,-216,-179,-147,30,29
4385,42,-212,-179,-141,30,27
4390,40,-217,-180,-136,31,27
4395,41,-217,-182,-131,31,25
4400,42,-213,-182,-127,31,23
4405,37,-216,-185,-122,31,21
4410,46,-216,-178,-118,33,20
4415,45,-217,-177,-114,35,20
4420,50,-217,-182,-110,37,19
4425,49,-216,-180,-106,42,18
4430,50,-219,-183,-103,46,17
4435,49,-217,-186,-102,52,17
4440,53,-217,-181,-98,58,15
4445,55,-216,-183,-94,65,14
4450,47,-217,-185,-92,68,12
4455,54,-219,-189,-92,74,11
4460,60,-223,-188,-94,77,9
4465,49,-218,-190,-98,77,7
4470,51,-220,-190,-105,75,8
4475,48,-218,-187,-114,70,6
4480,47,-217,-191,-124,65,2
4485,42,-218,-193,-137,58,1
4490,43,-220,-192,-147,48,-1
4495,38,-215,-193,-156,38,-4
4500,39,-218,-186,-162,27,-7
4505,39,-216,-185,-166,16,-9
4510,31,-217,-184,-165,6,-10
4515,38,-218,-181,-162,-3,-11
4520,34,-217,-186,-158,-9,-9
4525,34,-214,-180,-155,-16,-7
4530,34,-215,-179,-148,-19,-3
4535,39,-216,-180,-142,-21,2
4540,37,-215,-182,-134,-22,8
4545,42,-215,-184,-128,-19,12
4550,43,-211,-183,-123,-14,18
4555,46,-213,-186,-119,-9,21
4560,51,-215,-184,-118,-4,25
4565,48,-211,-188,-116,2,25
4570,50,-210,-187,-113,8,27
4575,52,-213,-185,-110,14,27
4580,54,-212,-189,-107,19,26
4585,55,-211,-187,-102,22,24
4590,54,-214,-189,-99,26,22
4595,55,-214,-191,-93,27,18
4600,54,-212,-190,-90,29,14
4605,57,-217,-188,-86,27,12
4610,52,-216,-192,-82,25,10
4615,48,-217,-191,-78,22,6
4620,49,-217,-190,-76,22,3
4625,44,-215,-193,-76,18,-1
4630,48,-215,-192,-79,17,-3
4635,44,-214,-187,-81,15,-5
4640,47,-213,-188,-85,15,-7
4645,46,-212,-185,-89,16,-8
4650,43,-211,-184,-93,18,-9
4655,45,-216,-186,-96,22,-11
4660,45,-214,-187,-96,26,-9
4665,43,-211,-186,-96,31,-8
4670,38,-213,-184,-97,37,-4
4675,40,-211,-183,-95,39,1
4680,45,-221,-189,-91,41,5
4685,43,-216,-187,-86,41,10
4690,42,-219,-188,-79,41,16
4695,44,-215,-190,-75,40,19
4700,45,-213,-194,-72,40,23
4705,44,-216,-193,-73,38,25
4710,46,-214,-192,-77,36,25
4715,45,-212,-190,-79,34,25
4720,45,-215,-191,-81,33,23
4725,48,-215,-189,-81,31,20
4730,45,-216,-191,-79,29,18
4735,48,-221,-194,-80,24,14
4740,46,-217,-190,-80,19,13
4745,45,-214,-186,-78,11,9
4750,48,-216,-188,-78,4,7
4755,44,-212,-179,-79,-2,5
4760,45,-212,-185,-78,-9,4
4765,41,-211,-186,-77,-12,4
4770,47,-209,-183,-73,-14,2
4775,45,-213,-185,-69,-14,2
4780,43,-211,-188,-64,-12,1
4785,43,-208,-187,-59,-10,0
4790,43,-208,-191,-53,-7,-2
4795,44,-209,-189,-49,-2,-1
4800,45,-208,-188,-46,3,-1
4805,47,-211,-190,-41,10,2
4810,45,-212,-187,-36,16,5
4815,45,-213,-190,-32,21,9
4820,49,-211,-190,-28,24,10
4825,47,-210,-189,-27,25,14
4830,45,-211,-190,-23,26,15
4835,47,-215,-195,-20,24,16
4840,44,-214,-194,-19,19,15
4845,47,-214,-191,-18,14,17
4850,45,-215,-191,-18,10,16
4855,42,-217,-189,-20,8,16
4860,42,-216,-191,-25,5,16
4865,43,-213,-189,-31,2,16
4870,44,-217,-193,-36,0,18
4875,44,-217,-187,-40,-4,18
4880,41,-212,-190,-45,-5,19
4885,39,-214,-189,-47,-9,20
4890,39,-217,-191,-44,-13,20
4895,36,-219,-190,-42,-16,19
4900,39,-214,-190,-40,-16,18
4905,42,-212,-189,-37,-13,19
4910,43,-210,-187,-35,-10,19
4915,44,-211,-189,-33,-4,18
4920,43,-206,-186,-32,2,20
4925,44,-211,-188,-31,7,21
4930,46,-209,-189,-30,13,23
4935,45,-209,-185,-29,16,25
4940,45,-208,-189,-29,19,26
4945,43,-205,-189,-29,21,28
4950,43,-203,-182,-31,23,31
4955,47,-207,-188,-35,24,32
4960,44,-206,-186,-36,25,35
4965,47,-206,-189,-39,25,34
4970,44,-207,-188,-39,25,34
4975,45,-208,-186,-41,25,32
4980,45,-209,-191,-41,21,29
4985,44,-209,-188,-43,19,27
4990,43,-210,-190,-43,18,24
4995,44,-209,-188,-43,16,23
5000,43,-208,-196,-39,16,20
5005,43,-206,-187,-40,15,18
5010,40,-210,-189,-40,17,17
5015,39,-208,-190,-41,19,17
5020,38,-208,-190,-42,22,16
5025,38,-210,-187,-43,25,17
5030,38,-209,-191,-41,24,18
5035,40,-211,-190,-39,24,20
5040,36,-208,-190,-40,22,22
5045,38,-212,-197,-42,22,25
5050,39,-211,-192,-42,22,27
5055,39,-214,-190,-44,24,29
5060,37,-216,-193,-44,25,32
5065,39,-215,-191,-46,27,34
5070,38,-217,-188,-47,26,33
5075,37,-216,-192,-47,26,32
5080,40,-215,-189,-45,26,30
5085,40,-216,-189,-40,26,31
5090,41,-219,-189,-34,23,29
5095,38,-218,-189,-29,22,26
5100,40,-216,-189,-24,19,26
5105,41,-212,-191,-19,18,27
5110,42,-216,-189,-17,16,27
5115,44,-214,-184,-15,15,27
5120,41,-216,-186,-11,14,29
5125,42,-212,-184,-12,12,29
5130,42,-211,-186,-14,11,31
5135,40,-212,-186,-18,6,29
5140,39,-210,-183,-28,3,29
5145,40,-210,-187,-33,2,28
5150,40,-210,-190,-38,2,28
5155,41,-209,-190,-43,2,26
5160,40,-209,-184,-42,4,27
5165,42,-211,-186,-43,7,26
5170,40,-211,-194,-42,9,27
5175,40,-211,-191,-41,12,27
5180,39,-211,-189,-39,15,29
5185,43,-217,-190,-36,18,30
5190,39,-213,-189,-36,23,31
5195,41,-212,-188,-37,25,33
5200,40,-213,-188,-38,28,34
5205,41,-215,-188,-40,30,37
5210,38,-213,-187,-43,30,39
5215,39,-215,-186,-46,30,40
5220,43,-219,-186,-49,30,41
5225,40,-215,-188,-49,30,41
5230,42,-215,-186,-45,29,41
5235,38,-213,-187,-44,28,39
5240,38,-212,-188,-42,25,39
5245,39,-211,-190,-40,22,37
5250,36,-211,-187,-41,18,35
5255,40,-212,-192,-45,17,32
5260,40,-211,-186,-49,18,28
5265,38,-212,-184,-52,17,25
5270,37,-210,-189,-58,19,20
5275,38,-213,-187,-64,19,15
5280,38,-208,-189,-68,21,11
5285,36,-212,-189,-71,20,9
5290,38,-212,-191,-72,23,7
5295,39,-211,-187,-73,25,5
5300,40,-213,-187,-70,27,5
5305,43,-211,-189,-66,28,5
5310,37,-216,-182,-62,30,6
5315,41,-213,-188,-59,30,8
5320,40,-212,-185,-54,31,8
5325,42,-212,-181,-50,30,10
5330,43,-210,-181,-50,30,15
5335,39,-213,-187,-48,30,16
5340,44,-214,-186,-48,31,17
5345,42,-212,-184,-49,31,19
5350,41,-209,-184,-53,31,19
5355,40,-212,-189,-55,31,21
5360,39,-212,-192,-56,32,21
5365,37,-212,-189,-57,33,20
5370,39,-214,-191,-58,31,19
5375,36,-213,-191,-61,30,19
5380,34,-215,-190,-65,28,18
5385,36,-213,-184,-66,26,18
5390,34,-214,-193,-71,23,15
5395,34,-212,-193,-74,21,14
5400,34,-215,-195,-79,18,14
5405,33,-215,-190,-83,15,12
5410,31,-214,-192,-85,10,10
5415,34,-213,-193,-84,6,9
5420,30,-218,-192,-84,1,9
5425,32,-216,-189,-83,-2,9
5430,35,-220,-190,-81,-5,9
5435,34,-216,-190,-76,-6,10
5440,33,-212,-187,-72,-7,10
5445,34,-218,-190,-65,-8,12
5450,36,-217,-189,-61,-8,12
5455,36,-216,-189,-58,-4,14
5460,33,-211,-190,-55,-1,14
5465,38,-214,-190,-52,2,15
5470,35,-211,-187,-53,6,16
5475,37,-214,-187,-52,11,17
5480,36,-208,-188,-50,13,19
5485,38,-207,-189,-48,16,16
5490,37,-209,-189,-47,19,15
5495,36,-208,-187,-47,23,13
5500,41,-211,-184,-45,24,14
5505,40,-209,-188,-43,26,10
5510,39,-207,-186,-42,29,10
5515,40,-209,-190,-42,30,10
5520,41,-213,-192,-40,29,8
5525,38,-210,-189,-40,28,7
5530,42,-213,-189,-40,26,5
5535,40,-213,-190,-42,23,1
5540,38,-212,-192,-44,20,1
5545,35,-212,-192,-48,17,-1
5550,35,-214,-191,-48,15,-2
5555,34,-214,-189,-48,15,-2
5560,34,-213,-192,-47,15,-3
5565,37,-215,-192,-49,15,-3
5570,32,-212,-190,-48,17,-2
5575,32,-214,-191,-49,18,0
5580,32,-212,-192,-49,18,1
5585,33,-216,-192,-51,17,2
5590,31,-212,-194,-51,18,3
5595,37,-214,-191,-52,20,3
5600,36,-216,-190,-53,19,4
5605,43,-214,-186,-57,20,3
5610,33,-214,-194,-60,20,2
5615,33,-213,-192,-62,19,-1
5620,36,-210,-191,-62,17,-2
5625,37,-213,-185,-59,17,-5
5630,36,-212,-190,-57,18,-7
5635,36,-212,-187,-55,17,-10
5640,35,-214,-184,-56,17,-13
5645,37,-213,-186,-56,20,-13
5650,42,-216,-186,-56,20,-12
5655,41,-214,-187,-55,21,-11
5660,32,-213,-190,-54,21,-10
5665,38,-209,-185,-53,21,-9
5670,38,-212,-186,-53,21,-8
5675,37,-212,-184,-55,18,-6
5680,38,-212,-187,-54,18,-5
5685,36,-210,-188,-54,16,-3
5690,37,-211,-186,-57,12,-1
5695,34,-210,-183,-60,11,2
5700,35,-213,-188,-63,8,1
5705,37,-215,-184,-67,8,2
5710,34,-212,-190,-69,7,3
5715,38,-208,-184,-70,5,3
5720,36,-211,-188,-72,4,6
5725,35,-210,-189,-76,5,4
5730,38,-212,-187,-77,5,6
5735,34,-212,-190,-78,5,8
5740,39,-214,-188,-82,4,10
5745,35,-214,-192,-80,2,9
5750,39,-216,-188,-79,1,5
5755,38,-216,-189,-76,0,2
5760,37,-215,-189,-75,-1,0
5765,41,-217,-188,-73,-1,-4
5770,38,-216,-187,-68,0,-8
5775,38,-216,-188,-66,1,-12
5780,36,-212,-187,-66,4,-16
5785,37,-216,-186,-63,6,-21
5790,39,-216,-188,-61,11,-25
5795,39,-216,-190,-57,14,-29
5800,43,-217,-190,-51,17,-31
5805,38,-214,-189,-50,16,-32
5810,37,-210,-191,-49,15,-33
5815,38,-213,-192,-47,14,-34
5820,40,-212,-192,-50,13,-34
5825,36,-210,-190,-50,13,-32
5830,39,-210,-189,-52,13,-28
5835,36,-206,-190,-54,14,-29
5840,36,-206,-190,-57,14,-27
5845,40,-210,-191,-62,16,-26
5850,40,-210,-193,-67,17,-26
5855,36,-206,-192,-72,16,-26
5860,34,-207,-193,-78,15,-25
5865,36,-204,-192,-83,15,-26
5870,37,-205,-190,-88,14,-25
5875,33,-204,-190,-91,12,-25
5880,38,-207,-192,-92,12,-25
5885,35,-205,-190,-92,11,-25
5890,34,-203,-193,-92,7,-23
5895,34,-208,-194,-92,4,-22
5900,34,-208,-196,-92,-2,-21
5905,35,-205,-192,-93,-6,-20
5910,38,-207,-191,-95,-13,-20
5915,31,-205,-192,-97,-16,-22
5920,34,-204,-193,-97,-21,-23
5925,32,-205,-189,-95,-23,-26
5930,30,-208,-192,-92,-27,-28
5935,31,-205,-193,-92,-28,-31
5940,31,-205,-194,-89,-28,-34
5945,33,-208,-194,-89,-27,-35
5950,31,-209,-194,-87,-23,-36
5955,34,-209,-193,-89,-21,-36
5960,37,-209,-194,-91,-16,-37
5965,34,-210,-198,-91,-17,-36
5970,39,-208,-193,-91,-14,-34
5975,39,-208,-196,-93,-15,-34
5980,38,-207,-195,-95,-13,-34
5985,34,-203,-197,-98,-13,-33
5990,40,-209,-195,-99,-10,-33
5995,40,-211,-196,-97,-9,-32
6000,43,-208,-196,-96,-6,-31
6005,41,-207,-194,-93,-8,-30
6010,39,-206,-197,-91,-8,-29
6015,43,-209,-192,-89,-10,-30
6020,39,-208,-191,-87,-12,-28
6025,39,-209,-195,-85,-12,-26
6030,42,-203,-195,-85,-13,-26
6035,40,-208,-196,-86,-13,-25
6040,32,-209,-197,-86,-12,-25
6045,38,-203,-196,-89,-9,-25
6050,41,-206,-191,-87,-7,-28
6055,37,-204,-193,-86,-2,-26
6060,39,-204,-194,-86,2,-28
6065,38,-203,-193,-89,8,-28
6070,36,-201,-195,-91,13,-28
6075,38,-199,-194,-94,18,-29
6080,36,-197,-196,-98,24,-29
6085,39,-199,-195,-101,29,-29
6090,36,-199,-193,-105,33,-30
6095,28,-197,-193,-109,34,-27
6100,30,-194,-193,-112,36,-26
6105,34,-199,-193,-117,38,-25
6110,38,-201,-194,-122,39,-24
6115,37,-199,-192,-124,39,-24
6120,37,-201,-193,-126,38,-24
6125,37,-198,-196,-128,36,-23
6130,39,-199,-194,-132,35,-22
6135,36,-199,-193,-137,35,-22
6140,42,-205,-192,-141,36,-21
6145,37,-203,-200,-145,38,-20
6150,46,-196,-200,-148,42,-18
6155,39,-201,-194,-151,44,-18
6160,42,-201,-196,-155,47,-17
6165,43,-201,-200,-159,49,-14
6170,40,-203,-199,-163,49,-14
6175,46,-204,-199,-167,51,-13
6180,40,-203,-201,-170,52,-12
6185,40,-206,-200,-174,52,-13
6190,40,-206,-197,-179,55,-16
6195,39,-207,-198,-184,56,-19
6200,43,-206,-199,-186,59,-22
6205,36,-207,-195,-185,63,-27
6210,40,-206,-196,-185,66,-30
6215,39,-204,-197,-183,68,-32
6220,38,-207,-195,-178,69,-32
6225,36,-206,-198,-173,69,-32
6230,36,-207,-194,-169,67,-34
6235,37,-206,-197,-162,63,-33
6240,36,-207,-201,-154,58,-33
6245,37,-206,-197,-149,53,-33
6250,35,-206,-200,-144,49,-33
6255,37,-204,-198,-145,44,-31
6260,45,-205,-196,-144,39,-30
6265,36,-201,-197,-145,34,-28
6270,38,-203,-195,-145,33,-26
6275,36,-201,-195,-142,30,-21
6280,36,-202,-197,-136,27,-19
6285,36,-202,-201,-131,22,-15
6290,38,-204,-200,-128,17,-11
6295,37,-207,-200,-122,9,-7
6300,34,-202,-202,-115,2,-4
6305,37,-202,-202,-110,-6,-3
6310,38,-206,-190,-102,-14,-2
6315,39,-203,-201,-97,-21,-2
6320,40,-202,-204,-94,-24,-4
6325,36,-201,-203,-92,-26,-6
6330,41,-203,-203,-92,-24,-9
6335,39,-204,-201,-89,-23,-9
6340,40,-205,-202,-86,-19,-12
6345,39,-203,-205,-82,-17,-14
6350,41,-207,-208,-80,-15,-15
6355,43,-207,-204,-79,-17,-18
6360,46,-209,-206,-77,-19,-21
6365,40,-204,-205,-77,-20,-22
6370,41,-207,-205,-74,-21,-24
6375,42,-208,-204,-72,-22,-26
6380,45,-207,-203,-68,-23,-25
6385,42,-203,-202,-63,-24,-25
6390,45,-205,-201,-60,-24,-26
6395,44,-207,-196,-55,-22,-25
6400,46,-202,-197,-51,-20,-26
6405,45,-204,-196,-48,-17,-26
6410,42,-201,-195,-44,-12,-27
6415,48,-204,-197,-41,-8,-28
6420,48,-201,-194,-38,-2,-30
6425,45,-203,-191,-38,3,-29
6430,46,-201,-194,-34,12,-31
6435,44,-201,-198,-33,20,-34
6440,44,-201,-194,-31,27,-33
6445,44,-203,-197,-32,33,-34
6450,41,-198,-199,-34,36,-36
6455,44,-206,-198,-35,38,-38
6460,42,-203,-201,-34,37,-39
6465,36,-202,-203,-33,36,-41
6470,39,-209,-209,-29,33,-41
6475,38,-206,-201,-27,28,-39
6480,38,-210,-201,-24,22,-40
6485,34,-209,-201,-20,19,-37
6490,37,-207,-202,-18,15,-34
6495,32,-207,-205,-17,14,-33
6500,36,-209,-202,-19,10,-32
6505,36,-211,-202,-20,8,-32
6510,32,-208,-196,-20,6,-32
6515,30,-208,-197,-21,5,-31
6520,35,-208,-198,-17,4,-31
6525,38,-217,-197,-9,3,-31
6530,34,-214,-194,0,3,-33
6535,36,-218,-198,13,3,-34
6540,36,-216,-195,28,2,-37
6545,38,-215,-198,42,1,-36
6550,43,-215,-198,55,1,-38
6555,37,-214,-198,66,1,-38
6560,39,-213,-195,76,2,-39
6565,42,-214,-196,85,6,-40
6570,43,-213,-192,95,9,-41
6575,45,-215,-193,100,12,-43
6580,44,-215,-195,105,15,-44
6585,42,-215,-199,110,17,-43
6590,46,-215,-197,116,22,-45
6595,44,-217,-197,122,26,-46
6600,40,-215,-199,131,29,-47
6605,42,-217,-197,141,33,-50
6610,43,-211,-193,150,37,-50
6615,40,-213,-191,160,43,-49
6620,40,-216,-198,167,47,-48
6625,42,-211,-193,171,54,-45
6630,44,-214,-188,177,53,-44
6635,40,-209,-193,177,52,-41
6640,43,-213,-187,178,48,-38
6645,42,-213,-193,177,42,-34
6650,39,-213,-192,175,36,-29
6655,38,-216,-192,171,28,-27
6660,37,-215,-191,169,20,-22
6665,40,-216,-193,170,11,-17
6670,39,-218,-191,170,5,-15
6675,39,-220,-192,173,-1,-15
6680,43,-224,-193,173,-6,-14
6685,38,-220,-192,176,-9,-15
6690,41,-225,-195,179,-11,-17
6695,38,-225,-193,186,-11,-17
6700,42,-226,-193,191,-12,-19
6705,40,-227,-196,200,-10,-20
6710,39,-228,-191,209,-10,-23
6715,40,-226,-190,221,-7,-25
6720,41,-224,-186,232,-5,-27
6725,41,-228,-191,240,2,-31
6730,44,-226,-188,245,6,-33
6735,47,-225,-189,252,12,-34
6740,48,-225,-187,260,21,-34
6745,47,-223,-185,268,31,-35
6750,45,-222,-184,278,43,-36
6755,48,-219,-184,287,55,-36
6760,45,-218,-178,294,64,-37
6765,47,-217,-188,299,71,-37
6770,46,-218,-184,301,76,-38
6775,47,-216,-186,302,81,-39
6780,45,-218,-182,301,84,-39
6785,43,-213,-182,297,85,-38
6790,45,-212,-179,288,87,-37
6795,43,-215,-185,278,85,-36
6800,41,-217,-183,266,84,-34
6805,44,-220,-186,257,80,-32
6810,40,-217,-181,246,75,-29
6815,38,-219,-182,239,67,-28
6820,39,-220,-184,234,62,-26
6825,38,-221,-180,229,53,-26
6830,37,-227,-179,224,46,-26
6835,36,-227,-179,222,41,-28
6840,37,-232,-176,219,34,-31
6845,37,-231,-177,216,30,-33
6850,34,-232,-176,213,26,-35
6855,43,-236,-178,213,24,-37
6860,34,-233,-176,218,22,-39
6865,36,-238,-174,227,20,-40
6870,33,-236,-170,235,18,-39
6875,38,-236,-171,244,19,-38
6880,39,-236,-172,257,17,-37
6885,37,-239,-172,268,15,-36
6890,40,-234,-172,284,14,-36
6895,40,-238,-171,298,17,-36
6900,40,-234,-174,312,19,-38
6905,46,-233,-171,322,24,-40
6910,51,-231,-171,330,27,-39
6915,46,-231,-166,337,34,-39
6920,46,-232,-169,344,42,-38
6925,48,-232,-169,354,47,-39
6930,50,-233,-169,360,55,-38
6935,53,-234,-166,362,63,-39
6940,49,-233,-167,365,68,-39
6945,52,-233,-169,366,71,-38
6950,50,-235,-166,367,71,-38
6955,54,-234,-164,368,70,-37
6960,50,-233,-163,368,67,-36
6965,53,-238,-164,367,65,-34
6970,54,-235,-165,366,63,-33
6975,50,-234,-164,362,61,-33
6980,50,-235,-164,358,58,-32
6985,54,-239,-161,354,55,-29
6990,53,-236,-162,350,55,-30
6995,48,-236,-160,348,52,-29
7000,47,-236,-159,346,51,-30
7005,47,-238,-157,344,49,-29
7010,47,-236,-153,343,48,-29
7015,44,-238,-153,343,51,-30
7020,45,-236,-147,346,52,-32
7025,43,-240,-153,346,52,-34
7030,43,-238,-151,347,50,-37
7035,41,-239,-155,350,48,-41
7040,39,-241,-151,350,44,-43
7045,36,-242,-152,359,41,-45
7050,39,-241,-148,369,40,-48
7055,40,-241,-145,381,41,-50
7060,43,-244,-141,395,42,-48
7065,38,-244,-148,408,42,-45
7070,38,-244,-146,420,44,-44
7075,43,-240,-142,432,43,-40
7080,43,-244,-148,444,43,-35
7085,40,-246,-144,453,41,-30
7090,43,-247,-147,462,41,-24
7095,40,-244,-147,470,38,-18
7100,44,-245,-143,479,33,-13
7105,44,-245,-142,485,29,-8
7110,44,-246,-144,491,25,-3
7115,43,-246,-141,493,23,1
7120,47,-242,-144,494,25,5
7125,44,-245,-139,493,26,7
7130,41,-250,-144,494,28,10
7135,45,-241,-142,492,31,10
7140,44,-242,-141,489,30,11
7145,48,-245,-141,482,32,13
7150,50,-243,-137,476,31,13
7155,48,-241,-136,474,31,14
7160,49,-243,-139,469,34,13
7165,53,-245,-139,464,34,11
7170,54,-241,-137,456,36,10
7175,56,-243,-142,451,39,6
7180,53,-240,-136,445,41,3
7185,50,-240,-140,440,41,-3
7190,50,-242,-136,436,42,-9
7195,54,-246,-135,430,42,-14
7200,52,-244,-131,425,44,-20
7205,49,-244,-133,418,44,-25
7210,47,-245,-129,411,45,-26
7215,47,-243,-129,403,45,-27
7220,47,-248,-129,397,45,-29
7225,49,-248,-127,396,48,-30
7230,47,-249,-129,396,49,-31
7235,48,-248,-125,395,50,-33
7240,45,-248,-124,398,54,-32
7245,48,-250,-126,401,58,-31
7250,47,-253,-129,407,62,-28
7255,44,-253,-126,413,61,-25
7260,45,-253,-123,418,60,-17
7265,44,-256,-124,423,58,-8
7270,43,-257,-127,424,53,-2
7275,43,-256,-122,428,49,4
7280,46,-255,-123,430,43,13
7285,40,-257,-124,433,38,23
7290,42,-257,-123,434,31,33
7295,42,-256,-116,434,26,43
7300,43,-255,-120,437,18,51
7305,44,-258,-122,436,10,59
7310,40,-258,-117,437,1,66
7315,45,-256,-116,439,-8,75
7320,42,-258,-116,442,-14,79
7325,44,-255,-116,447,-18,82
7330,44,-255,-115,453,-22,83
7335,42,-254,-116,461,-24,82
7340,46,-256,-120,464,-22,80
7345,46,-259,-110,465,-19,76
7350,42,-249,-116,462,-14,73
7355,46,-248,-120,459,-10,68
7360,43,-245,-122,455,-4,62
7365,45,-248,-118,446,2,56
7370,44,-241,-120,439,9,50
7375,46,-242,-118,427,15,45
7380,44,-236,-123,413,21,38
7385,47,-239,-117,397,27,33
7390,49,-239,-116,381,31,27
7395,48,-236,-120,361,33,23
7400,46,-230,-115,346,36,18
7405,46,-235,-114,330,40,15
7410,45,-234,-117,319,44,13
7415,48,-235,-114,307,52,11
7420,47,-236,-116,295,59,11
7425,46,-235,-114,288,65,11
7430,47,-233,-110,278,73,13
7435,48,-235,-109,274,78,16
7440,46,-236,-112,270,85,19
7445,50,-236,-107,266,91,24
7450,48,-236,-109,262,96,25
7455,51,-243,-108,263,99,30
7460,47,-243,-108,265,99,35
7465,48,-246,-109,265,96,40
7470,48,-248,-102,268,89,44
7475,45,-247,-103,273,82,50
7480,44,-250,-106,281,71,55
7485,44,-249,-102,287,61,56
7490,45,-254,-107,293,50,58
7495,41,-254,-105,301,44,61
7500,36,-252,-103,307,38,61
7505,36,-254,-104,314,33,62
7510,38,-254,-101,322,31,63
7515,33,-254,-105,328,34,62
7520,34,-255,-102,333,36,60
7525,34,-257,-98,340,39,58
7530,33,-256,-99,344,40,56
7535,34,-258,-99,346,43,52
7540,37,-257,-95,346,47,50
7545,36,-257,-101,348,47,48
7550,37,-259,-99,347,47,47
7555,34,-259,-99,346,44,45
7560,39,-257,-98,348,41,47
7565,37,-257,-104,348,36,48
7570,42,-258,-100,349,30,49
7575,43,-256,-101,353,27,48
7580,45,-256,-96,357,25,51
7585,45,-253,-101,362,24,50
7590,45,-253,-101,368,24,48
7595,46,-248,-99,373,26,48
7600,49,-247,-97,372,26,47
7605,49,-242,-103,373,28,45
7610,47,-243,-99,370,30,42
7615,47,-240,-100,364,30,37
7620,41,-233,-103,358,33,30
7625,48,-235,-104,349,35,24
7630,47,-234,-101,341,40,21
7635,45,-233,-100,332,44,19
7640,45,-233,-98,322,47,18
7645,48,-231,-99,310,48,18
7650,49,-234,-99,299,47,13
7655,43,-230,-100,290,45,14
7660,47,-231,-99,282,45,14
7665,48,-234,-97,276,47,15
7670,47,-237,-93,273,46,18
7675,47,-237,-96,265,45,22
7680,41,-238,-99,255,43,27
7685,43,-246,-93,242,40,33
7690,43,-245,-96,229,41,35
7695,45,-248,-88,219,44,43
7700,42,-252,-94,210,48,47
7705,44,-255,-96,205,53,50
7710,42,-257,-90,203,59,52
7715,40,-256,-90,203,64,54
7720,45,-263,-88,204,69,55
7725,40,-260,-84,207,73,54
7730,46,-266,-87,215,75,54
7735,37,-264,-82,226,76,50
7740,40,-266,-82,240,74,46
7745,41,-265,-81,255,68,42
7750,42,-266,-82,270,63,40
7755,38,-261,-84,286,57,37
7760,40,-264,-86,298,51,33
7765,37,-263,-83,310,43,29
7770,39,-265,-83,320,37,26
7775,41,-260,-77,328,31,21
7780,35,-258,-83,333,26,18
7785,35,-259,-84,337,23,14
7790,37,-256,-78,339,22,10
7795,38,-256,-79,340,22,7
7800,37,-256,-78,340,23,3
7805,38,-255,-79,339,25,1
7810,40,-255,-78,336,29,-1
7815,41,-254,-75,334,33,-2
7820,41,-256,-76,334,33,-2
7825,38,-251,-74,330,32,-2
7830,39,-252,-71,327,27,0
7835,44,-255,-77,325,22,4
7840,38,-256,-75,325,14,6
7845,40,-255,-72,326,5,10
7850,39,-254,-75,325,-5,13
7855,40,-254,-75,326,-14,18
7860,41,-255,-72,324,-21,22
7865,39,-253,-75,322,-27,26
7870,40,-254,-74,321,-31,32
7875,43,-253,-72,317,-36,35
7880,44,-253,-72,314,-37,39
7885,42,-254,-69,311,-34,44
7890,47,-254,-66,304,-32,48
7895,46,-253,-75,296,-28,49
7900,43,-253,-69,289,-23,51
7905,43,-250,-70,279,-19,50
7910,44,-253,-66,273,-14,50
7915,44,-252,-65,266,-9,49
7920,46,-251,-65,260,-4,49
7925,46,-254,-64,252,1,50
7930,45,-251,-63,244,6,50
7935,45,-252,-62,237,13,49
7940,48,-252,-64,230,16,48
7945,46,-253,-62,221,22,48
7950,46,-254,-61,216,27,46
7955,45,-252,-61,209,31,47
7960,45,-253,-60,205,36,44
7965,45,-255,-62,201,40,43
7970,45,-255,-61,197,44,40
7975,44,-255,-60,193,49,39
7980,43,-257,-56,190,51,37
7985,47,-256,-58,182,52,36
7990,43,-258,-59,177,53,36
7995,41,-257,-59,171,52,35
8000,41,-256,-58,169,51,34
8005,41,-258,-55,164,50,32
8010,40,-260,-58,160,51,32
8015,40,-258,-57,154,52,31
8020,41,-260,-57,148,55,32
8025,40,-258,-55,142,57,32
8030,38,-256,-57,137,59,31
8035,38,-258,-51,135,64,30
8040,35,-260,-57,130,69,31
8045,37,-259,-59,125,73,30
8050,39,-258,-57,121,75,31
8055,37,-256,-61,117,76,29
8060,33,-260,-57,115,79,29
8065,34,-258,-53,115,82,27
8070,34,-259,-55,115,83,27
8075,35,-260,-50,115,82,25
8080,37,-259,-54,116,83,26
8085,35,-258,-52,113,84,24
8090,35,-261,-52,112,83,22
8095,32,-256,-52,107,84,22
8100,34,-257,-51,101,85,20
8105,39,-259,-50,95,86,20
8110,34,-256,-54,88,87,18
8115,35,-260,-48,80,86,17
8120,41,-259,-48,71,86,17
8125,38,-257,-48,66,86,17
8130,37,-257,-46,62,87,16
8135,37,-257,-45,57,89,15
8140,34,-258,-47,50,90,16
8145,38,-256,-47,47,88,19
8150,36,-259,-46,40,86,19
8155,36,-258,-42,33,81,20
8160,35,-259,-43,27,77,21
8165,32,-257,-50,21,73,21
8170,33,-256,-46,18,71,22
8175,37,-259,-45,8,71,22
8180,36,-257,-48,-2,73,22
8185,34,-259,-45,-7,74,24
8190,35,-256,-44,-15,75,24
8195,30,-256,-44,-20,78,23
8200,32,-256,-43,-21,81,22
8205,32,-258,-42,-25,83,21
8210,33,-254,-42,-30,86,21
8215,33,-255,-47,-37,89,20
8220,35,-264,-41,-42,92,20
8225,35,-258,-47,-51,95,20
8230,34,-257,-47,-62,98,21
8235,35,-257,-43,-66,101,20
8240,33,-259,-44,-70,103,21
8245,35,-261,-47,-76,103,22
8250,37,-260,-47,-78,102,23
8255,33,-261,-40,-81,100,25
8260,32,-264,-50,-83,96,26
8265,31,-264,-44,-83,92,25
8270,30,-268,-51,-82,87,24
8275,35,-268,-48,-80,85,24
8280,35,-264,-50,-80,83,21
8285,37,-269,-45,-79,83,20
8290,33,-266,-48,-75,84,19
8295,31,-268,-47,-72,85,17
8300,32,-268,-47,-67,85,14
8305,33,-264,-48,-60,85,12
8310,31,-267,-45,-53,83,10
8315,34,-268,-46,-44,79,8
8320,29,-266,-48,-35,76,4
8325,32,-260,-43,-25,73,1
8330,29,-265,-46,-18,70,-1
8335,35,-266,-45,-13,68,-4
8340,31,-262,-46,-9,65,-6
8345,32,-263,-45,-5,63,-7
8350,31,-262,-45,0,61,-6
8355,33,-265,-46,4,57,-5
8360,28,-263,-41,8,54,-5
8365,32,-260,-41,8,49,-4
8370,29,-259,-41,7,45,-3
8375,32,-260,-37,6,41,-1
8380,29,-260,-45,2,35,1
8385,32,-260,-43,-5,31,0
8390,30,-260,-44,-9,24,0
8395,28,-257,-42,-13,17,4
8400,31,-258,-42,-21,12,3
8405,30,-258,-42,-28,6,4
8410,29,-257,-42,-33,2,4
8415,29,-259,-40,-38,-1,4
8420,29,-256,-41,-42,-3,3
8425,27,-258,-43,-44,-3,0
8430,31,-256,-41,-47,-4,0
8435,29,-258,-47,-49,-2,-3
8440,33,-258,-44,-52,-2,-4
8445,34,-257,-42,-53,0,-8
8450,32,-259,-42,-55,2,-9
8455,33,-256,-44,-58,5,-12
8460,33,-258,-46,-61,8,-15
8465,35,-257,-47,-63,9,-15
8470,28,-259,-46,-67,9,-16
8475,36,-257,-49,-73,7,-17
8480,34,-259,-51,-74,4,-19
8485,37,-260,-47,-76,2,-19
8490,33,-257,-44,-76,0,-18
8495,37,-262,-47,-75,-4,-19
8500,34,-262,-44,-75,-5,-18
8505,33,-262,-45,-76,-7,-21
8510,36,-262,-47,-76,-7,-20
8515,36,-265,-43,-77,-8,-22
8520,37,-260,-46,-78,-5,-21
8525,37,-264,-46,-76,-1,-19
8530,33,-263,-43,-73,3,-19
8535,34,-265,-42,-71,10,-18
8540,39,-265,-40,-68,14,-17
8545,36,-265,-47,-63,18,-17
8550,36,-262,-45,-59,21,-18
8555,36,-264,-41,-56,24,-17
8560,38,-263,-43,-51,27,-20
8565,36,-262,-47,-49,29,-21
8570,37,-262,-47,-47,30,-22
8575,41,-264,-46,-45,34,-23
8580,36,-262,-42,-44,37,-24
8585,37,-265,-46,-42,39,-25
8590,37,-263,-45,-41,43,-25
8595,35,-267,-43,-37,45,-27
8600,36,-263,-47,-35,48,-28
8605,37,-265,-46,-33,51,-26
8610,38,-264,-47,-32,55,-27
8615,37,-262,-42,-32,61,-27
8620,37,-263,-46,-30,66,-28
8625,38,-261,-45,-30,71,-27
8630,37,-262,-41,-30,75,-26
8635,37,-260,-39,-32,78,-24
8640,33,-263,-40,-35,79,-23
8645,40,-264,-49,-38,81,-21
8650,36,-264,-40,-41,83,-19
8655,37,-262,-39,-42,83,-18
8660,39,-265,-41,-39,82,-14
8665,34,-263,-37,-38,83,-12
8670,36,-260,-39,-35,82,-10
8675,36,-265,-38,-31,82,-9
8680,34,-265,-38,-27,80,-9
8685,35,-261,-38,-24,80,-8
8690,33,-259,-44,-23,79,-7
8695,31,-261,-41,-23,79,-7
8700,34,-259,-45,-22,77,-8
8705,34,-261,-40,-23,75,-9
8710,33,-259,-44,-22,73,-9
8715,32,-260,-45,-23,69,-10
8720,35,-259,-45,-23,67,-10
8725,32,-258,-43,-26,66,-11
8730,33,-260,-41,-25,65,-11
8735,35,-257,-47,-28,65,-11
8740,36,-261,-42,-29,65,-13
8745,34,-260,-45,-32,66,-15
8750,34,-261,-44,-36,69,-15
8755,25,-265,-45,-38,70,-15
8760,41,-261,-48,-39,70,-15
8765,31,-261,-42,-42,74,-15
8770,35,-263,-40,-45,76,-15
8775,35,-262,-41,-45,76,-16
8780,34,-259,-41,-46,76,-15
8785,35,-261,-40,-46,76,-15
8790,33,-262,-40,-46,75,-15
8795,36,-264,-45,-46,73,-14
8800,36,-262,-40,-45,72,-14
8805,34,-265,-41,-44,71,-13
8810,39,-263,-38,-41,68,-12
8815,40,-264,-40,-36,69,-11
8820,39,-264,-40,-35,70,-9
8825,36,-262,-43,-31,69,-7
8830,36,-260,-40,-29,68,-6
8835,39,-263,-41,-27,67,-4
8840,37,-259,-37,-27,66,-3
8845,35,-262,-44,-26,64,-1
8850,39,-261,-45,-27,62,0
8855,35,-257,-43,-32,60,2
8860,34,-263,-44,-34,58,2
8865,33,-252,-47,-38,57,2
8870,34,-256,-44,-42,57,3
8875,36,-261,-40,-46,57,3
8880,35,-258,-42,-49,60,2
8885,36,-259,-43,-53,64,0
8890,32,-257,-40,-56,67,-2
8895,33,-259,-42,-58,72,-5
8900,36,-260,-45,-59,76,-7
8905,34,-261,-42,-59,79,-9
8910,34,-262,-44,-58,83,-12
8915,35,-262,-49,-58,85,-13
8920,33,-257,-43,-57,85,-15
8925,36,-261,-44,-58,85,-16
8930,35,-261,-41,-58,84,-17
8935,34,-262,-44,-59,80,-18
8940,36,-261,-39,-60,77,-18
8945,35,-260,-40,-61,74,-19
8950,32,-262,-37,-60,71,-18
8955,39,-265,-37,-57,65,-17
8960,36,-263,-40,-56,61,-17
8965,33,-262,-41,-52,56,-16
8970,43,-261,-39,-50,52,-13
8975,34,-262,-40,-49,48,-12
8980,34,-263,-39,-46,45,-11
8985,34,-265,-39,-41,43,-8
8990,31,-266,-42,-37,40,-5
8995,34,-263,-36,-32,35,-4
9000,35,-267,-39,-26,33,-2
9005,36,-260,-40,-22,31,-2
9010,33,-262,-38,-20,30,0
9015,31,-259,-40,-16,31,1
9020,34,-262,-39,-15,31,2
9025,33,-258,-45,-13,31,1
9030,37,-258,-38,-13,32,2
9035,37,-259,-41,-15,32,1
9040,35,-259,-40,-17,32,0
9045,33,-257,-44,-20,31,-1
9050,38,-259,-41,-23,32,-2
9055,37,-258,-41,-28,30,-4
9060,37,-258,-44,-30,29,-7
9065,35,-258,-38,-30,29,-9
9070,36,-260,-43,-32,28,-10
9075,36,-260,-39,-33,27,-11
9080,35,-253,-43,-34,25,-12
9085,36,-259,-42,-32,22,-13
9090,35,-264,-42,-30,20,-13
9095,36,-260,-41,-32,17,-14
9100,38,-263,-41,-31,15,-15
9105,36,-262,-40,-27,14,-15
9110,34,-264,-37,-24,11,-15
9115,36,-265,-38,-22,8,-16
9120,38,-265,-41,-18,7,-15
9125,33,-263,-44,-17,3,-16
9130,33,-262,-43,-15,0,-15
9135,31,-261,-43,-13,-3,-16
9140,33,-263,-43,-10,-6,-14
9145,35,-263,-42,-6,-9,-15
9150,35,-264,-39,-3,-10,-14
9155,35,-265,-40,2,-10,-14
9160,36,-264,-42,5,-11,-14
9165,33,-262,-40,8,-8,-15
9170,39,-264,-39,12,-7,-13
9175,37,-261,-42,14,-6,-13
9180,39,-261,-41,17,-6,-12
9185,37,-260,-38,16,-4,-12
9190,37,-260,-42,16,-4,-11
9195,38,-259,-37,14,-4,-10
9200,38,-259,-37,12,-4,-10
9205,40,-259,-39,9,-3,-10
9210,38,-257,-36,6,-3,-9
9215,40,-261,-36,2,-1,-9
9220,39,-258,-36,0,-2,-11
9225,38,-259,-38,-5,-1,-11
9230,38,-260,-38,-8,-1,-10
9235,39,-257,-37,-9,1,-11
9240,36,-260,-33,-14,2,-12
9245,37,-259,-37,-16,4,-11
9250,38,-262,-37,-19,6,-12
9255,36,-259,-41,-22,6,-13
9260,36,-263,-37,-22,6,-13
9265,35,-256,-36,-26,4,-13
9270,35,-258,-37,-27,2,-12
9275,37,-259,-33,-30,1,-10
9280,38,-259,-35,-31,-1,-8
9285,33,-262,-36,-35,-2,-8
9290,35,-262,-40,-37,-2,-6
9295,35,-269,-34,-40,-4,-6
9300,36,-262,-36,-40,-5,-5
9305,32,-260,-38,-41,-7,-3
9310,35,-261,-38,-41,-8,-3
9315,34,-262,-35,-38,-11,-2
9320,32,-262,-37,-37,-15,-1
9325,35,-261,-38,-34,-16,0
9330,32,-263,-39,-33,-21,1
9335,31,-259,-42,-30,-23,1
9340,37,-264,-30,-26,-25,1
9345,32,-261,-36,-26,-25,1
9350,36,-257,-34,-22,-25,3
9355,32,-260,-38,-20,-24,1
9360,34,-260,-42,-19,-24,1
9365,34,-262,-37,-20,-24,-1
9370,38,-262,-38,-21,-23,-2
9375,34,-260,-35,-21,-22,-2
9380,36,-261,-39,-21,-22,-2
9385,39,-258,-36,-25,-21,-2
9390,41,-261,-36,-26,-20,-3
9395,39,-262,-36,-28,-19,-3
9400,38,-263,-39,-27,-18,-3
9405,38,-258,-45,-28,-17,-3
9410,37,-260,-37,-30,-16,-3
9415,38,-263,-34,-28,-16,-2
9420,39,-259,-40,-26,-15,-3
9425,40,-260,-36,-27,-13,-3
9430,39,-265,-37,-29,-10,-4
9435,40,-263,-39,-28,-9,-5
9440,38,-260,-37,-29,-8,-2
9445,39,-262,-31,-28,-5,-3
9450,39,-263,-34,-28,-4,-6
9455,36,-263,-36,-31,-2,-6
9460,37,-260,-38,-30,0,-6
9465,36,-261,-35,-28,0,-6
9470,41,-262,-36,-29,0,-9
9475,38,-262,-34,-31,1,-8
9480,38,-262,-38,-31,1,-9
9485,35,-261,-37,-32,1,-9
9490,37,-261,-33,-30,3,-10
9495,40,-262,-40,-31,3,-10
9500,36,-258,-38,-31,3,-11
9505,31,-257,-40,-30,6,-10
9510,40,-263,-39,-33,5,-9
9515,38,-260,-37,-34,4,-9
9520,36,-261,-37,-37,4,-8
9525,34,-260,-38,-38,4,-8
9530,34,-260,-39,-41,3,-8
9535,37,-261,-36,-41,3,-7
9540,36,-260,-41,-42,2,-8
9545,33,-258,-42,-42,1,-7
9550,36,-259,-40,-40,3,-6
9555,38,-262,-39,-37,1,-4
9560,33,-261,-44,-35,2,-4
9565,36,-260,-43,-35,2,-2
9570,34,-264,-42,-33,2,-3
9575,38,-264,-42,-32,1,-2
9580,38,-263,-38,-32,1,-3
9585,36,-262,-38,-30,0,-2
9590,38,-260,-36,-30,-1,-2
9595,36,-263,-35,-30,-2,-1
9600,37,-263,-36,-32,-1,0
9605,39,-266,-35,-35,-1,-1
9610,37,-260,-42,-36,-1,-1
9615,41,-262,-35,-36,-1,2
9620,44,-264,-34,-37,-1,3
9625,38,-260,-40,-37,0,3
9630,37,-261,-36,-35,2,3
9635,36,-260,-43,-35,3,4
9640,39,-261,-39,-34,4,3
9645,39,-260,-41,-33,5,3
9650,38,-258,-42,-31,7,2
9655,39,-262,-42,-32,9,1
9660,37,-262,-38,-33,11,1
9665,38,-259,-40,-33,13,-1
9670,39,-261,-38,-33,15,-2
9675,33,-259,-37,-35,18,-2
9680,37,-259,-36,-36,20,-5
9685,37,-263,-44,-37,21,-6
9690,38,-262,-39,-35,25,-6
9695,38,-262,-39,-33,26,-8
9700,38,-260,-39,-33,26,-9
9705,35,-261,-40,-32,29,-10
9710,39,-263,-37,-31,31,-10
9715,38,-260,-39,-29,32,-11
9720,35,-260,-38,-27,32,-11
9725,37,-261,-35,-29,33,-13
9730,38,-261,-39,-31,34,-12
9735,35,-262,-38,-31,33,-13
9740,37,-260,-39,-32,31,-13
9745,34,-261,-37,-33,30,-15
9750,33,-261,-40,-35,30,-13
9755,35,-262,-43,-34,29,-13
9760,36,-260,-41,-36,28,-13
9765,36,-264,-43,-36,26,-12
9770,36,-261,-35,-33,25,-12
9775,37,-259,-38,-33,22,-13
9780,33,-259,-44,-31,21,-13
9785,35,-262,-39,-28,22,-12
9790,36,-260,-36,-26,20,-14
9795,41,-260,-40,-25,21,-15
9800,38,-261,-36,-24,22,-14
9805,37,-263,-42,-26,22,-15
9810,38,-264,-35,-25,22,-17
9815,35,-260,-37,-25,24,-19
9820,38,-262,-36,-23,25,-19
9825,39,-261,-37,-22,27,-20
9830,38,-262,-37,-23,29,-21
9835,34,-263,-42,-22,31,-22
9840,35,-263,-39,-21,31,-23
9845,37,-260,-38,-19,32,-25
9850,36,-260,-35,-18,33,-26
9855,37,-263,-36,-15,32,-25
9860,34,-259,-35,-15,31,-26
9865,34,-260,-38,-13,32,-26
9870,39,-263,-36,-12,30,-26
9875,33,-263,-37,-12,28,-25
9880,36,-259,-39,-13,27,-24
9885,36,-261,-39,-13,24,-24
9890,34,-260,-36,-14,23,-24
9895,34,-261,-36,-13,20,-24
9900,39,-261,-36,-15,18,-23
9905,34,-262,-39,-16,17,-22
9910,34,-261,-37,-16,14,-19
9915,36,-261,-34,-14,11,-18
9920,36,-262,-33,-13,10,-18
9925,35,-262,-34,-13,8,-17
9930,37,-265,-36,-10,7,-17
9935,35,-261,-32,-7,6,-16
9940,35,-261,-34,-6,6,-15
9945,35,-261,-36,-2,6,-15
9950,34,-261,-36,0,5,-15
9955,37,-260,-32,-1,5,-15
9960,37,-262,-33,0,4,-14
9965,35,-263,-37,1,5,-13
9970,35,-261,-36,2,3,-13
9975,37,-262,-33,1,2,-12
9980,35,-262,-36,-3,1,-12
9985,36,-258,-38,-4,0,-12
9990,38,-261,-34,-5,-1,-12
9995,35,-260,-34,-7,-1,-12
10000,40,-259,-35,-7,-1,-11
10005,37,-259,-37,-6,-1,-12
10010,36,-260,-37,-6,-2,-12
10015,39,-264,-37,-7,-1,-11
10020,37,-260,-35,-8,0,-12
10025,39,-260,-35,-11,1,-12
10030,40,-263,-37,-11,2,-13
10035,37,-260,-41,-10,5,-13
10040,40,-261,-33,-11,6,-14
10045,34,-262,-34,-11,8,-15
10050,36,-265,-39,-10,8,-15
10055,38,-261,-37,-9,9,-16
10060,40,-263,-35,-9,9,-16
10065,40,-262,-34,-7,8,-15
10070,36,-264,-35,-7,8,-16
10075,33,-262,-37,-4,9,-17
10080,37,-260,-38,-2,8,-16
10085,37,-263,-32,-2,7,-16
10090,34,-265,-37,1,7,-16
10095,32,-261,-37,-1,6,-17
10100,36,-261,-37,0,4,-15
10105,37,-260,-39,1,3,-16
10110,32,-258,-31,1,2,-15
10115,35,-260,-34,-1,3,-15
10120,35,-259,-33,-2,3,-14
10125,35,-259,-33,-3,2,-15
10130,34,-260,-37,-5,1,-13
10135,36,-259,-37,-7,2,-13
10140,39,-259,-38,-11,0,-13
10145,36,-261,-35,-12,-1,-11
10150,37,-261,-38,-13,0,-11
10155,38,-260,-33,-17,-1,-11
10160,39,-263,-30,-17,-1,-11
10165,35,-262,-38,-20,-1,-10
10170,39,-262,-36,-22,-1,-11
10175,38,-261,-36,-22,0,-10
10180,37,-260,-34,-23,0,-10
10185,38,-264,-36,-24,1,-11
10190,40,-262,-34,-21,2,-12
10195,39,-261,-32,-20,3,-12
10200,40,-263,-32,-20,3,-13
10205,37,-264,-38,-18,5,-13
10210,38,-263,-30,-16,5,-12
10215,37,-270,-29,-15,3,-14
10220,37,-264,-32,-12,4,-15
10225,38,-264,-35,-10,3,-16
10230,37,-262,-33,-9,4,-15
10235,35,-259,-37,-8,4,-17
10240,36,-260,-33,-6,3,-16
10245,36,-260,-36,-4,4,-15
10250,32,-259,-36,-4,4,-16
10255,37,-262,-36,-4,4,-15
10260,37,-262,-38,-4,2,-14
10265,34,-263,-33,-5,1,-14
10270,39,-262,-28,-5,1,-12
10275,35,-260,-33,-6,1,-13
10280,37,-260,-34,-7,2,-11
10285,34,-259,-35,-8,4,-11
10290,34,-260,-34,-12,6,-12
10295,34,-262,-34,-17,6,-10
10300,35,-259,-35,-18,6,-11
10305,37,-262,-27,-21,6,-11
10310,38,-264,-32,-23,6,-10
10315,34,-261,-32,-24,8,-11
10320,36,-261,-35,-25,8,-10
10325,38,-261,-34,-26,6,-10
10330,39,-260,-32,-23,6,-11
10335,36,-260,-28,-20,5,-11
10340,36,-263,-34,-19,6,-11
10345,37,-259,-32,-19,4,-11
10350,37,-264,-36,-17,2,-12
10355,35,-261,-33,-16,4,-12
10360,37,-261,-33,-15,6,-12
10365,35,-262,-35,-16,6,-13
10370,36,-260,-35,-16,5,-12
10375,36,-257,-34,-16,5,-12
10380,32,-257,-35,-17,3,-13
10385,35,-259,-35,-18,3,-14
10390,32,-258,-34,-19,1,-12
10395,33,-260,-35,-19,0,-13
10400,37,-259,-34,-20,-1,-13
10405,35,-259,-34,-22,-2,-11
10410,35,-260,-32,-23,-1,-11
10415,37,-261,-30,-23,-2,-11
10420,36,-261,-29,-25,-4,-10
10425,39,-263,-32,-26,-3,-9
10430,37,-260,-31,-28,-4,-9
10435,33,-259,-32,-29,-2,-8
10440,37,-259,-33,-29,-1,-8
10445,36,-262,-28,-32,0,-6
10450,35,-259,-28,-31,0,-6
10455,36,-260,-31,-33,1,-6
10460,38,-260,-30,-34,2,-6
10465,38,-261,-25,-35,1,-5
10470,36,-261,-31,-36,2,-6
10475,40,-258,-32,-37,2,-5
10480,37,-258,-32,-39,2,-5
10485,37,-259,-29,-44,2,-6
10490,38,-262,-34,-45,1,-4
10495,39,-259,-30,-47,2,-3
10500,37,-257,-29,-48,4,-5
10505,39,-261,-26,-46,6,-6
10510,38,-258,-30,-48,9,-6
10515,37,-260,-34,-46,10,-6
10520,38,-263,-33,-44,11,-7
10525,38,-263,-32,-43,12,-6
10530,42,-259,-33,-44,16,-4
10535,39,-262,-31,-46,19,-5
10540,45,-259,-23,-46,21,-5
10545,40,-263,-34,-46,22,-4
10550,37,-259,-33,-48,23,-5
10555,38,-264,-30,-48,23,-5
10560,40,-263,-30,-49,26,-4
10565,38,-264,-31,-49,26,-6
10570,37,-263,-32,-48,26,-5
10575,37,-263,-26,-46,26,-6
10580,36,-264,-28,-42,26,-4
10585,37,-262,-30,-39,25,-4
10590,39,-265,-30,-35,24,-4
10595,36,-264,-34,-34,24,-5
10600,41,-265,-32,-31,24,-7
10605,37,-263,-32,-28,23,-6
10610,37,-261,-30,-26,23,-7
10615,36,-259,-27,-25,25,-6
10620,34,-260,-32,-24,25,-7
10625,37,-262,-26,-22,24,-6
10630,39,-262,-31,-22,23,-6
10635,38,-264,-28,-22,23,-6
10640,37,-264,-33,-21,24,-7
10645,40,-267,-24,-20,23,-6
10650,36,-261,-32,-18,21,-6
10655,35,-262,-26,-16,20,-6
10660,38,-263,-32,-12,21,-6
10665,36,-263,-30,-9,22,-6
10670,36,-264,-33,-8,20,-6
10675,39,-261,-30,-5,23,-6
10680,39,-260,-29,-4,23,-6
10685,38,-262,-29,-3,24,-8
10690,41,-261,-27,-1,26,-8
10695,37,-262,-28,-1,26,-8
10700,40,-254,-29,1,27,-7
10705,36,-259,-28,2,25,-9
10710,36,-263,-27,3,25,-8
10715,38,-264,-27,4,23,-9
10720,34,-258,-30,5,22,-8
10725,37,-261,-30,4,22,-8
10730,37,-262,-27,4,21,-6
10735,37,-260,-30,2,19,-6
10740,33,-258,-26,0,18,-5
10745,35,-261,-27,-2,16,-4
10750,35,-259,-25,-2,15,-4
10755,35,-260,-18,-6,16,-6
10760,35,-259,-31,-7,15,-3
10765,39,-260,-26,-7,16,-3
10770,37,-259,-28,-10,15,-1
10775,34,-259,-30,-13,14,-2
10780,37,-262,-29,-15,12,-3
10785,37,-259,-29,-18,9,-2
10790,36,-257,-28,-19,7,-1
10795,31,-259,-23,-21,5,-1
10800,40,-262,-29,-22,3,-1
10805,38,-258,-28,-23,3,-1
10810,36,-254,-29,-23,2,-1
10815,34,-266,-23,-25,0,-1
10820,30,-270,-21,-24,0,0
10825,34,-260,-35,-25,0,0
10830,40,-261,-32,-24,-1,1
10835,37,-258,-20,-25,-1,0
10840,34,-259,-34,-24,0,0
10845,42,-260,-38,-24,0,-1
10850,35,-261,-31,-23,2,-1
10855,35,-262,-28,-24,3,-1
10860,43,-268,-32,-23,5,-1
10865,36,-263,-31,-22,6,-2
10870,27,-255,-37,-24,9,-2
10875,38,-261,-33,-26,10,-3
10880,35,-257,-25,-27,13,-2
10885,39,-265,-16,-29,15,-3
10890,37,-266,-37,-30,18,-5
10895,30,-266,-28,-33,19,-6
10900,49,-260,-16,-36,21,-5
10905,39,-260,-28,-35,22,-6
10910,46,-266,-28,-35,21,-7
10915,42,-260,-27,-35,19,-7
10920,36,-260,-34,-37,18,-6
10925,30,-255,-27,-35,18,-6
10930,37,-266,-27,-35,15,-5
10935,33,-257,-35,-35,13,-3
10940,38,-256,-27,-34,12,-2
10945,32,-255,-24,-35,11,-1
10950,34,-259,-31,-36,11,-1
10955,39,-258,-20,-37,11,-1
10960,39,-258,-30,-38,11,0
10965,36,-259,-25,-41,13,1
10970,36,-259,-27,-43,14,1
10975,37,-260,-27,-43,14,1
10980,28,-260,-23,-41,14,2
10985,36,-262,-27,-43,15,1
10990,34,-258,-22,-41,14,2
10995,36,-260,-25,-39,12,3
11000,35,-259,-25,-38,9,3
11005,34,-259,-30,-38,8,3
11010,37,-260,-24,-34,6,4
11015,38,-258,-24,-33,4,6
11020,35,-261,-27,-31,0,4
11025,34,-258,-30,-31,-4,6
11030,33,-258,-30,-32,-6,6
11035,40,-261,-32,-32,-6,6
11040,37,-262,-30,-31,-5,6
11045,38,-257,-29,-34,-3,6
11050,35,-257,-28,-34,-2,6
11055,43,-265,-40,-36,0,7
11060,37,-260,-28,-36,1,6
11065,39,-263,-28,-38,3,5
11070,42,-260,-27,-39,6,5
11075,39,-260,-27,-40,8,5
11080,41,-261,-32,-40,11,2
11085,37,-263,-29,-39,14,1
11090,39,-263,-24,-37,17,0
11095,39,-265,-23,-35,19,-1
11100,38,-264,-25,-32,21,-2
11105,37,-260,-26,-31,22,-3
11110,39,-262,-25,-31,24,-5
11115,39,-262,-30,-32,24,-4
11120,38,-260,-22,-31,24,-6
11125,37,-262,-27,-32,26,-8
11130,39,-261,-25,-31,27,-9
11135,36,-263,-27,-31,28,-9
11140,39,-263,-25,-31,29,-8
11145,38,-260,-21,-32,29,-8
11150,39,-260,-26,-31,29,-8
11155,38,-261,-29,-32,28,-6
11160,37,-261,-28,-34,27,-5
11165,38,-258,-23,-35,26,-4
11170,39,-262,-25,-36,25,-4
11175,39,-262,-27,-37,24,-3
11180,38,-259,-28,-36,25,-2
11185,40,-263,-27,-35,26,-2
11190,35,-262,-25,-35,28,-3
11195,38,-261,-26,-33,29,-2
11200,37,-261,-25,-33,29,-1
11205,37,-261,-28,-35,30,-2
11210,38,-261,-26,-35,28,-2
11215,38,-260,-30,-35,28,-3
11220,36,-263,-27,-35,27,-4
11225,37,-261,-29,-34,25,-2
11230,33,-258,-27,-36,22,-4
11235,35,-260,-27,-38,21,-4
11240,30,-256,-23,-40,19,-4
11245,35,-259,-28,-41,18,-4
11250,37,-257,-30,-44,16,-4
11255,35,-262,-28,-46,15,-4
11260,32,-260,-28,-47,15,-3
11265,35,-262,-27,-48,15,-3
11270,35,-262,-28,-49,14,-3
11275,34,-263,-26,-47,14,-3
11280,34,-262,-26,-46,14,-3
11285,38,-263,-21,-47,12,-4
11290,38,-264,-25,-43,11,-3
11295,37,-258,-32,-40,11,-2
11300,36,-262,-24,-36,10,-3
11305,37,-263,-25,-34,9,-4
11310,36,-260,-26,-33,8,-3
11315,37,-265,-24,-31,8,-3
11320,36,-262,-24,-32,8,-2
11325,37,-257,-26,-33,8,-2
11330,40,-262,-24,-34,7,-2
11335,39,-263,-24,-34,7,0
11340,37,-262,-19,-35,8,1
11345,35,-262,-24,-36,8,3
11350,34,-255,-23,-37,8,4
11355,34,-261,-25,-36,6,6
11360,34,-257,-20,-36,7,5
11365,36,-257,-22,-36,7,7
11370,40,-260,-25,-38,7,6
11375,37,-259,-26,-36,7,7
11380,36,-261,-24,-38,7,8
11385,35,-262,-26,-38,11,8
11390,42,-261,-25,-38,12,7
11395,38,-260,-28,-38,13,7
11400,36,-257,-26,-36,18,5
11405,38,-262,-27,-38,19,5
11410,38,-262,-30,-38,23,4
11415,37,-262,-25,-38,24,3
11420,37,-258,-30,-39,25,2
11425,37,-261,-28,-38,28,1
11430,36,-259,-25,-39,27,0
11435,38,-261,-25,-39,28,-1
11440,38,-261,-25,-39,28,0
11445,38,-261,-26,-39,29,-2
11450,39,-261,-27,-41,30,-3
11455,38,-262,-26,-41,28,-3
11460,33,-263,-24,-39,28,-3
11465,35,-263,-26,-40,27,-3
11470,37,-258,-25,-39,26,-2
11475,36,-260,-28,-41,24,-3
11480,34,-260,-26,-43,25,-4
11485,36,-257,-25,-44,23,-4
11490,32,-259,-26,-44,22,-3
11495,38,-261,-29,-42,22,-2
11500,35,-262,-27,-43,22,-2
11505,33,-261,-28,-42,23,-2
11510,33,-260,-26,-43,24,-1
11515,36,-255,-31,-45,25,0
11520,38,-258,-27,-44,28,1
11525,36,-261,-29,-45,28,3
11530,38,-261,-26,-46,27,3
11535,40,-261,-27,-45,27,4
11540,40,-262,-28,-46,26,3
11545,39,-259,-24,-44,26,3
11550,39,-262,-26,-42,24,2
11555,38,-262,-24,-41,24,2
11560,37,-262,-25,-43,24,-1
11565,37,-260,-25,-44,23,-2
11570,40,-261,-27,-45,24,-3
11575,37,-258,-23,-47,25,-4
11580,38,-259,-30,-50,26,-4
11585,37,-259,-28,-51,29,-4
11590,38,-259,-22,-54,30,-4
11595,37,-258,-25,-55,31,-4
11600,38,-259,-29,-57,32,-7
11605,36,-259,-24,-59,35,-5
11610,38,-257,-25,-62,38,-5
11615,37,-257,-31,-63,38,-4
11620,42,-257,-21,-64,40,-3
11625,39,-258,-24,-63,40,-4
11630,39,-258,-26,-62,41,-4
11635,39,-261,-27,-61,43,-3
11640,35,-258,-30,-61,44,-2
11645,38,-261,-29,-63,44,-4
11650,36,-258,-27,-67,42,-4
11655,35,-260,-28,-71,41,-3
11660,33,-258,-27,-77,41,-4
11665,33,-259,-29,-76,40,-3
11670,37,-263,-31,-78,39,-5
11675,36,-262,-27,-76,38,-4
11680,34,-260,-27,-77,36,-5
11685,37,-260,-28,-77,35,-5
11690,37,-260,-29,-75,35,-5
11695,38,-261,-26,-77,37,-6
11700,35,-259,-31,-78,39,-7
11705,37,-264,-26,-78,38,-9
11710,35,-261,-27,-79,40,-9
11715,36,-262,-26,-82,43,-9
11720,34,-261,-31,-81,45,-11
11725,37,-264,-28,-82,48,-13
11730,35,-261,-31,-84,49,-15
11735,37,-262,-30,-89,50,-15
11740,35,-263,-28,-92,49,-16
11745,36,-261,-28,-94,48,-16
11750,37,-264,-28,-95,47,-17
11755,37,-262,-26,-93,44,-17
11760,36,-263,-27,-93,41,-16
11765,36,-262,-27,-90,40,-15
11770,33,-265,-27,-87,38,-14
11775,34,-262,-29,-84,35,-15
11780,33,-264,-26,-82,34,-16
11785,40,-264,-27,-79,31,-15
11790,36,-263,-27,-75,30,-11
11795,35,-261,-28,-72,28,-10
11800,35,-261,-31,-70,25,-9
11805,36,-263,-29,-67,22,-6
11810,34,-258,-29,-66,19,-6
11815,38,-263,-31,-66,19,-4
11820,36,-259,-31,-67,18,-2
11825,35,-261,-29,-68,18,-2
11830,41,-267,-33,-68,19,-1
11835,38,-260,-27,-68,22,1
11840,34,-264,-32,-70,23,1
11845,35,-259,-28,-73,25,4
11850,37,-260,-30,-76,27,2
11855,36,-259,-31,-78,30,2
11860,35,-259,-29,-82,34,1
11865,37,-261,-31,-86,37,0
11870,35,-258,-33,-88,41,-2
11875,36,-258,-31,-89,45,-4
11880,36,-259,-30,-91,48,-7
11885,35,-258,-29,-89,53,-9
11890,43,-264,-32,-90,56,-12
11895,35,-259,-30,-87,56,-13
11900,35,-261,-26,-86,57,-15
11905,36,-264,-30,-83,55,-18
11910,36,-263,-30,-83,54,-19
11915,36,-262,-27,-82,53,-20
11920,34,-264,-29,-83,50,-21
11925,32,-264,-31,-83,50,-21
11930,37,-266,-26,-79,49,-19
11935,36,-263,-29,-78,49,-19
11940,33,-262,-33,-76,48,-17
11945,35,-268,-28,-75,47,-16
11950,32,-263,-28,-72,45,-13
11955,34,-262,-31,-72,47,-12
11960,32,-262,-31,-72,46,-10
11965,31,-262,-30,-72,43,-9
11970,34,-260,-29,-73,41,-8
11975,34,-259,-33,-72,40,-6
11980,36,-258,-34,-73,38,-3
11985,36,-260,-32,-73,35,-2
11990,34,-258,-34,-78,34,-1
