timestamp,acc_x,acc_y,acc_z,gyro_x,gyro_y,gyro_z
0,4,-252,-72,-12,83,3
5,7,-250,-70,-12,84,1
10,8,-252,-72,-13,84,1
15,6,-250,-72,-13,82,1
20,7,-251,-69,-13,80,1
25,8,-253,-75,-11,78,0
30,5,-251,-71,-10,77,0
35,7,-250,-73,-8,76,-2
40,7,-252,-70,-7,75,-2
45,5,-250,-72,-7,75,-3
50,7,-251,-74,-7,74,-3
55,6,-249,-67,-6,74,-4
60,7,-249,-72,-8,74,-5
65,5,-251,-68,-7,72,-3
70,7,-250,-70,-8,71,-3
75,9,-257,-62,-8,72,-3
80,6,-251,-72,-9,70,-4
85,5,-251,-71,-9,69,-5
90,6,-249,-72,-11,66,-3
95,5,-250,-69,-10,65,-4
100,6,-248,-71,-10,62,-3
105,8,-251,-75,-8,60,-2
110,7,-251,-70,-9,59,-3
115,5,-253,-72,-8,59,-4
120,6,-252,-68,-10,59,-4
125,9,-252,-72,-10,59,-3
130,5,-249,-68,-11,60,-3
135,6,-251,-66,-11,59,-4
140,4,-251,-68,-13,61,-5
145,7,-251,-71,-15,60,-5
150,7,-250,-69,-16,60,-6
155,10,-251,-70,-15,59,-6
160,5,-252,-70,-15,57,-5
165,8,-250,-71,-16,56,-6
170,9,-248,-68,-16,57,-8
175,4,-252,-74,-18,56,-7
180,5,-251,-69,-20,54,-7
185,5,-250,-72,-22,53,-7
190,5,-248,-70,-22,50,-8
195,7,-250,-72,-24,49,-9
200,6,-250,-70,-25,50,-8
205,5,-248,-72,-27,49,-8
210,7,-251,-74,-28,50,-8
215,7,-248,-72,-30,52,-8
220,8,-253,-70,-29,51,-7
225,7,-249,-70,-28,52,-8
230,9,-250,-71,-26,53,-7
235,8,-248,-68,-26,53,-8
240,7,-249,-71,-25,51,-8
245,7,-249,-69,-26,52,-8
250,8,-254,-69,-25,50,-8
255,8,-247,-72,-27,50,-8
260,8,-250,-72,-29,51,-8
265,7,-249,-70,-31,53,-7
270,6,-249,-73,-32,53,-6
275,7,-252,-73,-33,54,-8
280,7,-250,-71,-35,53,-9
285,6,-248,-75,-34,51,-7
290,5,-250,-70,-34,51,-8
295,7,-251,-72,-35,52,-9
300,9,-251,-72,-34,52,-7
305,5,-250,-72,-33,51,-7
310,7,-249,-74,-34,52,-7
315,6,-246,-72,-35,51,-6
320,8,-250,-70,-36,50,-6
325,8,-251,-70,-37,49,-7
330,5,-250,-72,-39,50,-9
335,6,-251,-70,-39,50,-7
340,6,-252,-76,-36,52,-7
345,10,-253,-69,-33,52,-7
350,7,-251,-74,-34,52,-7
355,8,-252,-71,-32,52,-9
360,8,-251,-73,-30,54,-8
365,6,-251,-75,-29,55,-8
370,7,-250,-77,-29,56,-7
375,6,-250,-72,-27,59,-8
380,6,-252,-70,-26,62,-8
385,9,-251,-74,-25,62,-7
390,7,-250,-74,-25,63,-7
395,5,-251,-72,-25,62,-7
400,7,-249,-68,-24,65,-8
405,8,-251,-71,-23,65,-7
410,7,-250,-71,-22,65,-6
415,8,-251,-72,-23,65,-6
420,6,-251,-73,-23,64,-6
425,7,-250,-71,-23,63,-6
430,4,-250,-73,-22,63,-6
435,5,-249,-72,-24,63,-5
440,11,-252,-71,-25,64,-5
445,6,-251,-73,-24,64,-5
450,6,-247,-72,-25,64,-5
455,6,-248,-70,-25,65,-6
460,7,-249,-76,-25,64,-5
465,9,-249,-69,-26,65,-5
470,7,-249,-71,-27,65,-5
475,4,-246,-77,-29,65,-5
480,6,-248,-69,-32,66,-6
485,6,-249,-70,-33,65,-5
490,6,-250,-72,-36,66,-5
495,6,-252,-73,-35,66,-6
500,7,-251,-74,-35,65,-7
505,6,-249,-73,-34,63,-7
510,5,-249,-75,-35,64,-7
515,5,-249,-72,-34,63,-7
520,8,-250,-72,-32,63,-5
525,6,-252,-74,-31,63,-4
530,7,-249,-73,-28,62,-6
535,9,-252,-74,-28,63,-4
540,8,-250,-71,-27,63,-4
545,8,-250,-75,-27,64,-4
550,7,-250,-76,-28,64,-3
555,8,-250,-72,-29,66,-3
560,6,-247,-75,-30,67,-3
565,6,-253,-75,-29,66,-4
570,6,-250,-73,-29,66,-1
575,8,-250,-74,-28,65,-2
580,8,-254,-74,-28,65,-3
585,9,-250,-77,-28,65,-4
590,5,-249,-73,-27,65,-4
595,6,-248,-74,-27,67,-3
600,7,-253,-73,-27,67,-3
605,7,-250,-70,-27,68,-4
610,8,-249,-77,-26,69,-3
615,6,-251,-71,-26,67,-4
620,5,-252,-76,-25,66,-4
625,7,-254,-75,-24,66,-4
630,7,-253,-72,-25,65,-4
635,8,-250,-72,-25,63,-5
640,6,-250,-78,-26,63,-6
645,5,-251,-75,-26,62,-5
650,6,-251,-70,-26,64,-4
655,8,-249,-75,-28,65,-4
660,5,-249,-74,-27,64,-5
665,9,-252,-74,-27,64,-5
670,9,-251,-75,-27,66,-5
675,6,-248,-77,-28,68,-2
680,7,-249,-74,-27,69,-4
685,9,-250,-75,-27,69,-3
690,6,-252,-77,-29,70,-5
695,5,-249,-74,-30,71,-5
700,8,-249,-74,-27,73,-3
705,7,-251,-74,-26,74,-4
710,6,-249,-76,-26,74,-3
715,6,-248,-75,-25,73,-4
720,4,-250,-77,-25,73,-3
725,6,-247,-69,-25,74,-3
730,7,-248,-72,-26,73,-5
735,7,-248,-75,-28,72,-5
740,8,-248,-75,-32,71,-6
745,9,-249,-79,-34,70,-5
750,6,-249,-79,-35,70,-4
755,7,-250,-78,-38,69,-5
760,5,-248,-75,-38,70,-4
765,7,-247,-77,-37,70,-4
770,5,-248,-79,-36,69,-4
775,8,-249,-75,-37,67,-3
780,5,-247,-76,-37,65,-4
785,6,-249,-73,-39,64,-3
790,6,-248,-79,-39,65,-3
795,6,-246,-74,-40,65,-5
800,9,-251,-75,-42,65,-4
805,5,-248,-74,-42,68,-4
810,7,-249,-75,-44,68,-3
815,5,-250,-78,-42,71,-3
820,8,-250,-79,-41,71,-4
825,6,-251,-74,-39,73,-4
830,7,-253,-74,-36,72,-4
835,5,-248,-73,-35,74,-4
840,5,-250,-70,-34,74,-5
845,6,-251,-74,-34,75,-5
850,7,-251,-74,-34,76,-3
855,6,-248,-70,-36,76,-4
860,6,-251,-74,-35,76,-4
865,7,-251,-75,-34,77,-4
870,6,-250,-74,-32,75,-3
875,6,-248,-76,-33,74,-4
880,8,-251,-74,-31,72,-4
885,8,-252,-77,-30,71,-4
890,8,-249,-74,-31,69,-3
895,8,-247,-78,-32,68,-3
900,7,-250,-78,-32,67,-3
905,7,-252,-76,-32,67,-5
910,7,-247,-75,-33,68,-4
915,6,-247,-75,-33,68,-2
920,8,-250,-74,-32,70,-2
925,7,-248,-79,-32,72,-2
930,8,-249,-75,-32,73,-4
935,8,-250,-79,-32,74,-3
940,5,-246,-75,-32,74,-3
945,6,-247,-78,-31,75,-5
950,6,-250,-73,-31,75,-4
955,6,-249,-74,-31,75,-3
960,5,-247,-74,-31,75,-3
965,8,-252,-73,-32,75,-5
970,7,-250,-76,-30,74,-4
975,6,-251,-74,-31,74,-3
980,6,-248,-78,-29,74,-4
985,3,-250,-78,-28,73,-5
990,6,-248,-72,-27,72,-5
995,5,-248,-76,-26,70,-3
1000,4,-250,-79,-26,69,-4
1005,7,-254,-74,-26,68,-3
1010,7,-248,-78,-25,67,-5
1015,4,-251,-74,-25,68,-4
1020,6,-249,-74,-23,69,-5
1025,6,-251,-73,-21,67,-6
1030,7,-252,-77,-18,68,-6
1035,5,-248,-75,-16,67,-6
1040,5,-249,-77,-15,66,-5
1045,4,-247,-74,-13,68,-6
1050,4,-248,-77,-11,68,-5
1055,5,-249,-76,-11,67,-4
1060,6,-249,-80,-10,66,-5
1065,5,-251,-77,-9,65,-3
1070,5,-250,-77,-8,64,-4
1075,4,-249,-75,-9,63,-5
1080,4,-245,-74,-8,63,-6
1085,4,-246,-77,-10,62,-6
1090,9,-249,-76,-10,60,-6
1095,4,-249,-75,-10,61,-6
1100,8,-249,-75,-13,62,-6
1105,5,-251,-77,-12,61,-7
1110,5,-249,-71,-14,62,-6
1115,6,-249,-80,-14,61,-8
1120,6,-250,-76,-14,62,-8
1125,6,-244,-77,-14,60,-8
1130,6,-249,-75,-15,59,-8
1135,7,-248,-78,-14,58,-9
1140,6,-247,-73,-15,58,-9
1145,4,-248,-76,-16,56,-8
1150,7,-250,-77,-15,56,-6
1155,6,-249,-80,-15,57,-8
1160,4,-248,-76,-14,56,-8
1165,5,-249,-77,-15,57,-7
1170,8,-247,-79,-14,58,-8
1175,5,-245,-76,-15,58,-8
1180,6,-250,-77,-13,58,-6
1185,7,-251,-78,-14,59,-7
1190,6,-251,-77,-14,58,-9
1195,6,-250,-78,-16,59,-9
1200,4,-248,-75,-16,60,-7
1205,5,-247,-76,-15,60,-6
1210,7,-249,-78,-15,61,-6
1215,5,-248,-72,-14,61,-7
1220,7,-253,-76,-12,59,-7
1225,9,-250,-73,-12,60,-7
1230,6,-248,-76,-12,62,-9
1235,6,-248,-77,-11,60,-9
1240,8,-253,-73,-11,60,-7
1245,7,-249,-75,-10,60,-6
1250,6,-252,-75,-8,60,-6
1255,5,-249,-75,-7,59,-6
1260,6,-251,-78,-5,59,-7
1265,4,-249,-79,-3,60,-6
1270,6,-248,-71,-2,60,-5
1275,6,-250,-75,0,59,-7
1280,9,-251,-75,1,59,-7
1285,5,-250,-78,0,59,-7
1290,8,-249,-74,0,58,-6
1295,4,-251,-75,1,56,-6
1300,5,-248,-75,1,56,-5
1305,7,-249,-77,1,56,-4
1310,7,-248,-76,2,56,-4
1315,7,-249,-76,3,54,-3
1320,4,-245,-74,3,53,-3
1325,6,-250,-75,3,56,-3
1330,10,-243,-79,2,56,-4
1335,6,-248,-75,1,57,-3
1340,5,-250,-79,0,59,-5
1345,7,-248,-75,-1,60,-4
1350,6,-248,-74,-1,59,-6
1355,4,-250,-77,0,57,-7
1360,6,-249,-74,0,58,-7
1365,7,-246,-75,0,56,-8
1370,6,-249,-74,1,55,-7
1375,6,-247,-72,0,56,-7
1380,7,-248,-75,-1,56,-5
1385,7,-247,-75,-3,56,-7
1390,5,-252,-79,-2,54,-8
1395,5,-248,-76,0,52,-6
1400,5,-247,-74,-1,53,-7
1405,5,-245,-75,-1,51,-7
1410,5,-249,-73,0,53,-7
1415,8,-250,-75,-1,50,-6
1420,7,-250,-76,0,50,-6
1425,5,-249,-75,-1,51,-5
1430,7,-246,-77,-1,53,-5
1435,8,-251,-74,-2,53,-6
1440,10,-252,-78,-2,55,-5
1445,9,-248,-78,-2,57,-5
1450,6,-250,-76,-2,56,-3
1455,8,-249,-76,0,58,-5
1460,9,-250,-78,0,56,-7
1465,8,-249,-80,-1,59,-4
1470,10,-250,-74,-1,59,-4
1475,7,-247,-75,-1,60,-4
1480,8,-248,-76,0,61,-5
1485,8,-248,-79,1,63,-6
1490,9,-249,-77,1,61,-4
1495,7,-246,-75,0,62,-4
1500,10,-248,-74,0,63,-4
1505,6,-248,-77,-1,64,-5
1510,6,-248,-75,-5,65,-5
1515,9,-250,-78,-7,66,-5
1520,7,-251,-73,-8,66,-6
1525,6,-252,-76,-8,66,-6
1530,5,-248,-77,-9,67,-5
1535,5,-249,-76,-7,65,-5
1540,8,-250,-76,-6,66,-7
1545,7,-248,-73,-3,65,-7
1550,13,-250,-77,-1,67,-6
1555,7,-248,-77,-1,67,-4
1560,8,-250,-79,0,67,-6
1565,6,-249,-75,-1,66,-5
1570,8,-249,-77,-1,66,-5
1575,4,-247,-74,-2,66,-5
1580,5,-248,-73,-3,66,-5
1585,6,-247,-71,-6,68,-4
1590,8,-249,-75,-7,69,-5
1595,8,-248,-74,-7,67,-4
1600,9,-249,-78,-7,68,-4
1605,6,-248,-77,-7,66,-3
1610,6,-248,-74,-7,66,-2
1615,7,-248,-77,-6,64,-4
1620,8,-248,-75,-6,63,-3
1625,6,-249,-72,-7,59,-4
1630,6,-249,-78,-8,57,-4
1635,8,-250,-75,-10,58,-4
1640,7,-249,-78,-11,60,-3
1645,9,-251,-76,-14,61,-3
1650,6,-251,-75,-15,61,-2
1655,12,-248,-81,-15,62,-4
1660,7,-254,-77,-14,62,-4
1665,7,-251,-73,-11,64,-3
1670,5,-252,-75,-9,65,-3
1675,7,-253,-74,-8,65,-3
1680,8,-252,-76,-6,66,-3
1685,8,-252,-75,-4,69,-5
1690,5,-249,-78,-1,71,-4
1695,7,-250,-74,0,72,-3
1700,9,-249,-75,0,73,-3
1705,7,-250,-76,1,75,-4
1710,7,-250,-78,3,73,-4
1715,8,-251,-78,4,72,-3
1720,8,-251,-76,6,70,-4
1725,8,-250,-72,7,70,-2
1730,8,-249,-76,7,67,-2
1735,7,-250,-77,8,66,-2
1740,9,-251,-75,6,67,-1
1745,6,-248,-76,5,66,-2
1750,8,-250,-77,5,66,-3
1755,6,-248,-73,3,68,-2
1760,5,-247,-77,2,66,-2
1765,8,-250,-75,2,67,-1
1770,7,-246,-74,1,66,-2
1775,4,-252,-71,1,68,-2
1780,6,-249,-73,2,69,-2
1785,7,-249,-76,1,71,-3
1790,6,-249,-78,1,71,-4
1795,6,-248,-78,1,73,-3
1800,6,-251,-75,1,74,-3
1805,7,-254,-77,-1,77,-4
1810,7,-249,-74,-3,78,-6
1815,6,-249,-78,-5,79,-6
1820,8,-249,-76,-7,79,-6
1825,6,-250,-77,-8,79,-6
1830,8,-247,-76,-10,77,-5
1835,5,-250,-78,-9,77,-5
1840,8,-250,-71,-8,76,-5
1845,6,-248,-76,-8,72,-4
1850,7,-247,-76,-6,71,-4
1855,7,-250,-78,-5,72,-5
1860,6,-248,-75,-6,71,-3
1865,7,-249,-76,-6,69,-1
1870,7,-251,-78,-8,68,-1
1875,8,-251,-78,-8,68,-2
1880,7,-249,-76,-8,69,-2
1885,6,-251,-73,-7,68,-2
1890,8,-250,-75,-6,67,-1
1895,6,-246,-75,-7,69,-1
1900,7,-250,-76,-7,69,-1
1905,8,-252,-72,-8,72,0
1910,7,-248,-77,-8,72,1
1915,9,-249,-75,-10,73,0
1920,8,-251,-74,-9,75,-2
1925,5,-250,-73,-10,77,-1
1930,6,-252,-75,-9,77,0
1935,6,-249,-72,-11,78,-2
1940,6,-251,-70,-13,79,-3
1945,6,-249,-76,-15,77,-3
1950,5,-252,-71,-15,78,-1
1955,6,-252,-77,-16,77,-2
1960,5,-252,-71,-15,76,-1
1965,7,-252,-72,-15,76,1
1970,6,-251,-73,-15,78,1
1975,9,-251,-72,-15,76,3
1980,6,-249,-73,-16,75,4
1985,9,-247,-73,-16,77,3
1990,7,-251,-73,-17,77,3
1995,6,-250,-78,-15,77,4
2000,6,-251,-73,-15,79,3
2005,7,-248,-75,-15,77,5
2010,6,-248,-76,-15,77,5
2015,8,-251,-73,-14,77,6
2020,6,-250,-72,-12,77,5
2025,7,-251,-74,-13,78,4
2030,6,-248,-72,-12,77,4
2035,6,-250,-72,-12,76,3
2040,6,-252,-77,-10,77,3
2045,8,-252,-74,-10,76,3
2050,5,-249,-76,-10,76,4
2055,8,-253,-78,-9,78,3
2060,7,-252,-74,-8,79,3
2065,6,-250,-70,-7,80,2
2070,5,-252,-76,-6,81,3
2075,5,-251,-72,-6,80,2
2080,8,-251,-77,-3,78,3
2085,8,-251,-71,-2,78,3
2090,4,-249,-70,-3,77,3
2095,7,-250,-77,-2,79,4
2100,6,-250,-75,-2,78,3
2105,8,-250,-72,-1,79,3
2110,4,-249,-72,1,78,2
2115,7,-249,-73,2,76,3
2120,7,-249,-70,5,76,2
2125,5,-251,-77,6,76,0
2130,7,-247,-70,7,77,1
2135,8,-247,-70,7,77,2
2140,9,-251,-68,5,78,3
2145,5,-248,-73,2,77,1
2150,4,-247,-73,-1,77,2
2155,9,-251,-75,-5,76,4
2160,8,-251,-73,-8,75,3
2165,6,-249,-74,-10,75,4
2170,7,-249,-75,-13,75,2
2175,8,-251,-72,-13,76,5
2180,5,-247,-73,-15,78,6
2185,7,-246,-72,-15,78,6
2190,8,-251,-68,-17,79,6
2195,6,-247,-72,-19,80,7
2200,10,-247,-70,-20,81,6
2205,8,-247,-69,-22,82,9
2210,8,-247,-73,-24,84,9
2215,8,-247,-69,-26,83,11
2220,6,-251,-72,-29,83,12
2225,5,-250,-73,-29,82,11
2230,6,-254,-75,-31,80,12
2235,6,-252,-70,-30,78,11
2240,5,-252,-71,-29,76,11
2245,6,-249,-72,-30,74,12
2250,4,-251,-74,-28,73,12
2255,5,-250,-74,-25,73,12
2260,8,-250,-73,-23,74,12
2265,4,-248,-72,-23,75,14
2270,6,-251,-75,-23,75,13
2275,6,-248,-74,-24,76,12
2280,7,-250,-76,-23,77,10
2285,8,-251,-76,-24,76,12
2290,8,-250,-78,-24,75,10
2295,6,-249,-77,-24,75,9
2300,8,-249,-75,-26,76,8
2305,6,-251,-79,-26,77,8
2310,6,-250,-74,-29,81,6
2315,8,-251,-73,-31,83,5
2320,8,-249,-73,-31,85,5
2325,7,-251,-74,-32,87,3
2330,5,-248,-75,-33,89,4
2335,7,-249,-75,-31,90,3
2340,7,-254,-73,-28,90,2
2345,6,-249,-74,-27,91,2
2350,6,-251,-75,-27,90,2
2355,5,-248,-74,-27,89,1
2360,6,-250,-75,-28,89,3
2365,6,-253,-73,-29,88,4
2370,5,-247,-78,-32,86,3
2375,6,-250,-72,-33,82,4
2380,7,-250,-73,-31,81,5
2385,6,-252,-76,-29,80,5
2390,7,-249,-75,-28,81,6
2395,6,-250,-73,-27,81,5
2400,5,-251,-77,-26,82,6
2405,5,-250,-70,-25,84,7
2410,8,-247,-73,-25,85,8
2415,10,-250,-74,-24,86,8
2420,8,-252,-68,-26,85,7
2425,7,-249,-78,-27,88,7
2430,4,-248,-74,-29,88,7
2435,6,-247,-74,-31,88,7
2440,8,-248,-74,-31,89,8
2445,5,-249,-75,-29,88,8
2450,5,-248,-71,-28,87,10
2455,6,-249,-76,-28,85,9
2460,4,-250,-76,-28,84,8
2465,8,-250,-73,-29,84,9
2470,7,-249,-77,-31,85,8
2475,5,-251,-75,-32,85,9
2480,4,-249,-74,-34,85,9
2485,6,-250,-72,-34,85,9
2490,4,-251,-70,-34,87,10
2495,4,-250,-73,-34,87,9
2500,4,-251,-74,-33,87,9
2505,4,-253,-73,-32,89,11
2510,6,-250,-71,-31,89,10
2515,5,-246,-73,-30,90,11
2520,6,-247,-76,-29,94,11
2525,7,-250,-77,-27,94,11
2530,6,-248,-77,-27,96,11
2535,8,-251,-76,-25,97,11
2540,7,-251,-77,-23,98,12
2545,6,-249,-72,-21,98,12
2550,10,-249,-77,-20,97,13
2555,5,-249,-75,-18,98,13
2560,9,-251,-74,-19,96,12
2565,5,-248,-70,-20,95,13
2570,5,-247,-71,-22,95,13
2575,7,-250,-74,-24,96,12
2580,4,-247,-81,-26,94,13
2585,7,-249,-71,-30,95,13
2590,6,-248,-73,-31,93,12
2595,5,-250,-76,-33,91,13
2600,6,-248,-72,-33,90,11
2605,7,-252,-72,-32,90,11
2610,8,-251,-66,-32,90,9
2615,6,-249,-75,-31,91,11
2620,5,-252,-74,-28,92,8
2625,6,-253,-74,-25,92,7
2630,5,-252,-72,-21,92,7
2635,7,-257,-70,-19,94,7
2640,7,-252,-73,-16,91,7
2645,5,-252,-75,-16,90,6
2650,6,-252,-74,-16,88,5
2655,5,-251,-71,-17,87,4
2660,6,-251,-74,-16,84,4
2665,5,-251,-71,-16,82,3
2670,5,-248,-74,-14,80,2
2675,4,-251,-77,-10,80,4
2680,8,-252,-75,-10,80,3
2685,6,-251,-77,-8,78,4
2690,6,-251,-76,-6,78,4
2695,4,-250,-74,-6,76,4
2700,5,-251,-72,-7,75,4
2705,6,-249,-72,-9,75,3
2710,6,-247,-70,-12,74,2
2715,6,-249,-71,-13,72,1
2720,8,-248,-71,-17,72,0
2725,6,-248,-71,-18,71,0
2730,6,-249,-72,-17,69,0
2735,9,-249,-74,-17,68,-1
2740,6,-249,-74,-17,69,-1
2745,8,-255,-71,-18,69,0
2750,5,-248,-77,-19,69,-1
2755,4,-249,-72,-21,68,-2
2760,5,-250,-78,-25,69,-2
2765,4,-252,-76,-23,68,-2
2770,7,-255,-73,-24,66,-2
2775,7,-252,-77,-25,67,-3
2780,5,-249,-73,-25,64,-4
2785,5,-250,-76,-25,63,-4
2790,6,-249,-74,-25,62,-4
2795,5,-245,-78,-23,62,-5
2800,6,-248,-72,-23,63,-5
2805,5,-252,-74,-21,64,-6
2810,6,-250,-77,-22,65,-7
2815,5,-249,-77,-21,63,-8
2820,6,-247,-74,-19,63,-6
2825,6,-249,-77,-21,63,-5
2830,5,-247,-76,-20,63,-6
2835,6,-248,-77,-21,62,-6
2840,8,-250,-76,-22,64,-6
2845,5,-248,-78,-22,65,-5
2850,6,-246,-76,-23,65,-5
2855,8,-249,-69,-25,65,-6
2860,5,-248,-75,-28,64,-6
2865,7,-249,-76,-30,63,-6
2870,6,-249,-75,-33,62,-8
2875,5,-247,-79,-37,62,-7
2880,5,-249,-75,-39,60,-8
2885,5,-249,-79,-41,59,-9
2890,5,-250,-75,-42,59,-8
2895,6,-248,-75,-42,59,-7
2900,4,-246,-81,-43,61,-5
2905,6,-251,-78,-44,63,-6
2910,8,-249,-77,-44,66,-5
2915,8,-251,-76,-46,69,-6
2920,7,-249,-76,-45,73,-6
2925,7,-249,-81,-45,74,-6
2930,7,-249,-75,-43,75,-4
2935,4,-247,-80,-40,77,-4
2940,6,-249,-78,-40,77,-5
2945,8,-248,-80,-37,78,-4
2950,5,-247,-77,-36,76,-2
2955,5,-248,-80,-33,75,-3
2960,5,-248,-81,-33,76,-2
2965,15,-246,-76,-31,76,-1
2970,5,-247,-76,-30,76,-1
2975,7,-249,-81,-29,76,-1
2980,6,-247,-81,-26,75,1
2985,7,-248,-79,-23,74,1
2990,5,-247,-80,-22,73,1
2995,4,-245,-82,-22,72,2
3000,5,-248,-81,-20,73,2
3005,4,-249,-85,-21,75,4
3010,5,-245,-83,-19,74,4
3015,3,-243,-88,-17,76,6
3020,6,-249,-86,-18,77,6
3025,6,-243,-84,-17,77,6
3030,7,-246,-85,-16,79,7
3035,2,-240,-80,-19,80,5
3040,5,-244,-83,-22,82,9
3045,4,-242,-81,-26,83,9
3050,6,-247,-81,-28,83,9
3055,5,-244,-80,-31,83,10
3060,7,-248,-82,-33,83,10
3065,5,-246,-81,-35,80,12
3070,5,-246,-83,-37,79,14
3075,11,-247,-86,-37,80,12
3080,5,-245,-84,-39,79,13
3085,6,-243,-86,-40,80,12
3090,4,-245,-82,-41,81,13
3095,4,-239,-80,-42,81,13
3100,5,-241,-85,-42,82,13
3105,6,-244,-81,-44,80,16
3110,6,-241,-82,-46,78,15
3115,4,-241,-80,-49,77,15
3120,4,-242,-81,-54,78,18
3125,4,-240,-84,-60,78,19
3130,3,-238,-84,-65,78,19
3135,5,-238,-78,-71,78,19
3140,5,-236,-86,-77,78,21
3145,7,-235,-84,-83,75,22
3150,5,-238,-84,-91,73,22
3155,4,-236,-89,-102,74,22
3160,4,-240,-85,-112,72,25
3165,4,-239,-83,-125,73,25
3170,3,-243,-86,-134,74,25
3175,5,-242,-87,-142,75,29
3180,7,-243,-86,-151,76,27
3185,7,-243,-84,-157,75,28
3190,5,-243,-91,-159,77,28
3195,5,-245,-90,-160,80,28
3200,5,-245,-90,-159,81,27
3205,7,-244,-90,-157,82,28
3210,5,-243,-90,-156,81,24
3215,4,-243,-91,-155,84,25
3220,4,-243,-90,-156,86,23
3225,4,-243,-92,-154,86,23
3230,6,-237,-94,-151,86,22
3235,6,-245,-93,-148,87,21
3240,6,-242,-93,-142,88,20
3245,4,-242,-92,-138,89,17
3250,4,-240,-92,-135,87,18
3255,5,-239,-89,-133,88,17
3260,3,-240,-96,-132,88,16
3265,4,-240,-92,-131,89,18
3270,5,-240,-94,-134,88,18
3275,5,-236,-96,-134,89,19
3280,6,-237,-94,-139,88,19
3285,4,-236,-98,-142,87,21
3290,9,-240,-100,-146,88,21
3295,6,-235,-95,-151,88,24
3300,7,-237,-98,-153,90,24
3305,5,-231,-92,-154,90,24
3310,7,-236,-92,-154,93,25
3315,8,-234,-95,-153,91,27
3320,6,-232,-93,-152,90,26
3325,6,-232,-93,-156,89,26
3330,6,-231,-95,-163,88,26
3335,7,-232,-101,-173,88,26
3340,6,-232,-95,-187,87,24
3345,6,-232,-97,-199,87,24
3350,4,-231,-99,-213,84,21
3355,6,-234,-104,-224,82,20
3360,5,-231,-101,-236,76,20
3365,5,-230,-102,-246,73,19
3370,5,-226,-100,-253,70,17
3375,4,-228,-104,-258,68,15
3380,5,-229,-101,-263,67,15
3385,5,-227,-104,-266,64,12
3390,5,-224,-101,-270,63,9
3395,3,-224,-99,-273,61,6
3400,2,-218,-102,-280,58,6
3405,4,-223,-102,-288,57,3
3410,3,-220,-106,-295,54,1
3415,2,-221,-98,-304,51,-4
3420,-2,-217,-100,-315,47,-10
3425,-2,-217,-103,-329,43,-14
3430,1,-219,-101,-347,38,-17
3435,2,-222,-102,-369,37,-18
3440,2,-222,-107,-393,37,-20
3445,2,-223,-110,-417,37,-24
3450,5,-214,-112,-438,40,-25
3455,2,-227,-106,-457,37,-26
3460,2,-227,-113,-474,37,-28
3465,4,-223,-109,-489,39,-28
3470,4,-223,-110,-501,38,-28
3475,5,-222,-108,-511,39,-29
3480,4,-218,-110,-517,36,-29
3485,4,-219,-110,-521,30,-29
3490,4,-218,-110,-524,23,-29
3495,5,-213,-106,-525,18,-31
3500,3,-209,-108,-528,11,-31
3505,4,-205,-109,-536,4,-29
3510,5,-205,-107,-547,-2,-27
3515,4,-204,-108,-562,-7,-25
3520,6,-207,-107,-579,-10,-23
3525,6,-206,-109,-601,-11,-18
3530,5,-205,-110,-628,-12,-17
3535,6,-203,-110,-657,-11,-15
3540,4,-204,-106,-687,-11,-15
3545,5,-209,-109,-714,-13,-12
3550,5,-207,-112,-740,-17,-7
3555,5,-209,-113,-766,-22,-6
3560,4,-213,-112,-791,-27,-5
3565,4,-218,-111,-814,-36,-4
3570,4,-220,-113,-836,-41,-6
3575,1,-220,-114,-856,-47,-7
3580,4,-223,-121,-875,-52,-6
3585,2,-226,-119,-892,-54,-7
3590,3,-229,-125,-906,-54,-7
3595,-1,-233,-129,-917,-54,-7
3600,2,-229,-128,-924,-52,-6
3605,1,-231,-132,-924,-50,-8
3610,-2,-230,-130,-917,-46,-9
3615,-1,-232,-129,-902,-45,-8
3620,-2,-231,-128,-875,-47,-10
3625,-5,-224,-123,-837,-53,-15
3630,-3,-229,-121,-796,-55,-20
3635,-2,-222,-120,-751,-56,-21
3640,-4,-224,-119,-714,-56,-21
3645,-1,-221,-119,-684,-53,-23
3650,-1,-217,-116,-666,-47,-23
3655,1,-216,-122,-660,-42,-24
3660,1,-213,-124,-661,-38,-25
3665,4,-215,-121,-677,-35,-25
3670,0,-210,-121,-695,-34,-22
3675,2,-207,-121,-715,-34,-18
3680,4,-207,-123,-739,-34,-12
3685,3,-205,-127,-764,-33,-6
3690,4,-207,-120,-787,-33,0
3695,4,-209,-125,-810,-32,5
3700,4,-211,-130,-833,-29,11
3705,6,-215,-132,-849,-27,16
3710,6,-216,-131,-874,-27,19
3715,6,-219,-137,-899,-23,20
3720,6,-225,-142,-923,-22,24
3725,6,-229,-148,-944,-20,27
3730,5,-231,-142,-954,-19,31
3735,6,-238,-146,-953,-19,33
3740,5,-237,-143,-937,-18,33
3745,6,-240,-140,-906,-19,29
3750,5,-237,-147,-863,-18,31
3755,3,-244,-148,-815,-17,31
3760,5,-241,-144,-765,-15,34
3765,4,-237,-145,-714,-13,28
3770,3,-236,-148,-665,-12,23
3775,-4,-236,-144,-619,-10,14
3780,-2,-225,-145,-579,-6,4
3785,2,-229,-141,-544,-2,-4
3790,-1,-223,-144,-512,4,-17
3795,-3,-219,-145,-486,14,-26
3800,0,-220,-142,-462,21,-34
3805,-3,-214,-142,-443,29,-42
3810,-5,-211,-143,-426,38,-50
3815,-5,-205,-140,-413,44,-56
3820,-4,-203,-144,-403,51,-59
3825,-4,-197,-147,-396,60,-59
3830,-4,-192,-143,-392,66,-58
3835,-3,-193,-145,-394,72,-57
3840,-4,-186,-152,-398,79,-56
3845,-5,-182,-148,-407,84,-54
3850,-2,-180,-148,-421,85,-49
3855,-2,-176,-148,-437,84,-46
3860,-1,-178,-152,-455,76,-43
3865,-3,-171,-152,-477,65,-41
3870,-3,-174,-157,-501,49,-39
3875,-5,-172,-156,-525,33,-36
3880,0,-178,-161,-544,15,-36
3885,0,-181,-162,-565,0,-38
3890,-5,-183,-164,-585,-9,-36
3895,-3,-186,-169,-603,-16,-34
3900,-4,-187,-167,-622,-19,-32
3905,-5,-186,-168,-631,-19,-30
3910,-5,-189,-168,-634,-19,-29
3915,-6,-192,-166,-629,-18,-26
3920,-10,-191,-164,-616,-16,-25
3925,-5,-192,-162,-600,-12,-21
3930,-7,-193,-163,-575,-11,-19
3935,-10,-194,-164,-547,-8,-11
3940,-8,-194,-162,-516,-7,-7
3945,-8,-191,-158,-485,-12,-4
3950,-5,-192,-158,-452,-21,2
3955,-4,-191,-163,-421,-25,6
3960,-4,-192,-163,-399,-27,12
3965,-3,-189,-170,-388,-30,18
3970,-2,-191,-169,-385,-34,24
3975,0,-191,-174,-390,-36,26
3980,0,-185,-175,-394,-39,27
3985,-4,-185,-176,-397,-42,25
3990,0,-184,-173,-396,-45,21
3995,-1,-182,-178,-396,-46,9
4000,-1,-179,-174,-396,-46,3
4005,-7,-175,-172,-393,-44,-6
4010,-1,-179,-174,-392,-40,-10
4015,-4,-181,-174,-391,-34,-16
4020,-2,-181,-174,-389,-29,-22
4025,-3,-180,-175,-392,-24,-25
4030,-2,-178,-183,-393,-16,-24
4035,-3,-181,-183,-399,-8,-26
4040,-5,-182,-185,-403,-1,-25
4045,-5,-181,-183,-402,6,-23
4050,-2,-183,-187,-397,8,-15
4055,-5,-183,-180,-385,10,-6
4060,-2,-184,-185,-366,11,1
4065,-3,-181,-183,-346,10,3
4070,-8,-184,-181,-317,7,8
4075,-6,-185,-180,-283,6,14
4080,-8,-183,-177,-249,3,15
4085,-8,-186,-178,-219,-1,15
4090,-9,-184,-181,-189,1,19
4095,-8,-189,-178,-165,4,21
4100,-8,-186,-181,-140,7,26
4105,-13,-175,-173,-116,12,27
4110,-2,-191,-180,-90,19,39
4115,-3,-187,-178,-68,25,32
4120,-2,-187,-182,-52,28,26
4125,-4,-183,-177,-35,32,19
4130,-3,-180,-178,-18,38,17
4135,-2,-179,-178,-1,41,15
4140,2,-183,-184,14,45,11
4145,-3,-178,-180,26,51,8
4150,1,-182,-176,35,55,11
4155,-3,-174,-182,43,61,8
4160,4,-180,-180,53,66,19
4165,3,-184,-180,65,74,24
4170,-1,-178,-179,71,85,13
4175,1,-182,-180,83,94,10
4180,2,-180,-180,97,103,11
4185,2,-180,-183,109,114,10
4190,-1,-184,-182,123,124,14
4195,3,-181,-181,138,132,16
4200,4,-184,-184,153,140,22
4205,6,-191,-181,180,144,46
4210,1,-186,-181,211,144,41
4215,3,-190,-179,246,142,38
4220,0,-187,-179,290,133,35
4225,-6,-189,-176,337,124,36
4230,-5,-186,-175,375,120,35
4235,-7,-190,-170,414,118,48
4240,-6,-190,-174,449,116,62
4245,-6,-191,-172,467,113,48
4250,-11,-189,-173,485,111,42
4255,-8,-191,-171,499,106,38
4260,-18,-186,-172,513,103,39
4265,-12,-193,-175,535,99,57
4270,-12,-194,-175,538,96,46
4275,-9,-195,-175,532,98,48
4280,-10,-196,-176,542,99,38
4285,-5,-201,-177,562,102,42
4290,-9,-197,-175,577,115,33
4295,-10,-197,-175,584,125,13
4300,-9,-196,-172,589,136,5
4305,-14,-180,-164,593,144,0
4310,-3,-197,-172,602,152,13
4315,-5,-190,-169,596,161,1
4320,-1,-193,-171,585,162,-9
4325,-6,-192,-169,571,163,-9
4330,-10,-188,-167,555,162,-9
4335,-1,-195,-165,544,160,4
4340,3,-193,-163,521,156,-10
4345,1,-192,-165,488,149,-19
4350,1,-193,-164,454,142,-18
4355,-7,-185,-172,420,134,-15
4360,5,-193,-164,385,125,0
4365,1,-191,-168,339,115,-10
4370,2,-193,-162,292,104,-14
4375,4,-191,-163,246,96,-13
4380,-1,-191,-167,209,89,1
4385,0,-196,-162,173,82,-5
4390,-1,-196,-164,142,77,-12
4395,-3,-197,-156,116,72,-14
4400,-1,-202,-160,97,71,-16
4405,-2,-202,-162,87,70,-6
4410,-2,-202,-161,85,71,-6
4415,-5,-202,-158,82,71,-10
4420,-4,-202,-158,83,71,-11
4425,-7,-204,-159,87,73,-9
4430,-6,-203,-156,96,74,-7
4435,-4,-209,-161,113,72,2
4440,-10,-206,-158,138,74,0
4445,-10,-204,-157,155,71,-6
4450,-8,-207,-156,171,71,0
4455,-6,-205,-156,189,75,1
4460,-4,-208,-159,207,78,7
4465,-8,-202,-155,227,89,11
4470,-2,-208,-155,237,92,6
4475,-5,-199,-157,244,98,-3
4480,-17,-191,-147,250,106,-8
4485,-2,-204,-161,256,112,-2
4490,-2,-198,-160,258,118,-11
4495,-5,-200,-158,251,120,-20
4500,1,-199,-156,248,124,-27
4505,-3,-197,-157,241,125,-32
4510,7,-197,-159,239,124,-25
4515,-2,-202,-159,244,121,-41
4520,0,-202,-155,237,112,-40
4525,1,-200,-153,230,104,-37
4530,3,-199,-154,224,95,-37
4535,1,-197,-155,220,89,-34
4540,1,-199,-154,217,84,-32
4545,2,-200,-158,216,81,-30
4550,4,-204,-156,224,83,-4
4555,0,-200,-153,221,77,-18
4560,1,-197,-156,215,78,-24
4565,0,-196,-156,205,83,-24
4570,4,-200,-159,194,90,-24
4575,3,-197,-157,183,97,-23
4580,0,-198,-154,173,104,-22
4585,1,-197,-155,164,112,-18
4590,1,-197,-154,156,115,-14
4595,4,-199,-155,150,117,-11
4600,1,-196,-161,144,117,-11
4605,-1,-203,-159,147,119,-16
4610,2,-200,-152,137,120,-8
4615,4,-203,-154,124,118,-1
4620,1,-202,-156,115,115,0
4625,0,-203,-154,106,117,0
4630,0,-201,-159,93,118,-3
4635,2,-202,-156,81,116,-6
4640,2,-200,-158,69,117,-10
4645,-1,-201,-157,62,114,-6
4650,0,-203,-155,53,108,-11
4655,-3,-200,-155,45,107,-18
4660,2,-206,-158,40,104,-21
4665,-1,-203,-159,37,104,-25
4670,-2,-203,-153,38,102,-27
4675,3,-204,-154,40,100,-28
4680,-3,-202,-156,44,99,-27
4685,-3,-197,-157,50,98,-26
4690,2,-201,-149,56,97,-27
4695,-3,-200,-154,62,97,-25
4700,-1,-200,-153,66,98,-23
4705,1,-203,-162,69,99,-23
4710,-12,-186,-158,73,101,-11
4715,3,-198,-152,77,99,2
4720,-2,-195,-150,69,92,-8
4725,3,-195,-153,60,92,-10
4730,-4,-193,-155,58,99,-33
4735,0,-196,-152,49,104,-24
4740,-1,-196,-150,33,105,-13
4745,1,-194,-151,16,103,-8
4750,0,-195,-151,0,106,-6
4755,4,-196,-147,-13,110,-6
4760,4,-197,-154,-22,114,-8
4765,2,-196,-153,-31,118,-9
4770,0,-193,-152,-33,120,-13
4775,2,-196,-149,-32,121,-14
4780,3,-196,-152,-28,122,-12
4785,4,-197,-151,-20,122,-11
4790,4,-198,-151,-8,120,-11
4795,4,-199,-152,0,118,-10
4800,4,-197,-153,6,113,-9
4805,4,-197,-151,14,112,-8
4810,3,-201,-151,17,107,-6
4815,6,-201,-153,22,103,-3
4820,2,-199,-148,25,99,-4
4825,5,-201,-149,29,98,5
4830,6,-198,-148,36,94,3
4835,3,-199,-152,42,92,-2
4840,4,-198,-149,47,94,-5
4845,4,-198,-153,54,95,-4
4850,2,-201,-147,61,97,-5
4855,0,-198,-151,68,97,-2
4860,3,-202,-151,74,96,-4
4865,2,-201,-150,77,93,-4
4870,3,-201,-151,78,91,-4
4875,7,-199,-148,83,91,-9
4880,-2,-203,-152,92,93,-28
4885,2,-200,-152,91,91,-12
4890,4,-203,-154,92,87,4
4895,4,-204,-151,93,83,6
4900,3,-204,-153,93,83,3
4905,4,-203,-151,94,86,1
4910,3,-205,-153,94,90,-2
4915,4,-207,-152,96,95,-3
4920,3,-203,-155,98,101,-3
4925,0,-205,-151,98,106,-4
4930,1,-206,-155,105,112,19
4935,10,-210,-152,108,108,17
4940,5,-207,-154,105,111,-3
4945,4,-203,-154,100,124,-10
4950,3,-207,-157,96,130,-16
4955,6,-206,-152,91,132,-17
4960,4,-204,-156,82,132,-19
4965,5,-202,-157,74,130,-20
4970,4,-204,-153,64,123,-20
4975,4,-205,-153,55,117,-21
4980,-7,-198,-150,51,111,-34
4985,-4,-209,-151,62,115,-62
4990,4,-206,-147,50,108,-32
4995,4,-203,-149,37,92,-22
5000,4,-203,-148,25,84,-17
5005,4,-204,-150,14,77,-13
5010,4,-203,-150,5,73,-10
5015,4,-203,-153,-2,71,-7
5020,3,-208,-151,-9,69,-3
5025,3,-207,-147,-13,67,2
5030,4,-207,-151,-16,65,3
5035,3,-211,-144,-16,62,4
5040,5,-208,-151,-17,62,4
5045,4,-209,-145,-16,58,4
5050,4,-208,-146,-15,57,8
5055,4,-206,-147,-17,52,4
5060,4,-208,-151,-18,48,3
5065,4,-209,-150,-20,48,1
5070,4,-206,-149,-21,49,0
5075,4,-212,-150,-25,49,-1
5080,1,-207,-144,-27,49,-4
5085,3,-208,-147,-29,52,-4
5090,3,-208,-145,-31,54,-6
5095,5,-209,-144,-31,56,-7
5100,5,-211,-144,-30,60,-8
5105,5,-209,-151,-27,64,-8
5110,4,-206,-146,-23,68,-11
5115,4,-206,-145,-21,71,-13
5120,4,-207,-145,-19,75,-12
5125,4,-205,-144,-15,77,-15
5130,5,-203,-148,-16,79,-16
5135,6,-204,-147,-15,81,-14
5140,7,-204,-147,-15,81,-15
5145,11,-201,-147,-14,80,-16
5150,4,-202,-148,-13,81,-16
5155,6,-205,-149,-13,79,-16
5160,4,-203,-147,-13,75,-16
5165,6,-204,-141,-11,75,-15
5170,5,-203,-144,-9,71,-14
5175,4,-203,-147,-6,70,-12
5180,4,-207,-144,-3,69,-12
5185,3,-206,-146,1,69,-13
5190,5,-205,-142,8,67,-13
5195,2,-207,-147,13,65,-11
5200,4,-203,-144,19,64,-11
5205,2,-205,-148,23,63,-9
5210,4,-205,-145,26,61,-8
5215,5,-204,-145,27,59,-6
5220,2,-205,-142,27,58,-5
5225,3,-204,-146,27,54,-2
5230,2,-204,-150,23,53,-1
5235,2,-206,-143,20,49,1
5240,1,-203,-151,17,51,0
5245,2,-205,-146,15,54,1
5250,3,-206,-149,12,55,3
5255,2,-206,-148,9,57,4
5260,3,-206,-150,7,60,2
5265,1,-203,-146,4,64,1
5270,4,-208,-150,3,65,0
5275,-2,-204,-145,-1,67,0
5280,2,-205,-145,-4,70,-3
5285,3,-203,-148,-6,74,-4
5290,3,-202,-149,-9,77,-4
5295,4,-203,-150,-13,78,-8
5300,3,-202,-143,-15,82,-8
5305,3,-204,-146,-17,83,-7
5310,0,-204,-149,-18,84,-9
5315,5,-205,-149,-20,84,-10
5320,4,-203,-146,-18,85,-10
5325,4,-203,-147,-18,85,-9
5330,6,-203,-143,-17,85,-9
5335,2,-202,-143,-16,83,-9
5340,3,-205,-143,-14,82,-8
5345,3,-203,-145,-10,80,-6
5350,4,-206,-147,-6,78,-5
5355,3,-203,-145,-5,75,-2
5360,7,-208,-147,-3,73,0
5365,4,-205,-150,-1,71,3
5370,3,-206,-146,0,69,7
5375,3,-204,-148,1,67,9
5380,3,-204,-147,2,64,11
5385,4,-205,-146,4,63,13
5390,1,-206,-146,5,62,16
5395,4,-204,-148,7,60,14
5400,4,-205,-147,11,60,15
5405,2,-202,-146,14,61,16
5410,3,-201,-147,17,61,17
5415,4,-204,-149,21,61,16
5420,2,-204,-145,24,62,14
5425,2,-202,-146,25,64,13
5430,3,-201,-146,25,67,12
5435,3,-203,-149,25,70,10
5440,2,-206,-145,25,73,7
5445,0,-201,-147,22,76,7
5450,-1,-199,-149,20,78,5
5455,2,-205,-147,16,79,5
5460,4,-203,-147,13,79,5
5465,3,-205,-148,12,81,3
5470,3,-205,-156,9,83,2
5475,2,-206,-149,6,84,1
5480,4,-204,-151,5,85,1
5485,4,-201,-151,4,86,0
5490,4,-203,-149,2,86,-1
5495,1,-201,-150,-1,87,-1
5500,-2,-201,-147,-2,89,-1
5505,3,-205,-149,-5,91,-1
5510,3,-203,-150,-4,93,0
5515,4,-206,-147,-6,96,-1
5520,3,-205,-146,-8,98,0
5525,3,-203,-145,-9,99,0
5530,4,-205,-147,-11,102,0
5535,0,-204,-145,-12,104,0
5540,4,-205,-146,-12,105,3
5545,0,-203,-144,-9,105,3
5550,1,-203,-148,-6,104,3
5555,2,-204,-148,-2,104,6
5560,2,-201,-148,3,99,7
5565,1,-201,-146,6,94,9
5570,1,-203,-149,8,90,12
5575,3,-204,-144,9,84,14
5580,8,-202,-150,9,77,17
5585,3,-201,-145,9,70,20
5590,-3,-201,-146,8,65,23
5595,0,-199,-149,5,58,24
5600,2,-199,-146,4,55,25
5605,-2,-203,-148,3,53,26
5610,0,-203,-143,5,53,25
5615,0,-205,-142,7,54,24
5620,-1,-203,-144,10,58,23
5625,-3,-202,-145,16,63,23
5630,-4,-199,-142,20,69,20
5635,0,-202,-146,24,75,19
5640,-1,-204,-145,26,80,17
5645,2,-205,-147,26,86,15
5650,1,-205,-149,24,89,14
5655,4,-202,-151,20,94,12
5660,1,-203,-147,17,97,12
5665,2,-204,-146,12,100,11
5670,4,-205,-152,10,102,10
5675,4,-207,-149,9,105,11
5680,1,-205,-147,9,108,11
5685,3,-206,-144,12,109,11
5690,4,-208,-147,14,111,12
5695,0,-207,-146,18,113,13
5700,4,-205,-145,22,114,12
5705,4,-206,-145,27,114,13
5710,4,-206,-146,30,113,12
5715,4,-206,-150,33,111,14
5720,2,-201,-148,34,109,14
5725,1,-204,-146,34,105,15
5730,3,-205,-145,31,101,15
5735,2,-203,-145,29,96,17
5740,4,-201,-149,25,91,16
5745,4,-202,-148,20,85,17
5750,1,-201,-148,16,81,18
5755,1,-203,-144,13,78,18
5760,3,-204,-151,10,74,18
5765,1,-203,-148,8,71,20
5770,0,-204,-146,6,69,16
5775,3,-204,-148,6,70,17
5780,0,-204,-148,4,71,17
5785,-3,-206,-150,3,72,15
5790,1,-206,-146,4,73,14
5795,-5,-203,-159,5,76,13
5800,2,-204,-147,6,80,12
5805,2,-205,-147,4,84,12
5810,3,-206,-144,3,86,13
5815,-1,-202,-142,2,87,12
5820,0,-204,-146,1,88,12
5825,0,-203,-147,-3,89,9
5830,2,-205,-144,-4,90,9
5835,1,-204,-144,-6,90,8
5840,0,-202,-146,-8,90,8
5845,3,-203,-146,-8,92,8
5850,2,-203,-143,-7,91,9
5855,1,-204,-146,-5,91,8
5860,1,-203,-141,-3,92,7
5865,2,-203,-142,0,91,8
5870,3,-206,-141,3,91,8
5875,2,-207,-144,6,91,8
5880,4,-204,-142,9,91,7
5885,3,-206,-145,11,93,7
5890,5,-207,-142,12,95,7
5895,4,-205,-145,12,96,6
5900,4,-208,-146,12,97,6
5905,6,-200,-148,10,97,5
5910,4,-204,-144,9,98,5
5915,4,-208,-145,6,94,6
5920,4,-202,-147,4,92,6
5925,4,-209,-148,2,91,7
5930,4,-206,-145,2,88,7
5935,4,-206,-146,2,85,7
5940,2,-205,-144,3,81,8
5945,2,-208,-146,5,77,8
5950,2,-204,-143,8,75,9
5955,5,-207,-145,11,73,9
5960,2,-207,-143,15,70,8
5965,3,-207,-144,18,68,8
5970,4,-205,-141,20,67,6
5975,2,-206,-146,21,65,6
5980,2,-206,-146,20,65,4
5985,1,-205,-146,18,65,3
5990,3,-206,-145,15,64,3
5995,2,-205,-145,10,63,0
6000,3,-205,-144,6,62,0
6005,4,-210,-143,4,63,-1
6010,-2,-204,-145,1,65,-1
6015,0,-203,-140,1,64,-3
6020,1,-204,-145,1,64,-6
6025,1,-206,-145,-1,64,-6
6030,1,-204,-144,-2,66,-5
6035,3,-206,-141,-2,66,-6
6040,3,-206,-143,0,66,-5
6045,3,-206,-142,2,69,-7
6050,3,-207,-145,3,68,-9
6055,-1,-206,-146,5,69,-11
6060,0,-205,-140,7,70,-11
6065,4,-207,-144,9,71,-11
6070,4,-208,-141,10,71,-10
6075,3,-206,-144,12,71,-11
6080,4,-206,-145,13,70,-11
6085,3,-205,-145,12,70,-10
6090,1,-209,-140,11,68,-9
6095,4,-208,-144,11,66,-11
6100,4,-206,-144,11,64,-11
6105,4,-206,-145,11,62,-10
6110,3,-209,-145,11,59,-9
6115,4,-210,-144,11,55,-10
6120,4,-208,-147,11,51,-9
6125,2,-213,-138,12,49,-8
6130,4,-210,-142,14,47,-7
6135,4,-209,-145,15,45,-7
6140,2,-211,-148,15,41,-7
6145,3,-210,-144,18,41,-5
6150,4,-206,-145,19,42,-4
6155,2,-206,-145,19,46,-5
6160,2,-205,-143,20,48,-4
6165,5,-207,-142,18,50,-7
6170,5,-206,-142,17,49,-6
6175,3,-206,-143,16,50,-6
6180,5,-207,-142,14,51,-10
6185,3,-205,-140,13,51,-9
6190,4,-207,-145,13,48,-10
6195,3,-207,-143,13,46,-11
6200,2,-207,-142,11,44,-13
6205,2,-209,-140,11,44,-13
6210,5,-208,-143,10,42,-15
6215,2,-209,-141,9,44,-16
6220,4,-208,-140,8,43,-17
6225,0,-209,-144,8,44,-18
6230,3,-218,-139,8,43,-18
6235,2,-203,-142,8,45,-19
6240,-1,-208,-138,8,44,-20
6245,4,-207,-138,8,45,-20
6250,4,-209,-143,10,46,-21
6255,1,-205,-141,12,48,-21
6260,2,-206,-141,15,49,-21
6265,-1,-207,-141,18,49,-20
6270,1,-208,-143,19,48,-20
6275,5,-204,-141,20,46,-19
6280,4,-209,-143,21,44,-19
6285,4,-207,-142,20,42,-19
6290,2,-206,-139,18,40,-18
6295,2,-206,-140,16,37,-19
6300,3,-209,-142,15,35,-16
6305,4,-208,-139,12,37,-18
6310,1,-207,-145,11,37,-19
6315,2,-210,-141,8,38,-18
6320,3,-206,-144,9,39,-18
6325,2,-210,-142,9,43,-20
6330,1,-210,-142,10,46,-20
6335,0,-210,-146,10,47,-20
6340,3,-210,-139,10,51,-20
6345,2,-208,-145,9,52,-21
6350,2,-207,-137,9,55,-20
6355,1,-207,-143,9,57,-22
6360,4,-208,-142,9,55,-21
6365,0,-210,-145,10,53,-22
6370,2,-206,-142,9,51,-22
6375,2,-207,-146,9,48,-21
6380,3,-208,-143,6,46,-22
6385,3,-205,-140,4,46,-22
6390,1,-208,-139,3,47,-22
6395,2,-208,-139,2,47,-22
6400,0,-207,-139,2,48,-22
6405,1,-210,-138,1,47,-22
6410,3,-212,-138,2,49,-22
6415,1,-211,-138,5,49,-22
6420,1,-210,-142,6,50,-22
6425,2,-208,-140,9,51,-21
6430,2,-210,-140,11,48,-21
6435,4,-210,-144,11,49,-21
6440,1,-210,-140,14,50,-20
6445,-1,-208,-142,14,48,-18
6450,5,-206,-140,15,50,-19
6455,2,-209,-141,16,48,-16
6460,4,-208,-144,18,51,-15
6465,2,-213,-142,20,53,-15
6470,1,-210,-141,21,54,-13
6475,-1,-212,-140,24,58,-12
6480,1,-212,-143,27,61,-14
6485,3,-213,-143,30,63,-13
6490,3,-212,-139,31,64,-13
6495,2,-214,-139,33,65,-13
6500,0,-211,-138,37,65,-12
6505,1,-210,-138,38,64,-12
6510,1,-210,-141,39,62,-11
6515,2,-211,-141,41,59,-8
6520,-1,-207,-138,40,58,-7
6525,0,-208,-139,40,56,-6
6530,3,-208,-144,39,54,-5
6535,4,-210,-141,37,53,-7
6540,3,-209,-140,35,51,-8
6545,2,-209,-145,34,51,-8
6550,3,-208,-142,33,52,-7
6555,4,-210,-140,31,52,-7
6560,-2,-215,-135,29,53,-6
6565,-1,-209,-140,28,54,-6
6570,3,-209,-140,26,58,-7
6575,4,-212,-139,26,61,-8
6580,4,-211,-141,24,63,-10
6585,4,-211,-141,25,66,-10
6590,4,-211,-140,24,67,-9
6595,1,-211,-137,23,70,-9
6600,1,-210,-140,21,73,-11
6605,4,-211,-140,20,73,-12
6610,2,-211,-138,18,73,-12
6615,3,-210,-142,16,75,-12
6620,4,-211,-139,14,72,-13
6625,4,-212,-140,11,71,-12
6630,2,-209,-139,9,69,-12
6635,1,-210,-138,7,67,-13
6640,4,-212,-137,7,64,-13
6645,2,-208,-143,7,63,-12
6650,1,-210,-137,8,61,-9
6655,4,-211,-139,9,61,-10
6660,3,-210,-137,13,61,-9
6665,-1,-210,-134,14,62,-9
6670,4,-219,-135,13,63,-7
6675,1,-211,-136,14,63,-6
6680,3,-210,-139,13,62,-6
6685,4,-211,-137,11,64,-5
6690,4,-210,-137,8,64,-4
6695,1,-211,-138,6,64,-3
6700,4,-210,-136,4,64,-3
6705,3,-211,-136,2,63,-2
6710,2,-211,-137,1,64,-2
6715,3,-209,-138,0,65,-3
6720,3,-211,-135,0,66,-1
6725,4,-210,-142,0,65,-2
6730,4,-212,-138,2,66,-4
6735,3,-211,-137,4,66,-3
6740,5,-211,-140,5,68,-3
6745,3,-212,-136,7,68,-4
6750,3,-209,-138,9,69,-4
6755,4,-211,-137,11,69,-5
6760,3,-209,-139,13,71,-4
6765,2,-210,-138,14,71,-4
6770,4,-209,-140,16,70,-5
6775,3,-208,-128,19,70,-4
6780,3,-209,-143,18,70,-2
6785,4,-212,-141,18,70,-3
6790,4,-212,-134,17,69,-2
6795,3,-210,-135,16,67,-2
6800,4,-209,-138,17,66,0
6805,3,-211,-136,18,66,1
6810,4,-211,-136,19,66,2
6815,4,-215,-135,20,67,3
6820,1,-212,-138,23,68,2
6825,0,-210,-135,28,68,3
6830,3,-215,-138,31,69,2
6835,1,-209,-139,33,68,2
6840,3,-211,-135,35,69,3
6845,2,-213,-133,37,68,3
6850,2,-214,-136,37,66,2
6855,4,-213,-139,37,67,3
6860,2,-211,-136,37,65,3
6865,-1,-214,-138,34,66,5
6870,3,-214,-140,32,66,4
6875,2,-212,-140,30,66,4
6880,1,-211,-138,28,65,4
6885,5,-213,-138,27,64,4
6890,4,-212,-137,26,66,3
6895,1,-213,-136,25,67,5
6900,2,-214,-138,23,66,3
6905,4,-213,-139,19,67,3
6910,1,-211,-140,19,68,0
6915,3,-211,-138,17,68,-1
6920,4,-214,-140,16,68,0
6925,3,-215,-142,15,67,0
6930,4,-216,-137,17,67,1
6935,4,-217,-141,18,66,1
6940,1,-214,-136,18,65,1
6945,4,-212,-137,18,64,2
6950,4,-215,-137,17,65,3
6955,4,-215,-140,14,65,3
6960,4,-212,-136,12,65,3
6965,4,-213,-141,12,63,1
6970,3,-215,-137,11,64,2
6975,4,-215,-136,12,63,3
6980,4,-211,-130,10,61,3
6985,2,-212,-138,12,61,2
6990,4,-211,-137,11,60,1
6995,13,-209,-115,12,61,-1
7000,-9,-219,-125,12,62,0
7005,4,-215,-137,14,60,0
7010,4,-217,-133,14,60,0
7015,-2,-218,-129,15,61,0
7020,4,-208,-138,19,60,-1
7025,1,-218,-134,23,58,1
7030,-7,-201,-128,27,57,3
7035,0,-217,-126,31,53,4
7040,2,-217,-146,35,49,6
7045,-2,-209,-137,40,46,9
7050,0,-219,-132,44,41,10
7055,-3,-220,-133,51,38,12
7060,0,-221,-135,57,36,14
7065,-2,-222,-132,64,36,14
7070,1,-224,-140,72,35,15
7075,-8,-229,-135,80,37,17
7080,0,-227,-126,87,40,17
7085,0,-227,-137,94,45,17
7090,-4,-224,-137,100,48,18
7095,1,-241,-133,103,49,18
7100,-2,-235,-140,104,50,19
7105,3,-224,-137,102,50,19
7110,-1,-232,-134,100,46,20
7115,4,-211,-137,95,42,22
7120,1,-218,-133,88,36,24
7125,0,-226,-132,84,29,23
7130,0,-230,-139,81,25,23
7135,-2,-229,-132,76,22,26
7140,-4,-228,-134,76,19,28
7145,-8,-226,-133,75,19,28
7150,4,-229,-132,74,20,31
7155,0,-227,-128,74,19,30
7160,-4,-233,-130,75,18,30
7165,1,-235,-130,76,19,33
7170,-3,-231,-132,75,18,34
7175,6,-224,-143,77,17,35
7180,3,-235,-146,79,14,37
7185,9,-232,-131,82,12,35
7190,0,-234,-133,83,9,34
7195,-2,-217,-124,85,10,32
7200,-3,-236,-130,87,8,29
7205,-2,-235,-130,91,8,27
7210,-1,-236,-130,95,7,26
7215,2,-241,-130,102,8,23
7220,5,-241,-141,110,10,20
7225,11,-242,-132,119,13,17
7230,-6,-245,-126,128,15,15
7235,-1,-245,-126,135,18,12
7240,-3,-246,-148,143,23,11
7245,2,-233,-126,147,25,10
7250,3,-242,-147,150,23,8
7255,-15,-229,-138,150,20,6
7260,7,-243,-149,146,18,4
7265,-3,-247,-132,138,13,3
7270,11,-244,-142,129,9,2
7275,0,-241,-133,118,1,-2
7280,-1,-241,-130,106,-3,-6
7285,-1,-238,-130,93,-7,-8
7290,-4,-237,-129,81,-10,-12
7295,-12,-238,-131,66,-15,-14
7300,-3,-239,-133,53,-17,-17
7305,-7,-225,-123,39,-21,-24
7310,2,-233,-128,27,-24,-26
7315,-11,-233,-124,14,-26,-29
7320,-3,-230,-127,3,-29,-32
7325,-1,-232,-116,-6,-29,-35
7330,-5,-238,-129,-15,-29,-39
7335,-9,-214,-126,-21,-29,-38
7340,-8,-231,-120,-29,-28,-40
7345,-12,-235,-119,-35,-27,-40
7350,-8,-230,-124,-42,-29,-41
7355,-9,-231,-124,-50,-29,-41
7360,-10,-230,-125,-60,-29,-43
7365,-10,-230,-126,-70,-28,-39
7370,-6,-232,-106,-80,-29,-39
7375,-10,-226,-126,-92,-28,-38
7380,-17,-234,-122,-102,-28,-37
7385,-6,-230,-126,-107,-30,-36
7390,-6,-221,-133,-116,-29,-36
7395,-17,-237,-125,-119,-29,-38
7400,-12,-233,-117,-121,-27,-35
7405,-14,-213,-132,-120,-24,-35
7410,-5,-232,-122,-116,-25,-36
7415,-9,-227,-122,-109,-20,-35
7420,-11,-233,-119,-102,-17,-35
7425,-5,-229,-125,-93,-14,-38
7430,-7,-231,-125,-82,-12,-40
7435,-4,-230,-122,-71,-8,-43
7440,-7,-230,-124,-61,-7,-46
7445,-5,-233,-122,-50,-4,-49
7450,-4,-227,-121,-40,-2,-50
7455,1,-223,-120,-31,-3,-52
7460,-4,-227,-124,-25,-5,-52
7465,-6,-234,-118,-19,-5,-52
7470,0,-226,-121,-15,-7,-56
7475,0,-233,-119,-13,-11,-59
7480,-2,-231,-125,-12,-15,-55
7485,-13,-231,-102,-14,-20,-55
7490,-3,-234,-131,-14,-26,-53
7495,-2,-231,-119,-17,-31,-51
7500,-8,-233,-116,-15,-33,-52
7505,-6,-226,-117,-14,-37,-51
7510,-8,-223,-124,-13,-38,-50
7515,-1,-236,-142,-11,-35,-48
7520,-6,-232,-126,-6,-33,-48
7525,-4,-237,-125,-3,-31,-45
7530,-6,-235,-121,-4,-27,-44
7535,-4,-233,-124,-3,-25,-48
7540,-6,-237,-123,-1,-23,-48
7545,-4,-234,-123,1,-22,-48
7550,-2,-233,-121,5,-21,-47
7555,-6,-234,-122,8,-19,-50
7560,-5,-236,-121,16,-15,-51
7565,-4,-231,-116,27,-11,-51
7570,-4,-234,-122,39,-9,-50
7575,-4,-230,-121,47,-6,-49
7580,-5,-228,-119,60,-6,-52
7585,-6,-226,-124,71,-7,-53
7590,-3,-228,-121,82,-8,-53
7595,-2,-232,-118,91,-8,-55
7600,-4,-227,-122,102,-10,-56
7605,-5,-230,-121,108,-9,-54
7610,3,-229,-128,118,-5,-56
7615,-4,-226,-124,130,-2,-55
7620,-7,-227,-123,142,1,-51
7625,-4,-226,-120,159,5,-51
7630,-3,-225,-118,176,9,-50
7635,-2,-225,-116,193,10,-51
7640,-5,-225,-120,213,12,-49
7645,-6,-225,-121,232,13,-50
7650,-7,-225,-116,249,13,-48
7655,-8,-227,-113,264,15,-45
7660,-8,-223,-120,277,18,-43
7665,-6,-226,-121,284,23,-43
7670,-6,-227,-118,291,31,-42
7675,-4,-227,-123,295,40,-42
7680,-5,-227,-120,297,50,-45
7685,-6,-225,-122,299,57,-47
7690,-3,-230,-118,303,64,-44
7695,-4,-229,-118,310,68,-41
7700,-2,-229,-113,316,71,-42
7705,-6,-229,-117,328,72,-45
7710,-4,-228,-113,341,73,-45
7715,-2,-230,-116,356,72,-41
7720,-4,-228,-113,368,72,-40
7725,-4,-227,-111,378,72,-40
7730,2,-231,-117,387,73,-40
7735,-9,-230,-110,392,74,-41
7740,-3,-232,-111,394,77,-40
7745,-2,-231,-111,396,79,-38
7750,-3,-229,-109,396,80,-39
7755,-1,-228,-117,393,83,-44
7760,-2,-232,-111,389,85,-45
7765,-2,-233,-111,387,88,-44
7770,-2,-233,-112,387,89,-45
7775,-1,-232,-110,388,90,-45
7780,-1,-231,-114,391,90,-44
7785,-1,-233,-109,397,91,-43
7790,-3,-233,-112,406,92,-41
7795,0,-233,-109,414,89,-44
7800,0,-234,-107,421,87,-45
7805,-4,-239,-104,426,84,-46
7810,-5,-228,-107,428,82,-48
7815,-5,-229,-111,437,82,-38
7820,-4,-227,-107,444,87,-30
7825,-5,-229,-107,449,93,-26
7830,-3,-228,-107,451,99,-24
7835,-1,-225,-108,456,105,-24
7840,-2,-223,-110,459,111,-24
7845,-3,-223,-108,458,116,-24
7850,-4,-224,-107,459,122,-26
7855,-1,-224,-107,459,131,-29
7860,0,-222,-104,455,140,-33
7865,-6,-224,-113,451,150,-36
7870,-2,-220,-102,448,160,-34
7875,-1,-219,-103,440,164,-32
7880,1,-218,-105,430,167,-30
7885,4,-219,-102,417,166,-34
7890,-3,-217,-106,399,159,-31
7895,4,-219,-99,381,151,-25
7900,2,-222,-105,359,144,-32
7905,-1,-215,-107,332,130,-37
7910,1,-218,-106,315,122,-20
7915,-5,-220,-105,303,113,-16
7920,4,-218,-107,290,105,-17
7925,-2,-218,-107,282,103,-17
7930,2,-218,-106,282,103,-18
7935,4,-218,-104,286,103,-18
7940,-2,-216,-102,293,106,-16
7945,1,-219,-105,297,112,-15
7950,1,-219,-102,299,119,-17
7955,1,-216,-106,292,128,-18
7960,2,-217,-107,282,136,-18
7965,-1,-217,-111,262,144,-17
7970,1,-217,-109,236,149,-14
7975,-5,-220,-115,207,150,-14
7980,0,-215,-108,181,149,-14
7985,1,-217,-108,160,144,-12
7990,2,-221,-106,146,141,-12
7995,1,-216,-102,140,138,-10
8000,1,-221,-103,136,139,-12
8005,4,-223,-110,139,141,-14
8010,2,-222,-103,137,143,-31
8015,4,-220,-104,142,145,-30
8020,4,-224,-103,155,146,-14
8025,1,-228,-106,165,144,-11
8030,2,-224,-102,169,139,-11
8035,3,-226,-103,169,132,-12
8040,-2,-224,-107,168,121,-12
8045,-4,-224,-102,166,113,-13
8050,0,-226,-104,163,105,-11
8055,-1,-224,-105,162,101,-10
8060,1,-227,-106,160,99,-10
8065,1,-226,-107,161,99,-12
8070,2,-229,-104,161,100,-12
8075,0,-225,-103,161,100,-10
8080,-1,-229,-103,158,103,-11
8085,4,-233,-109,157,105,-12
8090,2,-227,-105,153,105,-15
8095,3,-233,-106,145,107,-17
8100,0,-234,-101,138,107,-18
8105,2,-234,-104,127,105,-20
8110,-2,-235,-101,122,100,-21
8115,1,-239,-104,120,98,-19
8120,3,-236,-103,123,96,-21
8125,-1,-237,-99,128,98,-19
8130,-1,-239,-102,131,102,-21
8135,1,-240,-109,134,108,-21
8140,2,-239,-105,137,114,-19
8145,1,-239,-101,141,115,-20
8150,3,-242,-102,149,114,-23
8155,3,-243,-99,159,108,-23
8160,4,-241,-100,170,101,-27
8165,4,-243,-98,177,97,-27
8170,7,-241,-101,179,92,-28
8175,8,-241,-98,177,89,-29
8180,5,-238,-99,171,87,-31
8185,4,-239,-100,162,88,-33
8190,5,-240,-99,157,89,-30
8195,6,-243,-93,154,90,-36
8200,5,-241,-97,151,89,-47
8205,5,-237,-99,154,89,-46
8210,3,-235,-96,162,87,-45
8215,4,-236,-94,176,87,-35
8220,6,-235,-94,188,89,-31
8225,4,-232,-95,196,91,-30
8230,3,-237,-92,201,95,-30
8235,4,-234,-93,200,97,-28
8240,1,-234,-91,194,98,-27
8245,4,-236,-94,188,97,-25
8250,4,-233,-95,179,94,-26
8255,3,-240,-97,169,93,-26
8260,4,-234,-97,159,90,-25
8265,5,-237,-96,148,91,-25
8270,4,-235,-94,140,94,-24
8275,4,-237,-97,136,101,-24
8280,4,-238,-94,131,110,-17
8285,4,-240,-94,131,118,-19
8290,1,-236,-92,136,122,-23
8295,4,-241,-93,139,127,-27
8300,4,-235,-93,145,128,-27
8305,0,-235,-91,150,126,-32
8310,1,-236,-90,153,122,-33
8315,1,-240,-85,154,118,-32
8320,-1,-234,-91,147,114,-32
8325,-3,-236,-91,138,111,-32
8330,0,-237,-92,128,109,-30
8335,-2,-241,-89,116,103,-29
8340,-6,-238,-90,107,98,-30
8345,-4,-239,-89,102,89,-29
8350,-1,-241,-89,102,80,-30
8355,0,-237,-90,102,72,-30
8360,4,-241,-91,103,67,-34
8365,2,-244,-90,101,63,-36
8370,-1,-243,-93,97,62,-36
8375,1,-243,-93,92,61,-33
8380,1,-244,-86,89,63,-32
8385,3,-242,-88,89,65,-29
8390,2,-241,-86,92,66,-29
8395,1,-240,-89,96,65,-28
8400,3,-242,-88,101,62,-25
8405,1,-238,-88,103,60,-23
8410,-2,-239,-87,102,57,-23
8415,-1,-238,-86,99,55,-23
8420,4,-235,-89,94,53,-23
8425,-1,-236,-91,87,51,-21
8430,2,-234,-89,77,51,-18
8435,1,-234,-86,64,49,-18
8440,3,-235,-87,50,48,-15
8445,5,-234,-83,34,51,-20
8450,3,-236,-85,26,50,-16
8455,5,-237,-84,19,49,-13
8460,5,-241,-83,16,47,-11
8465,3,-238,-81,17,43,-11
8470,4,-241,-81,16,43,-13
8475,3,-239,-80,11,38,-15
8480,2,-238,-81,4,34,-14
8485,4,-240,-84,-4,32,-14
8490,1,-241,-84,-12,29,-14
8495,-1,-240,-88,-19,27,-14
8500,4,-242,-79,-26,27,-11
8505,1,-244,-87,-30,27,-10
8510,-3,-245,-83,-34,29,-11
8515,-1,-245,-83,-39,32,-9
8520,-4,-245,-87,-41,34,-9
8525,0,-245,-83,-44,37,-9
8530,0,-248,-79,-46,41,-9
8535,-2,-244,-87,-49,44,-8
8540,1,-250,-85,-50,47,-6
8545,0,-245,-86,-52,50,-9
8550,3,-248,-84,-54,54,-10
8555,3,-249,-83,-55,56,-9
8560,4,-250,-81,-55,57,-9
8565,4,-250,-85,-54,59,-10
8570,4,-249,-84,-50,59,-11
8575,5,-248,-84,-47,62,-14
8580,5,-252,-83,-38,63,-14
8585,8,-252,-80,-32,63,-16
8590,5,-249,-77,-25,64,-16
8595,5,-251,-78,-19,66,-18
8600,5,-252,-80,-14,66,-18
8605,7,-252,-78,-11,65,-18
8610,4,-247,-77,-9,63,-18
8615,4,-247,-77,-8,65,-17
8620,4,-248,-75,-6,69,-15
8625,5,-247,-74,-5,73,-15
8630,3,-245,-80,-5,78,-14
8635,4,-248,-78,-6,84,-13
8640,4,-249,-77,-9,88,-12
8645,5,-249,-76,-13,87,-9
8650,5,-249,-78,-19,86,-8
8655,4,-250,-78,-26,85,-3
8660,5,-252,-78,-30,85,-1
8665,5,-248,-82,-31,85,2
8670,4,-251,-81,-29,87,3
8675,4,-253,-81,-24,88,6
8680,5,-249,-78,-18,88,8
8685,4,-250,-79,-10,90,9
8690,6,-252,-80,0,93,10
8695,9,-251,-77,8,97,13
8700,6,-248,-76,16,99,13
8705,7,-248,-79,21,104,13
8710,7,-249,-81,24,107,14
8715,7,-245,-80,25,109,13
8720,6,-245,-77,24,110,13
8725,4,-246,-79,19,112,12
8730,5,-246,-76,15,111,13
8735,4,-247,-77,9,110,12
8740,4,-245,-77,5,109,10
8745,4,-244,-72,-1,109,10
8750,2,-246,-77,-8,110,8
8755,4,-249,-74,-13,109,7
8760,5,-247,-76,-18,107,7
8765,2,-249,-74,-20,106,8
8770,4,-251,-70,-19,105,8
8775,3,-250,-75,-18,103,7
8780,1,-248,-76,-15,104,7
8785,3,-249,-77,-14,102,5
8790,1,-248,-75,-13,102,4
8795,4,-253,-76,-15,101,5
8800,4,-252,-77,-16,100,6
8805,4,-250,-77,-18,99,5
8810,3,-249,-76,-23,99,4
8815,4,-250,-76,-26,95,5
8820,3,-252,-70,-28,90,6
8825,4,-249,-78,-24,84,5
8830,4,-250,-75,-21,82,4
8835,5,-251,-74,-15,79,4
8840,2,-250,-74,-11,79,2
8845,3,-250,-75,-8,81,2
8850,4,-250,-78,-7,81,0
8855,5,-250,-74,-9,85,-1
8860,3,-246,-74,-11,84,-1
8865,5,-247,-75,-15,85,-3
8870,3,-249,-78,-19,83,-3
8875,5,-250,-75,-20,82,-2
8880,3,-251,-73,-20,80,-3
8885,4,-248,-74,-20,75,-3
8890,3,-249,-75,-17,73,-4
8895,2,-247,-79,-14,70,-3
8900,4,-246,-77,-12,68,-1
8905,5,-250,-78,-10,66,0
8910,3,-246,-78,-9,64,-1
8915,1,-248,-78,-6,64,-1
8920,4,-249,-78,-3,61,-1
8925,5,-248,-74,-2,59,-1
8930,5,-249,-75,-1,59,0
8935,4,-250,-78,-2,58,1
8940,4,-252,-74,-3,57,0
8945,5,-251,-77,-6,55,2
8950,5,-250,-75,-8,56,2
8955,4,-248,-69,-8,55,0
8960,4,-249,-74,-10,53,0
8965,4,-250,-77,-12,52,0
8970,2,-249,-79,-11,51,-1
8975,4,-250,-78,-10,49,0
8980,0,-248,-75,-9,50,2
8985,4,-251,-76,-9,49,2
8990,5,-250,-74,-10,51,1
8995,4,-246,-77,-11,52,3
9000,4,-250,-79,-12,54,3
9005,4,-248,-80,-15,57,4
9010,5,-246,-77,-18,58,5
9015,5,-246,-77,-19,57,6
9020,6,-248,-79,-20,58,6
9025,3,-244,-74,-20,58,5
9030,4,-246,-75,-20,57,7
9035,4,-247,-72,-21,57,6
9040,6,-249,-78,-20,56,5
9045,5,-244,-76,-23,58,4
9050,6,-248,-77,-25,60,6
9055,5,-248,-79,-27,63,6
9060,5,-247,-76,-30,64,6
9065,5,-252,-77,-33,64,5
9070,5,-250,-76,-33,65,4
9075,6,-251,-77,-35,67,6
9080,2,-249,-78,-37,68,6
9085,5,-251,-76,-36,70,6
9090,4,-249,-78,-35,72,6
9095,6,-251,-77,-33,74,5
9100,4,-251,-78,-29,76,6
9105,6,-250,-79,-26,77,6
9110,6,-249,-76,-24,77,7
9115,4,-251,-78,-21,75,7
9120,5,-248,-76,-22,75,9
9125,3,-247,-77,-24,75,7
9130,3,-249,-75,-24,76,9
9135,4,-249,-75,-26,77,10
9140,5,-246,-76,-27,78,10
9145,4,-246,-73,-29,80,11
9150,4,-248,-73,-30,80,10
9155,4,-248,-76,-30,81,10
9160,5,-246,-75,-29,78,10
9165,4,-246,-78,-29,77,10
9170,4,-245,-78,-30,76,11
9175,4,-246,-74,-31,73,12
9180,3,-246,-71,-33,72,12
9185,4,-246,-73,-37,72,13
9190,1,-248,-76,-41,72,14
9195,4,-249,-74,-44,71,14
9200,6,-253,-75,-45,71,13
9205,4,-249,-79,-46,68,11
9210,5,-250,-76,-48,66,12
9215,2,-252,-76,-49,66,10
9220,4,-249,-75,-49,64,10
9225,5,-249,-77,-50,64,9
9230,3,-251,-77,-50,63,7
9235,4,-250,-78,-51,65,7
9240,4,-251,-77,-52,66,4
9245,3,-252,-77,-52,70,4
9250,4,-251,-81,-53,73,3
9255,4,-251,-76,-53,73,1
9260,1,-252,-74,-51,75,0
9265,4,-249,-79,-50,75,-1
9270,0,-248,-80,-48,77,0
9275,4,-248,-76,-46,76,-3
9280,4,-248,-77,-45,77,-1
9285,3,-246,-76,-43,76,-1
9290,5,-249,-74,-43,77,-1
9295,2,-248,-71,-40,77,0
9300,4,-250,-74,-41,78,-1
9305,4,-249,-79,-41,78,-1
9310,4,-246,-77,-44,76,0
9315,6,-250,-75,-47,75,1
9320,1,-249,-72,-49,75,1
9325,4,-248,-78,-50,75,1
9330,4,-250,-77,-50,73,0
9335,4,-250,-77,-50,72,0
9340,3,-251,-79,-49,73,1
9345,4,-250,-75,-47,72,3
9350,2,-248,-73,-44,74,1
9355,4,-249,-78,-42,73,2
9360,1,-244,-72,-43,73,3
9365,3,-248,-75,-42,75,3
9370,3,-247,-73,-45,76,4
9375,3,-250,-75,-45,77,4
9380,4,-251,-77,-47,79,3
9385,4,-251,-75,-49,78,3
9390,4,-250,-75,-52,80,3
9395,2,-251,-77,-50,80,4
9400,2,-249,-78,-50,80,5
9405,4,-252,-77,-47,80,4
9410,1,-252,-76,-47,80,4
9415,2,-251,-77,-45,79,3
9420,4,-252,-75,-43,80,3
9425,3,-248,-76,-43,80,3
9430,5,-251,-76,-43,80,3
9435,4,-251,-75,-41,79,1
9440,2,-251,-78,-41,79,2
9445,4,-252,-77,-40,79,2
9450,4,-250,-74,-38,78,1
9455,4,-249,-78,-38,78,1
9460,2,-248,-74,-37,78,1
9465,4,-252,-78,-37,79,0
9470,1,-251,-76,-36,77,-1
9475,3,-249,-78,-34,75,-2
9480,4,-251,-80,-30,75,0
9485,2,-252,-73,-28,72,-1
9490,4,-251,-79,-27,72,1
9495,4,-252,-76,-26,70,0
9500,3,-250,-74,-23,70,-1
9505,3,-251,-77,-22,70,-2
9510,2,-246,-77,-19,72,-2
9515,3,-251,-76,-15,73,-1
9520,2,-251,-76,-12,72,-1
9525,2,-250,-74,-10,72,-2
9530,2,-250,-77,-7,71,-3
9535,3,-251,-76,-6,70,-3
9540,4,-251,-80,-3,69,-3
9545,4,-251,-78,-1,69,-1
9550,2,-250,-79,1,67,-2
9555,4,-251,-81,5,67,-1
9560,3,-250,-78,6,66,-2
9565,2,-251,-78,6,66,-2
9570,1,-250,-73,7,67,-1
9575,3,-247,-79,6,68,-3
9580,2,-249,-75,4,67,-6
9585,-1,-248,-78,3,66,-5
9590,0,-247,-76,0,64,-5
9595,2,-250,-76,0,62,-6
9600,-1,-250,-79,2,59,-6
9605,1,-250,-77,3,58,-5
9610,2,-249,-80,4,56,-7
9615,4,-249,-80,5,54,-6
9620,2,-247,-80,6,50,-6
9625,3,-251,-76,7,49,-6
9630,4,-246,-77,6,47,-7
9635,4,-248,-75,4,45,-7
9640,4,-247,-75,3,43,-7
9645,0,-244,-78,2,45,-5
9650,1,-248,-79,2,46,-7
9655,2,-245,-77,0,47,-7
9660,4,-247,-79,-1,50,-6
9665,4,-247,-79,-3,52,-5
9670,4,-248,-78,-6,55,-5
9675,2,-249,-77,-10,55,-5
9680,0,-247,-77,-13,57,-6
9685,3,-249,-81,-14,60,-9
9690,3,-249,-77,-12,60,-9
9695,1,-248,-77,-10,59,-9
9700,2,-249,-81,-5,60,-10
9705,4,-245,-76,-1,57,-9
9710,4,-243,-81,1,57,-8
9715,3,-247,-79,3,56,-9
9720,1,-246,-79,1,56,-9
9725,3,-248,-76,-2,56,-8
9730,4,-247,-79,-7,58,-8
9735,3,-248,-77,-14,59,-8
9740,4,-249,-83,-19,59,-7
9745,2,-248,-79,-21,62,-7
9750,4,-250,-76,-22,62,-7
9755,3,-247,-80,-24,63,-7
9760,4,-247,-80,-24,63,-5
9765,5,-249,-79,-24,63,-6
9770,5,-247,-81,-21,63,-5
9775,4,-249,-77,-20,64,-6
9780,5,-250,-81,-18,65,-5
9785,4,-245,-80,-16,65,-5
9790,1,-247,-74,-18,65,-3
9795,3,-246,-82,-16,64,-4
9800,5,-250,-78,-18,65,-6
9805,4,-250,-79,-18,68,-5
9810,3,-252,-78,-16,70,-5
9815,3,-247,-77,-14,71,-7
9820,4,-249,-74,-12,74,-7
9825,1,-250,-79,-12,76,-9
9830,2,-250,-76,-11,76,-7
9835,5,-249,-80,-9,75,-8
9840,3,-247,-80,-5,75,-8
9845,1,-248,-80,-5,73,-7
9850,4,-247,-81,-4,72,-6
9855,0,-247,-81,-2,70,-6
9860,-2,-248,-77,0,71,-6
9865,2,-246,-77,1,70,-5
9870,1,-248,-79,1,70,-6
9875,2,-245,-83,-1,67,-7
9880,4,-249,-81,-2,66,-6
9885,-1,-247,-78,-4,66,-7
9890,2,-248,-75,-2,64,-7
9895,4,-249,-79,-2,65,-7
9900,4,-252,-77,-3,65,-9
9905,4,-247,-73,-3,65,-9
9910,4,-251,-79,-2,67,-10
9915,2,-247,-80,-3,67,-9
9920,1,-248,-80,0,70,-10
9925,1,-247,-79,2,70,-10
9930,3,-248,-78,3,70,-10
9935,0,-248,-73,4,68,-8
9940,4,-246,-80,2,67,-8
9945,1,-243,-77,1,67,-9
9950,4,-248,-78,0,65,-8
9955,4,-246,-78,-4,63,-8
9960,3,-250,-77,-7,63,-8
9965,3,-246,-76,-9,62,-8
9970,5,-248,-79,-10,62,-8
9975,2,-248,-82,-10,61,-8
9980,3,-252,-79,-9,62,-7
9985,3,-248,-77,-8,63,-8
9990,1,-248,-75,-6,63,-10
9995,-1,-247,-79,-7,65,-8
10000,2,-249,-77,-6,66,-9
10005,3,-250,-80,-6,68,-9
10010,3,-247,-81,-6,69,-9
10015,3,-247,-78,-5,70,-10
10020,3,-249,-81,-6,68,-10
10025,3,-250,-77,-4,67,-9
10030,2,-249,-82,-4,65,-9
10035,3,-247,-76,-5,61,-9
10040,3,-249,-78,-7,60,-9
10045,2,-249,-80,-7,61,-9
10050,3,-249,-79,-8,60,-8
10055,-2,-246,-82,-7,60,-9
10060,4,-249,-79,-7,58,-12
10065,4,-245,-82,-7,59,-11
10070,3,-248,-78,-6,59,-11
10075,0,-245,-77,-6,57,-12
10080,4,-249,-77,-5,60,-11
10085,0,-247,-76,-5,59,-13
10090,2,-246,-77,-5,60,-11
10095,5,-247,-77,-7,61,-12
10100,2,-248,-76,-10,60,-14
10105,4,-248,-78,-12,60,-14
10110,4,-249,-78,-12,61,-15
10115,4,-252,-74,-15,61,-14
10120,6,-251,-74,-16,63,-14
10125,4,-247,-78,-18,63,-15
10130,3,-249,-76,-17,64,-15
10135,3,-248,-80,-18,64,-14
10140,4,-250,-77,-16,63,-14
10145,4,-251,-79,-15,61,-14
10150,4,-251,-79,-13,61,-13
10155,2,-247,-79,-11,61,-13
10160,4,-249,-80,-10,62,-13
10165,4,-247,-79,-10,63,-12
10170,4,-248,-76,-11,66,-10
10175,4,-249,-75,-12,67,-12
10180,2,-245,-79,-11,69,-12
10185,4,-249,-76,-13,70,-12
10190,4,-250,-79,-14,71,-10
10195,2,-246,-79,-13,72,-9
10200,2,-247,-74,-12,73,-7
10205,3,-246,-77,-10,72,-9
10210,4,-247,-77,-10,73,-8
10215,4,-247,-78,-9,71,-6
10220,4,-247,-76,-10,72,-6
10225,5,-247,-79,-11,72,-4
10230,3,-251,-82,-13,72,-4
10235,4,-248,-81,-15,73,-4
10240,5,-249,-82,-16,74,-2
10245,4,-246,-77,-17,75,-4
10250,4,-249,-79,-19,77,-3
10255,4,-249,-78,-19,78,-3
10260,6,-249,-77,-19,80,-2
10265,4,-248,-75,-19,81,-2
10270,5,-247,-81,-19,83,-1
10275,5,-246,-80,-18,84,-1
10280,4,-248,-76,-18,83,-2
10285,4,-249,-77,-17,85,-1
10290,3,-247,-79,-17,84,0
10295,4,-250,-78,-18,86,-1
10300,4,-247,-80,-20,86,-1
10305,4,-248,-80,-22,85,-1
10310,3,-247,-81,-22,87,1
10315,4,-248,-82,-24,88,1
10320,4,-249,-77,-24,88,2
10325,4,-249,-77,-23,87,3
10330,2,-249,-80,-22,87,4
10335,4,-248,-82,-18,87,5
10340,4,-249,-73,-13,86,5
10345,4,-249,-78,-12,84,7
10350,5,-245,-77,-11,85,7
10355,4,-249,-79,-12,84,6
10360,4,-246,-76,-12,85,6
10365,4,-250,-83,-13,86,7
10370,5,-247,-80,-15,86,7
10375,4,-249,-78,-18,85,9
10380,4,-247,-79,-19,86,8
10385,3,-247,-78,-18,86,9
10390,2,-247,-79,-17,86,8
10395,4,-247,-77,-17,87,8
10400,5,-248,-82,-16,87,7
10405,4,-249,-75,-14,88,6
10410,3,-246,-80,-13,86,7
10415,4,-247,-75,-14,85,6
10420,2,-248,-76,-14,84,6
10425,4,-248,-81,-15,84,5
10430,4,-247,-78,-17,85,7
10435,3,-250,-79,-18,83,8
10440,5,-250,-78,-21,84,6
10445,4,-249,-77,-22,85,6
10450,4,-249,-81,-23,86,7
10455,2,-250,-82,-25,86,5
10460,5,-247,-77,-23,84,5
10465,3,-247,-77,-20,87,4
10470,5,-249,-82,-17,87,5
10475,4,-248,-82,-14,88,4
10480,5,-249,-81,-10,88,4
10485,4,-249,-81,-7,88,4
10490,3,-248,-77,-6,90,4
10495,5,-248,-83,-7,90,4
10500,5,-248,-79,-8,89,3
10505,1,-247,-76,-8,88,2
10510,4,-247,-79,-11,88,2
10515,2,-246,-77,-11,86,2
10520,6,-244,-78,-11,85,1
10525,4,-246,-77,-10,85,2
10530,7,-247,-80,-10,84,3
10535,6,-248,-77,-10,87,3
10540,4,-246,-79,-9,88,3
10545,4,-246,-77,-10,90,4
10550,2,-246,-79,-12,91,4
10555,4,-244,-78,-15,90,4
10560,4,-248,-79,-19,90,4
10565,3,-247,-75,-24,89,5
10570,3,-248,-79,-27,88,4
10575,1,-248,-77,-28,86,6
10580,4,-252,-79,-28,85,5
10585,1,-251,-76,-26,82,5
10590,3,-252,-81,-26,82,4
10595,1,-247,-81,-24,80,3
10600,4,-247,-81,-24,81,5
10605,4,-247,-80,-23,83,5
10610,4,-249,-83,-22,84,3
10615,4,-249,-80,-21,85,4
10620,3,-249,-78,-21,84,4
10625,3,-249,-79,-20,82,4
10630,4,-249,-73,-18,83,2
10635,3,-250,-77,-15,81,3
10640,4,-248,-78,-14,80,2
10645,3,-246,-82,-12,80,4
10650,4,-245,-79,-12,78,2
10655,3,-244,-81,-13,77,2
10660,4,-245,-79,-15,76,1
10665,0,-246,-79,-19,76,2
10670,3,-248,-81,-23,76,3
10675,4,-246,-77,-27,74,2
10680,4,-248,-81,-31,74,2
10685,5,-245,-77,-33,75,1
10690,4,-249,-78,-33,74,1
10695,-1,-249,-71,-33,77,2
10700,4,-249,-78,-31,76,2
10705,3,-250,-79,-31,78,2
10710,4,-251,-76,-29,78,2
10715,4,-248,-79,-27,77,2
10720,1,-244,-78,-26,77,1
10725,3,-248,-82,-25,78,1
10730,4,-250,-82,-25,77,0
10735,4,-252,-78,-24,78,0
10740,4,-247,-81,-23,77,-1
10745,4,-250,-79,-24,78,2
10750,2,-248,-79,-23,78,2
10755,4,-245,-81,-20,77,0
10760,4,-247,-78,-20,76,0
10765,3,-246,-83,-20,76,1
10770,4,-250,-81,-21,75,2
10775,1,-247,-81,-22,74,3
10780,2,-247,-84,-23,75,4
10785,4,-252,-79,-23,75,4
10790,3,-249,-79,-25,74,5
10795,4,-247,-80,-27,73,4
10800,4,-247,-83,-28,72,3
10805,5,-251,-80,-27,71,2
10810,3,-248,-83,-27,69,4
10815,3,-248,-79,-26,68,3
10820,3,-247,-83,-24,70,4
10825,4,-250,-80,-22,67,3
10830,5,-251,-79,-21,70,2
10835,4,-248,-80,-18,71,1
10840,3,-248,-80,-19,73,1
10845,3,-248,-81,-18,74,0
10850,6,-248,-80,-17,74,0
10855,4,-250,-77,-17,75,-1
10860,0,-250,-79,-17,75,-1
10865,4,-249,-81,-19,76,-3
10870,2,-247,-78,-17,73,-3
10875,4,-247,-78,-19,74,-5
10880,3,-250,-77,-18,75,-4
10885,2,-250,-79,-18,76,-3
10890,1,-246,-82,-18,75,-3
10895,4,-248,-81,-18,73,-4
10900,2,-246,-76,-18,71,-2
10905,4,-250,-81,-17,69,-2
10910,1,-246,-79,-18,67,-3
10915,5,-247,-86,-19,66,-3
10920,4,-247,-79,-19,67,0
10925,4,-246,-77,-18,67,0
10930,5,-246,-82,-18,67,-2
10935,4,-246,-79,-19,66,-2
10940,3,-247,-78,-17,66,-2
10945,5,-250,-81,-17,65,-2
10950,4,-249,-80,-16,65,-2
10955,0,-246,-78,-16,63,-2
10960,4,-247,-82,-16,66,-3
10965,4,-248,-78,-17,67,-3
10970,4,-247,-80,-17,70,-2
10975,4,-246,-82,-18,72,-2
10980,3,-248,-75,-18,72,-2
10985,4,-250,-79,-16,73,-3
10990,4,-249,-81,-16,74,-2
10995,3,-246,-80,-17,73,-3
11000,4,-248,-79,-16,74,-1
11005,2,-247,-80,-15,75,0
11010,4,-247,-79,-15,74,-1
11015,4,-247,-77,-14,73,-1
11020,2,-248,-78,-16,75,1
11025,3,-246,-85,-16,74,0
11030,4,-247,-75,-17,74,2
11035,3,-249,-77,-18,74,1
11040,4,-247,-80,-20,75,0
11045,4,-247,-80,-20,75,1
11050,4,-245,-79,-20,76,-1
11055,3,-244,-79,-20,76,-1
11060,4,-246,-77,-19,75,-1
11065,5,-251,-79,-19,76,1
11070,4,-246,-80,-18,76,-1
11075,3,-247,-78,-18,75,-2
11080,3,-249,-78,-16,76,-1
11085,3,-245,-80,-16,75,-3
11090,4,-247,-83,-16,76,-3
11095,3,-249,-75,-15,77,-2
11100,1,-246,-77,-14,75,-3
11105,4,-247,-76,-13,75,-2
11110,2,-249,-82,-12,75,-1
11115,2,-249,-78,-11,74,-2
11120,4,-249,-75,-11,75,0
11125,4,-247,-78,-11,75,1
11130,2,-248,-79,-12,75,2
11135,-3,-249,-83,-12,76,2
11140,2,-248,-83,-12,75,3
11145,0,-247,-76,-13,76,1
11150,3,-249,-75,-11,77,1
11155,2,-249,-77,-12,77,2
11160,1,-248,-79,-12,79,2
11165,4,-249,-81,-9,78,3
11170,4,-248,-81,-7,78,3
11175,4,-249,-79,-6,79,1
11180,4,-248,-79,-6,76,3
11185,1,-247,-78,-8,76,2
11190,2,-246,-81,-9,76,2
11195,4,-250,-81,-12,75,1
11200,3,-250,-78,-14,75,0
11205,4,-249,-82,-14,75,0
11210,2,-248,-81,-15,74,-1
11215,1,-249,-78,-13,74,-1
11220,2,-247,-81,-12,73,-1
11225,3,-247,-80,-11,73,-1
11230,0,-248,-80,-11,71,0
11235,4,-251,-80,-11,71,0
11240,2,-246,-79,-12,72,1
11245,2,-249,-80,-13,74,0
11250,1,-247,-78,-16,75,0
11255,4,-247,-82,-17,75,1
11260,3,-246,-79,-18,72,1
11265,3,-248,-80,-20,74,0
11270,3,-249,-78,-21,73,-1
11275,4,-248,-79,-20,75,0
11280,4,-246,-79,-19,74,1
11285,1,-247,-78,-17,72,0
11290,4,-247,-81,-16,72,0
11295,4,-247,-80,-14,72,0
11300,1,-247,-82,-12,71,0
11305,3,-248,-82,-10,70,1
11310,2,-246,-78,-11,69,2
11315,5,-249,-83,-12,71,2
11320,4,-246,-84,-12,72,2
11325,0,-243,-76,-15,72,2
11330,3,-248,-82,-15,73,0
11335,4,-246,-81,-15,75,-1
11340,4,-247,-79,-17,75,0
11345,3,-249,-81,-17,74,-1
11350,3,-250,-83,-18,75,-2
11355,2,-246,-79,-19,75,0
11360,4,-248,-79,-18,74,0
11365,4,-248,-80,-18,73,1
11370,3,-250,-81,-19,72,2
11375,4,-250,-80,-19,71,0
11380,2,-249,-78,-17,71,0
11385,4,-246,-83,-16,70,0
11390,4,-247,-80,-13,70,0
11395,3,-248,-82,-14,69,0
11400,0,-246,-78,-15,69,-1
11405,3,-244,-82,-15,69,-2
11410,4,-248,-79,-18,69,-2
11415,5,-249,-77,-21,68,-3
11420,2,-247,-76,-25,69,-1
11425,1,-246,-78,-29,71,-2
11430,4,-248,-81,-31,71,-2
11435,1,-249,-76,-30,72,-1
11440,0,-249,-79,-27,71,-3
11445,3,-247,-75,-25,71,-3
11450,4,-246,-79,-23,71,-2
11455,4,-248,-75,-20,73,-2
11460,5,-242,-78,-20,74,-2
11465,2,-249,-80,-22,74,-3
11470,3,-246,-80,-25,74,-3
11475,5,-250,-81,-27,75,-2
11480,3,-244,-76,-29,73,-3
11485,4,-248,-76,-29,72,-1
11490,4,-249,-79,-29,71,-1
11495,4,-246,-79,-28,73,-2
11500,4,-248,-77,-26,72,-3
11505,4,-250,-81,-24,71,-1
11510,4,-248,-80,-23,71,0
11515,2,-246,-80,-22,71,1
11520,5,-248,-84,-22,71,1
11525,4,-249,-81,-23,71,2
11530,4,-246,-85,-23,72,2
11535,4,-249,-78,-24,73,2
11540,4,-247,-81,-25,75,4
11545,4,-247,-84,-26,74,5
11550,4,-248,-77,-27,74,4
11555,2,-247,-81,-26,76,6
11560,3,-250,-79,-25,76,6
11565,2,-250,-80,-23,77,4
11570,1,-245,-68,-23,79,4
11575,2,-247,-77,-20,81,4
11580,0,-247,-80,-19,83,3
11585,1,-246,-81,-18,86,3
11590,1,-251,-79,-16,86,2
11595,3,-248,-80,-15,86,2
11600,4,-249,-81,-15,85,1
11605,2,-248,-81,-16,86,2
11610,2,-248,-79,-16,84,2
11615,1,-250,-80,-16,84,3
11620,4,-247,-79,-16,81,3
11625,2,-244,-79,-17,82,3
11630,2,-248,-79,-16,81,2
11635,4,-246,-83,-18,81,2
11640,3,-246,-78,-19,79,3
11645,4,-246,-82,-21,79,1
11650,4,-246,-80,-22,79,1
11655,4,-244,-79,-22,80,4
11660,4,-248,-80,-23,80,3
11665,3,-246,-81,-24,79,2
11670,4,-249,-81,-25,78,2
11675,1,-249,-79,-25,78,3
11680,0,-241,-77,-24,77,2
11685,5,-251,-83,-23,76,2
11690,-1,-248,-79,-22,76,1
11695,2,-253,-82,-23,77,2
11700,2,-245,-84,-21,77,2
11705,0,-249,-78,-19,77,1
11710,3,-249,-80,-17,78,1
11715,0,-248,-84,-16,79,1
11720,3,-248,-81,-15,80,1
11725,2,-245,-83,-16,78,2
11730,3,-249,-80,-17,79,1
11735,4,-246,-82,-19,78,2
11740,0,-248,-78,-22,80,1
11745,3,-248,-81,-25,78,0
11750,2,-247,-78,-27,78,0
11755,1,-247,-78,-29,76,-1
11760,3,-249,-81,-29,75,-1
11765,4,-248,-79,-29,74,0
11770,3,-248,-82,-28,73,-1
11775,2,-247,-79,-27,72,-1
11780,3,-246,-84,-26,72,-1
11785,1,-244,-81,-25,71,-3
11790,-3,-242,-87,-25,71,-2
11795,4,-249,-81,-25,70,-5
11800,0,-246,-79,-25,67,-4
11805,4,-246,-80,-26,66,-2
11810,1,-247,-80,-27,65,-4
11815,-2,-247,-77,-28,65,-4
11820,-2,-247,-84,-28,64,-4
11825,0,-247,-81,-27,66,-4
11830,2,-244,-81,-27,67,-5
11835,4,-249,-80,-25,66,-3
11840,3,-248,-81,-25,69,-3
11845,4,-249,-81,-23,70,-4
11850,4,-250,-82,-23,72,-4
11855,0,-244,-83,-24,73,-5
11860,1,-248,-81,-24,74,-5
11865,3,-246,-80,-26,73,-4
11870,2,-246,-79,-28,74,-4
11875,4,-246,-84,-30,73,-3
11880,4,-248,-82,-32,72,-4
11885,3,-247,-83,-34,74,-5
11890,2,-250,-80,-33,75,-5
11895,1,-247,-82,-30,76,-5
11900,2,-247,-80,-29,76,-4
11905,0,-248,-82,-28,77,-4
11910,2,-247,-81,-27,77,-3
11915,1,-247,-82,-24,77,-4
11920,4,-248,-81,-26,77,-4
11925,4,-247,-81,-26,76,-5
11930,2,-245,-84,-27,77,-3
11935,4,-245,-80,-29,79,-3
11940,3,-246,-83,-29,78,-4
11945,4,-245,-83,-30,80,-4
11950,4,-248,-81,-31,80,-4
11955,3,-243,-80,-30,81,-4
11960,0,-244,-81,-31,80,-2
11965,2,-247,-82,-32,82,-1
11970,3,-247,-84,-31,83,-1
11975,4,-245,-81,-30,84,-2
11980,3,-249,-79,-31,86,-2
11985,2,-244,-80,-32,86,-1
11990,4,-245,-81,-33,87,0
