timestamp,acc_x,acc_y,acc_z,gyro_x,gyro_y,gyro_z
0,31,-258,-2,-137,60,-16
5,31,-258,-4,-142,62,-17
10,31,-259,0,-146,63,-16
15,29,-259,0,-150,65,-19
20,31,-259,-1,-151,65,-19
25,24,-255,-5,-150,64,-20
30,27,-260,2,-144,60,-19
35,26,-260,-2,-137,58,-21
40,30,-261,1,-129,56,-22
45,26,-261,-7,-124,55,-21
50,28,-258,-2,-118,54,-21
55,28,-257,-1,-114,53,-20
60,31,-257,-4,-111,54,-18
65,30,-260,0,-113,55,-15
70,28,-254,-6,-117,56,-13
75,27,-256,-3,-124,59,-11
80,28,-253,-12,-134,59,-10
85,30,-254,-3,-141,58,-7
90,29,-260,-5,-151,55,-6
95,28,-257,-8,-156,54,-6
100,28,-256,-7,-157,50,-3
105,30,-258,-5,-154,47,-4
110,29,-259,-4,-150,45,-4
115,26,-258,-6,-145,40,-2
120,29,-257,-5,-142,37,-3
125,29,-260,-10,-141,34,-1
130,31,-260,-3,-141,30,-1
135,30,-257,-10,-143,26,-1
140,27,-257,-7,-146,22,-2
145,29,-259,-10,-145,20,-3
150,28,-259,-9,-145,17,-5
155,27,-260,-11,-142,17,-5
160,29,-262,-14,-137,16,-6
165,29,-265,-8,-135,17,-9
170,31,-262,-3,-130,17,-12
175,28,-259,-9,-125,18,-13
180,33,-264,-10,-120,20,-14
185,28,-255,-8,-116,23,-15
190,32,-265,-10,-113,26,-17
195,32,-265,-9,-109,29,-18
200,33,-265,-12,-103,32,-19
205,34,-265,-13,-95,36,-20
210,33,-263,-16,-89,41,-22
215,31,-265,-6,-82,44,-27
220,32,-262,-8,-77,46,-29
225,33,-263,-10,-72,47,-32
230,32,-263,-12,-65,48,-32
235,35,-263,-13,-60,47,-32
240,30,-258,-17,-53,48,-33
245,34,-263,-14,-52,50,-31
250,30,-258,-11,-48,49,-31
255,32,-260,-8,-45,50,-31
260,32,-258,-14,-44,50,-27
265,31,-259,-7,-43,49,-27
270,29,-257,-9,-42,49,-25
275,30,-257,-11,-43,48,-24
280,30,-255,-8,-44,46,-23
285,31,-259,-11,-44,43,-23
290,30,-258,-11,-43,42,-21
295,29,-258,-12,-40,41,-20
300,28,-258,-13,-42,39,-19
305,26,-258,-7,-43,39,-19
310,30,-258,-9,-44,36,-18
315,26,-255,-11,-47,35,-16
320,25,-257,-10,-47,33,-17
325,28,-262,-11,-49,33,-16
330,31,-260,-12,-52,32,-15
335,27,-258,-10,-53,32,-15
340,26,-259,-10,-55,31,-17
345,27,-259,-5,-50,33,-19
350,31,-262,-12,-49,32,-20
355,31,-263,-6,-46,32,-20
360,26,-261,-13,-42,34,-20
365,30,-260,-6,-38,32,-19
370,29,-257,-6,-34,31,-19
375,28,-261,-7,-29,31,-19
380,30,-261,-8,-25,29,-19
385,33,-262,-7,-24,27,-18
390,31,-259,-14,-22,27,-16
395,30,-260,-5,-20,23,-16
400,33,-256,-2,-20,22,-15
405,28,-259,-10,-20,19,-13
410,30,-260,-3,-19,16,-11
415,28,-259,-7,-18,13,-9
420,28,-258,-9,-18,11,-9
425,31,-259,-11,-19,10,-9
430,29,-258,-6,-21,8,-9
435,31,-259,-3,-23,6,-7
440,32,-257,-5,-25,5,-7
445,30,-258,-10,-29,3,-4
450,30,-258,-5,-31,2,-4
455,27,-255,-10,-34,1,-2
460,29,-256,-7,-36,2,-1
465,27,-257,-10,-37,2,-1
470,28,-257,-7,-40,3,-1
475,32,-260,-8,-43,4,0
480,28,-259,-7,-47,5,1
485,29,-256,-10,-52,7,1
490,31,-262,-5,-55,8,1
495,31,-262,-13,-59,9,2
500,31,-260,-8,-58,9,0
505,32,-261,-12,-57,10,0
510,37,-265,-9,-54,10,0
515,31,-263,-5,-53,12,0
520,32,-260,-7,-51,13,0
525,33,-261,-12,-48,13,0
530,33,-261,-7,-46,14,-2
535,30,-260,-9,-45,13,-4
540,31,-259,-10,-45,12,-6
545,29,-258,-8,-43,13,-6
550,29,-260,-11,-45,13,-6
555,34,-260,-13,-44,13,-8
560,32,-259,-12,-45,14,-7
565,32,-256,-8,-43,14,-8
570,33,-260,-12,-42,15,-9
575,31,-258,-11,-39,16,-8
580,30,-258,-13,-37,17,-7
585,32,-263,-11,-37,19,-9
590,33,-262,-8,-35,19,-6
595,34,-258,-9,-36,21,-6
600,30,-257,-7,-36,22,-5
605,28,-260,-8,-37,23,-6
610,31,-260,-10,-39,20,-7
615,31,-258,-7,-40,20,-6
620,32,-256,-14,-41,19,-5
625,31,-258,-12,-43,21,-7
630,29,-259,-5,-45,21,-6
635,31,-260,-8,-46,23,-7
640,29,-258,-7,-45,26,-7
645,29,-258,-8,-43,27,-7
650,31,-259,-8,-42,27,-7
655,29,-256,-12,-41,28,-7
660,33,-258,-8,-44,28,-7
665,30,-257,-11,-46,27,-8
670,31,-257,-9,-49,25,-6
675,41,-260,-4,-49,25,-5
680,33,-258,-11,-50,23,-3
685,29,-259,-11,-52,22,-4
690,30,-258,-11,-53,22,-4
695,32,-261,-8,-56,23,-4
700,31,-260,-15,-56,22,-3
705,32,-263,-2,-56,24,-4
710,30,-261,-10,-55,24,-4
715,30,-260,-10,-53,24,-5
720,29,-260,-12,-50,22,-7
725,26,-261,-9,-50,22,-7
730,20,-258,-9,-48,21,-8
735,28,-262,-9,-48,22,-9
740,27,-261,-7,-44,21,-9
745,28,-258,-14,-42,20,-9
750,25,-258,-7,-39,17,-9
755,28,-262,-8,-37,13,-9
760,31,-261,-9,-36,14,-9
765,28,-257,-9,-36,12,-9
770,27,-257,-14,-35,12,-7
775,27,-262,-10,-35,9,-7
780,29,-261,-16,-35,7,-6
785,29,-264,-7,-34,6,-6
790,30,-262,-7,-35,5,-5
795,28,-259,-9,-34,5,-6
800,31,-262,-12,-32,4,-5
805,32,-261,-10,-31,4,-4
810,31,-261,-7,-29,3,-5
815,30,-259,-4,-27,4,-6
820,34,-257,-5,-25,7,-6
825,31,-257,-9,-24,7,-4
830,32,-261,-9,-25,7,-4
835,31,-263,-7,-26,9,-5
840,32,-257,-11,-27,10,-6
845,30,-260,-6,-28,11,-7
850,32,-258,-10,-31,12,-5
855,33,-257,-9,-35,13,-5
860,30,-258,-11,-36,15,-4
865,33,-258,-11,-40,15,-6
870,32,-259,-10,-41,16,-6
875,33,-258,-14,-43,15,-6
880,31,-257,-7,-43,16,-8
885,33,-258,-10,-45,18,-9
890,30,-260,-9,-42,18,-11
895,31,-259,-8,-42,19,-12
900,31,-260,-10,-43,20,-14
905,28,-257,-9,-46,21,-15
910,29,-256,-12,-47,22,-15
915,26,-259,-13,-47,23,-16
920,29,-258,-11,-49,21,-17
925,30,-258,-11,-53,23,-17
930,29,-263,-10,-53,22,-16
935,28,-260,-9,-55,21,-16
940,30,-259,-7,-55,20,-15
945,28,-256,-12,-55,19,-12
950,31,-259,-10,-52,16,-12
955,27,-259,-5,-52,16,-11
960,29,-260,-7,-50,14,-10
965,31,-262,-11,-48,13,-9
970,27,-262,-6,-46,12,-8
975,32,-260,-9,-44,12,-9
980,30,-259,-4,-41,13,-9
985,33,-262,-10,-40,13,-8
990,31,-261,-7,-38,13,-8
995,30,-260,-8,-39,14,-8
1000,25,-259,-9,-38,15,-10
1005,30,-261,-6,-36,14,-10
1010,32,-261,-7,-34,15,-10
1015,29,-256,-14,-30,16,-10
1020,32,-260,-10,-32,16,-11
1025,31,-259,-6,-31,14,-12
1030,33,-258,-11,-32,13,-12
1035,32,-259,-11,-32,14,-11
1040,34,-257,-7,-36,13,-12
1045,31,-257,-10,-38,12,-12
1050,29,-255,-9,-40,15,-13
1055,36,-254,-5,-43,15,-13
1060,27,-257,-9,-46,15,-14
1065,28,-255,-11,-49,17,-14
1070,31,-259,-12,-52,18,-14
1075,28,-256,-8,-53,18,-14
1080,31,-258,-10,-55,20,-16
1085,33,-259,-13,-57,20,-15
1090,31,-261,-8,-57,21,-14
1095,30,-260,-9,-57,21,-14
1100,29,-260,-9,-56,20,-14
1105,31,-260,-12,-55,19,-16
1110,32,-265,-5,-52,19,-14
1115,32,-266,-17,-49,19,-13
1120,31,-259,-9,-45,17,-13
1125,32,-259,-10,-41,16,-13
1130,28,-259,-9,-39,15,-13
1135,30,-260,-12,-39,14,-12
1140,28,-263,-10,-37,13,-13
1145,28,-260,-8,-37,14,-13
1150,30,-261,-11,-36,12,-12
1155,30,-259,-11,-37,12,-12
1160,27,-252,-9,-38,11,-14
1165,31,-258,-8,-38,10,-13
1170,33,-259,-8,-40,10,-12
1175,30,-258,-8,-43,9,-12
1180,30,-257,-10,-43,11,-11
1185,30,-256,-7,-44,11,-11
1190,28,-255,-9,-45,10,-11
1195,32,-258,-9,-47,13,-10
1200,30,-257,-10,-47,13,-11
1205,32,-258,-15,-47,13,-11
1210,31,-259,-10,-49,15,-11
1215,34,-264,-9,-51,16,-11
1220,32,-258,-6,-52,15,-11
1225,33,-260,-3,-55,15,-10
1230,31,-259,-10,-56,16,-11
1235,31,-260,-7,-58,16,-12
1240,31,-259,0,-60,16,-12
1245,30,-259,-4,-60,17,-12
1250,30,-258,-6,-62,16,-13
1255,31,-259,-12,-62,17,-13
1260,30,-259,-10,-61,17,-13
1265,31,-256,-9,-60,16,-13
1270,26,-261,-14,-57,16,-12
1275,32,-261,-10,-55,15,-13
1280,29,-259,-10,-52,16,-11
1285,30,-261,-13,-50,15,-11
1290,32,-259,-8,-48,15,-9
1295,30,-260,-8,-47,16,-9
1300,32,-260,-8,-46,15,-9
1305,32,-258,-5,-45,15,-9
1310,31,-263,-10,-44,17,-9
1315,33,-263,-13,-44,18,-10
1320,31,-260,-10,-40,19,-9
1325,28,-266,-11,-37,19,-9
1330,31,-261,-12,-36,19,-11
1335,31,-258,-12,-35,18,-13
1340,28,-260,-7,-36,18,-14
1345,30,-260,-10,-34,16,-14
1350,30,-261,-11,-37,16,-13
1355,28,-259,-8,-37,13,-14
1360,32,-263,-7,-36,12,-15
1365,30,-258,-11,-37,10,-14
1370,29,-256,-3,-39,9,-12
1375,29,-258,-12,-36,8,-12
1380,30,-257,-11,-37,7,-10
1385,31,-256,-9,-36,5,-10
1390,31,-258,-9,-39,5,-10
1395,33,-259,-9,-38,5,-8
1400,32,-259,-10,-39,5,-8
1405,34,-259,-15,-44,3,-7
1410,31,-259,-10,-45,3,-7
1415,31,-257,-6,-49,5,-7
1420,31,-258,-5,-50,7,-7
1425,32,-260,-7,-51,8,-9
1430,28,-260,-11,-51,9,-9
1435,38,-260,-12,-51,10,-9
1440,31,-262,-11,-52,11,-9
1445,30,-260,-14,-53,12,-10
1450,35,-263,-9,-54,14,-12
1455,35,-262,-9,-53,17,-12
1460,36,-263,-11,-51,19,-13
1465,33,-259,-12,-49,20,-11
1470,33,-261,-6,-48,22,-14
1475,33,-261,-7,-45,23,-14
1480,34,-260,-12,-43,24,-15
1485,30,-261,-7,-40,25,-15
1490,30,-261,-9,-39,23,-13
1495,32,-258,-10,-36,23,-14
1500,33,-258,-11,-37,22,-14
1505,29,-259,-11,-37,20,-14
1510,33,-257,-10,-38,21,-14
1515,32,-256,-10,-39,19,-12
1520,31,-258,-11,-41,18,-11
1525,31,-257,-9,-43,17,-12
1530,29,-258,-6,-43,16,-12
1535,33,-257,-14,-45,14,-12
1540,31,-259,-8,-44,13,-12
1545,29,-260,-12,-43,12,-11
1550,30,-258,-11,-44,11,-10
1555,29,-260,-11,-43,10,-9
1560,31,-259,-11,-42,8,-8
1565,31,-260,-6,-43,8,-10
1570,29,-260,-11,-46,8,-8
1575,30,-260,-11,-48,7,-8
1580,31,-261,-12,-47,5,-9
1585,30,-259,-6,-46,6,-10
1590,30,-259,-6,-47,7,-11
1595,30,-260,-12,-46,7,-11
1600,33,-255,-6,-43,9,-12
1605,34,-259,-11,-41,10,-11
1610,33,-261,-8,-40,11,-11
1615,33,-261,-11,-37,12,-11
1620,31,-261,-8,-33,12,-11
1625,33,-260,-10,-33,12,-13
1630,33,-259,-10,-31,13,-11
1635,30,-257,-5,-30,12,-10
1640,31,-259,-7,-31,12,-11
1645,33,-258,-9,-31,13,-9
1650,32,-260,-6,-32,13,-9
1655,33,-258,-8,-32,14,-10
1660,33,-256,-8,-37,15,-9
1665,32,-256,-7,-39,16,-9
1670,31,-257,-7,-41,17,-8
1675,34,-257,-6,-44,18,-8
1680,33,-257,-7,-46,18,-8
1685,28,-258,-7,-47,19,-7
1690,33,-256,-7,-50,22,-6
1695,32,-256,-7,-51,22,-7
1700,29,-253,-9,-52,21,-8
1705,33,-257,-10,-58,21,-6
1710,32,-258,-10,-60,21,-7
1715,30,-259,-9,-62,20,-6
1720,31,-259,-8,-64,19,-7
1725,30,-261,-9,-66,17,-7
1730,32,-260,-13,-66,15,-5
1735,30,-262,-10,-64,14,-5
1740,32,-263,-8,-63,12,-5
1745,32,-261,-10,-60,12,-6
1750,34,-261,-2,-57,11,-8
1755,34,-262,-10,-53,12,-8
1760,29,-260,-11,-50,12,-8
1765,29,-259,-10,-46,12,-8
1770,29,-261,-9,-44,10,-9
1775,31,-260,-11,-39,10,-8
1780,30,-258,-12,-38,9,-9
1785,30,-260,-11,-39,8,-8
1790,30,-261,-8,-38,6,-8
1795,34,-261,-10,-36,6,-8
1800,31,-260,-9,-33,5,-7
1805,29,-261,-9,-31,3,-6
1810,28,-257,-3,-29,2,-6
1815,33,-257,-6,-27,0,-4
1820,29,-260,-4,-25,-1,-3
1825,30,-257,-7,-24,-1,-3
1830,34,-259,-9,-24,-3,-5
1835,32,-257,-8,-24,-3,-4
1840,32,-259,-8,-27,-3,-4
1845,30,-258,-6,-28,-3,-4
1850,32,-261,-10,-32,-3,-5
1855,30,-262,-8,-34,-2,-6
1860,32,-258,-6,-37,-1,-6
1865,32,-258,-13,-41,-1,-8
1870,32,-257,-7,-42,-1,-8
1875,33,-260,-9,-42,2,-8
1880,30,-258,-10,-43,2,-9
1885,30,-259,-10,-40,4,-9
1890,32,-259,-12,-38,4,-6
1895,33,-259,-9,-39,5,-7
1900,30,-258,-7,-39,6,-7
1905,33,-260,-11,-41,7,-6
1910,33,-258,-14,-44,10,-7
1915,33,-258,-11,-44,10,-6
1920,34,-262,-9,-46,10,-6
1925,31,-258,-11,-47,8,-7
1930,32,-261,-10,-45,7,-4
1935,34,-262,-9,-44,7,-5
1940,32,-262,-14,-40,5,-4
1945,31,-263,-6,-38,2,-4
1950,29,-263,-9,-34,1,-3
1955,33,-263,-10,-31,1,-3
1960,32,-262,-6,-27,0,-4
1965,30,-260,-13,-24,0,-3
1970,32,-259,-9,-21,-1,-3
1975,28,-260,-11,-18,-1,-3
1980,31,-261,-11,-16,-2,-3
1985,31,-260,-6,-16,-2,-3
1990,30,-257,-13,-16,-3,-3
1995,30,-260,-7,-15,-3,-1
2000,33,-259,-9,-17,-3,0
2005,31,-257,-6,-17,-4,1
2010,31,-256,-7,-18,-4,1
2015,31,-257,0,-20,-5,2
2020,34,-260,-11,-22,-4,4
2025,33,-255,-10,-23,-4,3
2030,36,-261,-10,-25,-4,4
2035,31,-259,-9,-26,-5,4
2040,33,-258,-6,-28,-5,3
2045,30,-261,-9,-28,-5,2
2050,30,-259,-11,-29,-2,2
2055,30,-259,-5,-29,-2,1
2060,34,-259,-10,-27,-1,0
2065,33,-260,-4,-23,0,-2
2070,31,-259,-8,-22,2,-1
2075,31,-257,-10,-21,4,-2
2080,34,-259,-6,-19,7,-2
2085,34,-253,-8,-19,8,-3
2090,35,-261,-9,-21,8,-3
2095,33,-261,-11,-22,11,-2
2100,33,-259,-12,-22,13,-4
2105,33,-261,-5,-20,13,-4
2110,32,-257,-10,-19,15,-5
2115,35,-261,-8,-21,16,-5
2120,32,-262,-9,-19,16,-4
2125,31,-258,-5,-17,16,-5
2130,33,-259,-9,-16,14,-5
2135,36,-259,-7,-16,15,-7
2140,28,-260,-7,-15,14,-6
2145,33,-257,-3,-17,13,-5
2150,31,-259,-8,-19,14,-2
2155,32,-257,-8,-20,14,-2
2160,31,-259,-5,-22,15,-3
2165,31,-259,-7,-23,16,-2
2170,30,-259,-9,-23,17,-3
2175,31,-259,-8,-25,16,-3
2180,29,-258,-7,-26,17,-4
2185,35,-261,-4,-26,17,-3
2190,31,-258,-9,-25,19,-4
2195,36,-262,-7,-26,17,-4
2200,33,-259,-10,-25,19,-4
2205,34,-259,-4,-29,21,-3
2210,30,-256,-9,-29,21,-4
2215,33,-258,-5,-30,21,-5
2220,32,-258,-3,-35,23,-6
2225,32,-258,-4,-38,24,-7
2230,29,-257,-9,-39,24,-5
2235,31,-258,-4,-39,23,-5
2240,32,-260,-2,-40,23,-7
2245,34,-261,-6,-41,24,-5
2250,35,-262,-5,-40,23,-7
2255,35,-261,-7,-39,23,-6
2260,32,-258,-11,-38,24,-7
2265,34,-258,-11,-40,23,-8
2270,32,-256,-6,-39,25,-8
2275,34,-259,-10,-39,24,-8
2280,30,-258,-5,-38,25,-8
2285,32,-259,-9,-39,22,-8
2290,31,-259,-7,-38,23,-8
2295,30,-258,-6,-37,22,-7
2300,32,-257,-6,-36,21,-7
2305,31,-264,-9,-34,20,-7
2310,33,-260,-5,-31,19,-7
2315,28,-258,-6,-30,20,-6
2320,33,-260,-4,-31,21,-7
2325,32,-259,-7,-30,21,-7
2330,33,-260,-6,-30,21,-8
2335,31,-258,-9,-31,21,-7
2340,33,-261,-7,-30,23,-6
2345,31,-259,-5,-27,23,-5
2350,31,-261,-9,-24,23,-6
2355,32,-257,-2,-23,21,-5
2360,40,-262,-5,-21,20,-5
2365,30,-259,-2,-19,18,-4
2370,35,-261,-7,-21,18,-5
2375,33,-260,-6,-21,16,-4
2380,33,-258,-6,-22,16,-5
2385,33,-259,-6,-21,14,-5
2390,32,-260,-10,-20,13,-4
2395,29,-258,-7,-22,13,-5
2400,32,-261,-5,-23,12,-6
2405,27,-260,-2,-20,13,-6
2410,31,-259,-7,-22,14,-9
2415,29,-264,-13,-23,15,-6
2420,29,-257,-8,-23,15,-5
2425,28,-259,-4,-19,15,-6
2430,33,-259,-6,-16,15,-6
2435,29,-258,-6,-14,14,-4
2440,29,-257,-6,-12,14,-3
2445,29,-258,-7,-13,13,-2
2450,32,-261,-3,-11,12,-2
2455,36,-259,-4,-13,11,-1
2460,31,-260,-5,-14,10,0
2465,28,-255,-3,-18,9,0
2470,28,-258,-4,-18,8,0
2475,34,-257,-2,-20,7,1
2480,31,-257,-3,-25,6,2
2485,29,-258,-4,-23,5,1
2490,32,-257,-1,-26,4,1
2495,32,-259,-2,-26,3,1
2500,30,-258,-6,-25,3,2
2505,33,-257,0,-26,4,2
2510,32,-260,-4,-25,4,2
2515,29,-257,-3,-26,5,3
2520,30,-261,-1,-24,6,2
2525,30,-259,-3,-24,6,3
2530,30,-256,-5,-26,8,4
2535,31,-256,-7,-28,7,4
2540,31,-256,-6,-29,9,4
2545,32,-256,-6,-30,10,5
2550,32,-257,-3,-33,11,5
2555,27,-257,-7,-36,11,5
2560,33,-260,-2,-39,10,5
2565,33,-257,-4,-41,8,7
2570,30,-257,-8,-44,8,6
2575,32,-260,-1,-47,6,7
2580,32,-258,-6,-50,5,9
2585,29,-257,-4,-51,3,10
2590,30,-258,-3,-52,2,10
2595,31,-257,-2,-56,-1,9
2600,31,-259,-4,-59,-1,9
2605,30,-257,-6,-60,-1,9
2610,31,-260,-5,-63,-1,9
2615,30,-259,-7,-66,-1,9
2620,31,-258,-7,-66,-1,8
2625,30,-259,-7,-65,-1,6
2630,29,-254,-3,-69,-2,7
2635,32,-259,-4,-69,-1,4
2640,29,-258,-2,-71,-1,4
2645,30,-258,-4,-72,2,2
2650,30,-258,-5,-73,3,0
2655,31,-258,-11,-70,6,-2
2660,31,-257,-5,-71,7,-4
2665,30,-260,-5,-71,7,-5
2670,35,-260,-7,-73,8,-6
2675,29,-256,-4,-77,6,-7
2680,28,-258,-9,-82,5,-5
2685,36,-259,-4,-82,3,-5
2690,33,-260,-9,-85,1,-4
2695,31,-258,-7,-85,1,-4
2700,32,-260,-2,-85,0,-3
2705,30,-259,-8,-86,1,-1
2710,34,-258,-8,-87,3,0
2715,31,-258,0,-88,3,1
2720,33,-260,-6,-89,6,3
2725,35,-263,-6,-90,5,4
2730,32,-257,-7,-91,4,5
2735,32,-259,-7,-86,3,7
2740,29,-255,-5,-81,4,8
2745,34,-261,-7,-79,5,7
2750,31,-260,-7,-76,5,7
2755,35,-261,-8,-74,7,6
2760,31,-260,-3,-73,9,4
2765,31,-259,-7,-72,10,3
2770,31,-260,-6,-74,9,1
2775,28,-262,-8,-74,11,3
2780,31,-258,-12,-74,12,1
2785,31,-261,-9,-74,12,1
2790,32,-262,-10,-77,14,-1
2795,32,-262,-15,-80,15,-2
2800,31,-259,-9,-81,16,-1
2805,33,-259,-12,-84,20,-1
2810,30,-259,-8,-85,22,1
2815,31,-258,-11,-87,26,0
2820,33,-260,-10,-90,30,-2
2825,32,-259,-10,-92,32,-2
2830,34,-259,-8,-95,31,-3
2835,32,-258,-7,-97,31,-4
2840,33,-256,-8,-99,31,-5
2845,36,-258,-8,-99,29,-7
2850,32,-256,-14,-100,28,-7
2855,36,-258,-12,-103,27,-9
2860,34,-256,-13,-108,29,-11
2865,31,-257,-13,-113,30,-12
2870,33,-257,-13,-117,32,-15
2875,33,-258,-14,-118,34,-19
2880,33,-259,-16,-122,35,-24
2885,33,-257,-14,-127,35,-27
2890,34,-258,-17,-131,35,-32
2895,31,-258,-17,-136,37,-38
2900,33,-257,-23,-139,40,-41
2905,33,-265,-21,-144,43,-45
2910,30,-259,-19,-146,48,-48
2915,31,-257,-25,-149,53,-52
2920,34,-257,-22,-151,57,-53
2925,31,-256,-23,-156,62,-56
2930,31,-255,-23,-162,66,-56
2935,30,-254,-25,-171,69,-56
2940,31,-256,-22,-176,70,-56
2945,32,-256,-25,-183,71,-58
2950,31,-253,-28,-190,73,-56
2955,30,-249,-28,-199,77,-58
2960,31,-252,-27,-208,82,-60
2965,40,-255,-30,-215,89,-62
2970,36,-251,-31,-223,95,-64
2975,37,-253,-32,-232,102,-65
2980,43,-251,-30,-244,110,-68
2985,42,-250,-29,-257,116,-69
2990,41,-250,-33,-268,121,-71
2995,42,-251,-31,-276,124,-72
3000,45,-251,-32,-287,128,-74
3005,46,-249,-30,-297,129,-76
3010,46,-250,-30,-311,131,-77
3015,43,-247,-33,-325,130,-81
3020,42,-247,-37,-342,132,-85
3025,38,-250,-36,-357,135,-88
3030,39,-251,-33,-374,139,-92
3035,40,-251,-36,-389,145,-94
3040,38,-254,-33,-404,150,-96
3045,36,-253,-35,-415,158,-99
3050,38,-254,-37,-425,167,-102
3055,34,-258,-41,-432,178,-104
3060,38,-257,-39,-440,187,-107
3065,36,-255,-44,-444,195,-111
3070,34,-256,-37,-445,203,-111
3075,33,-256,-38,-444,210,-113
3080,35,-257,-39,-443,216,-114
3085,34,-255,-41,-445,218,-118
3090,34,-256,-41,-448,223,-118
3095,28,-254,-40,-453,223,-118
3100,32,-253,-43,-462,222,-119
3105,27,-253,-40,-469,220,-117
3110,28,-254,-44,-477,215,-116
3115,32,-253,-48,-488,209,-115
3120,31,-256,-45,-498,202,-115
3125,27,-247,-47,-510,197,-113
3130,30,-250,-45,-522,190,-111
3135,29,-249,-47,-537,184,-112
3140,31,-251,-46,-550,178,-109
3145,30,-251,-49,-562,173,-108
3150,28,-245,-47,-572,167,-108
3155,29,-248,-52,-580,164,-107
3160,33,-251,-47,-588,160,-108
3165,30,-252,-50,-594,160,-106
3170,30,-249,-48,-601,160,-107
3175,32,-253,-51,-606,160,-104
3180,30,-252,-49,-610,162,-104
3185,32,-253,-55,-612,168,-102
3190,32,-253,-54,-615,172,-101
3195,31,-253,-54,-615,178,-100
3200,33,-253,-52,-615,185,-98
3205,34,-257,-54,-613,192,-97
3210,33,-257,-50,-613,197,-94
3215,35,-257,-55,-610,200,-93
3220,38,-259,-53,-607,204,-92
3225,37,-259,-52,-605,206,-89
3230,36,-265,-47,-603,209,-90
3235,38,-263,-53,-598,210,-89
3240,39,-263,-55,-592,213,-89
3245,40,-261,-54,-589,216,-88
3250,40,-264,-54,-584,218,-89
3255,42,-263,-56,-579,219,-89
3260,40,-264,-57,-573,220,-90
3265,40,-261,-62,-564,221,-93
3270,40,-263,-63,-556,223,-95
3275,45,-261,-60,-551,229,-94
3280,42,-261,-62,-548,236,-94
3285,43,-252,-67,-542,242,-97
3290,42,-256,-61,-541,249,-98
3295,42,-257,-64,-545,252,-94
3300,38,-255,-69,-550,253,-93
3305,43,-254,-68,-556,255,-90
3310,39,-253,-68,-563,253,-91
3315,39,-248,-72,-570,250,-89
3320,38,-250,-78,-585,244,-88
3325,39,-248,-73,-604,237,-87
3330,34,-247,-75,-621,229,-83
3335,33,-246,-74,-636,222,-79
3340,39,-247,-80,-652,214,-75
3345,31,-243,-77,-669,205,-74
3350,30,-241,-76,-682,197,-71
3355,26,-242,-76,-694,189,-69
3360,27,-242,-81,-706,179,-65
3365,28,-239,-79,-722,171,-63
3370,29,-240,-81,-733,162,-58
3375,29,-242,-79,-742,151,-54
3380,25,-236,-80,-751,139,-48
3385,25,-240,-76,-760,124,-45
3390,27,-242,-69,-766,111,-37
3395,21,-238,-80,-773,96,-30
3400,25,-241,-78,-779,79,-23
3405,26,-243,-84,-787,64,-16
3410,24,-243,-86,-794,48,-10
3415,25,-247,-83,-801,30,-5
3420,26,-247,-86,-808,16,0
3425,21,-249,-90,-815,1,8
3430,23,-251,-88,-820,-12,14
3435,24,-250,-90,-825,-24,20
3440,23,-254,-92,-827,-33,26
3445,23,-254,-94,-827,-41,32
3450,26,-256,-93,-823,-48,39
3455,28,-259,-92,-816,-54,43
3460,26,-257,-96,-808,-60,48
3465,29,-260,-98,-802,-65,53
3470,28,-257,-98,-797,-74,61
3475,33,-260,-98,-791,-82,67
3480,32,-258,-105,-785,-88,74
3485,31,-256,-98,-782,-96,79
3490,32,-254,-101,-779,-102,86
3495,31,-253,-101,-774,-109,92
3500,32,-254,-96,-773,-117,96
3505,34,-251,-102,-771,-126,96
3510,34,-251,-103,-769,-132,97
3515,35,-250,-102,-766,-138,97
3520,36,-247,-98,-764,-138,97
3525,36,-246,-100,-764,-137,97
3530,42,-247,-99,-763,-134,95
3535,39,-242,-102,-765,-129,93
3540,39,-244,-100,-765,-121,90
3545,36,-243,-102,-767,-115,86
3550,40,-245,-105,-769,-112,82
3555,45,-243,-105,-767,-111,77
3560,44,-248,-105,-765,-113,73
3565,43,-249,-105,-761,-113,68
3570,42,-253,-107,-753,-115,64
3575,43,-255,-108,-743,-118,59
3580,41,-256,-110,-736,-124,52
3585,40,-256,-114,-727,-130,45
3590,41,-256,-115,-721,-138,39
3595,40,-257,-117,-711,-145,32
3600,40,-258,-117,-702,-154,26
3605,41,-264,-123,-694,-161,19
3610,40,-264,-119,-684,-166,13
3615,39,-263,-121,-676,-171,2
3620,40,-266,-121,-665,-172,-3
3625,41,-267,-125,-652,-172,-7
3630,40,-267,-122,-638,-171,-13
3635,42,-263,-122,-625,-170,-19
3640,41,-267,-121,-613,-166,-24
3645,41,-268,-125,-603,-161,-29
3650,43,-267,-124,-593,-153,-33
3655,41,-267,-124,-584,-144,-38
3660,43,-268,-122,-579,-136,-44
3665,46,-262,-117,-573,-130,-50
3670,46,-261,-125,-567,-123,-55
3675,43,-261,-128,-568,-116,-62
3680,44,-260,-127,-574,-110,-71
3685,42,-256,-130,-579,-104,-78
3690,43,-256,-130,-586,-100,-85
3695,39,-251,-129,-592,-96,-91
3700,43,-250,-130,-599,-87,-98
3705,41,-244,-134,-598,-80,-102
3710,43,-246,-130,-601,-69,-104
3715,42,-242,-134,-603,-60,-106
3720,42,-241,-138,-606,-53,-104
3725,46,-237,-134,-613,-44,-101
3730,46,-234,-132,-618,-42,-97
3735,43,-232,-134,-619,-41,-92
3740,47,-231,-135,-620,-42,-86
3745,50,-233,-130,-619,-45,-78
3750,47,-230,-134,-615,-46,-75
3755,47,-230,-135,-612,-46,-72
3760,44,-231,-139,-612,-47,-69
3765,50,-232,-134,-615,-43,-69
3770,45,-228,-136,-622,-38,-70
3775,49,-232,-141,-632,-30,-72
3780,49,-234,-144,-640,-18,-75
3785,50,-233,-146,-649,-5,-81
3790,50,-236,-148,-656,11,-86
3795,49,-238,-148,-660,24,-93
3800,48,-243,-153,-660,33,-101
3805,48,-238,-149,-656,41,-106
3810,46,-243,-152,-649,46,-111
3815,48,-244,-154,-638,48,-115
3820,49,-245,-160,-627,48,-113
3825,54,-243,-146,-618,49,-113
3830,45,-246,-155,-608,49,-111
3835,47,-247,-157,-596,51,-107
3840,49,-250,-155,-588,57,-105
3845,51,-251,-152,-575,63,-102
3850,51,-248,-154,-561,71,-97
3855,50,-249,-156,-547,78,-92
3860,45,-246,-152,-527,81,-84
3865,52,-247,-155,-513,84,-76
3870,47,-246,-154,-504,87,-69
3875,49,-246,-157,-495,87,-64
3880,43,-242,-162,-483,86,-59
3885,43,-242,-155,-473,85,-57
3890,42,-240,-154,-461,81,-54
3895,41,-238,-161,-450,76,-53
3900,41,-237,-159,-442,69,-53
3905,37,-237,-163,-438,61,-52
3910,40,-238,-163,-435,54,-52
3915,36,-236,-169,-439,47,-53
3920,36,-234,-166,-447,43,-53
3925,38,-232,-167,-455,38,-51
3930,35,-231,-168,-466,32,-46
3935,35,-238,-170,-474,26,-41
3940,34,-232,-169,-482,17,-38
3945,37,-236,-174,-486,6,-32
3950,35,-238,-176,-489,-6,-25
3955,37,-238,-174,-489,-17,-20
3960,38,-241,-177,-487,-28,-15
3965,41,-242,-181,-483,-38,-13
3970,40,-239,-175,-479,-43,-11
3975,44,-241,-178,-475,-42,-13
3980,43,-240,-177,-470,-39,-16
3985,49,-240,-173,-465,-31,-19
3990,53,-233,-170,-458,-22,-18
3995,53,-236,-171,-452,-12,-20
4000,55,-234,-168,-442,-2,-22
4005,58,-232,-173,-433,5,-24
4010,58,-230,-169,-421,9,-25
4015,59,-229,-169,-406,9,-27
4020,62,-227,-164,-392,5,-28
4025,60,-227,-171,-376,2,-28
4030,59,-224,-169,-366,-2,-31
4035,60,-224,-170,-357,-7,-35
4040,57,-224,-173,-348,-11,-38
4045,60,-224,-175,-344,-12,-43
4050,59,-226,-180,-342,-14,-48
4055,56,-223,-180,-340,-12,-54
4060,53,-224,-183,-339,-6,-60
4065,51,-224,-183,-340,0,-62
4070,49,-224,-185,-345,7,-66
4075,49,-224,-184,-351,15,-68
4080,47,-228,-188,-358,24,-66
4085,45,-226,-190,-362,28,-64
4090,46,-225,-189,-362,31,-63
4095,39,-223,-187,-362,30,-60
4100,37,-225,-193,-356,25,-56
4105,35,-227,-190,-345,18,-48
4110,36,-229,-190,-329,8,-42
4115,39,-233,-191,-319,2,-47
4120,36,-231,-191,-314,1,-51
4125,36,-230,-188,-307,1,-51
4130,35,-228,-187,-301,3,-51
4135,40,-228,-182,-292,6,-50
4140,38,-227,-186,-285,9,-52
4145,39,-227,-183,-275,11,-50
4150,39,-222,-178,-264,9,-48
4155,43,-221,-189,-252,2,-45
4160,39,-220,-184,-240,-5,-40
4165,40,-217,-188,-233,-15,-34
4170,42,-218,-185,-229,-24,-27
4175,42,-217,-186,-227,-30,-21
4180,40,-214,-190,-225,-34,-14
4185,43,-215,-186,-227,-36,-10
4190,41,-215,-188,-230,-37,-7
4195,41,-209,-191,-238,-40,-6
4200,44,-209,-194,-247,-39,-7
4205,38,-212,-199,-257,-37,-6
4210,44,-204,-193,-266,-36,-5
4215,43,-212,-197,-270,-35,-4
4220,45,-215,-194,-271,-35,-5
4225,46,-214,-197,-273,-38,-4
4230,45,-213,-198,-276,-42,-3
4235,46,-214,-199,-274,-41,-2
4240,43,-212,-198,-271,-41,-2
4245,39,-208,-195,-267,-39,1
4250,50,-217,-200,-255,-42,12
4255,43,-213,-202,-251,-38,5
4260,43,-212,-197,-253,-31,-4
4265,39,-209,-199,-251,-27,-11
4270,43,-209,-198,-248,-24,-14
4275,42,-205,-192,-246,-22,-17
4280,42,-206,-195,-243,-18,-20
4285,40,-203,-197,-244,-13,-24
4290,43,-200,-194,-245,-11,-28
4295,38,-197,-195,-251,-8,-29
4300,39,-194,-195,-258,-4,-29
4305,40,-195,-190,-265,4,-28
4310,42,-203,-193,-270,14,-31
4315,39,-201,-193,-269,21,-31
4320,41,-199,-192,-264,24,-33
4325,41,-201,-189,-252,27,-32
4330,40,-198,-192,-240,29,-30
4335,41,-200,-192,-223,32,-26
4340,36,-199,-186,-204,28,-20
4345,44,-203,-194,-179,21,-6
4350,41,-202,-195,-162,18,-6
4355,39,-201,-195,-151,21,-7
4360,39,-200,-195,-142,21,-5
4365,43,-200,-201,-138,23,-5
4370,36,-198,-202,-141,21,-2
4375,41,-202,-201,-148,21,1
4380,40,-201,-207,-157,22,2
4385,40,-201,-208,-170,26,1
4390,42,-203,-204,-187,31,0
4395,41,-203,-206,-198,36,-1
4400,40,-204,-204,-207,40,-3
4405,43,-210,-206,-207,45,-6
4410,36,-208,-206,-202,46,-10
4415,42,-208,-206,-187,43,-5
4420,41,-209,-207,-178,43,-15
4425,38,-210,-208,-176,47,-26
4430,42,-209,-207,-180,46,-36
4435,39,-209,-206,-181,42,-41
4440,34,-210,-206,-183,37,-34
4445,37,-207,-202,-185,29,-29
4450,38,-212,-204,-186,19,-26
4455,40,-209,-197,-189,11,-23
4460,38,-210,-202,-192,5,-19
4465,33,-209,-203,-195,1,-15
4470,36,-210,-201,-194,-3,-8
4475,38,-208,-197,-190,-1,-3
4480,39,-204,-201,-187,1,1
4485,40,-205,-202,-182,7,2
4490,39,-205,-201,-175,13,6
4495,41,-203,-200,-171,22,8
4500,44,-204,-205,-166,29,9
4505,44,-205,-206,-161,34,10
4510,43,-204,-201,-157,36,11
4515,43,-203,-204,-150,35,9
4520,43,-202,-208,-144,33,9
4525,47,-205,-207,-139,31,8
4530,43,-199,-207,-136,27,5
4535,41,-199,-213,-133,24,3
4540,43,-200,-208,-132,21,1
4545,42,-197,-205,-133,18,1
4550,46,-196,-204,-136,17,-1
4555,45,-197,-207,-139,18,-3
4560,43,-196,-203,-143,17,-6
4565,42,-200,-200,-147,16,-6
4570,39,-196,-198,-148,15,-8
4575,44,-196,-202,-145,16,-11
4580,43,-197,-204,-144,18,-13
4585,42,-198,-201,-144,19,-14
4590,39,-195,-203,-148,22,-15
4595,45,-194,-195,-152,23,-14
4600,42,-195,-199,-157,21,-12
4605,39,-192,-194,-157,19,-10
4610,40,-193,-198,-153,15,-7
4615,39,-192,-199,-150,10,-5
4620,41,-192,-201,-149,6,-3
4625,39,-194,-200,-144,2,-3
4630,39,-193,-201,-139,-5,-3
4635,37,-196,-202,-128,-5,-5
4640,44,-194,-200,-114,-5,-5
4645,40,-199,-209,-100,-4,-6
4650,42,-198,-201,-90,-2,-6
4655,42,-198,-204,-81,2,-5
4660,43,-199,-205,-76,4,-4
4665,48,-198,-213,-75,3,-1
4670,47,-200,-207,-84,8,-5
4675,48,-204,-215,-95,18,-8
4680,47,-205,-220,-105,26,-12
4685,40,-202,-220,-109,30,-21
4690,39,-209,-221,-103,33,-27
4695,44,-211,-226,-104,36,-22
4700,39,-208,-225,-105,36,-21
4705,42,-209,-221,-105,33,-21
4710,38,-211,-224,-110,27,-18
4715,39,-207,-218,-118,18,-14
4720,38,-206,-214,-124,8,-11
4725,39,-203,-213,-133,0,-8
4730,39,-202,-210,-145,-6,-4
4735,37,-204,-204,-155,-13,0
4740,35,-201,-204,-156,-19,4
4745,37,-198,-202,-154,-25,5
4750,38,-199,-205,-149,-27,8
4755,33,-206,-198,-141,-27,9
4760,39,-199,-202,-132,-23,11
4765,35,-199,-199,-123,-19,13
4770,36,-200,-198,-110,-14,13
4775,37,-195,-200,-98,-10,14
4780,38,-197,-203,-86,-6,15
4785,39,-196,-198,-78,-5,17
4790,39,-196,-199,-69,-5,19
4795,42,-195,-204,-61,-6,21
4800,41,-195,-205,-56,-6,23
4805,40,-193,-207,-49,-5,25
4810,46,-194,-207,-45,-2,26
4815,48,-193,-207,-41,2,25
4820,48,-195,-212,-42,6,22
4825,48,-196,-211,-42,12,20
4830,46,-196,-212,-45,16,16
4835,44,-193,-215,-51,20,14
4840,42,-191,-206,-59,24,12
4845,42,-195,-208,-68,27,11
4850,40,-192,-210,-74,29,10
4855,38,-190,-209,-80,31,11
4860,38,-195,-207,-81,31,12
4865,40,-197,-209,-83,27,12
4870,36,-193,-206,-83,23,14
4875,36,-193,-207,-85,19,16
4880,33,-192,-211,-87,15,16
4885,34,-191,-209,-90,12,17
4890,35,-194,-211,-97,9,17
4895,32,-191,-213,-103,9,19
4900,35,-192,-209,-108,10,20
4905,34,-191,-209,-112,13,23
4910,37,-191,-213,-120,15,23
4915,35,-190,-206,-121,17,23
4920,38,-187,-205,-125,18,25
4925,38,-191,-206,-127,20,24
4930,38,-189,-207,-128,21,24
4935,40,-192,-208,-131,21,23
4940,39,-190,-207,-131,21,21
4945,41,-185,-208,-132,22,20
4950,40,-188,-211,-131,22,18
4955,43,-190,-207,-133,25,18
4960,40,-184,-203,-134,28,18
4965,42,-188,-204,-137,33,18
4970,40,-189,-209,-138,39,19
4975,40,-187,-209,-140,44,20
4980,42,-185,-212,-140,48,21
4985,40,-186,-212,-145,50,21
4990,41,-185,-211,-148,48,22
4995,43,-185,-208,-152,50,24
5000,38,-184,-210,-157,48,25
5005,36,-180,-208,-163,46,26
5010,35,-180,-210,-167,42,28
5015,33,-185,-210,-172,40,28
5020,35,-185,-213,-178,34,31
5025,37,-184,-211,-184,31,31
5030,34,-185,-210,-188,29,31
5035,34,-185,-213,-191,26,33
5040,33,-185,-213,-191,26,34
5045,32,-185,-211,-190,28,35
5050,35,-188,-212,-189,27,35
5055,35,-187,-216,-189,27,35
5060,33,-186,-216,-192,27,35
5065,34,-189,-219,-193,28,34
5070,35,-188,-218,-194,32,32
5075,36,-188,-219,-195,38,31
5080,37,-188,-218,-194,45,30
5085,69,-188,-212,-193,47,19
5090,33,-189,-220,-181,49,-2
5095,39,-186,-215,-183,63,15
5100,39,-189,-220,-191,68,24
5105,25,-181,-208,-193,66,34
5110,49,-191,-215,-192,51,47
5115,48,-190,-215,-192,59,41
5120,43,-188,-218,-192,70,33
5125,65,-187,-213,-191,75,27
5130,32,-188,-216,-187,75,5
5135,40,-189,-221,-186,82,18
5140,40,-189,-214,-189,82,25
5145,37,-185,-213,-192,82,27
5150,36,-185,-213,-191,78,26
5155,37,-186,-212,-194,80,22
5160,40,-190,-216,-191,78,22
5165,38,-188,-215,-190,80,18
5170,39,-186,-214,-186,83,14
5175,35,-187,-217,-183,82,12
5180,41,-188,-218,-180,80,11
5185,19,-186,-215,-171,72,-20
5190,34,-185,-219,-165,73,-7
5195,33,-184,-220,-167,68,5
5200,36,-187,-224,-171,58,9
5205,39,-183,-228,-172,48,12
5210,36,-186,-226,-174,40,9
5215,40,-185,-228,-179,38,7
5220,24,-190,-224,-179,30,-16
5225,32,-190,-227,-178,36,-9
5230,36,-187,-230,-187,39,-1
5235,36,-187,-226,-194,35,2
5240,38,-189,-222,-200,32,2
5245,35,-185,-225,-206,31,1
5250,39,-185,-224,-207,30,-1
5255,40,-189,-222,-209,32,-3
5260,38,-185,-220,-207,35,-4
5265,40,-181,-218,-205,36,-6
5270,59,-187,-218,-206,41,-12
5275,31,-185,-218,-194,41,-39
5280,38,-183,-218,-192,52,-27
5285,41,-181,-218,-195,57,-18
5290,38,-177,-216,-197,54,-10
5295,51,-185,-227,-195,47,0
5300,48,-179,-217,-193,48,-7
5305,43,-178,-227,-196,56,-15
5310,47,-180,-223,-199,59,-24
5315,44,-181,-225,-197,57,-33
5320,47,-181,-228,-197,56,-38
5325,52,-183,-229,-197,54,-45
5330,38,-183,-225,-192,48,-67
5335,39,-184,-228,-188,55,-66
5340,41,-182,-227,-193,57,-58
5345,39,-182,-227,-199,58,-56
5350,40,-181,-232,-202,59,-57
5355,41,-177,-224,-209,61,-57
5360,42,-181,-224,-216,64,-55
5365,41,-182,-221,-221,64,-54
5370,43,-182,-223,-222,60,-54
5375,74,-179,-213,-221,57,-55
5380,29,-179,-222,-209,49,-78
5385,39,-182,-221,-209,49,-59
5390,34,-178,-224,-212,41,-49
5395,40,-177,-220,-211,33,-45
5400,39,-175,-220,-209,26,-46
5405,42,-175,-227,-202,22,-50
5410,45,-181,-227,-192,17,-53
5415,59,-182,-224,-182,16,-67
5420,36,-180,-227,-160,17,-95
5425,41,-182,-229,-156,25,-82
5430,39,-180,-234,-155,28,-75
5435,42,-180,-233,-156,29,-72
5440,43,-179,-231,-156,25,-72
5445,42,-180,-235,-158,21,-73
5450,48,-183,-235,-160,17,-78
5455,37,-184,-233,-155,14,-100
5460,36,-178,-235,-150,11,-99
5465,42,-185,-237,-157,9,-87
5470,41,-180,-240,-163,1,-79
5475,42,-180,-233,-167,-6,-76
5480,40,-178,-229,-174,-13,-73
5485,38,-175,-230,-177,-15,-72
5490,43,-178,-231,-181,-15,-68
5495,42,-179,-228,-182,-13,-68
5500,43,-177,-232,-182,-9,-68
5505,44,-177,-229,-178,-6,-68
5510,46,-178,-231,-177,-3,-68
5515,40,-182,-228,-175,0,-69
5520,46,-180,-231,-171,3,-70
5525,43,-176,-231,-169,7,-68
5530,47,-178,-225,-163,10,-65
5535,46,-178,-229,-159,9,-61
5540,47,-178,-229,-154,9,-60
5545,45,-176,-229,-146,6,-59
5550,45,-177,-231,-142,3,-60
5555,45,-178,-230,-135,0,-62
5560,45,-176,-229,-130,-2,-63
5565,43,-177,-233,-126,-2,-63
5570,51,-179,-234,-120,0,-65
5575,45,-180,-230,-115,4,-66
5580,44,-176,-231,-111,8,-66
5585,44,-175,-234,-108,10,-67
5590,42,-175,-231,-109,12,-66
5595,43,-174,-234,-107,11,-64
5600,42,-172,-234,-107,11,-64
5605,44,-174,-232,-103,10,-65
5610,44,-176,-230,-100,11,-66
5615,39,-176,-236,-96,12,-66
5620,38,-177,-236,-95,11,-65
5625,38,-175,-240,-91,9,-66
5630,36,-177,-238,-87,5,-64
5635,41,-177,-236,-83,-1,-62
5640,43,-179,-239,-81,-5,-61
5645,38,-174,-233,-78,-11,-59
5650,38,-172,-233,-76,-17,-56
5655,42,-176,-235,-74,-23,-54
5660,41,-177,-239,-71,-30,-53
5665,40,-177,-237,-68,-37,-53
5670,47,-178,-235,-65,-41,-55
5675,43,-178,-238,-62,-42,-56
5680,46,-174,-232,-58,-42,-54
5685,46,-177,-236,-57,-39,-57
5690,44,-174,-238,-55,-37,-58
5695,45,-177,-237,-53,-34,-59
5700,45,-177,-235,-51,-33,-60
5705,44,-175,-239,-50,-34,-60
5710,48,-176,-237,-45,-31,-58
5715,45,-173,-230,-43,-29,-58
5720,45,-170,-230,-37,-29,-57
5725,49,-171,-231,-37,-27,-56
5730,44,-174,-228,-34,-25,-55
5735,41,-172,-226,-32,-24,-55
5740,45,-172,-230,-30,-20,-53
5745,44,-175,-228,-27,-18,-50
5750,42,-171,-227,-22,-15,-47
5755,41,-170,-234,-15,-15,-44
5760,44,-168,-228,-7,-16,-41
5765,43,-171,-227,2,-20,-38
5770,43,-165,-232,8,-23,-34
5775,40,-168,-236,9,-26,-33
5780,40,-168,-235,8,-28,-31
5785,42,-171,-225,4,-29,-30
5790,38,-170,-232,2,-29,-29
5795,42,-166,-229,0,-30,-30
5800,41,-164,-233,-5,-31,-28
5805,39,-166,-230,-5,-30,-29
5810,42,-167,-234,-8,-30,-30
5815,42,-167,-236,-10,-28,-30
5820,42,-166,-229,-12,-25,-29
5825,43,-166,-232,-13,-23,-28
5830,42,-169,-233,-14,-19,-30
5835,40,-167,-229,-16,-15,-28
5840,42,-170,-233,-21,-12,-27
5845,40,-168,-233,-23,-10,-25
5850,41,-168,-229,-23,-9,-26
5855,41,-169,-232,-24,-10,-26
5860,40,-167,-233,-21,-13,-24
5865,42,-170,-231,-21,-17,-23
5870,41,-168,-229,-20,-24,-23
5875,43,-169,-228,-24,-29,-23
5880,43,-168,-230,-27,-32,-22
5885,45,-169,-228,-34,-33,-23
5890,43,-169,-231,-42,-32,-23
5895,46,-167,-236,-52,-29,-22
5900,42,-168,-235,-59,-25,-20
5905,44,-166,-231,-66,-22,-22
5910,43,-167,-232,-71,-21,-25
5915,43,-165,-235,-74,-20,-26
5920,47,-165,-234,-74,-17,-28
5925,45,-170,-231,-74,-17,-30
5930,46,-167,-233,-78,-16,-33
5935,42,-166,-233,-79,-15,-36
5940,43,-164,-228,-80,-14,-37
5945,46,-165,-227,-78,-12,-37
5950,46,-167,-232,-79,-11,-37
5955,44,-167,-231,-78,-10,-35
5960,48,-164,-229,-79,-5,-36
5965,45,-166,-231,-76,-2,-34
5970,45,-166,-232,-75,1,-33
5975,45,-164,-231,-75,1,-32
5980,43,-166,-231,-77,2,-31
5985,43,-164,-229,-80,3,-30
5990,40,-166,-229,-80,3,-27
5995,41,-167,-230,-87,2,-26
6000,42,-165,-228,-93,-3,-25
6005,47,-165,-225,-100,-6,-23
6010,43,-167,-232,-107,-10,-21
6015,40,-167,-233,-113,-16,-19
6020,40,-165,-233,-115,-19,-19
6025,40,-168,-234,-120,-24,-18
6030,39,-168,-238,-123,-28,-17
6035,42,-166,-235,-128,-29,-17
6040,44,-163,-236,-131,-28,-19
6045,41,-171,-237,-131,-24,-22
6050,47,-169,-239,-129,-19,-24
6055,38,-167,-232,-128,-17,-27
6060,46,-165,-238,-126,-15,-30
6065,46,-168,-235,-124,-14,-31
6070,45,-167,-235,-122,-13,-35
6075,47,-169,-233,-124,-13,-36
6080,50,-169,-233,-126,-15,-38
6085,47,-170,-232,-127,-16,-37
6090,46,-172,-232,-127,-19,-38
6095,46,-169,-235,-129,-19,-39
6100,43,-168,-239,-129,-19,-39
6105,48,-169,-231,-130,-20,-38
6110,44,-170,-231,-127,-21,-40
6115,42,-170,-234,-126,-20,-39
6120,46,-173,-232,-122,-19,-38
6125,45,-169,-233,-118,-17,-39
6130,45,-168,-235,-114,-14,-40
6135,45,-171,-233,-112,-12,-41
6140,45,-170,-234,-112,-9,-42
6145,46,-170,-235,-113,-7,-45
6150,41,-170,-231,-112,-1,-45
6155,47,-176,-231,-110,1,-47
6160,48,-171,-234,-112,4,-47
6165,46,-173,-232,-110,3,-47
6170,44,-171,-231,-107,0,-48
6175,46,-171,-231,-103,1,-50
6180,45,-173,-236,-97,0,-49
6185,48,-175,-234,-92,-1,-49
6190,44,-174,-234,-86,-1,-49
6195,42,-171,-236,-81,-3,-47
6200,44,-172,-231,-76,-5,-48
6205,45,-177,-233,-73,-3,-48
6210,41,-172,-236,-68,-5,-47
6215,41,-174,-232,-61,-7,-48
6220,39,-172,-236,-51,-8,-48
6225,49,-171,-229,-45,-9,-48
6230,43,-171,-231,-39,-8,-49
6235,42,-170,-234,-32,-5,-50
6240,41,-170,-229,-30,-3,-50
6245,42,-167,-232,-28,0,-49
6250,46,-168,-232,-25,1,-49
6255,46,-168,-236,-23,2,-48
6260,44,-168,-234,-21,2,-44
6265,48,-170,-238,-20,0,-42
6270,44,-172,-236,-16,-4,-39
6275,49,-174,-245,-13,-7,-35
6280,46,-166,-232,-7,-10,-30
6285,49,-171,-240,-5,-12,-30
6290,49,-173,-241,0,-14,-28
6295,49,-172,-241,2,-16,-28
6300,48,-172,-242,1,-17,-27
6305,49,-172,-242,-2,-16,-28
6310,46,-170,-241,-7,-15,-31
6315,48,-172,-240,-11,-13,-32
6320,49,-174,-241,-16,-11,-33
6325,49,-172,-243,-20,-6,-34
6330,45,-172,-235,-20,-3,-34
6335,47,-170,-241,-19,1,-37
6340,45,-172,-240,-18,4,-38
6345,49,-171,-236,-15,4,-38
6350,45,-170,-234,-12,4,-37
6355,48,-172,-237,-7,2,-37
6360,45,-173,-236,-2,-1,-36
6365,49,-174,-233,1,-2,-34
6370,47,-169,-234,7,-6,-32
6375,45,-171,-233,9,-9,-30
6380,44,-168,-232,12,-11,-26
6385,43,-164,-235,14,-13,-23
6390,43,-169,-231,16,-13,-22
6395,44,-168,-232,17,-14,-17
6400,42,-166,-234,17,-16,-16
6405,44,-169,-231,18,-16,-13
6410,44,-166,-228,16,-16,-9
6415,42,-162,-230,16,-18,-8
6420,44,-169,-233,14,-19,-5
6425,42,-165,-229,13,-22,-3
6430,40,-166,-231,13,-24,-1
6435,39,-167,-232,12,-29,-1
6440,37,-167,-233,13,-34,0
6445,39,-163,-232,8,-38,0
6450,43,-162,-234,6,-40,1
6455,42,-166,-234,0,-40,1
6460,42,-164,-233,-5,-37,0
6465,39,-162,-236,-13,-34,0
6470,41,-163,-233,-19,-28,-1
6475,43,-162,-235,-26,-20,-1
6480,42,-164,-238,-32,-13,-4
6485,42,-163,-231,-35,-8,-2
6490,44,-164,-233,-35,-3,-4
6495,50,-167,-232,-33,0,-4
6500,45,-167,-233,-31,3,-4
6505,40,-165,-236,-29,5,-6
6510,44,-166,-232,-25,6,-5
6515,43,-166,-233,-20,3,-5
6520,45,-164,-231,-16,0,-5
6525,43,-163,-234,-17,-5,-3
6530,44,-164,-231,-21,-10,-2
6535,44,-164,-230,-26,-13,1
6540,42,-164,-232,-34,-15,2
6545,43,-164,-232,-43,-14,5
6550,43,-167,-243,-53,-15,6
6555,44,-167,-234,-60,-15,7
6560,40,-167,-232,-63,-16,8
6565,39,-166,-232,-62,-13,7
6570,36,-166,-229,-62,-12,6
6575,39,-168,-226,-61,-10,6
6580,38,-170,-233,-57,-9,5
6585,42,-173,-232,-53,-5,2
6590,37,-170,-236,-50,-3,3
6595,37,-172,-241,-46,-1,1
6600,42,-169,-233,-45,4,0
6605,42,-168,-227,-46,6,-4
6610,41,-172,-234,-50,10,-2
6615,41,-168,-237,-53,15,-3
6620,43,-171,-233,-57,21,-2
6625,43,-169,-233,-58,29,-2
6630,45,-170,-235,-62,37,0
6635,42,-169,-232,-64,43,1
6640,44,-172,-229,-67,46,3
6645,45,-168,-231,-68,46,6
6650,45,-172,-231,-70,45,11
6655,44,-178,-225,-73,41,17
6660,45,-173,-229,-73,37,20
6665,45,-173,-231,-73,34,23
6670,41,-171,-229,-71,30,27
6675,39,-172,-232,-70,25,28
6680,38,-172,-231,-67,24,28
6685,39,-173,-227,-65,26,26
6690,38,-173,-234,-67,26,27
6695,36,-172,-232,-66,30,27
6700,39,-173,-235,-67,34,26
6705,38,-170,-227,-69,35,29
6710,39,-171,-233,-72,38,31
6715,37,-172,-231,-74,38,32
6720,38,-172,-234,-75,35,34
6725,35,-171,-233,-77,34,36
6730,36,-174,-229,-75,32,42
6735,41,-174,-229,-73,31,46
6740,36,-170,-231,-68,30,51
6745,40,-169,-229,-65,28,55
6750,37,-163,-226,-64,28,59
6755,40,-164,-233,-68,29,65
6760,40,-165,-229,-71,35,67
6765,38,-162,-227,-77,42,68
6770,43,-159,-230,-81,46,69
6775,40,-164,-231,-85,54,69
6780,39,-164,-230,-88,58,67
6785,41,-168,-233,-87,59,65
6790,41,-168,-232,-85,60,65
6795,41,-166,-234,-84,60,65
6800,41,-168,-236,-79,61,65
6805,42,-166,-236,-77,63,66
6810,44,-171,-237,-75,62,65
6815,43,-168,-241,-75,61,66
6820,42,-171,-239,-73,57,65
6825,42,-171,-245,-71,56,64
6830,40,-172,-238,-74,53,66
6835,41,-169,-240,-78,50,66
6840,39,-170,-240,-85,48,64
6845,39,-166,-241,-91,45,62
6850,37,-169,-239,-100,45,59
6855,38,-169,-240,-106,45,56
6860,37,-169,-240,-109,45,53
6865,39,-170,-236,-111,43,50
6870,39,-172,-237,-110,43,47
6875,47,-169,-231,-109,41,47
6880,41,-172,-240,-108,43,46
6885,41,-169,-239,-107,46,45
6890,41,-170,-234,-104,46,44
6895,40,-171,-235,-104,48,45
6900,43,-168,-238,-99,51,42
6905,41,-170,-236,-97,52,39
6910,45,-170,-232,-95,54,40
6915,45,-169,-229,-96,54,38
6920,44,-167,-237,-97,57,39
6925,42,-163,-230,-99,58,40
6930,43,-164,-229,-97,60,40
6935,44,-164,-230,-98,63,41
6940,44,-165,-229,-97,63,45
6945,42,-165,-228,-97,65,44
6950,40,-165,-227,-95,68,44
6955,45,-164,-227,-92,69,45
6960,39,-166,-229,-87,73,44
6965,44,-168,-230,-82,77,42
6970,39,-162,-231,-76,78,41
6975,38,-169,-230,-71,79,38
6980,42,-168,-229,-69,77,34
6985,38,-166,-233,-64,76,37
6990,38,-166,-234,-57,74,40
6995,38,-171,-235,-55,68,43
7000,37,-169,-235,-52,60,44
7005,38,-169,-238,-49,51,45
7010,35,-172,-237,-49,42,46
7015,38,-173,-241,-50,34,45
7020,34,-173,-240,-53,27,43
7025,38,-173,-247,-55,24,39
7030,40,-175,-244,-51,20,36
7035,36,-172,-246,-51,21,31
7040,43,-179,-245,-48,23,30
7045,44,-175,-250,-44,24,26
7050,42,-178,-244,-36,29,23
7055,43,-183,-245,-28,34,20
7060,44,-181,-246,-19,36,17
7065,44,-182,-248,-6,39,18
7070,45,-186,-244,6,40,15
7075,48,-186,-245,14,43,12
7080,45,-188,-242,26,44,11
7085,48,-188,-241,41,48,8
7090,47,-187,-237,58,51,6
7095,42,-189,-247,77,52,6
7100,45,-190,-243,95,52,6
7105,42,-188,-241,112,51,5
7110,44,-189,-242,128,47,7
7115,45,-189,-241,144,45,8
7120,39,-190,-240,158,43,9
7125,42,-191,-236,170,38,13
7130,40,-191,-243,185,36,16
7135,41,-193,-237,203,32,17
7140,39,-191,-238,223,29,18
7145,39,-195,-240,245,26,21
7150,31,-194,-239,266,21,23
7155,39,-192,-241,284,14,25
7160,35,-193,-236,302,7,28
7165,38,-191,-239,319,1,31
7170,39,-192,-236,336,-5,36
7175,36,-191,-238,353,-11,35
7180,40,-193,-233,367,-17,38
7185,36,-190,-236,380,-22,37
7190,39,-192,-233,394,-24,36
7195,39,-191,-235,403,-26,32
7200,37,-186,-234,407,-27,29
7205,36,-183,-238,409,-30,26
7210,38,-185,-229,413,-30,24
7215,38,-185,-230,414,-29,19
7220,39,-189,-232,419,-29,14
7225,39,-186,-233,428,-28,10
7230,38,-188,-228,436,-27,7
7235,38,-188,-231,446,-26,6
7240,44,-192,-231,458,-25,5
7245,41,-188,-228,471,-24,5
7250,42,-190,-231,480,-22,5
7255,42,-192,-231,488,-20,7
7260,46,-188,-238,492,-21,5
7265,43,-191,-231,497,-19,6
7270,43,-191,-229,497,-19,6
7275,45,-192,-228,494,-19,4
7280,46,-192,-228,491,-19,4
7285,43,-191,-229,487,-19,1
7290,44,-192,-231,481,-19,-4
7295,43,-193,-229,474,-16,-8
7300,43,-194,-222,472,-13,-11
7305,46,-195,-225,468,-14,-14
7310,43,-197,-225,462,-15,-16
7315,45,-199,-221,458,-18,-21
7320,44,-198,-219,457,-19,-27
7325,45,-199,-216,458,-18,-30
7330,44,-198,-215,462,-17,-32
7335,43,-200,-210,466,-15,-33
7340,44,-198,-208,476,-11,-34
7345,45,-194,-205,487,-7,-32
7350,43,-194,-208,497,-2,-31
7355,42,-195,-206,506,6,-29
7360,43,-193,-207,513,12,-30
7365,48,-193,-207,519,17,-31
7370,43,-191,-198,526,24,-30
7375,41,-192,-200,530,28,-32
7380,41,-192,-199,536,33,-34
7385,40,-189,-199,541,36,-37
7390,39,-190,-198,546,39,-38
7395,40,-191,-199,551,40,-41
7400,34,-190,-195,554,40,-43
7405,38,-193,-195,553,40,-48
7410,36,-191,-200,549,40,-48
7415,37,-192,-200,535,39,-48
7420,37,-195,-199,518,37,-48
7425,38,-192,-199,500,37,-45
7430,38,-193,-197,485,38,-40
7435,39,-197,-197,475,40,-38
7440,41,-199,-192,468,43,-33
7445,40,-202,-194,463,46,-28
7450,42,-201,-197,466,45,-26
7455,39,-203,-190,470,48,-24
7460,44,-209,-192,478,49,-24
7465,45,-207,-191,485,51,-26
7470,45,-210,-194,495,50,-25
7475,43,-214,-193,506,52,-24
7480,45,-215,-195,517,51,-24
7485,45,-217,-191,529,48,-22
7490,42,-217,-190,544,45,-19
7495,42,-223,-189,560,44,-19
7500,43,-220,-186,574,42,-17
7505,42,-220,-185,586,43,-17
7510,41,-228,-183,595,43,-16
7515,42,-226,-186,604,45,-17
7520,46,-226,-185,615,44,-19
7525,45,-228,-181,621,46,-21
7530,42,-226,-184,627,49,-22
7535,41,-231,-184,633,50,-22
7540,40,-227,-180,633,53,-22
7545,43,-233,-174,636,56,-21
7550,41,-234,-182,637,59,-21
7555,41,-233,-176,637,61,-17
7560,41,-234,-174,640,62,-15
7565,43,-238,-168,647,63,-14
7570,41,-236,-167,656,66,-12
7575,45,-241,-166,666,66,-10
7580,42,-243,-162,673,68,-8
7585,41,-243,-163,682,68,-7
7590,39,-240,-160,689,67,-7
7595,38,-243,-165,697,68,-6
7600,40,-243,-164,704,67,-4
7605,37,-245,-162,716,62,-2
7610,40,-246,-157,731,56,3
7615,39,-247,-158,749,48,7
7620,41,-246,-157,769,43,9
7625,37,-243,-160,786,37,12
7630,39,-245,-157,804,30,13
7635,40,-244,-156,822,26,15
7640,42,-249,-147,838,25,14
7645,39,-246,-157,854,24,15
7650,36,-245,-154,866,25,13
7655,39,-244,-150,875,29,10
7660,39,-249,-152,888,34,5
7665,38,-245,-153,899,44,1
7670,38,-244,-152,903,55,-2
7675,37,-246,-155,905,67,-5
7680,36,-249,-153,906,78,-11
7685,41,-249,-151,908,87,-14
7690,39,-248,-148,909,95,-17
7695,38,-252,-144,914,103,-17
7700,41,-246,-142,913,107,-18
7705,39,-249,-141,915,110,-18
7710,42,-249,-138,917,112,-17
7715,43,-248,-135,914,113,-14
7720,39,-249,-134,912,111,-8
7725,42,-249,-136,911,107,-4
7730,39,-248,-134,909,102,-2
7735,42,-251,-131,908,100,4
7740,38,-252,-127,904,97,9
7745,43,-251,-129,904,96,12
7750,41,-250,-129,905,92,18
7755,42,-252,-130,906,89,24
7760,42,-249,-128,903,86,27
7765,39,-249,-125,900,82,30
7770,40,-251,-124,897,77,35
7775,42,-250,-125,892,74,40
7780,38,-252,-125,885,72,43
7785,39,-252,-121,877,71,49
7790,37,-254,-118,869,69,50
7795,37,-251,-116,864,65,52
7800,32,-251,-121,856,63,53
7805,42,-254,-121,852,62,55
7810,37,-253,-109,848,65,55
7815,37,-251,-112,847,67,52
7820,37,-253,-113,846,73,49
7825,38,-255,-112,845,78,46
7830,38,-252,-107,850,78,45
7835,36,-251,-109,856,78,40
7840,38,-251,-102,859,79,34
7845,37,-253,-98,862,82,32
7850,35,-250,-95,870,84,33
7855,40,-254,-95,875,87,35
7860,35,-253,-98,878,88,35
7865,37,-254,-100,883,88,36
7870,39,-252,-103,883,87,36
7875,38,-249,-99,879,90,37
7880,36,-250,-97,873,91,38
7885,36,-250,-101,864,91,37
7890,41,-249,-100,850,89,38
7895,34,-246,-101,839,90,37
7900,38,-248,-94,823,90,38
7905,36,-245,-101,809,92,37
7910,32,-245,-96,793,94,38
7915,37,-244,-95,774,91,39
7920,38,-245,-93,757,86,40
7925,36,-244,-93,743,78,40
7930,38,-246,-88,729,68,38
7935,32,-243,-86,713,57,38
7940,35,-246,-86,700,45,37
7945,33,-247,-84,688,32,37
7950,35,-243,-85,678,21,34
7955,34,-248,-84,671,11,32
7960,35,-247,-82,662,6,32
7965,35,-244,-76,651,1,30
7970,36,-251,-80,642,2,31
7975,31,-249,-80,639,8,31
7980,31,-249,-82,636,14,30
7985,28,-248,-80,631,19,29
7990,32,-250,-78,628,25,32
7995,33,-248,-76,621,31,34
8000,35,-246,-80,614,34,34
8005,37,-250,-82,604,38,34
8010,35,-243,-78,593,43,37
8015,39,-242,-78,580,46,35
8020,39,-239,-64,566,48,37
8025,43,-243,-56,552,48,38
8030,43,-240,-73,540,47,42
8035,39,-230,-74,526,46,43
8040,37,-226,-76,512,46,43
8045,38,-243,-68,495,42,45
8050,42,-231,-65,478,40,46
8055,47,-237,-57,459,36,47
8060,37,-243,-67,438,30,47
8065,36,-243,-64,419,23,45
8070,37,-243,-65,403,16,47
8075,37,-242,-61,389,12,46
8080,36,-242,-65,380,9,45
8085,30,-253,-68,366,7,45
8090,40,-249,-60,355,5,45
8095,29,-242,-64,344,3,44
8100,33,-248,-57,333,-3,40
8105,25,-253,-69,319,-7,39
8110,26,-257,-59,304,-12,38
8115,32,-251,-58,292,-17,35
8120,43,-258,-50,276,-22,33
8125,31,-257,-56,261,-27,32
8130,27,-246,-58,244,-34,31
8135,37,-252,-64,228,-40,32
8140,34,-248,-63,212,-44,35
8145,30,-250,-64,193,-48,37
8150,32,-255,-68,171,-54,40
8155,40,-254,-62,148,-56,43
8160,39,-257,-59,128,-56,44
8165,42,-259,-63,112,-54,45
8170,39,-251,-58,100,-53,45
8175,40,-251,-63,89,-53,42
8180,41,-252,-60,83,-51,42
8185,43,-250,-61,76,-48,44
8190,45,-251,-67,67,-44,48
8195,42,-251,-60,58,-42,51
8200,38,-250,-63,48,-43,54
8205,39,-249,-64,42,-43,54
8210,40,-245,-62,32,-45,51
8215,41,-246,-60,26,-46,48
8220,40,-252,-61,22,-51,46
8225,38,-251,-61,16,-52,44
8230,35,-253,-62,12,-53,44
8235,37,-253,-59,10,-53,45
8240,33,-255,-60,10,-50,48
8245,32,-256,-61,8,-51,47
8250,38,-255,-58,7,-53,47
8255,32,-256,-61,9,-56,49
8260,29,-256,-65,11,-59,51
8265,30,-260,-59,14,-62,54
8270,27,-257,-58,22,-67,56
8275,31,-262,-60,30,-74,59
8280,32,-264,-60,37,-81,62
8285,29,-260,-56,43,-87,65
8290,32,-265,-59,48,-94,67
8295,29,-261,-55,47,-100,67
8300,32,-262,-54,48,-101,71
8305,33,-261,-56,46,-100,74
8310,33,-261,-49,44,-99,78
8315,33,-263,-54,40,-95,82
8320,34,-260,-51,34,-93,86
8325,35,-260,-49,25,-88,87
8330,33,-259,-52,18,-83,89
8335,36,-262,-52,12,-80,92
8340,35,-262,-52,10,-78,94
8345,34,-261,-55,15,-80,92
8350,30,-259,-55,22,-84,90
8355,34,-262,-56,28,-89,91
8360,32,-261,-53,33,-98,93
8365,33,-262,-54,36,-107,94
8370,30,-258,-58,38,-113,95
8375,34,-260,-52,38,-119,98
8380,33,-261,-54,35,-125,97
8385,34,-257,-49,32,-128,96
8390,33,-258,-52,31,-130,96
8395,33,-259,-59,31,-128,96
8400,33,-257,-57,32,-123,97
8405,33,-256,-52,34,-120,97
8410,33,-258,-52,39,-116,95
8415,33,-260,-47,44,-113,93
8420,32,-257,-53,49,-110,91
8425,32,-257,-50,53,-108,86
8430,30,-259,-51,57,-108,81
8435,29,-260,-50,63,-107,76
8440,29,-262,-51,68,-106,72
8445,31,-263,-47,72,-106,67
8450,31,-261,-55,78,-106,62
8455,27,-257,-57,82,-107,61
8460,29,-263,-47,86,-108,60
8465,33,-263,-54,95,-109,60
8470,35,-262,-45,99,-109,64
8475,34,-261,-51,101,-109,66
8480,35,-260,-49,99,-109,70
8485,34,-261,-49,98,-110,74
8490,35,-258,-53,96,-111,78
8495,37,-260,-49,94,-110,83
8500,36,-262,-52,92,-107,88
8505,36,-263,-52,89,-103,92
8510,36,-263,-39,89,-100,94
8515,33,-258,-51,85,-96,95
8520,35,-258,-49,84,-91,100
8525,35,-259,-49,82,-88,100
8530,32,-257,-53,83,-84,98
8535,35,-255,-53,82,-78,93
8540,36,-256,-53,82,-69,89
8545,34,-254,-52,78,-59,85
8550,37,-255,-49,75,-50,81
8555,37,-258,-48,73,-40,78
8560,39,-254,-51,74,-31,75
8565,35,-251,-48,77,-20,74
8570,39,-260,-48,75,-9,72
8575,38,-255,-51,75,1,71
8580,39,-256,-47,72,9,69
8585,40,-257,-48,68,15,66
8590,40,-257,-45,67,20,64
8595,38,-258,-44,61,21,61
8600,34,-257,-42,58,22,60
8605,33,-260,-43,53,21,56
8610,39,-260,-35,48,23,51
8615,33,-261,-42,44,24,49
8620,28,-262,-46,44,26,46
8625,32,-266,-39,47,29,44
8630,30,-267,-36,52,34,42
8635,28,-264,-37,59,37,39
8640,25,-264,-40,65,41,37
8645,24,-264,-40,69,44,35
8650,26,-269,-40,71,43,31
8655,22,-266,-40,75,39,31
8660,24,-269,-41,80,31,28
8665,13,-260,-46,87,20,27
8670,13,-262,-40,94,11,25
8675,19,-265,-42,103,0,25
8680,19,-263,-42,115,-12,23
8685,20,-262,-44,131,-25,23
8690,17,-261,-42,144,-39,25
8695,18,-263,-41,156,-50,27
8700,19,-261,-46,168,-62,29
8705,20,-260,-40,175,-73,31
8710,20,-261,-42,184,-80,34
8715,20,-257,-45,186,-87,36
8720,22,-259,-44,188,-95,39
8725,20,-254,-51,185,-102,40
8730,21,-257,-44,183,-108,43
8735,22,-256,-48,177,-114,44
8740,24,-255,-44,167,-120,45
8745,21,-255,-41,159,-126,48
8750,22,-254,-39,147,-130,48
8755,24,-255,-44,137,-133,50
8760,23,-260,-38,128,-132,50
8765,23,-257,-33,119,-131,50
8770,28,-260,-36,111,-129,50
8775,28,-257,-32,105,-127,48
8780,13,-259,-42,99,-124,46
8785,34,-261,-30,93,-119,44
8790,29,-257,-36,90,-115,44
8795,28,-258,-30,84,-108,42
8800,28,-259,-31,76,-102,41
8805,29,-261,-33,67,-98,39
8810,26,-260,-33,57,-95,35
8815,30,-260,-36,49,-91,32
8820,31,-263,-32,41,-89,29
8825,27,-260,-41,34,-87,25
8830,26,-257,-36,30,-87,23
8835,23,-257,-42,27,-88,22
8840,29,-261,-37,23,-88,20
8845,28,-259,-34,25,-88,18
8850,27,-259,-36,28,-87,17
8855,27,-258,-33,32,-83,17
8860,25,-258,-37,38,-79,17
8865,24,-256,-37,42,-72,17
8870,24,-255,-37,43,-67,18
8875,26,-257,-36,40,-63,20
8880,27,-260,-39,35,-56,23
8885,31,-260,-32,27,-52,26
8890,23,-260,-40,22,-50,31
8895,28,-262,-34,18,-48,35
8900,27,-263,-32,16,-46,40
8905,27,-263,-36,16,-47,45
8910,25,-266,-32,18,-46,48
8915,26,-264,-31,19,-42,50
8920,27,-266,-31,20,-38,49
8925,26,-262,-32,22,-36,48
8930,24,-264,-31,23,-32,47
8935,22,-265,-36,20,-29,45
8940,27,-263,-30,15,-24,40
8945,21,-263,-32,10,-21,36
8950,22,-262,-34,5,-18,32
8955,22,-263,-30,-3,-14,28
8960,23,-263,-33,-8,-12,24
8965,21,-263,-28,-9,-10,21
8970,22,-265,-27,-11,-9,19
8975,22,-265,-26,-7,-8,16
8980,22,-262,-27,-2,-8,13
8985,23,-264,-28,6,-5,9
8990,20,-264,-31,14,-2,7
8995,19,-263,-30,21,2,4
9000,24,-262,-28,30,9,0
9005,24,-260,-29,33,16,-3
9010,24,-262,-33,32,24,-4
9015,21,-260,-26,31,32,-7
9020,19,-260,-29,25,39,-9
9025,20,-260,-31,18,46,-11
9030,19,-260,-30,8,51,-12
9035,20,-263,-27,1,55,-14
9040,19,-258,-33,-8,57,-15
9045,21,-262,-28,-12,59,-17
9050,23,-263,-28,-14,60,-19
9055,21,-262,-25,-12,59,-18
9060,17,-258,-28,-10,60,-17
9065,20,-260,-27,-7,59,-15
9070,19,-260,-27,0,57,-14
9075,17,-260,-29,3,57,-13
9080,20,-261,-28,10,59,-14
9085,16,-259,-23,15,62,-15
9090,21,-264,-30,19,66,-16
9095,20,-262,-31,22,69,-17
9100,18,-258,-27,21,73,-16
9105,22,-263,-28,20,76,-18
9110,23,-259,-28,15,79,-20
9115,23,-259,-29,9,77,-20
9120,21,-260,-28,2,76,-20
9125,20,-260,-26,-6,74,-20
9130,21,-259,-27,-12,73,-19
9135,20,-259,-30,-16,71,-19
9140,22,-258,-29,-22,69,-17
9145,21,-260,-28,-24,66,-19
9150,19,-259,-27,-28,63,-18
9155,17,-258,-24,-30,61,-20
9160,23,-262,-28,-28,61,-20
9165,21,-262,-26,-26,61,-21
9170,22,-264,-30,-25,63,-21
9175,22,-260,-28,-26,63,-24
9180,22,-261,-27,-25,66,-25
9185,21,-260,-27,-23,69,-28
9190,19,-259,-29,-24,72,-32
9195,19,-264,-27,-22,76,-36
9200,22,-260,-25,-21,79,-41
9205,20,-263,-25,-18,81,-45
9210,14,-263,-27,-14,81,-49
9215,16,-263,-26,-11,81,-53
9220,20,-262,-29,-9,81,-56
9225,18,-261,-25,-7,77,-59
9230,20,-260,-23,-5,76,-59
9235,19,-258,-20,-3,73,-59
9240,19,-257,-22,-5,68,-58
9245,18,-257,-26,-6,63,-57
9250,17,-257,-22,-10,57,-54
9255,19,-259,-23,-13,49,-52
9260,20,-256,-26,-16,44,-48
9265,20,-257,-22,-22,39,-44
9270,21,-257,-23,-24,33,-42
9275,18,-258,-27,-25,28,-39
9280,20,-261,-26,-27,26,-35
9285,19,-260,-26,-28,22,-33
9290,21,-261,-24,-29,21,-32
9295,20,-262,-22,-27,20,-31
9300,18,-259,-23,-29,17,-29
9305,18,-263,-23,-28,15,-30
9310,22,-263,-21,-27,12,-29
9315,24,-266,-21,-25,10,-30
9320,20,-266,-16,-23,7,-28
9325,22,-262,-25,-21,6,-30
9330,23,-261,-21,-18,4,-29
9335,22,-262,-22,-16,4,-30
9340,25,-260,-23,-15,4,-30
9345,21,-257,-19,-14,3,-32
9350,23,-261,-23,-17,2,-33
9355,23,-259,-24,-17,0,-34
9360,21,-259,-22,-22,-2,-35
9365,24,-260,-21,-24,-2,-36
9370,22,-259,-21,-30,-4,-36
9375,20,-265,-25,-35,-6,-37
9380,24,-262,-27,-37,-9,-38
9385,22,-258,-25,-38,-10,-38
9390,23,-262,-21,-40,-12,-40
9395,20,-258,-23,-41,-13,-40
9400,23,-261,-26,-38,-12,-39
9405,22,-261,-24,-35,-11,-39
9410,26,-260,-26,-35,-9,-40
9415,22,-260,-22,-33,-7,-41
9420,23,-257,-25,-35,-5,-41
9425,25,-263,-26,-35,-4,-42
9430,29,-258,-22,-36,-1,-41
9435,26,-261,-23,-37,0,-40
9440,24,-262,-22,-39,0,-39
9445,27,-262,-20,-43,2,-38
9450,25,-264,-18,-44,4,-36
9455,26,-262,-21,-44,4,-32
9460,28,-265,-20,-41,5,-30
9465,24,-264,-20,-37,4,-29
9470,27,-261,-18,-30,5,-26
9475,25,-263,-20,-23,5,-24
9480,25,-263,-19,-18,6,-23
9485,25,-266,-19,-12,7,-20
9490,28,-265,-24,-8,8,-20
9495,29,-266,-22,-2,9,-18
9500,25,-267,-21,3,10,-18
9505,27,-268,-22,9,10,-21
9510,26,-264,-21,14,11,-23
9515,27,-265,-20,19,12,-25
9520,25,-263,-20,24,14,-27
9525,28,-263,-22,29,15,-28
9530,35,-265,-24,34,17,-30
9535,24,-265,-23,39,22,-32
9540,24,-264,-24,40,25,-34
9545,26,-262,-22,41,30,-34
9550,28,-263,-23,39,35,-34
9555,27,-264,-20,39,37,-36
9560,26,-264,-21,40,40,-37
9565,27,-264,-21,42,40,-36
9570,29,-269,-22,47,41,-35
9575,24,-260,-15,53,42,-36
9580,27,-264,-15,62,43,-37
9585,26,-260,-14,68,42,-35
9590,25,-260,-16,74,40,-35
9595,30,-256,-12,79,39,-32
9600,27,-256,-12,81,37,-31
9605,29,-258,-14,77,33,-30
9610,30,-257,-16,72,31,-28
9615,28,-254,-10,64,29,-26
9620,28,-253,-13,55,28,-24
9625,24,-255,-18,45,27,-22
9630,32,-257,-19,34,28,-21
9635,28,-256,-14,24,28,-19
9640,29,-256,-14,15,28,-17
9645,30,-257,-11,12,31,-16
9650,24,-254,-17,7,31,-14
9655,28,-256,-13,4,33,-11
9660,26,-256,-14,3,34,-9
9665,30,-258,-15,0,35,-9
9670,26,-257,-14,-5,38,-7
9675,26,-257,-14,-8,39,-8
9680,29,-257,-14,-10,40,-8
9685,26,-259,-13,-12,42,-10
9690,30,-262,-12,-15,44,-11
9695,27,-259,-16,-19,46,-13
9700,29,-259,-11,-19,52,-17
9705,28,-257,-12,-18,55,-17
9710,28,-258,-14,-18,58,-22
9715,30,-258,-9,-16,63,-24
9720,29,-261,-9,-15,66,-27
9725,31,-262,-10,-12,69,-29
9730,28,-264,-12,-11,71,-28
9735,29,-259,-12,-9,73,-30
9740,25,-257,-11,-6,74,-31
9745,29,-262,-17,-5,74,-32
9750,23,-257,-13,-5,72,-29
9755,25,-260,-20,-7,66,-28
9760,24,-259,-11,-9,62,-27
9765,23,-259,-14,-9,60,-22
9770,26,-261,-13,-10,56,-22
9775,25,-259,-12,-10,52,-21
9780,24,-258,-13,-9,50,-17
9785,27,-258,-13,-7,49,-16
9790,25,-256,-12,-4,47,-16
9795,29,-257,-12,0,45,-13
9800,21,-256,-9,1,45,-13
9805,23,-256,-12,1,44,-13
9810,27,-259,-11,0,44,-13
9815,28,-256,-9,-3,44,-11
9820,28,-257,-10,-10,43,-11
9825,27,-257,-11,-18,44,-12
9830,28,-256,-10,-25,43,-12
9835,27,-258,-9,-29,42,-13
9840,29,-258,-9,-35,40,-13
9845,27,-261,-14,-38,39,-15
9850,27,-260,-12,-40,38,-17
9855,24,-259,-13,-42,39,-16
9860,30,-256,-9,-46,42,-18
9865,31,-262,-12,-50,45,-19
9870,28,-258,-11,-53,45,-19
9875,26,-261,-16,-57,46,-20
9880,31,-261,-12,-60,47,-20
9885,29,-261,-12,-62,47,-22
9890,28,-260,-14,-63,47,-23
9895,26,-258,-8,-62,47,-24
9900,30,-265,-12,-59,47,-24
9905,25,-262,-14,-53,48,-25
9910,26,-259,-11,-51,47,-26
9915,18,-259,-9,-50,46,-27
9920,27,-262,-10,-48,44,-29
9925,29,-260,-15,-44,41,-29
9930,25,-257,-11,-41,39,-28
9935,27,-263,-12,-36,36,-28
9940,27,-260,-12,-35,35,-25
9945,29,-264,-12,-29,32,-24
9950,27,-262,-12,-23,30,-23
9955,25,-258,-11,-20,26,-21
9960,27,-259,-13,-16,25,-20
9965,28,-258,-9,-16,24,-17
9970,31,-255,-12,-16,23,-17
9975,28,-259,-13,-15,22,-16
9980,29,-258,-14,-19,21,-17
9985,28,-256,-10,-22,20,-15
9990,26,-259,-12,-24,18,-16
9995,30,-261,-13,-27,17,-15
10000,29,-258,-17,-28,18,-15
10005,30,-260,-13,-27,19,-15
10010,29,-261,-13,-25,20,-17
10015,32,-258,-15,-25,22,-17
10020,32,-258,-13,-25,23,-18
10025,34,-261,-5,-21,22,-19
10030,30,-257,-12,-21,23,-20
10035,32,-259,-13,-19,23,-21
10040,31,-256,-9,-20,23,-22
10045,30,-257,-10,-22,25,-22
10050,31,-258,-12,-27,25,-20
10055,34,-258,-7,-33,26,-21
10060,31,-258,-6,-34,28,-21
10065,34,-259,-9,-37,28,-20
10070,30,-257,-5,-44,27,-21
10075,30,-259,-7,-46,27,-22
10080,24,-254,-6,-51,28,-21
10085,27,-256,-6,-54,28,-21
10090,30,-257,-11,-58,29,-21
10095,28,-257,-9,-60,32,-21
10100,30,-256,-12,-62,32,-22
10105,31,-256,-8,-64,32,-22
10110,32,-259,-13,-64,34,-20
10115,29,-257,-12,-68,34,-21
10120,29,-260,-10,-68,35,-19
10125,30,-259,-6,-70,35,-18
10130,31,-255,-12,-71,35,-19
10135,31,-262,-12,-73,36,-18
10140,31,-260,-13,-76,38,-17
10145,32,-261,-11,-78,40,-16
10150,33,-262,-8,-78,42,-15
10155,36,-261,-12,-77,45,-16
10160,31,-260,-8,-76,48,-15
10165,36,-261,-11,-73,51,-15
10170,35,-262,-10,-73,55,-17
10175,35,-259,-8,-70,60,-18
10180,37,-263,-16,-68,64,-17
10185,31,-261,-10,-65,67,-19
10190,33,-263,-14,-63,68,-20
10195,30,-261,-13,-61,70,-22
10200,32,-260,-15,-55,71,-24
10205,31,-259,-12,-52,73,-26
10210,32,-260,-8,-50,74,-28
10215,33,-261,-11,-49,78,-28
10220,29,-258,-12,-50,79,-29
10225,32,-258,-11,-51,84,-29
10230,30,-258,-15,-53,87,-29
10235,32,-259,-14,-56,91,-30
10240,26,-259,-11,-56,94,-30
10245,29,-260,-10,-55,98,-31
10250,29,-262,-14,-54,100,-31
10255,27,-263,-10,-53,102,-31
10260,28,-262,-14,-51,104,-30
10265,31,-262,-12,-48,107,-30
10270,31,-263,-9,-45,107,-30
10275,29,-264,-10,-41,108,-29
10280,28,-265,-14,-36,109,-29
10285,29,-266,-16,-32,110,-28
10290,30,-266,-12,-25,110,-31
10295,24,-265,-13,-22,110,-29
10300,27,-265,-15,-17,109,-29
10305,28,-266,-12,-10,109,-29
10310,26,-265,-13,-4,107,-29
10315,27,-264,-10,5,110,-29
10320,28,-265,-14,14,109,-27
10325,28,-266,-12,22,110,-28
10330,31,-272,-10,33,110,-28
10335,27,-270,-10,47,108,-27
10340,26,-269,-11,61,105,-28
10345,25,-265,-11,76,102,-28
10350,35,-266,-7,91,96,-28
10355,27,-264,-7,103,93,-27
10360,28,-266,-11,113,89,-27
10365,30,-264,-11,119,86,-27
10370,27,-264,-9,123,82,-26
10375,27,-261,-12,125,80,-25
10380,27,-261,-8,128,77,-23
10385,31,-260,-11,128,76,-22
10390,24,-260,-13,128,73,-20
10395,27,-255,-17,130,70,-19
10400,28,-258,-15,131,68,-18
10405,27,-260,-10,136,67,-16
10410,27,-258,-11,143,67,-13
10415,27,-258,-11,145,65,-11
10420,26,-260,-15,149,63,-11
10425,28,-261,-11,153,60,-9
10430,25,-263,-11,159,58,-9
10435,28,-262,-9,163,54,-8
10440,28,-263,-5,169,48,-7
10445,25,-264,-6,175,44,-6
10450,26,-266,-6,179,40,-5
10455,26,-263,-13,186,37,-5
10460,26,-263,-9,194,34,-5
10465,26,-264,-6,205,32,-4
10470,25,-262,-10,213,29,-5
10475,27,-264,-8,220,28,-7
10480,26,-262,-5,227,29,-7
10485,25,-265,-7,231,32,-7
10490,27,-266,-9,238,33,-8
10495,27,-261,-2,246,34,-9
10500,29,-265,-5,257,34,-7
10505,26,-262,0,265,32,-7
10510,29,-260,-4,273,29,-6
10515,30,-260,-2,279,27,-6
10520,27,-260,-2,283,23,-4
10525,30,-260,0,290,20,0
10530,27,-260,-1,292,17,1
10535,29,-260,1,295,14,4
10540,27,-261,0,298,11,8
10545,27,-259,4,302,8,10
10550,30,-259,1,306,5,11
10555,27,-259,-1,313,6,14
10560,28,-256,2,316,7,15
10565,29,-257,9,321,7,16
10570,27,-257,1,323,8,18
10575,28,-259,4,322,12,20
10580,32,-260,6,325,14,20
10585,30,-259,6,328,17,20
10590,33,-258,3,329,22,19
10595,31,-260,1,333,27,18
10600,32,-260,3,335,34,16
10605,32,-260,8,334,39,15
10610,31,-258,8,333,45,13
10615,31,-257,2,332,49,12
10620,26,-251,7,331,51,10
10625,28,-255,6,327,51,9
10630,30,-253,9,322,53,7
10635,28,-254,6,319,54,5
10640,27,-250,8,310,55,3
10645,26,-247,10,301,56,1
10650,28,-248,14,286,53,0
10655,20,-244,11,268,50,1
10660,23,-241,12,249,48,0
10665,22,-243,24,230,44,-1
10670,17,-248,10,209,39,-1
10675,23,-247,17,190,38,-2
10680,20,-244,18,173,33,0
10685,23,-246,18,155,27,1
10690,19,-248,17,141,24,1
10695,20,-246,25,130,21,3
10700,22,-249,19,120,16,4
10705,19,-247,20,112,13,7
10710,23,-252,19,107,9,9
10715,22,-249,20,104,5,11
10720,24,-252,18,103,3,11
10725,17,-254,15,102,3,13
10730,27,-253,18,101,5,14
10735,26,-254,21,99,5,14
10740,31,-256,12,96,7,14
10745,25,-251,21,88,14,10
10750,30,-251,21,83,17,10
10755,30,-249,19,75,16,10
10760,30,-248,16,66,15,7
10765,29,-252,19,58,14,8
10770,31,-252,19,50,13,5
10775,25,-245,20,45,12,2
10780,28,-249,16,36,12,1
10785,30,-249,20,31,12,0
10790,28,-249,15,21,13,-2
10795,27,-249,25,14,13,-4
10800,26,-249,24,7,13,-5
10805,28,-248,21,-2,14,-5
10810,26,-247,23,-11,16,-6
10815,27,-249,23,-20,16,-8
10820,27,-247,22,-31,16,-8
10825,30,-250,24,-45,21,-8
10830,31,-252,24,-55,23,-7
10835,28,-253,25,-63,24,-7
10840,28,-250,18,-69,25,-7
10845,29,-250,22,-75,26,-8
10850,30,-253,25,-78,24,-9
10855,29,-254,23,-82,24,-8
10860,29,-249,23,-84,24,-8
10865,30,-250,21,-87,26,-10
10870,30,-252,23,-89,28,-12
10875,29,-248,20,-90,31,-13
10880,28,-250,24,-91,33,-14
10885,30,-251,21,-93,36,-14
10890,33,-251,21,-99,35,-16
10895,31,-253,22,-106,37,-15
10900,26,-251,26,-112,37,-17
10905,28,-251,27,-119,36,-16
10910,27,-251,22,-124,35,-18
10915,28,-252,22,-127,34,-17
10920,27,-253,21,-128,33,-15
10925,31,-256,20,-128,34,-14
10930,28,-255,21,-126,36,-12
10935,28,-256,20,-125,36,-11
10940,29,-255,29,-121,37,-10
10945,28,-254,17,-117,38,-9
10950,29,-258,23,-112,39,-9
10955,30,-256,19,-107,42,-9
10960,26,-256,20,-102,43,-11
10965,27,-257,19,-99,45,-9
10970,28,-257,19,-99,47,-9
10975,29,-256,17,-100,48,-10
10980,28,-257,22,-101,49,-8
10985,30,-254,18,-106,52,-8
10990,31,-258,19,-109,53,-8
10995,28,-257,17,-111,52,-7
11000,23,-262,10,-110,52,-6
11005,27,-258,10,-109,49,-4
11010,28,-256,16,-103,46,-6
11015,29,-259,17,-96,41,-4
11020,31,-258,13,-87,39,-4
11025,32,-259,15,-80,38,-3
11030,29,-258,12,-76,40,-2
11035,30,-256,18,-70,43,-2
11040,29,-256,17,-67,45,-4
11045,30,-255,15,-62,49,-4
11050,32,-256,20,-62,52,-6
11055,34,-255,23,-65,53,-6
11060,26,-254,22,-67,58,-8
11065,27,-257,17,-71,59,-10
11070,26,-256,17,-72,60,-10
11075,26,-254,17,-74,61,-12
11080,27,-254,20,-74,61,-12
11085,28,-256,13,-74,60,-14
11090,29,-252,18,-72,58,-12
11095,31,-255,14,-72,58,-14
11100,26,-255,16,-73,57,-12
11105,28,-253,17,-75,56,-12
11110,21,-249,17,-78,57,-9
11115,28,-254,14,-82,58,-9
11120,26,-256,13,-85,58,-9
11125,27,-256,12,-88,56,-8
11130,28,-256,15,-90,57,-7
11135,30,-255,17,-87,55,-5
11140,30,-258,16,-82,55,-4
11145,29,-257,13,-78,54,-4
11150,30,-256,14,-72,55,-5
11155,29,-255,14,-68,53,-4
11160,24,-254,10,-65,50,-5
11165,29,-256,13,-64,48,-4
11170,30,-256,14,-63,49,-3
11175,29,-254,17,-63,48,-4
11180,26,-257,13,-61,48,-5
11185,28,-256,15,-61,51,-6
11190,26,-254,10,-61,54,-5
11195,26,-256,13,-61,56,-6
11200,28,-256,12,-63,57,-5
11205,29,-256,12,-65,57,-6
11210,28,-255,15,-68,55,-6
11215,29,-258,13,-71,55,-7
11220,28,-255,15,-73,54,-9
11225,27,-256,12,-72,53,-9
11230,25,-257,14,-72,54,-11
11235,28,-254,16,-70,55,-11
11240,27,-256,14,-69,55,-12
11245,28,-256,10,-66,57,-12
11250,29,-256,14,-63,58,-14
11255,30,-256,13,-63,58,-14
11260,25,-256,16,-60,59,-16
11265,26,-255,10,-62,58,-16
11270,24,-257,19,-62,58,-16
11275,29,-255,17,-62,56,-18
11280,27,-253,12,-63,53,-19
11285,25,-254,15,-61,52,-18
11290,24,-256,11,-58,49,-20
11295,26,-255,11,-57,46,-20
11300,26,-254,10,-56,43,-19
11305,26,-254,13,-58,42,-18
11310,28,-256,15,-61,41,-20
11315,26,-254,17,-63,41,-20
11320,25,-255,14,-66,40,-19
11325,28,-256,19,-66,39,-17
11330,25,-255,15,-67,38,-17
11335,26,-255,21,-67,38,-18
11340,27,-255,15,-68,39,-19
11345,28,-256,17,-68,40,-18
11350,28,-257,15,-69,40,-16
11355,26,-254,17,-71,40,-13
11360,31,-256,16,-73,40,-12
11365,27,-257,17,-76,38,-11
11370,28,-255,10,-76,37,-9
11375,28,-256,15,-75,36,-6
11380,27,-253,17,-76,33,-5
11385,31,-256,14,-74,31,-6
11390,31,-256,12,-74,29,-5
11395,32,-255,13,-74,29,-1
11400,31,-258,15,-74,30,-1
11405,30,-255,9,-71,31,-1
11410,32,-257,14,-70,31,-3
11415,25,-255,16,-71,34,-4
11420,27,-254,13,-67,36,-4
11425,31,-256,13,-65,39,-5
11430,31,-255,10,-61,41,-6
11435,27,-252,14,-59,45,-8
11440,30,-256,10,-57,47,-10
11445,32,-255,9,-55,52,-12
11450,28,-255,13,-56,54,-12
11455,29,-255,12,-56,57,-13
11460,31,-254,12,-58,60,-15
11465,27,-254,18,-62,63,-16
11470,31,-255,12,-64,64,-18
11475,29,-255,15,-69,65,-17
11480,24,-256,11,-75,67,-19
11485,30,-255,13,-80,69,-21
11490,27,-257,17,-84,72,-22
11495,26,-252,14,-85,76,-22
11500,27,-253,12,-86,75,-22
11505,28,-255,11,-88,78,-22
11510,25,-255,10,-89,77,-23
11515,25,-255,13,-90,76,-23
11520,25,-253,12,-91,75,-23
11525,26,-254,13,-93,73,-24
11530,28,-255,14,-96,71,-26
11535,24,-253,12,-100,71,-25
11540,26,-258,17,-105,70,-25
11545,27,-255,16,-110,69,-24
11550,28,-255,12,-114,69,-23
11555,23,-255,8,-116,69,-22
11560,27,-257,7,-116,68,-22
11565,25,-256,6,-114,68,-21
11570,23,-255,9,-112,69,-19
11575,26,-258,9,-110,68,-19
11580,23,-256,8,-108,67,-20
11585,25,-257,7,-104,67,-21
11590,25,-257,13,-102,66,-20
11595,26,-256,12,-101,64,-22
11600,22,-252,8,-100,62,-22
11605,23,-256,10,-98,59,-23
11610,24,-257,12,-101,56,-22
11615,22,-256,6,-101,54,-21
11620,27,-257,9,-102,50,-19
11625,27,-259,9,-100,45,-17
11630,27,-258,8,-97,42,-18
11635,27,-259,7,-97,40,-15
11640,31,-260,8,-96,37,-14
11645,27,-257,4,-93,35,-12
11650,28,-256,8,-91,35,-12
11655,25,-259,7,-90,35,-12
11660,26,-256,7,-89,36,-12
11665,23,-256,11,-85,39,-11
11670,25,-254,7,-84,41,-12
11675,27,-256,10,-84,41,-11
11680,26,-256,8,-82,38,-11
11685,24,-257,11,-78,36,-11
11690,27,-256,11,-80,35,-10
11695,23,-256,7,-78,33,-11
11700,24,-257,6,-77,31,-11
11705,29,-258,13,-76,28,-11
11710,27,-258,11,-74,27,-12
11715,25,-256,8,-72,26,-11
11720,25,-256,5,-70,26,-11
11725,25,-258,11,-70,25,-10
11730,27,-255,6,-71,26,-9
11735,26,-259,3,-74,26,-8
11740,24,-253,9,-75,27,-7
11745,26,-262,3,-77,28,-7
11750,25,-257,7,-77,28,-7
11755,28,-257,9,-76,28,-6
11760,31,-255,17,-73,27,-5
11765,29,-258,4,-68,28,-5
11770,31,-261,8,-65,27,-4
11775,26,-257,6,-62,28,-5
11780,28,-257,8,-59,27,-4
11785,30,-256,7,-58,25,-4
11790,27,-257,7,-57,25,-3
11795,26,-257,8,-57,25,-5
11800,28,-255,11,-57,25,-6
11805,27,-258,10,-59,24,-7
11810,26,-254,8,-60,22,-9
11815,26,-252,8,-61,21,-10
11820,23,-255,8,-62,19,-9
11825,27,-252,9,-61,21,-9
11830,27,-255,5,-62,22,-10
11835,26,-255,5,-63,21,-10
11840,27,-255,9,-66,24,-10
11845,28,-254,10,-66,26,-10
11850,26,-252,4,-69,26,-11
11855,30,-255,4,-67,27,-10
11860,29,-257,4,-69,28,-10
11865,28,-256,8,-70,28,-10
11870,25,-256,7,-73,30,-10
11875,28,-259,8,-76,30,-12
11880,25,-257,8,-77,31,-12
11885,30,-259,4,-77,30,-13
11890,28,-258,8,-75,32,-13
11895,29,-258,7,-73,32,-12
11900,28,-260,6,-71,29,-10
11905,28,-259,3,-69,29,-11
11910,31,-259,8,-66,27,-11
11915,27,-257,8,-63,25,-12
11920,30,-258,4,-61,23,-12
11925,26,-258,9,-58,24,-13
11930,27,-257,7,-56,23,-15
11935,30,-258,8,-52,25,-16
11940,30,-259,8,-50,27,-15
11945,29,-258,8,-47,28,-16
11950,26,-258,10,-45,29,-17
11955,29,-258,4,-42,30,-16
11960,26,-258,3,-40,30,-16
11965,28,-259,2,-36,28,-16
11970,27,-258,4,-33,27,-16
11975,27,-259,5,-30,28,-16
11980,28,-261,7,-26,26,-17
11985,28,-259,6,-25,25,-17
11990,25,-258,10,-24,23,-18
11995,26,-257,8,-24,22,-17
