timestamp,acc_x,acc_y,acc_z,gyro_x,gyro_y,gyro_z
0,16,-251,-112,-54,23,0
5,15,-253,-110,-55,22,0
10,17,-253,-112,-56,22,-1
15,11,-252,-112,-58,21,-3
20,16,-255,-112,-60,20,-2
25,18,-254,-112,-61,18,-1
30,10,-256,-108,-58,17,-2
35,16,-254,-112,-56,15,-1
40,14,-255,-113,-52,13,-3
45,16,-253,-107,-47,12,-3
50,15,-254,-111,-44,11,-2
55,17,-253,-108,-43,13,-2
60,16,-253,-111,-42,12,-2
65,17,-252,-110,-43,14,-1
70,18,-258,-112,-44,17,-1
75,15,-251,-113,-44,18,1
80,15,-256,-111,-45,19,0
85,13,-252,-110,-46,19,2
90,15,-256,-109,-48,19,2
95,17,-255,-108,-48,20,2
100,14,-256,-110,-48,19,3
105,16,-255,-108,-48,18,3
110,12,-255,-111,-48,18,3
115,15,-256,-110,-46,18,3
120,17,-253,-103,-43,19,2
125,13,-254,-114,-39,18,3
130,18,-256,-108,-39,18,3
135,17,-253,-109,-38,16,4
140,17,-254,-112,-36,16,3
145,14,-255,-110,-33,17,3
150,14,-253,-113,-31,17,4
155,17,-255,-109,-32,18,4
160,14,-254,-110,-32,20,4
165,13,-252,-110,-34,19,2
170,14,-256,-106,-34,20,3
175,14,-254,-107,-36,21,2
180,18,-254,-109,-35,21,2
185,10,-249,-107,-33,21,2
190,15,-255,-110,-32,21,2
195,17,-256,-108,-31,20,2
200,14,-253,-107,-28,20,0
205,15,-255,-108,-28,19,0
210,15,-254,-109,-29,18,1
215,14,-253,-107,-32,18,1
220,15,-255,-108,-31,18,0
225,14,-254,-111,-31,19,-1
230,14,-252,-110,-29,20,0
235,16,-252,-107,-30,20,2
240,14,-259,-118,-31,20,1
245,19,-254,-108,-35,20,2
250,13,-254,-107,-35,20,1
255,13,-252,-104,-37,20,1
260,15,-255,-111,-40,20,0
265,15,-255,-109,-40,21,1
270,13,-255,-108,-39,21,1
275,15,-253,-108,-38,22,0
280,15,-253,-111,-38,20,0
285,13,-252,-111,-38,21,-1
290,16,-253,-106,-36,21,0
295,18,-253,-107,-36,22,-1
300,14,-255,-110,-36,21,0
305,14,-253,-111,-35,21,0
310,11,-253,-110,-32,20,1
315,16,-256,-109,-31,18,0
320,12,-252,-111,-30,18,-1
325,10,-256,-110,-29,18,0
330,19,-255,-106,-28,19,0
335,12,-252,-106,-26,18,1
340,17,-255,-108,-24,19,3
345,15,-254,-104,-24,18,1
350,14,-254,-107,-25,18,1
355,12,-254,-112,-27,19,1
360,15,-256,-108,-27,15,0
365,14,-254,-111,-28,15,1
370,12,-252,-108,-25,14,-1
375,14,-252,-110,-25,12,-2
380,12,-253,-112,-26,13,-2
385,12,-249,-112,-27,10,-3
390,14,-253,-102,-30,11,-3
395,14,-254,-109,-31,9,-4
400,12,-252,-109,-31,7,-6
405,13,-257,-102,-30,7,-5
410,15,-255,-108,-30,6,-5
415,12,-250,-109,-30,6,-6
420,12,-253,-107,-32,6,-6
425,14,-254,-110,-33,7,-6
430,11,-253,-106,-34,9,-6
435,14,-253,-108,-35,10,-6
440,14,-254,-109,-33,12,-6
445,16,-256,-106,-32,12,-6
450,12,-252,-105,-33,13,-5
455,10,-253,-111,-36,12,-6
460,14,-254,-109,-33,12,-7
465,14,-252,-113,-32,13,-5
470,12,-255,-108,-29,12,-6
475,9,-254,-107,-26,14,-4
480,12,-255,-108,-26,15,-4
485,16,-255,-109,-24,17,-4
490,14,-256,-107,-26,16,-5
495,15,-254,-105,-26,15,-3
500,14,-256,-111,-28,14,-4
505,14,-252,-108,-30,15,-4
510,16,-255,-113,-29,14,-5
515,10,-251,-103,-26,13,-4
520,15,-255,-112,-26,12,-6
525,16,-255,-107,-25,11,-6
530,14,-253,-108,-27,11,-6
535,14,-251,-106,-27,11,-5
540,16,-253,-108,-27,11,-6
545,15,-254,-107,-28,12,-8
550,16,-255,-111,-27,10,-6
555,16,-251,-103,-28,9,-7
560,13,-251,-107,-29,11,-8
565,14,-253,-106,-28,10,-7
570,14,-256,-109,-30,12,-8
575,15,-256,-107,-32,12,-8
580,16,-255,-106,-31,11,-7
585,14,-255,-111,-34,13,-7
590,10,-255,-107,-38,14,-5
595,12,-255,-105,-38,13,-7
600,13,-254,-106,-36,14,-7
605,15,-256,-109,-34,13,-7
610,11,-253,-108,-32,13,-7
615,15,-257,-109,-31,14,-7
620,10,-259,-110,-30,14,-7
625,15,-254,-109,-29,15,-6
630,17,-255,-113,-30,16,-5
635,12,-253,-106,-29,17,-6
640,14,-255,-109,-27,19,-5
645,14,-255,-107,-27,18,-5
650,14,-255,-105,-26,18,-6
655,15,-253,-103,-24,17,-6
660,16,-252,-105,-22,17,-6
665,12,-253,-106,-24,16,-7
670,17,-255,-108,-24,15,-8
675,15,-253,-105,-28,14,-9
680,14,-255,-105,-29,14,-11
685,13,-254,-107,-28,14,-10
690,15,-254,-108,-24,13,-11
695,17,-255,-109,-22,12,-11
700,15,-253,-104,-20,12,-11
705,12,-254,-107,-17,10,-10
710,15,-254,-105,-18,12,-12
715,18,-256,-108,-20,12,-11
720,13,-257,-109,-21,10,-11
725,19,-255,-108,-23,11,-10
730,11,-254,-107,-24,12,-9
735,17,-254,-106,-25,11,-9
740,15,-254,-106,-28,12,-8
745,18,-254,-110,-34,13,-6
750,17,-252,-106,-35,14,-6
755,18,-253,-104,-36,14,-5
760,16,-255,-107,-39,16,-4
765,16,-254,-105,-41,15,-6
770,15,-257,-109,-41,14,-5
775,14,-255,-101,-42,15,-5
780,16,-258,-103,-44,15,-6
785,19,-257,-104,-44,16,-6
790,17,-255,-105,-42,19,-7
795,14,-255,-104,-42,20,-7
800,14,-255,-103,-38,19,-9
805,15,-256,-103,-37,20,-8
810,18,-255,-106,-34,18,-11
815,12,-254,-105,-33,16,-12
820,12,-255,-101,-31,15,-12
825,16,-257,-109,-29,15,-13
830,18,-255,-105,-28,14,-11
835,16,-254,-100,-25,17,-12
840,14,-257,-99,-26,17,-12
845,14,-252,-109,-24,17,-12
850,13,-254,-105,-27,16,-11
855,15,-254,-105,-26,17,-11
860,14,-254,-105,-27,18,-12
865,16,-254,-105,-29,18,-11
870,16,-254,-101,-32,19,-12
875,14,-253,-108,-35,17,-12
880,13,-252,-103,-36,17,-11
885,12,-255,-105,-37,17,-13
890,13,-254,-105,-37,17,-13
895,8,-253,-101,-37,18,-12
900,15,-251,-108,-38,17,-12
905,15,-254,-109,-39,18,-12
910,15,-255,-106,-41,18,-13
915,15,-253,-100,-41,17,-13
920,14,-252,-106,-44,17,-12
925,13,-254,-103,-45,18,-11
930,17,-253,-107,-47,19,-11
935,16,-255,-104,-46,19,-13
940,17,-258,-108,-45,21,-11
945,12,-256,-107,-44,22,-11
950,10,-254,-101,-44,24,-9
955,12,-255,-105,-43,24,-9
960,14,-256,-105,-43,25,-9
965,17,-255,-101,-44,22,-9
970,16,-257,-105,-43,20,-8
975,13,-258,-106,-42,19,-8
980,14,-254,-107,-40,18,-8
985,16,-256,-107,-40,17,-8
990,17,-254,-104,-37,14,-9
995,15,-250,-104,-37,14,-10
1000,15,-254,-106,-40,15,-9
1005,12,-254,-107,-38,17,-9
1010,14,-254,-104,-38,18,-9
1015,16,-256,-104,-39,19,-8
1020,16,-255,-101,-39,17,-9
1025,15,-252,-104,-39,18,-9
1030,14,-256,-103,-42,18,-8
1035,15,-253,-101,-41,16,-8
1040,15,-254,-105,-44,17,-7
1045,15,-256,-104,-42,16,-8
1050,14,-255,-105,-44,14,-7
1055,13,-255,-105,-43,13,-8
1060,14,-255,-101,-45,12,-9
1065,16,-255,-106,-46,9,-9
1070,17,-255,-107,-45,12,-10
1075,15,-257,-105,-42,10,-10
1080,17,-256,-105,-43,11,-10
1085,16,-257,-103,-43,12,-11
1090,17,-255,-104,-44,12,-9
1095,13,-255,-108,-46,15,-11
1100,13,-255,-105,-46,15,-9
1105,16,-256,-109,-47,16,-10
1110,10,-255,-109,-47,15,-9
1115,19,-255,-104,-47,15,-8
1120,13,-254,-106,-47,12,-8
1125,16,-255,-102,-47,13,-9
1130,16,-259,-104,-46,14,-9
1135,17,-256,-104,-44,13,-8
1140,17,-256,-107,-41,13,-9
1145,16,-255,-109,-40,13,-11
1150,18,-254,-106,-35,15,-11
1155,17,-251,-104,-36,14,-10
1160,15,-255,-105,-36,13,-11
1165,17,-255,-106,-35,15,-10
1170,15,-255,-107,-35,14,-11
1175,19,-255,-107,-35,15,-10
1180,15,-253,-103,-34,13,-11
1185,17,-254,-103,-36,14,-11
1190,17,-255,-105,-39,15,-10
1195,18,-254,-106,-42,15,-10
1200,19,-253,-108,-43,16,-11
1205,16,-255,-113,-43,16,-10
1210,19,-257,-106,-45,17,-9
1215,17,-255,-104,-46,19,-11
1220,17,-253,-98,-44,19,-10
1225,16,-255,-105,-45,19,-9
1230,17,-254,-106,-45,18,-9
1235,16,-255,-110,-41,17,-8
1240,17,-255,-105,-44,17,-9
1245,15,-255,-108,-45,17,-8
1250,15,-256,-105,-46,16,-8
1255,17,-256,-107,-45,15,-9
1260,16,-256,-107,-44,16,-7
1265,15,-256,-106,-43,15,-8
1270,15,-254,-105,-43,15,-8
1275,20,-263,-99,-43,15,-8
1280,16,-255,-106,-40,15,-8
1285,16,-253,-105,-42,16,-8
1290,16,-255,-105,-41,17,-7
1295,15,-253,-104,-43,17,-6
1300,17,-254,-105,-43,18,-5
1305,14,-254,-107,-43,19,-4
1310,15,-252,-102,-42,19,-5
1315,14,-256,-106,-40,18,-5
1320,18,-254,-105,-38,19,-4
1325,16,-254,-105,-38,19,-6
1330,12,-255,-113,-40,17,-7
1335,13,-253,-107,-42,16,-7
1340,15,-254,-105,-44,13,-8
1345,13,-255,-108,-43,12,-9
1350,17,-256,-107,-41,10,-10
1355,15,-254,-102,-43,10,-12
1360,13,-253,-104,-40,9,-11
1365,13,-251,-110,-38,9,-10
1370,15,-254,-106,-36,11,-12
1375,21,-252,-110,-36,11,-11
1380,15,-252,-106,-40,12,-11
1385,16,-256,-103,-41,14,-9
1390,16,-254,-105,-45,14,-8
1395,19,-254,-106,-46,14,-8
1400,17,-257,-109,-47,15,-7
1405,15,-254,-107,-49,16,-5
1410,17,-253,-107,-49,15,-5
1415,15,-253,-108,-50,16,-5
1420,21,-254,-107,-53,15,-6
1425,12,-256,-108,-53,16,-5
1430,17,-256,-109,-53,16,-5
1435,25,-257,-100,-54,15,-5
1440,16,-256,-108,-53,17,-5
1445,15,-254,-106,-55,17,-5
1450,15,-255,-105,-56,17,-5
1455,19,-257,-103,-57,16,-5
1460,16,-253,-108,-54,17,-4
1465,15,-256,-106,-53,16,-3
1470,16,-257,-110,-52,16,-3
1475,14,-255,-106,-51,16,-4
1480,20,-255,-103,-50,16,-3
1485,15,-256,-108,-49,17,-4
1490,15,-255,-107,-48,17,-4
1495,18,-253,-108,-51,17,-4
1500,17,-256,-108,-48,16,-3
1505,18,-254,-108,-49,17,-3
1510,19,-256,-102,-50,18,-3
1515,15,-250,-109,-50,19,-4
1520,15,-255,-106,-50,20,-3
1525,17,-252,-109,-52,21,-4
1530,16,-254,-108,-51,21,-3
1535,15,-255,-104,-52,22,-5
1540,15,-252,-108,-54,22,-4
1545,16,-253,-107,-55,22,-5
1550,17,-257,-109,-56,22,-6
1555,14,-254,-103,-55,21,-6
1560,14,-255,-103,-55,20,-6
1565,12,-253,-106,-56,20,-7
1570,15,-254,-105,-58,19,-6
1575,16,-254,-106,-58,18,-7
1580,15,-254,-104,-60,17,-7
1585,20,-258,-101,-61,16,-8
1590,17,-256,-108,-62,16,-8
1595,16,-254,-101,-60,16,-7
1600,17,-257,-107,-58,16,-8
1605,16,-253,-108,-58,18,-8
1610,18,-255,-104,-57,18,-7
1615,15,-255,-106,-55,19,-7
1620,15,-254,-102,-55,20,-7
1625,16,-256,-110,-53,20,-7
1630,16,-255,-109,-55,20,-6
1635,18,-255,-109,-55,20,-6
1640,16,-257,-105,-55,21,-6
1645,16,-255,-102,-55,22,-5
1650,19,-255,-107,-55,24,-4
1655,15,-254,-105,-53,24,-4
1660,17,-256,-105,-54,25,-3
1665,17,-257,-109,-52,25,-4
1670,17,-256,-104,-53,26,-4
1675,14,-256,-108,-54,25,-5
1680,18,-256,-107,-53,25,-5
1685,16,-257,-108,-53,25,-7
1690,14,-255,-106,-53,23,-7
1695,16,-253,-105,-54,22,-9
1700,16,-256,-104,-55,25,-6
1705,11,-254,-108,-56,24,-6
1710,14,-254,-103,-57,24,-7
1715,15,-254,-103,-57,23,-7
1720,15,-256,-104,-59,21,-7
1725,13,-255,-109,-60,21,-8
1730,19,-256,-104,-60,20,-8
1735,16,-253,-106,-60,19,-11
1740,14,-257,-104,-61,18,-10
1745,16,-253,-104,-64,18,-12
1750,17,-256,-109,-63,17,-13
1755,15,-254,-106,-64,17,-12
1760,11,-251,-109,-64,20,-10
1765,15,-253,-106,-64,20,-12
1770,13,-255,-108,-64,20,-12
1775,16,-256,-106,-64,22,-10
1780,18,-256,-107,-65,23,-12
1785,15,-256,-103,-64,23,-12
1790,14,-254,-106,-65,22,-9
1795,14,-255,-106,-65,23,-9
1800,13,-253,-105,-65,25,-9
1805,17,-256,-108,-63,26,-10
1810,15,-256,-113,-63,26,-8
1815,14,-256,-107,-64,26,-9
1820,19,-253,-109,-65,27,-10
1825,16,-256,-108,-63,26,-10
1830,15,-254,-104,-65,25,-10
1835,16,-252,-107,-65,25,-9
1840,16,-254,-104,-63,24,-9
1845,16,-255,-108,-63,23,-10
1850,18,-256,-104,-63,22,-9
1855,15,-254,-108,-63,21,-7
1860,18,-254,-106,-62,20,-8
1865,18,-255,-107,-64,19,-8
1870,18,-256,-105,-66,19,-6
1875,21,-255,-100,-66,18,-7
1880,14,-254,-105,-66,17,-6
1885,16,-254,-102,-67,14,-8
1890,16,-255,-106,-68,14,-8
1895,18,-256,-107,-69,12,-7
1900,16,-256,-109,-70,11,-7
1905,16,-252,-107,-68,11,-8
1910,14,-252,-107,-70,11,-8
1915,16,-256,-107,-70,12,-7
1920,17,-254,-108,-73,13,-8
1925,14,-256,-110,-74,14,-7
1930,15,-261,-106,-73,15,-7
1935,16,-256,-105,-72,16,-7
1940,15,-254,-106,-70,18,-7
1945,17,-255,-111,-70,17,-5
1950,18,-254,-110,-71,19,-5
1955,16,-254,-112,-71,19,-5
1960,17,-255,-108,-74,19,-5
1965,17,-255,-108,-76,20,-5
1970,16,-254,-110,-76,20,-4
1975,15,-256,-107,-73,22,-5
1980,13,-252,-107,-72,20,-4
1985,15,-255,-101,-69,18,-3
1990,15,-254,-109,-68,18,-2
1995,16,-255,-107,-68,17,-4
2000,15,-253,-110,-66,16,-3
2005,14,-255,-105,-67,14,-5
2010,16,-255,-104,-66,11,-5
2015,14,-254,-106,-66,9,-3
2020,14,-250,-107,-69,6,-5
2025,12,-252,-111,-71,4,-7
2030,18,-254,-104,-72,2,-8
2035,13,-250,-107,-72,1,-7
2040,17,-255,-106,-70,1,-10
2045,16,-253,-104,-70,1,-9
2050,16,-254,-105,-70,2,-9
2055,16,-254,-111,-71,6,-10
2060,16,-253,-111,-71,7,-8
2065,17,-255,-107,-71,9,-8
2070,17,-253,-110,-71,12,-5
2075,14,-255,-107,-74,14,-3
2080,15,-254,-104,-74,16,-3
2085,16,-256,-115,-74,18,-2
2090,17,-256,-115,-75,18,-1
2095,19,-256,-108,-72,18,-1
2100,18,-257,-109,-69,20,-1
2105,17,-258,-110,-68,20,0
2110,18,-257,-110,-66,21,0
2115,16,-256,-111,-65,21,0
2120,17,-256,-104,-67,21,-1
2125,18,-256,-106,-63,22,-1
2130,14,-255,-114,-59,23,-1
2135,18,-256,-109,-57,23,-1
2140,19,-255,-105,-55,23,-1
2145,19,-257,-111,-53,23,-2
2150,16,-254,-101,-53,21,-2
2155,17,-256,-109,-53,22,-1
2160,17,-257,-108,-53,23,-1
2165,17,-254,-108,-53,22,-2
2170,17,-254,-104,-51,23,-2
2175,16,-254,-109,-53,23,-3
2180,17,-253,-104,-55,23,-4
2185,12,-253,-116,-55,24,-3
2190,16,-255,-109,-57,24,-3
2195,19,-254,-106,-57,22,-4
2200,19,-251,-112,-60,22,-5
2205,20,-253,-105,-61,21,-4
2210,13,-253,-109,-62,19,-7
2215,18,-256,-111,-62,18,-6
2220,18,-253,-110,-63,17,-6
2225,19,-252,-107,-62,16,-8
2230,14,-252,-109,-61,15,-7
2235,14,-252,-107,-60,17,-6
2240,14,-252,-109,-57,17,-7
2245,16,-255,-109,-58,15,-7
2250,19,-253,-105,-56,16,-7
2255,13,-252,-110,-52,16,-6
2260,18,-255,-111,-50,17,-7
2265,17,-254,-108,-50,18,-5
2270,15,-253,-109,-48,20,-7
2275,17,-253,-112,-49,23,-7
2280,15,-252,-107,-52,23,-7
2285,17,-251,-108,-54,23,-6
2290,15,-253,-107,-55,24,-5
2295,14,-255,-106,-59,25,-5
2300,17,-251,-105,-61,28,-5
2305,14,-252,-110,-60,26,-6
2310,17,-257,-113,-60,28,-6
2315,16,-255,-112,-60,30,-7
2320,19,-255,-109,-59,30,-7
2325,18,-255,-112,-61,30,-5
2330,17,-254,-108,-61,30,-5
2335,16,-253,-112,-61,30,-5
2340,16,-253,-106,-62,29,-5
2345,17,-255,-106,-62,29,-7
2350,18,-256,-107,-61,28,-7
2355,12,-252,-109,-58,27,-6
2360,14,-253,-112,-56,28,-7
2365,19,-255,-106,-53,28,-8
2370,16,-254,-107,-52,28,-9
2375,16,-254,-111,-50,29,-12
2380,17,-252,-110,-47,28,-12
2385,15,-253,-107,-45,27,-12
2390,15,-253,-115,-44,26,-13
2395,14,-252,-110,-42,24,-13
2400,16,-253,-113,-41,23,-13
2405,17,-254,-111,-41,23,-13
2410,18,-251,-107,-42,21,-14
2415,15,-254,-108,-40,20,-14
2420,15,-250,-104,-39,18,-15
2425,14,-252,-109,-38,18,-16
2430,17,-251,-112,-39,18,-16
2435,15,-251,-108,-40,17,-17
2440,15,-251,-112,-43,15,-17
2445,18,-252,-111,-44,14,-16
2450,18,-251,-111,-45,14,-17
2455,14,-250,-116,-47,16,-16
2460,18,-248,-114,-46,16,-16
2465,15,-251,-111,-48,17,-14
2470,18,-249,-114,-49,17,-14
2475,16,-248,-105,-50,20,-13
2480,20,-251,-113,-52,21,-14
2485,17,-246,-113,-57,22,-16
2490,16,-245,-116,-61,24,-15
2495,19,-247,-113,-69,24,-12
2500,17,-244,-112,-77,25,-12
2505,20,-245,-111,-82,26,-13
2510,21,-246,-114,-87,25,-12
2515,20,-243,-112,-92,24,-14
2520,19,-241,-116,-98,25,-14
2525,19,-243,-115,-105,25,-15
2530,18,-245,-125,-110,27,-14
2535,21,-242,-121,-118,26,-14
2540,19,-244,-117,-124,24,-14
2545,18,-240,-117,-130,23,-13
2550,18,-238,-123,-135,21,-13
2555,16,-237,-119,-144,17,-13
2560,17,-238,-124,-151,13,-13
2565,19,-238,-122,-161,8,-14
2570,14,-233,-124,-168,6,-14
2575,17,-233,-122,-176,4,-14
2580,16,-233,-122,-186,1,-14
2585,12,-233,-117,-197,-2,-13
2590,20,-235,-124,-209,-3,-11
2595,14,-233,-125,-220,-4,-9
2600,14,-234,-124,-231,-5,-7
2605,13,-233,-126,-243,-8,-5
2610,14,-234,-124,-254,-12,-2
2615,14,-236,-127,-266,-16,1
2620,13,-231,-126,-281,-18,3
2625,14,-229,-127,-293,-19,5
2630,15,-231,-127,-302,-21,9
2635,17,-232,-129,-311,-23,11
2640,16,-232,-123,-319,-25,14
2645,14,-230,-125,-330,-29,16
2650,13,-231,-128,-344,-32,20
2655,14,-228,-129,-357,-34,22
2660,17,-229,-130,-371,-37,24
2665,14,-229,-131,-383,-39,26
2670,14,-228,-128,-398,-41,27
2675,16,-225,-129,-411,-41,27
2680,18,-228,-132,-426,-43,27
2685,14,-228,-128,-441,-47,27
2690,12,-226,-136,-454,-51,26
2695,12,-228,-135,-467,-54,25
2700,14,-229,-133,-480,-57,24
2705,13,-228,-136,-491,-59,24
2710,13,-226,-133,-500,-61,23
2715,16,-228,-134,-509,-61,22
2720,16,-228,-134,-518,-59,22
2725,15,-228,-134,-529,-58,22
2730,15,-229,-133,-540,-54,21
2735,18,-224,-140,-551,-52,20
2740,20,-226,-140,-561,-49,18
2745,16,-228,-135,-573,-47,18
2750,19,-227,-140,-583,-45,18
2755,18,-226,-140,-594,-42,20
2760,18,-226,-140,-606,-40,19
2765,17,-226,-143,-621,-37,19
2770,14,-223,-144,-635,-33,20
2775,16,-226,-144,-648,-34,20
2780,16,-230,-148,-660,-33,20
2785,15,-227,-143,-672,-32,21
2790,17,-227,-146,-686,-33,22
2795,17,-228,-144,-695,-31,23
2800,15,-225,-148,-704,-29,24
2805,19,-226,-149,-714,-22,25
2810,20,-228,-149,-725,-16,26
2815,17,-224,-150,-734,-11,25
2820,16,-224,-149,-741,-5,24
2825,20,-228,-153,-749,-1,26
2830,19,-224,-155,-758,2,24
2835,20,-225,-147,-767,1,23
2840,19,-224,-150,-774,0,24
2845,16,-221,-153,-781,-3,24
2850,16,-224,-152,-789,-4,25
2855,19,-230,-155,-797,-6,26
2860,15,-223,-156,-800,-8,29
2865,11,-222,-158,-804,-10,31
2870,12,-227,-158,-810,-13,34
2875,13,-228,-160,-814,-17,36
2880,15,-228,-159,-817,-20,38
2885,16,-225,-158,-819,-20,39
2890,18,-227,-156,-817,-17,41
2895,17,-227,-159,-817,-13,42
2900,17,-227,-160,-818,-7,42
2905,13,-225,-158,-819,-5,41
2910,16,-223,-166,-819,-3,41
2915,14,-222,-161,-820,-7,42
2920,13,-224,-163,-820,-8,43
2925,12,-220,-168,-824,-16,44
2930,11,-222,-162,-829,-24,43
2935,10,-222,-167,-836,-32,43
2940,11,-222,-166,-838,-36,43
2945,10,-221,-168,-840,-40,45
2950,11,-218,-165,-842,-40,46
2955,9,-220,-166,-843,-42,48
2960,9,-217,-169,-848,-42,48
2965,10,-216,-164,-852,-43,49
2970,9,-218,-172,-859,-45,50
2975,9,-219,-174,-867,-41,52
2980,11,-222,-175,-871,-35,55
2985,8,-220,-175,-877,-31,58
2990,13,-223,-172,-881,-24,62
2995,11,-224,-178,-882,-17,65
3000,12,-221,-178,-879,-10,69
3005,13,-221,-179,-877,-4,71
3010,14,-222,-180,-870,1,71
3015,11,-220,-183,-865,4,71
3020,15,-217,-184,-860,2,70
3025,12,-219,-182,-853,-1,67
3030,12,-216,-187,-849,-7,64
3035,8,-217,-186,-848,-13,59
3040,12,-215,-191,-847,-18,56
3045,9,-215,-189,-846,-23,54
3050,9,-220,-191,-845,-28,50
3055,10,-218,-190,-843,-35,48
3060,10,-220,-188,-841,-41,47
3065,6,-216,-192,-837,-45,46
3070,7,-218,-192,-832,-51,46
3075,8,-213,-189,-830,-48,44
3080,3,-218,-193,-830,-45,46
3085,5,-216,-194,-831,-39,45
3090,3,-216,-192,-830,-31,47
3095,5,-211,-194,-830,-25,50
3100,4,-212,-196,-826,-20,53
3105,7,-212,-197,-822,-16,57
3110,8,-212,-203,-817,-13,63
3115,9,-208,-200,-812,-12,66
3120,10,-209,-204,-807,-10,69
3125,9,-205,-217,-803,-9,72
3130,11,-207,-206,-800,-7,75
3135,11,-204,-206,-799,-7,78
3140,13,-204,-206,-799,-8,81
3145,10,-205,-211,-801,-9,81
3150,15,-208,-210,-796,-10,82
3155,13,-204,-213,-787,-10,80
3160,12,-207,-213,-778,-8,77
3165,11,-206,-214,-770,-8,75
3170,10,-203,-215,-765,-4,75
3175,10,-203,-212,-761,-1,71
3180,12,-200,-215,-757,2,67
3185,5,-197,-212,-751,7,63
3190,1,-196,-213,-744,12,58
3195,1,-196,-218,-739,13,55
3200,1,-197,-213,-735,13,53
3205,0,-195,-215,-729,10,51
3210,0,-195,-216,-719,4,51
3215,-5,-195,-218,-711,-4,53
3220,-2,-192,-215,-703,-14,55
3225,-5,-189,-215,-698,-24,60
3230,-3,-191,-214,-692,-36,63
3235,-5,-184,-221,-688,-46,68
3240,-5,-185,-217,-685,-53,71
3245,0,-184,-219,-687,-59,76
3250,2,-183,-222,-692,-63,82
3255,2,-184,-221,-699,-64,86
3260,1,-182,-223,-707,-61,90
3265,4,-182,-223,-712,-56,93
3270,5,-180,-222,-719,-49,93
3275,5,-181,-230,-722,-42,93
3280,8,-184,-228,-723,-32,92
3285,7,-181,-227,-718,-25,94
3290,8,-188,-239,-712,-18,94
3295,9,-181,-232,-702,-8,92
3300,11,-179,-237,-689,4,92
3305,10,-179,-237,-680,17,89
3310,11,-176,-235,-673,32,86
3315,7,-173,-238,-666,48,82
3320,7,-172,-236,-663,60,79
3325,5,-167,-233,-663,71,77
3330,7,-168,-232,-664,77,78
3335,2,-164,-234,-668,80,79
3340,3,-166,-233,-671,80,80
3345,2,-164,-224,-678,78,79
3350,0,-163,-238,-687,75,81
3355,-2,-161,-236,-695,72,87
3360,0,-163,-237,-701,64,85
3365,-4,-166,-238,-706,55,82
3370,-2,-165,-238,-704,48,85
3375,1,-166,-237,-701,42,86
3380,-3,-168,-239,-694,36,84
3385,-3,-166,-241,-686,30,76
3390,-9,-164,-243,-680,29,74
3395,0,-164,-241,-676,32,75
3400,-10,-165,-240,-672,31,65
3405,-8,-158,-244,-673,34,63
3410,-3,-159,-242,-673,38,68
3415,-2,-159,-242,-670,36,61
3420,-8,-157,-246,-671,33,52
3425,-11,-155,-249,-674,38,64
3430,-1,-154,-249,-674,38,73
3435,-1,-150,-238,-676,38,78
3440,0,-148,-244,-673,41,81
3445,-1,-146,-251,-667,43,73
3450,-5,-145,-254,-666,55,75
3455,3,-151,-248,-670,69,90
3460,1,-142,-252,-675,76,97
3465,11,-144,-247,-678,83,94
3470,-7,-138,-253,-678,81,77
3475,0,-141,-250,-681,87,82
3480,0,-146,-252,-684,86,86
3485,-5,-147,-251,-685,81,76
3490,-3,-147,-256,-685,82,76
3495,0,-149,-253,-684,80,78
3500,12,-156,-253,-677,78,73
3505,-6,-144,-257,-664,71,56
3510,-5,-148,-257,-658,77,66
3515,-2,-147,-261,-656,74,76
3520,3,-154,-258,-657,68,79
3525,-6,-152,-265,-649,55,60
3530,-11,-150,-267,-643,57,62
3535,-1,-152,-263,-638,71,81
3540,-3,-149,-268,-633,77,86
3545,-4,-150,-273,-625,85,82
3550,3,-151,-264,-616,95,81
3555,-2,-149,-264,-595,103,65
3560,-14,-142,-277,-580,114,65
3565,-2,-137,-274,-583,134,96
3570,-1,-143,-271,-591,137,101
3575,-1,-142,-266,-592,140,101
3580,0,-142,-267,-580,143,106
3585,22,-152,-256,-551,150,100
3590,-17,-135,-264,-512,136,65
3595,-1,-138,-273,-493,149,105
3600,-1,-141,-277,-492,151,121
3605,1,-139,-275,-497,150,119
3610,-1,-140,-267,-493,152,118
3615,-5,-136,-272,-471,153,91
3620,-17,-132,-285,-443,154,88
3625,-3,-135,-267,-438,162,122
3630,0,-135,-265,-450,155,121
3635,-2,-133,-265,-458,148,121
3640,0,-138,-273,-456,146,123
3645,-7,-134,-267,-441,150,111
3650,-20,-129,-281,-418,133,80
3655,-9,-132,-276,-413,147,122
3660,-3,-132,-280,-428,137,126
3665,1,-135,-271,-439,126,116
3670,7,-131,-267,-439,120,117
3675,9,-130,-269,-431,120,114
3680,29,-134,-266,-418,119,93
3685,-8,-122,-272,-386,95,53
3690,11,-124,-266,-375,119,94
3695,9,-124,-273,-388,123,108
3700,10,-119,-272,-397,120,103
3705,11,-117,-272,-394,120,96
3710,40,-123,-255,-376,126,88
3715,-7,-114,-270,-339,99,39
3720,7,-117,-285,-324,124,82
3725,5,-119,-276,-344,126,97
3730,6,-119,-273,-360,113,97
3735,8,-120,-275,-362,104,95
3740,11,-121,-271,-353,98,94
3745,-22,-113,-298,-333,95,64
3750,-15,-111,-300,-311,79,48
3755,0,-118,-281,-319,80,97
3760,5,-118,-274,-347,65,107
3765,5,-121,-273,-369,53,106
3770,8,-121,-271,-379,48,104
3775,29,-128,-273,-384,47,104
3780,-27,-112,-288,-365,28,53
3785,-9,-108,-280,-349,38,72
3790,1,-117,-272,-364,50,114
3795,2,-116,-270,-383,44,120
3800,3,-118,-270,-385,40,121
3805,3,-119,-277,-372,39,121
3810,1,-118,-278,-357,38,118
3815,19,-119,-255,-336,46,109
3820,-29,-102,-294,-304,24,46
3825,-8,-112,-299,-296,58,105
3830,-2,-113,-293,-323,58,124
3835,2,-115,-281,-348,49,121
3840,6,-112,-278,-356,44,117
3845,4,-110,-277,-356,40,114
3850,9,-108,-278,-353,39,115
3855,31,-116,-258,-343,44,101
3860,-22,-95,-282,-321,19,36
3865,-1,-104,-288,-320,55,94
3870,0,-102,-291,-352,60,111
3875,6,-104,-279,-374,58,105
3880,5,-102,-274,-377,55,98
3885,4,-102,-278,-369,54,93
3890,5,-101,-275,-358,56,86
3895,3,-98,-280,-352,58,77
3900,7,-99,-279,-343,60,70
3905,45,-107,-242,-332,63,58
3910,-18,-83,-264,-303,31,-13
3915,4,-93,-280,-289,66,38
3920,0,-90,-286,-311,72,48
3925,3,-93,-285,-327,71,41
3930,7,-90,-275,-330,67,32
3935,8,-88,-273,-328,65,25
3940,8,-87,-266,-324,65,19
3945,10,-83,-266,-324,62,17
3950,4,-87,-273,-320,59,15
3955,2,-89,-277,-316,54,14
3960,3,-89,-280,-309,51,13
3965,72,-113,-276,-300,48,10
3970,-22,-81,-278,-271,3,-69
3975,3,-89,-275,-239,18,-15
3980,6,-91,-272,-248,34,13
3985,2,-96,-276,-261,37,11
3990,-1,-93,-285,-255,35,4
3995,0,-94,-288,-243,27,-3
4000,-2,-94,-289,-231,22,-9
4005,-3,-91,-286,-224,19,-14
4010,0,-92,-286,-218,17,-18
4015,0,-92,-286,-213,16,-20
4020,-3,-89,-286,-206,17,-23
4025,-4,-91,-288,-197,12,-24
4030,0,-91,-286,-186,6,-24
4035,0,-88,-283,-174,-2,-27
4040,35,-106,-277,-163,-6,-31
4045,-44,-75,-294,-136,-55,-101
4050,4,-90,-277,-118,-18,-45
4055,8,-97,-273,-145,-5,-32
4060,4,-90,-274,-166,8,-34
4065,2,-86,-275,-163,11,-38
4070,0,-90,-285,-157,10,-41
4075,2,-90,-284,-155,11,-43
4080,4,-88,-283,-154,12,-45
4085,5,-92,-277,-148,14,-46
4090,5,-85,-282,-147,16,-48
4095,6,-88,-278,-143,14,-51
4100,7,-88,-282,-139,13,-51
4105,7,-91,-277,-133,12,-53
4110,6,-87,-281,-128,12,-53
4115,6,-85,-286,-125,15,-51
4120,8,-85,-283,-121,19,-51
4125,6,-82,-278,-120,23,-49
4130,4,-81,-280,-123,25,-48
4135,3,-81,-281,-122,28,-47
4140,5,-81,-281,-124,31,-43
4145,3,-82,-286,-127,30,-41
4150,4,-79,-280,-128,27,-41
4155,4,-80,-283,-128,23,-38
4160,3,-76,-276,-129,19,-38
4165,2,-81,-283,-128,13,-35
4170,1,-82,-280,-128,9,-35
4175,1,-80,-280,-130,4,-33
4180,2,-81,-280,-131,2,-31
4185,3,-82,-277,-132,2,-28
4190,1,-78,-282,-133,1,-28
4195,1,-80,-279,-134,2,-26
4200,1,-78,-279,-134,3,-24
4205,2,-82,-286,-134,6,-21
4210,2,-81,-275,-135,10,-20
4215,2,-79,-283,-136,14,-20
4220,2,-77,-280,-138,17,-21
4225,2,-78,-278,-139,20,-19
4230,3,-80,-278,-140,20,-20
4235,3,-79,-282,-140,20,-22
4240,4,-81,-281,-143,19,-20
4245,3,-77,-285,-144,18,-21
4250,6,-78,-284,-143,14,-22
4255,6,-73,-282,-144,12,-25
4260,5,-76,-283,-147,12,-27
4265,1,-78,-282,-148,14,-28
4270,4,-75,-287,-150,14,-29
4275,2,-78,-278,-152,15,-29
4280,3,-78,-283,-150,15,-29
4285,5,-75,-280,-147,15,-29
4290,1,-79,-281,-145,18,-28
4295,3,-80,-285,-147,16,-26
4300,2,-80,-280,-148,18,-27
4305,2,-81,-284,-148,20,-25
4310,1,-81,-286,-148,22,-26
4315,0,-80,-282,-148,22,-25
4320,2,-80,-284,-147,21,-25
4325,1,-77,-283,-145,20,-26
4330,1,-79,-284,-142,17,-27
4335,1,-78,-286,-138,14,-26
4340,1,-78,-283,-136,13,-24
4345,0,-76,-290,-133,12,-24
4350,1,-81,-287,-131,12,-22
4355,1,-78,-287,-130,10,-19
4360,1,-79,-287,-128,10,-17
4365,1,-82,-288,-125,7,-17
4370,0,-78,-287,-120,5,-14
4375,2,-80,-284,-116,4,-15
4380,5,-80,-284,-112,3,-18
4385,0,-77,-283,-109,2,-21
4390,2,-75,-284,-103,1,-24
4395,1,-77,-282,-100,1,-26
4400,1,-77,-280,-95,1,-29
4405,0,-75,-281,-92,0,-31
4410,2,-74,-281,-91,1,-32
4415,2,-78,-287,-91,3,-32
4420,2,-74,-280,-92,4,-32
4425,4,-79,-281,-95,2,-32
4430,4,-74,-280,-97,1,-31
4435,4,-81,-284,-100,-1,-29
4440,4,-75,-282,-100,1,-30
4445,1,-76,-284,-98,1,-29
4450,5,-77,-282,-95,1,-29
4455,4,-73,-282,-94,3,-30
4460,2,-75,-284,-92,4,-31
4465,2,-75,-284,-92,7,-31
4470,4,-75,-286,-89,8,-31
4475,7,-76,-283,-86,10,-31
4480,8,-81,-286,-84,12,-32
4485,8,-74,-281,-80,14,-34
4490,9,-73,-282,-77,16,-32
4495,4,-74,-284,-74,19,-33
4500,6,-74,-286,-73,20,-34
4505,5,-74,-283,-71,22,-33
4510,6,-75,-282,-72,22,-31
4515,7,-73,-283,-71,22,-30
4520,4,-73,-286,-74,23,-30
4525,3,-74,-285,-77,24,-31
4530,4,-71,-282,-79,23,-32
4535,5,-73,-281,-83,23,-33
4540,6,-74,-283,-85,22,-32
4545,5,-68,-282,-89,22,-33
4550,5,-75,-282,-90,22,-30
4555,4,-73,-279,-87,22,-28
4560,4,-72,-284,-84,22,-28
4565,6,-73,-281,-83,21,-28
4570,6,-70,-281,-78,21,-26
4575,5,-68,-283,-76,20,-26
4580,5,-70,-278,-75,18,-25
4585,5,-70,-287,-77,18,-23
4590,1,-68,-280,-81,16,-22
4595,6,-69,-282,-87,15,-23
4600,5,-68,-281,-93,17,-24
4605,2,-69,-278,-99,18,-24
4610,2,-71,-286,-107,20,-25
4615,0,-72,-287,-113,20,-25
4620,0,-73,-291,-116,18,-24
4625,2,-74,-284,-117,17,-21
4630,2,-72,-289,-110,15,-20
4635,3,-73,-287,-105,14,-20
4640,2,-74,-286,-101,15,-20
4645,5,-74,-287,-97,16,-20
4650,3,-74,-285,-95,18,-23
4655,1,-73,-287,-95,19,-25
4660,2,-71,-283,-96,19,-27
4665,5,-71,-291,-95,18,-30
4670,6,-74,-289,-95,20,-31
4675,1,-75,-286,-95,20,-31
4680,2,-73,-282,-93,23,-31
4685,1,-70,-283,-93,24,-32
4690,2,-75,-283,-90,26,-32
4695,2,-74,-285,-85,26,-32
4700,8,-72,-286,-78,27,-32
4705,4,-72,-280,-73,26,-30
4710,3,-71,-282,-68,24,-30
4715,3,-71,-286,-67,23,-29
4720,5,-68,-283,-66,22,-30
4725,3,-68,-285,-69,21,-30
4730,4,-69,-281,-72,20,-30
4735,5,-71,-284,-77,20,-30
4740,4,-71,-285,-78,20,-32
4745,9,-70,-285,-80,21,-32
4750,5,-73,-287,-80,24,-34
4755,8,-71,-283,-81,25,-36
4760,7,-70,-285,-80,27,-35
4765,5,-72,-285,-80,28,-37
4770,8,-70,-285,-80,29,-35
4775,7,-74,-289,-79,28,-35
4780,8,-72,-285,-75,29,-33
4785,7,-71,-286,-72,30,-33
4790,5,-72,-281,-68,28,-31
4795,11,-70,-278,-61,26,-30
4800,6,-68,-287,-54,24,-27
4805,7,-69,-285,-50,21,-27
4810,7,-69,-287,-46,18,-27
4815,6,-68,-290,-44,18,-24
4820,8,-66,-284,-46,21,-24
4825,9,-67,-288,-48,21,-24
4830,8,-68,-284,-52,24,-23
4835,9,-68,-284,-54,24,-20
4840,8,-66,-284,-58,26,-19
4845,8,-68,-285,-61,27,-18
4850,8,-71,-287,-63,30,-17
4855,4,-71,-289,-63,29,-17
4860,6,-67,-282,-61,27,-18
4865,7,-71,-282,-58,24,-18
4870,13,-69,-288,-54,21,-20
4875,5,-72,-287,-49,19,-21
4880,9,-71,-286,-45,14,-22
4885,7,-72,-280,-45,12,-24
4890,8,-72,-284,-43,9,-25
4895,9,-74,-282,-43,9,-26
4900,9,-74,-284,-43,9,-26
4905,7,-73,-279,-43,10,-26
4910,6,-69,-282,-43,12,-27
4915,3,-72,-286,-41,15,-25
4920,7,-72,-286,-42,16,-26
4925,9,-76,-283,-42,14,-27
4930,6,-74,-283,-41,13,-28
4935,3,-71,-284,-41,11,-30
4940,4,-75,-286,-40,10,-30
4945,4,-70,-286,-38,8,-32
4950,8,-70,-289,-35,7,-34
4955,6,-67,-287,-32,8,-36
4960,6,-74,-285,-30,7,-37
4965,4,-71,-287,-27,9,-39
4970,6,-69,-282,-25,9,-40
4975,5,-72,-284,-25,8,-40
4980,8,-71,-284,-23,5,-39
4985,6,-71,-282,-24,4,-37
4990,5,-72,-280,-25,2,-34
4995,5,-69,-284,-26,2,-34
5000,6,-71,-282,-28,3,-34
5005,7,-69,-283,-29,3,-34
5010,5,-70,-286,-29,5,-34
5015,7,-71,-275,-31,6,-33
5020,4,-73,-283,-32,4,-32
5025,8,-72,-284,-33,4,-34
5030,5,-70,-284,-34,3,-34
5035,2,-70,-291,-33,4,-33
5040,6,-73,-283,-34,3,-33
5045,5,-71,-286,-35,5,-34
5050,2,-71,-287,-33,6,-35
5055,3,-69,-285,-33,6,-37
5060,2,-68,-286,-33,6,-37
5065,2,-71,-282,-34,5,-37
5070,5,-72,-281,-33,6,-39
5075,5,-72,-278,-34,7,-37
5080,6,-66,-284,-34,7,-37
5085,4,-68,-284,-33,8,-35
5090,12,-66,-283,-35,8,-34
5095,6,-67,-279,-38,9,-32
5100,7,-68,-281,-39,11,-31
5105,5,-69,-283,-42,12,-31
5110,8,-70,-283,-41,17,-32
5115,3,-70,-284,-45,16,-31
5120,3,-71,-285,-48,15,-30
5125,7,-70,-284,-50,15,-30
5130,4,-66,-286,-49,15,-28
5135,6,-70,-283,-50,14,-28
5140,7,-75,-281,-52,13,-28
5145,7,-70,-283,-51,13,-28
5150,6,-70,-289,-50,14,-28
5155,5,-68,-284,-49,13,-30
5160,6,-70,-281,-48,11,-31
5165,4,-70,-283,-46,8,-30
5170,3,-69,-282,-48,6,-31
5175,2,-68,-285,-49,7,-28
5180,1,-69,-287,-50,6,-26
5185,2,-66,-281,-51,7,-23
5190,2,-71,-283,-53,5,-21
5195,9,-68,-286,-57,5,-18
5200,2,-69,-281,-60,5,-15
5205,5,-67,-282,-63,4,-15
5210,6,-69,-283,-63,4,-13
5215,4,-70,-282,-67,4,-12
5220,4,-72,-284,-68,4,-13
5225,5,-68,-285,-70,3,-13
5230,2,-68,-282,-72,3,-12
5235,3,-69,-285,-74,4,-13
5240,3,-69,-291,-78,7,-12
5245,5,-68,-281,-81,9,-11
5250,4,-68,-285,-89,11,-10
5255,4,-71,-288,-93,13,-8
5260,5,-74,-285,-96,17,-7
5265,1,-71,-284,-98,18,-7
5270,5,-72,-284,-98,19,-7
5275,3,-74,-282,-95,21,-6
5280,4,-75,-284,-90,21,-6
5285,7,-73,-286,-84,20,-7
5290,3,-76,-282,-80,20,-8
5295,2,-71,-286,-72,21,-8
5300,3,-69,-285,-71,21,-9
5305,3,-68,-287,-67,20,-10
5310,7,-69,-283,-68,22,-9
5315,5,-68,-288,-72,24,-9
5320,4,-67,-283,-79,25,-8
5325,6,-68,-285,-82,24,-8
5330,4,-69,-288,-87,25,-9
5335,6,-68,-282,-90,26,-9
5340,4,-70,-280,-90,26,-10
5345,2,-68,-283,-92,26,-9
5350,3,-69,-283,-92,26,-11
5355,4,-68,-281,-91,26,-11
5360,1,-66,-281,-91,25,-9
5365,3,-69,-283,-89,24,-9
5370,2,-69,-282,-90,24,-6
5375,2,-69,-283,-88,22,-5
5380,2,-68,-288,-88,21,-4
5385,2,-70,-283,-87,19,-3
5390,5,-70,-282,-88,18,-3
5395,3,-68,-287,-91,18,-5
5400,6,-70,-281,-94,18,-6
5405,3,-69,-286,-97,19,-6
5410,4,-70,-286,-100,19,-6
5415,11,-70,-291,-102,18,-6
5420,4,-74,-286,-104,17,-6
5425,5,-74,-287,-99,15,-5
5430,2,-69,-288,-97,14,-5
5435,8,-74,-288,-91,12,-5
5440,5,-71,-290,-84,11,-1
5445,7,-74,-288,-80,9,1
5450,6,-71,-283,-77,10,2
5455,7,-68,-289,-74,11,3
5460,9,-71,-287,-72,11,4
5465,7,-72,-288,-74,14,3
5470,11,-71,-278,-74,15,2
5475,7,-66,-280,-74,19,3
5480,7,-68,-284,-73,19,4
5485,7,-66,-286,-74,19,5
5490,4,-68,-282,-74,19,7
5495,7,-68,-286,-74,16,7
5500,6,-66,-286,-75,13,8
5505,6,-70,-286,-76,12,6
5510,5,-67,-285,-76,11,6
5515,3,-68,-286,-77,10,6
5520,7,-64,-286,-78,11,6
5525,7,-71,-285,-78,11,5
5530,4,-65,-285,-83,13,7
5535,2,-64,-282,-85,13,7
5540,3,-66,-285,-87,15,7
5545,4,-68,-284,-88,15,9
5550,3,-65,-283,-87,16,9
5555,5,-68,-283,-86,15,10
5560,7,-67,-283,-82,14,9
5565,3,-69,-285,-78,13,9
5570,9,-69,-283,-75,13,8
5575,6,-69,-281,-72,13,6
5580,6,-70,-277,-71,12,5
5585,4,-68,-287,-71,13,5
5590,4,-66,-288,-73,12,3
5595,5,-66,-289,-74,13,3
5600,4,-67,-286,-76,12,1
5605,5,-65,-289,-79,13,1
5610,6,-68,-282,-81,13,3
5615,3,-66,-288,-87,14,1
5620,4,-66,-287,-89,14,3
5625,5,-67,-285,-92,16,5
5630,8,-64,-282,-94,16,5
5635,3,-69,-286,-94,16,5
5640,3,-65,-286,-95,16,5
5645,4,-64,-286,-96,16,5
5650,6,-68,-285,-97,16,4
5655,8,-66,-287,-95,16,4
5660,6,-65,-284,-94,15,4
5665,4,-65,-285,-92,14,3
5670,4,-65,-291,-90,12,5
5675,6,-65,-283,-88,12,4
5680,11,-72,-291,-86,9,5
5685,8,-66,-285,-85,8,5
5690,6,-70,-286,-82,7,5
5695,5,-68,-288,-83,6,4
5700,6,-66,-286,-83,6,3
5705,6,-68,-289,-83,6,3
5710,4,-63,-289,-84,7,3
5715,6,-65,-286,-84,5,3
5720,6,-63,-288,-87,7,4
5725,6,-68,-288,-90,7,4
5730,5,-63,-288,-91,10,3
5735,7,-64,-286,-93,11,3
5740,3,-62,-287,-91,10,4
5745,4,-65,-286,-90,10,4
5750,4,-65,-281,-87,13,5
5755,6,-64,-281,-85,15,4
5760,6,-65,-285,-82,17,6
5765,5,-65,-287,-78,18,5
5770,6,-66,-287,-75,20,4
5775,4,-64,-289,-72,21,5
5780,8,-64,-282,-72,22,4
5785,7,-63,-287,-73,22,5
5790,5,-64,-291,-74,22,5
5795,3,-54,-291,-76,24,5
5800,4,-64,-287,-80,22,5
5805,5,-63,-285,-84,21,4
5810,3,-64,-290,-90,21,6
5815,6,-64,-283,-91,19,6
5820,5,-63,-282,-95,19,6
5825,4,-64,-283,-96,18,5
5830,7,-63,-287,-95,18,5
5835,4,-65,-288,-93,17,4
5840,4,-65,-286,-93,15,3
5845,3,-62,-282,-90,14,3
5850,0,-64,-286,-89,13,3
5855,5,-63,-283,-87,12,4
5860,5,-62,-285,-87,12,4
5865,3,-63,-286,-86,11,5
5870,1,-61,-288,-86,9,7
5875,2,-60,-280,-87,9,7
5880,3,-64,-286,-89,8,8
5885,2,-61,-287,-90,7,10
5890,1,-65,-293,-91,7,10
5895,1,-62,-285,-91,7,12
5900,2,-64,-287,-90,7,13
5905,1,-64,-289,-91,7,14
5910,5,-65,-288,-89,8,15
5915,2,-64,-286,-87,9,13
5920,3,-63,-290,-88,11,13
5925,7,-64,-287,-90,12,13
5930,2,-63,-287,-89,12,14
5935,5,-65,-286,-87,12,14
5940,5,-63,-287,-86,12,12
5945,6,-64,-284,-81,11,11
5950,8,-62,-288,-76,12,11
5955,8,-63,-287,-74,15,11
5960,3,-60,-293,-73,16,11
5965,7,-60,-286,-75,21,8
5970,4,-61,-286,-80,24,6
5975,6,-60,-287,-85,27,6
5980,7,-60,-285,-90,29,6
5985,3,-62,-284,-93,29,5
5990,5,-63,-286,-93,30,6
5995,5,-63,-289,-92,31,6
6000,5,-59,-289,-90,29,5
6005,3,-62,-289,-88,27,7
6010,3,-59,-284,-87,29,7
6015,3,-59,-285,-87,26,7
6020,2,-59,-288,-88,26,7
6025,1,-59,-288,-86,24,10
6030,1,-60,-288,-86,23,10
6035,0,-61,-287,-86,23,10
6040,1,-61,-287,-88,22,11
6045,2,-61,-288,-88,23,11
6050,2,-60,-288,-88,23,11
6055,1,-57,-287,-92,22,13
6060,5,-61,-288,-95,21,14
6065,3,-63,-285,-96,22,15
6070,1,-65,-286,-98,23,16
6075,3,-62,-283,-100,26,15
6080,4,-62,-287,-100,28,14
6085,6,-62,-282,-99,28,15
6090,3,-61,-284,-103,26,15
6095,4,-61,-286,-102,25,19
6100,4,-58,-289,-102,22,19
6105,3,-55,-287,-103,21,20
6110,4,-59,-286,-100,21,21
6115,7,-58,-288,-98,21,22
6120,5,-62,-290,-96,20,22
6125,3,-62,-290,-93,22,24
6130,7,-58,-287,-92,24,23
6135,6,-59,-288,-92,25,24
6140,6,-57,-289,-95,29,24
6145,7,-59,-287,-96,32,24
6150,8,-57,-291,-101,34,23
6155,7,-57,-288,-106,37,22
6160,5,-57,-288,-110,39,20
6165,4,-60,-290,-113,41,20
6170,4,-57,-287,-117,44,20
6175,6,-55,-292,-119,46,17
6180,5,-60,-288,-120,48,19
6185,2,-60,-289,-121,49,19
6190,4,-59,-286,-119,49,20
6195,3,-59,-287,-118,52,21
6200,1,-57,-283,-115,51,21
6205,3,-59,-284,-109,48,21
6210,3,-59,-286,-107,45,22
6215,1,-60,-291,-102,41,22
6220,3,-62,-289,-98,35,24
6225,1,-57,-292,-96,29,23
6230,0,-63,-290,-93,25,22
6235,1,-60,-291,-93,22,20
6240,1,-59,-290,-95,17,16
6245,3,-58,-293,-98,14,16
6250,5,-59,-288,-100,12,14
6255,4,-58,-289,-101,13,11
6260,4,-59,-292,-102,13,9
6265,7,-62,-290,-101,13,8
6270,5,-59,-287,-98,13,6
6275,8,-58,-288,-94,14,4
6280,3,-60,-291,-88,16,3
6285,8,-59,-291,-84,18,4
6290,7,-59,-294,-82,20,5
6295,6,-54,-288,-81,24,5
6300,7,-55,-291,-82,25,6
6305,9,-59,-289,-82,25,9
6310,7,-58,-291,-83,25,11
6315,6,-57,-290,-84,23,13
6320,4,-58,-285,-82,22,14
6325,6,-52,-288,-82,20,14
6330,7,-54,-284,-80,19,14
6335,6,-53,-292,-77,17,15
6340,5,-59,-285,-74,17,15
6345,2,-59,-293,-71,17,13
6350,5,-57,-292,-66,16,15
6355,4,-55,-294,-63,19,15
6360,3,-58,-291,-59,20,14
6365,3,-59,-297,-58,20,12
6370,3,-59,-293,-57,19,10
6375,1,-56,-290,-55,18,7
6380,1,-58,-291,-53,16,5
6385,2,-55,-293,-52,15,2
6390,2,-56,-293,-50,14,1
6395,6,-58,-294,-46,13,0
6400,4,-58,-291,-42,12,-1
6405,3,-57,-290,-40,12,-2
6410,4,-57,-286,-38,12,0
6415,5,-59,-289,-37,14,0
6420,4,-59,-287,-34,15,2
6425,3,-57,-292,-31,17,3
6430,8,-58,-286,-28,19,3
6435,4,-56,-290,-28,21,3
6440,6,-56,-289,-27,24,2
6445,4,-58,-290,-29,26,2
6450,9,-57,-288,-29,27,2
6455,2,-55,-284,-24,27,2
6460,3,-54,-287,-21,28,0
6465,5,-58,-286,-18,29,-2
6470,6,-56,-286,-17,30,-3
6475,2,-53,-288,-17,31,-4
6480,6,-57,-288,-18,30,-7
6485,3,-57,-291,-21,30,-9
6490,6,-54,-289,-21,28,-11
6495,3,-60,-290,-19,27,-12
6500,0,-52,-288,-17,27,-12
6505,5,-59,-293,-13,23,-12
6510,3,-56,-288,-12,21,-11
6515,2,-57,-292,-8,19,-9
6520,3,-57,-290,-6,18,-9
6525,4,-57,-292,-5,15,-9
6530,5,-59,-291,-2,16,-9
6535,1,-55,-288,1,13,-11
6540,2,-58,-287,3,14,-10
6545,3,-61,-289,5,15,-11
6550,3,-61,-292,9,17,-11
6555,3,-55,-297,13,19,-11
6560,6,-63,-289,14,22,-11
6565,5,-60,-287,17,25,-10
6570,7,-63,-289,24,28,-10
6575,6,-63,-291,28,32,-8
6580,6,-59,-293,31,36,-7
6585,7,-60,-293,36,41,-6
6590,8,-62,-293,39,44,-6
6595,5,-63,-290,46,47,-5
6600,8,-61,-295,53,49,-5
6605,4,-64,-289,64,51,-3
6610,9,-61,-293,75,50,-4
6615,6,-63,-293,84,47,-3
6620,3,-62,-295,91,43,-3
6625,3,-63,-296,95,41,-3
6630,2,-65,-290,98,39,-4
6635,4,-64,-292,99,39,-4
6640,4,-64,-292,101,39,-3
6645,5,-67,-292,105,39,-4
6650,2,-66,-296,109,40,-3
6655,-2,-68,-296,113,42,-3
6660,4,-73,-293,120,40,-3
6665,0,-69,-290,130,40,-2
6670,0,-71,-296,143,39,-2
6675,0,-73,-295,159,35,-2
6680,0,-71,-294,173,32,-1
6685,34,-84,-283,187,29,-2
6690,-39,-61,-308,225,11,-65
6695,1,-67,-304,274,10,-41
6700,6,-73,-284,240,14,-7
6705,4,-77,-279,204,30,-3
6710,-4,-72,-293,208,36,-6
6715,3,-79,-295,217,39,-5
6720,1,-78,-294,221,40,-7
6725,2,-76,-295,224,41,-7
6730,4,-76,-291,231,40,-5
6735,3,-80,-292,240,38,-7
6740,5,-79,-292,251,34,-9
6745,2,-79,-294,264,28,-13
6750,4,-81,-293,279,22,-16
6755,7,-78,-295,291,16,-20
6760,12,-80,-291,308,11,-22
6765,26,-87,-280,328,10,-32
6770,-2,-77,-294,360,-4,-51
6775,7,-75,-300,380,10,-24
6780,11,-80,-291,367,17,-19
6785,9,-81,-288,363,27,-20
6790,7,-82,-287,374,31,-22
6795,10,-84,-290,391,31,-21
6800,10,-86,-290,406,29,-21
6805,5,-85,-291,421,27,-16
6810,8,-91,-285,438,21,-16
6815,10,-89,-289,457,14,-17
6820,-5,-90,-291,484,0,-38
6825,-4,-89,-293,516,-6,-31
6830,1,-90,-293,519,-11,-12
6835,3,-97,-289,510,-12,-9
6840,2,-98,-286,514,-14,-9
6845,1,-96,-289,527,-21,-11
6850,1,-96,-288,544,-30,-12
6855,1,-97,-285,555,-37,-14
6860,2,-95,-287,563,-43,-14
6865,2,-97,-284,569,-44,-14
6870,4,-99,-287,575,-47,-14
6875,5,-99,-286,580,-48,-16
6880,3,-104,-290,585,-47,-17
6885,4,-107,-288,592,-47,-18
6890,7,-110,-288,598,-48,-15
6895,4,-110,-288,608,-48,-14
6900,6,-110,-286,615,-48,-11
6905,6,-111,-286,625,-47,-10
6910,5,-113,-286,632,-44,-9
6915,8,-115,-286,640,-45,-8
6920,3,-117,-288,647,-45,-7
6925,6,-118,-283,653,-44,-7
6930,4,-119,-284,659,-45,-4
6935,6,-119,-285,667,-45,-2
6940,5,-123,-286,675,-45,1
6945,3,-122,-284,689,-44,3
6950,7,-124,-285,706,-43,4
6955,5,-123,-283,720,-43,5
6960,7,-125,-286,733,-41,5
6965,5,-124,-281,745,-38,5
6970,4,-125,-277,753,-35,4
6975,6,-126,-275,759,-31,4
6980,3,-124,-273,762,-27,5
6985,4,-126,-277,768,-24,6
6990,3,-125,-276,774,-23,4
6995,2,-125,-276,778,-20,3
7000,0,-126,-273,782,-21,3
7005,4,-128,-268,785,-24,0
7010,2,-129,-272,793,-28,-1
7015,2,-130,-270,803,-31,-3
7020,1,-131,-267,815,-38,-5
7025,1,-134,-265,823,-41,-6
7030,1,-134,-264,828,-42,-7
7035,1,-132,-265,830,-40,-7
7040,-3,-141,-267,835,-37,-8
7045,0,-140,-269,844,-36,-8
7050,1,-137,-264,850,-39,-8
7055,0,-138,-263,855,-42,-7
7060,1,-138,-262,855,-42,-6
7065,3,-139,-264,855,-42,-4
7070,4,-139,-258,853,-40,-5
7075,6,-142,-257,847,-37,-5
7080,5,-140,-260,843,-32,-5
7085,1,-143,-265,837,-29,-6
7090,1,-146,-260,832,-27,-7
7095,4,-147,-251,831,-28,-6
7100,2,-147,-255,835,-29,-5
7105,0,-150,-257,840,-30,-5
7110,5,-155,-255,844,-31,-4
7115,4,-153,-253,850,-33,-6
7120,2,-155,-253,852,-32,-7
7125,5,-155,-256,850,-33,-7
7130,4,-157,-256,850,-30,-8
7135,4,-162,-257,849,-27,-9
7140,5,-159,-249,852,-27,-11
7145,5,-163,-251,856,-24,-13
7150,11,-161,-250,858,-22,-14
7155,10,-163,-251,860,-19,-17
7160,10,-164,-249,860,-15,-18
7165,6,-162,-247,857,-12,-20
7170,9,-164,-244,854,-8,-20
7175,12,-169,-244,850,-5,-20
7180,11,-166,-245,851,0,-21
7185,10,-166,-241,852,5,-20
7190,12,-169,-241,852,13,-19
7195,13,-167,-240,851,21,-15
7200,9,-170,-243,847,32,-13
7205,13,-173,-240,845,39,-15
7210,11,-169,-233,844,44,-16
7215,11,-171,-236,840,48,-15
7220,5,-170,-233,838,52,-13
7225,6,-170,-235,832,56,-13
7230,8,-173,-231,827,57,-14
7235,4,-176,-232,824,60,-16
7240,4,-175,-230,820,63,-15
7245,3,-179,-232,818,66,-15
7250,2,-182,-232,815,68,-17
7255,2,-182,-231,812,70,-18
7260,-2,-181,-230,810,72,-17
7265,-3,-184,-228,810,73,-16
7270,-2,-188,-231,811,68,-18
7275,-1,-187,-229,813,63,-16
7280,-1,-191,-229,816,54,-15
7285,0,-191,-226,821,46,-13
7290,0,-190,-224,823,40,-13
7295,0,-192,-225,823,37,-15
7300,1,-189,-223,825,35,-15
7305,-2,-190,-223,824,33,-15
7310,2,-192,-216,821,33,-17
7315,0,-187,-218,819,34,-19
7320,1,-188,-215,817,33,-20
7325,2,-190,-213,814,35,-21
7330,1,-192,-212,812,36,-24
7335,2,-193,-213,813,39,-23
7340,1,-193,-211,815,45,-22
7345,3,-192,-207,816,52,-23
7350,3,-195,-209,822,56,-26
7355,2,-196,-211,830,57,-28
7360,4,-196,-206,836,55,-29
7365,6,-198,-206,840,50,-30
7370,3,-198,-204,843,47,-31
7375,2,-200,-207,842,45,-34
7380,3,-199,-203,837,45,-35
7385,1,-199,-205,830,42,-36
7390,1,-202,-205,826,41,-39
7395,2,-201,-202,821,38,-39
7400,4,-203,-196,818,36,-39
7405,2,-200,-199,815,31,-38
7410,6,-202,-195,814,29,-37
7415,7,-200,-190,814,28,-36
7420,7,-204,-193,809,27,-35
7425,5,-201,-191,808,28,-36
7430,4,-201,-192,809,25,-38
7435,6,-205,-192,811,24,-37
7440,6,-207,-189,811,16,-37
7445,1,-204,-190,811,10,-36
7450,5,-205,-188,811,3,-34
7455,4,-209,-190,814,-4,-34
7460,6,-210,-189,816,-7,-34
7465,3,-207,-187,820,-8,-33
7470,6,-216,-191,824,-6,-33
7475,7,-210,-189,826,-5,-32
7480,4,-219,-187,824,-6,-34
7485,4,-221,-186,823,-4,-36
7490,3,-222,-182,819,0,-38
7495,2,-220,-181,819,7,-39
7500,5,-221,-182,819,13,-41
7505,6,-220,-176,821,19,-46
7510,3,-216,-171,823,27,-45
7515,8,-220,-172,825,29,-44
7520,5,-214,-167,823,30,-44
7525,4,-216,-173,821,30,-42
7530,7,-214,-170,813,30,-39
7535,6,-216,-168,806,34,-38
7540,3,-215,-167,801,34,-35
7545,4,-220,-168,801,34,-31
7550,5,-221,-167,800,34,-29
7555,2,-220,-161,799,31,-27
7560,7,-219,-162,792,25,-25
7565,10,-223,-161,782,18,-23
7570,4,-223,-162,768,13,-26
7575,9,-223,-165,761,9,-27
7580,7,-225,-161,755,5,-28
7585,13,-226,-155,754,2,-26
7590,9,-222,-161,749,4,-25
7595,11,-222,-159,738,6,-24
7600,10,-219,-151,725,8,-25
7605,12,-222,-154,715,11,-27
7610,9,-222,-156,707,14,-29
7615,11,-220,-156,704,17,-29
7620,10,-221,-157,700,19,-34
7625,13,-224,-153,694,24,-36
7630,9,-221,-153,684,28,-39
7635,7,-223,-157,674,32,-45
7640,11,-225,-147,665,34,-51
7645,9,-224,-152,656,34,-57
7650,11,-223,-147,649,30,-59
7655,8,-224,-148,640,24,-61
7660,6,-221,-147,630,18,-61
7665,9,-224,-146,623,15,-62
7670,11,-224,-145,617,13,-65
7675,8,-221,-142,609,12,-66
7680,10,-225,-142,603,11,-69
7685,6,-226,-141,594,11,-72
7690,6,-224,-140,584,8,-72
7695,4,-224,-137,577,10,-72
7700,6,-226,-137,566,10,-71
7705,6,-227,-136,556,9,-69
7710,3,-230,-136,542,7,-67
7715,6,-232,-134,532,3,-63
7720,4,-232,-137,522,-2,-59
7725,7,-235,-133,514,-7,-59
7730,8,-236,-131,510,-13,-56
7735,4,-238,-131,507,-18,-53
7740,5,-237,-134,500,-23,-55
7745,5,-241,-130,496,-31,-55
7750,7,-242,-132,490,-38,-53
7755,9,-239,-133,486,-46,-55
7760,7,-237,-135,478,-52,-62
7765,9,-238,-131,472,-57,-67
7770,11,-238,-131,465,-58,-67
7775,13,-233,-129,461,-59,-66
7780,10,-235,-131,461,-59,-65
7785,14,-236,-129,455,-60,-70
7790,13,-232,-133,451,-62,-71
7795,18,-235,-128,443,-63,-70
7800,15,-233,-126,433,-60,-69
7805,15,-232,-129,423,-53,-69
7810,15,-228,-130,407,-46,-70
7815,14,-229,-127,393,-42,-67
7820,12,-231,-125,378,-40,-68
7825,12,-232,-123,360,-39,-69
7830,14,-233,-121,345,-38,-67
7835,11,-229,-125,334,-34,-66
7840,16,-231,-126,328,-31,-66
7845,8,-237,-124,317,-30,-68
7850,13,-236,-124,301,-31,-68
7855,12,-241,-117,290,-33,-66
7860,15,-237,-123,287,-37,-62
7865,15,-240,-120,284,-38,-59
7870,20,-239,-119,280,-40,-55
7875,19,-237,-118,275,-38,-51
7880,22,-236,-118,271,-33,-47
7885,20,-235,-117,262,-29,-46
7890,19,-234,-119,251,-27,-45
7895,13,-235,-117,238,-25,-43
7900,17,-236,-119,225,-25,-44
7905,13,-234,-116,216,-24,-49
7910,10,-234,-113,210,-23,-51
7915,9,-237,-116,205,-23,-53
7920,11,-236,-119,199,-24,-52
7925,10,-236,-120,188,-25,-52
7930,7,-234,-122,176,-27,-53
7935,6,-236,-122,164,-28,-51
7940,6,-236,-115,155,-27,-53
7945,3,-238,-117,148,-30,-51
7950,5,-238,-117,142,-32,-49
7955,5,-237,-117,137,-34,-46
7960,7,-237,-118,129,-36,-44
7965,10,-240,-116,122,-38,-42
7970,6,-240,-117,112,-40,-39
7975,4,-238,-119,104,-44,-37
7980,7,-241,-116,96,-50,-32
7985,10,-245,-115,88,-54,-32
7990,9,-245,-113,82,-58,-30
7995,8,-247,-113,78,-62,-29
8000,8,-246,-116,75,-66,-28
8005,12,-249,-113,77,-69,-28
8010,10,-250,-112,78,-73,-29
8015,9,-249,-110,81,-75,-32
8020,12,-248,-112,76,-76,-34
8025,8,-249,-113,72,-78,-35
8030,9,-250,-111,65,-77,-35
8035,7,-250,-113,57,-76,-35
8040,10,-250,-108,49,-76,-34
8045,11,-253,-106,42,-75,-33
8050,8,-250,-108,37,-77,-32
8055,7,-250,-108,34,-78,-31
8060,9,-250,-104,29,-80,-29
8065,8,-254,-105,25,-84,-31
8070,16,-256,-105,24,-90,-30
8075,5,-258,-101,25,-94,-28
8080,11,-253,-105,26,-97,-28
8085,13,-255,-105,26,-96,-29
8090,11,-249,-106,24,-94,-30
8095,13,-253,-107,22,-91,-28
8100,16,-254,-104,18,-87,-26
8105,15,-250,-107,14,-83,-25
8110,11,-250,-110,10,-79,-25
8115,13,-250,-106,5,-76,-25
8120,15,-247,-102,4,-75,-23
8125,13,-251,-111,5,-77,-22
8130,14,-246,-109,5,-78,-23
8135,14,-248,-108,5,-79,-21
8140,13,-248,-108,2,-79,-22
8145,8,-247,-104,-2,-78,-22
8150,10,-247,-108,-5,-73,-22
8155,11,-247,-104,-10,-71,-22
8160,11,-247,-106,-14,-69,-22
8165,14,-250,-105,-20,-64,-23
8170,12,-248,-105,-27,-59,-24
8175,11,-250,-106,-33,-57,-25
8180,9,-251,-105,-39,-58,-26
8185,20,-252,-101,-46,-60,-29
8190,12,-255,-104,-50,-66,-29
8195,10,-252,-109,-50,-68,-31
8200,9,-252,-109,-52,-74,-33
8205,14,-253,-108,-50,-77,-34
8210,12,-253,-111,-50,-81,-36
8215,10,-254,-106,-50,-81,-36
8220,12,-247,-105,-53,-82,-36
8225,15,-251,-110,-54,-84,-35
8230,15,-253,-106,-58,-86,-33
8235,13,-254,-111,-64,-88,-33
8240,10,-252,-107,-70,-86,-30
8245,12,-252,-111,-72,-85,-30
8250,16,-254,-110,-78,-83,-26
8255,14,-255,-110,-83,-79,-25
8260,16,-256,-110,-86,-76,-22
8265,15,-256,-112,-88,-73,-21
8270,15,-256,-108,-93,-72,-19
8275,14,-255,-118,-95,-72,-19
8280,10,-256,-114,-97,-69,-17
8285,15,-256,-107,-95,-66,-15
8290,15,-257,-105,-92,-66,-17
8295,11,-256,-115,-88,-64,-16
8300,14,-255,-110,-85,-61,-15
8305,15,-254,-107,-81,-58,-14
8310,17,-256,-111,-76,-54,-14
8315,18,-256,-110,-74,-47,-12
8320,17,-255,-109,-71,-41,-11
8325,16,-252,-112,-69,-35,-10
8330,20,-254,-105,-68,-28,-8
8335,17,-254,-109,-70,-24,-7
8340,20,-255,-110,-71,-20,-6
8345,14,-256,-115,-72,-13,-6
8350,22,-254,-110,-74,-8,-6
8355,19,-255,-110,-75,-5,-5
8360,19,-255,-110,-73,-2,-6
8365,17,-256,-107,-73,-1,-7
8370,19,-258,-110,-71,-2,-7
8375,19,-256,-108,-70,0,-9
8380,19,-255,-112,-70,0,-10
8385,19,-256,-111,-71,3,-12
8390,16,-254,-105,-72,5,-14
8395,18,-254,-110,-70,7,-16
8400,14,-255,-105,-67,10,-16
8405,20,-254,-110,-64,13,-16
8410,20,-250,-110,-66,14,-18
8415,17,-250,-107,-70,16,-18
8420,19,-252,-110,-75,19,-19
8425,16,-249,-111,-82,24,-19
8430,17,-246,-109,-86,29,-18
8435,17,-250,-109,-93,31,-17
8440,16,-253,-108,-95,36,-14
8445,20,-251,-104,-98,37,-16
8450,17,-255,-108,-98,37,-16
8455,17,-256,-109,-99,37,-15
8460,16,-257,-111,-98,36,-14
8465,14,-254,-113,-95,36,-15
8470,17,-257,-110,-91,37,-14
8475,17,-256,-112,-86,38,-14
8480,15,-255,-115,-83,40,-13
8485,15,-257,-111,-80,41,-13
8490,13,-256,-116,-77,42,-13
8495,12,-254,-106,-73,40,-11
8500,14,-254,-110,-68,39,-10
8505,13,-252,-114,-65,39,-7
8510,17,-250,-108,-62,39,-6
8515,12,-252,-113,-60,41,-3
8520,14,-254,-112,-60,44,-3
8525,13,-253,-115,-59,46,-1
8530,12,-254,-111,-59,47,0
8535,14,-249,-111,-59,50,2
8540,10,-252,-113,-62,52,4
8545,9,-253,-114,-64,52,5
8550,11,-251,-110,-68,52,7
8555,12,-254,-112,-72,51,8
8560,12,-255,-107,-74,49,8
8565,13,-255,-107,-75,45,6
8570,13,-256,-108,-72,42,6
8575,13,-258,-108,-70,42,5
8580,14,-256,-111,-66,41,3
8585,13,-254,-109,-62,40,3
8590,14,-256,-107,-58,39,1
8595,15,-255,-107,-54,41,2
8600,10,-257,-111,-51,41,1
8605,11,-252,-109,-51,41,1
8610,13,-255,-108,-53,42,2
8615,11,-252,-113,-54,42,1
8620,15,-253,-108,-56,42,2
8625,13,-255,-106,-58,40,2
8630,15,-255,-110,-58,40,2
8635,13,-255,-104,-58,39,3
8640,14,-254,-107,-58,40,2
8645,13,-256,-111,-56,40,4
8650,15,-255,-109,-56,40,2
8655,14,-256,-107,-55,42,3
8660,14,-252,-115,-54,43,2
8665,16,-256,-112,-52,43,2
8670,17,-255,-110,-49,42,2
8675,11,-253,-113,-47,43,1
8680,13,-250,-108,-44,43,3
8685,12,-251,-105,-47,42,3
8690,11,-251,-112,-49,40,3
8695,13,-252,-112,-49,39,3
8700,12,-250,-115,-53,38,3
8705,12,-251,-112,-54,38,5
8710,13,-254,-112,-55,40,5
8715,9,-251,-110,-58,41,5
8720,14,-254,-107,-61,43,7
8725,11,-251,-112,-66,42,6
8730,11,-251,-111,-69,41,6
8735,11,-252,-112,-71,39,6
8740,10,-253,-108,-73,37,6
8745,10,-256,-109,-73,35,7
8750,10,-255,-107,-73,35,6
8755,12,-254,-109,-74,33,5
8760,12,-255,-108,-73,32,6
8765,7,-255,-108,-71,31,7
8770,8,-257,-112,-68,28,6
8775,11,-256,-109,-64,27,5
8780,7,-250,-108,-61,23,6
8785,13,-252,-109,-59,21,5
8790,16,-249,-104,-56,19,5
8795,10,-254,-111,-53,17,6
8800,11,-253,-110,-52,14,6
8805,12,-254,-104,-53,14,7
8810,14,-255,-108,-54,15,7
8815,15,-253,-107,-53,14,9
8820,15,-252,-110,-54,14,9
8825,14,-252,-112,-57,14,9
8830,13,-249,-105,-61,14,8
8835,13,-254,-103,-66,16,8
8840,11,-249,-113,-70,18,9
8845,12,-245,-110,-75,19,9
8850,15,-252,-110,-77,21,9
8855,13,-252,-104,-80,21,8
8860,14,-252,-108,-85,19,8
8865,10,-254,-108,-88,20,5
8870,11,-256,-100,-94,21,3
8875,8,-253,-106,-97,21,3
8880,12,-258,-107,-96,22,1
8885,14,-259,-107,-94,22,0
8890,12,-259,-95,-90,22,-1
8895,9,-257,-110,-84,21,0
8900,12,-256,-106,-80,20,-3
8905,11,-256,-107,-73,18,-4
8910,9,-255,-105,-69,17,-5
8915,10,-257,-104,-64,16,-6
8920,11,-256,-104,-62,13,-7
8925,8,-254,-109,-61,12,-6
8930,13,-254,-106,-58,10,-7
8935,13,-255,-106,-56,9,-8
8940,13,-256,-106,-52,7,-9
8945,14,-251,-104,-52,11,-8
8950,11,-253,-108,-52,12,-7
8955,12,-253,-107,-54,15,-7
8960,10,-255,-106,-55,17,-6
8965,9,-254,-105,-55,19,-6
8970,12,-257,-105,-54,22,-6
8975,12,-255,-103,-50,24,-5
8980,15,-256,-103,-48,25,-6
8985,13,-257,-102,-45,24,-6
8990,13,-256,-103,-44,23,-7
8995,16,-257,-103,-40,23,-8
9000,15,-255,-106,-39,21,-10
9005,12,-257,-105,-37,20,-13
9010,10,-254,-103,-34,18,-13
9015,12,-256,-104,-32,18,-15
9020,14,-256,-107,-30,17,-15
9025,12,-252,-104,-29,15,-16
9030,13,-256,-107,-27,13,-17
9035,13,-256,-104,-27,12,-16
9040,13,-255,-104,-25,10,-17
9045,13,-256,-106,-26,8,-17
9050,13,-255,-104,-27,7,-18
9055,14,-255,-106,-23,7,-17
9060,13,-256,-108,-18,6,-17
9065,12,-253,-107,-18,7,-17
9070,13,-255,-106,-17,7,-17
9075,12,-254,-108,-15,9,-17
9080,14,-256,-107,-13,9,-18
9085,13,-255,-111,-14,8,-17
9090,10,-252,-111,-11,7,-17
9095,14,-255,-107,-10,9,-17
9100,10,-251,-106,-10,7,-16
9105,12,-250,-108,-9,9,-17
9110,9,-252,-113,-11,10,-17
9115,12,-253,-111,-10,11,-16
9120,14,-253,-109,-12,11,-15
9125,14,-254,-104,-15,13,-15
9130,12,-253,-107,-15,15,-13
9135,13,-253,-103,-15,18,-12
9140,13,-255,-106,-17,21,-11
9145,8,-250,-110,-17,20,-10
9150,9,-253,-107,-21,20,-8
9155,8,-248,-108,-22,18,-8
9160,10,-251,-106,-25,17,-10
9165,15,-256,-109,-29,16,-10
9170,9,-254,-106,-28,16,-8
9175,11,-254,-104,-30,16,-8
9180,9,-253,-106,-28,15,-7
9185,8,-256,-108,-29,14,-8
9190,10,-256,-105,-29,13,-7
9195,10,-256,-107,-30,12,-7
9200,11,-256,-103,-31,11,-6
9205,8,-258,-109,-29,12,-5
9210,10,-258,-104,-27,8,-6
9215,12,-256,-105,-25,7,-7
9220,9,-253,-113,-21,5,-6
9225,11,-255,-103,-17,3,-6
9230,11,-255,-106,-17,4,-5
9235,10,-255,-107,-16,1,-5
9240,9,-253,-104,-16,0,-6
9245,9,-252,-106,-16,0,-6
9250,9,-253,-107,-16,-2,-5
9255,10,-250,-105,-15,-5,-5
9260,10,-252,-108,-15,-8,-8
9265,10,-252,-107,-14,-8,-8
9270,5,-255,-109,-15,-11,-8
9275,5,-245,-101,-17,-12,-7
9280,6,-251,-105,-19,-13,-7
9285,8,-255,-105,-23,-15,-8
9290,7,-255,-103,-27,-16,-8
9295,6,-252,-109,-28,-19,-9
9300,7,-255,-104,-30,-19,-10
9305,8,-255,-107,-28,-22,-10
9310,11,-256,-104,-27,-23,-9
9315,11,-255,-105,-22,-23,-10
9320,10,-256,-104,-19,-22,-11
9325,10,-255,-109,-14,-22,-9
9330,13,-258,-109,-11,-23,-8
9335,11,-255,-101,-10,-23,-8
9340,9,-254,-103,-12,-22,-5
9345,13,-256,-106,-14,-21,-4
9350,12,-253,-102,-20,-20,-3
9355,13,-253,-107,-22,-17,-3
9360,8,-255,-110,-25,-14,-1
9365,11,-252,-103,-28,-12,0
9370,10,-253,-106,-34,-11,0
9375,11,-254,-101,-35,-11,-1
9380,8,-260,-103,-36,-11,0
9385,14,-255,-101,-38,-12,0
9390,13,-257,-107,-38,-14,-1
9395,13,-257,-107,-38,-17,-2
9400,9,-255,-105,-38,-17,-3
9405,11,-256,-102,-35,-18,-3
9410,11,-257,-102,-34,-18,-5
9415,11,-257,-105,-32,-19,-5
9420,13,-257,-98,-28,-20,-5
9425,13,-256,-103,-28,-23,-5
9430,9,-256,-107,-27,-26,-6
9435,11,-248,-101,-23,-28,-6
9440,12,-256,-103,-21,-29,-7
9445,11,-255,-106,-18,-28,-7
9450,13,-255,-109,-17,-27,-6
9455,13,-252,-104,-17,-24,-5
9460,15,-254,-107,-17,-21,-7
9465,13,-254,-104,-18,-20,-6
9470,12,-255,-109,-18,-19,-6
9475,12,-252,-105,-18,-16,-8
9480,12,-254,-107,-22,-16,-6
9485,15,-253,-106,-23,-14,-7
9490,12,-252,-104,-24,-14,-7
9495,11,-254,-105,-26,-15,-9
9500,12,-256,-103,-27,-13,-8
9505,14,-256,-102,-27,-12,-9
9510,11,-251,-107,-27,-11,-8
9515,11,-254,-106,-27,-9,-8
9520,13,-256,-105,-27,-8,-7
9525,11,-253,-102,-30,-8,-8
9530,12,-252,-103,-34,-7,-7
9535,12,-257,-105,-38,-9,-7
9540,11,-253,-101,-39,-9,-8
9545,12,-255,-111,-38,-10,-7
9550,11,-256,-106,-38,-10,-7
9555,12,-256,-104,-33,-8,-9
9560,10,-254,-103,-32,-9,-7
9565,9,-255,-103,-29,-7,-9
9570,10,-255,-107,-28,-6,-10
9575,15,-254,-100,-28,-7,-10
9580,16,-255,-101,-26,-8,-11
9585,13,-255,-105,-25,-10,-11
9590,11,-254,-100,-25,-10,-10
9595,10,-254,-107,-24,-12,-10
9600,11,-252,-107,-25,-12,-10
9605,9,-252,-103,-26,-10,-10
9610,13,-256,-105,-24,-6,-9
9615,12,-256,-104,-25,-5,-9
9620,12,-253,-107,-24,-4,-8
9625,12,-253,-103,-25,-5,-8
9630,11,-256,-106,-28,-5,-6
9635,16,-256,-105,-32,-3,-6
9640,15,-254,-104,-33,-1,-6
9645,10,-255,-106,-37,-1,-6
9650,10,-254,-106,-38,1,-5
9655,12,-256,-103,-38,1,-7
9660,13,-255,-104,-37,0,-6
9665,11,-254,-105,-40,-2,-6
9670,10,-254,-106,-39,-1,-7
9675,12,-255,-106,-38,-1,-6
9680,10,-255,-104,-36,-1,-7
9685,14,-255,-105,-37,-1,-6
9690,12,-255,-109,-39,1,-7
9695,12,-256,-101,-38,0,-5
9700,13,-256,-110,-37,0,-6
9705,12,-256,-105,-35,0,-6
9710,11,-252,-105,-32,-1,-5
9715,13,-254,-105,-32,-2,-4
9720,11,-255,-104,-33,-3,-5
9725,13,-254,-105,-33,-2,-5
9730,21,-254,-104,-33,0,-3
9735,12,-258,-101,-34,3,-1
9740,11,-256,-99,-34,10,1
9745,13,-251,-98,-38,10,-2
9750,14,-254,-108,-41,5,-3
9755,8,-254,-106,-43,5,-3
9760,10,-256,-103,-43,5,-4
9765,6,-253,-102,-43,5,-4
9770,13,-257,-104,-44,4,-3
9775,14,-257,-104,-44,4,-4
9780,11,-255,-104,-45,2,-5
9785,12,-257,-106,-44,2,-5
9790,13,-255,-106,-42,2,-6
9795,14,-256,-108,-41,2,-6
9800,10,-257,-104,-40,4,-6
9805,13,-256,-102,-40,6,-6
9810,13,-255,-103,-40,5,-7
9815,14,-256,-103,-40,4,-6
9820,10,-252,-108,-39,2,-6
9825,12,-255,-103,-40,1,-7
9830,11,-256,-102,-40,1,-7
9835,15,-256,-105,-41,2,-4
9840,12,-254,-105,-38,3,-5
9845,13,-254,-102,-38,5,-5
9850,12,-257,-98,-39,7,-4
9855,10,-254,-101,-41,9,-3
9860,15,-255,-103,-40,12,-3
9865,15,-256,-103,-38,14,-1
9870,11,-256,-105,-37,16,-3
9875,15,-254,-101,-34,15,0
9880,11,-254,-99,-35,17,-2
9885,12,-254,-105,-35,17,-2
9890,12,-253,-100,-38,18,0
9895,8,-253,-104,-40,20,2
9900,10,-256,-102,-44,22,1
9905,10,-256,-104,-45,24,3
9910,15,-257,-104,-47,23,3
9915,14,-256,-105,-47,23,3
9920,13,-255,-101,-46,25,4
9925,14,-253,-103,-46,23,2
9930,10,-255,-102,-46,22,0
9935,10,-255,-104,-46,21,1
9940,11,-255,-101,-46,20,0
9945,10,-254,-105,-45,20,-1
9950,13,-256,-106,-41,19,-1
9955,12,-255,-104,-39,18,-3
9960,10,-256,-104,-37,16,-5
9965,9,-252,-107,-35,16,-6
9970,8,-251,-101,-34,14,-7
9975,11,-251,-103,-33,13,-6
9980,8,-255,-101,-34,10,-7
9985,11,-254,-104,-34,9,-5
9990,14,-257,-103,-35,8,-7
9995,10,-254,-105,-36,7,-5
