timestamp,acc_x,acc_y,acc_z,gyro_x,gyro_y,gyro_z
0,-8,-251,-56,-4,67,-1
5,-5,-252,-54,-7,66,-1
10,-10,-250,-58,-9,65,-1
15,-15,-249,-51,-11,64,-2
20,-8,-249,-56,-13,63,-3
25,-4,-253,-57,-12,63,-2
30,-15,-249,-58,-13,63,-4
35,-11,-249,-60,-13,64,-4
40,-7,-253,-59,-13,64,-3
45,-4,-253,-57,-12,66,-4
50,-3,-253,-56,-9,66,-4
55,-8,-254,-58,-6,67,-4
60,-6,-253,-60,-2,69,-3
65,-7,-252,-58,2,69,-2
70,-7,-252,-57,4,68,-3
75,-8,-256,-60,5,66,-3
80,-4,-256,-59,6,65,-5
85,-5,-250,-61,6,64,-3
90,-7,-250,-60,6,64,-5
95,-10,-251,-58,5,63,-4
100,-17,-250,-59,2,63,-4
105,-13,-250,-62,-2,62,-4
110,-8,-252,-59,-4,60,-4
115,-8,-252,-57,-4,61,-6
120,-6,-253,-56,0,58,-5
125,-6,-253,-56,3,59,-6
130,-5,-252,-57,5,60,-5
135,-6,-254,-59,8,60,-5
140,-7,-254,-60,6,60,-5
145,-10,-249,-58,3,61,-5
150,-8,-249,-61,0,61,-5
155,-9,-250,-60,-2,63,-4
160,-11,-249,-56,-1,63,-3
165,-12,-249,-58,0,63,-2
170,-11,-249,-55,3,64,-2
175,-13,-251,-56,6,68,-2
180,-12,-250,-53,10,70,-1
185,-11,-251,-52,13,71,-1
190,-7,-251,-58,13,73,-1
195,-7,-250,-52,13,70,0
200,-4,-252,-61,10,70,1
205,-5,-252,-58,6,68,0
210,-12,-250,-56,6,69,-1
215,-16,-250,-53,4,68,0
220,-12,-250,-54,1,67,-1
225,-7,-252,-55,-1,66,-2
230,-8,-250,-57,-3,66,-3
235,-8,-251,-57,-5,66,-3
240,-8,-252,-58,-3,67,-4
245,-11,-249,-57,-5,67,-5
250,-11,-251,-58,-5,70,-4
255,-7,-252,-59,-7,73,-4
260,-8,-252,-58,-5,73,-3
265,-11,-252,-56,-5,72,-5
270,-11,-250,-59,-5,70,-4
275,-7,-253,-63,-3,69,-4
280,-6,-254,-59,-2,68,-4
285,-10,-252,-60,2,68,-5
290,-10,-252,-60,5,67,-4
295,-6,-253,-58,8,67,-3
300,-8,-253,-59,8,66,-3
305,-8,-252,-57,9,67,-1
310,-12,-251,-58,9,68,-1
315,-12,-250,-55,10,69,-4
320,-12,-250,-58,10,68,-3
325,-3,-251,-56,10,67,-4
330,-5,-252,-57,11,66,-4
335,-9,-249,-60,12,65,-4
340,-6,-250,-56,12,67,-4
345,-7,-250,-59,12,68,-5
350,-8,-249,-55,9,68,-4
355,-6,-254,-61,6,69,-4
360,-7,-253,-58,6,70,-5
365,-3,-255,-56,6,68,-4
370,-8,-250,-55,8,68,-4
375,-7,-249,-56,6,67,-3
380,-9,-250,-56,5,68,-4
385,-5,-249,-55,4,66,-4
390,-9,-253,-58,1,65,-6
395,-7,-250,-54,-1,64,-6
400,-8,-252,-65,-2,64,-5
405,-8,-251,-57,-3,65,-5
410,-11,-250,-57,-1,68,-5
415,-10,-249,-57,-1,68,-5
420,-10,-249,-58,-1,70,-6
425,-11,-248,-56,-3,73,-7
430,-6,-254,-52,-3,73,-5
435,-8,-251,-58,-3,74,-5
440,-8,-251,-54,-2,72,-5
445,-8,-251,-54,-2,72,-7
450,-9,-252,-55,-3,70,-8
455,-8,-253,-53,-2,71,-4
460,-9,-250,-54,-3,72,-5
465,-12,-249,-55,-5,73,-4
470,-7,-251,-52,-5,74,-5
475,-9,-253,-54,-4,74,-6
480,-5,-252,-54,-4,74,-6
485,-9,-251,-57,-2,74,-7
490,-9,-250,-56,-1,73,-6
495,-9,-252,-55,2,71,-5
500,-8,-251,-52,4,70,-5
505,-11,-255,-54,4,70,-5
510,-9,-249,-56,4,68,-6
515,-9,-252,-49,3,67,-5
520,-9,-248,-54,1,66,-6
525,-9,-252,-55,1,67,-6
530,-5,-253,-58,-2,69,-7
535,-4,-252,-54,-2,72,-5
540,-8,-251,-56,-3,73,-5
545,-10,-250,-53,-5,73,-5
550,-9,-254,-56,-3,72,-7
555,-10,-251,-54,-1,70,-7
560,-8,-253,-57,1,71,-7
565,-10,-253,-56,5,71,-8
570,-5,-252,-57,8,74,-7
575,-11,-250,-60,8,72,-7
580,-14,-248,-56,9,71,-8
585,-9,-249,-55,9,72,-8
590,-10,-252,-55,7,72,-7
595,-8,-251,-54,4,70,-7
600,-9,-251,-56,4,71,-6
605,-8,-251,-55,2,70,-5
610,-5,-251,-57,1,70,-6
615,-4,-253,-55,2,70,-5
620,-11,-248,-51,2,70,-4
625,-7,-251,-53,0,70,-4
630,-8,-253,-56,-3,70,-5
635,-9,-251,-54,-4,69,-6
640,-7,-251,-54,-7,71,-6
645,-6,-253,-54,-7,72,-7
650,-10,-251,-52,-8,69,-6
655,-10,-254,-55,-4,69,-5
660,-10,-252,-58,0,69,-5
665,-5,-252,-53,2,68,-5
670,-7,-253,-56,5,68,-6
675,-8,-250,-57,5,70,-7
680,-8,-251,-56,7,72,-7
685,-8,-251,-56,3,73,-6
690,-10,-249,-57,-3,73,-6
695,-8,-251,-56,-6,72,-7
700,-7,-252,-56,-8,71,-5
705,-12,-253,-52,-5,69,-5
710,-11,-251,-55,-5,71,-5
715,-10,-250,-51,-3,70,-6
720,-9,-254,-57,-2,70,-5
725,-9,-252,-55,0,70,-6
730,-5,-250,-46,0,69,-5
735,-5,-251,-55,1,69,-5
740,-7,-252,-52,0,68,-5
745,-11,-250,-54,1,67,-5
750,-8,-251,-52,1,67,-6
755,-8,-253,-54,0,68,-5
760,-9,-252,-54,-4,68,-5
765,-8,-251,-53,-5,68,-6
770,-6,-250,-50,-6,67,-6
775,-5,-251,-51,-6,68,-6
780,-11,-251,-54,-6,69,-5
785,-11,-250,-54,-6,68,-5
790,-11,-253,-53,-5,70,-6
795,-10,-250,-54,-6,69,-4
800,-8,-252,-50,-4,69,-5
805,-8,-252,-50,-5,68,-5
810,-11,-251,-51,-5,66,-3
815,-11,-253,-54,-5,66,-3
820,-10,-251,-54,-5,68,-3
825,-8,-250,-53,-5,70,-4
830,-8,-251,-54,-5,70,-4
835,-11,-253,-54,-4,71,-5
840,-8,-249,-56,-5,70,-6
845,-6,-251,-52,-6,67,-5
850,-5,-251,-53,-6,67,-3
855,-8,-249,-56,-8,65,-3
860,-5,-250,-56,-10,66,-3
865,-6,-251,-54,-11,64,-4
870,-10,-250,-53,-13,65,-4
875,-7,-252,-55,-15,64,-5
880,-7,-250,-51,-15,66,-7
885,-9,-254,-50,-12,64,-6
890,-9,-252,-51,-7,65,-5
895,-7,-250,-55,0,63,-6
900,-8,-252,-55,5,65,-6
905,-7,-254,-54,8,65,-6
910,-7,-252,-55,6,68,-4
915,-4,-252,-55,5,67,-3
920,-8,-251,-56,3,66,-2
925,-9,-251,-52,0,63,-2
930,-9,-252,-49,-1,64,-1
935,-7,-251,-52,-1,63,-1
940,-10,-249,-53,0,64,-1
945,-7,-245,-56,0,64,1
950,-6,-251,-51,0,65,2
955,-9,-249,-54,0,68,2
960,-8,-252,-50,-3,69,0
965,-5,-251,-54,-6,69,0
970,-5,-251,-53,-9,68,-2
975,-8,-250,-53,-10,67,-3
980,-10,-250,-53,-11,65,-2
985,-8,-247,-53,-10,63,-3
990,-8,-249,-53,-11,62,-4
995,-7,-248,-51,-12,62,-6
1000,-6,-250,-54,-11,63,-4
1005,-8,-252,-56,-9,65,-5
1010,-8,-250,-53,-10,64,-5
1015,-9,-250,-56,-9,65,-4
1020,-7,-251,-54,-10,65,-3
1025,-7,-254,-56,-10,65,-3
1030,-6,-253,-53,-10,66,-2
1035,-7,-254,-55,-7,66,-2
1040,-7,-253,-54,-3,65,0
1045,-10,-250,-56,1,67,-2
1050,-8,-251,-53,4,66,-2
1055,-6,-253,-47,3,67,-1
1060,-9,-252,-55,1,66,-2
1065,-5,-255,-54,0,66,-2
1070,-5,-251,-54,-1,65,-3
1075,-8,-254,-52,-2,66,-2
1080,-11,-252,-54,1,67,-4
1085,-6,-252,-52,3,65,-2
1090,-7,-250,-54,2,65,-2
1095,-6,-252,-52,0,65,-3
1100,-5,-253,-54,-2,65,-3
1105,-9,-252,-56,-4,67,-5
1110,-9,-251,-53,-3,67,-4
1115,-5,-252,-52,-2,66,-4
1120,-5,-254,-51,-4,67,-3
1125,-8,-248,-51,-5,66,-3
1130,-10,-252,-51,-6,65,-3
1135,-10,-249,-55,-7,65,-3
1140,-7,-253,-52,-9,65,-3
1145,-5,-249,-50,-10,65,-3
1150,-8,-249,-55,-8,65,-4
1155,-4,-255,-56,-7,64,-4
1160,-5,-251,-52,-6,63,-3
1165,-10,-251,-58,-5,60,-5
1170,-8,-249,-54,-6,60,-4
1175,-7,-252,-51,-6,60,-4
1180,-9,-250,-54,-8,61,-4
1185,-5,-251,-52,-9,64,-3
1190,-6,-250,-57,-12,64,-3
1195,-8,-248,-52,-15,66,-2
1200,-2,-250,-54,-16,68,-3
1205,-7,-253,-51,-19,70,-2
1210,-6,-249,-52,-19,69,-2
1215,-7,-252,-53,-20,71,-1
1220,-8,-255,-55,-19,71,-2
1225,-6,-254,-50,-15,70,-3
1230,-9,-250,-54,-12,69,-3
1235,-7,-252,-52,-9,66,-2
1240,-9,-252,-53,-8,66,-3
1245,-6,-254,-53,-7,66,-1
1250,-8,-250,-56,-9,66,-3
1255,-6,-251,-54,-10,66,-2
1260,-3,-250,-54,-10,66,-3
1265,-10,-252,-54,-11,67,-3
1270,-10,-250,-54,-10,68,-3
1275,-13,-258,-55,-11,68,-2
1280,-10,-251,-55,-11,67,-3
1285,-7,-252,-52,-11,67,-4
1290,-11,-251,-56,-9,67,-4
1295,-9,-251,-53,-8,67,-2
1300,-9,-252,-54,-3,67,-1
1305,-7,-250,-54,-3,69,-2
1310,-8,-249,-57,-3,71,-2
1315,-8,-250,-53,-6,70,-3
1320,-8,-250,-53,-10,70,-3
1325,-7,-250,-54,-10,70,-3
1330,-3,-251,-52,-11,72,-2
1335,-8,-252,-50,-9,69,-3
1340,-8,-253,-55,-7,70,-3
1345,-10,-252,-53,-3,68,-2
1350,-7,-250,-52,-3,68,-4
1355,-8,-252,-54,-3,66,-4
1360,-9,-253,-53,-7,66,-3
1365,-8,-249,-49,-14,66,-5
1370,-12,-249,-55,-17,67,-5
1375,-9,-254,-49,-20,67,-4
1380,-8,-252,-51,-18,66,-4
1385,-15,-250,-62,-17,65,-3
1390,-5,-254,-50,-14,66,-4
1395,-11,-252,-53,-10,67,-4
1400,-8,-252,-56,-9,67,-5
1405,-10,-250,-53,-7,66,-5
1410,-10,-251,-51,-6,66,-4
1415,-9,-251,-56,-6,67,-4
1420,-8,-250,-51,-7,68,-4
1425,-6,-255,-54,-9,67,-3
1430,-7,-251,-54,-11,67,-1
1435,-9,-251,-55,-12,67,-3
1440,-8,-252,-51,-13,66,-4
1445,-7,-252,-55,-14,66,-4
1450,-9,-251,-52,-14,67,-2
1455,-10,-249,-51,-13,67,-4
1460,-8,-251,-55,-11,67,-3
1465,-10,-251,-50,-10,67,-2
1470,-9,-250,-55,-11,66,-3
1475,-11,-250,-55,-11,65,-4
1480,-8,-252,-51,-13,65,-3
1485,-9,-252,-54,-12,67,-3
1490,-9,-251,-53,-11,66,-4
1495,-9,-249,-50,-11,68,-5
1500,-9,-253,-54,-11,69,-5
1505,-10,-251,-54,-10,70,-5
1510,-7,-252,-52,-9,69,-3
1515,-6,-252,-52,-10,71,-2
1520,-10,-251,-55,-9,70,-2
1525,-10,-251,-56,-11,70,-3
1530,-11,-251,-51,-12,69,-2
1535,-8,-251,-56,-14,68,-3
1540,-9,-250,-53,-15,66,-3
1545,-7,-252,-51,-15,68,-3
1550,-6,-256,-51,-15,66,-4
1555,-9,-256,-53,-14,66,-4
1560,-6,-253,-53,-12,65,-4
1565,-8,-253,-51,-10,64,-4
1570,-8,-252,-55,-10,65,-2
1575,-10,-253,-54,-13,64,-4
1580,-7,-251,-56,-16,64,-2
1585,-5,-252,-52,-20,67,-1
1590,-6,-251,-52,-22,69,-1
1595,-9,-252,-58,-26,70,-1
1600,-7,-253,-63,-26,71,0
1605,-8,-252,-54,-25,72,-2
1610,-8,-252,-48,-21,71,-2
1615,-9,-252,-52,-19,70,-1
1620,-8,-251,-53,-16,69,-1
1625,-8,-253,-53,-14,68,-1
1630,-9,-251,-53,-14,67,-1
1635,-10,-249,-52,-13,65,-2
1640,-9,-251,-52,-12,65,-2
1645,-9,-253,-54,-11,62,-1
1650,-9,-251,-51,-10,62,-1
1655,-8,-252,-49,-11,61,-2
1660,-8,-251,-52,-15,61,0
1665,-9,-252,-56,-17,61,-2
1670,-7,-253,-54,-18,60,-4
1675,-10,-252,-53,-17,61,-2
1680,-8,-253,-54,-16,61,-2
1685,-7,-254,-53,-11,61,-3
1690,-6,-252,-50,-5,60,-2
1695,-9,-251,-52,-1,61,-3
1700,-10,-252,-52,2,63,-2
1705,-7,-250,-55,4,63,-2
1710,-1,-247,-58,3,62,-2
1715,-6,-252,-56,-1,63,-3
1720,-8,-251,-54,-5,62,0
1725,-4,-250,-54,-10,63,-3
1730,-6,-250,-52,-12,65,-1
1735,-5,-251,-51,-13,67,-1
1740,-9,-249,-53,-15,67,-1
1745,-8,-251,-54,-15,67,-3
1750,-8,-248,-52,-17,69,-2
1755,-8,-250,-56,-18,70,-3
1760,-10,-252,-54,-22,70,-3
1765,-8,-250,-55,-25,70,-3
1770,-11,-249,-55,-29,68,-2
1775,-7,-253,-53,-29,66,-2
1780,-9,-253,-52,-26,65,-3
1785,-8,-253,-53,-25,63,-3
1790,-6,-255,-54,-23,62,-4
1795,-9,-252,-51,-21,60,-4
1800,-7,-255,-55,-20,60,-2
1805,-8,-252,-56,-19,60,-2
1810,-9,-251,-53,-19,62,-3
1815,-7,-252,-60,-17,63,-2
1820,-8,-253,-51,-16,64,0
1825,-10,-251,-50,-15,63,-1
1830,-2,-254,-50,-15,63,-1
1835,-10,-251,-56,-17,62,0
1840,-6,-251,-53,-20,61,-2
1845,-9,-250,-57,-24,62,-2
1850,-8,-251,-51,-27,64,-2
1855,-8,-250,-57,-26,64,-3
1860,-7,-252,-52,-27,65,-3
1865,-7,-254,-55,-23,65,-3
1870,-7,-251,-53,-23,64,-3
1875,-9,-254,-53,-20,66,-3
1880,-8,-252,-54,-19,65,-3
1885,-11,-251,-52,-17,64,-4
1890,-8,-250,-51,-14,62,-4
1895,-11,-249,-52,-10,60,-3
1900,-9,-248,-53,-9,63,-3
1905,-8,-248,-54,-7,63,-3
1910,-10,-251,-53,-8,61,-3
1915,-11,-248,-55,-13,62,-3
1920,-11,-249,-53,-15,60,-1
1925,-9,-250,-52,-21,62,-1
1930,-8,-250,-51,-23,64,-1
1935,-8,-253,-54,-24,63,-1
1940,-10,-252,-56,-24,64,-1
1945,-5,-249,-55,-23,64,-2
1950,-9,-251,-53,-24,64,-3
1955,-9,-252,-52,-25,64,-3
1960,-5,-255,-52,-24,64,-3
1965,-7,-251,-53,-25,66,-2
1970,-9,-254,-52,-23,64,-3
1975,-7,-252,-55,-21,64,-3
1980,-10,-251,-53,-21,64,-2
1985,-7,-253,-53,-21,62,-2
1990,-8,-251,-51,-20,63,-2
1995,-11,-253,-54,-20,63,-3
2000,-8,-252,-55,-18,64,-1
2005,-11,-251,-56,-16,63,-1
2010,-10,-251,-55,-15,64,-2
2015,-8,-250,-52,-13,62,-1
2020,-5,-250,-54,-12,61,0
2025,-6,-254,-52,-12,61,-1
2030,-11,-252,-55,-13,62,0
2035,-4,-251,-53,-14,62,-1
2040,-4,-251,-56,-17,60,-3
2045,-8,-250,-56,-19,59,-2
2050,-4,-252,-53,-20,59,-1
2055,-6,-248,-56,-23,61,-3
2060,-8,-249,-51,-24,61,-2
2065,-8,-251,-49,-23,63,-4
2070,-6,-251,-52,-23,65,-4
2075,-4,-253,-57,-22,66,-3
2080,-8,-252,-55,-22,66,-3
2085,-6,-253,-53,-23,66,-3
2090,-6,-250,-52,-24,67,-3
2095,-8,-251,-54,-24,68,-3
2100,-8,-250,-54,-25,68,-2
2105,-5,-252,-56,-26,67,-1
2110,-6,-253,-52,-26,66,-2
2115,-6,-253,-54,-26,68,-1
2120,-9,-252,-52,-23,67,0
2125,-7,-252,-52,-19,66,0
2130,-9,-253,-56,-18,66,0
2135,-9,-251,-53,-19,64,-1
2140,-9,-248,-56,-23,62,0
2145,-13,-251,-53,-27,61,-1
2150,-9,-252,-52,-29,63,-1
2155,-8,-249,-52,-31,64,-2
2160,-8,-250,-56,-30,66,-1
2165,-8,-252,-54,-30,66,-2
2170,-9,-252,-59,-30,66,-2
2175,-7,-254,-54,-29,66,-4
2180,-10,-250,-56,-28,68,-2
2185,-6,-250,-58,-29,69,-3
2190,-8,-252,-54,-29,69,-2
2195,-7,-249,-51,-28,67,-3
2200,-7,-255,-54,-29,66,-2
2205,-7,-252,-56,-30,66,-2
2210,-12,-250,-55,-29,66,-2
2215,-10,-251,-52,-27,65,-2
2220,-8,-250,-54,-26,66,-2
2225,-9,-250,-54,-25,67,-1
2230,-7,-251,-55,-24,65,-2
2235,-7,-255,-55,-24,67,1
2240,-6,-252,-52,-25,66,2
2245,-10,-250,-51,-26,65,0
2250,-8,-249,-53,-27,65,-1
2255,-3,-248,-56,-26,65,-2
2260,-8,-248,-51,-27,64,-2
2265,-6,-249,-56,-30,64,-1
2270,-9,-251,-53,-32,64,-2
2275,-8,-251,-56,-35,65,-3
2280,-7,-251,-56,-36,65,-4
2285,-10,-251,-53,-35,65,-3
2290,-7,-250,-55,-34,67,-2
2295,-9,-249,-57,-34,66,-4
2300,-6,-253,-57,-33,66,-1
2305,-8,-250,-55,-35,65,-1
2310,-10,-249,-54,-39,65,-1
2315,-9,-253,-58,-41,66,-2
2320,-9,-250,-54,-43,65,0
2325,-7,-254,-54,-40,65,-1
2330,-8,-252,-49,-38,64,-1
2335,-8,-253,-55,-34,65,-1
2340,-11,-252,-54,-33,65,0
2345,-10,-252,-57,-33,66,0
2350,-7,-252,-55,-33,68,2
2355,-7,-251,-58,-35,66,2
2360,-4,-254,-53,-35,66,2
2365,-12,-251,-57,-36,65,2
2370,-10,-251,-54,-35,64,1
2375,-7,-252,-56,-34,64,0
2380,-10,-250,-58,-34,62,0
2385,-9,-251,-57,-31,62,0
2390,-10,-250,-54,-31,61,0
2395,-4,-252,-57,-29,62,-2
2400,-9,-249,-58,-32,62,-2
2405,-8,-248,-55,-33,64,0
2410,-10,-252,-56,-34,64,-2
2415,-8,-249,-50,-34,63,-1
2420,-12,-249,-58,-34,63,-3
2425,-10,-252,-56,-33,61,-4
2430,-10,-251,-52,-35,63,-1
2435,-10,-248,-55,-32,62,-3
2440,-8,-251,-57,-30,62,-2
2445,-8,-252,-57,-28,61,-4
2450,-8,-253,-58,-26,61,-4
2455,-9,-251,-60,-28,61,-2
2460,-9,-250,-57,-30,61,-3
2465,-8,-252,-56,-31,62,-1
2470,-10,-248,-58,-30,59,-1
2475,-15,-250,-67,-29,59,-1
2480,-10,-251,-57,-24,57,0
2485,-9,-249,-58,-23,55,0
2490,-8,-249,-57,-24,51,-2
2495,-8,-248,-58,-27,52,-2
2500,-9,-250,-58,-30,53,-2
2505,-8,-248,-58,-34,54,-2
2510,-12,-247,-54,-39,56,-2
2515,-9,-251,-57,-44,59,-3
2520,-9,-249,-60,-46,60,-2
2525,-11,-254,-49,-48,63,-2
2530,-7,-253,-59,-48,63,-2
2535,-9,-249,-58,-47,65,-2
2540,-9,-249,-55,-48,63,-3
2545,-9,-251,-55,-48,62,-2
2550,-9,-249,-58,-48,60,-1
2555,-10,-251,-55,-46,59,-2
2560,-8,-255,-58,-44,59,-1
2565,-11,-251,-56,-43,56,-1
2570,-8,-252,-58,-43,56,0
2575,-9,-251,-55,-45,53,-1
2580,-8,-248,-57,-48,52,1
2585,-10,-252,-52,-50,51,-1
2590,-8,-252,-57,-53,49,-1
2595,-9,-251,-57,-55,49,0
2600,-9,-254,-60,-56,50,-2
2605,-8,-251,-58,-53,51,-1
2610,-6,-253,-58,-51,54,-2
2615,-7,-251,-60,-49,53,-4
2620,-10,-253,-58,-47,55,-4
2625,-9,-251,-58,-46,56,-4
2630,-12,-250,-62,-48,58,-3
2635,-11,-251,-56,-51,59,-3
2640,-12,-250,-58,-53,61,-3
2645,-8,-251,-59,-52,62,-3
2650,-4,-250,-61,-51,62,-2
2655,-9,-250,-60,-49,63,-1
2660,-7,-255,-62,-49,65,-2
2665,-11,-254,-58,-46,64,-1
2670,-11,-250,-61,-43,63,-1
2675,-10,-251,-61,-40,64,0
2680,-10,-251,-59,-38,62,-1
2685,-9,-249,-64,-36,60,-1
2690,-10,-250,-59,-36,58,-2
2695,-10,-250,-65,-38,56,-3
2700,-12,-249,-61,-38,56,-2
2705,-9,-249,-62,-39,57,-3
2710,-9,-249,-61,-42,57,-3
2715,-8,-250,-56,-45,58,-2
2720,-10,-248,-58,-49,58,-2
2725,-7,-251,-60,-49,60,-3
2730,-7,-249,-60,-49,60,-2
2735,-6,-250,-58,-48,61,-3
2740,-7,-251,-56,-47,59,-4
2745,-10,-250,-59,-47,59,-4
2750,-8,-251,-60,-48,58,-3
2755,-9,-247,-60,-50,58,-4
2760,-9,-249,-60,-54,60,-1
2765,-9,-249,-62,-58,60,-2
2770,-12,-250,-57,-58,63,-2
2775,-10,-251,-60,-59,61,-1
2780,-9,-251,-59,-58,62,-2
2785,-7,-253,-62,-55,62,-3
2790,-10,-251,-62,-53,65,-3
2795,-9,-247,-60,-51,64,-3
2800,-6,-248,-59,-51,64,-2
2805,-5,-249,-64,-50,65,-2
2810,-9,-253,-62,-51,65,-3
2815,-8,-252,-61,-52,65,-3
2820,-8,-251,-63,-52,66,-2
2825,-6,-252,-59,-52,66,-2
2830,-9,-249,-60,-49,63,-3
2835,-8,-251,-63,-49,64,-2
2840,-11,-248,-64,-51,64,-2
2845,-7,-252,-60,-52,63,-3
2850,-10,-248,-60,-53,65,-4
2855,-9,-248,-64,-54,64,-1
2860,-9,-251,-58,-56,65,-3
2865,-11,-251,-57,-56,64,-3
2870,-9,-253,-58,-55,63,-1
2875,-7,-252,-60,-52,62,-3
2880,-11,-250,-64,-47,62,-1
2885,-4,-252,-63,-44,62,-4
2890,-7,-249,-59,-42,61,-4
2895,-9,-249,-63,-41,59,-4
2900,-8,-250,-62,-41,59,-3
2905,-11,-250,-60,-41,60,-4
2910,-10,-250,-61,-41,61,-3
2915,-11,-250,-64,-43,61,-3
2920,-8,-250,-63,-43,62,-3
2925,-9,-250,-63,-44,63,-4
2930,-10,-250,-56,-44,62,-4
2935,-10,-247,-60,-43,62,-3
2940,-6,-253,-60,-41,64,-4
2945,-10,-249,-63,-40,66,-3
2950,-9,-250,-65,-38,66,-2
2955,-8,-250,-61,-38,66,1
2960,-6,-250,-60,-35,66,-1
2965,-8,-251,-58,-33,67,-3
2970,-11,-248,-59,-31,66,-2
2975,-9,-250,-62,-28,65,-3
2980,-11,-250,-60,-26,63,-3
2985,-11,-249,-65,-27,64,-2
2990,-9,-250,-63,-26,65,-3
2995,-9,-247,-60,-25,65,-4
3000,-10,-248,-65,-23,66,-3
3005,-5,-251,-61,-25,67,-4
3010,-8,-252,-64,-27,67,-3
3015,-10,-248,-67,-27,66,-5
3020,-11,-249,-69,-26,67,-5
3025,-11,-250,-62,-25,66,-5
3030,-8,-249,-66,-22,66,-5
3035,-8,-248,-62,-21,67,-3
3040,-11,-248,-61,-18,67,-5
3045,-7,-249,-61,-18,68,-5
3050,-7,-250,-66,-18,70,-6
3055,-11,-248,-62,-17,69,-6
3060,-11,-249,-62,-14,69,-6
3065,-8,-250,-64,-11,69,-7
3070,-9,-249,-67,-8,67,-5
3075,-9,-248,-63,-8,68,-5
3080,-9,-248,-64,-9,68,-5
3085,-8,-249,-68,-17,72,-3
3090,-13,-248,-68,-27,76,1
3095,-12,-247,-72,-40,82,4
3100,-9,-246,-70,-58,89,9
3105,-14,-244,-69,-77,95,15
3110,-15,-245,-70,-101,102,21
3115,-17,-244,-66,-127,107,25
3120,-13,-247,-65,-152,110,29
3125,-13,-245,-66,-168,111,33
3130,-15,-248,-65,-174,107,35
3135,-14,-247,-67,-176,102,39
3140,-18,-246,-70,-176,97,41
3145,-14,-248,-71,-176,93,43
3150,-13,-246,-75,-176,89,44
3155,-14,-245,-73,-181,85,46
3160,-14,-245,-70,-188,82,44
3165,-11,-245,-71,-194,77,41
3170,-15,-246,-73,-199,72,38
3175,-14,-248,-77,-203,66,36
3180,-13,-245,-78,-205,60,32
3185,-13,-245,-79,-206,55,29
3190,-15,-247,-78,-201,54,25
3195,-13,-248,-80,-196,54,23
3200,-14,-243,-79,-193,56,21
3205,-14,-246,-81,-188,56,17
3210,-15,-243,-80,-182,56,16
3215,-17,-243,-82,-174,54,16
3220,-18,-242,-78,-167,52,15
3225,-15,-243,-84,-159,51,13
3230,-18,-246,-83,-147,48,14
3235,-13,-243,-82,-137,48,15
3240,-17,-243,-84,-130,49,17
3245,-15,-244,-81,-126,50,18
3250,-21,-241,-81,-125,49,19
3255,-17,-239,-79,-129,47,19
3260,-14,-241,-82,-132,42,21
3265,-12,-244,-80,-136,42,21
3270,-16,-240,-83,-141,41,21
3275,-12,-240,-81,-145,40,20
3280,-15,-240,-81,-151,41,20
3285,-11,-244,-84,-155,40,19
3290,-12,-241,-84,-162,39,20
3295,-15,-241,-84,-170,38,18
3300,-14,-238,-82,-179,37,16
3305,-10,-243,-83,-190,38,14
3310,-9,-241,-86,-200,38,12
3315,-11,-241,-83,-209,37,12
3320,-12,-243,-82,-218,42,12
3325,-8,-241,-84,-228,46,12
3330,-12,-243,-86,-236,49,11
3335,-10,-242,-84,-247,52,11
3340,-10,-244,-85,-256,53,12
3345,-18,-245,-90,-267,54,14
3350,-11,-244,-86,-278,57,15
3355,-14,-243,-85,-288,61,16
3360,-13,-244,-91,-298,62,18
3365,-11,-245,-89,-305,64,19
3370,-12,-246,-88,-312,66,21
3375,-13,-245,-88,-314,65,23
3380,-13,-245,-85,-314,63,24
3385,-11,-245,-88,-313,62,27
3390,-12,-246,-91,-314,64,29
3395,-14,-246,-88,-315,61,30
3400,-13,-239,-92,-315,63,33
3405,-15,-240,-88,-316,58,36
3410,-15,-241,-91,-319,54,39
3415,-12,-239,-93,-325,54,40
3420,-16,-236,-95,-331,53,42
3425,-9,-237,-92,-338,53,43
3430,-13,-235,-94,-345,51,45
3435,-12,-237,-94,-355,52,45
3440,-13,-236,-100,-365,54,46
3445,-12,-236,-94,-371,57,46
3450,-13,-235,-98,-379,57,46
3455,-15,-228,-99,-387,54,44
3460,-11,-237,-99,-397,50,45
3465,-15,-232,-97,-405,49,48
3470,-16,-231,-99,-412,47,50
3475,-19,-231,-98,-419,43,49
3480,-17,-232,-101,-433,36,51
3485,-16,-232,-100,-441,28,52
3490,-16,-231,-100,-445,22,52
3495,-15,-232,-99,-444,18,55
3500,-15,-232,-99,-441,15,57
3505,-16,-231,-100,-438,9,60
3510,-19,-233,-103,-437,6,61
3515,-16,-233,-101,-438,0,62
3520,-18,-232,-107,-441,-1,64
3525,-16,-234,-102,-441,-1,65
3530,-13,-236,-105,-441,-3,65
3535,-15,-233,-103,-439,-6,64
3540,-14,-239,-106,-434,-6,60
3545,-15,-237,-109,-428,-5,59
3550,-15,-240,-107,-420,-3,56
3555,-12,-239,-107,-410,-1,54
3560,-11,-238,-107,-400,3,53
3565,-9,-240,-109,-389,7,53
3570,-15,-238,-111,-380,8,51
3575,-12,-241,-110,-371,13,51
3580,-15,-240,-111,-359,18,51
3585,-15,-240,-107,-345,23,49
3590,-15,-236,-109,-332,24,49
3595,-13,-234,-109,-324,27,48
3600,-13,-227,-110,-323,27,46
3605,-12,-226,-109,-329,30,45
3610,-11,-221,-114,-341,31,44
3615,-10,-226,-113,-355,30,44
3620,-10,-223,-105,-367,26,45
3625,-13,-221,-110,-378,21,44
3630,-12,-221,-108,-389,13,46
3635,-10,-222,-111,-398,7,48
3640,-12,-220,-114,-409,1,54
3645,-16,-221,-110,-425,-3,59
3650,-12,-219,-115,-443,-6,61
3655,-16,-224,-113,-462,-8,61
3660,-14,-223,-115,-480,-11,61
3665,-15,-228,-118,-495,-8,60
3670,-9,-227,-112,-504,-6,59
3675,-17,-231,-118,-506,-2,57
3680,-17,-234,-118,-500,2,55
3685,-18,-231,-124,-493,8,55
3690,-13,-230,-122,-489,17,54
3695,-17,-225,-120,-489,32,50
3700,-12,-224,-123,-494,49,47
3705,-17,-220,-121,-502,67,43
3710,-14,-221,-118,-509,81,38
3715,-11,-216,-115,-515,90,33
3720,-15,-216,-112,-522,95,30
3725,-14,-215,-108,-529,98,31
3730,-9,-216,-112,-541,96,31
3735,-13,-212,-109,-561,98,33
3740,-12,-212,-115,-580,107,39
3745,-14,-206,-115,-601,114,46
3750,-13,-207,-116,-622,119,55
3755,-9,-209,-114,-637,121,67
3760,-10,-212,-116,-656,118,74
3765,-9,-213,-125,-684,113,81
3770,-12,-211,-126,-715,110,88
3775,-14,-214,-130,-745,105,98
3780,-12,-215,-139,-770,101,104
3785,-13,-214,-145,-787,98,110
3790,-14,-215,-145,-796,102,113
3795,-20,-213,-145,-800,102,121
3800,-20,-209,-144,-806,104,125
3805,-23,-206,-144,-812,103,129
3810,-22,-208,-136,-813,97,132
3815,-21,-206,-132,-817,90,134
3820,-23,-200,-130,-817,89,132
3825,-23,-201,-129,-821,94,128
3830,-23,-204,-127,-827,104,125
3835,-31,-199,-125,-835,108,119
3840,-25,-203,-126,-846,110,116
3845,-25,-208,-126,-852,106,114
3850,-23,-210,-126,-854,102,112
3855,-27,-213,-130,-855,97,113
3860,-26,-216,-135,-857,93,116
3865,-27,-217,-142,-853,92,122
3870,-22,-219,-145,-848,95,128
3875,-21,-223,-149,-838,100,132
3880,-23,-224,-154,-820,104,136
3885,-25,-218,-157,-799,99,145
3890,-20,-214,-166,-779,87,149
3895,-22,-215,-158,-766,72,152
3900,-24,-209,-160,-755,53,150
3905,-31,-205,-162,-746,32,149
3910,-31,-201,-155,-740,9,151
3915,-27,-200,-155,-745,-7,145
3920,-28,-193,-156,-763,-9,136
3925,-34,-189,-152,-784,2,122
3930,-29,-185,-144,-803,26,111
3935,-30,-186,-142,-819,56,102
3940,-28,-186,-135,-829,91,97
3945,-25,-188,-138,-834,119,95
3950,-28,-189,-138,-833,135,101
3955,-26,-192,-137,-828,141,116
3960,-23,-195,-143,-823,140,140
3965,-19,-199,-145,-816,136,169
3970,-15,-208,-150,-806,128,200
3975,-13,-209,-154,-797,116,230
3980,-11,-212,-160,-788,105,259
3985,-9,-211,-166,-784,93,281
3990,-9,-210,-177,-789,84,299
3995,-13,-212,-182,-805,72,311
4000,-17,-208,-181,-824,56,318
4005,-22,-208,-180,-846,39,313
4010,-24,-207,-176,-868,22,297
4015,-26,-205,-173,-884,14,268
4020,-34,-202,-170,-896,18,232
4025,-40,-196,-168,-905,35,187
4030,-40,-198,-169,-911,67,143
4035,-46,-198,-169,-914,104,104
4040,-48,-197,-167,-914,143,69
4045,-50,-198,-164,-899,171,47
4050,-47,-198,-165,-876,184,40
4055,-50,-202,-170,-845,186,45
4060,-50,-205,-167,-807,170,66
4065,-51,-204,-168,-769,145,100
4070,-46,-206,-169,-732,114,139
4075,-41,-206,-175,-698,83,179
4080,-39,-204,-179,-669,57,216
4085,-36,-205,-185,-646,38,245
4090,-29,-200,-183,-628,30,264
4095,-27,-201,-193,-616,27,276
4100,-22,-202,-193,-611,28,279
4105,-17,-195,-187,-612,39,277
4110,-18,-193,-183,-612,47,272
4115,-15,-190,-182,-616,54,263
4120,-19,-185,-184,-624,57,255
4125,-20,-180,-179,-639,57,246
4130,-24,-180,-177,-655,55,230
4135,-21,-180,-177,-673,52,210
4140,-24,-178,-175,-691,56,189
4145,-29,-178,-178,-707,68,165
4150,-33,-178,-178,-724,84,143
4155,-35,-178,-179,-733,97,128
4160,-41,-181,-182,-736,105,119
4165,-39,-183,-187,-735,110,113
4170,-42,-183,-186,-730,111,113
4175,-40,-183,-188,-718,108,120
4180,-47,-181,-194,-704,102,130
4185,-42,-184,-195,-689,95,145
4190,-46,-184,-199,-680,87,160
4195,-45,-182,-201,-672,80,178
4200,-45,-178,-201,-661,71,192
4205,-44,-179,-201,-652,65,203
4210,-43,-174,-205,-641,65,209
4215,-44,-175,-205,-632,66,213
4220,-44,-173,-204,-627,67,214
4225,-38,-170,-202,-622,69,214
4230,-41,-170,-204,-618,70,214
4235,-38,-169,-202,-612,74,214
4240,-38,-169,-202,-603,79,214
4245,-39,-174,-198,-588,85,214
4250,-36,-174,-199,-572,93,216
4255,-42,-175,-206,-560,96,221
4260,-36,-171,-208,-552,95,225
4265,-39,-167,-206,-550,92,229
4270,-35,-168,-207,-550,88,229
4275,-38,-162,-209,-550,87,226
4280,-43,-162,-208,-552,86,218
4285,-41,-159,-207,-556,89,212
4290,-39,-160,-206,-561,96,205
4295,-41,-159,-207,-563,103,201
4300,-40,-157,-209,-564,112,198
4305,-40,-156,-206,-562,117,198
4310,-42,-153,-205,-559,118,198
4315,-42,-154,-207,-554,121,200
4320,-41,-153,-206,-551,122,202
4325,-44,-149,-206,-546,121,202
4330,-40,-151,-207,-542,117,203
4335,-42,-150,-206,-535,113,204
4340,-43,-149,-211,-526,112,201
4345,-37,-151,-209,-516,110,200
4350,-41,-147,-209,-506,108,197
4355,-41,-147,-208,-498,105,193
4360,-43,-145,-211,-493,101,189
4365,-42,-143,-217,-490,99,185
4370,-42,-144,-214,-487,94,182
4375,-39,-146,-217,-483,90,177
4380,-40,-145,-220,-477,87,172
4385,-40,-145,-222,-471,87,166
4390,-42,-144,-221,-464,90,161
4395,-38,-143,-220,-457,96,156
4400,-37,-143,-222,-449,103,151
4405,-39,-143,-216,-440,111,148
4410,-40,-141,-218,-430,114,146
4415,-41,-143,-218,-423,116,142
4420,-39,-142,-219,-413,115,141
4425,-43,-138,-219,-403,114,143
4430,-39,-141,-218,-396,111,145
4435,-36,-135,-215,-387,106,144
4440,-42,-131,-217,-380,100,143
4445,-41,-129,-220,-372,96,143
4450,-43,-126,-220,-367,92,144
4455,-36,-129,-215,-361,91,142
4460,-41,-127,-222,-356,90,141
4465,-40,-129,-219,-350,87,141
4470,-40,-128,-223,-346,84,138
4475,-41,-130,-219,-342,81,134
4480,-38,-130,-219,-340,81,130
4485,-36,-128,-224,-338,81,127
4490,-38,-130,-225,-334,81,127
4495,-41,-129,-225,-327,82,126
4500,-38,-130,-228,-319,80,125
4505,-38,-131,-222,-311,77,122
4510,-43,-127,-225,-299,74,120
4515,-41,-126,-223,-289,70,119
4520,-41,-131,-225,-281,66,116
4525,-41,-130,-224,-272,62,112
4530,-41,-125,-224,-265,57,107
4535,-41,-125,-223,-252,51,104
4540,-42,-125,-221,-242,47,103
4545,-41,-123,-228,-231,39,102
4550,-38,-127,-225,-219,31,102
4555,-41,-126,-227,-206,23,102
4560,-39,-124,-225,-193,20,104
4565,-39,-123,-222,-187,17,105
4570,-38,-123,-224,-181,14,105
4575,-36,-124,-229,-175,14,103
4580,-36,-123,-226,-169,12,102
4585,-36,-122,-222,-161,10,99
4590,-36,-123,-228,-153,7,94
4595,-37,-124,-225,-144,6,90
4600,-39,-124,-226,-136,3,87
4605,-42,-121,-227,-124,2,80
4610,-40,-124,-222,-112,4,72
4615,-39,-124,-223,-101,7,65
4620,-41,-122,-225,-91,10,58
4625,-40,-120,-223,-82,12,52
4630,-39,-121,-224,-74,16,50
4635,-39,-120,-223,-63,17,50
4640,-36,-121,-226,-54,16,48
4645,-40,-120,-227,-46,18,51
4650,-38,-120,-228,-44,19,49
4655,-39,-118,-227,-44,23,47
4660,-37,-116,-229,-45,26,41
4665,-36,-118,-227,-49,29,37
4670,-38,-117,-223,-52,31,31
4675,-42,-117,-228,-54,34,23
4680,-41,-119,-227,-54,37,16
4685,-39,-117,-224,-53,41,8
4690,-39,-117,-226,-49,44,2
4695,-39,-119,-222,-41,47,-4
4700,-41,-118,-225,-31,49,-9
4705,-43,-118,-230,-21,52,-10
4710,-39,-117,-227,-11,50,-12
4715,-43,-114,-227,-2,49,-13
4720,-41,-117,-225,3,48,-15
4725,-40,-114,-228,4,46,-16
4730,-43,-116,-227,4,44,-16
4735,-39,-117,-221,4,43,-16
4740,-40,-116,-229,4,44,-16
4745,-43,-117,-226,7,45,-15
4750,-42,-115,-227,10,46,-17
4755,-41,-118,-226,13,44,-14
4760,-35,-112,-224,17,43,-12
4765,-44,-116,-228,21,40,-11
4770,-45,-113,-226,28,39,-11
4775,-45,-115,-228,34,38,-11
4780,-44,-117,-224,40,36,-12
4785,-46,-116,-229,46,37,-15
4790,-46,-117,-227,50,38,-16
4795,-45,-116,-225,54,37,-18
4800,-46,-115,-228,58,36,-19
4805,-46,-117,-227,64,35,-23
4810,-43,-116,-224,67,32,-25
4815,-46,-111,-225,69,33,-29
4820,-47,-114,-223,68,29,-33
4825,-45,-112,-224,63,28,-37
4830,-44,-109,-223,59,26,-40
4835,-47,-113,-226,56,29,-42
4840,-46,-112,-225,53,33,-42
4845,-46,-111,-227,57,34,-43
4850,-46,-109,-225,58,34,-44
4855,-46,-110,-227,61,34,-43
4860,-44,-108,-224,65,37,-40
4865,-45,-111,-226,65,36,-42
4870,-50,-111,-228,65,39,-42
4875,-48,-113,-228,63,39,-45
4880,-45,-112,-227,64,39,-46
4885,-49,-112,-224,66,40,-44
4890,-49,-114,-223,66,38,-43
4895,-48,-113,-225,68,39,-41
4900,-49,-111,-221,68,38,-36
4905,-49,-110,-220,70,39,-34
4910,-48,-111,-223,72,38,-33
4915,-49,-111,-226,76,41,-33
4920,-48,-112,-223,78,41,-33
4925,-47,-110,-220,80,40,-33
4930,-47,-112,-224,82,38,-34
4935,-48,-110,-225,83,36,-35
4940,-47,-111,-221,80,35,-35
4945,-46,-114,-223,76,34,-35
4950,-46,-112,-218,72,33,-35
4955,-49,-110,-223,68,32,-34
4960,-48,-112,-220,64,33,-34
4965,-48,-110,-224,59,35,-32
4970,-48,-115,-219,54,37,-30
4975,-50,-113,-223,48,38,-29
4980,-48,-107,-213,43,41,-31
4985,-50,-113,-220,38,43,-30
4990,-48,-111,-222,32,44,-31
4995,-48,-111,-219,27,46,-29
5000,-47,-114,-222,23,47,-27
5005,-48,-109,-222,19,48,-27
5010,-47,-116,-220,15,49,-25
5015,-48,-112,-226,15,49,-22
5020,-47,-112,-225,13,50,-23
5025,-47,-109,-222,8,52,-23
5030,-50,-109,-218,1,54,-25
5035,-47,-111,-224,-7,54,-29
5040,-46,-110,-226,-15,57,-30
5045,-47,-112,-225,-23,59,-29
5050,-50,-109,-221,-30,61,-30
5055,-45,-113,-221,-36,63,-29
5060,-50,-109,-222,-40,62,-30
5065,-49,-114,-222,-42,62,-30
5070,-49,-115,-223,-44,62,-30
5075,-50,-112,-224,-44,62,-31
5080,-50,-112,-223,-44,63,-30
5085,-49,-112,-219,-44,63,-29
5090,-51,-113,-222,-42,65,-28
5095,-52,-115,-220,-42,65,-26
5100,-49,-114,-226,-40,65,-22
5105,-51,-113,-224,-41,64,-22
5110,-49,-114,-222,-39,64,-19
5115,-48,-116,-223,-36,61,-20
5120,-49,-112,-222,-34,59,-19
5125,-50,-112,-224,-31,56,-21
5130,-50,-112,-225,-29,53,-22
5135,-49,-112,-224,-27,52,-23
5140,-47,-116,-225,-26,50,-24
5145,-50,-114,-222,-24,49,-23
5150,-46,-115,-220,-23,50,-23
5155,-49,-113,-220,-24,50,-22
5160,-47,-110,-220,-26,53,-20
5165,-49,-114,-217,-27,52,-21
5170,-48,-113,-222,-27,54,-21
5175,-48,-115,-223,-31,53,-20
5180,-45,-116,-222,-30,53,-21
5185,-46,-116,-223,-31,52,-24
5190,-50,-118,-221,-29,50,-24
5195,-45,-119,-226,-25,48,-24
5200,-46,-119,-222,-19,46,-25
5205,-48,-117,-230,-12,45,-23
5210,-49,-119,-229,-5,47,-22
5215,-45,-119,-227,1,47,-20
5220,-49,-118,-222,6,49,-18
5225,-45,-118,-224,9,50,-17
5230,-45,-116,-221,11,51,-18
5235,-47,-117,-220,12,53,-15
5240,-47,-113,-223,12,53,-14
5245,-48,-117,-219,12,53,-12
5250,-48,-113,-223,10,53,-11
5255,-47,-114,-223,7,52,-10
5260,-47,-117,-222,4,53,-8
5265,-49,-112,-221,0,52,-9
5270,-48,-115,-224,-5,52,-11
5275,-47,-116,-221,-11,51,-13
5280,-46,-113,-225,-17,50,-15
5285,-50,-117,-226,-22,49,-19
5290,-46,-115,-223,-26,50,-22
5295,-49,-118,-225,-27,51,-24
5300,-47,-115,-219,-29,54,-25
5305,-41,-118,-226,-30,55,-25
5310,-47,-117,-222,-29,60,-24
5315,-48,-116,-220,-29,62,-24
5320,-48,-119,-222,-27,63,-23
5325,-49,-119,-224,-27,63,-24
5330,-47,-116,-222,-28,63,-21
5335,-45,-118,-226,-28,62,-19
5340,-48,-118,-224,-30,63,-21
5345,-49,-118,-227,-32,60,-22
5350,-47,-118,-221,-32,60,-24
5355,-47,-117,-225,-32,60,-28
5360,-45,-117,-225,-31,57,-31
5365,-44,-118,-226,-33,57,-34
5370,-44,-116,-223,-34,56,-36
5375,-45,-116,-223,-34,55,-39
5380,-43,-116,-222,-34,55,-41
5385,-44,-114,-224,-37,55,-41
5390,-44,-115,-222,-39,55,-42
5395,-46,-114,-223,-39,55,-44
5400,-45,-118,-222,-37,54,-44
5405,-47,-115,-223,-36,53,-43
5410,-46,-117,-226,-32,53,-41
5415,-49,-116,-224,-31,53,-40
5420,-47,-118,-224,-29,53,-40
5425,-48,-115,-222,-29,54,-39
5430,-44,-117,-224,-28,56,-37
5435,-45,-117,-225,-25,57,-38
5440,-44,-117,-224,-25,58,-37
5445,-44,-115,-222,-25,57,-38
5450,-45,-115,-228,-27,57,-39
5455,-47,-116,-225,-27,56,-41
5460,-46,-117,-224,-26,56,-44
5465,-45,-114,-228,-23,56,-47
5470,-44,-117,-222,-18,56,-51
5475,-45,-115,-228,-16,55,-53
5480,-44,-116,-226,-11,55,-55
5485,-47,-112,-221,-11,54,-55
5490,-47,-115,-217,-11,52,-56
5495,-46,-118,-221,-11,51,-58
5500,-46,-116,-224,-12,48,-58
5505,-50,-114,-219,-13,46,-57
5510,-46,-117,-222,-14,43,-58
5515,-44,-114,-222,-14,42,-57
5520,-43,-115,-223,-16,40,-56
5525,-47,-118,-234,-17,39,-55
5530,-44,-112,-224,-17,40,-52
5535,-46,-113,-225,-16,40,-48
5540,-47,-114,-223,-15,41,-47
5545,-48,-113,-225,-14,44,-44
5550,-44,-113,-223,-12,45,-43
5555,-43,-116,-225,-11,48,-40
5560,-47,-111,-223,-10,50,-40
5565,-44,-114,-223,-10,50,-39
5570,-43,-114,-224,-10,51,-38
5575,-42,-118,-224,-10,50,-39
5580,-44,-115,-220,-9,51,-38
5585,-45,-116,-223,-7,52,-38
5590,-44,-118,-221,-4,52,-41
5595,-44,-117,-226,-3,52,-44
5600,-45,-117,-220,-1,50,-46
5605,-44,-118,-225,1,49,-46
5610,-44,-119,-221,3,52,-49
5615,-49,-119,-226,5,53,-50
5620,-48,-117,-225,6,53,-49
5625,-46,-118,-224,9,55,-48
5630,-46,-113,-227,11,54,-49
5635,-49,-114,-230,11,55,-50
5640,-46,-117,-222,7,55,-50
5645,-46,-117,-223,2,55,-48
5650,-47,-116,-225,-1,56,-48
5655,-46,-116,-223,-5,57,-47
5660,-46,-115,-221,-9,57,-46
5665,-42,-117,-223,-8,57,-47
5670,-43,-116,-221,-11,58,-46
5675,-40,-116,-220,-13,61,-46
5680,-43,-116,-227,-14,62,-46
5685,-46,-114,-224,-15,63,-45
5690,-42,-115,-224,-17,66,-43
5695,-46,-115,-221,-18,66,-41
5700,-44,-117,-225,-15,67,-41
5705,-43,-118,-221,-18,66,-41
5710,-45,-115,-222,-18,64,-42
5715,-48,-116,-229,-18,64,-40
5720,-46,-116,-222,-18,61,-40
5725,-45,-114,-224,-18,59,-40
5730,-46,-114,-220,-18,56,-40
5735,-45,-117,-221,-20,56,-39
5740,-46,-116,-225,-20,54,-40
5745,-45,-115,-222,-21,51,-38
5750,-47,-115,-224,-21,49,-38
5755,-45,-116,-224,-20,49,-38
5760,-47,-116,-221,-18,47,-36
5765,-45,-114,-223,-16,48,-35
5770,-45,-118,-218,-16,49,-35
5775,-46,-115,-220,-17,50,-36
5780,-41,-118,-225,-20,53,-36
5785,-43,-115,-224,-22,52,-34
5790,-46,-116,-225,-22,54,-33
5795,-46,-117,-223,-20,55,-31
5800,-45,-117,-223,-17,55,-28
5805,-47,-119,-228,-16,56,-28
5810,-47,-119,-223,-14,60,-26
5815,-44,-119,-223,-14,62,-26
5820,-45,-116,-224,-13,63,-25
5825,-46,-119,-222,-12,63,-24
5830,-45,-115,-224,-13,66,-22
5835,-45,-115,-226,-14,66,-22
5840,-46,-115,-226,-15,67,-24
5845,-45,-115,-222,-18,66,-24
5850,-52,-115,-232,-21,66,-24
5855,-43,-116,-223,-22,66,-24
5860,-43,-117,-224,-24,67,-24
5865,-45,-118,-223,-23,69,-20
5870,-44,-116,-225,-20,68,-20
5875,-44,-117,-222,-17,70,-18
5880,-44,-117,-225,-15,69,-18
5885,-44,-115,-224,-13,67,-16
5890,-45,-118,-222,-12,70,-15
5895,-45,-118,-224,-11,70,-14
5900,-47,-117,-218,-11,69,-13
5905,-47,-118,-222,-9,68,-12
5910,-45,-114,-221,-8,66,-12
5915,-44,-116,-221,-6,64,-12
5920,-49,-117,-221,-6,62,-14
5925,-45,-119,-225,-5,59,-16
5930,-49,-118,-227,-4,59,-15
5935,-48,-118,-223,0,56,-15
5940,-48,-117,-224,3,55,-15
5945,-45,-116,-220,3,53,-16
5950,-45,-118,-221,3,56,-14
5955,-47,-118,-226,5,54,-13
5960,-43,-114,-222,6,56,-14
5965,-47,-115,-223,7,57,-13
5970,-44,-115,-224,5,56,-11
5975,-46,-117,-223,2,59,-9
5980,-46,-116,-224,0,58,-8
5985,-44,-118,-223,-2,58,-6
5990,-45,-115,-222,-4,58,-4
5995,-45,-113,-225,-6,58,-3
6000,-49,-113,-223,-7,58,-3
6005,-45,-115,-219,-5,58,-5
6010,-44,-115,-223,-3,60,-5
6015,-47,-118,-224,-4,60,-2
6020,-43,-117,-221,-2,63,-1
6025,-46,-115,-222,-3,62,0
6030,-47,-115,-224,-2,61,2
6035,-48,-114,-220,-2,61,2
6040,-45,-119,-223,-2,61,3
6045,-46,-117,-225,-2,61,2
6050,-47,-116,-229,-1,60,1
6055,-48,-115,-223,-3,59,3
6060,-46,-116,-222,-3,57,2
6065,-48,-111,-223,-4,58,3
6070,-47,-116,-224,-4,57,4
6075,-46,-115,-225,-2,58,3
6080,-47,-115,-221,-1,59,3
6085,-45,-113,-222,1,59,1
6090,-46,-116,-223,1,60,-3
6095,-46,-116,-220,1,61,-1
6100,-47,-116,-223,2,62,-1
6105,-44,-113,-226,0,62,-2
6110,-46,-116,-220,-2,65,-2
6115,-45,-115,-225,-5,65,-1
6120,-47,-118,-226,-7,66,-2
6125,-46,-115,-226,-10,68,-2
6130,-46,-116,-227,-13,71,-3
6135,-46,-116,-227,-15,73,-4
6140,-47,-116,-227,-18,76,-3
6145,-46,-116,-227,-19,79,-1
6150,-47,-118,-224,-20,80,0
6155,-44,-120,-224,-20,80,0
6160,-49,-117,-224,-18,81,-1
6165,-47,-116,-224,-15,81,-1
6170,-47,-115,-225,-11,81,-2
6175,-46,-118,-226,-6,79,-4
6180,-48,-114,-221,-5,77,-6
6185,-47,-117,-220,-2,75,-8
6190,-50,-115,-219,-2,72,-10
6195,-47,-114,-222,-5,72,-11
6200,-48,-115,-224,-4,69,-12
6205,-47,-111,-220,-5,68,-14
6210,-49,-117,-221,-5,66,-12
6215,-50,-111,-221,-5,64,-12
6220,-46,-110,-221,-5,62,-11
6225,-46,-114,-222,-6,61,-11
6230,-47,-115,-224,-4,59,-10
6235,-48,-111,-226,-4,59,-10
6240,-47,-115,-227,-3,61,-8
6245,-45,-117,-227,-5,63,-7
6250,-46,-115,-224,-5,63,-5
6255,-47,-116,-226,-7,65,-3
6260,-48,-114,-222,-8,69,-2
6265,-48,-115,-220,-7,71,-2
6270,-48,-115,-221,-7,73,0
6275,-44,-116,-221,-6,73,1
6280,-44,-116,-220,-6,72,2
6285,-44,-117,-221,-6,70,3
6290,-47,-115,-224,-5,69,4
6295,-49,-117,-219,-6,68,6
6300,-46,-116,-224,-7,67,3
6305,-44,-117,-226,-8,66,6
6310,-46,-114,-222,-11,65,5
6315,-48,-114,-221,-13,62,7
6320,-47,-117,-222,-14,62,6
6325,-47,-114,-224,-17,63,3
6330,-48,-117,-225,-16,64,3
6335,-47,-114,-223,-18,64,2
6340,-48,-112,-223,-17,63,4
6345,-47,-114,-223,-16,64,4
6350,-49,-114,-222,-16,65,7
6355,-49,-118,-222,-16,65,10
6360,-50,-115,-216,-15,65,11
6365,-50,-115,-221,-13,64,13
6370,-48,-118,-222,-11,63,13
6375,-47,-116,-224,-10,63,13
6380,-50,-112,-224,-8,63,13
6385,-47,-115,-221,-9,65,11
6390,-49,-115,-221,-8,65,12
6395,-34,-114,-224,-10,66,11
6400,-47,-117,-221,-12,66,10
6405,-45,-116,-219,-14,66,9
6410,-46,-115,-223,-15,64,8
6415,-48,-112,-224,-17,64,6
6420,-45,-118,-225,-21,64,4
6425,-46,-117,-225,-24,64,6
6430,-47,-118,-223,-26,64,6
6435,-49,-117,-225,-29,65,6
6440,-47,-120,-227,-33,64,7
6445,-45,-117,-225,-33,65,5
6450,-45,-118,-221,-36,65,1
6455,-47,-119,-223,-40,67,0
6460,-43,-119,-221,-42,68,-3
6465,-46,-117,-223,-44,70,-5
6470,-45,-118,-223,-49,70,-5
6475,-43,-120,-223,-54,70,-6
6480,-46,-117,-224,-58,69,-4
6485,-47,-115,-225,-64,68,-4
6490,-48,-117,-219,-67,68,0
6495,-43,-117,-223,-70,67,0
6500,-43,-117,-218,-72,67,2
6505,-51,-120,-226,-73,65,3
6510,-47,-116,-223,-76,66,4
6515,-43,-119,-222,-78,66,5
6520,-46,-116,-221,-81,68,4
6525,-45,-115,-223,-83,68,2
6530,-45,-119,-222,-88,68,1
6535,-47,-114,-225,-95,71,-1
6540,-46,-119,-224,-101,71,-5
6545,-45,-118,-218,-108,74,-4
6550,-46,-119,-220,-115,75,-6
6555,-47,-120,-221,-122,75,-5
6560,-46,-120,-224,-130,76,-5
6565,-47,-120,-224,-140,76,-2
6570,-44,-120,-221,-150,77,0
6575,-45,-120,-223,-161,77,0
6580,-47,-119,-224,-170,79,3
6585,-46,-120,-223,-181,80,3
6590,-41,-121,-225,-190,80,3
6595,-45,-123,-229,-191,80,1
6600,-43,-124,-223,-190,80,-2
6605,-42,-123,-228,-182,79,-8
6610,-40,-124,-229,-171,80,-15
6615,-44,-121,-227,-158,81,-25
6620,-42,-126,-225,-145,83,-37
6625,-38,-121,-222,-136,84,-46
6630,-39,-122,-224,-128,84,-53
6635,-42,-122,-228,-122,86,-58
6640,-44,-120,-228,-120,89,-62
6645,-42,-120,-230,-120,92,-62
6650,-43,-119,-227,-123,92,-64
6655,-42,-118,-227,-125,92,-63
6660,-44,-120,-226,-126,90,-63
6665,-45,-120,-228,-125,87,-64
6670,-44,-122,-223,-122,85,-66
6675,-45,-119,-226,-114,83,-69
6680,-43,-123,-227,-102,85,-71
6685,-43,-123,-226,-88,89,-73
6690,-41,-124,-225,-72,92,-75
6695,-42,-125,-227,-58,96,-76
6700,-40,-125,-224,-43,97,-78
6705,-40,-125,-225,-26,96,-80
6710,-37,-129,-225,-7,93,-81
6715,-37,-128,-226,14,92,-81
6720,-43,-132,-224,39,92,-82
6725,-36,-130,-225,68,90,-85
6730,-36,-136,-228,98,87,-89
6735,-38,-134,-233,124,84,-97
6740,-39,-132,-233,148,84,-107
6745,-40,-135,-235,165,81,-115
6750,-40,-136,-232,179,81,-126
6755,-40,-133,-232,191,83,-136
6760,-43,-135,-236,199,83,-147
6765,-45,-134,-232,208,86,-156
6770,-44,-134,-225,216,90,-163
6775,-44,-136,-228,224,95,-167
6780,-45,-136,-231,231,100,-171
6785,-49,-134,-230,241,103,-173
6790,-46,-137,-231,257,103,-177
6795,-44,-141,-225,278,103,-182
6800,-47,-138,-223,300,103,-185
6805,-44,-138,-220,325,103,-191
6810,-44,-137,-223,350,104,-195
6815,-42,-134,-223,371,105,-200
6820,-42,-135,-223,394,103,-202
6825,-41,-140,-220,414,102,-202
6830,-45,-138,-225,434,99,-202
6835,-39,-137,-219,451,96,-201
6840,-39,-134,-222,468,93,-200
6845,-40,-137,-221,484,87,-201
6850,-35,-140,-222,499,83,-204
6855,-37,-141,-224,516,79,-209
6860,-36,-141,-220,533,78,-216
6865,-39,-141,-218,549,77,-223
6870,-38,-144,-221,565,75,-229
6875,-39,-141,-221,578,76,-234
6880,-41,-141,-220,587,76,-240
6885,-42,-146,-223,596,77,-243
6890,-42,-145,-219,606,74,-249
6895,-43,-147,-217,622,74,-252
6900,-41,-149,-218,637,74,-256
6905,-41,-149,-217,651,76,-256
6910,-42,-152,-218,662,76,-256
6915,-43,-152,-217,673,79,-255
6920,-40,-153,-216,685,81,-254
6925,-43,-154,-215,697,82,-251
6930,-42,-154,-212,709,84,-249
6935,-42,-153,-210,719,84,-248
6940,-38,-155,-208,727,84,-247
6945,-36,-160,-210,738,88,-245
6950,-35,-157,-211,750,88,-243
6955,-35,-158,-209,763,89,-241
6960,-40,-158,-204,775,88,-239
6965,-35,-161,-205,787,84,-234
6970,-37,-159,-200,796,81,-229
6975,-36,-160,-201,805,79,-226
6980,-39,-166,-200,817,82,-224
6985,-39,-161,-202,827,85,-221
6990,-36,-164,-200,836,87,-219
6995,-36,-166,-202,845,90,-214
7000,-37,-161,-203,854,90,-210
7005,-35,-167,-206,861,96,-207
7010,-36,-166,-206,867,100,-206
7015,-36,-167,-206,872,104,-202
7020,-34,-171,-202,879,106,-198
7025,-38,-168,-199,886,110,-193
7030,-38,-174,-195,895,113,-187
7035,-35,-173,-195,905,114,-181
7040,-35,-172,-194,914,113,-177
7045,-34,-172,-190,919,115,-175
7050,-37,-177,-187,926,114,-171
7055,-39,-176,-193,933,114,-166
7060,-35,-178,-188,941,111,-159
7065,-37,-179,-191,949,110,-153
7070,-36,-180,-189,959,108,-150
7075,-36,-182,-187,969,106,-144
7080,-36,-182,-188,979,102,-140
7085,-34,-182,-183,983,101,-134
7090,-36,-181,-186,988,105,-131
7095,-38,-184,-184,997,111,-129
7100,-36,-182,-180,1002,114,-129
7105,-36,-182,-179,1008,116,-130
7110,-37,-185,-175,1016,120,-130
7115,-33,-186,-177,1023,119,-132
7120,-34,-184,-174,1029,118,-131
7125,-33,-185,-173,1034,120,-131
7130,-33,-188,-173,1041,118,-133
7135,-30,-187,-177,1052,115,-129
7140,-32,-189,-176,1059,111,-132
7145,-29,-190,-176,1065,112,-133
7150,-28,-191,-171,1068,113,-133
7155,-28,-189,-175,1066,113,-133
7160,-28,-190,-173,1066,115,-132
7165,-26,-188,-167,1067,116,-129
7170,-29,-190,-163,1064,115,-128
7175,-27,-191,-160,1064,117,-127
7180,-30,-188,-161,1058,118,-123
7185,-28,-193,-159,1051,120,-120
7190,-31,-192,-159,1044,120,-114
7195,-33,-193,-160,1036,117,-110
7200,-28,-196,-155,1031,115,-107
7205,-27,-199,-157,1026,113,-106
7210,-28,-199,-161,1021,114,-105
7215,-28,-202,-153,1014,116,-105
7220,-25,-203,-153,1010,117,-107
7225,-26,-204,-153,1009,113,-108
7230,-22,-207,-155,1009,109,-110
7235,-25,-208,-154,1012,106,-113
7240,-20,-210,-153,1016,112,-119
7245,-23,-207,-150,1025,117,-122
7250,-22,-207,-147,1039,123,-121
7255,-21,-207,-146,1053,126,-120
7260,-19,-211,-144,1064,130,-117
7265,-21,-218,-142,1068,133,-116
7270,-16,-210,-141,1064,138,-112
7275,-17,-208,-136,1055,138,-112
7280,-17,-205,-139,1044,135,-112
7285,-15,-210,-140,1030,133,-113
7290,-17,-209,-142,1016,131,-112
7295,-15,-214,-145,1004,133,-106
7300,-15,-211,-143,998,136,-104
7305,-18,-213,-139,999,143,-101
7310,-16,-215,-140,1003,152,-95
7315,-14,-215,-137,1004,161,-94
7320,-14,-215,-134,1004,169,-92
7325,-15,-215,-133,999,175,-92
7330,-17,-213,-129,989,179,-90
7335,-18,-214,-124,979,179,-84
7340,-19,-214,-124,973,177,-79
7345,-14,-220,-121,966,174,-76
7350,-18,-220,-118,958,173,-73
7355,-15,-220,-119,958,174,-70
7360,-18,-217,-119,957,179,-69
7365,-17,-219,-121,950,181,-72
7370,-17,-221,-124,942,181,-68
7375,-18,-219,-118,936,180,-66
7380,-17,-221,-121,925,178,-64
7385,-16,-224,-119,913,171,-61
7390,-20,-225,-121,900,167,-57
7395,-18,-224,-121,888,164,-55
7400,-16,-230,-117,881,162,-52
7405,-20,-229,-118,880,160,-49
7410,-17,-229,-114,885,158,-45
7415,-22,-228,-118,891,156,-43
7420,-23,-229,-118,898,157,-44
7425,-23,-226,-113,899,157,-41
7430,-24,-227,-113,891,154,-40
7435,-22,-227,-110,878,148,-41
7440,-23,-228,-111,861,147,-41
7445,-22,-230,-107,843,146,-45
7450,-20,-231,-107,827,147,-48
7455,-20,-233,-107,813,146,-47
7460,-21,-231,-101,805,140,-47
7465,-20,-233,-107,797,135,-46
7470,-23,-234,-103,793,130,-47
7475,-19,-235,-102,788,127,-51
7480,-22,-235,-97,781,121,-54
7485,-22,-232,-102,772,115,-56
7490,-22,-233,-101,765,109,-57
7495,-23,-230,-101,758,104,-59
7500,-22,-228,-97,749,100,-61
7505,-21,-231,-98,740,99,-61
7510,-21,-228,-96,731,97,-61
7515,-18,-230,-96,721,94,-62
7520,-20,-226,-96,707,92,-62
7525,-22,-228,-92,699,90,-62
7530,-21,-224,-91,693,85,-59
7535,-18,-225,-88,685,79,-58
7540,-22,-225,-87,673,76,-58
7545,-18,-225,-86,659,76,-59
7550,-16,-232,-82,644,73,-55
7555,-17,-228,-82,628,69,-55
7560,-18,-229,-83,616,68,-58
7565,-16,-230,-82,605,67,-63
7570,-14,-228,-86,597,67,-69
7575,-13,-228,-84,589,67,-71
7580,-15,-225,-80,579,68,-71
7585,-17,-226,-85,569,72,-73
7590,-16,-231,-78,555,75,-71
7595,-7,-229,-76,536,80,-70
7600,-16,-234,-83,514,83,-68
7605,-11,-235,-82,493,87,-69
7610,-19,-233,-79,470,88,-71
7615,-16,-238,-80,448,83,-67
7620,-16,-242,-78,433,74,-62
7625,-17,-240,-74,425,66,-61
7630,-16,-243,-74,424,63,-57
7635,-16,-243,-78,424,67,-55
7640,-14,-243,-78,421,66,-56
7645,-19,-244,-80,415,63,-57
7650,-13,-246,-80,404,61,-56
7655,-13,-243,-78,393,59,-56
7660,-15,-243,-77,380,64,-53
7665,-12,-246,-75,369,73,-55
7670,-14,-246,-72,366,82,-55
7675,-14,-245,-71,371,91,-55
7680,-14,-242,-71,378,101,-57
7685,-11,-240,-66,382,111,-56
7690,-16,-238,-70,385,121,-56
7695,-14,-237,-68,387,130,-53
7700,-14,-239,-66,385,136,-52
7705,-14,-234,-65,384,138,-49
7710,-9,-238,-67,379,140,-51
7715,-9,-240,-64,372,141,-54
7720,-10,-236,-60,361,141,-56
7725,-7,-235,-60,350,140,-53
7730,-11,-236,-58,342,142,-55
7735,-10,-239,-57,335,147,-57
7740,-10,-237,-54,329,154,-57
7745,-10,-236,-55,326,161,-54
7750,-10,-240,-55,323,169,-50
7755,-9,-237,-54,317,177,-47
7760,-8,-238,-54,312,185,-42
7765,-10,-241,-56,305,195,-41
7770,-7,-241,-53,296,199,-37
7775,-8,-240,-55,291,202,-33
7780,-9,-243,-49,285,202,-29
7785,-11,-242,-57,276,203,-26
7790,-1,-241,-56,261,206,-21
7795,-7,-243,-60,244,210,-20
7800,-8,-248,-65,223,219,-18
7805,-8,-249,-62,203,230,-19
7810,-8,-252,-51,188,240,-20
7815,-16,-252,-58,180,252,-22
7820,-18,-255,-56,184,260,-27
7825,-19,-258,-52,193,263,-34
7830,-22,-254,-54,200,260,-41
7835,-21,-249,-57,204,255,-45
7840,-21,-248,-56,203,251,-49
7845,-19,-248,-55,196,249,-52
7850,-20,-246,-54,189,248,-57
7855,-22,-242,-57,178,241,-62
7860,-22,-241,-55,165,230,-66
7865,-22,-241,-57,146,220,-72
7870,-21,-241,-57,117,208,-75
7875,-19,-239,-56,87,198,-79
7880,-15,-243,-55,52,195,-83
7885,-20,-241,-49,17,200,-95
7890,-21,-242,-52,-1,205,-95
7895,-20,-247,-50,-13,202,-94
7900,-21,-243,-51,-26,202,-98
7905,-17,-244,-50,-46,202,-102
7910,-14,-247,-53,-68,198,-109
7915,-14,-249,-51,-93,194,-116
7920,-18,-248,-57,-116,189,-122
7925,-20,-252,-57,-142,185,-123
7930,-17,-252,-54,-167,180,-124
7935,-15,-258,-57,-184,174,-132
7940,-16,-260,-58,-199,171,-136
7945,-18,-260,-62,-208,167,-137
7950,-17,-263,-59,-211,165,-141
7955,-16,-262,-64,-207,165,-142
7960,-16,-262,-63,-198,163,-141
7965,-16,-265,-57,-188,158,-143
7970,-17,-261,-58,-185,150,-137
7975,-13,-265,-57,-182,140,-130
7980,-14,-268,-55,-183,128,-121
7985,-13,-265,-54,-180,117,-111
7990,-14,-269,-56,-170,106,-101
7995,-12,-269,-52,-157,93,-90
8000,-13,-269,-54,-139,81,-80
8005,-11,-268,-51,-122,73,-68
8010,-3,-271,-54,-104,61,-54
8015,-4,-265,-52,-88,52,-42
8020,-4,-265,-50,-78,44,-29
8025,-2,-262,-53,-70,38,-16
8030,-5,-263,-46,-59,34,-6
8035,-2,-260,-43,-47,28,2
8040,0,-255,-48,-37,23,10
8045,-2,-256,-47,-33,22,19
8050,-1,-253,-50,-32,20,25
8055,0,-254,-51,-31,22,28
8060,-1,-253,-47,-26,23,29
8065,-2,-253,-46,-18,25,30
8070,1,-250,-49,-5,26,28
8075,-5,-249,-44,6,29,25
8080,0,-249,-47,17,34,22
8085,-1,-248,-47,24,38,19
8090,-4,-251,-43,31,43,15
8095,-2,-255,-43,37,50,13
8100,-2,-250,-44,42,52,11
8105,-3,-252,-42,47,57,10
8110,-3,-255,-45,49,60,7
8115,-9,-254,-44,53,65,6
8120,-6,-250,-44,59,68,5
8125,-7,-253,-46,64,71,7
8130,-8,-251,-44,70,72,7
8135,-8,-252,-38,76,72,8
8140,-6,-252,-44,85,72,8
8145,-9,-252,-50,91,70,7
8150,-3,-249,-46,96,71,6
8155,-7,-253,-46,100,70,4
8160,-5,-249,-47,98,69,1
8165,-3,-250,-49,93,68,-2
8170,-6,-248,-44,84,66,-3
8175,0,-252,-43,76,66,-6
8180,-1,-254,-44,70,68,-10
8185,-5,-250,-41,64,68,-14
8190,-4,-253,-43,61,66,-18
8195,-1,-254,-45,56,65,-20
8200,2,-256,-48,50,64,-25
8205,-2,-256,-44,43,65,-28
8210,-2,-252,-51,34,67,-30
8215,-4,-256,-46,24,72,-32
8220,-5,-255,-45,16,73,-33
8225,-7,-253,-47,10,74,-36
8230,-4,-258,-48,8,74,-35
8235,-2,-257,-48,10,72,-36
8240,-3,-255,-52,14,71,-36
8245,-6,-257,-47,15,67,-34
8250,-6,-255,-49,14,61,-33
8255,-6,-255,-47,11,56,-32
8260,-3,-254,-52,11,51,-30
8265,-5,-254,-48,10,48,-26
8270,-4,-256,-44,9,46,-23
8275,-6,-251,-43,7,42,-20
8280,-1,-252,-46,3,39,-16
8285,-4,-253,-44,0,35,-13
8290,-5,-251,-42,-4,35,-11
8295,-4,-251,-44,-5,33,-8
8300,-6,-251,-43,-8,30,-6
8305,-4,-249,-43,-9,27,-5
8310,-2,-249,-44,-13,24,-4
8315,0,-249,-46,-18,26,-5
8320,0,-248,-43,-24,28,-6
8325,-2,-248,-44,-29,31,-9
8330,-1,-248,-45,-33,33,-10
8335,0,-251,-46,-38,36,-11
8340,-2,-250,-46,-39,37,-10
8345,1,-250,-41,-38,39,-12
8350,0,-251,-45,-36,42,-12
8355,2,-260,-51,-33,46,-12
8360,-1,-252,-43,-28,47,-12
8365,-1,-253,-44,-25,48,-10
8370,0,-255,-48,-21,50,-10
8375,-3,-253,-43,-17,54,-9
8380,0,-254,-43,-13,58,-7
8385,0,-255,-48,-11,62,-6
8390,-1,-252,-49,-9,66,-6
8395,-2,-251,-47,-9,68,-5
8400,-1,-253,-45,-13,70,-5
8405,-1,-253,-49,-18,75,-4
8410,-1,-252,-49,-24,77,-4
8415,-2,-251,-49,-32,79,-4
8420,0,-251,-51,-37,83,-4
8425,-1,-253,-49,-39,87,-4
8430,0,-253,-44,-40,88,-4
8435,-1,-252,-47,-41,89,-4
8440,-4,-254,-48,-44,91,-4
8445,2,-256,-55,-48,94,-4
8450,0,-254,-47,-54,97,-3
8455,0,-253,-44,-58,102,-3
8460,0,-252,-50,-60,106,-3
8465,-1,-252,-37,-59,108,-3
8470,0,-252,-48,-60,111,-2
8475,-1,-254,-48,-60,113,-1
8480,0,-251,-47,-62,116,1
8485,-2,-249,-48,-62,117,1
8490,0,-253,-49,-64,119,1
8495,-4,-252,-47,-66,118,2
8500,0,-251,-49,-67,118,1
8505,-4,-252,-49,-70,119,0
8510,0,-251,-50,-73,118,-1
8515,-4,-253,-48,-75,117,0
8520,-4,-257,-48,-72,115,0
8525,-4,-254,-49,-68,113,0
8530,-3,-252,-49,-62,113,-1
8535,-3,-258,-46,-57,113,-3
8540,-7,-254,-49,-52,113,-2
8545,-6,-257,-48,-46,115,-1
8550,-3,-255,-46,-38,114,-2
8555,-3,-254,-45,-28,111,-1
8560,-4,-255,-47,-21,111,0
8565,-3,-253,-51,-16,111,-1
8570,-4,-256,-49,-14,109,1
8575,-5,-252,-49,-11,109,0
8580,-7,-251,-49,-10,108,0
8585,-5,-253,-47,-9,106,1
8590,-4,-250,-50,-8,103,0
8595,-3,-252,-49,-9,100,-1
8600,-5,-250,-47,-10,99,-2
8605,-3,-249,-49,-11,96,-1
8610,-6,-249,-48,-14,92,-2
8615,-8,-249,-46,-19,89,-5
8620,-3,-253,-48,-24,89,-6
8625,-5,-253,-50,-27,86,-5
8630,-6,-253,-45,-32,82,-7
8635,-7,-252,-49,-31,80,-8
8640,-5,-253,-46,-31,78,-9
8645,-6,-255,-49,-30,74,-10
8650,-7,-256,-48,-31,71,-10
8655,-6,-256,-48,-30,69,-9
8660,-2,-258,-50,-28,66,-9
8665,-5,-255,-48,-22,65,-9
8670,-4,-253,-48,-15,63,-8
8675,-5,-253,-48,-9,61,-7
8680,-3,-255,-43,-8,60,-7
8685,-5,-253,-49,-8,62,-7
8690,-3,-254,-50,-10,60,-4
8695,-6,-249,-47,-13,58,-5
8700,-4,-252,-48,-16,58,-5
8705,-6,-250,-51,-21,57,-5
8710,-1,-251,-52,-27,56,-4
8715,-1,-251,-47,-34,56,-3
8720,-4,-253,-49,-41,56,-4
8725,-1,-251,-47,-47,55,-4
8730,-3,-254,-55,-48,55,-4
8735,-7,-252,-50,-52,55,-3
8740,-3,-255,-48,-53,53,-4
8745,-4,-251,-44,-51,53,-4
8750,-3,-253,-47,-47,52,-2
8755,-5,-255,-49,-43,52,-2
8760,-1,-259,-47,-40,49,-3
8765,-1,-258,-52,-36,47,-3
8770,-2,-253,-46,-32,46,-5
8775,-4,-255,-45,-27,43,-4
8780,-3,-255,-48,-22,42,-4
8785,-3,-255,-51,-17,41,-4
8790,-2,-256,-52,-13,41,-3
8795,-6,-253,-46,-11,41,-3
8800,0,-252,-48,-9,41,-5
8805,-7,-253,-45,-11,40,-5
8810,-2,-254,-48,-12,42,-4
8815,-1,-251,-47,-11,42,-4
8820,-5,-251,-50,-12,41,-4
8825,-2,-251,-48,-12,39,-4
8830,-1,-252,-54,-12,38,-3
8835,-4,-254,-46,-12,36,-4
8840,-3,-251,-45,-12,36,-6
8845,0,-252,-47,-8,36,-5
8850,-1,-254,-47,-9,36,-5
8855,-1,-251,-44,-9,37,-4
8860,-4,-251,-47,-10,38,-3
8865,-5,-252,-44,-14,39,-4
8870,-4,-254,-46,-18,38,-4
8875,-7,-254,-42,-20,37,-4
8880,-4,-256,-44,-22,35,-5
8885,-7,-256,-48,-23,34,-6
8890,-5,-255,-47,-21,34,-6
8895,-3,-252,-44,-19,34,-5
8900,-1,-252,-38,-18,35,-5
8905,-7,-253,-48,-15,32,-5
8910,-3,-253,-48,-14,31,-4
8915,-3,-253,-47,-12,31,-2
8920,-1,-252,-48,-12,32,0
8925,-6,-251,-47,-14,32,2
8930,-7,-253,-45,-17,31,2
8935,-4,-253,-47,-18,31,2
8940,-3,-253,-46,-22,31,4
8945,-6,-252,-49,-24,30,4
8950,-4,-250,-51,-25,29,3
8955,-1,-253,-48,-28,31,4
8960,-3,-253,-50,-29,31,3
8965,-3,-251,-46,-31,33,2
8970,-3,-253,-44,-33,33,3
8975,-3,-253,-44,-34,32,3
8980,-2,-251,-46,-34,32,2
8985,-2,-255,-47,-29,32,2
8990,-1,-252,-49,-26,32,0
8995,-4,-254,-46,-22,33,1
9000,-5,-253,-47,-22,37,1
9005,0,-251,-46,-23,38,1
9010,-8,-250,-47,-24,39,1
9015,-5,-250,-51,-27,39,0
9020,-7,-250,-47,-25,39,0
9025,-1,-257,-48,-24,40,1
9030,-5,-251,-50,-18,40,2
9035,-2,-253,-50,-16,44,2
9040,-3,-255,-46,-14,46,2
9045,-2,-254,-52,-12,46,3
9050,-5,-252,-47,-11,46,3
9055,-2,-253,-47,-12,48,3
9060,-2,-252,-49,-11,49,4
9065,-7,-254,-45,-9,50,4
9070,-4,-253,-45,-9,48,2
9075,-6,-250,-43,-10,46,2
9080,-3,-256,-45,-12,46,2
9085,-3,-253,-44,-13,45,0
9090,-3,-250,-46,-11,46,0
9095,-4,-253,-47,-14,47,0
9100,-5,-251,-42,-16,48,-2
9105,-6,-253,-46,-19,49,-3
9110,-1,-249,-46,-20,48,-4
9115,-4,-252,-50,-21,47,-3
9120,-7,-250,-47,-22,50,-3
9125,-1,-251,-48,-23,48,-2
9130,-4,-253,-48,-23,51,-2
9135,-2,-254,-52,-23,53,-3
9140,-1,-254,-45,-23,54,-2
9145,-4,-251,-49,-21,54,-1
9150,-4,-253,-47,-23,54,-2
9155,-6,-253,-47,-21,53,-1
9160,-4,-253,-51,-20,54,0
9165,-4,-252,-49,-17,54,0
9170,-6,-249,-50,-16,52,0
9175,-3,-251,-51,-15,53,1
9180,-7,-251,-48,-17,53,2
9185,-1,-249,-49,-21,54,1
9190,-6,-252,-47,-27,56,0
9195,-5,-250,-48,-34,58,0
9200,-2,-253,-46,-37,59,-1
9205,-1,-253,-47,-38,61,-2
9210,-7,-252,-45,-38,64,-1
9215,-4,-252,-46,-36,67,-2
9220,-2,-251,-48,-35,71,-1
9225,-4,-244,-49,-37,72,-1
9230,-1,-251,-50,-40,73,-1
9235,-7,-252,-49,-43,73,0
9240,-5,-251,-46,-47,71,-1
9245,-3,-251,-51,-48,70,-1
9250,-1,-253,-53,-49,70,-2
9255,-4,-252,-51,-49,71,-2
9260,-2,-253,-50,-49,70,1
9265,-3,-252,-48,-51,71,1
9270,-5,-249,-49,-50,72,2
9275,-7,-256,-46,-50,72,2
9280,-6,-252,-48,-50,73,2
9285,-4,-252,-46,-48,74,3
9290,-3,-254,-48,-47,72,3
9295,-5,-254,-46,-47,71,4
9300,-5,-251,-47,-48,69,3
9305,-4,-251,-45,-51,70,2
9310,-4,-251,-46,-57,68,4
9315,-5,-251,-52,-57,71,3
9320,-4,-255,-51,-58,73,3
9325,-4,-251,-45,-57,74,3
9330,-5,-252,-47,-56,76,2
9335,-5,-255,-51,-57,76,2
9340,-2,-252,-50,-59,78,3
9345,-3,-253,-52,-63,78,4
9350,-3,-252,-49,-65,78,3
9355,-2,-254,-47,-64,77,3
9360,-7,-255,-50,-64,80,3
9365,-5,-252,-52,-63,79,4
9370,-8,-254,-48,-61,80,6
9375,-7,-254,-48,-59,80,4
9380,-3,-252,-51,-58,80,6
9385,-7,-251,-49,-56,79,5
9390,-2,-253,-51,-53,77,4
9395,-5,-253,-53,-52,74,2
9400,-5,-254,-51,-51,72,3
9405,-3,-253,-52,-53,71,3
9410,-5,-252,-50,-54,70,2
9415,-6,-251,-51,-57,69,2
9420,-8,-250,-54,-61,70,2
9425,-4,-250,-52,-64,69,3
9430,-7,-249,-55,-67,70,4
9435,-3,-250,-54,-65,70,3
9440,-5,-251,-57,-62,73,5
9445,-3,-252,-55,-58,77,3
9450,-4,-252,-54,-55,81,6
9455,-2,-251,-54,-53,81,6
9460,-3,-250,-52,-53,83,5
9465,-2,-254,-50,-55,80,6
9470,-2,-252,-53,-61,79,5
9475,-2,-254,-49,-65,78,5
9480,-3,-250,-55,-70,80,7
9485,-5,-249,-49,-73,81,5
9490,-5,-252,-53,-74,80,7
9495,-3,-252,-52,-73,79,7
9500,-5,-252,-49,-71,80,7
9505,-4,-251,-52,-72,78,6
9510,-7,-250,-49,-72,78,6
9515,-8,-251,-54,-74,76,6
9520,-8,-252,-55,-74,75,4
9525,-4,-254,-54,-73,73,3
9530,-8,-253,-53,-71,71,2
9535,-4,-255,-53,-68,72,3
9540,-5,-252,-56,-65,72,2
9545,-5,-255,-53,-61,71,2
9550,-6,-255,-56,-60,69,2
9555,-7,-252,-55,-56,67,2
9560,-6,-256,-56,-54,67,3
9565,-6,-254,-54,-51,65,3
9570,-8,-252,-56,-49,64,2
9575,-5,-253,-55,-47,65,2
9580,-8,-254,-53,-44,61,5
9585,-2,-256,-56,-42,59,4
9590,-8,-252,-56,-37,57,6
9595,-9,-250,-56,-34,55,5
9600,-9,-251,-55,-28,53,6
9605,-8,-249,-56,-26,48,6
9610,-7,-250,-54,-25,48,7
9615,-5,-252,-57,-25,47,7
9620,-7,-249,-55,-28,46,7
9625,-8,-249,-56,-31,45,8
9630,-7,-250,-56,-35,44,7
9635,-6,-252,-56,-33,42,7
9640,-6,-251,-55,-32,40,6
9645,-8,-256,-54,-28,40,7
9650,-3,-250,-54,-24,38,5
9655,-4,-251,-54,-23,37,5
9660,-9,-250,-57,-22,36,5
9665,-8,-250,-53,-27,36,4
9670,-5,-254,-53,-28,35,4
9675,-8,-249,-56,-30,36,3
9680,-8,-250,-56,-30,36,5
9685,-4,-251,-58,-28,36,2
9690,-5,-250,-57,-27,36,3
9695,-5,-250,-58,-26,36,3
9700,-6,-252,-59,-25,36,3
9705,-8,-251,-56,-27,34,2
9710,-3,-251,-56,-29,33,1
9715,-3,-252,-54,-33,31,0
9720,-6,-251,-56,-34,32,1
9725,-2,-252,-60,-36,32,-1
9730,-7,-252,-55,-35,33,-1
9735,-6,-253,-56,-36,36,-1
9740,-7,-250,-55,-35,38,0
9745,-8,-253,-57,-33,38,-1
9750,-8,-252,-59,-31,39,-3
9755,-8,-252,-58,-28,39,-2
9760,-8,-253,-56,-27,37,-2
9765,-5,-251,-54,-25,36,-2
9770,-9,-252,-59,-24,35,-2
9775,-8,-251,-59,-22,34,-3
9780,-3,-253,-57,-21,34,-4
9785,-3,-252,-57,-18,34,-3
9790,-8,-251,-59,-18,35,-2
9795,-7,-252,-61,-18,34,-1
9800,-6,-251,-59,-20,34,-3
9805,-3,-249,-59,-20,35,-3
9810,-7,-252,-55,-21,38,-3
9815,-8,-253,-57,-20,39,-2
9820,-6,-251,-57,-19,41,-1
9825,-6,-251,-56,-19,41,-1
9830,-6,-251,-55,-18,40,-1
9835,-4,-249,-57,-16,40,-1
9840,-2,-251,-57,-15,42,-2
9845,-3,-252,-59,-15,42,-1
9850,-5,-251,-56,-14,44,-2
9855,-2,-253,-61,-14,46,-2
9860,-5,-248,-57,-15,46,-3
9865,-4,-249,-57,-17,47,-3
9870,-2,-250,-60,-17,47,-3
9875,-3,-250,-59,-16,49,-3
9880,-2,-254,-63,-15,49,-3
9885,-6,-250,-58,-13,49,-3
9890,-5,-250,-56,-13,49,-3
9895,-5,-250,-55,-13,49,-3
9900,-6,-249,-54,-14,48,-2
9905,-4,-253,-54,-12,46,-4
9910,-7,-252,-59,-11,47,-4
9915,-2,-253,-55,-8,46,-4
9920,-4,-252,-55,-6,46,-4
9925,-5,-249,-54,-5,47,-4
9930,-5,-249,-56,-4,51,-6
9935,-4,-250,-58,-3,51,-5
9940,-7,-253,-54,-4,50,-7
9945,-7,-251,-56,-5,50,-6
9950,-4,-256,-59,-7,49,-6
9955,-7,-253,-55,-6,48,-6
9960,-8,-253,-57,-3,50,-7
9965,-6,-251,-55,0,49,-7
9970,-10,-252,-57,6,48,-8
9975,-7,-249,-51,10,45,-8
9980,-8,-251,-54,11,45,-7
9985,-4,-250,-51,15,46,-7
9990,-4,-254,-55,17,47,-7
9995,-8,-252,-54,17,46,-6
10000,-7,-252,-51,15,46,-7
10005,-7,-250,-58,13,48,-9
10010,-6,-251,-55,12,48,-8
10015,-8,-248,-54,11,48,-8
10020,-7,-249,-54,12,49,-9
10025,-6,-251,-55,11,52,-8
10030,-6,-250,-58,9,54,-10
10035,-7,-250,-53,7,54,-9
10040,-5,-250,-57,4,54,-10
10045,-7,-249,-53,1,54,-11
10050,-4,-254,-58,-3,55,-11
10055,-6,-250,-53,-4,56,-12
10060,-7,-251,-55,-3,57,-11
10065,-5,-253,-56,-3,57,-11
10070,-7,-251,-55,-2,60,-11
10075,-6,-251,-53,-2,61,-10
10080,-8,-252,-55,0,62,-9
10085,-6,-254,-53,2,62,-8
10090,-6,-250,-55,3,61,-7
10095,-12,-258,-49,3,62,-8
10100,-3,-252,-53,4,60,-6
10105,-10,-254,-54,4,60,-7
10110,-4,-251,-55,8,58,-7
10115,-5,-252,-55,10,57,-8
10120,-3,-249,-53,12,57,-9
10125,-8,-251,-57,10,56,-8
10130,-4,-251,-55,8,57,-9
10135,-7,-248,-55,8,59,-9
10140,-7,-251,-52,6,58,-9
10145,-11,-256,-52,6,57,-9
10150,-6,-251,-50,6,58,-8
10155,-9,-252,-56,8,58,-8
10160,-4,-253,-56,7,57,-7
10165,-8,-253,-54,8,56,-6
10170,-8,-253,-51,8,54,-6
10175,-7,-252,-53,10,52,-7
10180,-8,-253,-56,11,52,-7
10185,-6,-253,-53,13,49,-7
10190,-10,-249,-56,14,50,-4
10195,-10,-251,-53,13,49,-6
10200,-8,-254,-54,14,47,-5
10205,-6,-251,-56,17,46,-6
10210,-7,-251,-55,20,44,-6
10215,-8,-251,-57,23,44,-7
10220,-4,-250,-59,26,43,-5
10225,-9,-249,-58,23,46,-7
10230,-6,-251,-53,20,48,-8
10235,-8,-250,-54,16,52,-7
10240,-3,-254,-54,11,52,-7
10245,-7,-250,-55,9,53,-6
10250,-6,-254,-51,8,56,-8
10255,-6,-252,-52,6,58,-8
10260,-9,-253,-49,6,58,-8
10265,-6,-249,-55,5,58,-7
10270,-4,-249,-50,5,61,-8
10275,-4,-251,-55,4,60,-7
10280,-2,-252,-51,4,60,-7
10285,-4,-251,-53,4,61,-7
10290,-5,-251,-55,4,61,-7
10295,-8,-250,-51,6,61,-6
10300,-6,-255,-51,5,58,-6
10305,-7,-252,-52,5,60,-7
10310,-6,-250,-53,4,59,-5
10315,1,-247,-48,4,58,-7
10320,-4,-251,-50,4,57,-6
10325,-6,-250,-52,2,60,-7
10330,-5,-254,-51,1,59,-5
10335,-6,-250,-51,-1,62,-6
10340,-5,-250,-56,-3,62,-4
10345,-2,-252,-58,-4,62,-3
10350,-4,-250,-52,-5,62,-2
10355,-3,-252,-52,-5,63,-1
10360,-7,-252,-55,-4,63,0
10365,-5,-254,-53,-2,63,-2
10370,-6,-249,-52,0,66,0
10375,-6,-252,-50,4,66,-2
10380,-7,-253,-52,7,65,1
10385,-7,-253,-54,9,64,0
10390,-5,-250,-53,11,63,-1
10395,-6,-251,-56,11,63,-3
10400,-4,-252,-52,9,62,-4
10405,-4,-253,-53,7,62,-4
10410,-4,-252,-54,5,61,-3
10415,-6,-251,-54,6,63,-4
10420,-5,-250,-55,7,62,-4
10425,-6,-251,-55,8,65,-4
10430,-7,-253,-53,11,64,-5
10435,-7,-250,-49,13,63,-5
10440,-5,-252,-52,16,64,-5
10445,-5,-254,-51,17,64,-5
10450,-7,-252,-52,18,63,-4
10455,-2,-252,-51,17,62,-6
10460,-6,-253,-53,15,61,-7
10465,-2,-251,-50,12,61,-6
10470,-5,-249,-52,9,61,-6
10475,-4,-251,-51,6,60,-8
10480,-7,-250,-53,2,60,-6
10485,-3,-253,-52,0,59,-6
10490,-5,-252,-51,-3,58,-6
10495,-5,-252,-50,-4,58,-7
10500,-2,-253,-56,-4,58,-5
10505,-9,-253,-53,-4,58,-6
10510,-7,-253,-49,-3,58,-8
10515,-8,-251,-51,-2,56,-8
10520,-5,-253,-55,-1,56,-8
10525,-4,-253,-55,-1,58,-6
10530,-5,-250,-52,-2,58,-6
10535,-6,-256,-56,-1,57,-5
10540,-4,-252,-53,-3,56,-5
10545,-5,-252,-49,-1,56,-4
10550,-7,-255,-55,0,56,-4
10555,-7,-255,-53,1,56,-3
10560,-8,-253,-51,5,54,-2
10565,-8,-253,-49,10,52,-3
10570,-6,-255,-53,11,52,-4
10575,-4,-251,-51,13,51,-3
10580,-3,-251,-50,13,51,-2
10585,-5,-250,-53,12,52,-3
10590,-4,-253,-53,11,53,-6
10595,-3,-250,-50,12,55,-5
10600,-5,-251,-47,13,57,-4
10605,-2,-252,-52,11,58,-7
10610,-1,-251,-53,10,58,-5
10615,-5,-252,-48,9,59,-5
10620,-5,-251,-50,8,59,-6
10625,-7,-253,-52,6,60,-7
10630,-3,-252,-53,6,61,-8
10635,-3,-253,-45,6,61,-8
10640,-2,-255,-53,7,61,-6
10645,-4,-250,-48,6,62,-6
10650,-5,-254,-54,7,63,-8
10655,-5,-253,-50,8,63,-7
10660,-4,-256,-49,9,64,-8
10665,-5,-253,-53,10,63,-7
10670,-6,-250,-49,9,66,-4
10675,-8,-252,-52,9,67,-5
10680,-4,-251,-50,8,66,-6
10685,-6,-254,-51,10,66,-5
10690,-6,-254,-43,10,67,-5
10695,-4,-253,-49,10,66,-5
10700,-4,-253,-51,9,66,-5
10705,-3,-253,-50,5,67,-5
10710,-5,-253,-49,5,67,-5
10715,-3,-251,-57,5,67,-6
10720,-6,-251,-49,6,69,-7
10725,-5,-251,-51,7,69,-7
10730,-5,-254,-52,5,70,-6
10735,-7,-253,-51,4,71,-7
10740,-4,-254,-51,5,72,-6
10745,-6,-249,-49,3,73,-7
10750,-5,-252,-50,1,73,-7
10755,-5,-251,-50,1,72,-7
10760,-4,-253,-51,2,71,-7
10765,-5,-252,-50,5,70,-7
10770,-4,-251,-53,7,71,-6
10775,-6,-252,-49,9,71,-5
10780,-7,-250,-49,10,72,-8
10785,-4,-251,-52,5,73,-8
10790,-8,-251,-49,3,73,-7
10795,-2,-253,-52,0,72,-7
10800,-9,-251,-53,-2,72,-6
10805,0,-254,-49,-4,73,-6
10810,-6,-253,-48,-3,74,-5
10815,-6,-251,-48,-3,76,-6
10820,-6,-253,-51,-4,77,-5
10825,-7,-254,-51,-5,77,-4
10830,-6,-252,-47,-7,77,-4
10835,-3,-253,-54,-6,77,-3
10840,-6,-255,-49,-5,78,-2
10845,-3,-255,-52,-3,77,-3
10850,-1,-252,-51,-3,77,-2
10855,-4,-253,-57,0,77,-2
10860,-8,-254,-48,1,75,-2
10865,-5,-255,-50,2,76,-2
10870,-6,-252,-49,4,76,-3
10875,-9,-251,-51,5,75,-2
10880,-4,-252,-48,5,74,-3
10885,-4,-253,-50,7,74,-3
10890,-7,-252,-48,6,75,-3
10895,-4,-252,-50,6,76,-2
10900,-7,-249,-54,6,77,-2
10905,-5,-251,-51,6,79,-2
10910,-4,-252,-48,4,80,-3
10915,-7,-251,-48,2,81,-4
10920,-5,-253,-50,3,82,-4
10925,-6,-250,-53,4,81,-4
10930,-6,-253,-49,4,79,-5
10935,-7,-254,-50,4,78,-4
10940,-6,-253,-52,5,76,-3
10945,-5,-254,-52,5,75,-3
10950,-7,-255,-48,7,76,-3
10955,-10,-251,-47,7,75,-2
10960,-9,-258,-52,11,72,-2
10965,-5,-252,-49,12,69,-2
10970,-2,-257,-47,11,69,-4
10975,-6,-253,-47,12,67,-4
10980,-7,-253,-53,14,64,-3
10985,-6,-251,-52,18,64,-4
10990,-4,-252,-51,21,64,-4
10995,-6,-250,-53,22,63,-4
11000,-2,-254,-50,22,64,-2
11005,-5,-251,-47,22,65,-3
11010,-4,-252,-52,19,67,-2
11015,-2,-251,-51,18,68,-4
11020,-7,-251,-48,15,71,-4
11025,-3,-251,-45,13,73,-4
11030,-7,-252,-46,11,74,-3
11035,-7,-248,-49,7,75,-5
11040,-5,-251,-49,4,76,-3
11045,-5,-250,-50,5,77,-4
11050,-4,-252,-47,5,77,-4
11055,-6,-253,-50,4,77,-3
11060,-5,-252,-46,3,76,-3
11065,-2,-252,-47,2,77,-4
11070,-6,-255,-46,0,75,-3
11075,-6,-253,-47,-2,73,-3
11080,-6,-252,-44,-1,71,-3
11085,-5,-252,-51,1,70,-3
11090,-6,-252,-46,0,67,-3
11095,-4,-252,-47,1,66,-5
11100,-6,-254,-51,0,65,-3
11105,-2,-252,-48,-1,64,-3
11110,-4,-255,-48,0,65,-2
11115,-5,-251,-51,0,66,-1
11120,-5,-253,-52,0,68,-4
11125,-3,-256,-49,2,67,-1
11130,-4,-254,-44,5,67,-1
11135,-3,-254,-47,3,67,-1
11140,-2,-253,-48,4,68,-3
11145,-6,-252,-47,6,68,-3
11150,-2,-254,-50,9,68,-3
11155,-5,-251,-49,12,68,-3
11160,-7,-250,-50,12,68,-1
11165,-6,-253,-46,10,69,-3
11170,-1,-250,-49,7,72,-2
11175,-6,-251,-50,4,74,-2
11180,-5,-253,-47,2,72,-3
11185,-12,-259,-47,2,72,-4
11190,-6,-253,-49,2,72,-3
11195,-6,-253,-47,4,71,-3
11200,-6,-254,-49,6,72,-3
11205,-3,-252,-51,6,71,-3
11210,-6,-251,-50,6,69,-3
11215,-5,-251,-48,5,70,-2
11220,-5,-252,-44,4,70,-4
11225,-9,-251,-48,5,71,-4
11230,-6,-253,-47,5,68,-2
11235,-7,-252,-47,8,68,-3
11240,-7,-251,-48,9,66,-5
11245,-5,-252,-45,8,64,-3
11250,-8,-251,-44,8,64,-2
11255,-7,-253,-45,5,63,-3
11260,-4,-253,-47,4,63,-3
11265,-4,-254,-46,4,63,-5
11270,-8,-253,-44,4,63,-3
11275,-7,-252,-48,4,63,-4
11280,-9,-253,-48,4,63,-4
11285,-8,-254,-48,4,64,-4
11290,-2,-252,-47,3,65,-3
11295,-7,-253,-47,2,65,-1
11300,-6,-255,-47,2,64,-3
11305,-7,-253,-48,2,64,-2
11310,-7,-252,-48,2,63,-2
11315,-6,-251,-51,4,62,-1
11320,-2,-251,-51,5,61,0
11325,-7,-251,-46,6,61,-1
11330,-3,-253,-48,6,62,0
11335,-6,-251,-47,4,62,0
11340,-5,-254,-47,3,63,0
11345,-4,-250,-48,4,63,-2
11350,-4,-251,-49,2,64,-2
11355,-7,-251,-49,2,64,-1
11360,-8,-253,-47,0,63,-2
11365,-7,-252,-47,0,64,-1
11370,-2,-253,-47,-1,61,-2
11375,-6,-254,-46,0,62,-2
11380,-2,-255,-49,0,62,-1
11385,-3,-252,-46,-1,61,-4
11390,-7,-253,-48,-2,60,-2
11395,-6,-252,-49,-4,61,-3
11400,-2,-257,-43,-6,60,-3
11405,-6,-253,-45,-8,59,-4
11410,-6,-252,-46,-11,60,-4
11415,-3,-253,-45,-10,60,-3
11420,-10,-251,-44,-11,61,-4
11425,-7,-252,-47,-10,61,-3
11430,-6,-253,-46,-9,62,-2
11435,-6,-252,-47,-9,63,-3
11440,-5,-252,-47,-10,64,-2
11445,-5,-250,-45,-13,66,-1
11450,-4,-254,-43,-13,64,0
11455,-6,-253,-49,-13,66,-2
11460,-8,-251,-46,-14,65,-2
11465,-7,-253,-46,-12,65,-2
11470,-3,-253,-45,-11,64,-3
11475,-3,-254,-46,-10,63,-3
11480,-5,-254,-43,-10,61,-4
11485,-6,-253,-47,-10,62,-4
11490,-9,-251,-47,-11,62,-4
11495,-7,-253,-47,-13,62,-4
11500,-7,-252,-45,-14,62,-3
11505,-8,-253,-48,-11,60,-3
11510,-5,-257,-49,-11,62,-4
11515,-3,-256,-55,-10,62,-5
11520,-8,-252,-45,-9,60,-5
11525,-7,-249,-51,-7,61,-2
11530,-6,-252,-49,-7,60,-5
11535,-6,-253,-49,-7,60,-3
11540,-2,-253,-48,-9,60,-2
11545,-4,-255,-47,-8,61,-3
11550,-4,-256,-48,-6,60,-2
11555,-6,-252,-44,-5,59,-2
11560,-6,-252,-47,-2,60,-2
11565,-4,-253,-46,-1,61,-1
11570,-5,-250,-45,1,63,-1
11575,-6,-250,-46,1,62,-2
11580,-6,-251,-46,-2,63,-3
11585,-2,-251,-47,-6,63,-3
11590,-1,-251,-48,-10,64,-4
11595,-5,-251,-46,-13,64,-4
11600,-7,-253,-48,-13,65,-4
11605,-5,-254,-44,-13,64,-3
11610,-6,-252,-49,-12,65,-3
11615,-6,-251,-47,-13,65,-1
11620,-9,-252,-41,-12,65,-1
11625,-3,-253,-46,-14,66,-2
11630,-2,-253,-48,-15,66,-3
11635,-6,-257,-43,-16,66,-3
11640,-6,-255,-45,-18,66,-2
11645,-8,-250,-47,-16,66,0
11650,-5,-251,-44,-15,67,0
11655,-5,-253,-46,-14,68,0
11660,-4,-252,-45,-12,68,-2
11665,-4,-252,-49,-11,67,-3
11670,-7,-252,-44,-11,66,-2
11675,-6,-252,-46,-10,66,-2
11680,-6,-254,-46,-11,66,-1
11685,-4,-253,-47,-12,67,-2
11690,-4,-252,-48,-14,68,-4
11695,-6,-255,-47,-16,67,-4
11700,-4,-253,-47,-16,69,-4
11705,-9,-252,-48,-15,70,-3
11710,-4,-253,-50,-14,70,-3
11715,-9,-248,-47,-12,68,-4
11720,-5,-251,-46,-11,69,-3
11725,-4,-252,-45,-10,69,-3
11730,-3,-262,-45,-9,67,-1
11735,-5,-251,-48,-8,65,-2
11740,-5,-250,-46,-8,65,-2
11745,-4,-253,-50,-8,64,-3
11750,-11,-253,-44,-9,63,-2
11755,-5,-254,-46,-11,64,-1
11760,-8,-254,-45,-12,63,-2
11765,-7,-253,-49,-10,65,-2
11770,-9,-252,-48,-8,64,-4
11775,-5,-252,-49,-4,65,-3
11780,-4,-254,-52,-1,66,-2
11785,-4,-253,-47,0,68,-1
11790,-6,-252,-48,0,72,-2
11795,-3,-250,-44,-1,70,-1
11800,-2,-256,-50,-3,70,-2
11805,-8,-251,-46,-9,71,-2
11810,-5,-252,-47,-10,71,-2
11815,-7,-251,-47,-12,72,-2
11820,-4,-251,-47,-12,73,-1
11825,-6,-251,-42,-12,74,-2
11830,-5,-249,-46,-14,75,-2
11835,-3,-252,-44,-15,76,-3
11840,-6,-255,-54,-17,78,-1
11845,-10,-253,-47,-20,77,-1
11850,-8,-251,-48,-23,76,-2
11855,-6,-252,-44,-23,76,-3
11860,-5,-252,-45,-25,77,-3
11865,-8,-251,-48,-27,75,-2
11870,-5,-251,-45,-30,75,-2
11875,-2,-257,-47,-31,72,-3
11880,-6,-253,-46,-31,72,-3
11885,-3,-254,-46,-30,71,-2
11890,-8,-252,-44,-26,70,-3
11895,-4,-254,-46,-25,70,-2
11900,-6,-253,-46,-23,69,-2
11905,-6,-252,-49,-22,70,-3
11910,-4,-254,-44,-24,71,-3
11915,-7,-255,-51,-25,72,-2
11920,-6,-254,-46,-25,74,-2
11925,-4,-256,-48,-24,74,-2
11930,-8,-254,-49,-24,73,-2
11935,-4,-255,-49,-23,72,0
11940,-9,-253,-47,-21,72,2
11945,-7,-254,-49,-19,73,1
11950,-9,-253,-46,-16,74,0
11955,-6,-254,-46,-13,74,0
11960,-3,-254,-46,-11,72,-1
11965,-7,-254,-47,-13,71,0
11970,-6,-252,-48,-12,71,0
11975,-7,-249,-50,-14,71,-1
11980,-8,-251,-46,-14,71,-1
11985,-5,-249,-49,-16,72,-1
11990,-2,-253,-50,-16,72,-4
11995,-3,-250,-47,-18,71,-3
