timestamp,acc_x,acc_y,acc_z,gyro_x,gyro_y,gyro_z
0,-11,-224,-124,-3,54,-4
5,-10,-222,-126,-3,54,-3
10,-11,-224,-127,-3,55,-4
15,-10,-227,-124,-1,56,-4
20,-9,-219,-133,-4,57,-4
25,-3,-224,-150,-5,57,-4
30,-20,-219,-135,-7,57,-4
35,-24,-223,-135,-7,59,-5
40,-11,-226,-116,-9,59,-6
45,-9,-223,-127,-10,58,-5
50,-8,-221,-122,-10,58,-6
55,-11,-223,-134,-10,59,-6
60,-10,-225,-132,-11,58,-5
65,-11,-222,-120,-11,59,-4
70,-4,-223,-126,-12,58,-6
75,-9,-222,-127,-11,58,-5
80,-9,-219,-135,-13,59,-5
85,-12,-223,-125,-13,59,-7
90,-8,-225,-121,-14,59,-6
95,-8,-223,-125,-14,59,-7
100,-11,-223,-123,-16,59,-7
105,-9,-224,-127,-16,59,-6
110,-10,-222,-126,-18,58,-7
115,-9,-223,-127,-20,60,-7
120,-10,-226,-128,-23,59,-8
125,-12,-220,-125,-25,58,-6
130,-8,-227,-123,-25,58,-5
135,-10,-226,-128,-26,58,-4
140,-6,-225,-126,-25,58,-5
145,-10,-225,-126,-25,59,-4
150,-14,-228,-119,-24,60,-5
155,-13,-234,-116,-23,57,-4
160,-9,-221,-127,-22,58,-4
165,-27,-221,-124,-21,57,-3
170,-11,-224,-124,-21,56,-2
175,-10,-224,-125,-20,57,-4
180,-8,-225,-128,-19,58,-4
185,-6,-225,-125,-19,60,-3
190,-10,-224,-129,-19,59,-3
195,-9,-226,-124,-20,60,-5
200,-9,-225,-123,-22,60,-5
205,-11,-220,-123,-22,61,-3
210,-12,-228,-130,-23,62,-3
215,-9,-226,-126,-24,63,-3
220,-8,-226,-125,-24,64,-3
225,-12,-225,-126,-23,63,-2
230,-11,-225,-127,-23,64,-3
235,-9,-222,-128,-22,64,-1
240,-9,-227,-124,-21,64,-3
245,-9,-226,-126,-19,67,-2
250,-11,-227,-121,-19,67,-2
255,-10,-226,-127,-19,70,-2
260,-11,-228,-127,-20,69,-3
265,-10,-226,-123,-19,71,-3
270,-7,-228,-125,-19,71,-4
275,-9,-224,-127,-18,71,-5
280,-11,-224,-128,-17,71,-5
285,-11,-220,-125,-18,71,-4
290,-13,-224,-127,-18,72,-5
295,-12,-225,-127,-17,72,-4
300,-11,-226,-125,-16,72,-4
305,-11,-226,-127,-15,72,-4
310,-12,-226,-125,-14,70,-5
315,-8,-226,-126,-14,70,-5
320,-11,-223,-124,-15,69,-5
325,-12,-224,-129,-15,69,-6
330,-11,-223,-126,-15,68,-6
335,-14,-225,-126,-16,67,-6
340,-11,-225,-123,-17,68,-6
345,-10,-226,-125,-17,67,-4
350,-9,-226,-127,-16,67,-4
355,-8,-225,-127,-16,65,-3
360,-11,-224,-127,-15,65,-4
365,-10,-227,-129,-16,67,-5
370,-10,-225,-128,-16,66,-2
375,-7,-226,-126,-15,68,-2
380,-10,-226,-124,-17,68,-1
385,-11,-225,-127,-16,68,-1
390,-12,-224,-126,-14,69,0
395,-8,-226,-123,-13,70,0
400,-14,-225,-123,-13,73,-1
405,-11,-222,-127,-12,74,-1
410,-12,-227,-124,-11,73,-2
415,-11,-224,-129,-10,72,-3
420,-9,-226,-124,-11,71,-5
425,-11,-223,-127,-10,71,-4
430,-7,-222,-123,-11,69,-5
435,-11,-225,-123,-11,69,-5
440,-8,-223,-129,-13,68,-6
445,-10,-224,-125,-15,67,-5
450,-10,-222,-124,-16,67,-5
455,-10,-224,-125,-16,66,-5
460,-10,-226,-125,-16,65,-3
465,-10,-224,-123,-15,66,-3
470,-9,-226,-123,-14,66,-3
475,-10,-226,-124,-13,64,-3
480,-10,-223,-126,-12,62,-3
485,-7,-224,-124,-12,62,-3
490,-10,-224,-126,-13,61,-5
495,-11,-225,-128,-13,61,-6
500,-10,-223,-124,-12,64,-7
505,-9,-225,-127,-12,64,-6
510,-10,-223,-124,-12,66,-5
515,-7,-229,-120,-12,68,-3
520,-9,-227,-124,-13,69,-3
525,-12,-224,-127,-13,70,-1
530,-7,-227,-125,-12,71,-1
535,-6,-224,-123,-13,73,1
540,-11,-223,-125,-13,73,1
545,-10,-224,-127,-13,73,2
550,-9,-224,-125,-13,74,1
555,-11,-225,-127,-13,76,1
560,-12,-225,-127,-14,77,2
565,-8,-228,-123,-13,76,1
570,-12,-225,-127,-12,76,0
575,-11,-225,-128,-11,74,0
580,-13,-226,-128,-8,74,1
585,-12,-228,-123,-6,73,0
590,-12,-229,-127,-2,72,0
595,-9,-226,-124,-1,73,1
600,-9,-228,-125,0,72,0
605,-11,-226,-120,1,71,1
610,-10,-225,-124,3,72,0
615,-13,-225,-123,5,70,-1
620,-12,-224,-126,4,71,0
625,-8,-225,-125,5,70,2
630,-12,-224,-126,6,70,2
635,-13,-224,-123,6,70,3
640,-10,-226,-123,5,71,3
645,-11,-225,-124,5,71,3
650,-10,-225,-127,4,73,2
655,-11,-225,-123,3,75,3
660,-11,-227,-125,1,73,4
665,-10,-226,-126,-1,73,2
670,-7,-223,-126,-4,72,3
675,-11,-225,-125,-6,71,3
680,-13,-226,-126,-9,71,1
685,-12,-225,-129,-13,70,2
690,-12,-225,-125,-13,69,1
695,-11,-224,-125,-14,69,1
700,-11,-224,-125,-14,68,0
705,-11,-225,-125,-14,66,0
710,-10,-227,-130,-13,64,1
715,-9,-226,-126,-13,64,0
720,-9,-224,-125,-12,64,1
725,-7,-225,-126,-12,61,0
730,-8,-227,-127,-13,60,0
735,-15,-223,-125,-14,59,-1
740,-9,-225,-125,-16,58,-1
745,-10,-227,-127,-18,58,0
750,-11,-223,-125,-20,59,-1
755,-10,-222,-126,-20,59,-1
760,-10,-226,-126,-24,58,-2
765,-11,-226,-128,-26,60,-3
770,-9,-224,-127,-27,59,-2
775,-10,-225,-127,-28,61,-3
780,-10,-226,-121,-29,61,-5
785,-9,-225,-123,-30,60,-4
790,-10,-223,-125,-30,62,-6
795,-9,-221,-126,-33,61,-6
800,-11,-224,-128,-33,61,-6
805,-10,-226,-127,-32,61,-8
810,-13,-224,-126,-31,61,-6
815,-11,-228,-126,-28,60,-9
820,-11,-226,-126,-26,59,-8
825,-9,-229,-127,-23,58,-8
830,-11,-225,-125,-19,56,-9
835,-14,-228,-122,-18,53,-8
840,-10,-228,-127,-15,54,-8
845,-14,-221,-126,-13,55,-7
850,-12,-229,-126,-11,56,-9
855,-13,-225,-126,-10,56,-10
860,-11,-224,-130,-10,55,-9
865,-12,-227,-127,-12,55,-7
870,-11,-225,-124,-14,52,-8
875,-11,-226,-128,-13,54,-9
880,-12,-223,-123,-13,53,-7
885,-10,-223,-123,-12,53,-8
890,-11,-227,-122,-11,53,-7
895,-10,-227,-125,-9,53,-7
900,-10,-224,-124,-9,52,-7
905,-13,-222,-124,-10,51,-7
910,-10,-223,-126,-9,52,-7
915,-11,-223,-126,-9,50,-6
920,-8,-226,-127,-11,52,-8
925,-8,-225,-125,-11,52,-9
930,-10,-223,-128,-13,51,-8
935,-13,-224,-125,-15,51,-11
940,-12,-226,-123,-16,53,-10
945,-9,-220,-129,-17,53,-9
950,-8,-227,-125,-19,54,-9
955,-11,-224,-123,-21,55,-10
960,-12,-226,-124,-21,56,-10
965,-12,-223,-125,-22,56,-10
970,-8,-224,-126,-24,57,-10
975,-11,-224,-126,-24,60,-9
980,-8,-224,-128,-24,60,-9
985,-9,-225,-125,-23,60,-8
990,-11,-225,-126,-23,61,-11
995,-9,-225,-126,-21,60,-10
1000,-9,-225,-126,-21,62,-10
1005,-9,-224,-127,-21,60,-8
1010,-7,-228,-127,-20,59,-7
1015,-8,-227,-128,-19,58,-7
1020,-9,-224,-124,-17,59,-6
1025,-8,-226,-125,-16,59,-4
1030,-8,-228,-127,-16,60,-3
1035,-9,-219,-129,-15,62,-2
1040,-8,-224,-124,-15,62,-3
1045,-8,-224,-127,-17,62,-1
1050,-10,-224,-126,-19,64,-1
1055,-9,-227,-126,-20,64,-2
1060,-12,-222,-124,-21,65,-2
1065,-13,-225,-124,-21,66,-2
1070,-11,-228,-123,-23,68,-3
1075,-10,-227,-125,-24,71,-1
1080,-8,-228,-126,-25,73,-2
1085,-12,-226,-125,-25,74,-1
1090,-12,-223,-125,-24,72,0
1095,-11,-227,-127,-24,72,0
1100,-10,-226,-126,-22,71,0
1105,-12,-224,-131,-21,71,-1
1110,-10,-222,-126,-22,69,0
1115,-11,-226,-123,-22,68,0
1120,-9,-223,-124,-21,68,1
1125,-11,-222,-126,-23,67,2
1130,-11,-224,-128,-24,67,3
1135,-10,-225,-124,-24,67,1
1140,-11,-228,-125,-26,68,1
1145,-12,-223,-122,-26,69,3
1150,-10,-228,-127,-25,69,3
1155,-13,-224,-127,-25,70,2
1160,-10,-223,-125,-24,69,2
1165,-13,-224,-120,-22,70,1
1170,-10,-225,-121,-20,70,1
1175,-7,-223,-122,-19,70,2
1180,-10,-224,-126,-18,70,0
1185,-9,-227,-126,-19,71,1
1190,-13,-224,-123,-19,70,1
1195,-9,-224,-128,-19,70,1
1200,-10,-222,-127,-21,69,1
1205,-13,-226,-129,-23,70,0
1210,-10,-223,-127,-25,70,0
1215,-12,-226,-125,-27,69,1
1220,-11,-223,-124,-27,68,-1
1225,-10,-222,-124,-26,67,-1
1230,-10,-226,-125,-25,67,-1
1235,-10,-224,-126,-26,68,1
1240,-9,-226,-126,-27,68,-2
1245,-9,-227,-126,-27,69,-1
1250,-11,-224,-124,-26,68,-1
1255,-12,-224,-128,-26,67,-1
1260,-12,-225,-126,-28,66,-2
1265,-13,-224,-127,-28,65,-2
1270,-14,-223,-130,-28,64,-1
1275,-17,-222,-134,-29,65,0
1280,-10,-224,-127,-29,66,0
1285,-10,-226,-127,-30,66,-1
1290,-14,-224,-126,-29,67,-2
1295,-11,-224,-127,-29,66,-2
1300,-10,-225,-127,-28,67,-3
1305,-9,-225,-125,-30,67,-3
1310,-11,-225,-130,-31,67,-3
1315,-10,-224,-126,-31,68,-2
1320,-13,-223,-126,-32,68,0
1325,-7,-227,-123,-31,67,0
1330,-13,-223,-125,-31,67,-1
1335,-10,-227,-126,-29,66,-1
1340,-11,-225,-125,-28,66,0
1345,-8,-225,-132,-27,68,1
1350,-12,-226,-125,-25,69,1
1355,-11,-225,-126,-23,71,2
1360,-13,-223,-128,-22,73,2
1365,-10,-225,-129,-19,75,1
1370,-15,-221,-126,-18,77,1
1375,-14,-225,-127,-17,77,0
1380,-12,-222,-127,-18,77,-2
1385,-11,-222,-124,-19,77,-3
1390,-11,-219,-125,-19,76,-3
1395,-12,-223,-124,-23,73,-3
1400,-13,-220,-122,-27,72,-2
1405,-9,-221,-130,-30,69,-3
1410,-10,-226,-129,-32,68,-1
1415,-10,-224,-126,-32,68,-2
1420,-7,-225,-128,-34,67,-3
1425,-11,-222,-127,-32,67,-2
1430,-13,-226,-130,-31,66,-3
1435,-12,-224,-127,-28,67,-1
1440,-9,-223,-131,-27,66,-1
1445,-12,-220,-129,-24,68,0
1450,-11,-223,-126,-21,68,-1
1455,-11,-225,-125,-20,68,0
1460,-8,-224,-132,-19,69,1
1465,-11,-224,-126,-16,72,0
1470,-15,-225,-129,-16,72,1
1475,-13,-226,-129,-14,75,3
1480,-14,-225,-131,-13,73,2
1485,-10,-226,-131,-10,75,5
1490,-11,-228,-125,-8,76,4
1495,-12,-226,-129,-7,74,5
1500,-13,-221,-127,-5,75,4
1505,-12,-221,-129,-4,74,4
1510,-11,-224,-127,-4,74,4
1515,-11,-224,-128,-4,75,2
1520,-13,-222,-127,-5,74,3
1525,-11,-222,-126,-6,74,4
1530,-11,-222,-126,-6,74,3
1535,-12,-221,-124,-6,74,3
1540,-11,-225,-123,-7,74,3
1545,-12,-224,-126,-7,73,2
1550,-10,-223,-126,-8,74,2
1555,-13,-223,-128,-8,74,1
1560,-10,-224,-127,-10,71,1
1565,-11,-224,-128,-9,71,0
1570,-8,-223,-127,-8,70,-1
1575,-10,-225,-128,-7,71,1
1580,-11,-224,-125,-5,70,-2
1585,-11,-225,-128,-5,69,-2
1590,-8,-223,-127,-3,69,-3
1595,-15,-220,-129,-4,69,-2
1600,-12,-225,-129,-4,70,-3
1605,-12,-222,-127,-4,69,-3
1610,-12,-225,-128,-3,69,-3
1615,-10,-225,-126,-3,70,-2
1620,-14,-225,-125,-5,70,-1
1625,-11,-223,-128,-6,69,-2
1630,-14,-224,-128,-7,71,-2
1635,-11,-222,-127,-9,72,-4
1640,-11,-227,-127,-10,71,-4
1645,-13,-226,-127,-11,71,-5
1650,-12,-222,-127,-11,72,-6
1655,-12,-223,-127,-11,71,-6
1660,-12,-222,-128,-11,71,-7
1665,-8,-223,-125,-12,69,-7
1670,-11,-222,-130,-12,69,-8
1675,-13,-224,-130,-12,68,-8
1680,-10,-225,-129,-13,67,-7
1685,-10,-224,-127,-14,66,-8
1690,-12,-224,-126,-14,66,-9
1695,-13,-224,-127,-13,66,-8
1700,-10,-224,-124,-13,67,-9
1705,-9,-223,-127,-12,64,-9
1710,-9,-218,-122,-12,64,-10
1715,-12,-223,-126,-10,65,-8
1720,-11,-224,-126,-12,65,-8
1725,-11,-224,-126,-12,65,-8
1730,-10,-224,-125,-11,63,-9
1735,-12,-225,-127,-12,62,-10
1740,-14,-223,-127,-10,62,-9
1745,-12,-224,-126,-10,63,-11
1750,-13,-221,-127,-10,62,-10
1755,-11,-220,-127,-10,64,-11
1760,-12,-223,-128,-9,63,-11
1765,-11,-221,-126,-10,62,-10
1770,-11,-224,-124,-10,63,-10
1775,-10,-225,-128,-9,62,-8
1780,-10,-223,-128,-10,63,-9
1785,-10,-224,-125,-11,63,-9
1790,-12,-224,-127,-9,62,-8
1795,-14,-221,-127,-8,61,-8
1800,-12,-227,-129,-7,64,-6
1805,-11,-225,-127,-7,63,-7
1810,-10,-225,-124,-6,62,-6
1815,-10,-223,-126,-5,64,-7
1820,-7,-219,-127,-4,64,-6
1825,-8,-226,-126,-3,66,-8
1830,-12,-227,-126,-3,65,-7
1835,-12,-222,-125,-1,67,-7
1840,-13,-224,-125,-2,66,-5
1845,-13,-222,-130,-1,68,-5
1850,-10,-222,-126,-2,68,-6
1855,-9,-226,-125,-1,68,-6
1860,-13,-221,-127,-3,67,-6
1865,-8,-226,-130,-2,69,-7
1870,-10,-224,-126,-4,67,-7
1875,-12,-223,-128,-3,68,-7
1880,-12,-225,-124,-3,69,-8
1885,-10,-224,-126,-3,67,-7
1890,-11,-222,-128,-3,70,-7
1895,-12,-224,-127,-5,69,-7
1900,-11,-223,-127,-6,69,-8
1905,-13,-222,-127,-6,68,-7
1910,-11,-224,-125,-7,67,-7
1915,-13,-224,-127,-7,67,-8
1920,-11,-225,-125,-6,66,-7
1925,-11,-221,-128,-3,67,-6
1930,-8,-225,-126,0,67,-8
1935,-9,-228,-128,1,68,-8
1940,-10,-226,-127,1,67,-8
1945,-10,-224,-131,2,67,-8
1950,-11,-226,-126,2,67,-7
1955,-9,-224,-126,2,67,-8
1960,-10,-225,-130,3,67,-7
1965,-9,-224,-123,4,67,-7
1970,-11,-225,-124,5,67,-5
1975,-12,-225,-125,6,68,-5
1980,-8,-226,-125,6,69,-5
1985,-10,-225,-125,5,69,-5
1990,-9,-226,-126,6,71,-5
1995,-10,-224,-127,4,72,-6
2000,-9,-223,-128,4,72,-4
2005,-13,-223,-128,4,71,-5
2010,-11,-225,-128,3,71,-5
2015,-9,-225,-125,1,72,-3
2020,-12,-223,-125,2,71,-3
2025,-9,-225,-126,2,71,-2
2030,-9,-224,-127,2,71,-2
2035,-10,-226,-127,1,70,-1
2040,-13,-225,-126,-1,71,-1
2045,-14,-224,-125,-2,72,-2
2050,-10,-225,-127,-3,73,-1
2055,-13,-222,-127,-3,74,0
2060,-12,-224,-123,-3,74,-1
2065,-9,-225,-127,-3,74,-1
2070,-10,-223,-126,-2,73,-1
2075,-12,-221,-125,-2,73,-2
2080,-13,-226,-123,-2,75,-3
2085,-12,-224,-126,-3,74,-1
2090,-13,-221,-127,-2,73,0
2095,-13,-225,-126,-1,73,0
2100,-12,-225,-123,0,72,0
2105,-6,-226,-127,1,74,0
2110,-10,-226,-124,2,72,1
2115,-10,-223,-123,2,72,1
2120,-10,-223,-130,0,72,1
2125,-8,-224,-124,0,72,0
2130,-15,-224,-126,1,73,0
2135,-9,-224,-128,0,74,1
2140,-9,-227,-121,-1,72,0
2145,-10,-224,-125,0,71,1
2150,-8,-227,-128,1,72,1
2155,-11,-224,-125,1,72,1
2160,-11,-227,-128,1,73,2
2165,-13,-226,-124,0,73,1
2170,-12,-227,-125,2,73,1
2175,-11,-227,-128,2,71,1
2180,-12,-225,-124,3,73,1
2185,-10,-228,-124,2,72,2
2190,-11,-225,-124,1,74,2
2195,-11,-227,-128,0,76,1
2200,-10,-226,-126,2,74,2
2205,-13,-222,-129,2,74,2
2210,-12,-224,-128,4,75,1
2215,-9,-228,-124,3,74,0
2220,-12,-222,-124,4,75,0
2225,-9,-229,-122,5,77,1
2230,-10,-226,-126,6,78,0
2235,-9,-225,-124,6,78,1
2240,-9,-226,-123,6,77,1
2245,-11,-224,-129,6,75,2
2250,-12,-224,-125,6,75,0
2255,-8,-224,-127,6,74,-2
2260,-11,-225,-121,5,73,-1
2265,-8,-226,-130,5,73,0
2270,-10,-227,-126,3,73,-1
2275,-8,-226,-121,2,72,0
2280,-11,-226,-127,1,71,-1
2285,-12,-228,-123,0,73,0
2290,-8,-226,-121,-1,73,1
2295,-10,-224,-129,-2,74,1
2300,-12,-226,-124,-3,74,2
2305,-11,-223,-125,-2,76,1
2310,-12,-227,-126,-1,79,2
2315,-13,-224,-124,-1,80,3
2320,-11,-224,-125,-3,83,2
2325,-11,-226,-124,-4,84,2
2330,-11,-226,-126,-5,85,0
2335,-10,-225,-123,-6,85,-1
2340,-9,-226,-128,-6,84,-4
2345,-12,-225,-126,-5,83,-3
2350,-9,-225,-122,-5,82,-4
2355,-9,-225,-125,-7,81,-4
2360,-11,-224,-126,-7,79,-5
2365,-11,-223,-125,-10,80,-3
2370,-11,-228,-122,-10,80,-4
2375,-12,-224,-123,-11,81,-3
2380,-13,-224,-124,-10,80,-2
2385,-10,-227,-119,-10,79,-1
2390,-11,-226,-126,-8,79,-2
2395,-11,-227,-124,-7,77,-2
2400,-10,-223,-125,-8,76,-2
2405,-13,-224,-123,-5,74,-4
2410,-10,-227,-123,-6,73,-4
2415,-11,-224,-127,-5,73,-5
2420,-13,-225,-127,-6,71,-4
2425,-11,-227,-125,-4,71,-4
2430,-14,-221,-126,-4,70,-4
2435,-11,-225,-124,-4,71,-4
2440,-10,-226,-122,-4,71,-2
2445,-12,-226,-127,-3,72,-2
2450,-12,-224,-124,-4,74,-1
2455,-9,-226,-123,-2,74,1
2460,-11,-228,-124,-4,75,2
2465,-11,-222,-124,-2,77,2
2470,-13,-225,-124,-4,78,3
2475,-10,-223,-123,-3,79,3
2480,-9,-227,-121,-3,77,3
2485,-10,-225,-127,-3,78,4
2490,-11,-225,-125,-2,78,2
2495,-13,-226,-124,-2,77,1
2500,-11,-224,-125,-2,77,2
2505,-10,-228,-123,-1,76,2
2510,-12,-225,-122,-1,75,0
2515,-11,-226,-124,-1,75,1
2520,-11,-225,-121,-3,74,1
2525,-11,-225,-124,-3,73,2
2530,-12,-225,-125,-3,73,2
2535,-8,-227,-125,-3,75,2
2540,-10,-226,-125,-3,74,1
2545,-11,-227,-122,-4,73,2
2550,-8,-227,-127,-4,73,2
2555,-12,-225,-123,-3,73,1
2560,-13,-225,-126,-3,72,1
2565,-11,-224,-124,-5,73,0
2570,-8,-228,-123,-3,72,0
2575,-12,-225,-122,-4,73,1
2580,-11,-225,-123,-3,72,1
2585,-14,-223,-127,-5,72,0
2590,-13,-226,-128,-4,73,0
2595,-11,-224,-126,-5,72,-1
2600,-10,-225,-126,-6,73,-1
2605,-13,-223,-121,-6,72,0
2610,-14,-222,-124,-7,70,-1
2615,-12,-223,-124,-11,69,-3
2620,-9,-227,-127,-14,69,-3
2625,-11,-227,-125,-16,68,-3
2630,-11,-225,-124,-17,68,-4
2635,-12,-221,-122,-21,68,-6
2640,-13,-220,-123,-22,69,-4
2645,-10,-224,-126,-22,69,-4
2650,-11,-226,-127,-26,68,-5
2655,-9,-224,-125,-28,69,-4
2660,-12,-221,-121,-29,68,-4
2665,-11,-224,-128,-30,68,-3
2670,-10,-227,-126,-32,69,-3
2675,-12,-223,-123,-32,70,-3
2680,-13,-224,-124,-32,70,-2
2685,-10,-225,-127,-33,72,0
2690,-8,-224,-127,-33,72,1
2695,-12,-222,-123,-34,74,0
2700,-9,-226,-126,-34,75,1
2705,-9,-223,-128,-36,77,1
2710,-13,-221,-127,-39,79,1
2715,-7,-223,-126,-42,80,1
2720,-9,-223,-126,-44,84,2
2725,-9,-221,-125,-48,85,4
2730,-9,-225,-124,-49,87,3
2735,-7,-224,-129,-50,87,3
2740,-10,-223,-127,-51,88,4
2745,-9,-224,-128,-52,88,6
2750,-12,-221,-129,-54,90,8
2755,-8,-224,-129,-59,92,10
2760,-10,-221,-133,-62,92,12
2765,-10,-219,-128,-65,94,14
2770,-7,-223,-130,-68,97,15
2775,-6,-220,-129,-70,101,16
2780,-7,-220,-134,-72,105,18
2785,-5,-218,-131,-74,110,20
2790,-2,-217,-133,-77,114,21
2795,-7,-214,-132,-82,120,21
2800,-7,-212,-126,-90,125,20
2805,-6,-213,-128,-99,129,18
2810,-6,-212,-129,-111,132,17
2815,-9,-209,-133,-125,133,16
2820,-10,-207,-132,-137,131,15
2825,-7,-210,-133,-150,129,15
2830,-9,-206,-138,-163,125,15
2835,-11,-211,-134,-175,123,13
2840,-13,-210,-139,-186,118,13
2845,-10,-208,-137,-197,115,13
2850,-8,-210,-138,-208,113,13
2855,-8,-211,-139,-217,113,12
2860,-12,-208,-140,-226,113,12
2865,-7,-210,-138,-232,113,12
2870,-10,-206,-139,-240,113,14
2875,-9,-207,-142,-246,115,17
2880,-7,-209,-139,-255,118,19
2885,-12,-208,-136,-263,121,23
2890,-7,-206,-135,-272,128,25
2895,-10,-207,-133,-281,135,28
2900,-10,-207,-139,-290,141,33
2905,-5,-210,-139,-299,147,37
2910,-7,-213,-143,-307,153,39
2915,-7,-209,-138,-316,158,42
2920,-4,-207,-140,-323,164,45
2925,-6,-208,-138,-334,167,46
2930,-7,-203,-137,-345,169,46
2935,-8,-202,-141,-357,170,46
2940,-8,-204,-143,-370,171,47
2945,-6,-199,-146,-384,172,46
2950,-4,-200,-143,-397,174,47
2955,-5,-200,-139,-411,176,46
2960,-6,-204,-142,-426,178,44
2965,-8,-199,-147,-441,181,43
2970,-6,-200,-147,-455,181,42
2975,-7,-202,-146,-471,182,43
2980,-8,-198,-146,-485,182,42
2985,-6,-201,-148,-499,183,41
2990,-9,-194,-148,-514,185,41
2995,-8,-200,-149,-527,186,43
3000,-6,-199,-152,-537,189,44
3005,-6,-196,-149,-550,192,44
3010,-11,-195,-152,-562,194,44
3015,-8,-192,-154,-575,199,43
3020,-3,-193,-154,-587,202,43
3025,-4,-193,-155,-601,208,43
3030,-3,-194,-158,-616,213,41
3035,-3,-191,-159,-635,220,41
3040,-7,-189,-162,-654,228,40
3045,-5,-189,-160,-674,234,39
3050,-3,-188,-162,-695,242,34
3055,-4,-189,-164,-719,251,31
3060,-3,-185,-163,-744,256,30
3065,-2,-183,-168,-769,262,26
3070,4,-182,-169,-794,267,23
3075,-3,-180,-169,-818,272,21
3080,-3,-182,-172,-840,274,20
3085,-4,-180,-168,-860,277,18
3090,-3,-179,-168,-879,278,17
3095,-5,-178,-167,-892,279,17
3100,-4,-176,-171,-904,281,18
3105,-4,-173,-169,-918,279,18
3110,-2,-175,-169,-932,278,19
3115,0,-170,-172,-946,276,21
3120,-3,-170,-175,-960,272,21
3125,-1,-168,-174,-974,267,25
3130,-3,-163,-175,-986,261,25
3135,0,-166,-177,-1000,256,23
3140,-2,-162,-176,-1019,250,30
3145,0,-160,-175,-1036,248,36
3150,-2,-159,-174,-1052,247,42
3155,-1,-155,-174,-1069,247,46
3160,0,-157,-175,-1088,245,48
3165,-1,-153,-177,-1109,244,49
3170,0,-150,-176,-1132,245,47
3175,-2,-148,-177,-1157,245,42
3180,-2,-147,-178,-1187,245,35
3185,-3,-145,-176,-1223,244,27
3190,-1,-144,-181,-1264,243,20
3195,-5,-144,-178,-1305,242,10
3200,-4,-138,-182,-1350,241,1
3205,-4,-137,-180,-1394,239,-6
3210,-6,-140,-183,-1434,237,-10
3215,-7,-137,-185,-1472,235,-13
3220,-7,-138,-189,-1507,233,-17
3225,-2,-134,-188,-1538,228,-19
3230,-6,-130,-197,-1564,223,-22
3235,-3,-134,-192,-1584,218,-25
3240,-1,-131,-198,-1602,212,-22
3245,-1,-130,-198,-1615,206,-22
3250,0,-129,-198,-1626,202,-21
3255,-2,-130,-198,-1636,196,-18
3260,-1,-129,-199,-1644,189,-14
3265,-3,-127,-202,-1651,181,-11
3270,1,-127,-203,-1659,173,-6
3275,0,-128,-201,-1669,165,-4
3280,0,-127,-207,-1681,159,1
3285,-1,-128,-205,-1698,152,3
3290,-3,-127,-207,-1716,145,0
3295,-5,-126,-210,-1736,140,-4
3300,-5,-125,-212,-1757,133,-11
3305,-10,-130,-213,-1778,125,-18
3310,-11,-125,-212,-1796,116,-26
3315,-16,-125,-215,-1812,109,-34
3320,-16,-126,-215,-1824,102,-44
3325,-16,-127,-222,-1831,98,-49
3330,-17,-126,-215,-1831,95,-53
3335,-12,-134,-220,-1826,92,-58
3340,-14,-133,-222,-1809,89,-68
3345,-13,-133,-224,-1780,84,-82
3350,-11,-130,-227,-1746,74,-93
3355,-9,-130,-229,-1705,62,-98
3360,-6,-131,-228,-1664,50,-99
3365,-3,-129,-228,-1621,40,-97
3370,-1,-130,-233,-1582,29,-96
3375,0,-126,-236,-1547,18,-94
3380,-1,-126,-234,-1519,9,-95
3385,0,-123,-235,-1496,-2,-96
3390,0,-124,-236,-1473,-13,-98
3395,3,-124,-238,-1452,-20,-98
3400,3,-122,-243,-1434,-26,-99
3405,4,-120,-241,-1418,-29,-100
3410,4,-118,-243,-1402,-29,-99
3415,9,-119,-245,-1385,-29,-99
3420,7,-117,-252,-1370,-26,-99
3425,7,-115,-252,-1353,-25,-102
3430,6,-111,-256,-1339,-20,-105
3435,6,-110,-261,-1321,-15,-110
3440,5,-111,-258,-1304,-10,-112
3445,8,-105,-257,-1287,-6,-114
3450,4,-106,-257,-1272,-4,-118
3455,1,-106,-265,-1258,-4,-116
3460,-2,-103,-263,-1246,-2,-116
3465,-4,-103,-262,-1234,0,-119
3470,-5,-101,-265,-1225,1,-123
3475,-4,-94,-261,-1220,2,-136
3480,-4,-95,-261,-1212,5,-138
3485,-1,-91,-260,-1197,12,-133
3490,-7,-88,-257,-1177,17,-133
3495,-4,-84,-257,-1153,21,-133
3500,-7,-84,-253,-1129,26,-136
3505,-6,-76,-252,-1105,28,-140
3510,-3,-79,-249,-1082,30,-144
3515,-2,-73,-243,-1062,28,-148
3520,-2,-61,-238,-1055,24,-162
3525,1,-58,-237,-1047,16,-154
3530,0,-54,-233,-1041,11,-151
3535,0,-50,-235,-1042,4,-152
3540,-2,-48,-230,-1052,-6,-153
3545,1,-43,-231,-1065,-15,-156
3550,-1,-37,-231,-1089,-21,-155
3555,0,-33,-234,-1122,-29,-156
3560,-1,-28,-240,-1161,-31,-155
3565,-2,-33,-242,-1204,-29,-152
3570,-3,-31,-245,-1255,-21,-160
3575,1,-30,-248,-1302,-9,-163
3580,2,-32,-252,-1334,1,-147
3585,1,-32,-261,-1355,15,-136
3590,2,-32,-266,-1361,22,-121
3595,2,-36,-267,-1354,26,-111
3600,3,-35,-269,-1333,22,-102
3605,1,-39,-273,-1298,18,-96
3610,1,-40,-270,-1262,12,-98
3615,4,-35,-272,-1237,1,-110
3620,3,-32,-271,-1205,-6,-97
3625,0,-26,-271,-1176,-5,-93
3630,0,-27,-270,-1154,-4,-94
3635,0,-24,-268,-1138,-2,-105
3640,-3,-22,-262,-1128,0,-120
3645,-1,-17,-263,-1130,5,-127
3650,-3,-12,-256,-1141,13,-125
3655,-14,-4,-256,-1158,20,-141
3660,-7,0,-254,-1170,29,-146
3665,-7,1,-254,-1169,37,-138
3670,-3,2,-250,-1165,47,-119
3675,-3,4,-252,-1155,61,-95
3680,-3,4,-250,-1143,75,-76
3685,-3,11,-247,-1136,84,-81
3690,2,8,-251,-1116,83,-56
3695,7,10,-253,-1084,88,-15
3700,7,11,-259,-1053,94,20
3705,11,10,-262,-1028,94,36
3710,13,21,-257,-1021,89,50
3715,13,23,-264,-1001,71,46
3720,13,22,-266,-979,57,40
3725,9,24,-266,-966,43,28
3730,6,24,-271,-956,31,3
3735,6,23,-267,-953,21,-30
3740,5,25,-268,-941,12,-43
3745,0,26,-267,-918,16,-52
3750,-9,29,-263,-894,22,-61
3755,-9,27,-266,-875,31,-68
3760,-17,20,-265,-863,45,-74
3765,-18,28,-259,-856,53,-69
3770,-21,31,-258,-834,66,-65
3775,-20,33,-254,-805,82,-62
3780,-21,36,-253,-777,97,-58
3785,-25,34,-254,-760,109,-56
3790,-19,45,-252,-752,117,-50
3795,-20,49,-256,-739,122,-47
3800,-23,50,-253,-733,125,-54
3805,-20,59,-244,-740,124,-55
3810,-15,59,-251,-739,117,-29
3815,-15,54,-251,-727,111,-29
3820,-13,47,-249,-723,101,-32
3825,-10,60,-244,-727,84,-31
3830,-8,56,-243,-721,73,-24
3835,-8,57,-246,-719,62,-21
3840,-8,60,-247,-728,52,-19
3845,0,59,-249,-739,46,-16
3850,-2,48,-255,-731,42,-13
3855,1,65,-253,-736,41,-9
3860,1,55,-257,-739,36,-11
3865,7,61,-263,-740,31,-20
3870,1,65,-265,-737,28,-33
3875,0,59,-270,-728,30,-41
3880,-2,68,-270,-726,33,-52
3885,-2,66,-270,-719,39,-60
3890,-1,63,-266,-718,43,-68
3895,-1,71,-262,-727,50,-82
3900,-2,71,-264,-718,58,-76
3905,0,71,-262,-712,64,-66
3910,0,71,-257,-707,71,-58
3915,-2,72,-256,-698,80,-44
3920,0,70,-253,-683,89,-46
3925,1,71,-250,-675,90,-43
3930,1,72,-249,-666,93,-41
3935,0,67,-248,-654,98,-42
3940,0,75,-245,-636,99,-42
3945,1,76,-243,-615,100,-41
3950,2,78,-245,-599,99,-38
3955,1,78,-245,-592,95,-36
3960,-1,74,-245,-593,92,-32
3965,-4,85,-244,-596,89,-29
3970,-2,82,-245,-585,86,-27
3975,-8,77,-251,-577,83,-24
3980,-5,75,-248,-573,79,-22
3985,-2,81,-248,-576,70,-20
3990,-4,75,-248,-562,60,-19
3995,-4,83,-246,-571,47,-44
4000,0,88,-250,-552,38,-13
4005,-1,86,-249,-520,43,6
4010,-2,84,-248,-502,38,17
4015,-2,81,-248,-493,36,22
4020,0,91,-248,-491,34,22
4025,0,91,-252,-476,34,20
4030,1,94,-247,-465,41,37
4035,-2,91,-253,-456,44,37
4040,0,92,-248,-437,38,25
4045,0,91,-250,-423,32,18
4050,0,87,-248,-410,30,13
4055,0,89,-248,-397,26,9
4060,-4,87,-246,-387,23,6
4065,-1,92,-243,-384,21,9
4070,1,93,-246,-363,20,9
4075,0,93,-247,-341,21,16
4080,0,95,-240,-331,21,22
4085,-2,95,-247,-324,21,26
4090,0,92,-244,-318,25,31
4095,-3,95,-247,-307,29,37
4100,-4,94,-245,-293,31,37
4105,-3,98,-245,-279,34,39
4110,-2,92,-248,-264,34,40
4115,0,95,-242,-251,34,43
4120,0,96,-240,-238,34,45
4125,0,90,-240,-223,32,46
4130,1,96,-240,-214,30,48
4135,0,98,-240,-205,27,49
4140,0,97,-236,-198,25,46
4145,-2,97,-239,-190,23,44
4150,-2,99,-237,-183,24,41
4155,0,100,-243,-175,23,37
4160,-2,103,-242,-168,26,34
4165,-2,100,-239,-162,28,34
4170,-2,99,-239,-155,33,30
4175,-6,102,-236,-148,37,29
4180,0,100,-238,-138,42,29
4185,-2,100,-237,-129,47,29
4190,-1,100,-239,-119,51,30
4195,-1,99,-239,-107,54,30
4200,-2,100,-238,-96,56,28
4205,0,100,-232,-85,59,26
4210,-3,102,-238,-75,63,24
4215,0,103,-235,-67,66,21
4220,-4,106,-234,-61,70,19
4225,1,103,-230,-56,75,16
4230,-2,106,-232,-50,77,13
4235,1,102,-233,-47,76,8
4240,0,103,-237,-46,74,4
4245,0,107,-234,-42,71,1
4250,0,103,-237,-38,69,0
4255,-2,102,-235,-34,65,-1
4260,0,105,-236,-29,64,0
4265,0,104,-236,-25,63,0
4270,-1,105,-239,-22,63,0
4275,-1,104,-236,-17,63,4
4280,-1,102,-237,-11,62,7
4285,0,102,-234,-8,59,10
4290,-3,105,-236,-2,56,15
4295,0,106,-239,3,55,19
4300,-1,106,-235,8,49,22
4305,0,108,-235,11,44,26
4310,-2,109,-234,15,41,28
4315,-2,108,-231,16,40,28
4320,-1,107,-237,14,39,25
4325,-5,108,-231,11,37,25
4330,-4,106,-233,7,36,22
4335,-5,107,-234,8,32,22
4340,-5,104,-234,10,30,21
4345,-9,107,-232,10,28,20
4350,-3,104,-232,12,25,19
4355,-6,107,-235,13,23,19
4360,-3,108,-234,15,22,18
4365,-6,107,-232,16,21,17
4370,-7,107,-233,18,21,14
4375,-3,109,-234,17,24,11
4380,-6,105,-230,17,28,9
4385,-6,106,-228,14,29,7
4390,-7,108,-230,12,33,7
4395,-5,105,-232,8,38,5
4400,-6,107,-233,6,40,2
4405,-8,105,-231,1,41,0
4410,-6,105,-229,-1,42,1
4415,-3,107,-226,-2,44,1
4420,-6,111,-236,-3,43,0
4425,-8,110,-231,-5,45,1
4430,-3,112,-233,-6,46,1
4435,-4,111,-229,-10,46,1
4440,-2,107,-231,-13,47,1
4445,-5,110,-236,-15,50,2
4450,-4,106,-234,-17,52,3
4455,-4,106,-233,-18,54,4
4460,-5,105,-232,-19,57,5
4465,-1,106,-237,-17,60,6
4470,-4,107,-232,-16,62,8
4475,-2,103,-233,-16,63,6
4480,-3,105,-233,-14,65,5
4485,-6,107,-232,-13,67,6
4490,-3,104,-230,-12,69,3
4495,-4,103,-229,-11,70,3
4500,-6,106,-232,-12,71,2
4505,-2,106,-232,-14,72,3
4510,-4,100,-239,-17,73,5
4515,-3,105,-230,-19,73,6
4520,-5,104,-229,-21,77,10
4525,-2,106,-232,-20,77,14
4530,-4,106,-229,-25,77,17
4535,-2,105,-231,-30,76,19
4540,-4,102,-228,-31,76,22
4545,-3,100,-229,-30,72,23
4550,-4,102,-230,-26,71,24
4555,-3,100,-231,-22,69,23
4560,-6,105,-230,-19,68,22
4565,-2,102,-231,-14,65,22
4570,-2,103,-236,-11,63,21
4575,0,100,-230,-10,61,20
4580,-2,104,-232,-10,61,18
4585,-2,101,-234,-9,62,18
4590,0,103,-235,-9,64,17
4595,-1,105,-233,-9,64,17
4600,-1,102,-231,-11,65,17
4605,-2,105,-232,-15,67,15
4610,-5,108,-236,-17,66,13
4615,-3,104,-230,-20,66,11
4620,0,105,-231,-22,66,9
4625,-2,108,-231,-24,64,8
4630,-3,108,-234,-26,67,7
4635,-2,109,-232,-26,66,7
4640,-4,109,-233,-26,65,5
4645,-1,111,-236,-28,67,4
4650,-4,112,-236,-32,69,4
4655,0,108,-235,-35,71,5
4660,-1,108,-240,-39,73,4
4665,-1,109,-240,-42,77,3
4670,0,105,-234,-45,80,2
4675,-3,105,-233,-46,82,1
4680,0,106,-234,-46,85,0
4685,0,106,-235,-46,88,-3
4690,0,108,-232,-45,91,-3
4695,0,103,-233,-39,93,-3
4700,-1,103,-235,-35,95,-3
4705,-1,104,-235,-30,98,0
4710,-4,102,-230,-24,99,-1
4715,0,104,-235,-19,101,-3
4720,-2,104,-229,-17,102,-3
4725,2,108,-236,-14,104,-4
4730,0,106,-233,-11,105,-5
4735,1,105,-230,-12,104,-6
4740,0,106,-233,-13,104,-7
4745,-2,106,-235,-12,104,-8
4750,-1,105,-230,-11,103,-8
4755,0,109,-231,-10,103,-8
4760,0,109,-237,-10,103,-10
4765,-3,108,-231,-11,104,-9
4770,1,104,-232,-9,104,-10
4775,0,108,-231,-9,103,-10
4780,0,109,-235,-9,103,-11
4785,-1,106,-227,-11,103,-11
4790,-1,104,-231,-10,103,-11
4795,0,106,-235,-11,102,-11
4800,-2,106,-226,-10,102,-12
4805,-2,107,-234,-9,100,-13
4810,-2,105,-233,-8,98,-15
4815,-3,105,-234,-4,100,-18
4820,-3,104,-232,-1,98,-19
4825,-3,110,-233,1,100,-20
4830,-4,110,-234,4,98,-22
4835,-6,108,-235,6,99,-25
4840,-3,104,-236,8,100,-25
4845,-4,109,-234,10,99,-27
4850,-1,110,-236,13,99,-27
4855,-5,107,-235,16,96,-26
4860,-3,111,-236,18,95,-26
4865,-1,104,-236,22,95,-26
4870,0,108,-234,27,96,-26
4875,-1,106,-231,29,94,-28
4880,-4,107,-234,30,94,-27
4885,-1,104,-231,30,93,-26
4890,-4,107,-230,29,92,-26
4895,-1,106,-234,30,91,-26
4900,-3,106,-231,30,91,-26
4905,-1,102,-232,29,93,-27
4910,0,107,-234,28,94,-28
4915,-1,108,-232,27,95,-28
4920,-2,112,-229,26,97,-27
4925,-2,113,-232,23,100,-26
4930,-2,110,-237,20,102,-23
4935,0,111,-235,19,104,-20
4940,-2,110,-232,18,108,-16
4945,-1,109,-231,16,110,-13
4950,0,111,-237,14,112,-8
4955,2,111,-233,13,115,-4
4960,0,110,-234,8,116,-1
4965,0,108,-234,6,117,0
4970,0,106,-234,4,116,-2
4975,0,102,-231,4,115,-3
4980,0,105,-225,1,115,-5
4985,2,102,-227,1,115,-8
4990,0,103,-227,1,112,-12
4995,0,102,-232,1,110,-15
5000,1,104,-232,0,108,-18
5005,1,104,-232,-1,106,-19
5010,0,107,-231,-2,104,-20
5015,0,104,-234,-5,105,-21
5020,0,104,-229,-6,106,-21
5025,-2,105,-229,-5,106,-21
5030,-2,105,-232,-4,108,-21
5035,-2,105,-229,-3,108,-21
5040,0,103,-228,-6,108,-22
5045,0,98,-233,-8,108,-21
5050,0,102,-231,-10,104,-23
5055,1,99,-227,-12,101,-23
5060,-2,105,-233,-13,98,-23
5065,1,104,-231,-13,95,-24
5070,1,105,-233,-12,91,-22
5075,0,105,-237,-12,90,-20
5080,0,104,-235,-12,91,-20
5085,0,104,-234,-12,90,-20
5090,0,102,-234,-11,92,-19
5095,0,103,-235,-10,93,-18
5100,0,105,-234,-9,96,-18
5105,-2,107,-236,-9,97,-17
5110,1,103,-233,-6,99,-16
5115,0,105,-232,-5,102,-16
5120,0,104,-236,-1,104,-17
5125,0,103,-236,4,104,-18
5130,1,105,-232,9,102,-18
5135,0,101,-235,16,101,-18
5140,0,101,-234,22,100,-16
5145,1,100,-232,28,98,-16
5150,0,103,-234,32,99,-14
5155,0,104,-232,34,97,-14
5160,3,108,-234,32,97,-14
5165,1,104,-233,26,97,-16
5170,-2,105,-233,21,96,-18
5175,0,103,-234,18,96,-18
5180,-1,101,-237,19,96,-19
5185,-1,104,-231,19,97,-21
5190,0,101,-232,22,97,-20
5195,0,103,-232,22,99,-20
5200,0,100,-230,24,100,-22
5205,0,101,-233,27,98,-21
5210,2,98,-225,31,96,-19
5215,0,102,-233,36,94,-17
5220,0,101,-231,42,93,-15
5225,0,105,-230,48,91,-15
5230,1,102,-228,53,88,-15
5235,0,103,-235,57,86,-12
5240,0,101,-236,62,84,-11
5245,0,102,-236,64,84,-10
5250,1,102,-234,64,85,-11
5255,1,104,-232,64,85,-11
5260,0,105,-234,61,85,-13
5265,-1,105,-231,58,88,-15
5270,-2,101,-231,56,91,-16
5275,-1,103,-234,52,93,-20
5280,0,104,-236,48,92,-22
5285,-4,98,-232,43,92,-26
5290,-1,100,-239,41,92,-27
5295,-1,103,-238,39,91,-30
5300,0,102,-236,37,91,-30
5305,-2,105,-234,33,92,-30
5310,0,103,-236,32,96,-30
5315,1,102,-238,29,96,-29
5320,-1,103,-234,28,98,-29
5325,-2,103,-237,27,101,-27
5330,0,102,-236,24,103,-26
5335,0,102,-237,24,105,-23
5340,1,103,-235,25,107,-21
5345,2,103,-235,28,110,-21
5350,0,104,-235,31,112,-18
5355,1,105,-237,35,110,-17
5360,3,106,-234,35,109,-15
5365,1,105,-231,35,106,-14
5370,3,99,-233,30,102,-11
5375,2,102,-230,24,100,-11
5380,1,102,-236,17,97,-7
5385,3,97,-233,11,94,-6
5390,3,100,-234,8,91,-5
5395,3,99,-232,9,90,-2
5400,1,100,-237,8,89,-2
5405,1,101,-233,10,88,0
5410,1,101,-235,12,87,2
5415,1,96,-236,14,87,1
5420,1,101,-235,15,86,0
5425,2,100,-235,14,85,-2
5430,0,102,-235,13,83,-3
5435,0,102,-230,12,82,-6
5440,-1,103,-235,8,82,-9
5445,2,95,-230,7,81,-12
5450,0,99,-232,7,82,-17
5455,0,99,-237,7,83,-20
5460,1,100,-238,4,82,-23
5465,0,101,-236,4,84,-28
5470,0,98,-233,4,86,-29
5475,0,99,-236,5,89,-29
5480,2,95,-232,8,91,-28
5485,1,98,-237,11,93,-26
5490,0,98,-233,14,94,-22
5495,0,102,-234,16,94,-19
5500,2,100,-234,18,96,-15
5505,2,97,-232,20,96,-11
5510,2,98,-236,21,97,-9
5515,2,101,-232,22,97,-8
5520,3,99,-237,24,98,-8
5525,3,97,-232,24,97,-6
5530,2,101,-232,26,98,-6
5535,3,97,-237,26,99,-6
5540,6,101,-234,25,98,-7
5545,2,99,-234,23,98,-7
5550,5,100,-239,19,97,-8
5555,3,100,-238,14,97,-7
5560,3,100,-235,10,96,-6
5565,4,99,-237,8,96,-4
5570,5,99,-232,4,98,-5
5575,7,100,-237,4,100,-2
5580,4,100,-234,3,103,0
5585,6,99,-235,2,105,-2
5590,5,100,-238,3,106,-3
5595,4,100,-238,4,105,-7
5600,3,98,-232,3,105,-11
5605,6,97,-233,3,101,-14
5610,6,95,-232,1,97,-19
5615,6,96,-238,1,92,-22
5620,4,96,-237,1,86,-27
5625,6,97,-234,3,79,-31
5630,3,98,-238,6,73,-34
5635,3,101,-236,8,67,-37
5640,4,97,-235,10,65,-40
5645,5,96,-235,11,62,-42
5650,4,98,-234,14,59,-41
5655,3,99,-239,17,58,-43
5660,1,100,-236,17,58,-45
5665,0,100,-238,20,58,-45
5670,1,96,-238,24,58,-45
5675,2,99,-234,25,58,-44
5680,2,101,-237,26,58,-44
5685,0,102,-235,26,58,-42
5690,4,99,-233,25,59,-39
5695,4,100,-232,24,59,-37
5700,2,100,-236,24,59,-38
5705,5,99,-237,23,61,-38
5710,3,98,-235,23,63,-38
5715,1,99,-237,21,65,-38
5720,5,99,-233,20,67,-39
5725,5,97,-235,18,69,-38
5730,3,97,-233,17,70,-40
5735,1,98,-235,15,69,-40
5740,1,94,-234,14,68,-41
5745,1,98,-233,14,68,-44
5750,-1,100,-238,12,68,-45
5755,0,98,-235,10,67,-44
5760,1,99,-235,8,69,-43
5765,-2,99,-236,5,69,-44
5770,0,100,-234,1,69,-44
5775,0,98,-238,-1,70,-42
5780,-2,101,-234,-5,71,-42
5785,-3,97,-230,-7,72,-40
5790,-1,102,-236,-10,73,-39
5795,0,95,-240,-11,74,-38
5800,0,99,-236,-12,74,-39
5805,0,101,-236,-14,76,-38
5810,0,95,-235,-12,76,-39
5815,0,99,-236,-12,77,-38
5820,0,98,-233,-13,78,-37
5825,-1,102,-236,-15,78,-37
5830,-1,99,-233,-16,77,-35
5835,-3,100,-236,-16,77,-35
5840,-1,101,-237,-16,76,-35
5845,0,100,-235,-16,74,-35
5850,-1,101,-241,-16,72,-35
5855,-1,103,-233,-15,73,-35
5860,-2,101,-237,-16,71,-33
5865,0,101,-236,-17,70,-31
5870,0,101,-234,-17,69,-30
5875,-2,99,-236,-18,71,-30
5880,-1,99,-233,-18,73,-27
5885,-3,99,-234,-18,76,-26
5890,-1,98,-237,-17,78,-24
5895,0,102,-237,-16,80,-24
5900,2,95,-235,-16,83,-22
5905,1,99,-233,-14,85,-21
5910,0,98,-235,-12,87,-19
5915,0,99,-237,-11,89,-19
5920,-1,99,-238,-10,88,-19
5925,0,98,-235,-10,89,-17
5930,0,102,-233,-9,87,-15
5935,0,102,-237,-8,86,-14
5940,-1,98,-236,-6,85,-13
5945,0,97,-234,-5,83,-13
5950,1,97,-237,-3,81,-13
5955,-1,100,-237,-2,82,-10
5960,-1,98,-237,0,80,-10
5965,1,102,-236,1,80,-10
5970,0,101,-236,1,78,-8
5975,0,98,-235,0,79,-7
5980,0,99,-232,0,78,-5
5985,-1,102,-233,-3,80,-5
5990,0,97,-235,-4,79,-3
5995,-2,101,-231,-6,80,-3
6000,0,100,-236,-7,80,-2
6005,0,97,-241,-6,81,-2
6010,1,100,-236,-7,81,-2
6015,-2,99,-235,-5,81,-2
6020,1,97,-234,-3,80,-3
6025,1,98,-237,-2,80,-3
6030,0,102,-237,-1,78,-4
6035,1,98,-236,0,78,-5
6040,-1,98,-236,0,76,-4
6045,2,99,-230,1,73,-5
6050,0,98,-236,2,72,-5
6055,1,100,-238,2,71,-4
6060,1,99,-237,2,70,-4
6065,-3,100,-236,5,70,-3
6070,1,99,-235,8,71,-1
6075,0,98,-235,13,72,2
6080,0,96,-239,19,73,5
6085,0,96,-236,25,73,8
6090,0,96,-238,29,71,10
6095,0,97,-233,30,72,12
6100,1,101,-236,29,73,13
6105,1,96,-236,27,74,13
6110,0,97,-235,24,73,14
6115,2,95,-235,20,73,12
6120,3,98,-236,17,73,10
6125,3,95,-239,17,72,9
6130,3,99,-240,19,75,10
6135,2,97,-240,22,76,10
6140,0,96,-237,27,81,14
6145,2,96,-238,31,84,17
6150,3,94,-237,36,87,16
6155,2,94,-238,43,89,16
6160,2,95,-239,49,88,14
6165,4,93,-239,56,87,15
6170,2,96,-241,64,86,12
6175,1,97,-241,71,83,8
6180,1,98,-240,76,80,4
6185,2,95,-238,82,75,1
6190,1,95,-243,88,72,-1
6195,0,96,-243,93,68,-4
6200,0,95,-244,98,67,-6
6205,0,95,-240,104,65,-7
6210,-2,95,-240,108,64,-6
6215,0,94,-243,113,65,-6
6220,1,92,-242,119,64,-7
6225,0,93,-243,127,65,-7
6230,0,94,-246,133,63,-6
6235,0,84,-241,140,62,-4
6240,1,89,-238,147,60,-2
6245,0,91,-245,155,60,-2
6250,0,90,-241,163,61,-1
6255,2,88,-241,173,59,1
6260,3,91,-243,183,58,2
6265,1,92,-241,194,55,2
6270,1,90,-244,204,53,2
6275,2,88,-241,214,51,3
6280,4,94,-244,220,50,2
6285,4,87,-242,229,48,0
6290,1,90,-241,237,46,0
6295,2,89,-247,245,43,-1
6300,1,87,-240,253,43,-2
6305,2,83,-243,262,45,-2
6310,1,88,-243,270,45,-2
6315,0,88,-243,279,48,-4
6320,1,84,-242,286,50,-2
6325,1,86,-243,297,52,-3
6330,1,83,-241,304,55,0
6335,1,84,-239,309,56,-1
6340,-1,78,-243,313,58,1
6345,1,86,-243,315,57,1
6350,1,83,-246,317,57,-1
6355,2,82,-246,317,56,-2
6360,0,80,-246,316,54,-3
6365,0,80,-243,314,54,-6
6370,3,77,-246,314,53,-7
6375,1,81,-246,316,51,-7
6380,1,79,-244,320,50,-6
6385,2,80,-248,327,47,-5
6390,1,80,-243,335,45,-4
6395,0,78,-245,343,40,-2
6400,0,80,-248,351,39,-1
6405,4,76,-253,358,35,-1
6410,1,77,-248,364,34,0
6415,1,77,-249,368,33,-2
6420,0,75,-247,369,34,-1
6425,1,80,-243,368,35,-1
6430,1,74,-244,369,35,-2
6435,0,77,-245,369,36,-4
6440,1,76,-244,369,38,-4
6445,2,71,-242,369,41,-2
6450,0,72,-242,368,43,1
6455,0,72,-242,367,47,4
6460,1,70,-244,364,51,8
6465,1,71,-240,362,54,13
6470,2,71,-245,360,58,15
6475,2,70,-242,358,60,17
6480,1,72,-247,356,62,18
6485,0,73,-246,354,64,19
6490,2,69,-243,354,66,20
6495,2,71,-245,351,66,19
6500,3,74,-241,347,66,18
6505,-3,65,-244,343,67,17
6510,0,69,-245,339,68,16
6515,1,67,-245,334,67,14
6520,0,69,-243,329,65,12
6525,0,66,-244,327,62,11
6530,0,65,-243,324,60,9
6535,0,65,-245,324,58,8
6540,1,63,-242,323,57,8
6545,0,65,-243,320,55,7
6550,1,62,-240,319,54,7
6555,7,68,-245,316,52,7
6560,0,63,-243,314,51,6
6565,1,59,-244,311,50,5
6570,0,63,-248,308,50,7
6575,-1,60,-247,305,50,8
6580,0,61,-244,305,51,12
6585,-1,63,-246,303,54,14
6590,0,62,-248,303,54,17
6595,0,60,-248,302,54,18
6600,0,62,-247,303,53,21
6605,2,63,-246,303,54,22
6610,-2,60,-246,304,54,23
6615,1,58,-245,301,54,26
6620,0,58,-247,299,54,27
6625,-1,61,-248,294,54,28
6630,0,59,-244,290,55,29
6635,0,55,-248,286,54,31
6640,2,55,-248,284,56,32
6645,2,52,-245,283,58,32
6650,3,53,-249,286,58,35
6655,1,53,-250,287,60,37
6660,3,53,-250,291,60,39
6665,2,54,-250,294,60,40
6670,0,51,-251,298,60,42
6675,0,50,-247,300,60,40
6680,0,50,-250,302,60,39
6685,-2,50,-248,302,58,38
6690,0,49,-251,303,56,35
6695,1,50,-248,301,52,33
6700,0,44,-250,299,49,31
6705,0,46,-251,300,44,28
6710,1,44,-247,298,42,23
6715,0,44,-250,298,37,20
6720,1,46,-252,300,33,17
6725,1,41,-251,304,32,13
6730,0,44,-251,310,32,8
6735,0,45,-254,317,29,4
6740,0,41,-251,325,28,3
6745,1,41,-254,332,28,4
6750,0,43,-253,340,27,4
6755,0,40,-251,346,27,5
6760,0,40,-254,352,25,6
6765,1,40,-258,356,26,7
6770,2,40,-255,360,25,6
6775,0,38,-253,362,24,7
6780,1,42,-259,364,24,6
6785,-1,41,-255,366,26,4
6790,1,40,-261,369,29,3
6795,2,38,-258,371,32,1
6800,1,38,-256,370,36,2
6805,-2,39,-254,371,40,1
6810,0,33,-259,371,44,0
6815,0,33,-260,371,47,0
6820,0,35,-260,371,48,0
6825,0,30,-260,374,52,1
6830,1,25,-262,379,53,1
6835,-2,30,-264,388,55,4
6840,-1,24,-266,401,56,6
6845,0,25,-268,417,55,9
6850,-2,23,-266,434,56,11
6855,-6,21,-268,453,53,13
6860,-2,20,-268,472,49,14
6865,-3,20,-265,490,48,15
6870,-5,22,-266,505,48,19
6875,-6,18,-268,516,46,23
6880,1,22,-264,526,42,27
6885,-3,18,-266,532,40,31
6890,0,22,-264,537,40,34
6895,-2,22,-260,539,42,38
6900,-4,20,-259,541,44,40
6905,-3,19,-257,540,45,39
6910,0,22,-257,540,43,41
6915,1,19,-257,539,40,41
6920,-1,16,-253,540,39,40
6925,-3,17,-251,543,37,42
6930,0,18,-254,548,33,42
6935,-1,16,-252,554,31,42
6940,-1,16,-251,560,29,41
6945,0,10,-253,565,25,41
6950,-1,9,-251,573,22,42
6955,0,9,-248,576,22,41
6960,-2,9,-250,580,19,41
6965,1,8,-248,581,19,41
6970,0,8,-249,583,18,41
6975,1,8,-251,582,19,41
6980,-1,1,-254,580,17,43
6985,-2,6,-252,580,17,44
6990,0,2,-257,581,17,47
6995,-4,5,-259,584,19,49
7000,-2,2,-254,588,19,52
7005,-1,-1,-254,591,19,55
7010,-3,-2,-255,593,19,57
7015,0,-8,-257,596,18,60
7020,-3,-5,-259,597,19,62
7025,-3,-8,-256,602,19,64
7030,-2,-10,-258,610,18,65
7035,-3,-8,-260,617,15,67
7040,0,-12,-258,626,14,70
7045,-5,-12,-261,633,11,73
7050,-3,-15,-259,644,8,73
7055,-4,-13,-257,654,5,76
7060,-2,-17,-257,664,5,78
7065,-3,-12,-261,676,3,80
7070,-3,-13,-263,683,2,83
7075,-2,-14,-258,688,5,83
7080,-7,-14,-263,696,6,85
7085,-4,-14,-255,695,12,83
7090,-5,-20,-252,691,16,82
7095,-7,-20,-252,685,23,81
7100,-6,-18,-253,679,30,78
7105,-7,-21,-247,672,35,75
7110,-9,-25,-247,668,40,72
7115,-5,-23,-247,665,44,69
7120,-6,-27,-249,661,47,67
7125,-7,-27,-246,665,50,68
7130,-7,-29,-249,669,53,66
7135,-7,-33,-247,675,53,67
7140,-6,-31,-247,680,54,67
7145,-5,-37,-247,687,54,67
7150,-6,-36,-250,692,53,67
7155,-2,-37,-249,697,52,65
7160,-2,-40,-252,702,50,63
7165,-2,-40,-255,705,49,63
7170,-4,-42,-252,705,48,62
7175,-6,-39,-254,703,48,60
7180,-6,-44,-256,704,49,58
7185,-6,-45,-252,703,48,54
7190,0,-45,-257,703,46,53
7195,-12,-48,-257,702,47,51
7200,-3,-46,-252,700,47,48
7205,-3,-47,-251,699,49,44
7210,-5,-48,-249,699,50,42
7215,0,-50,-250,700,49,40
7220,-5,-53,-249,699,48,36
7225,-3,-52,-253,701,47,35
7230,-4,-55,-250,705,43,32
7235,-6,-54,-251,711,39,30
7240,-5,-56,-252,719,38,28
7245,-5,-57,-246,726,36,27
7250,-6,-57,-254,733,34,27
7255,-4,-60,-249,739,36,27
7260,-6,-58,-251,748,36,28
7265,-6,-63,-246,752,37,29
7270,-5,-63,-247,753,35,30
7275,-8,-63,-247,752,36,32
7280,-7,-61,-244,750,35,28
7285,-5,-66,-243,749,33,24
7290,-7,-64,-242,745,32,21
7295,-10,-67,-244,744,31,18
7300,-10,-69,-239,739,29,15
7305,-9,-70,-241,733,26,9
7310,-9,-68,-241,728,24,4
7315,-9,-71,-244,726,22,1
7320,-7,-69,-239,727,19,-1
7325,-12,-71,-235,724,17,0
7330,-11,-75,-238,719,17,-1
7335,-11,-72,-234,715,16,-2
7340,-8,-78,-237,710,15,-3
7345,-10,-77,-239,706,13,-4
7350,-10,-74,-241,701,14,-4
7355,-9,-82,-240,694,13,-5
7360,-9,-80,-240,688,15,-5
7365,-10,-79,-244,683,18,-5
7370,-7,-85,-241,682,21,-6
7375,-11,-85,-240,684,25,-5
7380,-9,-85,-240,688,27,-6
7385,-8,-89,-244,692,31,-6
7390,-7,-91,-241,697,36,-6
7395,-7,-88,-239,698,40,-4
7400,-8,-94,-238,701,43,-3
7405,-14,-94,-235,706,45,2
7410,-8,-93,-233,713,46,3
7415,-9,-100,-230,717,45,7
7420,-8,-97,-233,719,41,4
7425,-11,-98,-233,727,37,3
7430,-11,-98,-233,734,32,2
7435,-9,-100,-231,745,29,3
7440,-6,-97,-234,759,29,7
7445,-8,-101,-231,769,28,7
7450,-8,-102,-225,774,29,10
7455,-9,-101,-224,773,30,10
7460,-9,-105,-225,769,30,10
7465,-9,-103,-224,759,31,10
7470,-11,-104,-223,746,33,9
7475,-11,-104,-222,731,31,8
7480,-8,-106,-224,716,30,8
7485,-8,-109,-222,701,31,9
7490,-10,-107,-228,688,34,12
7495,-12,-108,-222,680,34,14
7500,-11,-108,-226,671,34,15
7505,-12,-111,-223,661,35,15
7510,-10,-112,-225,654,35,15
7515,-9,-113,-224,649,34,18
7520,-13,-114,-223,646,32,21
7525,-13,-116,-223,644,33,26
7530,-13,-115,-224,643,35,29
7535,-9,-118,-224,639,37,36
7540,-9,-120,-224,634,38,41
7545,-13,-116,-224,629,43,44
7550,-17,-120,-223,623,48,48
7555,-14,-118,-224,618,52,52
7560,-13,-118,-217,613,56,55
7565,-14,-115,-220,605,59,55
7570,-14,-119,-221,595,59,59
7575,-16,-115,-217,586,59,58
7580,-17,-116,-216,574,59,59
7585,-17,-117,-215,559,55,57
7590,-17,-119,-212,547,51,54
7595,-18,-119,-214,536,44,52
7600,-18,-118,-214,528,40,50
7605,-19,-120,-213,526,36,52
7610,-15,-121,-213,528,31,50
7615,-15,-121,-210,533,26,44
7620,-18,-124,-210,542,23,40
7625,-10,-124,-214,548,22,40
7630,-12,-124,-214,553,18,38
7635,-10,-126,-216,554,16,38
7640,-11,-126,-216,552,16,38
7645,-15,-126,-218,545,13,37
7650,-17,-127,-215,536,10,37
7655,-13,-128,-219,526,7,37
7660,-16,-129,-216,516,3,36
7665,-13,-132,-216,510,-1,34
7670,-14,-132,-218,504,-2,33
7675,-15,-134,-221,500,-2,32
7680,-16,-133,-216,498,-1,31
7685,-15,-133,-216,498,4,34
7690,-15,-133,-219,502,9,36
7695,-17,-136,-216,504,13,38
7700,-16,-135,-213,509,17,39
7705,-17,-135,-214,514,19,40
7710,-18,-137,-212,518,18,41
7715,-17,-135,-210,524,18,43
7720,-17,-138,-213,531,14,46
7725,-17,-138,-211,538,14,48
7730,-16,-140,-206,546,14,49
7735,-21,-141,-216,553,17,52
7740,-17,-142,-206,558,21,51
7745,-15,-141,-207,561,28,51
7750,-16,-139,-208,561,33,52
7755,-14,-142,-206,560,43,57
7760,-17,-140,-206,552,51,54
7765,-18,-139,-207,541,57,49
7770,-17,-139,-211,527,62,43
7775,-17,-141,-207,507,63,37
7780,-18,-140,-211,485,66,32
7785,-14,-141,-210,463,69,27
7790,-16,-144,-207,442,72,24
7795,-18,-144,-212,425,77,18
7800,-15,-145,-208,414,81,15
7805,-20,-146,-206,408,84,10
7810,-19,-148,-210,404,85,4
7815,-21,-147,-207,402,86,-1
7820,-22,-150,-208,402,86,-7
7825,-23,-152,-203,406,88,-12
7830,-22,-151,-202,415,89,-17
7835,-20,-154,-198,427,89,-19
7840,-19,-162,-196,442,88,-20
7845,-24,-152,-201,456,89,-22
7850,-20,-156,-202,468,89,-23
7855,-18,-156,-201,479,88,-25
7860,-17,-156,-197,491,89,-24
7865,-16,-153,-198,501,90,-24
7870,-15,-153,-195,509,91,-23
7875,-12,-156,-199,517,91,-21
7880,-12,-155,-198,520,92,-18
7885,-14,-148,-199,518,93,-14
7890,-8,-157,-200,512,93,-13
7895,-13,-151,-199,502,96,-8
7900,-15,-153,-196,491,99,0
7905,-15,-154,-197,481,102,6
7910,-16,-159,-195,472,106,14
7915,-17,-156,-196,461,108,12
7920,-16,-157,-197,451,107,9
7925,-17,-156,-194,445,109,7
7930,-16,-157,-193,443,111,6
7935,-18,-162,-194,444,112,7
7940,-15,-165,-191,446,113,8
7945,-16,-163,-190,450,110,7
7950,-18,-167,-186,454,109,6
7955,-18,-166,-189,454,105,8
7960,-17,-165,-188,451,101,13
7965,-19,-165,-187,444,99,18
7970,-20,-167,-187,433,96,22
7975,-17,-170,-189,420,94,26
7980,-21,-175,-186,407,92,29
7985,-19,-175,-191,394,92,31
7990,-18,-177,-186,380,90,34
7995,-16,-180,-187,371,89,34
8000,-17,-179,-189,365,90,32
8005,-19,-179,-193,362,89,33
8010,-18,-179,-189,361,92,31
8015,-13,-180,-186,363,94,30
8020,-17,-182,-187,367,96,27
8025,-17,-182,-184,371,98,27
8030,-13,-183,-186,377,101,24
8035,-16,-184,-186,382,102,22
8040,-13,-183,-183,387,104,21
8045,-13,-182,-182,391,107,22
8050,-13,-184,-186,396,109,21
8055,-12,-184,-182,401,110,21
8060,-15,-184,-182,405,111,20
8065,-16,-185,-188,409,112,19
8070,-16,-185,-181,410,112,15
8075,-16,-181,-183,416,112,17
8080,-15,-184,-184,421,112,27
8085,-17,-185,-182,416,109,15
8090,-19,-182,-176,411,106,8
8095,-16,-183,-177,408,101,5
8100,-16,-182,-175,403,98,2
8105,-16,-184,-174,403,95,1
8110,-18,-183,-175,404,94,2
8115,-17,-185,-173,408,91,5
8120,-15,-184,-177,410,89,7
8125,-15,-184,-170,412,88,7
8130,-13,-184,-174,411,85,7
8135,-13,-184,-173,409,84,8
8140,-16,-184,-174,408,84,8
8145,-15,-185,-173,403,86,8
8150,-14,-186,-172,395,89,7
8155,-14,-185,-170,386,92,8
8160,-15,-186,-172,375,92,6
8165,-10,-185,-167,363,97,7
8170,-16,-184,-174,351,102,6
8175,-13,-187,-174,338,104,8
8180,-14,-187,-174,327,106,7
8185,-15,-186,-172,321,107,5
8190,-18,-188,-171,318,107,3
8195,-16,-192,-170,322,106,-2
8200,-15,-192,-167,328,107,-4
8205,-15,-194,-169,337,107,-6
8210,-17,-193,-166,348,108,-8
8215,-15,-194,-170,358,107,-9
8220,-13,-195,-165,367,109,-8
8225,-17,-193,-168,374,111,-9
8230,-12,-196,-166,382,115,-10
8235,-14,-197,-168,389,116,-11
8240,-16,-196,-166,392,118,-12
8245,-17,-194,-167,392,117,-11
8250,-15,-196,-166,388,115,-8
8255,-13,-196,-161,383,113,-8
8260,-14,-199,-163,378,108,-7
8265,-15,-196,-163,370,103,-5
8270,-16,-197,-164,366,97,-3
8275,-9,-199,-156,358,92,-3
8280,-13,-200,-163,353,88,-1
8285,-15,-196,-165,351,87,-2
8290,-15,-197,-165,354,88,-3
8295,-13,-201,-163,352,87,-2
8300,-12,-198,-162,354,89,1
8305,-17,-191,-164,358,91,4
8310,-13,-200,-163,368,92,21
8315,-16,-198,-159,367,94,12
8320,-15,-198,-159,367,93,4
8325,-14,-199,-156,364,91,1
8330,-16,-197,-158,362,91,-2
8335,-13,-197,-156,356,93,-4
8340,-19,-197,-158,351,93,-4
8345,-19,-195,-153,343,95,-4
8350,-18,-195,-156,335,98,-4
8355,-17,-200,-153,323,101,-2
8360,-17,-196,-162,312,104,1
8365,-18,-197,-161,302,106,3
8370,-18,-200,-156,289,108,4
8375,-17,-200,-156,281,107,5
8380,-17,-203,-156,273,104,4
8385,-14,-210,-153,267,100,5
8390,-16,-201,-159,262,95,8
8395,-14,-204,-157,260,92,6
8400,-17,-206,-156,257,88,7
8405,-16,-207,-156,258,85,7
8410,-19,-205,-156,261,82,7
8415,-13,-208,-153,263,77,5
8420,-16,-208,-151,268,74,6
8425,-16,-210,-151,273,71,5
8430,-17,-204,-150,278,67,5
8435,-14,-208,-151,279,63,5
8440,-21,-207,-150,280,60,7
8445,-16,-213,-149,281,58,4
8450,-16,-211,-146,280,55,3
8455,-17,-211,-150,280,51,2
8460,-21,-210,-151,281,48,-2
8465,-15,-212,-148,284,45,-8
8470,-16,-213,-146,290,44,-11
8475,-17,-215,-148,297,42,-16
8480,-9,-212,-148,304,43,-19
8485,-14,-214,-149,319,41,-43
8490,-13,-215,-146,325,41,-42
8495,-8,-211,-145,328,43,-37
8500,-16,-212,-146,330,44,-36
8505,-13,-213,-145,330,44,-36
8510,-15,-211,-143,329,44,-33
8515,-13,-212,-146,330,43,-35
8520,-14,-208,-147,328,42,-34
8525,-12,-204,-147,324,41,-34
8530,-13,-210,-148,315,43,-34
8535,-16,-200,-141,305,45,-33
8540,-10,-212,-147,299,49,-16
8545,-13,-210,-149,286,54,-24
8550,-14,-209,-147,274,55,-33
8555,-11,-208,-143,266,53,-33
8560,-12,-209,-143,259,53,-35
8565,-11,-213,-140,256,52,-37
8570,-12,-213,-144,255,54,-38
8575,-17,-211,-145,255,54,-40
8580,-14,-208,-139,255,53,-40
8585,-14,-210,-142,253,52,-40
8590,-15,-208,-143,251,52,-41
8595,-17,-209,-142,249,51,-45
8600,-17,-210,-140,246,50,-46
8605,-17,-214,-143,242,48,-46
8610,-14,-211,-139,238,43,-44
8615,-17,-211,-141,232,39,-44
8620,-16,-212,-138,226,36,-44
8625,-16,-213,-141,221,33,-44
8630,-18,-211,-138,214,31,-42
8635,-18,-212,-139,207,28,-41
8640,-17,-213,-138,198,25,-38
8645,-12,-214,-138,189,23,-38
8650,-16,-214,-134,181,20,-38
8655,-17,-213,-136,175,18,-37
8660,-15,-215,-137,172,14,-35
8665,-15,-214,-137,167,12,-34
8670,-15,-214,-136,166,12,-34
8675,-14,-217,-140,165,13,-32
8680,-17,-215,-137,163,14,-31
8685,-18,-212,-135,163,18,-30
8690,-12,-219,-134,159,19,-29
8695,-17,-212,-140,157,21,-25
8700,-12,-215,-139,156,22,-23
8705,-12,-214,-137,153,21,-24
8710,-13,-217,-132,149,22,-23
8715,-14,-216,-137,142,22,-27
8720,-16,-213,-136,134,18,-31
8725,-15,-214,-130,125,20,-33
8730,-13,-219,-134,119,20,-34
8735,-17,-216,-134,115,18,-36
8740,-14,-217,-131,116,19,-38
8745,-16,-218,-131,115,21,-41
8750,-13,-222,-135,115,24,-41
8755,-15,-218,-129,115,27,-41
8760,-12,-220,-134,113,31,-41
8765,-16,-217,-131,110,35,-40
8770,-15,-221,-132,106,40,-38
8775,-16,-220,-133,101,44,-37
8780,-14,-218,-132,98,45,-37
8785,-16,-219,-129,95,48,-36
8790,-13,-220,-131,95,50,-35
8795,-11,-220,-132,96,51,-34
8800,-15,-221,-129,101,52,-32
8805,-13,-223,-129,105,55,-27
8810,-14,-220,-130,108,59,-22
8815,-14,-219,-129,110,63,-20
8820,-14,-219,-126,109,64,-17
8825,-15,-220,-128,106,69,-15
8830,-14,-220,-127,102,72,-12
8835,-12,-220,-128,97,73,-12
8840,-15,-220,-130,92,77,-12
8845,-14,-222,-130,88,80,-11
8850,-15,-221,-135,84,81,-10
8855,-16,-220,-128,79,80,-11
8860,-13,-223,-130,74,79,-12
8865,-15,-219,-127,70,78,-14
8870,-13,-222,-132,64,76,-14
8875,-16,-224,-132,59,76,-16
8880,-16,-221,-130,56,74,-15
8885,-16,-225,-130,52,73,-16
8890,-15,-223,-124,55,71,-16
8895,-15,-227,-128,59,68,-17
8900,-16,-227,-126,63,66,-17
8905,-17,-227,-125,69,66,-18
8910,-15,-227,-130,75,62,-19
8915,-16,-228,-125,81,60,-20
8920,-17,-222,-125,86,57,-20
8925,-17,-225,-123,90,56,-21
8930,-10,-222,-124,92,56,-22
8935,-16,-226,-122,94,55,-21
8940,-14,-223,-124,96,56,-19
8945,-16,-221,-125,98,57,-21
8950,-14,-223,-124,96,58,-19
8955,-17,-223,-128,96,60,-18
8960,-14,-225,-128,94,60,-18
8965,-14,-222,-128,93,61,-17
8970,-13,-219,-126,91,61,-18
8975,-16,-222,-128,89,61,-21
8980,-15,-221,-125,86,60,-22
8985,-15,-221,-124,81,58,-23
8990,-11,-221,-127,76,59,-23
8995,-12,-219,-123,70,60,-23
9000,-13,-220,-127,63,61,-23
9005,-11,-219,-126,55,63,-24
9010,-10,-222,-124,47,67,-24
9015,-10,-222,-123,38,72,-24
9020,-9,-223,-123,30,74,-24
9025,-10,-223,-123,22,78,-24
9030,-11,-220,-127,16,80,-24
9035,-9,-223,-127,10,83,-24
9040,-11,-227,-125,6,84,-24
9045,-11,-223,-123,5,85,-24
9050,-9,-225,-125,5,88,-24
9055,-12,-225,-127,3,91,-24
9060,-9,-224,-122,3,94,-24
9065,-11,-222,-126,3,96,-24
9070,-10,-224,-126,1,97,-26
9075,-12,-222,-125,-1,99,-26
9080,-9,-224,-127,-2,99,-27
9085,-9,-225,-125,-4,100,-27
9090,-6,-225,-127,-7,101,-28
9095,-9,-219,-125,-10,102,-29
9100,-11,-220,-125,-16,104,-29
9105,-10,-218,-123,-23,104,-30
9110,-9,-224,-124,-29,105,-30
9115,-10,-222,-122,-34,106,-31
9120,-9,-227,-124,-36,107,-30
9125,-10,-223,-122,-36,109,-29
9130,-12,-222,-122,-36,112,-30
9135,-12,-224,-123,-36,113,-30
9140,-6,-226,-121,-38,116,-29
9145,-9,-226,-123,-39,117,-29
9150,-8,-225,-125,-41,119,-27
9155,-10,-223,-121,-44,120,-25
9160,-5,-223,-127,-49,119,-25
9165,-10,-223,-123,-54,121,-25
9170,-8,-226,-123,-59,121,-24
9175,-9,-223,-124,-62,121,-23
9180,-7,-226,-122,-64,119,-24
9185,-10,-226,-124,-63,117,-24
9190,-10,-226,-123,-64,116,-24
9195,-11,-226,-124,-65,114,-25
9200,-12,-225,-122,-67,115,-26
9205,-16,-227,-127,-70,114,-29
9210,-11,-225,-127,-72,113,-28
9215,-12,-225,-122,-73,112,-31
9220,-10,-226,-125,-72,111,-33
9225,-9,-225,-124,-72,111,-34
9230,-12,-228,-126,-72,109,-36
9235,-13,-226,-127,-73,109,-37
9240,-13,-223,-129,-74,110,-38
9245,-8,-228,-127,-74,109,-39
9250,-9,-223,-125,-74,107,-38
9255,-11,-224,-123,-75,107,-39
9260,-9,-227,-125,-76,108,-39
9265,-12,-223,-126,-78,109,-38
9270,-11,-226,-127,-78,109,-37
9275,-6,-225,-127,-80,111,-38
9280,-9,-226,-123,-80,112,-38
9285,-9,-226,-124,-79,112,-38
9290,-10,-225,-124,-77,115,-37
9295,-4,-227,-127,-79,116,-36
9300,-10,-222,-125,-79,118,-37
9305,-9,-223,-129,-82,118,-36
9310,-12,-225,-131,-83,114,-36
9315,-12,-226,-118,-84,116,-35
9320,-11,-225,-129,-84,113,-34
9325,-8,-220,-127,-84,110,-34
9330,-8,-229,-122,-85,107,-33
9335,-6,-223,-127,-84,105,-33
9340,-5,-228,-124,-80,104,-31
9345,-17,-217,-129,-80,102,-30
9350,-12,-226,-102,-80,99,-29
9355,-12,-215,-141,-78,99,-30
9360,-10,-212,-125,-78,96,-30
9365,-8,-230,-126,-78,95,-31
9370,-11,-227,-128,-78,94,-29
9375,-9,-224,-128,-77,91,-29
9380,-13,-227,-128,-76,87,-30
9385,-11,-219,-128,-74,80,-31
9390,-13,-219,-129,-71,75,-31
9395,-13,-224,-122,-68,69,-32
9400,-11,-219,-115,-65,63,-34
9405,-13,-225,-114,-61,56,-34
9410,-23,-224,-127,-59,48,-34
9415,-12,-222,-117,-58,41,-34
9420,-9,-231,-125,-58,36,-34
9425,-14,-212,-132,-61,30,-33
9430,-9,-218,-137,-64,26,-32
9435,-16,-213,-131,-70,22,-33
9440,-12,-217,-130,-78,18,-32
9445,-10,-221,-125,-86,14,-32
9450,-12,-220,-123,-96,11,-31
9455,-6,-220,-126,-104,9,-30
9460,-31,-224,-118,-112,7,-31
9465,-1,-222,-133,-118,5,-31
9470,-10,-217,-131,-121,7,-33
9475,-4,-218,-122,-121,6,-32
9480,-14,-224,-124,-118,7,-32
9485,-4,-223,-128,-115,9,-31
9490,-7,-219,-122,-112,12,-32
9495,-6,-224,-132,-106,14,-32
9500,0,-224,-129,-102,16,-30
9505,-8,-231,-113,-98,18,-30
9510,-11,-226,-123,-96,19,-30
9515,-2,-224,-131,-96,20,-30
9520,-3,-226,-127,-96,20,-27
9525,-1,-225,-128,-97,21,-26
9530,-3,-228,-127,-100,21,-25
9535,-5,-225,-127,-102,22,-25
9540,-2,-218,-125,-103,20,-24
9545,-6,-226,-142,-104,17,-23
9550,0,-226,-109,-103,16,-21
9555,-2,-226,-116,-99,15,-21
9560,-2,-230,-113,-95,12,-19
9565,-5,-225,-139,-91,9,-20
9570,-10,-231,-141,-84,8,-18
9575,-3,-231,-132,-79,7,-17
9580,-4,-230,-129,-73,6,-15
9585,-1,-229,-122,-66,6,-16
9590,-10,-231,-129,-60,7,-14
9595,0,-227,-131,-53,11,-12
9600,0,-228,-132,-47,15,-13
9605,-1,-223,-127,-43,22,-11
9610,-2,-226,-117,-39,26,-10
9615,-3,-222,-126,-37,32,-10
9620,-2,-223,-129,-37,39,-8
9625,-1,-222,-139,-37,45,-10
9630,-1,-224,-128,-39,50,-10
9635,0,-221,-127,-41,53,-12
9640,-4,-221,-130,-43,56,-13
9645,-3,-218,-123,-46,61,-14
9650,-8,-219,-129,-49,63,-14
9655,-3,-220,-123,-53,67,-13
9660,-7,-219,-128,-59,69,-14
9665,-7,-222,-124,-64,72,-13
9670,0,-221,-130,-67,74,-13
9675,-3,-219,-125,-70,76,-13
9680,-3,-222,-125,-71,78,-11
9685,-7,-221,-129,-69,80,-9
9690,-2,-217,-142,-68,81,-9
9695,3,-226,-127,-66,82,-8
9700,-3,-213,-127,-63,84,-8
9705,6,-225,-133,-62,85,-8
9710,3,-220,-130,-61,85,-10
9715,-10,-218,-130,-61,85,-9
9720,-7,-223,-134,-61,85,-8
9725,-4,-218,-131,-61,87,-7
9730,-8,-217,-130,-61,85,-5
9735,7,-230,-127,-60,86,-2
9740,-4,-227,-133,-60,85,0
9745,-8,-225,-131,-59,85,1
9750,-12,-219,-133,-59,84,4
9755,-9,-220,-133,-59,84,6
9760,-5,-209,-136,-60,84,7
9765,-16,-229,-122,-60,84,7
9770,-4,-218,-145,-60,86,8
9775,-7,-219,-139,-59,89,8
9780,-8,-224,-134,-59,89,8
9785,-1,-220,-136,-59,90,7
9790,-3,-219,-136,-56,92,7
9795,-8,-221,-130,-52,96,8
9800,-6,-223,-131,-49,97,9
9805,-6,-220,-130,-45,99,10
9810,-7,-222,-133,-44,101,11
9815,-5,-221,-125,-42,101,13
9820,-6,-223,-132,-40,104,13
9825,-6,-221,-131,-41,105,15
9830,-9,-221,-135,-43,106,15
9835,-3,-217,-135,-44,107,17
9840,-8,-221,-135,-46,110,18
9845,-6,-224,-133,-46,111,20
9850,-6,-222,-134,-45,110,21
9855,-7,-222,-138,-45,109,21
9860,-6,-217,-127,-44,108,22
9865,-8,-224,-133,-38,107,24
9870,-9,-225,-136,-32,105,25
9875,-11,-220,-134,-27,103,27
9880,-10,-223,-135,-23,102,28
9885,-11,-221,-136,-19,100,29
9890,-10,-222,-132,-17,99,28
9895,-13,-220,-134,-16,97,30
9900,-11,-219,-133,-15,95,30
9905,-11,-219,-135,-15,92,31
9910,-10,-220,-138,-16,89,32
9915,-10,-218,-133,-18,85,33
9920,-11,-219,-137,-17,80,30
9925,-10,-218,-136,-18,77,31
9930,-12,-219,-138,-19,72,30
9935,-12,-218,-134,-19,67,28
9940,-9,-219,-132,-18,63,28
9945,-13,-216,-133,-17,60,27
9950,-15,-214,-134,-17,55,25
9955,-10,-217,-138,-18,54,24
9960,-10,-219,-136,-17,53,24
9965,-10,-220,-134,-20,53,23
9970,-9,-220,-137,-24,55,22
9975,-10,-217,-135,-27,57,21
9980,-10,-218,-137,-29,62,20
9985,-9,-219,-135,-33,64,20
9990,-9,-221,-138,-34,66,17
9995,-9,-218,-135,-36,67,17
10000,-8,-217,-137,-35,69,16
10005,-9,-216,-134,-35,70,15
10010,-9,-222,-133,-33,70,15
10015,-9,-219,-139,-33,70,15
10020,-9,-217,-133,-32,68,13
10025,-11,-217,-136,-31,69,13
10030,-7,-220,-137,-30,68,13
10035,-11,-216,-134,-29,67,12
10040,-9,-217,-134,-29,66,14
10045,-5,-219,-137,-29,65,15
10050,-5,-217,-140,-30,66,16
10055,-10,-215,-134,-30,66,17
10060,-11,-219,-132,-28,68,17
10065,-8,-217,-133,-28,71,17
10070,-9,-217,-137,-27,74,18
10075,-6,-220,-136,-27,77,20
10080,-6,-216,-135,-27,81,19
10085,-5,-217,-136,-27,85,19
10090,-5,-218,-133,-28,89,19
10095,-9,-217,-137,-29,91,20
10100,-9,-214,-135,-32,89,21
10105,-3,-219,-136,-32,87,20
10110,-9,-218,-134,-32,85,20
10115,-8,-217,-134,-31,81,21
10120,-13,-218,-131,-30,75,21
10125,-11,-219,-133,-30,69,20
10130,-12,-217,-134,-29,62,20
10135,-14,-220,-133,-32,54,19
10140,-17,-220,-135,-33,47,18
10145,-14,-220,-132,-36,41,17
10150,-16,-223,-137,-38,38,16
10155,-14,-222,-132,-40,35,16
10160,-14,-222,-138,-40,32,15
10165,-15,-222,-136,-40,30,12
10170,-14,-229,-135,-39,30,12
10175,-12,-227,-136,-35,32,9
10180,-15,-223,-137,-30,35,7
10185,-9,-226,-136,-25,35,6
10190,-10,-224,-137,-17,38,4
10195,-9,-223,-134,-9,40,2
10200,-9,-225,-134,-1,40,3
10205,-11,-223,-138,5,42,3
10210,-9,-224,-132,12,44,0
10215,-10,-221,-134,17,47,2
10220,-11,-221,-134,20,48,2
10225,-7,-224,-134,23,48,2
10230,-11,-220,-135,22,50,2
10235,-9,-218,-134,21,50,2
10240,-9,-221,-139,19,52,1
10245,-8,-221,-133,17,54,1
10250,-12,-219,-135,14,53,1
10255,-9,-219,-133,10,54,0
10260,-10,-222,-135,7,55,0
10265,-9,-216,-137,5,55,-1
10270,-12,-218,-136,2,56,-1
10275,-13,-215,-133,1,57,-2
10280,-10,-219,-137,-2,59,-4
10285,-8,-217,-137,-3,60,-5
10290,-9,-213,-137,-2,61,-4
10295,-10,-216,-135,-4,64,-5
10300,-11,-218,-136,-3,67,-5
10305,-8,-220,-134,-5,70,-4
10310,-11,-217,-136,-5,72,-3
10315,-12,-217,-134,-6,73,-4
10320,-11,-220,-136,-7,74,-4
10325,-14,-215,-137,-6,75,-3
10330,-12,-220,-135,-8,75,-2
10335,-10,-219,-134,-8,74,-4
10340,-11,-218,-134,-8,72,-3
10345,-12,-221,-129,-9,71,-4
10350,-11,-220,-136,-8,70,-4
10355,-12,-219,-135,-10,69,-4
10360,-12,-218,-135,-11,67,-4
10365,-12,-218,-136,-11,66,-5
10370,-13,-217,-137,-13,65,-4
10375,-12,-218,-137,-13,65,-4
10380,-10,-218,-133,-14,65,-4
10385,-10,-217,-135,-13,65,-2
10390,-13,-217,-137,-13,65,-4
10395,-11,-220,-135,-12,66,-3
10400,-11,-218,-134,-11,68,-2
10405,-10,-218,-137,-12,70,0
10410,-11,-217,-139,-12,74,-1
10415,-10,-220,-139,-13,77,-1
10420,-11,-217,-133,-16,78,0
10425,-8,-217,-136,-17,79,0
10430,-10,-217,-138,-21,80,-4
10435,-12,-214,-137,-25,80,-5
10440,-10,-218,-135,-27,80,-8
10445,-12,-218,-134,-29,80,-8
10450,-11,-216,-139,-31,77,-10
10455,-7,-216,-138,-35,77,-10
10460,-10,-220,-137,-37,74,-10
10465,-11,-218,-133,-36,74,-9
10470,-9,-217,-137,-35,73,-11
10475,-12,-219,-134,-33,70,-11
10480,-11,-218,-132,-31,67,-12
10485,-11,-219,-138,-28,66,-13
10490,-11,-218,-138,-27,63,-13
10495,-12,-218,-139,-28,61,-14
10500,-13,-217,-136,-29,61,-16
10505,-13,-217,-136,-32,59,-17
10510,-9,-218,-135,-33,59,-16
10515,-10,-221,-136,-34,61,-17
10520,-11,-216,-139,-36,63,-15
10525,-13,-220,-135,-35,67,-14
10530,-12,-218,-137,-34,69,-15
10535,-12,-223,-135,-32,71,-12
10540,-10,-220,-136,-29,73,-11
10545,-12,-220,-137,-26,75,-11
10550,-10,-225,-136,-23,76,-11
10555,-13,-220,-133,-19,74,-9
10560,-10,-223,-136,-15,74,-11
10565,-10,-220,-133,-10,75,-11
10570,-11,-220,-134,-8,75,-11
10575,-11,-218,-134,-6,76,-13
10580,-11,-217,-132,-5,77,-12
10585,-10,-219,-134,-4,75,-14
10590,-9,-218,-135,-6,74,-14
10595,-13,-218,-137,-8,72,-13
10600,-14,-219,-138,-9,70,-13
10605,-12,-217,-137,-10,69,-12
10610,-8,-219,-136,-11,69,-12
10615,-12,-217,-135,-12,70,-12
10620,-10,-219,-133,-12,70,-11
10625,-10,-221,-139,-11,71,-10
10630,-12,-216,-135,-11,70,-9
10635,-7,-222,-132,-12,70,-9
10640,-11,-219,-135,-11,70,-8
10645,-9,-221,-139,-11,70,-6
10650,-10,-221,-134,-10,69,-5
10655,-13,-219,-135,-9,67,-6
10660,-11,-217,-133,-7,70,-7
10665,-12,-218,-130,-5,72,-6
10670,-8,-220,-135,-6,71,-7
10675,-8,-222,-139,-6,71,-8
10680,-9,-222,-134,-6,70,-9
10685,-10,-220,-134,-6,72,-9
10690,-8,-223,-135,-6,74,-9
10695,-9,-221,-139,-7,75,-12
10700,-9,-221,-132,-6,74,-12
10705,-7,-222,-135,-6,74,-12
10710,-11,-219,-136,-5,74,-12
10715,-11,-220,-136,-4,71,-11
10720,-8,-219,-137,-3,69,-12
10725,-10,-219,-135,-1,67,-12
10730,-11,-219,-134,0,67,-13
10735,-11,-218,-136,3,65,-12
10740,-9,-222,-134,4,65,-11
10745,-10,-218,-134,3,65,-12
10750,-9,-220,-137,4,66,-12
10755,-11,-218,-135,3,67,-11
10760,-9,-219,-138,2,67,-12
10765,-7,-220,-137,2,68,-11
10770,-12,-217,-135,0,69,-12
10775,-9,-221,-134,0,69,-13
10780,-10,-220,-135,1,72,-13
10785,-8,-219,-135,0,70,-13
10790,-9,-221,-135,0,69,-15
10795,-11,-217,-137,-2,69,-15
10800,-8,-217,-136,-3,69,-15
10805,-8,-221,-136,-3,70,-13
10810,-10,-222,-139,-3,69,-14
10815,-6,-218,-133,-3,69,-13
10820,-11,-217,-133,-5,69,-13
10825,-9,-217,-138,-6,68,-14
10830,-8,-217,-133,-7,68,-12
10835,-5,-220,-136,-10,69,-12
10840,-6,-219,-136,-12,69,-11
10845,-9,-217,-133,-15,70,-11
10850,-8,-219,-135,-18,70,-10
10855,-9,-219,-137,-20,72,-10
10860,-8,-222,-134,-19,72,-8
10865,-7,-219,-132,-20,72,-8
10870,-8,-217,-138,-19,73,-9
10875,-10,-217,-133,-20,72,-8
10880,-8,-221,-140,-21,72,-7
10885,-6,-222,-137,-21,70,-8
10890,-9,-221,-139,-20,71,-7
10895,-10,-219,-134,-20,70,-7
10900,-7,-220,-139,-18,75,-8
10905,-7,-219,-137,-19,80,-8
10910,-9,-219,-133,-20,80,-7
10915,-7,-218,-136,-21,79,-9
10920,-9,-223,-136,-23,78,-9
10925,-8,-218,-136,-23,76,-10
10930,-9,-220,-137,-23,75,-10
10935,-9,-223,-135,-25,74,-7
10940,-7,-217,-134,-27,75,-9
10945,-10,-218,-135,-29,76,-10
10950,-9,-218,-138,-30,75,-11
10955,-9,-217,-135,-32,76,-11
10960,-8,-215,-135,-33,75,-11
10965,-8,-219,-136,-35,75,-9
10970,-6,-220,-138,-37,75,-11
10975,-8,-221,-133,-38,74,-10
10980,-5,-217,-134,-37,75,-11
10985,-5,-220,-134,-39,73,-7
10990,-5,-219,-138,-38,74,-7
10995,-5,-222,-135,-38,74,-5
11000,-9,-220,-138,-36,74,-5
11005,-9,-220,-135,-36,74,-3
11010,-7,-221,-135,-35,73,-2
11015,-7,-220,-133,-33,75,-2
11020,-10,-218,-134,-33,79,-3
11025,-7,-220,-134,-32,80,-4
11030,-6,-220,-135,-31,79,-4
11035,-8,-218,-136,-32,79,-2
11040,-7,-215,-139,-33,78,-2
11045,-10,-219,-133,-33,79,-1
11050,-8,-222,-137,-33,79,1
11055,-7,-217,-133,-34,81,2
11060,-8,-220,-137,-34,80,1
11065,-4,-223,-136,-34,80,2
11070,-7,-216,-136,-34,82,2
11075,-10,-221,-135,-35,81,2
11080,-8,-220,-138,-36,80,3
11085,-9,-220,-136,-36,78,4
11090,-10,-217,-134,-37,77,4
11095,-7,-218,-130,-37,79,3
11100,-8,-219,-134,-36,77,3
11105,-11,-219,-136,-38,74,3
11110,-8,-221,-133,-38,72,3
11115,-4,-220,-135,-39,69,4
11120,-7,-218,-137,-39,71,3
11125,-7,-218,-136,-39,71,5
11130,-6,-220,-135,-37,72,6
11135,-7,-218,-136,-35,72,6
11140,-7,-218,-136,-33,73,7
11145,-10,-216,-138,-33,74,8
11150,-8,-217,-137,-34,75,8
11155,-8,-216,-140,-35,78,8
11160,-9,-216,-133,-36,80,9
11165,-9,-217,-133,-40,81,8
11170,-5,-219,-137,-42,80,10
11175,-9,-218,-135,-45,82,11
11180,-8,-216,-137,-48,84,11
11185,-8,-221,-137,-50,84,12
11190,-9,-221,-138,-50,83,13
11195,-7,-220,-138,-50,83,13
11200,-6,-221,-137,-46,86,12
11205,-10,-217,-139,-44,87,12
11210,-10,-217,-136,-41,87,12
11215,-6,-216,-139,-38,86,10
11220,-9,-218,-135,-37,83,10
11225,-7,-219,-139,-36,82,8
11230,-9,-216,-135,-35,79,7
11235,-9,-216,-134,-37,77,6
11240,-9,-215,-135,-39,76,6
11245,-9,-219,-140,-40,75,6
11250,-9,-216,-135,-40,73,6
11255,-8,-219,-134,-39,73,8
11260,-7,-216,-135,-40,73,8
11265,-8,-219,-136,-39,71,6
11270,-11,-215,-135,-38,71,8
11275,-11,-214,-136,-37,72,11
11280,-8,-217,-138,-36,72,10
11285,-9,-217,-142,-37,74,9
11290,-8,-218,-142,-36,72,10
11295,-13,-216,-142,-37,72,9
11300,-10,-215,-137,-38,72,10
11305,-8,-222,-136,-38,71,11
11310,-8,-219,-135,-38,72,10
11315,-7,-220,-141,-38,70,10
11320,-11,-216,-139,-37,68,12
11325,-7,-218,-138,-36,67,10
11330,-8,-220,-136,-35,66,12
11335,-10,-220,-139,-31,64,13
11340,-9,-217,-137,-28,64,11
11345,-13,-213,-137,-27,62,12
11350,-10,-217,-136,-24,62,11
11355,-10,-214,-136,-24,61,11
11360,-9,-218,-135,-26,61,11
11365,-9,-216,-139,-25,59,9
11370,-10,-216,-138,-24,59,9
11375,-12,-215,-135,-25,60,7
11380,-12,-213,-138,-28,61,8
11385,-10,-217,-138,-29,63,8
11390,-10,-217,-137,-29,65,7
11395,-12,-220,-138,-28,67,6
11400,-9,-220,-142,-27,68,6
11405,-7,-219,-139,-26,71,7
11410,-9,-218,-142,-25,72,5
11415,-8,-217,-141,-23,69,5
11420,-9,-219,-141,-20,72,5
11425,-8,-220,-140,-17,70,4
11430,-8,-217,-138,-13,69,5
11435,-9,-218,-138,-12,69,4
11440,-10,-218,-140,-10,71,3
11445,-9,-216,-138,-10,70,4
11450,-9,-218,-141,-8,70,6
11455,-7,-221,-139,-7,72,4
11460,-10,-215,-137,-7,72,4
11465,-7,-217,-136,-8,69,4
11470,-7,-219,-140,-9,68,4
11475,-8,-216,-138,-8,67,3
11480,-7,-219,-139,-7,65,3
11485,-11,-217,-138,-7,64,4
11490,-11,-218,-139,-6,63,5
11495,-10,-217,-137,-5,64,5
11500,-6,-215,-138,-3,65,6
11505,-8,-215,-140,-1,68,6
11510,-6,-215,-133,-1,71,7
11515,-8,-213,-142,-1,74,8
11520,-6,-211,-137,-2,78,8
11525,-6,-215,-139,-4,80,9
11530,-5,-212,-145,-6,83,11
11535,-5,-213,-142,-11,88,12
11540,-5,-216,-144,-15,91,15
11545,-12,-212,-137,-20,92,14
11550,-6,-212,-145,-26,94,16
11555,-4,-211,-141,-32,95,17
11560,-2,-211,-139,-37,95,19
11565,-4,-212,-140,-43,96,19
11570,-3,-212,-140,-46,96,19
11575,-5,-213,-143,-50,96,19
11580,-2,-211,-143,-54,96,17
11585,-6,-210,-141,-57,95,15
11590,-4,-212,-141,-62,89,12
11595,-4,-209,-141,-65,86,8
11600,-9,-210,-139,-69,76,4
11605,-9,-214,-141,-72,66,-1
11610,-11,-213,-138,-75,52,-5
11615,-12,-211,-143,-78,35,-9
11620,-15,-211,-142,-82,19,-14
11625,-16,-209,-141,-86,0,-19
11630,-20,-207,-139,-90,-16,-24
11635,-20,-210,-140,-94,-32,-29
11640,-20,-213,-141,-96,-45,-33
11645,-21,-213,-139,-100,-54,-37
11650,-18,-212,-141,-104,-62,-41
11655,-22,-210,-144,-109,-69,-46
11660,-22,-213,-140,-113,-75,-50
11665,-18,-217,-140,-117,-80,-52
11670,-17,-219,-142,-118,-83,-55
11675,-17,-222,-141,-118,-85,-58
11680,-18,-222,-141,-115,-88,-56
11685,-16,-225,-139,-109,-87,-57
11690,-13,-225,-139,-98,-86,-56
11695,-11,-227,-142,-84,-79,-55
11700,-13,-226,-138,-70,-72,-52
11705,-9,-227,-136,-58,-62,-47
11710,-2,-226,-139,-48,-49,-43
11715,-1,-224,-139,-44,-32,-39
11720,0,-222,-143,-43,-17,-35
11725,1,-223,-139,-44,-3,-28
11730,0,-221,-142,-46,7,-23
11735,1,-218,-140,-47,14,-17
11740,0,-220,-142,-47,19,-9
11745,0,-216,-144,-47,23,-4
11750,-1,-220,-146,-47,30,4
11755,-1,-219,-147,-45,39,11
11760,-7,-217,-144,-44,49,19
11765,-7,-213,-147,-42,60,27
11770,-10,-216,-145,-40,70,32
11775,-11,-214,-145,-38,78,37
11780,-15,-214,-140,-35,87,39
11785,-17,-210,-143,-29,95,41
11790,-14,-213,-143,-25,104,44
11795,-17,-211,-141,-20,113,43
11800,-19,-210,-138,-15,120,44
11805,-18,-211,-143,-12,129,43
11810,-18,-211,-138,-8,138,42
11815,-19,-210,-139,-4,145,41
11820,-18,-210,-138,-1,152,39
11825,-19,-212,-141,-2,159,38
11830,-20,-211,-138,0,167,36
11835,-18,-210,-142,-1,174,33
11840,-18,-212,-139,-2,178,30
11845,-17,-214,-139,-3,183,28
11850,-17,-216,-139,-5,188,24
11855,-21,-213,-138,-4,193,18
11860,-17,-213,-138,-5,197,14
11865,-16,-219,-131,-8,199,8
11870,-14,-221,-139,-11,200,0
11875,-18,-219,-137,-16,200,-7
11880,-15,-222,-142,-21,199,-14
11885,-18,-218,-139,-25,192,-20
11890,-17,-221,-142,-29,184,-24
11895,-15,-222,-145,-35,174,-29
11900,-13,-222,-146,-38,166,-34
11905,-17,-221,-145,-41,158,-37
11910,-13,-224,-148,-40,150,-40
11915,-13,-221,-145,-37,139,-41
11920,-9,-227,-145,-31,131,-44
11925,-11,-228,-143,-17,122,-44
11930,-9,-226,-143,3,112,-42
11935,-7,-225,-145,23,104,-42
11940,-7,-223,-144,43,98,-41
11945,-6,-220,-143,60,92,-37
11950,-5,-217,-143,72,86,-35
11955,-3,-216,-141,79,83,-32
11960,-3,-214,-142,86,82,-29
11965,-1,-210,-140,87,81,-24
11970,-4,-205,-140,87,82,-17
11975,-1,-204,-138,83,85,-13
11980,-5,-210,-138,78,89,-7
11985,-4,-203,-140,67,94,-2
11990,-9,-202,-139,54,98,3
