timestamp,acc_x,acc_y,acc_z,gyro_x,gyro_y,gyro_z
0,22,-245,-37,27,-41,-9
5,19,-242,-41,31,-44,-13
10,20,-250,-41,35,-43,-14
15,22,-250,-42,41,-47,-13
20,17,-248,-37,47,-48,-12
25,18,-246,-49,52,-47,-12
30,20,-246,-41,56,-45,-16
35,24,-250,-39,61,-42,-18
40,22,-252,-42,63,-40,-18
45,22,-252,-40,66,-35,-18
50,21,-251,-43,66,-30,-18
55,19,-251,-40,65,-24,-19
60,18,-251,-44,61,-19,-20
65,16,-248,-36,61,-13,-23
70,21,-251,-38,61,-8,-23
75,16,-249,-39,59,-5,-24
80,17,-250,-39,59,-2,-24
85,18,-249,-39,59,0,-24
90,18,-244,-36,60,1,-25
95,18,-245,-40,62,1,-24
100,16,-245,-40,62,1,-21
105,21,-245,-42,61,2,-21
110,19,-244,-42,60,3,-19
115,18,-242,-37,55,4,-18
120,23,-243,-42,50,6,-20
125,17,-239,-43,41,7,-21
130,19,-243,-42,34,8,-22
135,19,-242,-39,27,10,-24
140,17,-241,-43,19,12,-26
145,18,-244,-39,14,13,-27
150,20,-240,-42,11,14,-27
155,19,-241,-42,10,13,-27
160,20,-243,-37,10,11,-26
165,17,-243,-42,12,10,-25
170,15,-242,-45,14,9,-25
175,20,-244,-39,16,7,-25
180,20,-245,-39,19,7,-25
185,15,-241,-34,19,8,-25
190,19,-243,-40,20,7,-26
195,18,-245,-39,18,8,-26
200,18,-242,-39,16,9,-25
205,17,-244,-43,15,11,-25
210,17,-244,-42,15,13,-25
215,19,-243,-38,15,15,-24
220,19,-247,-41,15,16,-23
225,19,-243,-40,15,16,-22
230,17,-247,-40,16,17,-22
235,18,-248,-40,16,16,-18
240,14,-246,-38,18,17,-17
245,18,-242,-40,21,16,-17
250,22,-246,-38,24,18,-15
255,18,-247,-40,28,19,-14
260,21,-248,-40,31,20,-14
265,21,-246,-41,36,21,-14
270,21,-251,-43,40,22,-13
275,18,-243,-44,43,22,-12
280,22,-245,-45,47,23,-13
285,21,-245,-37,51,25,-17
290,14,-243,-42,54,27,-18
295,22,-246,-44,57,31,-22
300,18,-243,-46,57,34,-22
305,19,-244,-44,55,38,-23
310,17,-243,-39,54,39,-25
315,20,-244,-41,54,39,-26
320,18,-244,-40,55,39,-25
325,17,-240,-42,57,37,-25
330,17,-240,-38,58,36,-27
335,16,-240,-42,59,36,-25
340,18,-241,-39,58,37,-25
345,17,-243,-40,55,38,-25
350,21,-243,-43,52,39,-24
355,19,-243,-41,50,40,-22
360,22,-243,-36,50,41,-21
365,18,-241,-39,51,41,-23
370,17,-243,-38,54,41,-22
375,21,-245,-40,58,41,-23
380,15,-245,-38,61,41,-22
385,21,-242,-47,61,41,-21
390,21,-246,-44,58,42,-22
395,22,-246,-45,53,44,-24
400,24,-245,-37,45,45,-24
405,19,-244,-44,38,44,-24
410,21,-246,-42,32,45,-25
415,21,-247,-41,31,46,-26
420,21,-244,-41,31,47,-24
425,18,-244,-44,33,47,-24
430,21,-245,-44,38,48,-24
435,20,-249,-43,44,50,-22
440,19,-246,-43,51,50,-22
445,19,-243,-42,56,51,-20
450,17,-241,-48,60,52,-21
455,18,-247,-31,62,54,-19
460,20,-241,-41,62,55,-18
465,19,-245,-41,62,58,-18
470,20,-243,-42,60,60,-18
475,16,-244,-39,58,60,-16
480,21,-245,-42,52,63,-16
485,17,-244,-42,52,62,-18
490,16,-244,-40,51,62,-19
495,19,-241,-38,50,61,-18
500,19,-246,-41,50,59,-19
505,17,-247,-41,51,59,-17
510,21,-245,-36,49,56,-16
515,22,-244,-40,50,54,-15
520,20,-245,-39,49,54,-15
525,22,-247,-38,49,52,-14
530,18,-244,-43,48,52,-13
535,22,-246,-39,46,52,-15
540,21,-246,-39,46,53,-14
545,19,-244,-45,45,52,-12
550,19,-241,-42,45,52,-12
555,23,-246,-42,47,53,-12
560,19,-246,-42,49,53,-12
565,22,-243,-39,51,53,-11
570,22,-244,-42,51,55,-11
575,20,-244,-41,49,56,-11
580,19,-242,-41,45,57,-13
585,19,-246,-38,41,58,-14
590,23,-247,-41,37,58,-14
595,19,-248,-40,38,58,-14
600,20,-241,-42,42,59,-15
605,20,-245,-35,47,58,-14
610,19,-245,-41,55,58,-12
615,15,-242,-38,62,57,-12
620,22,-242,-38,66,56,-10
625,19,-242,-43,67,54,-11
630,21,-244,-44,68,53,-11
635,20,-243,-39,67,51,-11
640,21,-243,-39,62,52,-12
645,23,-243,-36,56,51,-12
650,22,-242,-40,50,49,-11
655,20,-244,-38,46,49,-12
660,23,-242,-39,40,48,-12
665,19,-247,-39,38,47,-12
670,21,-246,-34,38,46,-12
675,21,-246,-37,41,44,-12
680,25,-245,-38,43,42,-11
685,23,-246,-40,45,43,-8
690,19,-244,-39,48,42,-8
695,21,-247,-37,49,42,-8
700,23,-247,-37,51,43,-9
705,16,-242,-41,51,44,-10
710,20,-244,-42,51,43,-10
715,21,-250,-42,51,44,-9
720,14,-246,-38,53,45,-10
725,17,-242,-38,54,45,-10
730,20,-245,-43,56,46,-8
735,21,-245,-41,57,45,-6
740,21,-246,-40,59,45,-7
745,23,-246,-39,60,45,-5
750,21,-245,-39,60,45,-5
755,21,-243,-34,60,46,-6
760,22,-246,-39,60,44,-7
765,19,-242,-40,58,43,-7
770,22,-244,-39,58,42,-6
775,26,-243,-33,55,41,-7
780,21,-244,-39,50,39,-9
785,23,-243,-37,47,38,-7
790,22,-244,-38,43,38,-9
795,19,-245,-40,41,38,-11
800,22,-242,-41,37,37,-12
805,23,-248,-40,36,34,-11
810,18,-246,-39,35,33,-11
815,21,-246,-35,39,31,-11
820,20,-241,-38,41,30,-11
825,20,-246,-37,45,26,-10
830,19,-245,-41,49,22,-9
835,20,-244,-40,49,19,-10
840,20,-244,-39,52,17,-8
845,17,-244,-42,55,14,-7
850,24,-245,-41,56,13,-8
855,23,-246,-42,60,13,-7
860,24,-245,-43,61,13,-4
865,20,-244,-36,64,15,-3
870,20,-248,-39,66,15,-3
875,22,-241,-43,69,19,-4
880,21,-244,-41,71,22,-4
885,19,-243,-39,74,25,-4
890,24,-244,-40,76,28,-3
895,23,-244,-39,77,31,-4
900,22,-244,-42,77,33,-2
905,22,-243,-41,73,35,-2
910,24,-243,-42,69,36,-1
915,19,-244,-37,65,36,-2
920,18,-245,-40,59,36,-2
925,23,-244,-43,53,36,-4
930,19,-245,-44,47,32,-3
935,19,-233,-42,41,29,-6
940,21,-247,-42,36,26,-10
945,20,-244,-41,35,23,-8
950,19,-244,-42,33,19,-8
955,21,-246,-41,34,16,-9
960,20,-243,-40,33,13,-10
965,19,-244,-38,33,11,-9
970,23,-248,-43,34,9,-11
975,23,-250,-40,36,9,-10
980,20,-246,-40,39,11,-11
985,19,-245,-41,41,10,-11
990,19,-243,-37,44,14,-9
995,21,-245,-39,46,15,-10
1000,22,-247,-37,48,16,-11
1005,20,-245,-39,49,20,-11
1010,20,-246,-40,51,22,-10
1015,21,-245,-40,56,25,-11
1020,22,-244,-40,58,29,-11
1025,20,-247,-40,62,33,-9
1030,23,-245,-41,67,36,-9
1035,22,-242,-43,70,39,-8
1040,25,-246,-42,73,41,-7
1045,26,-244,-46,75,42,-6
1050,27,-246,-41,74,43,-8
1055,21,-241,-41,73,41,-5
1060,23,-239,-41,72,40,-6
1065,20,-242,-39,68,37,-7
1070,24,-242,-40,64,37,-7
1075,20,-247,-40,63,35,-7
1080,24,-248,-45,59,31,-7
1085,19,-243,-35,56,27,-9
1090,23,-245,-39,53,24,-9
1095,20,-250,-31,51,20,-9
1100,23,-246,-38,49,16,-9
1105,21,-246,-37,50,12,-9
1110,20,-242,-38,51,8,-8
1115,23,-246,-34,54,5,-8
1120,21,-246,-38,60,4,-8
1125,23,-245,-37,63,2,-7
1130,20,-244,-41,69,2,-7
1135,22,-242,-42,73,2,-5
1140,21,-242,-37,77,4,-6
1145,22,-247,-39,78,6,-5
1150,16,-245,-40,77,9,-6
1155,21,-245,-42,76,11,-4
1160,23,-247,-42,71,15,-5
1165,19,-245,-44,63,18,-8
1170,21,-243,-42,57,21,-10
1175,19,-245,-41,49,24,-10
1180,20,-243,-38,41,25,-11
1185,21,-241,-36,37,26,-12
1190,22,-248,-42,33,27,-13
1195,22,-247,-38,33,28,-15
1200,21,-245,-41,34,29,-15
1205,25,-250,-41,37,29,-13
1210,21,-246,-38,44,31,-13
1215,22,-246,-39,50,33,-13
1220,23,-248,-41,55,34,-11
1225,22,-248,-40,63,33,-10
1230,22,-247,-36,69,31,-9
1235,22,-246,-39,73,29,-8
1240,20,-244,-41,75,27,-5
1245,22,-244,-41,76,27,-5
1250,22,-242,-39,77,23,-5
1255,26,-252,-31,75,22,-5
1260,23,-245,-37,76,21,-4
1265,21,-244,-35,72,18,-2
1270,20,-243,-43,70,17,-4
1275,23,-246,-39,66,17,-3
1280,23,-245,-39,64,16,-4
1285,20,-244,-40,59,18,-3
1290,21,-241,-37,56,17,-1
1295,19,-242,-36,53,17,-1
1300,21,-244,-33,51,17,0
1305,22,-245,-36,48,17,1
1310,23,-248,-38,44,17,0
1315,21,-245,-37,42,20,-1
1320,21,-245,-36,40,22,-3
1325,19,-246,-39,40,23,-3
1330,23,-245,-37,40,24,-6
1335,22,-245,-37,39,24,-5
1340,22,-245,-37,40,24,-8
1345,23,-246,-41,40,22,-8
1350,16,-250,-35,43,22,-11
1355,22,-247,-41,43,21,-13
1360,19,-244,-38,46,19,-13
1365,20,-249,-37,50,18,-15
1370,23,-244,-43,55,16,-14
1375,21,-245,-38,59,16,-12
1380,21,-245,-40,63,17,-13
1385,22,-243,-39,64,17,-11
1390,22,-247,-39,65,18,-13
1395,22,-247,-40,63,21,-10
1400,20,-240,-43,60,25,-8
1405,22,-244,-37,54,25,-9
1410,22,-246,-41,49,26,-9
1415,17,-243,-39,45,27,-8
1420,24,-251,-40,42,27,-8
1425,22,-245,-39,42,26,-10
1430,22,-245,-38,44,26,-9
1435,22,-249,-39,46,26,-7
1440,24,-244,-39,50,26,-8
1445,21,-247,-37,54,26,-9
1450,25,-244,-37,59,26,-8
1455,20,-246,-39,62,28,-8
1460,21,-248,-39,66,28,-9
1465,19,-242,-45,68,27,-10
1470,25,-247,-40,69,28,-13
1475,22,-246,-39,68,27,-14
1480,22,-244,-36,67,27,-15
1485,23,-243,-38,67,26,-14
1490,20,-244,-35,64,26,-15
1495,19,-244,-39,62,24,-14
1500,20,-240,-41,58,24,-14
1505,21,-244,-41,56,24,-12
1510,22,-245,-41,53,24,-10
1515,24,-245,-37,51,25,-11
1520,25,-246,-37,48,25,-10
1525,21,-243,-41,46,27,-8
1530,22,-246,-38,43,27,-8
1535,19,-246,-43,40,28,-10
1540,22,-243,-38,40,29,-11
1545,22,-246,-43,39,30,-8
1550,19,-243,-39,40,29,-10
1555,20,-246,-41,41,26,-10
1560,21,-245,-42,43,24,-13
1565,21,-244,-41,43,23,-10
1570,21,-244,-39,43,20,-12
1575,22,-250,-43,45,17,-12
1580,17,-245,-40,43,16,-13
1585,22,-242,-42,42,13,-11
1590,20,-244,-37,41,11,-11
1595,25,-246,-42,39,10,-11
1600,21,-244,-42,36,10,-12
1605,21,-243,-37,34,9,-13
1610,20,-245,-43,30,9,-13
1615,21,-245,-45,30,8,-12
1620,22,-244,-38,28,8,-14
1625,21,-245,-40,25,10,-11
1630,22,-241,-37,25,11,-11
1635,22,-245,-37,24,13,-12
1640,25,-244,-40,24,14,-11
1645,20,-242,-40,24,15,-10
1650,21,-243,-37,23,16,-9
1655,24,-244,-37,23,15,-10
1660,22,-244,-40,22,15,-9
1665,22,-245,-37,22,14,-10
1670,22,-244,-41,20,12,-10
1675,18,-242,-40,19,10,-10
1680,19,-241,-36,18,8,-10
1685,17,-239,-46,16,5,-11
1690,22,-243,-39,17,3,-10
1695,21,-245,-37,15,-1,-12
1700,21,-245,-42,16,-4,-12
1705,18,-245,-38,18,-7,-12
1710,18,-242,-41,19,-10,-12
1715,23,-244,-43,20,-13,-13
1720,20,-249,-43,21,-16,-14
1725,20,-247,-42,20,-18,-13
1730,21,-245,-46,19,-21,-10
1735,23,-247,-46,19,-21,-11
1740,20,-243,-41,17,-22,-8
1745,21,-246,-49,16,-22,-7
1750,20,-243,-44,14,-19,-7
1755,22,-245,-43,12,-18,-6
1760,21,-245,-45,10,-17,-5
1765,23,-243,-42,7,-15,-6
1770,21,-244,-41,6,-13,-5
1775,20,-247,-45,7,-11,-3
1780,21,-247,-35,10,-10,-2
1785,20,-243,-46,12,-8,-1
1790,25,-248,-46,16,-8,-1
1795,23,-243,-38,21,-9,-1
1800,25,-245,-43,23,-11,-2
1805,20,-243,-43,27,-12,-2
1810,22,-243,-40,28,-15,-1
1815,19,-241,-45,28,-18,-1
1820,18,-244,-43,25,-21,-1
1825,19,-241,-43,23,-24,-1
1830,19,-245,-41,18,-24,-3
1835,20,-245,-42,13,-26,-4
1840,16,-243,-43,7,-29,-3
1845,22,-244,-42,3,-29,-7
1850,15,-249,-46,0,-30,-8
1855,20,-246,-42,-3,-31,-9
1860,21,-246,-46,-3,-28,-10
1865,22,-246,-42,-4,-28,-10
1870,18,-242,-42,1,-27,-10
1875,19,-243,-44,6,-25,-12
1880,21,-245,-44,13,-24,-13
1885,20,-240,-40,18,-21,-12
1890,18,-245,-44,24,-19,-12
1895,16,-242,-43,28,-18,-11
1900,18,-242,-44,32,-17,-9
1905,20,-242,-46,30,-14,-9
1910,22,-244,-44,27,-13,-7
1915,19,-240,-45,24,-12,-8
1920,19,-245,-46,17,-12,-9
1925,21,-244,-46,12,-12,-10
1930,20,-240,-47,5,-13,-12
1935,21,-248,-43,1,-14,-13
1940,21,-245,-45,-1,-14,-12
1945,19,-246,-44,-2,-15,-14
1950,18,-246,-41,-1,-14,-13
1955,21,-252,-46,3,-13,-14
1960,21,-246,-46,8,-11,-14
1965,18,-245,-48,12,-12,-13
1970,20,-248,-41,17,-12,-13
1975,19,-244,-45,23,-10,-14
1980,19,-248,-44,27,-9,-13
1985,23,-246,-48,33,-10,-12
1990,21,-248,-47,36,-13,-11
1995,18,-244,-45,38,-14,-10
2000,23,-243,-46,40,-14,-9
2005,21,-243,-44,42,-16,-7
2010,21,-245,-47,42,-15,-8
2015,22,-245,-45,43,-16,-7
2020,22,-244,-47,45,-17,-7
2025,19,-242,-45,46,-18,-7
2030,18,-246,-45,49,-18,-5
2035,21,-244,-44,53,-19,-7
2040,19,-245,-41,57,-20,-7
2045,18,-243,-48,61,-21,-8
2050,24,-245,-44,67,-21,-7
2055,19,-241,-46,72,-21,-6
2060,21,-245,-49,75,-22,-7
2065,21,-244,-48,75,-24,-6
2070,20,-244,-49,76,-25,-7
2075,18,-243,-46,75,-26,-6
2080,23,-246,-46,73,-26,-8
2085,19,-242,-47,71,-26,-10
2090,19,-243,-40,71,-23,-10
2095,21,-247,-43,70,-21,-11
2100,22,-248,-40,69,-20,-14
2105,19,-246,-42,71,-19,-13
2110,19,-244,-44,73,-18,-12
2115,27,-247,-47,77,-18,-12
2120,21,-245,-43,83,-18,-14
2125,22,-248,-39,88,-19,-12
2130,17,-242,-43,94,-20,-12
2135,17,-244,-45,100,-22,-8
2140,17,-243,-47,102,-24,-9
2145,22,-246,-45,102,-26,-9
2150,20,-242,-43,99,-27,-8
2155,19,-245,-47,94,-27,-7
2160,20,-242,-42,89,-27,-9
2165,24,-238,-49,82,-26,-10
2170,22,-241,-43,75,-23,-9
2175,22,-244,-46,70,-22,-11
2180,21,-244,-45,66,-21,-13
2185,22,-244,-43,64,-21,-10
2190,20,-244,-44,64,-22,-9
2195,24,-247,-44,61,-21,-7
2200,19,-244,-46,59,-21,-6
2205,17,-248,-46,57,-24,-6
2210,17,-241,-44,53,-24,-6
2215,16,-243,-49,50,-24,-6
2220,23,-243,-47,46,-23,-4
2225,17,-239,-51,42,-20,-4
2230,19,-245,-45,40,-18,-3
2235,20,-243,-44,39,-16,-2
2240,18,-244,-48,40,-13,-3
2245,22,-247,-47,41,-10,-2
2250,19,-244,-44,45,-8,-2
2255,21,-248,-43,52,-7,-1
2260,22,-245,-46,59,-5,-2
2265,17,-244,-52,66,-5,-2
2270,21,-242,-44,73,-4,-5
2275,16,-241,-40,80,-4,-6
2280,21,-243,-43,87,-5,-4
2285,21,-244,-44,92,-6,-5
2290,18,-244,-47,97,-9,-8
2295,18,-241,-47,99,-10,-9
2300,22,-243,-42,97,-10,-9
2305,20,-243,-42,95,-14,-10
2310,17,-242,-45,91,-14,-10
2315,20,-245,-44,83,-16,-12
2320,18,-240,-43,79,-18,-16
2325,19,-241,-43,73,-20,-15
2330,19,-248,-40,67,-20,-15
2335,21,-244,-43,63,-19,-17
2340,21,-245,-41,59,-19,-19
2345,17,-243,-42,58,-19,-18
2350,18,-248,-43,57,-16,-18
2355,20,-247,-42,58,-13,-18
2360,20,-248,-43,62,-11,-17
2365,18,-247,-45,65,-9,-16
2370,18,-245,-46,68,-5,-12
2375,19,-246,-41,70,-2,-12
2380,22,-247,-44,72,-1,-11
2385,19,-238,-40,74,1,-11
2390,16,-244,-42,73,3,-13
2395,17,-242,-41,71,4,-11
2400,21,-244,-46,67,7,-13
2405,22,-245,-45,62,9,-15
2410,23,-243,-45,56,10,-17
2415,21,-242,-45,50,10,-19
2420,20,-247,-44,43,10,-22
2425,17,-241,-46,37,10,-23
2430,25,-249,-46,34,9,-24
2435,19,-247,-46,31,8,-28
2440,21,-247,-38,32,6,-27
2445,22,-245,-42,34,3,-27
2450,21,-243,-43,36,0,-27
2455,21,-245,-37,38,-5,-27
2460,16,-246,-40,44,-8,-24
2465,19,-246,-39,47,-12,-23
2470,18,-246,-39,52,-15,-23
2475,19,-246,-42,56,-17,-20
2480,20,-247,-39,60,-18,-20
2485,17,-244,-36,61,-19,-17
2490,18,-247,-38,62,-20,-16
2495,17,-245,-33,61,-20,-15
2500,19,-245,-41,62,-21,-13
2505,19,-243,-39,60,-20,-11
2510,19,-244,-39,60,-20,-10
2515,17,-245,-37,63,-17,-11
2520,19,-246,-44,68,-16,-9
2525,17,-243,-40,73,-13,-10
2530,23,-244,-41,79,-11,-11
2535,22,-243,-42,87,-11,-11
2540,22,-243,-45,95,-9,-11
2545,27,-242,-37,99,-10,-11
2550,19,-246,-43,99,-8,-13
2555,21,-243,-41,94,-8,-15
2560,19,-242,-46,87,-8,-15
2565,22,-243,-46,78,-9,-16
2570,21,-242,-43,65,-8,-17
2575,20,-243,-48,55,-6,-19
2580,18,-239,-48,47,-4,-17
2585,16,-245,-48,37,-3,-17
2590,23,-245,-45,31,1,-18
2595,19,-241,-47,23,4,-20
2600,12,-245,-43,21,8,-20
2605,21,-246,-45,19,12,-19
2610,20,-244,-42,20,15,-17
2615,19,-244,-41,25,17,-17
2620,19,-244,-42,31,18,-19
2625,24,-245,-39,38,16,-18
2630,19,-243,-40,44,15,-19
2635,21,-244,-38,49,14,-19
2640,17,-239,-45,54,13,-19
2645,17,-239,-39,54,11,-21
2650,19,-239,-41,54,11,-22
2655,20,-242,-43,50,11,-19
2660,20,-244,-44,45,11,-19
2665,22,-241,-45,41,12,-21
2670,22,-245,-43,37,11,-20
2675,19,-246,-43,34,13,-22
2680,20,-246,-40,31,12,-22
2685,20,-247,-41,30,14,-22
2690,19,-247,-44,31,15,-20
2695,19,-241,-42,34,17,-21
2700,20,-241,-43,35,20,-22
2705,20,-245,-41,37,21,-21
2710,20,-243,-36,40,21,-21
2715,19,-242,-42,42,23,-21
2720,20,-245,-42,41,21,-22
2725,20,-243,-46,41,20,-21
2730,17,-241,-40,38,20,-22
2735,21,-245,-44,37,19,-23
2740,19,-240,-46,37,19,-23
2745,22,-245,-43,37,20,-23
2750,21,-244,-41,37,18,-25
2755,20,-242,-43,38,16,-24
2760,14,-246,-41,39,14,-24
2765,22,-243,-45,39,14,-24
2770,21,-243,-45,40,14,-25
2775,20,-242,-44,38,14,-25
2780,21,-244,-46,38,16,-24
2785,18,-242,-48,36,19,-25
2790,21,-241,-44,33,21,-26
2795,19,-242,-44,33,24,-24
2800,20,-242,-37,34,26,-23
2805,20,-243,-45,36,28,-21
2810,20,-242,-42,38,28,-19
2815,17,-243,-47,41,29,-19
2820,18,-241,-42,41,30,-19
2825,19,-245,-43,41,30,-19
2830,17,-244,-43,39,29,-16
2835,17,-241,-43,36,28,-17
2840,20,-242,-42,36,27,-16
2845,22,-244,-44,35,25,-16
2850,20,-244,-42,35,24,-15
2855,17,-240,-46,36,23,-16
2860,21,-247,-43,33,23,-16
2865,27,-241,-44,32,22,-13
2870,20,-241,-41,31,19,-14
2875,21,-241,-44,29,20,-13
2880,25,-243,-46,26,19,-14
2885,22,-243,-42,23,18,-15
2890,22,-241,-47,21,16,-13
2895,23,-242,-44,16,15,-15
2900,22,-241,-43,14,15,-13
2905,21,-244,-43,12,16,-10
2910,24,-248,-42,10,15,-9
2915,24,-242,-39,9,15,-10
2920,20,-244,-42,9,17,-8
2925,20,-239,-41,11,17,-5
2930,22,-241,-42,11,19,-6
2935,23,-247,-45,10,20,-7
2940,22,-242,-47,8,20,-6
2945,22,-246,-44,9,21,-5
2950,23,-244,-47,9,22,-4
2955,21,-242,-48,10,23,-5
2960,20,-247,-47,11,25,-5
2965,21,-241,-43,16,28,-5
2970,21,-240,-42,19,28,-3
2975,19,-241,-49,20,29,-3
2980,27,-242,-48,19,29,0
2985,18,-243,-50,14,30,1
2990,16,-240,-45,7,31,2
2995,16,-244,-46,-3,32,8
3000,15,-241,-44,-13,32,13
3005,17,-238,-46,-20,31,20
3010,14,-241,-47,-24,31,28
3015,16,-243,-47,-25,27,31
3020,19,-238,-48,-26,22,41
3025,16,-240,-52,-27,15,45
3030,19,-238,-52,-32,5,52
3035,17,-243,-50,-39,-3,58
3040,19,-238,-50,-47,-12,61
3045,20,-238,-53,-52,-18,67
3050,21,-237,-47,-56,-23,70
3055,22,-237,-49,-57,-26,75
3060,18,-234,-48,-56,-28,79
3065,18,-233,-48,-53,-30,81
3070,19,-229,-52,-52,-29,83
3075,21,-228,-51,-52,-29,84
3080,16,-227,-51,-56,-28,88
3085,17,-227,-53,-62,-28,89
3090,17,-220,-57,-71,-28,93
3095,18,-228,-56,-81,-27,96
3100,17,-223,-55,-96,-27,97
3105,19,-221,-57,-109,-30,99
3110,15,-224,-54,-121,-32,102
3115,15,-222,-57,-133,-33,104
3120,17,-224,-59,-143,-36,107
3125,14,-218,-58,-151,-35,111
3130,15,-218,-59,-163,-35,113
3135,16,-216,-61,-171,-36,115
3140,21,-222,-63,-181,-35,120
3145,14,-218,-61,-188,-34,120
3150,11,-214,-66,-197,-30,125
3155,15,-217,-67,-210,-26,126
3160,16,-213,-65,-223,-24,128
3165,16,-214,-65,-239,-22,134
3170,18,-213,-68,-259,-18,134
3175,13,-211,-70,-280,-14,133
3180,17,-213,-72,-303,-9,132
3185,14,-209,-69,-328,-3,130
3190,19,-209,-69,-357,2,131
3195,13,-206,-71,-386,3,132
3200,16,-209,-71,-416,5,134
3205,13,-210,-74,-447,5,136
3210,12,-208,-75,-477,7,139
3215,11,-206,-72,-504,7,142
3220,10,-205,-73,-531,6,144
3225,9,-206,-72,-555,5,149
3230,7,-205,-72,-576,4,155
3235,11,-205,-72,-597,4,159
3240,6,-204,-71,-617,7,162
3245,9,-206,-71,-637,17,163
3250,9,-205,-69,-657,26,163
3255,14,-210,-71,-680,39,162
3260,12,-206,-69,-702,52,163
3265,10,-205,-71,-726,68,164
3270,11,-205,-71,-750,85,165
3275,8,-202,-68,-774,98,166
3280,12,-202,-75,-804,110,168
3285,11,-199,-75,-837,123,170
3290,14,-198,-77,-874,131,172
3295,9,-195,-77,-913,136,176
3300,13,-197,-79,-955,138,180
3305,6,-191,-87,-996,137,186
3310,7,-192,-82,-1035,133,193
3315,10,-190,-83,-1074,125,198
3320,8,-190,-85,-1111,115,199
3325,8,-186,-85,-1149,100,202
3330,9,-183,-87,-1188,84,201
3335,7,-184,-93,-1226,69,202
3340,6,-182,-95,-1265,55,203
3345,7,-179,-96,-1302,42,203
3350,2,-181,-100,-1340,33,199
3355,6,-184,-103,-1375,27,197
3360,1,-178,-110,-1408,24,197
3365,2,-181,-112,-1441,25,196
3370,3,-186,-116,-1470,29,195
3375,4,-186,-117,-1497,34,195
3380,3,-185,-120,-1524,43,192
3385,4,-189,-123,-1549,56,191
3390,3,-191,-128,-1575,70,187
3395,2,-193,-135,-1596,84,185
3400,2,-197,-131,-1615,99,183
3405,5,-201,-129,-1632,112,182
3410,7,-202,-130,-1639,123,179
3415,2,-208,-130,-1641,132,181
3420,0,-207,-133,-1636,137,182
3425,3,-209,-136,-1625,139,185
3430,4,-209,-136,-1605,136,190
3435,2,-213,-139,-1580,133,197
3440,1,-210,-136,-1553,126,203
3445,1,-212,-141,-1523,117,210
3450,0,-211,-145,-1492,109,218
3455,0,-208,-142,-1465,98,225
3460,1,-210,-143,-1445,90,230
3465,0,-206,-146,-1431,83,239
3470,-1,-204,-148,-1425,73,247
3475,-4,-195,-149,-1429,60,252
3480,0,-198,-157,-1443,45,254
3485,0,-194,-158,-1463,30,255
3490,-5,-191,-162,-1486,16,254
3495,-5,-186,-168,-1514,6,259
3500,-1,-185,-168,-1545,-6,264
3505,-3,-177,-173,-1577,-13,265
3510,-5,-173,-173,-1608,-17,261
3515,-5,-169,-177,-1635,-18,258
3520,-11,-173,-170,-1658,-17,258
3525,-7,-168,-180,-1679,-12,256
3530,-9,-163,-180,-1696,-4,251
3535,-8,-163,-181,-1714,5,251
3540,-9,-161,-177,-1730,16,246
3545,-9,-162,-179,-1744,26,242
3550,-6,-163,-177,-1755,38,238
3555,-9,-161,-179,-1757,47,237
3560,-3,-165,-183,-1755,57,234
3565,-5,-163,-178,-1749,64,232
3570,-7,-166,-182,-1742,69,233
3575,-9,-165,-175,-1738,71,231
3580,-9,-165,-180,-1739,68,232
3585,-6,-164,-184,-1745,66,234
3590,-7,-165,-184,-1759,56,231
3595,-6,-164,-191,-1783,42,229
3600,-8,-163,-194,-1823,25,227
3605,-4,-163,-198,-1879,3,231
3610,-4,-157,-202,-1945,-16,229
3615,-2,-155,-203,-2023,-37,226
3620,-8,-146,-207,-2108,-55,225
3625,-1,-150,-213,-2191,-71,227
3630,-8,-142,-218,-2269,-85,225
3635,-6,-138,-221,-2342,-96,228
3640,-3,-135,-221,-2400,-100,227
3645,0,-132,-219,-2446,-96,227
3650,0,-128,-224,-2474,-88,228
3655,0,-122,-215,-2480,-80,225
3660,0,-119,-214,-2467,-74,219
3665,0,-119,-210,-2430,-69,217
3670,-1,-115,-210,-2370,-66,208
3675,-5,-113,-206,-2290,-67,199
3680,-11,-114,-206,-2195,-69,183
3685,-10,-109,-198,-2092,-77,163
3690,-13,-105,-197,-1986,-89,146
3695,-17,-99,-201,-1884,-103,133
3700,-20,-100,-201,-1793,-120,122
3705,-22,-99,-207,-1718,-138,113
3710,-22,-94,-209,-1665,-156,110
3715,-22,-88,-218,-1638,-173,113
3720,-22,-88,-227,-1632,-191,113
3725,-20,-84,-238,-1653,-212,117
3730,-11,-80,-241,-1691,-231,120
3735,-11,-83,-251,-1745,-246,121
3740,-19,-71,-252,-1803,-261,120
3745,-20,-71,-254,-1861,-271,118
3750,-15,-69,-257,-1909,-279,119
3755,-14,-64,-257,-1939,-277,127
3760,-15,-63,-257,-1954,-265,143
3765,-16,-67,-260,-1950,-248,165
3770,-16,-65,-256,-1930,-227,183
3775,-14,-63,-255,-1896,-204,196
3780,-17,-63,-250,-1850,-181,211
3785,-16,-65,-249,-1795,-157,229
3790,-19,-65,-251,-1735,-136,243
3795,-20,-61,-253,-1673,-119,247
3800,-20,-64,-252,-1610,-106,252
3805,-21,-61,-245,-1547,-99,257
3810,-20,-58,-244,-1494,-99,259
3815,-20,-55,-242,-1445,-99,264
3820,-19,-49,-241,-1406,-107,264
3825,-21,-48,-241,-1380,-118,269
3830,-20,-48,-246,-1364,-134,274
3835,-20,-42,-246,-1361,-151,278
3840,-22,-41,-250,-1367,-169,283
3845,-20,-33,-255,-1376,-183,291
3850,-20,-34,-259,-1382,-197,292
3855,-22,-28,-258,-1376,-208,287
3860,-26,-26,-264,-1356,-215,280
3865,-23,-24,-264,-1327,-214,282
3870,-28,-22,-269,-1285,-206,275
3875,-30,-16,-273,-1234,-195,270
3880,-24,-18,-271,-1178,-186,260
3885,-25,-17,-271,-1115,-175,248
3890,-25,-9,-277,-1050,-155,245
3895,-23,-9,-275,-989,-133,242
3900,-21,-7,-278,-934,-111,236
3905,-23,-7,-273,-885,-91,224
3910,-25,-1,-270,-845,-76,215
3915,-22,-2,-276,-808,-63,206
3920,-25,2,-270,-779,-46,197
3925,-25,6,-272,-763,-29,196
3930,-25,13,-270,-755,-11,192
3935,-29,10,-274,-759,10,187
3940,-29,14,-267,-767,15,181
3945,-23,17,-271,-777,15,177
3950,-29,21,-258,-788,12,179
3955,-20,20,-264,-809,9,185
3960,-22,21,-267,-831,7,188
3965,-29,22,-269,-858,3,186
3970,-22,24,-266,-884,-6,182
3975,-21,28,-263,-904,-18,178
3980,-19,22,-261,-920,-25,177
3985,-18,29,-261,-938,-26,176
3990,-18,31,-262,-957,-19,173
3995,-12,27,-263,-972,-9,170
4000,-17,31,-258,-983,3,168
4005,-17,30,-254,-988,19,168
4010,-18,35,-254,-985,35,165
4015,-21,35,-255,-976,48,169
4020,-22,39,-246,-965,59,177
4025,-21,37,-246,-952,65,182
4030,-20,37,-244,-937,64,182
4035,-23,41,-248,-922,61,184
4040,-18,40,-241,-908,51,187
4045,-24,46,-250,-894,38,190
4050,-24,48,-241,-885,23,195
4055,-21,51,-238,-881,9,203
4060,-18,52,-241,-881,-8,207
4065,-21,59,-247,-881,-27,205
4070,-24,60,-248,-886,-49,205
4075,-24,62,-244,-892,-69,208
4080,-20,66,-252,-897,-89,206
4085,-24,68,-255,-908,-100,199
4090,-21,65,-257,-925,-107,195
4095,-25,71,-256,-943,-107,183
4100,-27,77,-260,-959,-111,178
4105,-28,73,-258,-978,-111,174
4110,-31,79,-262,-992,-111,165
4115,-28,80,-257,-1006,-99,158
4120,-31,79,-260,-1016,-85,147
4125,-29,76,-258,-1019,-68,133
4130,-27,75,-257,-1012,-50,124
4135,-29,78,-257,-1001,-31,113
4140,-27,74,-259,-985,-18,101
4145,-27,72,-263,-968,-10,92
4150,-24,78,-263,-948,-4,88
4155,-23,77,-263,-929,-1,82
4160,-20,77,-261,-915,2,82
4165,-23,76,-258,-907,6,78
4170,-23,77,-258,-902,8,70
4175,-25,79,-260,-893,10,64
4180,-21,76,-257,-877,13,61
4185,-23,75,-253,-861,15,58
4190,-30,82,-254,-839,17,52
4195,-26,80,-256,-817,20,50
4200,-23,77,-247,-793,21,45
4205,-25,82,-249,-773,26,47
4210,-23,85,-241,-749,28,48
4215,-26,85,-245,-723,23,44
4220,-26,90,-239,-697,14,38
4225,-26,93,-243,-669,6,34
4230,-27,92,-240,-642,-1,31
4235,-26,91,-237,-615,-7,30
4240,-26,94,-241,-591,-11,29
4245,-26,96,-240,-566,-15,29
4250,-25,98,-240,-542,-15,32
4255,-30,98,-239,-520,-13,36
4260,-32,104,-238,-499,-8,38
4265,-26,101,-234,-479,0,38
4270,-29,104,-238,-460,6,37
4275,-28,107,-240,-448,12,35
4280,-30,111,-240,-447,25,31
4285,-29,109,-242,-448,28,28
4290,-33,109,-243,-446,31,21
4295,-28,105,-243,-440,34,17
4300,-30,105,-241,-430,34,13
4305,-31,110,-245,-416,31,8
4310,-27,108,-243,-401,28,5
4315,-29,109,-244,-387,31,2
4320,-28,110,-239,-374,32,-1
4325,-28,112,-237,-367,34,-3
4330,-26,110,-240,-360,38,-6
4335,-29,111,-239,-351,41,-6
4340,-25,111,-238,-340,44,-6
4345,-25,114,-234,-327,46,-6
4350,-23,108,-234,-314,48,-4
4355,-24,113,-233,-301,52,0
4360,-20,112,-235,-293,58,1
4365,-21,112,-233,-284,63,2
4370,-23,109,-234,-278,67,3
4375,-21,115,-234,-270,69,4
4380,-19,112,-233,-262,72,4
4385,-18,111,-229,-253,74,4
4390,-21,115,-226,-239,74,2
4395,-19,109,-224,-226,75,0
4400,-22,115,-224,-210,74,-1
4405,-20,116,-224,-197,75,-1
4410,-22,113,-225,-180,75,-5
4415,-20,113,-226,-165,75,-8
4420,-24,112,-223,-152,76,-13
4425,-25,113,-227,-137,78,-17
4430,-27,118,-227,-121,81,-21
4435,-26,115,-222,-101,85,-27
4440,-26,120,-226,-81,89,-32
4445,-24,115,-228,-57,94,-36
4450,-26,120,-227,-35,98,-38
4455,-26,117,-226,-19,100,-41
4460,-25,123,-224,-5,101,-45
4465,-22,120,-226,7,100,-49
4470,-23,122,-225,16,98,-50
4475,-22,119,-225,24,92,-53
4480,-17,119,-227,32,86,-56
4485,-22,120,-223,43,81,-58
4490,-20,122,-226,55,79,-61
4495,-21,120,-225,66,81,-62
4500,-23,123,-225,77,82,-62
4505,-25,125,-228,82,85,-64
4510,-20,122,-226,85,90,-63
4515,-18,125,-229,87,94,-63
4520,-23,126,-224,83,100,-62
4525,-18,124,-224,80,104,-59
4530,-17,123,-225,74,112,-56
4535,-13,123,-220,69,118,-53
4540,-18,126,-224,61,122,-48
4545,-17,124,-221,51,126,-46
4550,-19,122,-217,47,130,-44
4555,-17,126,-218,42,132,-44
4560,-15,124,-214,43,134,-42
4565,-17,126,-219,47,137,-41
4570,-17,122,-214,55,139,-44
4575,-18,124,-219,65,138,-42
4580,-15,122,-214,77,138,-43
4585,-19,122,-212,89,137,-46
4590,-12,121,-220,101,134,-49
4595,-18,124,-215,111,130,-50
4600,-14,122,-213,119,127,-52
4605,-16,124,-214,128,124,-54
4610,-18,121,-210,136,118,-55
4615,-15,124,-212,145,113,-58
4620,-16,121,-216,154,109,-58
4625,-16,123,-216,164,106,-60
4630,-14,120,-217,170,103,-64
4635,-16,122,-213,171,102,-66
4640,-17,122,-221,168,100,-68
4645,-19,121,-222,161,100,-68
4650,-15,125,-219,153,99,-70
4655,-17,126,-222,143,98,-69
4660,-16,127,-219,134,98,-72
4665,-14,125,-218,127,96,-70
4670,-15,124,-219,120,93,-69
4675,-20,125,-214,113,92,-67
4680,-17,120,-218,105,91,-66
4685,-13,125,-216,97,90,-64
4690,-17,121,-217,90,90,-64
4695,-14,122,-221,81,92,-62
4700,-14,122,-214,70,92,-61
4705,-16,125,-213,62,92,-60
4710,-16,125,-214,55,89,-61
4715,-14,122,-220,50,85,-60
4720,-14,121,-215,46,80,-59
4725,-15,119,-218,45,73,-56
4730,-15,121,-217,45,66,-53
4735,-17,123,-211,45,59,-50
4740,-16,122,-217,46,52,-47
4745,-15,126,-216,49,48,-44
4750,-15,122,-219,50,42,-43
4755,-12,121,-215,51,40,-39
4760,-15,122,-216,51,37,-38
4765,-14,122,-215,51,37,-36
4770,-13,123,-222,51,37,-36
4775,-15,125,-219,51,38,-36
4780,-15,123,-221,48,43,-37
4785,-14,125,-222,46,47,-39
4790,-11,125,-222,44,54,-40
4795,-15,126,-227,42,58,-42
4800,-13,126,-229,40,61,-44
4805,-15,121,-227,39,62,-44
4810,-15,126,-223,40,63,-46
4815,-16,125,-224,42,63,-50
4820,-18,126,-222,43,65,-51
4825,-16,125,-222,42,66,-51
4830,-19,124,-222,41,66,-54
4835,-13,122,-225,41,67,-51
4840,-15,120,-221,41,66,-49
4845,-16,122,-225,41,66,-47
4850,-17,123,-218,43,64,-43
4855,-18,123,-225,45,64,-39
4860,-16,120,-221,47,61,-35
4865,-16,120,-223,46,58,-32
4870,-15,122,-224,47,54,-31
4875,-15,121,-220,49,49,-30
4880,-14,120,-221,51,43,-29
4885,-16,125,-224,54,37,-29
4890,-15,121,-220,58,31,-28
4895,-11,115,-220,62,27,-25
4900,-16,123,-217,66,22,-24
4905,-16,123,-220,68,19,-23
4910,-15,121,-224,70,19,-21
4915,-13,122,-212,70,18,-22
4920,-12,123,-221,69,19,-21
4925,-13,124,-222,68,18,-19
4930,-13,121,-223,64,22,-20
4935,-14,122,-223,60,25,-20
4940,-13,121,-220,58,28,-22
4945,-13,120,-218,56,31,-19
4950,-12,119,-221,58,35,-17
4955,-15,122,-219,58,37,-13
4960,-13,125,-219,58,37,-11
4965,-16,123,-218,58,39,-7
4970,-14,123,-215,58,39,-6
4975,-13,125,-219,59,39,-5
4980,-14,123,-217,58,38,-5
4985,-16,123,-216,58,36,-4
4990,-16,121,-220,57,32,-5
4995,-16,120,-217,59,27,-4
5000,-14,123,-221,62,22,-4
5005,-17,122,-215,64,16,-4
5010,-17,123,-216,67,14,-4
5015,-19,123,-221,67,13,-6
5020,-17,122,-219,66,14,-7
5025,-16,121,-222,64,17,-9
5030,-17,121,-223,61,19,-10
5035,-15,120,-217,59,22,-9
5040,-14,122,-223,56,23,-9
5045,-15,119,-219,57,23,-11
5050,-14,119,-219,59,21,-12
5055,-15,124,-216,62,21,-12
5060,-16,121,-219,66,19,-10
5065,-17,120,-215,67,16,-8
5070,-16,123,-216,66,14,-9
5075,-11,122,-212,64,11,-9
5080,-16,120,-218,59,8,-7
5085,-16,124,-219,59,6,-7
5090,-15,123,-217,55,4,-9
5095,-16,123,-221,53,5,-9
5100,-16,123,-219,48,7,-7
5105,-15,121,-220,46,9,-9
5110,-15,121,-221,44,11,-10
5115,-13,120,-215,43,12,-11
5120,-19,124,-221,43,10,-10
5125,-16,121,-220,44,11,-10
5130,-13,120,-225,46,11,-10
5135,-15,115,-214,45,9,-11
5140,-15,124,-219,44,8,-9
5145,-13,121,-221,44,8,-8
5150,-11,120,-222,43,7,-6
5155,-12,121,-219,42,6,-6
5160,-14,122,-220,41,6,-3
5165,-11,119,-216,40,5,-4
5170,-11,120,-220,37,3,-3
5175,-12,120,-223,36,0,-3
5180,-12,121,-216,35,0,-1
5185,-13,119,-219,35,-2,-2
5190,-15,121,-220,37,-2,-1
5195,-14,121,-222,37,-3,-2
5200,-13,120,-219,38,-2,-4
5205,-11,121,-222,40,0,-4
5210,-12,121,-222,41,3,-6
5215,-13,122,-219,43,4,-6
5220,-15,122,-217,46,6,-9
5225,-13,123,-223,47,6,-12
5230,-17,122,-214,49,7,-13
5235,-15,122,-219,50,7,-16
5240,-14,122,-215,50,7,-17
5245,-19,121,-215,49,8,-16
5250,-9,116,-221,47,8,-20
5255,-16,122,-215,46,8,-22
5260,-12,122,-218,44,7,-25
5265,-13,120,-219,41,7,-29
5270,-12,122,-216,39,6,-29
5275,-15,124,-219,39,4,-32
5280,-12,119,-217,39,3,-36
5285,-16,120,-220,40,2,-40
5290,-16,122,-219,43,0,-42
5295,-17,118,-218,46,-2,-42
5300,-13,121,-215,50,-2,-46
5305,-15,123,-217,56,-5,-48
5310,-14,120,-216,60,-5,-50
5315,-16,121,-214,66,-8,-51
5320,-15,122,-218,71,-10,-54
5325,-13,123,-219,75,-11,-54
5330,-12,119,-219,82,-11,-53
5335,-14,123,-221,86,-13,-54
5340,-14,117,-218,89,-13,-54
5345,-10,121,-221,91,-11,-55
5350,-6,126,-223,91,-11,-56
5355,-14,123,-219,89,-10,-55
5360,-13,119,-220,87,-7,-56
5365,-14,120,-222,84,-6,-56
5370,-13,122,-220,82,-5,-55
5375,-14,122,-218,78,-3,-54
5380,-16,124,-218,76,-2,-52
5385,-14,123,-219,73,-3,-52
5390,-14,123,-218,71,-5,-52
5395,-13,123,-221,66,-6,-52
5400,-19,122,-218,66,-9,-53
5405,-17,115,-217,63,-12,-53
5410,-12,121,-213,62,-16,-54
5415,-14,118,-216,64,-19,-55
5420,-17,120,-218,67,-23,-53
5425,-18,120,-220,74,-28,-55
5430,-19,120,-218,80,-31,-55
5435,-17,118,-218,83,-35,-59
5440,-19,122,-216,86,-39,-61
5445,-16,118,-223,86,-40,-65
5450,-18,123,-220,84,-42,-68
5455,-19,122,-217,83,-44,-70
5460,-16,120,-223,85,-46,-73
5465,-17,119,-219,91,-48,-77
5470,-20,121,-221,100,-47,-80
5475,-20,121,-221,111,-46,-84
5480,-19,120,-219,119,-43,-83
5485,-18,120,-223,124,-39,-81
5490,-17,121,-224,128,-34,-79
5495,-16,119,-223,127,-29,-75
5500,-20,120,-223,126,-25,-74
5505,-22,122,-219,126,-23,-68
5510,-20,121,-219,123,-20,-64
5515,-23,117,-221,122,-16,-61
5520,-18,120,-218,120,-15,-58
5525,-21,121,-222,117,-14,-57
5530,-19,120,-217,115,-15,-56
5535,-19,119,-220,113,-16,-55
5540,-18,118,-220,109,-18,-54
5545,-17,118,-220,108,-22,-57
5550,-21,122,-219,107,-26,-58
5555,-22,119,-216,110,-32,-61
5560,-18,117,-219,116,-35,-63
5565,-21,117,-224,126,-41,-66
5570,-19,115,-223,139,-44,-69
5575,-21,117,-225,153,-47,-69
5580,-16,118,-225,164,-50,-69
5585,-17,117,-226,173,-47,-65
5590,-19,121,-226,178,-45,-63
5595,-18,121,-228,180,-41,-60
5600,-19,122,-228,179,-37,-54
5605,-20,122,-229,174,-35,-50
5610,-21,119,-229,166,-29,-45
5615,-19,123,-226,155,-25,-42
5620,-18,123,-223,147,-22,-41
5625,-20,117,-220,141,-17,-39
5630,-26,117,-223,138,-13,-35
5635,-22,114,-226,137,-9,-33
5640,-21,116,-224,138,-5,-33
5645,-22,118,-223,139,-1,-30
5650,-20,113,-221,139,1,-30
5655,-18,113,-224,140,3,-28
5660,-22,118,-224,139,3,-26
5665,-21,114,-224,139,3,-24
5670,-22,118,-223,136,4,-22
5675,-19,113,-220,132,3,-21
5680,-23,111,-226,130,0,-18
5685,-19,113,-219,130,-4,-17
5690,-20,115,-225,132,-7,-19
5695,-23,115,-219,134,-11,-18
5700,-19,112,-222,137,-15,-17
5705,-20,115,-220,141,-17,-16
5710,-17,113,-220,144,-20,-18
5715,-17,112,-219,146,-25,-18
5720,-17,117,-222,147,-27,-19
5725,-20,110,-219,146,-28,-20
5730,-21,113,-218,146,-27,-18
5735,-26,107,-218,149,-29,-20
5740,-22,112,-220,153,-33,-24
5745,-25,111,-218,157,-36,-28
5750,-24,116,-216,164,-38,-30
5755,-19,111,-220,173,-38,-33
5760,-21,108,-223,182,-40,-37
5765,-22,112,-224,191,-39,-40
5770,-20,110,-225,197,-37,-41
5775,-22,108,-222,199,-34,-44
5780,-21,114,-222,199,-33,-44
5785,-23,106,-225,198,-31,-47
5790,-23,102,-227,195,-32,-46
5795,-23,111,-225,195,-30,-46
5800,-22,109,-229,194,-28,-44
5805,-25,112,-230,194,-26,-41
5810,-21,110,-227,193,-26,-39
5815,-19,109,-230,193,-24,-35
5820,-24,110,-225,190,-22,-33
5825,-18,111,-225,186,-17,-30
5830,-18,113,-228,181,-13,-24
5835,-20,109,-227,176,-11,-21
5840,-28,114,-228,174,-10,-15
5845,-24,112,-228,172,-7,-13
5850,-21,108,-228,170,-3,-7
5855,-22,112,-228,168,1,-7
5860,-25,109,-223,166,4,-6
5865,-22,109,-227,166,6,-7
5870,-22,110,-231,166,8,-11
5875,-25,111,-223,167,8,-17
5880,-22,107,-230,166,7,-20
5885,-24,105,-229,164,7,-21
5890,-23,107,-230,161,6,-23
5895,-22,102,-229,158,3,-26
5900,-23,109,-229,155,2,-27
5905,-21,107,-225,148,0,-30
5910,-24,110,-225,144,-1,-31
5915,-23,105,-226,143,-1,-33
5920,-20,107,-225,139,-1,-36
5925,-22,106,-225,138,1,-39
5930,-23,104,-231,137,4,-40
5935,-23,107,-223,137,7,-43
5940,-25,109,-224,139,9,-45
5945,-16,101,-226,141,11,-46
5950,-19,101,-230,143,14,-46
5955,-24,106,-228,145,16,-47
5960,-20,103,-228,146,18,-47
5965,-20,104,-227,147,19,-44
5970,-22,105,-227,148,21,-41
5975,-22,103,-229,152,21,-40
5980,-19,105,-227,153,18,-37
5985,-23,106,-228,151,16,-33
5990,-25,109,-232,146,14,-30
5995,-21,110,-229,140,13,-29
6000,-21,107,-226,131,11,-26
6005,-22,105,-230,122,12,-23
6010,-23,109,-231,116,13,-22
6015,-24,107,-231,108,14,-20
6020,-23,105,-229,103,14,-19
6025,-23,106,-231,98,15,-19
6030,-22,104,-227,94,18,-18
6035,-23,107,-230,89,18,-16
6040,-24,104,-226,83,20,-17
6045,-24,105,-229,80,21,-16
6050,-23,107,-227,77,24,-16
6055,-22,104,-230,73,26,-14
6060,-27,102,-231,71,28,-14
6065,-22,103,-224,70,29,-14
6070,-23,105,-226,69,27,-16
6075,-22,103,-226,68,25,-15
6080,-20,102,-224,68,24,-14
6085,-21,103,-225,68,22,-14
6090,-19,104,-225,70,21,-12
6095,-20,104,-227,72,19,-13
6100,-21,103,-227,73,18,-11
6105,-20,106,-227,76,18,-11
6110,-25,107,-231,77,17,-13
6115,-21,102,-231,75,16,-14
6120,-23,105,-229,74,18,-17
6125,-24,107,-233,73,20,-19
6130,-24,105,-231,72,21,-21
6135,-21,104,-228,69,23,-19
6140,-25,105,-231,66,26,-18
6145,-27,105,-230,60,30,-16
6150,-23,105,-228,56,32,-15
6155,-20,105,-230,55,36,-15
6160,-25,104,-231,52,40,-13
6165,-24,107,-229,49,44,-11
6170,-18,103,-224,44,45,-10
6175,-24,104,-228,39,46,-9
6180,-24,105,-230,35,46,-9
6185,-20,101,-226,32,45,-6
6190,-21,106,-225,31,45,-6
6195,-20,104,-226,30,44,-4
6200,-21,105,-224,29,42,-7
6205,-22,108,-227,24,39,-7
6210,-19,108,-225,19,38,-6
6215,-21,109,-222,12,33,-7
6220,-20,103,-226,6,30,-8
6225,-25,110,-226,2,26,-7
6230,-22,104,-223,-2,25,-8
6235,-23,107,-227,-3,24,-9
6240,-20,103,-229,-2,27,-11
6245,-24,105,-224,0,31,-10
6250,-21,104,-228,3,35,-10
6255,-23,105,-226,6,39,-9
6260,-23,106,-231,9,43,-8
6265,-21,103,-231,12,45,-8
6270,-21,105,-229,12,48,-6
6275,-20,104,-226,12,50,-5
6280,-19,103,-230,13,51,-6
6285,-18,104,-229,13,49,-4
6290,-20,106,-228,15,48,-3
6295,-19,104,-224,15,46,-3
6300,-17,101,-224,12,44,-5
6305,-18,106,-228,12,43,-8
6310,-23,107,-225,11,41,-7
6315,-22,107,-229,13,39,-9
6320,-22,102,-225,16,38,-9
6325,-22,104,-226,23,36,-11
6330,-20,101,-228,30,34,-8
6335,-19,105,-230,37,34,-9
6340,-22,107,-229,42,36,-8
6345,-23,107,-227,46,37,-7
6350,-21,109,-229,48,39,-6
6355,-19,105,-230,47,39,-3
6360,-22,107,-228,43,41,-4
6365,-17,104,-225,38,41,-4
6370,-18,106,-228,31,39,-2
6375,-24,108,-227,24,39,-2
6380,-23,109,-231,16,38,0
6385,-25,103,-226,9,37,1
6390,-22,106,-228,4,41,1
6395,-22,104,-225,3,41,1
6400,-22,107,-229,0,43,1
6405,-22,107,-229,0,44,2
6410,-21,106,-230,0,47,2
6415,-21,108,-225,0,49,3
6420,-19,108,-226,0,54,2
6425,-23,106,-227,-1,55,4
6430,-26,112,-225,-3,57,6
6435,-18,105,-226,-3,57,9
6440,-23,113,-230,-4,57,12
6445,-20,109,-227,-3,54,13
6450,-20,109,-228,-2,51,13
6455,-22,109,-227,-3,47,12
6460,-23,110,-225,-3,43,15
6465,-20,108,-228,-5,39,16
6470,-18,110,-225,-6,36,15
6475,-20,107,-232,-10,34,17
6480,-20,113,-224,-13,32,17
6485,-24,109,-225,-14,30,17
6490,-18,109,-224,-17,28,15
6495,-17,106,-223,-20,25,15
6500,-17,107,-227,-21,26,13
6505,-17,105,-229,-22,27,11
6510,-20,108,-228,-22,28,10
6515,-20,110,-222,-23,29,9
6520,-22,111,-224,-22,31,8
6525,-21,109,-231,-20,35,8
6530,-18,110,-225,-18,38,7
6535,-19,105,-222,-16,39,9
6540,-25,113,-221,-15,40,10
6545,-19,110,-222,-14,41,11
6550,-24,107,-221,-16,38,15
6555,-20,107,-225,-15,36,17
6560,-20,108,-224,-14,34,18
6565,-25,112,-224,-14,33,19
6570,-20,105,-223,-11,31,20
6575,-21,108,-226,-7,32,19
6580,-18,106,-225,-4,33,19
6585,-18,110,-223,-2,34,19
6590,-17,110,-226,0,35,19
6595,-18,110,-227,1,38,20
6600,-18,110,-228,3,41,19
6605,-20,108,-219,5,42,20
6610,-16,111,-220,6,41,19
6615,-19,105,-222,8,40,22
6620,-17,109,-224,11,39,20
6625,-20,112,-224,17,35,20
6630,-19,109,-224,21,33,19
6635,-18,111,-221,24,31,19
6640,-18,113,-226,25,32,18
6645,-19,109,-223,25,33,18
6650,-18,111,-224,21,34,17
6655,-20,109,-231,16,36,15
6660,-18,106,-227,11,38,14
6665,-19,112,-227,5,40,11
6670,-19,112,-226,0,43,9
6675,-17,110,-223,-7,44,8
6680,-17,113,-226,-11,45,8
6685,-18,111,-226,-14,45,7
6690,-16,111,-221,-15,47,8
6695,-17,108,-226,-15,46,6
6700,-15,109,-228,-13,47,6
6705,-17,113,-224,-11,48,7
6710,-16,112,-224,-11,50,5
6715,-17,112,-224,-10,50,6
6720,-17,113,-223,-11,50,6
6725,-16,112,-227,-13,48,3
6730,-17,115,-226,-14,48,3
6735,-15,114,-223,-15,49,3
6740,-13,110,-224,-16,48,2
6745,-16,114,-224,-15,49,1
6750,-14,112,-222,-13,48,2
6755,-19,115,-226,-12,49,-1
6760,-16,112,-225,-10,50,-1
6765,-11,109,-226,-8,51,0
6770,-13,111,-225,-6,52,-1
6775,-15,112,-223,-4,54,-2
6780,-15,112,-228,-1,54,-3
6785,-15,113,-224,3,53,-2
6790,-16,114,-227,4,54,-4
6795,-15,114,-227,6,54,-5
6800,-17,111,-222,9,54,-8
6805,-16,112,-227,9,55,-9
6810,-18,113,-225,8,55,-11
6815,-16,110,-226,7,52,-12
6820,-15,114,-221,6,51,-11
6825,-14,110,-222,4,49,-12
6830,-17,115,-224,2,47,-12
6835,-14,114,-222,0,47,-11
6840,-15,116,-221,0,45,-12
6845,-17,113,-225,-2,44,-12
6850,-12,115,-228,-3,43,-11
6855,-17,116,-226,-7,40,-11
6860,-14,112,-230,-9,37,-12
6865,-14,116,-227,-14,36,-10
6870,-16,115,-225,-18,36,-10
6875,-15,113,-228,-22,38,-12
6880,-15,116,-224,-24,39,-15
6885,-15,113,-228,-23,40,-16
6890,-15,115,-228,-21,44,-16
6895,-15,115,-226,-21,45,-17
6900,-14,118,-228,-20,49,-18
6905,-15,117,-227,-19,54,-19
6910,-11,116,-225,-20,58,-18
6915,-15,116,-225,-23,63,-16
6920,-17,113,-226,-26,67,-16
6925,-16,115,-224,-29,70,-15
6930,-14,116,-227,-31,73,-14
6935,-15,115,-223,-33,73,-14
6940,-16,115,-224,-34,74,-13
6945,-12,112,-223,-34,74,-12
6950,-14,116,-221,-31,72,-13
6955,-15,114,-219,-28,70,-13
6960,-15,116,-220,-24,68,-13
6965,-13,114,-218,-18,66,-11
6970,-13,114,-225,-10,64,-12
6975,-15,114,-220,-2,61,-12
6980,-14,112,-225,6,58,-11
6985,-14,116,-219,13,56,-12
6990,-14,114,-222,18,57,-11
6995,-11,119,-224,22,56,-11
7000,-14,116,-221,21,55,-13
7005,-13,116,-222,18,55,-15
7010,-11,117,-229,13,55,-17
7015,-12,116,-224,8,56,-20
7020,-13,117,-222,5,57,-24
7025,-12,112,-217,3,58,-26
7030,-12,116,-222,3,58,-28
7035,-10,116,-222,5,57,-27
7040,-14,118,-229,8,56,-29
7045,-12,119,-223,12,55,-28
7050,-12,117,-221,14,54,-27
7055,-15,118,-222,14,55,-26
7060,-13,118,-224,13,55,-26
7065,-14,116,-222,11,56,-23
7070,-11,117,-225,7,56,-21
7075,-12,117,-220,4,57,-20
7080,-14,117,-224,1,56,-18
7085,-14,117,-217,1,55,-15
7090,-14,118,-221,0,52,-14
7095,-12,117,-223,-2,48,-14
7100,-12,115,-221,-5,44,-11
7105,-14,115,-223,-5,40,-8
7110,-12,118,-223,-5,36,-7
7115,-14,118,-221,-2,34,-6
7120,-13,114,-221,3,34,-6
7125,-12,115,-220,9,35,-5
7130,-8,110,-220,12,37,-5
7135,-15,114,-224,14,40,-5
7140,-11,113,-228,16,41,-7
7145,-11,116,-222,18,43,-6
7150,-11,115,-214,22,44,-8
7155,-13,115,-221,25,44,-8
7160,-13,116,-224,26,43,-9
7165,-12,117,-225,28,44,-9
7170,-9,113,-223,28,44,-9
7175,-12,120,-225,29,45,-9
7180,-12,117,-221,29,46,-9
7185,-11,119,-224,29,46,-7
7190,-9,119,-217,30,47,-6
7195,-8,119,-224,30,45,-5
7200,-7,117,-221,29,44,-3
7205,-5,121,-225,28,45,-4
7210,-14,119,-220,26,46,-3
7215,-10,117,-221,25,45,-4
7220,-12,120,-221,24,45,-4
7225,-11,118,-223,25,45,-2
7230,-12,120,-222,25,44,-1
7235,-12,120,-221,26,42,-3
7240,-7,115,-218,28,42,-2
7245,-13,118,-221,28,42,0
7250,-9,117,-223,29,43,1
7255,-13,120,-219,28,44,3
7260,-12,122,-228,27,44,2
7265,-11,116,-219,28,43,4
7270,-13,120,-220,27,41,5
7275,-10,116,-218,25,39,5
7280,-10,116,-222,23,38,3
7285,-10,120,-221,24,36,3
7290,-10,114,-219,24,35,3
7295,-10,120,-220,24,33,2
7300,-13,119,-223,25,32,3
7305,-14,121,-220,23,34,1
7310,-8,121,-221,21,34,2
7315,-17,119,-219,21,34,1
7320,-10,120,-223,17,33,0
7325,-12,122,-220,16,33,1
7330,-10,120,-223,15,32,0
7335,-10,118,-222,19,32,1
7340,-13,122,-222,22,31,1
7345,-11,118,-224,27,29,0
7350,-11,118,-219,31,27,-1
7355,-11,122,-224,34,24,0
7360,-12,119,-221,35,23,0
7365,-10,118,-219,37,21,0
7370,-10,118,-220,39,20,-1
7375,-8,120,-224,39,18,-2
7380,-8,121,-225,37,18,-3
7385,-12,121,-224,33,17,-5
7390,-13,120,-222,30,18,-5
7395,-10,123,-214,27,18,-7
7400,-6,121,-222,28,19,-7
7405,-12,119,-215,28,20,-9
7410,-13,120,-218,30,21,-10
7415,-4,120,-219,32,20,-9
7420,-14,125,-221,36,19,-11
7425,-10,118,-219,40,17,-11
7430,-9,119,-221,45,17,-10
7435,-12,123,-222,48,17,-9
7440,-11,121,-224,48,18,-8
7445,-10,122,-218,50,20,-7
7450,-4,123,-221,48,24,-5
7455,-9,121,-222,45,26,-4
7460,-9,124,-222,42,28,-4
7465,-8,120,-227,39,31,-5
7470,-10,119,-219,37,31,-4
7475,-5,119,-217,35,30,-7
7480,-7,122,-220,35,28,-7
7485,-8,118,-219,36,26,-8
7490,-12,122,-221,37,22,-9
7495,-11,121,-218,38,20,-9
7500,-9,122,-217,37,17,-12
7505,-9,118,-214,36,16,-12
7510,-8,119,-217,35,14,-15
7515,-7,120,-219,36,13,-16
7520,-11,123,-216,35,11,-17
7525,-9,119,-219,34,11,-19
7530,-10,118,-223,33,11,-19
7535,-9,122,-218,33,11,-18
7540,-10,122,-221,34,12,-15
7545,-8,122,-219,37,13,-15
7550,-8,122,-216,40,15,-14
7555,-10,121,-218,43,17,-12
7560,-11,122,-219,46,18,-13
7565,-6,124,-220,50,17,-12
7570,-12,119,-224,53,16,-13
7575,-6,122,-217,58,15,-11
7580,-10,120,-217,62,14,-11
7585,-6,123,-223,64,11,-12
7590,-7,121,-223,66,9,-13
7595,-6,119,-218,67,5,-15
7600,-8,119,-218,67,3,-16
7605,-7,122,-218,66,0,-18
7610,-9,121,-220,66,0,-19
7615,-8,121,-220,64,1,-19
7620,-9,126,-216,62,3,-19
7625,-8,122,-220,57,4,-15
7630,-8,121,-216,53,7,-14
7635,-11,123,-220,51,10,-12
7640,-7,117,-212,48,13,-9
7645,-8,121,-218,50,17,-7
7650,-9,123,-218,53,17,-6
7655,-5,124,-218,59,16,-7
7660,-9,124,-223,65,12,-9
7665,-7,121,-221,68,6,-11
7670,-6,124,-218,69,-1,-14
7675,-6,123,-216,70,-7,-19
7680,-9,122,-222,70,-13,-23
7685,-9,121,-224,70,-19,-25
7690,-6,122,-219,71,-24,-27
7695,-13,118,-222,74,-25,-26
7700,-10,123,-222,77,-25,-26
7705,-11,122,-219,80,-24,-25
7710,-11,121,-221,82,-23,-23
7715,-12,122,-220,81,-23,-21
7720,-8,118,-220,80,-18,-19
7725,-11,121,-223,79,-17,-18
7730,-10,122,-219,77,-14,-19
7735,-18,123,-222,75,-12,-19
7740,-9,121,-220,75,-10,-16
7745,-10,119,-224,75,-11,-16
7750,-17,119,-220,77,-9,-17
7755,-13,118,-224,76,-9,-17
7760,-9,120,-223,76,-10,-17
7765,-11,120,-221,77,-10,-18
7770,-11,123,-220,77,-11,-17
7775,-12,121,-218,78,-11,-18
7780,-9,118,-220,83,-15,-21
7785,-12,119,-221,87,-19,-23
7790,-12,120,-222,93,-22,-25
7795,-11,120,-221,100,-27,-27
7800,-12,121,-216,103,-30,-28
7805,-14,118,-223,108,-35,-29
7810,-10,117,-220,111,-36,-31
7815,-13,119,-221,117,-38,-31
7820,-10,121,-225,121,-36,-32
7825,-11,121,-222,125,-37,-32
7830,-11,122,-221,127,-36,-30
7835,-13,119,-226,127,-34,-30
7840,-12,117,-219,128,-31,-30
7845,-11,117,-220,128,-29,-30
7850,-15,120,-229,128,-26,-29
7855,-15,116,-217,128,-24,-27
7860,-9,119,-223,128,-21,-25
7865,-13,117,-223,128,-19,-21
7870,-13,117,-224,125,-16,-17
7875,-13,117,-220,124,-14,-15
7880,-13,121,-225,121,-9,-13
7885,-12,118,-220,119,-8,-10
7890,-15,118,-224,118,-6,-9
7895,-12,118,-218,117,-6,-8
7900,-17,120,-217,118,-9,-7
7905,-12,121,-217,116,-11,-7
7910,-10,116,-203,117,-16,-8
7915,-15,119,-222,116,-20,-10
7920,-13,118,-223,115,-26,-13
7925,-12,119,-222,114,-31,-14
7930,-13,120,-221,115,-34,-15
7935,-13,118,-220,117,-37,-20
7940,-15,119,-224,118,-40,-24
7945,-10,119,-224,118,-41,-27
7950,-14,120,-226,119,-42,-30
7955,-13,119,-224,120,-42,-30
7960,-7,115,-224,120,-41,-31
7965,-9,121,-228,118,-39,-29
7970,-12,121,-228,114,-37,-27
7975,-13,118,-223,109,-33,-25
7980,-13,119,-224,103,-32,-23
7985,-13,117,-222,99,-27,-21
7990,-12,118,-227,96,-25,-17
7995,-13,115,-221,93,-21,-15
8000,-10,112,-226,91,-20,-12
8005,-16,112,-220,91,-21,-10
8010,-12,112,-224,91,-19,-9
8015,-11,115,-217,91,-18,-9
8020,-16,112,-223,92,-20,-10
8025,-15,116,-219,94,-21,-11
8030,-14,113,-222,95,-23,-11
8035,-13,114,-216,98,-26,-14
8040,-16,115,-220,104,-29,-16
8045,-14,110,-221,108,-33,-19
8050,-16,112,-221,116,-38,-21
8055,-14,111,-222,122,-44,-25
8060,-14,112,-219,130,-50,-26
8065,-19,113,-220,139,-58,-31
8070,-18,114,-222,148,-65,-32
8075,-19,107,-218,157,-69,-35
8080,-18,111,-224,168,-75,-37
8085,-17,108,-225,180,-79,-37
8090,-18,111,-228,197,-83,-39
8095,-19,108,-225,214,-85,-36
8100,-21,110,-224,233,-90,-33
8105,-18,110,-227,252,-97,-30
8110,-21,107,-226,268,-102,-26
8115,-20,106,-224,280,-109,-25
8120,-19,103,-226,292,-116,-22
8125,-21,101,-228,300,-125,-21
8130,-20,104,-232,308,-134,-23
8135,-20,106,-230,318,-141,-23
8140,-18,104,-234,329,-150,-27
8145,-18,108,-237,341,-157,-28
8150,-17,107,-237,348,-161,-29
8155,-21,108,-241,352,-163,-34
8160,-19,104,-239,351,-161,-36
8165,-19,106,-246,353,-157,-41
8170,-17,102,-241,361,-152,-41
8175,-17,102,-245,377,-144,-43
8180,-21,103,-243,399,-138,-38
8185,-25,105,-246,424,-129,-33
8190,-21,107,-243,452,-119,-24
8195,-21,107,-245,479,-108,-12
8200,-18,102,-247,500,-99,-2
8205,-22,104,-244,510,-87,11
8210,-25,101,-245,518,-74,16
8215,-23,101,-246,528,-59,20
8220,-23,97,-243,546,-43,22
8225,-24,95,-243,570,-32,24
8230,-22,97,-246,595,-23,23
8235,-19,89,-237,616,-14,21
8240,-22,101,-246,634,-6,13
8245,-22,89,-246,648,1,2
8250,-19,89,-251,661,8,-11
8255,-24,86,-245,681,14,-22
8260,-19,85,-248,705,21,-32
8265,-23,84,-248,733,28,-41
8270,-23,80,-247,763,35,-52
8275,-27,78,-248,794,40,-61
8280,-28,77,-244,829,44,-68
8285,-27,71,-244,869,49,-75
8290,-26,73,-245,912,51,-83
8295,-29,75,-248,957,54,-88
8300,-30,72,-247,1000,57,-89
8305,-31,67,-252,1044,60,-92
8310,-31,71,-257,1090,60,-97
8315,-29,70,-257,1139,61,-99
8320,-28,67,-259,1185,60,-101
8325,-27,66,-263,1225,59,-104
8330,-25,65,-260,1253,58,-108
8335,-23,65,-262,1271,59,-107
8340,-22,67,-264,1285,57,-110
8345,-22,63,-263,1293,52,-113
8350,-16,64,-261,1299,49,-110
8355,-16,63,-259,1302,46,-110
8360,-13,60,-259,1309,44,-113
8365,-14,59,-260,1324,43,-117
8370,-14,61,-258,1347,42,-125
8375,-11,56,-262,1372,44,-129
8380,-10,50,-264,1394,46,-138
8385,-14,51,-256,1413,50,-146
8390,-15,50,-258,1429,53,-153
8395,-17,44,-259,1444,57,-155
8400,-20,39,-260,1453,57,-157
8405,-17,39,-258,1458,59,-159
8410,-16,36,-257,1462,60,-157
8415,-13,36,-258,1461,63,-156
8420,-15,35,-260,1457,62,-156
8425,-16,30,-262,1454,68,-157
8430,-18,32,-262,1450,79,-154
8435,-15,25,-261,1443,89,-153
8440,-18,25,-259,1437,101,-152
8445,-17,23,-259,1432,112,-152
8450,-21,18,-261,1427,119,-154
8455,-18,17,-259,1420,125,-155
8460,-20,16,-259,1413,133,-155
8465,-17,11,-258,1406,138,-153
8470,-17,12,-258,1400,141,-151
8475,-18,13,-261,1393,141,-150
8480,-18,9,-259,1388,141,-152
8485,-19,8,-259,1383,139,-155
8490,-20,4,-256,1373,135,-155
8495,-21,2,-256,1359,128,-152
8500,-22,3,-258,1342,120,-145
8505,-19,2,-256,1323,113,-136
8510,-24,1,-255,1302,103,-129
8515,-23,0,-256,1284,92,-119
8520,-24,0,-257,1265,82,-108
8525,-24,-2,-258,1246,74,-94
8530,-22,-2,-257,1226,66,-83
8535,-22,-4,-256,1205,57,-76
8540,-17,-6,-257,1181,51,-64
8545,-20,-7,-262,1154,45,-51
8550,-22,-8,-257,1128,37,-37
8555,-21,-8,-255,1106,29,-25
8560,-20,-9,-258,1082,21,-16
8565,-16,-12,-255,1062,13,-8
8570,-17,-15,-255,1045,8,-2
8575,-13,-17,-255,1025,6,8
8580,-10,-18,-256,1003,11,15
8585,-11,-19,-249,980,18,18
8590,-13,-20,-253,958,28,21
8595,-18,-24,-251,937,39,25
8600,-14,-23,-254,917,48,27
8605,-14,-30,-254,900,57,32
8610,-18,-31,-254,883,66,36
8615,-12,-30,-252,865,74,38
8620,-16,-34,-246,853,82,40
8625,-14,-34,-250,844,90,43
8630,-11,-37,-246,837,97,43
8635,-16,-40,-248,833,105,43
8640,-14,-42,-248,831,111,44
8645,-10,-44,-243,830,118,46
8650,-17,-45,-249,831,124,45
8655,-14,-52,-248,834,134,47
8660,-17,-55,-251,837,143,49
8665,-18,-55,-249,843,150,51
8670,-21,-55,-249,852,154,57
8675,-21,-58,-248,861,157,64
8680,-20,-56,-244,872,159,73
8685,-19,-59,-246,885,158,79
8690,-21,-60,-241,898,157,82
8695,-21,-59,-245,912,157,90
8700,-22,-62,-241,926,155,97
8705,-21,-63,-248,940,151,104
8710,-14,-64,-244,953,148,105
8715,-16,-68,-243,967,144,109
8720,-14,-67,-241,980,143,113
8725,-21,-71,-244,991,143,112
8730,-11,-70,-244,1001,142,109
8735,-11,-73,-243,1012,140,109
8740,-8,-72,-240,1020,138,106
8745,-4,-74,-245,1024,134,104
8750,-10,-75,-241,1025,129,99
8755,-7,-77,-245,1024,125,95
8760,-3,-81,-240,1023,123,93
8765,-5,-82,-244,1021,123,89
8770,-6,-85,-239,1017,127,83
8775,-9,-83,-239,1015,131,82
8780,-8,-87,-237,1015,136,76
8785,-9,-93,-235,1015,141,69
8790,-10,-89,-236,1021,145,66
8795,-11,-92,-234,1029,151,66
8800,-11,-93,-232,1037,155,66
8805,-8,-97,-230,1045,161,69
8810,-14,-95,-230,1053,167,71
8815,-13,-94,-232,1064,172,77
8820,-12,-92,-233,1076,178,82
8825,-6,-98,-229,1085,181,86
8830,-13,-96,-223,1093,184,89
8835,-14,-97,-228,1101,185,91
8840,-14,-95,-225,1110,184,95
8845,-16,-95,-225,1115,182,100
8850,-12,-98,-221,1123,176,100
8855,-15,-100,-220,1124,170,102
8860,-16,-97,-225,1121,164,108
8865,-16,-100,-220,1118,158,113
8870,-19,-98,-219,1113,152,110
8875,-21,-102,-223,1105,143,106
8880,-20,-107,-221,1099,134,104
8885,-18,-106,-219,1096,128,103
8890,-18,-108,-223,1094,125,101
8895,-23,-110,-219,1096,122,99
8900,-20,-108,-224,1103,119,97
8905,-19,-116,-218,1112,118,96
8910,-17,-113,-226,1121,116,89
8915,-16,-119,-218,1132,114,81
8920,-19,-121,-220,1151,115,77
8925,-14,-121,-225,1167,114,73
8930,-11,-126,-217,1180,117,68
8935,-12,-131,-223,1193,121,61
8940,-7,-133,-219,1204,122,47
8945,-5,-134,-217,1216,120,31
8950,-3,-139,-215,1225,120,28
8955,-4,-136,-214,1226,124,27
8960,0,-141,-217,1225,129,22
8965,-1,-137,-207,1220,134,14
8970,-5,-142,-208,1208,135,-2
8975,0,-145,-204,1204,132,-10
8980,1,-142,-203,1203,129,-17
8985,1,-141,-205,1203,123,-25
8990,-1,-144,-205,1202,118,-32
8995,0,-141,-204,1204,112,-38
9000,0,-143,-201,1208,104,-44
9005,0,-141,-195,1207,100,-49
9010,0,-141,-193,1206,96,-58
9015,-2,-137,-193,1205,93,-61
9020,0,-140,-194,1201,93,-65
9025,-4,-139,-193,1191,94,-71
9030,-1,-141,-192,1178,96,-73
9035,-1,-138,-193,1165,98,-71
9040,-2,-140,-190,1152,102,-69
9045,-3,-140,-193,1136,103,-69
9050,-7,-136,-190,1120,103,-69
9055,-8,-138,-192,1105,102,-67
9060,-8,-138,-189,1091,101,-65
9065,-9,-139,-184,1078,100,-64
9070,-9,-139,-189,1064,97,-61
9075,-9,-136,-187,1054,94,-57
9080,-6,-138,-188,1041,91,-58
9085,-7,-140,-184,1033,90,-60
9090,-6,-144,-186,1028,89,-61
9095,-8,-145,-189,1022,92,-64
9100,-6,-150,-191,1018,92,-68
9105,-6,-153,-188,1015,94,-73
9110,-4,-155,-186,1010,97,-79
9115,-4,-157,-185,1005,100,-86
9120,-3,-161,-185,1001,99,-92
9125,-5,-162,-183,997,102,-99
9130,-3,-167,-180,995,106,-111
9135,-3,-168,-180,999,108,-131
9140,-8,-168,-176,1008,109,-142
9145,-4,-174,-176,1017,107,-146
9150,-9,-175,-178,1026,103,-150
9155,1,-172,-172,1033,95,-161
9160,1,-172,-168,1035,87,-159
9165,1,-176,-170,1028,79,-157
9170,1,-175,-168,1017,75,-154
9175,1,-176,-166,1002,70,-151
9180,0,-179,-165,982,63,-153
9185,0,-178,-160,962,51,-153
9190,0,-179,-156,944,40,-152
9195,-1,-180,-156,927,29,-149
9200,-2,-177,-158,910,17,-146
9205,-2,-174,-157,897,6,-141
9210,1,-181,-153,888,-4,-135
9215,0,-181,-160,883,-10,-128
9220,1,-185,-157,882,-15,-127
9225,1,-180,-157,883,-21,-129
9230,3,-183,-154,887,-25,-128
9235,4,-180,-158,893,-28,-122
9240,7,-182,-161,895,-28,-116
9245,6,-182,-159,889,-28,-112
9250,7,-179,-159,885,-24,-112
9255,8,-181,-162,880,-14,-119
9260,2,-179,-159,872,-6,-125
9265,3,-180,-164,859,6,-122
9270,10,-179,-167,846,20,-126
9275,10,-180,-161,829,40,-126
9280,10,-177,-163,808,62,-120
9285,8,-181,-161,783,82,-120
9290,12,-183,-165,757,101,-128
9295,11,-182,-162,729,116,-127
9300,16,-184,-160,701,126,-122
9305,14,-188,-158,677,135,-122
9310,12,-192,-159,654,138,-122
9315,12,-190,-160,633,139,-122
9320,12,-194,-153,617,136,-122
9325,13,-198,-146,610,130,-130
9330,10,-197,-151,602,125,-129
9335,13,-199,-148,601,121,-133
9340,10,-202,-144,607,122,-140
9345,15,-204,-142,622,124,-148
9350,13,-205,-143,642,128,-155
9355,15,-209,-141,668,132,-164
9360,9,-205,-140,693,138,-176
9365,15,-208,-132,723,143,-183
9370,12,-211,-138,754,152,-184
9375,12,-207,-132,777,163,-181
9380,9,-205,-133,796,169,-180
9385,12,-203,-129,812,170,-180
9390,12,-206,-127,832,168,-183
9395,13,-208,-129,847,160,-183
9400,12,-203,-124,851,149,-175
9405,13,-202,-126,849,136,-162
9410,19,-201,-123,833,129,-147
9415,20,-200,-122,813,129,-142
9420,15,-200,-123,786,131,-142
9425,14,-195,-120,757,130,-148
9430,15,-199,-120,729,124,-149
9435,14,-198,-120,706,120,-145
9440,14,-195,-116,687,117,-142
9445,15,-195,-119,672,119,-137
9450,16,-197,-119,662,125,-131
9455,14,-197,-114,656,132,-133
9460,13,-194,-113,661,141,-139
9465,15,-199,-113,671,149,-141
9470,12,-197,-115,684,155,-140
9475,18,-198,-106,699,157,-142
9480,14,-197,-103,711,159,-143
9485,14,-194,-111,722,160,-144
9490,15,-194,-109,729,159,-140
9495,16,-195,-105,730,156,-137
9500,15,-198,-108,726,154,-132
9505,14,-198,-109,718,149,-129
9510,15,-196,-110,701,144,-129
9515,16,-201,-108,680,138,-127
9520,15,-204,-106,657,131,-123
9525,13,-205,-111,633,125,-118
9530,11,-208,-110,612,118,-119
9535,9,-209,-99,596,109,-126
9540,8,-205,-106,580,99,-131
9545,11,-209,-107,564,89,-133
9550,7,-207,-104,550,81,-140
9555,8,-208,-103,536,72,-137
9560,9,-211,-106,524,65,-134
9565,7,-211,-107,515,58,-133
9570,9,-215,-98,505,49,-134
9575,6,-218,-103,496,39,-132
9580,7,-216,-100,490,31,-130
9585,8,-219,-97,492,22,-133
9590,9,-222,-97,496,15,-135
9595,10,-222,-97,502,11,-135
9600,12,-227,-96,508,8,-133
9605,11,-227,-95,513,8,-132
9610,12,-224,-96,519,7,-129
9615,13,-224,-97,521,6,-125
9620,14,-224,-96,523,6,-124
9625,17,-224,-96,522,4,-121
9630,18,-226,-99,517,3,-120
9635,19,-221,-92,511,1,-121
9640,20,-223,-89,503,0,-120
9645,21,-221,-93,494,-2,-121
9650,21,-221,-96,485,-4,-120
9655,22,-222,-91,475,-6,-123
9660,20,-219,-88,465,-8,-126
9665,21,-222,-87,456,-10,-124
9670,19,-223,-84,447,-16,-124
9675,18,-224,-84,437,-23,-124
9680,18,-220,-84,429,-32,-119
9685,17,-221,-79,421,-40,-110
9690,16,-222,-83,413,-46,-101
9695,13,-222,-83,404,-53,-91
9700,20,-222,-80,395,-57,-83
9705,19,-221,-79,383,-60,-79
9710,21,-223,-79,371,-63,-73
9715,22,-225,-76,364,-66,-66
9720,18,-220,-77,358,-72,-61
9725,20,-224,-79,355,-77,-57
9730,16,-223,-74,353,-85,-52
9735,20,-224,-82,354,-93,-47
9740,17,-223,-78,355,-101,-41
9745,19,-227,-77,357,-108,-42
9750,13,-228,-79,358,-114,-43
9755,18,-227,-77,357,-117,-49
9760,15,-225,-81,354,-119,-51
9765,17,-230,-80,349,-119,-55
9770,20,-233,-79,345,-118,-59
9775,17,-234,-79,341,-115,-65
9780,14,-229,-74,339,-114,-69
9785,16,-233,-78,336,-113,-75
9790,18,-237,-80,336,-108,-79
9795,18,-238,-74,339,-102,-80
9800,18,-237,-82,343,-98,-84
9805,19,-229,-74,349,-95,-86
9810,21,-234,-75,357,-94,-88
9815,20,-239,-78,368,-94,-91
9820,21,-236,-78,385,-94,-95
9825,22,-238,-78,403,-98,-96
9830,23,-237,-76,415,-101,-90
9835,25,-235,-75,425,-103,-87
9840,28,-233,-73,434,-109,-84
9845,30,-230,-76,442,-114,-84
9850,24,-234,-77,445,-119,-86
9855,23,-231,-74,447,-126,-84
9860,23,-232,-69,446,-134,-85
9865,24,-230,-71,447,-141,-89
9870,25,-229,-70,441,-148,-84
9875,25,-233,-67,430,-149,-78
9880,24,-231,-69,412,-150,-70
9885,26,-234,-70,396,-146,-67
9890,26,-230,-70,376,-144,-64
9895,26,-230,-72,355,-141,-59
9900,27,-233,-74,335,-135,-56
9905,26,-227,-72,316,-129,-54
9910,21,-232,-74,300,-121,-50
9915,26,-230,-70,284,-112,-49
9920,26,-233,-69,269,-105,-50
9925,23,-232,-67,257,-97,-49
9930,21,-231,-70,249,-92,-48
9935,23,-231,-66,242,-86,-49
9940,19,-228,-66,238,-82,-49
9945,21,-229,-64,236,-82,-48
9950,20,-230,-64,236,-84,-50
9955,21,-232,-65,237,-85,-49
9960,22,-231,-63,238,-88,-48
9965,28,-230,-63,240,-90,-48
9970,27,-242,-60,244,-93,-46
9975,22,-235,-63,251,-97,-45
9980,27,-236,-62,258,-96,-43
9985,26,-238,-62,267,-98,-40
9990,23,-238,-63,278,-99,-38
9995,25,-238,-61,288,-97,-36
10000,28,-241,-63,302,-99,-33
10005,28,-242,-60,311,-97,-30
10010,26,-242,-60,319,-95,-28
10015,28,-245,-61,325,-94,-26
10020,22,-240,-61,327,-93,-22
10025,24,-246,-63,326,-92,-21
10030,27,-243,-63,322,-91,-22
10035,27,-240,-59,319,-90,-21
10040,28,-243,-60,316,-88,-18
10045,28,-244,-61,315,-88,-18
10050,31,-245,-61,316,-85,-17
10055,28,-241,-57,321,-81,-13
10060,29,-244,-52,325,-74,-11
10065,30,-244,-54,328,-69,-10
10070,22,-239,-56,332,-66,-10
10075,22,-237,-55,334,-63,-12
10080,18,-240,-52,334,-62,-12
10085,23,-242,-53,331,-63,-15
10090,23,-244,-54,324,-62,-16
10095,22,-240,-52,313,-59,-17
10100,20,-236,-55,303,-60,-16
10105,22,-237,-51,292,-60,-15
10110,20,-237,-52,280,-62,-14
10115,19,-235,-50,272,-64,-11
10120,20,-238,-51,262,-67,-9
10125,14,-235,-48,254,-73,-8
10130,24,-236,-51,248,-79,-5
10135,15,-235,-45,239,-85,-3
10140,18,-236,-44,230,-90,-3
10145,20,-236,-44,220,-95,-3
10150,22,-236,-46,210,-98,-3
10155,20,-240,-46,199,-99,-5
10160,21,-240,-48,185,-98,-5
10165,19,-238,-47,172,-97,-8
10170,24,-243,-47,162,-94,-9
10175,25,-241,-48,153,-91,-9
10180,20,-241,-48,149,-86,-12
10185,22,-244,-42,150,-79,-13
10190,27,-245,-46,156,-72,-17
10195,20,-246,-42,166,-64,-18
10200,22,-248,-45,180,-59,-21
10205,23,-247,-43,194,-52,-24
10210,21,-249,-45,209,-47,-27
10215,23,-251,-47,226,-42,-31
10220,22,-249,-44,240,-37,-34
10225,21,-246,-41,251,-34,-35
10230,22,-247,-42,258,-31,-38
10235,23,-244,-44,260,-31,-39
10240,25,-245,-39,254,-31,-41
10245,21,-241,-44,243,-33,-42
10250,20,-241,-50,228,-35,-42
10255,25,-241,-45,211,-38,-44
10260,22,-242,-45,194,-42,-44
10265,23,-240,-47,177,-43,-43
10270,23,-241,-42,160,-43,-39
10275,21,-242,-41,148,-43,-36
10280,21,-239,-46,138,-40,-35
10285,22,-238,-47,131,-38,-32
10290,23,-241,-42,126,-36,-28
10295,23,-242,-38,126,-35,-26
10300,21,-243,-40,126,-37,-24
10305,23,-243,-39,126,-39,-22
10310,22,-242,-40,126,-41,-20
10315,26,-245,-37,125,-42,-18
10320,25,-245,-40,124,-42,-18
10325,24,-244,-37,123,-44,-15
10330,25,-244,-41,124,-46,-14
10335,24,-245,-37,123,-47,-14
10340,22,-248,-38,126,-46,-13
10345,22,-252,-38,130,-46,-14
10350,25,-248,-33,137,-45,-14
10355,22,-248,-34,144,-42,-16
10360,22,-248,-34,154,-37,-17
10365,23,-247,-34,165,-33,-20
10370,24,-248,-35,176,-27,-21
10375,24,-248,-35,188,-23,-26
10380,20,-246,-35,196,-21,-28
10385,26,-247,-37,203,-18,-30
10390,23,-241,-36,204,-17,-31
10395,17,-243,-35,203,-16,-35
10400,23,-238,-33,197,-17,-35
10405,24,-243,-35,185,-19,-33
10410,22,-242,-37,172,-23,-31
10415,21,-239,-38,156,-28,-30
10420,22,-242,-37,137,-33,-27
10425,24,-239,-38,119,-37,-25
10430,23,-238,-37,100,-41,-23
10435,20,-243,-36,84,-42,-20
10440,22,-240,-39,70,-43,-16
10445,20,-244,-36,60,-44,-15
10450,18,-240,-37,54,-43,-15
10455,17,-245,-39,51,-43,-9
10460,22,-243,-32,51,-43,-9
10465,20,-244,-35,54,-43,-6
10470,19,-245,-36,61,-44,-3
10475,20,-244,-31,69,-47,0
10480,21,-242,-34,78,-49,2
10485,19,-242,-31,88,-52,4
10490,20,-244,-29,95,-56,4
10495,18,-243,-36,102,-58,3
10500,21,-245,-38,107,-60,5
10505,19,-247,-31,111,-63,5
10510,20,-243,-33,109,-65,6
10515,20,-242,-36,106,-65,4
10520,19,-242,-35,101,-64,3
10525,20,-247,-37,95,-61,2
10530,17,-243,-30,90,-63,0
10535,18,-246,-35,83,-62,1
10540,21,-247,-35,81,-63,2
10545,21,-247,-40,82,-63,1
10550,19,-251,-32,85,-63,3
10555,20,-248,-32,90,-64,1
10560,22,-249,-29,98,-64,2
10565,18,-246,-35,106,-65,1
10570,19,-249,-33,115,-66,1
10575,19,-248,-36,123,-66,-1
10580,22,-246,-34,129,-64,-3
10585,19,-246,-35,133,-64,-5
10590,19,-247,-41,134,-62,-8
10595,17,-245,-38,135,-61,-10
10600,20,-243,-38,135,-60,-11
10605,20,-244,-36,135,-58,-14
10610,19,-246,-37,136,-58,-14
10615,25,-244,-29,138,-60,-14
10620,22,-247,-39,141,-61,-13
10625,19,-244,-33,149,-61,-13
10630,19,-247,-24,157,-63,-11
10635,23,-246,-32,168,-66,-7
10640,22,-245,-26,179,-69,-7
10645,23,-245,-29,191,-73,-3
10650,24,-245,-29,201,-75,-1
10655,18,-240,-30,208,-79,2
10660,19,-242,-27,211,-82,3
10665,26,-246,-27,211,-83,4
10670,21,-242,-28,210,-85,4
10675,24,-246,-24,205,-85,3
10680,20,-240,-33,199,-84,0
10685,25,-242,-31,188,-85,-4
10690,22,-243,-28,177,-84,-9
10695,24,-239,-34,163,-81,-12
10700,21,-244,-38,149,-79,-12
10705,23,-247,-36,132,-78,-12
10710,25,-245,-33,117,-78,-11
10715,23,-250,-36,101,-81,-10
10720,24,-249,-33,86,-83,-8
10725,16,-247,-41,75,-84,-7
10730,21,-253,-35,68,-86,-6
10735,25,-253,-35,63,-85,-4
10740,23,-255,-35,61,-82,-3
10745,25,-251,-36,61,-76,-4
10750,24,-253,-38,64,-69,-7
10755,21,-254,-39,68,-62,-10
10760,21,-254,-41,73,-55,-13
10765,21,-254,-39,78,-49,-16
10770,20,-252,-35,83,-42,-18
10775,21,-253,-38,88,-35,-18
10780,18,-245,-38,91,-26,-20
10785,19,-247,-36,95,-19,-20
10790,22,-250,-36,99,-10,-20
10795,20,-249,-33,103,-4,-20
10800,21,-246,-33,109,4,-18
10805,18,-246,-32,114,9,-16
10810,19,-242,-34,118,13,-14
10815,19,-245,-33,121,16,-13
10820,17,-244,-34,122,16,-12
10825,17,-238,-31,119,14,-10
10830,17,-241,-32,112,11,-9
10835,17,-244,-28,103,9,-8
10840,17,-240,-34,91,7,-9
10845,19,-239,-32,79,4,-9
10850,17,-241,-33,66,3,-8
10855,20,-239,-32,51,1,-9
10860,18,-241,-33,37,2,-9
10865,19,-242,-31,27,1,-8
10870,21,-243,-33,19,1,-9
10875,19,-241,-34,13,3,-9
10880,23,-243,-36,10,3,-8
10885,20,-247,-34,9,2,-9
10890,20,-242,-40,11,3,-7
10895,23,-245,-32,13,1,-10
10900,20,-242,-33,14,0,-10
10905,22,-243,-31,15,-1,-9
10910,23,-248,-30,15,-2,-10
10915,20,-244,-32,14,0,-11
10920,24,-247,-33,10,1,-14
10925,19,-246,-35,6,3,-16
10930,17,-244,-33,1,4,-16
10935,20,-247,-35,-4,4,-16
10940,25,-242,-36,-10,5,-18
10945,19,-244,-40,-14,5,-19
10950,19,-249,-36,-17,6,-21
10955,17,-246,-36,-16,4,-19
10960,19,-245,-37,-13,4,-17
10965,18,-248,-33,-9,3,-16
10970,19,-250,-35,-5,2,-15
10975,21,-245,-34,3,1,-13
10980,20,-247,-35,11,4,-12
10985,18,-244,-38,18,1,-10
10990,23,-248,-33,24,0,-10
10995,21,-248,-37,28,0,-10
11000,21,-245,-37,28,1,-7
11005,20,-245,-35,27,2,-7
11010,23,-243,-34,26,4,-5
11015,20,-242,-37,23,6,-5
11020,23,-247,-33,22,9,-3
11025,23,-246,-35,24,12,-2
11030,19,-241,-32,26,16,0
11035,21,-243,-38,29,17,0
11040,18,-243,-35,30,19,1
11045,24,-248,-40,35,19,1
11050,21,-244,-38,37,18,0
11055,21,-244,-33,39,17,-2
11060,20,-244,-37,41,16,-3
11065,22,-244,-37,38,15,-4
11070,24,-243,-39,36,14,-6
11075,24,-244,-35,32,13,-8
11080,19,-243,-37,30,14,-8
11085,20,-241,-38,26,16,-7
11090,20,-242,-39,22,17,-7
11095,19,-245,-37,18,17,-8
11100,20,-243,-38,16,17,-7
11105,18,-249,-37,13,17,-5
11110,20,-242,-37,12,14,-5
11115,18,-244,-33,11,13,-2
11120,18,-244,-33,9,10,-3
11125,18,-241,-38,7,9,1
11130,18,-244,-35,6,6,-1
11135,19,-246,-39,5,2,-1
11140,20,-245,-36,4,2,-2
11145,17,-243,-40,3,2,-3
11150,17,-246,-39,3,2,-1
11155,15,-243,-39,2,3,-1
11160,18,-242,-42,2,4,1
11165,17,-242,-38,5,4,1
11170,21,-245,-38,7,6,1
11175,19,-244,-35,11,6,1
11180,20,-244,-36,13,8,2
11185,22,-247,-39,17,9,4
11190,22,-247,-34,19,10,5
11195,14,-242,-39,20,11,4
11200,16,-244,-34,20,11,4
11205,22,-246,-36,18,12,4
11210,16,-240,-41,19,12,3
11215,21,-245,-37,16,13,2
11220,20,-246,-37,14,13,2
11225,21,-247,-38,13,14,2
11230,20,-245,-40,13,15,2
11235,22,-246,-39,14,18,3
11240,19,-244,-39,15,21,3
11245,23,-245,-38,15,21,-1
11250,22,-243,-34,16,20,-1
11255,24,-243,-38,17,19,-2
11260,22,-244,-40,18,16,-2
11265,17,-245,-45,18,13,-3
11270,21,-244,-39,15,10,-3
11275,20,-246,-36,15,5,-5
11280,20,-247,-38,15,4,-4
11285,20,-247,-38,13,3,-6
11290,18,-243,-38,10,1,-6
11295,18,-245,-38,8,0,-7
11300,20,-247,-40,8,-2,-5
11305,19,-246,-35,10,-4,-5
11310,19,-248,-41,10,-5,-4
11315,23,-246,-29,13,-5,-2
11320,22,-247,-37,16,-4,0
11325,19,-247,-38,21,-5,2
11330,19,-244,-40,28,-5,2
11335,18,-243,-37,31,-4,4
11340,18,-245,-41,33,-4,5
11345,18,-242,-38,34,-5,5
11350,18,-245,-40,36,-5,6
11355,14,-239,-38,34,-6,7
11360,17,-245,-38,30,-7,8
11365,21,-243,-37,25,-9,9
11370,27,-239,-45,19,-11,7
11375,20,-244,-34,13,-13,6
11380,16,-244,-36,9,-16,4
11385,17,-243,-32,5,-18,3
11390,20,-246,-40,4,-19,2
11395,20,-247,-37,2,-19,-1
11400,19,-247,-38,5,-20,0
11405,22,-251,-37,9,-21,-1
11410,23,-249,-35,16,-21,-1
11415,20,-244,-35,23,-20,-2
11420,21,-244,-38,32,-21,0
11425,23,-244,-36,40,-20,2
11430,21,-248,-37,49,-23,0
11435,21,-247,-36,56,-24,1
11440,23,-243,-38,61,-25,3
11445,20,-243,-36,63,-26,3
11450,23,-247,-44,63,-29,3
11455,19,-243,-41,59,-31,2
11460,20,-243,-42,50,-33,1
11465,25,-242,-42,39,-31,0
11470,19,-241,-44,26,-32,0
11475,21,-245,-39,12,-32,1
11480,16,-240,-49,-3,-33,-1
11485,18,-243,-46,-15,-32,0
11490,21,-246,-40,-26,-31,3
11495,20,-246,-41,-34,-31,1
11500,19,-246,-42,-37,-31,0
11505,18,-244,-42,-38,-31,1
11510,19,-246,-42,-37,-31,0
11515,18,-245,-37,-32,-29,1
11520,15,-246,-43,-24,-27,0
11525,21,-246,-42,-17,-27,0
11530,16,-243,-41,-9,-27,0
11535,17,-241,-46,-2,-26,-1
11540,16,-246,-44,4,-26,-2
11545,17,-244,-39,7,-27,-2
11550,15,-241,-44,11,-27,-3
11555,19,-246,-41,15,-27,-2
11560,17,-246,-42,18,-27,-3
11565,16,-248,-41,24,-29,-3
11570,16,-245,-39,29,-29,-4
11575,16,-247,-42,34,-28,-5
11580,19,-245,-41,41,-30,-5
11585,20,-247,-31,48,-29,-6
11590,18,-246,-38,57,-29,-5
11595,16,-245,-40,62,-29,-7
11600,18,-246,-39,67,-31,-6
11605,19,-248,-40,69,-32,-7
11610,18,-248,-37,68,-32,-7
11615,18,-245,-41,67,-32,-8
11620,19,-247,-40,66,-33,-9
11625,19,-243,-46,63,-32,-12
11630,17,-248,-45,60,-32,-14
11635,21,-245,-42,59,-31,-11
11640,21,-243,-39,58,-33,-13
11645,18,-245,-47,56,-33,-14
11650,19,-242,-46,56,-33,-14
11655,19,-242,-45,52,-32,-13
11660,18,-246,-45,50,-32,-15
11665,20,-245,-41,47,-28,-13
11670,21,-242,-41,44,-26,-13
11675,17,-243,-42,40,-25,-13
11680,21,-248,-40,39,-24,-13
11685,18,-244,-39,37,-23,-14
11690,18,-248,-40,37,-22,-12
11695,17,-242,-45,36,-20,-13
11700,14,-246,-43,37,-18,-16
11705,15,-243,-41,38,-18,-16
11710,20,-243,-39,38,-18,-16
11715,21,-242,-39,38,-18,-15
11720,16,-244,-41,38,-17,-15
11725,17,-246,-46,35,-19,-16
11730,16,-242,-41,32,-19,-17
11735,19,-242,-46,28,-18,-16
11740,20,-245,-42,22,-18,-18
11745,11,-246,-45,19,-17,-19
11750,16,-245,-42,17,-17,-19
11755,15,-247,-40,14,-15,-19
11760,17,-248,-42,15,-14,-18
11765,17,-244,-43,14,-15,-18
11770,17,-246,-43,17,-15,-16
11775,15,-246,-41,20,-14,-16
11780,21,-248,-45,25,-15,-15
11785,20,-246,-39,27,-15,-16
11790,13,-249,-45,29,-16,-15
11795,18,-248,-38,32,-16,-14
11800,26,-243,-44,33,-16,-13
11805,16,-244,-41,34,-16,-14
11810,17,-245,-44,34,-16,-13
11815,16,-242,-42,32,-15,-13
11820,16,-244,-40,32,-16,-12
11825,17,-243,-45,31,-15,-12
11830,13,-242,-45,29,-15,-12
11835,16,-242,-45,29,-16,-10
11840,14,-246,-40,26,-16,-9
11845,17,-241,-43,26,-17,-9
11850,17,-244,-40,26,-20,-8
11855,12,-243,-41,25,-20,-8
11860,17,-244,-42,26,-21,-6
11865,18,-245,-41,27,-21,-4
11870,18,-247,-43,26,-22,-4
11875,18,-247,-40,29,-23,-2
11880,20,-247,-39,30,-22,-2
11885,18,-247,-40,32,-23,-2
11890,16,-245,-37,34,-23,-3
11895,16,-248,-44,35,-24,-1
11900,15,-244,-43,35,-24,0
11905,14,-249,-50,35,-24,0
11910,18,-245,-46,33,-25,0
11915,17,-245,-47,32,-28,-3
11920,18,-244,-45,31,-30,-2
11925,17,-248,-39,28,-29,-3
11930,18,-245,-45,28,-29,-3
11935,17,-244,-43,29,-28,-2
11940,20,-245,-44,29,-27,-3
11945,16,-247,-41,32,-25,-3
11950,20,-244,-44,34,-23,-4
11955,20,-246,-44,38,-20,-3
11960,18,-247,-45,42,-17,-2
11965,21,-244,-42,44,-14,-1
11970,20,-245,-44,47,-12,0
11975,17,-244,-44,51,-9,0
11980,20,-243,-42,50,-6,0
11985,18,-245,-42,48,-4,1
11990,18,-244,-41,45,-3,0
11995,16,-241,-45,42,-2,-1
12000,15,-244,-42,39,-1,-1
