timestamp,acc_x,acc_y,acc_z,gyro_x,gyro_y,gyro_z
0,4,-250,-68,-20,69,-8
5,4,-251,-69,-22,70,-7
10,4,-254,-72,-23,70,-8
15,4,-250,-72,-26,70,-6
20,4,-249,-72,-26,70,-6
25,-1,-250,-70,-28,70,-7
30,5,-249,-74,-27,68,-7
35,5,-251,-73,-25,69,-6
40,4,-252,-72,-25,67,-5
45,5,-253,-71,-26,68,-3
50,2,-246,-70,-24,66,-4
55,3,-250,-71,-23,66,-4
60,4,-250,-70,-24,66,-4
65,4,-251,-69,-26,65,-4
70,4,-249,-71,-26,65,-4
75,5,-248,-71,-27,64,-4
80,2,-251,-68,-28,63,-5
85,4,-250,-70,-29,63,-4
90,4,-249,-70,-31,65,-5
95,4,-253,-76,-32,65,-5
100,4,-250,-69,-31,66,-5
105,5,-251,-75,-32,66,-6
110,4,-250,-70,-32,67,-7
115,4,-248,-71,-28,67,-8
120,2,-250,-70,-26,66,-7
125,4,-251,-73,-25,65,-6
130,4,-253,-76,-23,66,-6
135,5,-251,-77,-23,65,-6
140,3,-251,-70,-24,63,-6
145,4,-251,-71,-23,65,-5
150,4,-250,-73,-23,63,-4
155,3,-251,-70,-22,63,-6
160,3,-252,-69,-24,62,-4
165,4,-249,-73,-24,62,-5
170,3,-251,-73,-23,59,-5
175,5,-252,-71,-26,57,-4
180,2,-250,-76,-28,55,-5
185,4,-253,-73,-32,56,-5
190,4,-249,-71,-34,59,-4
195,4,-253,-72,-36,60,-4
200,6,-255,-74,-35,61,-6
205,5,-254,-74,-32,64,-6
210,4,-252,-77,-27,66,-4
215,4,-253,-78,-22,67,-5
220,3,-252,-73,-19,69,-4
225,4,-247,-71,-15,71,-4
230,4,-251,-72,-15,74,-4
235,2,-246,-75,-15,74,-3
240,3,-248,-73,-18,76,-2
245,3,-251,-73,-19,77,-4
250,2,-248,-70,-22,78,-4
255,4,-251,-72,-25,76,-4
260,4,-252,-71,-28,73,-4
265,4,-253,-74,-31,71,-4
270,3,-251,-76,-35,69,-3
275,5,-251,-70,-38,68,-3
280,3,-252,-73,-40,66,-4
285,4,-248,-73,-40,67,-4
290,8,-251,-79,-40,68,-5
295,2,-249,-72,-40,68,-6
300,2,-251,-72,-39,71,-6
305,3,-249,-71,-39,71,-4
310,1,-251,-74,-38,71,-5
315,1,-252,-73,-37,72,-6
320,0,-250,-76,-33,70,-5
325,4,-254,-74,-30,68,-5
330,4,-253,-75,-26,65,-6
335,3,-249,-75,-23,63,-6
340,4,-253,-72,-21,61,-6
345,4,-246,-74,-19,61,-7
350,4,-250,-70,-19,62,-5
355,4,-252,-71,-22,63,-6
360,4,-248,-69,-24,67,-4
365,3,-250,-70,-25,68,-3
370,1,-252,-72,-29,71,-5
375,4,-253,-70,-31,74,-4
380,4,-252,-75,-34,74,-4
385,4,-254,-70,-35,74,-5
390,1,-251,-70,-35,74,-5
395,0,-250,-70,-34,76,-5
400,4,-251,-69,-30,77,-6
405,4,-251,-70,-28,76,-5
410,4,-252,-70,-25,78,-6
415,4,-252,-72,-21,78,-6
420,3,-254,-72,-18,77,-6
425,-1,-248,-74,-16,76,-5
430,3,-253,-71,-15,75,-5
435,4,-251,-75,-16,73,-5
440,2,-250,-74,-16,73,-3
445,4,-251,-72,-17,74,-4
450,4,-251,-74,-18,74,-4
455,4,-250,-72,-20,73,-3
460,4,-252,-73,-21,73,-3
465,6,-253,-71,-21,73,-3
470,4,-251,-74,-24,71,-3
475,3,-251,-75,-24,69,-4
480,4,-251,-75,-24,69,-4
485,3,-250,-73,-24,69,-3
490,5,-251,-72,-23,69,-4
495,2,-246,-74,-22,70,-4
500,4,-249,-69,-19,70,-4
505,4,-248,-72,-19,72,-3
510,6,-249,-68,-19,73,-4
515,4,-248,-72,-18,73,-3
520,4,-250,-73,-19,74,-3
525,4,-252,-73,-19,75,-4
530,4,-248,-71,-18,74,-3
535,3,-250,-77,-20,74,-5
540,2,-252,-74,-22,74,-5
545,-2,-249,-71,-25,73,-5
550,4,-249,-76,-25,73,-5
555,2,-250,-73,-28,70,-5
560,3,-248,-70,-29,69,-6
565,2,-248,-72,-29,67,-5
570,3,-252,-71,-28,66,-5
575,5,-251,-73,-26,64,-4
580,3,-251,-76,-25,63,-4
585,4,-250,-73,-25,64,-5
590,4,-248,-73,-25,63,-5
595,1,-249,-74,-24,64,-3
600,2,-247,-74,-24,63,-5
605,4,-251,-72,-23,63,-4
610,1,-249,-75,-23,65,-3
615,3,-250,-71,-24,63,-3
620,4,-250,-72,-25,61,-3
625,4,-247,-74,-27,61,-4
630,4,-249,-76,-27,61,-2
635,4,-250,-72,-28,61,-2
640,4,-246,-72,-29,62,-2
645,4,-249,-69,-30,61,-4
650,2,-249,-74,-31,63,-4
655,2,-253,-75,-30,63,-3
660,4,-251,-72,-31,62,-3
665,4,-248,-72,-33,64,-4
670,3,-248,-73,-33,66,-4
675,3,-249,-74,-34,67,-4
680,5,-252,-72,-35,69,-4
685,3,-251,-77,-37,69,-4
690,4,-252,-74,-38,71,-4
695,4,-251,-75,-38,70,-4
700,6,-251,-75,-38,69,-5
705,4,-250,-77,-36,68,-5
710,3,-249,-77,-34,67,-5
715,4,-251,-75,-33,66,-5
720,4,-248,-72,-31,66,-5
725,4,-252,-74,-30,65,-3
730,1,-249,-74,-30,66,-3
735,4,-252,-75,-30,67,-2
740,3,-251,-68,-29,67,-2
745,4,-248,-73,-28,67,-1
750,5,-249,-77,-30,69,-2
755,4,-251,-75,-31,72,-2
760,4,-247,-77,-31,75,-4
765,5,-247,-72,-30,75,-4
770,-2,-249,-74,-29,77,-5
775,4,-250,-76,-27,78,-5
780,4,-249,-75,-29,80,-5
785,3,-247,-78,-28,79,-5
790,4,-249,-72,-29,78,-5
795,4,-252,-76,-28,77,-5
800,2,-250,-72,-28,75,-6
805,4,-251,-73,-27,74,-7
810,4,-250,-73,-27,71,-6
815,2,-246,-75,-27,69,-7
820,4,-253,-74,-29,68,-6
825,4,-248,-76,-30,67,-5
830,0,-249,-74,-30,66,-4
835,2,-251,-74,-32,66,-5
840,0,-250,-74,-32,65,-5
845,4,-249,-74,-31,66,-6
850,1,-250,-77,-30,66,-4
855,3,-247,-71,-30,66,-5
860,2,-251,-73,-30,66,-5
865,5,-248,-75,-29,65,-4
870,2,-250,-76,-27,66,-3
875,4,-253,-79,-27,68,-4
880,3,-249,-76,-27,67,-5
885,3,-253,-71,-27,68,-5
890,5,-250,-74,-29,68,-4
895,4,-250,-72,-30,68,-5
900,2,-250,-74,-29,68,-6
905,1,-248,-72,-27,68,-7
910,4,-250,-75,-25,65,-6
915,3,-252,-75,-26,65,-5
920,3,-250,-77,-27,64,-6
925,3,-252,-79,-29,66,-8
930,4,-250,-74,-29,64,-7
935,4,-250,-77,-30,64,-8
940,4,-253,-72,-31,65,-7
945,3,-252,-75,-29,66,-7
950,1,-250,-72,-29,67,-6
955,4,-252,-74,-27,67,-5
960,-1,-246,-74,-24,67,-6
965,3,-250,-76,-23,68,-4
970,5,-251,-75,-23,65,-4
975,5,-247,-77,-24,64,-4
980,4,-250,-79,-25,64,-4
985,3,-248,-72,-27,63,-4
990,4,-250,-76,-29,64,-4
995,3,-250,-73,-29,65,-3
1000,4,-251,-73,-30,65,-5
1005,2,-251,-81,-30,66,-5
1010,4,-248,-76,-29,64,-5
1015,2,-249,-77,-28,64,-4
1020,2,-250,-75,-29,64,-5
1025,3,-250,-73,-30,62,-4
1030,4,-246,-79,-32,63,-4
1035,4,-249,-77,-35,62,-5
1040,4,-250,-76,-36,63,-5
1045,4,-250,-73,-37,62,-6
1050,4,-248,-76,-38,62,-5
1055,4,-251,-76,-37,63,-6
1060,2,-248,-73,-35,63,-5
1065,4,-248,-73,-33,63,-5
1070,1,-248,-77,-31,64,-5
1075,4,-246,-72,-31,64,-5
1080,4,-247,-73,-31,65,-3
1085,3,-249,-73,-32,65,-3
1090,3,-249,-76,-37,66,-1
1095,4,-248,-75,-40,66,1
1100,1,-248,-75,-44,66,-3
1105,5,-253,-75,-45,66,-4
1110,2,-255,-75,-46,66,-3
1115,1,-254,-77,-45,64,-4
1120,4,-252,-74,-42,65,-5
1125,2,-250,-75,-39,66,-5
1130,4,-248,-77,-34,67,-5
1135,2,-247,-79,-31,68,-4
1140,5,-249,-77,-28,71,-4
1145,4,-247,-78,-27,72,-4
1150,5,-251,-75,-27,73,-5
1155,4,-247,-77,-30,74,-5
1160,4,-245,-75,-31,73,-4
1165,4,-251,-78,-35,72,-4
1170,4,-251,-76,-35,71,-4
1175,4,-248,-76,-35,69,-4
1180,3,-250,-77,-35,68,-4
1185,4,-250,-78,-33,67,-5
1190,2,-251,-75,-31,68,-4
1195,5,-250,-78,-28,69,-3
1200,4,-250,-76,-24,70,-3
1205,4,-251,-75,-22,70,-1
1210,1,-251,-75,-22,70,-2
1215,5,-252,-74,-22,68,-2
1220,4,-247,-78,-22,67,-2
1225,3,-251,-75,-24,66,-3
1230,4,-251,-76,-26,66,-3
1235,4,-248,-75,-30,67,-4
1240,4,-246,-77,-32,68,-4
1245,6,-249,-76,-31,70,-3
1250,3,-252,-76,-32,72,-4
1255,4,-253,-77,-28,74,-4
1260,3,-247,-77,-24,76,-7
1265,4,-248,-73,-18,77,-5
1270,4,-249,-77,-14,78,-4
1275,4,-248,-79,-11,77,-4
1280,5,-250,-77,-9,77,-4
1285,3,-248,-77,-9,78,-3
1290,4,-248,-79,-10,77,-2
1295,4,-246,-79,-11,76,-1
1300,4,-250,-79,-12,77,-1
1305,2,-247,-80,-12,78,-2
1310,4,-250,-76,-12,77,1
1315,4,-248,-78,-11,78,1
1320,2,-248,-77,-11,78,2
1325,1,-249,-77,-12,78,0
1330,7,-245,-75,-11,79,0
1335,3,-245,-74,-12,79,0
1340,4,-249,-73,-13,78,0
1345,2,-244,-78,-13,77,0
1350,0,-249,-76,-15,77,0
1355,4,-252,-80,-16,78,-1
1360,4,-251,-75,-16,79,-1
1365,6,-251,-75,-16,79,-1
1370,3,-253,-77,-15,79,-2
1375,4,-251,-73,-14,80,-1
1380,4,-250,-74,-13,82,-1
1385,3,-247,-75,-10,82,0
1390,4,-252,-77,-9,81,0
1395,4,-247,-75,-8,83,1
1400,4,-250,-70,-7,84,0
1405,3,-246,-79,-9,83,-1
1410,1,-249,-75,-8,82,-1
1415,4,-250,-79,-9,81,-1
1420,1,-250,-78,-10,81,-1
1425,3,-249,-77,-9,79,-1
1430,0,-250,-77,-8,76,-2
1435,4,-249,-76,-7,77,-1
1440,3,-248,-74,-7,77,-2
1445,4,-251,-80,-7,76,-1
1450,3,-250,-73,-7,75,-2
1455,4,-247,-79,-8,74,0
1460,4,-247,-75,-8,74,-2
1465,3,-246,-78,-9,72,-2
1470,4,-248,-78,-10,71,-2
1475,0,-250,-75,-12,73,-3
1480,2,-251,-77,-13,75,-2
1485,4,-251,-78,-14,75,-2
1490,4,-248,-77,-13,75,-2
1495,4,-247,-80,-12,75,-3
1500,3,-252,-75,-11,74,-4
1505,4,-249,-76,-10,74,-4
1510,3,-250,-79,-9,73,-4
1515,2,-252,-76,-8,73,-4
1520,4,-251,-76,-7,73,-4
1525,4,-252,-81,-6,72,-3
1530,1,-252,-77,-4,72,-2
1535,4,-248,-81,-2,72,-2
1540,3,-247,-77,-1,74,-2
1545,4,-251,-75,-1,75,-3
1550,5,-247,-81,1,77,-1
1555,4,-247,-77,0,77,-2
1560,4,-250,-80,0,78,-1
1565,4,-248,-77,-1,80,-2
1570,5,-249,-78,-2,80,-2
1575,4,-246,-75,-3,79,-3
1580,4,-248,-77,-5,78,-4
1585,5,-249,-79,-4,77,-4
1590,3,-246,-75,-5,76,-4
1595,5,-246,-76,-5,75,-3
1600,5,-249,-80,-6,73,-3
1605,3,-247,-78,-5,72,-2
1610,2,-249,-77,-4,71,-2
1615,3,-248,-79,-5,71,-3
1620,4,-254,-76,-4,71,-1
1625,4,-250,-82,-2,72,-1
1630,4,-249,-76,-4,72,0
1635,4,-250,-75,-5,71,-1
1640,3,-247,-74,-5,71,0
1645,2,-248,-81,-5,70,-1
1650,1,-248,-77,-4,69,-1
1655,5,-251,-83,-4,69,-2
1660,3,-251,-75,-4,69,-2
1665,3,-250,-77,-3,69,-3
1670,6,-247,-75,-2,69,-2
1675,4,-247,-77,0,69,-2
1680,3,-249,-76,0,71,-3
1685,2,-247,-78,-1,71,-2
1690,4,-247,-76,-2,71,-3
1695,3,-249,-78,-4,71,-3
1700,3,-249,-74,-4,71,-4
1705,4,-249,-77,-4,71,-4
1710,3,-246,-74,-4,71,-4
1715,4,-247,-77,-6,70,-5
1720,5,-251,-74,-5,69,-6
1725,2,-245,-76,-5,68,-4
1730,4,-248,-73,-5,67,-3
1735,0,-249,-74,-3,67,-3
1740,4,-250,-75,-3,68,-3
1745,1,-247,-75,-2,67,-4
1750,4,-250,-74,-3,67,-4
1755,4,-250,-78,-2,64,-4
1760,0,-250,-76,-2,62,-3
1765,4,-248,-78,-3,60,-4
1770,4,-247,-75,-2,62,-4
1775,4,-248,-80,-4,64,-4
1780,4,-246,-74,-5,64,-4
1785,5,-253,-74,-4,65,-3
1790,4,-249,-76,-3,67,-4
1795,3,-248,-77,-2,69,-5
1800,4,-249,-78,-1,68,-4
1805,4,-249,-79,-1,69,-6
1810,1,-249,-73,0,69,-6
1815,5,-252,-77,-1,69,-6
1820,5,-251,-82,-1,69,-6
1825,3,-250,-79,-1,68,-6
1830,5,-250,-76,-2,68,-6
1835,3,-249,-76,-1,67,-7
1840,4,-250,-74,-2,67,-5
1845,4,-250,-77,-1,66,-5
1850,5,-252,-74,0,68,-4
1855,4,-253,-77,0,67,-4
1860,4,-249,-77,0,70,-4
1865,4,-248,-71,0,72,-4
1870,4,-249,-79,1,71,-4
1875,4,-248,-73,1,72,-5
1880,4,-252,-75,1,72,-6
1885,4,-250,-77,-1,70,-6
1890,5,-251,-72,-2,70,-5
1895,5,-252,-72,-3,69,-5
1900,4,-250,-75,-2,69,-4
1905,4,-246,-77,-1,69,-3
1910,5,-250,-79,-1,69,-3
1915,4,-248,-78,0,71,-3
1920,4,-247,-72,1,72,-2
1925,4,-249,-76,1,74,-4
1930,5,-251,-77,1,74,-2
1935,4,-250,-73,2,73,-1
1940,4,-251,-74,0,75,-2
1945,4,-251,-74,0,75,-2
1950,4,-253,-76,1,78,-2
1955,4,-249,-75,1,80,-2
1960,4,-248,-74,0,81,-2
1965,5,-248,-80,0,80,-3
1970,4,-250,-74,1,79,-3
1975,6,-254,-73,3,78,-3
1980,2,-250,-75,4,79,-3
1985,3,-250,-75,5,80,-2
1990,3,-250,-72,6,79,-2
1995,5,-249,-74,6,78,-3
2000,4,-248,-74,8,79,-4
2005,4,-248,-73,7,78,-3
2010,2,-249,-76,7,77,-3
2015,3,-252,-73,5,74,-4
2020,3,-250,-73,4,74,-3
2025,2,-248,-69,3,72,-3
2030,4,-248,-77,3,73,-2
2035,1,-249,-76,0,72,-3
2040,3,-249,-71,-1,73,-4
2045,4,-249,-78,-1,73,-2
2050,2,-249,-73,-2,72,-2
2055,4,-248,-77,0,71,-2
2060,3,-250,-80,1,72,-2
2065,4,-251,-75,0,70,-2
2070,4,-248,-77,0,71,-2
2075,3,-249,-74,1,69,-2
2080,4,-252,-77,-1,69,-2
2085,5,-249,-76,-1,70,-1
2090,4,-251,-72,-2,71,-1
2095,5,-252,-73,-1,73,0
2100,2,-250,-74,-2,75,-2
2105,4,-250,-76,-4,77,-1
2110,2,-250,-74,-4,79,2
2115,3,-249,-75,-2,77,1
2120,3,-249,-75,0,77,2
2125,3,-249,-74,2,77,1
2130,3,-248,-76,4,75,2
2135,1,-249,-77,5,76,0
2140,3,-249,-73,7,76,1
2145,4,-250,-75,7,78,1
2150,4,-251,-74,8,77,1
2155,2,-247,-76,8,76,1
2160,1,-248,-78,8,75,0
2165,3,-249,-75,4,74,0
2170,4,-252,-78,4,73,0
2175,3,-250,-74,3,72,-1
2180,1,-248,-71,1,72,0
2185,5,-250,-73,0,72,0
2190,4,-249,-73,0,72,0
2195,5,-250,-74,0,74,0
2200,5,-250,-75,-2,73,0
2205,5,-250,-74,-2,73,-1
2210,4,-248,-75,-1,73,0
2215,2,-252,-74,-1,74,0
2220,4,-250,-77,1,74,1
2225,3,-248,-73,2,75,1
2230,4,-250,-75,2,75,1
2235,4,-250,-71,3,75,1
2240,2,-249,-70,5,77,1
2245,4,-252,-70,4,77,1
2250,3,-248,-70,4,79,0
2255,6,-252,-73,3,79,0
2260,4,-252,-75,1,78,0
2265,4,-252,-74,1,78,-1
2270,1,-249,-73,0,77,-2
2275,4,-251,-73,0,77,-3
2280,5,-252,-73,3,76,-2
2285,2,-247,-75,1,76,-2
2290,5,-249,-72,1,77,-1
2295,3,-252,-75,1,76,-2
2300,3,-250,-72,-1,75,0
2305,5,-249,-73,-2,74,-1
2310,2,-249,-70,-1,73,-1
2315,4,-251,-76,0,73,1
2320,5,-249,-72,0,72,1
2325,3,-250,-71,0,73,1
2330,4,-250,-75,1,72,1
2335,5,-250,-74,0,70,0
2340,4,-251,-75,0,68,2
2345,4,-251,-73,0,66,0
2350,3,-250,-72,-1,67,0
2355,4,-250,-69,-2,68,0
2360,4,-250,-70,-2,68,-1
2365,4,-251,-73,-1,68,-1
2370,4,-250,-74,-2,71,-2
2375,1,-249,-73,-1,73,-2
2380,2,-251,-75,-1,75,-2
2385,4,-254,-71,0,78,-1
2390,5,-251,-71,0,77,-1
2395,5,-249,-73,2,76,0
2400,4,-250,-72,2,77,0
2405,5,-251,-73,3,76,1
2410,5,-252,-77,3,74,2
2415,4,-251,-72,1,71,2
2420,7,-246,-70,0,69,1
2425,3,-248,-71,-1,69,0
2430,3,-250,-74,-1,67,2
2435,4,-250,-73,0,67,2
2440,6,-252,-73,0,68,3
2445,4,-250,-68,-1,69,4
2450,4,-253,-73,-2,69,2
2455,3,-251,-73,-2,71,1
2460,2,-250,-71,-2,74,3
2465,2,-251,-73,-2,75,4
2470,3,-251,-75,-4,75,2
2475,2,-250,-73,-4,76,2
2480,2,-252,-76,-2,75,0
2485,2,-252,-74,-2,75,1
2490,4,-249,-73,0,75,0
2495,4,-250,-73,2,72,0
2500,3,-248,-69,2,73,0
2505,6,-253,-72,2,73,0
2510,4,-251,-74,2,74,0
2515,3,-252,-70,1,74,0
2520,5,-250,-72,1,75,0
2525,4,-252,-74,2,76,-1
2530,4,-250,-71,2,77,2
2535,4,-249,-71,2,75,1
2540,4,-248,-69,1,76,2
2545,4,-252,-71,2,77,3
2550,2,-252,-70,0,76,3
2555,4,-249,-71,1,76,3
2560,3,-251,-73,4,75,4
2565,3,-249,-71,3,74,3
2570,2,-250,-70,3,74,2
2575,4,-249,-71,2,76,1
2580,4,-250,-72,1,76,1
2585,4,-252,-71,-1,77,1
2590,4,-250,-72,-2,76,2
2595,0,-248,-72,-4,75,2
2600,4,-251,-67,-4,74,2
2605,4,-253,-75,-5,72,1
2610,3,-251,-70,-6,72,1
2615,2,-248,-75,-6,72,1
2620,5,-252,-69,-6,73,0
2625,4,-253,-72,-5,75,-1
2630,1,-248,-70,-3,77,-1
2635,4,-251,-70,-1,76,-1
2640,4,-251,-75,0,76,0
2645,1,-249,-68,1,76,0
2650,3,-252,-72,3,73,0
2655,2,-251,-72,4,74,0
2660,2,-248,-67,4,72,-1
2665,2,-251,-71,3,69,-1
2670,3,-249,-69,4,66,-1
2675,2,-252,-69,5,65,1
2680,2,-253,-75,3,62,-1
2685,5,-252,-72,1,62,-2
2690,5,-252,-73,1,62,-1
2695,4,-251,-69,-1,62,-2
2700,2,-252,-73,-2,63,-1
2705,4,-252,-70,-3,65,-1
2710,3,-254,-70,-3,66,-2
2715,4,-252,-72,-2,67,-2
2720,3,-253,-69,-3,68,-3
2725,3,-252,-71,-3,69,-3
2730,1,-251,-68,-1,68,-3
2735,2,-249,-66,-1,67,-4
2740,6,-252,-73,-2,66,-5
2745,3,-251,-72,-2,64,-4
2750,4,-251,-69,-2,61,-3
2755,4,-249,-71,-3,62,-2
2760,1,-249,-68,-2,61,-2
2765,5,-251,-73,-3,61,-3
2770,4,-250,-73,-4,61,-3
2775,3,-250,-71,-2,60,-1
2780,2,-250,-70,-2,61,-1
2785,4,-252,-70,-2,62,-1
2790,4,-252,-70,-3,63,-1
2795,4,-252,-69,-4,64,0
2800,4,-250,-70,-9,64,0
2805,1,-251,-68,-10,64,-3
2810,4,-250,-73,-11,67,-3
2815,0,-253,-70,-11,67,-4
2820,1,-250,-68,-9,68,-3
2825,3,-251,-72,-7,67,-3
2830,4,-250,-68,-6,67,-3
2835,2,-252,-70,-4,67,-3
2840,4,-252,-71,-2,65,-4
2845,2,-253,-71,-1,64,-2
2850,2,-249,-68,0,64,-3
2855,3,-250,-73,2,62,-3
2860,5,-250,-71,3,62,-5
2865,4,-255,-73,1,62,-4
2870,4,-252,-71,1,61,-3
2875,3,-248,-71,0,63,-3
2880,3,-250,-70,-1,62,-2
2885,3,-249,-72,-3,63,-3
2890,3,-252,-72,-6,63,-2
2895,3,-251,-69,-5,66,-3
2900,3,-250,-68,-6,64,-3
2905,1,-249,-72,-7,64,-2
2910,2,-248,-71,-7,64,-2
2915,4,-252,-70,-7,62,0
2920,3,-249,-70,-5,62,-2
2925,5,-253,-68,-5,60,-1
2930,4,-253,-69,-4,59,-1
2935,4,-250,-70,-3,59,-1
2940,3,-251,-67,-3,61,-1
2945,5,-254,-70,-4,63,-2
2950,1,-253,-69,-3,64,-2
2955,3,-255,-68,-4,65,-3
2960,3,-251,-67,-5,66,-2
2965,3,-253,-69,-3,68,-4
2970,-1,-249,-69,-2,67,-3
2975,4,-254,-70,-1,68,-4
2980,2,-255,-70,-1,69,-4
2985,-1,-253,-69,0,68,-4
2990,1,-251,-69,1,66,-4
2995,3,-251,-70,1,67,-4
3000,3,-251,-72,0,65,-3
3005,5,-248,-71,0,64,-4
3010,3,-252,-68,-2,64,-4
3015,2,-247,-67,-5,65,-4
3020,2,-249,-70,-6,66,-3
3025,3,-249,-73,-8,65,-4
3030,3,-249,-70,-8,64,-4
3035,3,-248,-69,-9,65,-3
3040,1,-251,-71,-10,64,-3
3045,4,-248,-70,-10,63,-3
3050,4,-252,-71,-11,62,-4
3055,3,-251,-71,-12,62,-3
3060,2,-251,-73,-15,61,-3
3065,4,-251,-66,-16,61,-3
3070,4,-254,-67,-16,63,-2
3075,2,-248,-69,-15,63,-4
3080,4,-254,-69,-14,62,-4
3085,3,-256,-67,-13,62,-3
3090,2,-251,-68,-8,63,-3
3095,4,-253,-68,-7,64,-3
3100,4,-253,-73,-4,64,-2
3105,4,-253,-72,-4,65,-3
3110,3,-251,-69,-7,67,-5
3115,2,-251,-70,-8,69,-3
3120,3,-252,-73,-10,69,-3
3125,4,-249,-71,-12,70,-4
3130,4,-250,-71,-13,69,-4
3135,3,-250,-72,-14,68,-5
3140,1,-247,-69,-17,69,-6
3145,1,-251,-71,-16,69,-6
3150,2,-251,-72,-14,67,-5
3155,4,-250,-72,-15,65,-5
3160,2,-248,-70,-16,64,-5
3165,3,-251,-70,-16,64,-4
3170,1,-249,-68,-17,63,-3
3175,2,-249,-70,-17,63,-2
3180,1,-249,-69,-18,62,-3
3185,4,-253,-68,-19,62,-3
3190,2,-248,-71,-21,62,-2
3195,1,-250,-73,-21,64,-1
3200,4,-253,-71,-23,66,0
3205,4,-252,-70,-25,66,0
3210,3,-249,-71,-26,69,0
3215,3,-247,-73,-27,69,0
3220,0,-249,-72,-28,72,0
3225,2,-249,-74,-28,73,-1
3230,1,-251,-72,-30,73,-1
3235,4,-251,-68,-31,73,-1
3240,4,-249,-69,-31,74,-1
3245,0,-249,-73,-32,74,-1
3250,2,-251,-71,-33,73,-1
3255,2,-252,-72,-33,73,0
3260,1,-249,-73,-36,71,-1
3265,4,-248,-71,-37,71,-1
3270,4,-249,-72,-36,71,-1
3275,2,-251,-69,-37,71,-1
3280,2,-249,-72,-37,70,-1
3285,2,-247,-71,-36,71,-3
3290,2,-251,-75,-36,70,-1
3295,0,-250,-70,-37,70,0
3300,1,-250,-71,-36,67,0
3305,1,-251,-72,-38,67,1
3310,4,-250,-72,-41,66,1
3315,4,-249,-71,-43,64,3
3320,0,-247,-74,-45,63,1
3325,1,-251,-75,-47,61,1
3330,1,-250,-77,-49,61,1
3335,-1,-247,-73,-51,59,1
3340,3,-249,-76,-53,57,0
3345,2,-250,-72,-55,56,-1
3350,1,-249,-76,-56,57,-2
3355,1,-250,-75,-58,57,-1
3360,3,-251,-80,-58,58,-2
3365,2,-251,-74,-60,60,-3
3370,3,-251,-73,-60,63,-2
3375,1,-249,-77,-60,64,-1
3380,-3,-247,-77,-60,64,-1
3385,3,-247,-76,-60,64,0
3390,-1,-250,-76,-59,65,0
3395,1,-248,-75,-57,64,1
3400,-2,-245,-75,-56,63,-1
3405,1,-250,-80,-54,63,-1
3410,2,-251,-82,-53,63,-2
3415,4,-248,-76,-50,64,-3
3420,2,-247,-80,-47,65,-4
3425,2,-247,-78,-43,66,-5
3430,2,-247,-81,-37,67,-4
3435,2,-245,-81,-32,69,-3
3440,3,-248,-85,-28,71,-1
3445,3,-245,-80,-26,72,-2
3450,4,-248,-84,-27,73,-1
3455,2,-243,-81,-27,73,0
3460,2,-245,-81,-29,72,1
3465,2,-249,-82,-28,73,4
3470,4,-247,-78,-28,74,4
3475,0,-246,-76,-24,74,3
3480,4,-247,-76,-20,74,3
3485,4,-248,-75,-15,76,5
3490,4,-244,-78,-12,76,6
3495,4,-246,-83,-13,73,8
3500,5,-243,-77,-18,73,7
3505,4,-239,-82,-25,74,8
3510,2,-238,-77,-31,73,11
3515,4,-239,-79,-38,73,12
3520,-1,-239,-77,-43,74,13
3525,4,-237,-77,-51,73,12
3530,4,-240,-78,-58,70,14
3535,4,-241,-79,-67,71,14
3540,3,-239,-81,-78,69,16
3545,3,-240,-79,-90,68,18
3550,3,-239,-80,-104,68,18
3555,4,-243,-82,-119,68,20
3560,4,-242,-81,-130,70,22
3565,4,-244,-81,-141,71,23
3570,4,-244,-81,-150,74,24
3575,4,-243,-81,-155,79,26
3580,3,-244,-83,-157,80,27
3585,5,-244,-82,-157,80,29
3590,4,-245,-84,-154,82,28
3595,1,-244,-80,-152,81,28
3600,5,-242,-81,-149,83,29
3605,4,-241,-82,-148,85,29
3610,4,-244,-83,-149,86,28
3615,1,-242,-85,-153,87,29
3620,0,-242,-86,-158,88,30
3625,6,-244,-85,-163,89,32
3630,4,-241,-88,-166,89,33
3635,2,-240,-83,-168,87,32
3640,4,-239,-84,-170,84,31
3645,2,-242,-83,-173,81,32
3650,0,-242,-84,-175,80,31
3655,3,-239,-85,-180,78,32
3660,1,-240,-85,-187,77,33
3665,3,-240,-88,-193,75,34
3670,2,-244,-86,-199,73,33
3675,0,-242,-89,-206,72,32
3680,2,-240,-87,-212,70,34
3685,1,-240,-89,-218,73,34
3690,0,-241,-91,-220,76,32
3695,2,-241,-89,-222,76,30
3700,0,-241,-88,-223,79,30
3705,0,-240,-93,-220,80,31
3710,1,-244,-93,-219,81,30
3715,1,-239,-91,-216,80,29
3720,0,-241,-94,-214,82,28
3725,3,-242,-78,-212,83,29
3730,4,-243,-95,-210,86,27
3735,1,-237,-93,-210,90,27
3740,0,-237,-94,-209,92,26
3745,4,-240,-93,-208,93,27
3750,2,-234,-93,-207,93,26
3755,4,-234,-95,-205,91,25
3760,3,-236,-98,-203,89,25
3765,5,-236,-93,-201,89,25
3770,4,-236,-95,-203,89,27
3775,4,-231,-97,-206,89,27
3780,3,-235,-96,-210,90,29
3785,2,-236,-95,-215,91,32
3790,2,-233,-97,-219,91,33
3795,2,-236,-95,-226,94,37
3800,0,-238,-93,-231,95,39
3805,1,-232,-92,-236,96,41
3810,3,-235,-97,-238,94,43
3815,4,-235,-97,-237,94,45
3820,4,-238,-98,-233,93,46
3825,3,-237,-97,-228,89,48
3830,1,-239,-97,-225,84,48
3835,6,-237,-93,-221,81,48
3840,3,-237,-103,-219,75,50
3845,0,-236,-101,-217,73,52
3850,-1,-237,-104,-219,69,53
3855,-3,-235,-101,-221,66,54
3860,-5,-233,-103,-225,65,55
3865,-1,-232,-103,-230,65,54
3870,1,-232,-107,-234,64,56
3875,-1,-230,-102,-238,64,56
3880,-4,-226,-103,-243,66,55
3885,-3,-227,-103,-248,67,53
3890,0,-224,-99,-251,68,53
3895,-4,-219,-97,-257,66,53
3900,0,-219,-96,-263,66,54
3905,-2,-216,-97,-271,64,53
3910,-3,-219,-94,-285,64,53
3915,-1,-219,-97,-302,65,52
3920,-1,-217,-102,-321,64,54
3925,-2,-216,-104,-342,64,55
3930,-2,-216,-105,-367,64,56
3935,1,-214,-108,-395,63,57
3940,2,-214,-108,-423,66,57
3945,-5,-225,-108,-445,68,60
3950,4,-219,-108,-472,71,60
3955,0,-220,-110,-493,71,61
3960,0,-216,-109,-509,69,61
3965,0,-217,-103,-519,65,59
3970,3,-218,-105,-523,57,56
3975,2,-216,-105,-521,47,55
3980,4,-216,-106,-518,37,54
3985,-1,-215,-107,-517,28,52
3990,-3,-210,-107,-519,22,49
3995,-1,-215,-107,-528,18,46
4000,-3,-211,-112,-540,17,42
4005,-3,-212,-110,-560,17,36
4010,-8,-212,-109,-584,19,29
4015,-6,-212,-112,-612,20,26
4020,-6,-213,-110,-643,18,20
4025,-10,-216,-110,-674,15,15
4030,-6,-214,-111,-703,12,8
4035,-9,-217,-115,-730,8,2
4040,-8,-219,-116,-753,7,-2
4045,-6,-220,-115,-774,7,-7
4050,-6,-222,-116,-791,9,-10
4055,-17,-227,-117,-802,14,-15
4060,-6,-225,-119,-807,19,-17
4065,-8,-226,-119,-806,20,-22
4070,-6,-229,-117,-803,20,-25
4075,-6,-228,-122,-795,18,-26
4080,-1,-227,-121,-786,15,-28
4085,-7,-226,-118,-774,9,-31
4090,-2,-226,-120,-760,1,-33
4095,-5,-220,-120,-746,-5,-33
4100,-1,-220,-118,-733,-13,-37
4105,-2,-220,-123,-722,-22,-38
4110,-5,-219,-120,-713,-28,-38
4115,-3,-220,-120,-707,-35,-38
4120,-3,-219,-120,-706,-37,-39
4125,-2,-216,-121,-708,-38,-41
4130,-3,-217,-119,-715,-37,-43
4135,-4,-217,-119,-724,-34,-41
4140,-2,-220,-124,-737,-34,-42
4145,-5,-216,-121,-747,-35,-40
4150,0,-220,-121,-757,-34,-40
4155,-3,-221,-126,-769,-35,-38
4160,-1,-225,-127,-780,-35,-37
4165,-4,-224,-129,-790,-32,-33
4170,-3,-224,-134,-796,-30,-33
4175,-5,-226,-136,-800,-28,-35
4180,-5,-228,-135,-795,-28,-37
4185,-5,-230,-140,-782,-27,-39
4190,-3,-235,-139,-763,-22,-39
4195,-5,-232,-136,-734,-13,-40
4200,-8,-233,-136,-697,2,-41
4205,-5,-233,-134,-651,19,-39
4210,-4,-232,-134,-601,38,-40
4215,-5,-225,-135,-548,56,-39
4220,-9,-221,-134,-495,69,-38
4225,-5,-219,-130,-449,79,-37
4230,-7,-214,-129,-411,79,-34
4235,-11,-208,-128,-382,69,-32
4240,-9,-203,-128,-361,50,-28
4245,-8,-200,-127,-356,29,-25
4250,-7,-198,-127,-363,5,-21
4255,-8,-198,-128,-381,-15,-17
4260,-5,-195,-127,-412,-32,-14
4265,-5,-194,-131,-450,-42,-12
4270,-7,-193,-136,-494,-44,-14
4275,-3,-198,-139,-538,-42,-14
4280,-5,-196,-140,-575,-37,-16
4285,-8,-199,-143,-606,-27,-18
4290,-5,-204,-145,-629,-18,-16
4295,-5,-208,-148,-643,-11,-16
4300,-6,-209,-150,-651,4,-14
4305,-9,-207,-149,-649,18,-13
4310,-9,-213,-151,-634,28,-15
4315,-5,-210,-148,-608,36,-18
4320,-8,-211,-151,-566,37,-22
4325,-6,-209,-152,-514,33,-27
4330,-12,-211,-149,-455,25,-30
4335,-6,-212,-149,-398,15,-26
4340,-9,-211,-153,-351,4,-28
4345,-9,-210,-152,-308,-3,-24
4350,-7,-209,-155,-272,-10,-23
4355,-9,-207,-151,-249,-12,-22
4360,-10,-204,-146,-225,-11,-22
4365,-12,-204,-148,-211,-7,-26
4370,-10,-203,-144,-203,-2,-28
4375,-11,-199,-143,-204,5,-31
4380,-15,-202,-155,-215,10,-32
4385,-12,-198,-142,-230,15,-28
4390,-14,-195,-140,-249,16,-28
4395,-11,-197,-145,-266,14,-25
4400,-10,-195,-141,-284,11,-22
4405,-12,-200,-142,-299,7,-18
4410,-15,-197,-144,-306,2,-18
4415,-14,-202,-146,-308,-5,-14
4420,-13,-204,-147,-304,-8,-11
4425,-11,-208,-153,-288,-11,-8
4430,-13,-208,-149,-258,-13,-9
4435,-14,-213,-155,-219,-13,-9
4440,-11,-212,-155,-171,-11,-10
4445,-13,-213,-160,-115,-12,-15
4450,-11,-216,-154,-58,-13,-18
4455,-10,-220,-165,-2,-16,-21
4460,-11,-217,-161,53,-18,-28
4465,-10,-217,-160,105,-19,-31
4470,-9,-221,-163,161,-19,-38
4475,-10,-218,-159,212,-19,-48
4480,-12,-217,-159,256,-15,-54
4485,-8,-217,-158,293,-10,-59
4490,-6,-212,-169,324,-8,-64
4495,-12,-210,-154,345,-8,-70
4500,-9,-212,-154,353,-12,-72
4505,-11,-206,-154,345,-15,-64
4510,-10,-207,-149,315,-13,-48
4515,-7,-202,-148,288,-12,-36
4520,-8,-202,-147,268,-19,-42
4525,-10,-201,-148,239,-26,-50
4530,-11,-200,-153,193,-27,-55
4535,-9,-201,-148,143,-29,-56
4540,-8,-202,-152,94,-28,-60
4545,-9,-203,-155,50,-29,-61
4550,-7,-205,-155,17,-27,-65
4555,-7,-211,-155,-5,-24,-70
4560,-11,-210,-150,-12,-19,-73
4565,-10,-213,-153,-10,-11,-75
4570,-8,-212,-153,4,-5,-73
4575,-10,-210,-154,26,2,-75
4580,-13,-210,-151,55,9,-73
4585,-8,-210,-157,86,15,-63
4590,-8,-208,-155,115,17,-56
4595,-9,-207,-156,135,22,-48
4600,-14,-207,-165,145,27,-41
4605,-12,-205,-155,143,33,-33
4610,-13,-206,-157,136,41,-22
4615,-9,-207,-155,119,49,-18
4620,-10,-213,-152,98,57,-20
4625,-10,-213,-156,80,62,-24
4630,-18,-209,-154,66,70,-22
4635,-10,-215,-151,59,74,-13
4640,-10,-215,-155,55,76,-9
4645,-8,-212,-154,55,76,-17
4650,-8,-214,-154,60,82,-19
4655,-10,-213,-156,66,85,-24
4660,-8,-214,-155,75,88,-26
4665,-5,-215,-157,85,92,-20
4670,-5,-211,-155,88,98,-25
4675,-8,-208,-156,85,104,-30
4680,-6,-213,-153,78,113,-34
4685,-6,-208,-155,68,122,-34
4690,-9,-203,-156,59,132,-36
4695,-5,-197,-148,47,140,-36
4700,-3,-202,-153,36,148,-27
4705,-7,-209,-154,19,149,-35
4710,-5,-205,-153,3,153,-39
4715,-5,-206,-154,-12,159,-42
4720,-7,-208,-153,-20,163,-43
4725,-20,-197,-150,-26,166,-42
4730,-9,-208,-147,-25,169,-29
4735,-7,-209,-155,-23,166,-35
4740,-14,-206,-156,-19,168,-36
4745,-11,-207,-153,-17,169,-34
4750,-12,-206,-154,-13,168,-30
4755,-15,-204,-155,-12,166,-31
4760,-13,-204,-156,-9,162,-21
4765,-15,-202,-159,-6,157,-23
4770,-15,-205,-159,-9,155,-27
4775,-15,-202,-155,-13,153,-27
4780,-12,-197,-154,-17,149,-26
4785,-15,-199,-157,-17,147,-30
4790,-17,-203,-156,-18,148,-32
4795,-15,-202,-156,-17,149,-27
4800,-13,-201,-156,-13,150,-19
4805,-17,-205,-157,-12,150,-26
4810,-16,-204,-155,-10,153,-26
4815,-19,-206,-154,-6,154,-20
4820,-16,-202,-158,2,152,-18
4825,-17,-196,-151,9,150,-16
4830,-13,-205,-157,22,146,-3
4835,-15,-203,-158,27,134,-11
4840,-17,-201,-158,28,127,-12
4845,-11,-203,-158,29,118,-9
4850,-13,-201,-158,24,107,-8
4855,-12,-197,-159,17,96,-5
4860,-14,-195,-164,5,87,-3
4865,-9,-201,-166,-9,82,3
4870,-7,-199,-159,-25,78,4
4875,-7,-197,-161,-44,79,0
4880,-8,-197,-165,-63,83,-2
4885,-3,-195,-164,-79,87,-3
4890,-10,-198,-161,-91,94,-11
4895,-8,-198,-159,-106,96,-3
4900,-4,-198,-161,-118,99,-3
4905,-5,-199,-160,-125,101,-1
4910,-10,-195,-153,-127,105,0
4915,-3,-203,-157,-121,111,10
4920,-1,-202,-158,-116,113,4
4925,6,-199,-155,-110,119,1
4930,2,-198,-159,-102,125,0
4935,-2,-199,-158,-93,131,1
4940,-2,-195,-160,-86,133,1
4945,1,-194,-158,-81,136,0
4950,4,-197,-157,-77,138,2
4955,1,-198,-157,-75,138,2
4960,4,-195,-163,-75,137,2
4965,3,-197,-162,-76,134,2
4970,2,-196,-157,-77,131,1
4975,1,-194,-157,-77,129,1
4980,2,-195,-157,-76,128,-1
4985,2,-195,-157,-72,127,-1
4990,0,-196,-157,-67,127,-1
4995,1,-195,-157,-58,126,0
5000,-4,-195,-158,-50,125,2
5005,-3,-197,-157,-41,121,4
5010,-2,-197,-155,-29,116,5
5015,-4,-196,-155,-17,111,8
5020,-13,-190,-154,-5,105,11
5025,-4,-198,-158,7,100,24
5030,-5,-197,-161,17,94,31
5035,-4,-207,-170,23,89,28
5040,-6,-197,-158,27,87,27
5045,-8,-197,-158,30,87,27
5050,-8,-198,-161,31,86,27
5055,-6,-195,-158,33,87,27
5060,-12,-198,-163,37,91,16
5065,-8,-198,-161,31,92,30
5070,-7,-196,-160,25,93,36
5075,-7,-195,-161,19,95,39
5080,-4,-198,-161,16,99,40
5085,-2,-196,-161,11,107,42
5090,-2,-198,-159,8,115,40
5095,-3,-198,-165,6,124,37
5100,2,-197,-164,3,131,36
5105,-3,-198,-160,2,140,38
5110,6,-213,-154,25,147,92
5115,11,-206,-166,41,132,76
5120,3,-204,-169,27,141,37
5125,3,-199,-164,11,157,26
5130,3,-196,-162,-2,163,19
5135,4,-195,-162,-14,164,15
5140,6,-194,-166,-25,162,11
5145,9,-196,-161,-38,160,9
5150,7,-196,-161,-48,156,11
5155,7,-196,-158,-58,151,9
5160,5,-195,-156,-64,144,6
5165,4,-196,-156,-67,137,6
5170,4,-199,-156,-67,130,5
5175,5,-199,-158,-65,126,4
5180,4,-196,-153,-61,120,2
5185,3,-195,-151,-53,116,1
5190,4,-195,-154,-48,114,0
5195,0,-194,-154,-40,111,-1
5200,-2,-194,-153,-32,110,0
5205,3,-194,-153,-23,109,-1
5210,3,-194,-150,-16,109,-1
5215,-4,-192,-151,-9,109,0
5220,-2,-193,-154,-5,108,1
5225,-3,-195,-153,3,106,-1
5230,-2,-194,-155,10,104,0
5235,-4,-193,-158,16,100,4
5240,0,-195,-153,23,94,5
5245,-4,-194,-153,30,88,9
5250,-1,-193,-154,36,80,10
5255,-2,-193,-157,41,74,13
5260,-2,-195,-158,45,68,15
5265,-5,-194,-159,49,64,18
5270,1,-197,-163,49,61,19
5275,3,-197,-161,50,60,17
5280,2,-196,-160,49,61,15
5285,-2,-195,-160,46,61,13
5290,3,-197,-162,42,62,11
5295,2,-200,-162,36,64,7
5300,2,-194,-162,29,66,5
5305,2,-199,-161,27,71,2
5310,1,-197,-157,22,75,0
5315,-2,-198,-158,19,80,-4
5320,0,-198,-157,18,81,-6
5325,-1,-195,-158,19,84,-8
5330,4,-197,-160,22,85,-9
5335,4,-199,-163,27,86,-12
5340,3,-201,-157,30,86,-11
5345,4,-193,-163,31,87,-11
5350,4,-197,-162,30,89,-11
5355,4,-196,-158,24,90,-11
5360,6,-186,-160,16,91,-10
5365,4,-193,-160,6,91,-9
5370,4,-193,-159,-3,91,-9
5375,1,-192,-157,-10,90,-9
5380,4,-192,-154,-15,89,-11
5385,4,-193,-155,-19,88,-11
5390,4,-194,-151,-18,85,-10
5395,4,-194,-151,-15,83,-12
5400,4,-194,-150,-11,82,-12
5405,3,-196,-148,-2,80,-11
5410,4,-195,-151,5,75,-11
5415,4,-196,-154,12,72,-10
5420,4,-193,-156,20,69,-9
5425,4,-197,-155,23,64,-9
5430,2,-194,-152,26,61,-9
5435,3,-193,-151,26,59,-9
5440,2,-193,-154,27,58,-7
5445,4,-197,-155,25,58,-7
5450,4,-196,-154,23,58,-6
5455,2,-195,-157,22,58,-5
5460,3,-197,-156,22,59,-6
5465,4,-194,-158,20,57,-7
5470,1,-190,-154,19,57,-6
5475,4,-195,-158,22,57,-6
5480,0,-194,-158,24,57,-5
5485,3,-194,-158,26,58,-4
5490,-1,-199,-158,27,60,-4
5495,1,-195,-154,30,61,-1
5500,4,-197,-158,32,60,0
5505,1,-197,-157,34,62,0
5510,3,-200,-156,36,63,0
5515,-2,-195,-159,38,65,2
5520,3,-196,-155,38,67,0
5525,4,-197,-158,40,69,-1
5530,0,-196,-159,40,72,0
5535,4,-196,-157,38,72,-2
5540,1,-200,-154,36,74,-1
5545,1,-197,-154,33,74,-4
5550,-2,-197,-158,31,73,-6
5555,1,-197,-156,28,72,-6
5560,3,-195,-158,26,69,-7
5565,3,-199,-157,24,67,-9
5570,3,-195,-159,22,63,-10
5575,3,-197,-156,20,59,-12
5580,4,-208,-160,16,58,-14
5585,2,-198,-158,13,56,-18
5590,4,-198,-156,11,55,-19
5595,0,-198,-156,7,56,-22
5600,0,-198,-154,6,55,-24
5605,4,-202,-155,5,55,-25
5610,1,-200,-150,5,56,-27
5615,2,-197,-151,6,56,-26
5620,3,-198,-147,7,58,-27
5625,4,-200,-151,10,58,-26
5630,-1,-201,-151,13,58,-28
5635,2,-199,-147,15,59,-27
5640,4,-201,-155,18,59,-26
5645,2,-198,-147,19,57,-25
5650,2,-203,-150,21,57,-24
5655,1,-199,-149,20,54,-24
5660,4,-198,-152,20,53,-23
5665,4,-204,-152,19,50,-24
5670,0,-203,-151,18,47,-23
5675,3,-200,-150,18,44,-25
5680,1,-200,-152,15,39,-25
5685,-2,-194,-157,14,36,-26
5690,-1,-202,-150,14,33,-27
5695,0,-200,-151,14,31,-26
5700,-2,-202,-151,16,28,-27
5705,-3,-197,-153,19,25,-27
5710,0,-200,-151,21,25,-27
5715,-1,-199,-155,25,26,-27
5720,-3,-201,-152,28,28,-28
5725,-2,-199,-153,29,30,-27
5730,1,-200,-152,30,29,-28
5735,0,-200,-149,28,31,-28
5740,-4,-201,-156,26,33,-27
5745,-2,-197,-152,23,36,-27
5750,-2,-199,-153,19,38,-27
5755,-1,-201,-154,16,39,-27
5760,-1,-202,-152,13,43,-25
5765,0,-199,-152,11,45,-25
5770,-4,-201,-152,10,48,-25
5775,0,-201,-149,12,48,-24
5780,1,-200,-151,14,51,-24
5785,2,-201,-147,17,54,-24
5790,-2,-202,-153,19,55,-24
5795,-2,-199,-154,19,58,-24
5800,-2,-201,-153,19,58,-22
5805,-3,-196,-152,20,58,-23
5810,-5,-199,-150,20,55,-22
5815,-2,-197,-153,20,52,-20
5820,-2,-197,-150,21,49,-19
5825,-4,-198,-147,21,47,-16
5830,-2,-197,-148,23,44,-14
5835,-5,-198,-150,25,41,-13
5840,-6,-198,-149,27,40,-12
5845,-7,-202,-146,26,40,-10
5850,-4,-200,-151,29,41,-9
5855,-5,-200,-153,30,44,-7
5860,-3,-201,-151,28,49,-7
5865,-5,-201,-151,28,52,-6
5870,-5,-201,-151,24,55,-6
5875,-3,-203,-153,24,56,-5
5880,-1,-201,-153,21,61,-3
5885,-1,-203,-152,18,62,-3
5890,0,-206,-154,16,63,-1
5895,-3,-201,-146,17,65,-1
5900,-3,-202,-151,18,65,-1
5905,1,-197,-152,21,68,1
5910,-2,-203,-151,23,70,0
5915,-3,-205,-152,24,71,1
5920,-2,-201,-150,27,74,1
5925,-5,-203,-150,26,77,2
5930,-2,-203,-150,28,77,1
5935,-1,-206,-155,27,81,2
5940,-1,-200,-150,30,83,0
5945,-5,-202,-151,32,85,1
5950,0,-201,-150,35,85,0
5955,-1,-201,-150,38,86,2
5960,-3,-201,-151,42,85,3
5965,-3,-202,-148,45,84,4
5970,-3,-201,-149,49,81,5
5975,-3,-198,-149,52,80,6
5980,-4,-200,-151,56,77,9
5985,-5,-200,-149,60,74,10
5990,-3,-202,-153,61,70,11
5995,-4,-202,-151,63,66,12
6000,-4,-201,-150,65,62,14
6005,-3,-201,-148,67,60,14
6010,-4,-200,-146,67,57,16
6015,-7,-203,-154,65,55,17
6020,-4,-203,-150,61,54,19
6025,-7,-202,-149,56,53,21
6030,-8,-202,-151,53,55,21
6035,-4,-203,-151,47,55,20
6040,-3,-202,-153,42,58,19
6045,-8,-201,-151,36,62,18
6050,-3,-205,-150,31,66,17
6055,-8,-202,-153,27,71,16
6060,-4,-205,-150,23,78,15
6065,-5,-203,-149,23,84,14
6070,0,-204,-154,24,90,14
6075,-3,-206,-150,24,95,13
6080,-1,-204,-151,26,98,13
6085,0,-206,-147,29,100,12
6090,-3,-206,-150,31,102,14
6095,-1,-204,-152,34,103,12
6100,-3,-206,-153,36,104,11
6105,0,-207,-148,36,104,12
6110,-3,-204,-146,36,102,11
6115,-2,-204,-150,35,99,10
6120,-2,-203,-151,35,97,11
6125,-10,-201,-158,32,94,11
6130,-2,-208,-149,30,92,12
6135,-5,-202,-149,28,90,11
6140,-4,-203,-147,27,88,10
6145,-2,-203,-149,29,85,12
6150,-5,-202,-150,30,82,13
6155,-7,-200,-146,33,80,14
6160,-2,-202,-148,36,78,16
6165,-6,-203,-147,39,75,20
6170,-3,-201,-147,41,72,21
6175,-4,-198,-150,43,68,24
6180,-4,-203,-143,45,68,27
6185,-5,-199,-143,46,65,29
6190,-6,-200,-140,49,63,30
6195,-5,-198,-143,53,62,32
6200,-6,-202,-145,54,62,33
6205,-4,-204,-147,56,64,33
6210,-1,-200,-142,58,67,35
6215,-8,-201,-146,59,70,34
6220,-4,-203,-147,59,74,34
6225,-5,-203,-148,60,77,32
6230,0,-206,-138,60,81,31
6235,-4,-208,-145,60,85,27
6240,-1,-203,-152,58,88,25
6245,-4,-204,-150,55,90,24
6250,-4,-203,-151,50,91,21
6255,-4,-202,-148,46,90,18
6260,-1,-205,-151,41,93,17
6265,-3,-205,-149,38,93,18
6270,-2,-204,-149,36,91,17
6275,-3,-204,-151,34,90,17
6280,-4,-208,-148,34,90,16
6285,-3,-203,-147,36,92,14
6290,-4,-207,-143,38,92,14
6295,-3,-206,-148,39,93,15
6300,-3,-208,-149,42,97,14
6305,-1,-205,-148,44,99,16
6310,-5,-206,-148,45,102,17
6315,-3,-205,-149,44,104,17
6320,-1,-202,-146,42,105,17
6325,-1,-204,-149,41,105,17
6330,0,-206,-142,39,106,15
6335,-4,-203,-147,37,104,17
6340,0,-202,-145,35,101,18
6345,-7,-203,-144,34,99,19
6350,-2,-204,-145,32,95,20
6355,-7,-203,-146,32,93,22
6360,-7,-203,-146,30,91,24
6365,-3,-206,-146,28,89,24
6370,-6,-205,-148,27,86,25
6375,-4,-205,-146,24,83,28
6380,-4,-207,-143,24,80,28
6385,-6,-206,-142,22,79,28
6390,-10,-203,-139,21,76,29
6395,-5,-203,-146,19,73,30
6400,-7,-207,-143,19,71,30
6405,-3,-206,-145,19,72,33
6410,-4,-207,-146,20,69,33
6415,-6,-204,-146,21,69,32
6420,-2,-204,-145,23,68,33
6425,-3,-206,-142,24,70,32
6430,-5,-202,-143,24,70,31
6435,-5,-203,-141,26,72,30
6440,-3,-206,-145,29,73,29
6445,-3,-206,-143,30,75,27
6450,-1,-201,-139,31,76,28
6455,-3,-207,-145,32,80,25
6460,-5,-206,-143,33,84,23
6465,-7,-204,-142,34,84,22
6470,-1,-207,-144,36,85,18
6475,-3,-210,-141,37,84,17
6480,-3,-206,-143,38,85,18
6485,-4,-209,-142,38,86,15
6490,0,-208,-142,38,84,11
6495,-4,-204,-144,38,82,11
6500,-4,-210,-143,37,83,10
6505,-1,-207,-143,37,84,10
6510,-1,-209,-143,36,84,8
6515,-5,-206,-145,36,82,7
6520,-3,-203,-147,36,80,8
6525,-1,-207,-144,33,78,8
6530,-3,-208,-145,34,77,6
6535,-2,-207,-143,33,76,4
6540,-2,-209,-141,33,76,3
6545,0,-208,-141,34,75,3
6550,-2,-206,-140,34,73,3
6555,0,-208,-144,32,72,3
6560,0,-199,-143,34,71,5
6565,-3,-205,-143,37,70,5
6570,0,-208,-142,39,68,5
6575,-2,-205,-138,41,65,5
6580,-2,-208,-137,44,61,4
6585,0,-208,-142,48,60,6
6590,-2,-210,-143,50,56,6
6595,0,-210,-139,52,53,6
6600,-6,-209,-142,53,49,5
6605,-4,-209,-141,52,47,4
6610,-4,-208,-148,50,44,1
6615,-4,-208,-144,48,43,1
6620,-3,-205,-143,45,43,-1
6625,-4,-210,-143,43,42,-4
6630,-5,-207,-142,44,44,-5
6635,-6,-208,-141,44,44,-5
6640,-4,-208,-142,46,47,-8
6645,-4,-209,-142,46,49,-10
6650,-4,-208,-144,50,51,-13
6655,-2,-211,-139,55,52,-15
6660,-6,-208,-139,58,53,-19
6665,-3,-210,-143,61,54,-21
6670,-5,-205,-143,63,56,-21
6675,-4,-210,-139,66,56,-24
6680,-6,-207,-139,67,56,-25
6685,-7,-208,-142,69,56,-26
6690,-6,-206,-140,69,52,-27
6695,-5,-207,-135,71,52,-29
6700,-6,-210,-142,70,47,-29
6705,-4,-211,-144,70,46,-27
6710,-3,-210,-138,69,42,-27
6715,0,-208,-139,67,38,-29
6720,-4,-211,-141,66,37,-28
6725,-5,-208,-139,63,36,-30
6730,-5,-207,-140,62,35,-30
6735,-3,-209,-143,60,34,-30
6740,-3,-210,-141,59,32,-30
6745,-1,-211,-140,56,31,-28
6750,-4,-212,-142,55,29,-29
6755,-2,-208,-145,52,29,-29
6760,-3,-211,-140,50,31,-27
6765,-4,-208,-145,49,30,-28
6770,-5,-209,-140,47,29,-28
6775,-6,-206,-141,44,29,-28
6780,-5,-208,-137,41,28,-29
6785,-3,-211,-138,39,27,-30
6790,-3,-210,-142,36,27,-29
6795,-6,-209,-140,33,27,-29
6800,-3,-211,-139,32,27,-28
6805,-4,-211,-137,30,26,-28
6810,-2,-209,-141,28,26,-28
6815,-4,-211,-137,27,24,-27
6820,-4,-211,-136,24,26,-27
6825,-3,-210,-139,22,27,-27
6830,-6,-212,-139,21,28,-27
6835,-5,-210,-137,21,27,-27
6840,-3,-212,-138,20,29,-26
6845,-6,-213,-138,20,28,-25
6850,-5,-208,-138,22,30,-26
6855,-5,-212,-137,22,29,-27
6860,-6,-212,-139,23,28,-28
6865,-7,-214,-139,25,28,-27
6870,-6,-214,-140,27,30,-27
6875,-8,-206,-140,27,30,-28
6880,-6,-209,-137,28,29,-29
6885,-8,-211,-137,28,30,-29
6890,-7,-212,-138,27,30,-29
6895,-5,-211,-134,27,30,-29
6900,-7,-211,-138,27,29,-28
6905,-7,-208,-140,27,28,-29
6910,-7,-211,-139,28,28,-27
6915,-9,-209,-135,29,29,-27
6920,-7,-211,-135,28,31,-28
6925,-4,-209,-136,28,31,-28
6930,-7,-210,-136,26,31,-25
6935,-7,-209,-139,26,33,-24
6940,-4,-216,-137,24,35,-26
6945,-5,-213,-137,22,38,-26
6950,-3,-213,-137,23,41,-25
6955,-6,-216,-137,23,46,-26
6960,0,-217,-137,23,51,-27
6965,-3,-217,-133,25,54,-26
6970,-6,-215,-141,28,58,-26
6975,-4,-213,-136,31,62,-25
6980,-6,-216,-137,34,63,-24
6985,-4,-213,-137,35,63,-24
6990,-4,-212,-137,33,61,-23
6995,-3,-212,-138,32,60,-24
7000,-3,-214,-137,27,56,-23
7005,1,-209,-134,23,53,-22
7010,-2,-212,-137,17,49,-21
7015,-4,-209,-141,12,44,-23
7020,-6,-211,-136,7,40,-24
7025,-5,-211,-133,1,39,-22
7030,-3,-211,-138,-4,37,-24
7035,-8,-208,-136,-10,37,-23
7040,-7,-210,-135,-13,37,-23
7045,-7,-213,-136,-19,40,-24
7050,-6,-213,-136,-20,41,-22
7055,-7,-212,-135,-23,44,-21
7060,-7,-212,-135,-24,47,-18
7065,-7,-214,-137,-26,49,-18
7070,-5,-212,-139,-26,50,-16
7075,-8,-217,-140,-26,51,-14
7080,-6,-213,-139,-25,51,-13
7085,-7,-215,-136,-24,52,-12
7090,-7,-212,-138,-22,53,-12
7095,-7,-215,-136,-20,52,-12
7100,-6,-215,-132,-18,53,-10
7105,-7,-214,-139,-16,54,-10
7110,-7,-214,-139,-13,56,-9
7115,-6,-216,-138,-10,58,-10
7120,-9,-214,-137,-8,61,-9
7125,-8,-213,-136,-5,64,-9
7130,-8,-213,-136,-2,68,-11
7135,-6,-214,-137,-1,70,-12
7140,-8,-212,-135,1,74,-12
7145,-4,-212,-133,4,76,-14
7150,-7,-212,-136,4,78,-14
7155,-6,-214,-138,4,77,-14
7160,-5,-211,-137,6,76,-14
7165,-7,-210,-134,7,75,-13
7170,-7,-212,-136,6,76,-13
7175,-5,-209,-134,8,74,-12
7180,-4,-211,-139,7,72,-11
7185,-6,-212,-136,6,71,-11
7190,-6,-212,-138,5,70,-10
7195,-5,-209,-138,3,69,-9
7200,-5,-209,-138,2,69,-10
7205,-5,-211,-137,0,69,-9
7210,-5,-211,-140,-1,68,-8
7215,-7,-210,-138,-2,70,-8
7220,-7,-207,-139,0,70,-5
7225,-5,-211,-139,0,71,-4
7230,-6,-215,-138,2,74,-2
7235,-6,-214,-137,5,75,-2
7240,-7,-212,-139,7,77,0
7245,-7,-210,-138,9,79,1
7250,-6,-212,-139,8,78,1
7255,-4,-212,-141,8,79,2
7260,-3,-212,-141,7,79,2
7265,-7,-215,-137,5,80,4
7270,-5,-213,-138,3,78,3
7275,-4,-213,-138,0,77,4
7280,-8,-210,-140,0,74,4
7285,-8,-210,-138,-4,75,2
7290,-6,-213,-138,-8,76,1
7295,-5,-211,-141,-11,77,1
7300,-4,-215,-137,-12,77,0
7305,0,-214,-136,-13,79,1
7310,-3,-214,-138,-14,80,0
7315,-6,-210,-139,-16,82,2
7320,-6,-214,-137,-18,83,1
7325,-4,-211,-135,-18,86,0
7330,-2,-212,-138,-19,86,1
7335,-3,-211,-137,-20,87,1
7340,-5,-211,-134,-19,89,1
7345,-6,-211,-138,-18,88,2
7350,-5,-211,-138,-17,89,2
7355,-3,-213,-135,-16,90,2
7360,-3,-208,-136,-16,90,2
7365,-3,-210,-133,-13,91,3
7370,-5,-211,-135,-13,91,2
7375,-4,-215,-135,-9,91,3
7380,-5,-209,-133,-4,91,4
7385,-3,-212,-134,0,90,5
7390,-4,-209,-136,4,90,6
7395,-5,-212,-133,8,86,5
7400,-4,-211,-130,13,84,6
7405,-5,-212,-138,17,82,6
7410,-4,-209,-137,20,79,5
7415,-3,-210,-136,23,77,6
7420,-2,-212,-136,26,74,6
7425,-2,-211,-137,28,73,5
7430,-2,-212,-136,29,73,6
7435,1,-211,-137,27,70,4
7440,-1,-215,-134,25,70,4
7445,-4,-214,-137,21,70,3
7450,-2,-213,-137,16,70,2
7455,-2,-213,-141,10,69,1
7460,-1,-213,-139,5,71,1
7465,-4,-212,-139,-1,72,-2
7470,-2,-212,-136,-9,72,-3
7475,-5,-213,-138,-15,73,-4
7480,-4,-212,-136,-21,75,-6
7485,-4,-215,-142,-27,78,-8
7490,-5,-210,-139,-32,80,-8
7495,-2,-213,-136,-36,82,-8
7500,-3,-210,-137,-37,84,-7
7505,-5,-211,-135,-39,85,-7
7510,0,-213,-138,-38,86,-6
7515,-3,-213,-136,-38,86,-6
7520,-2,-214,-133,-37,86,-5
7525,-4,-211,-136,-37,86,-4
7530,-5,-213,-136,-34,84,-4
7535,-4,-213,-138,-34,82,-4
7540,-4,-211,-137,-32,77,-2
7545,-4,-212,-135,-31,74,-2
7550,-2,-213,-134,-31,70,-1
7555,-2,-212,-133,-30,67,-1
7560,-4,-212,-134,-29,64,0
7565,-2,-214,-133,-28,63,-1
7570,-5,-212,-136,-26,62,-1
7575,-4,-213,-137,-23,59,1
7580,-6,-214,-136,-21,58,2
7585,-5,-211,-138,-19,58,2
7590,-4,-214,-136,-17,58,-1
7595,-2,-211,-135,-15,56,-1
7600,-4,-213,-136,-13,57,-1
7605,-1,-211,-136,-14,60,-1
7610,-3,-213,-136,-13,61,-3
7615,0,-215,-138,-11,63,-4
7620,-3,-214,-138,-11,65,-5
7625,-3,-215,-136,-9,68,-6
7630,-4,-213,-139,-10,71,-10
7635,2,-212,-134,-11,73,-11
7640,-2,-213,-136,-11,74,-13
7645,-3,-210,-132,-13,74,-12
7650,-2,-210,-138,-14,75,-13
7655,-4,-212,-139,-16,74,-12
7660,-5,-210,-138,-18,70,-14
7665,-4,-212,-134,-20,66,-14
7670,-1,-215,-140,-22,63,-13
7675,-3,-211,-135,-23,60,-14
7680,-1,-211,-136,-25,56,-14
7685,-5,-211,-136,-28,53,-14
7690,-4,-211,-136,-28,54,-13
7695,-2,-214,-134,-28,54,-13
7700,-2,-210,-135,-31,55,-12
7705,-6,-211,-134,-32,56,-11
7710,-3,-212,-138,-33,58,-11
7715,-4,-210,-134,-33,59,-11
7720,-3,-210,-136,-32,59,-11
7725,0,-212,-139,-32,60,-10
7730,-4,-211,-141,-31,59,-9
7735,-4,-212,-140,-29,59,-9
7740,-3,-212,-135,-28,58,-7
7745,-6,-208,-135,-29,58,-8
7750,-4,-210,-140,-27,59,-6
7755,-6,-209,-134,-25,59,-5
7760,-2,-211,-137,-25,58,-6
7765,-4,-211,-137,-24,58,-7
7770,-4,-212,-132,-25,58,-7
7775,-4,-209,-140,-28,58,-7
7780,-5,-212,-138,-30,59,-6
7785,-5,-211,-137,-32,59,-5
7790,-3,-210,-135,-35,58,-7
7795,-2,-215,-132,-37,59,-8
7800,-2,-215,-134,-38,58,-7
7805,-1,-214,-138,-39,58,-5
7810,1,-214,-135,-38,57,-5
7815,-4,-214,-137,-36,58,-6
7820,-3,-212,-140,-36,57,-3
7825,-6,-209,-140,-35,57,-4
7830,0,-212,-142,-36,57,-5
7835,-1,-213,-135,-38,58,-5
7840,1,-213,-140,-39,58,-6
7845,-1,-213,-140,-39,58,-6
7850,-4,-213,-139,-40,57,-7
7855,-4,-208,-140,-40,57,-8
7860,-2,-210,-138,-39,57,-8
7865,-4,-212,-136,-37,58,-10
7870,-5,-211,-138,-33,59,-11
7875,-7,-211,-137,-28,59,-11
7880,-6,-210,-133,-22,60,-11
7885,-4,-215,-136,-14,62,-12
7890,-5,-214,-135,-7,64,-11
7895,-3,-215,-136,1,64,-11
7900,-3,-214,-136,5,64,-8
7905,-6,-214,-139,8,65,-7
7910,-4,-216,-140,6,64,-5
7915,-1,-213,-141,0,62,-4
7920,-4,-212,-141,-7,60,-5
7925,-4,-212,-136,-17,57,-2
7930,-6,-213,-141,-28,55,-2
7935,-3,-214,-139,-37,52,-1
7940,-5,-212,-137,-43,50,-1
7945,-3,-215,-142,-45,50,-1
7950,-5,-214,-132,-44,51,0
7955,-5,-219,-131,-37,51,2
7960,-4,-216,-135,-26,52,2
7965,-4,-217,-138,-12,53,2
7970,-5,-220,-132,3,55,2
7975,-2,-220,-141,14,59,2
7980,-4,-217,-135,24,61,3
7985,-4,-216,-139,34,64,3
7990,-6,-213,-136,40,66,1
7995,-2,-216,-137,45,66,0
8000,-6,-216,-136,48,67,1
8005,-4,-213,-139,53,66,1
8010,-2,-214,-140,58,66,2
8015,-5,-212,-136,62,65,3
8020,-6,-215,-140,69,63,5
8025,-5,-214,-139,74,61,5
8030,-6,-214,-140,79,62,5
8035,-5,-217,-143,84,63,4
8040,-4,-215,-138,88,64,6
8045,-3,-216,-139,92,64,5
8050,-6,-216,-142,94,66,4
8055,-4,-217,-143,95,65,5
8060,-5,-219,-140,93,65,5
8065,-6,-217,-141,92,64,6
8070,-7,-216,-141,87,62,6
8075,-7,-219,-144,84,64,8
8080,-5,-218,-143,81,60,9
8085,-8,-220,-141,80,58,10
8090,-5,-220,-141,79,57,11
8095,-4,-222,-140,80,55,14
8100,-5,-224,-139,81,55,15
8105,-5,-220,-140,81,54,15
8110,-6,-226,-141,81,53,17
8115,-7,-222,-141,80,50,18
8120,-7,-223,-137,80,48,17
8125,-6,-225,-138,79,49,19
8130,-6,-223,-140,78,47,19
8135,-11,-221,-137,76,44,18
8140,-6,-221,-135,72,41,19
8145,-7,-220,-136,69,40,18
8150,-6,-223,-132,66,38,19
8155,-9,-222,-133,62,36,19
8160,-6,-224,-134,61,36,18
8165,-5,-225,-133,61,37,15
8170,-4,-225,-129,63,36,15
8175,-4,-226,-133,66,38,14
8180,-6,-222,-133,69,39,14
8185,-5,-223,-131,72,40,13
8190,-3,-226,-134,76,41,12
8195,-2,-226,-129,81,41,11
8200,-5,-223,-131,84,42,13
8205,-4,-223,-132,88,39,13
8210,-5,-223,-136,92,38,15
8215,-5,-224,-131,95,34,14
8220,-6,-220,-132,98,31,16
8225,-8,-224,-129,101,27,16
8230,-3,-226,-132,106,22,15
8235,-2,-226,-130,111,20,15
8240,-3,-223,-130,115,18,14
8245,-5,-223,-131,121,17,14
8250,1,-228,-128,128,15,11
8255,-7,-224,-125,136,16,8
8260,-3,-226,-128,144,17,7
8265,-4,-225,-127,154,20,5
8270,-6,-225,-129,162,21,2
8275,-3,-226,-128,169,24,-2
8280,-4,-226,-125,175,27,-3
8285,-6,-225,-129,182,30,-6
8290,-3,-224,-128,186,31,-8
8295,-7,-224,-127,189,32,-11
8300,-3,-231,-127,191,32,-12
8305,-7,-229,-129,190,31,-15
8310,-8,-229,-125,189,28,-14
8315,-7,-227,-127,189,25,-15
8320,-5,-232,-129,185,21,-16
8325,-5,-232,-127,182,16,-17
8330,-7,-227,-126,180,11,-16
8335,-9,-231,-127,177,6,-17
8340,-9,-230,-126,175,3,-18
8345,-5,-230,-127,171,-1,-18
8350,-9,-229,-127,168,-1,-18
8355,-12,-228,-128,164,1,-18
8360,-9,-231,-126,159,2,-17
8365,-7,-231,-125,153,2,-20
8370,-8,-230,-127,148,5,-22
8375,-7,-229,-126,139,7,-21
8380,-8,-231,-125,130,8,-22
8385,-9,-230,-127,121,9,-25
8390,-8,-230,-122,114,12,-25
8395,-9,-232,-127,109,11,-22
8400,-11,-231,-125,106,11,-23
8405,-10,-232,-123,103,11,-24
8410,-8,-231,-116,103,11,-26
8415,-9,-233,-123,103,13,-26
8420,-10,-231,-124,104,14,-29
8425,-7,-236,-123,106,15,-31
8430,-11,-235,-121,106,19,-34
8435,-9,-232,-120,108,22,-34
8440,-13,-233,-119,108,25,-37
8445,-8,-234,-117,109,27,-39
8450,-9,-237,-117,107,27,-41
8455,-11,-235,-118,107,26,-42
8460,-11,-235,-117,103,26,-44
8465,-10,-233,-119,103,24,-45
8470,-12,-235,-118,100,22,-47
8475,-7,-232,-117,96,18,-46
8480,-10,-231,-121,96,14,-46
8485,-14,-232,-115,93,12,-45
8490,-12,-231,-114,90,12,-44
8495,-13,-230,-116,86,13,-43
8500,-11,-230,-119,78,14,-41
8505,-10,-228,-116,71,17,-40
8510,-7,-227,-116,63,17,-40
8515,-10,-232,-113,55,20,-39
8520,-13,-231,-113,47,21,-38
8525,-10,-231,-116,40,22,-38
8530,-8,-231,-115,32,23,-39
8535,-11,-233,-122,25,25,-41
8540,-9,-232,-120,19,27,-41
8545,-11,-233,-123,17,28,-41
8550,-9,-229,-119,15,30,-43
8555,-10,-231,-119,17,32,-42
8560,-10,-231,-122,19,36,-45
8565,-11,-228,-117,20,38,-47
8570,-11,-234,-112,22,40,-49
8575,-10,-235,-114,25,40,-49
8580,-8,-232,-115,28,40,-49
8585,-8,-232,-112,29,39,-50
8590,-7,-232,-117,28,39,-51
8595,-6,-234,-116,27,39,-51
8600,-10,-231,-116,25,39,-51
8605,-9,-229,-114,22,38,-49
8610,-6,-234,-112,17,37,-46
8615,-5,-230,-115,14,33,-46
8620,-6,-233,-117,11,31,-46
8625,-6,-233,-115,11,29,-45
8630,-3,-232,-108,11,28,-42
8635,-5,-232,-116,11,26,-40
8640,-5,-233,-112,14,25,-39
8645,-7,-230,-114,16,23,-38
8650,-6,-232,-114,21,21,-35
8655,-6,-232,-114,25,21,-36
8660,-8,-232,-113,28,22,-35
8665,-5,-236,-110,33,23,-36
8670,-6,-236,-111,40,25,-37
8675,-5,-233,-113,46,29,-37
8680,-10,-236,-112,50,33,-36
8685,-7,-233,-112,54,39,-39
8690,-6,-235,-117,56,40,-42
8695,-5,-236,-116,59,43,-43
8700,-9,-235,-113,61,46,-41
8705,-6,-237,-116,61,45,-41
8710,-5,-238,-115,59,47,-41
8715,-8,-235,-112,56,47,-41
8720,-6,-238,-109,54,45,-39
8725,-5,-237,-114,52,44,-40
8730,-7,-235,-108,50,41,-39
8735,-6,-239,-111,48,41,-40
8740,-7,-234,-112,50,39,-40
8745,-8,-234,-114,50,36,-37
8750,-6,-235,-112,52,34,-35
8755,-9,-235,-111,55,32,-34
8760,-8,-235,-111,58,32,-35
8765,-6,-235,-110,63,33,-36
8770,-5,-236,-113,67,34,-38
8775,-7,-241,-115,74,37,-40
8780,-7,-236,-117,81,37,-42
8785,-6,-236,-111,92,36,-44
8790,-4,-236,-114,103,33,-44
8795,-7,-235,-115,118,25,-43
8800,-6,-237,-112,136,19,-42
8805,-6,-235,-111,157,15,-40
8810,-5,-233,-109,179,10,-39
8815,-6,-233,-107,200,6,-37
8820,-6,-232,-104,218,4,-42
8825,-5,-230,-106,237,5,-46
8830,-8,-230,-104,254,10,-45
8835,-1,-231,-108,267,20,-46
8840,-5,-228,-105,274,30,-49
8845,-5,-231,-104,276,41,-52
8850,-4,-230,-106,272,51,-55
8855,-4,-229,-109,263,59,-57
8860,-6,-231,-108,254,63,-61
8865,-5,-232,-106,250,67,-62
8870,-4,-230,-107,246,69,-61
8875,-6,-233,-105,247,69,-60
8880,-8,-235,-104,251,66,-58
8885,-7,-233,-102,257,65,-56
8890,-5,-236,-107,267,62,-56
8895,-3,-239,-104,278,61,-55
8900,-7,-233,-103,292,58,-50
8905,-9,-235,-106,299,58,-53
8910,-7,-235,-103,306,57,-56
8915,-5,-234,-104,317,62,-48
8920,-5,-238,-103,326,64,-45
8925,-4,-238,-105,332,67,-47
8930,-2,-238,-103,337,71,-49
8935,-6,-237,-100,341,73,-49
8940,-3,-241,-101,347,73,-49
8945,-7,-235,-104,350,77,-52
8950,-7,-234,-102,350,79,-53
8955,-6,-235,-104,351,84,-57
8960,-6,-235,-104,352,91,-58
8965,-6,-233,-101,355,92,-60
8970,-6,-237,-102,358,93,-60
8975,-6,-234,-101,361,90,-57
8980,-7,-239,-98,365,85,-54
8985,-4,-236,-100,370,78,-52
8990,-8,-235,-99,371,71,-49
8995,-4,-236,-101,372,65,-48
9000,-9,-233,-101,369,60,-47
9005,-3,-240,-99,367,60,-43
9010,-4,-237,-98,366,61,-41
9015,-3,-236,-99,369,64,-40
9020,2,-243,-100,370,68,-38
9025,-5,-231,-100,364,71,-53
9030,-4,-231,-96,363,72,-46
9035,-4,-236,-98,362,79,-40
9040,-5,-233,-91,360,83,-38
9045,0,-235,-92,355,87,-36
9050,-5,-231,-100,347,90,-37
9055,-3,-231,-97,338,90,-35
9060,0,-234,-101,332,91,-35
9065,-3,-233,-95,324,91,-34
9070,-5,-235,-93,320,92,-32
9075,-1,-233,-97,319,93,-30
9080,1,-233,-94,317,91,-27
9085,0,-234,-90,315,91,-27
9090,1,-234,-92,313,92,-27
9095,0,-235,-94,309,89,-26
9100,4,-235,-92,304,85,-27
9105,3,-238,-94,297,81,-27
9110,3,-236,-92,288,77,-26
9115,2,-234,-93,281,75,-24
9120,2,-237,-90,274,76,-23
9125,2,-237,-89,270,80,-20
9130,1,-237,-91,266,82,-21
9135,-2,-236,-88,266,86,-21
9140,2,-237,-92,268,87,-21
9145,3,-242,-87,269,88,-29
9150,-5,-238,-91,263,90,-41
9155,1,-239,-92,261,95,-29
9160,4,-238,-86,259,107,-24
9165,-1,-239,-87,255,117,-25
9170,3,-239,-86,252,123,-25
9175,-5,-242,-75,253,125,-26
9180,2,-239,-89,254,126,-28
9185,-2,-239,-88,255,127,-30
9190,2,-240,-90,256,127,-31
9195,0,-239,-86,257,126,-31
9200,-1,-238,-86,257,125,-31
9205,0,-235,-86,255,123,-32
9210,-2,-234,-85,252,122,-30
9215,-2,-236,-85,249,124,-31
9220,-4,-234,-89,243,126,-31
9225,-4,-234,-84,232,133,-24
9230,-6,-235,-84,224,135,-29
9235,-3,-234,-87,218,131,-33
9240,-3,-234,-86,208,127,-34
9245,-4,-233,-88,199,123,-36
9250,-1,-234,-89,191,116,-37
9255,-5,-233,-83,180,113,-38
9260,-5,-234,-91,170,107,-39
9265,-4,-232,-86,162,104,-36
9270,-5,-235,-89,156,105,-34
9275,4,-248,-96,149,106,-34
9280,-6,-231,-86,131,109,-63
9285,-5,-230,-84,127,110,-49
9290,-5,-235,-85,133,119,-31
9295,-2,-235,-85,139,125,-29
9300,-5,-234,-88,142,129,-30
9305,-5,-238,-85,144,132,-29
9310,-5,-236,-87,144,132,-25
9315,-4,-237,-91,143,130,-26
9320,-2,-238,-87,140,124,-25
9325,-3,-237,-88,136,122,-25
9330,-3,-238,-91,131,121,-24
9335,-4,-236,-85,124,124,-23
9340,-3,-233,-85,124,127,-21
9345,-3,-236,-85,128,129,-21
9350,0,-236,-82,133,125,-21
9355,-3,-234,-82,140,117,-19
9360,2,-237,-88,146,109,-18
9365,-1,-234,-88,144,103,-17
9370,2,-237,-88,134,101,-5
9375,1,-233,-93,123,99,-8
9380,0,-233,-92,111,93,-15
9385,-2,-234,-85,95,90,-14
9390,-2,-235,-93,82,90,-14
9395,-2,-239,-91,76,90,-15
9400,1,-238,-91,73,87,-17
9405,-3,-235,-88,74,86,-18
9410,2,-238,-87,81,85,-19
9415,-1,-236,-87,89,85,-20
9420,0,-240,-89,100,86,-18
9425,4,-240,-86,106,87,-22
9430,-2,-238,-89,109,87,-22
9435,3,-240,-87,107,89,-23
9440,-1,-240,-92,103,91,-22
9445,1,-240,-90,95,92,-22
9450,-1,-242,-91,86,91,-24
9455,0,-243,-90,79,90,-26
9460,-1,-244,-84,77,88,-28
9465,0,-243,-87,78,87,-31
9470,4,-247,-89,78,83,-32
9475,-3,-240,-86,75,83,-43
9480,-2,-241,-81,78,78,-33
9485,-2,-245,-84,79,75,-30
9490,0,-242,-83,79,69,-34
9495,-3,-239,-85,82,65,-31
9500,0,-243,-79,85,65,-29
9505,2,-243,-86,86,64,-26
9510,4,-241,-87,88,66,-25
9515,-1,-238,-83,86,72,-24
9520,4,-240,-82,83,77,-23
9525,3,-238,-80,79,84,-23
9530,4,-241,-78,74,90,-21
9535,4,-237,-79,70,95,-21
9540,5,-240,-79,65,96,-20
9545,8,-241,-79,58,96,-20
9550,5,-243,-80,46,94,-19
9555,5,-238,-76,34,95,-18
9560,6,-243,-77,18,92,-17
9565,5,-242,-79,2,91,-16
9570,5,-244,-79,-10,90,-18
9575,-3,-250,-83,-20,88,-11
9580,8,-242,-81,-33,84,8
9585,4,-246,-80,-30,80,-9
9590,4,-245,-82,-23,77,-17
9595,4,-244,-77,-18,74,-16
9600,4,-249,-79,-15,73,-17
9605,3,-243,-86,-14,69,-19
9610,1,-247,-80,-11,68,-17
9615,0,-247,-81,-10,70,-17
9620,5,-252,-80,-9,74,-15
9625,1,-249,-79,-8,77,-17
9630,2,-248,-80,-10,82,-17
9635,3,-248,-78,-11,86,-18
9640,3,-248,-79,-12,90,-19
9645,0,-247,-78,-9,93,-21
9650,1,-250,-76,-3,97,-20
9655,-1,-245,-76,0,97,-22
9660,3,-246,-76,3,97,-25
9665,-5,-243,-69,-1,98,-40
9670,-6,-242,-72,-3,93,-33
9675,-4,-245,-75,-8,89,-28
9680,-3,-243,-73,-13,84,-27
9685,1,-245,-71,-16,80,-26
9690,-3,-246,-76,-18,75,-26
9695,3,-251,-75,-20,72,-26
9700,-1,-246,-76,-20,69,-23
9705,1,-249,-74,-21,66,-22
9710,1,-251,-74,-22,63,-21
9715,-5,-252,-71,-23,62,-19
9720,2,-251,-74,-24,62,-18
9725,3,-252,-69,-23,62,-16
9730,3,-253,-77,-21,63,-15
9735,1,-249,-72,-19,65,-13
9740,3,-253,-74,-15,66,-11
9745,4,-249,-70,-9,66,-8
9750,4,-251,-73,-3,66,-7
9755,3,-250,-73,3,64,-7
9760,3,-252,-70,7,64,-6
9765,4,-250,-73,9,63,-6
9770,2,-251,-75,7,64,-6
9775,3,-249,-74,1,65,-4
9780,2,-251,-74,-3,66,-4
9785,2,-249,-73,-7,67,-5
9790,1,-252,-74,-11,69,-6
9795,2,-248,-69,-14,71,-6
9800,4,-254,-74,-11,72,-5
9805,2,-249,-73,-10,72,-5
9810,4,-252,-72,-6,72,-5
9815,2,-250,-72,-2,73,-3
9820,-1,-252,-65,0,76,-3
9825,3,-249,-71,1,77,-3
9830,2,-247,-70,1,76,-2
9835,2,-248,-71,-2,74,-1
9840,2,-248,-70,-6,74,1
9845,3,-249,-72,-11,73,0
9850,3,-251,-72,-16,73,1
9855,4,-249,-69,-19,74,2
9860,2,-254,-74,-21,74,3
9865,1,-249,-75,-22,78,4
9870,3,-251,-72,-21,81,3
9875,2,-249,-71,-20,82,2
9880,2,-249,-70,-20,83,3
9885,4,-252,-70,-17,83,4
9890,3,-251,-70,-16,86,4
9895,4,-250,-71,-14,88,4
9900,4,-249,-71,-12,90,5
9905,4,-248,-68,-10,88,6
9910,4,-253,-68,-8,89,7
9915,4,-248,-69,-9,88,7
9920,3,-252,-70,-10,87,8
9925,5,-255,-71,-16,88,7
9930,3,-251,-71,-20,89,6
9935,4,-252,-71,-24,91,10
9940,4,-253,-72,-28,93,10
9945,4,-253,-70,-31,96,10
9950,5,-254,-72,-29,97,11
9955,4,-255,-73,-25,97,10
9960,3,-252,-70,-17,98,11
9965,4,-255,-69,-9,98,11
9970,2,-254,-68,0,98,11
9975,3,-249,-69,7,99,10
9980,2,-251,-71,11,99,12
9985,2,-250,-67,11,100,12
9990,3,-248,-68,12,98,11
9995,1,-250,-72,11,97,12
10000,1,-249,-71,8,98,10
10005,1,-246,-71,5,97,11
10010,3,-248,-68,0,97,10
10015,4,-249,-68,-5,95,9
10020,3,-250,-67,-9,94,9
10025,2,-252,-73,-15,92,8
10030,1,-247,-67,-22,92,6
10035,3,-250,-71,-26,90,5
10040,2,-251,-70,-28,89,3
10045,1,-252,-68,-29,88,2
10050,4,-252,-69,-28,85,4
10055,0,-250,-65,-26,84,3
10060,3,-252,-71,-24,82,5
10065,2,-252,-70,-19,81,3
10070,2,-254,-72,-13,80,2
10075,1,-253,-68,-8,79,4
10080,3,-252,-70,-6,77,5
10085,3,-251,-69,-3,77,5
10090,1,-250,-72,-2,76,4
10095,3,-253,-71,-5,75,3
10100,3,-254,-72,-5,75,3
10105,4,-252,-70,-8,74,1
10110,2,-254,-73,-9,76,1
10115,4,-253,-72,-8,75,-1
10120,4,-255,-71,-6,75,-2
10125,-1,-253,-68,-2,77,-1
10130,2,-252,-68,2,78,-2
10135,4,-254,-68,5,79,-3
10140,1,-252,-67,5,79,-4
10145,3,-249,-73,6,78,-5
10150,0,-252,-70,3,78,-6
10155,4,-250,-70,1,77,-7
10160,0,-249,-68,-1,76,-6
10165,2,-251,-69,-3,73,-6
10170,3,-249,-71,-6,72,-6
10175,4,-253,-71,-6,71,-6
10180,-1,-250,-70,-6,68,-6
10185,3,-251,-68,-5,69,-5
10190,1,-249,-65,-5,67,-5
10195,0,-249,-70,-6,64,-5
10200,1,-254,-71,-8,64,-4
10205,1,-251,-70,-9,62,-3
10210,-1,-249,-68,-12,61,-2
10215,0,-252,-67,-13,61,-3
10220,0,-251,-68,-13,59,-2
10225,4,-251,-72,-16,57,-3
10230,0,-249,-69,-16,57,-2
10235,2,-252,-68,-16,56,-2
10240,1,-249,-67,-18,59,-1
10245,0,-250,-71,-19,60,-2
10250,2,-250,-67,-24,62,-2
10255,0,-250,-65,-25,65,-2
10260,4,-254,-68,-25,65,-3
10265,-1,-247,-68,-25,62,-4
10270,3,-251,-66,-26,61,-3
10275,4,-253,-69,-27,58,-3
10280,3,-251,-69,-29,57,-4
10285,2,-252,-70,-31,56,-4
10290,4,-253,-68,-33,54,-3
10295,2,-253,-70,-34,51,-3
10300,2,-253,-70,-33,48,-2
10305,2,-255,-70,-33,48,-2
10310,3,-255,-70,-30,46,-2
10315,1,-252,-66,-27,46,-2
10320,2,-252,-66,-24,47,-2
10325,-2,-253,-69,-22,50,0
10330,1,-250,-72,-21,54,1
10335,0,-253,-66,-21,56,1
10340,1,-249,-72,-19,58,2
10345,1,-251,-69,-18,59,2
10350,0,-252,-73,-20,59,2
10355,1,-249,-71,-20,60,2
10360,-1,-249,-70,-20,58,4
10365,-1,-250,-66,-19,58,3
10370,1,-250,-72,-19,58,2
10375,3,-251,-72,-19,57,4
10380,-6,-250,-80,-20,57,3
10385,-5,-252,-63,-21,57,3
10390,4,-248,-75,-23,57,4
10395,4,-249,-68,-23,53,3
10400,3,-251,-67,-25,52,1
10405,5,-247,-66,-29,51,1
10410,-15,-263,-70,-32,51,1
10415,7,-262,-71,-37,52,0
10420,5,-245,-71,-41,51,1
10425,2,-250,-69,-41,52,0
10430,4,-254,-73,-42,50,0
10435,2,-252,-66,-40,51,-1
10440,2,-252,-70,-37,51,0
10445,3,-251,-70,-33,53,-2
10450,1,-246,-66,-31,52,0
10455,6,-252,-76,-28,55,1
10460,7,-248,-75,-27,58,0
10465,4,-250,-65,-25,57,1
10470,10,-241,-76,-25,57,0
10475,0,-250,-65,-27,55,1
10480,4,-253,-69,-28,55,1
10485,6,-244,-78,-29,55,0
10490,5,-257,-67,-34,54,0
10495,1,-253,-57,-39,54,0
10500,4,-249,-66,-42,55,-2
10505,4,-251,-69,-45,56,0
10510,3,-252,-71,-46,59,-1
10515,4,-254,-63,-45,58,-3
10520,3,-256,-68,-42,61,-3
10525,7,-247,-62,-41,61,-3
10530,0,-255,-64,-40,64,-4
10535,8,-246,-72,-37,63,-6
10540,9,-249,-88,-37,64,-7
10545,-4,-246,-57,-38,64,-7
10550,-6,-241,-71,-41,63,-7
10555,-12,-250,-62,-45,64,-7
10560,3,-249,-67,-47,63,-7
10565,-1,-256,-65,-49,63,-8
10570,3,-242,-74,-49,62,-8
10575,4,-252,-68,-49,62,-8
10580,2,-253,-71,-47,63,-8
10585,2,-251,-72,-45,63,-8
10590,1,-252,-71,-41,63,-8
10595,7,-261,-70,-38,62,-9
10600,-14,-249,-70,-35,62,-9
10605,-4,-239,-71,-33,59,-8
10610,13,-238,-77,-33,58,-7
10615,11,-252,-65,-34,58,-7
10620,-2,-255,-75,-36,57,-5
10625,5,-249,-57,-38,57,-4
10630,0,-253,-63,-42,57,-4
10635,4,-248,-76,-43,58,-3
10640,16,-255,-69,-44,57,-2
10645,6,-257,-72,-44,58,-4
10650,5,-251,-70,-46,57,-3
10655,3,-252,-68,-46,57,-3
10660,5,-252,-69,-45,59,-3
10665,2,-253,-69,-45,60,-2
10670,2,-251,-72,-45,60,-3
10675,4,-256,-73,-42,62,-2
10680,6,-255,-67,-37,62,-4
10685,2,-254,-66,-32,61,-3
10690,3,-254,-72,-26,59,-4
10695,2,-253,-73,-21,59,-5
10700,5,-259,-73,-15,60,-4
10705,2,-258,-73,-10,59,-6
10710,0,-252,-65,-8,59,-6
10715,4,-252,-76,-5,57,-5
10720,-1,-245,-69,-4,57,-6
10725,1,-250,-69,-3,56,-7
10730,1,-252,-70,-5,55,-7
10735,3,-252,-70,-6,54,-7
10740,0,-251,-68,-9,54,-8
10745,10,-249,-69,-11,53,-8
10750,-6,-253,-71,-11,51,-8
10755,-2,-248,-65,-11,49,-7
10760,3,-247,-70,-12,49,-8
10765,-3,-253,-76,-13,47,-10
10770,5,-253,-72,-15,46,-9
10775,-1,-254,-65,-14,45,-8
10780,-2,-253,-70,-13,44,-9
10785,4,-251,-67,-12,42,-10
10790,4,-250,-74,-9,42,-10
10795,-8,-242,-78,-7,41,-9
10800,0,-252,-69,-7,41,-10
10805,-1,-251,-68,-7,40,-10
10810,1,-255,-68,-6,41,-11
10815,1,-249,-70,-5,42,-13
10820,8,-249,-73,-4,42,-12
10825,2,-246,-74,-4,44,-12
10830,4,-262,-69,-5,46,-11
10835,-8,-250,-83,-7,45,-10
10840,2,-247,-70,-8,46,-9
10845,-1,-258,-74,-6,46,-10
10850,0,-251,-69,-4,47,-9
10855,2,-252,-68,-1,47,-9
10860,4,-251,-69,0,47,-10
10865,0,-253,-69,1,49,-9
10870,4,-252,-67,2,51,-7
10875,2,-251,-67,1,50,-10
10880,3,-252,-73,-1,50,-8
10885,1,-248,-69,-3,49,-8
10890,-3,-248,-74,-5,48,-9
10895,3,-252,-72,-8,47,-9
10900,0,-248,-71,-10,45,-11
10905,3,-250,-71,-12,44,-11
10910,0,-250,-73,-14,44,-12
10915,-1,-248,-72,-15,43,-12
10920,-1,-250,-69,-16,43,-11
10925,2,-250,-73,-15,43,-11
10930,-1,-252,-70,-13,43,-11
10935,3,-250,-71,-10,43,-11
10940,-14,-252,-70,-11,42,-11
10945,-2,-251,-71,-10,41,-13
10950,0,-251,-69,-10,41,-12
10955,0,-251,-69,-9,42,-13
10960,0,-250,-69,-10,42,-13
10965,-1,-252,-69,-10,45,-14
10970,0,-253,-73,-9,46,-13
10975,-1,-252,-71,-8,48,-13
10980,4,-253,-73,-6,49,-12
10985,3,-249,-70,-4,52,-13
10990,2,-251,-74,-3,53,-13
10995,2,-253,-66,-3,55,-12
11000,2,-251,-70,-3,56,-12
11005,0,-248,-70,-4,56,-11
11010,4,-252,-70,-6,56,-12
11015,-1,-250,-72,-9,56,-11
11020,4,-252,-72,-10,55,-9
11025,2,-249,-73,-11,57,-7
11030,1,-253,-71,-13,57,-8
11035,3,-249,-68,-13,57,-6
11040,2,-248,-67,-14,57,-6
11045,4,-251,-72,-13,57,-6
11050,4,-252,-67,-12,57,-6
11055,2,-252,-72,-11,57,-5
11060,3,-252,-70,-12,59,-5
11065,2,-253,-71,-12,63,-4
11070,2,-249,-74,-13,65,-3
11075,4,-245,-73,-14,67,-2
11080,3,-252,-71,-14,68,-1
11085,2,-253,-74,-13,70,-1
11090,1,-250,-71,-12,70,0
11095,2,-251,-70,-11,70,1
11100,1,-254,-70,-6,72,1
11105,4,-252,-73,-4,72,3
11110,0,-253,-70,-1,74,3
11115,2,-251,-70,1,75,2
11120,4,-252,-70,2,76,3
11125,-2,-251,-69,3,77,4
11130,2,-250,-74,3,78,3
11135,-1,-247,-69,3,76,4
11140,2,-249,-72,3,78,4
11145,2,-249,-67,3,79,3
11150,2,-251,-70,0,79,4
11155,1,-249,-74,-2,80,4
11160,4,-251,-73,-3,81,2
11165,4,-252,-70,-3,84,2
11170,1,-249,-70,-2,85,1
11175,2,-251,-73,-3,86,2
11180,3,-251,-70,-3,87,3
11185,1,-248,-77,-2,87,3
11190,1,-249,-70,-1,86,2
11195,3,-251,-75,-2,84,3
11200,0,-247,-70,-2,85,3
11205,1,-248,-69,-5,84,3
11210,2,-251,-71,-9,83,4
11215,2,-253,-70,-11,84,5
11220,2,-252,-71,-11,83,5
11225,1,-250,-72,-12,80,5
11230,-1,-253,-68,-9,80,5
11235,-1,-253,-71,-7,81,5
11240,2,-251,-71,-6,82,3
11245,2,-253,-71,-3,81,4
11250,4,-255,-75,-1,82,5
11255,2,-249,-70,0,84,5
11260,2,-251,-72,0,85,4
11265,0,-250,-73,1,86,4
11270,4,-249,-72,0,86,1
11275,-2,-253,-71,1,85,3
11280,-3,-249,-71,0,85,1
11285,0,-251,-72,1,85,2
11290,0,-248,-72,-1,84,2
11295,1,-250,-73,-1,83,2
11300,-1,-251,-70,-1,82,1
11305,0,-252,-69,-2,83,0
11310,1,-252,-69,-2,82,1
11315,2,-253,-69,-2,80,0
11320,-2,-251,-72,-2,79,-1
11325,-1,-249,-72,-2,76,-1
11330,-3,-252,-74,-4,74,0
11335,-5,-251,-72,-4,73,-1
11340,1,-250,-70,-6,72,-1
11345,1,-251,-70,-6,72,-1
11350,0,-247,-76,-8,70,-1
11355,3,-252,-70,-6,71,-1
11360,2,-251,-71,-5,71,-1
11365,-1,-251,-74,-4,74,0
11370,0,-251,-70,-3,73,-1
11375,2,-249,-66,-3,74,0
11380,3,-249,-66,-4,72,0
11385,-2,-248,-68,-6,72,-1
11390,-3,-250,-70,-7,70,-2
11395,2,-251,-71,-7,69,-1
11400,4,-250,-71,-9,69,-1
11405,0,-249,-68,-9,69,0
11410,0,-246,-67,-9,68,-1
11415,0,-252,-69,-10,69,-1
11420,-1,-253,-72,-11,70,-1
11425,3,-252,-71,-13,71,-1
11430,4,-253,-68,-14,71,-2
11435,1,-253,-67,-17,72,-3
11440,0,-250,-72,-18,71,-1
11445,0,-251,-72,-20,72,-2
11450,2,-251,-69,-24,71,-3
11455,3,-251,-70,-23,70,-4
11460,-11,-257,-71,-22,68,-4
11465,1,-252,-68,-20,68,-4
11470,-2,-250,-72,-17,67,-2
11475,3,-251,-70,-13,68,-4
11480,3,-252,-73,-13,68,-4
11485,3,-253,-68,-13,69,-4
11490,-1,-249,-69,-15,69,-5
11495,1,-246,-69,-18,69,-4
11500,3,-251,-71,-21,66,-5
11505,4,-251,-72,-25,66,-4
11510,2,-251,-67,-28,66,-3
11515,-4,-251,-69,-29,64,-5
11520,0,-253,-70,-30,64,-3
11525,1,-252,-72,-27,63,-4
11530,0,-253,-69,-22,61,-6
11535,1,-252,-68,-19,61,-4
11540,0,-250,-68,-16,60,-3
11545,1,-251,-70,-13,59,-3
11550,1,-251,-69,-11,59,-5
11555,4,-250,-71,-10,57,-4
11560,2,-252,-74,-12,57,-2
11565,1,-253,-72,-11,58,-2
11570,5,-250,-74,-11,61,-3
11575,1,-254,-66,-12,62,-4
11580,1,-253,-70,-12,65,-2
11585,2,-252,-69,-12,67,-3
11590,2,-253,-69,-13,70,-2
11595,2,-253,-70,-10,72,-2
11600,2,-254,-67,-9,72,-4
11605,4,-251,-71,-5,72,-3
11610,4,-252,-69,-2,72,-1
11615,4,-252,-69,-1,73,-3
11620,2,-253,-66,-1,73,-4
11625,1,-251,-69,0,73,-3
11630,4,-252,-71,-2,74,-3
11635,1,-249,-67,-5,73,-6
11640,4,-251,-71,-6,75,-4
11645,4,-253,-69,-7,76,-3
11650,2,-249,-74,-6,77,-3
11655,4,-250,-72,-7,78,-4
11660,2,-252,-67,-7,77,-4
11665,4,-250,-69,-6,75,-3
11670,0,-252,-68,-7,73,-2
11675,0,-253,-66,-8,72,-2
11680,2,-250,-67,-10,71,-1
11685,3,-253,-67,-10,72,-1
11690,3,-252,-68,-12,71,0
11695,-3,-251,-65,-14,71,0
11700,2,-251,-69,-15,71,-1
11705,2,-254,-73,-18,71,-1
11710,-1,-252,-69,-20,73,-2
11715,-2,-253,-70,-20,73,-1
11720,1,-252,-68,-20,75,-1
11725,3,-256,-71,-18,77,-1
11730,2,-252,-71,-18,75,-1
11735,2,-252,-70,-16,75,-2
11740,1,-254,-70,-14,77,-2
11745,1,-253,-72,-11,79,-2
11750,1,-253,-71,-11,80,-2
11755,2,-251,-67,-9,81,-3
11760,3,-253,-70,-8,81,-1
11765,1,-252,-69,-8,80,-2
11770,-3,-247,-70,-9,80,-3
11775,3,-254,-67,-10,80,-2
11780,3,-250,-67,-10,79,-3
11785,1,-251,-68,-11,79,-4
11790,2,-252,-68,-12,77,-4
11795,-3,-248,-70,-11,77,-4
11800,0,-252,-67,-10,78,-5
11805,2,-253,-71,-9,76,-5
11810,3,-250,-71,-11,75,-6
11815,-3,-250,-70,-12,73,-6
11820,-4,-248,-72,-16,71,-6
11825,0,-245,-71,-19,71,-6
11830,-3,-250,-73,-21,70,-5
11835,2,-251,-68,-23,71,-5
11840,0,-254,-71,-24,69,-4
11845,-2,-252,-69,-23,68,-5
11850,0,-253,-69,-24,68,-5
11855,4,-251,-70,-21,67,-5
11860,3,-252,-69,-19,65,-4
11865,0,-250,-70,-17,66,-4
11870,3,-253,-68,-16,66,-5
11875,3,-252,-71,-16,65,-4
11880,4,-248,-69,-15,66,-4
11885,4,-250,-68,-17,67,-6
11890,1,-252,-68,-18,68,-5
11895,4,-254,-69,-18,68,-5
11900,2,-251,-73,-18,69,-7
11905,1,-252,-69,-20,69,-9
11910,1,-252,-68,-20,69,-8
11915,1,-250,-69,-20,69,-8
11920,0,-253,-69,-21,68,-8
11925,0,-250,-73,-21,67,-8
11930,1,-249,-69,-20,67,-7
11935,0,-250,-68,-19,67,-6
11940,1,-250,-68,-18,66,-8
11945,2,-249,-69,-18,64,-6
11950,3,-252,-72,-18,63,-6
11955,0,-250,-71,-17,63,-6
11960,-3,-247,-69,-19,62,-6
11965,1,-251,-72,-20,62,-6
11970,-1,-252,-75,-22,63,-5
11975,3,-253,-68,-26,63,-6
11980,2,-250,-70,-25,62,-7
11985,4,-253,-71,-26,62,-7
11990,3,-253,-71,-24,63,-7
11995,1,-252,-71,-23,63,-6
