timestamp,acc_x,acc_y,acc_z,gyro_x,gyro_y,gyro_z
0,9,-238,-68,56,0,-13
5,10,-240,-71,54,0,-13
10,11,-239,-70,53,-1,-11
15,12,-237,-70,52,-2,-12
20,12,-236,-69,49,-2,-12
25,15,-241,-73,49,-2,-13
30,7,-241,-68,49,-1,-12
35,12,-239,-71,50,0,-12
40,13,-238,-70,50,0,-12
45,9,-239,-72,53,2,-12
50,10,-235,-69,56,4,-13
55,11,-240,-68,58,5,-13
60,8,-236,-71,58,5,-16
65,13,-237,-72,58,5,-16
70,7,-238,-73,57,5,-14
75,14,-238,-68,57,3,-16
80,11,-238,-73,56,2,-15
85,10,-239,-68,53,3,-14
90,10,-237,-72,51,1,-16
95,10,-236,-73,51,0,-16
100,11,-237,-73,49,-1,-14
105,14,-237,-73,48,-2,-14
110,14,-236,-70,47,-3,-14
115,8,-238,-73,46,-4,-13
120,10,-237,-74,46,-4,-11
125,14,-239,-71,47,-3,-12
130,11,-231,-73,48,-5,-12
135,12,-239,-75,50,-4,-12
140,11,-236,-75,50,-7,-12
145,10,-240,-71,51,-6,-13
150,12,-236,-67,52,-7,-16
155,11,-237,-71,50,-7,-17
160,13,-237,-70,50,-7,-18
165,14,-235,-75,50,-7,-17
170,12,-237,-69,51,-7,-16
175,11,-236,-72,51,-6,-17
180,13,-235,-75,50,-6,-14
185,10,-243,-65,48,-5,-14
190,11,-239,-68,47,-5,-14
195,12,-238,-71,46,-5,-15
200,10,-236,-70,44,-5,-16
205,13,-238,-72,44,-4,-16
210,12,-238,-71,44,-4,-18
215,9,-237,-70,45,-5,-16
220,16,-238,-69,45,-6,-17
225,13,-237,-66,47,-6,-14
230,13,-236,-74,48,-5,-14
235,15,-238,-68,47,-7,-15
240,13,-236,-80,47,-8,-15
245,12,-235,-70,44,-8,-14
250,13,-235,-69,43,-9,-14
255,14,-237,-73,40,-9,-14
260,13,-236,-69,40,-9,-13
265,12,-237,-71,39,-7,-13
270,11,-239,-72,36,-5,-13
275,12,-236,-72,34,-3,-12
280,9,-234,-72,32,0,-9
285,13,-242,-69,30,3,-10
290,11,-235,-68,30,4,-10
295,17,-241,-70,29,6,-10
300,13,-238,-69,29,7,-12
305,13,-240,-70,31,8,-12
310,11,-236,-74,32,9,-12
315,14,-236,-71,34,9,-13
320,14,-236,-71,36,12,-14
325,13,-235,-73,37,12,-14
330,18,-239,-71,38,14,-13
335,15,-235,-70,37,14,-14
340,11,-236,-74,34,14,-13
345,20,-234,-68,31,15,-14
350,14,-239,-68,27,15,-13
355,17,-238,-68,25,14,-13
360,13,-237,-72,21,15,-14
365,9,-238,-75,22,12,-13
370,12,-237,-71,20,10,-10
375,12,-239,-67,21,9,-9
380,10,-239,-69,21,11,-10
385,11,-236,-68,22,9,-10
390,12,-240,-74,23,8,-11
395,9,-240,-72,25,6,-12
400,10,-241,-72,29,5,-12
405,13,-236,-66,32,4,-13
410,12,-240,-74,35,5,-13
415,13,-240,-77,39,4,-14
420,12,-237,-73,44,6,-13
425,13,-236,-73,45,6,-13
430,13,-234,-76,45,7,-12
435,12,-236,-73,44,8,-12
440,14,-236,-72,43,11,-12
445,15,-238,-70,41,12,-12
450,14,-233,-69,39,11,-13
455,10,-234,-71,36,10,-12
460,11,-230,-70,31,10,-10
465,13,-237,-70,29,9,-12
470,13,-238,-71,27,9,-13
475,12,-237,-70,25,8,-12
480,12,-233,-73,26,7,-11
485,13,-235,-71,25,9,-11
490,12,-240,-74,22,10,-9
495,9,-238,-72,22,11,-11
500,12,-238,-70,19,10,-11
505,9,-237,-73,19,12,-10
510,12,-235,-73,18,11,-12
515,10,-234,-77,18,11,-12
520,11,-237,-71,20,10,-13
525,12,-239,-72,20,11,-12
530,14,-239,-72,21,11,-11
535,9,-237,-75,21,11,-12
540,12,-241,-76,23,10,-10
545,9,-240,-75,23,11,-10
550,12,-240,-78,25,9,-8
555,12,-237,-76,26,11,-9
560,15,-238,-73,28,12,-9
565,11,-239,-73,29,12,-9
570,11,-238,-72,30,13,-11
575,11,-237,-74,29,14,-10
580,10,-235,-72,31,14,-9
585,11,-239,-68,32,15,-8
590,12,-238,-66,33,15,-8
595,14,-237,-71,34,15,-8
600,11,-233,-75,36,14,-10
605,12,-239,-73,35,12,-9
610,11,-237,-71,34,12,-10
615,10,-237,-68,33,13,-9
620,16,-239,-66,31,12,-11
625,11,-232,-73,30,12,-9
630,13,-237,-73,27,12,-10
635,11,-235,-72,25,12,-8
640,12,-237,-70,22,11,-10
645,11,-235,-72,22,11,-11
650,11,-235,-73,21,10,-12
655,10,-236,-77,21,9,-13
660,8,-233,-71,22,9,-11
665,14,-240,-74,23,8,-13
670,9,-236,-73,22,7,-13
675,8,-240,-70,23,5,-12
680,10,-236,-72,23,4,-13
685,10,-238,-73,26,2,-11
690,11,-238,-74,25,-1,-13
695,12,-238,-73,26,-2,-12
700,10,-241,-71,28,-4,-11
705,11,-238,-73,31,-5,-12
710,11,-235,-79,34,-5,-11
715,12,-237,-79,34,-6,-11
720,8,-237,-76,35,-5,-10
725,14,-233,-71,35,-6,-12
730,9,-236,-69,34,-7,-11
735,11,-238,-74,34,-7,-13
740,12,-236,-71,32,-6,-12
745,11,-233,-77,30,-6,-13
750,10,-236,-72,27,-5,-13
755,13,-234,-71,26,-2,-12
760,12,-235,-77,23,-3,-13
765,12,-233,-75,20,-2,-14
770,15,-238,-73,17,-2,-13
775,17,-233,-70,17,-4,-15
780,14,-234,-73,15,-5,-17
785,12,-242,-69,14,-6,-17
790,11,-238,-73,12,-9,-16
795,13,-232,-76,10,-12,-16
800,11,-238,-74,10,-15,-16
805,11,-235,-75,11,-18,-18
810,9,-237,-73,11,-19,-17
815,10,-239,-76,11,-22,-20
820,13,-238,-70,11,-24,-23
825,8,-237,-72,10,-26,-24
830,13,-240,-75,10,-28,-25
835,8,-237,-74,11,-28,-26
840,7,-229,-71,13,-29,-27
845,11,-236,-75,15,-29,-27
850,8,-234,-75,16,-31,-28
855,9,-235,-71,16,-32,-30
860,9,-232,-75,14,-34,-30
865,10,-235,-73,11,-35,-32
870,11,-233,-74,6,-38,-34
875,9,-231,-76,2,-42,-37
880,11,-231,-76,-4,-46,-38
885,13,-235,-72,-9,-51,-40
890,13,-231,-69,-13,-55,-41
895,14,-235,-69,-19,-56,-44
900,10,-229,-73,-28,-56,-46
905,12,-228,-71,-36,-56,-47
910,13,-227,-77,-47,-56,-49
915,12,-225,-76,-62,-55,-49
920,11,-223,-79,-75,-54,-49
925,15,-223,-78,-91,-53,-51
930,15,-225,-79,-106,-52,-51
935,13,-221,-81,-124,-52,-49
940,17,-223,-75,-142,-50,-48
945,17,-225,-82,-159,-48,-45
950,17,-211,-83,-172,-46,-45
955,19,-222,-77,-184,-46,-43
960,21,-220,-80,-196,-47,-43
965,23,-219,-81,-209,-45,-44
970,22,-217,-80,-225,-41,-45
975,29,-217,-80,-246,-33,-42
980,28,-218,-86,-273,-18,-43
985,27,-218,-82,-299,-4,-39
990,29,-220,-83,-324,9,-38
995,32,-223,-81,-346,19,-34
1000,28,-222,-79,-361,29,-32
1005,30,-221,-83,-365,40,-29
1010,31,-226,-76,-367,48,-22
1015,32,-225,-79,-360,54,-15
1020,34,-227,-78,-355,57,-8
1025,33,-229,-78,-349,60,1
1030,33,-233,-77,-341,59,8
1035,29,-236,-78,-332,55,16
1040,33,-237,-78,-321,49,22
1045,33,-240,-78,-312,40,29
1050,33,-244,-74,-302,31,36
1055,29,-248,-79,-294,21,40
1060,29,-247,-80,-286,10,42
1065,24,-249,-78,-275,-2,44
1070,27,-255,-77,-263,-14,43
1075,25,-257,-77,-248,-25,40
1080,20,-258,-78,-229,-37,37
1085,15,-259,-78,-211,-45,29
1090,11,-258,-80,-188,-54,25
1095,14,-257,-79,-164,-62,22
1100,17,-256,-80,-140,-65,19
1105,18,-254,-82,-117,-64,16
1110,22,-249,-79,-97,-62,11
1115,24,-248,-81,-84,-53,10
1120,26,-244,-86,-73,-46,12
1125,34,-242,-87,-63,-37,12
1130,32,-238,-84,-57,-29,14
1135,37,-234,-85,-54,-24,19
1140,40,-226,-85,-58,-20,25
1145,41,-225,-85,-70,-13,34
1150,43,-220,-90,-88,-11,46
1155,44,-221,-92,-109,-11,58
1160,45,-213,-89,-133,-16,72
1165,42,-215,-89,-159,-25,85
1170,41,-210,-90,-188,-38,98
1175,38,-209,-90,-220,-54,110
1180,33,-211,-93,-249,-74,124
1185,31,-211,-89,-276,-98,138
1190,24,-211,-88,-299,-124,149
1195,22,-211,-87,-318,-151,164
1200,18,-215,-94,-335,-178,176
1205,10,-212,-90,-350,-205,184
1210,5,-216,-92,-358,-234,190
1215,1,-214,-96,-363,-264,195
1220,-6,-219,-96,-361,-299,199
1225,-10,-218,-98,-350,-337,201
1230,-16,-218,-104,-335,-376,206
1235,-25,-225,-103,-310,-412,205
1240,-32,-226,-108,-280,-445,199
1245,-37,-224,-102,-245,-469,184
1250,-42,-229,-101,-210,-482,167
1255,-45,-226,-94,-182,-480,148
1260,-49,-229,-90,-158,-463,131
1265,-50,-238,-81,-143,-435,113
1270,-49,-240,-70,-136,-406,93
1275,-40,-258,-66,-132,-383,69
1280,-33,-261,-64,-122,-368,47
1285,-23,-272,-60,-105,-356,26
1290,-16,-281,-63,-73,-339,14
1295,-13,-284,-70,-31,-315,3
1300,-6,-283,-67,12,-286,-3
1305,1,-285,-73,54,-257,-8
1310,3,-282,-75,87,-233,-11
1315,10,-278,-78,113,-213,-12
1320,19,-271,-73,131,-192,-11
1325,24,-267,-70,145,-170,-6
1330,25,-270,-70,151,-148,-1
1335,32,-261,-75,150,-126,6
1340,28,-256,-76,145,-110,17
1345,31,-253,-73,134,-98,31
1350,26,-249,-83,117,-92,48
1355,26,-246,-78,97,-88,71
1360,20,-243,-83,80,-85,94
1365,19,-239,-83,68,-85,119
1370,13,-237,-80,61,-86,143
1375,10,-234,-79,60,-86,165
1380,4,-228,-83,61,-87,185
1385,-3,-226,-80,63,-90,200
1390,-8,-227,-78,63,-97,214
1395,-11,-227,-74,65,-106,221
1400,-17,-220,-71,66,-114,224
1405,-22,-222,-69,70,-121,223
1410,-21,-225,-66,74,-125,219
1415,-20,-219,-70,78,-126,210
1420,-20,-220,-64,84,-123,198
1425,-23,-217,-65,88,-118,187
1430,-24,-212,-64,92,-109,174
1435,-32,-211,-66,95,-98,163
1440,-18,-212,-68,100,-85,153
1445,-22,-211,-69,104,-75,143
1450,-22,-207,-65,106,-66,136
1455,-23,-208,-69,109,-58,130
1460,-21,-211,-68,115,-52,125
1465,-21,-211,-66,120,-48,123
1470,-23,-214,-70,125,-49,119
1475,-18,-215,-73,125,-53,117
1480,-23,-216,-70,126,-59,112
1485,-26,-217,-70,122,-66,111
1490,-26,-212,-76,118,-73,109
1495,-23,-223,-69,111,-76,106
1500,-26,-221,-71,101,-79,104
1505,-22,-229,-70,85,-76,99
1510,-22,-230,-68,68,-72,95
1515,-18,-231,-70,51,-64,91
1520,-19,-230,-68,34,-54,86
1525,-16,-234,-68,20,-43,79
1530,-14,-238,-69,16,-30,72
1535,-10,-241,-66,19,-16,68
1540,-7,-242,-64,27,-2,62
1545,-12,-245,-62,42,12,55
1550,-5,-243,-63,65,24,50
1555,-6,-242,-62,90,34,46
1560,-2,-243,-60,114,47,41
1565,-1,-241,-62,137,59,39
1570,-1,-240,-61,153,71,36
1575,0,-239,-65,165,84,31
1580,-5,-235,-69,165,95,25
1585,-5,-232,-64,157,104,16
1590,-5,-233,-62,142,107,7
1595,-12,-231,-64,125,105,-2
1600,-15,-232,-60,108,98,-12
1605,-14,-236,-58,90,92,-23
1610,-16,-241,-55,69,92,-31
1615,-16,-240,-52,48,95,-36
1620,-14,-245,-49,28,103,-38
1625,-8,-249,-45,13,112,-38
1630,-5,-252,-46,3,120,-36
1635,-7,-254,-42,3,129,-36
1640,-2,-255,-43,14,137,-35
1645,1,-259,-41,37,144,-29
1650,1,-258,-41,73,152,-25
1655,7,-260,-46,117,158,-18
1660,4,-255,-41,161,162,-12
1665,3,-257,-43,201,164,-10
1670,5,-256,-41,234,167,-10
1675,5,-256,-39,258,169,-7
1680,5,-257,-35,272,177,-6
1685,2,-260,-36,277,185,-5
1690,-1,-260,-34,274,195,-3
1695,-4,-260,-37,266,208,-2
1700,0,-261,-37,252,220,1
1705,-2,-260,-52,236,237,8
1710,-9,-265,-55,218,255,16
1715,-16,-270,-69,196,270,21
1720,-17,-271,-81,166,269,26
1725,-15,-280,-108,124,244,34
1730,-13,-285,-131,64,193,52
1735,-16,-293,-151,-2,121,81
1740,-17,-302,-158,-53,47,114
1745,-25,-311,-144,-64,-10,149
1750,-37,-325,-118,-22,-53,183
1755,-46,-330,-98,61,-103,211
1760,-53,-332,-86,137,-172,236
1765,-54,-334,-77,179,-245,263
1770,-52,-331,-78,178,-300,294
1775,-48,-332,-76,144,-319,326
1780,-50,-326,-81,102,-305,349
1785,-53,-319,-93,69,-267,353
1790,-43,-312,-103,67,-217,331
1795,-45,-291,-114,97,-146,274
1800,-39,-270,-133,156,-48,190
1805,-42,-247,-141,218,69,97
1810,-46,-225,-147,256,189,18
1815,-43,-210,-146,257,296,-37
1820,-52,-212,-150,219,372,-82
1825,-47,-197,-142,157,421,-122
1830,-42,-190,-142,85,443,-144
1835,-31,-186,-139,2,456,-151
1840,-19,-183,-135,-87,466,-145
1845,-12,-174,-129,-175,473,-125
1850,1,-172,-122,-254,475,-97
1855,3,-167,-120,-308,470,-64
1860,7,-173,-116,-339,456,-26
1865,3,-178,-107,-350,426,8
1870,5,-180,-116,-346,377,43
1875,6,-187,-119,-326,314,70
1880,4,-191,-118,-293,243,91
1885,4,-193,-122,-243,174,103
1890,5,-197,-121,-170,116,105
1895,5,-199,-123,-81,73,95
1900,3,-200,-121,14,53,84
1905,2,-202,-119,100,50,73
1910,1,-205,-115,168,60,54
1915,2,-208,-115,219,78,30
1920,1,-211,-117,249,98,4
1925,-1,-212,-116,263,114,-25
1930,-5,-215,-118,251,129,-52
1935,-2,-218,-120,220,143,-82
1940,0,-218,-123,179,162,-109
1945,0,-220,-125,133,185,-136
1950,0,-223,-127,85,208,-164
1955,3,-223,-129,38,231,-194
1960,4,-225,-129,-6,250,-224
1965,8,-223,-127,-38,268,-248
1970,13,-224,-131,-66,289,-264
1975,5,-222,-127,-89,315,-278
1980,14,-220,-125,-101,340,-287
1985,12,-217,-120,-102,362,-291
1990,8,-214,-115,-95,376,-296
1995,11,-216,-108,-88,383,-294
2000,11,-212,-107,-83,384,-286
2005,11,-210,-103,-79,381,-273
2010,10,-208,-96,-78,378,-260
2015,9,-204,-91,-75,372,-245
2020,11,-206,-93,-71,365,-227
2025,4,-202,-93,-66,351,-211
2030,9,-204,-86,-55,340,-198
2035,10,-197,-86,-38,329,-182
2040,12,-193,-84,-20,316,-171
2045,10,-188,-81,0,304,-161
2050,12,-187,-83,16,292,-153
2055,17,-184,-86,33,283,-147
2060,16,-178,-88,46,278,-142
2065,18,-175,-84,51,273,-136
2070,21,-176,-84,47,266,-128
2075,20,-173,-81,38,262,-121
2080,25,-172,-79,22,256,-112
2085,26,-182,-78,5,250,-100
2090,26,-180,-77,-10,243,-87
2095,30,-182,-78,-22,241,-74
2100,32,-187,-77,-33,239,-62
2105,27,-187,-77,-43,241,-51
2110,30,-192,-76,-54,240,-40
2115,30,-195,-79,-65,236,-29
2120,27,-195,-78,-75,232,-18
2125,22,-205,-81,-85,228,-9
2130,20,-209,-81,-97,220,0
2135,14,-216,-77,-110,210,11
2140,8,-218,-77,-124,197,18
2145,11,-220,-71,-128,182,23
2150,9,-223,-75,-126,163,28
2155,6,-225,-74,-120,142,30
2160,5,-232,-71,-109,117,34
2165,1,-225,-69,-97,91,34
2170,1,-229,-65,-80,62,40
2175,-3,-228,-62,-61,32,45
2180,-3,-228,-58,-35,0,48
2185,-6,-229,-59,-5,-34,50
2190,-13,-233,-49,29,-70,52
2195,-11,-234,-52,69,-107,54
2200,-11,-238,-36,112,-144,56
2205,-4,-245,-34,158,-175,60
2210,-3,-245,-33,201,-189,60
2215,1,-249,-31,242,-196,69
2220,3,-253,-31,284,-198,71
2225,4,-258,-27,327,-205,70
2230,7,-264,-23,372,-218,66
2235,14,-268,-29,417,-226,59
2240,15,-272,-30,461,-229,52
2245,15,-274,-36,495,-220,42
2250,17,-271,-41,518,-196,34
2255,18,-275,-56,526,-155,27
2260,22,-270,-65,520,-98,24
2265,30,-262,-72,505,-25,28
2270,46,-251,-82,474,65,38
2275,65,-241,-85,429,165,46
2280,75,-239,-83,375,259,46
2285,91,-242,-75,321,336,38
2290,91,-246,-56,278,383,23
2295,90,-255,-42,250,396,1
2300,84,-261,-16,237,386,-20
2305,73,-263,-15,229,359,-44
2310,65,-270,-9,223,323,-64
2315,51,-277,-10,217,279,-81
2320,41,-285,-28,200,224,-92
2325,24,-296,-49,166,152,-94
2330,11,-295,-94,100,70,-102
2335,2,-308,-137,-7,-1,-117
2340,-10,-315,-184,-153,-25,-147
2345,-10,-333,-204,-281,49,-175
2350,2,-349,-195,-328,231,-215
2355,6,-352,-176,-254,457,-269
2360,6,-346,-149,-86,659,-324
2365,7,-333,-132,107,791,-362
2370,8,-326,-123,241,849,-375
2375,15,-322,-113,280,855,-382
2380,23,-320,-117,243,825,-389
2385,30,-317,-130,166,782,-390
2390,31,-301,-136,90,729,-374
2395,25,-290,-141,78,646,-340
2400,15,-271,-156,147,512,-294
2405,10,-253,-176,246,322,-246
2410,7,-236,-192,321,95,-197
2415,-13,-218,-202,355,-138,-145
2420,-33,-213,-200,353,-349,-92
2425,-56,-213,-192,338,-514,-40
2430,-71,-219,-186,330,-623,12
2435,-78,-223,-166,341,-676,49
2440,-73,-231,-154,365,-684,63
2445,-66,-231,-147,388,-654,52
2450,-57,-228,-141,393,-589,24
2455,-49,-222,-140,379,-493,-12
2460,-36,-221,-131,345,-386,-50
2465,-22,-213,-125,298,-292,-93
2470,-11,-205,-119,243,-205,-143
2475,-1,-195,-117,183,-154,-196
2480,-2,-189,-124,118,-119,-238
2485,10,-189,-118,49,-96,-271
2490,10,-189,-112,-9,-87,-288
2495,27,-195,-99,-55,-94,-292
2500,32,-180,-109,-68,-118,-283
2505,36,-197,-115,-59,-148,-257
2510,55,-186,-108,-41,-183,-212
2515,56,-198,-112,-22,-221,-152
2520,58,-199,-106,-9,-260,-81
2525,57,-207,-101,5,-301,-1
2530,49,-212,-105,18,-344,72
2535,51,-214,-102,31,-382,138
2540,48,-207,-109,43,-409,196
2545,40,-204,-121,45,-419,243
2550,31,-201,-118,36,-412,282
2555,12,-196,-116,18,-387,316
2560,4,-189,-115,-6,-348,338
2565,-6,-181,-108,-36,-309,351
2570,-11,-181,-92,-65,-276,354
2575,-15,-185,-92,-88,-248,349
2580,-17,-187,-79,-97,-222,342
2585,-20,-185,-69,-92,-198,327
2590,-23,-181,-68,-74,-174,307
2595,-29,-175,-67,-42,-149,282
2600,-28,-168,-63,5,-127,257
2605,-25,-168,-60,64,-109,237
2610,-30,-161,-62,125,-97,214
2615,-30,-151,-67,183,-87,191
2620,-29,-157,-65,229,-80,166
2625,-30,-150,-71,259,-72,147
2630,-25,-154,-72,272,-64,128
2635,-21,-153,-76,270,-56,110
2640,-28,-153,-76,258,-54,95
2645,-24,-157,-73,236,-57,81
2650,-31,-160,-64,216,-67,70
2655,-33,-168,-68,197,-84,59
2660,-33,-177,-73,182,-107,51
2665,-32,-178,-67,165,-129,42
2670,-28,-184,-64,146,-151,33
2675,-30,-190,-68,129,-173,23
2680,-34,-192,-70,113,-194,8
2685,-30,-197,-68,90,-212,-7
2690,-31,-197,-65,71,-221,-25
2695,-27,-205,-68,62,-221,-47
2700,-20,-212,-55,60,-211,-72
2705,-13,-219,-49,65,-192,-98
2710,-8,-223,-44,74,-168,-122
2715,0,-230,-45,94,-146,-144
2720,-1,-231,-45,118,-125,-166
2725,5,-238,-41,145,-107,-181
2730,8,-238,-37,172,-97,-193
2735,11,-242,-43,196,-88,-197
2740,6,-239,-47,214,-81,-195
2745,7,-243,-48,228,-77,-190
2750,5,-245,-51,242,-77,-183
2755,3,-241,-43,258,-83,-175
2760,4,-243,-43,276,-92,-168
2765,5,-244,-43,290,-100,-158
2770,8,-242,-48,301,-103,-148
2775,10,-244,-45,304,-103,-138
2780,12,-244,-49,297,-98,-127
2785,14,-245,-49,277,-92,-115
2790,8,-243,-44,251,-85,-106
2795,11,-248,-46,227,-83,-98
2800,10,-246,-46,206,-80,-90
2805,6,-252,-49,178,-82,-86
2810,4,-253,-49,143,-92,-81
2815,0,-258,-58,102,-124,-76
2820,-8,-260,-57,59,-176,-68
2825,-14,-263,-60,26,-237,-51
2830,-19,-265,-53,4,-277,-22
2835,-20,-271,-51,-7,-282,10
2840,-19,-280,-44,2,-245,41
2845,-21,-284,-26,26,-187,64
2850,-9,-292,-11,60,-114,77
2855,0,-301,-2,100,-33,91
2860,14,-308,12,130,56,104
2865,27,-315,20,144,148,119
2870,47,-321,25,138,234,132
2875,51,-329,23,119,306,144
2880,56,-325,20,86,365,154
2885,62,-327,2,40,407,166
2890,61,-319,-18,-17,432,173
2895,56,-320,-49,-92,432,171
2900,51,-311,-81,-188,392,165
2905,45,-293,-134,-316,306,133
2910,32,-281,-208,-452,184,158
2915,2,-273,-266,-580,24,189
2920,-39,-279,-287,-672,-164,250
2925,-66,-295,-268,-670,-288,364
2930,-101,-319,-227,-546,-321,469
2935,-120,-341,-180,-335,-334,535
2940,-112,-343,-151,-106,-376,573
2945,-116,-332,-137,77,-423,588
2950,-125,-313,-146,189,-468,597
2955,-131,-291,-143,236,-498,601
2960,-128,-269,-144,221,-501,607
2965,-113,-248,-149,188,-452,597
2970,-100,-233,-152,154,-331,570
2975,-79,-215,-155,119,-154,534
2980,-71,-195,-170,72,35,491
2985,-63,-180,-177,5,188,442
2990,-56,-163,-185,-78,279,397
2995,-33,-157,-184,-170,323,360
3000,-3,-158,-178,-256,334,324
3005,13,-169,-171,-329,323,289
3010,32,-181,-153,-373,296,251
3015,40,-191,-137,-391,245,213
3020,43,-198,-128,-383,169,183
3025,46,-210,-120,-361,80,165
3030,46,-217,-118,-326,-10,161
3035,40,-220,-117,-276,-90,166
3040,37,-227,-123,-218,-155,171
3045,31,-227,-130,-157,-195,169
3050,22,-224,-136,-98,-205,163
3055,7,-224,-137,-39,-185,152
3060,0,-229,-133,22,-140,139
3065,-4,-228,-135,82,-78,115
3070,-11,-231,-129,144,0,85
3075,-14,-232,-126,206,86,43
3080,-13,-229,-127,253,177,-15
3085,-10,-223,-121,269,267,-82
3090,-7,-221,-120,248,350,-155
3095,-4,-215,-118,199,419,-233
3100,1,-205,-110,128,469,-306
3105,1,-199,-97,40,499,-366
3110,7,-192,-104,-56,513,-411
3115,10,-188,-96,-161,514,-441
3120,12,-178,-90,-270,502,-460
3125,15,-172,-83,-370,484,-469
3130,15,-164,-85,-460,463,-471
3135,14,-163,-76,-532,430,-470
3140,10,-156,-72,-586,391,-461
3145,4,-158,-68,-617,345,-446
3150,1,-161,-64,-614,300,-424
3155,-2,-156,-59,-579,254,-394
3160,-3,-152,-61,-519,210,-361
3165,-1,-152,-49,-434,168,-326
3170,-5,-153,-51,-334,130,-286
3175,-2,-152,-62,-233,97,-247
3180,0,-154,-63,-147,68,-206
3185,1,-152,-66,-79,43,-162
3190,4,-160,-67,-29,25,-118
3195,7,-162,-66,11,12,-74
3200,15,-167,-67,44,2,-31
3205,20,-168,-69,68,-6,3
3210,27,-177,-72,86,-10,33
3215,30,-184,-72,96,-11,52
3220,26,-186,-76,94,-15,65
3225,31,-190,-78,74,-22,72
3230,31,-193,-77,44,-32,70
3235,30,-196,-85,4,-49,64
3240,28,-200,-79,-45,-70,52
3245,26,-208,-79,-102,-88,37
3250,29,-220,-75,-156,-101,24
3255,24,-226,-68,-191,-105,14
3260,18,-238,-69,-194,-109,1
3265,19,-243,-58,-164,-113,-14
3270,11,-250,-57,-108,-119,-22
3275,6,-256,-50,-25,-124,-30
3280,3,-257,-51,74,-137,-38
3285,-3,-265,-43,180,-159,-43
3290,-11,-265,-32,283,-189,-51
3295,-15,-273,-31,382,-224,-61
3300,-21,-274,-23,476,-262,-75
3305,-17,-276,-29,564,-282,-91
3310,-21,-270,-32,638,-274,-91
3315,-23,-260,-44,689,-236,-98
3320,-7,-248,-62,708,-187,-105
3325,1,-242,-69,680,-129,-111
3330,7,-243,-78,614,-66,-119
3335,13,-236,-68,524,-8,-134
3340,11,-240,-64,431,39,-154
3345,8,-241,-59,351,69,-172
3350,14,-244,-61,281,96,-180
3355,19,-234,-57,212,132,-182
3360,33,-228,-55,141,181,-182
3365,43,-223,-57,56,238,-182
3370,49,-226,-55,-48,275,-189
3375,48,-229,-44,-160,293,-196
3380,46,-242,-33,-285,287,-205
3385,47,-260,-29,-358,261,-215
3390,28,-278,-17,-399,214,-223
3395,19,-292,-21,-410,157,-228
3400,9,-296,-32,-404,100,-228
3405,7,-299,-66,-399,52,-219
3410,4,-295,-123,-415,15,-208
3415,2,-284,-207,-484,-12,-218
3420,-5,-276,-261,-632,-16,-254
3425,3,-280,-312,-824,28,-306
3430,28,-292,-323,-973,138,-334
3435,49,-295,-306,-1013,294,-335
3440,47,-304,-280,-927,426,-327
3445,44,-299,-266,-762,501,-328
3450,34,-291,-246,-585,540,-324
3455,29,-281,-217,-432,588,-318
3460,15,-266,-185,-307,667,-309
3465,-7,-261,-140,-175,769,-296
3470,-14,-255,-129,-22,851,-291
3475,-20,-243,-130,132,865,-305
3480,-14,-224,-142,241,820,-321
3485,-10,-205,-156,289,756,-330
3490,-13,-193,-161,284,711,-329
3495,-21,-176,-171,237,699,-321
3500,-33,-167,-170,164,701,-308
3505,-37,-162,-168,71,703,-291
3510,-28,-165,-156,-26,707,-269
3515,-15,-175,-148,-104,717,-237
3520,6,-181,-135,-163,731,-185
3525,26,-193,-130,-205,739,-116
3530,59,-210,-134,-235,733,-42
3535,75,-215,-133,-266,705,34
3540,87,-220,-137,-302,656,110
3545,94,-222,-142,-343,590,184
3550,95,-225,-147,-378,515,249
3555,81,-228,-143,-394,446,305
3560,71,-225,-146,-376,395,347
3565,49,-227,-138,-331,373,374
3570,38,-227,-124,-250,387,397
3575,24,-225,-123,-156,407,413
3580,17,-225,-114,-70,421,426
3585,13,-222,-110,-8,424,432
3590,7,-213,-116,17,407,429
3595,2,-217,-120,-7,377,419
3600,-2,-209,-113,-56,333,403
3605,-19,-202,-110,-96,280,381
3610,-28,-201,-105,-109,214,354
3615,-45,-192,-103,-93,137,326
3620,-61,-177,-99,-53,59,311
3625,-73,-160,-92,4,-7,316
3630,-81,-141,-94,70,-58,348
3635,-85,-129,-98,137,-98,395
3640,-94,-118,-83,187,-118,449
3645,-103,-113,-53,229,-115,516
3650,-100,-108,-33,267,-84,593
3655,-100,-109,-9,319,-11,666
3660,-89,-96,-1,396,85,715
3665,-47,-82,5,454,167,709
3670,10,-70,0,449,234,669
3675,58,-66,-5,301,286,675
3680,78,-74,-20,9,294,752
3685,100,-87,-49,-358,228,849
3690,105,-104,-101,-744,107,903
3695,94,-122,-173,-1113,-35,840
3700,67,-114,-259,-1423,-164,659
3705,57,-111,-312,-1650,-222,451
3710,37,-117,-357,-1788,-162,320
3715,24,-153,-342,-1815,-19,353
3720,19,-227,-277,-1714,111,513
3725,23,-306,-223,-1512,127,711
3730,23,-353,-194,-1278,38,852
3735,30,-392,-195,-1053,-112,948
3740,29,-390,-219,-860,-253,992
3745,16,-380,-244,-737,-348,972
3750,21,-368,-253,-688,-383,965
3755,21,-366,-255,-710,-362,982
3760,39,-396,-237,-775,-324,1024
3765,44,-438,-207,-816,-299,1094
3770,31,-480,-186,-784,-294,1183
3775,16,-499,-169,-655,-317,1225
3780,-11,-516,-174,-450,-359,1206
3785,-56,-509,-187,-218,-409,1116
3790,-89,-487,-196,-14,-450,960
3795,-120,-451,-195,146,-464,771
3800,-129,-421,-188,245,-471,585
3805,-133,-382,-175,276,-481,438
3810,-124,-350,-155,221,-495,318
3815,-112,-326,-144,92,-534,201
3820,-113,-317,-127,-103,-593,89
3825,-108,-297,-108,-335,-638,0
3830,-108,-275,-88,-545,-661,-65
3835,-109,-261,-69,-708,-664,-113
3840,-120,-241,-51,-814,-652,-148
3845,-122,-226,-41,-876,-637,-189
3850,-123,-209,-34,-916,-608,-257
3855,-120,-185,-33,-942,-542,-352
3860,-109,-156,-30,-965,-432,-449
3865,-100,-130,-20,-1000,-279,-542
3870,-98,-117,-25,-1067,-115,-612
3875,-83,-113,-24,-1194,17,-652
3880,-65,-123,-20,-1363,89,-665
3885,-41,-144,-11,-1502,108,-652
3890,-14,-165,4,-1535,105,-641
3895,1,-171,21,-1429,114,-643
3900,17,-160,37,-1183,144,-647
3905,36,-143,49,-847,191,-639
3910,42,-122,60,-496,254,-616
3915,44,-95,71,-177,325,-575
3920,46,-66,72,89,398,-517
3925,58,-44,91,294,455,-440
3930,68,-20,97,448,480,-352
3935,84,0,101,568,461,-268
3940,98,8,98,651,410,-208
3945,119,7,93,688,375,-181
3950,136,9,90,682,386,-204
3955,156,18,94,714,436,-269
3960,159,26,71,862,503,-363
3965,152,25,54,1082,586,-443
3970,112,29,2,1322,675,-495
3975,74,30,-29,1507,762,-513
3980,35,59,-42,1671,838,-480
3985,1,64,-72,1838,900,-403
3990,-7,71,-95,1912,938,-328
3995,-14,78,-127,1890,931,-307
4000,-41,90,-186,1813,893,-349
4005,-92,102,-252,1681,877,-394
4010,-136,113,-294,1477,896,-390
4015,-181,124,-321,1199,893,-329
4020,-222,112,-353,889,809,-241
4025,-333,88,-434,629,585,-153
4030,-479,51,-618,404,24,-36
4035,-412,11,-750,56,-1063,162
4040,-9,-62,-728,-534,-2271,480
4045,337,-249,-406,-1123,-2633,887
4050,311,-448,-133,-1272,-1960,1172
4055,79,-576,11,-1216,-1154,1344
4060,-39,-634,-16,-1202,-963,1464
4065,-76,-661,-157,-1232,-1221,1557
4070,11,-656,-322,-1209,-1426,1603
4075,166,-672,-444,-1100,-1242,1510
4080,192,-709,-505,-905,-646,1229
4085,73,-730,-531,-693,40,893
4090,-57,-708,-459,-424,547,540
4095,-133,-671,-370,-15,813,132
4100,-148,-614,-285,442,913,-249
4105,-143,-568,-241,816,900,-512
4110,-131,-513,-198,1051,768,-660
4115,-120,-456,-151,1150,550,-804
4120,-114,-385,-126,1161,283,-947
4125,-98,-315,-124,1118,33,-1010
4130,-85,-264,-126,1028,-140,-988
4135,-63,-210,-121,883,-252,-898
4140,-40,-183,-118,706,-331,-772
4145,-13,-168,-117,532,-388,-649
4150,9,-164,-110,365,-432,-564
4155,23,-165,-109,178,-458,-518
4160,47,-170,-97,-37,-451,-501
4165,61,-173,-87,-248,-409,-507
4170,66,-182,-82,-427,-349,-516
4175,66,-191,-85,-575,-267,-521
4180,63,-199,-84,-699,-163,-519
4185,64,-207,-92,-830,-52,-527
4190,52,-217,-92,-977,64,-546
4195,42,-226,-88,-1107,179,-571
4200,35,-239,-70,-1185,297,-592
4205,24,-254,-65,-1175,352,-601
4210,20,-256,-64,-1059,366,-608
4215,15,-251,-53,-883,362,-594
4220,4,-234,-45,-627,358,-548
4225,1,-224,-33,-394,338,-482
4230,-2,-201,-20,-164,301,-402
4235,-9,-173,-1,54,252,-331
4240,-21,-145,10,248,201,-260
4245,-15,-117,28,426,168,-193
4250,-11,-86,47,597,155,-131
4255,-10,-62,61,739,147,-89
4260,-12,-40,70,843,116,-78
4265,-18,-25,77,909,62,-82
4270,-17,-24,86,938,0,-75
4275,-20,-28,84,945,-49,-53
4280,-19,-49,99,946,-79,-32
4285,-18,-71,119,971,-97,-27
4290,-10,-88,130,1037,-121,-37
4295,3,-105,124,1146,-163,-59
4300,7,-115,106,1277,-242,-79
4305,25,-115,70,1403,-354,-82
4310,34,-109,26,1508,-483,-61
4315,33,-99,-17,1592,-615,-15
4320,31,-82,-62,1655,-733,58
4325,6,-43,-155,1668,-834,165
4330,-43,12,-271,1573,-913,342
4335,-72,54,-388,1348,-994,585
4340,-54,70,-484,1040,-1084,790
4345,31,84,-688,647,-1026,873
4350,131,94,-845,110,-590,815
4355,277,96,-843,-519,231,636
4360,324,19,-703,-1029,1166,370
4365,241,-138,-502,-1351,1758,150
4370,158,-387,-122,-1418,1870,93
4375,158,-622,133,-1009,1712,67
4380,118,-716,135,-222,1482,-218
4385,3,-629,-76,474,1371,-770
4390,-96,-535,-233,625,1464,-1301
4395,-279,-448,-343,225,1576,-1667
4400,-419,-410,-312,-332,1465,-1790
4405,-370,-342,-267,-636,1101,-1673
4410,-230,-292,-281,-602,771,-1324
4415,-120,-279,-305,-390,635,-901
4420,-73,-319,-286,-160,503,-495
4425,-56,-340,-265,63,164,-221
4430,-30,-342,-263,321,-331,-80
4435,-2,-333,-275,627,-805,-20
4440,37,-305,-300,954,-1078,17
4445,58,-280,-294,1259,-1100,26
4450,69,-269,-285,1499,-960,30
4455,66,-263,-261,1627,-767,30
4460,57,-258,-236,1646,-589,6
4465,34,-248,-206,1592,-450,-39
4470,14,-229,-198,1490,-361,-94
4475,2,-221,-193,1318,-311,-172
4480,-7,-218,-179,1064,-278,-275
4485,-17,-218,-169,791,-266,-384
4490,-15,-216,-163,554,-266,-454
4495,-5,-216,-168,370,-267,-470
4500,-1,-238,-181,185,-263,-455
4505,-3,-231,-192,-62,-236,-427
4510,11,-210,-212,-319,-148,-305
4515,36,-218,-212,-572,-28,-93
4520,49,-242,-189,-805,17,73
4525,58,-274,-170,-968,-39,163
4530,58,-298,-158,-1041,-138,222
4535,65,-321,-157,-1050,-211,270
4540,62,-336,-165,-1035,-228,305
4545,61,-348,-162,-1007,-200,325
4550,55,-352,-162,-932,-155,326
4555,50,-350,-163,-786,-111,307
4560,47,-336,-154,-573,-70,268
4565,43,-319,-152,-304,-27,213
4570,34,-285,-136,-12,17,126
4575,31,-262,-132,268,64,48
4580,17,-229,-119,519,106,-23
4585,5,-190,-100,720,146,-71
4590,-4,-159,-88,866,170,-97
4595,-22,-128,-77,948,189,-101
4600,-32,-109,-67,968,207,-92
4605,-43,-89,-64,923,223,-78
4610,-53,-76,-60,826,241,-58
4615,-68,-72,-58,685,266,-39
4620,-65,-67,-58,503,288,-22
4625,-66,-76,-59,293,304,0
4630,-71,-89,-54,74,318,6
4635,-71,-107,-54,-124,322,20
4640,-70,-126,-49,-292,327,39
4645,-70,-137,-47,-413,329,59
4650,-65,-149,-46,-475,327,77
4655,-55,-162,-39,-481,324,97
4660,-37,-171,-32,-432,321,114
4665,-27,-176,-28,-331,310,121
4670,-20,-187,-28,-196,292,115
4675,-1,-191,-17,-46,269,99
4680,15,-191,-15,109,239,76
4685,25,-190,-11,261,206,49
4690,31,-180,-6,404,173,22
4695,38,-175,-2,534,140,1
4700,48,-167,0,652,111,-20
4705,57,-159,-2,750,82,-57
4710,60,-144,1,838,57,-95
4715,60,-135,-8,909,35,-138
4720,49,-123,-17,952,2,-191
4725,34,-118,-32,969,-49,-241
4730,23,-106,-38,961,-116,-283
4735,4,-99,-50,937,-189,-299
4740,0,-102,-57,896,-249,-289
4745,-7,-106,-60,848,-275,-261
4750,-11,-119,-56,797,-249,-218
4755,-6,-138,-44,750,-180,-189
4760,1,-155,-35,713,-76,-174
4765,10,-175,-25,687,58,-171
4770,22,-191,-16,671,210,-172
4775,44,-209,-9,656,366,-182
4780,59,-222,-10,622,513,-203
4785,73,-232,-24,569,640,-213
4790,82,-237,-36,490,735,-223
4795,87,-240,-64,379,775,-246
4800,79,-241,-103,269,749,-233
4805,69,-236,-165,156,662,-239
4810,56,-229,-246,39,479,-241
4815,42,-222,-305,-71,231,-227
4820,-3,-215,-377,-164,-68,-187
4825,-66,-214,-403,-235,-365,-46
4830,-96,-252,-390,-275,-578,193
4835,-108,-283,-348,-290,-679,443
4840,-90,-320,-283,-267,-693,670
4845,-56,-339,-217,-208,-635,882
4850,-37,-334,-186,-134,-543,1056
4855,-35,-320,-180,-58,-446,1170
4860,-32,-314,-177,29,-334,1242
4865,-11,-306,-193,129,-189,1277
4870,12,-302,-217,238,-15,1275
4875,26,-291,-238,350,149,1245
4880,16,-270,-252,452,266,1184
4885,11,-260,-235,539,306,1086
4890,5,-247,-230,606,269,954
4895,-5,-244,-214,646,197,815
4900,-18,-240,-193,661,148,689
4905,-31,-251,-183,657,152,598
4910,-38,-255,-175,643,176,527
4915,-46,-263,-171,624,185,463
4920,-57,-267,-161,605,161,393
4925,-70,-270,-144,590,115,318
4930,-76,-270,-140,586,54,236
4935,-86,-270,-139,580,-9,160
4940,-89,-261,-135,558,-55,82
4945,-76,-251,-130,505,-83,19
4950,-69,-245,-128,416,-87,-44
4955,-61,-247,-125,300,-81,-121
4960,-53,-249,-121,172,-74,-191
4965,-47,-254,-117,58,-71,-270
4970,-42,-246,-107,-24,-87,-368
4975,-31,-242,-119,-83,-133,-474
4980,-18,-241,-122,-147,-179,-573
4985,-6,-235,-127,-242,-221,-658
4990,-1,-237,-115,-364,-251,-721
4995,6,-231,-110,-497,-265,-759
5000,12,-234,-105,-570,-276,-776
5005,15,-229,-95,-607,-289,-780
5010,17,-225,-94,-612,-305,-774
5015,17,-219,-84,-594,-323,-756
5020,14,-204,-83,-546,-340,-729
5025,16,-199,-73,-479,-361,-696
5030,12,-184,-75,-403,-382,-653
5035,7,-172,-73,-329,-401,-609
5040,9,-161,-65,-263,-415,-563
5045,8,-150,-64,-216,-422,-523
5050,11,-142,-63,-181,-420,-486
5055,10,-133,-56,-156,-414,-460
5060,10,-124,-51,-137,-404,-443
5065,8,-120,-50,-122,-393,-431
5070,14,-116,-51,-111,-382,-427
5075,16,-115,-48,-108,-370,-424
5080,17,-113,-50,-110,-355,-422
5085,15,-116,-49,-114,-339,-415
5090,22,-118,-54,-116,-322,-399
5095,22,-121,-48,-116,-306,-382
5100,29,-125,-50,-118,-291,-359
5105,26,-132,-60,-121,-281,-333
5110,29,-146,-60,-126,-282,-301
5115,33,-156,-57,-135,-291,-266
5120,37,-164,-58,-150,-304,-232
5125,40,-179,-50,-165,-316,-199
5130,42,-189,-50,-175,-325,-168
5135,49,-201,-39,-172,-333,-141
5140,50,-214,-33,-156,-343,-123
5145,45,-219,-32,-121,-355,-112
5150,40,-226,-26,-68,-372,-105
5155,27,-233,-22,2,-392,-103
5160,29,-244,-15,87,-413,-97
5165,24,-247,-1,186,-432,-91
5170,20,-251,-9,302,-441,-74
5175,9,-249,-7,420,-421,-47
5180,5,-247,-4,539,-381,-22
5185,4,-244,-6,654,-351,-4
5190,4,-240,-7,767,-337,22
5195,12,-237,-8,877,-330,67
5200,15,-229,-17,977,-311,122
5205,19,-224,-27,1049,-261,174
5210,20,-215,-42,1083,-180,222
5215,23,-209,-60,1082,-70,267
5220,34,-200,-77,1044,67,311
5225,53,-195,-92,973,221,346
5230,71,-191,-95,864,368,372
5235,85,-193,-85,745,489,383
5240,93,-211,-72,646,561,393
5245,90,-227,-52,599,570,402
5250,79,-245,-28,611,518,416
5255,56,-257,-16,661,422,428
5260,39,-272,-13,717,304,431
5265,15,-283,-40,734,186,419
5270,8,-284,-96,677,82,401
5275,1,-286,-194,522,7,383
5280,1,-304,-318,279,-11,327
5285,11,-320,-406,-28,128,210
5290,29,-352,-444,-368,504,11
5295,38,-370,-396,-645,990,-260
5300,34,-377,-326,-760,1412,-501
5305,17,-379,-235,-711,1698,-663
5310,12,-388,-164,-531,1822,-701
5315,-3,-427,-87,-288,1818,-666
5320,1,-451,-50,-50,1661,-653
5325,-21,-439,-61,170,1363,-694
5330,-66,-399,-111,362,1029,-738
5335,-104,-364,-139,513,701,-717
5340,-135,-315,-165,642,378,-617
5345,-153,-272,-180,767,68,-509
5350,-166,-240,-193,865,-199,-405
5355,-169,-218,-196,905,-406,-308
5360,-167,-196,-200,891,-581,-227
5365,-159,-183,-195,828,-691,-164
5370,-141,-169,-178,733,-782,-122
5375,-118,-181,-174,620,-850,-97
5380,-96,-186,-170,561,-881,-91
5385,-64,-191,-167,523,-870,-102
5390,-27,-194,-158,485,-826,-129
5395,2,-196,-153,432,-764,-170
5400,31,-203,-134,359,-695,-216
5405,49,-207,-120,296,-624,-250
5410,63,-206,-117,247,-548,-257
5415,78,-200,-118,202,-462,-242
5420,85,-195,-122,142,-369,-213
5425,85,-192,-125,59,-281,-179
5430,93,-198,-127,-38,-205,-147
5435,92,-203,-126,-126,-151,-111
5440,92,-211,-124,-178,-116,-70
5445,88,-223,-128,-193,-104,-26
5450,80,-228,-129,-179,-99,17
5455,71,-234,-129,-149,-98,54
5460,67,-239,-132,-119,-105,88
5465,61,-236,-136,-97,-112,116
5470,50,-241,-133,-89,-110,142
5475,41,-245,-130,-97,-99,165
5480,36,-249,-130,-118,-75,191
5485,29,-256,-125,-134,-45,217
5490,18,-258,-111,-128,-16,240
5495,12,-258,-110,-93,8,258
5500,6,-253,-100,-25,23,268
5505,-2,-249,-95,66,34,272
5510,-9,-239,-88,168,44,275
5515,-11,-226,-89,268,55,276
5520,-14,-214,-80,357,71,269
5525,-22,-193,-80,427,92,260
5530,-21,-184,-68,473,115,244
5535,-20,-160,-75,496,139,223
5540,-22,-145,-77,496,167,198
5545,-23,-133,-77,480,194,172
5550,-23,-124,-75,446,221,147
5555,-28,-118,-81,391,240,124
5560,-33,-118,-73,327,251,99
5565,-32,-120,-75,255,254,80
5570,-31,-125,-74,176,246,58
5575,-38,-129,-76,95,227,36
5580,-40,-138,-76,20,199,13
5585,-34,-147,-79,-41,167,-9
5590,-37,-156,-71,-90,135,-31
5595,-37,-164,-67,-120,102,-48
5600,-41,-172,-69,-137,71,-65
5605,-37,-183,-65,-145,39,-79
5610,-37,-191,-65,-148,12,-96
5615,-36,-195,-60,-144,-10,-115
5620,-31,-203,-51,-130,-26,-132
5625,-27,-210,-47,-107,-42,-152
5630,-22,-221,-45,-78,-51,-169
5635,-17,-224,-35,-44,-55,-186
5640,-15,-229,-33,6,-54,-203
5645,-6,-232,-36,71,-47,-218
5650,-4,-231,-29,142,-34,-239
5655,5,-231,-30,220,-13,-263
5660,11,-229,-29,305,14,-291
5665,13,-230,-34,381,45,-319
5670,13,-227,-36,446,79,-348
5675,18,-223,-38,498,112,-375
5680,20,-218,-43,534,144,-407
5685,21,-215,-42,552,175,-436
5690,14,-212,-42,550,202,-462
5695,24,-214,-35,530,219,-483
5700,14,-212,-44,490,222,-494
5705,16,-211,-51,440,209,-503
5710,14,-213,-52,380,181,-498
5715,17,-215,-58,311,142,-485
5720,20,-218,-63,245,98,-463
5725,22,-222,-64,193,56,-427
5730,19,-227,-69,162,24,-385
5735,14,-226,-72,148,2,-335
5740,12,-233,-77,149,-8,-280
5745,3,-237,-79,157,-22,-229
5750,-3,-244,-83,168,-50,-181
5755,-4,-244,-69,174,-81,-135
5760,-6,-249,-75,166,-92,-86
5765,-6,-256,-79,149,-74,-41
5770,0,-264,-82,117,-31,-4
5775,6,-274,-93,78,25,28
5780,3,-283,-102,32,76,56
5785,3,-295,-119,-19,104,89
5790,10,-306,-142,-77,88,119
5795,22,-313,-159,-141,21,151
5800,24,-317,-176,-199,-79,194
5805,30,-323,-180,-238,-195,257
5810,15,-331,-165,-251,-320,334
5815,5,-337,-145,-227,-427,418
5820,-4,-345,-133,-166,-502,493
5825,-17,-344,-134,-90,-547,546
5830,-18,-340,-136,-25,-568,581
5835,-11,-331,-157,18,-547,606
5840,0,-318,-166,46,-474,625
5845,6,-300,-169,67,-359,627
5850,15,-282,-178,94,-221,616
5855,19,-273,-179,112,-77,589
5860,22,-255,-171,110,59,556
5865,27,-239,-167,86,170,514
5870,31,-227,-157,40,257,469
5875,41,-215,-149,-11,314,435
5880,48,-203,-142,-58,347,413
5885,58,-187,-132,-95,363,398
5890,63,-177,-132,-128,364,389
5895,65,-169,-133,-160,359,386
5900,64,-165,-130,-190,342,377
5905,61,-164,-127,-210,312,362
5910,52,-152,-119,-222,265,348
5915,50,-165,-116,-223,208,333
5920,40,-175,-112,-211,143,324
5925,29,-187,-105,-189,77,314
5930,18,-193,-107,-163,13,304
5935,9,-204,-104,-140,-42,289
5940,1,-214,-101,-118,-86,269
5945,-1,-226,-106,-92,-114,245
5950,-13,-234,-106,-60,-132,217
5955,-19,-242,-113,-21,-133,179
5960,-17,-246,-115,18,-120,137
5965,-17,-248,-120,56,-100,90
5970,-11,-252,-122,88,-70,35
5975,-6,-252,-127,109,-33,-23
5980,1,-253,-128,112,13,-80
5985,8,-250,-124,109,54,-143
5990,12,-251,-125,98,85,-200
5995,20,-250,-120,81,99,-242
6000,24,-245,-121,64,108,-266
6005,27,-237,-118,56,121,-278
6010,39,-235,-120,52,132,-281
6015,38,-231,-114,48,140,-278
6020,35,-226,-118,42,140,-274
6025,39,-225,-104,33,129,-268
6030,38,-220,-103,26,111,-259
6035,34,-217,-102,19,83,-245
6040,38,-218,-100,11,51,-230
6045,31,-209,-98,7,17,-211
6050,28,-207,-97,4,-15,-185
6055,26,-200,-92,2,-44,-161
6060,24,-195,-90,4,-68,-137
6065,27,-193,-86,3,-83,-108
6070,24,-193,-89,0,-92,-83
6075,24,-185,-86,-1,-91,-61
6080,26,-188,-81,0,-85,-41
6085,27,-187,-82,5,-76,-19
6090,29,-186,-77,11,-71,-2
6095,28,-184,-78,22,-67,15
6100,28,-187,-77,37,-63,27
6105,33,-187,-79,51,-62,38
6110,31,-190,-76,64,-65,46
6115,33,-191,-79,73,-70,51
6120,34,-193,-78,78,-77,56
6125,31,-196,-80,81,-90,61
6130,29,-202,-79,78,-106,64
6135,28,-204,-85,69,-125,67
6140,22,-211,-82,57,-148,69
6145,20,-215,-82,44,-173,71
6150,19,-221,-80,32,-202,76
6155,16,-230,-81,26,-231,80
6160,11,-238,-82,25,-261,85
6165,8,-241,-82,29,-289,88
6170,7,-244,-84,37,-315,91
6175,2,-251,-86,52,-337,92
6180,1,-255,-84,73,-357,93
6185,1,-255,-89,101,-369,95
6190,-1,-254,-93,135,-378,96
6195,0,-259,-103,170,-392,102
6200,0,-260,-120,203,-409,104
6205,0,-259,-132,224,-415,103
6210,0,-256,-152,227,-380,100
6215,8,-248,-155,214,-282,92
6220,21,-244,-131,199,-138,77
6225,24,-237,-100,197,3,52
6230,23,-231,-72,224,89,32
6235,24,-230,-51,265,100,25
6240,25,-242,-29,298,51,27
6245,25,-252,-22,312,-16,31
6250,13,-257,-33,309,-63,38
6255,12,-267,-40,310,-81,45
6260,9,-267,-60,316,-87,44
6265,0,-269,-78,326,-88,38
6270,-2,-263,-103,339,-91,29
6275,-5,-256,-119,349,-89,10
6280,-1,-252,-133,349,-77,-22
6285,9,-246,-133,346,-39,-59
6290,9,-235,-139,338,27,-94
6295,23,-233,-136,323,106,-125
6300,29,-227,-125,295,178,-156
6305,36,-219,-116,257,237,-179
6310,38,-215,-105,217,275,-195
6315,37,-217,-90,175,297,-199
6320,38,-217,-85,129,309,-195
6325,33,-217,-80,84,319,-185
6330,32,-216,-75,37,324,-169
6335,23,-218,-79,-3,326,-151
6340,16,-218,-73,-35,321,-131
6345,5,-215,-79,-57,311,-114
6350,7,-218,-78,-62,296,-97
6355,1,-218,-76,-52,278,-84
6360,0,-215,-78,-29,262,-74
6365,-3,-218,-78,4,243,-68
6370,-8,-221,-76,42,224,-64
6375,-12,-219,-73,79,206,-61
6380,-16,-220,-74,116,189,-62
6385,-20,-224,-77,154,175,-63
6390,-23,-224,-73,193,167,-63
6395,-20,-226,-76,230,165,-66
6400,-23,-222,-79,262,165,-69
6405,-22,-222,-83,291,170,-73
6410,-23,-220,-86,311,175,-74
6415,-24,-220,-84,320,179,-73
6420,-23,-219,-87,318,180,-68
6425,-24,-219,-88,304,175,-63
6430,-20,-216,-89,280,166,-60
6435,-18,-217,-90,250,154,-55
6440,-17,-225,-90,217,139,-48
6445,-18,-224,-89,182,122,-41
6450,-17,-229,-92,146,105,-37
6455,-21,-236,-92,114,88,-32
6460,-13,-235,-89,87,77,-31
6465,-11,-236,-89,67,68,-30
6470,-8,-238,-91,60,63,-26
6475,-8,-244,-90,67,62,-27
6480,-4,-240,-87,85,62,-25
6485,-1,-241,-87,109,64,-27
6490,-1,-240,-85,136,66,-27
6495,0,-242,-83,165,70,-27
6500,6,-240,-81,189,73,-35
6505,7,-235,-79,210,75,-40
6510,2,-232,-80,225,79,-50
6515,5,-231,-80,233,79,-59
6520,6,-232,-77,235,77,-70
6525,7,-233,-79,233,74,-81
6530,2,-233,-73,227,73,-87
6535,2,-231,-75,221,73,-95
6540,2,-232,-77,216,74,-99
6545,2,-228,-78,209,76,-103
6550,0,-230,-82,204,79,-101
6555,1,-232,-71,199,82,-100
6560,6,-235,-74,194,84,-97
6565,-1,-229,-75,191,83,-94
6570,2,-232,-76,188,80,-89
6575,-2,-237,-73,186,74,-86
6580,2,-238,-72,184,66,-85
6585,2,-237,-79,179,56,-81
6590,2,-238,-77,176,47,-78
6595,0,-238,-78,173,39,-78
6600,0,-235,-81,167,31,-76
6605,0,-238,-78,165,25,-75
6610,0,-239,-79,166,21,-76
6615,6,-237,-83,165,15,-76
6620,0,-238,-72,165,10,-76
6625,-2,-237,-75,163,3,-76
6630,0,-235,-75,162,-1,-75
6635,0,-234,-78,158,-6,-74
6640,0,-236,-79,153,-8,-73
6645,-5,-236,-75,151,-11,-72
6650,0,-236,-76,147,-14,-72
6655,0,-234,-76,144,-19,-71
6660,0,-229,-74,141,-21,-73
6665,0,-234,-72,137,-24,-74
6670,4,-230,-73,134,-28,-75
6675,0,-231,-75,129,-30,-77
6680,-1,-229,-76,124,-33,-78
6685,2,-231,-76,118,-34,-81
6690,0,-229,-75,111,-38,-81
6695,1,-230,-76,103,-41,-85
6700,0,-232,-74,99,-46,-86
6705,0,-230,-76,92,-52,-84
6710,1,-230,-71,86,-60,-83
6715,1,-232,-69,78,-66,-80
6720,1,-233,-72,69,-76,-79
6725,4,-233,-78,62,-81,-74
6730,0,-235,-72,52,-87,-72
6735,3,-236,-73,42,-91,-69
6740,6,-235,-76,37,-95,-64
6745,5,-240,-73,33,-97,-61
6750,3,-237,-71,30,-100,-57
6755,5,-239,-74,28,-103,-52
6760,5,-243,-69,26,-106,-50
6765,3,-242,-73,29,-107,-48
6770,5,-244,-72,38,-110,-47
6775,2,-245,-72,45,-114,-44
6780,2,-236,-72,50,-116,-42
6785,4,-241,-74,54,-118,-39
6790,4,-241,-74,58,-119,-39
6795,8,-243,-70,61,-120,-36
6800,3,-242,-69,60,-119,-34
6805,8,-241,-68,62,-119,-34
6810,4,-236,-69,66,-117,-33
6815,7,-236,-66,68,-115,-29
6820,8,-239,-71,67,-114,-29
6825,5,-234,-73,65,-111,-26
6830,6,-237,-73,61,-104,-24
6835,8,-235,-70,55,-100,-23
6840,9,-238,-69,48,-93,-19
6845,6,-236,-68,41,-87,-18
6850,7,-237,-67,38,-82,-15
6855,7,-235,-69,34,-77,-14
6860,11,-238,-67,30,-72,-12
6865,12,-237,-68,25,-67,-12
6870,9,-234,-67,21,-59,-13
6875,9,-236,-67,15,-55,-12
6880,13,-235,-67,11,-49,-12
6885,11,-234,-66,5,-40,-10
6890,8,-238,-73,-2,-33,-8
6895,12,-236,-67,-6,-27,-9
6900,10,-238,-64,-10,-22,-9
6905,9,-236,-65,-13,-18,-8
6910,7,-237,-68,-15,-13,-7
6915,7,-238,-66,-16,-12,-7
6920,8,-238,-65,-16,-13,-5
6925,9,-240,-65,-17,-15,-5
6930,8,-237,-70,-16,-15,-5
6935,9,-240,-71,-14,-14,-6
6940,8,-238,-65,-13,-12,-4
6945,8,-240,-68,-11,-9,-4
6950,8,-240,-69,-9,-7,-4
6955,7,-236,-69,-8,-4,-4
6960,5,-236,-71,-7,0,-4
6965,11,-237,-71,-9,5,-4
6970,10,-239,-71,-10,11,-3
6975,10,-239,-72,-13,20,-2
6980,13,-238,-68,-18,29,-2
6985,14,-240,-70,-22,36,-5
6990,15,-239,-66,-29,40,-4
6995,19,-239,-64,-36,47,-3
7000,9,-241,-66,-42,51,-3
7005,13,-240,-65,-47,55,-4
7010,14,-242,-64,-49,60,-2
7015,14,-243,-68,-50,62,-4
7020,14,-239,-65,-48,64,-2
7025,11,-242,-68,-45,66,-2
7030,12,-237,-70,-44,69,-2
7035,15,-239,-68,-42,70,0
7040,12,-244,-64,-43,72,1
7045,12,-239,-67,-45,73,1
7050,5,-237,-78,-46,74,1
7055,13,-240,-69,-45,76,0
7060,12,-240,-67,-44,76,-3
7065,13,-241,-66,-44,77,-1
7070,7,-239,-65,-42,76,-3
7075,10,-242,-68,-41,75,-3
7080,12,-241,-63,-39,76,-2
7085,9,-241,-63,-36,73,-3
7090,11,-242,-70,-35,71,-3
7095,6,-240,-68,-31,69,-3
7100,7,-235,-64,-27,66,-3
7105,4,-238,-75,-24,64,-3
7110,9,-240,-68,-20,62,-5
7115,7,-241,-66,-17,61,-4
7120,9,-241,-68,-14,61,-3
7125,9,-239,-63,-13,62,-1
7130,11,-239,-67,-13,62,-1
7135,10,-238,-68,-11,62,-3
7140,3,-237,-67,-10,60,-2
7145,9,-240,-69,-9,60,-1
7150,4,-240,-64,-6,59,-3
7155,9,-239,-70,-4,56,-2
7160,15,-246,-65,-3,54,-3
7165,4,-240,-65,-2,48,-2
7170,8,-239,-65,-1,46,-1
7175,9,-241,-71,-2,43,-3
7180,7,-239,-68,0,41,-3
7185,6,-243,-69,0,42,-2
7190,10,-240,-66,3,41,-2
7195,10,-240,-66,5,41,-4
7200,9,-239,-67,9,43,-4
7205,10,-241,-66,12,42,-5
7210,8,-238,-66,14,40,-8
7215,17,-241,-71,15,40,-9
7220,9,-238,-70,17,37,-9
7225,11,-240,-69,19,38,-12
7230,11,-240,-66,20,38,-12
7235,11,-238,-68,19,36,-12
7240,6,-236,-70,21,33,-13
7245,14,-239,-71,23,31,-12
7250,14,-241,-71,23,30,-13
7255,11,-239,-70,24,29,-13
7260,15,-240,-70,25,27,-12
7265,15,-236,-71,23,26,-12
7270,8,-240,-67,22,27,-13
7275,11,-239,-69,20,28,-14
7280,11,-239,-67,19,30,-15
7285,12,-238,-67,20,32,-14
7290,12,-241,-64,22,30,-12
7295,10,-238,-68,24,30,-13
7300,12,-238,-70,26,28,-13
7305,13,-242,-68,27,29,-14
7310,13,-239,-65,30,29,-15
7315,12,-241,-66,31,28,-14
7320,14,-243,-74,32,26,-14
7325,11,-238,-73,35,26,-14
7330,10,-238,-67,39,27,-15
7335,12,-241,-69,41,26,-14
7340,11,-236,-70,44,25,-15
7345,12,-238,-68,47,23,-14
7350,12,-237,-69,47,22,-14
7355,8,-238,-71,48,22,-14
7360,9,-235,-71,47,22,-14
7365,11,-241,-73,46,23,-12
7370,10,-239,-68,47,24,-13
7375,9,-239,-72,48,23,-12
7380,10,-237,-71,49,23,-12
7385,9,-239,-70,51,22,-13
7390,12,-236,-73,53,23,-12
7395,10,-237,-72,53,23,-12
7400,12,-235,-71,52,23,-14
7405,15,-236,-67,52,23,-11
7410,12,-239,-71,49,22,-12
7415,8,-240,-69,49,21,-11
7420,11,-236,-71,48,21,-11
7425,14,-235,-67,50,21,-11
7430,14,-237,-70,50,21,-11
7435,16,-242,-59,51,20,-8
7440,15,-240,-68,51,20,-7
7445,12,-237,-67,51,21,-6
7450,13,-238,-68,50,22,-7
7455,13,-236,-70,50,23,-5
7460,10,-240,-71,51,23,-6
7465,12,-242,-71,54,23,-7
7470,10,-236,-70,57,24,-6
7475,11,-240,-70,59,25,-6
7480,12,-241,-66,62,25,-5
7485,10,-239,-72,62,24,-8
7490,13,-240,-70,64,24,-8
7495,11,-238,-68,64,26,-8
7500,11,-241,-73,64,26,-7
7505,10,-237,-69,65,27,-7
7510,8,-237,-69,65,28,-4
7515,9,-239,-66,65,27,-5
7520,11,-240,-69,65,29,-3
7525,13,-237,-66,62,28,-3
7530,10,-237,-69,60,26,-3
7535,7,-238,-69,59,27,-6
7540,9,-233,-66,57,27,-5
7545,12,-236,-70,55,27,-5
7550,11,-239,-70,51,29,-6
7555,10,-238,-70,50,30,-8
7560,13,-237,-68,49,29,-8
7565,9,-239,-67,50,29,-10
7570,12,-240,-67,50,27,-10
7575,12,-236,-69,55,27,-8
7580,7,-236,-74,58,26,-7
7585,12,-235,-71,60,27,-7
7590,13,-237,-69,59,26,-8
7595,9,-235,-73,59,27,-6
7600,10,-236,-72,54,29,-5
7605,11,-236,-70,49,29,-5
7610,13,-236,-72,43,29,-3
7615,14,-238,-73,38,32,-4
7620,13,-239,-67,37,33,-6
7625,14,-239,-67,33,34,-5
7630,14,-237,-66,33,35,-4
7635,13,-243,-69,35,36,-4
7640,13,-244,-73,39,39,-5
7645,13,-239,-69,44,39,-5
7650,11,-240,-71,49,42,-5
7655,11,-238,-71,51,44,-6
7660,12,-241,-70,52,45,-5
7665,13,-241,-71,54,46,-6
7670,12,-239,-68,54,47,-4
7675,10,-236,-69,54,46,-8
7680,10,-240,-67,53,46,-7
7685,9,-236,-68,53,45,-8
7690,14,-241,-67,53,41,-8
7695,12,-234,-70,53,41,-6
7700,13,-239,-66,49,41,-6
7705,18,-242,-62,46,39,-6
7710,10,-239,-70,45,39,-6
7715,12,-239,-67,44,38,-6
7720,14,-242,-68,45,38,-6
7725,10,-237,-72,45,37,-5
7730,13,-235,-71,44,36,-4
7735,12,-237,-66,45,36,-6
7740,14,-238,-69,46,36,-5
7745,16,-239,-66,47,37,-4
7750,13,-236,-69,47,36,-4
7755,9,-235,-69,49,37,-3
7760,9,-242,-69,51,35,-2
7765,9,-237,-68,51,35,-3
7770,10,-241,-70,50,35,-2
7775,10,-240,-71,50,35,-3
7780,8,-238,-71,49,35,-4
7785,11,-239,-68,48,33,-3
7790,11,-237,-68,46,31,-3
7795,11,-235,-72,46,32,-4
7800,8,-236,-75,45,31,-5
7805,9,-236,-68,43,30,-6
7810,8,-234,-71,44,30,-8
7815,14,-237,-71,44,28,-7
7820,10,-236,-71,44,26,-8
7825,13,-239,-66,44,25,-7
7830,11,-238,-69,42,24,-9
7835,12,-235,-72,40,23,-8
7840,11,-238,-66,40,22,-8
7845,12,-237,-65,39,20,-9
7850,11,-233,-68,38,22,-8
7855,11,-236,-73,38,22,-8
7860,12,-240,-69,35,21,-9
7865,11,-237,-72,34,22,-8
7870,11,-237,-66,32,22,-8
7875,11,-238,-72,31,21,-8
7880,13,-237,-66,30,22,-10
7885,13,-240,-67,29,22,-10
7890,11,-240,-71,29,21,-8
7895,14,-241,-69,29,22,-9
7900,11,-237,-65,31,23,-10
7905,11,-241,-68,30,23,-9
7910,10,-239,-70,31,21,-11
7915,9,-238,-70,29,22,-11
7920,12,-236,-69,31,22,-11
7925,11,-235,-73,32,23,-8
7930,14,-238,-69,31,23,-8
7935,11,-241,-70,31,21,-9
7940,10,-238,-72,32,20,-10
7945,8,-236,-71,32,19,-10
7950,11,-238,-70,32,18,-9
7955,11,-235,-70,31,17,-7
7960,13,-238,-71,30,18,-8
7965,10,-238,-69,30,17,-7
7970,14,-239,-67,29,19,-9
7975,7,-236,-69,29,20,-7
7980,7,-238,-69,30,17,-10
7985,12,-239,-72,29,23,-12
7990,13,-239,-69,34,28,-10
7995,12,-241,-69,39,25,-8
8000,12,-236,-69,36,24,-6
8005,13,-237,-72,29,22,-6
8010,13,-237,-67,24,22,-6
8015,11,-237,-70,23,20,-6
8020,10,-237,-74,27,19,-7
8025,15,-235,-66,30,17,-5
8030,21,-241,-72,32,14,-5
8035,12,-239,-72,34,14,-6
8040,14,-236,-69,32,13,-4
8045,15,-236,-72,31,15,-4
8050,10,-238,-72,30,15,-5
8055,12,-236,-68,29,16,-7
8060,11,-239,-71,29,17,-6
8065,10,-239,-69,31,16,-8
8070,14,-239,-70,31,15,-8
8075,12,-241,-71,32,15,-6
8080,15,-239,-68,34,17,-6
8085,15,-242,-75,33,15,-6
8090,15,-239,-73,35,15,-6
8095,10,-235,-68,37,15,-6
8100,9,-235,-69,37,15,-7
8105,10,-239,-67,40,15,-6
8110,11,-238,-68,41,14,-8
8115,12,-238,-68,41,14,-8
8120,12,-238,-70,44,13,-10
8125,8,-234,-70,46,12,-11
8130,10,-236,-70,47,12,-11
8135,8,-235,-70,49,11,-11
8140,15,-237,-69,50,12,-12
8145,11,-238,-71,50,12,-13
8150,10,-236,-67,50,12,-12
8155,11,-234,-70,52,12,-12
8160,12,-236,-71,50,11,-13
8165,13,-238,-70,48,11,-11
8170,9,-236,-69,44,10,-11
8175,13,-239,-66,43,11,-11
8180,15,-240,-69,42,9,-9
8185,12,-237,-69,41,9,-12
8190,9,-240,-75,41,7,-10
8195,10,-241,-63,41,4,-13
8200,14,-240,-68,42,3,-15
8205,7,-236,-70,45,2,-13
8210,11,-242,-69,49,-1,-13
8215,14,-241,-71,54,-1,-14
8220,13,-238,-69,57,-1,-15
8225,10,-232,-74,60,-1,-14
8230,15,-239,-73,63,1,-13
8235,15,-237,-67,63,4,-10
8240,12,-239,-73,61,4,-10
8245,13,-237,-74,58,5,-10
8250,15,-240,-78,52,7,-11
8255,17,-242,-71,47,6,-10
8260,12,-239,-68,44,6,-10
8265,13,-241,-68,42,5,-13
8270,15,-240,-69,43,4,-12
8275,10,-240,-70,46,4,-13
8280,14,-240,-70,48,7,-14
8285,11,-237,-71,52,7,-12
8290,13,-240,-70,56,9,-11
8295,14,-239,-67,57,10,-12
8300,8,-237,-70,60,11,-11
8305,10,-239,-71,61,12,-11
8310,10,-238,-72,61,12,-10
8315,16,-237,-71,59,13,-11
8320,10,-236,-72,58,13,-11
8325,11,-236,-69,56,13,-11
8330,10,-241,-69,56,13,-12
8335,13,-241,-70,57,13,-12
8340,13,-238,-72,59,14,-12
8345,11,-235,-74,59,14,-11
8350,13,-239,-74,60,14,-11
8355,11,-238,-71,60,14,-11
8360,13,-243,-66,62,14,-11
8365,13,-237,-69,63,13,-11
8370,14,-234,-74,63,13,-12
8375,12,-239,-67,63,13,-10
8380,11,-236,-74,64,14,-9
8385,11,-239,-69,64,14,-9
8390,8,-235,-71,65,14,-8
8395,10,-241,-67,67,14,-7
8400,12,-236,-74,67,13,-7
8405,9,-238,-72,68,13,-7
8410,9,-234,-69,69,13,-7
8415,14,-241,-74,69,13,-9
8420,13,-239,-71,70,14,-8
8425,10,-234,-68,71,15,-10
8430,10,-241,-68,70,17,-10
8435,12,-236,-74,71,17,-9
8440,11,-235,-71,70,19,-11
8445,12,-238,-68,71,19,-11
8450,10,-237,-72,71,18,-12
8455,14,-235,-68,70,17,-12
8460,13,-236,-70,70,17,-10
8465,13,-236,-67,68,16,-11
8470,11,-239,-70,67,15,-11
8475,11,-238,-67,66,14,-12
8480,13,-238,-70,65,14,-11
8485,13,-237,-69,66,14,-9
8490,11,-238,-69,65,14,-8
8495,11,-237,-70,66,15,-8
8500,13,-235,-68,67,14,-8
8505,13,-240,-71,65,14,-8
8510,11,-236,-72,63,14,-8
8515,10,-235,-76,61,14,-8
8520,10,-238,-75,59,17,-6
8525,11,-237,-70,56,18,-5
8530,12,-239,-72,56,19,-5
8535,12,-238,-72,57,21,-6
8540,11,-235,-72,57,21,-5
8545,11,-237,-72,57,19,-5
8550,13,-239,-70,56,21,-7
8555,10,-238,-72,56,20,-7
8560,13,-238,-69,56,20,-6
8565,11,-238,-75,55,19,-5
8570,12,-240,-71,54,18,-6
8575,12,-238,-68,52,17,-7
8580,11,-239,-72,52,18,-6
8585,11,-239,-69,51,18,-6
8590,12,-238,-74,52,18,-6
8595,11,-236,-71,54,17,-4
8600,10,-236,-72,55,18,-6
8605,10,-238,-72,55,17,-4
8610,12,-239,-69,55,15,-4
8615,13,-236,-67,54,15,-5
8620,11,-235,-73,52,15,-7
8625,12,-235,-69,52,16,-6
8630,8,-239,-74,51,16,-8
8635,12,-237,-70,50,17,-7
8640,12,-237,-70,50,17,-7
8645,11,-236,-75,51,17,-8
8650,13,-238,-70,49,17,-9
8655,12,-237,-73,49,16,-8
8660,9,-235,-69,49,16,-8
8665,13,-234,-70,47,16,-8
8670,11,-236,-74,47,15,-9
8675,13,-240,-69,45,17,-7
8680,13,-238,-68,45,17,-7
8685,12,-238,-70,42,18,-7
8690,10,-236,-70,41,17,-9
8695,12,-237,-69,39,17,-8
8700,14,-239,-73,37,17,-6
8705,14,-238,-70,36,17,-9
8710,9,-236,-72,36,18,-10
8715,10,-237,-75,36,19,-10
8720,11,-237,-73,38,19,-9
8725,8,-238,-74,40,18,-11
8730,15,-242,-73,43,19,-11
8735,16,-236,-73,45,20,-11
8740,11,-239,-72,46,20,-11
8745,9,-225,-74,47,21,-10
8750,11,-233,-70,47,20,-10
8755,16,-239,-74,46,20,-10
8760,12,-237,-74,46,20,-11
8765,12,-238,-71,47,20,-11
8770,16,-238,-69,49,20,-12
8775,9,-235,-72,48,21,-14
8780,14,-239,-72,48,21,-12
8785,12,-238,-70,48,21,-13
8790,10,-238,-71,47,20,-10
8795,10,-241,-78,45,22,-11
8800,10,-238,-68,44,22,-10
8805,14,-240,-70,44,21,-10
8810,14,-238,-70,40,22,-10
8815,11,-236,-71,40,21,-11
8820,16,-235,-72,39,22,-10
8825,10,-234,-70,37,20,-9
8830,15,-239,-72,38,21,-11
8835,10,-240,-69,38,18,-9
8840,9,-237,-66,37,16,-11
8845,9,-235,-70,36,15,-11
8850,8,-244,-70,37,12,-12
8855,8,-236,-71,41,11,-12
8860,13,-239,-67,43,9,-13
8865,7,-236,-72,46,7,-12
8870,9,-237,-74,48,6,-10
8875,10,-235,-74,48,7,-10
8880,11,-234,-72,46,9,-10
8885,7,-231,-71,43,10,-9
8890,12,-236,-75,39,10,-10
8895,9,-236,-80,35,11,-9
8900,11,-241,-72,30,11,-9
8905,11,-236,-74,27,13,-10
8910,13,-241,-71,26,13,-11
8915,14,-241,-74,24,13,-11
8920,10,-241,-72,24,13,-9
8925,12,-241,-70,26,16,-9
8930,14,-241,-73,29,16,-10
8935,11,-237,-70,32,17,-11
8940,11,-238,-73,37,18,-9
8945,11,-241,-67,41,18,-8
8950,13,-240,-72,42,18,-10
8955,14,-239,-74,44,18,-9
8960,22,-235,-77,46,18,-9
8965,12,-236,-72,48,18,-9
8970,13,-240,-74,49,18,-9
8975,8,-237,-68,49,19,-9
8980,11,-238,-70,49,19,-11
8985,9,-238,-73,48,18,-11
8990,13,-235,-73,47,19,-10
8995,11,-236,-71,46,20,-10
9000,12,-238,-75,45,21,-9
9005,10,-233,-72,41,20,-10
9010,13,-237,-72,40,21,-9
9015,4,-246,-71,40,20,-9
9020,11,-238,-70,40,21,-9
9025,9,-237,-73,40,21,-8
9030,10,-237,-71,41,21,-8
9035,12,-237,-72,41,21,-7
9040,12,-239,-70,41,20,-7
9045,13,-241,-71,42,21,-6
9050,10,-236,-74,44,21,-7
9055,12,-239,-72,45,19,-7
9060,13,-240,-69,46,20,-6
9065,11,-239,-72,48,20,-7
9070,12,-236,-71,49,19,-7
9075,12,-237,-71,50,18,-8
9080,9,-234,-73,51,18,-10
9085,13,-237,-73,50,17,-11
9090,11,-235,-70,48,17,-10
9095,12,-238,-71,47,15,-11
9100,10,-235,-69,46,14,-11
9105,13,-239,-73,45,12,-13
9110,11,-235,-67,44,11,-12
9115,9,-235,-74,43,11,-13
9120,14,-241,-73,43,9,-13
9125,11,-238,-70,43,9,-12
9130,11,-238,-71,44,7,-11
9135,10,-239,-71,44,6,-11
9140,11,-239,-74,43,7,-10
9145,10,-235,-73,42,7,-10
9150,10,-237,-70,40,7,-10
9155,16,-236,-71,39,7,-9
9160,12,-239,-72,37,8,-7
9165,10,-237,-73,36,8,-9
9170,8,-239,-70,33,10,-10
9175,11,-243,-64,34,11,-10
9180,10,-237,-71,35,12,-12
9185,10,-237,-70,37,11,-11
9190,13,-235,-73,38,12,-10
9195,14,-237,-73,39,13,-11
9200,11,-237,-70,41,12,-11
9205,12,-238,-69,41,12,-11
9210,15,-238,-71,44,13,-11
9215,14,-236,-72,45,12,-11
9220,10,-240,-74,44,13,-13
9225,12,-237,-75,44,13,-11
9230,21,-236,-77,45,13,-13
9235,13,-238,-73,44,15,-10
9240,11,-238,-70,43,14,-11
9245,13,-237,-73,44,13,-12
9250,11,-235,-72,44,13,-12
9255,11,-236,-76,44,14,-11
9260,13,-237,-76,43,13,-12
9265,11,-235,-69,42,12,-12
9270,13,-238,-72,40,13,-12
9275,11,-241,-77,40,14,-12
9280,10,-239,-70,39,15,-10
9285,10,-236,-66,40,15,-12
9290,12,-237,-69,42,17,-11
9295,11,-235,-70,44,16,-12
9300,13,-236,-72,45,16,-9
9305,12,-238,-73,45,17,-8
9310,12,-238,-70,46,17,-9
9315,12,-238,-71,46,16,-10
9320,16,-238,-67,47,16,-11
9325,15,-240,-71,47,16,-8
9330,9,-234,-75,47,17,-9
9335,7,-236,-74,46,17,-9
9340,9,-239,-73,47,15,-11
9345,13,-239,-73,46,15,-11
9350,11,-237,-70,46,13,-9
9355,14,-239,-69,45,15,-11
9360,13,-240,-69,46,13,-11
9365,13,-238,-73,46,12,-11
9370,8,-235,-74,46,11,-10
9375,10,-236,-71,47,12,-11
9380,11,-239,-71,46,14,-10
9385,9,-236,-72,47,16,-12
9390,11,-240,-73,48,14,-10
9395,13,-240,-76,49,15,-10
9400,13,-238,-72,49,16,-9
9405,12,-239,-71,49,16,-9
9410,11,-240,-72,50,16,-10
9415,11,-238,-73,52,16,-10
9420,14,-238,-71,52,16,-10
9425,11,-237,-70,53,16,-10
9430,11,-242,-67,54,15,-11
9435,11,-238,-72,55,15,-12
9440,13,-236,-78,56,15,-13
9445,12,-237,-74,56,17,-12
9450,12,-239,-74,56,19,-12
9455,12,-236,-75,55,18,-10
9460,7,-236,-75,54,18,-11
9465,12,-239,-74,53,17,-10
9470,10,-237,-71,52,15,-11
9475,13,-237,-71,48,16,-11
9480,10,-240,-72,48,16,-9
9485,9,-237,-76,48,15,-12
9490,11,-237,-71,48,14,-12
9495,11,-240,-74,48,13,-12
9500,13,-237,-73,48,12,-13
9505,14,-240,-67,50,11,-12
9510,13,-241,-70,52,10,-13
9515,11,-239,-76,55,9,-14
9520,13,-237,-75,56,8,-13
9525,12,-237,-73,57,9,-12
9530,14,-236,-76,56,10,-13
9535,15,-235,-70,54,11,-10
9540,12,-236,-73,53,12,-10
9545,8,-233,-73,50,15,-9
9550,7,-234,-75,46,17,-8
9555,10,-237,-77,45,17,-7
9560,13,-237,-69,42,16,-7
9565,14,-239,-74,42,17,-6
9570,13,-237,-67,40,17,-6
9575,11,-236,-71,40,17,-6
9580,17,-239,-73,43,19,-6
9585,17,-238,-69,46,19,-5
9590,11,-237,-70,49,21,-5
9595,13,-239,-71,50,22,-4
9600,12,-235,-77,52,23,-6
9605,7,-236,-74,54,25,-6
9610,14,-243,-70,55,25,-8
9615,12,-239,-69,53,24,-6
9620,16,-237,-71,53,24,-7
9625,13,-238,-73,51,23,-7
9630,12,-238,-69,50,24,-7
9635,11,-238,-71,51,22,-9
9640,13,-238,-72,50,21,-9
9645,13,-236,-71,49,21,-9
9650,11,-238,-71,48,20,-9
9655,9,-236,-73,47,21,-9
9660,8,-236,-74,48,20,-9
9665,17,-238,-81,47,21,-7
9670,14,-239,-71,47,23,-7
9675,12,-236,-71,47,25,-7
9680,8,-235,-70,48,24,-6
9685,14,-235,-77,49,25,-6
9690,14,-237,-70,50,24,-6
9695,7,-236,-74,50,25,-4
9700,9,-237,-73,52,25,-4
9705,15,-235,-74,51,24,-5
9710,10,-235,-77,51,25,-5
9715,12,-240,-74,52,25,-4
9720,7,-242,-71,52,23,-5
9725,14,-239,-75,51,21,-6
9730,14,-239,-69,51,23,-7
9735,8,-238,-74,51,23,-6
9740,8,-237,-72,51,21,-7
9745,15,-239,-73,52,20,-9
9750,13,-238,-72,53,19,-9
9755,11,-236,-70,53,18,-10
9760,10,-238,-79,54,17,-10
9765,9,-236,-71,52,16,-8
9770,15,-235,-73,51,15,-9
9775,13,-238,-68,51,15,-8
9780,11,-238,-71,50,14,-8
9785,9,-237,-75,48,14,-9
9790,13,-237,-71,47,12,-9
9795,13,-236,-73,46,11,-10
9800,7,-234,-70,44,8,-8
9805,7,-238,-75,42,9,-7
9810,11,-240,-75,42,10,-8
9815,12,-235,-72,42,8,-10
9820,14,-237,-77,42,9,-9
9825,16,-238,-71,42,10,-9
9830,14,-237,-75,43,12,-9
9835,23,-241,-72,44,11,-10
9840,17,-239,-74,45,13,-9
9845,13,-238,-75,47,12,-8
9850,11,-235,-70,49,13,-9
9855,9,-237,-70,49,14,-10
9860,9,-239,-73,49,13,-8
9865,9,-238,-77,49,13,-9
9870,12,-237,-73,48,12,-8
9875,7,-239,-74,49,12,-9
9880,7,-234,-73,48,10,-10
9885,10,-239,-75,47,11,-10
9890,9,-236,-72,47,10,-9
9895,12,-239,-71,46,10,-10
9900,11,-237,-77,46,11,-9
9905,11,-238,-71,47,12,-10
9910,9,-237,-75,49,11,-10
9915,8,-235,-74,51,10,-9
9920,7,-240,-77,51,10,-8
9925,10,-237,-72,50,10,-9
9930,8,-237,-71,50,8,-8
9935,7,-237,-72,49,7,-9
9940,5,-236,-74,48,9,-8
9945,9,-236,-73,46,10,-9
9950,11,-237,-69,46,9,-11
9955,9,-236,-74,47,11,-9
9960,9,-238,-72,45,12,-10
9965,8,-236,-73,46,12,-9
9970,14,-238,-73,44,13,-11
9975,13,-240,-72,44,13,-12
9980,12,-236,-73,44,14,-11
9985,12,-238,-72,43,15,-10
9990,17,-238,-74,45,14,-12
9995,17,-242,-78,46,13,-11
10000,15,-241,-73,48,14,-13
10005,13,-239,-72,47,15,-12
10010,11,-238,-72,48,16,-12
10015,12,-236,-72,49,14,-11
10020,13,-237,-75,48,13,-10
10025,14,-234,-77,49,13,-9
10030,14,-241,-74,50,13,-10
10035,7,-238,-75,50,12,-8
10040,13,-237,-74,52,12,-9
10045,9,-234,-75,53,11,-9
10050,9,-239,-69,53,13,-10
10055,14,-237,-75,52,11,-9
10060,15,-235,-71,55,13,-9
10065,17,-238,-73,56,14,-10
10070,13,-236,-73,57,14,-11
10075,16,-237,-74,54,14,-10
10080,14,-241,-74,54,16,-9
10085,10,-235,-72,53,15,-10
10090,6,-233,-74,51,16,-12
10095,7,-237,-72,53,15,-13
10100,10,-241,-74,55,17,-12
10105,11,-236,-71,55,17,-11
10110,12,-235,-75,56,16,-11
10115,13,-238,-73,55,16,-10
10120,11,-237,-71,57,18,-11
10125,14,-239,-76,55,16,-10
10130,8,-236,-74,56,17,-10
10135,12,-237,-72,54,16,-10
10140,13,-237,-75,55,16,-10
10145,8,-234,-72,54,15,-9
10150,12,-237,-73,56,15,-11
10155,13,-238,-78,55,12,-11
10160,12,-237,-72,55,12,-12
10165,10,-240,-74,55,11,-13
10170,9,-239,-72,56,9,-12
10175,9,-241,-71,57,7,-15
10180,16,-239,-71,58,4,-14
10185,15,-238,-71,60,4,-15
10190,9,-232,-76,62,4,-14
10195,7,-239,-79,62,5,-13
10200,8,-236,-72,62,6,-12
10205,16,-236,-76,60,7,-13
10210,14,-231,-74,58,10,-11
10215,12,-236,-71,55,10,-9
10220,14,-233,-72,50,10,-11
10225,15,-237,-72,48,10,-12
10230,14,-239,-69,46,10,-11
10235,11,-235,-73,45,10,-9
10240,12,-235,-72,46,10,-9
10245,9,-236,-70,47,10,-9
10250,16,-241,-72,51,12,-9
10255,13,-235,-73,52,14,-8
10260,11,-240,-70,54,14,-8
10265,15,-239,-78,57,15,-9
10270,13,-235,-73,60,16,-9
10275,14,-238,-72,61,17,-9
10280,13,-235,-70,61,18,-10
10285,16,-237,-72,62,19,-11
10290,11,-237,-73,62,19,-10
10295,14,-235,-74,62,18,-9
10300,13,-236,-73,62,18,-10
10305,11,-234,-72,61,18,-10
10310,12,-237,-74,59,18,-8
10315,14,-237,-74,57,18,-8
10320,22,-238,-64,55,17,-10
10325,10,-233,-74,52,18,-9
10330,12,-237,-74,49,19,-11
10335,15,-237,-69,48,20,-9
10340,11,-237,-71,48,20,-8
10345,12,-236,-73,49,21,-9
10350,12,-238,-73,49,21,-7
10355,13,-239,-72,51,21,-6
10360,15,-236,-73,52,20,-4
10365,10,-239,-72,54,22,-6
10370,13,-237,-73,55,21,-7
10375,8,-234,-73,57,19,-7
10380,9,-239,-73,58,18,-6
10385,9,-238,-69,59,19,-7
10390,10,-239,-72,60,18,-7
10395,13,-238,-73,61,18,-7
10400,10,-238,-74,60,18,-6
10405,8,-235,-71,62,18,-7
10410,11,-238,-72,62,17,-9
10415,14,-240,-70,63,16,-8
10420,13,-239,-74,64,15,-9
10425,14,-235,-66,63,13,-10
10430,14,-240,-71,62,13,-10
10435,12,-238,-78,61,11,-10
10440,10,-235,-73,60,12,-9
10445,11,-237,-73,59,12,-9
10450,11,-238,-79,59,11,-10
10455,11,-235,-72,59,10,-9
10460,13,-238,-71,57,9,-9
10465,10,-239,-70,57,8,-9
10470,7,-235,-77,56,9,-8
10475,12,-239,-75,53,9,-6
10480,10,-238,-72,55,10,-6
10485,9,-237,-75,57,12,-8
10490,15,-240,-72,60,10,-7
10495,11,-238,-71,66,11,-7
10500,12,-237,-73,65,12,-9
10505,13,-239,-72,66,12,-9
10510,13,-236,-73,64,11,-10
10515,10,-238,-72,63,11,-7
10520,12,-238,-71,62,10,-9
10525,10,-237,-73,61,9,-8
10530,12,-239,-71,62,9,-8
10535,10,-237,-71,62,10,-9
10540,7,-240,-72,64,10,-8
10545,13,-238,-73,63,9,-11
10550,13,-237,-74,63,9,-9
10555,10,-237,-72,64,7,-9
10560,12,-235,-69,65,9,-10
10565,11,-240,-74,66,8,-8
10570,10,-234,-73,66,6,-7
10575,13,-239,-74,68,6,-6
10580,11,-236,-69,66,7,-7
10585,13,-238,-72,65,6,-7
10590,6,-239,-67,65,5,-8
10595,12,-237,-69,66,5,-8
10600,12,-239,-71,66,6,-8
10605,11,-237,-73,68,6,-8
10610,12,-239,-71,68,3,-7
10615,11,-234,-72,69,2,-6
10620,10,-235,-72,69,2,-7
10625,8,-235,-74,68,2,-7
10630,9,-234,-70,67,4,-7
10635,9,-236,-73,66,5,-7
10640,13,-236,-70,64,5,-6
10645,9,-242,-66,61,6,-7
10650,11,-239,-72,63,7,-6
10655,9,-235,-69,61,7,-6
10660,9,-237,-73,61,6,-6
10665,8,-235,-73,61,6,-8
10670,7,-237,-72,60,6,-7
10675,13,-240,-70,58,5,-7
10680,13,-239,-73,58,5,-4
10685,9,-236,-70,57,3,-5
10690,14,-238,-74,57,4,-7
10695,13,-238,-69,55,5,-6
10700,10,-233,-72,55,5,-5
10705,13,-237,-69,54,4,-5
10710,12,-239,-70,54,4,-6
10715,10,-238,-72,54,5,-5
10720,13,-238,-69,56,5,-8
10725,13,-237,-72,56,5,-8
10730,12,-237,-73,57,7,-8
10735,14,-239,-71,57,7,-9
10740,12,-237,-74,57,7,-9
10745,11,-237,-70,56,6,-9
10750,12,-241,-75,55,6,-9
10755,13,-241,-70,55,8,-9
10760,10,-236,-71,55,8,-8
10765,11,-238,-73,57,9,-8
10770,12,-236,-72,58,9,-9
10775,13,-235,-73,59,11,-7
10780,10,-238,-70,60,10,-7
10785,11,-238,-72,61,11,-7
10790,11,-234,-71,60,12,-7
10795,13,-239,-73,58,11,-6
10800,15,-239,-72,55,11,-6
10805,12,-237,-74,54,11,-7
10810,9,-226,-76,52,12,-8
10815,9,-235,-72,51,12,-8
10820,14,-237,-71,50,12,-7
10825,13,-237,-72,48,11,-7
10830,9,-236,-69,47,11,-8
10835,13,-239,-67,48,10,-10
10840,10,-239,-72,49,9,-9
10845,11,-242,-69,49,5,-10
10850,10,-240,-68,50,2,-11
10855,7,-237,-67,53,-1,-12
10860,10,-240,-71,57,-2,-13
10865,13,-241,-69,60,-3,-13
10870,8,-235,-68,62,-2,-11
10875,9,-238,-74,65,-2,-10
10880,8,-236,-74,65,0,-11
10885,11,-235,-73,65,2,-8
10890,12,-235,-72,60,3,-7
10895,10,-236,-70,58,6,-7
10900,14,-239,-69,54,7,-8
10905,13,-239,-68,50,7,-9
10910,15,-240,-68,48,6,-9
10915,12,-236,-69,47,7,-8
10920,8,-238,-68,47,7,-6
10925,13,-239,-69,50,8,-6
10930,13,-239,-70,53,9,-8
10935,9,-239,-69,54,10,-7
10940,11,-238,-69,58,10,-8
10945,12,-239,-71,59,12,-8
10950,10,-237,-68,61,12,-8
10955,12,-238,-68,61,13,-10
10960,9,-237,-68,62,13,-9
10965,14,-239,-73,61,12,-8
10970,14,-238,-67,60,12,-10
10975,15,-242,-73,59,12,-8
10980,10,-241,-68,57,10,-10
10985,11,-239,-70,58,11,-11
10990,9,-239,-72,58,11,-11
10995,10,-238,-73,57,13,-9
11000,14,-238,-73,58,12,-9
11005,13,-239,-71,57,13,-8
11010,11,-236,-71,56,13,-8
11015,10,-234,-69,56,14,-8
11020,12,-238,-73,55,15,-8
11025,12,-239,-71,54,16,-7
11030,9,-237,-74,53,18,-6
11035,12,-235,-68,53,19,-8
11040,8,-235,-69,54,19,-7
11045,10,-238,-70,54,18,-5
11050,11,-241,-71,55,18,-5
11055,10,-238,-73,54,19,-5
11060,11,-238,-69,55,18,-5
11065,11,-237,-74,54,18,-6
11070,13,-238,-73,54,17,-6
11075,12,-238,-67,53,16,-8
11080,5,-238,-74,54,16,-8
11085,9,-236,-71,56,14,-8
11090,10,-238,-75,56,14,-8
11095,10,-235,-71,57,12,-10
11100,9,-238,-71,56,12,-11
11105,13,-238,-71,55,11,-10
11110,10,-236,-70,54,12,-9
11115,9,-233,-73,52,12,-8
11120,12,-238,-71,50,10,-10
11125,11,-239,-73,50,10,-10
11130,13,-238,-74,49,7,-10
11135,8,-240,-73,47,7,-7
11140,12,-235,-70,46,7,-8
11145,12,-239,-71,45,9,-7
11150,12,-237,-70,46,8,-7
11155,11,-238,-70,46,9,-6
11160,14,-239,-70,47,8,-6
11165,11,-236,-70,49,10,-7
11170,12,-243,-71,50,12,-5
11175,12,-236,-69,52,14,-7
11180,12,-239,-74,51,13,-7
11185,13,-237,-69,50,13,-6
11190,11,-236,-73,48,13,-9
11195,9,-237,-72,48,12,-8
11200,14,-239,-70,46,13,-8
11205,16,-238,-70,45,14,-7
11210,11,-240,-70,43,14,-10
11215,12,-235,-71,44,14,-8
11220,13,-240,-70,46,15,-8
11225,8,-235,-70,47,15,-10
11230,14,-237,-69,47,15,-9
11235,9,-238,-67,46,15,-9
11240,12,-238,-71,48,15,-9
11245,10,-233,-69,48,16,-8
11250,10,-235,-76,47,17,-9
11255,10,-237,-67,46,17,-10
11260,12,-240,-71,47,17,-8
11265,10,-238,-71,45,17,-9
11270,10,-237,-72,46,17,-10
11275,12,-238,-74,45,16,-11
11280,13,-239,-70,45,16,-10
11285,8,-239,-71,45,17,-11
11290,12,-240,-76,45,17,-11
11295,15,-241,-69,50,15,-10
11300,11,-240,-71,51,16,-11
11305,7,-237,-74,52,16,-10
11310,12,-240,-71,54,17,-11
11315,10,-237,-69,55,16,-9
11320,13,-236,-71,55,15,-9
11325,10,-237,-69,55,17,-10
11330,11,-236,-73,55,16,-11
11335,9,-239,-71,55,17,-8
11340,12,-235,-72,53,18,-8
11345,10,-236,-69,52,18,-9
11350,13,-239,-70,50,17,-10
11355,11,-231,-75,50,16,-8
11360,10,-238,-69,51,17,-9
11365,11,-235,-68,49,17,-10
11370,13,-241,-68,45,17,-10
11375,11,-235,-74,45,16,-8
11380,12,-237,-67,44,15,-9
11385,7,-237,-69,46,16,-9
11390,10,-237,-73,47,16,-11
11395,11,-238,-70,49,15,-10
11400,9,-239,-72,51,16,-10
11405,10,-239,-71,54,17,-9
11410,7,-241,-75,57,16,-9
11415,12,-234,-69,58,15,-10
11420,10,-240,-67,60,16,-10
11425,8,-239,-72,62,16,-10
11430,10,-238,-71,63,16,-11
11435,12,-240,-71,63,16,-11
11440,10,-236,-70,63,16,-10
11445,8,-239,-74,63,17,-10
11450,13,-236,-72,62,15,-9
11455,13,-237,-70,61,16,-10
11460,14,-234,-73,59,16,-9
11465,10,-240,-70,59,18,-12
11470,10,-235,-73,58,19,-12
11475,9,-238,-70,57,19,-10
11480,9,-236,-73,57,19,-9
11485,10,-238,-72,56,19,-9
11490,8,-236,-66,56,18,-10
11495,12,-237,-73,55,16,-9
11500,12,-238,-69,54,15,-11
11505,10,-237,-67,54,14,-11
11510,11,-239,-73,53,13,-10
11515,11,-238,-70,53,11,-11
11520,14,-244,-68,53,10,-13
11525,10,-238,-69,53,8,-14
11530,9,-239,-70,57,7,-14
11535,7,-237,-68,58,5,-14
11540,9,-237,-68,61,5,-16
11545,9,-233,-73,63,4,-14
11550,11,-237,-73,63,4,-12
11555,9,-234,-74,64,6,-11
11560,9,-233,-71,62,7,-12
11565,10,-238,-74,60,7,-11
11570,9,-235,-67,57,10,-11
11575,7,-239,-72,54,10,-9
11580,10,-237,-72,51,9,-10
11585,10,-237,-70,47,9,-11
11590,11,-236,-68,47,9,-10
11595,13,-241,-68,46,9,-10
11600,12,-240,-72,49,8,-11
11605,7,-240,-73,50,9,-8
11610,13,-241,-71,52,9,-9
11615,9,-239,-72,56,11,-8
11620,10,-239,-70,58,12,-7
11625,12,-243,-71,60,13,-7
11630,11,-239,-71,62,14,-8
11635,12,-239,-72,63,13,-8
11640,8,-236,-68,65,14,-10
11645,9,-240,-69,66,15,-10
11650,11,-239,-70,66,14,-10
11655,10,-236,-67,66,14,-10
11660,9,-233,-69,65,14,-10
11665,9,-236,-70,65,14,-10
11670,10,-239,-69,63,13,-10
11675,13,-240,-71,61,15,-9
11680,9,-238,-65,60,15,-11
11685,12,-239,-73,59,16,-8
11690,10,-238,-70,58,16,-9
11695,12,-237,-72,58,15,-8
11700,10,-236,-68,57,16,-8
11705,10,-235,-70,56,17,-7
11710,13,-238,-70,56,16,-6
11715,9,-239,-71,56,17,-7
11720,12,-236,-73,57,15,-7
11725,10,-237,-74,60,16,-5
11730,13,-240,-73,59,16,-6
11735,16,-239,-75,60,17,-6
11740,9,-237,-71,60,17,-7
11745,11,-236,-76,58,17,-7
11750,10,-237,-67,60,15,-7
11755,10,-236,-69,60,14,-9
11760,9,-238,-76,60,14,-10
11765,10,-235,-69,61,13,-10
11770,9,-235,-73,62,13,-10
11775,8,-236,-72,60,14,-9
11780,8,-235,-72,59,13,-9
11785,10,-236,-69,58,11,-8
11790,18,-239,-79,57,10,-9
11795,11,-239,-73,56,8,-10
11800,10,-238,-71,54,7,-10
11805,12,-235,-68,54,7,-9
11810,13,-240,-74,55,7,-11
11815,15,-239,-68,55,5,-10
11820,8,-238,-74,55,6,-9
11825,9,-238,-69,55,5,-10
11830,7,-240,-67,55,5,-10
11835,11,-238,-71,55,5,-8
11840,8,-233,-71,54,6,-8
11845,13,-238,-64,54,6,-8
11850,10,-238,-72,53,6,-7
11855,9,-240,-72,52,9,-8
11860,12,-239,-70,52,7,-8
11865,12,-240,-71,52,7,-8
11870,7,-235,-67,52,9,-7
11875,15,-241,-75,53,9,-7
11880,12,-237,-71,53,9,-7
11885,12,-237,-71,53,10,-9
11890,9,-239,-73,52,9,-8
11895,12,-240,-70,52,9,-9
11900,17,-237,-66,52,8,-7
11905,11,-236,-72,51,9,-8
11910,13,-239,-72,50,8,-8
11915,12,-238,-67,50,9,-7
11920,11,-239,-68,49,8,-9
11925,12,-237,-73,50,8,-8
11930,10,-239,-72,48,8,-9
11935,10,-237,-69,49,9,-9
11940,12,-237,-69,49,8,-10
11945,12,-241,-73,49,9,-9
11950,14,-241,-70,48,7,-10
11955,8,-238,-73,48,9,-9
11960,12,-235,-72,49,10,-9
11965,9,-239,-71,48,9,-8
11970,11,-238,-69,49,9,-9
11975,11,-238,-71,50,9,-11
11980,12,-238,-69,50,8,-11
11985,11,-237,-69,49,8,-9
11990,9,-238,-72,48,9,-9
11995,9,-238,-68,48,8,-10
