timestamp,acc_x,acc_y,acc_z,gyro_x,gyro_y,gyro_z
0,2,-240,-62,70,36,-11
5,2,-239,-65,70,35,-12
10,3,-238,-60,70,34,-11
15,6,-240,-63,70,33,-9
20,1,-238,-62,69,33,-9
25,3,-237,-62,66,31,-12
30,6,-240,-63,62,32,-11
35,2,-241,-62,59,33,-9
40,2,-239,-65,55,32,-11
45,6,-240,-61,50,33,-10
50,3,-241,-64,49,35,-10
55,5,-242,-64,50,36,-11
60,5,-241,-61,50,35,-11
65,7,-242,-61,52,36,-11
70,5,-245,-61,53,37,-9
75,2,-240,-57,53,37,-7
80,6,-242,-62,55,37,-8
85,3,-239,-62,55,36,-8
90,5,-241,-63,55,36,-8
95,1,-237,-63,56,35,-8
100,4,-240,-63,58,35,-8
105,4,-239,-60,57,35,-9
110,4,-242,-59,59,33,-8
115,2,-238,-58,58,31,-9
120,3,-240,-62,57,32,-7
125,4,-240,-66,55,31,-7
130,5,-234,-60,52,29,-9
135,5,-240,-63,50,28,-7
140,5,-239,-63,48,27,-7
145,5,-240,-62,47,26,-9
150,1,-243,-63,45,23,-7
155,2,-241,-63,44,22,-8
160,5,-240,-62,44,19,-6
165,5,-243,-59,46,18,-6
170,3,-241,-61,48,16,-7
175,2,-241,-63,51,15,-7
180,2,-241,-63,52,13,-7
185,6,-238,-64,53,12,-6
190,5,-240,-63,51,9,-4
195,3,-238,-62,50,7,-5
200,5,-239,-64,48,7,-7
205,5,-240,-62,47,6,-6
210,4,-241,-61,47,3,-5
215,5,-239,-62,46,2,-8
220,5,-242,-62,48,1,-8
225,5,-237,-66,47,0,-7
230,8,-242,-61,45,0,-9
235,2,-236,-64,44,2,-9
240,4,-240,-61,43,1,-8
245,4,-241,-61,43,1,-8
250,8,-242,-62,42,1,-10
255,5,-240,-62,41,1,-12
260,6,-239,-64,42,2,-10
265,4,-241,-61,42,1,-11
270,7,-241,-61,43,0,-10
275,8,-243,-63,44,1,-10
280,7,-240,-64,44,1,-10
285,5,-241,-65,44,0,-11
290,4,-239,-61,44,2,-10
295,4,-238,-63,41,1,-11
300,5,-241,-64,38,2,-10
305,2,-238,-64,36,2,-10
310,5,-237,-63,34,3,-10
315,7,-240,-65,33,5,-11
320,7,-238,-61,34,5,-13
325,3,-238,-63,35,7,-11
330,8,-241,-65,36,7,-11
335,6,-238,-64,35,8,-12
340,6,-238,-63,34,6,-10
345,8,-241,-63,33,6,-10
350,2,-238,-63,32,6,-8
355,5,-237,-64,29,7,-12
360,5,-240,-63,28,7,-11
365,3,-240,-61,26,8,-13
370,6,-239,-64,26,5,-12
375,9,-242,-63,26,6,-12
380,4,-236,-62,27,8,-12
385,6,-242,-62,27,9,-11
390,4,-241,-60,27,8,-12
395,4,-240,-58,28,6,-12
400,4,-242,-57,29,7,-12
405,6,-243,-64,28,8,-13
410,5,-241,-64,29,9,-11
415,4,-243,-63,28,9,-12
420,4,-240,-64,28,11,-13
425,5,-240,-62,28,11,-12
430,4,-241,-63,30,11,-11
435,5,-244,-67,30,10,-11
440,5,-242,-62,32,11,-11
445,6,-243,-65,35,11,-10
450,2,-238,-66,33,11,-10
455,3,-243,-60,33,12,-10
460,2,-243,-66,34,10,-12
465,3,-241,-65,34,12,-12
470,4,-240,-60,33,13,-11
475,5,-242,-64,32,12,-11
480,6,-239,-63,32,14,-10
485,5,-237,-63,31,14,-10
490,7,-242,-63,29,14,-9
495,2,-238,-63,26,14,-8
500,8,-241,-61,21,15,-9
505,5,-238,-63,19,15,-8
510,5,-238,-65,14,16,-8
515,13,-239,-63,13,16,-8
520,6,-239,-62,15,17,-8
525,4,-239,-64,14,18,-10
530,7,-242,-60,15,17,-11
535,6,-239,-63,17,16,-11
540,8,-243,-65,18,14,-12
545,7,-242,-64,21,15,-11
550,4,-239,-66,22,13,-9
555,6,-237,-67,23,12,-8
560,6,-237,-68,22,14,-6
565,5,-241,-71,19,15,-4
570,5,-238,-65,17,19,-6
575,4,-238,-64,14,20,-5
580,5,-239,-65,10,23,-4
585,7,-239,-65,6,25,-5
590,7,-241,-64,3,25,-5
595,8,-241,-63,1,27,-3
600,9,-239,-61,1,29,-4
605,5,-241,-62,1,30,-5
610,5,-244,-63,1,32,-4
615,7,-241,-63,3,37,-4
620,6,-242,-63,5,40,-4
625,5,-240,-65,7,42,-3
630,4,-239,-62,8,44,-4
635,5,-239,-62,8,45,-4
640,3,-239,-64,7,45,-4
645,5,-237,-63,6,45,-3
650,4,-240,-63,5,42,-4
655,5,-238,-65,5,42,-2
660,4,-238,-61,4,41,-5
665,5,-243,-64,4,40,-4
670,6,-240,-66,4,38,-7
675,1,-242,-59,5,35,-5
680,5,-243,-63,7,35,-5
685,2,-243,-64,5,32,-6
690,0,-238,-62,5,32,-6
695,4,-241,-66,5,29,-8
700,2,-244,-66,6,29,-9
705,3,-238,-66,8,29,-10
710,2,-242,-64,12,28,-9
715,4,-241,-64,16,27,-9
720,1,-239,-66,20,24,-8
725,2,-241,-64,24,21,-8
730,4,-249,-64,28,18,-9
735,2,-240,-65,31,13,-7
740,1,-238,-66,33,9,-7
745,2,-241,-62,34,6,-8
750,1,-242,-60,35,2,-7
755,0,-240,-63,36,-1,-8
760,1,-237,-64,37,-4,-9
765,1,-236,-66,36,-6,-10
770,4,-238,-67,39,-7,-11
775,6,-242,-63,41,-9,-12
780,2,-241,-66,41,-11,-12
785,4,-246,-69,43,-14,-14
790,2,-238,-68,45,-17,-15
795,4,-240,-70,45,-21,-15
800,3,-242,-65,46,-24,-16
805,2,-237,-67,45,-27,-17
810,1,-240,-64,49,-29,-14
815,1,-236,-61,50,-32,-16
820,5,-238,-67,51,-34,-17
825,5,-240,-63,51,-36,-16
830,5,-237,-65,50,-38,-18
835,5,-239,-66,50,-39,-17
840,3,-241,-62,48,-40,-18
845,6,-240,-67,45,-43,-19
850,9,-239,-68,43,-40,-19
855,5,-239,-66,41,-40,-21
860,6,-241,-66,40,-40,-21
865,8,-240,-65,41,-39,-20
870,6,-242,-64,43,-37,-20
875,5,-242,-64,43,-35,-20
880,10,-242,-68,43,-33,-21
885,5,-242,-67,44,-31,-21
890,7,-240,-59,44,-31,-19
895,12,-241,-70,44,-29,-19
900,7,-238,-64,44,-28,-17
905,7,-237,-71,46,-26,-20
910,7,-243,-65,45,-23,-16
915,7,-237,-64,45,-21,-16
920,6,-237,-66,46,-18,-16
925,7,-237,-70,42,-18,-14
930,4,-241,-65,41,-15,-12
935,6,-240,-68,39,-13,-12
940,5,-237,-63,36,-10,-11
945,10,-236,-66,34,-8,-12
950,3,-234,-70,34,-7,-10
955,5,-236,-65,33,-6,-11
960,7,-240,-67,32,-5,-10
965,9,-240,-67,30,-4,-10
970,6,-239,-66,29,-3,-9
975,5,-239,-68,27,-2,-6
980,6,-240,-67,27,-2,-7
985,5,-241,-68,28,0,-7
990,3,-239,-66,30,0,-6
995,9,-243,-68,33,2,-7
1000,4,-239,-67,36,2,-7
1005,1,-240,-70,39,4,-7
1010,5,-239,-67,39,5,-8
1015,7,-241,-64,40,5,-8
1020,4,-239,-68,40,5,-9
1025,3,-241,-68,40,5,-9
1030,5,-241,-67,41,5,-8
1035,5,-241,-64,42,3,-7
1040,6,-241,-67,44,2,-9
1045,7,-240,-66,46,2,-8
1050,7,-244,-66,47,1,-9
1055,5,-236,-66,47,0,-9
1060,2,-242,-67,50,0,-9
1065,4,-239,-65,51,0,-10
1070,6,-242,-67,53,-2,-8
1075,5,-242,-66,52,-1,-8
1080,4,-241,-65,51,-2,-8
1085,5,-238,-68,53,-3,-7
1090,3,-239,-68,54,-3,-8
1095,6,-241,-68,57,-3,-8
1100,3,-239,-71,61,-4,-9
1105,4,-240,-67,61,-7,-10
1110,3,-232,-67,62,-7,-11
1115,4,-240,-65,64,-7,-12
1120,7,-238,-67,63,-8,-12
1125,4,-239,-65,61,-10,-12
1130,5,-241,-65,61,-10,-12
1135,3,-239,-66,61,-9,-14
1140,4,-239,-65,61,-10,-13
1145,4,-240,-69,62,-15,-12
1150,4,-238,-65,64,-17,-11
1155,1,-239,-68,63,-19,-12
1160,4,-239,-68,63,-20,-14
1165,-1,-228,-66,61,-21,-13
1170,4,-238,-65,60,-22,-13
1175,4,-238,-65,58,-23,-14
1180,3,-239,-65,58,-24,-13
1185,5,-241,-65,56,-25,-14
1190,5,-239,-66,56,-26,-14
1195,7,-240,-65,57,-26,-14
1200,4,-239,-65,59,-26,-14
1205,5,-240,-67,60,-27,-14
1210,4,-239,-69,60,-26,-14
1215,4,-235,-70,61,-26,-15
1220,6,-242,-67,60,-26,-13
1225,6,-239,-68,55,-25,-13
1230,7,-239,-67,51,-23,-14
1235,7,-238,-69,48,-22,-14
1240,3,-238,-66,45,-20,-12
1245,3,-242,-69,46,-20,-14
1250,7,-239,-65,47,-20,-14
1255,5,-243,-65,49,-19,-13
1260,5,-241,-66,52,-18,-13
1265,4,-238,-68,57,-18,-13
1270,9,-240,-66,59,-17,-15
1275,5,-239,-66,58,-18,-13
1280,3,-237,-64,56,-20,-10
1285,5,-238,-65,56,-19,-10
1290,3,-242,-66,55,-21,-12
1295,2,-240,-63,54,-21,-12
1300,3,-240,-64,55,-22,-13
1305,3,-241,-66,56,-23,-14
1310,2,-241,-69,58,-23,-12
1315,5,-242,-67,60,-24,-10
1320,6,-241,-67,61,-25,-11
1325,6,-244,-68,61,-24,-13
1330,3,-242,-65,61,-22,-13
1335,3,-239,-69,60,-21,-12
1340,3,-237,-69,60,-21,-12
1345,4,-239,-65,58,-18,-12
1350,3,-238,-65,57,-15,-11
1355,6,-238,-68,54,-14,-10
1360,3,-236,-67,53,-13,-9
1365,5,-239,-63,51,-11,-10
1370,4,-240,-72,49,-12,-8
1375,6,-241,-66,48,-10,-7
1380,7,-234,-65,43,-9,-9
1385,6,-235,-65,39,-10,-8
1390,6,-236,-63,36,-8,-7
1395,4,-236,-68,32,-7,-6
1400,4,-236,-67,29,-4,-4
1405,4,-237,-64,28,-3,-5
1410,6,-240,-66,26,-2,-4
1415,4,-238,-66,26,-3,-4
1420,6,-237,-69,25,-4,-4
1425,5,-240,-69,25,-3,-5
1430,4,-241,-76,24,-4,-4
1435,4,-239,-71,25,-6,-3
1440,1,-238,-67,25,-5,-3
1445,3,-237,-69,24,-5,-2
1450,5,-239,-68,24,-5,-1
1455,3,-238,-67,23,-4,0
1460,5,-242,-65,22,-2,1
1465,3,-241,-68,23,-1,0
1470,4,-238,-67,23,0,0
1475,3,-242,-68,27,2,-1
1480,2,-241,-67,30,2,-1
1485,3,-237,-67,31,2,-2
1490,2,-238,-65,30,3,-3
1495,2,-242,-70,29,4,-5
1500,4,-242,-65,26,4,-5
1505,2,-237,-67,25,5,-6
1510,4,-238,-68,24,4,-6
1515,3,-241,-68,23,2,-6
1520,2,-239,-66,24,3,-5
1525,3,-237,-65,26,3,-6
1530,6,-243,-71,27,3,-5
1535,4,-244,-68,28,3,-5
1540,1,-235,-68,26,3,-6
1545,2,-237,-69,25,4,-5
1550,7,-241,-70,22,4,-4
1555,3,-236,-67,20,3,-5
1560,4,-240,-64,20,2,-5
1565,5,-238,-64,20,0,-6
1570,2,-238,-64,22,-1,-4
1575,5,-242,-65,23,-1,-7
1580,4,-242,-64,25,-3,-5
1585,3,-238,-69,25,-3,-5
1590,1,-236,-67,24,-3,-5
1595,2,-238,-70,22,-3,-7
1600,3,-240,-69,19,0,-9
1605,5,-237,-66,13,0,-8
1610,4,-236,-66,10,1,-8
1615,4,-236,-66,10,2,-8
1620,1,-237,-67,7,4,-8
1625,2,-236,-66,6,5,-9
1630,3,-235,-68,3,5,-9
1635,3,-237,-69,1,4,-12
1640,1,-237,-67,-2,4,-13
1645,4,-237,-66,-4,3,-11
1650,4,-242,-70,-7,4,-10
1655,9,-236,-66,-8,5,-10
1660,2,-239,-66,-9,5,-9
1665,5,-240,-68,-7,5,-9
1670,6,-242,-66,-5,4,-9
1675,4,-238,-70,-3,4,-7
1680,1,-237,-70,0,5,-6
1685,4,-238,-68,3,6,-7
1690,8,-244,-70,5,5,-6
1695,3,-239,-67,8,5,-5
1700,3,-242,-67,10,6,-4
1705,4,-240,-64,14,8,-3
1710,11,-241,-67,17,6,-4
1715,3,-239,-68,20,5,-6
1720,6,-239,-69,22,7,-6
1725,3,-239,-70,25,9,-7
1730,6,-242,-69,28,10,-6
1735,3,-241,-72,29,11,-7
1740,6,-239,-68,29,12,-9
1745,5,-239,-68,27,13,-9
1750,4,-238,-68,27,12,-9
1755,4,-235,-67,25,12,-9
1760,1,-236,-70,21,12,-8
1765,4,-238,-66,18,13,-8
1770,5,-238,-70,14,11,-9
1775,4,-237,-68,11,12,-9
1780,2,-235,-64,9,10,-8
1785,3,-238,-69,6,9,-7
1790,2,-237,-67,2,7,-6
1795,2,-231,-67,0,7,-6
1800,2,-236,-66,-4,5,-6
1805,1,-238,-68,-8,4,-6
1810,5,-239,-68,-11,2,-7
1815,2,-237,-68,-16,0,-8
1820,2,-232,-62,-21,0,-9
1825,3,-238,-66,-22,-1,-10
1830,1,-235,-67,-25,-1,-12
1835,5,-240,-66,-26,-2,-14
1840,3,-241,-71,-25,-2,-14
1845,1,-240,-70,-23,-2,-15
1850,2,-238,-72,-20,-2,-15
1855,1,-236,-72,-18,-3,-14
1860,-1,-237,-70,-19,-3,-13
1865,3,-234,-73,-22,-4,-11
1870,2,-236,-71,-26,-4,-10
1875,5,-238,-75,-34,-3,-8
1880,5,-236,-73,-40,-2,-6
1885,5,-237,-70,-46,1,-6
1890,5,-234,-69,-52,4,-4
1895,6,-240,-71,-55,7,-5
1900,3,-238,-69,-56,13,-2
1905,5,-236,-73,-56,18,0
1910,8,-241,-73,-56,23,2
1915,6,-241,-73,-57,29,7
1920,9,-238,-75,-59,33,10
1925,8,-238,-75,-61,38,11
1930,7,-239,-79,-67,44,12
1935,5,-238,-80,-75,50,15
1940,8,-236,-80,-86,56,19
1945,5,-237,-85,-97,61,24
1950,6,-236,-78,-107,64,28
1955,6,-237,-84,-117,68,32
1960,4,-233,-83,-126,73,37
1965,6,-237,-85,-131,76,42
1970,5,-230,-80,-137,79,47
1975,5,-228,-89,-141,83,51
1980,5,-230,-81,-145,84,57
1985,5,-229,-83,-149,87,63
1990,10,-232,-86,-152,90,67
1995,9,-228,-85,-155,93,72
2000,5,-229,-86,-158,95,73
2005,6,-230,-82,-158,95,79
2010,2,-233,-82,-154,98,84
2015,4,-236,-87,-147,99,90
2020,4,-232,-84,-139,102,94
2025,6,-233,-86,-129,106,96
2030,4,-235,-82,-118,111,102
2035,4,-234,-82,-108,114,104
2040,12,-232,-83,-97,117,103
2045,1,-235,-85,-87,118,104
2050,0,-240,-83,-78,120,97
2055,0,-242,-84,-70,119,92
2060,0,-239,-82,-59,115,88
2065,1,-244,-87,-48,111,84
2070,0,-243,-87,-39,105,81
2075,0,-245,-88,-31,97,78
2080,-1,-244,-85,-25,85,77
2085,-2,-241,-88,-23,73,75
2090,-10,-241,-80,-24,59,75
2095,-3,-244,-82,-31,48,75
2100,-3,-241,-84,-40,35,74
2105,-9,-242,-80,-54,26,73
2110,-12,-238,-78,-67,17,70
2115,-11,-240,-72,-86,4,72
2120,-13,-237,-75,-105,-8,71
2125,-9,-241,-71,-125,-19,68
2130,-10,-238,-73,-143,-29,66
2135,-14,-234,-67,-166,-37,66
2140,-10,-238,-69,-185,-47,63
2145,-10,-228,-64,-202,-53,61
2150,-11,-238,-72,-220,-61,54
2155,-9,-237,-68,-235,-71,49
2160,-10,-235,-66,-252,-86,41
2165,-9,-235,-67,-266,-101,32
2170,-6,-236,-65,-277,-119,20
2175,-7,-235,-66,-282,-138,9
2180,-4,-238,-69,-287,-159,-3
2185,-7,-236,-71,-286,-182,-22
2190,-5,-239,-73,-286,-203,-30
2195,-4,-239,-74,-275,-221,-39
2200,-6,-241,-74,-268,-242,-53
2205,-3,-245,-76,-262,-262,-62
2210,-4,-243,-76,-247,-277,-77
2215,-1,-246,-78,-231,-294,-88
2220,-1,-249,-77,-219,-306,-96
2225,-1,-253,-76,-200,-315,-95
2230,0,-251,-78,-178,-321,-99
2235,1,-251,-84,-154,-323,-114
2240,1,-249,-82,-133,-322,-130
2245,2,-250,-84,-126,-312,-138
2250,3,-251,-84,-113,-300,-150
2255,0,-247,-85,-112,-294,-163
2260,2,-250,-85,-115,-285,-181
2265,-1,-245,-89,-115,-280,-201
2270,0,-243,-92,-118,-278,-215
2275,1,-245,-90,-127,-277,-216
2280,2,-248,-93,-143,-277,-218
2285,1,-248,-86,-163,-274,-246
2290,2,-254,-86,-179,-278,-258
2295,1,-258,-92,-188,-299,-249
2300,6,-262,-98,-199,-313,-243
2305,3,-266,-94,-212,-316,-251
2310,5,-270,-92,-209,-318,-261
2315,7,-271,-99,-196,-330,-267
2320,11,-273,-101,-197,-347,-266
2325,16,-271,-91,-205,-361,-262
2330,14,-264,-96,-175,-365,-270
2335,18,-267,-90,-144,-372,-263
2340,14,-266,-98,-123,-373,-272
2345,25,-268,-97,-108,-373,-276
2350,24,-272,-100,-101,-375,-294
2355,27,-273,-104,-98,-366,-313
2360,32,-279,-108,-101,-325,-336
2365,31,-277,-114,-116,-292,-351
2370,35,-279,-110,-144,-269,-365
2375,31,-282,-120,-146,-224,-386
2380,32,-271,-117,-153,-195,-397
2385,36,-274,-142,-161,-171,-412
2390,29,-260,-158,-247,-149,-421
2395,26,-250,-110,-428,-128,-407
2400,8,-236,-74,-414,-65,-389
2405,4,-228,-73,-210,-3,-387
2410,15,-236,-94,-12,33,-397
2415,15,-234,-101,81,32,-412
2420,18,-227,-107,135,35,-428
2425,21,-231,-116,151,51,-422
2430,24,-234,-108,117,47,-417
2435,9,-214,-94,102,52,-416
2440,4,-208,-89,156,88,-407
2445,4,-210,-96,205,112,-411
2450,13,-214,-94,176,93,-411
2455,2,-195,-100,142,74,-426
2460,1,-179,-76,61,1,-450
2465,-2,-175,-69,21,-12,-484
2470,-2,-187,-72,81,44,-482
2475,8,-193,-90,103,66,-484
2480,4,-184,-82,41,45,-500
2485,-2,-178,-83,16,38,-509
2490,2,-186,-89,5,44,-499
2495,0,-178,-81,-31,32,-485
2500,0,-189,-96,-73,25,-489
2505,-3,-166,-74,-130,-1,-473
2510,-5,-181,-93,-115,-10,-442
2515,-7,-175,-89,-137,-27,-430
2520,-4,-180,-100,-156,-53,-417
2525,-12,-166,-93,-180,-82,-410
2530,-9,-167,-86,-170,-101,-407
2535,-5,-167,-97,-160,-112,-405
2540,-5,-156,-84,-190,-132,-379
2545,0,-162,-98,-184,-143,-329
2550,-3,-150,-93,-185,-138,-293
2555,1,-147,-96,-178,-136,-270
2560,4,-145,-99,-178,-145,-267
2565,9,-144,-103,-220,-162,-256
2570,5,-136,-91,-271,-181,-229
2575,8,-129,-96,-277,-189,-189
2580,7,-126,-96,-266,-196,-156
2585,8,-124,-95,-249,-210,-154
2590,18,-118,-95,-241,-232,-156
2595,17,-115,-94,-243,-256,-131
2600,22,-111,-91,-247,-265,-111
2605,24,-103,-84,-257,-264,-98
2610,23,-100,-84,-267,-257,-89
2615,22,-97,-78,-277,-250,-86
2620,23,-93,-74,-289,-248,-75
2625,17,-90,-75,-306,-252,-53
2630,13,-89,-65,-323,-256,-37
2635,2,-91,-62,-338,-257,-23
2640,-1,-90,-58,-350,-258,-2
2645,-9,-93,-53,-349,-266,10
2650,-12,-99,-56,-344,-281,16
2655,-14,-101,-53,-334,-298,28
2660,-18,-100,-52,-331,-320,42
2665,-20,-103,-53,-327,-349,59
2670,-18,-111,-54,-328,-388,76
2675,-17,-121,-59,-327,-439,85
2680,-11,-128,-74,-326,-507,101
2685,-6,-140,-108,-336,-579,118
2690,-9,-146,-141,-377,-631,127
2695,-8,-159,-180,-452,-664,126
2700,0,-171,-193,-547,-683,134
2705,-5,-193,-200,-616,-681,134
2710,-10,-218,-201,-612,-666,107
2715,-14,-238,-205,-543,-651,77
2720,-12,-259,-206,-434,-638,89
2725,-3,-272,-204,-294,-592,104
2730,2,-282,-190,-132,-502,90
2735,2,-282,-179,47,-394,72
2740,1,-285,-156,236,-308,64
2745,10,-283,-140,428,-259,73
2750,15,-284,-129,602,-244,79
2755,23,-288,-115,735,-253,68
2760,31,-298,-104,819,-275,45
2765,41,-313,-94,846,-302,24
2770,50,-330,-82,820,-327,3
2775,57,-344,-74,764,-352,-12
2780,69,-374,-70,701,-384,-34
2785,70,-400,-82,637,-415,-67
2790,73,-431,-103,572,-442,-108
2795,67,-468,-116,507,-445,-158
2800,67,-502,-125,457,-409,-211
2805,60,-541,-128,461,-342,-271
2810,56,-574,-139,538,-273,-332
2815,49,-598,-170,654,-213,-420
2820,56,-616,-192,707,-185,-504
2825,80,-641,-208,665,-168,-529
2830,108,-655,-219,592,-137,-545
2835,124,-678,-244,536,-108,-563
2840,155,-689,-253,520,-87,-587
2845,170,-690,-284,539,-76,-587
2850,201,-698,-304,554,-3,-526
2855,226,-698,-296,579,124,-484
2860,232,-698,-282,671,273,-467
2865,234,-688,-258,833,422,-441
2870,208,-664,-240,1051,583,-433
2875,190,-639,-241,1244,761,-408
2880,160,-595,-223,1311,893,-408
2885,130,-555,-191,1321,1012,-400
2890,110,-540,-201,1282,1105,-383
2895,75,-508,-190,1117,1169,-368
2900,37,-470,-177,963,1225,-364
2905,4,-417,-154,784,1253,-357
2910,-32,-368,-140,617,1250,-346
2915,-50,-333,-128,467,1224,-315
2920,-73,-281,-109,338,1175,-279
2925,-86,-240,-100,273,1085,-218
2930,-113,-195,-89,288,964,-149
2935,-121,-163,-102,359,801,-66
2940,-128,-133,-106,419,574,2
2945,-132,-81,-100,478,326,74
2950,-128,-35,-78,567,96,158
2955,-124,18,-60,654,-109,233
2960,-115,73,-36,722,-284,296
2965,-106,121,-17,791,-407,344
2970,-102,171,-3,829,-470,392
2975,-85,217,3,782,-485,441
2980,-72,251,3,609,-463,479
2985,-59,255,-1,295,-414,498
2990,-47,231,-5,-119,-349,479
2995,-23,180,-10,-547,-286,420
3000,-3,104,-15,-889,-237,328
3005,7,39,-16,-1069,-195,236
3010,14,-11,-9,-1045,-160,163
3015,18,-54,-5,-831,-132,108
3020,21,-70,-9,-496,-115,65
3025,24,-65,-19,-137,-112,37
3030,22,-55,-21,157,-111,19
3035,26,-41,-22,330,-101,16
3040,22,-29,-15,390,-82,15
3045,14,-17,-16,360,-56,18
3050,20,-10,-11,272,-27,22
3055,12,-2,-10,161,0,28
3060,11,-1,-9,48,24,40
3065,5,-2,-10,-51,41,56
3070,1,0,-1,-116,48,79
3075,-2,1,0,-137,46,99
3080,-1,0,2,-113,32,112
3085,0,2,1,-57,16,117
3090,-2,14,3,7,-6,112
3095,-4,25,-4,51,-40,104
3100,-6,30,-4,67,-83,95
3105,-3,30,-5,54,-124,82
3110,-1,31,-2,33,-149,73
3115,-1,32,-4,12,-153,67
3120,2,31,0,-4,-141,66
3125,1,31,-9,-11,-123,66
3130,3,29,-16,-1,-100,68
3135,8,28,-21,20,-76,70
3140,9,30,-23,42,-58,73
3145,12,24,-28,73,-46,77
3150,12,26,-34,106,-37,77
3155,14,22,-38,139,-29,78
3160,13,21,-36,174,-15,74
3165,9,22,-31,212,2,68
3170,8,12,-31,249,16,66
3175,3,2,-22,285,8,63
3180,-9,-11,-25,328,-38,63
3185,-11,-40,-30,373,-104,72
3190,2,-77,-43,445,-153,73
3195,2,-116,-76,535,-145,61
3200,4,-135,-111,602,-75,45
3205,7,-168,-139,573,20,14
3210,13,-224,-132,465,101,-23
3215,6,-287,-142,347,135,-54
3220,7,-361,-185,226,136,-67
3225,6,-410,-219,47,126,-63
3230,17,-478,-256,-211,123,-48
3235,46,-558,-226,-508,163,-31
3240,60,-627,-160,-733,234,-15
3245,73,-678,-119,-794,275,-11
3250,83,-695,-105,-688,255,-5
3255,97,-699,-132,-424,179,58
3260,119,-675,-192,-78,87,208
3265,260,-657,-233,256,32,368
3270,128,-614,-300,555,210,347
3275,72,-626,-268,669,536,356
3280,131,-643,-205,653,562,384
3285,191,-648,-194,666,510,310
3290,199,-638,-203,639,530,196
3295,181,-623,-208,519,567,85
3300,114,-591,-196,333,578,10
3305,53,-558,-162,174,583,-2
3310,5,-525,-131,121,578,8
3315,-15,-491,-107,173,539,-18
3320,-16,-460,-99,295,471,-62
3325,-17,-426,-87,449,406,-107
3330,-17,-386,-76,598,371,-145
3335,-13,-345,-81,708,373,-177
3340,-4,-312,-81,766,393,-210
3345,0,-287,-85,767,426,-251
3350,-1,-261,-81,720,465,-294
3355,-3,-242,-80,632,500,-312
3360,-2,-225,-74,528,523,-318
3365,-3,-205,-71,429,534,-316
3370,-6,-195,-68,348,524,-313
3375,-11,-176,-67,282,497,-310
3380,-11,-160,-69,229,455,-304
3385,-21,-139,-64,182,395,-295
3390,-16,-135,-69,131,326,-285
3395,-23,-127,-62,64,258,-282
3400,-29,-125,-64,11,193,-283
3405,-35,-127,-64,-32,134,-285
3410,-36,-133,-63,-72,82,-289
3415,-38,-136,-64,-116,36,-289
3420,-45,-141,-67,-156,-7,-290
3425,-50,-148,-63,-187,-49,-285
3430,-57,-150,-64,-213,-92,-274
3435,-52,-152,-64,-235,-140,-261
3440,-58,-161,-62,-243,-192,-245
3445,-50,-160,-62,-239,-244,-231
3450,-42,-165,-68,-226,-294,-221
3455,-26,-169,-75,-212,-337,-217
3460,-18,-169,-75,-203,-371,-214
3465,-9,-175,-76,-204,-398,-215
3470,0,-179,-78,-215,-422,-217
3475,2,-183,-78,-229,-445,-218
3480,13,-186,-82,-237,-461,-220
3485,16,-187,-87,-238,-473,-224
3490,23,-189,-85,-233,-480,-221
3495,27,-190,-92,-228,-481,-215
3500,33,-192,-94,-226,-478,-204
3505,37,-193,-95,-222,-469,-190
3510,41,-195,-86,-220,-454,-172
3515,50,-195,-91,-213,-433,-159
3520,52,-198,-87,-200,-404,-143
3525,54,-198,-88,-179,-371,-130
3530,53,-204,-83,-151,-337,-115
3535,52,-204,-83,-125,-302,-98
3540,48,-208,-81,-103,-266,-83
3545,45,-212,-77,-83,-237,-69
3550,37,-210,-77,-60,-214,-58
3555,34,-212,-75,-36,-202,-48
3560,28,-216,-77,-14,-195,-41
3565,30,-215,-75,-1,-192,-36
3570,27,-223,-81,6,-189,-36
3575,30,-223,-82,5,-181,-38
3580,32,-228,-87,2,-171,-38
3585,32,-231,-90,-6,-164,-40
3590,34,-235,-102,-22,-159,-41
3595,36,-238,-101,-43,-156,-42
3600,31,-242,-102,-70,-149,-44
3605,35,-254,-101,-94,-137,-44
3610,36,-255,-101,-113,-120,-45
3615,36,-261,-99,-122,-100,-46
3620,37,-261,-102,-117,-77,-45
3625,36,-265,-98,-101,-57,-45
3630,41,-267,-97,-72,-40,-46
3635,38,-264,-93,-40,-25,-48
3640,41,-265,-94,-8,-14,-53
3645,42,-256,-92,19,-8,-55
3650,41,-253,-86,44,-1,-59
3655,41,-248,-88,64,8,-61
3660,38,-242,-84,77,16,-64
3665,41,-239,-81,88,30,-62
3670,39,-235,-79,96,50,-62
3675,38,-229,-74,101,73,-60
3680,38,-223,-74,99,96,-58
3685,41,-221,-75,91,113,-57
3690,39,-215,-75,77,128,-58
3695,33,-217,-69,57,140,-56
3700,37,-214,-69,34,145,-53
3705,32,-210,-70,10,150,-48
3710,33,-209,-59,-11,152,-40
3715,34,-220,-71,-29,151,-29
3720,34,-220,-78,-42,149,-20
3725,32,-219,-79,-50,143,-9
3730,33,-221,-81,-51,138,1
3735,32,-223,-89,-50,135,8
3740,29,-224,-90,-47,129,12
3745,25,-225,-89,-45,125,22
3750,26,-228,-94,-44,120,28
3755,27,-233,-91,-40,118,34
3760,25,-236,-92,-35,117,42
3765,26,-243,-93,-29,116,48
3770,22,-234,-90,-28,117,55
3775,22,-237,-94,-28,119,63
3780,19,-237,-94,-30,118,67
3785,18,-237,-101,-30,116,69
3790,16,-236,-97,-28,115,70
3795,18,-236,-102,-24,112,67
3800,19,-234,-103,-24,109,65
3805,17,-231,-100,-26,106,62
3810,17,-228,-103,-28,103,57
3815,22,-234,-104,-31,105,50
3820,23,-238,-102,-36,108,43
3825,25,-232,-95,-44,110,38
3830,28,-231,-96,-56,105,36
3835,32,-232,-91,-66,97,29
3840,35,-237,-95,-75,86,24
3845,31,-234,-91,-87,76,23
3850,33,-235,-96,-94,60,21
3855,35,-237,-97,-101,47,21
3860,32,-236,-98,-108,36,23
3865,33,-237,-104,-112,27,28
3870,32,-238,-96,-115,22,35
3875,34,-236,-90,-113,17,39
3880,33,-238,-90,-110,16,44
3885,34,-237,-95,-106,18,50
3890,35,-239,-91,-97,23,52
3895,29,-238,-90,-83,28,55
3900,30,-235,-89,-69,33,55
3905,34,-238,-86,-51,38,56
3910,29,-236,-84,-33,42,56
3915,28,-235,-83,-19,45,57
3920,26,-233,-81,-3,48,56
3925,28,-226,-85,12,49,58
3930,27,-228,-85,24,49,60
3935,28,-227,-79,33,50,62
3940,30,-225,-78,39,50,60
3945,26,-224,-78,41,54,58
3950,34,-222,-80,41,59,58
3955,32,-223,-77,39,61,56
3960,33,-223,-82,35,61,54
3965,37,-222,-82,31,60,52
3970,37,-228,-78,25,56,57
3975,32,-225,-80,19,51,56
3980,34,-229,-77,20,48,56
3985,32,-232,-76,17,43,58
3990,35,-234,-81,16,42,60
3995,33,-231,-87,12,39,59
4000,32,-232,-86,5,37,58
4005,32,-235,-84,-3,35,60
4010,32,-233,-88,-11,33,56
4015,32,-234,-90,-16,31,53
4020,28,-237,-85,-19,31,51
4025,28,-237,-88,-17,34,49
4030,31,-238,-88,-8,36,46
4035,31,-244,-84,7,39,43
4040,32,-243,-80,25,42,42
4045,31,-241,-85,45,43,41
4050,33,-238,-85,58,45,42
4055,31,-235,-88,65,45,36
4060,31,-231,-88,65,45,32
4065,32,-230,-89,65,43,27
4070,33,-227,-86,60,39,24
4075,30,-232,-85,56,33,21
4080,31,-235,-89,48,30,17
4085,31,-233,-84,41,24,13
4090,26,-228,-84,37,20,13
4095,39,-232,-84,31,18,12
4100,30,-229,-88,27,17,13
4105,33,-230,-90,22,17,13
4110,36,-231,-90,18,18,14
4115,34,-230,-94,14,14,14
4120,36,-230,-89,8,9,12
4125,32,-228,-92,3,6,12
4130,31,-231,-92,1,-2,10
4135,35,-226,-92,1,-9,10
4140,33,-230,-89,7,-15,9
4145,32,-227,-87,13,-16,9
4150,35,-234,-87,23,-14,10
4155,34,-229,-87,32,-12,14
4160,35,-231,-91,43,-8,17
4165,32,-228,-88,53,-8,17
4170,34,-229,-87,64,-5,18
4175,32,-228,-87,71,1,22
4180,33,-230,-90,76,2,25
4185,37,-229,-87,82,3,24
4190,34,-227,-85,89,2,26
4195,34,-228,-88,93,-4,25
4200,30,-232,-90,94,-11,28
4205,33,-231,-95,90,-15,31
4210,35,-229,-91,85,-18,30
4215,32,-230,-85,79,-21,31
4220,35,-233,-91,74,-19,30
4225,36,-230,-89,69,-19,28
4230,38,-228,-88,62,-16,31
4235,38,-231,-90,59,-12,29
4240,35,-229,-92,58,-9,27
4245,33,-232,-93,57,-4,23
4250,35,-233,-88,59,-3,23
4255,32,-236,-92,60,1,23
4260,35,-229,-86,64,1,18
4265,35,-233,-92,70,1,17
4270,31,-231,-88,75,2,15
4275,34,-232,-85,80,3,15
4280,35,-230,-88,84,5,11
4285,36,-234,-86,86,7,11
4290,37,-229,-86,84,10,5
4295,39,-226,-88,79,12,2
4300,36,-226,-88,70,13,3
4305,32,-226,-90,60,12,-1
4310,40,-228,-88,49,15,-1
4315,38,-227,-89,38,21,-2
4320,39,-228,-86,33,28,-2
4325,38,-232,-87,33,37,-2
4330,35,-231,-87,35,42,-1
4335,35,-232,-88,39,49,0
4340,37,-233,-85,46,54,1
4345,33,-233,-92,52,57,1
4350,37,-234,-84,59,60,1
4355,33,-236,-87,66,63,1
4360,37,-233,-88,72,66,1
4365,35,-235,-89,78,68,1
4370,32,-232,-89,84,70,3
4375,35,-233,-90,89,73,5
4380,34,-232,-89,93,78,5
4385,35,-233,-94,98,83,6
4390,33,-235,-89,103,88,9
4395,33,-235,-86,106,93,8
4400,32,-231,-85,109,97,7
4405,32,-232,-90,109,101,7
4410,31,-232,-89,106,102,6
4415,33,-234,-87,102,100,3
4420,31,-232,-86,101,98,0
4425,33,-232,-87,99,96,1
4430,32,-232,-85,96,96,1
4435,32,-229,-82,95,98,4
4440,32,-231,-84,97,100,6
4445,30,-227,-86,100,101,6
4450,31,-229,-86,100,102,7
4455,30,-228,-86,100,102,8
4460,32,-227,-86,96,101,8
4465,32,-232,-88,90,99,6
4470,32,-227,-83,85,99,6
4475,30,-235,-90,78,97,6
4480,30,-229,-88,73,97,9
4485,29,-231,-87,70,96,7
4490,30,-230,-86,67,94,9
4495,29,-229,-90,66,92,8
4500,28,-231,-90,65,88,6
4505,27,-229,-84,67,85,9
4510,26,-229,-90,67,84,10
4515,29,-231,-86,68,81,7
4520,27,-230,-90,70,79,11
4525,23,-227,-86,69,77,11
4530,24,-230,-91,70,75,13
4535,24,-230,-88,70,75,15
4540,26,-229,-93,67,74,13
4545,26,-229,-92,65,74,16
4550,27,-229,-86,59,74,16
4555,26,-228,-87,55,75,16
4560,26,-226,-89,48,74,14
4565,28,-231,-91,45,74,13
4570,27,-227,-85,40,72,11
4575,25,-227,-81,39,69,11
4580,23,-230,-83,39,63,10
4585,24,-228,-90,40,58,8
4590,28,-230,-88,44,51,8
4595,28,-230,-86,45,48,5
4600,28,-231,-86,44,45,5
4605,27,-231,-84,44,44,4
4610,28,-228,-87,43,42,5
4615,27,-230,-88,43,40,5
4620,30,-232,-89,41,42,4
4625,28,-231,-85,40,41,4
4630,28,-230,-91,39,41,3
4635,29,-232,-87,37,43,5
4640,22,-229,-90,36,42,3
4645,27,-233,-86,38,41,2
4650,30,-232,-91,42,41,3
4655,30,-231,-91,41,39,1
4660,28,-229,-89,44,37,0
4665,28,-229,-92,44,34,-4
4670,30,-232,-90,43,29,-4
4675,29,-232,-86,38,23,-5
4680,31,-232,-87,35,19,-6
4685,28,-231,-90,34,15,-6
4690,32,-234,-93,34,14,-5
4695,27,-234,-90,35,12,-5
4700,26,-231,-90,37,11,-4
4705,27,-231,-92,40,12,-6
4710,29,-234,-85,43,13,-6
4715,28,-230,-90,44,14,-8
4720,27,-232,-91,48,13,-8
4725,26,-233,-92,48,13,-10
4730,28,-231,-91,50,11,-11
4735,28,-232,-85,52,10,-12
4740,30,-233,-90,54,8,-14
4745,28,-233,-86,56,5,-16
4750,31,-232,-89,58,1,-17
4755,26,-227,-85,60,0,-17
4760,30,-229,-89,60,-2,-15
4765,30,-229,-88,58,-3,-16
4770,27,-227,-89,54,-3,-16
4775,28,-231,-90,51,-3,-17
4780,28,-223,-91,49,-2,-17
4785,27,-232,-91,48,1,-16
4790,32,-231,-85,48,0,-18
4795,27,-231,-90,48,0,-17
4800,32,-229,-84,47,0,-16
4805,28,-229,-89,47,-4,-16
4810,29,-230,-86,44,-5,-15
4815,31,-232,-90,43,-5,-15
4820,28,-231,-86,42,-7,-15
4825,30,-231,-90,41,-4,-15
4830,26,-229,-87,43,-4,-16
4835,27,-231,-88,46,-5,-13
4840,29,-231,-86,49,-4,-14
4845,31,-233,-90,54,-7,-14
4850,27,-230,-94,58,-11,-14
4855,28,-230,-88,60,-15,-13
4860,29,-230,-89,63,-18,-15
4865,30,-229,-90,61,-20,-13
4870,29,-232,-85,58,-24,-13
4875,30,-230,-88,56,-26,-14
4880,30,-230,-87,56,-26,-12
4885,30,-229,-88,56,-25,-12
4890,25,-230,-84,57,-22,-11
4895,27,-231,-85,55,-20,-12
4900,32,-232,-84,54,-18,-9
4905,26,-231,-88,51,-15,-9
4910,27,-231,-86,45,-14,-7
4915,29,-229,-86,40,-13,-9
4920,29,-229,-88,36,-13,-8
4925,31,-231,-83,31,-13,-12
4930,30,-233,-88,27,-15,-13
4935,33,-234,-86,25,-15,-13
4940,32,-231,-91,26,-15,-14
4945,30,-229,-88,28,-15,-14
4950,28,-228,-85,33,-15,-15
4955,30,-229,-89,36,-16,-15
4960,27,-230,-84,39,-17,-17
4965,28,-231,-87,39,-18,-15
4970,25,-229,-87,36,-16,-15
4975,29,-232,-86,32,-17,-15
4980,28,-231,-87,24,-17,-15
4985,29,-232,-84,17,-18,-16
4990,29,-233,-85,13,-18,-17
4995,27,-230,-90,9,-17,-16
5000,30,-231,-91,8,-16,-17
5005,28,-228,-90,9,-12,-20
5010,29,-230,-92,10,-9,-22
5015,31,-229,-95,11,-7,-23
5020,22,-236,-94,10,-2,-26
5025,27,-228,-92,11,0,-27
5030,28,-229,-88,11,4,-29
5035,27,-227,-92,8,5,-31
5040,26,-230,-89,6,6,-29
5045,25,-232,-92,7,5,-29
5050,28,-229,-86,9,3,-27
5055,28,-233,-88,15,2,-27
5060,32,-233,-86,20,0,-25
5065,26,-232,-88,25,0,-25
5070,28,-230,-94,32,-2,-25
5075,27,-230,-92,37,-5,-24
5080,27,-231,-91,40,-8,-21
5085,28,-228,-88,42,-12,-19
5090,27,-227,-89,43,-15,-15
5095,29,-230,-92,42,-17,-17
5100,28,-228,-89,40,-17,-15
5105,29,-230,-90,37,-17,-16
5110,33,-231,-86,35,-15,-12
5115,31,-229,-93,34,-11,-11
5120,31,-233,-86,33,-7,-10
5125,28,-232,-83,31,-5,-9
5130,27,-227,-86,31,-1,-10
5135,31,-229,-88,28,0,-11
5140,30,-229,-88,23,-1,-11
5145,27,-229,-87,17,-3,-12
5150,30,-231,-85,9,-3,-12
5155,28,-231,-89,1,-1,-12
5160,31,-230,-86,-6,2,-12
5165,28,-227,-89,-14,6,-13
5170,27,-231,-83,-20,11,-13
5175,30,-227,-90,-28,16,-12
5180,26,-224,-87,-40,21,-15
5185,23,-228,-92,-56,24,-15
5190,26,-225,-89,-77,23,-16
5195,24,-227,-86,-101,25,-18
5200,25,-224,-89,-127,27,-19
5205,26,-225,-91,-152,31,-19
5210,24,-222,-89,-174,32,-18
5215,23,-225,-89,-190,34,-15
5220,24,-227,-93,-198,37,-13
5225,28,-228,-91,-197,40,-9
5230,26,-228,-85,-186,39,-6
5235,29,-228,-92,-168,35,-5
5240,24,-227,-96,-152,25,-5
5245,25,-225,-98,-146,12,-4
5250,26,-221,-103,-151,-3,-3
5255,25,-216,-106,-170,-14,-4
5260,24,-214,-106,-197,-21,-3
5265,20,-212,-106,-231,-20,-4
5270,21,-213,-109,-259,-15,1
5275,19,-211,-106,-285,-9,5
5280,19,-211,-106,-301,-1,10
5285,16,-208,-101,-315,8,16
5290,20,-200,-99,-333,12,21
5295,22,-199,-101,-355,16,26
5300,21,-200,-100,-382,14,32
5305,18,-199,-101,-412,6,40
5310,19,-196,-99,-443,-7,51
5315,20,-197,-99,-473,-24,63
5320,20,-195,-102,-495,-38,75
5325,23,-195,-102,-510,-51,88
5330,23,-191,-102,-517,-62,101
5335,27,-190,-105,-522,-71,113
5340,28,-185,-110,-527,-78,118
5345,30,-182,-112,-534,-79,123
5350,33,-176,-122,-549,-78,133
5355,31,-171,-123,-573,-80,146
5360,33,-160,-127,-607,-87,155
5365,34,-160,-125,-644,-99,162
5370,35,-154,-124,-677,-110,168
5375,37,-148,-122,-697,-119,171
5380,33,-145,-120,-704,-130,179
5385,30,-141,-113,-693,-140,188
5390,30,-136,-114,-666,-148,200
5395,23,-129,-102,-623,-153,210
5400,18,-120,-96,-581,-155,221
5405,14,-115,-93,-547,-163,234
5410,2,-105,-89,-529,-177,245
5415,3,-104,-82,-521,-202,254
5420,0,-103,-76,-519,-241,261
5425,-1,-105,-69,-516,-293,269
5430,-5,-106,-67,-508,-354,278
5435,-7,-106,-68,-497,-419,283
5440,-2,-115,-64,-486,-482,284
5445,0,-124,-69,-472,-535,283
5450,-1,-132,-71,-457,-574,286
5455,0,-141,-87,-430,-610,283
5460,2,-157,-85,-383,-640,286
5465,6,-169,-96,-320,-666,291
5470,11,-175,-112,-258,-678,297
5475,12,-186,-129,-213,-668,303
5480,14,-196,-140,-195,-633,308
5485,15,-203,-146,-211,-581,306
5490,15,-225,-141,-236,-514,302
5495,21,-246,-129,-233,-432,297
5500,22,-266,-123,-180,-345,290
5505,24,-282,-119,-90,-260,279
5510,24,-291,-107,14,-191,267
5515,20,-304,-117,117,-146,251
5520,16,-309,-123,206,-129,234
5525,12,-315,-128,278,-139,213
5530,12,-324,-130,337,-166,192
5535,11,-333,-124,399,-194,173
5540,5,-335,-127,478,-206,158
5545,5,-334,-127,566,-206,128
5550,4,-326,-126,636,-190,93
5555,1,-319,-122,671,-160,55
5560,10,-314,-121,677,-124,20
5565,12,-315,-128,665,-92,-2
5570,18,-312,-130,640,-69,-14
5575,29,-312,-149,604,-50,-21
5580,36,-314,-157,567,-24,-38
5585,44,-321,-160,535,6,-64
5590,50,-334,-162,527,46,-94
5595,50,-340,-168,551,99,-123
5600,47,-347,-166,589,129,-149
5605,45,-359,-163,627,157,-167
5610,39,-380,-158,668,194,-179
5615,25,-406,-156,738,238,-189
5620,18,-426,-152,820,272,-202
5625,7,-446,-153,923,291,-217
5630,2,-461,-174,1017,294,-228
5635,-2,-483,-193,1064,283,-239
5640,-2,-508,-206,1055,259,-262
5645,-1,-534,-209,997,230,-296
5650,0,-561,-215,916,196,-323
5655,1,-589,-209,834,160,-352
5660,5,-618,-218,757,103,-387
5665,10,-646,-231,688,27,-413
5670,32,-672,-240,652,-66,-433
5675,54,-696,-232,686,-142,-428
5680,77,-713,-235,807,-180,-428
5685,96,-715,-231,988,-183,-450
5690,113,-709,-225,1207,-154,-487
5695,128,-687,-211,1444,-108,-511
5700,131,-670,-203,1663,-55,-517
5705,132,-639,-193,1824,-19,-515
5710,129,-606,-186,1890,-5,-517
5715,118,-564,-176,1860,-4,-523
5720,102,-535,-168,1775,-11,-523
5725,93,-494,-156,1674,-18,-530
5730,77,-437,-171,1575,-38,-556
5735,57,-381,-184,1475,-60,-583
5740,34,-323,-192,1369,-70,-584
5745,8,-284,-182,1248,-44,-564
5750,-27,-234,-159,1157,15,-515
5755,-66,-191,-151,1131,77,-446
5760,-110,-150,-152,1120,108,-364
5765,-141,-112,-149,1061,75,-282
5770,-168,-80,-141,965,-21,-212
5775,-189,-32,-135,894,-149,-140
5780,-195,11,-125,864,-265,-31
5785,-179,60,-109,846,-364,79
5790,-168,128,-88,810,-439,157
5795,-130,156,-85,737,-449,211
5800,-67,193,-56,515,-430,168
5805,-48,279,-5,197,-410,15
5810,-26,325,29,-18,-392,-35
5815,21,324,58,-142,-412,34
5820,75,269,118,-259,-490,72
5825,124,141,134,-429,-587,32
5830,134,27,130,-639,-587,-91
5835,114,-64,111,-751,-424,-256
5840,79,-110,80,-753,-203,-400
5845,26,-134,32,-684,-58,-496
5850,-26,-147,-30,-607,-30,-526
5855,-76,-143,-67,-576,-79,-488
5860,-130,-155,-63,-577,-164,-421
5865,-163,-153,-34,-550,-274,-348
5870,-161,-155,-8,-420,-423,-285
5875,-123,-128,5,-187,-595,-235
5880,-80,-83,4,101,-741,-187
5885,-44,-32,-1,382,-834,-121
5890,-24,9,0,605,-889,-43
5895,-2,50,-1,736,-936,26
5900,11,81,-3,754,-984,88
5905,14,102,-2,645,-1022,146
5910,5,104,0,442,-1043,198
5915,-6,99,-14,167,-1029,231
5920,-10,93,-21,-138,-981,242
5925,-4,75,-41,-406,-919,228
5930,-1,71,-52,-596,-875,195
5935,-1,67,-59,-705,-836,159
5940,-1,59,-58,-738,-764,128
5945,0,43,-58,-709,-653,105
5950,-11,33,-54,-651,-538,92
5955,-18,20,-45,-588,-443,87
5960,-22,15,-41,-539,-384,85
5965,-22,12,-28,-515,-368,84
5970,-18,16,-16,-507,-390,85
5975,-13,25,1,-512,-436,90
5980,-8,30,6,-533,-491,108
5985,-4,37,8,-567,-547,129
5990,-3,39,8,-598,-608,156
5995,-6,37,5,-594,-681,185
6000,-4,34,-13,-538,-749,215
6005,0,31,-28,-450,-776,236
6010,10,30,-43,-359,-750,248
6015,14,29,-48,-292,-668,249
6020,15,27,-44,-259,-557,244
6025,15,18,-26,-251,-451,232
6030,22,7,-32,-241,-362,217
6035,24,-3,-29,-215,-291,201
6040,32,-11,-27,-169,-231,183
6045,36,-14,-22,-106,-170,163
6050,39,-13,-29,-21,-131,144
6055,41,-23,-13,81,-98,122
6060,30,-21,-16,176,-82,102
6065,9,-31,-27,246,-91,101
6070,1,-52,-22,303,-91,125
6075,-4,-68,-32,370,-42,142
6080,0,-86,-24,400,64,148
6085,28,-120,-27,405,163,142
6090,38,-160,-82,421,257,128
6095,46,-190,-184,401,415,95
6100,45,-208,-276,262,580,22
6105,33,-232,-364,-50,620,-90
6110,13,-290,-394,-503,539,-211
6115,-20,-390,-365,-1004,427,-290
6120,-42,-536,-297,-1475,329,-296
6125,-43,-654,-247,-1827,233,-214
6130,-18,-781,-239,-1978,189,-57
6135,5,-857,-258,-2047,261,97
6140,25,-948,-216,-2084,420,254
6145,33,-1030,-142,-1940,492,489
6150,28,-1064,-123,-1399,343,726
6155,30,-1018,-152,-466,52,779
6160,97,-919,-262,621,-179,720
6165,148,-831,-338,1410,-265,543
6170,190,-778,-300,1705,-259,221
6175,170,-747,-228,1690,-245,-182
6180,117,-697,-112,1650,-148,-484
6185,64,-631,-28,1739,36,-596
6190,18,-561,-14,1898,212,-616
6195,-11,-500,-40,1989,286,-650
6200,-2,-426,-88,1928,246,-722
6205,23,-351,-123,1716,159,-791
6210,54,-289,-123,1401,125,-824
6215,93,-254,-100,1065,194,-844
6220,111,-243,-73,751,313,-850
6225,124,-223,-66,467,419,-802
6230,123,-245,-72,195,508,-668
6235,124,-255,-103,-95,591,-482
6240,109,-269,-123,-377,666,-286
6245,91,-283,-140,-619,734,-109
6250,68,-290,-149,-794,780,28
6255,46,-295,-140,-877,806,135
6260,14,-315,-125,-869,823,207
6265,-22,-324,-111,-789,839,238
6270,-40,-334,-105,-655,856,224
6275,-68,-339,-99,-475,870,172
6280,-100,-333,-99,-258,874,101
6285,-118,-319,-108,-31,866,28
6290,-130,-309,-98,179,845,-40
6295,-140,-289,-94,343,811,-92
6300,-143,-272,-94,458,758,-127
6305,-143,-255,-84,538,684,-147
6310,-141,-234,-70,595,587,-153
6315,-132,-228,-63,648,467,-158
6320,-126,-207,-63,711,327,-164
6325,-96,-191,-66,768,181,-171
6330,-71,-170,-74,797,47,-184
6335,-48,-155,-74,786,-60,-197
6340,-37,-150,-73,737,-137,-213
6345,-29,-127,-77,664,-187,-227
6350,-6,-117,-77,582,-215,-231
6355,0,-102,-76,507,-228,-235
6360,9,-96,-68,446,-236,-236
6365,15,-86,-69,403,-244,-232
6370,24,-73,-65,373,-249,-230
6375,34,-67,-74,334,-248,-230
6380,43,-62,-73,275,-239,-232
6385,50,-59,-71,189,-225,-233
6390,55,-63,-74,81,-204,-231
6395,59,-68,-67,-41,-175,-226
6400,52,-82,-69,-162,-142,-217
6405,46,-98,-73,-280,-111,-211
6410,45,-116,-71,-387,-85,-202
6415,44,-135,-71,-471,-62,-191
6420,33,-147,-70,-525,-39,-174
6425,33,-163,-78,-547,-16,-158
6430,29,-177,-75,-545,4,-139
6435,26,-187,-72,-524,14,-116
6440,19,-196,-77,-489,18,-94
6445,18,-209,-79,-443,13,-66
6450,11,-216,-82,-391,-2,-41
6455,10,-222,-91,-340,-21,-14
6460,10,-227,-97,-296,-43,13
6465,8,-234,-99,-267,-65,34
6470,12,-240,-97,-247,-85,48
6475,13,-239,-98,-233,-97,57
6480,9,-252,-94,-221,-104,62
6485,18,-256,-96,-208,-106,64
6490,24,-262,-99,-193,-101,60
6495,25,-267,-95,-175,-92,53
6500,31,-270,-101,-155,-78,41
6505,36,-269,-106,-140,-62,20
6510,42,-267,-104,-130,-41,2
6515,48,-270,-102,-130,-14,-15
6520,46,-266,-105,-134,14,-27
6525,58,-274,-91,-137,51,-33
6530,57,-275,-94,-131,78,-42
6535,62,-278,-86,-116,102,-50
6540,63,-274,-83,-92,121,-62
6545,64,-271,-89,-67,137,-65
6550,64,-266,-88,-45,149,-67
6555,64,-263,-88,-30,161,-63
6560,63,-259,-95,-19,170,-56
6565,63,-253,-93,-12,176,-48
6570,57,-244,-94,-3,179,-35
6575,56,-242,-91,8,186,-24
6580,50,-238,-92,17,194,-9
6585,45,-230,-94,24,205,3
6590,44,-224,-86,29,220,15
6595,41,-219,-78,29,236,22
6600,34,-217,-78,23,251,26
6605,29,-214,-77,11,262,27
6610,29,-211,-72,-4,271,29
6615,25,-206,-74,-24,275,30
6620,24,-198,-77,-48,269,33
6625,16,-201,-74,-77,260,35
6630,13,-197,-74,-113,245,32
6635,18,-199,-77,-152,228,33
6640,16,-201,-84,-191,210,36
6645,8,-197,-83,-230,192,38
6650,13,-203,-84,-267,176,43
6655,14,-206,-90,-304,160,47
6660,11,-207,-93,-336,146,50
6665,14,-214,-97,-365,133,55
6670,9,-211,-99,-390,125,59
6675,12,-218,-101,-411,116,63
6680,11,-220,-95,-422,108,67
6685,8,-219,-98,-427,96,69
6690,13,-231,-97,-423,84,69
6695,10,-229,-93,-414,75,68
6700,17,-231,-96,-402,67,67
6705,18,-235,-98,-390,63,64
6710,21,-237,-101,-377,64,60
6715,20,-238,-99,-366,69,58
6720,23,-241,-94,-356,76,57
6725,24,-238,-99,-345,85,55
6730,24,-242,-100,-332,93,54
6735,26,-237,-102,-316,98,51
6740,27,-237,-100,-301,99,49
6745,28,-235,-104,-284,99,48
6750,29,-234,-99,-266,96,51
6755,28,-233,-103,-251,96,48
6760,33,-234,-104,-238,96,49
6765,33,-231,-104,-228,96,50
6770,34,-229,-107,-219,98,55
6775,32,-229,-108,-214,103,60
6780,30,-227,-112,-211,107,67
6785,32,-232,-104,-211,109,73
6790,27,-227,-111,-213,107,79
6795,27,-230,-111,-216,106,85
6800,26,-232,-111,-218,104,94
6805,24,-236,-111,-217,99,99
6810,22,-231,-107,-216,92,104
6815,22,-233,-111,-214,88,108
6820,24,-234,-113,-212,81,115
6825,24,-234,-112,-207,82,120
6830,26,-233,-114,-203,88,128
6835,31,-235,-116,-199,97,132
6840,30,-232,-115,-191,111,133
6845,33,-235,-119,-178,129,130
6850,32,-232,-120,-161,149,126
6855,34,-227,-113,-141,168,124
6860,37,-228,-111,-124,182,120
6865,33,-223,-115,-109,191,116
6870,33,-223,-110,-95,200,115
6875,36,-224,-114,-80,207,117
6880,35,-224,-108,-64,215,119
6885,36,-223,-115,-51,222,123
6890,33,-222,-113,-39,229,125
6895,32,-212,-111,-33,233,129
6900,32,-212,-114,-31,238,131
6905,36,-213,-118,-33,241,137
6910,32,-207,-115,-37,248,144
6915,31,-207,-117,-46,255,151
6920,29,-208,-115,-55,261,158
6925,31,-208,-114,-60,265,165
6930,30,-208,-111,-60,271,172
6935,30,-209,-109,-53,275,181
6940,34,-207,-110,-46,279,191
6945,32,-206,-107,-34,284,200
6950,32,-207,-107,-26,287,206
6955,35,-206,-109,-22,291,208
6960,32,-204,-108,-18,298,209
6965,34,-205,-109,-17,307,214
6970,34,-205,-111,-13,315,215
6975,34,-205,-111,-7,324,215
6980,30,-201,-107,-3,332,215
6985,33,-204,-105,5,339,217
6990,30,-202,-106,16,346,217
6995,31,-201,-102,30,352,215
7000,31,-202,-99,46,359,216
7005,29,-204,-98,63,364,215
7010,26,-197,-100,81,369,213
7015,30,-199,-95,95,374,211
7020,32,-200,-99,108,375,209
7025,30,-203,-91,115,374,205
7030,28,-203,-97,119,370,203
7035,28,-200,-102,120,366,204
7040,28,-199,-104,118,360,203
7045,28,-202,-103,114,354,202
7050,27,-202,-103,109,348,201
7055,26,-207,-103,103,344,201
7060,25,-207,-102,97,342,201
7065,25,-207,-108,90,342,199
7070,26,-213,-106,84,343,197
7075,27,-214,-111,77,346,191
7080,23,-214,-110,68,351,189
7085,27,-217,-112,58,356,184
7090,26,-218,-113,49,363,177
7095,28,-223,-113,41,367,167
7100,30,-226,-115,35,373,155
7105,28,-226,-118,35,378,144
7110,31,-233,-114,38,380,132
7115,32,-233,-115,44,381,119
7120,27,-233,-118,51,383,106
7125,25,-233,-121,56,381,93
7130,26,-231,-115,64,383,83
7135,27,-238,-119,70,382,73
7140,25,-240,-118,73,382,65
7145,23,-241,-118,79,381,57
7150,22,-242,-113,87,377,50
7155,23,-245,-117,97,373,41
7160,24,-248,-117,109,366,38
7165,23,-247,-117,119,357,34
7170,23,-244,-118,128,343,30
7175,23,-247,-116,137,327,26
7180,25,-248,-116,145,307,24
7185,19,-245,-123,149,283,26
7190,19,-244,-119,154,260,25
7195,22,-244,-122,158,239,25
7200,19,-245,-120,160,221,24
7205,17,-242,-121,160,209,22
7210,15,-241,-120,160,199,21
7215,14,-236,-117,162,190,20
7220,14,-239,-116,163,180,20
7225,11,-231,-111,163,169,19
7230,13,-231,-112,165,153,20
7235,13,-228,-103,168,135,20
7240,11,-222,-106,172,119,22
7245,15,-220,-104,177,103,24
7250,16,-220,-102,180,88,22
7255,16,-219,-98,184,75,24
7260,20,-219,-101,185,67,20
7265,22,-215,-95,189,61,19
7270,21,-216,-99,190,58,16
7275,21,-210,-91,186,58,13
7280,24,-210,-96,184,62,14
7285,25,-208,-100,176,67,12
7290,33,-206,-89,167,75,11
7295,33,-209,-98,155,83,9
7300,33,-211,-95,139,90,6
7305,31,-207,-97,120,100,6
7310,28,-210,-97,101,110,6
7315,33,-212,-97,83,119,7
7320,31,-214,-97,66,127,8
7325,32,-219,-100,52,134,10
7330,29,-221,-104,42,141,11
7335,36,-226,-101,35,149,14
7340,29,-225,-104,31,157,16
7345,31,-227,-112,31,163,19
7350,29,-231,-110,36,171,21
7355,27,-234,-107,40,180,22
7360,28,-232,-107,46,188,21
7365,28,-231,-108,55,195,22
7370,26,-230,-106,63,199,24
7375,27,-234,-103,72,200,25
7380,26,-231,-102,80,200,25
7385,22,-231,-104,89,198,26
7390,23,-234,-99,95,195,27
7395,22,-230,-107,101,192,28
7400,22,-231,-109,105,187,30
7405,26,-231,-101,108,183,30
7410,23,-228,-99,112,176,34
7415,21,-227,-99,114,172,35
7420,19,-227,-101,115,164,36
7425,20,-223,-94,116,154,36
7430,21,-224,-99,117,140,34
7435,20,-226,-96,116,126,34
7440,24,-219,-100,114,115,33
7445,19,-226,-96,110,106,30
7450,16,-219,-97,102,97,30
7455,22,-222,-99,95,91,30
7460,21,-218,-94,87,84,28
7465,19,-224,-98,78,79,27
7470,20,-222,-98,73,74,24
7475,22,-225,-96,69,70,22
7480,23,-223,-93,66,64,23
7485,26,-227,-93,64,57,21
7490,21,-226,-94,60,51,19
7495,21,-226,-96,60,44,17
7500,22,-226,-98,59,41,16
7505,23,-232,-93,59,40,15
7510,25,-232,-99,62,40,15
7515,24,-229,-102,61,38,13
7520,18,-228,-97,61,38,12
7525,22,-226,-100,60,35,10
7530,21,-228,-98,58,33,9
7535,20,-227,-96,58,28,9
7540,20,-229,-99,57,22,11
7545,22,-228,-96,56,16,12
7550,19,-228,-99,57,10,11
7555,26,-228,-100,57,4,11
7560,21,-226,-97,58,1,11
7565,24,-228,-92,58,-2,9
7570,24,-228,-96,59,-3,10
7575,24,-228,-93,60,-5,6
7580,25,-226,-97,61,-6,4
7585,26,-224,-95,60,-6,2
7590,25,-227,-94,59,-6,-2
7595,25,-225,-95,56,-5,-3
7600,26,-225,-96,52,-5,-5
7605,26,-225,-96,48,-4,-8
7610,26,-225,-100,45,-5,-10
7615,29,-224,-97,42,-3,-12
7620,33,-216,-98,41,-3,-13
7625,29,-227,-96,35,0,-15
7630,30,-227,-98,33,2,-16
7635,31,-227,-100,30,4,-14
7640,31,-224,-96,31,5,-14
7645,30,-225,-100,30,5,-14
7650,29,-227,-99,32,5,-15
7655,27,-228,-101,33,4,-15
7660,30,-227,-97,32,3,-13
7665,30,-229,-99,34,5,-15
7670,29,-226,-96,35,4,-17
7675,28,-228,-92,38,4,-16
7680,30,-227,-102,41,3,-17
7685,27,-227,-98,44,2,-16
7690,25,-224,-99,47,0,-17
7695,27,-229,-99,49,-1,-17
7700,25,-228,-101,51,-5,-15
7705,25,-228,-98,51,-7,-15
7710,23,-221,-101,53,-10,-14
7715,24,-227,-102,50,-12,-14
7720,22,-224,-98,48,-13,-16
7725,26,-229,-97,48,-15,-15
7730,25,-225,-100,47,-17,-13
7735,23,-227,-101,46,-18,-12
7740,24,-229,-97,47,-20,-9
7745,24,-227,-93,49,-21,-10
7750,22,-226,-97,49,-23,-7
7755,24,-227,-99,51,-24,-7
7760,25,-227,-99,53,-26,-7
7765,24,-226,-100,53,-25,-9
7770,25,-227,-97,55,-26,-9
7775,26,-227,-101,56,-26,-9
7780,26,-227,-96,58,-24,-8
7785,29,-225,-88,60,-21,-9
7790,27,-225,-96,62,-19,-7
7795,30,-229,-98,64,-16,-7
7800,33,-227,-95,65,-13,-7
7805,31,-228,-98,65,-12,-5
7810,29,-228,-96,67,-10,-4
7815,31,-228,-98,67,-8,-4
7820,31,-226,-96,68,-4,-3
7825,32,-226,-103,69,-1,-2
7830,30,-223,-100,67,2,2
7835,33,-225,-103,69,7,3
7840,32,-224,-98,72,11,2
7845,32,-225,-95,73,14,2
7850,32,-225,-97,76,19,4
7855,30,-226,-100,77,20,4
7860,31,-225,-97,80,23,7
7865,34,-225,-99,80,27,9
7870,29,-224,-104,79,32,10
7875,34,-224,-99,77,36,11
7880,31,-224,-102,77,42,10
7885,32,-223,-100,75,46,11
7890,28,-225,-98,74,52,13
7895,31,-221,-102,73,58,12
7900,32,-223,-96,71,63,14
7905,34,-224,-98,69,68,16
7910,33,-225,-99,66,73,14
7915,32,-225,-98,65,76,16
7920,34,-227,-99,64,80,18
7925,29,-223,-99,63,83,19
7930,30,-222,-100,64,86,22
7935,31,-224,-105,63,90,22
7940,28,-224,-102,63,93,24
7945,29,-225,-101,65,94,26
7950,29,-224,-103,65,96,27
7955,28,-223,-100,66,94,28
7960,30,-226,-97,66,94,30
7965,29,-227,-102,65,98,32
7970,27,-221,-99,65,97,33
7975,30,-226,-102,63,100,30
7980,26,-226,-103,61,101,32
7985,23,-225,-99,60,101,30
7990,26,-225,-98,58,102,29
7995,28,-222,-102,57,103,28
8000,23,-227,-96,57,105,26
8005,24,-228,-100,54,107,21
8010,28,-228,-99,54,107,21
8015,25,-225,-99,51,107,18
8020,27,-227,-100,50,104,18
8025,25,-225,-95,50,101,17
8030,25,-226,-96,50,96,16
8035,24,-230,-100,52,90,15
8040,24,-227,-94,56,86,15
8045,24,-226,-97,60,83,16
8050,23,-226,-101,62,81,15
8055,24,-229,-103,62,79,15
8060,25,-224,-103,60,74,15
8065,23,-223,-99,56,73,13
8070,22,-225,-101,51,74,11
8075,23,-226,-100,44,72,10
8080,26,-223,-95,40,72,9
8085,26,-226,-96,35,73,8
8090,27,-228,-95,33,74,5
8095,26,-227,-97,29,73,4
8100,27,-230,-95,29,73,1
8105,24,-227,-97,29,74,0
8110,26,-231,-97,30,73,-1
8115,25,-230,-102,33,76,-1
8120,26,-229,-97,34,75,-5
8125,25,-227,-102,36,76,-5
8130,26,-226,-99,36,77,-5
8135,25,-226,-102,36,76,-5
8140,25,-227,-97,36,75,-6
8145,24,-227,-96,38,73,-5
8150,24,-231,-99,40,73,-7
8155,24,-225,-96,44,72,-6
8160,21,-228,-102,46,70,-4
8165,25,-230,-103,51,68,-4
8170,27,-227,-97,54,67,-4
8175,23,-228,-97,55,65,-5
8180,23,-229,-95,55,63,-4
8185,26,-229,-98,56,62,-3
8190,26,-229,-100,55,62,-1
8195,23,-226,-98,55,62,1
8200,25,-228,-95,55,63,1
8205,24,-230,-99,55,63,4
8210,29,-226,-97,56,63,4
8215,30,-230,-96,57,64,3
8220,19,-230,-96,57,63,1
8225,23,-226,-97,58,64,3
8230,21,-225,-92,59,63,2
8235,24,-232,-97,60,61,4
8240,22,-230,-100,62,58,3
8245,26,-232,-95,64,54,3
8250,24,-230,-98,65,50,4
8255,21,-226,-97,66,46,4
8260,22,-229,-97,67,43,5
8265,24,-226,-97,65,39,4
8270,23,-228,-95,64,37,5
8275,22,-231,-93,64,34,4
8280,23,-227,-97,64,34,2
8285,25,-231,-91,65,31,-1
8290,24,-227,-95,66,29,-2
8295,23,-229,-95,65,26,-2
8300,21,-231,-96,65,25,-3
8305,22,-232,-98,63,24,-3
8310,26,-226,-94,62,21,-5
8315,23,-227,-96,61,18,-6
8320,22,-228,-98,62,14,-6
8325,19,-229,-98,60,12,-8
8330,24,-226,-95,61,9,-8
8335,25,-230,-94,62,6,-10
8340,23,-227,-96,64,2,-10
8345,25,-224,-96,67,0,-11
8350,22,-225,-97,67,-4,-12
8355,23,-228,-95,68,-7,-11
8360,28,-227,-96,67,-8,-12
8365,23,-230,-96,69,-10,-13
8370,22,-230,-98,71,-10,-16
8375,27,-228,-95,74,-12,-15
8380,27,-235,-97,79,-13,-17
8385,26,-230,-97,81,-14,-19
8390,23,-225,-95,84,-18,-22
8395,24,-225,-97,86,-20,-21
8400,24,-228,-95,86,-22,-25
8405,24,-229,-96,87,-25,-26
8410,23,-226,-98,87,-25,-28
8415,24,-230,-94,86,-26,-27
8420,25,-228,-98,88,-29,-29
8425,25,-224,-100,88,-32,-31
8430,28,-231,-98,89,-32,-31
8435,25,-230,-105,89,-32,-32
8440,26,-226,-96,91,-34,-34
8445,25,-228,-99,89,-33,-35
8450,25,-226,-97,91,-35,-35
8455,24,-228,-95,90,-36,-36
8460,27,-228,-96,90,-39,-36
8465,28,-226,-101,90,-39,-35
8470,24,-223,-94,90,-39,-36
8475,29,-229,-102,88,-40,-35
8480,27,-226,-98,87,-39,-36
8485,27,-224,-99,86,-40,-35
8490,26,-232,-96,85,-40,-36
8495,28,-225,-95,84,-41,-36
8500,28,-228,-97,83,-41,-35
8505,29,-227,-100,84,-42,-35
8510,29,-230,-95,85,-41,-35
8515,29,-229,-100,86,-40,-31
8520,26,-227,-97,85,-38,-31
8525,31,-231,-96,84,-37,-32
8530,26,-227,-95,83,-35,-34
8535,27,-227,-97,82,-33,-32
8540,28,-227,-93,82,-31,-34
8545,25,-219,-97,83,-29,-33
8550,27,-225,-95,82,-29,-35
8555,26,-227,-95,82,-28,-35
8560,29,-225,-97,83,-28,-36
8565,27,-225,-98,83,-28,-37
8570,29,-227,-100,84,-27,-37
8575,29,-224,-98,82,-26,-38
8580,24,-225,-98,79,-28,-38
8585,30,-227,-96,76,-31,-38
8590,30,-226,-99,73,-32,-38
8595,26,-222,-97,69,-32,-36
8600,24,-226,-103,67,-34,-38
8605,28,-223,-95,64,-34,-38
8610,25,-226,-99,64,-33,-41
8615,28,-226,-96,63,-35,-40
8620,25,-230,-95,63,-33,-37
8625,23,-228,-97,61,-33,-38
8630,26,-229,-98,61,-32,-40
8635,30,-228,-94,62,-31,-40
8640,26,-229,-100,64,-30,-39
8645,28,-225,-99,66,-29,-39
8650,28,-224,-99,68,-27,-38
8655,22,-226,-101,68,-27,-37
8660,29,-223,-99,66,-24,-33
8665,28,-226,-99,63,-22,-31
8670,29,-224,-97,59,-20,-27
8675,30,-225,-97,54,-15,-23
8680,31,-226,-99,48,-11,-22
8685,30,-225,-96,43,-9,-20
8690,31,-228,-95,38,-6,-18
8695,31,-225,-96,33,-5,-16
8700,34,-225,-98,30,-1,-12
8705,33,-224,-98,28,3,-12
8710,28,-228,-97,26,6,-11
8715,29,-223,-94,25,9,-11
8720,28,-224,-99,26,11,-11
8725,28,-227,-97,28,12,-11
8730,32,-227,-100,30,15,-8
8735,28,-225,-96,34,17,-8
8740,30,-227,-98,34,19,-9
8745,30,-231,-98,36,19,-10
8750,27,-229,-101,37,21,-10
8755,30,-231,-98,38,24,-11
8760,26,-227,-98,37,26,-12
8765,31,-232,-95,36,29,-12
8770,27,-227,-104,35,30,-13
8775,29,-229,-103,35,31,-14
8780,27,-227,-96,35,35,-13
8785,25,-226,-101,35,36,-13
8790,27,-226,-103,36,38,-16
8795,28,-227,-100,37,42,-15
8800,24,-225,-103,39,43,-16
8805,27,-228,-103,39,45,-14
8810,27,-228,-98,42,45,-12
8815,26,-226,-99,45,46,-11
8820,24,-218,-100,46,45,-11
8825,27,-225,-95,48,46,-9
8830,26,-229,-101,49,44,-8
8835,23,-224,-99,49,45,-6
8840,25,-226,-98,50,45,-5
8845,26,-225,-101,49,45,-5
8850,25,-228,-99,48,47,-4
8855,27,-228,-97,48,48,-5
8860,23,-224,-98,48,48,-4
8865,25,-223,-97,48,48,-4
8870,24,-227,-108,49,47,-5
8875,26,-227,-100,47,45,-5
8880,25,-226,-103,48,44,-6
8885,24,-226,-99,48,41,-7
8890,26,-227,-103,48,38,-9
8895,23,-228,-100,49,36,-10
8900,22,-226,-94,50,34,-10
8905,25,-228,-100,50,33,-10
8910,25,-225,-98,51,33,-10
8915,23,-227,-100,52,30,-10
8920,25,-232,-96,52,28,-11
8925,32,-227,-101,52,25,-10
8930,22,-225,-96,53,23,-11
8935,28,-227,-98,51,20,-9
8940,26,-226,-99,51,19,-9
8945,21,-224,-94,50,16,-9
8950,25,-228,-97,47,14,-9
8955,24,-225,-99,46,14,-9
8960,26,-226,-96,48,14,-10
8965,25,-224,-103,49,13,-8
8970,25,-225,-98,49,12,-8
8975,26,-231,-97,51,10,-10
8980,30,-223,-99,53,9,-11
8985,23,-225,-98,52,8,-10
8990,26,-226,-94,52,8,-10
8995,23,-225,-96,50,7,-11
9000,27,-225,-95,47,6,-9
9005,27,-228,-98,46,6,-11
9010,25,-226,-97,46,5,-11
9015,29,-221,-101,45,3,-10
9020,25,-226,-97,46,6,-9
9025,28,-226,-95,44,8,-10
9030,29,-228,-100,47,8,-9
9035,19,-229,-103,49,7,-10
9040,28,-225,-96,52,6,-10
9045,28,-228,-99,51,7,-11
9050,25,-225,-100,52,11,-11
9055,32,-229,-100,53,10,-11
9060,28,-227,-96,54,7,-11
9065,28,-229,-102,52,4,-12
9070,29,-228,-101,50,4,-12
9075,29,-227,-98,48,5,-12
9080,28,-230,-95,46,5,-14
9085,31,-228,-97,46,8,-12
9090,28,-230,-94,44,8,-11
9095,27,-225,-97,45,7,-13
9100,30,-228,-99,47,6,-13
9105,27,-227,-101,47,6,-12
9110,29,-222,-97,46,7,-12
9115,28,-226,-98,46,7,-12
9120,27,-224,-97,47,7,-13
9125,30,-226,-98,49,7,-14
9130,29,-228,-97,50,9,-13
9135,27,-230,-99,53,11,-12
9140,28,-229,-95,56,14,-12
9145,26,-219,-106,61,15,-13
9150,27,-229,-97,63,16,-13
9155,29,-225,-98,64,15,-12
9160,29,-225,-96,63,17,-11
9165,28,-226,-99,63,18,-12
9170,30,-227,-99,61,19,-14
9175,30,-226,-100,61,22,-13
9180,27,-225,-95,59,22,-13
9185,27,-230,-100,60,22,-12
9190,28,-227,-99,59,23,-12
9195,29,-227,-96,56,22,-12
9200,30,-227,-98,55,23,-9
9205,27,-226,-96,51,24,-11
9210,28,-227,-99,49,24,-10
9215,29,-227,-97,48,23,-10
9220,28,-226,-96,47,22,-8
9225,26,-225,-98,49,22,-9
9230,29,-229,-95,51,19,-11
9235,23,-230,-101,55,17,-9
9240,31,-230,-96,60,13,-10
9245,25,-230,-99,63,13,-9
9250,28,-225,-92,67,10,-10
9255,30,-225,-105,67,10,-9
9260,27,-225,-100,64,11,-9
9265,29,-227,-100,61,11,-8
9270,26,-225,-101,55,13,-8
9275,30,-228,-96,51,15,-9
9280,26,-226,-100,47,17,-7
9285,29,-230,-99,43,18,-5
9290,27,-225,-97,40,17,-5
9295,31,-229,-95,39,19,-6
9300,31,-228,-98,42,20,-5
9305,27,-224,-99,43,22,-4
9310,29,-226,-105,46,24,-4
9315,26,-227,-100,49,25,-3
9320,28,-228,-98,53,25,-3
9325,27,-227,-97,56,26,-1
9330,27,-225,-95,58,26,-3
9335,28,-225,-93,58,26,-1
9340,26,-225,-99,56,25,-1
9345,30,-228,-101,55,24,-1
9350,29,-226,-95,53,23,-2
9355,28,-224,-96,52,24,-2
9360,27,-228,-101,51,24,-4
9365,28,-228,-98,50,25,-3
9370,28,-226,-97,49,25,-3
9375,30,-229,-97,48,26,-2
9380,31,-227,-97,46,26,-2
9385,27,-227,-99,46,27,-2
9390,29,-227,-98,46,27,-3
9395,31,-227,-97,46,28,-2
9400,28,-224,-99,47,29,-2
9405,28,-229,-98,48,31,-1
9410,26,-225,-94,51,32,-1
9415,30,-232,-102,51,31,0
9420,27,-228,-95,54,31,0
9425,27,-226,-99,56,31,2
9430,25,-225,-97,58,32,2
9435,28,-229,-96,60,34,0
9440,26,-229,-96,60,34,1
9445,26,-225,-100,61,34,1
9450,26,-226,-95,61,34,0
9455,27,-226,-98,61,33,-1
9460,26,-230,-94,60,31,-2
9465,29,-226,-93,61,30,-5
9470,24,-226,-102,61,28,-6
9475,29,-226,-97,59,27,-5
9480,25,-228,-98,60,23,-6
9485,23,-225,-98,59,21,-6
9490,24,-225,-101,57,19,-7
9495,24,-226,-95,54,17,-6
9500,26,-228,-95,53,15,-7
9505,25,-226,-98,52,10,-8
9510,25,-225,-99,51,7,-6
9515,29,-226,-97,50,6,-7
9520,26,-228,-93,49,4,-8
9525,22,-223,-97,48,2,-8
9530,24,-222,-96,48,-1,-8
9535,29,-230,-94,47,-2,-7
9540,27,-228,-92,47,-1,-10
9545,26,-227,-98,47,0,-10
9550,27,-229,-95,46,-1,-10
9555,28,-229,-98,49,0,-12
9560,26,-229,-94,50,0,-11
9565,29,-229,-93,54,1,-11
9570,26,-228,-96,55,2,-12
9575,30,-229,-94,57,3,-13
9580,23,-228,-95,59,3,-13
9585,28,-227,-94,58,1,-15
9590,28,-225,-96,59,1,-15
9595,26,-227,-97,59,2,-15
9600,29,-226,-95,59,4,-15
9605,26,-226,-95,59,4,-14
9610,32,-228,-99,59,4,-15
9615,30,-227,-99,58,5,-16
9620,29,-226,-97,58,3,-14
9625,26,-225,-98,57,4,-14
9630,30,-225,-100,55,4,-14
9635,22,-223,-95,53,4,-14
9640,29,-227,-97,52,6,-13
9645,27,-225,-96,51,5,-14
9650,28,-227,-97,50,6,-13
9655,29,-226,-95,49,6,-13
9660,26,-227,-96,50,5,-13
9665,27,-226,-96,50,5,-14
9670,30,-226,-97,53,6,-16
9675,26,-226,-97,53,5,-15
9680,25,-227,-94,54,3,-14
9685,24,-227,-97,54,3,-17
9690,26,-230,-96,52,3,-18
9695,28,-227,-97,52,4,-18
9700,26,-225,-98,51,3,-19
9705,26,-226,-101,51,2,-18
9710,25,-226,-97,48,1,-18
9715,31,-229,-99,48,0,-19
9720,26,-228,-98,47,1,-18
9725,27,-228,-98,49,0,-16
9730,24,-226,-99,52,0,-18
9735,26,-228,-96,54,0,-18
9740,29,-230,-95,58,-1,-18
9745,21,-229,-97,62,-1,-17
9750,25,-228,-95,67,0,-20
9755,29,-229,-98,70,0,-17
9760,26,-226,-97,71,0,-18
9765,27,-227,-98,73,1,-18
9770,29,-224,-99,73,1,-18
9775,29,-229,-95,72,1,-19
9780,24,-227,-93,71,1,-17
9785,25,-223,-93,69,-1,-16
9790,26,-227,-97,67,-2,-16
9795,25,-225,-95,63,1,-16
9800,25,-226,-95,61,0,-16
9805,24,-226,-97,59,0,-16
9810,28,-226,-96,59,0,-16
9815,27,-227,-94,58,-1,-18
9820,27,-227,-98,57,-2,-16
9825,28,-229,-96,59,-2,-17
9830,28,-230,-96,59,-4,-19
9835,29,-230,-96,60,-5,-20
9840,27,-225,-98,62,-7,-19
9845,26,-226,-92,65,-7,-19
9850,27,-226,-98,67,-7,-19
9855,27,-225,-103,65,-7,-19
9860,25,-225,-98,66,-7,-18
9865,29,-224,-98,62,-5,-18
9870,28,-225,-99,57,-4,-17
9875,29,-223,-96,52,-2,-18
9880,30,-226,-96,49,1,-17
9885,28,-224,-98,46,4,-16
9890,32,-230,-94,43,5,-14
9895,30,-227,-98,42,6,-14
9900,28,-225,-97,43,7,-13
9905,32,-231,-102,44,9,-12
9910,29,-228,-96,46,11,-9
9915,27,-230,-96,47,10,-10
9920,28,-229,-96,48,12,-11
9925,28,-228,-98,49,12,-12
9930,31,-229,-100,50,15,-13
9935,29,-228,-97,51,14,-10
9940,30,-231,-95,53,15,-11
9945,26,-228,-98,54,14,-11
9950,26,-228,-97,55,13,-13
9955,28,-226,-94,55,12,-14
9960,26,-227,-98,57,12,-13
9965,26,-228,-93,55,13,-13
9970,25,-231,-99,53,11,-14
9975,29,-229,-96,51,12,-12
9980,29,-228,-95,49,12,-13
9985,28,-225,-96,48,12,-10
9990,27,-229,-97,46,14,-9
9995,29,-230,-95,46,14,-9
10000,26,-226,-95,46,14,-8
10005,29,-226,-99,48,15,-7
10010,26,-228,-90,48,15,-7
10015,25,-231,-107,49,14,-6
10020,25,-225,-97,50,13,-6
10025,26,-226,-95,52,12,-7
10030,26,-226,-100,53,13,-7
10035,28,-227,-94,53,12,-8
10040,25,-228,-97,55,13,-7
10045,27,-228,-96,56,13,-7
10050,25,-230,-94,57,11,-7
10055,24,-225,-97,57,13,-9
10060,26,-228,-96,56,12,-10
10065,30,-225,-96,53,13,-10
10070,24,-225,-98,53,12,-10
10075,24,-225,-95,53,11,-9
10080,27,-226,-93,50,10,-11
10085,28,-228,-93,52,8,-11
10090,26,-226,-95,52,7,-12
10095,28,-226,-97,52,7,-11
10100,28,-228,-95,52,4,-10
10105,27,-229,-97,52,4,-11
10110,26,-228,-99,53,4,-10
10115,26,-225,-98,55,4,-9
10120,25,-228,-100,52,5,-8
10125,27,-229,-96,49,6,-10
10130,28,-227,-100,48,6,-9
10135,28,-231,-98,48,7,-12
10140,27,-228,-95,46,8,-12
10145,32,-227,-95,47,8,-10
10150,29,-231,-96,48,10,-10
10155,28,-228,-98,49,13,-10
10160,27,-226,-99,53,13,-11
10165,29,-227,-97,54,14,-10
10170,27,-227,-97,55,14,-11
10175,28,-228,-98,58,14,-11
10180,25,-228,-94,59,16,-11
10185,26,-225,-96,59,14,-12
10190,27,-225,-98,61,14,-11
10195,28,-227,-97,62,15,-11
10200,27,-228,-97,62,14,-11
10205,27,-226,-97,61,15,-13
10210,29,-227,-96,59,15,-11
10215,28,-225,-101,58,16,-11
10220,24,-228,-98,56,16,-12
10225,30,-227,-97,55,15,-12
10230,27,-225,-92,52,16,-12
10235,24,-222,-94,50,16,-11
10240,26,-227,-96,51,16,-10
10245,29,-226,-97,52,17,-8
10250,26,-226,-99,52,17,-9
10255,27,-227,-94,54,16,-7
10260,27,-226,-94,55,16,-6
10265,26,-225,-97,55,15,-7
10270,29,-230,-92,55,15,-7
10275,27,-227,-93,55,17,-8
10280,25,-228,-97,54,16,-8
10285,26,-229,-101,53,15,-6
10290,26,-227,-94,52,14,-7
10295,27,-227,-97,53,15,-8
10300,28,-229,-98,52,16,-6
10305,29,-228,-97,52,15,-7
10310,31,-229,-99,50,16,-7
10315,27,-229,-97,51,15,-8
10320,27,-227,-98,51,15,-8
10325,23,-227,-97,51,14,-7
10330,27,-228,-93,52,15,-8
10335,27,-225,-97,52,15,-8
10340,27,-228,-101,54,16,-9
10345,27,-225,-95,57,17,-8
10350,26,-226,-96,58,17,-8
10355,28,-223,-95,61,18,-9
10360,28,-227,-94,63,18,-10
10365,29,-228,-95,65,17,-9
10370,28,-226,-97,66,18,-9
10375,25,-225,-97,65,17,-12
10380,25,-226,-100,64,18,-10
10385,26,-226,-98,64,17,-10
10390,24,-226,-96,62,18,-11
10395,24,-223,-99,60,17,-10
10400,29,-227,-100,59,18,-10
10405,27,-230,-96,57,18,-8
10410,27,-225,-98,57,18,-10
10415,27,-227,-98,57,15,-9
10420,29,-230,-98,58,15,-9
10425,26,-228,-96,56,16,-8
10430,25,-227,-95,57,15,-8
10435,29,-227,-96,56,14,-7
10440,23,-228,-96,54,14,-7
10445,27,-232,-101,55,10,-8
10450,28,-227,-95,57,10,-10
10455,27,-230,-92,60,8,-11
10460,27,-227,-95,63,7,-10
10465,26,-226,-95,67,7,-12
10470,24,-223,-101,70,7,-11
10475,28,-225,-98,69,8,-10
10480,28,-225,-97,67,9,-11
10485,29,-227,-99,61,10,-8
10490,27,-226,-102,55,11,-6
10495,30,-227,-96,52,13,-9
10500,28,-228,-95,48,14,-8
10505,29,-232,-99,45,12,-8
10510,32,-234,-93,44,13,-8
10515,29,-228,-98,45,15,-7
10520,28,-227,-97,46,16,-8
10525,27,-226,-94,48,18,-8
10530,26,-231,-97,48,19,-6
10535,30,-230,-95,51,19,-6
10540,24,-228,-98,55,20,-6
10545,25,-228,-95,56,20,-6
10550,25,-225,-95,60,19,-6
10555,29,-228,-100,62,20,-7
10560,24,-220,-92,63,20,-8
10565,26,-226,-94,63,17,-8
10570,28,-224,-97,62,16,-9
10575,25,-226,-96,60,12,-10
10580,29,-229,-96,57,12,-11
10585,29,-227,-98,55,11,-11
10590,26,-228,-94,52,12,-11
10595,28,-225,-101,51,12,-10
10600,23,-228,-99,50,13,-10
10605,31,-229,-101,51,14,-10
10610,25,-228,-100,51,14,-10
10615,28,-231,-97,51,14,-10
10620,28,-229,-101,53,14,-8
10625,30,-231,-98,54,15,-8
10630,26,-226,-97,54,15,-8
10635,26,-227,-98,55,17,-6
10640,27,-226,-98,56,17,-8
10645,28,-225,-94,59,16,-7
10650,31,-232,-99,62,15,-8
10655,29,-231,-99,63,15,-8
10660,29,-229,-99,66,16,-9
10665,25,-227,-98,66,18,-9
10670,29,-228,-102,66,20,-8
10675,30,-229,-97,66,20,-9
10680,26,-229,-96,66,19,-8
10685,24,-225,-97,65,17,-8
10690,27,-229,-96,65,15,-7
10695,27,-227,-96,65,15,-9
10700,25,-226,-97,66,16,-8
10705,23,-222,-98,67,14,-9
10710,28,-228,-92,67,14,-8
10715,25,-225,-93,68,12,-10
10720,28,-229,-95,66,12,-11
10725,26,-224,-96,68,11,-10
10730,29,-228,-97,66,10,-10
10735,25,-228,-96,64,11,-9
10740,28,-227,-95,62,11,-9
10745,28,-227,-94,60,10,-9
10750,28,-228,-97,60,11,-9
10755,27,-229,-95,60,11,-10
10760,30,-223,-98,59,11,-9
10765,28,-229,-96,58,12,-10
10770,27,-229,-95,60,13,-8
10775,30,-230,-94,62,15,-9
10780,33,-228,-102,64,15,-8
10785,25,-227,-99,66,16,-8
10790,29,-227,-95,68,16,-8
10795,25,-227,-96,72,16,-7
10800,27,-229,-95,74,15,-7
10805,26,-227,-99,75,14,-8
10810,28,-228,-96,76,14,-9
10815,28,-227,-93,76,15,-8
10820,25,-230,-96,77,15,-8
10825,25,-226,-100,78,16,-8
10830,27,-229,-98,78,16,-9
10835,27,-233,-99,78,16,-8
10840,27,-224,-95,77,18,-9
10845,26,-227,-95,76,16,-8
10850,24,-224,-99,73,15,-9
10855,26,-229,-95,69,15,-9
10860,28,-228,-94,67,15,-10
10865,26,-227,-95,67,16,-9
10870,28,-228,-92,68,15,-10
10875,31,-230,-95,70,14,-9
10880,26,-230,-96,72,16,-10
10885,28,-229,-99,74,14,-10
10890,28,-226,-96,74,14,-7
10895,27,-226,-99,76,15,-9
10900,26,-226,-96,78,15,-11
10905,25,-226,-99,78,16,-10
10910,25,-228,-94,78,15,-10
10915,25,-229,-94,80,15,-9
10920,27,-229,-95,80,13,-9
10925,30,-225,-94,81,12,-9
10930,28,-226,-98,82,13,-9
10935,26,-229,-99,83,12,-9
10940,26,-229,-95,82,13,-9
10945,29,-230,-94,83,12,-9
10950,31,-229,-94,81,10,-10
10955,29,-232,-91,79,10,-9
10960,30,-227,-101,80,9,-9
10965,26,-231,-95,81,10,-8
10970,25,-228,-91,85,11,-5
10975,31,-233,-93,89,10,-7
10980,27,-227,-96,92,10,-6
10985,25,-226,-93,94,11,-6
10990,26,-227,-98,94,12,-7
10995,31,-225,-100,93,11,-6
11000,25,-227,-94,91,13,-8
11005,24,-229,-94,88,12,-7
11010,27,-230,-97,86,12,-7
11015,28,-228,-94,85,14,-8
11020,27,-224,-95,84,14,-10
11025,29,-227,-93,84,16,-9
11030,25,-227,-93,85,16,-7
11035,29,-228,-91,84,15,-7
11040,25,-229,-97,84,17,-7
11045,27,-230,-98,84,15,-7
11050,38,-223,-101,83,15,-7
11055,28,-230,-91,81,15,-8
11060,28,-228,-94,81,15,-8
11065,26,-230,-94,80,13,-8
11070,28,-231,-93,79,12,-7
11075,27,-233,-91,80,11,-9
11080,27,-233,-95,81,9,-10
11085,27,-232,-91,83,5,-12
11090,25,-231,-93,83,4,-12
11095,30,-229,-94,84,5,-11
11100,27,-228,-94,85,5,-12
11105,27,-228,-97,86,6,-12
11110,26,-227,-93,84,7,-10
11115,27,-230,-95,84,8,-10
11120,29,-231,-94,83,9,-10
11125,30,-230,-92,85,11,-11
11130,29,-228,-88,84,12,-12
11135,28,-230,-90,83,15,-12
11140,28,-232,-95,81,15,-11
11145,30,-225,-89,79,18,-9
11150,29,-226,-92,77,18,-11
11155,24,-227,-94,74,19,-12
11160,27,-226,-92,73,20,-11
11165,26,-229,-94,72,21,-10
11170,25,-231,-91,72,21,-10
11175,26,-232,-94,74,21,-12
11180,27,-231,-91,76,20,-10
11185,28,-230,-92,78,20,-10
11190,32,-228,-90,79,20,-11
11195,28,-229,-90,81,18,-11
11200,27,-227,-88,80,18,-11
11205,30,-225,-92,78,18,-12
11210,31,-227,-93,73,18,-11
11215,27,-232,-87,68,19,-10
11220,27,-229,-89,63,20,-11
11225,28,-229,-92,59,20,-11
11230,31,-227,-91,55,20,-8
11235,27,-227,-95,53,20,-8
11240,26,-228,-90,52,22,-8
11245,29,-230,-93,49,22,-7
11250,28,-231,-93,48,23,-7
11255,26,-228,-90,48,24,-5
11260,25,-229,-91,48,26,-5
11265,24,-227,-90,50,27,-5
11270,20,-232,-86,52,27,-5
11275,23,-229,-91,55,27,-6
11280,28,-229,-91,59,28,-5
11285,27,-230,-90,61,28,-6
11290,26,-229,-92,65,28,-6
11295,25,-229,-91,66,29,-7
11300,26,-233,-93,67,26,-8
11305,24,-231,-96,66,25,-10
11310,25,-230,-92,66,24,-10
11315,26,-233,-90,67,24,-11
11320,21,-229,-91,65,24,-11
11325,28,-232,-97,64,22,-12
11330,28,-228,-92,65,20,-11
11335,26,-229,-90,65,19,-12
11340,24,-229,-91,64,18,-11
11345,26,-227,-89,64,15,-11
11350,26,-228,-92,63,12,-10
11355,28,-231,-93,64,11,-12
11360,26,-230,-91,62,10,-12
11365,26,-232,-93,62,9,-13
11370,26,-232,-92,63,7,-12
11375,25,-227,-91,61,6,-12
11380,26,-231,-90,65,6,-12
11385,27,-229,-89,64,5,-13
11390,25,-231,-92,67,5,-15
11395,24,-230,-91,70,5,-14
11400,26,-231,-89,72,5,-15
11405,22,-230,-90,74,3,-14
11410,26,-233,-90,78,2,-14
11415,26,-232,-91,82,1,-15
11420,25,-233,-89,85,-1,-14
11425,28,-229,-92,87,-1,-15
11430,24,-227,-96,91,-3,-16
11435,27,-231,-91,94,-2,-18
11440,25,-230,-89,95,-2,-16
11445,24,-227,-89,97,-1,-18
11450,25,-229,-91,97,-2,-18
11455,26,-234,-87,98,-2,-20
11460,25,-228,-90,96,-1,-21
11465,25,-228,-93,98,-2,-22
11470,30,-232,-93,101,-1,-20
11475,28,-234,-88,105,0,-19
11480,30,-236,-91,107,3,-20
11485,21,-232,-89,111,2,-19
11490,26,-230,-90,114,3,-20
11495,27,-230,-90,117,4,-19
11500,29,-231,-92,117,3,-20
11505,29,-229,-98,118,6,-21
11510,29,-228,-89,118,9,-21
11515,30,-232,-91,118,9,-18
11520,33,-230,-92,120,11,-16
11525,31,-228,-91,120,12,-15
11530,32,-229,-92,119,14,-15
11535,31,-227,-92,119,16,-12
11540,39,-229,-94,118,19,-10
11545,33,-227,-88,116,21,-6
11550,31,-228,-91,114,24,-5
11555,34,-229,-88,112,25,-1
11560,34,-230,-91,113,29,2
11565,32,-225,-88,111,31,5
11570,33,-229,-87,110,33,7
11575,37,-230,-91,109,36,8
11580,36,-229,-88,106,39,10
11585,33,-226,-90,101,43,13
11590,32,-226,-86,97,48,14
11595,25,-225,-84,95,53,15
11600,34,-229,-90,92,56,14
11605,34,-232,-91,91,61,14
11610,31,-230,-89,92,65,14
11615,30,-230,-88,95,67,13
11620,28,-230,-87,96,71,13
11625,32,-233,-90,99,76,12
11630,30,-232,-91,102,79,12
11635,28,-230,-92,103,81,10
11640,29,-232,-87,105,86,10
11645,28,-234,-88,107,89,8
11650,31,-232,-93,112,93,6
11655,26,-234,-88,116,94,6
11660,27,-235,-90,120,96,6
11665,25,-234,-89,123,96,5
11670,25,-231,-89,127,96,3
11675,28,-233,-86,130,97,2
11680,24,-230,-91,131,94,-1
11685,24,-231,-86,131,89,-1
11690,26,-229,-86,131,86,-2
11695,23,-230,-89,127,84,-5
11700,24,-225,-88,127,81,-6
11705,23,-227,-84,124,76,-9
11710,23,-233,-85,123,70,-10
11715,23,-230,-83,120,65,-10
11720,21,-229,-88,120,58,-12
11725,20,-229,-82,119,52,-15
11730,22,-227,-85,119,45,-16
11735,19,-230,-89,116,39,-17
11740,27,-229,-87,113,32,-17
11745,19,-230,-86,110,26,-18
11750,21,-230,-86,105,21,-20
11755,23,-230,-85,101,18,-19
11760,12,-229,-91,98,13,-21
11765,21,-234,-86,96,9,-23
11770,21,-233,-82,93,3,-23
11775,19,-233,-83,93,0,-25
11780,22,-231,-80,92,-6,-27
11785,22,-236,-85,92,-12,-29
11790,21,-233,-86,93,-17,-29
11795,18,-231,-83,94,-21,-31
11800,22,-235,-85,94,-25,-30
11805,23,-229,-81,94,-27,-32
11810,25,-236,-82,92,-32,-31
11815,24,-232,-84,91,-35,-32
11820,24,-233,-85,87,-36,-32
11825,25,-232,-84,85,-40,-32
11830,22,-231,-83,81,-42,-33
11835,23,-232,-80,78,-45,-33
11840,22,-231,-80,73,-46,-34
11845,23,-230,-84,71,-48,-33
11850,27,-230,-83,69,-48,-32
11855,28,-231,-82,67,-49,-33
11860,30,-231,-80,64,-48,-32
11865,27,-232,-85,61,-48,-31
11870,27,-227,-87,57,-46,-31
11875,30,-232,-84,53,-46,-30
11880,26,-230,-83,51,-43,-30
11885,29,-232,-84,48,-41,-28
11890,30,-230,-83,47,-37,-26
11895,28,-228,-84,47,-35,-24
11900,29,-231,-87,49,-34,-21
11905,32,-233,-83,50,-32,-19
11910,31,-229,-84,54,-29,-17
11915,27,-233,-86,58,-27,-15
11920,31,-230,-87,59,-25,-11
11925,30,-231,-83,59,-24,-9
11930,30,-232,-87,58,-23,-9
11935,30,-232,-87,58,-21,-8
11940,32,-232,-81,58,-17,-9
11945,32,-231,-83,58,-16,-8
11950,31,-231,-81,59,-13,-7
11955,28,-230,-85,58,-10,-4
11960,30,-230,-85,58,-8,-5
11965,31,-230,-87,59,-6,-6
11970,28,-229,-89,59,-3,-4
11975,32,-239,-87,58,-2,-4
11980,33,-231,-83,58,1,-3
11985,28,-230,-85,56,3,-3
11990,29,-229,-86,53,4,-6
11995,30,-233,-83,50,4,-5
