timestamp,acc_x,acc_y,acc_z,gyro_x,gyro_y,gyro_z
0,26,-232,-86,30,20,-7
5,29,-235,-85,28,21,-8
10,32,-232,-81,29,20,-8
15,27,-231,-86,32,19,-8
20,33,-231,-81,33,20,-7
25,27,-230,-89,34,18,-7
30,28,-232,-84,34,18,-7
35,29,-235,-84,36,17,-6
40,29,-229,-81,36,17,-5
45,30,-233,-83,37,16,-8
50,27,-229,-85,37,15,-8
55,29,-231,-82,38,13,-9
60,33,-235,-84,39,15,-8
65,29,-231,-81,39,13,-9
70,30,-234,-81,39,14,-10
75,27,-234,-84,39,13,-11
80,31,-237,-93,39,13,-10
85,30,-233,-82,38,13,-12
90,30,-232,-83,40,13,-11
95,31,-234,-81,42,13,-11
100,27,-234,-83,40,13,-12
105,30,-235,-82,42,13,-12
110,27,-233,-82,45,12,-10
115,30,-232,-85,46,12,-10
120,30,-234,-78,49,12,-13
125,28,-233,-83,51,11,-11
130,32,-233,-80,51,11,-11
135,29,-232,-81,54,10,-13
140,28,-236,-83,55,11,-13
145,30,-232,-83,56,10,-14
150,28,-232,-84,56,10,-12
155,30,-231,-82,55,11,-12
160,29,-232,-85,54,10,-11
165,29,-228,-81,51,10,-11
170,31,-232,-81,50,10,-12
175,30,-234,-81,48,9,-10
180,29,-231,-80,48,9,-12
185,27,-232,-84,48,9,-12
190,31,-233,-80,46,8,-12
195,31,-234,-84,45,6,-11
200,31,-232,-80,43,4,-12
205,29,-232,-81,44,6,-12
210,31,-234,-83,45,4,-12
215,28,-231,-81,48,4,-13
220,27,-231,-80,50,2,-12
225,29,-234,-76,51,-1,-14
230,24,-231,-79,53,-2,-15
235,28,-234,-81,54,-2,-14
240,29,-237,-80,57,-4,-16
245,26,-230,-84,59,-5,-15
250,29,-235,-84,59,-5,-16
255,28,-234,-85,59,-6,-16
260,25,-231,-81,59,-4,-17
265,29,-232,-85,58,-2,-15
270,30,-231,-83,55,0,-15
275,31,-230,-83,52,0,-15
280,31,-232,-85,49,1,-16
285,32,-232,-80,45,4,-16
290,31,-233,-77,40,2,-16
295,32,-240,-76,36,2,-15
300,30,-232,-84,36,2,-14
305,28,-231,-83,34,1,-14
310,30,-234,-83,34,0,-14
315,29,-231,-83,34,1,-15
320,27,-234,-85,35,4,-15
325,32,-230,-83,37,5,-12
330,31,-232,-85,41,6,-14
335,30,-234,-77,46,8,-12
340,27,-232,-81,48,8,-13
345,28,-232,-83,54,7,-14
350,30,-232,-92,56,6,-14
355,26,-232,-81,55,6,-13
360,29,-234,-82,54,6,-16
365,28,-230,-84,52,7,-15
370,30,-230,-84,50,7,-14
375,29,-232,-86,49,7,-15
380,27,-232,-84,47,7,-15
385,26,-230,-83,46,8,-15
390,30,-232,-81,43,8,-15
395,27,-235,-81,42,8,-14
400,29,-233,-86,44,9,-15
405,27,-234,-85,44,7,-14
410,29,-235,-83,46,6,-12
415,30,-233,-84,47,6,-13
420,30,-233,-84,50,6,-11
425,30,-230,-84,50,6,-12
430,30,-233,-84,50,6,-10
435,28,-234,-82,52,5,-11
440,29,-233,-85,54,4,-12
445,30,-233,-83,56,3,-13
450,26,-233,-84,57,1,-12
455,28,-230,-81,58,-1,-14
460,32,-234,-86,57,-3,-14
465,30,-232,-86,56,-3,-13
470,27,-229,-84,54,-4,-14
475,29,-230,-85,54,-5,-15
480,26,-230,-83,50,-5,-16
485,31,-230,-85,48,-6,-17
490,30,-233,-85,45,-6,-17
495,26,-229,-87,42,-6,-18
500,27,-230,-84,41,-7,-18
505,32,-233,-82,41,-7,-18
510,30,-233,-82,42,-6,-17
515,29,-233,-89,42,-6,-15
520,29,-234,-84,42,-6,-16
525,30,-233,-88,45,-6,-17
530,28,-234,-86,45,-6,-17
535,29,-231,-87,46,-6,-17
540,28,-230,-83,46,-7,-17
545,30,-230,-86,45,-7,-18
550,28,-231,-83,42,-8,-17
555,29,-232,-81,41,-9,-18
560,27,-233,-89,38,-8,-20
565,27,-236,-90,37,-7,-21
570,26,-232,-86,37,-7,-21
575,31,-232,-84,36,-8,-21
580,29,-231,-86,35,-9,-20
585,29,-234,-83,35,-11,-20
590,28,-231,-84,35,-12,-19
595,26,-232,-81,34,-12,-21
600,29,-233,-84,33,-12,-21
605,28,-234,-85,31,-13,-21
610,27,-225,-82,29,-14,-21
615,34,-233,-88,29,-17,-21
620,33,-234,-82,27,-19,-21
625,30,-231,-87,22,-22,-20
630,30,-231,-85,18,-22,-20
635,27,-232,-82,16,-21,-20
640,28,-229,-82,13,-22,-22
645,29,-232,-83,9,-22,-21
650,31,-234,-85,6,-21,-20
655,32,-232,-83,3,-21,-20
660,26,-233,-81,1,-21,-20
665,26,-232,-83,0,-22,-21
670,32,-234,-85,-1,-22,-22
675,23,-234,-75,-3,-23,-21
680,27,-235,-85,-3,-24,-24
685,26,-231,-81,-5,-25,-24
690,28,-232,-83,-8,-25,-23
695,28,-233,-87,-9,-26,-22
700,28,-231,-82,-8,-26,-22
705,25,-233,-83,-8,-27,-24
710,29,-233,-87,-7,-27,-24
715,24,-229,-86,-6,-28,-25
720,29,-231,-83,-7,-29,-26
725,28,-231,-79,-6,-31,-27
730,26,-232,-85,-7,-30,-28
735,26,-229,-82,-5,-31,-31
740,27,-233,-79,-5,-31,-32
745,25,-235,-84,-4,-32,-31
750,24,-231,-81,-2,-31,-33
755,26,-232,-84,0,-32,-35
760,23,-234,-84,1,-32,-37
765,25,-234,-84,2,-31,-37
770,29,-236,-83,1,-32,-38
775,25,-233,-80,-1,-32,-40
780,27,-236,-79,-3,-34,-39
785,20,-232,-80,-5,-38,-40
790,22,-228,-86,-9,-41,-39
795,23,-233,-79,-12,-44,-39
800,26,-236,-85,-13,-47,-41
805,25,-234,-81,-15,-51,-40
810,25,-233,-81,-15,-55,-39
815,25,-234,-79,-17,-60,-38
820,25,-235,-86,-22,-66,-35
825,23,-232,-87,-29,-70,-33
830,29,-233,-87,-31,-75,-31
835,23,-232,-84,-33,-78,-29
840,26,-229,-90,-32,-81,-26
845,27,-231,-84,-27,-85,-26
850,30,-232,-82,-21,-91,-22
855,33,-233,-84,-17,-96,-20
860,32,-232,-86,-12,-100,-17
865,33,-232,-89,-7,-102,-13
870,33,-232,-89,-2,-104,-8
875,32,-231,-84,4,-106,-4
880,30,-230,-93,10,-106,-1
885,33,-230,-91,18,-108,2
890,30,-228,-86,25,-110,3
895,33,-236,-88,31,-111,7
900,34,-229,-92,35,-112,7
905,37,-232,-86,38,-110,11
910,35,-229,-93,37,-107,12
915,36,-232,-91,37,-103,12
920,39,-231,-89,36,-97,13
925,38,-234,-93,35,-90,16
930,41,-234,-91,37,-84,17
935,43,-233,-88,39,-75,18
940,40,-234,-90,45,-65,17
945,43,-232,-92,51,-55,16
950,40,-235,-94,61,-43,17
955,42,-232,-90,71,-32,17
960,42,-232,-88,80,-21,15
965,40,-230,-95,91,-10,15
970,44,-229,-91,100,-1,15
975,40,-227,-92,110,8,14
980,45,-227,-92,116,17,13
985,44,-227,-90,121,25,13
990,45,-230,-95,124,33,12
995,41,-230,-96,124,42,9
1000,43,-227,-94,124,52,7
1005,39,-233,-95,123,63,4
1010,40,-225,-93,122,74,2
1015,36,-228,-92,118,85,-1
1020,34,-226,-90,114,96,-5
1025,34,-226,-91,109,106,-7
1030,32,-227,-87,102,112,-10
1035,30,-229,-90,96,119,-10
1040,28,-227,-86,90,120,-12
1045,30,-228,-93,82,121,-12
1050,29,-226,-88,73,119,-11
1055,21,-227,-93,65,117,-11
1060,24,-229,-88,59,116,-10
1065,27,-229,-84,52,113,-9
1070,29,-232,-87,47,110,-7
1075,26,-230,-89,46,107,-5
1080,26,-234,-87,48,105,-3
1085,28,-231,-92,53,101,-2
1090,28,-234,-90,60,98,0
1095,28,-232,-91,71,96,2
1100,26,-235,-88,79,93,2
1105,29,-231,-90,89,90,1
1110,22,-237,-97,101,88,1
1115,28,-233,-92,112,84,-1
1120,25,-234,-90,122,78,-1
1125,24,-235,-92,131,76,-2
1130,26,-232,-86,136,72,-4
1135,23,-231,-89,144,70,-8
1140,20,-235,-89,151,69,-14
1145,23,-232,-87,156,69,-17
1150,20,-232,-91,160,67,-21
1155,20,-231,-85,160,65,-26
1160,18,-231,-84,157,63,-32
1165,17,-230,-84,150,59,-33
1170,18,-229,-82,140,55,-36
1175,13,-228,-83,129,49,-42
1180,12,-226,-82,113,41,-44
1185,15,-228,-82,94,29,-47
1190,19,-229,-79,75,15,-51
1195,14,-227,-82,54,0,-54
1200,14,-230,-79,35,-17,-60
1205,19,-232,-80,18,-36,-66
1210,15,-231,-81,8,-58,-74
1215,15,-232,-86,2,-79,-79
1220,10,-229,-83,0,-99,-84
1225,11,-230,-86,0,-115,-88
1230,15,-234,-86,4,-131,-91
1235,12,-236,-85,10,-147,-95
1240,9,-235,-89,21,-165,-98
1245,11,-236,-92,32,-183,-101
1250,16,-236,-88,42,-200,-106
1255,17,-232,-91,49,-214,-106
1260,18,-235,-92,51,-223,-106
1265,20,-232,-94,50,-231,-106
1270,24,-231,-97,47,-237,-103
1275,29,-231,-100,43,-242,-100
1280,30,-234,-92,43,-246,-98
1285,30,-233,-93,45,-252,-94
1290,33,-231,-95,52,-256,-93
1295,32,-234,-93,60,-261,-91
1300,35,-230,-95,70,-267,-90
1305,31,-231,-97,80,-274,-88
1310,33,-226,-90,89,-282,-87
1315,31,-229,-91,94,-290,-86
1320,27,-229,-94,96,-299,-82
1325,29,-226,-90,93,-310,-83
1330,28,-229,-95,91,-320,-81
1335,22,-227,-91,86,-329,-82
1340,22,-228,-90,79,-339,-82
1345,23,-231,-90,69,-345,-84
1350,26,-229,-89,59,-349,-87
1355,25,-232,-87,49,-350,-88
1360,26,-234,-91,41,-350,-92
1365,27,-233,-90,37,-348,-96
1370,31,-237,-88,37,-347,-98
1375,29,-232,-91,40,-344,-100
1380,34,-236,-88,46,-340,-100
1385,34,-234,-89,55,-332,-103
1390,40,-238,-89,68,-325,-104
1395,42,-237,-85,85,-317,-107
1400,44,-238,-88,101,-306,-106
1405,45,-238,-92,118,-295,-104
1410,48,-235,-88,136,-284,-101
1415,49,-234,-84,154,-269,-94
1420,55,-231,-94,168,-251,-85
1425,52,-234,-85,176,-231,-76
1430,55,-229,-86,178,-213,-67
1435,56,-227,-82,177,-192,-55
1440,53,-232,-82,171,-173,-42
1445,58,-229,-83,164,-153,-30
1450,58,-226,-84,155,-130,-18
1455,59,-224,-84,143,-109,-4
1460,57,-224,-85,125,-85,10
1465,56,-222,-83,102,-59,22
1470,56,-222,-84,77,-30,37
1475,52,-222,-86,52,-4,53
1480,58,-228,-84,34,21,68
1485,55,-227,-79,17,47,83
1490,55,-225,-82,-6,79,105
1495,52,-228,-77,-38,110,122
1500,47,-228,-74,-64,134,139
1505,46,-234,-78,-87,157,161
1510,47,-235,-79,-105,175,186
1515,41,-236,-79,-119,189,213
1520,37,-236,-84,-135,203,240
1525,39,-240,-79,-154,215,270
1530,41,-238,-81,-170,226,306
1535,37,-242,-82,-175,235,332
1540,35,-241,-86,-170,249,355
1545,27,-242,-85,-169,269,384
1550,30,-241,-89,-175,288,412
1555,22,-249,-86,-178,295,438
1560,18,-250,-84,-174,301,463
1565,15,-253,-86,-171,307,494
1570,14,-256,-88,-164,314,522
1575,10,-257,-88,-164,328,565
1580,13,-256,-87,-165,344,621
1585,14,-256,-86,-153,352,665
1590,15,-256,-89,-126,356,688
1595,10,-256,-91,-95,361,706
1600,6,-255,-94,-69,361,731
1605,5,-254,-87,-47,356,761
1610,6,-250,-93,-17,358,765
1615,0,-246,-86,22,358,755
1620,1,-244,-84,56,352,752
1625,-4,-242,-89,77,340,753
1630,-4,-244,-87,93,322,758
1635,2,-234,-83,114,293,762
1640,-3,-237,-87,150,267,744
1645,-12,-229,-88,175,251,716
1650,-18,-227,-90,181,237,700
1655,-6,-228,-86,175,211,687
1660,0,-226,-89,179,191,669
1665,2,-228,-87,187,182,638
1670,2,-224,-77,185,193,618
1675,-5,-228,-87,195,201,615
1680,-14,-228,-82,186,191,625
1685,-5,-230,-80,172,176,632
1690,2,-231,-77,180,164,593
1695,0,-234,-81,199,151,555
1700,4,-232,-81,211,142,538
1705,5,-227,-75,217,139,534
1710,7,-229,-80,240,134,537
1715,6,-229,-76,267,146,522
1720,20,-221,-70,289,163,496
1725,6,-221,-78,329,159,453
1730,-6,-225,-80,355,153,432
1735,-1,-225,-80,355,142,443
1740,-1,-229,-79,351,135,438
1745,5,-230,-81,365,125,429
1750,0,-225,-85,388,124,417
1755,5,-223,-83,404,128,394
1760,-2,-219,-77,416,129,364
1765,-15,-230,-94,416,127,342
1770,-15,-238,-89,357,135,349
1775,-5,-236,-79,304,133,375
1780,-1,-236,-79,292,121,375
1785,0,-230,-79,287,98,361
1790,0,-231,-84,279,75,336
1795,-1,-230,-81,234,54,310
1800,-3,-231,-77,178,34,289
1805,-2,-230,-82,134,7,272
1810,-6,-228,-82,98,-25,261
1815,-12,-233,-82,69,-56,249
1820,-8,-233,-88,51,-77,237
1825,-10,-227,-85,47,-87,225
1830,-6,-225,-88,52,-81,213
1835,-3,-223,-88,67,-68,204
1840,0,-219,-88,86,-52,192
1845,1,-222,-88,102,-37,181
1850,1,-218,-84,104,-23,175
1855,0,-218,-88,101,-13,174
1860,1,-220,-80,96,-10,170
1865,1,-221,-83,97,-15,172
1870,2,-215,-81,105,-26,167
1875,1,-221,-74,113,-39,165
1880,1,-219,-81,116,-54,164
1885,-2,-219,-88,109,-67,166
1890,-2,-225,-87,94,-75,168
1895,-4,-224,-82,83,-79,173
1900,-3,-225,-88,71,-78,174
1905,-5,-227,-86,63,-76,176
1910,-3,-228,-89,58,-72,178
1915,-2,-228,-91,58,-69,173
1920,-1,-228,-89,61,-63,165
1925,-3,-225,-86,69,-61,159
1930,-9,-223,-86,77,-60,154
1935,-4,-222,-84,81,-61,150
1940,-7,-223,-86,79,-65,149
1945,-4,-224,-90,71,-66,146
1950,-2,-221,-87,58,-66,146
1955,-7,-222,-88,44,-66,145
1960,-4,-224,-87,28,-65,146
1965,-6,-225,-80,12,-64,144
1970,-8,-224,-92,-6,-64,143
1975,-6,-223,-91,-28,-62,141
1980,-10,-224,-100,-67,-62,136
1985,-13,-219,-101,-117,-65,133
1990,-20,-214,-101,-170,-74,130
1995,-24,-211,-104,-213,-84,132
2000,-30,-214,-104,-247,-98,134
2005,-41,-209,-109,-272,-107,139
2010,-46,-204,-107,-290,-112,140
2015,-52,-203,-104,-299,-113,139
2020,-55,-203,-101,-297,-110,135
2025,-59,-195,-96,-287,-102,130
2030,-62,-192,-97,-273,-96,120
2035,-62,-189,-97,-265,-89,110
2040,-62,-188,-100,-270,-85,95
2045,-62,-182,-101,-285,-85,85
2050,-60,-179,-101,-312,-89,74
2055,-60,-172,-105,-353,-96,63
2060,-61,-173,-107,-407,-105,58
2065,-55,-168,-112,-472,-108,55
2070,-54,-163,-105,-534,-101,56
2075,-56,-166,-102,-585,-83,57
2080,-47,-169,-96,-620,-50,63
2085,-52,-168,-101,-639,-7,69
2090,-40,-169,-103,-650,41,78
2095,-41,-167,-100,-661,90,88
2100,-36,-162,-99,-675,135,102
2105,-31,-156,-100,-706,175,122
2110,-24,-150,-102,-744,206,136
2115,-16,-148,-95,-777,231,151
2120,-13,-139,-91,-792,243,161
2125,-1,-136,-86,-793,244,170
2130,0,-128,-81,-784,239,172
2135,0,-121,-73,-763,231,170
2140,0,-114,-75,-735,221,170
2145,3,-108,-67,-699,211,171
2150,-11,-102,-65,-665,200,169
2155,-10,-104,-61,-639,187,166
2160,-11,-106,-63,-615,174,156
2165,-16,-116,-62,-598,161,146
2170,-20,-125,-57,-590,151,136
2175,-23,-138,-55,-589,149,121
2180,-28,-157,-53,-588,151,102
2185,-31,-172,-49,-581,161,80
2190,-31,-190,-54,-567,174,56
2195,-35,-204,-65,-559,193,22
2200,-40,-221,-85,-565,219,-16
2205,-35,-230,-90,-580,254,-49
2210,-36,-233,-103,-603,299,-78
2215,-39,-244,-116,-633,349,-100
2220,-35,-251,-126,-672,392,-124
2225,-33,-256,-131,-707,423,-152
2230,-33,-260,-133,-725,446,-185
2235,-28,-270,-134,-714,459,-212
2240,-26,-265,-136,-679,469,-235
2245,-22,-268,-141,-622,484,-253
2250,-23,-261,-132,-553,494,-262
2255,-23,-257,-134,-485,499,-267
2260,-22,-250,-128,-413,498,-269
2265,-20,-244,-120,-339,492,-268
2270,-19,-235,-112,-263,485,-265
2275,-15,-231,-109,-200,482,-258
2280,-15,-223,-107,-158,485,-252
2285,-11,-223,-106,-132,496,-246
2290,-9,-220,-106,-122,509,-248
2295,-12,-218,-113,-123,524,-244
2300,-6,-216,-115,-142,538,-236
2305,-5,-215,-123,-181,546,-229
2310,0,-219,-127,-234,548,-225
2315,2,-223,-132,-299,546,-217
2320,-3,-225,-138,-367,540,-207
2325,-2,-232,-144,-438,526,-197
2330,-8,-243,-156,-503,500,-187
2335,-17,-254,-166,-554,467,-181
2340,-30,-261,-169,-572,429,-178
2345,-42,-271,-175,-552,392,-162
2350,-43,-282,-175,-499,359,-155
2355,-47,-289,-176,-415,330,-152
2360,-53,-298,-179,-315,306,-145
2365,-51,-300,-179,-215,292,-138
2370,-46,-311,-177,-125,283,-132
2375,-42,-316,-174,-55,268,-138
2380,-35,-317,-165,15,248,-147
2385,-30,-313,-160,84,219,-154
2390,-25,-306,-155,149,191,-160
2395,-17,-301,-154,206,171,-160
2400,-14,-293,-147,252,163,-157
2405,-17,-285,-147,290,159,-147
2410,-5,-274,-147,320,162,-131
2415,-3,-268,-141,342,163,-115
2420,-2,-257,-133,358,161,-100
2425,-1,-248,-135,367,160,-76
2430,-6,-237,-135,358,159,-56
2435,-12,-226,-132,322,157,-33
2440,-16,-225,-136,261,150,-14
2445,-25,-221,-138,185,139,7
2450,-32,-225,-140,104,120,27
2455,-42,-225,-143,31,98,45
2460,-42,-226,-149,-31,73,59
2465,-45,-231,-157,-76,46,68
2470,-49,-227,-147,-101,14,72
2475,-44,-229,-160,-98,-19,71
2480,-41,-229,-164,-81,-51,65
2485,-34,-226,-160,-50,-81,58
2490,-34,-219,-157,-11,-103,47
2495,-30,-217,-151,30,-120,35
2500,-25,-212,-148,71,-132,23
2505,-23,-203,-144,104,-140,8
2510,-18,-196,-140,127,-145,-5
2515,-16,-191,-132,138,-149,-15
2520,-9,-187,-126,136,-154,-28
2525,-4,-182,-123,128,-156,-40
2530,0,-174,-114,113,-153,-51
2535,1,-169,-111,89,-143,-64
2540,4,-170,-110,60,-125,-75
2545,4,-163,-109,23,-101,-85
2550,2,-169,-105,-13,-75,-92
2555,1,-173,-102,-45,-47,-94
2560,-1,-175,-104,-64,-24,-93
2565,-4,-177,-107,-69,-5,-89
2570,-5,-179,-111,-66,7,-82
2575,-7,-187,-114,-57,7,-76
2580,-10,-185,-121,-45,0,-67
2585,0,-192,-127,-24,-15,-60
2590,-1,-192,-127,4,-27,-56
2595,6,-191,-132,34,-38,-52
2600,10,-191,-131,60,-38,-49
2605,13,-192,-135,76,-23,-46
2610,15,-193,-136,89,2,-44
2615,11,-192,-128,99,30,-39
2620,7,-194,-128,111,59,-34
2625,6,-197,-125,123,80,-28
2630,6,-203,-121,133,91,-25
2635,0,-201,-126,141,95,-20
2640,-1,-205,-125,138,90,-14
2645,-10,-209,-133,128,82,-5
2650,-10,-218,-133,113,72,8
2655,-11,-221,-138,93,66,21
2660,-13,-229,-140,83,63,35
2665,-13,-242,-150,90,60,48
2670,-7,-251,-160,113,60,61
2675,-7,-255,-166,148,66,77
2680,-2,-259,-167,186,78,88
2685,-7,-261,-166,231,95,97
2690,-11,-267,-172,283,102,107
2695,-9,-269,-182,323,98,123
2700,-10,-275,-186,333,92,145
2705,-11,-283,-181,333,95,166
2710,-14,-287,-177,345,110,180
2715,-16,-303,-166,376,113,194
2720,-23,-317,-163,429,101,207
2725,-24,-330,-167,498,85,223
2730,-25,-338,-172,558,91,243
2735,-31,-354,-174,609,117,261
2740,-47,-369,-178,658,150,279
2745,-50,-391,-178,712,171,295
2750,-56,-409,-186,768,165,310
2755,-58,-422,-194,816,126,336
2760,-59,-447,-196,842,78,372
2765,-61,-473,-201,854,27,411
2770,-55,-505,-204,868,-32,453
2775,-61,-538,-213,893,-96,490
2780,-63,-553,-226,905,-157,526
2785,-66,-581,-247,927,-194,595
2790,-87,-597,-270,942,-194,672
2795,-91,-630,-250,918,-166,789
2800,-93,-662,-241,867,-61,913
2805,-94,-687,-242,912,31,915
2810,-110,-699,-243,1050,85,809
2815,-102,-692,-220,1238,109,666
2820,-83,-679,-223,1458,117,537
2825,-81,-652,-211,1662,123,452
2830,-80,-631,-215,1855,108,397
2835,-77,-615,-197,1968,75,374
2840,-78,-597,-191,2050,-1,367
2845,-90,-591,-195,2103,-94,352
2850,-76,-565,-156,2113,-191,341
2855,-95,-542,-167,2100,-296,345
2860,-91,-510,-167,2030,-375,384
2865,-90,-467,-158,1897,-429,443
2870,-78,-412,-151,1710,-471,484
2875,-69,-375,-173,1435,-501,522
2880,-69,-327,-199,1071,-521,546
2885,-33,-244,-155,630,-527,585
2890,1,-168,-115,394,-462,604
2895,13,-139,-148,404,-294,642
2900,18,-84,-106,385,-130,677
2905,38,-27,-98,390,-3,680
2910,57,39,-78,409,75,646
2915,78,102,-70,317,123,604
2920,85,165,-60,134,182,517
2925,86,231,-36,-119,254,406
2930,80,275,-22,-408,328,282
2935,72,289,-26,-688,368,185
2940,68,293,-17,-943,383,111
2945,69,269,-22,-1075,344,62
2950,83,221,-38,-1071,236,31
2955,72,164,-64,-960,88,-2
2960,75,108,-67,-812,-76,34
2965,75,52,-74,-622,-220,91
2970,66,11,-77,-427,-301,117
2975,56,-20,-82,-234,-330,156
2980,64,-30,-87,-38,-329,183
2985,57,-29,-101,138,-295,177
2990,28,-22,-97,241,-237,157
2995,16,-14,-84,257,-172,134
3000,-13,-4,-66,221,-114,98
3005,-59,-2,-41,179,-70,64
3010,-92,-14,-14,152,-48,46
3015,-114,-11,2,148,-57,25
3020,-120,-8,10,168,-99,10
3025,-108,-6,12,195,-167,1
3030,-91,2,17,214,-245,-7
3035,-73,4,16,223,-326,-14
3040,-59,10,18,219,-395,-18
3045,-43,10,17,199,-441,-20
3050,-26,3,21,182,-471,-18
3055,-4,0,21,177,-490,-17
3060,8,0,24,183,-494,-9
3065,18,0,21,184,-472,5
3070,30,-4,22,175,-427,14
3075,33,2,12,152,-372,22
3080,40,1,9,118,-316,38
3085,39,6,1,75,-259,57
3090,42,14,-3,27,-197,82
3095,45,19,-11,-21,-135,109
3100,49,28,-10,-69,-91,135
3105,53,33,-9,-116,-64,159
3110,55,36,-1,-160,-51,186
3115,58,40,-9,-195,-43,209
3120,61,40,-1,-225,-32,229
3125,65,39,2,-240,-11,247
3130,65,41,3,-245,19,257
3135,65,35,7,-247,58,261
3140,67,36,3,-241,95,266
3145,64,33,-5,-222,129,266
3150,68,25,-12,-200,165,272
3155,62,26,-21,-181,203,286
3160,56,23,-27,-175,236,303
3165,55,19,-17,-183,248,319
3170,45,15,-11,-208,239,323
3175,40,16,-17,-243,221,310
3180,45,4,-28,-277,199,290
3185,42,0,-39,-297,188,263
3190,46,-6,-41,-305,193,227
3195,43,-1,-45,-299,209,186
3200,40,-5,-35,-288,229,148
3205,41,-9,-22,-273,235,108
3210,39,-26,-10,-245,223,55
3215,22,-51,-4,-169,185,-23
3220,-14,-68,-38,-28,106,-121
3225,-24,-69,-126,149,0,-202
3230,-29,-65,-186,249,-91,-246
3235,-57,-74,-234,145,-100,-230
3240,-113,-127,-245,-141,-77,-165
3245,-182,-201,-279,-423,-41,-64
3250,-246,-277,-313,-638,39,71
3255,-272,-347,-326,-853,91,213
3260,-295,-457,-298,-1133,57,340
3265,-300,-592,-208,-1435,-50,437
3270,-302,-758,-110,-1688,-201,507
3275,-315,-892,-51,-1832,-395,496
3280,-324,-947,-60,-1797,-625,395
3285,-313,-965,-162,-1630,-798,241
3290,-266,-925,-281,-1492,-809,85
3295,-219,-834,-365,-1362,-645,-110
3300,-181,-794,-417,-1093,-359,-247
3305,-156,-774,-435,-721,12,-297
3310,-165,-771,-381,-288,329,-334
3315,-178,-746,-305,228,411,-379
3320,-147,-697,-256,788,247,-434
3325,-137,-644,-225,1221,11,-508
3330,-127,-570,-194,1445,-179,-529
3335,-121,-522,-164,1552,-321,-476
3340,-108,-480,-153,1580,-440,-394
3345,-97,-442,-135,1518,-516,-320
3350,-90,-419,-122,1407,-604,-258
3355,-83,-389,-105,1285,-688,-201
3360,-78,-361,-90,1128,-736,-140
3365,-77,-336,-76,979,-737,-92
3370,-64,-309,-78,809,-712,-62
3375,-53,-294,-85,615,-669,-50
3380,-35,-276,-90,400,-605,-48
3385,-11,-259,-105,176,-515,-42
3390,0,-247,-111,-32,-395,-30
3395,15,-240,-116,-205,-255,-18
3400,30,-226,-117,-329,-108,-11
3405,34,-215,-114,-392,35,-8
3410,33,-196,-114,-385,162,3
3415,34,-177,-108,-319,264,23
3420,30,-163,-105,-219,340,45
3425,20,-143,-99,-101,388,67
3430,12,-130,-101,23,409,88
3435,9,-119,-102,129,401,111
3440,-3,-108,-99,196,375,132
3445,-13,-106,-95,221,336,150
3450,-20,-107,-85,200,291,160
3455,-30,-109,-79,142,248,158
3460,-39,-113,-70,61,209,149
3465,-38,-119,-64,-22,181,129
3470,-42,-121,-62,-99,165,99
3475,-44,-125,-61,-156,169,63
3480,-40,-130,-63,-189,187,29
3485,-36,-135,-63,-197,214,-6
3490,-32,-132,-65,-180,242,-40
3495,-30,-136,-64,-147,263,-70
3500,-21,-139,-70,-108,278,-98
3505,-16,-139,-73,-73,281,-124
3510,-4,-141,-75,-48,276,-150
3515,-1,-141,-72,-35,269,-172
3520,7,-141,-75,-24,265,-190
3525,7,-144,-76,-12,265,-202
3530,10,-138,-76,-10,269,-205
3535,6,-140,-79,-20,279,-207
3540,4,-139,-77,-33,292,-204
3545,-2,-140,-85,-44,303,-198
3550,-13,-145,-81,-54,309,-188
3555,-24,-148,-85,-67,313,-178
3560,-35,-154,-86,-77,318,-166
3565,-44,-160,-90,-86,327,-153
3570,-55,-169,-92,-87,340,-138
3575,-64,-177,-91,-82,353,-122
3580,-75,-190,-97,-72,364,-110
3585,-80,-196,-98,-57,365,-98
3590,-87,-202,-101,-45,355,-92
3595,-88,-210,-111,-40,328,-89
3600,-87,-221,-112,-42,292,-93
3605,-98,-223,-124,-54,248,-100
3610,-91,-232,-125,-73,204,-114
3615,-92,-242,-125,-92,162,-129
3620,-93,-254,-110,-97,119,-143
3625,-89,-263,-113,-88,78,-161
3630,-89,-269,-114,-70,42,-177
3635,-88,-274,-116,-45,16,-191
3640,-81,-283,-112,-17,3,-203
3645,-77,-288,-115,14,2,-214
3650,-71,-287,-114,47,9,-224
3655,-66,-289,-103,81,21,-232
3660,-67,-284,-105,118,30,-242
3665,-61,-287,-105,160,32,-250
3670,-60,-284,-104,202,28,-254
3675,-54,-280,-96,242,28,-257
3680,-53,-275,-90,277,30,-257
3685,-53,-267,-86,308,34,-254
3690,-51,-262,-92,337,37,-248
3695,-51,-250,-82,358,35,-238
3700,-49,-239,-83,372,29,-227
3705,-51,-236,-86,376,21,-214
3710,-55,-225,-94,367,13,-201
3715,-52,-216,-91,343,5,-186
3720,-51,-209,-93,304,-6,-173
3725,-52,-201,-95,256,-19,-162
3730,-52,-201,-97,204,-36,-148
3735,-54,-199,-97,145,-53,-140
3740,-57,-203,-101,91,-74,-130
3745,-51,-204,-101,45,-93,-123
3750,-54,-209,-102,8,-112,-114
3755,-51,-212,-104,-19,-131,-105
3760,-51,-213,-106,-37,-148,-98
3765,-53,-211,-106,-45,-167,-90
3770,-47,-222,-103,-50,-182,-81
3775,-50,-217,-102,-47,-192,-77
3780,-43,-223,-109,-37,-196,-72
3785,-44,-222,-104,-23,-195,-72
3790,-41,-220,-103,-11,-191,-71
3795,-37,-222,-101,2,-181,-72
3800,-36,-224,-102,13,-171,-74
3805,-38,-220,-101,24,-163,-77
3810,-39,-219,-101,32,-154,-78
3815,-39,-212,-101,40,-142,-77
3820,-39,-215,-100,40,-131,-77
3825,-37,-214,-94,36,-124,-78
3830,-36,-210,-93,32,-122,-78
3835,-35,-212,-93,25,-125,-79
3840,-36,-211,-95,21,-131,-79
3845,-35,-213,-97,13,-136,-81
3850,-33,-215,-98,4,-142,-84
3855,-38,-213,-94,-8,-147,-84
3860,-39,-215,-94,-22,-149,-84
3865,-36,-216,-96,-36,-150,-80
3870,-32,-222,-95,-53,-151,-77
3875,-37,-221,-101,-68,-152,-76
3880,-42,-225,-96,-78,-151,-73
3885,-41,-227,-97,-81,-152,-72
3890,-39,-231,-99,-75,-151,-72
3895,-39,-234,-97,-60,-146,-73
3900,-38,-236,-96,-44,-140,-77
3905,-36,-237,-108,-27,-131,-79
3910,-34,-233,-101,-14,-125,-83
3915,-32,-238,-102,-7,-118,-87
3920,-33,-235,-104,-3,-112,-89
3925,-45,-229,-110,-5,-105,-87
3930,-37,-235,-106,-6,-96,-90
3935,-35,-240,-103,-3,-88,-90
3940,-35,-236,-103,3,-85,-89
3945,-34,-237,-106,11,-83,-89
3950,-34,-236,-106,21,-83,-88
3955,-39,-233,-106,26,-82,-85
3960,-35,-235,-101,30,-80,-76
3965,-40,-231,-98,36,-77,-68
3970,-41,-233,-98,49,-77,-63
3975,-39,-231,-99,62,-79,-57
3980,-44,-233,-95,76,-83,-54
3985,-43,-231,-98,87,-86,-50
3990,-39,-229,-99,93,-91,-46
3995,-40,-225,-98,95,-95,-45
4000,-42,-227,-100,90,-101,-44
4005,-44,-224,-99,80,-105,-40
4010,-42,-223,-96,75,-106,-38
4015,-40,-222,-96,72,-109,-35
4020,-41,-220,-97,70,-112,-33
4025,-38,-223,-97,75,-112,-30
4030,-40,-219,-94,78,-110,-30
4035,-37,-220,-103,82,-109,-30
4040,-37,-221,-94,84,-111,-29
4045,-36,-219,-96,85,-111,-29
4050,-30,-218,-92,86,-110,-29
4055,-30,-220,-93,90,-107,-28
4060,-32,-221,-89,94,-101,-27
4065,-31,-219,-91,100,-95,-24
4070,-31,-217,-89,104,-87,-21
4075,-29,-217,-94,107,-80,-19
4080,-30,-214,-93,108,-75,-16
4085,-35,-213,-92,104,-72,-15
4090,-38,-211,-97,97,-70,-13
4095,-32,-212,-97,87,-66,-10
4100,-34,-212,-97,77,-67,-11
4105,-34,-209,-91,64,-65,-10
4110,-31,-210,-97,50,-65,-8
4115,-34,-213,-95,36,-65,-6
4120,-31,-218,-91,25,-62,-5
4125,-38,-212,-96,19,-59,-5
4130,-33,-220,-97,16,-54,-5
4135,-36,-221,-97,14,-45,-5
4140,-39,-224,-99,14,-37,-5
4145,-36,-227,-103,18,-29,-5
4150,-36,-227,-98,26,-23,-4
4155,-37,-228,-99,36,-18,-5
4160,-35,-228,-105,47,-14,-5
4165,-37,-227,-104,54,-10,-7
4170,-37,-227,-105,59,-5,-8
4175,-38,-228,-103,61,-3,-8
4180,-38,-231,-104,62,-1,-8
4185,-38,-232,-100,63,1,-7
4190,-39,-233,-99,65,1,-6
4195,-38,-232,-98,65,3,-7
4200,-42,-236,-104,66,7,-5
4205,-36,-234,-102,69,11,-5
4210,-37,-233,-99,73,15,-2
4215,-37,-237,-99,77,17,-1
4220,-34,-234,-102,81,20,0
4225,-37,-236,-99,84,21,4
4230,-36,-229,-99,88,23,6
4235,-36,-230,-103,89,26,9
4240,-40,-227,-94,90,28,12
4245,-39,-227,-99,91,32,17
4250,-40,-224,-100,91,33,19
4255,-36,-222,-95,90,34,21
4260,-37,-225,-95,87,36,23
4265,-37,-225,-92,85,37,25
4270,-43,-226,-97,86,38,28
4275,-38,-228,-98,85,41,30
4280,-39,-224,-93,83,44,31
4285,-40,-222,-98,81,45,33
4290,-39,-225,-96,79,45,38
4295,-41,-223,-98,81,44,40
4300,-41,-223,-103,81,43,41
4305,-37,-222,-94,82,43,39
4310,-45,-221,-99,81,42,39
4315,-42,-218,-103,77,42,39
4320,-38,-220,-103,71,43,39
4325,-43,-219,-101,64,43,37
4330,-37,-222,-103,57,43,36
4335,-38,-221,-104,53,45,34
4340,-41,-217,-103,52,45,33
4345,-41,-222,-102,51,48,31
4350,-42,-223,-104,53,49,30
4355,-41,-220,-99,55,52,27
4360,-39,-220,-100,56,54,25
4365,-43,-221,-101,60,53,22
4370,-41,-221,-98,59,53,18
4375,-46,-218,-100,54,52,17
4380,-43,-220,-99,50,47,16
4385,-40,-223,-102,47,46,14
4390,-41,-222,-103,45,43,13
4395,-44,-220,-104,43,44,10
4400,-43,-222,-97,43,44,8
4405,-44,-224,-98,44,44,6
4410,-43,-227,-99,46,46,4
4415,-39,-224,-99,51,45,5
4420,-40,-225,-102,56,44,2
4425,-43,-224,-99,59,44,1
4430,-42,-222,-96,66,45,-1
4435,-39,-223,-98,71,46,-2
4440,-41,-220,-95,75,45,-3
4445,-40,-223,-95,77,45,-4
4450,-42,-222,-94,78,43,-8
4455,-40,-224,-95,78,41,-8
4460,-45,-218,-100,78,40,-7
4465,-40,-222,-94,77,41,-8
4470,-41,-221,-95,74,43,-9
4475,-44,-222,-95,68,44,-9
4480,-43,-223,-98,64,43,-9
4485,-43,-222,-96,59,40,-11
4490,-44,-225,-98,56,38,-10
4495,-43,-225,-95,56,33,-10
4500,-46,-224,-97,58,29,-11
4505,-43,-226,-96,62,25,-12
4510,-45,-223,-99,68,23,-11
4515,-46,-225,-94,71,20,-10
4520,-45,-227,-96,72,18,-9
4525,-45,-224,-97,73,15,-11
4530,-44,-222,-97,72,11,-12
4535,-48,-225,-93,69,7,-11
4540,-46,-220,-98,69,1,-14
4545,-45,-222,-99,70,-3,-16
4550,-46,-223,-98,71,-5,-18
4555,-47,-220,-98,68,-7,-20
4560,-46,-221,-94,62,-8,-22
4565,-48,-222,-94,57,-9,-25
4570,-43,-225,-98,51,-11,-28
4575,-42,-224,-100,46,-9,-30
4580,-39,-230,-96,44,-10,-34
4585,-44,-227,-97,41,-12,-35
4590,-41,-231,-93,46,-12,-37
4595,-43,-231,-91,51,-12,-38
4600,-44,-229,-98,58,-10,-38
4605,-42,-228,-97,63,-10,-40
4610,-44,-228,-97,65,-9,-42
4615,-42,-227,-100,66,-7,-41
4620,-42,-224,-102,69,-5,-38
4625,-40,-227,-97,71,-4,-37
4630,-40,-223,-99,71,-3,-36
4635,-42,-223,-92,74,-3,-33
4640,-37,-224,-95,75,-2,-32
4645,-38,-224,-92,76,-4,-32
4650,-37,-220,-97,74,-3,-31
4655,-37,-225,-92,70,-4,-31
4660,-42,-219,-96,63,-5,-28
4665,-41,-222,-91,58,-5,-26
4670,-40,-223,-94,51,-5,-26
4675,-43,-223,-95,46,-7,-24
4680,-41,-224,-90,41,-9,-23
4685,-42,-220,-98,39,-10,-19
4690,-40,-227,-103,41,-11,-18
4695,-39,-225,-95,42,-10,-15
4700,-42,-224,-99,40,-9,-13
4705,-40,-223,-102,38,-6,-11
4710,-42,-225,-100,35,-4,-12
4715,-44,-228,-102,31,-2,-11
4720,-40,-228,-97,30,-3,-11
4725,-43,-227,-98,32,-5,-12
4730,-44,-227,-92,35,-6,-12
4735,-41,-225,-101,39,-6,-11
4740,-42,-224,-98,43,-6,-15
4745,-47,-224,-93,49,-7,-16
4750,-40,-225,-96,54,-8,-18
4755,-41,-222,-95,57,-10,-18
4760,-44,-216,-97,58,-13,-21
4765,-44,-220,-92,57,-13,-19
4770,-44,-216,-98,53,-15,-20
4775,-43,-218,-95,47,-17,-20
4780,-42,-219,-93,41,-18,-21
4785,-42,-223,-98,36,-21,-20
4790,-44,-220,-97,29,-23,-21
4795,-42,-221,-94,27,-25,-22
4800,-41,-223,-99,26,-24,-23
4805,-40,-222,-98,29,-25,-21
4810,-43,-221,-100,34,-23,-21
4815,-42,-218,-98,39,-22,-22
4820,-41,-221,-101,45,-16,-22
4825,-45,-219,-98,48,-12,-21
4830,-39,-220,-93,51,-8,-16
4835,-40,-216,-97,51,-5,-15
4840,-41,-214,-97,48,-1,-13
4845,-41,-216,-96,43,3,-13
4850,-39,-219,-101,34,7,-8
4855,-42,-200,-94,24,13,-2
4860,-40,-209,-98,9,20,5
4865,-45,-204,-100,-7,27,11
4870,-39,-203,-98,-27,34,15
4875,-43,-201,-103,-50,39,20
4880,-43,-198,-100,-70,45,28
4885,-42,-198,-103,-91,51,34
4890,-39,-191,-110,-107,62,40
4895,-39,-187,-102,-125,74,41
4900,-38,-182,-108,-143,89,45
4905,-40,-183,-110,-159,106,53
4910,-34,-174,-102,-172,124,58
4915,-29,-167,-103,-181,144,63
4920,-32,-158,-103,-188,160,68
4925,-27,-154,-102,-193,176,76
4930,-26,-150,-103,-200,189,80
4935,-22,-143,-99,-207,201,86
4940,-24,-134,-93,-213,211,94
4945,-21,-130,-93,-214,221,102
4950,-19,-127,-89,-214,225,107
4955,-22,-120,-82,-217,229,114
4960,-25,-117,-81,-225,231,122
4965,-18,-111,-78,-241,231,125
4970,-17,-104,-88,-264,231,129
4975,-12,-100,-88,-300,233,131
4980,-12,-99,-99,-349,239,130
4985,-9,-97,-100,-409,254,129
4990,-10,-99,-100,-467,280,126
4995,-4,-106,-107,-518,307,121
5000,-9,-110,-107,-568,335,117
5005,-5,-125,-108,-610,361,108
5010,-11,-129,-110,-638,384,100
5015,-14,-137,-107,-650,406,93
5020,-16,-149,-106,-648,426,83
5025,-24,-157,-106,-634,442,76
5030,-28,-165,-102,-606,447,70
5035,-29,-176,-99,-571,439,65
5040,-34,-180,-102,-536,425,57
5045,-36,-184,-101,-504,411,47
5050,-31,-190,-101,-474,402,35
5055,-34,-192,-108,-451,397,21
5060,-35,-193,-107,-439,398,9
5065,-33,-193,-111,-439,405,-7
5070,-29,-198,-113,-444,413,-25
5075,-32,-197,-117,-459,420,-46
5080,-31,-203,-120,-484,430,-66
5085,-31,-205,-121,-515,453,-89
5090,-31,-210,-121,-547,484,-111
5095,-28,-220,-117,-571,522,-136
5100,-29,-230,-115,-572,556,-160
5105,-32,-240,-117,-533,591,-176
5110,-35,-242,-127,-481,630,-189
5115,-36,-254,-133,-431,674,-197
5120,-36,-258,-140,-391,716,-199
5125,-42,-264,-147,-360,751,-195
5130,-40,-267,-148,-330,777,-178
5135,-43,-265,-150,-304,795,-152
5140,-36,-266,-154,-288,796,-128
5145,-32,-268,-157,-279,775,-107
5150,-29,-267,-163,-264,739,-94
5155,-22,-263,-163,-242,701,-75
5160,-22,-259,-176,-221,658,-64
5165,-21,-256,-170,-215,617,-51
5170,-25,-258,-169,-209,580,-42
5175,-28,-257,-157,-208,551,-41
5180,-34,-260,-153,-195,531,-37
5185,-40,-262,-158,-191,522,-34
5190,-41,-262,-155,-193,519,-39
5195,-53,-271,-155,-188,521,-48
5200,-49,-274,-146,-203,527,-40
5205,-46,-273,-144,-188,528,-33
5210,-45,-274,-138,-143,516,-54
5215,-43,-275,-137,-90,498,-73
5220,-33,-275,-142,-43,477,-82
5225,-25,-272,-147,-10,451,-96
5230,-28,-267,-157,-2,421,-105
5235,-26,-273,-161,-18,393,-107
5240,-26,-271,-155,-59,372,-103
5245,-25,-275,-155,-89,362,-85
5250,-32,-284,-160,-96,359,-53
5255,-34,-296,-162,-100,366,-28
5260,-40,-302,-159,-112,368,-7
5265,-40,-309,-164,-109,357,31
5270,-48,-322,-159,-89,340,77
5275,-48,-327,-166,-58,329,130
5280,-48,-340,-162,-23,323,172
5285,-50,-344,-165,12,323,199
5290,-53,-347,-170,50,326,211
5295,-56,-352,-173,97,328,217
5300,-60,-348,-181,153,319,219
5305,-63,-349,-192,196,295,220
5310,-68,-360,-196,223,262,222
5315,-75,-372,-200,252,225,226
5320,-74,-385,-193,290,186,224
5325,-74,-401,-193,335,142,218
5330,-74,-422,-190,399,85,216
5335,-67,-444,-190,471,17,217
5340,-64,-469,-188,549,-46,229
5345,-64,-483,-186,651,-101,243
5350,-67,-508,-185,781,-154,259
5355,-77,-527,-192,928,-216,279
5360,-91,-546,-213,1061,-274,308
5365,-107,-561,-236,1144,-316,352
5370,-118,-572,-241,1177,-333,411
5375,-133,-589,-242,1184,-329,473
5380,-138,-617,-246,1188,-317,531
5385,-146,-640,-243,1195,-304,554
5390,-145,-659,-243,1229,-300,542
5395,-138,-676,-239,1284,-296,510
5400,-127,-688,-228,1372,-282,457
5405,-125,-694,-220,1493,-263,389
5410,-107,-690,-203,1636,-243,322
5415,-106,-671,-196,1800,-229,257
5420,-94,-657,-190,1971,-227,208
5425,-87,-631,-192,2139,-229,181
5430,-75,-591,-179,2279,-230,183
5435,-74,-548,-173,2402,-238,209
5440,-64,-515,-158,2466,-242,273
5445,-59,-479,-153,2468,-261,344
5450,-65,-417,-136,2370,-281,430
5455,-69,-354,-137,2206,-291,511
5460,-64,-285,-147,1969,-290,583
5465,-76,-221,-148,1676,-269,642
5470,-97,-150,-168,1373,-228,714
5475,-95,-99,-166,989,-167,794
5480,-90,-50,-158,484,-122,820
5485,-80,3,-123,-87,-100,786
5490,-89,35,-91,-612,-91,742
5495,-52,79,-51,-1057,-92,782
5500,0,117,-73,-1306,-126,772
5505,73,138,-67,-1433,-89,680
5510,170,172,-9,-1478,86,530
5515,194,255,51,-1302,299,227
5520,196,317,11,-629,329,-85
5525,247,344,-48,226,286,-314
5530,303,383,-101,957,229,-565
5535,282,367,-140,1345,152,-842
5540,202,250,-129,1023,1,-918
5545,128,121,-91,358,-321,-773
5550,66,10,-88,-287,-737,-566
5555,14,-66,-90,-716,-1063,-423
5560,-9,-111,-96,-847,-1153,-313
5565,-35,-136,-77,-681,-984,-234
5570,-63,-139,-57,-267,-663,-178
5575,-109,-110,-40,283,-307,-137
5580,-148,-67,-27,818,-11,-106
5585,-163,-32,-24,1189,167,-77
5590,-153,14,-22,1317,215,-45
5595,-135,58,-26,1211,165,-6
5600,-99,78,-14,934,58,18
5605,-54,87,6,568,-70,11
5610,-17,77,15,207,-205,-18
5615,25,68,30,-78,-335,-53
5620,53,61,43,-246,-434,-86
5625,73,52,34,-290,-495,-107
5630,83,46,19,-254,-508,-109
5635,94,45,-4,-189,-468,-106
5640,94,48,-25,-136,-387,-101
5645,88,44,-31,-129,-298,-96
5650,69,44,-44,-178,-228,-82
5655,56,45,-50,-264,-179,-59
5660,36,48,-53,-365,-146,-30
5665,30,37,-44,-453,-130,-4
5670,20,29,-41,-503,-129,16
5675,19,18,-41,-502,-128,31
5680,21,15,-37,-454,-116,39
5685,22,3,-37,-367,-87,45
5690,22,1,-28,-265,-40,39
5695,21,2,-25,-173,14,23
5700,20,5,-20,-103,68,3
5705,20,12,-18,-60,115,-14
5710,27,15,-19,-47,147,-23
5715,33,15,-16,-74,158,-27
5720,36,29,-21,-129,155,-17
5725,42,29,-17,-199,140,9
5730,46,29,-13,-270,120,46
5735,54,26,-15,-329,100,94
5740,60,23,-16,-372,80,142
5745,64,17,-19,-395,67,179
5750,63,10,-25,-395,60,192
5755,59,1,-29,-379,61,195
5760,53,-1,-36,-354,68,200
5765,58,-2,-33,-322,78,193
5770,48,-13,-34,-290,98,180
5775,48,-16,-33,-260,135,165
5780,44,-19,-33,-234,178,153
5785,33,-23,-30,-201,204,131
5790,20,-28,-16,-162,196,95
5795,2,-36,-7,-100,158,54
5800,-10,-43,-22,-5,108,11
5805,5,-55,-89,115,42,-39
5810,38,-64,-152,213,-15,-119
5815,42,-61,-189,243,-27,-230
5820,20,-65,-202,191,-58,-325
5825,-20,-93,-229,50,-152,-363
5830,-79,-142,-240,-130,-234,-349
5835,-139,-205,-259,-251,-216,-287
5840,-198,-258,-319,-369,-111,-202
5845,-242,-301,-357,-629,1,-117
5850,-303,-396,-326,-1030,81,-17
5855,-341,-531,-222,-1473,103,100
5860,-356,-690,-117,-1890,41,225
5865,-347,-850,-47,-2222,-123,258
5870,-318,-931,-52,-2404,-349,123
5875,-263,-977,-153,-2353,-558,-177
5880,-175,-927,-309,-2171,-623,-519
5885,-103,-855,-421,-1983,-474,-741
5890,-60,-823,-471,-1771,-160,-747
5895,-40,-828,-443,-1420,199,-670
5900,-35,-850,-377,-865,484,-714
5905,-57,-846,-293,-166,555,-853
5910,-74,-789,-245,600,380,-995
5915,-77,-733,-202,1326,82,-1046
5920,-67,-659,-186,1860,-215,-951
5925,-49,-586,-176,2129,-438,-765
5930,-49,-520,-168,2189,-558,-553
5935,-47,-462,-154,2110,-583,-341
5940,-47,-427,-142,1970,-577,-164
5945,-45,-387,-123,1811,-587,-35
5950,-41,-355,-114,1645,-600,52
5955,-31,-325,-109,1430,-596,110
5960,-28,-300,-108,1213,-565,139
5965,-26,-285,-111,943,-514,134
5970,-35,-268,-110,629,-451,87
5975,-41,-255,-121,292,-385,17
5980,-53,-247,-127,-39,-311,-53
5985,-63,-243,-141,-335,-233,-113
5990,-65,-245,-140,-572,-160,-155
5995,-69,-240,-137,-732,-105,-179
6000,-64,-239,-141,-801,-74,-184
6005,-59,-236,-136,-794,-67,-187
6010,-52,-228,-132,-729,-75,-190
6015,-48,-214,-123,-620,-91,-195
6020,-37,-204,-123,-478,-112,-196
6025,-31,-193,-124,-325,-136,-194
6030,-17,-183,-127,-182,-159,-189
6035,-15,-175,-131,-60,-174,-185
6040,-6,-162,-126,27,-181,-178
6045,1,-155,-122,76,-180,-168
6050,2,-146,-116,89,-170,-163
6055,7,-142,-104,82,-159,-158
6060,12,-140,-95,61,-149,-157
6065,12,-139,-91,37,-143,-153
6070,15,-133,-86,11,-135,-152
6075,14,-135,-83,-13,-121,-149
6080,14,-131,-80,-38,-104,-147
6085,18,-135,-79,-66,-81,-144
6090,14,-130,-73,-99,-61,-143
6095,14,-127,-81,-132,-40,-143
6100,11,-125,-86,-162,-20,-140
6105,9,-125,-80,-189,2,-136
6110,8,-125,-81,-210,21,-132
6115,3,-126,-81,-226,34,-129
6120,1,-128,-78,-235,42,-129
6125,-7,-127,-74,-240,41,-132
6130,-10,-124,-70,-237,37,-137
6135,-13,-128,-71,-227,33,-136
6140,-19,-129,-70,-210,36,-136
6145,-20,-129,-70,-189,45,-134
6150,-17,-135,-74,-167,58,-136
6155,-19,-139,-73,-152,73,-140
6160,-19,-145,-82,-148,88,-145
6165,-19,-144,-86,-156,97,-150
6170,-23,-150,-89,-176,102,-151
6175,-25,-156,-95,-205,104,-149
6180,-26,-160,-97,-236,104,-148
6185,-27,-172,-97,-259,105,-147
6190,-35,-178,-105,-275,102,-142
6195,-34,-183,-103,-285,95,-139
6200,-38,-192,-112,-287,85,-135
6205,-39,-197,-113,-286,76,-131
6210,-42,-204,-119,-284,69,-126
6215,-40,-212,-125,-280,64,-125
6220,-45,-216,-129,-283,62,-121
6225,-45,-221,-131,-286,55,-122
6230,-46,-227,-133,-287,46,-128
6235,-50,-234,-130,-284,33,-138
6240,-53,-239,-134,-277,15,-145
6245,-61,-244,-131,-268,-3,-155
6250,-60,-247,-128,-254,-22,-167
6255,-58,-254,-138,-233,-43,-184
6260,-68,-254,-135,-216,-64,-195
6265,-68,-255,-135,-198,-88,-201
6270,-72,-255,-135,-179,-115,-206
6275,-68,-258,-130,-159,-142,-210
6280,-63,-257,-130,-135,-168,-208
6285,-64,-257,-129,-104,-193,-211
6290,-61,-255,-130,-66,-215,-211
6295,-60,-254,-128,-28,-230,-207
6300,-57,-253,-126,5,-244,-203
6305,-49,-246,-132,28,-253,-204
6310,-48,-245,-130,40,-260,-205
6315,-37,-237,-128,47,-265,-205
6320,-31,-238,-125,51,-266,-203
6325,-25,-233,-125,54,-263,-201
6330,-26,-228,-122,57,-254,-202
6335,-22,-225,-122,60,-244,-199
6340,-23,-220,-123,59,-230,-195
6345,-23,-221,-119,53,-212,-190
6350,-20,-217,-121,42,-194,-179
6355,-27,-212,-118,26,-177,-167
6360,-27,-213,-111,7,-163,-158
6365,-24,-213,-115,-9,-152,-151
6370,-32,-210,-113,-23,-141,-147
6375,-29,-211,-115,-37,-133,-139
6380,-32,-210,-111,-50,-124,-133
6385,-31,-209,-112,-62,-117,-130
6390,-34,-208,-111,-76,-110,-124
6395,-32,-209,-112,-81,-107,-122
6400,-37,-206,-112,-83,-103,-117
6405,-30,-211,-109,-81,-100,-114
6410,-30,-210,-108,-76,-100,-114
6415,-34,-207,-113,-71,-100,-114
6420,-30,-205,-106,-64,-103,-113
6425,-34,-204,-109,-59,-107,-114
6430,-31,-206,-111,-51,-111,-113
6435,-29,-204,-111,-45,-115,-114
6440,-30,-202,-114,-37,-116,-114
6445,-30,-205,-115,-34,-111,-116
6450,-29,-201,-113,-31,-102,-117
6455,-30,-200,-112,-34,-89,-119
6460,-32,-204,-113,-37,-77,-121
6465,-30,-201,-118,-39,-66,-119
6470,-29,-203,-106,-41,-58,-119
6475,-28,-204,-112,-41,-51,-118
6480,-25,-208,-111,-35,-46,-120
6485,-29,-207,-113,-28,-41,-122
6490,-25,-206,-111,-19,-38,-120
6495,-24,-207,-113,-11,-33,-123
6500,-24,-206,-117,-6,-26,-123
6505,-20,-210,-121,-5,-18,-121
6510,-21,-211,-120,-4,-9,-119
6515,-21,-209,-116,-6,1,-118
6520,-19,-213,-119,-7,9,-120
6525,-21,-212,-114,-7,16,-118
6530,-22,-209,-116,-2,19,-119
6535,-20,-214,-120,6,18,-119
6540,-22,-212,-119,16,16,-119
6545,-24,-213,-114,29,12,-119
6550,-22,-212,-120,44,8,-120
6555,-21,-215,-115,53,6,-120
6560,-22,-214,-121,61,4,-124
6565,-21,-214,-123,64,3,-125
6570,-24,-214,-125,65,0,-128
6575,-22,-215,-123,62,-1,-130
6580,-21,-209,-127,57,-4,-134
6585,-24,-216,-121,54,-10,-135
6590,-25,-217,-124,50,-15,-136
6595,-27,-219,-126,48,-20,-139
6600,-27,-223,-121,47,-23,-136
6605,-26,-222,-124,46,-25,-136
6610,-26,-226,-127,48,-26,-133
6615,-31,-225,-126,52,-29,-131
6620,-26,-224,-125,58,-31,-127
6625,-25,-229,-127,68,-33,-124
6630,-26,-223,-126,79,-39,-120
6635,-23,-226,-117,90,-46,-116
6640,-23,-225,-126,100,-54,-114
6645,-22,-226,-127,109,-64,-111
6650,-26,-220,-128,116,-74,-112
6655,-25,-220,-130,119,-83,-111
6660,-20,-222,-125,122,-89,-110
6665,-19,-222,-128,126,-93,-109
6670,-16,-222,-126,127,-94,-110
6675,-17,-218,-126,131,-92,-110
6680,-20,-219,-127,134,-85,-111
6685,-18,-218,-126,141,-76,-109
6690,-20,-221,-126,151,-64,-108
6695,-16,-221,-122,162,-54,-108
6700,-17,-221,-119,175,-45,-109
6705,-16,-214,-123,186,-40,-109
6710,-19,-214,-123,194,-39,-109
6715,-20,-212,-123,200,-40,-106
6720,-16,-211,-123,202,-43,-107
6725,-19,-210,-122,197,-50,-106
6730,-19,-207,-123,189,-62,-105
6735,-17,-208,-120,179,-77,-102
6740,-20,-208,-125,167,-94,-98
6745,-22,-205,-125,154,-108,-96
6750,-20,-208,-120,142,-120,-94
6755,-21,-209,-121,133,-132,-91
6760,-20,-209,-118,127,-141,-91
6765,-21,-212,-117,124,-146,-87
6770,-19,-215,-119,123,-147,-83
6775,-17,-216,-118,125,-144,-81
6780,-22,-215,-116,129,-138,-79
6785,-15,-218,-120,137,-129,-78
6790,-18,-214,-116,150,-118,-80
6795,-18,-217,-115,163,-105,-83
6800,-15,-217,-114,177,-93,-89
6805,-16,-218,-117,191,-83,-96
6810,-15,-220,-113,204,-71,-100
6815,-16,-217,-118,210,-63,-104
6820,-15,-215,-116,211,-57,-107
6825,-16,-216,-114,208,-51,-109
6830,-16,-214,-119,203,-48,-113
6835,-11,-213,-120,195,-49,-112
6840,-17,-211,-121,184,-50,-109
6845,-18,-211,-121,173,-53,-107
6850,-16,-219,-127,163,-57,-103
6855,-16,-214,-124,153,-59,-99
6860,-17,-210,-123,146,-60,-94
6865,-14,-216,-124,141,-59,-89
6870,-16,-214,-121,143,-55,-84
6875,-17,-218,-119,147,-51,-77
6880,-16,-216,-117,153,-43,-68
6885,-16,-214,-120,159,-35,-60
6890,-15,-212,-117,164,-27,-53
6895,-12,-213,-117,170,-22,-46
6900,-15,-210,-117,171,-20,-39
6905,-13,-212,-119,171,-16,-34
6910,-8,-212,-116,166,-12,-28
6915,-4,-210,-113,157,-10,-25
6920,-5,-210,-119,144,-7,-20
6925,0,-207,-116,130,0,-14
6930,-1,-208,-116,117,8,-8
6935,0,-209,-119,100,18,-2
6940,0,-209,-119,82,30,5
6945,1,-208,-120,64,41,10
6950,1,-206,-121,46,56,18
6955,0,-212,-117,30,71,25
6960,0,-212,-119,19,88,34
6965,0,-213,-121,10,105,44
6970,1,-216,-119,2,119,53
6975,-4,-214,-120,-4,133,60
6980,-5,-218,-117,-9,145,67
6985,-7,-216,-116,-17,158,71
6990,-6,-216,-120,-23,169,73
6995,-8,-218,-121,-25,180,73
7000,-12,-218,-124,-26,190,71
7005,-8,-222,-124,-22,201,71
7010,-7,-220,-127,-17,214,70
7015,-8,-218,-122,-10,226,69
7020,-10,-221,-131,-6,239,68
7025,-8,-223,-123,-3,247,69
7030,-12,-221,-127,-2,249,71
7035,-14,-219,-125,-2,245,71
7040,-11,-220,-121,-3,238,70
7045,-11,-221,-118,-2,223,66
7050,-12,-221,-115,0,206,64
7055,-8,-223,-116,3,189,57
7060,-12,-222,-121,9,173,56
7065,-11,-223,-120,16,160,53
7070,-5,-223,-116,24,156,53
7075,-12,-222,-115,35,158,53
7080,-12,-222,-115,45,163,51
7085,-15,-221,-116,55,170,50
7090,-13,-218,-114,66,175,47
7095,-14,-218,-114,78,180,46
7100,-12,-216,-112,86,181,42
7105,-16,-216,-114,91,178,35
7110,-12,-210,-113,93,172,29
7115,-9,-214,-111,92,163,22
7120,-10,-211,-111,91,151,16
7125,-6,-210,-105,87,138,10
7130,-8,-212,-112,83,123,8
7135,-10,-208,-112,81,110,5
7140,-12,-209,-108,79,96,6
7145,-13,-212,-109,76,84,6
7150,-12,-209,-112,72,73,6
7155,-13,-209,-112,67,62,8
7160,-13,-211,-110,60,53,8
7165,-14,-214,-110,50,47,4
7170,-14,-214,-113,40,42,-1
7175,-18,-213,-116,29,41,-8
7180,-21,-214,-119,20,37,-17
7185,-22,-216,-123,10,33,-27
7190,-23,-218,-120,2,29,-41
7195,-21,-220,-118,-2,27,-55
7200,-26,-223,-122,-7,31,-71
7205,-24,-227,-122,-10,37,-86
7210,-24,-226,-125,-13,45,-99
7215,-26,-229,-127,-13,55,-109
7220,-24,-231,-127,-11,62,-121
7225,-23,-230,-127,-3,66,-131
7230,-22,-231,-127,9,68,-138
7235,-24,-228,-132,23,66,-145
7240,-23,-229,-127,40,60,-153
7245,-19,-230,-130,60,50,-157
7250,-22,-231,-131,82,36,-158
7255,-23,-228,-127,102,20,-157
7260,-20,-227,-128,124,2,-153
7265,-24,-223,-128,143,-18,-146
7270,-21,-224,-124,160,-37,-139
7275,-20,-221,-128,176,-56,-132
7280,-19,-225,-121,191,-72,-125
7285,-20,-220,-118,202,-87,-119
7290,-27,-217,-125,212,-100,-110
7295,-23,-217,-115,220,-113,-107
7300,-21,-221,-118,226,-123,-104
7305,-20,-220,-118,227,-133,-100
7310,-24,-214,-113,226,-144,-97
7315,-23,-214,-113,221,-156,-94
7320,-25,-217,-112,213,-165,-95
7325,-24,-217,-111,201,-176,-95
7330,-24,-214,-108,190,-185,-96
7335,-21,-215,-109,178,-192,-98
7340,-24,-220,-97,168,-198,-102
7345,-22,-217,-107,162,-202,-106
7350,-23,-214,-111,155,-206,-109
7355,-22,-216,-112,148,-207,-112
7360,-20,-216,-106,143,-208,-118
7365,-18,-218,-111,137,-208,-123
7370,-22,-217,-113,131,-207,-127
7375,-15,-219,-111,126,-207,-133
7380,-18,-220,-110,121,-205,-138
7385,-19,-221,-110,117,-205,-144
7390,-14,-222,-108,116,-205,-147
7395,-17,-217,-107,112,-203,-147
7400,-13,-222,-109,109,-202,-147
7405,-14,-223,-115,108,-203,-145
7410,-15,-221,-114,107,-202,-141
7415,-11,-224,-113,105,-201,-138
7420,-14,-225,-116,104,-201,-133
7425,-10,-227,-110,105,-200,-127
7430,-12,-226,-114,107,-200,-120
7435,-11,-226,-114,114,-200,-112
7440,-10,-225,-111,119,-199,-103
7445,-13,-224,-116,125,-199,-96
7450,-13,-227,-116,130,-198,-89
7455,-11,-225,-120,134,-194,-82
7460,-9,-223,-114,139,-189,-76
7465,-11,-223,-120,142,-186,-70
7470,-10,-223,-112,145,-179,-67
7475,-10,-225,-114,147,-170,-64
7480,-7,-221,-110,146,-161,-62
7485,-9,-218,-115,145,-152,-58
7490,-4,-223,-110,141,-144,-56
7495,-8,-221,-115,136,-139,-53
7500,-6,-223,-106,132,-131,-52
7505,-6,-225,-109,127,-125,-51
7510,-7,-224,-107,125,-121,-48
7515,-5,-221,-107,123,-116,-47
7520,-6,-222,-112,121,-114,-45
7525,-6,-223,-107,124,-111,-43
7530,-4,-224,-108,126,-107,-41
7535,-5,-224,-107,131,-101,-38
7540,-5,-222,-110,138,-96,-37
7545,-5,-222,-106,143,-88,-34
7550,-3,-222,-110,147,-81,-33
7555,-3,-224,-106,150,-72,-34
7560,-5,-220,-111,153,-63,-32
7565,-5,-222,-104,155,-54,-31
7570,-4,-221,-107,155,-46,-30
7575,-1,-221,-107,155,-38,-30
7580,-6,-227,-105,157,-29,-28
7585,-4,-222,-105,159,-23,-26
7590,-4,-222,-105,159,-16,-23
7595,-7,-221,-104,157,-8,-22
7600,-5,-221,-107,151,2,-18
7605,-7,-217,-104,143,10,-14
7610,-2,-218,-103,135,17,-13
7615,-12,-221,-105,126,24,-11
7620,-7,-220,-103,118,29,-10
7625,-6,-219,-103,111,34,-8
7630,-5,-222,-104,105,40,-5
7635,-6,-220,-104,101,46,-4
7640,-6,-223,-107,96,52,-1
7645,-9,-222,-107,92,58,-1
7650,-10,-223,-102,89,63,1
7655,-11,-224,-100,87,66,3
7660,-13,-221,-109,84,69,5
7665,-11,-219,-100,83,72,7
7670,-16,-225,-105,84,73,8
7675,-13,-222,-101,82,74,11
7680,-14,-221,-105,82,75,13
7685,-16,-222,-107,81,75,13
7690,-13,-225,-106,76,76,15
7695,-17,-222,-110,74,74,16
7700,-14,-224,-108,70,73,18
7705,-12,-223,-110,63,72,18
7710,-16,-223,-106,58,71,17
7715,-17,-221,-110,53,71,17
7720,-13,-219,-105,50,73,16
7725,-11,-219,-107,46,74,16
7730,-15,-223,-105,49,76,13
7735,-14,-220,-103,51,77,12
7740,-13,-224,-105,51,81,12
7745,-15,-224,-106,52,82,12
7750,-15,-222,-106,52,84,10
7755,-14,-222,-104,49,86,13
7760,-16,-223,-109,44,89,12
7765,-15,-224,-102,38,91,11
7770,-10,-220,-103,33,93,12
7775,-13,-217,-102,28,95,14
7780,-16,-220,-106,24,95,12
7785,-11,-223,-108,20,95,11
7790,-12,-222,-105,16,95,11
7795,-10,-225,-108,14,96,9
7800,-15,-222,-105,13,96,9
7805,-14,-222,-104,16,95,8
7810,-14,-222,-104,20,94,5
7815,-14,-226,-104,25,96,5
7820,-14,-222,-106,29,97,2
7825,-14,-219,-105,32,96,1
7830,-13,-220,-107,32,98,-1
7835,-16,-232,-106,28,96,-5
7840,-14,-226,-107,21,95,-3
7845,-15,-220,-108,15,89,-6
7850,-14,-224,-110,8,83,-8
7855,-13,-224,-109,1,78,-7
7860,-15,-226,-105,-4,75,-7
7865,-17,-225,-109,-6,73,-6
7870,-14,-228,-108,-7,72,-5
7875,-17,-227,-107,-3,69,-1
7880,-12,-230,-101,0,66,1
7885,-12,-232,-105,6,65,4
7890,-17,-228,-103,11,62,5
7895,-15,-227,-102,16,61,7
7900,-18,-223,-107,22,58,7
7905,-14,-227,-106,25,57,8
7910,-16,-225,-102,26,55,8
7915,-17,-223,-108,26,53,8
7920,-15,-222,-105,27,51,9
7925,-17,-222,-107,26,50,6
7930,-14,-225,-104,25,50,7
7935,-17,-222,-108,23,48,5
7940,-13,-228,-101,20,48,3
7945,-15,-225,-105,16,45,3
7950,-16,-220,-106,12,41,1
7955,-17,-219,-106,9,40,0
7960,-15,-224,-104,5,39,-3
7965,-18,-217,-105,2,40,-3
7970,-15,-220,-108,0,39,-4
7975,-13,-224,-104,-4,39,-5
7980,-14,-222,-106,-7,38,-5
7985,-16,-219,-108,-10,36,-7
7990,-17,-220,-107,-13,34,-6
7995,-12,-225,-106,-15,30,-5
8000,-13,-222,-107,-18,27,-8
8005,-17,-223,-109,-16,27,-7
8010,-15,-224,-108,-16,25,-6
8015,-15,-220,-104,-15,22,-8
8020,-15,-222,-109,-12,22,-7
8025,-12,-224,-107,-9,20,-9
8030,-16,-226,-112,-7,18,-7
8035,-14,-224,-110,-5,16,-8
8040,-15,-220,-105,-3,15,-10
8045,-9,-223,-112,-1,13,-8
8050,-15,-223,-108,0,11,-8
8055,-10,-226,-109,0,13,-7
8060,-12,-223,-109,1,12,-9
8065,-10,-225,-109,2,12,-10
8070,-9,-228,-107,4,16,-13
8075,-10,-226,-110,8,20,-14
8080,-10,-225,-105,11,23,-13
8085,-10,-220,-106,16,25,-14
8090,-10,-225,-112,19,25,-16
8095,-9,-226,-107,22,27,-15
8100,-11,-224,-113,24,29,-15
8105,-9,-222,-116,28,28,-15
8110,-11,-222,-109,28,26,-16
8115,-6,-224,-112,29,27,-17
8120,-11,-220,-107,29,29,-17
8125,-11,-220,-105,30,29,-18
8130,-8,-223,-110,31,28,-18
8135,-12,-220,-109,31,26,-18
8140,-9,-224,-111,32,27,-17
8145,-9,-225,-108,34,27,-16
8150,-11,-219,-111,36,30,-16
8155,-9,-224,-110,39,33,-15
8160,-10,-223,-112,41,37,-14
8165,-8,-219,-108,46,40,-13
8170,-8,-222,-112,48,43,-13
8175,-7,-221,-111,51,45,-12
8180,-7,-223,-108,52,48,-13
8185,-8,-222,-111,54,51,-12
8190,-8,-225,-110,56,53,-11
8195,-4,-223,-111,58,53,-11
8200,-8,-220,-111,61,53,-10
8205,-8,-224,-109,64,55,-8
8210,-12,-225,-112,69,55,-8
8215,-8,-224,-113,75,58,-7
8220,-8,-222,-111,79,59,-8
8225,-7,-224,-112,84,60,-7
8230,-8,-223,-111,86,60,-5
8235,-9,-224,-112,89,62,-3
8240,-8,-225,-111,88,62,-4
8245,-9,-222,-104,86,63,-3
8250,-9,-224,-110,86,65,-3
8255,-14,-223,-106,87,64,-3
8260,-9,-223,-106,87,65,-4
8265,-12,-220,-114,88,65,-5
8270,-16,-217,-112,90,64,-5
8275,-10,-222,-108,92,63,-6
8280,-12,-221,-112,95,61,-6
8285,-14,-223,-113,96,60,-7
8290,-11,-221,-112,97,58,-6
8295,-12,-219,-110,95,58,-5
8300,-11,-218,-111,93,56,-4
8305,-9,-219,-112,88,54,-5
8310,-10,-222,-110,83,51,-3
8315,-9,-219,-110,80,47,-2
8320,-13,-221,-109,75,44,-2
8325,-8,-224,-105,72,43,-1
8330,-11,-222,-110,70,42,-1
8335,-14,-221,-108,71,43,-3
8340,-9,-224,-106,71,43,-3
8345,-12,-225,-110,74,44,-4
8350,-11,-224,-108,77,46,-5
8355,-13,-222,-109,78,48,-4
8360,-7,-225,-109,79,50,-1
8365,-11,-223,-111,78,50,-3
8370,-10,-218,-113,76,48,-2
8375,-12,-222,-112,75,48,-4
8380,-9,-222,-109,74,46,-4
8385,-10,-222,-108,74,42,-4
8390,-11,-222,-108,73,40,-5
8395,-15,-224,-110,75,38,-6
8400,-12,-226,-107,79,35,-7
8405,-9,-223,-109,83,33,-8
8410,-14,-225,-112,87,32,-10
8415,-9,-223,-106,91,33,-9
8420,-9,-223,-111,94,33,-10
8425,-12,-220,-112,97,33,-10
8430,-4,-222,-109,100,34,-10
8435,-10,-220,-112,99,34,-12
8440,-11,-222,-107,102,36,-13
8445,-9,-226,-108,104,36,-13
8450,-11,-220,-110,105,35,-15
8455,-12,-223,-108,106,34,-14
8460,-11,-223,-108,107,34,-14
8465,-9,-220,-110,106,32,-16
8470,-13,-220,-108,104,31,-14
8475,-12,-220,-108,101,29,-16
8480,-11,-223,-110,100,28,-17
8485,-13,-225,-111,97,25,-17
8490,-11,-224,-107,94,24,-16
8495,-8,-223,-107,91,21,-15
8500,-12,-225,-107,90,19,-16
8505,-10,-222,-105,88,16,-18
8510,-11,-222,-106,87,14,-19
8515,-14,-222,-110,88,11,-20
8520,-11,-222,-107,87,9,-20
8525,-11,-222,-108,87,6,-21
8530,-9,-221,-107,87,4,-23
8535,-11,-220,-107,87,0,-24
8540,-14,-222,-107,83,-4,-22
8545,-14,-223,-109,81,-7,-22
8550,-14,-219,-105,76,-9,-25
8555,-10,-223,-106,73,-12,-27
8560,-10,-220,-105,70,-15,-29
8565,-11,-218,-104,68,-17,-28
8570,-13,-221,-105,66,-19,-29
8575,-12,-222,-108,65,-19,-27
8580,-7,-221,-108,63,-20,-29
8585,-9,-228,-109,63,-19,-28
8590,-5,-224,-110,62,-19,-27
8595,-5,-225,-110,62,-21,-28
8600,-10,-222,-110,62,-20,-27
8605,-8,-222,-106,61,-20,-26
8610,-9,-220,-107,58,-18,-28
8615,-8,-222,-109,56,-19,-27
8620,-8,-222,-110,49,-18,-30
8625,-8,-224,-105,43,-18,-28
8630,-8,-218,-110,40,-17,-27
8635,-5,-222,-110,34,-17,-27
8640,-10,-220,-105,30,-17,-28
8645,-10,-223,-107,26,-15,-28
8650,-7,-226,-109,24,-13,-30
8655,-6,-222,-110,22,-11,-28
8660,-4,-224,-104,19,-8,-28
8665,-6,-223,-107,16,-6,-26
8670,-8,-223,-106,15,-4,-26
8675,-8,-221,-112,15,-2,-27
8680,-5,-224,-106,15,-2,-27
8685,-6,-225,-103,15,1,-26
8690,-7,-226,-106,18,1,-27
8695,-5,-225,-109,21,2,-26
8700,-8,-226,-107,23,1,-26
8705,-9,-223,-108,25,1,-23
8710,-6,-225,-107,27,2,-23
8715,-7,-223,-107,30,1,-21
8720,-5,-226,-107,33,1,-19
8725,-4,-227,-112,34,0,-17
8730,-8,-221,-106,35,0,-16
8735,-6,-223,-107,36,0,-16
8740,-10,-223,-108,37,1,-14
8745,-6,-224,-109,37,3,-14
8750,-8,-225,-105,37,5,-14
8755,-6,-227,-102,38,7,-15
8760,-8,-227,-107,38,10,-14
8765,-7,-224,-105,40,13,-14
8770,-13,-219,-103,40,16,-14
8775,-10,-223,-108,40,20,-12
8780,-9,-219,-106,40,19,-11
8785,-9,-221,-103,37,20,-10
8790,-7,-221,-109,35,19,-12
8795,-9,-223,-104,33,19,-11
8800,-11,-225,-109,31,20,-11
8805,-11,-219,-108,31,20,-9
8810,-12,-221,-109,30,21,-8
8815,-9,-225,-94,28,20,-7
8820,-9,-221,-104,28,21,-5
8825,-13,-221,-107,27,20,-4
8830,-11,-221,-111,25,18,-5
8835,-11,-223,-112,22,19,-6
8840,-10,-223,-109,21,19,-7
8845,-12,-223,-103,20,17,-7
8850,-11,-226,-109,19,16,-6
8855,-11,-224,-110,20,16,-7
8860,-9,-227,-106,22,16,-8
8865,-8,-225,-108,26,14,-9
8870,-7,-225,-107,30,12,-8
8875,-11,-226,-111,35,13,-8
8880,-7,-226,-109,42,16,-7
8885,-12,-224,-110,47,14,-5
8890,-12,-223,-114,50,17,-6
8895,-9,-219,-111,51,19,-3
8900,-11,-221,-114,50,20,-2
8905,-9,-218,-110,47,21,-2
8910,-10,-222,-109,41,23,-4
8915,-9,-221,-110,36,21,-5
8920,-13,-232,-105,30,21,-6
8925,-7,-225,-109,27,22,-6
8930,-6,-225,-107,24,22,-5
8935,-8,-224,-109,25,23,-6
8940,-8,-225,-109,28,25,-7
8945,-6,-225,-110,31,29,-7
8950,-10,-222,-111,35,32,-5
8955,-7,-223,-104,39,33,-5
8960,-12,-221,-113,43,36,-2
8965,-9,-224,-108,43,35,-1
8970,-10,-227,-106,43,33,-1
8975,-10,-221,-102,43,31,0
8980,-11,-224,-108,42,28,-1
8985,-8,-222,-108,43,26,-1
8990,-9,-222,-107,42,25,-1
8995,-8,-223,-107,44,23,-1
9000,-9,-222,-107,42,22,-1
9005,-8,-223,-110,40,21,1
9010,-12,-223,-105,37,22,1
9015,-9,-220,-108,35,23,0
9020,-10,-222,-109,34,25,0
9025,-9,-220,-110,33,28,1
9030,-10,-224,-114,33,28,2
9035,-8,-223,-111,36,28,1
9040,-10,-223,-111,38,29,1
9045,-10,-221,-112,42,30,4
9050,-8,-218,-107,42,31,3
9055,-8,-221,-108,45,31,5
9060,-10,-217,-110,46,30,3
9065,-12,-222,-109,46,30,1
9070,-10,-221,-109,46,29,1
9075,-8,-223,-108,45,29,4
9080,-8,-223,-110,45,29,4
9085,-6,-222,-114,44,29,5
9090,-12,-221,-108,45,28,5
9095,-9,-224,-110,44,28,5
9100,-9,-223,-110,44,25,5
9105,-13,-221,-109,45,27,5
9110,-6,-220,-112,45,27,5
9115,-7,-225,-108,45,28,3
9120,-7,-222,-110,46,30,4
9125,-8,-221,-112,46,33,4
9130,-9,-221,-107,45,32,2
9135,-8,-229,-114,46,32,4
9140,-11,-225,-118,46,32,2
9145,-12,-219,-109,46,32,3
9150,-9,-220,-108,44,32,2
9155,-10,-221,-110,42,32,2
9160,-12,-215,-109,41,30,3
9165,-8,-223,-107,40,30,3
9170,-12,-222,-110,39,30,2
9175,-10,-223,-106,38,28,2
9180,-8,-223,-112,38,26,0
9185,-11,-223,-109,37,25,0
9190,-12,-223,-109,38,24,0
9195,-15,-223,-116,40,25,1
9200,-9,-223,-110,41,27,-1
9205,-7,-222,-108,42,28,0
9210,-10,-220,-113,43,29,0
9215,-9,-222,-110,46,30,-2
9220,-7,-222,-111,48,30,-3
9225,-7,-223,-107,49,30,-4
9230,-12,-222,-109,51,31,-5
9235,-9,-222,-110,52,32,-3
9240,-8,-221,-112,52,33,-3
9245,-11,-222,-108,49,33,-2
9250,-10,-225,-111,48,33,-2
9255,-9,-221,-110,44,30,-2
9260,-9,-223,-112,41,30,-4
9265,-9,-219,-112,37,28,-3
9270,-8,-223,-105,36,28,-3
9275,-14,-222,-111,37,28,-4
9280,-12,-220,-112,38,28,-4
9285,-8,-222,-113,38,29,-3
9290,-11,-224,-112,40,28,-4
9295,-13,-222,-113,41,28,-3
9300,-10,-225,-111,40,27,-3
9305,-12,-225,-113,41,26,-3
9310,-10,-222,-108,43,25,-6
9315,-12,-221,-107,46,24,-5
9320,-10,-225,-111,48,24,-4
9325,-8,-222,-108,50,25,-2
9330,-8,-221,-115,52,23,-5
9335,-13,-221,-109,53,23,-6
9340,-11,-218,-108,53,23,-6
9345,-10,-223,-108,51,22,-5
9350,-11,-220,-113,49,23,-5
9355,-11,-219,-110,46,24,-5
9360,-15,-219,-113,44,25,-5
9365,-11,-221,-112,45,25,-5
9370,-13,-222,-112,46,24,-5
9375,-9,-221,-113,47,25,-6
9380,-9,-226,-111,46,26,-5
9385,-11,-221,-108,47,26,-3
9390,-10,-225,-113,48,27,-6
9395,-12,-222,-110,49,25,-5
9400,-12,-224,-110,49,23,-6
9405,-10,-221,-111,50,21,-4
9410,-7,-224,-110,52,19,-5
9415,-11,-217,-110,52,18,-5
9420,-9,-219,-111,52,15,-6
9425,-11,-218,-112,51,16,-4
9430,-13,-219,-115,50,16,-3
9435,-10,-218,-107,47,16,-3
9440,-12,-221,-112,43,15,-5
9445,-11,-219,-108,41,15,-4
9450,-9,-221,-113,35,14,-5
9455,-11,-222,-108,33,13,-6
9460,-10,-224,-114,29,10,-8
9465,-12,-223,-110,27,10,-9
9470,-11,-224,-110,27,10,-10
9475,-9,-223,-114,30,9,-9
9480,-10,-222,-112,33,8,-8
9485,-10,-222,-116,34,9,-7
9490,-11,-223,-113,35,9,-7
9495,-10,-222,-114,34,9,-5
9500,-8,-223,-110,33,10,-6
9505,-12,-220,-112,30,10,-7
9510,-12,-220,-111,27,10,-9
9515,-10,-222,-107,25,10,-9
9520,-5,-226,-102,26,10,-8
9525,-8,-224,-113,25,9,-9
9530,-8,-223,-112,29,10,-9
9535,-7,-226,-111,31,11,-10
9540,-9,-224,-109,35,13,-10
9545,-8,-221,-109,39,15,-9
9550,-8,-222,-110,45,16,-7
9555,-12,-223,-114,45,18,-7
9560,-9,-219,-112,48,19,-7
9565,-7,-224,-110,46,18,-8
9570,-11,-222,-113,44,18,-9
9575,-11,-214,-112,42,17,-8
9580,-10,-224,-113,41,17,-7
9585,-9,-219,-113,39,16,-8
9590,-14,-221,-115,37,16,-11
9595,-9,-220,-116,37,15,-11
9600,-7,-221,-114,37,13,-9
9605,-10,-224,-113,38,15,-11
9610,-11,-221,-112,40,14,-13
9615,-14,-222,-117,43,15,-13
9620,-11,-219,-111,44,15,-11
9625,-11,-222,-112,47,16,-11
9630,-11,-218,-116,51,16,-10
9635,-9,-222,-110,54,17,-9
9640,-11,-222,-110,57,16,-10
9645,-10,-221,-112,59,16,-13
9650,-9,-220,-113,63,16,-12
9655,-13,-218,-112,62,14,-10
9660,-9,-220,-110,61,14,-10
9665,-8,-221,-110,62,10,-10
9670,-13,-219,-111,61,10,-10
9675,-10,-220,-109,59,8,-10
9680,-12,-221,-112,56,7,-9
9685,-13,-225,-110,55,6,-11
9690,-11,-221,-107,53,6,-12
9695,-8,-223,-110,52,6,-11
9700,-8,-224,-106,52,8,-12
9705,-10,-221,-110,53,10,-13
9710,-11,-221,-110,53,11,-13
9715,-11,-221,-113,55,12,-14
9720,-8,-222,-113,57,13,-15
9725,-6,-224,-110,60,14,-15
9730,-10,-217,-112,62,14,-16
9735,-9,-222,-109,64,12,-14
9740,-10,-220,-107,65,10,-15
9745,-10,-222,-110,64,8,-14
9750,-11,-221,-111,64,7,-15
9755,-10,-221,-113,64,5,-15
9760,-10,-222,-110,63,5,-16
9765,-8,-218,-107,64,4,-14
9770,-8,-223,-111,63,4,-14
9775,-8,-221,-113,62,4,-15
9780,-11,-220,-116,62,4,-16
9785,-9,-221,-112,62,5,-15
9790,-8,-223,-114,62,6,-15
9795,-16,-224,-108,62,6,-15
9800,-8,-222,-113,65,7,-14
9805,-9,-221,-110,66,6,-15
9810,-12,-219,-110,67,8,-16
9815,-9,-220,-109,67,9,-16
9820,-13,-222,-114,67,9,-16
9825,-9,-222,-111,66,9,-17
9830,-11,-220,-107,64,9,-16
9835,-10,-219,-111,61,10,-15
9840,-10,-219,-111,61,9,-16
9845,-4,-221,-111,59,9,-14
9850,-14,-219,-108,58,10,-15
9855,-9,-220,-110,56,10,-16
9860,-8,-220,-109,56,10,-14
9865,-11,-218,-112,54,10,-14
9870,-11,-220,-109,52,7,-13
9875,-9,-224,-113,52,7,-13
9880,-10,-219,-110,51,6,-13
9885,-8,-223,-108,51,3,-12
9890,-11,-220,-113,51,3,-12
9895,-9,-222,-111,52,3,-13
9900,-7,-224,-117,55,3,-12
9905,-9,-221,-109,58,4,-12
9910,-11,-224,-107,60,6,-11
9915,-8,-221,-111,60,8,-10
9920,-10,-221,-113,61,8,-10
9925,-6,-222,-111,61,10,-12
9930,-8,-223,-112,60,11,-12
9935,-12,-221,-107,61,13,-11
9940,-9,-221,-115,62,15,-11
9945,-10,-221,-115,62,16,-11
9950,-10,-218,-113,63,18,-9
9955,-12,-222,-110,65,19,-9
9960,-9,-221,-113,64,18,-10
9965,-9,-221,-111,61,19,-11
9970,-13,-220,-113,59,19,-11
9975,-8,-221,-114,56,20,-10
9980,-9,-222,-110,54,21,-13
9985,-9,-223,-111,52,20,-8
9990,-8,-224,-107,51,20,-12
9995,-10,-223,-108,52,18,-10
10000,-7,-224,-111,52,19,-10
10005,-11,-224,-111,53,18,-9
10010,-10,-223,-110,53,18,-7
10015,-10,-221,-114,51,15,-8
10020,-12,-220,-109,50,15,-8
10025,-10,-222,-106,47,12,-7
10030,-14,-218,-113,47,10,-9
10035,-12,-219,-110,45,10,-10
10040,-11,-223,-110,44,9,-10
10045,-10,-226,-102,46,9,-11
10050,-11,-221,-108,46,7,-13
10055,-11,-220,-115,46,8,-13
10060,-10,-220,-110,46,8,-12
10065,-11,-217,-106,46,9,-13
10070,-12,-219,-109,48,9,-12
10075,-12,-219,-109,48,8,-11
10080,-11,-218,-113,46,7,-9
10085,-11,-219,-109,44,8,-9
10090,-13,-218,-112,39,8,-8
10095,-13,-218,-116,34,9,-11
10100,-7,-221,-111,30,8,-12
10105,-10,-218,-113,26,7,-11
10110,-10,-218,-114,23,7,-11
10115,-9,-222,-114,22,7,-10
10120,-11,-220,-111,21,6,-10
10125,-9,-224,-107,22,7,-10
10130,-9,-224,-112,24,8,-11
10135,-9,-225,-107,26,11,-11
10140,-11,-222,-110,30,13,-12
10145,-5,-223,-110,34,15,-11
10150,-8,-225,-116,37,15,-11
10155,-6,-223,-110,41,17,-8
10160,-7,-225,-111,44,16,-9
10165,-6,-221,-109,48,15,-10
10170,-9,-222,-108,51,13,-9
10175,-9,-223,-112,53,10,-8
10180,-8,-223,-112,53,8,-10
10185,-10,-219,-111,52,8,-9
10190,-11,-219,-110,51,8,-10
10195,-9,-220,-113,50,7,-9
10200,-8,-223,-113,47,6,-10
10205,-9,-217,-109,46,7,-10
10210,-10,-219,-111,44,8,-10
10215,-10,-224,-112,43,10,-11
10220,-12,-218,-113,41,12,-12
10225,-11,-220,-112,40,13,-10
10230,-9,-221,-108,39,14,-9
10235,-8,-220,-113,39,16,-10
10240,-9,-222,-112,38,17,-9
10245,-8,-221,-109,38,17,-10
10250,-10,-222,-113,39,16,-9
10255,-9,-224,-111,40,15,-9
10260,-9,-222,-114,40,14,-8
10265,-11,-223,-110,41,14,-7
10270,-7,-223,-117,41,14,-7
10275,-12,-219,-111,42,13,-8
10280,-9,-224,-108,45,12,-9
10285,-13,-218,-116,49,14,-11
10290,-8,-221,-114,53,14,-13
10295,-11,-221,-110,53,14,-12
10300,-13,-222,-111,55,14,-13
10305,-12,-220,-110,56,14,-15
10310,-11,-221,-115,56,14,-17
10315,-11,-221,-111,52,13,-15
10320,-14,-218,-109,51,11,-15
10325,-10,-223,-112,49,9,-17
10330,-11,-220,-111,45,9,-19
10335,-8,-221,-112,44,7,-18
10340,-7,-221,-116,42,7,-17
10345,-8,-223,-109,42,7,-16
10350,-5,-225,-112,41,5,-14
10355,-7,-224,-108,42,5,-15
10360,-9,-222,-109,41,5,-13
10365,-10,-222,-115,41,7,-13
10370,-10,-219,-111,43,7,-14
10375,-4,-222,-114,45,8,-13
10380,-11,-222,-112,47,10,-14
10385,-10,-225,-108,49,10,-15
10390,-9,-224,-110,50,11,-15
10395,-10,-225,-113,49,11,-14
10400,-8,-220,-114,51,12,-14
10405,-9,-220,-110,52,13,-14
10410,-9,-223,-109,51,12,-13
10415,-7,-224,-112,50,11,-14
10420,-10,-220,-113,49,11,-12
10425,-6,-222,-112,49,11,-12
10430,-10,-222,-111,49,11,-12
10435,-13,-217,-113,51,10,-12
10440,-14,-220,-113,52,9,-11
10445,-10,-223,-111,51,9,-13
10450,-8,-223,-108,50,11,-10
10455,-8,-221,-109,51,12,-9
10460,-8,-220,-111,53,14,-10
10465,-6,-220,-111,50,16,-11
10470,-10,-219,-112,48,16,-10
10475,-9,-222,-115,48,17,-12
10480,-9,-223,-108,47,18,-11
10485,-9,-218,-111,47,18,-12
10490,-8,-223,-113,48,18,-14
10495,-8,-223,-112,48,19,-14
10500,-12,-226,-116,49,18,-14
10505,-10,-221,-112,50,17,-13
10510,-9,-223,-113,53,16,-14
10515,-10,-224,-109,55,15,-13
10520,-8,-222,-113,56,17,-13
10525,-10,-221,-112,58,15,-12
10530,-8,-224,-110,59,18,-10
10535,-12,-223,-114,60,17,-11
10540,-10,-222,-110,61,20,-12
10545,-10,-219,-113,62,22,-12
10550,-10,-223,-111,63,22,-12
10555,-9,-224,-116,63,22,-12
10560,-10,-222,-111,65,23,-14
10565,-9,-224,-112,66,21,-14
10570,-11,-222,-110,65,22,-16
10575,-8,-223,-111,67,22,-13
10580,-8,-224,-115,67,19,-14
10585,-11,-220,-112,67,19,-15
10590,-8,-222,-109,67,18,-15
10595,-9,-222,-113,67,19,-14
10600,-8,-218,-106,66,18,-13
10605,-11,-221,-108,64,15,-13
10610,-3,-224,-111,63,14,-13
10615,-11,-220,-106,61,13,-14
10620,-12,-218,-106,61,12,-13
10625,-12,-221,-106,60,10,-12
10630,-11,-221,-111,60,10,-12
10635,-12,-221,-112,60,8,-11
10640,-11,-223,-110,59,8,-12
10645,-11,-222,-110,59,6,-15
10650,-11,-224,-110,60,5,-17
10655,-10,-223,-108,62,4,-16
10660,-6,-222,-110,67,4,-15
10665,-11,-221,-111,69,3,-15
10670,-12,-219,-114,71,3,-14
10675,-10,-221,-115,71,3,-15
10680,-13,-217,-114,69,4,-14
10685,-13,-220,-112,66,3,-13
10690,-11,-222,-113,62,3,-12
10695,-8,-222,-112,56,4,-13
10700,-9,-224,-115,54,4,-14
10705,-6,-222,-113,53,3,-14
10710,-9,-223,-111,53,5,-15
10715,-8,-223,-110,54,5,-13
10720,-14,-226,-111,56,5,-14
10725,-9,-223,-109,59,7,-13
10730,-10,-221,-111,61,9,-13
10735,-7,-224,-112,63,11,-13
10740,-7,-221,-110,64,12,-14
10745,-7,-225,-112,67,14,-11
10750,-11,-222,-107,68,12,-12
10755,-10,-223,-111,68,13,-13
10760,-10,-223,-111,69,12,-13
10765,-12,-221,-114,68,12,-13
10770,-7,-220,-110,66,11,-12
10775,-7,-221,-111,62,11,-15
10780,-10,-220,-110,59,12,-15
10785,-7,-221,-110,57,13,-14
10790,-8,-226,-113,53,14,-14
10795,-9,-220,-111,52,13,-14
10800,-10,-221,-113,53,14,-14
10805,-9,-223,-110,53,14,-15
10810,-10,-225,-111,54,15,-13
10815,-9,-223,-111,57,15,-13
10820,-10,-221,-114,57,15,-13
10825,-13,-221,-110,58,15,-11
10830,-10,-223,-115,58,15,-11
10835,-10,-222,-107,60,15,-10
10840,-9,-224,-107,62,15,-9
10845,-11,-223,-109,64,15,-10
10850,-7,-220,-113,69,15,-10
10855,-8,-225,-110,72,15,-9
10860,-11,-220,-108,73,15,-7
10865,-7,-219,-114,75,17,-8
10870,-9,-221,-113,76,15,-7
10875,-13,-221,-114,75,16,-7
10880,-13,-218,-113,74,16,-10
10885,-11,-220,-104,73,16,-10
10890,-9,-220,-110,71,16,-12
10895,-11,-219,-115,71,14,-12
10900,-8,-224,-112,69,14,-12
10905,-11,-222,-112,71,13,-12
10910,-8,-223,-106,71,13,-12
10915,-6,-218,-111,71,11,-13
10920,-6,-218,-105,69,10,-13
10925,-11,-220,-110,67,8,-11
10930,-10,-223,-112,63,6,-11
10935,-6,-226,-110,58,5,-11
10940,-9,-223,-112,52,5,-10
10945,-9,-220,-108,48,5,-11
10950,-9,-223,-111,45,4,-12
10955,-8,-220,-110,45,3,-11
10960,-9,-223,-110,46,4,-11
10965,-9,-223,-109,48,5,-9
10970,-8,-224,-109,51,6,-10
10975,-9,-222,-110,56,7,-10
10980,-7,-224,-108,60,8,-10
10985,-7,-223,-110,63,10,-12
10990,-14,-219,-116,65,14,-11
10995,-5,-224,-111,67,16,-14
11000,-10,-217,-110,66,15,-14
11005,-12,-223,-114,69,17,-14
11010,-9,-221,-112,69,17,-12
11015,-6,-220,-109,67,18,-13
11020,-9,-223,-113,67,17,-13
11025,-12,-222,-110,65,17,-13
11030,-10,-220,-111,63,17,-13
11035,-8,-226,-112,60,17,-12
11040,-11,-221,-109,60,18,-12
11045,-5,-221,-119,59,18,-12
11050,-8,-222,-112,59,17,-10
11055,-6,-223,-113,58,18,-9
11060,-10,-222,-112,58,19,-9
11065,-11,-222,-109,59,19,-10
11070,-10,-225,-113,58,18,-10
11075,-9,-222,-111,59,18,-10
11080,-9,-224,-107,59,16,-10
11085,-11,-225,-107,59,15,-12
11090,-10,-223,-110,60,14,-12
11095,-6,-225,-111,60,13,-12
11100,-8,-223,-107,60,11,-12
11105,-12,-224,-110,60,10,-11
11110,-11,-219,-105,61,10,-11
11115,-10,-221,-110,62,9,-11
11120,-9,-222,-108,63,9,-11
11125,-10,-226,-108,64,10,-11
11130,-10,-218,-113,64,12,-11
11135,-11,-222,-113,63,13,-12
11140,-6,-225,-107,64,14,-13
11145,-8,-222,-105,64,16,-12
11150,-10,-219,-114,65,16,-12
11155,-19,-220,-113,67,17,-13
11160,-10,-221,-113,68,16,-14
11165,-10,-220,-110,70,17,-14
11170,-9,-222,-108,70,17,-14
11175,-12,-218,-107,70,17,-13
11180,-9,-222,-108,70,16,-15
11185,-11,-223,-109,70,16,-14
11190,-6,-225,-110,68,17,-13
11195,-10,-222,-109,67,18,-13
11200,-9,-221,-105,65,19,-13
11205,-12,-221,-108,62,20,-12
11210,-8,-220,-111,61,19,-12
11215,-8,-223,-108,58,18,-12
11220,-10,-223,-108,56,17,-11
11225,-12,-221,-110,56,13,-12
11230,-12,-223,-110,57,11,-12
11235,-11,-222,-112,57,10,-14
11240,-12,-223,-106,57,6,-14
11245,-13,-223,-111,56,4,-17
11250,-10,-225,-110,59,1,-17
11255,-7,-225,-107,61,1,-16
11260,-10,-222,-111,65,1,-17
11265,-11,-224,-111,68,1,-15
11270,-10,-220,-109,69,2,-15
11275,-9,-221,-112,68,3,-14
11280,-10,-221,-106,65,3,-15
11285,-10,-221,-106,62,2,-15
11290,-7,-223,-114,57,2,-16
11295,-9,-222,-107,54,1,-18
11300,-10,-224,-109,52,2,-16
11305,-12,-220,-104,53,2,-18
11310,-6,-226,-107,53,4,-16
11315,-9,-221,-110,53,5,-16
11320,-12,-218,-113,53,5,-16
11325,-9,-224,-107,52,8,-16
11330,-11,-220,-103,53,10,-13
11335,-10,-222,-112,54,12,-11
11340,-8,-225,-108,55,12,-12
11345,-10,-222,-105,55,13,-11
11350,-11,-225,-109,55,14,-12
11355,-7,-223,-112,55,13,-11
11360,-9,-221,-110,54,12,-11
11365,-11,-220,-106,54,11,-10
11370,-8,-224,-107,50,10,-11
11375,-3,-223,-107,49,9,-10
11380,-9,-223,-109,48,10,-12
11385,-7,-224,-106,46,11,-13
11390,-7,-221,-106,45,11,-12
11395,-8,-221,-108,46,11,-14
11400,-6,-224,-107,47,11,-15
11405,-9,-221,-109,48,12,-14
11410,-11,-224,-108,49,13,-13
11415,-5,-223,-109,53,12,-11
11420,-6,-227,-108,54,12,-12
11425,-8,-224,-108,56,12,-12
11430,-10,-222,-106,56,12,-13
11435,-9,-222,-105,57,12,-10
11440,-10,-223,-106,57,11,-10
11445,-9,-220,-109,59,11,-9
11450,-11,-220,-106,61,14,-10
11455,-11,-224,-108,63,14,-9
11460,-10,-224,-103,62,14,-7
11465,-14,-219,-108,65,15,-8
11470,-11,-219,-108,64,17,-9
11475,-10,-222,-109,64,17,-9
11480,-10,-226,-108,62,18,-10
11485,-8,-222,-106,60,17,-10
11490,-9,-222,-108,59,17,-11
11495,-11,-220,-109,58,16,-11
11500,-11,-223,-106,57,15,-13
11505,-11,-224,-108,56,15,-13
11510,-12,-220,-111,54,14,-14
11515,-9,-219,-108,54,13,-12
11520,-9,-217,-105,55,11,-11
11525,-12,-220,-112,56,12,-11
11530,-10,-221,-110,54,10,-9
11535,-14,-223,-107,55,9,-11
11540,-12,-224,-111,55,8,-10
11545,-10,-223,-106,54,7,-9
11550,-10,-221,-108,54,7,-10
11555,-12,-222,-109,55,8,-11
11560,-8,-223,-102,55,9,-12
11565,-8,-223,-111,56,11,-11
11570,-9,-223,-109,55,12,-11
11575,-11,-224,-107,56,13,-10
11580,-6,-226,-108,56,13,-12
11585,-11,-224,-109,57,13,-13
11590,-11,-224,-114,59,14,-12
11595,-6,-221,-109,62,14,-13
11600,-8,-223,-110,64,14,-11
11605,-9,-223,-110,65,13,-11
11610,-8,-224,-106,66,12,-9
11615,-8,-222,-108,65,11,-11
11620,-8,-222,-107,64,10,-9
11625,-7,-222,-113,61,10,-10
11630,-10,-223,-102,58,8,-10
11635,-11,-222,-108,55,9,-9
11640,-9,-224,-113,51,8,-10
11645,-9,-222,-106,52,8,-9
11650,-10,-221,-108,52,8,-8
11655,-9,-224,-108,51,8,-8
11660,-10,-221,-108,51,10,-8
11665,-11,-221,-111,51,11,-8
11670,-7,-221,-106,51,11,-8
11675,-11,-223,-108,51,13,-10
11680,-10,-223,-106,50,11,-9
11685,-8,-225,-111,50,11,-8
11690,-12,-221,-106,50,11,-9
11695,-8,-223,-108,48,12,-10
11700,-8,-228,-111,48,10,-12
11705,-12,-221,-108,48,10,-11
11710,-12,-223,-109,49,10,-11
11715,-10,-224,-107,51,10,-10
11720,-12,-221,-110,53,9,-10
11725,-10,-221,-113,54,11,-10
11730,-11,-223,-110,58,12,-11
11735,-8,-226,-112,59,12,-12
11740,-7,-220,-107,60,11,-9
11745,-7,-223,-111,60,11,-10
11750,-8,-227,-110,60,13,-13
11755,-9,-229,-113,62,13,-12
11760,-10,-221,-105,63,14,-10
11765,-8,-227,-109,64,16,-12
11770,-11,-221,-110,65,16,-11
11775,-8,-221,-108,64,15,-10
11780,-9,-225,-113,64,15,-10
11785,-10,-224,-107,64,15,-10
11790,-6,-225,-109,66,14,-9
11795,-8,-227,-107,67,15,-8
11800,-10,-224,-104,67,15,-7
11805,-8,-226,-109,68,15,-8
11810,-8,-221,-110,69,16,-7
11815,-13,-221,-111,69,16,-7
11820,-9,-224,-106,69,17,-7
11825,-10,-225,-108,68,16,-7
11830,-11,-225,-110,69,16,-8
11835,-10,-224,-107,71,18,-8
11840,-10,-223,-108,72,16,-10
11845,-12,-224,-105,75,15,-11
11850,-10,-225,-112,78,14,-12
11855,-7,-225,-109,80,11,-12
11860,-9,-225,-103,83,9,-12
11865,-7,-225,-102,85,9,-12
11870,-11,-220,-106,87,8,-12
11875,-8,-222,-115,87,8,-11
11880,-8,-219,-109,86,8,-10
11885,-11,-218,-108,82,9,-9
11890,-10,-220,-111,79,9,-8
11895,-8,-226,-111,72,9,-10
11900,-10,-223,-103,67,9,-10
11905,-9,-221,-110,63,10,-9
11910,-11,-222,-108,61,11,-10
11915,-9,-222,-108,58,14,-10
11920,-8,-223,-109,56,13,-8
11925,-9,-221,-109,52,14,-10
11930,-9,-221,-106,53,16,-7
11935,-7,-224,-109,54,19,-9
11940,-8,-225,-111,56,20,-7
11945,-9,-223,-109,58,20,-7
11950,-8,-221,-112,61,21,-8
11955,-11,-223,-105,65,21,-7
11960,-11,-219,-107,65,21,-7
11965,-11,-223,-105,67,20,-6
11970,-13,-226,-112,67,19,-7
11975,-7,-224,-108,66,18,-7
11980,-10,-220,-105,65,16,-8
11985,-10,-221,-108,64,17,-8
11990,-8,-223,-105,63,17,-9
11995,-9,-222,-106,62,16,-10
