timestamp,acc_x,acc_y,acc_z,gyro_x,gyro_y,gyro_z
0,5,-234,-82,37,4,-7
5,2,-234,-87,35,4,-7
10,6,-234,-84,35,3,-7
15,5,-234,-85,34,4,-8
20,7,-237,-83,34,4,-7
25,-2,-238,-77,35,5,-7
30,7,-237,-83,35,4,-8
35,4,-233,-84,36,4,-7
40,4,-233,-79,35,5,-6
45,7,-233,-85,37,5,-7
50,5,-235,-82,38,6,-7
55,3,-233,-85,40,6,-7
60,4,-236,-82,41,4,-6
65,3,-234,-83,41,4,-7
70,6,-235,-84,42,4,-6
75,5,-233,-87,44,2,-6
80,6,-235,-83,44,1,-5
85,3,-233,-82,45,1,-5
90,0,-232,-82,42,-2,-6
95,1,-230,-84,34,-3,-5
100,4,-234,-83,33,-2,-4
105,2,-233,-83,35,-2,-5
110,6,-232,-82,37,-1,-7
115,2,-233,-82,37,-1,-7
120,3,-236,-87,39,1,-9
125,7,-237,-83,40,1,-9
130,7,-239,-90,42,2,-9
135,4,-234,-83,43,1,-7
140,4,-233,-83,44,1,-8
145,7,-236,-81,47,2,-11
150,5,-233,-83,50,3,-11
155,5,-234,-85,49,5,-12
160,6,-231,-87,47,5,-10
165,6,-233,-80,44,6,-10
170,4,-233,-85,42,6,-10
175,5,-235,-81,40,7,-10
180,4,-235,-85,41,8,-11
185,2,-238,-86,40,10,-11
190,2,-231,-80,41,8,-11
195,5,-234,-82,40,9,-12
200,4,-235,-83,39,9,-12
205,3,-234,-80,37,10,-10
210,3,-233,-82,37,10,-11
215,4,-236,-86,38,10,-12
220,6,-236,-85,40,10,-11
225,5,-232,-86,42,9,-10
230,4,-231,-82,42,9,-10
235,8,-229,-84,42,11,-9
240,5,-232,-88,38,11,-8
245,4,-232,-82,36,10,-6
250,5,-236,-84,32,11,-6
255,3,-234,-82,31,12,-6
260,5,-236,-79,31,12,-8
265,6,-233,-82,35,12,-9
270,4,-237,-85,38,13,-10
275,5,-231,-84,41,13,-9
280,5,-238,-83,44,14,-11
285,0,-234,-84,47,15,-12
290,4,-230,-82,49,17,-12
295,8,-233,-83,50,18,-11
300,7,-232,-83,50,20,-9
305,4,-233,-84,50,21,-10
310,4,-236,-83,50,20,-10
315,5,-233,-86,49,19,-10
320,6,-230,-87,48,19,-9
325,6,-231,-84,46,18,-9
330,7,-232,-85,46,18,-8
335,7,-236,-82,45,16,-7
340,7,-235,-86,43,16,-7
345,2,-232,-88,42,15,-7
350,4,-231,-81,40,14,-6
355,1,-233,-84,41,14,-4
360,1,-235,-85,42,14,-3
365,3,-235,-83,41,15,-3
370,3,-231,-84,40,15,-4
375,3,-229,-85,41,15,-4
380,4,-234,-83,40,15,-5
385,1,-232,-87,39,15,-4
390,3,-235,-85,38,15,-4
395,3,-234,-81,38,15,-3
400,4,-236,-86,39,15,-6
405,0,-242,-81,39,16,-6
410,4,-235,-86,40,16,-6
415,5,-234,-83,43,16,-7
420,5,-235,-83,44,16,-8
425,5,-235,-84,45,16,-9
430,3,-234,-84,46,18,-11
435,4,-236,-85,46,17,-12
440,3,-236,-83,49,17,-12
445,2,-233,-85,51,15,-11
450,1,-232,-86,51,13,-12
455,1,-229,-88,52,12,-11
460,4,-236,-82,52,11,-11
465,2,-231,-83,50,10,-10
470,4,-233,-87,49,10,-12
475,4,-233,-88,47,9,-10
480,1,-233,-85,45,7,-12
485,5,-233,-87,42,7,-12
490,4,-232,-84,40,7,-14
495,4,-231,-87,39,6,-15
500,5,-231,-88,39,6,-14
505,5,-234,-83,41,7,-13
510,5,-235,-83,41,8,-15
515,6,-231,-84,40,7,-15
520,4,-235,-87,41,8,-14
525,6,-235,-84,40,8,-15
530,5,-231,-84,40,9,-15
535,3,-231,-88,40,8,-15
540,6,-235,-84,38,8,-14
545,4,-236,-84,38,8,-14
550,7,-232,-85,39,8,-13
555,6,-235,-87,40,8,-13
560,7,-236,-81,41,9,-14
565,5,-227,-88,43,9,-11
570,6,-236,-86,45,9,-11
575,2,-234,-90,47,8,-10
580,6,-233,-85,48,7,-10
585,4,-234,-87,50,9,-10
590,6,-234,-89,53,8,-10
595,3,-233,-85,53,8,-9
600,4,-232,-83,56,9,-10
605,5,-235,-85,58,8,-10
610,6,-233,-80,57,9,-10
615,4,-236,-80,57,10,-11
620,3,-242,-88,57,9,-10
625,4,-233,-84,57,9,-10
630,4,-235,-86,57,10,-12
635,5,-235,-84,57,10,-12
640,3,-233,-83,57,9,-13
645,2,-231,-81,57,10,-13
650,3,-233,-85,57,12,-14
655,5,-234,-83,56,11,-16
660,6,-231,-91,56,11,-15
665,6,-231,-87,55,11,-15
670,3,-233,-83,54,11,-15
675,4,-227,-92,52,10,-15
680,5,-232,-83,51,9,-17
685,5,-235,-86,49,8,-15
690,3,-234,-85,49,8,-16
695,5,-231,-83,46,8,-17
700,7,-231,-85,46,7,-17
705,6,-232,-85,47,6,-17
710,6,-232,-85,47,4,-17
715,2,-231,-84,47,2,-16
720,4,-235,-85,47,0,-17
725,6,-234,-85,49,-2,-14
730,5,-238,-83,50,-4,-14
735,4,-234,-87,52,-7,-14
740,2,-231,-81,51,-10,-13
745,1,-234,-87,47,-15,-14
750,6,-234,-87,39,-19,-14
755,4,-233,-88,31,-23,-17
760,4,-233,-88,23,-26,-19
765,6,-233,-88,19,-29,-24
770,7,-236,-89,19,-31,-29
775,5,-236,-87,23,-34,-33
780,4,-236,-87,29,-40,-37
785,9,-236,-82,33,-46,-39
790,3,-234,-86,37,-54,-40
795,4,-236,-88,38,-66,-44
800,2,-234,-89,42,-78,-46
805,1,-229,-84,49,-93,-45
810,2,-230,-84,54,-109,-47
815,1,-228,-86,58,-128,-44
820,3,-231,-83,58,-143,-47
825,1,-231,-86,55,-161,-51
830,0,-227,-89,51,-176,-56
835,1,-226,-87,44,-191,-59
840,-2,-216,-95,39,-205,-63
845,0,-224,-89,34,-220,-69
850,-4,-224,-86,27,-236,-74
855,-4,-223,-89,22,-255,-77
860,-6,-223,-88,16,-275,-81
865,-7,-223,-91,11,-298,-85
870,-8,-226,-90,6,-320,-89
875,-10,-222,-98,2,-343,-95
880,-10,-222,-95,0,-368,-99
885,-11,-217,-98,-4,-392,-105
890,-13,-217,-102,-10,-418,-112
895,-9,-217,-105,-24,-442,-116
900,-15,-211,-106,-43,-468,-122
905,-12,-212,-107,-65,-493,-126
910,-16,-207,-106,-89,-518,-132
915,-16,-211,-108,-115,-542,-139
920,-16,-207,-105,-141,-563,-147
925,-20,-206,-103,-170,-582,-156
930,-19,-206,-109,-199,-600,-166
935,-20,-209,-101,-227,-617,-178
940,-19,-212,-103,-254,-635,-192
945,-20,-211,-107,-282,-658,-205
950,-25,-212,-109,-310,-685,-217
955,-24,-213,-112,-335,-717,-227
960,-25,-210,-118,-354,-754,-234
965,-29,-212,-115,-368,-792,-236
970,-33,-210,-121,-379,-833,-238
975,-34,-209,-123,-389,-875,-239
980,-38,-212,-121,-397,-918,-241
985,-39,-211,-125,-403,-959,-244
990,-36,-216,-127,-412,-999,-250
995,-41,-221,-121,-423,-1037,-254
1000,-39,-217,-126,-437,-1074,-259
1005,-41,-228,-133,-451,-1106,-262
1010,-38,-220,-122,-462,-1135,-268
1015,-30,-229,-124,-466,-1157,-275
1020,-25,-230,-118,-461,-1176,-286
1025,-20,-232,-122,-450,-1193,-298
1030,-14,-232,-117,-437,-1213,-311
1035,-20,-233,-116,-425,-1233,-321
1040,-21,-234,-114,-414,-1257,-331
1045,-23,-232,-119,-403,-1283,-335
1050,-26,-227,-125,-391,-1311,-337
1055,-20,-221,-128,-382,-1340,-339
1060,-27,-220,-129,-375,-1368,-341
1065,-28,-214,-133,-375,-1394,-343
1070,-23,-213,-130,-379,-1416,-348
1075,-23,-206,-136,-384,-1440,-352
1080,-24,-208,-132,-393,-1459,-356
1085,-21,-209,-133,-400,-1479,-361
1090,-25,-206,-129,-405,-1497,-367
1095,-19,-206,-129,-412,-1519,-373
1100,-20,-209,-130,-415,-1545,-378
1105,-16,-215,-127,-417,-1574,-383
1110,-17,-212,-125,-418,-1604,-387
1115,-14,-214,-122,-415,-1633,-392
1120,-17,-212,-121,-411,-1660,-396
1125,-16,-213,-123,-406,-1689,-399
1130,-17,-211,-121,-398,-1715,-406
1135,-18,-213,-125,-394,-1737,-411
1140,-17,-212,-122,-387,-1752,-417
1145,-13,-211,-125,-387,-1763,-424
1150,-13,-216,-126,-388,-1767,-436
1155,-12,-214,-124,-391,-1770,-449
1160,-4,-220,-123,-391,-1771,-461
1165,-5,-217,-120,-391,-1767,-474
1170,-3,-218,-124,-387,-1758,-487
1175,-1,-222,-122,-385,-1747,-501
1180,0,-227,-121,-382,-1730,-516
1185,3,-227,-119,-377,-1711,-529
1190,6,-230,-115,-365,-1690,-543
1195,7,-233,-114,-347,-1668,-559
1200,7,-233,-120,-324,-1644,-573
1205,11,-235,-111,-301,-1618,-585
1210,12,-238,-116,-277,-1587,-598
1215,21,-238,-108,-252,-1552,-614
1220,11,-236,-110,-223,-1521,-632
1225,13,-238,-106,-191,-1493,-650
1230,12,-238,-107,-162,-1467,-667
1235,10,-236,-102,-137,-1442,-684
1240,5,-231,-105,-119,-1415,-699
1245,6,-231,-105,-104,-1387,-716
1250,8,-236,-100,-93,-1358,-731
1255,11,-233,-107,-81,-1330,-748
1260,7,-233,-105,-70,-1307,-763
1265,3,-228,-104,-62,-1286,-775
1270,1,-231,-111,-51,-1271,-787
1275,0,-230,-104,-38,-1262,-796
1280,-2,-229,-106,-24,-1255,-804
1285,-7,-228,-103,-13,-1253,-811
1290,-10,-228,-106,-2,-1250,-816
1295,-14,-228,-105,10,-1248,-820
1300,-13,-228,-103,21,-1245,-825
1305,-17,-226,-103,34,-1240,-827
1310,-19,-231,-105,47,-1235,-832
1315,-24,-226,-99,58,-1229,-835
1320,-23,-229,-106,72,-1223,-837
1325,-16,-229,-107,87,-1217,-838
1330,-21,-230,-103,101,-1211,-840
1335,-26,-227,-102,114,-1204,-841
1340,-26,-222,-102,124,-1195,-840
1345,-25,-226,-105,135,-1188,-841
1350,-28,-228,-101,141,-1178,-842
1355,-30,-227,-97,150,-1171,-841
1360,-33,-226,-98,159,-1164,-841
1365,-32,-229,-99,168,-1158,-843
1370,-33,-229,-100,178,-1149,-844
1375,-27,-232,-99,188,-1143,-846
1380,-37,-228,-102,195,-1135,-846
1385,-34,-227,-100,203,-1128,-847
1390,-39,-226,-101,210,-1121,-848
1395,-40,-226,-103,220,-1115,-849
1400,-40,-223,-101,228,-1108,-848
1405,-39,-227,-103,234,-1097,-848
1410,-39,-225,-99,239,-1087,-849
1415,-37,-222,-104,245,-1076,-850
1420,-35,-224,-103,251,-1064,-850
1425,-41,-225,-104,256,-1050,-850
1430,-40,-227,-106,260,-1035,-848
1435,-37,-226,-104,264,-1021,-849
1440,-37,-223,-105,270,-1005,-849
1445,-34,-224,-106,276,-992,-849
1450,-40,-222,-104,282,-979,-849
1455,-38,-220,-108,293,-965,-848
1460,-41,-221,-106,304,-952,-848
1465,-41,-216,-104,314,-938,-848
1470,-39,-217,-106,320,-923,-846
1475,-41,-215,-112,320,-906,-846
1480,-48,-211,-113,312,-887,-842
1485,-44,-210,-115,295,-868,-841
1490,-43,-207,-121,270,-851,-841
1495,-44,-209,-125,246,-836,-835
1500,-45,-205,-124,219,-829,-830
1505,-64,-211,-126,190,-829,-820
1510,-47,-212,-133,149,-853,-806
1515,-50,-219,-134,118,-882,-801
1520,-55,-218,-138,101,-922,-795
1525,-56,-225,-142,85,-958,-785
1530,-56,-225,-137,71,-982,-777
1535,-51,-231,-135,65,-993,-771
1540,-46,-230,-132,70,-997,-768
1545,-37,-231,-128,80,-995,-765
1550,-33,-236,-129,84,-989,-758
1555,-29,-237,-126,80,-984,-750
1560,-20,-239,-126,70,-981,-740
1565,-13,-245,-126,63,-978,-729
1570,-4,-242,-128,61,-977,-713
1575,1,-243,-124,67,-979,-698
1580,6,-243,-128,77,-985,-681
1585,13,-243,-127,99,-994,-664
1590,16,-242,-120,127,-1005,-646
1595,21,-241,-120,162,-1013,-627
1600,20,-235,-118,202,-1023,-608
1605,21,-228,-114,242,-1032,-593
1610,23,-223,-107,277,-1042,-581
1615,17,-214,-101,300,-1048,-574
1620,17,-211,-108,313,-1050,-569
1625,17,-204,-103,310,-1049,-566
1630,16,-199,-100,298,-1045,-565
1635,10,-194,-100,278,-1036,-563
1640,4,-193,-99,254,-1023,-565
1645,0,-191,-97,228,-1008,-566
1650,0,-189,-94,203,-989,-567
1655,-1,-190,-94,179,-968,-566
1660,-2,-190,-94,153,-943,-562
1665,0,-189,-91,132,-919,-563
1670,0,-188,-94,113,-897,-561
1675,-3,-191,-96,96,-878,-557
1680,-1,-194,-95,83,-863,-554
1685,1,-196,-92,72,-850,-548
1690,1,-200,-99,61,-845,-542
1695,8,-203,-94,52,-843,-533
1700,3,-207,-96,42,-847,-522
1705,9,-210,-98,34,-853,-512
1710,14,-218,-102,27,-861,-500
1715,17,-225,-107,22,-866,-487
1720,21,-229,-106,19,-872,-473
1725,24,-237,-107,19,-876,-462
1730,22,-240,-111,26,-879,-450
1735,27,-244,-111,40,-880,-438
1740,27,-248,-111,57,-877,-428
1745,27,-249,-115,80,-871,-421
1750,30,-250,-113,104,-862,-415
1755,25,-248,-117,128,-849,-408
1760,29,-252,-116,150,-834,-406
1765,26,-251,-117,171,-815,-401
1770,26,-248,-118,188,-794,-397
1775,28,-242,-116,204,-772,-393
1780,25,-242,-115,218,-747,-389
1785,29,-236,-110,227,-722,-385
1790,26,-234,-112,235,-698,-382
1795,24,-234,-113,237,-674,-377
1800,25,-231,-112,238,-652,-373
1805,28,-228,-112,235,-632,-368
1810,32,-231,-110,229,-616,-365
1815,17,-228,-114,223,-600,-359
1820,27,-227,-106,216,-588,-353
1825,27,-225,-109,208,-578,-350
1830,27,-227,-108,202,-568,-345
1835,23,-227,-108,198,-557,-340
1840,23,-229,-103,194,-549,-337
1845,20,-223,-108,190,-541,-332
1850,19,-226,-104,185,-534,-328
1855,15,-224,-105,178,-529,-321
1860,10,-222,-102,171,-526,-314
1865,7,-225,-96,162,-524,-308
1870,6,-225,-100,155,-523,-302
1875,2,-223,-98,147,-523,-297
1880,6,-221,-95,139,-524,-292
1885,1,-224,-96,130,-528,-289
1890,0,-219,-96,124,-535,-287
1895,0,-226,-93,122,-540,-288
1900,0,-224,-91,122,-547,-289
1905,0,-226,-91,120,-552,-293
1910,2,-226,-92,121,-563,-299
1915,3,-230,-97,119,-573,-307
1920,4,-234,-94,119,-583,-316
1925,2,-233,-100,119,-588,-326
1930,0,-237,-98,121,-591,-336
1935,2,-238,-102,126,-588,-344
1940,5,-239,-101,133,-586,-353
1945,3,-237,-98,144,-579,-363
1950,6,-238,-102,156,-571,-371
1955,6,-238,-101,169,-564,-377
1960,9,-237,-102,182,-558,-385
1965,10,-235,-104,193,-551,-388
1970,10,-232,-99,204,-549,-391
1975,16,-230,-96,215,-548,-392
1980,16,-230,-98,219,-549,-393
1985,14,-227,-98,221,-554,-392
1990,15,-226,-103,222,-559,-394
1995,15,-229,-98,220,-565,-394
2000,17,-229,-98,216,-568,-395
2005,13,-228,-94,213,-568,-396
2010,18,-228,-95,212,-563,-397
2015,16,-230,-96,213,-556,-399
2020,14,-231,-96,218,-548,-399
2025,13,-238,-97,222,-537,-398
2030,14,-231,-93,229,-527,-399
2035,14,-230,-92,237,-518,-398
2040,16,-228,-94,245,-509,-395
2045,14,-226,-89,249,-502,-394
2050,21,-223,-91,253,-496,-392
2055,17,-218,-91,254,-491,-387
2060,19,-219,-89,252,-488,-384
2065,16,-213,-90,248,-485,-380
2070,21,-213,-88,240,-482,-377
2075,24,-210,-91,230,-477,-371
2080,24,-207,-94,216,-470,-364
2085,28,-207,-94,201,-460,-359
2090,25,-204,-95,186,-450,-351
2095,30,-207,-93,172,-438,-341
2100,32,-208,-97,159,-426,-334
2105,33,-203,-98,145,-412,-325
2110,36,-202,-96,133,-399,-315
2115,39,-205,-99,121,-387,-304
2120,36,-201,-96,111,-379,-292
2125,35,-203,-97,100,-372,-278
2130,37,-202,-91,88,-366,-264
2135,34,-210,-93,79,-363,-252
2140,36,-207,-98,71,-361,-239
2145,40,-206,-94,66,-360,-226
2150,37,-209,-96,62,-358,-216
2155,42,-211,-95,58,-354,-202
2160,37,-211,-98,54,-355,-189
2165,39,-209,-94,52,-351,-179
2170,41,-213,-100,48,-349,-167
2175,36,-216,-99,44,-347,-156
2180,39,-219,-97,35,-346,-147
2185,36,-220,-96,25,-346,-140
2190,45,-229,-97,11,-351,-133
2195,35,-229,-91,-1,-358,-129
2200,35,-232,-90,-11,-367,-124
2205,30,-237,-91,-16,-375,-118
2210,28,-239,-94,-19,-385,-114
2215,30,-242,-91,-18,-392,-108
2220,25,-244,-92,-17,-400,-106
2225,25,-244,-100,-17,-406,-105
2230,27,-250,-99,-21,-407,-108
2235,25,-250,-97,-28,-407,-112
2240,30,-247,-97,-30,-404,-117
2245,33,-247,-105,-30,-397,-125
2250,27,-249,-100,-25,-392,-134
2255,27,-247,-100,-19,-389,-142
2260,24,-246,-98,-11,-389,-152
2265,23,-247,-94,-3,-390,-157
2270,23,-245,-97,6,-398,-163
2275,24,-242,-96,13,-406,-166
2280,21,-240,-99,12,-415,-173
2285,15,-233,-94,8,-422,-177
2290,19,-234,-97,2,-429,-182
2295,26,-236,-90,-8,-434,-189
2300,19,-234,-97,-17,-437,-196
2305,22,-231,-98,-29,-435,-202
2310,27,-235,-99,-37,-432,-206
2315,24,-230,-101,-47,-426,-212
2320,27,-226,-97,-58,-417,-217
2325,30,-227,-100,-68,-411,-222
2330,33,-231,-99,-76,-406,-224
2335,31,-227,-103,-86,-400,-226
2340,32,-229,-99,-95,-399,-226
2345,34,-231,-100,-99,-399,-225
2350,33,-232,-101,-100,-400,-222
2355,28,-229,-104,-97,-402,-217
2360,28,-229,-104,-94,-403,-214
2365,28,-229,-101,-89,-403,-210
2370,28,-229,-102,-84,-401,-207
2375,28,-229,-104,-80,-398,-205
2380,30,-232,-106,-76,-390,-203
2385,30,-224,-102,-72,-381,-200
2390,30,-225,-101,-69,-371,-198
2395,30,-225,-94,-65,-364,-193
2400,30,-225,-100,-64,-357,-188
2405,28,-211,-98,-62,-351,-183
2410,31,-220,-98,-63,-347,-178
2415,31,-220,-96,-64,-346,-175
2420,29,-221,-97,-66,-345,-174
2425,28,-218,-96,-70,-343,-173
2430,30,-220,-98,-74,-342,-172
2435,26,-220,-94,-75,-340,-169
2440,28,-220,-91,-75,-338,-167
2445,25,-220,-90,-75,-338,-167
2450,27,-219,-93,-76,-342,-164
2455,27,-222,-90,-80,-344,-159
2460,26,-218,-92,-85,-349,-156
2465,20,-221,-92,-92,-354,-153
2470,18,-224,-93,-98,-361,-148
2475,16,-224,-88,-104,-371,-145
2480,15,-227,-86,-108,-384,-142
2485,12,-226,-81,-109,-397,-139
2490,10,-228,-81,-108,-410,-136
2495,5,-227,-86,-107,-422,-134
2500,4,-231,-80,-108,-433,-132
2505,2,-233,-79,-111,-444,-130
2510,1,-230,-81,-111,-456,-127
2515,2,-234,-79,-113,-469,-128
2520,0,-232,-79,-114,-483,-130
2525,1,-232,-76,-112,-497,-132
2530,-3,-231,-79,-109,-511,-134
2535,0,-227,-76,-106,-524,-138
2540,-1,-230,-75,-99,-537,-139
2545,0,-228,-80,-89,-549,-139
2550,-1,-232,-78,-79,-559,-142
2555,-1,-230,-78,-66,-568,-141
2560,-2,-234,-71,-50,-573,-140
2565,-3,-234,-71,-31,-579,-143
2570,3,-234,-76,-14,-587,-149
2575,9,-232,-71,0,-594,-154
2580,11,-230,-73,18,-593,-150
2585,8,-239,-67,37,-601,-147
2590,7,-238,-64,56,-614,-147
2595,9,-241,-68,75,-633,-151
2600,5,-243,-61,93,-656,-155
2605,2,-240,-66,115,-679,-161
2610,0,-244,-60,137,-702,-170
2615,-2,-245,-62,159,-725,-178
2620,-10,-245,-62,177,-748,-191
2625,-7,-245,-69,192,-764,-203
2630,-8,-246,-63,202,-767,-202
2635,-10,-243,-69,206,-760,-200
2640,-12,-243,-77,203,-744,-194
2645,-6,-239,-86,192,-723,-191
2650,0,-239,-93,173,-693,-183
2655,-2,-233,-96,147,-663,-177
2660,11,-233,-102,125,-620,-166
2665,19,-229,-108,102,-577,-155
2670,30,-236,-104,83,-537,-148
2675,41,-237,-102,65,-508,-137
2680,42,-243,-95,47,-490,-133
2685,43,-253,-95,32,-483,-133
2690,39,-261,-102,20,-483,-133
2695,33,-268,-105,8,-483,-136
2700,24,-274,-115,-3,-481,-143
2705,20,-277,-125,-18,-468,-153
2710,16,-278,-134,-26,-439,-162
2715,18,-284,-131,-16,-390,-170
2720,17,-282,-132,20,-328,-177
2725,23,-280,-125,80,-259,-187
2730,29,-280,-117,155,-187,-195
2735,32,-276,-112,232,-126,-197
2740,38,-266,-108,300,-81,-201
2745,40,-256,-99,345,-54,-204
2750,42,-254,-95,371,-48,-203
2755,41,-242,-90,381,-58,-197
2760,41,-239,-88,381,-84,-192
2765,34,-237,-88,379,-119,-185
2770,33,-233,-86,373,-157,-180
2775,23,-230,-87,366,-198,-173
2780,14,-229,-90,359,-237,-169
2785,10,-224,-90,352,-274,-165
2790,4,-227,-98,345,-305,-158
2795,-3,-223,-98,334,-329,-153
2800,-11,-226,-105,319,-343,-145
2805,-16,-222,-109,302,-352,-140
2810,-20,-220,-112,281,-358,-134
2815,-26,-215,-111,255,-363,-128
2820,-22,-217,-111,232,-367,-120
2825,-23,-214,-111,212,-373,-113
2830,-24,-215,-110,191,-382,-109
2835,-20,-208,-107,174,-393,-106
2840,-15,-208,-98,163,-406,-104
2845,-16,-209,-105,156,-421,-103
2850,-15,-210,-106,154,-436,-104
2855,-12,-207,-106,156,-449,-103
2860,-8,-205,-106,161,-462,-107
2865,-8,-201,-106,166,-475,-109
2870,-2,-201,-105,170,-488,-115
2875,-2,-199,-106,172,-502,-120
2880,0,-198,-107,170,-516,-126
2885,2,-194,-110,164,-531,-134
2890,3,-200,-106,158,-545,-141
2895,7,-199,-101,148,-560,-150
2900,6,-196,-106,136,-574,-159
2905,5,-193,-109,124,-589,-170
2910,9,-191,-108,113,-601,-179
2915,4,-190,-113,102,-613,-186
2920,1,-187,-109,91,-623,-194
2925,4,-184,-114,77,-634,-196
2930,1,-183,-111,59,-646,-200
2935,-2,-184,-111,40,-656,-199
2940,-6,-183,-116,19,-664,-198
2945,-9,-183,-112,-3,-671,-197
2950,-8,-185,-116,-23,-676,-197
2955,-9,-189,-113,-44,-676,-198
2960,-10,-189,-113,-66,-673,-198
2965,-8,-194,-116,-92,-663,-196
2970,-7,-200,-116,-121,-652,-198
2975,-6,-203,-117,-146,-638,-197
2980,-3,-212,-118,-170,-623,-198
2985,-2,-219,-119,-187,-605,-196
2990,1,-223,-115,-199,-590,-197
2995,-1,-228,-119,-205,-575,-198
3000,0,-237,-118,-204,-565,-196
3005,0,-239,-121,-200,-556,-193
3010,0,-243,-118,-188,-550,-190
3015,1,-247,-119,-173,-549,-186
3020,0,-253,-119,-156,-546,-181
3025,-1,-253,-114,-140,-540,-176
3030,0,-256,-107,-124,-532,-168
3035,-4,-250,-109,-108,-523,-161
3040,-4,-258,-109,-91,-516,-150
3045,-8,-256,-104,-78,-508,-140
3050,-7,-254,-108,-67,-500,-130
3055,-5,-248,-108,-55,-494,-123
3060,-5,-248,-108,-42,-489,-117
3065,-2,-241,-103,-32,-483,-112
3070,0,-239,-106,-20,-478,-108
3075,0,-239,-100,-9,-474,-104
3080,-1,-234,-102,-1,-473,-101
3085,-1,-228,-104,7,-477,-97
3090,0,-224,-100,12,-481,-94
3095,-6,-219,-103,13,-489,-91
3100,-2,-220,-97,13,-497,-86
3105,-5,-214,-99,10,-508,-83
3110,-10,-211,-99,3,-518,-80
3115,-11,-211,-100,-8,-527,-76
3120,-14,-206,-98,-21,-538,-75
3125,-15,-206,-100,-35,-545,-73
3130,-17,-205,-97,-53,-549,-74
3135,-17,-206,-96,-69,-552,-74
3140,-22,-208,-99,-86,-553,-78
3145,-21,-206,-98,-104,-550,-81
3150,-21,-207,-95,-123,-549,-82
3155,-17,-211,-98,-138,-543,-81
3160,-17,-209,-96,-152,-536,-82
3165,-17,-215,-95,-163,-530,-83
3170,-14,-210,-94,-171,-523,-84
3175,-12,-215,-94,-177,-516,-83
3180,-7,-222,-96,-183,-512,-84
3185,-8,-217,-94,-185,-508,-85
3190,-9,-218,-90,-186,-506,-88
3195,-6,-222,-90,-186,-500,-90
3200,-6,-220,-90,-184,-495,-92
3205,-4,-221,-86,-183,-485,-97
3210,-3,-222,-92,-180,-476,-103
3215,-6,-222,-85,-181,-461,-108
3220,-3,-223,-85,-183,-448,-114
3225,-4,-221,-85,-182,-435,-123
3230,-7,-224,-88,-182,-420,-129
3235,-4,-224,-88,-183,-404,-135
3240,-7,-221,-86,-184,-387,-141
3245,-10,-220,-92,-182,-370,-146
3250,-9,-219,-87,-180,-354,-151
3255,-7,-222,-90,-174,-338,-155
3260,-7,-220,-90,-168,-323,-158
3265,-11,-218,-87,-157,-308,-161
3270,-4,-216,-85,-147,-292,-162
3275,-9,-215,-96,-138,-276,-159
3280,-9,-218,-87,-131,-261,-158
3285,-9,-215,-88,-126,-248,-157
3290,-9,-214,-88,-123,-234,-155
3295,-5,-215,-87,-123,-221,-151
3300,-6,-215,-86,-124,-210,-151
3305,-8,-217,-81,-124,-200,-151
3310,-11,-216,-85,-123,-190,-151
3315,-14,-218,-82,-120,-184,-151
3320,-15,-218,-85,-118,-177,-154
3325,-10,-221,-88,-112,-171,-156
3330,-20,-222,-88,-105,-168,-160
3335,-21,-221,-84,-99,-167,-162
3340,-22,-224,-85,-93,-166,-165
3345,-25,-226,-83,-85,-165,-170
3350,-23,-228,-84,-81,-167,-173
3355,-28,-230,-79,-78,-169,-175
3360,-34,-232,-78,-79,-170,-176
3365,-35,-239,-78,-77,-170,-178
3370,-34,-242,-77,-76,-169,-179
3375,-35,-242,-74,-74,-169,-178
3380,-34,-249,-71,-70,-167,-178
3385,-32,-253,-67,-61,-167,-175
3390,-33,-256,-68,-47,-168,-172
3395,-33,-256,-65,-28,-173,-167
3400,-30,-258,-67,2,-180,-162
3405,-35,-257,-72,34,-191,-158
3410,-33,-258,-72,66,-207,-158
3415,-36,-257,-73,100,-228,-155
3420,-37,-252,-76,136,-245,-154
3425,-44,-254,-70,173,-262,-156
3430,-49,-251,-76,205,-273,-158
3435,-44,-250,-70,232,-279,-158
3440,-47,-247,-70,258,-274,-160
3445,-45,-243,-68,276,-261,-163
3450,-41,-241,-64,289,-240,-166
3455,-38,-242,-60,298,-212,-171
3460,-34,-241,-62,302,-179,-176
3465,-28,-247,-59,303,-143,-183
3470,-22,-249,-61,300,-106,-188
3475,-21,-252,-67,287,-76,-194
3480,-18,-250,-68,263,-52,-192
3485,-12,-255,-81,227,-33,-187
3490,-10,-255,-93,181,-19,-177
3495,-4,-262,-110,128,-8,-163
3500,-3,-264,-125,74,-5,-148
3505,-1,-268,-131,24,-18,-132
3510,-2,-270,-140,-19,-43,-115
3515,-2,-275,-146,-46,-80,-94
3520,-9,-280,-152,-59,-122,-70
3525,-11,-290,-142,-57,-160,-50
3530,-11,-293,-139,-35,-191,-31
3535,-19,-294,-130,-2,-204,-8
3540,-25,-303,-121,42,-217,5
3545,-20,-304,-119,79,-234,2
3550,-20,-305,-118,101,-244,3
3555,-20,-298,-120,111,-248,5
3560,-12,-293,-123,120,-242,4
3565,-6,-284,-127,138,-221,-1
3570,-4,-273,-134,171,-187,-6
3575,-2,-260,-139,220,-140,-9
3580,1,-252,-138,271,-82,-11
3585,-1,-248,-142,314,-15,-12
3590,2,-244,-144,341,49,-13
3595,1,-235,-146,349,103,-20
3600,-5,-226,-155,340,146,-28
3605,-6,-218,-162,325,172,-37
3610,-7,-208,-163,303,191,-42
3615,-6,-204,-158,279,204,-46
3620,-9,-197,-157,255,207,-48
3625,-10,-196,-154,230,205,-46
3630,-10,-190,-151,211,199,-36
3635,-1,-182,-148,195,198,-25
3640,10,-182,-148,183,200,-20
3645,20,-177,-142,173,207,-19
3650,31,-174,-146,169,216,-16
3655,35,-173,-139,166,226,-15
3660,37,-167,-140,167,232,-11
3665,45,-168,-135,166,233,-5
3670,48,-167,-134,162,228,-1
3675,51,-169,-133,154,218,1
3680,56,-170,-132,145,207,4
3685,55,-172,-125,134,196,-2
3690,54,-175,-128,125,187,-8
3695,51,-183,-123,113,174,-20
3700,42,-187,-115,103,162,-31
3705,35,-190,-124,91,149,-49
3710,33,-197,-118,81,131,-66
3715,28,-202,-120,69,113,-85
3720,17,-208,-119,59,93,-108
3725,6,-210,-118,49,70,-127
3730,2,-215,-118,37,49,-149
3735,-4,-216,-119,25,28,-170
3740,-5,-221,-112,13,11,-189
3745,-11,-223,-120,1,-2,-205
3750,-15,-219,-119,-9,-13,-223
3755,-16,-222,-117,-14,-24,-239
3760,-19,-221,-113,-15,-32,-256
3765,-17,-222,-118,-14,-39,-270
3770,-14,-217,-118,-3,-44,-279
3775,-7,-216,-115,12,-47,-286
3780,0,-214,-118,24,-52,-291
3785,2,-209,-119,37,-55,-290
3790,4,-206,-117,49,-63,-289
3795,11,-205,-113,61,-74,-288
3800,15,-205,-113,69,-89,-288
3805,19,-201,-112,70,-104,-285
3810,31,-199,-108,68,-120,-285
3815,19,-204,-115,65,-135,-284
3820,28,-201,-108,61,-152,-282
3825,28,-199,-105,54,-165,-279
3830,30,-201,-106,45,-175,-275
3835,28,-199,-109,37,-183,-274
3840,30,-200,-106,30,-189,-269
3845,29,-202,-106,25,-190,-267
3850,29,-200,-108,15,-189,-270
3855,26,-201,-106,5,-182,-268
3860,28,-201,-106,-3,-171,-269
3865,28,-201,-111,-13,-160,-271
3870,35,-194,-100,-21,-149,-272
3875,29,-198,-106,-31,-138,-275
3880,28,-198,-103,-39,-130,-275
3885,27,-197,-102,-49,-120,-274
3890,28,-198,-105,-58,-113,-271
3895,27,-199,-105,-70,-108,-266
3900,27,-205,-101,-82,-105,-261
3905,27,-208,-98,-93,-103,-256
3910,25,-208,-101,-99,-101,-245
3915,21,-213,-97,-104,-99,-234
3920,26,-216,-92,-109,-101,-224
3925,18,-222,-85,-109,-105,-214
3930,20,-229,-86,-107,-114,-206
3935,14,-226,-88,-102,-126,-200
3940,10,-230,-85,-93,-139,-192
3945,7,-230,-88,-80,-152,-182
3950,7,-231,-83,-67,-165,-172
3955,5,-231,-82,-51,-181,-165
3960,2,-230,-83,-34,-198,-157
3965,5,-232,-81,-18,-217,-152
3970,2,-229,-73,-3,-239,-145
3975,-3,-225,-75,12,-259,-141
3980,-4,-229,-72,26,-282,-140
3985,-5,-220,-71,37,-306,-142
3990,-4,-220,-73,48,-328,-140
3995,-8,-218,-75,58,-354,-140
4000,-7,-221,-71,70,-381,-141
4005,-9,-218,-71,83,-409,-143
4010,-10,-218,-69,95,-439,-146
4015,-9,-221,-66,105,-467,-148
4020,-7,-225,-65,116,-496,-152
4025,-10,-225,-64,127,-522,-153
4030,-11,-224,-67,136,-546,-160
4035,-4,-224,-66,146,-570,-161
4040,-10,-231,-62,156,-590,-162
4045,-8,-234,-60,171,-610,-162
4050,-12,-234,-58,181,-629,-174
4055,0,-238,-60,195,-634,-174
4060,0,-240,-63,227,-628,-159
4065,1,-244,-58,264,-621,-145
4070,4,-246,-59,298,-611,-133
4075,4,-242,-59,332,-594,-118
4080,9,-246,-53,361,-573,-106
4085,6,-243,-58,386,-546,-92
4090,16,-245,-59,403,-519,-81
4095,24,-246,-62,412,-489,-69
4100,28,-245,-65,418,-457,-56
4105,32,-244,-69,417,-427,-43
4110,37,-243,-66,414,-402,-29
4115,44,-249,-66,410,-384,-16
4120,50,-252,-60,412,-374,-1
4125,47,-249,-51,422,-372,16
4130,45,-255,-44,439,-371,30
4135,39,-258,-37,457,-373,42
4140,32,-263,-36,476,-374,50
4145,20,-262,-34,488,-371,54
4150,14,-265,-38,491,-371,50
4155,10,-267,-48,475,-367,33
4160,11,-263,-61,429,-362,5
4165,4,-265,-80,348,-352,-22
4170,2,-268,-110,223,-336,-63
4175,0,-264,-135,63,-302,-109
4180,7,-271,-172,-116,-244,-160
4185,21,-283,-192,-281,-148,-214
4190,37,-293,-211,-392,-17,-263
4195,62,-311,-197,-424,129,-318
4200,76,-316,-195,-367,269,-370
4205,85,-321,-189,-243,384,-411
4210,77,-320,-178,-77,467,-431
4215,79,-316,-167,88,508,-442
4220,68,-319,-152,238,533,-411
4225,60,-316,-146,370,527,-368
4230,56,-314,-144,475,489,-319
4235,49,-305,-143,552,424,-261
4240,39,-290,-142,604,340,-205
4245,27,-270,-135,628,239,-159
4250,23,-258,-133,630,128,-124
4255,8,-246,-133,605,5,-94
4260,1,-230,-139,549,-127,-74
4265,-8,-211,-139,486,-252,-69
4270,-21,-195,-148,430,-364,-72
4275,-33,-185,-150,383,-458,-80
4280,-40,-175,-159,352,-529,-94
4285,-49,-166,-158,329,-574,-112
4290,-57,-160,-158,289,-605,-125
4295,-53,-162,-154,231,-621,-135
4300,-51,-167,-149,155,-622,-132
4305,-41,-170,-143,76,-601,-120
4310,-26,-180,-140,-1,-560,-108
4315,-10,-187,-135,-66,-499,-95
4320,16,-197,-132,-111,-425,-88
4325,29,-198,-131,-130,-342,-83
4330,33,-203,-126,-122,-265,-78
4335,48,-210,-125,-91,-201,-69
4340,57,-210,-121,-40,-152,-57
4345,59,-216,-114,23,-119,-42
4350,58,-215,-119,86,-95,-11
4355,58,-217,-122,130,-75,26
4360,57,-221,-110,147,-61,63
4365,62,-222,-112,141,-48,102
4370,57,-223,-112,122,-34,144
4375,54,-221,-115,101,-26,186
4380,49,-219,-112,85,-22,221
4385,44,-217,-113,83,-20,254
4390,38,-215,-119,89,-15,289
4395,32,-213,-122,99,-9,321
4400,28,-212,-118,113,-3,343
4405,27,-206,-116,119,5,362
4410,21,-204,-116,125,18,373
4415,21,-204,-111,131,31,372
4420,16,-198,-112,129,43,366
4425,12,-193,-106,120,61,362
4430,12,-191,-100,107,79,351
4435,8,-190,-99,94,101,337
4440,8,-189,-98,82,126,326
4445,3,-182,-94,72,152,317
4450,2,-182,-96,68,177,306
4455,0,-179,-93,67,199,297
4460,1,-177,-93,69,218,285
4465,2,-177,-94,76,234,275
4470,-7,-172,-91,79,248,266
4475,-5,-174,-94,75,261,264
4480,-6,-172,-94,66,271,262
4485,-10,-174,-92,52,281,266
4490,-15,-178,-90,33,283,272
4495,-18,-181,-86,9,275,276
4500,-24,-185,-86,-19,266,275
4505,-21,-189,-82,-50,256,276
4510,-23,-189,-86,-84,241,274
4515,-24,-195,-84,-116,227,271
4520,-30,-198,-81,-150,214,268
4525,-26,-204,-82,-177,204,261
4530,-27,-210,-80,-198,197,251
4535,-23,-216,-82,-218,192,236
4540,-22,-223,-77,-233,193,219
4545,-19,-223,-73,-238,197,199
4550,-16,-226,-71,-231,204,178
4555,-12,-227,-74,-215,214,154
4560,-9,-226,-71,-193,225,131
4565,-3,-226,-75,-169,237,106
4570,-1,-224,-70,-150,250,83
4575,0,-222,-67,-129,261,62
4580,1,-222,-67,-110,269,41
4585,1,-224,-68,-91,271,22
4590,0,-219,-64,-72,268,9
4595,1,-222,-60,-53,264,-2
4600,0,-221,-53,-29,260,-11
4605,-3,-229,-52,-3,259,-19
4610,2,-230,-58,21,256,-28
4615,-2,-232,-52,44,254,-37
4620,1,-233,-53,66,250,-48
4625,2,-241,-49,84,251,-59
4630,3,-243,-48,102,250,-68
4635,0,-244,-55,119,245,-76
4640,0,-245,-53,135,234,-83
4645,-9,-244,-54,148,217,-86
4650,-10,-245,-54,163,193,-86
4655,-15,-246,-52,175,166,-82
4660,-19,-248,-57,181,139,-76
4665,-19,-246,-56,181,115,-66
4670,-14,-244,-52,178,99,-56
4675,-17,-244,-57,176,87,-42
4680,-20,-245,-59,172,79,-30
4685,-14,-244,-60,169,73,-19
4690,-8,-240,-65,166,67,-8
4695,-10,-242,-64,162,54,0
4700,-10,-238,-62,161,49,13
4705,-9,-243,-61,162,52,29
4710,-8,-244,-55,160,66,47
4715,-3,-246,-50,165,88,60
4720,-1,-252,-48,170,122,73
4725,1,-257,-39,175,166,81
4730,8,-260,-34,181,216,90
4735,12,-267,-29,189,272,95
4740,15,-274,-22,199,334,107
4745,18,-279,-25,211,387,114
4750,23,-281,-37,218,433,118
4755,28,-280,-44,208,468,127
4760,31,-281,-62,173,493,140
4765,37,-278,-81,110,505,155
4770,42,-281,-104,18,508,171
4775,44,-281,-132,-93,492,187
4780,43,-287,-165,-199,450,203
4785,32,-286,-188,-279,377,213
4790,21,-288,-200,-321,290,229
4795,12,-288,-197,-327,211,252
4800,-8,-296,-185,-298,158,299
4805,-35,-313,-147,-240,117,347
4810,-51,-321,-125,-160,74,368
4815,-64,-327,-119,-69,41,381
4820,-63,-320,-123,0,2,363
4825,-58,-313,-138,42,-11,334
4830,-55,-300,-157,73,8,314
4835,-51,-284,-168,109,55,304
4840,-58,-269,-175,151,116,312
4845,-51,-266,-180,197,169,328
4850,-40,-242,-187,237,221,340
4855,-25,-223,-188,276,288,349
4860,-15,-206,-178,295,368,355
4865,0,-186,-165,301,444,358
4870,9,-179,-154,307,501,360
4875,21,-171,-152,305,543,354
4880,34,-168,-141,292,567,343
4885,31,-168,-142,272,574,328
4890,31,-160,-146,240,564,314
4895,42,-157,-152,190,535,301
4900,57,-157,-151,124,489,283
4905,62,-162,-147,44,436,256
4910,63,-175,-143,-40,386,221
4915,59,-190,-131,-107,337,187
4920,47,-201,-124,-147,294,139
4925,37,-209,-121,-167,260,98
4930,19,-217,-121,-180,238,61
4935,6,-224,-117,-186,223,25
4940,-1,-234,-121,-184,214,-12
4945,-13,-239,-117,-172,205,-50
4950,-24,-239,-114,-157,196,-88
4955,-29,-246,-114,-141,186,-125
4960,-30,-246,-111,-128,173,-161
4965,-32,-243,-109,-116,162,-201
4970,-23,-243,-112,-107,148,-247
4975,-19,-243,-111,-99,147,-281
4980,-14,-239,-113,-85,142,-310
4985,-6,-232,-115,-60,133,-336
4990,1,-227,-108,-23,121,-355
4995,8,-220,-105,21,114,-364
5000,14,-214,-107,64,105,-362
5005,16,-202,-107,99,101,-353
5010,23,-195,-100,120,100,-343
5015,29,-191,-99,122,101,-333
5020,28,-187,-97,112,102,-323
5025,29,-186,-91,92,100,-309
5030,30,-187,-91,67,97,-294
5035,30,-186,-89,45,94,-277
5040,27,-184,-87,29,88,-257
5045,24,-184,-84,21,83,-236
5050,25,-180,-82,20,74,-217
5055,23,-175,-86,23,63,-197
5060,22,-167,-86,27,52,-183
5065,17,-171,-88,29,41,-167
5070,17,-172,-85,29,28,-155
5075,12,-170,-87,29,18,-143
5080,12,-170,-90,29,4,-132
5085,13,-169,-85,22,-10,-124
5090,14,-172,-88,12,-24,-116
5095,13,-175,-89,-3,-37,-109
5100,17,-177,-89,-27,-57,-112
5105,17,-176,-90,-56,-70,-112
5110,25,-185,-87,-81,-79,-103
5115,24,-193,-89,-101,-87,-98
5120,26,-193,-86,-122,-90,-90
5125,31,-201,-90,-138,-91,-81
5130,31,-203,-89,-150,-86,-74
5135,30,-212,-83,-158,-79,-63
5140,30,-216,-82,-159,-73,-53
5145,29,-218,-81,-157,-66,-39
5150,31,-222,-80,-147,-62,-24
5155,29,-222,-77,-131,-61,-8
5160,26,-220,-70,-109,-62,8
5165,26,-224,-69,-85,-66,26
5170,21,-227,-62,-59,-71,40
5175,25,-229,-60,-35,-77,54
5180,18,-226,-57,-12,-87,67
5185,16,-231,-55,9,-102,76
5190,9,-230,-52,30,-118,87
5195,5,-230,-48,47,-139,95
5200,1,-231,-44,66,-164,102
5205,-2,-231,-47,87,-191,107
5210,-10,-237,-45,101,-222,112
5215,-12,-240,-44,112,-253,118
5220,-12,-247,-44,119,-280,126
5225,-12,-250,-45,123,-298,131
5230,-13,-250,-44,126,-300,135
5235,-11,-254,-44,130,-286,132
5240,-3,-251,-49,133,-264,118
5245,12,-250,-56,140,-219,114
5250,19,-252,-58,165,-153,127
5255,25,-246,-68,197,-89,135
5260,31,-239,-77,227,-24,146
5265,32,-225,-91,243,46,154
5270,45,-210,-96,236,115,162
5275,59,-212,-95,208,171,167
5280,69,-217,-81,178,204,167
5285,78,-226,-66,169,210,170
5290,80,-242,-50,189,194,175
5295,70,-253,-33,228,166,182
5300,53,-263,-24,263,134,182
5305,32,-273,-24,288,102,176
5310,21,-280,-28,296,74,161
5315,7,-294,-42,286,52,135
5320,-6,-296,-64,249,42,98
5325,-9,-302,-89,182,44,47
5330,-17,-302,-125,82,66,-5
5335,-18,-300,-142,-49,106,-58
5340,-10,-304,-165,-199,165,-106
5345,1,-316,-168,-328,247,-155
5350,18,-320,-164,-395,357,-209
5355,36,-332,-165,-394,483,-267
5360,60,-333,-161,-334,603,-328
5365,70,-334,-152,-232,716,-372
5370,80,-336,-146,-100,800,-389
5375,76,-335,-126,59,843,-379
5380,72,-326,-124,229,830,-358
5385,63,-314,-121,380,774,-319
5390,58,-308,-121,501,690,-264
5395,52,-303,-127,594,589,-211
5400,33,-286,-136,653,482,-174
5405,18,-273,-143,678,371,-153
5410,5,-256,-147,675,256,-140
5415,-6,-240,-146,654,133,-128
5420,-17,-225,-148,612,4,-118
5425,-22,-209,-153,558,-115,-109
5430,-38,-191,-152,500,-215,-103
5435,-52,-176,-163,441,-292,-98
5440,-55,-164,-168,378,-345,-96
5445,-63,-158,-174,312,-380,-91
5450,-65,-147,-176,239,-404,-87
5455,-64,-153,-174,162,-423,-79
5460,-60,-158,-171,77,-434,-67
5465,-50,-165,-159,0,-432,-52
5470,-33,-180,-154,-66,-418,-39
5475,-12,-188,-144,-113,-389,-35
5480,7,-199,-136,-135,-347,-39
5485,22,-201,-132,-126,-291,-52
5490,24,-210,-122,-95,-235,-64
5495,38,-214,-122,-47,-185,-76
5500,51,-217,-121,7,-135,-80
5505,57,-220,-115,61,-87,-75
5510,60,-225,-110,109,-36,-58
5515,63,-230,-109,140,10,-28
5520,62,-230,-103,148,47,10
5525,63,-233,-99,141,77,54
5530,61,-232,-108,122,90,98
5535,52,-232,-109,102,96,147
5540,51,-234,-111,89,97,195
5545,45,-229,-117,86,94,244
5550,39,-222,-117,102,93,285
5555,32,-216,-113,131,100,326
5560,29,-204,-115,157,104,354
5565,21,-201,-105,179,114,378
5570,13,-193,-101,196,113,381
5575,15,-188,-101,199,117,376
5580,13,-181,-92,181,127,372
5585,14,-176,-96,148,139,367
5590,11,-176,-90,109,156,368
5595,11,-173,-87,74,174,360
5600,12,-172,-87,40,188,348
5605,10,-171,-84,12,206,335
5610,6,-170,-84,-9,226,327
5615,3,-169,-82,-22,246,315
5620,2,-174,-84,-30,267,309
5625,4,-176,-82,-25,287,303
5630,-1,-174,-81,-13,303,294
5635,-2,-175,-81,-1,318,284
5640,-8,-177,-83,4,331,271
5645,-9,-180,-80,2,341,263
5650,-11,-182,-79,-3,349,256
5655,-7,-183,-81,-17,356,259
5660,-11,-192,-78,-36,363,263
5665,-15,-193,-81,-61,365,265
5670,-15,-199,-81,-86,365,263
5675,-17,-200,-76,-105,364,263
5680,-20,-204,-79,-129,358,262
5685,-17,-206,-75,-154,352,254
5690,-14,-211,-75,-172,347,244
5695,-12,-214,-73,-180,346,230
5700,-14,-213,-70,-179,345,213
5705,-16,-217,-66,-168,340,193
5710,-17,-213,-68,-151,335,170
5715,-6,-215,-65,-136,330,153
5720,-10,-211,-62,-120,325,134
5725,-1,-213,-59,-98,320,116
5730,-2,-209,-59,-73,318,97
5735,-6,-210,-58,-45,313,80
5740,-6,-211,-61,-18,308,65
5745,-6,-206,-59,4,304,54
5750,-2,-209,-56,22,301,46
5755,-8,-208,-62,30,301,40
5760,-5,-211,-59,27,304,36
5765,1,-214,-63,21,310,33
5770,-2,-224,-57,15,312,30
5775,0,-224,-59,11,318,25
5780,0,-229,-57,9,325,22
5785,-2,-237,-59,13,331,22
5790,1,-239,-57,16,335,23
5795,2,-248,-62,19,334,26
5800,7,-253,-56,26,332,33
5805,8,-255,-60,32,326,45
5810,8,-255,-59,36,321,57
5815,12,-263,-58,42,314,71
5820,7,-270,-51,49,305,88
5825,7,-266,-51,61,291,102
5830,2,-273,-53,77,274,115
5835,-1,-276,-56,98,251,130
5840,-5,-276,-54,120,226,143
5845,-14,-281,-59,146,201,158
5850,-24,-282,-55,166,183,181
5855,-22,-286,-51,184,181,201
5860,-26,-289,-45,209,193,222
5865,-26,-289,-35,234,223,238
5870,-29,-295,-42,260,264,251
5875,-20,-291,-44,275,311,261
5880,-15,-291,-57,268,353,272
5885,-12,-289,-64,228,387,286
5890,-3,-289,-80,153,408,296
5895,4,-291,-100,53,413,315
5900,8,-297,-114,-60,403,333
5905,10,-304,-129,-168,373,355
5910,19,-312,-147,-249,317,377
5915,24,-320,-153,-294,242,397
5920,24,-321,-154,-294,159,424
5925,21,-328,-150,-255,92,460
5930,9,-328,-140,-178,49,506
5935,0,-333,-130,-66,32,539
5940,-1,-336,-131,69,45,546
5945,-3,-328,-152,194,85,520
5950,-1,-314,-167,274,156,479
5955,3,-299,-188,314,257,434
5960,0,-278,-190,335,377,394
5965,-14,-261,-195,345,486,371
5970,-16,-243,-197,345,561,353
5975,-15,-221,-192,336,622,347
5980,-9,-198,-190,302,704,351
5985,6,-188,-180,248,802,356
5990,13,-177,-163,201,892,356
5995,14,-174,-159,163,961,353
6000,10,-171,-155,148,1003,349
6005,12,-164,-152,151,1007,346
6010,21,-161,-154,155,979,352
6015,44,-156,-149,154,927,356
6020,56,-158,-156,123,867,354
6025,60,-170,-146,61,812,346
6030,60,-182,-136,-15,760,323
6035,57,-198,-122,-89,710,288
6040,50,-209,-126,-149,670,250
6045,37,-222,-120,-191,635,215
6050,21,-228,-125,-206,609,182
6055,10,-233,-126,-194,590,149
6060,-2,-239,-120,-167,580,120
6065,-13,-235,-122,-136,575,89
6070,-21,-239,-116,-112,572,53
6075,-27,-236,-106,-98,566,16
6080,-26,-244,-101,-94,558,-24
6085,-26,-237,-105,-93,548,-62
6090,-23,-235,-99,-86,534,-102
6095,-17,-232,-97,-77,516,-141
6100,-17,-226,-96,-59,510,-161
6105,-8,-219,-99,-29,499,-178
6110,0,-216,-101,2,494,-188
6115,3,-210,-99,38,487,-194
6120,11,-199,-100,70,484,-195
6125,14,-193,-98,94,479,-194
6130,21,-190,-94,108,475,-188
6135,20,-182,-91,109,471,-182
6140,22,-186,-83,103,463,-175
6145,24,-182,-84,96,453,-168
6150,27,-181,-77,88,442,-159
6155,24,-181,-73,85,429,-146
6160,25,-179,-71,88,413,-135
6165,21,-175,-73,94,394,-122
6170,18,-170,-65,100,374,-104
6175,13,-171,-67,108,350,-85
6180,12,-169,-65,117,325,-62
6185,11,-167,-58,126,299,-41
6190,9,-163,-63,132,275,-22
6195,8,-164,-63,136,252,-4
6200,7,-159,-64,131,228,9
6205,13,-154,-66,121,205,18
6210,10,-154,-66,105,185,27
6215,17,-150,-69,83,165,35
6220,14,-151,-68,57,145,45
6225,20,-154,-73,22,122,44
6230,26,-157,-71,-16,104,45
6235,28,-159,-75,-54,90,55
6240,28,-167,-72,-94,76,66
6245,31,-178,-70,-128,64,77
6250,33,-189,-70,-158,56,86
6255,32,-198,-66,-181,49,97
6260,32,-202,-71,-196,45,105
6265,33,-214,-66,-204,45,111
6270,38,-226,-63,-206,46,117
6275,40,-235,-60,-196,46,121
6280,39,-244,-61,-179,46,121
6285,39,-251,-50,-147,39,121
6290,43,-260,-46,-105,30,124
6295,37,-267,-43,-50,14,126
6300,33,-268,-35,14,-5,133
6305,27,-272,-30,78,-30,142
6310,24,-273,-34,144,-58,157
6315,13,-268,-35,207,-88,177
6320,11,-273,-35,264,-114,199
6325,4,-271,-33,310,-134,220
6330,1,-268,-33,350,-145,237
6335,-1,-263,-38,384,-141,254
6340,0,-264,-42,410,-121,266
6345,1,-256,-48,423,-82,277
6350,1,-248,-69,423,-25,289
6355,4,-235,-79,402,47,301
6360,22,-223,-87,370,127,308
6365,34,-219,-88,328,201,301
6370,47,-222,-73,289,254,282
6375,62,-227,-59,265,272,257
6380,65,-232,-42,261,262,230
6385,65,-240,-30,272,239,203
6390,60,-247,-17,278,209,176
6395,48,-256,-10,278,182,142
6400,42,-266,-17,268,166,105
6405,36,-273,-34,234,160,64
6410,31,-281,-61,162,163,17
6415,28,-284,-78,46,170,-40
6420,23,-292,-125,-112,176,-106
6425,20,-303,-160,-298,186,-174
6430,14,-320,-185,-481,212,-228
6435,38,-332,-199,-623,251,-295
6440,59,-347,-207,-662,350,-321
6445,71,-350,-208,-606,468,-337
6450,86,-357,-205,-469,581,-341
6455,93,-365,-185,-287,664,-343
6460,94,-368,-167,-96,717,-336
6465,81,-367,-151,77,752,-315
6470,66,-357,-156,212,767,-293
6475,50,-338,-160,307,754,-271
6480,30,-316,-166,387,704,-252
6485,16,-284,-176,459,618,-231
6490,11,-257,-176,515,508,-211
6495,0,-242,-182,543,382,-189
6500,-21,-225,-178,542,246,-170
6505,-37,-212,-178,509,101,-156
6510,-54,-205,-173,445,-26,-150
6515,-68,-195,-181,354,-130,-140
6520,-79,-196,-177,251,-201,-129
6525,-78,-193,-189,163,-231,-117
6530,-77,-193,-184,108,-227,-108
6535,-65,-192,-179,52,-204,-97
6540,-53,-194,-175,17,-164,-94
6545,-47,-197,-167,8,-114,-83
6550,-28,-193,-160,16,-55,-76
6555,-20,-197,-148,31,8,-72
6560,-7,-199,-134,38,68,-62
6565,10,-203,-123,35,122,-51
6570,20,-205,-110,34,162,-29
6575,30,-205,-111,35,210,2
6580,52,-215,-103,38,246,41
6585,64,-217,-101,45,278,83
6590,75,-214,-99,61,303,130
6595,83,-214,-104,86,319,176
6600,86,-215,-103,115,334,229
6605,86,-216,-106,145,349,279
6610,86,-216,-106,172,360,322
6615,76,-211,-102,193,379,376
6620,62,-215,-101,209,397,418
6625,48,-214,-100,218,407,439
6630,33,-201,-109,223,418,448
6635,31,-202,-101,216,431,453
6640,27,-194,-96,202,446,462
6645,24,-185,-95,179,466,475
6650,16,-178,-95,149,485,489
6655,10,-169,-95,112,495,496
6660,6,-165,-93,73,502,497
6665,2,-159,-89,35,506,495
6670,-1,-159,-91,1,508,489
6675,-5,-150,-91,-35,510,480
6680,-9,-150,-89,-61,512,469
6685,-6,-148,-87,-79,512,449
6690,-14,-146,-79,-88,517,432
6695,-12,-148,-81,-92,523,413
6700,-17,-148,-79,-96,532,393
6705,-16,-152,-81,-99,542,371
6710,-17,-157,-75,-96,553,350
6715,-15,-161,-79,-92,562,328
6720,-16,-167,-82,-95,568,305
6725,-17,-170,-80,-102,570,289
6730,-19,-176,-81,-108,568,272
6735,-21,-183,-86,-119,562,263
6740,-21,-190,-83,-127,552,256
6745,-25,-196,-81,-135,538,244
6750,-27,-199,-80,-144,522,232
6755,-27,-206,-78,-155,508,220
6760,-28,-214,-73,-158,491,206
6765,-32,-220,-68,-149,473,191
6770,-32,-227,-65,-138,454,171
6775,-31,-227,-58,-126,436,149
6780,-26,-236,-55,-105,419,127
6785,-27,-236,-58,-74,404,105
6790,-26,-238,-55,-41,393,83
6795,-23,-234,-48,-5,381,61
6800,-19,-234,-49,33,369,43
6805,-17,-233,-46,70,357,25
6810,-8,-236,-45,104,345,7
6815,-7,-237,-47,134,336,-10
6820,-7,-235,-42,163,327,-24
6825,-4,-236,-46,196,323,-38
6830,-3,-235,-47,227,318,-49
6835,-1,-232,-40,253,315,-56
6840,0,-235,-44,273,309,-63
6845,2,-241,-43,285,300,-61
6850,0,-236,-45,291,291,-59
6855,-2,-237,-45,294,281,-52
6860,0,-241,-48,294,270,-46
6865,3,-243,-47,293,261,-36
6870,11,-245,-49,293,252,-32
6875,15,-242,-51,290,246,-30
6880,18,-247,-51,292,243,-30
6885,18,-245,-51,290,236,-34
6890,17,-248,-56,278,219,-35
6895,11,-247,-54,269,190,-33
6900,2,-250,-56,262,158,-24
6905,0,-250,-55,254,131,-7
6910,-10,-254,-55,261,115,12
6915,-12,-258,-45,275,124,38
6920,-7,-265,-34,287,158,60
6925,-3,-271,-23,298,212,83
6930,5,-274,-13,313,282,102
6935,12,-279,-12,321,355,119
6940,17,-285,-24,309,424,141
6945,29,-289,-44,265,474,167
6950,33,-291,-64,183,496,198
6955,49,-300,-91,60,489,221
6960,54,-302,-121,-95,463,250
6965,60,-312,-161,-259,417,291
6970,53,-315,-193,-395,341,333
6975,40,-317,-211,-466,239,371
6980,26,-321,-211,-474,136,409
6985,9,-328,-199,-431,66,457
6990,-16,-345,-163,-341,30,509
6995,-35,-366,-133,-213,15,553
7000,-41,-362,-128,-71,14,573
7005,-31,-351,-141,53,37,564
7010,-28,-339,-160,145,99,545
7015,-38,-315,-185,213,181,518
7020,-41,-288,-200,264,254,497
7025,-42,-266,-208,304,310,482
7030,-40,-242,-206,328,383,476
7035,-32,-225,-202,330,487,478
7040,-18,-203,-185,321,596,474
7045,-13,-185,-174,306,700,464
7050,-11,-174,-165,283,786,457
7055,-15,-160,-163,257,832,449
7060,-24,-148,-160,230,830,444
7065,0,-143,-160,193,787,436
7070,20,-144,-162,138,719,425
7075,31,-150,-156,57,639,406
7080,35,-171,-147,-36,557,377
7085,35,-181,-137,-123,478,336
7090,34,-203,-128,-191,408,287
7095,30,-217,-121,-241,351,240
7100,14,-232,-124,-270,306,195
7105,1,-243,-122,-268,272,155
7110,-6,-246,-119,-241,251,117
7115,-28,-252,-120,-192,240,77
7120,-32,-254,-118,-140,235,33
7125,-40,-255,-116,-100,229,-18
7130,-41,-250,-113,-72,221,-74
7135,-42,-251,-112,-50,212,-129
7140,-39,-244,-112,-31,205,-178
7145,-35,-237,-111,-10,200,-225
7150,-23,-228,-105,11,197,-268
7155,-16,-221,-103,34,194,-306
7160,-6,-208,-98,55,195,-335
7165,0,-201,-101,64,191,-359
7170,8,-195,-101,63,192,-372
7175,11,-191,-91,57,192,-377
7180,20,-186,-88,47,192,-377
7185,26,-177,-81,39,196,-372
7190,28,-174,-82,29,197,-364
7195,29,-172,-77,18,196,-353
7200,29,-167,-75,2,189,-344
7205,26,-167,-71,-12,177,-331
7210,28,-166,-79,-27,164,-309
7215,23,-164,-73,-35,147,-284
7220,21,-160,-74,-43,126,-257
7225,13,-157,-67,-48,101,-228
7230,12,-161,-69,-46,78,-201
7235,4,-161,-68,-36,53,-174
7240,2,-163,-65,-23,31,-146
7245,0,-160,-65,-8,9,-121
7250,-1,-158,-60,8,-9,-102
7255,0,-161,-62,25,-27,-82
7260,0,-156,-61,38,-43,-67
7265,2,-162,-60,44,-60,-57
7270,2,-160,-63,42,-76,-49
7275,1,-159,-64,32,-96,-44
7280,9,-155,-64,9,-114,-42
7285,15,-168,-67,-17,-127,-34
7290,16,-174,-67,-42,-141,-25
7295,22,-180,-67,-71,-155,-18
7300,22,-184,-69,-95,-162,-6
7305,26,-195,-69,-117,-166,7
7310,27,-203,-69,-134,-172,16
7315,32,-212,-67,-144,-173,29
7320,31,-219,-61,-140,-168,43
7325,35,-231,-62,-124,-162,56
7330,35,-230,-52,-97,-157,67
7335,33,-244,-47,-61,-154,71
7340,33,-249,-42,-16,-152,76
7345,29,-253,-35,33,-152,77
7350,29,-256,-33,83,-154,75
7355,24,-259,-29,132,-159,74
7360,17,-261,-21,177,-167,73
7365,20,-264,-18,224,-175,73
7370,7,-265,-22,271,-172,72
7375,5,-267,-23,315,-162,78
7380,7,-268,-29,356,-146,82
7385,6,-257,-46,389,-119,89
7390,17,-257,-46,412,-77,95
7395,24,-260,-46,433,-24,100
7400,25,-256,-46,450,36,99
7405,27,-251,-54,467,98,94
7410,27,-243,-69,465,159,93
7415,32,-225,-83,437,220,96
7420,47,-221,-84,385,283,94
7425,57,-220,-77,325,337,82
7430,71,-228,-63,279,367,61
7435,80,-234,-46,269,371,37
7440,67,-244,-31,285,355,15
7445,62,-252,-18,307,326,-4
7450,48,-256,-17,324,288,-23
7455,29,-268,-13,329,251,-43
7460,20,-281,-23,314,211,-66
7465,4,-289,-42,269,176,-95
7470,-9,-295,-65,187,146,-131
7475,-20,-302,-91,61,125,-173
7480,-30,-303,-127,-71,120,-209
7485,-24,-308,-162,-264,146,-240
7490,-2,-326,-189,-457,219,-274
7495,23,-342,-197,-587,346,-308
7500,40,-346,-205,-623,505,-344
7505,64,-351,-214,-573,653,-393
7510,69,-353,-209,-458,752,-454
7515,95,-360,-195,-314,806,-499
7520,91,-361,-184,-134,841,-489
7525,86,-360,-172,50,842,-469
7530,67,-345,-166,214,814,-441
7535,49,-322,-165,352,750,-411
7540,34,-293,-167,462,654,-377
7545,26,-266,-158,552,539,-349
7550,4,-248,-163,616,419,-327
7555,-13,-232,-165,638,288,-312
7560,-37,-221,-159,610,147,-304
7565,-63,-213,-160,542,4,-300
7570,-78,-204,-159,445,-133,-296
7575,-86,-201,-158,349,-241,-284
7580,-100,-194,-169,267,-301,-261
7585,-98,-192,-182,203,-314,-234
7590,-94,-190,-182,164,-295,-211
7595,-78,-185,-186,153,-255,-201
7600,-66,-189,-182,153,-213,-200
7605,-52,-187,-170,152,-179,-202
7610,-25,-192,-156,139,-148,-204
7615,-4,-202,-133,123,-112,-211
7620,10,-212,-117,102,-71,-213
7625,27,-219,-104,76,-26,-211
7630,35,-224,-100,46,20,-201
7635,55,-228,-97,20,64,-182
7640,67,-234,-103,7,109,-153
7645,78,-232,-105,14,149,-110
7650,79,-228,-113,38,181,-59
7655,88,-237,-122,75,198,2
7660,92,-235,-118,130,217,65
7665,84,-235,-112,190,229,133
7670,77,-236,-107,246,231,193
7675,71,-221,-103,291,235,241
7680,50,-229,-99,310,249,295
7685,35,-217,-95,319,251,320
7690,28,-205,-94,316,253,326
7695,17,-192,-92,302,259,330
7700,7,-179,-95,274,264,333
7705,4,-171,-91,239,266,333
7710,0,-161,-92,203,266,330
7715,-8,-160,-83,168,262,329
7720,-12,-154,-81,132,259,323
7725,-16,-150,-81,97,252,309
7730,-20,-150,-76,67,244,292
7735,-17,-149,-71,45,234,270
7740,-17,-145,-65,31,225,243
7745,-17,-146,-65,21,221,218
7750,-13,-147,-64,15,225,191
7755,-14,-146,-68,10,235,166
7760,-11,-152,-70,-2,254,143
7765,-16,-147,-66,-20,276,119
7770,-8,-153,-73,-40,304,97
7775,-7,-161,-73,-62,332,72
7780,-10,-163,-69,-85,358,52
7785,-10,-168,-74,-108,381,33
7790,-13,-178,-73,-127,395,17
7795,-11,-186,-70,-145,400,1
7800,-13,-192,-73,-165,396,-12
7805,-13,-199,-65,-182,385,-24
7810,-15,-204,-66,-198,369,-31
7815,-13,-210,-64,-206,353,-39
7820,-7,-226,-54,-205,337,-46
7825,-10,-226,-59,-199,321,-54
7830,-6,-233,-58,-182,309,-64
7835,-6,-234,-57,-159,301,-73
7840,-3,-240,-52,-133,296,-79
7845,-2,-243,-51,-105,292,-89
7850,0,-246,-51,-70,293,-96
7855,1,-251,-51,-32,299,-105
7860,3,-252,-48,14,305,-117
7865,6,-254,-47,59,316,-127
7870,11,-257,-45,107,328,-140
7875,7,-253,-48,156,345,-153
7880,15,-255,-46,205,364,-165
7885,18,-249,-41,250,383,-178
7890,21,-245,-44,288,405,-189
7895,24,-246,-48,322,429,-196
7900,31,-243,-47,349,453,-201
7905,25,-239,-45,372,475,-203
7910,31,-243,-39,389,493,-203
7915,31,-245,-43,400,504,-201
7920,36,-247,-37,407,515,-198
7925,38,-247,-46,411,522,-198
7930,39,-249,-42,413,520,-202
7935,33,-245,-45,417,506,-199
7940,42,-236,-63,414,468,-204
7945,21,-228,-71,415,416,-209
7950,4,-223,-75,412,358,-196
7955,-1,-223,-68,391,326,-166
7960,-10,-232,-49,354,334,-121
7965,-13,-239,-42,317,379,-71
7970,-9,-249,-27,290,444,-24
7975,6,-259,-5,276,521,18
7980,24,-275,7,279,604,57
7985,44,-286,16,303,689,97
7990,54,-291,15,347,761,128
7995,66,-301,16,409,819,157
8000,70,-302,11,479,867,188
8005,78,-304,2,532,907,230
8010,91,-301,-24,559,928,256
8015,103,-289,-53,554,924,254
8020,114,-272,-99,488,915,249
8025,83,-264,-142,357,878,252
8030,59,-253,-195,205,767,230
8035,28,-248,-227,24,630,224
8040,2,-262,-229,-151,480,254
8045,-42,-278,-221,-266,312,307
8050,-89,-300,-193,-302,135,380
8055,-131,-318,-174,-268,-52,464
8060,-161,-330,-159,-192,-232,553
8065,-165,-337,-156,-114,-383,637
8070,-164,-340,-159,-52,-486,696
8075,-151,-331,-172,-22,-543,726
8080,-128,-323,-188,-27,-555,721
8085,-107,-313,-203,-60,-519,689
8090,-84,-305,-208,-100,-452,633
8095,-60,-291,-217,-134,-373,563
8100,-34,-277,-213,-165,-297,491
8105,-12,-258,-213,-185,-233,420
8110,12,-249,-207,-199,-182,355
8115,39,-240,-192,-205,-138,301
8120,49,-237,-181,-195,-96,255
8125,64,-236,-174,-169,-52,220
8130,72,-226,-167,-131,-22,189
8135,87,-221,-165,-87,-6,162
8140,101,-220,-162,-41,-4,138
8145,113,-215,-153,3,-8,115
8150,121,-209,-142,41,-7,96
8155,120,-210,-138,68,3,77
8160,113,-205,-123,82,20,61
8165,104,-205,-112,82,36,39
8170,92,-206,-105,73,49,18
8175,73,-204,-105,54,56,0
8180,57,-201,-95,30,51,-19
8185,39,-202,-98,9,36,-40
8190,23,-198,-88,-11,8,-65
8195,17,-203,-94,-33,-27,-94
8200,1,-199,-99,-61,-68,-129
8205,-6,-198,-98,-97,-106,-173
8210,-14,-197,-100,-138,-137,-211
8215,-27,-199,-102,-168,-159,-247
8220,-29,-198,-109,-186,-173,-281
8225,-33,-197,-101,-187,-175,-313
8230,-32,-190,-97,-165,-165,-339
8235,-32,-186,-96,-131,-152,-364
8240,-23,-175,-94,-104,-136,-387
8245,-15,-171,-96,-87,-118,-396
8250,-6,-165,-98,-92,-107,-403
8255,1,-163,-91,-124,-102,-403
8260,9,-162,-95,-175,-96,-397
8265,15,-162,-98,-238,-92,-385
8270,21,-167,-97,-306,-95,-370
8275,31,-167,-98,-370,-106,-351
8280,28,-171,-101,-418,-126,-330
8285,32,-174,-103,-453,-153,-304
8290,30,-176,-95,-468,-181,-275
8295,32,-183,-97,-466,-212,-246
8300,31,-184,-98,-457,-236,-218
8305,32,-193,-93,-442,-253,-195
8310,34,-186,-97,-427,-265,-180
8315,36,-185,-101,-420,-271,-169
8320,41,-184,-101,-424,-273,-165
8325,45,-186,-104,-434,-271,-162
8330,47,-190,-108,-450,-264,-159
8335,51,-192,-102,-468,-256,-157
8340,57,-196,-107,-489,-244,-153
8345,60,-204,-106,-511,-233,-152
8350,59,-206,-105,-529,-222,-146
8355,63,-212,-106,-548,-214,-145
8360,55,-216,-105,-567,-207,-143
8365,66,-218,-110,-582,-191,-133
8370,66,-222,-110,-579,-170,-114
8375,64,-224,-107,-571,-152,-100
8380,63,-228,-107,-554,-133,-89
8385,58,-226,-105,-535,-114,-79
8390,54,-232,-106,-518,-88,-67
8395,49,-231,-105,-506,-64,-53
8400,40,-231,-99,-497,-42,-39
8405,37,-234,-104,-491,-18,-24
8410,32,-234,-105,-486,0,-6
8415,27,-241,-106,-478,11,17
8420,17,-237,-96,-466,16,37
8425,14,-238,-93,-447,14,56
8430,6,-235,-88,-424,8,73
8435,4,-237,-89,-401,-2,90
8440,3,-235,-90,-378,-14,102
8445,1,-231,-90,-355,-25,115
8450,3,-226,-86,-336,-41,123
8455,0,-225,-85,-314,-55,132
8460,-2,-218,-89,-290,-72,135
8465,-3,-219,-87,-270,-89,137
8470,-5,-220,-79,-251,-108,135
8475,-2,-215,-83,-232,-123,131
8480,2,-216,-76,-213,-134,126
8485,0,-211,-80,-196,-149,120
8490,3,-216,-73,-183,-168,103
8495,1,-215,-78,-178,-177,97
8500,0,-217,-78,-166,-190,91
8505,4,-214,-79,-160,-209,77
8510,6,-215,-75,-153,-218,82
8515,5,-209,-79,-138,-225,89
8520,4,-213,-82,-127,-235,97
8525,8,-212,-73,-120,-244,107
8530,11,-214,-74,-114,-253,118
8535,14,-219,-74,-113,-258,132
8540,15,-216,-75,-114,-258,143
8545,17,-223,-71,-116,-258,153
8550,22,-230,-71,-117,-254,162
8555,20,-231,-72,-114,-251,170
8560,18,-235,-78,-109,-244,178
8565,21,-241,-74,-101,-239,189
8570,18,-241,-77,-89,-234,198
8575,19,-246,-76,-71,-229,211
8580,15,-246,-70,-47,-225,226
8585,12,-250,-70,-15,-224,241
8590,10,-253,-64,26,-222,257
8595,8,-256,-61,75,-220,271
8600,7,-256,-61,128,-212,289
8605,4,-254,-55,178,-201,305
8610,7,-255,-63,220,-184,318
8615,7,-248,-67,250,-165,327
8620,11,-243,-78,260,-141,330
8625,13,-233,-98,243,-112,331
8630,18,-228,-111,198,-77,327
8635,23,-218,-130,129,-37,325
8640,38,-211,-155,45,9,320
8645,52,-206,-184,-55,63,320
8650,68,-214,-205,-168,125,322
8655,85,-222,-224,-289,190,324
8660,99,-234,-228,-398,256,326
8665,108,-253,-230,-475,324,327
8670,121,-271,-223,-507,401,331
8675,117,-292,-210,-492,491,335
8680,107,-310,-197,-435,593,336
8685,93,-322,-189,-342,699,334
8690,73,-335,-167,-226,794,330
8695,58,-343,-155,-107,868,319
8700,36,-346,-143,3,921,299
8705,26,-345,-132,101,942,272
8710,14,-332,-121,186,931,243
8715,0,-308,-115,272,888,215
8720,-11,-275,-110,359,819,199
8725,-19,-246,-103,440,729,187
8730,-26,-214,-103,509,628,170
8735,-33,-195,-105,562,516,150
8740,-41,-169,-108,598,398,129
8745,-49,-148,-121,614,273,111
8750,-50,-128,-123,605,153,98
8755,-51,-113,-128,569,42,93
8760,-50,-107,-130,501,-57,95
8765,-46,-103,-141,396,-140,109
8770,-30,-106,-141,262,-201,127
8775,-14,-123,-144,105,-234,147
8780,-1,-139,-135,-66,-237,168
8785,7,-155,-132,-232,-218,187
8790,16,-182,-125,-369,-184,197
8795,31,-208,-118,-468,-139,197
8800,43,-237,-114,-519,-85,194
8805,44,-256,-117,-520,-24,198
8810,43,-266,-116,-473,37,205
8815,42,-276,-123,-388,94,213
8820,43,-290,-127,-276,141,226
8825,37,-289,-128,-154,175,242
8830,33,-281,-133,-33,198,259
8835,28,-277,-137,82,212,280
8840,24,-269,-139,174,224,302
8845,19,-252,-134,247,230,322
8850,10,-242,-134,298,232,341
8855,11,-230,-133,333,229,361
8860,9,-218,-129,356,228,376
8865,9,-208,-128,367,232,389
8870,4,-198,-125,371,240,391
8875,11,-191,-125,360,248,383
8880,16,-186,-126,330,265,369
8885,20,-186,-122,282,289,355
8890,25,-187,-118,227,316,347
8895,36,-188,-116,175,342,338
8900,32,-182,-116,130,358,325
8905,30,-181,-116,85,354,297
8910,33,-181,-116,40,347,279
8915,29,-180,-118,1,338,265
8920,23,-181,-115,-28,329,256
8925,16,-181,-114,-36,323,251
8930,11,-181,-113,-30,322,245
8935,3,-180,-115,-15,324,241
8940,1,-181,-112,13,328,239
8945,-3,-183,-110,45,335,235
8950,-11,-187,-109,72,352,251
8955,-24,-186,-109,101,352,247
8960,-27,-189,-106,123,347,238
8965,-35,-190,-106,138,339,235
8970,-43,-195,-102,143,324,231
8975,-51,-197,-103,139,300,231
8980,-54,-199,-103,122,273,231
8985,-55,-201,-99,102,245,234
8990,-54,-201,-93,79,218,238
8995,-56,-201,-99,61,189,240
9000,-49,-197,-91,43,163,234
9005,-48,-196,-89,29,140,220
9010,-41,-202,-91,11,117,200
9015,-35,-198,-93,-7,93,176
9020,-30,-201,-89,-27,74,150
9025,-22,-203,-86,-42,57,122
9030,-12,-202,-91,-48,46,95
9035,-6,-202,-82,-45,41,67
9040,0,-200,-88,-36,39,36
9045,1,-204,-88,-28,41,7
9050,5,-200,-81,-21,51,-20
9055,4,-199,-80,-11,65,-43
9060,11,-197,-81,2,82,-64
9065,6,-193,-76,8,102,-82
9070,13,-194,-73,12,122,-95
9075,17,-195,-68,16,142,-106
9080,17,-196,-68,18,158,-116
9085,19,-200,-68,20,170,-122
9090,17,-204,-60,23,177,-128
9095,15,-206,-61,32,181,-131
9100,12,-213,-65,40,179,-133
9105,13,-216,-64,44,180,-132
9110,16,-225,-60,41,182,-128
9115,16,-233,-62,39,186,-125
9120,15,-237,-59,40,197,-120
9125,26,-251,-54,44,213,-111
9130,29,-257,-51,50,230,-108
9135,33,-268,-52,62,247,-104
9140,28,-274,-51,84,265,-92
9145,31,-277,-54,107,270,-77
9150,36,-279,-54,131,257,-68
9155,33,-281,-61,169,233,-61
9160,22,-280,-66,209,202,-46
9165,16,-270,-67,248,174,-33
9170,12,-267,-72,280,158,-21
9175,9,-264,-74,314,160,-10
9180,7,-261,-71,345,177,-3
9185,5,-254,-65,371,202,-2
9190,5,-250,-65,392,234,-7
9195,0,-245,-66,404,270,-13
9200,-3,-244,-71,397,301,-17
9205,-7,-241,-79,365,323,-21
9210,-11,-242,-81,306,334,-17
9215,-14,-247,-91,226,329,-6
9220,-10,-256,-101,128,317,13
9225,-14,-269,-103,16,304,44
9230,-13,-283,-112,-101,279,83
9235,-5,-299,-126,-208,237,119
9240,6,-311,-141,-293,180,153
9245,17,-316,-157,-350,111,184
9250,14,-318,-168,-373,42,210
9255,10,-321,-170,-346,-30,226
9260,5,-325,-160,-264,-89,240
9265,-11,-327,-149,-144,-125,246
9270,-9,-322,-151,-18,-123,241
9275,-6,-317,-155,82,-85,220
9280,-6,-300,-163,145,-20,189
9285,0,-281,-178,177,57,154
9290,-9,-257,-187,191,143,122
9295,-16,-242,-192,199,226,97
9300,-19,-231,-190,214,306,76
9305,-28,-216,-193,219,368,61
9310,-33,-204,-189,208,407,54
9315,-28,-191,-188,195,429,64
9320,-28,-176,-186,175,454,87
9325,-22,-168,-182,150,484,109
9330,-27,-166,-175,125,506,116
9335,-30,-164,-166,97,515,117
9340,-33,-168,-160,61,506,114
9345,-32,-170,-155,18,473,107
9350,-26,-173,-158,-36,422,106
9355,-18,-176,-161,-102,352,102
9360,-2,-179,-161,-171,274,98
9365,5,-187,-157,-229,206,92
9370,4,-194,-157,-268,151,79
9375,11,-207,-151,-287,114,63
9380,11,-214,-148,-284,95,44
9385,9,-216,-151,-264,93,26
9390,11,-227,-146,-229,104,8
9395,3,-233,-142,-189,123,-15
9400,2,-234,-136,-146,148,-40
9405,5,-236,-134,-108,173,-73
9410,5,-232,-134,-76,195,-105
9415,6,-233,-129,-52,209,-143
9420,12,-229,-129,-37,215,-185
9425,11,-220,-127,-30,219,-225
9430,12,-216,-125,-24,225,-262
9435,11,-214,-122,-23,238,-289
9440,16,-211,-130,-25,252,-312
9445,14,-203,-124,-32,269,-328
9450,15,-197,-122,-38,282,-337
9455,15,-193,-115,-50,286,-346
9460,21,-189,-112,-55,296,-342
9465,21,-186,-104,-53,304,-326
9470,24,-181,-99,-51,305,-308
9475,25,-179,-98,-49,302,-290
9480,25,-177,-95,-48,293,-275
9485,24,-177,-99,-54,282,-259
9490,25,-172,-98,-67,269,-241
9495,22,-170,-95,-79,258,-224
9500,15,-170,-97,-90,243,-209
9505,16,-169,-96,-97,229,-191
9510,17,-173,-92,-99,219,-175
9515,13,-175,-89,-89,211,-156
9520,11,-174,-84,-72,207,-139
9525,8,-174,-81,-56,202,-120
9530,7,-174,-85,-36,192,-101
9535,7,-167,-82,-19,176,-84
9540,8,-168,-79,-5,159,-67
9545,13,-162,-84,0,139,-56
9550,13,-167,-78,1,129,-37
9555,15,-164,-82,-1,118,-21
9560,19,-165,-83,-11,110,-11
9565,21,-170,-81,-27,108,-2
9570,25,-171,-87,-45,102,3
9575,26,-176,-84,-65,99,7
9580,29,-181,-86,-85,95,12
9585,27,-183,-89,-104,87,14
9590,26,-190,-86,-123,80,16
9595,27,-197,-84,-135,70,19
9600,24,-205,-85,-141,60,23
9605,21,-207,-86,-142,51,26
9610,21,-211,-82,-131,40,32
9615,17,-215,-81,-114,26,37
9620,14,-220,-75,-93,7,42
9625,12,-220,-73,-70,-13,44
9630,11,-215,-68,-48,-34,43
9635,7,-220,-66,-30,-55,41
9640,7,-223,-60,-11,-76,35
9645,7,-233,-54,5,-99,28
9650,13,-238,-47,24,-123,18
9655,7,-241,-45,50,-133,4
9660,5,-251,-39,81,-138,-3
9665,11,-254,-44,130,-147,-13
9670,9,-255,-51,177,-157,-16
9675,10,-254,-59,221,-162,-8
9680,18,-255,-56,258,-158,1
9685,22,-254,-60,292,-139,11
9690,26,-252,-61,316,-107,20
9695,33,-252,-59,343,-69,21
9700,30,-250,-63,368,-29,22
9705,34,-245,-67,395,6,26
9710,38,-244,-69,421,38,34
9715,41,-244,-74,444,72,51
9720,53,-236,-85,462,115,76
9725,64,-229,-94,473,157,102
9730,79,-226,-96,478,211,118
9735,93,-232,-95,470,256,121
9740,97,-235,-96,444,284,106
9745,95,-241,-100,394,290,81
9750,85,-252,-100,328,281,53
9755,73,-259,-110,245,265,21
9760,67,-270,-123,150,254,-4
9765,57,-273,-136,55,257,-33
9770,51,-290,-154,-35,285,-57
9775,40,-300,-167,-110,340,-85
9780,26,-309,-185,-170,414,-116
9785,23,-320,-197,-223,500,-149
9790,19,-326,-204,-262,578,-187
9795,2,-340,-192,-277,628,-229
9800,6,-348,-177,-245,628,-289
9805,-3,-353,-154,-152,628,-302
9810,-12,-353,-142,-10,612,-288
9815,-16,-340,-152,159,590,-255
9820,-14,-319,-157,313,565,-205
9825,-26,-302,-169,432,515,-164
9830,-29,-271,-187,526,426,-133
9835,-34,-244,-198,602,307,-96
9840,-34,-227,-198,653,163,-68
9845,-29,-211,-198,661,10,-55
9850,-33,-194,-197,631,-141,-47
9855,-37,-185,-199,575,-281,-44
9860,-42,-178,-202,511,-392,-47
9865,-43,-180,-208,437,-461,-53
9870,-41,-182,-211,350,-490,-61
9875,-40,-182,-215,262,-487,-67
9880,-34,-188,-209,188,-461,-77
9885,-21,-191,-206,121,-418,-85
9890,-11,-196,-201,57,-367,-89
9895,0,-206,-195,8,-308,-94
9900,7,-215,-183,-20,-242,-100
9905,17,-221,-172,-32,-178,-107
9910,22,-223,-152,-32,-121,-116
9915,26,-230,-144,-15,-71,-121
9920,27,-228,-135,10,-34,-120
9925,31,-230,-126,44,-9,-110
9930,39,-224,-123,82,11,-91
9935,35,-228,-121,116,16,-62
9940,38,-226,-123,148,9,-23
9945,31,-218,-132,180,-12,19
9950,25,-218,-124,209,-42,63
9955,24,-211,-125,230,-76,114
9960,19,-204,-122,239,-107,169
9965,17,-195,-129,239,-134,216
9970,14,-197,-120,240,-144,269
9975,5,-191,-107,234,-152,314
9980,7,-191,-109,224,-156,332
9985,8,-186,-120,215,-151,341
9990,5,-184,-107,204,-139,351
9995,4,-176,-112,189,-125,356
10000,4,-178,-108,170,-103,363
10005,7,-173,-101,154,-82,367
10010,4,-167,-106,138,-67,360
10015,2,-165,-97,121,-53,351
10020,1,-155,-98,102,-39,332
10025,-1,-164,-85,81,-32,312
10030,-5,-161,-80,69,-28,287
10035,-9,-153,-81,67,-23,264
10040,-3,-159,-85,70,-17,242
10045,-3,-151,-82,76,-8,221
10050,-9,-153,-78,84,2,201
10055,-10,-149,-77,85,14,183
10060,-10,-149,-74,87,23,163
10065,-19,-143,-87,86,31,146
10070,-16,-152,-81,85,39,131
10075,-13,-148,-80,78,45,124
10080,-10,-150,-80,68,45,110
10085,-17,-150,-79,56,43,88
10090,-14,-161,-76,42,39,70
10095,-19,-164,-77,24,31,52
10100,-12,-169,-79,0,22,33
10105,-10,-175,-80,-21,14,16
10110,-15,-179,-73,-42,7,-2
10115,-15,-185,-75,-62,2,-16
10120,-15,-191,-73,-77,-3,-31
10125,-13,-190,-71,-85,-7,-42
10130,-10,-197,-64,-89,-13,-54
10135,-10,-201,-67,-84,-19,-64
10140,-4,-215,-61,-69,-25,-74
10145,-7,-213,-60,-54,-29,-84
10150,-1,-218,-56,-34,-28,-95
10155,-2,-221,-59,-10,-22,-105
10160,-1,-227,-57,15,-10,-114
10165,2,-236,-57,44,10,-124
10170,8,-239,-50,72,36,-132
10175,11,-241,-53,108,63,-139
10180,10,-244,-49,146,91,-143
10185,17,-246,-49,184,123,-146
10190,21,-245,-50,222,153,-142
10195,24,-248,-49,259,180,-137
10200,25,-250,-44,298,198,-130
10205,25,-248,-43,340,211,-123
10210,29,-244,-47,381,216,-118
10215,28,-239,-52,418,210,-108
10220,25,-235,-60,441,194,-100
10225,25,-231,-62,451,159,-95
10230,17,-231,-66,455,113,-91
10235,5,-226,-75,451,60,-83
10240,-2,-219,-82,437,11,-74
10245,-13,-222,-83,408,-23,-59
10250,-22,-232,-83,369,-37,-44
10255,-21,-230,-81,325,-32,-26
10260,-34,-243,-78,272,-10,-9
10265,-40,-254,-74,215,23,8
10270,-37,-262,-75,163,55,29
10275,-37,-270,-74,109,77,54
10280,-41,-278,-83,55,84,87
10285,-36,-299,-81,4,75,126
10290,-41,-313,-80,-45,58,173
10295,-26,-333,-75,-95,33,234
10300,-3,-357,-86,-138,-1,289
10305,14,-367,-90,-165,-45,344
10310,29,-366,-117,-171,-107,384
10315,36,-359,-138,-150,-184,408
10320,47,-344,-163,-94,-260,418
10325,42,-329,-182,-8,-302,421
10330,28,-319,-190,94,-296,425
10335,20,-306,-195,189,-245,419
10340,7,-296,-203,259,-163,387
10345,-2,-285,-209,290,-74,345
10350,-17,-279,-210,280,6,291
10355,-27,-270,-210,244,79,239
10360,-52,-261,-221,188,143,202
10365,-64,-257,-214,113,196,180
10370,-68,-249,-205,37,213,166
10375,-64,-238,-208,-12,205,158
10380,-57,-226,-210,-49,205,159
10385,-50,-217,-209,-71,219,158
10390,-48,-212,-192,-70,243,155
10395,-51,-211,-186,-48,264,153
10400,-39,-207,-179,-23,272,155
10405,-21,-200,-174,-8,262,159
10410,-1,-198,-170,-12,233,166
10415,22,-191,-169,-32,195,172
10420,39,-192,-160,-58,157,175
10425,53,-191,-161,-85,125,167
10430,53,-194,-153,-110,102,147
10435,57,-201,-149,-131,86,119
10440,54,-208,-148,-147,75,93
10445,50,-216,-141,-156,70,64
10450,41,-223,-137,-151,65,38
10455,34,-223,-135,-136,60,7
10460,25,-222,-130,-118,53,-21
10465,19,-226,-127,-109,51,-55
10470,10,-226,-129,-108,52,-92
10475,3,-233,-123,-118,59,-135
10480,1,-221,-128,-134,70,-180
10485,-2,-219,-129,-148,86,-223
10490,-3,-214,-127,-161,109,-261
10495,-12,-210,-122,-171,134,-291
10500,-11,-207,-121,-175,158,-315
10505,-10,-203,-114,-173,179,-334
10510,-7,-206,-107,-169,198,-346
10515,-2,-196,-98,-160,206,-362
10520,3,-193,-101,-153,213,-363
10525,9,-192,-93,-141,216,-349
10530,8,-184,-83,-128,210,-332
10535,11,-182,-80,-113,198,-315
10540,12,-179,-78,-98,182,-299
10545,18,-173,-76,-84,161,-288
10550,18,-170,-78,-74,138,-276
10555,22,-168,-78,-67,116,-263
10560,21,-166,-81,-57,94,-249
10565,22,-164,-71,-42,73,-232
10570,19,-159,-73,-21,57,-214
10575,14,-158,-66,-3,42,-194
10580,10,-160,-68,13,26,-175
10585,14,-152,-64,27,8,-156
10590,12,-151,-63,35,-7,-135
10595,10,-154,-64,37,-22,-111
10600,12,-153,-60,31,-36,-88
10605,18,-148,-61,18,-47,-69
10610,17,-151,-64,3,-56,-51
10615,17,-151,-63,-15,-65,-33
10620,16,-148,-61,-33,-72,-14
10625,18,-152,-68,-56,-80,1
10630,25,-159,-64,-76,-85,16
10635,21,-157,-72,-94,-90,31
10640,27,-165,-69,-108,-93,47
10645,27,-169,-67,-115,-98,61
10650,32,-179,-69,-120,-107,69
10655,34,-184,-68,-123,-119,78
10660,32,-190,-67,-118,-134,91
10665,31,-193,-66,-106,-153,104
10670,32,-200,-63,-92,-175,113
10675,29,-208,-60,-78,-195,115
10680,31,-217,-55,-64,-218,113
10685,23,-222,-51,-52,-240,108
10690,16,-237,-51,-41,-265,101
10695,11,-233,-37,-26,-290,92
10700,6,-244,-35,-4,-323,86
10705,0,-252,-27,26,-360,83
10710,2,-259,-19,69,-394,74
10715,-15,-266,-17,116,-415,74
10720,-18,-268,-17,172,-431,71
10725,-21,-264,-26,236,-446,64
10730,-19,-265,-29,295,-441,74
10735,-10,-264,-39,348,-424,86
10740,-2,-266,-41,393,-394,91
10745,2,-264,-36,435,-357,87
10750,7,-259,-35,475,-320,77
10755,9,-250,-45,509,-282,65
10760,15,-241,-62,536,-239,60
10765,20,-223,-74,547,-187,65
10770,34,-215,-73,535,-126,76
10775,56,-211,-74,502,-66,80
10780,73,-215,-68,453,-18,71
10785,81,-230,-53,401,7,49
10790,86,-243,-46,363,7,23
10795,80,-251,-35,343,-11,-8
10800,70,-260,-32,337,-32,-36
10805,60,-270,-36,336,-44,-62
10810,46,-276,-43,331,-44,-88
10815,29,-284,-63,314,-42,-115
10820,22,-290,-74,269,-38,-144
10825,11,-301,-92,194,-38,-175
10830,10,-308,-112,96,-37,-205
10835,7,-313,-132,-10,-25,-230
10840,-4,-315,-159,-115,-1,-251
10845,5,-315,-185,-216,26,-277
10850,11,-308,-229,-293,88,-280
10855,30,-303,-259,-364,143,-277
10860,45,-294,-272,-408,181,-271
10865,62,-294,-279,-403,204,-250
10870,69,-292,-285,-355,227,-231
10875,67,-286,-281,-286,262,-213
10880,62,-281,-286,-225,297,-205
10885,65,-273,-290,-181,322,-204
10890,59,-258,-284,-151,339,-213
10895,43,-252,-267,-118,339,-222
10900,33,-253,-260,-92,315,-228
10905,2,-257,-238,-76,271,-226
10910,-20,-267,-221,-69,205,-229
10915,-37,-269,-211,-61,128,-236
10920,-57,-270,-209,-54,54,-244
10925,-69,-268,-215,-47,-1,-248
10930,-85,-258,-224,-33,-29,-244
10935,-97,-245,-232,-20,-39,-235
10940,-91,-231,-229,0,-40,-226
10945,-85,-216,-222,33,-38,-216
10950,-76,-211,-206,73,-36,-198
10955,-61,-206,-186,96,-32,-170
10960,-33,-210,-175,92,-23,-138
10965,-10,-208,-158,59,-13,-104
10970,12,-206,-152,-2,0,-70
10975,27,-210,-148,-84,11,-28
10980,37,-211,-150,-163,13,17
10985,49,-212,-155,-222,1,60
10990,47,-216,-146,-247,-13,111
10995,54,-210,-148,-231,-39,147
11000,47,-220,-142,-183,-53,193
11005,44,-214,-133,-119,-69,223
11010,42,-216,-123,-60,-76,243
11015,39,-207,-115,-9,-69,261
11020,29,-205,-105,26,-55,285
11025,23,-201,-99,52,-46,299
11030,12,-195,-96,68,-44,299
11035,4,-187,-95,78,-49,290
11040,0,-181,-94,78,-47,279
11045,-3,-178,-97,75,-45,271
11050,-15,-167,-92,63,-38,268
11055,-21,-166,-91,48,-33,266
11060,-25,-155,-95,32,-27,264
11065,-28,-150,-87,9,-22,263
11070,-28,-148,-80,-24,-22,254
11075,-29,-143,-75,-59,-25,244
11080,-29,-141,-73,-88,-25,236
11085,-23,-141,-66,-115,-19,224
11090,-20,-139,-64,-139,-2,210
11095,-12,-138,-66,-159,22,195
11100,-4,-139,-65,-172,56,180
11105,0,-138,-71,-178,95,160
11110,1,-137,-64,-176,136,140
11115,5,-136,-70,-162,171,117
11120,6,-140,-73,-145,206,93
11125,12,-139,-71,-124,235,72
11130,13,-140,-67,-98,264,61
11135,6,-145,-73,-75,285,51
11140,5,-149,-75,-63,298,41
11145,3,-153,-80,-59,309,39
11150,3,-162,-83,-66,312,35
11155,1,-163,-79,-78,316,32
11160,4,-177,-80,-87,315,30
11165,3,-180,-84,-94,313,25
11170,0,-189,-80,-98,311,30
11175,-1,-191,-87,-102,310,38
11180,-2,-196,-90,-109,317,42
11185,-8,-203,-82,-123,328,44
11190,-10,-209,-82,-139,335,37
11195,-15,-219,-74,-153,335,21
11200,-13,-224,-77,-164,331,11
11205,-12,-227,-76,-170,328,2
11210,-7,-231,-78,-170,331,-4
11215,-2,-228,-85,-171,342,-8
11220,1,-225,-88,-169,359,-11
11225,0,-223,-97,-161,375,-11
11230,4,-225,-88,-148,380,-11
11235,4,-230,-88,-129,376,-3
11240,8,-230,-85,-108,365,10
11245,14,-232,-82,-84,358,32
11250,12,-234,-84,-62,354,59
11255,14,-236,-87,-45,343,81
11260,23,-237,-92,-40,326,103
11265,18,-240,-97,-34,299,120
11270,9,-240,-109,-21,268,134
11275,0,-241,-109,-3,241,150
11280,-10,-243,-118,6,223,165
11285,-9,-248,-108,1,221,174
11290,0,-255,-109,-17,240,178
11295,7,-268,-96,-40,279,184
11300,16,-275,-90,-59,339,189
11305,29,-290,-86,-68,408,181
11310,37,-299,-82,-62,487,168
11315,44,-313,-76,-46,570,149
11320,50,-320,-75,-12,648,120
11325,48,-323,-70,42,721,92
11330,51,-330,-62,108,785,65
11335,55,-326,-65,187,834,42
11340,48,-322,-72,268,875,43
11345,41,-314,-80,334,907,41
11350,41,-293,-96,377,928,49
11355,44,-270,-120,381,946,59
11360,46,-248,-143,341,954,65
11365,38,-215,-186,264,950,63
11370,18,-181,-234,157,921,54
11375,0,-145,-277,23,862,37
11380,-34,-128,-308,-136,779,21
11385,-68,-128,-327,-309,678,15
11390,-101,-128,-331,-481,576,30
11395,-134,-136,-324,-651,489,68
11400,-163,-148,-308,-809,428,130
11405,-179,-153,-292,-946,375,196
11410,-166,-152,-286,-1051,293,253
11415,-138,-145,-287,-1128,173,303
11420,-99,-142,-268,-1190,55,371
11425,-53,-143,-246,-1203,-23,450
11430,-2,-147,-222,-1151,-56,527
11435,43,-147,-214,-1043,-42,568
11440,59,-150,-218,-910,14,567
11445,79,-151,-238,-806,92,532
11450,89,-158,-245,-757,161,470
11455,102,-151,-252,-768,197,391
11460,101,-150,-256,-844,190,304
11465,96,-158,-254,-955,162,225
11470,84,-170,-235,-1056,126,161
11475,74,-181,-227,-1134,87,107
11480,58,-195,-231,-1197,47,58
11485,45,-211,-233,-1256,6,18
11490,24,-216,-239,-1324,-37,-11
11495,8,-234,-243,-1392,-74,-36
11500,-26,-229,-253,-1440,-95,-42
11505,-51,-226,-255,-1460,-113,-56
11510,-56,-214,-257,-1455,-158,-98
11515,-60,-208,-257,-1423,-186,-134
11520,-50,-213,-244,-1370,-190,-159
11525,-30,-217,-239,-1322,-171,-197
11530,1,-224,-226,-1289,-154,-262
11535,35,-235,-216,-1286,-146,-332
11540,60,-254,-196,-1292,-84,-370
11545,70,-264,-172,-1278,22,-406
11550,75,-268,-159,-1270,135,-457
11555,83,-269,-150,-1258,227,-531
11560,78,-262,-155,-1237,276,-628
11565,70,-261,-150,-1200,303,-716
11570,60,-264,-136,-1137,320,-772
11575,43,-260,-119,-1035,302,-789
11580,29,-259,-93,-899,249,-775
11585,7,-249,-72,-735,171,-745
11590,-13,-225,-59,-548,65,-708
11595,-35,-196,-59,-382,-66,-666
11600,-59,-145,-65,-274,-209,-617
11605,-68,-108,-51,-263,-372,-572
11610,-80,-67,-37,-336,-544,-532
11615,-92,-43,-7,-440,-709,-496
11620,-99,-15,18,-535,-848,-458
11625,-109,20,35,-621,-946,-407
11630,-107,60,37,-724,-996,-349
11635,-107,91,16,-843,-1001,-288
11640,-99,106,-11,-987,-976,-231
11645,-96,106,-28,-1175,-939,-195
11650,-80,97,-38,-1386,-916,-180
11655,-71,96,-35,-1551,-911,-161
11660,-45,98,-29,-1628,-932,-135
11665,-23,89,-54,-1636,-990,-102
11670,-6,68,-87,-1660,-1056,-51
11675,8,35,-136,-1743,-1128,23
11680,17,5,-188,-1830,-1217,105
11685,36,-17,-241,-1865,-1271,197
11690,66,-50,-286,-1849,-1254,286
11695,88,-69,-321,-1822,-1137,363
11700,128,-87,-356,-1815,-931,412
11705,148,-97,-382,-1833,-674,428
11710,147,-107,-388,-1879,-408,424
11715,145,-115,-387,-1946,-147,416
11720,127,-112,-379,-2013,87,401
11725,111,-113,-375,-2098,284,380
11730,93,-106,-360,-2178,441,372
11735,72,-102,-345,-2265,551,390
11740,57,-96,-326,-2357,585,418
11745,42,-87,-302,-2453,574,457
11750,30,-78,-282,-2551,540,490
11755,3,-66,-253,-2667,508,515
11760,-11,-76,-220,-2769,483,523
11765,-30,-82,-191,-2843,475,527
11770,-42,-109,-155,-2900,478,525
11775,-41,-134,-130,-2929,492,506
11780,-29,-167,-98,-2916,517,471
11785,-20,-192,-70,-2867,568,423
11790,-13,-204,-51,-2798,637,357
11795,2,-203,-36,-2719,703,285
11800,0,-200,-40,-2627,752,234
11805,-2,-191,-34,-2529,770,170
11810,3,-173,-33,-2424,754,131
11815,-3,-152,-47,-2307,714,106
11820,-13,-128,-67,-2183,654,87
11825,-27,-110,-83,-2075,580,70
11830,-47,-97,-103,-1999,500,56
11835,-73,-94,-119,-1966,414,38
11840,-91,-97,-133,-1946,303,16
11845,-93,-108,-146,-1928,171,-11
11850,-103,-122,-151,-1904,27,-28
11855,-107,-131,-155,-1877,-125,-65
11860,-92,-136,-168,-1831,-302,-96
11865,-101,-148,-170,-1802,-474,-109
11870,-83,-152,-179,-1770,-654,-137
11875,-69,-151,-177,-1737,-802,-160
11880,-62,-153,-179,-1692,-923,-170
11885,-42,-149,-178,-1639,-998,-199
11890,-14,-143,-180,-1570,-1058,-247
11895,12,-132,-181,-1509,-1071,-317
11900,32,-120,-171,-1452,-1083,-377
11905,36,-105,-167,-1399,-1092,-438
11910,63,-84,-170,-1335,-1125,-496
11915,68,-66,-164,-1275,-1151,-500
11920,85,-48,-166,-1258,-1159,-522
11925,91,-18,-178,-1258,-1150,-525
11930,90,-2,-183,-1281,-1096,-514
11935,83,17,-189,-1315,-1010,-535
11940,82,33,-197,-1358,-909,-561
11945,80,37,-202,-1395,-808,-536
11950,58,51,-215,-1412,-699,-479
11955,56,55,-221,-1435,-584,-458
11960,52,48,-228,-1437,-507,-440
11965,53,33,-245,-1419,-454,-398
11970,34,7,-263,-1373,-430,-308
11975,19,12,-278,-1325,-394,-244
11980,4,-24,-270,-1278,-360,-189
11985,-19,-29,-296,-1175,-400,-117
11990,-44,-29,-306,-1135,-395,-111
11995,-51,-22,-318,-1140,-393,-136
12000,-56,-5,-325,-1159,-407,-124
12005,-91,0,-337,-1166,-439,-46
12010,-106,6,-339,-1207,-423,-54
12015,-88,23,-345,-1248,-422,-88
12020,-89,35,-355,-1288,-432,-105
12025,-112,38,-377,-1317,-476,-103
12030,-107,43,-384,-1391,-528,-157
12035,-97,41,-395,-1469,-599,-194
12040,-103,29,-406,-1533,-675,-188
12045,-100,40,-407,-1617,-730,-213
12050,-109,35,-423,-1666,-784,-172
12055,-102,41,-426,-1725,-811,-222
12060,-97,42,-415,-1780,-810,-241
12065,-96,34,-408,-1811,-798,-233
12070,-78,31,-400,-1826,-773,-234
12075,-77,20,-403,-1808,-764,-228
12080,-89,21,-411,-1765,-757,-219
12085,-97,14,-411,-1718,-747,-243
12090,-112,2,-403,-1671,-728,-268
12095,-111,-8,-394,-1611,-708,-289
12100,-128,-20,-381,-1554,-671,-320
12105,-135,-14,-377,-1506,-626,-342
12110,-150,-25,-370,-1460,-559,-349
12115,-157,-27,-377,-1390,-488,-338
12120,-143,-27,-381,-1309,-423,-309
12125,-152,-38,-379,-1216,-394,-290
12130,-135,-13,-387,-1113,-413,-309
12135,-128,-34,-371,-1032,-365,-222
12140,-142,-66,-324,-891,-373,-190
12145,-124,-10,-339,-746,-471,-264
12150,-141,-30,-282,-691,-497,-220
12155,-160,-50,-234,-631,-552,-174
12160,-181,-48,-269,-487,-639,-180
12165,-163,-14,-289,-348,-745,-295
12170,-123,8,-295,-270,-657,-257
12175,-155,-2,-286,-205,-472,-87
12180,-132,-14,-259,-118,-322,93
12185,-89,-7,-261,-73,-270,246
12190,-15,15,-244,-171,-190,438
12195,3,-24,-168,-361,-9,690
12200,34,-24,-155,-517,66,853
12205,75,18,-131,-676,98,863
12210,97,29,-128,-799,283,889
12215,103,24,-110,-896,520,884
12220,130,18,-117,-913,742,917
12225,130,22,-115,-928,947,966
12230,133,46,-86,-981,1144,996
12235,104,32,-105,-928,1301,1022
12240,71,21,-96,-887,1455,1020
12245,44,19,-86,-839,1578,1045
12250,16,41,-98,-808,1682,1069
12255,5,-14,-85,-845,1776,1048
12260,4,39,-78,-821,1869,1106
12265,2,39,-70,-724,1939,1140
12270,34,29,-66,-706,2011,1180
12275,63,33,-81,-687,2088,1225
12280,91,24,-105,-663,2157,1289
12285,99,27,-120,-640,2221,1340
12290,117,23,-118,-609,2281,1413
12295,122,32,-119,-566,2338,1491
12300,114,44,-110,-510,2395,1538
12305,101,56,-104,-473,2471,1573
12310,92,60,-92,-454,2575,1595
12315,91,64,-92,-446,2690,1600
12320,83,55,-75,-460,2784,1598
12325,79,42,-62,-472,2841,1586
12330,74,19,-37,-464,2853,1569
12335,79,2,-47,-419,2843,1540
12340,85,-4,-65,-351,2855,1499
12345,107,6,-80,-291,2913,1445
12350,130,6,-90,-255,3013,1369
12355,149,24,-84,-227,3133,1273
12360,158,47,-90,-194,3258,1152
12365,161,80,-103,-162,3369,1019
12370,151,108,-115,-132,3454,894
12375,130,135,-106,-110,3489,801
12380,115,149,-73,-98,3440,746
12385,110,166,-61,-87,3321,720
12390,109,185,-47,-82,3171,710
12395,102,190,-47,-99,2986,709
12400,84,177,-81,-103,2796,705
12405,59,180,-116,-73,2703,715
12410,49,187,-148,-21,2720,731
12415,45,204,-158,45,2776,741
12420,40,216,-150,94,2812,738
12425,39,218,-142,130,2811,753
12430,48,220,-119,181,2773,790
12435,65,229,-106,245,2714,856
12440,97,237,-116,287,2632,959
12445,110,237,-130,297,2510,1084
12450,155,255,-169,316,2341,1185
12455,180,244,-192,317,2204,1260
12460,190,228,-201,394,2089,1329
12465,195,206,-236,542,2017,1396
12470,197,193,-254,703,1916,1425
12475,222,183,-282,813,1827,1443
12480,217,176,-288,899,1787,1457
12485,194,183,-293,979,1754,1445
12490,182,192,-291,1062,1762,1432
12495,183,193,-293,1148,1782,1434
12500,209,206,-296,1221,1794,1430
12505,204,203,-289,1266,1772,1416
12510,203,218,-284,1322,1644,1394
12515,181,225,-273,1371,1486,1348
12520,150,224,-261,1424,1349,1324
12525,144,218,-263,1507,1206,1357
12530,121,200,-247,1572,1058,1375
12535,123,188,-233,1638,855,1390
12540,106,181,-208,1694,626,1366
12545,90,154,-204,1791,388,1350
12550,85,173,-202,1906,58,1329
12555,92,206,-205,1936,-302,1224
12560,134,178,-205,1902,-752,1191
12565,121,138,-218,2018,-1225,1138
12570,105,108,-217,2071,-1710,1111
12575,114,278,-246,2127,-2357,867
12580,107,529,-254,2272,-3110,255
12585,-45,113,-118,2371,-3214,-96
12590,71,309,-107,1853,-2698,54
12595,243,241,-167,1435,-2806,150
12600,425,232,-298,1513,-3449,64
12605,388,93,-279,1975,-4353,-228
12610,324,106,-273,2770,-4463,61
12615,394,61,-360,3447,-4211,332
12620,634,185,-455,3194,-3816,38
12625,741,352,-513,2385,-3456,-441
12630,712,351,-494,1699,-3221,-823
12635,640,392,-540,1120,-2936,-1333
12640,583,366,-633,535,-2600,-1738
12645,629,351,-685,-20,-2332,-1952
12650,570,357,-640,-495,-2100,-1935
12655,537,358,-578,-744,-1862,-1742
12660,457,342,-495,-754,-1589,-1514
12665,412,296,-451,-629,-1288,-1195
12670,389,204,-415,-555,-986,-769
12675,335,142,-369,-575,-618,-343
12680,273,97,-357,-684,-251,-8
12685,218,68,-371,-891,55,247
12690,174,18,-345,-1174,278,452
12695,148,23,-319,-1452,505,621
12700,153,25,-288,-1651,645,737
12705,166,33,-254,-1773,621,756
12710,167,76,-277,-1706,419,645
12715,153,81,-224,-1680,222,466
12720,173,137,-218,-1643,33,206
12725,147,131,-180,-1440,75,51
12730,172,117,-164,-1398,144,-81
12735,165,139,-149,-1352,271,-92
12740,119,147,-147,-1268,265,-134
12745,122,161,-150,-1180,111,-307
12750,139,148,-149,-1048,-18,-393
12755,121,120,-146,-901,-105,-407
12760,112,103,-148,-772,-169,-445
12765,82,81,-160,-650,-188,-436
12770,54,64,-159,-556,-224,-446
12775,46,66,-156,-492,-270,-488
12780,45,62,-161,-456,-328,-526
12785,31,61,-161,-433,-409,-545
12790,32,61,-161,-421,-492,-552
12795,29,62,-143,-421,-546,-549
12800,27,62,-135,-431,-576,-540
12805,26,56,-129,-444,-598,-525
12810,32,56,-126,-447,-625,-508
12815,32,51,-125,-438,-657,-492
12820,29,53,-122,-426,-699,-483
12825,24,60,-115,-417,-750,-480
12830,20,62,-107,-402,-811,-492
12835,1,70,-94,-379,-874,-514
12840,2,83,-79,-375,-951,-569
12845,3,81,-74,-358,-1001,-603
12850,-8,84,-72,-320,-1049,-634
12855,-14,90,-67,-276,-1119,-682
12860,0,97,-77,-253,-1203,-739
12865,4,90,-79,-216,-1247,-741
12870,-2,89,-78,-170,-1285,-733
12875,-5,86,-72,-126,-1332,-731
12880,-16,77,-83,-93,-1388,-733
12885,-4,65,-83,-91,-1451,-737
12890,-10,59,-97,-92,-1504,-723
12895,-11,56,-108,-91,-1556,-719
12900,2,62,-124,-74,-1583,-706
12905,4,65,-136,-31,-1590,-650
12910,3,75,-144,25,-1604,-621
12915,11,89,-153,80,-1628,-612
12920,10,112,-164,127,-1657,-611
12925,11,130,-166,160,-1675,-617
12930,4,153,-173,183,-1665,-632
12935,27,169,-172,202,-1632,-643
12940,15,179,-180,224,-1577,-614
12945,16,193,-181,247,-1518,-604
12950,13,203,-186,259,-1456,-587
12955,9,198,-191,274,-1398,-546
12960,4,194,-182,285,-1352,-497
12965,-2,183,-177,288,-1321,-448
12970,-13,171,-177,282,-1298,-402
12975,-27,155,-186,267,-1293,-365
12980,-31,137,-199,254,-1308,-342
12985,-24,121,-212,269,-1329,-331
12990,-10,106,-232,317,-1339,-332
12995,2,97,-254,394,-1328,-339
13000,12,100,-261,473,-1281,-350
13005,18,106,-260,533,-1189,-354
13010,18,112,-250,586,-1065,-349
13015,28,160,-290,797,-1003,-364
13020,34,76,-214,991,-843,-321
13025,48,128,-192,867,-826,-343
13030,45,186,-233,707,-788,-336
13035,31,187,-235,701,-749,-318
13040,19,188,-233,620,-713,-323
13045,4,230,-258,507,-670,-314
13050,-36,194,-255,425,-638,-336
13055,-49,179,-236,395,-588,-287
13060,-62,173,-232,303,-584,-277
13065,-67,173,-252,103,-594,-274
13070,-82,179,-294,41,-626,-259
13075,-72,151,-294,40,-667,-210
13080,-69,127,-286,170,-554,-148
13085,-57,105,-286,463,-631,-134
13090,-64,85,-268,518,-686,-132
13095,-37,78,-313,499,-608,-120
13100,-18,106,-311,506,-537,-113
13105,0,93,-328,462,-537,-101
13110,-2,90,-319,526,-532,-101
13115,2,82,-306,545,-509,-94
13120,-2,77,-301,548,-472,-86
13125,-4,69,-295,535,-438,-70
13130,-9,73,-293,545,-412,-51
13135,-11,67,-294,570,-396,-26
13140,-20,69,-302,584,-374,-11
13145,-28,71,-296,576,-355,-3
13150,-19,65,-292,564,-341,7
13155,-21,64,-284,560,-328,18
13160,-9,62,-283,565,-315,23
13165,-18,58,-271,573,-295,29
13170,-16,48,-265,576,-275,32
13175,0,43,-263,589,-255,32
13180,0,47,-267,609,-219,31
13185,12,45,-267,617,-192,30
13190,22,43,-267,631,-182,30
13195,9,41,-264,628,-173,31
13200,13,45,-263,606,-163,34
13205,1,46,-265,576,-135,53
13210,3,42,-261,547,-114,69
13215,-8,37,-258,527,-83,90
13220,-19,44,-255,522,-65,100
13225,-29,33,-245,522,-64,88
13230,-42,33,-242,518,-41,79
13235,-40,45,-245,508,-18,72
13240,-35,51,-253,522,-36,57
13245,-26,51,-255,565,-66,52
13250,-15,50,-255,589,-87,56
13255,-8,57,-256,604,-108,57
13260,-7,55,-250,607,-118,60
13265,-13,54,-251,607,-123,66
13270,-6,51,-244,607,-127,66
13275,-6,43,-245,595,-112,74
13280,-9,46,-239,585,-94,86
13285,-4,53,-233,574,-70,99
13290,0,55,-226,567,-45,112
13295,-1,51,-231,562,-21,122
13300,11,56,-231,548,0,131
13305,15,52,-231,532,17,151
13310,11,62,-242,530,21,165
13315,15,59,-230,535,22,171
13320,13,53,-229,542,25,175
13325,10,50,-229,541,28,169
13330,10,55,-234,535,44,166
13335,7,51,-233,527,67,162
13340,1,52,-223,514,89,153
13345,-2,50,-219,502,112,143
13350,0,46,-208,503,134,131
13355,-2,48,-213,512,158,121
13360,1,47,-213,516,184,115
13365,1,44,-216,525,208,112
13370,-1,52,-221,529,226,117
13375,0,50,-216,524,242,116
13380,2,50,-216,517,252,118
13385,3,41,-218,517,260,123
13390,6,33,-224,517,266,136
13395,5,30,-227,515,282,154
13400,8,32,-234,502,305,173
13405,4,27,-232,494,344,191
13410,4,26,-239,483,386,205
13415,-2,16,-236,452,421,223
13420,-18,2,-243,413,462,241
13425,-3,12,-249,386,489,254
13430,-7,14,-239,327,504,262
13435,-5,12,-241,254,516,250
13440,2,37,-248,185,528,242
13445,-13,40,-239,122,533,228
13450,-9,49,-240,78,544,217
13455,-29,60,-250,34,542,190
13460,-41,62,-250,-18,513,151
13465,-40,40,-246,-58,473,105
13470,-26,21,-251,-67,453,69
13475,-22,20,-258,-63,454,59
13480,-20,25,-260,-80,454,57
13485,-22,36,-268,-110,460,56
13490,-23,28,-264,-135,462,56
13495,-15,22,-264,-139,452,61
13500,-2,23,-266,-134,442,68
13505,5,19,-265,-129,440,78
13510,7,19,-262,-126,436,86
13515,8,23,-263,-126,428,96
13520,14,30,-254,-125,422,103
13525,7,33,-256,-119,418,110
13530,8,36,-263,-114,418,115
13535,16,43,-267,-113,420,115
13540,12,45,-263,-112,429,121
13545,8,47,-263,-110,441,119
13550,7,41,-270,-96,451,113
13555,12,45,-264,-74,464,110
13560,15,47,-264,-55,485,110
13565,18,29,-265,-46,501,118
13570,24,39,-261,-25,510,118
13575,21,37,-277,0,507,123
13580,17,35,-259,-2,496,123
13585,25,36,-273,16,470,130
13590,23,27,-264,14,445,136
13595,27,28,-274,17,415,137
13600,27,40,-264,8,403,150
13605,27,41,-275,13,385,153
13610,27,44,-270,11,376,151
13615,31,42,-272,15,371,148
13620,32,45,-268,16,362,141
13625,33,45,-263,18,349,134
13630,33,47,-259,17,334,126
13635,36,54,-260,14,326,119
13640,29,49,-253,11,316,105
13645,25,42,-251,10,300,95
13650,36,53,-240,12,280,84
13655,27,47,-245,18,262,72
13660,28,44,-244,25,249,70
13665,31,47,-240,28,242,63
13670,28,42,-254,39,234,59
13675,32,39,-249,38,228,56
13680,33,37,-251,44,224,50
13685,27,37,-255,46,215,45
13690,18,38,-255,50,202,45
13695,8,-8,-249,60,181,47
13700,62,39,-252,82,164,47
13705,48,48,-251,77,171,56
13710,28,44,-247,74,170,50
13715,28,37,-242,77,149,38
13720,38,38,-242,84,137,39
13725,35,44,-240,87,133,42
13730,29,37,-240,90,125,38
13735,24,39,-240,101,117,33
13740,30,30,-238,110,110,34
13745,32,32,-234,119,105,33
13750,31,33,-240,127,100,32
13755,32,34,-240,133,95,31
13760,32,34,-237,137,87,32
13765,31,33,-239,145,79,30
13770,32,37,-242,152,67,31
13775,30,37,-241,158,58,29
13780,25,40,-243,164,52,27
13785,30,39,-242,166,47,22
13790,31,41,-237,167,41,20
13795,29,35,-243,166,35,17
13800,31,34,-241,165,29,12
13805,28,32,-244,163,25,9
13810,30,33,-241,164,22,10
13815,32,35,-245,165,24,7
13820,26,33,-239,164,24,9
13825,25,35,-242,164,23,7
13830,34,45,-245,164,22,3
13835,25,29,-239,164,13,1
13840,34,21,-241,171,16,1
13845,45,19,-248,180,15,7
13850,29,24,-249,186,16,11
13855,30,35,-246,183,13,4
13860,28,30,-246,177,2,3
13865,32,29,-247,174,-5,0
13870,27,25,-246,173,-12,-1
13875,23,30,-250,172,-18,-5
13880,35,31,-247,175,-19,-3
13885,24,27,-252,173,-23,-6
13890,34,31,-248,171,-26,-8
13895,28,28,-249,169,-29,-7
13900,30,34,-251,164,-29,-9
13905,25,27,-248,159,-32,-8
13910,43,34,-243,156,-31,-8
13915,27,23,-254,161,-30,-15
13920,26,25,-246,152,-28,-11
13925,28,27,-248,141,-27,-8
13930,25,25,-248,134,-22,-7
13935,26,26,-247,123,-23,-10
13940,34,31,-250,119,-20,-8
13945,25,24,-248,113,-24,-9
13950,27,25,-249,111,-25,-12
13955,21,27,-249,105,-28,-10
13960,27,24,-248,101,-27,-10
13965,29,23,-248,92,-25,-11
13970,28,26,-248,87,-23,-9
13975,39,33,-246,78,-19,-9
13980,24,25,-248,66,-19,-9
13985,29,28,-251,58,-18,-8
13990,28,29,-250,55,-18,-8
13995,26,29,-251,49,-21,-8
14000,28,29,-254,47,-23,-8
14005,21,21,-250,41,-18,-7
14010,18,24,-253,31,-20,-9
14015,27,29,-255,36,-23,-9
14020,25,28,-252,37,-22,-9
14025,26,28,-255,40,-22,-10
14030,30,25,-253,41,-18,-8
14035,26,27,-252,41,-17,-7
14040,28,27,-251,39,-17,-8
14045,29,25,-253,34,-18,-7
14050,48,44,-248,29,-14,-9
14055,26,22,-246,14,-10,-9
14060,23,37,-257,17,-14,-9
14065,26,24,-250,24,-16,-7
14070,27,36,-251,30,-16,-8
14075,26,26,-253,39,-21,-12
14080,29,23,-254,41,-17,-8
14085,26,28,-253,41,-7,-7
14090,26,30,-250,42,2,-7
14095,28,29,-244,42,6,-6
14100,29,26,-251,41,8,-7
14105,28,29,-249,39,10,-5
14110,25,29,-249,39,14,-6
14115,32,28,-252,37,16,-4
14120,31,29,-252,35,17,-4
14125,28,33,-248,34,19,-4
14130,29,30,-251,35,19,-3
14135,29,28,-252,36,20,-2
14140,28,28,-250,38,21,-5
14145,28,29,-247,41,21,-5
14150,25,29,-250,43,22,-7
14155,27,28,-245,44,23,-8
14160,23,29,-248,46,28,-8
14165,27,28,-247,46,33,-7
14170,23,29,-248,47,39,-6
14175,28,30,-254,48,46,-7
14180,24,28,-247,50,52,-5
14185,29,29,-248,51,59,-5
14190,30,32,-250,55,63,-5
14195,30,30,-250,60,66,-5
14200,28,30,-247,66,64,-4
14205,32,27,-247,69,63,-5
14210,27,29,-250,72,59,-3
14215,30,27,-247,73,57,-4
14220,30,25,-248,73,54,-4
14225,29,28,-250,73,54,-3
14230,30,31,-249,72,58,-3
14235,28,27,-252,70,61,-3
14240,32,33,-248,72,69,-3
14245,27,30,-255,67,72,-2
14250,28,28,-251,65,78,-2
14255,30,25,-251,65,83,0
14260,32,30,-249,64,85,2
14265,27,30,-250,62,88,3
14270,29,33,-246,62,89,1
14275,31,33,-242,61,89,1
14280,30,25,-246,62,89,0
14285,28,28,-247,62,85,0
14290,30,29,-246,62,85,1
14295,29,29,-244,61,85,1
14300,30,27,-245,60,86,5
14305,29,28,-247,61,87,5
14310,34,30,-250,60,89,8
14315,33,30,-247,60,90,11
14320,30,32,-248,60,90,14
14325,32,29,-252,60,92,18
14330,32,31,-252,58,93,21
14335,32,32,-249,58,93,25
14340,31,31,-249,59,94,29
14345,33,28,-247,59,93,34
14350,34,29,-250,60,93,36
14355,31,26,-248,62,92,35
14360,31,26,-241,62,92,30
14365,31,25,-244,62,91,29
14370,33,31,-243,62,91,30
14375,32,29,-249,63,91,32
14380,29,21,-248,65,91,36
14385,37,34,-248,67,89,34
14390,29,24,-243,61,91,44
14395,34,23,-244,60,97,46
14400,33,26,-246,69,95,44
14405,29,29,-251,73,95,44
14410,33,26,-248,77,96,43
14415,35,24,-246,82,97,41
14420,37,30,-248,86,98,37
14425,33,32,-245,85,101,32
14430,36,33,-249,85,101,33
14435,30,29,-243,84,101,33
14440,38,26,-251,85,101,34
14445,38,27,-255,85,99,35
14450,38,23,-254,84,100,34
14455,34,27,-248,84,100,33
14460,38,26,-248,84,97,37
14465,36,27,-250,85,94,34
14470,33,29,-252,86,93,33
14475,35,28,-247,86,92,29
14480,35,28,-247,84,92,30
14485,39,32,-253,84,90,37
14490,43,18,-252,71,96,51
14495,36,23,-250,72,97,43
14500,34,23,-252,75,102,32
14505,35,28,-253,73,110,29
14510,36,27,-254,70,119,29
14515,40,27,-253,67,124,33
14520,39,30,-256,63,129,38
14525,38,28,-256,60,135,41
14530,39,24,-256,60,138,44
14535,42,23,-255,64,144,42
14540,43,29,-256,66,149,43
14545,39,29,-252,65,151,46
14550,36,26,-249,61,152,55
14555,40,33,-252,61,151,53
14560,42,30,-251,56,151,66
14565,38,22,-245,43,154,71
14570,42,29,-253,47,152,64
14575,39,18,-244,37,159,69
14580,36,25,-247,39,161,59
14585,38,28,-249,44,166,50
14590,44,32,-243,44,173,53
14595,37,27,-254,37,176,61
14600,41,24,-248,40,177,69
14605,39,21,-249,36,177,63
14610,39,27,-252,47,176,50
14615,37,26,-248,51,178,45
14620,42,26,-244,48,182,61
14625,44,30,-246,40,178,67
14630,42,17,-246,35,177,67
14635,38,24,-246,43,175,48
14640,43,31,-244,52,177,39
14645,46,22,-240,38,181,58
14650,41,22,-244,33,180,58
14655,42,22,-239,38,182,47
14660,40,26,-241,44,183,36
14665,45,30,-245,47,185,33
14670,49,31,-243,44,189,41
14675,44,23,-240,42,189,51
14680,46,23,-244,50,186,41
14685,47,30,-240,62,186,37
14690,46,23,-240,61,184,38
14695,47,24,-240,69,178,34
14700,48,29,-237,73,173,37
14705,40,23,-240,59,168,52
14710,45,24,-236,73,160,40
14715,46,20,-239,77,158,28
14720,41,23,-239,80,153,25
14725,46,24,-239,80,147,23
14730,44,29,-238,79,144,18
14735,20,-3,-245,87,137,12
14740,68,38,-250,117,119,27
14745,64,30,-242,99,130,21
14750,51,40,-244,90,126,11
14755,37,20,-240,60,115,-1
14760,56,20,-244,70,115,-1
14765,56,23,-248,79,127,3
14770,51,26,-239,77,128,0
14775,49,25,-243,77,122,-2
14780,49,27,-246,75,116,-3
14785,49,25,-243,72,111,-4
14790,50,29,-243,71,104,-3
14795,53,24,-240,70,96,-6
14800,51,23,-245,70,88,-6
14805,48,26,-239,68,82,-5
14810,50,27,-248,68,76,-5
14815,54,26,-243,68,71,-5
14820,52,24,-245,69,70,-4
14825,56,22,-247,71,68,-3
14830,52,19,-246,72,66,-6
14835,55,24,-245,75,64,-7
14840,52,25,-245,73,63,-7
14845,53,25,-240,73,59,-6
14850,54,24,-246,73,57,-8
14855,54,25,-247,74,54,-9
14860,53,24,-249,73,53,-9
14865,55,19,-240,72,51,-9
14870,52,26,-246,71,53,-7
14875,54,25,-250,70,55,-7
14880,50,26,-252,69,58,-4
14885,53,24,-248,67,62,0
14890,55,23,-247,69,65,2
14895,52,24,-245,72,68,1
14900,55,20,-248,72,68,-1
14905,53,25,-247,72,70,-3
14910,51,18,-246,70,69,-3
14915,50,20,-241,68,66,-1
14920,54,23,-245,68,64,-2
14925,56,25,-244,68,59,-4
14930,55,24,-242,66,57,-7
14935,54,22,-245,66,54,-9
14940,55,25,-245,65,54,-10
14945,51,26,-241,65,54,-9
14950,51,23,-246,61,54,-10
14955,51,24,-244,60,50,-10
14960,57,22,-244,61,50,-10
14965,54,19,-246,59,52,-10
14970,54,23,-244,60,51,-10
14975,55,24,-243,61,50,-10
14980,52,26,-247,63,50,-9
14985,54,24,-245,64,49,-9
14990,53,21,-248,67,50,-10
14995,53,20,-245,71,51,-10
