timestamp,acc_x,acc_y,acc_z,gyro_x,gyro_y,gyro_z
0,20,-229,-98,179,688,226
5,15,-222,-95,197,689,222
10,12,-219,-96,209,686,219
15,9,-216,-86,215,685,214
20,3,-215,-84,215,679,209
25,4,-212,-78,211,667,206
30,1,-212,-80,206,652,203
35,1,-206,-73,199,636,202
40,0,-209,-73,186,619,204
45,0,-208,-79,167,601,206
50,-1,-211,-73,148,584,211
55,0,-208,-77,126,567,216
60,-2,-211,-74,104,551,221
65,2,-214,-75,84,534,225
70,5,-216,-76,66,517,229
75,7,-212,-79,51,502,231
80,9,-219,-79,36,489,232
85,8,-216,-80,24,479,232
90,8,-222,-85,14,471,229
95,7,-224,-84,1,465,229
100,7,-223,-84,-8,461,229
105,5,-226,-84,-13,459,232
110,6,-231,-77,-18,457,237
115,3,-231,-78,-20,455,244
120,3,-234,-79,-23,454,252
125,2,-233,-80,-21,449,257
130,6,-240,-78,-20,447,262
135,0,-236,-82,-16,448,262
140,-2,-236,-78,-12,451,262
145,-1,-239,-82,-2,456,259
150,0,-238,-83,9,463,253
155,-2,-237,-81,25,471,247
160,-1,-236,-80,44,483,239
165,0,-238,-80,62,494,230
170,0,-236,-80,78,506,223
175,-2,-235,-73,90,516,215
180,-6,-234,-78,99,526,207
185,0,-233,-77,103,529,202
190,-3,-236,-73,105,531,197
195,1,-238,-74,104,529,193
200,0,-241,-74,100,524,188
205,1,-245,-75,97,512,180
210,0,-248,-78,94,496,173
215,-2,-253,-80,95,476,167
220,-3,-254,-83,98,455,159
225,-10,-254,-82,105,435,152
230,-12,-255,-81,116,418,145
235,-15,-255,-80,129,403,136
240,-19,-254,-79,141,386,128
245,-19,-253,-76,155,371,118
250,-16,-252,-78,166,355,108
255,-13,-252,-79,175,339,100
260,-13,-249,-74,181,324,90
265,-9,-246,-80,187,308,82
270,-5,-243,-82,191,295,75
275,-8,-240,-81,194,284,67
280,0,-240,-81,197,273,62
285,0,-236,-80,197,263,56
290,0,-238,-82,198,254,51
295,0,-235,-79,196,245,47
300,3,-234,-80,194,236,42
305,1,-232,-77,192,228,41
310,0,-232,-79,189,222,39
315,2,-234,-76,187,214,39
320,4,-231,-73,186,207,38
325,4,-231,-76,186,201,36
330,2,-230,-80,186,195,37
335,3,-232,-75,187,192,38
340,1,-228,-78,184,189,35
345,-1,-224,-71,182,187,30
350,4,-224,-83,178,186,30
355,0,-226,-77,171,188,26
360,2,-226,-78,167,189,22
365,1,-229,-74,160,190,16
370,2,-229,-75,156,193,14
375,2,-225,-75,151,195,10
380,4,-228,-79,146,196,6
385,5,-226,-78,141,197,4
390,8,-231,-76,137,200,5
395,6,-231,-77,133,202,4
400,11,-233,-81,130,205,5
405,10,-227,-76,127,208,5
410,14,-230,-80,124,211,3
415,9,-228,-75,121,214,6
420,12,-227,-77,115,218,8
425,13,-228,-79,109,221,11
430,10,-229,-79,99,226,15
435,11,-232,-79,88,230,17
440,12,-232,-84,75,234,19
445,12,-229,-84,61,238,23
450,14,-232,-81,47,241,25
455,9,-233,-84,37,245,29
460,14,-233,-83,29,250,32
465,13,-233,-80,23,252,32
470,10,-230,-84,18,253,31
475,9,-232,-86,13,256,32
480,13,-232,-83,9,258,31
485,12,-233,-82,5,262,29
490,14,-231,-86,-4,268,28
495,18,-231,-88,-18,277,25
500,22,-231,-89,-33,286,19
505,21,-228,-89,-48,296,16
510,20,-218,-86,-61,309,11
515,23,-223,-90,-70,318,4
520,24,-218,-93,-78,330,-1
525,28,-221,-90,-85,341,-6
530,28,-220,-93,-96,350,-10
535,30,-219,-91,-110,359,-12
540,32,-217,-92,-126,370,-15
545,32,-218,-92,-146,380,-16
550,30,-213,-93,-163,392,-16
555,30,-215,-96,-182,404,-16
560,32,-214,-102,-199,415,-15
565,28,-209,-105,-217,428,-13
570,32,-209,-101,-233,443,-10
575,34,-208,-98,-249,459,-8
580,34,-204,-103,-266,473,-3
585,33,-202,-105,-284,487,1
590,39,-202,-102,-304,499,7
595,39,-201,-102,-326,510,13
600,40,-201,-99,-352,521,20
605,38,-200,-109,-378,529,23
610,40,-202,-105,-403,537,30
615,41,-204,-105,-432,544,35
620,35,-202,-109,-462,549,40
625,37,-207,-107,-492,554,47
630,37,-208,-102,-524,564,54
635,33,-209,-109,-552,578,61
640,37,-213,-108,-580,595,67
645,29,-215,-109,-603,611,74
650,32,-222,-104,-626,624,81
655,28,-224,-109,-642,636,87
660,29,-225,-106,-654,648,96
665,28,-228,-105,-666,662,102
670,26,-232,-106,-677,673,110
675,32,-242,-108,-692,683,116
680,27,-233,-106,-705,693,121
685,24,-237,-110,-720,700,129
690,26,-240,-105,-733,704,136
695,24,-236,-109,-744,709,143
700,26,-239,-110,-751,714,149
705,21,-240,-108,-755,721,156
710,22,-235,-110,-756,724,161
715,24,-238,-106,-750,726,167
720,23,-232,-104,-742,728,173
725,23,-233,-100,-732,727,177
730,25,-231,-99,-723,726,186
735,20,-232,-92,-712,725,191
740,26,-232,-92,-703,722,196
745,25,-233,-87,-693,719,198
750,25,-230,-84,-681,712,199
755,24,-231,-81,-670,706,200
760,27,-232,-82,-657,701,199
765,25,-233,-74,-644,694,196
770,25,-231,-73,-635,683,191
775,27,-235,-75,-623,672,186
780,29,-239,-73,-610,656,183
785,31,-241,-70,-592,639,178
790,27,-239,-70,-574,617,172
795,28,-241,-67,-554,595,168
800,30,-241,-70,-538,571,162
805,32,-246,-71,-524,544,154
810,31,-244,-71,-515,515,147
815,36,-247,-70,-507,485,141
820,38,-250,-76,-504,453,131
825,39,-250,-76,-500,422,123
830,40,-253,-74,-496,391,116
835,40,-251,-77,-488,361,107
840,37,-256,-75,-473,332,99
845,46,-257,-78,-454,307,94
850,47,-256,-78,-428,285,89
855,52,-256,-77,-394,267,81
860,52,-255,-78,-360,253,79
865,55,-253,-75,-324,243,76
870,51,-248,-78,-284,234,77
875,56,-249,-79,-240,227,81
880,54,-242,-78,-193,218,86
885,58,-240,-75,-142,208,95
890,55,-241,-64,-87,194,106
895,54,-234,-61,-35,178,118
900,51,-233,-57,15,153,131
905,47,-231,-58,56,127,149
910,47,-230,-56,87,95,168
915,41,-222,-54,110,62,189
920,38,-227,-56,125,30,214
925,34,-226,-59,134,4,238
930,35,-221,-64,138,-19,262
935,29,-219,-63,136,-36,285
940,36,-220,-70,128,-45,308
945,41,-217,-77,111,-38,328
950,38,-214,-97,84,-14,345
955,46,-208,-120,41,13,356
960,51,-209,-133,-27,35,368
965,66,-206,-149,-114,47,380
970,76,-210,-161,-208,43,387
975,92,-223,-169,-290,37,389
980,100,-237,-176,-350,47,388
985,95,-243,-179,-387,85,384
990,91,-255,-186,-402,155,375
995,81,-260,-184,-400,239,368
1000,71,-265,-185,-379,330,362
1005,58,-262,-178,-335,417,362
1010,51,-266,-170,-268,494,364
1015,39,-262,-159,-184,552,370
1020,23,-259,-140,-91,585,376
1025,17,-260,-129,-6,595,377
1030,8,-256,-113,63,586,380
1035,2,-254,-116,112,567,383
1040,1,-250,-109,151,540,386
1045,-7,-238,-112,179,507,388
1050,-8,-231,-112,197,468,384
1055,-7,-224,-121,215,425,381
1060,-7,-219,-118,230,385,374
1065,-9,-213,-122,245,347,366
1070,-9,-210,-123,262,312,358
1075,-10,-204,-123,275,282,348
1080,-8,-205,-126,283,253,342
1085,-12,-200,-123,285,226,334
1090,-14,-194,-122,281,200,328
1095,-11,-195,-122,272,178,323
1100,-7,-194,-119,257,158,319
1105,-2,-189,-125,236,142,316
1110,1,-192,-123,209,131,313
1115,2,-187,-127,178,118,308
1120,11,-184,-125,148,106,303
1125,15,-190,-128,120,96,297
1130,15,-192,-123,98,87,294
1135,12,-194,-127,84,81,290
1140,12,-205,-125,78,79,285
1145,15,-208,-124,78,84,282
1150,27,-204,-126,84,91,278
1155,18,-207,-132,93,102,273
1160,21,-216,-133,102,115,269
1165,21,-211,-141,109,131,264
1170,20,-218,-129,114,146,261
1175,26,-215,-128,118,163,259
1180,24,-206,-135,122,180,258
1185,19,-215,-134,127,193,258
1190,17,-222,-140,132,205,257
1195,19,-215,-142,139,215,258
1200,10,-217,-137,141,218,256
1205,14,-216,-135,141,220,258
1210,13,-216,-130,139,217,259
1215,6,-217,-138,137,213,263
1220,6,-209,-136,139,208,265
1225,3,-208,-135,142,203,269
1230,6,-208,-133,143,197,273
1235,1,-209,-135,147,193,278
1240,2,-210,-135,149,192,280
1245,-2,-211,-131,153,193,280
1250,9,-209,-122,155,199,277
1255,5,-206,-131,159,209,276
1260,2,-207,-130,160,216,274
1265,4,-209,-133,157,226,270
1270,7,-212,-128,153,238,269
1275,9,-213,-123,151,246,264
1280,7,-216,-128,150,256,261
1285,5,-216,-125,152,263,260
1290,7,-218,-119,158,266,259
1295,5,-218,-119,168,266,259
1300,2,-213,-115,183,260,263
1305,2,-219,-116,200,254,265
1310,1,-219,-115,217,244,269
1315,-1,-214,-114,231,231,272
1320,0,-212,-116,241,220,276
1325,-4,-211,-119,247,209,277
1330,-9,-210,-117,253,200,279
1335,-9,-205,-115,260,193,279
1340,-6,-205,-116,268,187,280
1345,-6,-204,-101,281,183,282
1350,-14,-203,-110,300,180,285
1355,-13,-196,-105,321,175,288
1360,-16,-195,-97,343,167,292
1365,-17,-194,-96,367,157,298
1370,-16,-190,-95,391,144,305
1375,-15,-188,-86,414,129,306
1380,-15,-188,-95,431,109,305
1385,-19,-182,-87,438,82,304
1390,-20,-183,-88,432,52,300
1395,-18,-180,-90,414,22,292
1400,-20,-179,-102,381,-5,282
1405,-22,-180,-107,332,-29,267
1410,-24,-185,-114,272,-46,246
1415,-29,-193,-113,209,-54,224
1420,-31,-193,-119,150,-54,201
1425,-35,-203,-126,100,-43,177
1430,-33,-219,-129,61,-28,159
1435,-36,-233,-125,28,-6,139
1440,-32,-240,-133,8,12,123
1445,-34,-246,-135,-2,28,108
1450,-33,-252,-141,-7,42,95
1455,-32,-261,-142,-6,55,83
1460,-30,-260,-149,2,66,68
1465,-27,-264,-139,20,80,57
1470,-26,-269,-139,48,94,45
1475,-22,-264,-131,81,105,37
1480,-22,-262,-128,115,113,32
1485,-19,-256,-124,147,117,33
1490,-18,-251,-123,171,115,37
1495,-20,-245,-119,185,110,44
1500,-18,-239,-119,186,100,53
1505,-16,-233,-118,180,89,65
1510,-17,-224,-119,171,76,77
1515,-14,-218,-116,162,64,90
1520,-18,-216,-116,159,50,99
1525,-18,-208,-112,155,40,109
1530,-17,-207,-114,153,31,115
1535,-17,-209,-104,149,25,123
1540,-22,-208,-105,140,21,131
1545,-17,-208,-104,128,19,135
1550,-21,-211,-103,118,16,142
1555,-20,-210,-101,107,10,147
1560,-17,-216,-99,96,5,152
1565,-20,-214,-96,78,-2,156
1570,-17,-219,-91,58,-12,160
1575,-22,-219,-88,42,-24,161
1580,-19,-218,-91,31,-39,165
1585,-20,-219,-86,24,-54,165
1590,-18,-216,-91,17,-68,167
1595,-26,-216,-90,13,-77,166
1600,-20,-210,-89,10,-79,162
1605,-20,-210,-81,1,-79,158
1610,-19,-209,-81,-10,-74,153
1615,-19,-205,-87,-19,-66,146
1620,-17,-207,-89,-33,-58,138
1625,-19,-207,-88,-46,-48,130
1630,-16,-209,-84,-61,-38,121
1635,-14,-211,-85,-73,-28,111
1640,-11,-213,-84,-83,-19,99
1645,-10,-213,-84,-89,-9,89
1650,-10,-215,-85,-93,3,82
1655,-5,-220,-81,-98,19,73
1660,0,-219,-85,-101,33,62
1665,-1,-221,-87,-100,47,54
1670,0,-221,-82,-99,60,46
1675,1,-224,-85,-99,70,38
1680,0,-227,-82,-97,78,33
1685,0,-230,-84,-97,82,27
1690,-1,-228,-85,-97,86,22
1695,-4,-230,-82,-97,90,16
1700,-4,-232,-80,-92,94,9
1705,-3,-237,-83,-85,98,0
1710,-3,-232,-79,-76,105,-7
1715,-8,-231,-78,-63,112,-14
1720,-5,-230,-80,-48,120,-23
1725,-3,-232,-79,-34,129,-31
1730,-5,-226,-77,-19,136,-42
1735,-7,-228,-78,-4,148,-49
1740,-5,-228,-78,7,158,-58
1745,-6,-227,-75,14,167,-67
1750,-8,-232,-77,15,175,-78
1755,-5,-229,-77,11,184,-88
1760,-1,-235,-72,7,193,-95
1765,-6,-234,-70,5,200,-102
1770,0,-238,-71,2,202,-107
1775,-1,-240,-65,4,201,-110
1780,-3,-246,-66,13,199,-111
1785,-2,-249,-63,24,193,-112
1790,-1,-252,-63,40,185,-110
1795,-10,-250,-65,61,176,-108
1800,-13,-256,-60,87,165,-105
1805,-7,-255,-51,115,155,-106
1810,-12,-255,-53,142,150,-109
1815,-5,-255,-49,168,149,-110
1820,-3,-259,-44,196,149,-115
1825,-14,-252,-48,224,150,-120
1830,-8,-252,-45,256,150,-129
1835,-9,-252,-45,289,152,-142
1840,-7,-252,-49,323,153,-156
1845,-6,-248,-52,359,150,-169
1850,-2,-248,-51,389,142,-182
1855,-2,-242,-53,417,134,-195
1860,-5,-241,-56,438,126,-207
1865,-6,-238,-60,451,118,-218
1870,-10,-234,-61,455,112,-225
1875,-14,-236,-60,443,107,-224
1880,-19,-235,-65,411,104,-217
1885,-20,-240,-78,354,99,-202
1890,-19,-241,-92,269,90,-182
1895,-17,-250,-110,160,79,-149
1900,-18,-257,-122,36,63,-110
1905,-14,-267,-140,-88,36,-73
1910,-4,-280,-145,-195,-9,-43
1915,-2,-292,-152,-271,-71,-23
1920,-3,-304,-145,-301,-145,-7
1925,-23,-310,-145,-282,-217,10
1930,-32,-322,-128,-216,-280,31
1935,-44,-331,-116,-119,-335,51
1940,-51,-334,-104,-10,-380,63
1945,-52,-338,-93,90,-411,66
1950,-51,-335,-94,168,-418,65
1955,-43,-332,-92,225,-400,64
1960,-33,-321,-98,271,-355,61
1965,-24,-309,-104,312,-290,55
1970,-12,-297,-115,356,-211,42
1975,-4,-279,-122,409,-120,21
1980,-9,-270,-126,470,-26,-5
1985,-3,-257,-136,521,63,-33
1990,-4,-240,-144,549,146,-56
1995,-7,-227,-150,555,214,-69
2000,-12,-213,-154,544,265,-79
2005,-18,-200,-157,520,295,-85
2010,-26,-191,-158,484,302,-86
2015,-22,-185,-152,449,295,-85
2020,-17,-176,-151,413,286,-80
2025,-15,-169,-135,381,283,-72
2030,-14,-165,-133,356,282,-63
2035,-3,-162,-123,334,283,-56
2040,1,-159,-121,310,283,-51
2045,8,-160,-124,280,282,-45
2050,16,-158,-123,242,274,-39
2055,22,-157,-119,200,259,-30
2060,32,-161,-116,156,232,-27
2065,36,-168,-119,117,205,-28
2070,36,-171,-119,87,174,-31
2075,36,-180,-119,64,145,-41
2080,29,-186,-119,48,119,-56
2085,27,-195,-124,37,97,-75
2090,18,-204,-119,28,82,-94
2095,9,-210,-123,23,72,-110
2100,0,-215,-124,15,61,-124
2105,-5,-222,-123,6,52,-141
2110,-15,-224,-124,-3,39,-154
2115,-19,-228,-121,-7,23,-171
2120,-21,-235,-119,-11,0,-190
2125,-22,-237,-115,-14,-25,-210
2130,-26,-237,-116,-21,-49,-230
2135,-24,-238,-117,-26,-70,-252
2140,-21,-243,-116,-33,-84,-277
2145,-17,-231,-119,-36,-91,-299
2150,-17,-230,-113,-34,-98,-322
2155,-12,-226,-112,-23,-102,-337
2160,-11,-222,-106,-4,-107,-349
2165,-3,-219,-105,19,-116,-360
2170,0,-218,-108,39,-123,-366
2175,4,-211,-105,52,-135,-368
2180,5,-209,-97,58,-148,-369
2185,8,-205,-98,61,-158,-368
2190,15,-201,-94,61,-173,-365
2195,15,-200,-94,57,-186,-362
2200,16,-200,-96,53,-197,-359
2205,16,-199,-92,48,-208,-355
2210,14,-198,-91,41,-215,-349
2215,14,-198,-93,34,-219,-344
2220,12,-199,-95,30,-224,-340
2225,12,-201,-91,26,-230,-336
2230,13,-199,-91,21,-235,-332
2235,17,-201,-90,19,-241,-329
2240,9,-201,-84,19,-250,-324
2245,12,-200,-87,18,-260,-321
2250,15,-200,-86,17,-268,-318
2255,18,-200,-85,13,-280,-316
2260,16,-200,-86,6,-288,-316
2265,16,-197,-84,-3,-297,-315
2270,16,-199,-82,-16,-305,-315
2275,17,-200,-84,-30,-314,-314
2280,17,-202,-84,-48,-322,-315
2285,13,-206,-76,-70,-332,-315
2290,12,-204,-79,-90,-343,-312
2295,10,-206,-77,-106,-356,-311
2300,6,-211,-73,-119,-369,-307
2305,7,-208,-78,-133,-384,-300
2310,9,-210,-76,-139,-396,-293
2315,5,-206,-75,-139,-410,-281
2320,3,-208,-73,-136,-421,-266
2325,3,-206,-74,-129,-432,-252
2330,5,-204,-68,-120,-443,-239
2335,6,-207,-71,-116,-456,-227
2340,8,-209,-65,-111,-474,-219
2345,5,-212,-64,-109,-494,-212
2350,8,-219,-54,-110,-517,-210
2355,10,-228,-48,-109,-544,-207
2360,3,-227,-42,-102,-576,-209
2365,4,-236,-46,-91,-608,-209
2370,-1,-241,-42,-73,-640,-208
2375,6,-248,-42,-52,-669,-211
2380,-1,-252,-42,-31,-681,-217
2385,-3,-254,-47,-11,-675,-218
2390,2,-255,-51,20,-657,-228
2395,9,-257,-60,58,-633,-239
2400,13,-257,-59,93,-604,-248
2405,27,-258,-58,126,-569,-257
2410,23,-253,-57,159,-537,-266
2415,27,-259,-54,194,-515,-275
2420,29,-258,-51,234,-500,-276
2425,33,-256,-55,274,-486,-267
2430,40,-253,-61,309,-472,-255
2435,44,-253,-63,332,-450,-236
2440,54,-249,-60,347,-422,-221
2445,61,-252,-59,359,-391,-211
2450,67,-251,-56,373,-368,-208
2455,66,-251,-45,394,-355,-208
2460,71,-256,-39,423,-353,-210
2465,68,-257,-31,459,-358,-209
2470,60,-262,-27,502,-369,-208
2475,51,-260,-26,541,-379,-210
2480,41,-262,-30,567,-396,-209
2485,33,-267,-39,570,-420,-209
2490,16,-266,-54,540,-452,-212
2495,3,-269,-76,467,-490,-219
2500,-11,-269,-106,353,-530,-229
2505,-16,-271,-137,202,-555,-239
2510,-25,-271,-155,31,-554,-242
2515,-25,-274,-172,-135,-516,-240
2520,-19,-277,-177,-258,-443,-235
2525,-9,-282,-173,-317,-351,-238
2530,3,-291,-170,-311,-253,-252
2535,8,-295,-175,-248,-161,-272
2540,12,-304,-168,-163,-87,-298
2545,21,-312,-153,-72,-53,-346
2550,26,-319,-158,-4,-15,-358
2555,9,-336,-152,58,9,-331
2560,-4,-333,-151,118,-8,-312
2565,-14,-332,-156,175,-51,-304
2570,-22,-327,-153,249,-121,-305
2575,-31,-310,-165,338,-214,-317
2580,-39,-299,-170,422,-328,-337
2585,-57,-280,-174,489,-462,-352
2590,-64,-271,-176,531,-606,-362
2595,-78,-256,-181,549,-743,-367
2600,-94,-234,-186,546,-860,-370
2605,-102,-217,-188,529,-953,-374
2610,-105,-198,-190,510,-1017,-376
2615,-104,-188,-190,493,-1055,-379
2620,-101,-176,-182,475,-1078,-374
2625,-91,-168,-176,444,-1094,-364
2630,-75,-169,-171,396,-1107,-352
2635,-64,-169,-152,330,-1113,-338
2640,-55,-171,-148,256,-1112,-322
2645,-36,-173,-139,181,-1098,-306
2650,-17,-181,-128,116,-1072,-292
2655,-5,-182,-128,66,-1034,-285
2660,2,-185,-121,35,-992,-277
2665,4,-188,-117,18,-950,-270
2670,11,-190,-115,18,-909,-264
2675,11,-191,-111,27,-873,-256
2680,21,-192,-105,37,-843,-249
2685,23,-189,-103,43,-817,-237
2690,26,-190,-105,43,-799,-229
2695,22,-190,-107,32,-784,-216
2700,24,-189,-109,16,-775,-204
2705,21,-190,-108,-7,-763,-191
2710,11,-190,-110,-30,-755,-178
2715,10,-191,-106,-45,-747,-168
2720,6,-191,-104,-48,-743,-163
2725,0,-185,-106,-42,-743,-158
2730,-7,-185,-105,-35,-742,-153
2735,-14,-186,-100,-33,-744,-152
2740,-12,-182,-100,-37,-749,-157
2745,-14,-179,-106,-49,-751,-162
2750,-17,-178,-101,-66,-754,-167
2755,-19,-178,-104,-86,-758,-176
2760,-18,-183,-97,-106,-764,-189
2765,-22,-179,-97,-125,-770,-204
2770,-23,-177,-97,-141,-773,-221
2775,-31,-182,-92,-149,-778,-240
2780,-26,-182,-85,-151,-782,-254
2785,-29,-184,-84,-148,-783,-267
2790,-28,-189,-85,-144,-778,-279
2795,-26,-188,-83,-140,-772,-289
2800,-25,-193,-84,-137,-764,-301
2805,-29,-191,-84,-129,-751,-314
2810,-29,-190,-85,-116,-735,-326
2815,-29,-190,-85,-98,-717,-338
2820,-25,-192,-87,-79,-698,-347
2825,-21,-193,-82,-63,-681,-357
2830,-18,-196,-83,-47,-670,-367
2835,-18,-192,-86,-35,-663,-374
2840,-19,-189,-89,-29,-658,-378
2845,-13,-192,-79,-26,-654,-380
2850,-24,-197,-77,-29,-642,-369
2855,-17,-196,-79,-34,-658,-377
2860,-21,-197,-79,-49,-668,-386
2865,-17,-201,-75,-65,-673,-389
2870,-13,-205,-80,-83,-677,-391
2875,-15,-203,-80,-100,-679,-396
2880,-10,-209,-79,-110,-682,-397
2885,-13,-209,-81,-116,-681,-399
2890,-10,-209,-78,-114,-678,-401
2895,-7,-214,-75,-103,-672,-402
2900,-2,-215,-68,-87,-662,-404
2905,-8,-214,-69,-66,-650,-406
2910,-1,-216,-65,-42,-634,-409
2915,1,-216,-63,-19,-614,-410
2920,-1,-219,-60,0,-591,-411
2925,0,-220,-65,15,-570,-417
2930,0,-225,-61,29,-546,-422
2935,0,-230,-57,42,-522,-426
2940,0,-232,-58,59,-500,-429
2945,-1,-235,-53,75,-482,-430
2950,-1,-239,-49,95,-461,-430
2955,0,-243,-53,115,-437,-429
2960,0,-249,-51,134,-417,-429
2965,0,-253,-53,147,-409,-428
2970,3,-256,-57,156,-404,-431
2975,1,-258,-57,169,-399,-429
2980,1,-264,-61,185,-396,-426
2985,2,-263,-59,204,-390,-425
2990,2,-264,-60,229,-382,-428
2995,4,-263,-65,254,-366,-432
3000,6,-266,-64,276,-348,-436
3005,14,-272,-64,293,-329,-447
3010,11,-265,-53,311,-308,-456
3015,7,-268,-48,318,-282,-457
3020,10,-268,-45,322,-252,-453
3025,8,-272,-34,326,-218,-444
3030,11,-279,-25,329,-172,-416
3035,6,-285,-11,336,-138,-385
3040,10,-285,-11,344,-115,-356
3045,11,-291,-11,351,-95,-319
3050,15,-296,-18,355,-83,-282
3055,14,-298,-32,349,-73,-238
3060,20,-299,-51,321,-72,-190
3065,29,-294,-80,264,-76,-141
3070,30,-298,-104,174,-83,-85
3075,32,-295,-135,58,-103,-29
3080,21,-293,-168,-68,-142,23
3085,3,-298,-188,-173,-202,68
3090,-27,-297,-195,-234,-277,105
3095,-53,-304,-192,-239,-351,131
3100,-87,-314,-179,-195,-408,151
3105,-114,-316,-159,-110,-448,163
3110,-130,-320,-148,-9,-471,166
3115,-132,-318,-144,100,-490,159
3120,-132,-314,-151,193,-507,149
3125,-124,-298,-165,261,-520,134
3130,-112,-276,-174,307,-513,125
3135,-93,-254,-180,339,-481,110
3140,-65,-236,-177,364,-418,97
3145,-44,-234,-175,385,-330,90
3150,-35,-221,-175,398,-222,89
3155,-26,-209,-181,404,-121,90
3160,-14,-198,-182,398,-39,87
3165,3,-191,-176,370,10,86
3170,31,-191,-165,331,21,84
3175,44,-188,-159,284,-4,81
3180,56,-189,-154,235,-55,73
3185,60,-189,-146,192,-121,57
3190,57,-195,-135,160,-195,35
3195,49,-197,-133,133,-268,5
3200,44,-208,-128,107,-343,-25
3205,34,-215,-121,81,-411,-57
3210,20,-217,-122,61,-472,-83
3215,12,-225,-123,50,-515,-108
3220,-2,-226,-119,48,-540,-138
3225,-7,-235,-116,52,-553,-170
3230,-23,-236,-117,62,-555,-210
3235,-32,-237,-115,74,-551,-256
3240,-44,-236,-113,86,-543,-307
3245,-52,-234,-111,104,-535,-362
3250,-57,-232,-115,130,-524,-415
3255,-57,-224,-117,169,-513,-466
3260,-53,-225,-113,211,-502,-513
3265,-42,-219,-107,244,-495,-554
3270,-37,-216,-104,261,-494,-588
3275,-29,-213,-96,270,-500,-612
3280,-16,-205,-95,260,-514,-630
3285,-7,-197,-95,238,-534,-641
3290,3,-191,-98,205,-556,-645
3295,12,-182,-97,168,-578,-635
3300,18,-177,-96,128,-598,-623
3305,24,-171,-93,84,-615,-606
3310,32,-170,-93,38,-632,-584
3315,31,-164,-93,-3,-647,-561
3320,37,-161,-87,-34,-658,-536
3325,33,-164,-84,-59,-673,-510
3330,34,-166,-86,-74,-682,-486
3335,33,-166,-84,-82,-690,-466
3340,26,-165,-81,-79,-694,-445
3345,25,-166,-85,-70,-697,-431
3350,24,-169,-81,-56,-699,-420
3355,20,-172,-87,-43,-702,-410
3360,18,-177,-82,-29,-707,-404
3365,11,-178,-82,-12,-713,-395
3370,10,-183,-84,7,-720,-390
3375,5,-183,-80,22,-734,-381
3380,8,-181,-83,35,-747,-375
3385,7,-190,-75,40,-755,-365
3390,9,-193,-75,36,-762,-351
3395,10,-196,-75,22,-765,-340
3400,12,-202,-74,0,-766,-331
3405,15,-204,-73,-29,-764,-323
3410,15,-207,-73,-61,-759,-315
3415,16,-206,-68,-91,-755,-306
3420,24,-212,-66,-117,-746,-294
3425,19,-215,-60,-130,-741,-277
3430,22,-215,-62,-134,-733,-261
3435,28,-223,-56,-128,-730,-244
3440,24,-227,-56,-114,-732,-225
3445,19,-225,-51,-89,-736,-207
3450,17,-228,-49,-60,-748,-189
3455,19,-236,-44,-23,-765,-177
3460,17,-241,-39,18,-785,-170
3465,7,-243,-36,61,-809,-163
3470,4,-245,-30,103,-833,-156
3475,2,-253,-30,143,-859,-154
3480,-1,-256,-23,182,-884,-149
3485,-2,-263,-19,216,-907,-147
3490,-1,-262,-25,247,-924,-157
3495,-10,-269,-28,270,-907,-155
3500,-9,-265,-34,294,-873,-159
3505,3,-263,-40,312,-840,-176
3510,12,-258,-46,330,-785,-179
3515,14,-258,-42,348,-725,-175
3520,20,-261,-38,371,-669,-175
3525,23,-261,-42,400,-622,-173
3530,27,-257,-48,431,-579,-165
3535,34,-253,-56,459,-534,-152
3540,45,-243,-64,475,-481,-133
3545,58,-240,-66,478,-424,-113
3550,74,-241,-66,467,-367,-100
3555,83,-246,-57,459,-316,-96
3560,90,-249,-42,465,-276,-94
3565,93,-259,-29,487,-254,-94
3570,88,-266,-27,510,-244,-101
3575,78,-275,-44,513,-246,-113
3580,65,-281,-58,476,-256,-125
3585,45,-285,-80,386,-271,-142
3590,29,-293,-108,253,-282,-164
3595,12,-298,-135,91,-270,-185
3600,10,-308,-157,-81,-217,-208
3605,5,-314,-175,-238,-119,-235
3610,14,-319,-187,-357,19,-269
3615,23,-322,-185,-408,176,-314
3620,26,-322,-174,-382,322,-366
3625,26,-327,-154,-280,437,-425
3630,31,-330,-134,-116,504,-474
3635,30,-344,-118,68,523,-503
3640,26,-351,-109,230,505,-502
3645,15,-352,-113,359,462,-474
3650,1,-340,-132,452,391,-449
3655,-8,-322,-137,527,296,-420
3660,-31,-300,-147,588,167,-395
3665,-47,-272,-153,640,6,-368
3670,-65,-251,-163,674,-182,-335
3675,-78,-232,-169,679,-380,-296
3680,-89,-215,-176,649,-580,-258
3685,-108,-195,-181,600,-758,-221
3690,-119,-186,-182,548,-906,-192
3695,-120,-182,-179,488,-1007,-170
3700,-119,-183,-187,427,-1057,-155
3705,-107,-191,-190,364,-1060,-143
3710,-93,-190,-177,308,-1027,-132
3715,-73,-193,-172,256,-964,-126
3720,-48,-200,-157,203,-888,-117
3725,-25,-205,-156,160,-812,-116
3730,-3,-212,-148,125,-743,-123
3735,16,-213,-143,98,-682,-140
3740,30,-217,-130,73,-627,-161
3745,37,-218,-119,53,-578,-186
3750,42,-229,-107,42,-535,-199
3755,47,-226,-101,35,-491,-204
3760,55,-219,-99,34,-445,-197
3765,53,-227,-97,39,-403,-180
3770,56,-226,-103,46,-372,-156
3775,55,-221,-105,55,-358,-126
3780,51,-218,-105,67,-355,-93
3785,52,-219,-104,82,-362,-55
3790,45,-215,-99,100,-378,-16
3795,40,-214,-99,115,-399,22
3800,23,-207,-90,125,-424,55
3805,16,-202,-92,135,-454,76
3810,3,-186,-85,143,-478,89
3815,0,-193,-83,144,-492,96
3820,-7,-181,-86,134,-497,96
3825,-10,-175,-87,111,-499,89
3830,-14,-168,-86,84,-494,78
3835,-20,-163,-89,55,-483,60
3840,-23,-159,-83,28,-472,43
3845,-25,-164,-81,8,-461,28
3850,-23,-163,-76,-4,-452,13
3855,-25,-166,-71,-13,-450,-2
3860,-25,-171,-64,-18,-446,-14
3865,-29,-173,-63,-20,-442,-24
3870,-25,-171,-62,-21,-437,-32
3875,-27,-171,-58,-16,-431,-39
3880,-23,-172,-60,-11,-421,-44
3885,-23,-170,-64,-3,-408,-46
3890,-22,-170,-64,7,-396,-50
3895,-17,-171,-63,19,-384,-53
3900,-16,-174,-64,29,-373,-56
3905,-16,-172,-61,32,-365,-59
3910,-13,-176,-65,28,-360,-67
3915,-12,-176,-66,20,-355,-73
3920,-11,-178,-67,6,-352,-81
3925,-10,-177,-64,-13,-350,-89
3930,-10,-179,-64,-34,-351,-96
3935,-6,-180,-59,-55,-353,-102
3940,-8,-183,-58,-73,-352,-110
3945,-12,-185,-60,-87,-349,-114
3950,-11,-189,-61,-102,-346,-118
3955,-10,-190,-52,-115,-335,-121
3960,-7,-192,-53,-122,-320,-120
3965,-3,-195,-50,-120,-299,-118
3970,-1,-199,-47,-112,-274,-114
3975,12,-211,-42,-102,-249,-110
3980,3,-208,-46,-93,-220,-108
3985,8,-208,-49,-87,-191,-104
3990,12,-219,-52,-84,-162,-100
3995,12,-224,-52,-85,-135,-92
4000,12,-233,-50,-82,-110,-84
4005,11,-241,-49,-76,-87,-74
4010,12,-247,-51,-67,-58,-66
4015,10,-254,-40,-54,-32,-56
4020,9,-263,-38,-34,-7,-48
4025,6,-270,-40,-9,12,-41
4030,5,-274,-42,21,18,-31
4035,6,-284,-42,52,15,-26
4040,0,-286,-41,90,10,-12
4045,0,-285,-43,127,-6,0
4050,-2,-286,-46,170,-16,14
4055,-13,-283,-44,217,-35,24
4060,-17,-283,-39,270,-55,27
4065,-25,-277,-39,324,-74,26
4070,-33,-270,-38,372,-80,28
4075,-37,-274,-32,407,-71,33
4080,-44,-267,-21,421,-47,39
4085,-47,-265,-10,420,-8,49
4090,-43,-275,-3,409,42,64
4095,-40,-277,-1,397,93,74
4100,-29,-284,-7,379,142,89
4105,-13,-279,-22,348,184,111
4110,-7,-290,-37,290,213,141
4115,7,-295,-61,209,225,170
4120,16,-303,-85,98,221,196
4125,21,-307,-113,-32,195,229
4130,25,-317,-148,-151,130,257
4135,22,-321,-164,-238,24,279
4140,9,-322,-185,-285,-107,310
4145,-6,-323,-199,-282,-241,356
4150,-28,-336,-186,-236,-343,412
4155,-62,-341,-164,-151,-399,472
4160,-83,-349,-150,-38,-421,522
4165,-84,-358,-146,59,-416,547
4170,-79,-351,-163,133,-383,537
4175,-64,-338,-178,171,-330,515
4180,-51,-322,-185,194,-251,488
4185,-48,-306,-189,207,-154,469
4190,-36,-295,-189,211,-56,459
4195,-15,-280,-190,225,26,451
4200,9,-262,-187,235,110,434
4205,29,-249,-184,229,202,413
4210,49,-238,-174,216,296,385
4215,56,-227,-172,206,388,363
4220,68,-218,-177,200,473,340
4225,73,-204,-177,199,533,320
4230,87,-193,-177,215,559,303
4235,99,-187,-177,240,557,289
4240,111,-187,-169,269,538,277
4245,109,-185,-167,285,512,264
4250,105,-189,-151,281,490,253
4255,98,-195,-140,254,470,234
4260,83,-202,-128,208,453,213
4265,72,-206,-124,155,436,191
4270,57,-216,-114,102,420,170
4275,41,-216,-110,60,402,143
4280,20,-223,-110,33,378,114
4285,5,-225,-113,18,352,81
4290,-9,-224,-106,9,326,42
4295,-26,-224,-106,-2,296,2
4300,-38,-224,-106,-14,271,-35
4305,-46,-222,-101,-28,253,-73
4310,-51,-215,-101,-33,244,-111
4315,-54,-212,-99,-37,240,-146
4320,-52,-207,-88,-32,241,-182
4325,-45,-196,-89,-16,245,-215
4330,-40,-193,-89,6,253,-244
4335,-28,-187,-89,22,265,-265
4340,-19,-188,-88,24,278,-279
4345,-5,-183,-83,11,293,-287
4350,2,-179,-82,-8,306,-290
4355,6,-178,-84,-30,314,-288
4360,21,-169,-83,-55,314,-280
4365,24,-169,-81,-80,307,-267
4370,29,-167,-78,-101,290,-251
4375,34,-167,-74,-119,267,-231
4380,33,-168,-73,-129,241,-212
4385,33,-169,-70,-128,212,-185
4390,32,-169,-65,-118,183,-158
4395,30,-177,-61,-102,157,-130
4400,32,-175,-57,-78,130,-101
4405,23,-173,-60,-57,107,-75
4410,21,-176,-60,-39,84,-52
4415,16,-178,-61,-25,66,-31
4420,14,-176,-64,-14,46,-17
4425,10,-173,-63,-6,28,-5
4430,10,-175,-68,1,13,2
4435,7,-178,-66,5,-1,4
4440,7,-180,-68,4,-14,2
4445,11,-180,-66,-1,-20,1
4450,8,-181,-70,-8,-25,-5
4455,7,-185,-68,-22,-27,-8
4460,12,-190,-69,-41,-32,-9
4465,12,-190,-66,-61,-38,-14
4470,17,-193,-67,-86,-45,-14
4475,18,-196,-67,-108,-53,-10
4480,16,-202,-63,-128,-61,-6
4485,22,-205,-64,-141,-71,0
4490,25,-213,-60,-146,-77,11
4495,24,-212,-63,-142,-83,23
4500,32,-223,-58,-130,-89,35
4505,29,-226,-56,-111,-97,43
4510,30,-227,-51,-86,-109,50
4515,29,-232,-53,-57,-126,57
4520,29,-236,-45,-30,-148,61
4525,23,-239,-46,-3,-177,67
4530,19,-246,-42,24,-210,73
4535,11,-250,-33,54,-244,75
4540,5,-256,-30,85,-280,76
4545,4,-259,-30,121,-307,72
4550,-7,-264,-20,156,-327,65
4555,2,-264,-22,194,-334,59
4560,-8,-266,-26,241,-326,74
4565,-1,-269,-20,287,-323,80
4570,-11,-274,-26,327,-310,83
4575,0,-274,-36,352,-288,76
4580,-2,-264,-56,359,-243,79
4585,1,-253,-73,338,-180,85
4590,18,-237,-88,291,-100,87
4595,34,-238,-88,236,-13,84
4600,57,-235,-76,197,68,77
4605,69,-242,-64,188,129,68
4610,93,-246,-46,209,166,61
4615,103,-248,-25,251,181,54
4620,108,-250,-15,300,179,44
4625,100,-259,-8,341,167,33
4630,90,-267,-1,372,152,21
4635,71,-275,3,398,137,10
4640,55,-285,1,427,122,-4
4645,49,-289,0,454,104,-18
4650,34,-302,-10,458,84,-37
4655,24,-309,-28,421,60,-56
4660,4,-313,-43,338,36,-83
4665,-2,-316,-68,223,14,-115
4670,-6,-319,-88,83,8,-145
4675,-5,-323,-114,-57,31,-169
4680,7,-319,-135,-161,86,-196
4685,27,-318,-156,-210,182,-208
4690,47,-316,-166,-204,287,-226
4695,56,-314,-169,-151,376,-258
4700,83,-307,-161,-65,443,-296
4705,93,-315,-149,42,501,-296
4710,94,-321,-135,146,528,-295
4715,71,-320,-133,229,527,-279
4720,52,-320,-141,275,501,-258
4725,37,-312,-155,289,462,-236
4730,18,-303,-166,298,417,-222
4735,-3,-282,-177,313,365,-215
4740,-17,-275,-176,333,292,-215
4745,-32,-271,-177,356,201,-214
4750,-49,-265,-169,377,101,-209
4755,-64,-256,-165,389,7,-204
4760,-81,-250,-165,389,-74,-199
4765,-97,-241,-163,369,-137,-193
4770,-105,-230,-168,344,-172,-185
4775,-110,-224,-167,319,-182,-174
4780,-97,-216,-165,298,-177,-162
4785,-87,-216,-162,279,-163,-151
4790,-63,-210,-155,261,-149,-139
4795,-43,-204,-153,239,-136,-127
4800,-26,-204,-139,217,-130,-120
4805,-7,-204,-131,197,-131,-115
4810,7,-201,-120,174,-133,-108
4815,21,-199,-111,156,-134,-101
4820,29,-199,-105,141,-123,-86
4825,37,-205,-93,122,-102,-69
4830,51,-206,-86,102,-69,-50
4835,56,-211,-80,80,-32,-22
4840,61,-209,-87,60,3,8
4845,67,-215,-80,45,33,44
4850,62,-217,-83,37,52,85
4855,59,-222,-84,35,64,126
4860,48,-222,-86,38,59,167
4865,39,-222,-83,55,48,202
4870,30,-220,-85,86,40,236
4875,21,-222,-83,114,37,270
4880,7,-216,-79,138,36,293
4885,1,-200,-78,152,41,301
4890,-1,-190,-79,150,52,310
4895,-9,-184,-80,141,71,312
4900,-12,-174,-76,125,94,309
4905,-7,-165,-74,104,116,305
4910,-10,-164,-75,78,137,302
4915,-7,-154,-77,51,153,298
4920,-15,-164,-69,26,171,298
4925,-15,-158,-66,5,173,276
4930,-11,-159,-67,-14,174,257
4935,-4,-158,-59,-31,177,238
4940,-8,-156,-65,-48,186,221
4945,-6,-163,-64,-61,195,198
4950,0,-162,-65,-70,210,178
4955,1,-162,-64,-84,226,155
4960,0,-161,-64,-91,237,133
4965,0,-163,-66,-94,247,109
4970,0,-171,-68,-96,257,90
4975,0,-171,-70,-97,268,74
4980,-6,-174,-70,-99,277,57
4985,-10,-176,-72,-106,282,43
4990,-13,-184,-72,-119,287,34
4995,-13,-181,-71,-136,286,24
5000,-14,-193,-70,-156,281,15
5005,-18,-198,-67,-177,273,5
5010,-23,-201,-66,-193,262,-1
5015,-21,-210,-64,-202,248,-11
5020,-20,-215,-60,-203,233,-22
5025,-23,-216,-57,-201,220,-35
5030,-23,-222,-53,-195,208,-48
5035,-22,-225,-52,-185,196,-59
5040,-16,-227,-49,-171,186,-73
5045,-17,-229,-43,-155,181,-86
5050,-14,-229,-40,-135,179,-99
5055,-6,-229,-35,-108,179,-111
5060,-5,-227,-35,-77,178,-122
5065,0,-230,-33,-50,178,-133
5070,0,-225,-29,-27,179,-142
5075,0,-225,-35,-2,180,-146
5080,1,-222,-32,19,186,-150
5085,2,-225,-30,39,191,-155
5090,1,-222,-34,54,198,-160
5095,4,-216,-40,64,203,-162
5100,2,-220,-39,70,211,-162
5105,5,-219,-36,70,221,-160
5110,6,-213,-41,64,235,-155
5115,10,-221,-39,59,249,-150
5120,6,-223,-36,53,263,-144
5125,19,-228,-39,45,273,-136
5130,17,-234,-42,37,283,-131
5135,18,-242,-41,31,291,-124
5140,17,-248,-44,28,295,-116
5145,15,-251,-49,23,297,-107
5150,18,-260,-51,12,286,-98
5155,22,-264,-53,5,266,-93
5160,8,-266,-59,2,238,-80
5165,-2,-268,-62,3,202,-70
5170,-9,-274,-61,9,175,-55
5175,-19,-274,-51,20,169,-38
5180,-30,-284,-43,38,186,-19
5185,-24,-288,-28,61,214,-4
5190,-32,-296,-25,82,251,15
5195,-31,-306,-6,95,280,34
5200,-36,-315,-1,110,296,50
5205,-33,-321,2,132,293,67
5210,-34,-331,5,161,279,84
5215,-29,-335,-2,182,252,102
5220,-29,-340,-18,190,222,123
5225,-23,-344,-39,174,175,147
5230,-12,-340,-59,126,127,168
5235,-8,-336,-84,50,82,185
5240,-4,-337,-108,-51,40,203
5245,-8,-336,-133,-158,-18,224
5250,-13,-340,-153,-242,-95,243
5255,-21,-338,-166,-283,-191,254
5260,-32,-337,-178,-284,-289,269
5265,-43,-335,-174,-247,-361,290
5270,-65,-332,-178,-167,-391,313
5275,-73,-336,-180,-62,-389,327
5280,-67,-330,-185,42,-361,323
5285,-63,-314,-199,127,-320,309
5290,-70,-287,-224,173,-292,295
5295,-58,-256,-243,183,-275,285
5300,-42,-230,-257,174,-222,285
5305,-33,-207,-253,152,-94,290
5310,-7,-186,-237,127,85,289
5315,21,-164,-232,102,289,272
5320,59,-149,-227,70,490,245
5325,109,-136,-237,17,654,211
5330,130,-135,-233,-60,756,173
5335,161,-136,-227,-161,790,133
5340,168,-147,-219,-265,768,105
5345,167,-165,-202,-356,702,89
5350,150,-190,-185,-426,615,81
5355,140,-205,-169,-478,522,74
5360,122,-234,-156,-519,436,70
5365,102,-258,-147,-548,365,70
5370,80,-274,-146,-564,312,73
5375,66,-289,-149,-578,276,72
5380,46,-291,-153,-584,257,62
5385,27,-285,-161,-583,259,50
5390,12,-281,-166,-570,281,31
5395,0,-275,-159,-539,313,2
5400,-15,-266,-143,-484,341,-37
5405,-22,-252,-134,-406,358,-86
5410,-30,-243,-124,-319,369,-145
5415,-35,-234,-108,-241,371,-211
5420,-36,-227,-99,-184,365,-279
5425,-35,-216,-90,-147,350,-346
5430,-34,-207,-88,-132,328,-403
5435,-29,-198,-88,-138,303,-446
5440,-17,-190,-85,-160,278,-470
5445,-15,-186,-79,-190,255,-483
5450,-1,-180,-78,-222,233,-489
5455,6,-177,-75,-261,211,-490
5460,9,-179,-71,-311,192,-485
5465,10,-184,-76,-374,168,-477
5470,9,-176,-72,-450,141,-470
5475,16,-184,-77,-522,122,-443
5480,15,-183,-71,-581,97,-419
5485,17,-181,-67,-624,74,-384
5490,20,-180,-72,-644,57,-322
5495,24,-190,-65,-646,31,-273
5500,29,-188,-63,-628,2,-250
5505,31,-186,-63,-597,-24,-226
5510,25,-190,-64,-565,-46,-211
5515,21,-192,-63,-530,-70,-209
5520,12,-198,-65,-502,-99,-227
5525,26,-186,-73,-480,-145,-283
5530,26,-185,-79,-474,-156,-299
5535,26,-181,-83,-466,-156,-284
5540,20,-184,-78,-457,-163,-264
5545,18,-191,-81,-434,-172,-256
5550,19,-191,-77,-402,-182,-250
5555,17,-192,-80,-368,-186,-239
5560,25,-195,-80,-337,-192,-230
5565,28,-195,-88,-316,-194,-220
5570,31,-196,-92,-308,-191,-208
5575,32,-201,-93,-305,-183,-198
5580,21,-210,-87,-289,-187,-210
5585,36,-197,-92,-280,-205,-251
5590,49,-193,-95,-277,-198,-246
5595,49,-197,-96,-269,-189,-210
5600,51,-193,-94,-244,-192,-183
5605,51,-195,-94,-209,-199,-162
5610,51,-190,-96,-169,-211,-149
5615,53,-197,-92,-130,-222,-134
5620,51,-193,-93,-87,-234,-125
5625,58,-200,-92,-50,-247,-118
5630,54,-197,-87,-20,-263,-117
5635,58,-197,-86,6,-285,-119
5640,60,-200,-79,27,-309,-116
5645,61,-201,-82,47,-331,-112
5650,54,-202,-77,65,-350,-109
5655,63,-201,-78,77,-364,-108
5660,59,-200,-75,83,-372,-109
5665,61,-203,-79,79,-375,-113
5670,64,-210,-80,70,-372,-121
5675,64,-217,-87,51,-367,-135
5680,64,-227,-80,30,-365,-150
5685,59,-234,-92,7,-363,-169
5690,61,-246,-97,-8,-359,-191
5695,60,-246,-99,-16,-352,-210
5700,60,-254,-107,-17,-342,-224
5705,66,-260,-113,-13,-330,-234
5710,66,-260,-115,-4,-314,-243
5715,66,-268,-116,10,-296,-246
5720,67,-274,-113,22,-272,-247
5725,61,-274,-122,32,-248,-250
5730,57,-273,-124,40,-220,-250
5735,57,-272,-127,49,-196,-249
5740,55,-271,-126,58,-175,-243
5745,50,-281,-121,68,-158,-237
5750,64,-264,-118,66,-159,-251
5755,60,-262,-123,42,-138,-220
5760,57,-261,-127,5,-129,-192
5765,60,-255,-140,-52,-122,-166
5770,65,-247,-157,-130,-111,-142
5775,72,-243,-177,-230,-96,-113
5780,84,-237,-194,-343,-73,-85
5785,99,-240,-217,-467,-41,-59
5790,108,-241,-233,-598,1,-36
5795,124,-254,-253,-724,54,-11
5800,138,-265,-256,-817,115,-4
5805,151,-282,-254,-884,185,0
5810,160,-301,-250,-928,274,-1
5815,140,-315,-229,-943,378,-9
5820,132,-326,-213,-926,481,-47
5825,107,-332,-196,-889,586,-48
5830,76,-325,-180,-823,660,-44
5835,50,-308,-171,-721,684,-40
5840,23,-290,-164,-595,638,-22
5845,-8,-260,-159,-445,511,12
5850,-34,-238,-160,-282,310,45
5855,-58,-211,-160,-116,51,73
5860,-82,-190,-171,30,-235,94
5865,-103,-164,-168,149,-513,110
5870,-113,-147,-178,244,-745,124
5875,-124,-128,-175,317,-905,139
5880,-122,-119,-171,365,-989,154
5885,-108,-111,-163,382,-1004,161
5890,-92,-108,-158,373,-957,165
5895,-64,-104,-144,337,-862,171
5900,-29,-115,-132,270,-753,172
5905,5,-129,-123,179,-650,162
5910,27,-146,-118,74,-563,150
5915,41,-168,-123,-38,-489,140
5920,51,-189,-122,-137,-423,120
5925,50,-202,-132,-193,-357,93
5930,42,-219,-139,-208,-306,57
5935,31,-236,-155,-184,-268,16
5940,20,-243,-163,-128,-241,-20
5945,1,-251,-163,-46,-231,-54
5950,-15,-251,-163,58,-225,-75
5955,-26,-256,-160,173,-232,-93
5960,-27,-252,-146,279,-248,-99
5965,-34,-249,-147,362,-274,-99
5970,-27,-242,-142,423,-293,-90
5975,-21,-247,-137,460,-304,-73
5980,-24,-238,-139,479,-327,-62
5985,-13,-229,-145,462,-354,-62
5990,-14,-230,-146,411,-388,-65
5995,-10,-224,-151,360,-446,-73
6000,-4,-218,-150,310,-508,-81
6005,0,-214,-150,267,-567,-93
6010,4,-203,-152,235,-622,-109
6015,5,-202,-143,220,-661,-128
6020,4,-206,-144,215,-695,-151
6025,5,-206,-140,207,-709,-177
6030,1,-210,-144,199,-701,-204
6035,5,-215,-137,208,-681,-235
6040,3,-211,-134,202,-644,-262
6045,-8,-221,-127,195,-606,-287
6050,-12,-219,-128,229,-583,-334
6055,-15,-217,-114,259,-555,-375
6060,-19,-215,-119,294,-532,-409
6065,-24,-217,-112,327,-508,-435
6070,-28,-217,-107,360,-490,-458
6075,-30,-215,-109,387,-478,-470
6080,-27,-213,-97,407,-471,-478
6085,-28,-199,-99,426,-469,-482
6090,-22,-202,-93,444,-472,-480
6095,-22,-202,-89,450,-478,-477
6100,-14,-203,-82,464,-496,-482
6105,-7,-199,-79,477,-519,-498
6110,-4,-195,-84,496,-544,-519
6115,-5,-199,-79,511,-560,-537
6120,-4,-195,-86,525,-569,-563
6125,-7,-191,-89,540,-566,-588
6130,2,-192,-86,562,-549,-609
6135,0,-191,-96,583,-519,-627
6140,0,-193,-91,603,-483,-641
6145,1,-190,-88,619,-447,-645
6150,8,-193,-78,643,-410,-642
6155,16,-190,-71,679,-373,-632
6160,23,-191,-64,721,-336,-612
6165,29,-193,-63,767,-298,-586
6170,29,-191,-60,816,-255,-551
6175,35,-188,-67,871,-199,-508
6180,35,-174,-68,937,-131,-457
6185,40,-162,-64,1014,-53,-402
6190,47,-149,-59,1090,26,-343
6195,56,-124,-43,1160,105,-276
6200,62,-98,-44,1201,186,-198
6205,65,-69,-52,1212,278,-111
6210,66,-45,-63,1207,390,-23
6215,76,-24,-70,1192,520,52
6220,81,-2,-77,1159,655,105
6225,89,22,-92,1105,777,124
6230,96,51,-108,1019,881,133
6235,87,78,-112,921,956,135
6240,68,98,-114,820,995,142
6245,59,112,-110,730,1002,142
6250,49,115,-90,634,989,148
6255,27,104,-71,528,970,163
6260,10,77,-54,418,956,191
6265,-5,53,-54,300,929,231
6270,-17,31,-67,164,867,281
6275,-18,10,-111,10,765,343
6280,-17,-13,-162,-173,650,428
6285,-12,-42,-217,-373,530,517
6290,-19,-72,-257,-567,408,599
6295,-26,-114,-284,-729,281,664
6300,-36,-161,-299,-813,156,707
6305,-27,-211,-292,-812,47,717
6310,-19,-248,-298,-762,-44,701
6315,-23,-280,-299,-721,-138,674
6320,-34,-305,-293,-696,-246,651
6325,-46,-322,-283,-657,-361,636
6330,-49,-336,-271,-586,-456,604
6335,-56,-323,-263,-506,-532,533
6340,-71,-305,-250,-423,-624,417
6345,-76,-298,-222,-323,-714,305
6350,-80,-281,-182,-190,-785,213
6355,-71,-250,-164,-8,-855,99
6360,-69,-214,-152,179,-917,-25
6365,-35,-187,-119,307,-939,-87
6370,-11,-165,-96,387,-930,-104
6375,15,-121,-67,427,-914,-111
6380,33,-92,-42,402,-904,-82
6385,59,-71,-22,334,-916,-33
6390,70,-53,-14,265,-970,-5
6395,74,-48,-16,213,-1057,13
6400,77,-48,-22,165,-1140,25
6405,87,-58,-16,126,-1183,13
6410,86,-62,-28,117,-1175,-20
6415,97,-64,-33,142,-1138,-72
6420,111,-63,-35,188,-1090,-132
6425,115,-60,-40,229,-1051,-196
6430,111,-60,-43,250,-1031,-250
6435,104,-52,-41,254,-1027,-294
6440,100,-38,-35,244,-1030,-329
6445,93,-30,-42,212,-1029,-345
6450,80,-20,-40,163,-1028,-349
6455,63,-19,-34,115,-1039,-337
6460,35,-19,-33,85,-1071,-315
6465,9,-15,-26,79,-1107,-286
6470,-10,-19,-24,97,-1132,-258
6475,-27,-23,-21,136,-1148,-231
6480,-38,-34,-26,183,-1158,-200
6485,-47,-53,-43,228,-1166,-161
6490,-49,-75,-62,265,-1170,-119
6495,-41,-99,-82,295,-1170,-68
6500,-27,-113,-101,337,-1173,-18
6505,-26,-125,-128,383,-1179,33
6510,-27,-132,-149,401,-1189,76
6515,-33,-129,-182,367,-1184,110
6520,-20,-124,-194,303,-1133,124
6525,-2,-125,-199,217,-1041,113
6530,22,-125,-187,101,-923,77
6535,43,-139,-175,-58,-802,29
6540,68,-170,-166,-235,-695,-40
6545,78,-202,-155,-402,-608,-128
6550,83,-228,-159,-537,-544,-218
6555,86,-259,-167,-623,-497,-304
6560,88,-289,-179,-684,-461,-364
6565,77,-319,-189,-724,-438,-391
6570,45,-339,-208,-722,-449,-378
6575,24,-354,-223,-634,-494,-322
6580,-2,-345,-246,-476,-569,-248
6585,-38,-326,-256,-298,-637,-177
6590,-62,-303,-265,-160,-716,-140
6595,-77,-293,-263,-52,-785,-140
6600,-77,-282,-269,59,-809,-164
6605,-77,-244,-276,182,-806,-187
6610,-68,-211,-285,293,-794,-197
6615,-59,-190,-265,362,-771,-193
6620,-54,-183,-230,393,-752,-177
6625,-49,-177,-206,425,-736,-164
6630,-34,-173,-189,461,-714,-159
6635,-22,-174,-164,522,-661,-155
6640,-4,-191,-142,587,-580,-157
6645,9,-198,-125,647,-487,-164
6650,15,-205,-121,674,-412,-178
6655,27,-218,-120,681,-358,-203
6660,29,-225,-129,694,-314,-237
6665,42,-230,-127,737,-270,-272
6670,45,-236,-136,809,-241,-306
6675,42,-234,-144,892,-224,-343
6680,48,-234,-138,954,-221,-379
6685,42,-235,-138,1007,-228,-405
6690,37,-244,-138,1078,-244,-414
6695,31,-255,-132,1178,-263,-408
6700,25,-265,-134,1319,-286,-386
6705,9,-271,-129,1481,-313,-348
6710,0,-271,-123,1629,-345,-298
6715,-7,-269,-112,1748,-373,-253
6720,-16,-258,-102,1854,-384,-223
6725,-17,-248,-97,1956,-371,-211
6730,-16,-240,-94,2048,-328,-225
6735,-10,-235,-96,2128,-274,-258
6740,-16,-231,-102,2211,-224,-300
6745,-15,-227,-97,2298,-188,-341
6750,-17,-237,-92,2382,-172,-374
6755,-19,-240,-96,2459,-176,-404
6760,-15,-240,-95,2510,-191,-424
6765,-17,-242,-114,2541,-222,-456
6770,-21,-246,-137,2558,-285,-491
6775,-33,-249,-133,2588,-354,-519
6780,-46,-251,-120,2685,-411,-547
6785,-56,-251,-114,2848,-463,-581
6790,-61,-247,-117,3018,-486,-613
6795,-59,-242,-106,3136,-463,-661
6800,-55,-218,-99,3227,-422,-723
6805,-37,-200,-98,3287,-390,-781
6810,-24,-203,-97,3315,-388,-834
6815,15,-206,-106,3332,-441,-890
6820,41,-199,-128,3308,-498,-952
6825,19,-202,-116,3240,-504,-995
6830,22,-249,-61,3186,-471,-1027
6835,-2,-349,5,3224,-445,-1075
6840,-13,-459,19,3281,-437,-1090
6845,-64,-586,38,3264,-437,-1074
6850,-147,-765,79,3194,-451,-1012
6855,-158,-899,104,3134,-475,-930
6860,-162,-1065,112,3101,-445,-827
6865,-219,-1187,127,3183,-353,-672
6870,-287,-1254,99,3492,-296,-528
6875,-295,-1278,54,3989,-296,-421
6880,-282,-1274,39,4594,-273,-317
6885,-226,-1196,29,5170,-249,-237
6890,-186,-1019,20,5642,-215,-199
6895,-167,-817,8,6041,-159,-163
6900,-145,-628,-6,6364,-114,-99
6905,-126,-507,-5,6565,-58,-8
6910,-81,-371,-20,6628,-17,80
6915,-30,-240,-54,6561,13,156
6920,0,-131,-85,6408,29,191
6925,6,-40,-106,6200,35,224
6930,-1,0,-126,5924,12,259
6935,-26,46,-153,5594,-28,301
6940,-62,75,-175,5239,-81,343
6945,-93,92,-181,4887,-166,380
6950,-143,96,-184,4574,-283,404
6955,-153,94,-166,4310,-421,412
6960,-174,69,-159,4120,-551,390
6965,-172,48,-151,3935,-690,348
6970,-156,24,-151,3741,-843,290
6975,-148,-6,-131,3546,-1015,231
6980,-125,-25,-128,3369,-1217,181
6985,-49,-41,-99,3224,-1409,119
6990,5,-40,-72,3125,-1509,58
6995,65,-38,-27,3046,-1505,12
7000,99,-38,28,2984,-1428,-24
7005,117,-44,93,2902,-1340,-48
7010,133,-55,133,2834,-1253,-45
7015,189,-46,175,2813,-1168,-31
7020,218,-23,191,2836,-1046,-22
7025,206,4,219,2861,-917,13
7030,243,26,259,2886,-799,34
7035,219,31,290,2923,-699,9
7040,210,47,288,2957,-641,-20
7045,173,65,262,2955,-555,-62
7050,196,73,299,2881,-466,-90
7055,188,85,326,2811,-372,-150
7060,189,90,355,2722,-297,-226
7065,121,107,361,2632,-242,-303
7070,99,117,382,2522,-250,-354
7075,73,125,412,2456,-269,-409
7080,81,136,422,2427,-288,-453
7085,82,137,436,2368,-292,-505
7090,62,138,453,2290,-263,-533
7095,69,142,466,2192,-249,-533
7100,78,149,490,2090,-256,-526
7105,65,161,522,1983,-254,-490
7110,76,184,535,1845,-256,-440
7115,112,211,555,1648,-244,-380
7120,135,240,564,1398,-200,-322
7125,151,244,578,1100,-142,-263
7130,139,234,569,799,-90,-198
7135,125,228,554,507,-60,-128
7140,99,218,528,243,-63,-61
7145,93,194,504,47,-97,10
7150,91,166,474,-73,-151,77
7155,96,138,452,-131,-212,137
7160,94,113,443,-147,-267,197
7165,107,81,429,-140,-321,247
7170,111,15,437,-104,-396,266
7175,112,-24,420,-5,-533,236
7180,85,-53,378,90,-647,206
7185,69,-66,333,112,-654,221
7190,28,-80,275,67,-586,231
7195,13,-84,242,28,-491,220
7200,18,-84,230,76,-383,177
7205,38,-93,222,221,-283,125
7210,41,-89,214,388,-200,62
7215,14,-76,211,543,-124,19
7220,-8,-47,213,633,-73,-5
7225,6,-22,222,657,-55,-11
7230,15,12,236,659,-46,-44
7235,7,22,230,645,-38,-51
7240,11,59,239,600,-51,-55
7245,14,73,241,539,-80,-57
7250,33,80,237,475,-115,-54
7255,39,91,225,411,-142,-57
7260,49,86,214,335,-165,-58
7265,57,82,193,248,-186,-64
7270,60,67,182,156,-210,-69
7275,67,57,178,80,-232,-76
7280,68,47,176,34,-241,-79
7285,65,33,171,8,-246,-69
7290,60,22,176,-6,-256,-51
7295,66,14,172,9,-251,-48
7300,65,7,173,27,-236,-45
7305,58,5,167,34,-216,-36
7310,59,1,171,34,-195,-32
7315,58,6,168,42,-173,-36
7320,70,2,167,53,-155,-43
7325,75,2,167,73,-133,-65
7330,81,-4,170,107,-119,-93
7335,90,-1,173,145,-109,-129
7340,102,0,172,188,-97,-171
7345,111,0,176,221,-73,-212
7350,110,2,186,227,-33,-243
7355,117,5,192,200,12,-259
7360,119,11,190,151,59,-267
7365,117,12,196,85,101,-269
7370,121,11,194,14,136,-263
7375,120,5,192,-52,165,-255
7380,116,-6,190,-106,193,-245
7385,122,-12,192,-150,224,-242
7390,122,-19,186,-186,252,-248
7395,125,-19,189,-211,271,-265
7400,127,-21,193,-235,283,-288
7405,127,-19,192,-263,296,-318
7410,128,-21,191,-301,307,-344
7415,128,-16,191,-342,322,-372
7420,123,-14,192,-387,343,-388
7425,121,-20,197,-430,366,-402
7430,124,-19,195,-462,390,-411
7435,118,-22,201,-490,417,-415
7440,112,-22,205,-507,443,-416
7445,107,-20,208,-513,462,-415
7450,103,-28,215,-511,480,-412
7455,103,-31,219,-503,496,-407
7460,100,-34,225,-495,512,-402
7465,99,-37,229,-486,531,-396
7470,103,-48,243,-472,547,-392
7475,109,-52,261,-446,561,-392
7480,112,-61,281,-410,555,-394
7485,121,-59,295,-380,536,-406
7490,121,-60,297,-361,515,-417
7495,117,-58,300,-372,496,-425
7500,114,-63,288,-418,479,-422
7505,105,-61,278,-483,468,-414
7510,99,-63,270,-554,460,-403
7515,98,-61,261,-618,454,-386
7520,88,-63,247,-673,453,-366
7525,78,-62,241,-710,456,-342
7530,65,-65,226,-724,464,-313
7535,61,-70,223,-706,479,-278
7540,46,-76,220,-646,496,-243
7545,47,-84,227,-549,515,-213
7550,48,-89,232,-430,533,-184
7555,48,-86,243,-308,547,-160
7560,42,-79,255,-203,551,-139
7565,39,-77,267,-124,543,-117
7570,30,-68,283,-83,520,-91
7575,25,-58,300,-83,483,-65
7580,20,-51,304,-119,436,-36
7585,15,-41,296,-176,392,-3
7590,20,-41,292,-236,355,30
7595,12,-48,298,-287,324,61
7600,9,-54,299,-312,299,79
7605,9,-65,302,-318,273,89
7610,15,-70,294,-315,239,93
7615,18,-74,271,-311,203,99
7620,16,-71,255,-315,168,109
7625,13,-71,240,-326,137,118
7630,16,-73,230,-325,113,128
7635,12,-77,219,-301,98,136
7640,13,-80,216,-256,95,138
7645,13,-84,215,-197,106,138
7650,20,-87,220,-140,128,141
7655,17,-80,227,-94,152,140
7660,18,-80,241,-57,175,141
7665,25,-77,253,-33,191,142
7670,24,-72,265,-33,208,140
7675,20,-71,268,-46,212,136
7680,19,-65,260,-82,205,122
7685,19,-59,255,-142,185,106
7690,12,-60,249,-209,153,85
7695,10,-60,244,-266,120,68
7700,9,-64,235,-323,91,58
7705,10,-68,226,-352,65,53
7710,24,-66,225,-366,53,51
7715,30,-64,222,-373,59,55
7720,34,-72,224,-382,77,62
7725,35,-79,227,-388,97,69
7730,36,-89,223,-391,112,78
7735,44,-98,227,-387,124,87
7740,44,-111,230,-373,137,99
7745,49,-110,228,-349,143,115
7750,48,-119,228,-321,147,134
7755,49,-109,227,-283,149,156
7760,52,-101,234,-254,157,175
7765,47,-93,229,-242,162,192
7770,41,-88,233,-251,159,203
7775,36,-84,235,-278,153,205
7780,32,-83,234,-312,144,201
7785,32,-83,223,-357,142,193
7790,31,-79,216,-398,156,181
7795,31,-76,215,-425,175,169
7800,38,-83,205,-431,191,157
7805,44,-84,207,-425,199,146
7810,44,-90,214,-414,203,137
7815,49,-93,213,-398,206,130
7820,54,-105,223,-388,219,131
7825,61,-110,226,-382,236,134
7830,61,-111,233,-377,256,144
7835,56,-112,240,-374,275,155
7840,46,-115,241,-374,285,168
7845,41,-122,237,-378,283,180
7850,32,-124,237,-381,269,192
7855,24,-129,236,-382,259,205
7860,11,-132,231,-378,253,214
7865,8,-128,231,-367,252,217
7870,3,-122,231,-352,257,221
7875,4,-122,234,-326,269,224
7880,3,-111,240,-300,280,229
7885,9,-103,241,-281,285,232
7890,17,-100,243,-269,286,234
7895,23,-92,245,-273,281,243
7900,29,-91,243,-291,275,256
7905,37,-90,238,-318,275,264
7910,40,-97,232,-342,288,271
7915,43,-102,236,-352,315,277
7920,46,-112,249,-345,342,286
7925,37,-114,239,-326,363,295
7930,34,-119,238,-297,374,303
7935,24,-126,235,-263,378,307
7940,15,-131,232,-223,383,312
7945,16,-139,224,-175,394,316
7950,18,-146,227,-116,421,317
7955,19,-153,227,-43,452,310
7960,10,-150,231,40,465,297
7965,6,-153,225,130,462,282
7970,6,-143,224,226,453,266
7975,-2,-129,218,333,446,244
7980,-6,-122,214,430,434,221
7985,-9,-111,212,516,418,192
7990,-6,-106,219,581,405,163
7995,0,-99,230,632,396,131
8000,1,-102,240,659,386,104
8005,0,-106,244,657,367,94
8010,-11,-103,250,633,339,88
8015,-12,-114,246,586,302,82
8020,-26,-113,237,537,259,72
8025,-34,-113,223,494,216,62
8030,-48,-110,199,449,172,52
8035,-57,-109,179,418,133,42
8040,-58,-106,165,404,106,40
8045,-50,-100,155,416,101,49
8050,-41,-98,151,453,118,54
8055,-25,-98,152,509,153,50
8060,-14,-94,153,574,190,35
8065,-8,-90,150,635,215,15
8070,-13,-89,159,679,225,6
8075,-13,-88,167,700,212,8
8080,-12,-83,174,694,185,23
8085,-15,-85,191,672,159,41
8090,-20,-91,190,641,132,62
8095,-27,-93,205,604,106,85
8100,-33,-98,211,565,77,108
8105,-37,-99,215,527,44,127
8110,-37,-105,224,497,8,135
8115,-39,-104,223,477,-24,136
8120,-39,-105,220,471,-55,130
8125,-37,-103,222,479,-87,118
8130,-41,-103,222,496,-114,103
8135,-37,-104,219,516,-135,84
8140,-26,-104,213,537,-150,61
8145,-25,-99,221,557,-160,39
8150,-21,-101,220,568,-165,19
8155,-12,-99,223,576,-167,1
8160,-9,-91,225,582,-165,-18
8165,0,-91,227,586,-163,-31
8170,2,-88,231,587,-161,-45
8175,6,-84,235,586,-160,-55
8180,9,-81,236,582,-159,-61
8185,14,-80,238,576,-159,-67
8190,14,-76,245,569,-155,-69
8195,19,-78,246,559,-150,-73
8200,19,-76,246,546,-143,-80
8205,20,-71,247,529,-131,-84
8210,19,-73,249,507,-122,-94
8215,17,-70,244,482,-114,-102
8220,19,-70,250,456,-106,-113
8225,17,-67,248,428,-96,-125
8230,17,-65,243,398,-89,-136
8235,18,-65,243,369,-82,-147
8240,17,-64,245,339,-75,-158
8245,20,-61,244,310,-71,-171
8250,15,-62,242,281,-66,-180
8255,18,-57,249,255,-62,-189
8260,18,-54,249,232,-61,-193
8265,19,-56,251,209,-60,-197
8270,17,-50,252,191,-54,-199
8275,17,-51,251,182,-48,-202
8280,17,-48,250,176,-42,-201
8285,17,-49,254,174,-37,-200
8290,18,-45,254,175,-38,-203
8295,19,-39,256,180,-37,-206
8300,24,-42,253,184,-26,-210
8305,23,-43,249,187,-16,-214
8310,22,-35,252,189,-8,-216
8315,24,-36,250,191,6,-218
8320,19,-42,251,195,28,-205
8325,11,-35,249,203,33,-194
8330,11,-38,249,209,27,-188
8335,13,-40,246,208,23,-179
8340,12,-42,244,207,21,-162
8345,28,-38,246,206,24,-139
8350,4,-49,249,212,47,-91
8355,2,-48,254,206,31,-85
8360,0,-53,252,192,15,-87
8365,3,-53,252,178,-1,-91
8370,3,-57,252,165,-13,-88
8375,5,-61,255,156,-27,-87
8380,4,-63,255,148,-37,-84
8385,2,-64,247,137,-34,-82
8390,2,-62,243,126,-27,-82
8395,1,-63,247,109,-15,-80
8400,1,-64,251,100,-10,-77
8405,2,-63,247,92,-7,-72
8410,1,-61,250,83,-6,-70
8415,6,-64,252,75,-3,-66
8420,9,-66,246,69,-2,-63
8425,6,-64,242,66,3,-62
8430,12,-64,240,66,8,-61
8435,9,-61,233,73,11,-58
8440,12,-62,235,86,12,-54
8445,12,-61,225,103,13,-49
8450,11,-57,233,119,12,-43
8455,16,-55,230,133,10,-37
8460,16,-52,230,144,5,-28
8465,13,-57,242,151,1,-20
8470,18,-57,237,155,-3,-13
8475,17,-56,238,155,-8,-9
8480,17,-57,238,151,-13,-7
8485,19,-57,238,148,-17,-5
8490,17,-58,233,140,-18,-4
8495,16,-60,238,138,-20,-3
8500,18,-61,236,136,-19,-3
8505,18,-64,239,134,-19,-3
8510,18,-63,235,133,-18,-4
8515,16,-62,235,135,-14,-2
8520,14,-61,234,135,-12,-1
8525,15,-59,236,137,-13,1
8530,14,-62,239,136,-13,3
8535,13,-61,240,136,-13,8
8540,13,-63,245,136,-12,12
8545,12,-63,248,131,-9,13
8550,11,-63,247,122,-10,14
8555,10,-64,247,109,-8,14
8560,11,-64,246,96,-8,12
8565,14,-69,241,86,-6,7
8570,9,-65,238,82,-4,5
8575,12,-65,236,84,-2,5
8580,12,-65,233,88,-4,6
8585,13,-62,231,91,-1,7
8590,13,-60,229,93,-2,9
8595,18,-61,231,92,-2,12
8600,14,-60,228,92,-2,12
8605,11,-57,226,90,-2,11
8610,12,-56,219,89,-3,13
8615,13,-55,223,86,-2,13
8620,14,-52,227,84,-1,12
8625,9,-51,228,84,-1,13
8630,11,-49,230,83,0,13
8635,10,-53,228,82,3,15
8640,11,-52,235,82,5,13
8645,10,-55,238,83,8,12
8650,11,-55,240,83,9,13
8655,13,-56,243,85,10,10
8660,13,-56,245,87,11,9
8665,12,-57,241,91,14,12
8670,13,-57,249,88,19,10
8675,11,-56,245,83,21,6
8680,12,-57,243,82,22,2
8685,12,-56,251,81,24,0
8690,12,-58,242,81,25,-2
8695,11,-59,247,80,25,-5
8700,10,-58,248,83,24,-9
8705,9,-58,247,88,21,-9
8710,9,-56,246,92,20,-10
8715,7,-55,248,95,17,-9
8720,9,-56,243,101,12,-9
8725,7,-59,248,105,10,-9
8730,6,-53,243,107,8,-11
8735,7,-57,242,111,4,-10
8740,7,-58,243,116,2,-9
8745,4,-59,243,117,-2,-9
8750,7,-52,243,122,-1,-10
8755,6,-55,244,127,-3,-10
8760,5,-49,245,133,-3,-12
8765,4,-53,245,140,-5,-13
8770,7,-53,247,145,-4,-14
8775,3,-52,247,149,-5,-13
8780,5,-53,240,154,0,-16
8785,7,-53,249,155,3,-15
8790,5,-52,245,155,10,-19
8795,10,-44,245,155,4,-20
8800,9,-55,245,152,2,-20
8805,7,-51,242,146,3,-20
8810,10,-54,245,139,3,-18
8815,9,-55,249,131,7,-18
8820,10,-55,245,124,9,-18
8825,8,-55,241,119,10,-15
8830,10,-53,243,113,11,-15
8835,8,-52,242,109,11,-13
8840,9,-51,247,106,9,-12
8845,9,-54,239,104,5,-9
8850,6,-45,240,104,1,-9
8855,9,-54,242,106,-2,-7
8860,8,-53,241,105,-7,-6
8865,10,-55,242,105,-9,-7
8870,10,-53,240,105,-12,-9
8875,8,-52,241,106,-12,-10
8880,12,-51,244,106,-13,-13
8885,11,-52,246,105,-11,-12
8890,7,-49,238,105,-9,-12
8895,13,-54,246,106,-6,-14
8900,9,-51,242,109,-4,-13
8905,8,-53,245,108,-3,-15
8910,12,-49,244,106,-1,-15
8915,10,-47,240,105,1,-17
8920,10,-49,240,101,3,-13
8925,11,-49,242,99,3,-14
8930,13,-50,246,96,3,-13
8935,12,-48,241,92,0,-12
8940,15,-48,243,87,-1,-10
8945,11,-55,239,84,-1,-7
8950,11,-53,246,78,-3,-11
8955,15,-51,246,73,-5,-13
8960,16,-54,243,69,-6,-15
8965,13,-54,243,65,-5,-15
8970,14,-53,245,65,-7,-18
8975,12,-54,244,66,-8,-19
8980,13,-53,243,67,-7,-21
8985,12,-52,242,71,-5,-21
8990,12,-47,241,73,-2,-22
8995,14,-49,245,76,0,-22
9000,11,-51,242,77,1,-21
9005,15,-52,243,79,3,-19
9010,11,-46,243,80,3,-16
9015,12,-48,242,80,3,-15
9020,14,-51,241,81,5,-11
9025,13,-52,243,85,6,-11
9030,9,-48,241,87,7,-8
9035,14,-51,244,91,8,-5
9040,12,-49,245,94,9,-6
9045,15,-51,244,95,6,-6
9050,12,-50,241,94,6,-5
9055,9,-51,242,95,5,-5
9060,11,-51,247,95,3,-6
9065,16,-45,240,100,4,-5
9070,16,-53,243,101,2,-5
9075,9,-49,243,105,3,-3
9080,12,-52,246,107,2,-5
9085,10,-49,245,104,0,-8
9090,11,-50,244,103,0,-8
9095,13,-51,248,100,1,-9
9100,9,-46,241,97,4,-7
9105,9,-49,246,94,7,-6
9110,9,-48,241,91,10,-6
9115,11,-48,242,87,14,-7
9120,8,-45,235,84,16,-4
9125,12,-50,244,81,18,-1
9130,11,-50,245,78,19,-1
9135,11,-48,243,76,18,0
9140,14,-52,243,72,17,0
9145,10,-46,241,70,15,0
9150,12,-47,240,69,14,0
9155,11,-48,241,69,14,-1
9160,9,-51,244,67,13,-1
9165,12,-47,244,67,10,-2
9170,12,-46,245,67,9,-4
9175,9,-52,245,68,10,-6
9180,10,-47,242,67,9,-6
9185,10,-49,244,67,8,-8
9190,9,-51,248,68,8,-9
9195,9,-53,243,67,9,-9
9200,13,-50,244,67,9,-10
9205,10,-53,244,68,8,-10
9210,10,-50,241,67,9,-10
9215,13,-49,241,66,9,-11
9220,8,-48,242,66,9,-13
9225,12,-49,242,64,10,-10
9230,12,-50,257,62,10,-10
9235,11,-50,243,60,9,-11
9240,10,-45,240,58,8,-11
9245,12,-50,245,56,8,-11
9250,11,-48,243,54,8,-11
9255,11,-47,243,51,6,-11
9260,11,-49,243,50,6,-11
9265,12,-49,248,50,6,-10
9270,12,-48,244,50,8,-12
9275,9,-52,246,49,8,-11
9280,12,-49,241,51,9,-12
9285,12,-53,248,50,7,-12
9290,10,-50,247,49,8,-13
9295,11,-50,245,47,7,-12
9300,12,-50,245,45,8,-12
9305,11,-51,247,46,8,-12
9310,11,-51,242,46,8,-11
9315,8,-49,241,47,8,-9
9320,13,-51,244,49,9,-10
9325,10,-49,242,52,8,-8
9330,10,-50,243,57,7,-8
9335,7,-49,242,60,4,-9
9340,12,-52,239,63,2,-9
9345,8,-49,243,66,0,-8
9350,11,-49,245,68,0,-10
9355,12,-48,245,71,-1,-11
9360,13,-51,244,71,-1,-11
9365,11,-50,245,70,-2,-11
9370,11,-47,243,68,-2,-11
9375,12,-45,246,65,-1,-12
9380,13,-46,245,60,0,-12
9385,12,-42,243,55,-1,-11
9390,14,-47,241,53,-1,-11
9395,11,-40,244,49,1,-11
9400,10,-44,244,48,1,-10
9405,13,-49,251,46,2,-8
9410,8,-47,244,44,3,-7
9415,12,-49,245,43,3,-8
9420,8,-46,246,43,5,-8
9425,10,-48,247,44,6,-9
9430,13,-52,243,46,6,-12
9435,11,-48,246,49,7,-10
9440,14,-48,245,49,8,-10
9445,16,-55,248,50,9,-11
9450,12,-50,243,52,10,-12
9455,12,-50,247,52,10,-12
9460,12,-48,243,53,8,-11
9465,13,-52,243,53,7,-12
9470,13,-50,244,54,8,-8
9475,13,-49,245,55,9,-9
9480,13,-49,241,54,7,-10
9485,14,-49,249,54,8,-9
9490,12,-48,240,54,7,-10
9495,15,-50,244,54,7,-9
9500,20,-50,251,53,7,-7
9505,11,-46,244,54,6,-8
9510,11,-51,243,53,6,-9
9515,13,-48,243,54,6,-8
9520,15,-48,246,55,6,-10
9525,14,-51,244,55,6,-8
9530,10,-46,241,58,6,-8
9535,9,-49,242,58,6,-8
9540,11,-48,247,58,7,-8
9545,10,-49,242,58,9,-9
9550,12,-47,242,59,8,-10
9555,8,-49,239,60,8,-8
9560,10,-49,244,59,9,-8
9565,11,-50,240,58,10,-9
9570,12,-49,243,57,10,-8
9575,11,-49,243,56,10,-9
9580,12,-49,243,54,10,-10
9585,11,-47,242,52,9,-10
9590,13,-48,244,51,10,-10
9595,11,-49,244,49,9,-10
9600,10,-48,244,47,9,-11
9605,10,-48,239,46,10,-12
9610,13,-52,246,45,7,-14
9615,10,-50,241,46,6,-12
9620,10,-51,245,49,6,-15
9625,13,-49,244,49,8,-15
9630,11,-55,243,52,7,-17
9635,13,-50,246,56,7,-15
9640,12,-52,245,59,6,-17
9645,9,-51,248,61,6,-17
9650,12,-51,243,64,5,-14
9655,10,-51,240,65,6,-14
9660,13,-50,242,65,6,-13
9665,18,-51,244,65,5,-12
9670,10,-50,240,65,4,-9
9675,12,-50,246,63,4,-9
9680,11,-46,241,61,4,-8
9685,13,-47,248,60,5,-6
9690,11,-46,246,57,5,-7
9695,12,-46,244,54,5,-7
9700,15,-47,243,51,5,-7
9705,16,-47,244,49,4,-9
9710,9,-50,245,48,4,-7
9715,11,-47,239,46,2,-8
9720,13,-48,239,45,2,-7
9725,11,-49,244,45,3,-6
9730,13,-49,242,47,4,-8
9735,10,-47,246,49,3,-9
9740,13,-53,244,50,4,-10
9745,11,-48,242,51,4,-11
9750,12,-48,245,53,5,-12
9755,14,-48,244,53,6,-10
9760,8,-46,242,53,6,-10
9765,9,-45,244,55,5,-9
9770,20,-46,244,54,6,-9
9775,13,-54,246,54,6,-8
9780,14,-49,245,54,6,-8
9785,14,-49,242,53,6,-7
9790,13,-45,247,54,6,-8
9795,15,-52,248,55,7,-8
9800,14,-46,238,54,7,-7
9805,8,-47,243,53,6,-8
9810,13,-49,247,53,6,-8
9815,12,-49,247,52,6,-9
9820,13,-48,245,52,6,-10
9825,7,-48,243,51,6,-9
9830,13,-48,248,51,5,-11
9835,12,-48,242,51,4,-9
9840,10,-48,244,51,4,-11
9845,12,-48,243,52,3,-9
9850,11,-48,242,53,4,-8
9855,11,-49,244,53,5,-7
9860,12,-49,242,54,6,-7
9865,11,-47,243,53,5,-8
9870,14,-48,241,53,5,-10
9875,14,-52,245,51,5,-9
9880,12,-49,241,51,5,-9
9885,13,-45,243,51,4,-9
9890,13,-49,243,51,4,-8
9895,12,-50,245,52,3,-9
9900,12,-48,244,52,3,-9
9905,12,-47,242,51,2,-7
9910,12,-49,244,49,0,-10
9915,13,-49,247,47,0,-8
9920,11,-48,244,45,0,-8
9925,11,-47,244,43,1,-9
9930,11,-46,247,41,2,-10
9935,15,-49,243,39,3,-11
9940,8,-50,240,38,4,-10
9945,15,-51,246,36,7,-9
9950,15,-52,243,36,7,-7
9955,13,-47,243,36,9,-7
9960,12,-51,245,38,10,-6
9965,14,-49,245,41,11,-5
9970,15,-52,244,43,10,-5
9975,11,-49,244,46,8,-4
9980,15,-51,243,49,8,-5
9985,9,-46,242,54,7,-5
9990,10,-49,239,56,6,-7
9995,12,-49,242,60,5,-10
10000,12,-48,241,62,1,-9
10005,13,-49,245,65,-1,-8
10010,10,-47,243,67,-3,-8
10015,12,-46,245,69,-4,-10
10020,11,-49,243,68,-4,-11
10025,13,-47,246,64,-4,-10
10030,12,-46,244,60,-4,-8
10035,13,-44,248,55,-4,-8
10040,13,-48,244,49,-3,-5
10045,7,-51,242,43,-3,-6
10050,13,-45,242,36,-1,-5
10055,13,-49,245,32,2,-4
10060,12,-46,242,28,5,-6
10065,14,-45,243,25,6,-6
10070,16,-49,240,24,6,-5
10075,10,-46,243,23,8,-6
10080,15,-47,243,24,10,-6
10085,14,-45,244,24,12,-7
10090,11,-50,243,26,10,-7
10095,13,-50,238,28,10,-6
10100,8,-52,241,28,8,-6
10105,13,-48,245,30,8,-6
10110,11,-48,244,32,7,-6
10115,12,-49,243,35,7,-5
10120,13,-49,243,36,7,-5
10125,13,-49,243,39,7,-5
10130,12,-51,245,40,6,-5
10135,15,-50,245,42,7,-5
10140,9,-50,245,43,7,-6
10145,11,-50,241,43,8,-8
10150,13,-47,245,43,7,-6
10155,16,-50,241,44,6,-6
10160,11,-48,240,43,6,-6
10165,11,-48,241,43,7,-5
10170,11,-48,243,41,7,-5
10175,12,-50,242,43,6,-7
10180,12,-48,240,43,6,-8
10185,12,-49,242,44,8,-7
10190,14,-50,239,45,7,-7
10195,11,-47,239,47,7,-5
10200,16,-51,245,49,7,-6
10205,10,-52,238,52,6,-7
10210,15,-48,239,52,7,-6
10215,11,-47,243,53,6,-6
10220,15,-48,242,52,5,-8
10225,14,-46,244,51,4,-7
10230,12,-50,246,50,5,-7
10235,14,-52,243,48,6,-7
10240,16,-52,243,48,6,-7
10245,10,-48,242,46,7,-7
10250,14,-51,241,45,8,-9
10255,10,-49,243,43,8,-10
10260,13,-49,239,42,9,-11
10265,11,-49,241,42,11,-10
10270,15,-51,240,43,10,-11
10275,16,-51,246,43,9,-11
10280,10,-48,244,44,8,-12
10285,14,-49,242,42,9,-12
10290,14,-55,243,45,7,-14
10295,12,-50,243,46,8,-13
10300,13,-50,245,48,7,-11
10305,14,-51,241,50,8,-11
10310,13,-49,239,54,8,-12
10315,13,-53,240,57,10,-11
10320,9,-49,247,59,10,-11
10325,12,-50,244,60,10,-10
10330,13,-49,247,61,10,-8
10335,14,-48,243,62,10,-9
10340,13,-48,243,62,10,-9
10345,11,-45,246,60,10,-11
10350,12,-46,246,59,9,-9
10355,10,-48,243,60,9,-9
10360,10,-46,240,60,10,-12
10365,13,-49,242,60,11,-11
10370,11,-48,242,60,11,-12
10375,8,-52,241,62,11,-13
10380,11,-51,244,62,10,-13
10385,11,-50,240,63,9,-15
10390,10,-48,240,64,9,-16
10395,16,-49,242,66,9,-16
10400,15,-50,243,68,9,-16
10405,9,-48,242,71,8,-16
10410,13,-50,245,71,8,-17
10415,10,-47,246,73,8,-16
10420,9,-50,243,73,8,-15
10425,13,-50,243,75,9,-15
10430,12,-50,241,75,9,-17
10435,14,-47,247,75,9,-17
10440,13,-48,246,76,10,-16
10445,11,-48,244,76,9,-14
10450,10,-50,240,76,10,-12
10455,11,-50,245,78,11,-13
10460,11,-44,239,77,11,-12
10465,15,-49,244,76,11,-12
10470,13,-50,243,76,11,-14
10475,15,-47,247,75,11,-15
10480,9,-51,250,73,10,-16
10485,10,-42,231,70,10,-17
10490,12,-50,242,66,11,-16
10495,9,-48,243,64,9,-19
10500,12,-48,243,61,10,-18
10505,13,-46,245,56,10,-17
10510,12,-49,242,52,10,-18
10515,12,-47,241,48,11,-18
10520,13,-49,244,43,10,-16
10525,15,-49,245,39,10,-17
10530,11,-46,246,34,11,-17
10535,5,-46,234,30,11,-16
10540,12,-45,245,25,11,-16
10545,12,-49,244,20,12,-16
10550,13,-45,242,14,12,-17
10555,13,-46,242,10,12,-16
10560,16,-48,244,6,14,-16
10565,9,-47,244,2,14,-15
10570,15,-47,244,-1,13,-14
10575,12,-47,243,-3,12,-12
10580,13,-48,250,-2,11,-12
10585,12,-48,240,-2,12,-12
10590,14,-45,240,-1,13,-12
10595,17,-48,244,3,12,-13
10600,14,-48,248,5,13,-14
10605,16,-51,247,10,14,-13
10610,12,-51,250,16,16,-12
10615,12,-50,244,22,18,-11
10620,11,-49,245,27,19,-11
10625,15,-51,243,33,20,-10
10630,14,-51,247,41,22,-7
10635,14,-51,247,47,23,-6
10640,12,-49,242,53,23,-5
10645,9,-54,241,58,26,-4
10650,14,-48,245,62,26,-3
10655,12,-50,241,66,28,-5
10660,14,-48,240,69,29,-5
10665,12,-51,242,69,29,-5
10670,12,-49,242,71,28,-4
10675,12,-47,242,72,26,-2
10680,15,-49,244,73,24,0
10685,14,-51,241,72,23,0
10690,13,-46,243,69,22,1
10695,13,-46,241,66,20,2
10700,20,-49,234,63,20,5
10705,13,-48,245,61,19,6
10710,14,-47,243,59,21,9
10715,15,-47,245,57,21,9
10720,14,-49,247,55,21,12
10725,11,-50,250,53,23,14
10730,15,-47,245,53,24,15
10735,15,-48,247,53,25,15
10740,15,-47,244,51,25,17
10745,13,-47,247,50,26,17
10750,15,-47,243,51,27,18
10755,13,-51,240,54,27,17
10760,15,-50,243,56,27,17
10765,15,-51,242,59,26,17
10770,15,-50,246,62,25,14
10775,12,-51,245,65,26,15
10780,14,-52,242,67,26,12
10785,14,-46,239,70,26,9
10790,12,-48,244,73,27,7
10795,13,-52,243,75,26,4
10800,11,-52,242,76,24,1
10805,11,-52,243,78,22,0
10810,6,-53,243,79,19,0
10815,8,-51,238,81,16,-3
10820,9,-51,241,82,13,-6
10825,10,-52,242,85,12,-6
10830,11,-51,237,88,9,-8
10835,8,-48,237,92,12,-8
10840,7,-49,243,96,12,-9
10845,5,-48,243,101,13,-9
10850,9,-48,243,105,11,-9
10855,8,-49,239,109,10,-11
10860,8,-51,240,111,8,-13
10865,1,-54,245,111,9,-16
10870,6,-48,241,109,9,-18
10875,3,-44,244,103,8,-19
10880,6,-44,243,97,8,-20
10885,6,-45,244,93,10,-23
10890,10,-46,246,88,11,-24
10895,5,-50,244,84,11,-25
10900,6,-44,243,77,11,-28
10905,6,-48,242,72,11,-30
10910,10,-48,245,69,15,-32
10915,11,-49,251,62,21,-33
10920,8,-54,248,58,23,-31
10925,11,-50,249,54,27,-32
10930,8,-48,249,51,30,-31
10935,10,-47,244,50,27,-29
10940,12,-49,249,50,24,-28
10945,11,-49,247,50,23,-27
10950,9,-47,248,50,20,-25
10955,14,-51,249,52,20,-25
10960,11,-49,248,52,18,-26
10965,12,-49,242,54,17,-23
10970,11,-49,248,59,16,-22
10975,12,-51,255,62,17,-21
10980,12,-49,245,64,16,-19
10985,13,-47,246,66,15,-17
10990,12,-48,246,66,15,-17
10995,10,-45,242,67,14,-16
11000,13,-41,242,65,13,-14
11005,14,-43,243,64,11,-14
11010,15,-48,245,61,10,-14
11015,10,-43,243,59,9,-13
11020,14,-47,245,56,9,-13
11025,17,-46,257,54,6,-11
11030,12,-47,244,52,5,-10
11035,12,-46,246,50,5,-9
11040,9,-45,248,49,3,-8
11045,11,-46,244,48,4,-7
11050,10,-44,244,49,4,-8
11055,12,-46,248,49,3,-9
11060,14,-49,246,48,2,-8
11065,14,-46,244,49,2,-9
11070,11,-48,241,50,3,-8
11075,14,-49,248,50,4,-7
11080,9,-53,250,50,5,-7
11085,12,-49,244,51,5,-6
11090,13,-51,246,52,8,-5
11095,10,-48,246,52,8,-6
11100,13,-45,245,52,9,-5
11105,12,-47,246,50,10,-5
11110,11,-48,245,49,11,-3
11115,9,-45,243,47,11,-3
11120,12,-49,245,44,12,-2
11125,9,-47,243,41,13,-3
11130,12,-49,244,40,13,-2
11135,10,-51,246,39,14,-3
11140,11,-45,243,38,15,-1
11145,12,-50,242,36,14,-1
11150,13,-47,246,34,15,-2
11155,12,-48,242,33,16,1
11160,12,-49,243,32,15,0
11165,13,-50,246,34,15,0
11170,11,-48,243,35,15,0
11175,13,-46,240,35,14,0
11180,9,-48,240,36,15,-1
11185,8,-46,242,39,14,-2
11190,12,-47,241,41,13,-2
11195,11,-48,245,43,13,-1
11200,8,-46,243,46,12,-2
11205,11,-49,243,46,13,-3
11210,10,-45,243,49,13,-3
11215,11,-49,247,48,12,-3
11220,12,-51,240,49,11,-2
11225,11,-49,244,49,10,-3
11230,10,-48,246,48,11,-4
11235,9,-46,242,47,11,-3
11240,9,-49,242,45,10,-4
11245,14,-48,244,44,10,-5
11250,11,-46,241,42,10,-8
11255,9,-45,242,42,11,-8
11260,10,-49,246,41,12,-7
11265,12,-50,243,40,10,-8
11270,13,-49,249,40,8,-8
11275,11,-48,241,39,6,-9
11280,10,-47,247,35,6,-11
11285,7,-44,243,33,5,-13
11290,13,-47,248,30,5,-14
11295,11,-45,246,27,3,-15
11300,9,-49,248,26,4,-16
11305,9,-47,244,22,4,-18
11310,6,-47,247,21,3,-16
11315,11,-50,247,20,3,-18
11320,8,-51,243,19,4,-15
11325,12,-53,246,20,6,-13
11330,11,-50,247,23,6,-13
11335,9,-48,245,25,7,-11
11340,10,-49,244,29,8,-11
11345,13,-50,247,33,7,-12
11350,8,-52,241,40,6,-10
11355,14,-51,245,47,7,-11
11360,11,-49,242,53,6,-12
11365,8,-51,243,58,5,-12
11370,13,-49,241,61,4,-11
11375,12,-46,245,65,1,-10
11380,12,-47,241,66,-1,-12
11385,12,-47,240,64,-1,-12
11390,13,-48,246,62,-2,-13
11395,7,-46,241,58,-2,-13
11400,11,-45,240,53,-1,-12
11405,15,-46,247,49,0,-11
11410,13,-36,244,43,1,-9
11415,13,-47,244,37,4,-12
11420,13,-49,244,32,5,-13
11425,13,-43,242,27,4,-9
11430,11,-43,244,22,5,-9
11435,11,-47,244,20,4,-9
11440,13,-48,247,17,4,-10
11445,11,-49,245,17,6,-8
11450,15,-50,245,16,6,-7
11455,14,-47,244,17,5,-7
11460,14,-52,248,21,5,-7
11465,15,-51,241,24,6,-7
11470,14,-51,242,27,6,-7
11475,12,-50,244,31,6,-6
11480,14,-49,243,34,6,-5
11485,13,-51,242,36,6,-4
11490,13,-50,241,39,6,-4
11495,14,-50,240,40,6,-4
11500,10,-47,242,43,8,-5
11505,11,-49,244,44,8,-4
11510,13,-52,243,43,8,-4
11515,12,-53,247,43,8,-3
11520,10,-48,240,45,9,-3
11525,10,-47,241,47,8,-3
11530,11,-51,239,45,9,-2
11535,11,-47,240,45,10,-3
11540,11,-48,241,45,13,-4
11545,11,-48,242,46,13,-5
11550,9,-46,242,47,12,-4
11555,14,-51,238,49,13,-4
11560,9,-50,242,51,13,-6
11565,9,-49,241,53,12,-7
11570,11,-53,242,53,11,-6
11575,8,-48,237,54,11,-5
11580,9,-47,244,53,11,-5
11585,9,-48,243,52,11,-5
11590,13,-50,243,50,11,-8
11595,12,-50,244,49,11,-7
11600,10,-49,245,45,12,-9
11605,12,-52,238,42,13,-8
11610,11,-49,243,41,14,-8
11615,7,-50,248,39,16,-9
11620,11,-49,243,37,15,-9
11625,15,-52,239,34,15,-7
11630,9,-52,242,33,15,-9
11635,9,-51,245,33,16,-8
11640,10,-49,246,33,15,-10
11645,12,-50,245,35,13,-8
11650,11,-53,243,37,11,-9
11655,12,-51,247,40,10,-9
11660,11,-51,244,43,8,-9
11665,11,-51,243,47,7,-11
11670,10,-49,250,49,8,-12
11675,9,-46,243,52,7,-11
11680,9,-50,240,54,7,-10
11685,11,-49,242,55,8,-8
11690,12,-49,245,54,8,-9
11695,8,-49,241,57,7,-8
11700,11,-49,246,58,8,-8
11705,9,-47,242,59,8,-11
11710,8,-49,246,58,8,-9
11715,14,-46,243,59,9,-8
11720,11,-49,242,62,9,-8
11725,15,-48,243,61,8,-9
11730,9,-48,244,62,9,-9
11735,9,-47,245,61,10,-9
11740,11,-50,240,61,9,-9
11745,11,-48,245,61,9,-9
11750,9,-46,244,61,9,-9
11755,9,-46,244,61,10,-10
11760,11,-49,243,60,9,-10
11765,13,-48,243,60,9,-10
11770,12,-50,240,58,9,-10
11775,13,-51,242,59,9,-9
11780,9,-47,239,59,9,-12
11785,8,-49,240,58,8,-13
11790,7,-48,246,57,9,-13
11795,13,-52,241,58,9,-13
11800,8,-52,241,60,9,-13
11805,11,-46,247,63,9,-12
11810,13,-52,239,63,9,-12
11815,11,-47,242,64,10,-12
11820,10,-49,244,68,10,-11
11825,14,-52,241,70,11,-9
11830,11,-49,239,71,11,-12
11835,14,-46,243,73,11,-12
11840,13,-48,236,75,11,-11
11845,12,-54,248,78,11,-10
11850,11,-49,245,79,11,-11
11855,12,-47,243,82,12,-10
11860,11,-52,243,84,12,-9
11865,12,-47,243,84,11,-10
11870,10,-48,245,85,12,-10
11875,7,-46,243,85,13,-9
11880,15,-47,248,84,14,-11
11885,10,-46,241,83,13,-12
11890,9,-44,242,80,13,-12
11895,12,-48,240,77,15,-12
11900,10,-50,246,74,15,-13
11905,12,-48,244,73,17,-13
11910,14,-50,243,70,16,-12
11915,10,-47,247,67,16,-12
11920,12,-47,247,65,16,-11
11925,13,-52,243,65,17,-10
11930,11,-46,245,65,16,-13
11935,12,-46,244,64,16,-11
11940,10,-46,243,65,15,-14
11945,9,-47,243,66,15,-14
11950,11,-49,242,67,16,-13
11955,10,-48,245,68,15,-14
11960,12,-52,243,70,15,-14
11965,9,-42,244,72,15,-14
11970,9,-48,244,72,14,-15
11975,5,-46,243,74,14,-16
11980,17,-54,238,75,13,-14
11985,8,-46,241,74,13,-16
11990,12,-49,239,73,13,-16
11995,13,-50,250,71,11,-14
12000,11,-44,249,70,10,-16
12005,10,-50,243,68,10,-14
12010,7,-47,242,66,12,-15
12015,13,-44,239,65,14,-15
12020,12,-51,240,62,14,-16
12025,9,-52,237,60,15,-15
12030,16,-44,248,57,17,-16
12035,9,-48,248,55,18,-15
12040,9,-55,246,56,19,-15
12045,3,-53,248,58,19,-14
12050,11,-49,239,62,18,-15
12055,9,-46,242,68,18,-13
12060,16,-53,247,73,18,-13
12065,7,-50,250,80,15,-13
12070,12,-50,247,84,12,-14
12075,7,-52,247,90,11,-15
12080,11,-50,241,96,10,-14
12085,12,-46,241,101,7,-15
12090,5,-46,240,103,5,-14
12095,12,-53,232,106,7,-14
12100,11,-45,241,106,4,-16
12105,12,-46,245,106,4,-16
12110,10,-42,244,103,4,-16
12115,8,-44,244,101,5,-16
12120,13,-51,237,97,5,-16
12125,12,-43,246,92,6,-15
12130,12,-45,242,86,8,-15
12135,9,-43,244,82,10,-15
12140,15,-47,245,76,10,-15
12145,13,-48,241,71,11,-14
12150,14,-46,247,66,12,-14
12155,13,-45,243,63,13,-14
12160,8,-46,247,61,15,-13
12165,5,-39,246,58,15,-15
12170,11,-46,245,57,16,-14
12175,12,-47,246,58,17,-13
12180,13,-47,240,59,16,-13
12185,11,-51,245,60,15,-13
12190,18,-50,242,64,16,-12
12195,14,-47,245,64,15,-13
12200,11,-45,246,68,14,-13
12205,13,-45,242,69,14,-13
12210,13,-48,241,71,13,-13
12215,11,-46,243,72,13,-13
12220,13,-49,247,72,13,-14
12225,11,-50,241,72,11,-13
12230,20,-47,247,72,11,-13
12235,9,-46,242,73,13,-13
12240,11,-45,245,74,12,-14
12245,9,-44,245,75,14,-13
12250,13,-47,246,77,14,-12
12255,13,-44,239,78,14,-13
12260,13,-46,241,81,16,-12
12265,11,-43,245,84,16,-11
12270,9,-44,242,86,16,-12
12275,13,-48,243,88,17,-13
12280,10,-47,246,91,18,-12
12285,11,-44,242,94,18,-14
12290,13,-46,246,97,18,-16
12295,13,-46,241,97,17,-15
12300,7,-44,242,98,18,-12
12305,12,-49,244,98,18,-15
12310,12,-46,245,94,17,-15
12315,12,-42,243,90,17,-14
12320,12,-46,241,89,16,-16
12325,13,-46,244,89,18,-15
12330,11,-43,241,85,18,-15
12335,14,-48,250,81,17,-13
12340,13,-46,244,77,16,-14
12345,13,-43,245,75,14,-14
12350,9,-45,242,72,14,-12
12355,11,-44,242,70,14,-12
12360,10,-46,242,71,14,-15
12365,10,-44,249,69,14,-15
12370,10,-43,249,68,14,-14
12375,11,-43,241,71,13,-14
12380,8,-48,248,72,13,-13
12385,12,-43,246,75,12,-14
12390,4,-46,245,76,11,-15
12395,11,-45,245,78,11,-16
12400,10,-45,245,79,11,-14
12405,11,-44,244,80,12,-14
12410,11,-43,245,82,11,-13
12415,11,-44,245,81,11,-14
12420,12,-43,244,82,11,-12
12425,12,-42,244,82,13,-13
12430,11,-40,245,81,14,-10
12435,14,-48,243,81,14,-12
12440,13,-42,242,80,13,-13
12445,11,-45,244,78,13,-10
12450,11,-45,246,75,14,-11
12455,11,-42,243,72,13,-10
12460,10,-45,243,71,13,-10
12465,13,-43,245,67,13,-9
12470,11,-41,244,64,12,-10
12475,13,-43,246,61,10,-10
12480,12,-42,243,59,9,-11
12485,14,-42,243,57,9,-11
12490,9,-41,244,56,8,-12
12495,13,-42,247,53,8,-12
12500,11,-49,246,52,8,-10
12505,11,-47,245,51,9,-10
12510,12,-43,245,50,8,-11
12515,12,-44,250,49,8,-11
12520,9,-43,245,47,10,-12
12525,9,-42,243,48,7,-11
12530,11,-41,244,48,8,-11
12535,12,-47,248,47,9,-13
12540,12,-45,246,46,9,-12
12545,11,-42,243,46,9,-12
12550,5,-41,245,46,8,-13
12555,11,-41,248,47,8,-13
12560,10,-47,248,46,8,-11
12565,8,-42,246,47,9,-10
12570,11,-44,245,48,9,-9
12575,13,-44,244,48,11,-9
12580,10,-44,244,49,10,-9
12585,11,-41,246,52,10,-8
12590,10,-47,241,53,11,-9
12595,12,-42,245,55,12,-8
12600,13,-43,240,56,13,-9
12605,10,-45,245,58,11,-9
12610,11,-42,241,58,10,-11
12615,10,-42,244,57,9,-12
12620,11,-45,246,58,10,-11
12625,8,-43,247,57,9,-10
12630,10,-43,242,55,10,-12
12635,11,-41,245,53,9,-13
12640,9,-42,243,52,9,-12
12645,11,-46,242,50,11,-13
12650,12,-47,247,48,10,-11
12655,10,-45,246,47,9,-13
12660,9,-46,241,47,11,-13
12665,9,-44,245,46,11,-12
12670,10,-45,246,44,11,-13
12675,10,-44,246,43,12,-13
12680,13,-47,245,40,11,-13
12685,11,-44,242,38,12,-13
12690,8,-46,244,38,13,-13
12695,13,-46,246,36,14,-11
12700,9,-47,248,34,11,-12
12705,15,-44,250,34,11,-11
12710,12,-45,246,33,10,-11
12715,13,-46,246,33,8,-10
12720,9,-43,249,31,8,-9
12725,12,-44,250,27,7,-12
12730,11,-42,244,23,7,-11
12735,8,-41,247,21,7,-12
12740,9,-43,249,18,5,-11
12745,10,-43,246,17,7,-12
12750,10,-48,245,17,8,-11
12755,10,-45,244,17,8,-11
12760,11,-48,248,17,9,-12
12765,11,-44,242,18,10,-9
12770,4,-46,244,21,12,-9
12775,10,-48,247,25,11,-10
12780,8,-48,246,30,11,-8
12785,8,-47,244,36,12,-10
12790,10,-47,243,43,12,-10
12795,8,-45,244,49,10,-11
12800,12,-48,237,54,10,-12
12805,9,-44,241,60,7,-11
12810,9,-46,241,67,6,-11
12815,13,-47,240,70,4,-12
12820,10,-43,246,70,2,-12
12825,18,-40,240,69,1,-10
12830,11,-42,242,65,2,-12
12835,10,-44,247,58,2,-12
12840,14,-43,247,52,4,-10
12845,13,-43,245,46,5,-11
12850,12,-43,243,38,6,-10
12855,12,-41,244,31,7,-9
12860,14,-46,246,25,9,-9
12865,7,-42,251,18,11,-7
12870,10,-39,241,14,11,-7
12875,8,-46,243,10,11,-7
12880,19,-45,241,7,10,-7
12885,11,-48,243,5,10,-6
12890,12,-45,243,4,9,-6
12895,10,-44,243,5,11,-7
12900,11,-45,245,6,11,-7
12905,11,-47,247,9,11,-7
12910,8,-46,247,12,10,-10
12915,11,-47,245,16,11,-8
12920,10,-49,243,19,10,-9
12925,13,-48,248,21,11,-10
12930,9,-46,245,24,9,-10
12935,11,-50,241,27,9,-12
12940,8,-43,242,29,10,-11
12945,7,-43,246,29,10,-10
12950,10,-47,244,30,10,-9
12955,11,-45,245,30,10,-10
12960,10,-45,245,29,11,-8
12965,8,-46,246,29,12,-8
12970,12,-48,240,29,10,-7
12975,11,-43,240,28,12,-6
12980,10,-47,241,28,11,-8
12985,13,-46,248,29,11,-6
12990,11,-50,241,31,11,-7
12995,10,-43,244,31,11,-7
13000,12,-48,242,32,11,-8
13005,8,-45,244,33,11,-8
13010,9,-46,241,35,11,-7
13015,8,-47,241,36,11,-8
13020,12,-49,242,36,9,-8
13025,8,-49,248,33,10,-11
13030,10,-46,244,31,9,-9
13035,11,-46,243,28,10,-9
13040,15,-51,243,25,10,-9
13045,14,-48,242,23,10,-10
13050,11,-45,245,19,10,-11
13055,10,-47,242,16,10,-11
13060,13,-48,244,14,11,-9
13065,8,-45,247,13,11,-8
13070,9,-47,244,11,11,-9
13075,12,-48,248,11,10,-10
13080,13,-49,245,12,10,-11
13085,8,-46,242,13,9,-10
13090,10,-48,246,15,8,-11
13095,15,-45,246,17,7,-11
13100,7,-48,248,21,7,-12
13105,9,-49,247,23,7,-10
13110,11,-47,245,28,7,-10
13115,13,-48,246,31,8,-11
13120,9,-48,249,34,7,-11
13125,11,-48,244,38,5,-9
13130,9,-43,243,39,5,-10
13135,7,-45,245,41,5,-11
13140,10,-50,242,40,7,-9
13145,9,-48,243,40,8,-9
13150,21,-47,241,40,8,-11
13155,9,-46,244,38,7,-8
13160,10,-44,244,36,9,-8
13165,11,-45,243,37,8,-7
13170,12,-46,243,35,9,-6
13175,13,-45,245,34,9,-9
13180,14,-50,246,33,11,-9
13185,12,-46,244,32,12,-7
13190,12,-49,242,30,11,-7
13195,12,-47,243,31,11,-6
13200,13,-48,243,31,10,-8
13205,12,-50,245,30,9,-7
13210,13,-47,243,29,7,-6
13215,14,-47,246,30,7,-7
13220,10,-46,242,30,7,-8
13225,12,-46,241,29,4,-8
13230,12,-50,245,31,6,-8
13235,10,-49,244,30,7,-9
13240,12,-45,244,30,7,-9
13245,9,-48,244,31,7,-9
13250,11,-46,243,30,7,-8
13255,10,-49,246,31,8,-8
13260,15,-49,245,30,7,-9
13265,8,-46,244,30,8,-10
13270,10,-46,242,32,9,-8
13275,10,-46,242,31,11,-10
13280,7,-48,244,34,12,-13
13285,10,-46,245,33,12,-11
13290,7,-47,246,35,13,-9
13295,10,-50,239,37,11,-11
13300,12,-50,242,38,10,-11
13305,12,-48,244,40,12,-11
13310,13,-50,246,42,10,-11
13315,8,-47,241,44,10,-10
13320,12,-49,241,46,10,-10
13325,13,-48,244,48,9,-8
13330,7,-44,242,49,9,-6
13335,9,-48,240,52,8,-6
13340,12,-47,243,53,8,-7
13345,9,-47,243,56,10,-6
13350,10,-46,243,58,10,-6
13355,14,-47,238,59,10,-6
13360,12,-47,241,60,11,-5
13365,13,-50,238,61,12,-6
13370,10,-48,239,62,11,-7
13375,13,-50,243,64,12,-7
13380,13,-52,242,63,12,-8
13385,9,-45,247,62,12,-10
13390,10,-47,243,62,11,-9
13395,11,-47,246,62,13,-11
13400,11,-47,242,61,12,-10
13405,8,-48,240,62,12,-10
13410,11,-49,245,62,13,-10
13415,9,-47,242,60,12,-11
13420,13,-49,243,62,12,-10
13425,9,-47,241,61,12,-10
13430,14,-49,241,63,12,-11
13435,13,-51,242,63,12,-11
13440,11,-48,243,63,11,-12
13445,11,-49,243,63,13,-13
13450,13,-51,243,63,12,-15
13455,11,-48,244,64,11,-13
13460,10,-48,245,63,10,-13
13465,12,-45,251,64,9,-14
13470,11,-48,242,63,8,-14
13475,13,-49,243,61,7,-13
13480,9,-49,240,61,7,-14
13485,11,-46,244,59,7,-14
13490,9,-48,245,58,8,-14
13495,11,-48,240,56,9,-15
13500,10,-46,245,57,10,-14
13505,8,-45,242,57,11,-14
13510,8,-47,247,57,12,-14
13515,12,-48,250,57,15,-12
13520,10,-49,246,57,16,-11
13525,10,-50,241,57,16,-11
13530,12,-50,246,58,17,-11
13535,9,-51,252,61,15,-11
13540,10,-53,244,64,15,-11
13545,12,-50,241,67,12,-12
13550,8,-52,241,72,9,-11
13555,13,-51,242,78,8,-11
13560,11,-49,238,82,6,-11
13565,12,-48,244,87,6,-12
13570,12,-49,244,89,3,-12
13575,13,-45,242,91,3,-13
13580,9,-44,246,92,3,-16
13585,7,-48,246,89,2,-14
13590,14,-50,247,87,4,-14
13595,15,-46,244,84,4,-13
13600,11,-45,243,81,6,-12
13605,13,-46,246,74,8,-13
13610,10,-43,243,70,9,-12
13615,12,-42,248,65,10,-10
13620,14,-44,240,64,12,-10
13625,16,-46,246,60,12,-10
13630,14,-49,245,59,13,-10
13635,11,-48,241,59,12,-12
13640,9,-50,239,59,13,-11
13645,13,-47,243,59,13,-11
13650,9,-49,248,60,13,-10
13655,12,-48,248,60,13,-11
13660,11,-48,244,63,12,-12
13665,12,-47,246,65,13,-11
13670,9,-48,244,67,13,-13
13675,9,-47,248,68,12,-13
13680,9,-49,248,70,12,-13
13685,13,-48,239,71,12,-12
13690,13,-51,246,72,12,-13
13695,13,-51,244,70,14,-13
13700,11,-47,247,71,13,-13
13705,7,-49,244,69,13,-12
13710,8,-46,240,69,13,-12
13715,12,-49,243,68,12,-14
13720,10,-47,247,66,11,-11
13725,10,-47,244,66,11,-9
13730,13,-47,242,65,10,-12
13735,12,-46,242,64,11,-11
13740,12,-47,240,64,10,-10
13745,11,-49,241,65,11,-11
13750,10,-49,245,66,12,-11
13755,10,-48,245,69,12,-13
13760,7,-42,242,71,13,-11
13765,8,-46,244,74,12,-11
13770,15,-49,241,77,11,-12
13775,8,-44,246,78,12,-11
13780,11,-46,243,79,12,-13
13785,11,-46,241,78,13,-14
13790,10,-48,245,78,15,-14
13795,13,-50,241,75,14,-15
13800,10,-47,242,72,16,-15
13805,10,-48,244,69,15,-14
13810,11,-43,245,68,16,-15
13815,13,-47,243,65,15,-14
13820,11,-48,241,63,16,-14
13825,11,-44,246,61,16,-14
13830,9,-46,245,59,16,-13
13835,11,-47,244,57,15,-13
13840,13,-47,244,56,13,-14
13845,10,-47,245,57,13,-13
13850,8,-47,247,57,13,-13
13855,12,-51,245,58,11,-15
13860,14,-45,244,61,9,-16
13865,10,-47,243,63,9,-16
13870,8,-46,244,64,10,-17
13875,9,-46,245,67,10,-16
13880,10,-46,244,68,9,-15
13885,12,-49,243,70,8,-14
13890,10,-49,240,71,10,-14
13895,10,-46,246,73,9,-12
13900,9,-43,248,73,9,-12
13905,10,-43,243,72,9,-12
13910,11,-46,243,71,10,-10
13915,11,-45,245,71,10,-11
13920,9,-42,243,71,11,-10
13925,10,-45,245,71,11,-12
13930,13,-47,245,69,13,-10
13935,12,-43,247,69,12,-9
13940,12,-46,244,68,13,-10
13945,11,-46,243,67,12,-9
13950,11,-45,244,67,13,-11
13955,14,-43,247,67,11,-10
13960,13,-46,246,68,13,-12
13965,11,-44,247,66,12,-12
13970,8,-43,245,65,12,-11
13975,11,-43,244,65,11,-10
13980,12,-48,246,65,11,-12
13985,8,-45,245,64,10,-12
13990,12,-48,251,64,11,-10
13995,9,-45,247,63,11,-12
14000,10,-44,245,61,10,-12
14005,11,-44,244,61,11,-12
14010,11,-44,247,59,11,-13
14015,9,-45,243,59,11,-11
14020,9,-48,245,59,11,-14
14025,18,-45,245,57,11,-13
14030,12,-47,242,58,11,-13
14035,12,-44,243,59,11,-13
14040,11,-49,245,59,13,-13
14045,9,-47,243,60,13,-12
14050,9,-45,243,61,13,-14
14055,12,-44,242,61,13,-13
14060,11,-45,243,61,13,-14
14065,11,-49,241,62,14,-13
14070,11,-46,242,64,13,-13
14075,10,-42,245,65,13,-13
14080,11,-46,246,66,13,-12
14085,10,-48,239,67,14,-14
14090,10,-44,246,69,14,-13
14095,9,-48,244,72,13,-13
14100,9,-46,245,72,12,-13
14105,9,-44,240,71,12,-12
14110,11,-43,240,73,11,-13
14115,11,-42,242,73,10,-13
14120,6,-45,250,74,10,-11
14125,11,-46,247,75,10,-10
14130,7,-46,243,74,11,-9
14135,12,-47,241,74,11,-9
14140,8,-44,243,76,12,-8
14145,13,-49,242,77,12,-8
14150,8,-44,244,78,14,-8
14155,9,-43,242,77,12,-8
14160,9,-44,245,77,13,-9
14165,11,-44,244,76,13,-10
14170,13,-48,244,75,14,-11
14175,10,-40,244,73,15,-11
14180,11,-39,247,73,14,-10
14185,6,-48,245,71,14,-11
14190,10,-43,245,70,13,-11
14195,9,-43,245,68,13,-11
14200,10,-45,245,66,13,-12
14205,10,-47,243,65,12,-13
14210,11,-44,242,63,13,-13
14215,8,-44,244,61,13,-12
14220,9,-44,249,60,13,-13
14225,12,-43,247,59,13,-12
14230,10,-44,242,58,12,-12
14235,10,-44,245,53,11,-12
14240,11,-46,239,52,12,-13
14245,8,-43,244,51,13,-13
14250,10,-45,245,49,13,-12
14255,12,-45,247,49,12,-12
14260,13,-45,242,49,11,-12
14265,11,-43,245,48,11,-13
14270,12,-46,246,47,10,-12
14275,11,-45,248,45,10,-12
14280,14,-43,246,42,9,-13
14285,6,-43,247,38,7,-13
14290,10,-44,246,36,9,-12
14295,8,-44,255,34,10,-13
14300,6,-45,246,34,10,-12
14305,8,-42,244,33,10,-12
14310,11,-48,247,33,11,-13
14315,7,-46,246,32,10,-10
14320,9,-46,247,34,11,-11
14325,10,-47,244,35,11,-10
14330,13,-49,246,38,11,-9
14335,12,-49,249,41,11,-9
14340,16,-46,246,45,10,-11
14345,11,-47,245,50,8,-10
14350,10,-47,234,55,5,-10
14355,11,-44,246,64,4,-11
14360,9,-44,243,69,2,-11
14365,9,-45,245,73,1,-12
14370,9,-44,243,76,1,-11
14375,9,-45,242,76,1,-10
14380,9,-43,245,75,1,-12
14385,11,-45,246,73,1,-11
14390,6,-40,243,67,2,-12
14395,12,-42,243,63,5,-13
14400,12,-43,243,57,6,-10
14405,16,-40,247,50,7,-10
14410,14,-41,245,44,8,-10
14415,8,-43,245,38,10,-9
14420,10,-40,245,35,11,-11
14425,13,-45,245,31,11,-9
14430,10,-43,242,29,12,-8
14435,10,-45,245,28,12,-11
14440,13,-44,246,26,13,-10
14445,12,-46,246,26,12,-10
14450,12,-42,244,27,11,-12
14455,10,-48,246,28,12,-9
14460,12,-47,250,29,11,-10
14465,10,-43,244,33,11,-10
14470,11,-47,247,36,10,-10
14475,7,-44,247,38,10,-11
14480,8,-44,247,40,9,-10
14485,9,-44,245,42,9,-12
14490,13,-44,243,41,9,-10
14495,8,-44,248,42,10,-11
14500,11,-45,244,41,9,-10
14505,11,-42,243,40,8,-9
14510,6,-44,250,39,9,-10
14515,8,-46,240,38,9,-11
14520,12,-42,243,36,9,-9
14525,10,-45,240,36,11,-9
14530,8,-44,245,36,11,-9
14535,10,-47,243,35,10,-9
14540,8,-45,243,34,10,-11
14545,9,-46,244,34,9,-10
14550,10,-48,246,34,10,-9
14555,10,-44,240,35,10,-9
14560,8,-47,240,37,10,-10
14565,11,-53,239,40,11,-11
14570,11,-45,240,39,12,-9
14575,8,-44,243,41,12,-10
14580,9,-45,244,39,12,-9
14585,10,-44,244,39,13,-11
14590,10,-44,245,37,14,-12
14595,11,-45,245,36,13,-10
14600,9,-47,244,33,14,-11
14605,9,-41,242,32,14,-11
14610,11,-45,248,29,13,-11
14615,12,-46,243,27,13,-12
14620,10,-46,246,25,12,-11
14625,10,-46,246,22,12,-11
14630,12,-47,245,21,12,-10
14635,9,-45,247,21,11,-11
14640,11,-44,246,21,10,-12
14645,10,-46,243,23,9,-15
14650,11,-46,244,25,8,-14
14655,12,-48,249,28,7,-13
14660,10,-49,244,32,6,-13
14665,8,-45,245,34,6,-13
14670,8,-47,244,38,6,-14
14675,15,-50,245,41,7,-12
14680,11,-46,246,42,7,-14
14685,6,-45,241,44,7,-12
14690,12,-46,243,44,8,-11
14695,5,-42,242,44,9,-10
14700,11,-47,246,42,9,-10
14705,11,-47,244,40,11,-10
14710,11,-41,246,38,11,-8
14715,9,-45,245,37,12,-7
14720,9,-44,245,34,11,-7
14725,11,-44,246,33,11,-7
14730,9,-45,237,31,10,-8
14735,11,-44,247,30,11,-8
14740,10,-46,245,31,11,-8
14745,11,-44,244,31,11,-9
14750,14,-46,242,31,10,-9
14755,11,-49,244,30,8,-9
14760,14,-47,246,30,9,-8
14765,10,-47,244,29,8,-10
14770,10,-44,249,31,8,-10
14775,8,-47,246,30,8,-10
14780,8,-48,246,30,6,-10
14785,10,-43,238,29,5,-10
14790,10,-46,244,29,6,-12
14795,9,-45,241,29,7,-10
14800,8,-46,244,29,7,-10
14805,12,-44,240,27,5,-9
14810,12,-48,246,29,6,-9
14815,11,-46,242,29,8,-9
14820,11,-43,245,29,9,-9
14825,9,-47,243,30,10,-9
14830,8,-45,241,30,9,-10
14835,11,-46,241,31,11,-9
14840,6,-49,240,31,9,-8
14845,13,-47,240,31,11,-7
14850,13,-52,245,32,10,-8
14855,11,-48,243,31,11,-10
14860,9,-47,245,32,9,-9
14865,14,-47,243,32,8,-7
14870,11,-46,247,34,8,-9
14875,11,-46,243,35,9,-8
14880,10,-49,248,34,8,-10
14885,9,-47,241,34,9,-8
14890,14,-49,247,34,9,-9
14895,8,-49,242,34,9,-10
14900,10,-47,245,35,8,-9
14905,7,-48,246,35,9,-11
14910,10,-46,243,37,8,-10
14915,8,-47,242,37,7,-10
14920,10,-47,241,39,7,-10
14925,10,-49,244,39,8,-9
14930,13,-48,242,40,8,-9
14935,9,-49,242,41,9,-11
14940,12,-47,242,43,7,-9
14945,7,-48,244,44,7,-8
14950,11,-43,243,46,7,-7
14955,9,-50,242,46,8,-6
14960,10,-48,245,46,10,-7
14965,12,-49,243,46,9,-6
14970,10,-44,242,47,8,-6
14975,9,-47,242,47,9,-7
14980,9,-47,241,46,8,-7
14985,12,-46,242,47,9,-7
14990,9,-44,244,46,8,-7
14995,8,-46,241,45,9,-9
