timestamp,acc_x,acc_y,acc_z,gyro_x,gyro_y,gyro_z
0,-9,-250,-58,-11,131,-1
5,-5,-250,-58,-12,132,-3
10,-12,-249,-59,-13,135,-3
15,-9,-250,-58,-11,135,-2
20,-7,-250,-60,-9,135,0
25,-15,-249,-56,-8,136,0
30,-10,-249,-54,-7,134,1
35,-12,-248,-60,-3,132,2
40,-10,-249,-57,2,131,3
45,-13,-250,-61,5,124,2
50,-8,-251,-62,2,116,1
55,-9,-252,-62,-4,103,-1
60,-13,-250,-64,-7,89,-4
65,-9,-250,-64,-2,75,-1
70,-8,-252,-60,9,64,1
75,-14,-248,-62,21,55,7
80,-14,-246,-59,35,51,13
85,-11,-247,-58,46,54,21
90,-16,-247,-59,50,63,34
95,-15,-245,-59,48,73,44
100,-17,-242,-62,37,80,58
105,-16,-244,-58,19,86,71
110,-19,-241,-62,-4,89,84
115,-18,-239,-61,-29,91,96
120,-19,-239,-65,-52,91,109
125,-18,-240,-61,-72,90,124
130,-19,-245,-65,-88,87,136
135,-24,-244,-65,-101,83,149
140,-24,-247,-64,-113,77,157
145,-25,-250,-65,-125,72,162
150,-26,-255,-60,-131,66,161
155,-29,-259,-61,-132,59,159
160,-28,-263,-59,-130,52,150
165,-29,-267,-57,-126,47,136
170,-28,-273,-57,-119,44,124
175,-30,-274,-54,-112,46,109
180,-30,-273,-49,-103,47,96
185,-29,-275,-43,-91,49,81
190,-33,-269,-49,-79,49,68
195,-32,-268,-48,-63,48,58
200,-33,-262,-45,-47,48,46
205,-29,-260,-47,-30,52,36
210,-33,-255,-44,-11,54,25
215,-30,-253,-43,9,57,12
220,-35,-247,-38,30,61,0
225,-34,-246,-34,48,66,-8
230,-31,-245,-33,60,72,-17
235,-33,-240,-30,67,80,-25
240,-29,-236,-27,71,93,-30
245,-27,-236,-22,71,108,-33
250,-22,-238,-24,65,127,-32
255,-23,-237,-30,52,147,-32
260,-21,-237,-28,37,168,-31
265,-23,-236,-29,16,186,-29
270,-19,-239,-31,-5,200,-28
275,-21,-238,-34,-24,208,-28
280,-25,-240,-31,-41,209,-29
285,-27,-243,-36,-56,205,-30
290,-28,-245,-40,-71,199,-31
295,-37,-250,-41,-85,191,-33
300,-37,-251,-42,-103,179,-35
305,-47,-251,-43,-119,165,-35
310,-46,-255,-46,-133,149,-36
315,-52,-257,-49,-145,132,-40
320,-52,-260,-55,-154,113,-44
325,-50,-259,-53,-162,95,-50
330,-56,-258,-56,-170,75,-56
335,-56,-257,-60,-177,55,-63
340,-58,-252,-68,-185,36,-67
345,-55,-252,-73,-192,14,-72
350,-59,-251,-67,-198,-4,-77
355,-59,-250,-68,-202,-20,-84
360,-54,-249,-68,-200,-34,-93
365,-47,-249,-67,-193,-43,-104
370,-46,-247,-71,-180,-50,-115
375,-39,-246,-74,-164,-54,-126
380,-34,-242,-73,-151,-56,-132
385,-32,-241,-76,-143,-54,-139
390,-25,-238,-77,-138,-47,-145
395,-22,-239,-74,-139,-41,-147
400,-19,-235,-71,-141,-33,-147
405,-17,-233,-72,-145,-25,-147
410,-14,-231,-62,-144,-15,-144
415,-13,-233,-62,-139,-11,-142
420,-8,-235,-57,-134,-9,-137
425,-12,-232,-61,-126,-8,-132
430,-12,-230,-56,-120,-9,-125
435,-11,-229,-62,-120,-11,-118
440,-11,-230,-63,-124,-14,-111
445,-14,-236,-61,-137,-9,-105
450,-11,-237,-64,-158,-10,-102
455,-11,-241,-63,-183,-9,-104
460,-11,-245,-67,-205,-9,-109
465,-9,-245,-65,-225,-12,-117
470,-5,-248,-60,-244,-19,-126
475,-4,-248,-54,-259,-32,-134
480,1,-252,-42,-259,-50,-139
485,0,-253,-40,-244,-68,-142
490,3,-255,-30,-216,-87,-139
495,3,-258,-28,-188,-103,-133
500,6,-261,-27,-164,-119,-124
505,11,-261,-22,-147,-137,-113
510,12,-261,-24,-137,-160,-99
515,9,-265,-22,-131,-182,-87
520,7,-271,-21,-129,-203,-72
525,4,-275,-23,-129,-226,-60
530,7,-278,-22,-135,-246,-49
535,4,-279,-26,-144,-263,-42
540,2,-280,-32,-157,-279,-39
545,5,-283,-38,-175,-291,-37
550,4,-287,-40,-196,-297,-38
555,5,-287,-45,-213,-299,-45
560,13,-292,-47,-222,-286,-64
565,19,-290,-49,-220,-263,-91
570,24,-294,-49,-206,-234,-122
575,28,-294,-44,-177,-200,-156
580,30,-293,-44,-137,-166,-189
585,33,-284,-49,-89,-131,-217
590,34,-284,-43,-46,-95,-242
595,35,-280,-47,-13,-65,-262
600,31,-271,-51,9,-37,-280
605,29,-264,-56,21,-10,-293
610,27,-260,-53,23,10,-301
615,21,-254,-53,19,26,-308
620,19,-251,-52,10,33,-312
625,14,-247,-51,-1,33,-313
630,7,-240,-52,-12,31,-314
635,2,-240,-46,-25,26,-313
640,-5,-238,-42,-37,22,-312
645,-8,-233,-45,-48,20,-309
650,-9,-234,-40,-57,19,-308
655,-14,-236,-41,-65,18,-309
660,-21,-237,-39,-70,13,-314
665,-17,-237,-40,-75,4,-323
670,-18,-241,-36,-76,-10,-328
675,-19,-240,-35,-75,-23,-334
680,-15,-240,-34,-71,-34,-335
685,-10,-242,-40,-66,-46,-335
690,-3,-240,-34,-59,-54,-333
695,0,-241,-32,-51,-64,-327
700,3,-239,-28,-41,-71,-322
705,9,-240,-32,-34,-76,-315
710,17,-240,-30,-26,-80,-306
715,18,-239,-26,-17,-84,-297
720,25,-242,-26,-1,-89,-286
725,27,-241,-25,13,-95,-275
730,30,-242,-22,27,-100,-264
735,31,-246,-24,39,-108,-252
740,33,-248,-20,45,-115,-241
745,32,-247,-23,48,-126,-237
750,31,-247,-25,47,-125,-216
755,30,-248,-22,39,-117,-188
760,27,-248,-26,32,-110,-166
765,20,-248,-18,32,-108,-147
770,16,-250,-21,32,-110,-130
775,12,-249,-18,33,-114,-111
780,10,-250,-20,39,-119,-94
785,5,-247,-19,46,-127,-83
790,1,-247,-18,56,-135,-69
795,4,-246,-19,67,-147,-58
800,2,-245,-19,80,-157,-48
805,0,-246,-16,92,-173,-42
810,2,-248,-19,102,-189,-39
815,4,-247,-14,112,-207,-35
820,0,-247,-15,121,-223,-35
825,3,-248,-15,127,-236,-33
830,4,-247,-15,130,-247,-31
835,8,-247,-15,130,-255,-31
840,6,-249,-17,131,-264,-31
845,9,-252,-14,132,-272,-31
850,7,-250,-17,134,-280,-34
855,12,-256,-15,137,-286,-35
860,15,-255,-14,143,-294,-40
865,13,-259,-10,148,-301,-43
870,18,-262,-9,157,-311,-46
875,21,-262,-9,166,-319,-50
880,18,-258,-7,176,-325,-57
885,17,-260,-3,184,-330,-68
890,20,-260,-2,196,-338,-72
895,23,-260,-3,222,-350,-58
900,26,-258,-2,245,-369,-30
905,24,-256,3,257,-394,-12
910,19,-253,5,261,-418,-3
915,22,-253,4,264,-436,-1
920,21,-252,9,269,-451,3
925,20,-252,11,279,-468,12
930,21,-254,9,290,-486,25
935,22,-255,20,299,-501,35
940,25,-258,21,309,-511,41
945,26,-254,21,322,-518,49
950,29,-258,22,338,-523,55
955,32,-259,23,351,-521,63
960,29,-256,14,349,-509,76
965,31,-260,-3,326,-489,99
970,37,-260,-20,268,-455,125
975,39,-258,-46,177,-411,150
980,49,-264,-69,64,-357,173
985,65,-269,-97,-70,-286,186
990,83,-285,-118,-215,-199,185
995,97,-301,-128,-348,-80,170
1000,111,-335,-123,-436,43,145
1005,116,-363,-93,-458,163,102
1010,114,-391,-73,-412,262,40
1015,104,-415,-50,-317,332,-26
1020,92,-429,-35,-202,382,-91
1025,75,-430,-37,-86,423,-140
1030,65,-423,-50,11,459,-174
1035,43,-411,-74,74,489,-195
1040,23,-391,-93,99,500,-192
1045,6,-369,-109,84,484,-161
1050,-16,-347,-116,34,431,-119
1055,-39,-323,-111,-17,340,-65
1060,-52,-304,-106,-41,227,-3
1065,-66,-282,-104,-32,114,47
1070,-74,-259,-114,-2,17,72
1075,-80,-244,-128,28,-67,81
1080,-87,-226,-139,40,-140,73
1085,-91,-207,-146,32,-212,54
1090,-95,-191,-148,9,-292,27
1095,-89,-180,-145,-15,-377,-9
1100,-86,-173,-140,-24,-460,-51
1105,-80,-167,-128,-17,-532,-89
1110,-79,-162,-126,-1,-584,-126
1115,-72,-169,-116,13,-614,-155
1120,-67,-182,-107,21,-617,-170
1125,-61,-197,-105,13,-601,-174
1130,-52,-218,-104,-14,-568,-170
1135,-36,-242,-101,-62,-529,-168
1140,-21,-257,-101,-130,-482,-159
1145,-8,-268,-106,-204,-428,-141
1150,1,-277,-102,-280,-367,-128
1155,10,-281,-104,-346,-306,-114
1160,18,-284,-99,-396,-247,-96
1165,22,-281,-94,-424,-191,-76
1170,25,-273,-90,-434,-144,-55
1175,28,-274,-85,-425,-106,-31
1180,24,-273,-84,-394,-78,-3
1185,24,-265,-83,-341,-62,28
1190,15,-259,-77,-268,-51,62
1195,10,-256,-78,-185,-42,97
1200,4,-249,-78,-98,-38,138
1205,-2,-248,-75,-15,-39,171
1210,-9,-246,-73,59,-45,211
1215,-13,-240,-72,117,-54,244
1220,-19,-237,-68,160,-65,271
1225,-21,-233,-66,182,-79,293
1230,-22,-228,-69,188,-90,310
1235,-23,-223,-68,182,-99,319
1240,-21,-219,-61,166,-99,324
1245,-19,-213,-68,142,-96,326
1250,-16,-206,-68,111,-90,328
1255,-12,-205,-66,81,-79,335
1260,-6,-204,-61,52,-70,343
1265,-13,-209,-52,28,-52,341
1270,0,-202,-52,13,-27,315
1275,2,-203,-48,7,7,280
1280,7,-205,-47,7,44,250
1285,8,-209,-44,12,83,231
1290,13,-216,-46,20,118,226
1295,15,-218,-45,26,156,231
1300,16,-221,-44,26,188,238
1305,16,-228,-46,23,218,248
1310,13,-235,-41,20,242,263
1315,6,-235,-46,18,265,280
1320,0,-240,-43,24,284,295
1325,-7,-238,-41,39,301,310
1330,-14,-242,-34,61,316,320
1335,-24,-243,-36,86,329,329
1340,-32,-243,-34,109,345,337
1345,-39,-246,-33,127,357,341
1350,-44,-247,-31,140,371,346
1355,-47,-245,-32,151,386,351
1360,-48,-248,-32,162,402,352
1365,-51,-245,-32,170,414,342
1370,-48,-245,-32,171,426,328
1375,-44,-240,-40,168,435,304
1380,-38,-236,-32,163,442,272
1385,-31,-235,-33,160,443,233
1390,-29,-226,-33,165,442,191
1395,-22,-221,-28,174,437,148
1400,-18,-218,-23,184,433,111
1405,-12,-212,-22,192,430,77
1410,-10,-208,-20,199,424,45
1415,-8,-206,-22,209,421,20
1420,-10,-206,-19,220,423,-3
1425,-8,-203,-22,228,428,-20
1430,-7,-205,-22,229,438,-33
1435,-3,-207,-21,225,450,-45
1440,-1,-209,-22,221,466,-55
1445,0,-212,-20,217,481,-62
1450,0,-219,-18,209,495,-69
1455,1,-222,-18,203,511,-74
1460,1,-227,-12,197,526,-80
1465,3,-230,-18,196,538,-87
1470,2,-234,-15,200,550,-94
1475,1,-234,-17,209,566,-103
1480,2,-237,-13,221,581,-112
1485,5,-236,-14,234,594,-124
1490,0,-238,-17,248,605,-136
1495,-1,-232,-17,261,609,-148
1500,-3,-231,-17,275,609,-161
1505,-10,-229,-20,283,606,-172
1510,-16,-228,-27,288,599,-185
1515,-21,-225,-26,287,590,-195
1520,-24,-225,-34,279,578,-203
1525,-32,-224,-36,264,566,-210
1530,-35,-225,-36,240,550,-212
1535,-42,-225,-37,210,530,-213
1540,-51,-225,-38,171,502,-211
1545,-50,-227,-30,129,468,-206
1550,-53,-232,-32,88,430,-198
1555,-57,-235,-18,52,391,-185
1560,-55,-244,-17,29,352,-168
1565,-54,-249,-8,22,324,-146
1570,-54,-252,-4,28,309,-118
1575,-53,-263,3,49,309,-89
1580,-44,-273,3,74,321,-61
1585,-38,-279,11,101,345,-33
1590,-27,-293,9,121,373,-12
1595,-23,-292,10,134,400,3
1600,-12,-299,15,138,428,14
1605,-4,-306,16,139,457,21
1610,3,-308,21,143,481,25
1615,9,-308,25,149,506,26
1620,13,-307,25,160,532,32
1625,17,-310,14,158,550,47
1630,19,-309,7,142,569,63
1635,23,-310,-10,105,586,79
1640,20,-318,-26,44,594,94
1645,18,-318,-41,-39,600,120
1650,7,-332,-57,-159,608,175
1655,-2,-338,-65,-267,586,196
1660,-5,-360,-69,-340,554,210
1665,-20,-370,-65,-354,531,226
1670,-33,-381,-70,-330,504,245
1675,-47,-384,-74,-264,463,236
1680,-60,-377,-86,-183,412,237
1685,-75,-369,-105,-127,354,263
1690,-91,-353,-127,-128,284,304
1695,-101,-342,-148,-198,205,347
1700,-104,-328,-160,-317,133,381
1705,-104,-317,-173,-456,91,407
1710,-98,-310,-172,-580,85,426
1715,-93,-298,-167,-656,113,437
1720,-80,-284,-162,-673,162,441
1725,-61,-273,-159,-653,224,448
1730,-40,-263,-154,-608,289,457
1735,-14,-255,-152,-550,355,471
1740,8,-246,-146,-480,421,487
1745,39,-237,-140,-408,492,499
1750,70,-227,-129,-337,564,506
1755,99,-217,-121,-266,637,497
1760,129,-218,-108,-185,701,476
1765,149,-216,-102,-100,764,443
1770,161,-212,-96,-10,822,397
1775,151,-214,-91,77,877,341
1780,134,-221,-85,156,930,290
1785,108,-231,-85,207,977,247
1790,75,-240,-84,222,1010,209
1795,37,-247,-85,198,1024,173
1800,0,-254,-78,143,1017,144
1805,-34,-262,-73,75,997,122
1810,-67,-274,-84,-1,967,111
1815,-96,-286,-69,-75,928,108
1820,-120,-290,-67,-133,883,109
1825,-134,-292,-67,-176,831,110
1830,-143,-292,-66,-204,770,106
1835,-143,-291,-66,-210,704,84
1840,-132,-285,-66,-198,636,46
1845,-125,-273,-65,-163,572,-5
1850,-106,-264,-63,-112,518,-64
1855,-85,-250,-69,-53,479,-124
1860,-64,-239,-67,7,449,-177
1865,-44,-225,-66,58,427,-221
1870,-23,-216,-69,95,405,-258
1875,-10,-200,-69,115,382,-285
1880,2,-192,-71,121,359,-303
1885,15,-185,-69,111,338,-312
1890,23,-182,-68,94,321,-312
1895,28,-181,-62,69,306,-304
1900,28,-180,-64,42,290,-293
1905,33,-184,-59,18,281,-282
1910,29,-186,-54,-2,277,-269
1915,25,-196,-60,-18,272,-255
1920,21,-206,-60,-30,270,-242
1925,16,-214,-60,-40,265,-230
1930,8,-220,-61,-50,258,-218
1935,3,-225,-57,-57,251,-211
1940,-3,-232,-67,-65,242,-208
1945,-2,-235,-64,-78,236,-208
1950,-8,-233,-63,-93,232,-214
1955,-10,-234,-65,-105,227,-220
1960,-10,-233,-67,-108,219,-232
1965,-14,-227,-59,-109,211,-249
1970,-11,-230,-61,-105,197,-270
1975,-11,-225,-59,-97,179,-294
1980,-5,-221,-59,-90,158,-313
1985,-4,-215,-59,-89,140,-318
1990,1,-212,-59,-93,116,-321
1995,1,-207,-58,-100,94,-325
2000,0,-207,-54,-102,73,-333
2005,2,-203,-49,-92,52,-340
2010,8,-208,-49,-77,32,-345
2015,12,-209,-46,-54,13,-346
2020,15,-208,-45,-26,-6,-341
2025,19,-208,-41,-1,-31,-319
2030,24,-214,-39,12,-63,-277
2035,25,-217,-36,19,-90,-242
2040,24,-221,-34,26,-106,-212
2045,23,-230,-32,35,-116,-187
2050,17,-231,-32,47,-125,-167
2055,17,-233,-28,62,-137,-146
2060,17,-235,-25,87,-147,-124
2065,16,-236,-24,112,-158,-105
2070,13,-236,-24,135,-171,-89
2075,15,-234,-24,154,-189,-72
2080,11,-236,-21,171,-203,-56
2085,5,-234,-20,185,-223,-39
2090,4,-236,-19,201,-241,-29
2095,0,-237,-20,217,-258,-18
2100,1,-236,-13,233,-273,-7
2105,-1,-240,-15,250,-291,6
2110,-4,-243,-12,266,-309,16
2115,-7,-244,-6,279,-333,24
2120,-14,-246,-9,293,-358,35
2125,-18,-247,-8,302,-384,44
2130,-22,-245,-9,309,-411,53
2135,-25,-244,-15,318,-437,63
2140,-19,-243,-13,324,-453,68
2145,-23,-236,-21,321,-456,79
2150,-19,-235,-22,309,-450,92
2155,-16,-224,-33,284,-437,102
2160,-9,-218,-44,247,-423,109
2165,-5,-216,-50,203,-405,123
2170,9,-213,-53,161,-383,128
2175,20,-215,-54,128,-365,124
2180,31,-219,-48,113,-349,110
2185,39,-233,-35,112,-340,92
2190,47,-246,-28,128,-342,67
2195,50,-261,-22,154,-358,39
2200,51,-277,-13,183,-387,7
2205,50,-290,-5,212,-427,-21
2210,44,-302,-4,239,-474,-47
2215,29,-310,6,261,-522,-69
2220,20,-316,2,278,-567,-90
2225,2,-313,3,291,-608,-101
2230,-6,-312,0,292,-641,-102
2235,-23,-307,-10,280,-671,-88
2240,-45,-301,-18,246,-698,-70
2245,-58,-299,-32,188,-721,-43
2250,-62,-302,-50,110,-735,-14
2255,-62,-311,-70,16,-731,8
2260,-53,-325,-86,-89,-710,14
2265,-37,-340,-102,-192,-678,5
2270,-17,-358,-109,-265,-637,-27
2275,3,-371,-107,-285,-597,-74
2280,28,-382,-100,-252,-561,-137
2285,47,-389,-98,-180,-529,-213
2290,59,-380,-100,-96,-493,-295
2295,68,-374,-114,-33,-443,-356
2300,80,-360,-127,-1,-377,-387
2305,87,-342,-148,-11,-305,-392
2310,89,-314,-172,-63,-250,-377
2315,89,-291,-182,-148,-222,-356
2320,85,-266,-181,-247,-228,-333
2325,71,-247,-169,-327,-276,-315
2330,49,-239,-151,-363,-360,-312
2335,24,-240,-133,-338,-463,-318
2340,-1,-237,-115,-257,-572,-331
2345,-31,-237,-100,-145,-674,-349
2350,-67,-234,-99,-24,-764,-367
2355,-99,-228,-87,93,-836,-384
2360,-136,-224,-85,194,-893,-394
2365,-169,-214,-87,265,-941,-388
2370,-192,-211,-92,293,-984,-370
2375,-202,-207,-94,275,-1027,-343
2380,-197,-209,-102,219,-1063,-320
2385,-180,-216,-105,140,-1084,-296
2390,-151,-227,-99,56,-1089,-274
2395,-110,-240,-99,-22,-1080,-252
2400,-71,-252,-88,-88,-1057,-232
2405,-37,-264,-84,-138,-1026,-208
2410,0,-278,-81,-175,-989,-185
2415,35,-295,-78,-206,-951,-159
2420,69,-307,-74,-238,-908,-141
2425,98,-318,-71,-269,-860,-126
2430,117,-335,-68,-293,-805,-119
2435,127,-346,-70,-307,-741,-112
2440,125,-350,-68,-309,-671,-95
2445,111,-346,-73,-301,-599,-60
2450,95,-334,-75,-277,-525,-8
2455,78,-318,-73,-234,-457,57
2460,57,-299,-73,-172,-399,122
2465,38,-268,-72,-86,-354,181
2470,23,-250,-68,13,-318,233
2475,9,-229,-71,117,-290,276
2480,-5,-207,-68,210,-265,313
2485,-20,-188,-63,280,-247,339
2490,-25,-180,-61,322,-241,367
2495,-25,-178,-61,348,-246,413
2500,-33,-174,-55,364,-262,457
2505,-45,-174,-53,364,-265,432
2510,-51,-172,-55,350,-259,372
2515,-48,-175,-50,324,-249,314
2520,-47,-181,-46,284,-235,265
2525,-40,-186,-40,249,-224,232
2530,-34,-200,-39,221,-209,218
2535,-23,-208,-40,202,-191,213
2540,-19,-213,-42,184,-175,213
2545,-11,-219,-41,168,-152,217
2550,-5,-224,-42,156,-124,222
2555,-1,-221,-44,151,-91,231
2560,0,-224,-45,145,-60,242
2565,2,-221,-36,137,-34,256
2570,1,-216,-40,129,-9,266
2575,1,-215,-34,122,18,275
2580,0,-210,-30,119,46,283
2585,-4,-209,-26,124,82,287
2590,-5,-208,-28,135,120,294
2595,-8,-207,-26,148,161,294
2600,-15,-204,-27,150,193,291
2605,-22,-196,-20,138,219,291
2610,-25,-195,-25,123,242,288
2615,-34,-193,-24,103,259,283
2620,-36,-196,-21,83,277,274
2625,-43,-198,-20,67,291,255
2630,-42,-201,-20,55,301,233
2635,-42,-203,-15,51,308,204
2640,-44,-206,-16,54,310,174
2645,-45,-209,-18,61,313,142
2650,-39,-217,-17,69,316,108
2655,-38,-219,-19,80,321,75
2660,-36,-219,-18,89,325,44
2665,-35,-225,-21,95,335,16
2670,-30,-227,-18,102,346,-12
2675,-23,-233,-17,105,362,-34
2680,-22,-230,-19,108,381,-55
2685,-15,-235,-16,109,409,-73
2690,-7,-238,-16,109,440,-89
2695,-3,-243,-12,110,473,-101
2700,0,-246,-7,116,505,-108
2705,5,-246,-7,128,539,-117
2710,12,-250,-3,147,571,-124
2715,19,-250,-6,171,602,-132
2720,21,-251,-1,203,632,-140
2725,25,-251,-2,236,665,-147
2730,28,-252,-2,271,693,-154
2735,28,-250,-6,303,722,-163
2740,28,-248,-1,334,743,-170
2745,23,-244,-9,358,757,-178
2750,15,-240,-7,378,765,-182
2755,2,-241,-9,389,763,-185
2760,-9,-234,-11,394,754,-187
2765,-21,-229,-11,391,745,-186
2770,-32,-227,-13,376,742,-183
2775,-42,-227,-11,358,735,-179
2780,-54,-226,-9,337,733,-174
2785,-62,-226,-10,313,718,-166
2790,-66,-227,-8,285,698,-160
2795,-71,-227,-9,254,675,-148
2800,-75,-232,-7,222,653,-133
2805,-76,-236,-2,198,642,-116
2810,-77,-244,5,192,636,-98
2815,-69,-250,11,199,636,-83
2820,-65,-260,14,217,642,-70
2825,-62,-265,21,235,648,-58
2830,-52,-271,26,252,658,-47
2835,-45,-277,26,262,668,-34
2840,-36,-286,29,267,683,-16
2845,-34,-286,30,269,699,3
2850,-30,-289,29,266,713,21
2855,-28,-293,25,250,722,44
2860,-27,-295,15,217,729,72
2865,-26,-297,1,167,730,106
2870,-32,-299,-16,98,720,144
2875,-43,-305,-30,11,708,188
2880,-55,-314,-53,-89,691,241
2885,-70,-333,-81,-199,666,300
2890,-82,-345,-104,-311,630,359
2895,-81,-364,-116,-410,571,413
2900,-86,-383,-114,-475,487,462
2905,-81,-400,-106,-482,386,501
2910,-71,-416,-88,-417,287,531
2915,-67,-422,-71,-275,202,544
2920,-69,-419,-56,-77,131,557
2925,-72,-412,-58,109,81,621
2930,-73,-414,-61,229,50,694
2935,-55,-412,-62,297,25,725
2940,-23,-391,-73,314,54,759
2945,-1,-371,-76,294,138,746
2950,14,-343,-95,264,263,696
2955,32,-312,-115,218,419,648
2960,55,-280,-129,156,586,601
2965,76,-249,-139,88,749,543
2970,96,-224,-148,42,895,475
2975,105,-197,-150,0,1027,410
2980,112,-186,-148,-14,1147,363
2985,110,-184,-151,-14,1252,334
2990,105,-178,-150,-6,1319,314
2995,96,-177,-146,1,1378,307
3000,91,-183,-141,0,1417,315
3005,80,-190,-133,-6,1440,334
3010,67,-206,-128,-14,1447,353
3015,49,-224,-117,-19,1439,375
3020,22,-249,-110,-28,1421,393
3025,2,-268,-108,-51,1391,403
3030,-18,-283,-109,-93,1352,404
3035,-40,-298,-105,-161,1309,397
3040,-56,-305,-99,-254,1257,379
3045,-71,-310,-87,-350,1192,354
3050,-81,-312,-81,-433,1114,334
3055,-91,-313,-72,-493,1034,315
3060,-94,-313,-64,-523,956,292
3065,-98,-308,-57,-525,886,259
3070,-93,-299,-59,-511,830,211
3075,-87,-279,-62,-486,780,146
3080,-77,-266,-56,-450,738,63
3085,-67,-251,-54,-401,704,-31
3090,-56,-237,-55,-341,677,-128
3095,-48,-225,-52,-281,654,-222
3100,-36,-216,-52,-219,636,-308
3105,-25,-210,-48,-167,624,-382
3110,-22,-204,-45,-129,618,-440
3115,-13,-208,-43,-109,620,-483
3120,-12,-203,-41,-108,622,-508
3125,-6,-204,-41,-123,621,-511
3130,-5,-204,-36,-149,613,-502
3135,0,-207,-33,-177,603,-480
3140,0,-208,-35,-201,584,-458
3145,-4,-209,-35,-222,563,-427
3150,-11,-211,-33,-235,537,-391
3155,-9,-212,-35,-240,510,-350
3160,-10,-216,-32,-241,482,-306
3165,-17,-217,-31,-239,455,-275
3170,-22,-214,-31,-236,424,-261
3175,-23,-215,-33,-231,394,-260
3180,-24,-216,-34,-229,362,-264
3185,-22,-214,-31,-225,324,-266
3190,-20,-215,-31,-220,286,-274
3195,-18,-215,-35,-204,251,-284
3200,-16,-212,-34,-186,215,-305
3205,-13,-209,-32,-169,181,-330
3210,-9,-209,-30,-155,153,-349
3215,-3,-206,-34,-139,128,-357
3220,1,-204,-30,-124,101,-361
3225,2,-203,-32,-108,67,-358
3230,7,-203,-30,-95,36,-353
3235,9,-205,-29,-85,8,-342
3240,14,-207,-25,-83,-12,-327
3245,22,-214,-24,-88,-24,-305
3250,20,-219,-23,-97,-27,-279
3255,25,-222,-24,-106,-26,-252
3260,27,-228,-21,-108,-27,-224
3265,24,-234,-21,-101,-34,-197
3270,22,-242,-22,-91,-44,-170
3275,18,-239,-27,-80,-57,-143
3280,11,-235,-25,-76,-66,-116
3285,8,-242,-29,-73,-70,-87
3290,8,-239,-22,-72,-70,-58
3295,4,-237,-21,-66,-66,-30
3300,0,-236,-25,-54,-58,-4
3305,-1,-234,-19,-35,-51,16
3310,-1,-229,-20,-13,-46,32
3315,-3,-231,-15,10,-46,41
3320,0,-233,-15,36,-54,45
3325,-1,-233,-8,63,-61,46
3330,-2,-237,-9,92,-70,44
3335,-5,-240,-5,117,-80,36
3340,-3,-240,-5,139,-90,28
3345,-3,-247,-8,153,-104,17
3350,-6,-247,-8,165,-122,7
3355,-5,-249,-10,177,-141,-1
3360,-6,-249,-7,188,-164,-5
3365,-8,-249,-6,197,-187,-5
3370,-10,-247,-9,201,-211,0
3375,-12,-243,-7,203,-235,8
3380,-15,-240,-1,204,-259,21
3385,-19,-236,-6,200,-280,36
3390,-21,-231,-6,197,-301,55
3395,-23,-230,-6,194,-314,77
3400,-25,-220,-11,186,-322,95
3405,-25,-213,-14,175,-328,117
3410,-21,-207,-20,158,-330,140
3415,-13,-203,-28,126,-329,157
3420,-5,-201,-37,86,-329,167
3425,2,-195,-41,41,-328,170
3430,10,-200,-41,-7,-329,167
3435,21,-205,-46,-50,-331,158
3440,26,-211,-42,-86,-335,145
3445,29,-218,-41,-116,-337,128
3450,29,-230,-36,-138,-340,114
3455,32,-244,-37,-160,-340,98
3460,31,-259,-37,-180,-343,80
3465,31,-271,-26,-200,-345,60
3470,27,-284,-20,-215,-347,39
3475,26,-298,-16,-216,-349,16
3480,20,-305,-12,-206,-350,-4
3485,20,-310,-3,-197,-358,-18
3490,11,-311,-4,-182,-358,-36
3495,5,-311,0,-178,-364,-42
3500,-1,-304,2,-179,-377,-42
3505,-6,-303,7,-182,-396,-39
3510,-9,-295,5,-185,-421,-39
3515,-15,-287,13,-178,-450,-35
3520,-15,-278,12,-158,-481,-27
3525,-22,-273,10,-125,-512,-15
3530,-21,-271,11,-90,-540,6
3535,-21,-270,5,-63,-559,28
3540,-22,-270,-4,-53,-572,50
3545,-14,-284,-22,-63,-575,69
3550,-4,-300,-50,-105,-569,81
3555,0,-311,-86,-189,-555,91
3560,17,-330,-122,-317,-531,105
3565,29,-348,-137,-463,-492,110
3570,40,-372,-140,-588,-440,114
3575,49,-384,-132,-651,-383,108
3580,55,-402,-129,-641,-317,96
3585,61,-404,-130,-574,-231,81
3590,72,-401,-145,-497,-122,68
3595,79,-388,-162,-454,-7,61
3600,86,-373,-180,-460,91,48
3605,90,-350,-194,-509,154,34
3610,96,-331,-210,-579,184,12
3615,82,-310,-212,-640,191,-12
3620,64,-287,-211,-666,168,-30
3625,48,-269,-211,-653,116,-48
3630,25,-249,-208,-625,40,-74
3635,0,-237,-187,-591,-46,-109
3640,-36,-223,-163,-541,-135,-152
3645,-80,-221,-140,-459,-215,-194
3650,-93,-205,-116,-334,-278,-229
3655,-126,-190,-86,-169,-321,-253
3660,-172,-200,-76,1,-350,-249
3665,-196,-205,-73,140,-375,-217
3670,-196,-193,-76,222,-404,-173
3675,-201,-208,-74,245,-440,-120
3680,-190,-204,-93,213,-479,-68
3685,-170,-224,-92,129,-508,-12
3690,-141,-248,-105,11,-517,42
3695,-104,-250,-100,-117,-502,101
3700,-58,-269,-96,-240,-467,158
3705,-13,-285,-94,-346,-420,211
3710,19,-290,-88,-440,-372,253
3715,52,-302,-89,-518,-333,280
3720,83,-299,-82,-577,-301,295
3725,115,-303,-92,-619,-267,292
3730,137,-305,-83,-638,-228,276
3735,131,-303,-99,-629,-183,247
3740,112,-303,-93,-588,-134,223
3745,103,-275,-99,-518,-80,217
3750,71,-285,-89,-425,-27,232
3755,56,-262,-86,-325,19,259
3760,37,-246,-99,-227,55,296
3765,14,-222,-98,-145,82,345
3770,0,-210,-106,-83,102,400
3775,-22,-191,-104,-37,127,436
3780,-45,-176,-99,-2,155,451
3785,-59,-171,-96,19,181,458
3790,-68,-178,-87,31,200,463
3795,-85,-170,-94,34,211,474
3800,-81,-178,-90,39,211,481
3805,-83,-185,-73,44,205,477
3810,-85,-188,-66,47,198,463
3815,-85,-198,-60,44,191,455
3820,-72,-219,-63,33,194,452
3825,-57,-230,-58,11,208,462
3830,-43,-231,-61,-17,234,486
3835,-22,-237,-75,-43,266,515
3840,-26,-254,-63,-71,299,541
3845,-6,-257,-62,-96,331,565
3850,-3,-257,-60,-117,360,583
3855,-3,-255,-66,-138,385,593
3860,-2,-251,-57,-156,401,601
3865,-5,-246,-55,-163,414,609
3870,-5,-246,-59,-157,431,615
3875,-13,-226,-56,-141,451,613
3880,-17,-224,-43,-113,473,605
3885,-23,-213,-48,-81,501,597
3890,-27,-211,-47,-56,528,581
3895,-32,-210,-53,-45,559,557
3900,-32,-201,-52,-36,587,535
3905,-28,-198,-51,-23,613,515
3910,-24,-198,-49,-9,633,504
3915,-32,-199,-49,1,647,480
3920,-28,-202,-45,9,655,456
3925,-31,-199,-44,22,663,443
3930,-27,-197,-48,32,662,428
3935,-27,-203,-50,33,666,417
3940,-33,-206,-39,25,664,402
3945,-35,-205,-60,12,662,389
3950,-35,-203,-60,-6,666,378
3955,-35,-208,-62,-25,671,358
3960,-36,-208,-54,-45,684,338
3965,-37,-213,-56,-64,699,318
3970,-34,-232,-61,-80,712,298
3975,-22,-221,-58,-95,725,279
3980,-39,-228,-69,-107,738,260
3985,-33,-225,-58,-113,750,239
3990,-28,-227,-62,-115,758,214
3995,-19,-219,-55,-112,760,188
4000,-26,-225,-58,-104,756,163
4005,-29,-225,-53,-92,745,138
4010,-31,-221,-52,-69,740,121
4015,-35,-221,-52,-42,738,106
4020,-29,-226,-47,-9,739,96
4025,-42,-224,-45,25,744,86
4030,-38,-227,-49,57,745,77
4035,-38,-232,-43,90,748,66
4040,-42,-240,-45,123,752,55
4045,-46,-245,-37,162,755,43
4050,-41,-243,-40,200,759,32
4055,-51,-248,-44,236,762,20
4060,-42,-250,-28,266,759,7
4065,-51,-248,-41,292,754,-6
4070,-35,-248,-41,315,746,-17
4075,-43,-252,-35,337,733,-24
4080,-41,-257,-28,357,720,-30
4085,-40,-253,-25,378,707,-36
4090,-41,-250,-26,402,702,-42
4095,-43,-245,-26,427,703,-46
4100,-46,-242,-32,445,707,-48
4105,-44,-238,-23,453,709,-52
4110,-37,-236,-27,448,711,-54
4115,-47,-231,-36,427,711,-58
4120,-39,-236,-35,396,708,-58
4125,-39,-235,-35,357,708,-59
4130,-36,-239,-41,318,708,-61
4135,-31,-240,-47,278,714,-64
4140,-27,-248,-44,236,726,-67
4145,-22,-249,-45,196,742,-72
4150,-20,-252,-51,153,752,-83
4155,-22,-252,-59,105,755,-96
4160,-18,-257,-62,52,750,-113
4165,-20,-257,-76,-13,735,-131
4170,-34,-261,-87,-85,718,-144
4175,-39,-266,-91,-162,695,-149
4180,-52,-270,-95,-235,668,-148
4185,-64,-276,-95,-298,642,-135
4190,-71,-287,-100,-349,613,-120
4195,-81,-302,-94,-387,582,-96
4200,-83,-317,-93,-409,548,-63
4205,-91,-334,-90,-416,509,-27
4210,-87,-352,-108,-413,458,18
4215,-102,-369,-86,-405,400,63
4220,-97,-378,-90,-397,341,107
4225,-90,-388,-92,-393,287,150
4230,-76,-393,-102,-400,245,191
4235,-63,-389,-112,-416,214,219
4240,-50,-378,-119,-437,203,228
4245,-31,-354,-124,-447,209,213
4250,-22,-328,-133,-436,224,177
4255,-11,-300,-132,-406,249,136
4260,-8,-277,-135,-360,284,90
4265,0,-257,-141,-309,320,42
4270,-2,-241,-145,-257,361,-4
4275,-1,-228,-148,-209,401,-44
4280,-10,-217,-148,-171,437,-78
4285,-25,-214,-152,-149,465,-103
4290,-38,-209,-152,-143,481,-112
4295,-47,-212,-159,-162,487,-108
4300,-58,-216,-161,-198,480,-98
4305,-63,-226,-164,-251,462,-86
4310,-70,-234,-167,-316,444,-68
4315,-76,-238,-177,-381,428,-50
4320,-76,-247,-183,-443,426,-31
4325,-76,-252,-190,-492,435,-17
4330,-71,-254,-198,-519,457,-9
4335,-67,-254,-192,-518,481,-2
4340,-57,-255,-198,-494,500,5
4345,-50,-252,-189,-456,506,15
4350,-37,-253,-179,-405,499,25
4355,-25,-252,-170,-353,477,41
4360,-11,-249,-158,-303,447,58
4365,-6,-249,-149,-258,415,73
4370,4,-248,-141,-219,379,86
4375,10,-248,-137,-181,347,95
4380,13,-249,-130,-142,317,96
4385,15,-249,-130,-100,299,94
4390,10,-249,-128,-58,289,86
4395,8,-250,-128,-21,287,74
4400,2,-251,-125,15,291,55
4405,-5,-253,-117,46,296,29
4410,-15,-250,-114,69,299,5
4415,-26,-250,-115,84,299,-21
4420,-30,-253,-109,89,297,-46
4425,-38,-254,-108,87,297,-71
4430,-41,-248,-109,78,304,-95
4435,-45,-249,-106,70,319,-118
4440,-46,-245,-104,63,334,-140
4445,-44,-242,-100,59,355,-163
4450,-40,-238,-101,58,374,-185
4455,-32,-237,-94,62,388,-207
4460,-32,-229,-96,69,396,-224
4465,-28,-223,-96,74,395,-234
4470,-20,-222,-91,79,388,-243
4475,-16,-222,-89,84,378,-253
4480,-13,-222,-86,90,366,-258
4485,-11,-221,-85,99,356,-262
4490,-10,-218,-85,108,345,-266
4495,-8,-221,-80,117,341,-269
4500,-5,-219,-79,131,341,-276
4505,-4,-218,-84,141,348,-286
4510,-7,-218,-82,148,356,-302
4515,-3,-213,-83,153,364,-319
4520,-6,-212,-83,156,369,-338
4525,-5,-209,-83,158,368,-362
4530,-9,-207,-81,157,364,-388
4535,-12,-202,-75,160,353,-414
4540,-9,-198,-75,162,344,-440
4545,-14,-197,-71,167,335,-462
4550,-14,-192,-76,175,320,-481
4555,-16,-193,-73,182,307,-496
4560,-14,-195,-68,185,295,-513
4565,-17,-191,-66,184,286,-531
4570,-17,-193,-69,178,280,-546
4575,-15,-189,-72,164,281,-552
4580,-11,-186,-69,150,287,-555
4585,-11,-184,-79,136,290,-546
4590,-8,-185,-74,123,290,-539
4595,-6,-184,-76,112,284,-534
4600,-4,-184,-73,104,272,-529
4605,1,-191,-69,101,256,-523
4610,4,-192,-70,106,235,-516
4615,1,-193,-65,118,213,-507
4620,2,-199,-63,133,192,-495
4625,6,-204,-58,143,169,-483
4630,4,-203,-59,146,151,-473
4635,6,-207,-60,146,140,-463
4640,5,-208,-66,141,135,-444
4645,1,-208,-70,130,129,-424
4650,0,-206,-74,117,117,-412
4655,-2,-205,-73,104,104,-413
4660,-5,-195,-70,109,88,-423
4665,1,-196,-74,127,60,-404
4670,0,-193,-74,128,20,-352
4675,-1,-193,-70,113,-23,-311
4680,0,-195,-71,100,-63,-288
4685,-1,-199,-67,98,-91,-273
4690,0,-203,-66,101,-116,-267
4695,0,-205,-67,105,-134,-271
4700,3,-209,-66,108,-143,-268
4705,5,-220,-69,110,-148,-265
4710,6,-222,-65,110,-152,-271
4715,8,-223,-69,103,-156,-283
4720,8,-227,-69,97,-153,-272
4725,11,-229,-68,93,-153,-260
4730,6,-225,-69,96,-155,-236
4735,10,-232,-68,104,-160,-214
4740,14,-232,-60,116,-172,-194
4745,16,-236,-62,132,-187,-177
4750,20,-239,-57,151,-197,-161
4755,20,-244,-58,171,-204,-148
4760,24,-247,-51,199,-207,-138
4765,19,-247,-52,229,-210,-131
4770,24,-249,-52,262,-213,-125
4775,24,-248,-51,290,-216,-121
4780,33,-242,-50,311,-214,-115
4785,30,-246,-45,329,-211,-109
4790,32,-243,-43,348,-205,-101
4795,34,-244,-38,366,-201,-93
4800,36,-241,-38,380,-198,-82
4805,35,-239,-41,384,-194,-69
4810,35,-236,-37,376,-187,-56
4815,35,-233,-39,358,-177,-38
4820,35,-233,-38,332,-165,-24
4825,35,-234,-40,302,-157,-10
4830,32,-240,-39,269,-147,1
4835,32,-239,-43,239,-142,12
4840,35,-241,-38,215,-134,27
4845,25,-245,-33,197,-125,39
4850,21,-248,-33,190,-119,53
4855,20,-248,-29,182,-122,63
4860,17,-249,-27,173,-134,72
4865,18,-249,-25,160,-160,75
4870,14,-249,-28,141,-194,82
4875,14,-249,-25,120,-235,88
4880,12,-249,-22,99,-277,92
4885,11,-248,-29,81,-320,97
4890,6,-251,-31,70,-359,101
4895,5,-255,-24,66,-395,110
4900,2,-255,-20,64,-424,119
4905,1,-258,-19,66,-449,131
4910,1,-266,-17,65,-471,145
4915,0,-271,-18,58,-486,158
4920,2,-272,-22,42,-495,170
4925,7,-280,-27,23,-493,178
4930,19,-287,-40,-9,-481,182
4935,24,-291,-50,-47,-460,179
4940,31,-297,-60,-90,-427,172
4945,41,-308,-67,-139,-394,161
4950,50,-311,-67,-182,-346,145
4955,57,-318,-68,-216,-290,127
4960,65,-327,-71,-232,-225,105
4965,73,-335,-69,-231,-151,86
4970,76,-338,-68,-207,-76,67
4975,78,-339,-70,-171,-1,53
4980,79,-337,-72,-129,67,44
4985,71,-332,-77,-92,124,47
4990,64,-325,-83,-63,163,69
4995,49,-312,-95,-50,178,107
5000,40,-299,-101,-53,173,152
5005,25,-290,-120,-66,158,206
5010,19,-284,-130,-86,147,251
5015,16,-280,-143,-104,141,286
5020,9,-281,-147,-114,140,306
5025,8,-288,-152,-120,140,311
5030,6,-295,-150,-120,139,302
5035,2,-301,-153,-110,142,279
5040,0,-301,-162,-91,156,249
5045,0,-297,-165,-73,175,212
5050,-4,-280,-176,-62,199,177
5055,-5,-263,-181,-60,224,144
5060,-14,-246,-186,-68,246,113
5065,-20,-229,-190,-75,265,89
5070,-26,-206,-187,-81,273,70
5075,-28,-189,-186,-81,276,57
5080,-40,-179,-182,-74,273,50
5085,-44,-174,-175,-57,273,49
5090,-47,-174,-164,-30,279,54
5095,-48,-180,-152,0,295,65
5100,-43,-185,-141,26,310,79
5105,-38,-199,-139,44,324,89
5110,-30,-213,-132,45,335,97
5115,-26,-230,-131,24,347,108
5120,-17,-243,-130,-17,369,119
5125,-11,-251,-133,-74,403,134
5130,-2,-259,-130,-143,442,150
5135,0,-267,-129,-216,476,172
5140,1,-273,-130,-290,499,199
5145,0,-272,-127,-356,508,229
5150,-2,-275,-126,-405,511,264
5155,-6,-276,-123,-430,508,300
5160,-16,-277,-118,-424,507,340
5165,-14,-286,-113,-386,500,376
5170,-23,-283,-116,-320,493,409
5175,-28,-281,-109,-231,486,435
5180,-34,-277,-109,-128,478,450
5185,-40,-274,-104,-24,471,454
5190,-37,-266,-107,73,463,450
5195,-40,-255,-105,149,457,442
5200,-42,-250,-100,203,449,431
5205,-38,-244,-103,232,434,420
5210,-37,-235,-102,235,416,407
5215,-34,-227,-104,217,400,395
5220,-29,-220,-100,186,388,388
5225,-23,-214,-101,151,382,380
5230,-16,-211,-96,124,382,369
5235,-10,-209,-87,107,382,361
5240,-3,-209,-84,103,385,356
5245,1,-210,-84,111,384,354
5250,3,-215,-76,124,379,360
5255,5,-222,-75,137,370,375
5260,7,-225,-66,151,357,402
5265,6,-233,-70,163,342,451
5270,16,-237,-77,179,328,533
5275,5,-246,-68,202,319,620
5280,-3,-248,-69,223,322,649
5285,-13,-245,-62,246,340,644
5290,-18,-244,-65,262,365,634
5295,-24,-236,-65,267,391,632
5300,-32,-229,-65,261,414,640
5305,-33,-223,-63,250,434,649
5310,-39,-219,-61,238,457,651
5315,-47,-209,-55,225,472,646
5320,-49,-206,-51,216,481,639
5325,-50,-202,-56,212,484,629
5330,-54,-198,-50,213,483,613
5335,-51,-199,-52,219,482,597
5340,-46,-199,-48,221,478,578
5345,-48,-199,-48,223,475,547
5350,-46,-199,-47,221,471,514
5355,-41,-206,-46,218,467,479
5360,-39,-203,-42,211,463,437
5365,-37,-206,-41,204,458,397
5370,-30,-211,-41,201,449,364
5375,-30,-211,-42,204,443,330
5380,-24,-212,-33,210,438,306
5385,-27,-214,-44,220,437,287
5390,-24,-214,-42,231,438,267
5395,-25,-217,-40,241,446,242
5400,-24,-217,-41,253,455,218
5405,-26,-216,-39,271,468,194
5410,-25,-215,-42,293,483,167
5415,-25,-215,-31,312,490,140
5420,-26,-212,-38,325,495,114
5425,-29,-211,-34,339,496,91
5430,-33,-210,-35,343,494,70
5435,-34,-208,-37,338,488,49
5440,-38,-208,-38,319,480,25
5445,-42,-202,-35,293,470,5
5450,-43,-200,-33,267,465,-16
5455,-45,-200,-34,250,464,-37
5460,-48,-205,-32,233,460,-58
5465,-44,-208,-34,218,449,-74
5470,-46,-210,-35,203,432,-95
5475,-45,-215,-33,188,409,-116
5480,-42,-221,-28,184,383,-135
5485,-38,-227,-29,190,359,-155
5490,-35,-229,-25,208,342,-174
5495,-35,-234,-22,230,332,-185
5500,-33,-238,-22,249,329,-191
5505,-31,-236,-21,262,333,-193
5510,-32,-236,-20,267,335,-191
5515,-34,-234,-23,262,337,-190
5520,-33,-231,-22,246,336,-182
5525,-32,-226,-25,221,332,-173
5530,-34,-221,-25,193,327,-165
5535,-35,-216,-29,163,324,-157
5540,-33,-212,-33,130,322,-158
5545,-33,-212,-29,100,321,-157
5550,-36,-212,-27,77,327,-160
5555,-37,-219,-30,63,332,-165
5560,-36,-228,-22,57,342,-168
5565,-38,-235,-27,53,356,-171
5570,-39,-239,-28,53,369,-175
5575,-33,-247,-29,49,378,-173
5580,-29,-254,-32,43,384,-171
5585,-31,-261,-33,32,387,-165
5590,-23,-264,-32,19,385,-160
5595,-25,-263,-33,7,378,-154
5600,-25,-271,-32,0,366,-148
5605,-24,-273,-31,-7,353,-139
5610,-26,-271,-29,-10,344,-129
5615,-29,-266,-31,-11,336,-116
5620,-28,-263,-30,-16,329,-104
5625,-28,-266,-31,-25,323,-97
5630,-28,-263,-35,-36,318,-92
5635,-29,-262,-41,-52,317,-81
5640,-28,-264,-37,-73,328,-64
5645,-31,-269,-37,-90,337,-49
5650,-33,-279,-38,-104,342,-42
5655,-33,-290,-42,-112,336,-36
5660,-36,-303,-35,-112,327,-24
5665,-34,-316,-40,-102,320,-1
5670,-34,-331,-48,-87,306,25
5675,-45,-341,-55,-75,285,41
5680,-40,-355,-67,-78,252,61
5685,-45,-357,-70,-77,220,72
5690,-49,-366,-76,-74,177,74
5695,-52,-375,-79,-57,123,82
5700,-53,-375,-82,-22,68,88
5705,-59,-369,-89,28,24,83
5710,-56,-365,-88,84,-5,73
5715,-60,-357,-93,134,-17,54
5720,-55,-340,-97,167,-17,32
5725,-53,-327,-103,176,-7,5
5730,-51,-315,-109,162,11,-29
5735,-52,-304,-112,124,30,-62
5740,-46,-300,-117,75,45,-94
5745,-45,-293,-121,23,57,-124
5750,-45,-282,-128,-20,71,-151
5755,-44,-275,-130,-55,84,-177
5760,-41,-273,-132,-75,98,-198
5765,-41,-260,-137,-89,112,-211
5770,-38,-257,-147,-104,125,-215
5775,-34,-246,-151,-124,143,-213
5780,-24,-237,-159,-148,173,-204
5785,-15,-228,-157,-172,215,-188
5790,-5,-213,-160,-193,264,-170
5795,7,-205,-163,-203,322,-150
5800,21,-194,-163,-204,385,-129
5805,37,-190,-161,-194,449,-109
5810,53,-182,-157,-175,507,-96
5815,62,-183,-159,-146,556,-84
5820,74,-183,-147,-111,602,-79
5825,85,-193,-138,-73,646,-76
5830,84,-203,-135,-32,684,-79
5835,80,-214,-130,7,712,-80
5840,74,-227,-124,33,721,-79
5845,58,-237,-126,40,712,-78
5850,40,-252,-126,24,684,-77
5855,17,-259,-125,-15,640,-72
5860,-1,-261,-129,-71,591,-65
5865,-19,-269,-131,-139,554,-60
5870,-31,-273,-135,-209,534,-58
5875,-40,-276,-134,-272,526,-65
5880,-46,-271,-135,-320,527,-78
5885,-45,-273,-131,-348,528,-101
5890,-44,-269,-127,-355,525,-133
5895,-39,-265,-123,-342,513,-171
5900,-35,-259,-118,-314,495,-210
5905,-32,-261,-110,-276,474,-240
5910,-30,-258,-112,-232,453,-260
5915,-21,-260,-105,-197,433,-268
5920,-12,-256,-106,-156,418,-261
5925,-7,-254,-106,-119,405,-244
5930,-4,-257,-108,-89,391,-223
5935,0,-255,-107,-62,368,-200
5940,2,-253,-107,-39,343,-179
5945,4,-250,-106,-21,304,-166
5950,3,-248,-106,-6,261,-156
5955,3,-247,-101,7,216,-153
5960,0,-246,-99,17,171,-152
5965,-1,-247,-97,22,128,-155
5970,-7,-248,-87,29,92,-158
5975,-15,-244,-82,36,62,-162
5980,-20,-247,-76,43,35,-168
5985,-22,-242,-70,50,13,-174
5990,-25,-236,-64,56,-5,-184
5995,-26,-229,-63,69,-18,-196
6000,-25,-221,-59,83,-31,-214
6005,-21,-217,-62,98,-48,-237
6010,-21,-208,-58,110,-71,-264
6015,-16,-201,-61,120,-105,-295
6020,-14,-202,-62,127,-150,-329
6025,-11,-201,-59,129,-204,-362
6030,-8,-200,-58,130,-254,-386
6035,-3,-204,-61,121,-296,-405
6040,1,-205,-60,110,-324,-422
6045,5,-215,-59,95,-338,-436
6050,6,-216,-57,82,-340,-444
6055,12,-222,-62,76,-333,-444
6060,13,-222,-64,70,-326,-443
6065,18,-228,-66,67,-322,-439
6070,16,-223,-64,67,-327,-432
6075,21,-224,-64,65,-342,-416
6080,19,-221,-65,70,-364,-397
6085,21,-217,-64,74,-383,-373
6090,20,-220,-64,76,-398,-355
6095,20,-222,-61,79,-404,-345
6100,20,-223,-57,87,-407,-328
6105,21,-223,-57,105,-409,-313
6110,22,-228,-56,128,-410,-298
6115,25,-229,-59,151,-412,-285
6120,25,-231,-59,170,-416,-273
6125,27,-235,-62,181,-429,-261
6130,27,-238,-65,181,-444,-247
6135,24,-241,-70,170,-456,-233
6140,21,-243,-67,156,-467,-219
6145,18,-240,-68,140,-475,-208
6150,13,-241,-72,129,-481,-199
6155,11,-242,-69,125,-488,-186
6160,12,-245,-65,127,-494,-178
6165,7,-242,-64,137,-503,-170
6170,6,-242,-60,154,-513,-163
6175,9,-244,-60,174,-524,-159
6180,8,-237,-60,189,-533,-156
6185,7,-239,-60,203,-538,-150
6190,10,-236,-61,211,-540,-145
6195,7,-233,-58,215,-538,-140
6200,9,-232,-58,218,-536,-134
6205,9,-231,-55,222,-535,-129
6210,11,-231,-56,227,-533,-122
6215,13,-228,-53,236,-533,-117
6220,11,-229,-55,246,-533,-114
6225,20,-233,-52,260,-534,-111
6230,23,-233,-50,274,-533,-112
6235,26,-233,-43,291,-532,-114
6240,28,-231,-41,313,-527,-117
6245,28,-228,-42,334,-520,-118
6250,35,-230,-36,353,-514,-117
6255,35,-230,-40,366,-510,-113
6260,36,-230,-39,374,-504,-103
6265,39,-227,-38,372,-497,-87
6270,36,-223,-33,368,-488,-67
6275,36,-224,-26,367,-477,-45
6280,31,-220,-23,372,-464,-21
6285,28,-219,-23,381,-443,1
6290,30,-213,-23,391,-419,27
6295,24,-207,-24,398,-392,55
6300,24,-206,-27,395,-370,85
6305,21,-202,-33,383,-350,115
6310,16,-208,-38,363,-336,142
6315,10,-203,-39,332,-330,167
6320,8,-208,-39,295,-328,184
6325,1,-209,-30,263,-336,197
6330,-2,-218,-28,241,-348,203
6335,-3,-226,-27,228,-362,207
6340,-4,-228,-23,226,-372,209
6345,0,-235,-25,231,-373,212
6350,2,-244,-23,239,-366,211
6355,3,-241,-24,255,-355,209
6360,11,-252,-23,273,-343,205
6365,19,-259,-19,297,-334,201
6370,22,-257,-20,327,-328,195
6375,26,-256,-19,367,-324,192
6380,22,-254,-16,414,-319,190
6385,22,-251,-11,462,-314,191
6390,18,-250,-8,507,-304,201
6395,23,-243,-9,540,-287,212
6400,21,-239,-9,558,-259,226
6405,24,-233,-8,560,-231,238
6410,21,-227,-6,548,-205,249
6415,24,-232,-2,530,-188,259
6420,23,-230,3,510,-176,268
6425,24,-233,6,490,-162,276
6430,25,-236,5,474,-143,283
6435,24,-236,1,459,-120,287
6440,29,-242,0,445,-99,292
6445,31,-242,-3,428,-85,296
6450,35,-246,-8,410,-78,296
6455,35,-249,-5,391,-75,292
6460,39,-250,-3,372,-71,287
6465,31,-255,-12,356,-63,282
6470,36,-254,-11,341,-49,274
6475,31,-258,-13,320,-30,265
6480,30,-258,-11,299,-2,254
6485,29,-263,-14,275,31,243
6490,27,-269,-14,254,58,229
6495,29,-278,-17,240,92,212
6500,27,-282,-15,232,124,195
6505,30,-285,-17,226,159,181
6510,31,-289,-22,222,195,167
6515,28,-289,-33,217,228,160
6520,32,-297,-35,213,263,151
6525,37,-297,-46,214,303,140
6530,43,-295,-51,216,341,123
6535,50,-294,-63,229,380,98
6540,55,-301,-63,254,421,65
6545,57,-308,-63,297,466,31
6550,59,-314,-69,352,515,-3
6555,59,-325,-68,426,556,-41
6560,57,-336,-67,513,591,-72
6565,59,-345,-70,594,624,-98
6570,56,-350,-74,651,655,-122
6575,53,-356,-78,678,683,-142
6580,51,-366,-85,681,706,-165
6585,48,-365,-93,653,726,-193
6590,38,-364,-113,593,746,-224
6595,28,-354,-131,496,767,-252
6600,13,-332,-162,375,777,-267
6605,-2,-311,-186,236,765,-277
6610,-23,-279,-194,102,724,-280
6615,-39,-246,-206,-8,651,-282
6620,-61,-210,-211,-74,552,-287
6625,-74,-176,-209,-96,430,-306
6630,-92,-135,-203,-76,291,-337
6635,-110,-96,-189,-23,142,-375
6640,-121,-57,-173,56,-14,-407
6645,-131,-16,-150,149,-159,-422
6650,-139,13,-124,243,-279,-421
6655,-140,45,-98,330,-360,-402
6660,-128,54,-70,377,-416,-364
6665,-122,48,-42,386,-448,-312
6670,-103,31,-30,349,-461,-252
6675,-82,1,-21,269,-454,-186
6680,-54,-34,-25,155,-410,-120
6685,-33,-71,-36,24,-304,-59
6690,-10,-115,-43,-98,-152,8
6695,3,-150,-56,-198,12,76
6700,22,-183,-69,-267,169,134
6705,37,-204,-87,-311,308,173
6710,48,-218,-99,-349,419,190
6715,64,-226,-109,-395,493,181
6720,67,-229,-118,-440,524,141
6725,64,-221,-124,-479,522,76
6730,56,-211,-124,-510,492,-6
6735,42,-195,-113,-523,453,-99
6740,27,-181,-97,-512,426,-188
6745,16,-168,-83,-481,415,-277
6750,10,-159,-60,-433,415,-368
6755,0,-152,-38,-368,438,-453
6760,1,-149,-21,-287,483,-519
6765,1,-148,-5,-202,557,-557
6770,3,-150,7,-115,662,-567
6775,8,-153,17,-26,790,-547
6780,12,-155,22,57,926,-500
6785,14,-157,20,115,1057,-428
6790,13,-157,10,134,1169,-335
6795,16,-155,6,111,1249,-221
6800,17,-156,1,53,1294,-92
6805,12,-151,-7,-24,1306,37
6810,11,-150,-10,-98,1296,154
6815,13,-153,-16,-150,1277,253
6820,10,-153,-18,-169,1256,328
6825,9,-160,-24,-155,1242,380
6830,8,-159,-32,-124,1236,416
6835,0,-158,-41,-99,1228,434
6840,-5,-153,-50,-87,1214,441
6845,-9,-151,-55,-88,1200,440
6850,-19,-145,-58,-97,1191,439
6855,-27,-140,-60,-100,1193,436
6860,-33,-137,-71,-95,1209,444
6865,-35,-134,-73,-90,1236,460
6870,-44,-132,-76,-85,1272,491
6875,-45,-135,-79,-90,1298,528
6880,-48,-145,-75,-104,1300,567
6885,-53,-152,-72,-118,1279,599
6890,-56,-171,-66,-128,1238,627
6895,-61,-188,-55,-121,1187,655
6900,-53,-207,-41,-90,1123,684
6905,-59,-227,-33,-37,1043,712
6910,-53,-243,-30,32,949,735
6915,-49,-247,-30,102,839,744
6920,-43,-238,-37,158,724,736
6925,-36,-221,-40,210,630,705
6930,-34,-200,-48,289,575,662
6935,-26,-169,-58,393,564,612
6940,-19,-132,-64,498,587,557
6945,-10,-101,-66,565,614,491
6950,-8,-73,-58,588,639,404
6955,-5,-55,-35,595,656,299
6960,-11,-49,-20,604,662,198
6965,-26,-54,-24,604,640,123
6970,-44,-76,-23,562,583,96
6975,-65,-107,-28,511,500,109
6980,-69,-147,-37,495,413,149
6985,-72,-195,-46,533,332,205
6990,-80,-243,-65,597,262,274
6995,-88,-286,-83,696,196,367
7000,-92,-333,-96,808,124,480
7005,-74,-378,-107,937,54,602
7010,-46,-429,-108,1074,-12,710
7015,-11,-458,-113,1212,-69,776
7020,25,-468,-107,1344,-104,770
7025,47,-482,-76,1542,-137,711
7030,69,-477,-88,1932,-195,634
7035,87,-434,-157,2349,-282,551
7040,83,-372,-174,2499,-303,489
7045,61,-316,-120,2485,-245,441
7050,44,-260,-107,2580,-174,424
7055,27,-205,-157,2820,-92,414
7060,14,-167,-152,2985,6,438
7065,4,-147,-109,3001,58,499
7070,-3,-139,-70,2945,76,587
7075,-4,-134,-46,2944,106,687
7080,-9,-131,-37,3027,127,779
7085,-10,-126,-35,3098,115,864
7090,-8,-132,-10,3099,83,948
7095,-9,-137,4,3072,42,995
7100,-14,-134,-15,3021,14,994
7105,-25,-133,-39,2899,14,962
7110,-27,-147,-58,2718,48,915
7115,-32,-165,-80,2552,90,847
7120,-34,-180,-81,2469,142,773
7125,-51,-198,-50,2453,211,703
7130,-61,-234,11,2485,279,633
7135,-74,-278,74,2596,312,551
7140,-78,-322,138,2728,284,465
7145,-101,-378,213,2822,213,381
7150,-126,-448,295,2864,109,329
7155,-154,-552,406,2932,30,285
7160,-204,-677,505,3154,-20,226
7165,-265,-809,576,3561,-61,182
7170,-318,-948,605,4023,-117,210
7175,-346,-1091,600,4368,-224,279
7180,-389,-1271,552,4457,-436,332
7185,-355,-1359,491,4308,-711,361
7190,-243,-1370,443,4046,-910,353
7195,-86,-1301,413,3780,-919,269
7200,-30,-1161,397,3643,-748,154
7205,6,-983,344,3680,-560,165
7210,54,-777,274,3705,-385,285
7215,89,-570,231,3545,-210,424
7220,120,-360,229,3176,-62,545
7225,139,-201,235,2707,74,701
7230,161,-68,228,2286,227,879
7235,172,42,193,2001,377,1014
7240,182,126,147,1915,492,1097
7245,161,201,103,2068,579,1137
7250,134,249,73,2393,690,1138
7255,92,262,45,2790,825,1066
7260,37,255,23,3110,955,936
7265,-14,206,30,3236,1049,805
7270,-55,125,52,3156,1084,702
7275,-75,6,84,2891,1046,636
7280,-90,-114,108,2533,948,612
7285,-118,-196,109,2188,817,613
7290,-146,-242,100,1903,672,651
7295,-178,-259,94,1694,511,731
7300,-198,-255,96,1551,335,822
7305,-201,-244,107,1431,161,870
7310,-190,-227,112,1307,-9,847
7315,-175,-217,120,1193,-189,757
7320,-157,-203,136,1112,-343,645
7325,-132,-185,155,1071,-433,547
7330,-82,-165,171,1075,-461,470
7335,-37,-121,189,1124,-424,384
7340,12,-76,196,1209,-343,287
7345,6,-22,196,1319,-253,204
7350,-20,29,193,1390,-207,175
7355,-53,64,199,1401,-228,227
7360,-105,95,206,1360,-286,304
7365,-150,120,210,1296,-388,379
7370,-170,127,196,1224,-504,420
7375,-194,123,171,1132,-598,419
7380,-152,87,143,1035,-679,399
7385,-131,47,121,982,-682,335
7390,-129,6,98,965,-685,286
7395,-124,-43,86,945,-740,281
7400,-106,-71,95,959,-819,268
7405,-120,-83,103,1003,-890,244
7410,-113,-82,116,1023,-992,246
7415,-95,-61,131,1037,-1066,226
7420,-85,-40,138,1050,-1087,199
7425,-84,-13,155,1038,-1097,185
7430,-86,9,170,1016,-1105,175
7435,-72,31,193,975,-1094,198
7440,-58,50,240,968,-1046,230
7445,-69,51,262,1014,-993,276
7450,-87,51,284,1078,-975,343
7455,-107,46,310,1142,-996,395
7460,-115,33,343,1198,-1056,424
7465,-111,31,371,1261,-1088,418
7470,-116,21,384,1336,-1072,399
7475,-103,14,394,1387,-1034,386
7480,-93,14,396,1406,-1000,363
7485,-95,16,393,1400,-998,328
7490,-93,28,379,1378,-1039,285
7495,-79,46,376,1352,-1074,232
7500,-80,71,385,1340,-1075,172
7505,-85,86,403,1337,-1076,111
7510,-88,91,391,1348,-1082,48
7515,-92,105,386,1340,-1058,-20
7520,-88,105,374,1296,-1029,-101
7525,-81,110,356,1247,-1003,-203
7530,-72,109,351,1196,-971,-283
7535,-54,104,350,1149,-920,-346
7540,-33,98,353,1122,-864,-422
7545,-19,93,330,1104,-811,-475
7550,-4,86,307,1044,-773,-513
7555,8,80,288,913,-739,-539
7560,22,79,272,723,-714,-566
7565,35,82,255,517,-681,-578
7570,37,81,245,310,-641,-559
7575,31,75,233,118,-615,-519
7580,30,70,230,-58,-619,-464
7585,32,64,219,-207,-649,-411
7590,32,57,221,-327,-687,-369
7595,40,45,220,-418,-707,-334
7600,38,34,220,-476,-692,-313
7605,40,18,220,-502,-665,-305
7610,35,7,220,-501,-638,-301
7615,40,-7,221,-477,-614,-308
7620,41,-20,217,-442,-579,-316
7625,36,-39,216,-400,-538,-312
7630,36,-55,208,-358,-487,-288
7635,39,-69,201,-317,-432,-254
7640,34,-76,193,-275,-382,-219
7645,32,-82,187,-222,-342,-192
7650,28,-80,182,-157,-319,-175
7655,27,-77,177,-98,-316,-160
7660,35,-64,188,-57,-324,-152
7665,40,-57,196,-23,-338,-156
7670,44,-42,206,7,-346,-167
7675,43,-28,212,32,-353,-175
7680,46,-11,219,45,-361,-181
7685,59,0,229,40,-363,-193
7690,61,9,232,18,-360,-204
7695,61,18,243,-12,-359,-202
7700,65,18,248,-35,-366,-191
7705,68,18,256,-44,-374,-178
7710,78,9,264,-35,-375,-163
7715,85,7,270,-9,-374,-154
7720,89,2,275,24,-363,-154
7725,98,-8,278,53,-340,-156
7730,99,-18,280,64,-302,-163
7735,98,-22,286,54,-255,-166
7740,97,-31,285,26,-200,-166
7745,83,-33,284,-18,-141,-157
7750,78,-39,277,-65,-82,-134
7755,69,-39,266,-98,-25,-103
7760,64,-41,258,-99,23,-67
7765,64,-36,254,-77,68,-28
7770,58,-30,252,-48,114,0
7775,59,-27,255,-21,160,18
7780,61,-22,254,7,201,33
7785,59,-18,256,43,242,44
7790,55,-15,258,76,278,45
7795,49,-16,257,94,298,44
7800,50,-12,263,99,302,45
7805,52,-14,263,105,303,39
7810,57,-18,261,115,303,30
7815,51,-22,256,125,306,9
7820,47,-26,251,140,306,-5
7825,49,-27,244,157,308,-21
7830,47,-32,239,178,314,-44
7835,44,-40,241,195,321,-62
7840,41,-31,235,216,314,-88
7845,36,-22,234,236,302,-113
7850,30,-21,239,251,290,-124
7855,27,-17,235,253,284,-126
7860,21,-10,240,240,291,-121
7865,21,-8,242,220,312,-111
7870,30,-5,240,204,342,-103
7875,26,-7,239,191,391,-101
7880,15,-7,240,197,437,-114
7885,15,-8,245,218,454,-125
7890,8,-8,238,225,448,-130
7895,7,-13,237,216,411,-131
7900,0,-4,225,216,337,-155
7905,-3,7,227,212,254,-189
7910,-8,7,222,213,195,-217
7915,-13,8,217,209,166,-231
7920,-17,7,210,191,190,-213
7925,-26,-5,207,171,254,-170
7930,-36,-13,215,162,312,-112
7935,-40,-26,211,165,335,-40
7940,-46,-39,214,169,310,41
7945,-44,-72,235,141,283,154
7950,-48,-100,236,151,194,203
7955,-41,-129,234,194,97,216
7960,-33,-156,236,237,45,223
7965,-22,-179,237,268,46,226
7970,-10,-186,240,287,86,217
7975,-8,-188,238,300,139,201
7980,-19,-179,241,308,185,183
7985,-14,-158,233,310,208,157
7990,-11,-129,234,301,206,113
7995,-5,-94,235,283,199,45
8000,-2,-57,237,256,188,-30
8005,1,-21,247,237,180,-98
8010,0,9,261,228,176,-146
8015,0,43,268,230,164,-164
8020,4,59,284,244,140,-159
8025,10,69,286,268,104,-145
8030,10,67,279,287,60,-126
8035,10,50,272,297,2,-108
8040,13,23,260,291,-62,-96
8045,6,-4,241,263,-121,-88
8050,12,-34,224,208,-160,-86
8055,20,-58,214,128,-171,-94
8060,26,-75,200,42,-163,-108
8065,28,-89,189,-42,-141,-116
8070,31,-97,184,-123,-110,-121
8075,21,-96,188,-199,-67,-121
8080,12,-91,188,-258,-20,-111
8085,3,-84,199,-292,26,-98
8090,-1,-66,208,-301,71,-86
8095,-6,-59,215,-289,111,-74
8100,-12,-48,222,-265,144,-59
8105,-13,-35,238,-237,165,-41
8110,-20,-23,242,-205,176,-20
8115,-23,-15,249,-169,171,5
8120,-15,-11,257,-136,161,25
8125,-12,-6,261,-103,150,39
8130,-6,-6,266,-77,135,51
8135,0,-12,269,-64,116,60
8140,0,-20,269,-59,94,59
8145,3,-28,273,-61,72,52
8150,8,-34,269,-69,52,43
8155,8,-35,263,-79,46,29
8160,8,-33,259,-84,58,21
8165,9,-29,258,-87,80,22
8170,7,-18,252,-86,107,28
8175,12,-10,251,-86,133,38
8180,10,-2,247,-82,158,50
8185,7,7,245,-75,175,69
8190,5,9,241,-64,180,93
8195,6,10,238,-56,175,126
8200,10,8,237,-53,164,144
8205,9,6,237,-50,159,151
8210,12,-3,235,-51,153,152
8215,7,-13,237,-58,144,147
8220,7,-28,239,-68,134,137
8225,7,-36,236,-76,123,117
8230,4,-45,233,-81,112,86
8235,4,-43,233,-83,102,51
8240,0,-40,233,-81,91,21
8245,1,-37,239,-69,81,-7
8250,0,-31,236,-46,72,-32
8255,1,-26,241,-11,63,-54
8260,0,-17,243,34,56,-70
8265,0,-12,248,80,49,-83
8270,3,-7,253,123,41,-90
8275,4,-4,254,155,34,-95
8280,6,1,251,179,24,-97
8285,12,6,258,191,15,-96
8290,11,5,252,191,6,-96
8295,13,5,257,180,0,-93
8300,16,-1,255,162,-3,-93
8305,19,0,249,145,-4,-90
8310,12,-4,252,130,0,-85
8315,14,-7,248,117,4,-77
8320,10,-6,245,105,7,-68
8325,8,-7,246,92,15,-57
8330,6,-7,242,79,25,-41
8335,9,-4,245,70,35,-26
8340,12,-7,248,62,51,-9
8345,12,-9,243,57,67,11
8350,15,-8,242,54,85,32
8355,13,-7,243,54,106,53
8360,14,-10,248,55,120,72
8365,15,-14,248,59,125,90
8370,15,-17,245,67,124,98
8375,7,-12,245,72,124,95
8380,7,-17,247,70,121,90
8385,6,-19,247,64,117,86
8390,4,-21,248,58,110,80
8395,6,-23,246,51,102,74
8400,1,-28,249,47,96,68
8405,1,-31,246,46,91,60
8410,-1,-30,248,51,87,52
8415,-3,-34,248,55,86,46
8420,0,-30,245,59,82,41
8425,0,-30,243,60,80,37
8430,-2,-26,242,58,77,33
8435,0,-26,244,54,75,32
8440,0,-27,239,50,72,29
8445,0,-21,240,48,70,26
8450,0,-26,240,46,69,24
8455,1,-26,244,44,67,21
8460,1,-27,238,40,66,21
8465,3,-27,238,39,65,17
8470,3,-26,239,37,64,15
8475,2,-27,238,37,64,13
8480,4,-24,242,36,61,9
8485,5,-24,237,34,60,7
8490,9,-27,236,31,60,5
8495,6,-23,239,27,59,2
8500,6,-27,237,22,63,0
8505,7,-25,237,19,61,-1
8510,9,-25,239,14,64,-4
8515,9,-25,235,11,64,-5
8520,7,-22,236,6,66,-7
8525,10,-25,239,2,66,-8
8530,8,-25,238,-2,66,-9
8535,7,-23,239,-7,66,-9
8540,8,-22,242,-13,65,-8
8545,8,-21,243,-17,65,-10
8550,7,-19,241,-20,65,-11
8555,7,-21,244,-23,67,-12
8560,9,-24,241,-23,67,-13
8565,6,-18,239,-23,67,-14
8570,4,-19,243,-21,67,-14
8575,6,-18,246,-17,70,-13
8580,2,-16,246,-14,72,-12
8585,8,-22,241,-13,77,-11
8590,4,-15,245,-12,81,-9
8595,5,-15,242,-14,84,-6
8600,6,-14,247,-19,87,-5
8605,4,-14,243,-24,91,-3
8610,5,-14,242,-26,90,0
8615,5,-15,241,-29,91,2
8620,3,-11,244,-34,89,3
8625,5,-13,248,-37,92,3
8630,3,-14,244,-38,94,7
8635,11,-17,247,-38,96,9
8640,3,-11,245,-35,95,11
8645,6,-14,243,-33,95,12
8650,4,-11,241,-30,94,15
8655,4,-9,244,-28,95,16
8660,5,-12,243,-25,94,18
8665,4,-11,245,-24,93,19
8670,4,-10,245,-22,92,19
8675,4,-11,243,-21,90,19
8680,2,-11,246,-19,88,17
8685,4,-17,247,-15,87,15
8690,4,-13,247,-12,83,12
8695,7,-16,247,-9,77,11
8700,4,-17,249,-6,75,9
8705,5,-13,244,-4,74,7
8710,7,-15,248,0,71,4
8715,4,-14,245,1,72,3
8720,5,-14,248,1,72,0
8725,5,-16,246,4,72,-1
8730,3,-14,247,7,70,-4
8735,6,-16,245,10,72,-5
8740,5,-14,243,16,71,-5
8745,4,-23,244,22,68,-5
8750,4,-14,247,29,68,-5
8755,7,-16,246,39,68,-5
8760,6,-16,244,51,72,-5
8765,8,-19,243,61,73,-4
8770,8,-16,242,71,76,-6
8775,4,-16,239,75,78,-6
8780,4,-17,240,72,80,-5
8785,2,-15,241,66,83,-5
8790,3,-17,242,55,82,-6
8795,6,-19,247,42,79,-4
8800,5,-17,240,34,78,-4
8805,1,-20,242,29,76,-5
8810,1,-16,244,22,76,-4
8815,4,-20,244,15,72,-5
8820,2,-17,240,11,71,-3
8825,3,-17,238,10,71,-2
8830,4,-17,239,10,70,-2
8835,3,-19,242,14,70,0
8840,5,-19,243,14,68,0
8845,6,-17,244,16,67,1
8850,-1,-18,238,19,67,1
8855,4,-14,243,17,67,0
8860,4,-18,243,12,68,0
8865,1,-16,240,8,70,1
8870,2,-17,243,5,73,3
8875,3,-14,243,3,76,4
8880,5,-16,244,2,78,6
8885,2,-16,242,2,79,4
8890,4,-17,240,4,80,4
8895,3,-15,242,5,78,6
8900,3,-18,241,4,77,6
8905,3,-17,245,7,77,5
8910,4,-21,241,11,77,5
8915,4,-17,242,14,78,7
8920,5,-16,243,17,78,6
8925,4,-14,243,17,79,8
8930,4,-16,241,15,77,10
8935,5,-14,243,13,73,9
8940,3,-14,242,9,72,8
8945,4,-14,243,5,72,8
8950,6,-11,243,1,71,9
8955,5,-13,241,-3,68,9
8960,6,-15,244,-7,70,7
8965,4,-11,244,-6,72,8
8970,5,-14,248,-6,75,9
8975,8,-15,245,-7,74,9
8980,6,-9,244,-8,75,11
8985,5,-12,242,-9,76,8
8990,4,-13,243,-10,75,7
8995,5,-14,246,-10,77,6
9000,7,-13,244,-11,74,5
9005,6,-13,245,-13,74,6
9010,6,-15,243,-15,74,6
9015,6,-10,245,-14,73,5
9020,6,-13,247,-12,73,7
9025,6,-14,244,-12,73,7
9030,4,-13,247,-9,75,5
9035,2,-12,244,-5,76,4
9040,6,-15,245,-2,75,4
9045,4,-10,244,1,75,3
9050,6,-15,245,2,74,2
9055,2,-15,242,1,75,0
9060,5,-12,243,4,74,0
9065,3,-13,247,2,72,-1
9070,2,-18,242,1,70,-1
9075,2,-13,247,1,67,-3
9080,3,-17,246,0,63,-5
9085,0,-16,243,0,61,-6
9090,1,-16,247,4,63,-7
9095,4,-15,246,7,64,-8
9100,3,-15,244,10,64,-8
9105,3,-17,240,13,64,-10
9110,6,-17,242,12,66,-10
9115,1,-11,241,12,66,-10
9120,3,-16,248,12,67,-9
9125,4,-13,239,10,67,-9
9130,6,-15,244,4,66,-10
9135,3,-14,245,1,66,-9
9140,5,-12,244,-1,70,-7
9145,3,-13,245,0,70,-6
9150,2,-16,242,-1,70,-6
9155,3,-13,245,1,70,-7
9160,3,-13,245,2,68,-6
9165,4,-14,244,3,67,-7
9170,1,-11,242,6,69,-4
9175,5,-17,249,9,69,-3
9180,3,-14,245,12,68,-2
9185,6,-15,246,14,71,-1
9190,3,-16,242,16,71,-2
9195,2,-14,244,16,70,0
9200,5,-15,241,16,69,-1
9205,6,-12,246,15,69,0
9210,3,-14,243,14,68,0
9215,4,-15,245,9,68,2
9220,5,-13,243,4,70,2
9225,5,-13,240,-1,70,3
9230,7,-15,243,-3,72,4
9235,5,-11,243,-4,73,1
9240,5,-10,240,-3,73,-1
9245,5,-15,244,-2,74,1
9250,9,-11,239,0,76,2
9255,5,-10,243,1,76,4
9260,6,-11,242,3,78,6
9265,6,-11,243,3,79,6
9270,4,-14,242,3,79,9
9275,3,-11,246,0,78,12
9280,4,-12,243,-8,77,15
9285,4,-15,241,-16,76,17
9290,7,-11,245,-23,76,18
9295,2,-15,244,-30,76,16
9300,4,-11,245,-35,75,14
9305,1,-12,243,-37,74,12
9310,5,-13,246,-37,73,10
9315,4,-16,244,-36,72,7
9320,3,-11,244,-35,72,7
9325,1,-14,243,-29,73,5
9330,1,-11,246,-28,71,4
9335,3,-12,244,-29,66,2
9340,2,-12,245,-29,66,1
9345,2,-10,243,-25,67,-1
9350,5,-14,245,-22,69,-3
9355,1,-12,243,-16,68,-5
9360,1,-15,247,-10,68,-7
9365,0,-16,244,-2,64,-6
9370,1,-13,242,5,63,-6
9375,4,-17,247,12,61,-8
9380,2,-15,239,20,61,-7
9385,5,-15,241,23,62,-8
9390,1,-17,244,27,62,-8
9395,4,-13,247,29,64,-8
9400,2,-12,246,28,66,-9
9405,3,-13,248,24,68,-9
9410,6,-14,242,21,69,-9
9415,3,-15,243,19,69,-7
9420,3,-15,241,18,69,-8
9425,4,-14,241,16,70,-6
9430,4,-12,242,14,69,-5
9435,4,-13,241,12,68,-5
9440,5,-12,244,10,73,-4
9445,3,-10,238,12,74,-4
9450,5,-11,247,16,74,-3
9455,5,-13,241,21,76,-1
9460,3,-13,242,28,81,0
9465,4,-12,246,33,82,3
9470,7,-11,239,37,85,3
9475,4,-9,238,37,85,3
9480,1,-12,244,33,86,4
9485,2,-8,245,28,84,4
9490,3,-8,246,20,83,6
9495,5,-10,244,13,82,7
9500,3,-9,244,7,81,7
9505,2,-13,243,3,82,8
9510,6,-11,243,-1,81,4
9515,2,-10,239,-2,80,5
9520,1,-11,243,-4,82,4
9525,4,-9,243,-2,82,5
9530,4,-14,243,-2,81,3
9535,5,-11,244,1,80,2
9540,0,-11,245,4,79,3
9545,5,-14,242,4,78,3
9550,2,-12,243,4,75,2
9555,3,-14,247,3,75,1
9560,4,-12,243,3,77,2
9565,2,-11,245,2,78,1
9570,2,-11,244,0,80,2
9575,2,-13,244,-1,80,2
9580,5,-10,248,-3,81,1
9585,3,-13,244,-5,81,3
9590,4,-13,247,-7,81,1
9595,6,-14,242,-7,79,2
9600,5,-10,244,-5,79,2
9605,4,-11,246,-5,77,1
9610,0,-9,246,-4,76,1
9615,1,-12,240,-5,75,1
9620,1,-9,244,-7,75,0
9625,1,-11,241,-7,73,0
9630,3,-8,242,-9,73,1
9635,3,-11,245,-11,72,-1
9640,4,-12,243,-15,71,1
9645,5,-12,244,-18,71,3
9650,5,-14,241,-18,71,3
9655,2,-10,242,-17,71,3
9660,5,-13,243,-17,71,3
9665,4,-13,245,-16,73,4
9670,3,-15,245,-13,72,4
9675,2,-15,243,-13,72,4
9680,5,-15,245,-12,71,3
9685,3,-17,244,-11,69,2
9690,1,-13,241,-13,67,0
9695,3,-11,245,-13,66,-2
9700,3,-13,244,-14,66,-3
9705,2,-13,247,-13,65,-2
9710,3,-13,248,-12,66,-3
9715,2,-12,243,-11,69,-3
9720,2,-8,243,-10,69,-5
9725,3,-8,244,-12,71,-6
9730,2,-12,241,-15,72,-6
9735,6,-14,241,-20,75,-5
9740,1,-11,247,-23,74,-6
9745,2,-11,240,-26,73,-5
9750,3,-12,244,-26,71,-4
9755,3,-11,243,-27,71,-3
9760,5,-12,244,-29,71,-2
9765,1,-9,242,-32,72,-4
9770,4,-16,242,-35,72,-5
9775,2,-14,242,-37,73,-4
9780,1,-11,246,-39,73,-3
9785,3,-14,243,-40,71,-5
9790,4,-13,250,-36,70,-6
9795,1,-11,244,-29,71,-7
9800,2,-14,246,-21,69,-5
9805,3,-12,245,-17,70,-5
9810,5,-13,242,-13,70,-5
9815,1,-14,243,-10,70,-4
9820,2,-11,243,-8,71,-3
9825,2,-12,242,-8,69,-3
9830,3,-12,244,-8,70,-3
9835,4,-13,242,-8,70,-2
9840,3,-12,250,-8,69,-2
9845,4,-8,244,-8,68,0
9850,3,-10,242,-10,68,0
9855,6,-14,241,-13,68,1
9860,6,-12,242,-13,68,3
9865,0,-10,242,-14,69,2
9870,6,-9,242,-13,69,4
9875,4,-15,246,-12,69,3
9880,4,-11,243,-12,69,2
9885,3,-13,241,-12,68,1
9890,3,-12,244,-13,67,3
9895,2,-11,241,-14,67,4
9900,4,-10,243,-18,69,3
9905,3,-12,244,-19,69,4
9910,3,-9,241,-19,69,3
9915,4,-11,247,-21,69,1
9920,5,-13,247,-21,69,3
9925,1,-13,242,-19,69,1
9930,1,-15,242,-18,69,1
9935,2,-11,241,-17,70,1
9940,2,-15,234,-16,69,1
9945,3,-12,240,-16,69,0
9950,2,-11,244,-17,69,-1
9955,1,-10,248,-18,69,0
9960,0,-11,244,-17,70,1
9965,3,-14,243,-17,67,0
9970,3,-15,245,-16,67,-1
9975,4,-16,248,-17,66,-3
9980,3,-12,243,-18,68,-3
9985,3,-14,245,-17,68,-4
9990,1,-13,244,-17,67,-5
9995,2,-11,245,-16,69,-4
10000,5,-11,244,-17,69,-2
10005,1,-13,245,-17,67,0
10010,3,-11,243,-18,67,-1
10015,3,-11,246,-18,66,-3
10020,4,-14,243,-20,66,-4
10025,2,-10,242,-20,66,-5
10030,1,-14,248,-20,66,-7
10035,2,-9,242,-18,67,-7
10040,3,-13,244,-15,64,-8
10045,2,-12,244,-11,65,-8
10050,3,-10,235,-6,64,-9
10055,2,-14,247,-2,64,-9
10060,2,-14,244,5,64,-8
10065,2,-10,242,10,64,-8
10070,3,-16,241,14,65,-8
10075,0,-12,243,15,67,-9
10080,2,-12,243,12,69,-8
10085,4,-12,244,10,71,-8
10090,1,-9,246,6,71,-8
10095,4,-11,245,3,69,-8
10100,2,-12,241,5,69,-7
10105,1,-11,240,6,69,-9
10110,4,-13,240,6,70,-8
10115,1,-11,238,6,70,-8
10120,4,-11,241,8,69,-7
10125,3,-9,242,11,71,-6
10130,3,-11,242,15,74,-6
10135,3,-11,245,19,75,-5
10140,0,-11,244,24,77,-3
10145,3,-12,242,25,78,-4
10150,4,-11,244,23,78,-2
10155,7,-12,243,17,76,-2
10160,2,-12,243,9,75,0
10165,4,-11,244,1,73,-1
10170,3,-12,245,-3,70,1
10175,3,-10,246,-7,70,0
10180,3,-13,242,-9,69,0
10185,1,-11,243,-10,69,0
10190,4,-11,242,-9,68,0
10195,5,-11,243,-10,68,-1
10200,2,-9,244,-10,68,-2
10205,3,-9,244,-9,67,-1
10210,3,-10,244,-8,67,-1
10215,5,-11,247,-7,68,-1
10220,3,-9,246,-6,68,-1
10225,4,-11,245,-6,68,1
10230,3,-13,243,-5,68,1
10235,1,-10,247,-7,69,0
10240,3,-9,244,-8,70,1
10245,3,-12,243,-11,70,0
10250,3,-7,241,-13,71,1
10255,5,-13,244,-15,72,1
10260,2,-14,244,-17,71,1
10265,5,-11,245,-17,72,1
10270,1,-11,243,-19,73,2
10275,4,-11,247,-21,74,1
10280,1,-11,243,-22,73,3
10285,3,-13,243,-23,73,3
10290,4,-14,243,-24,74,2
10295,3,-11,246,-25,73,1
10300,5,-11,246,-25,73,1
10305,2,-13,242,-22,74,0
10310,5,-11,248,-20,73,1
10315,2,-9,245,-19,73,1
10320,2,-14,239,-19,73,2
10325,3,-8,244,-21,74,2
10330,5,-12,241,-23,73,2
10335,5,-12,242,-23,74,2
10340,4,-12,243,-25,74,1
10345,4,-12,246,-23,72,1
10350,5,-12,244,-21,72,1
10355,3,-13,243,-18,72,1
10360,2,-14,246,-17,71,0
10365,1,-12,246,-16,71,0
10370,3,-11,245,-16,70,-1
10375,2,-7,241,-16,68,-2
10380,3,-11,242,-15,68,-2
10385,5,-13,246,-15,66,-2
10390,0,-11,240,-13,66,-4
10395,0,-13,241,-12,68,-3
10400,3,-11,243,-10,69,-3
10405,4,-12,240,-9,70,-5
10410,4,-11,241,-9,71,-5
10415,1,-10,242,-10,71,-5
10420,4,-13,247,-10,72,-4
10425,4,-10,246,-12,74,-4
10430,2,-11,242,-13,74,-4
10435,2,-11,244,-15,72,-5
10440,6,-12,243,-18,71,-5
10445,5,-12,248,-21,71,-5
10450,5,-12,245,-22,71,-6
10455,0,-9,247,-24,70,-6
10460,4,-10,241,-24,68,-7
10465,4,-12,246,-22,68,-5
10470,6,-11,248,-19,66,-5
10475,3,-11,242,-15,66,-3
10480,1,-11,243,-11,67,-3
10485,4,-20,241,-7,68,-3
10490,4,-10,242,-7,69,-3
10495,2,-10,242,-8,69,-3
10500,3,-14,242,-9,70,-1
10505,2,-11,241,-10,70,-2
10510,3,-13,243,-12,70,-1
10515,5,-12,244,-15,70,-3
10520,5,-9,247,-15,70,-2
10525,3,-9,246,-15,69,-1
10530,4,-8,242,-16,69,0
10535,1,-12,243,-15,70,0
10540,4,-13,248,-15,68,-1
10545,1,-9,245,-14,67,0
10550,1,-9,246,-14,67,2
10555,7,-12,244,-15,66,1
10560,2,-12,244,-13,67,1
10565,1,-10,241,-13,69,0
10570,1,-13,246,-13,68,1
10575,1,-11,245,-14,69,0
10580,3,-12,242,-15,70,-1
10585,2,-11,245,-14,69,-1
10590,5,-13,245,-16,69,0
10595,2,-11,244,-13,68,-1
10600,1,-11,245,-15,69,-1
10605,2,-12,242,-14,71,-2
10610,3,-13,248,-12,69,-1
10615,6,-13,242,-12,70,-1
10620,3,-10,243,-11,68,0
10625,3,-9,243,-14,69,2
10630,5,-11,242,-15,69,0
10635,2,-9,242,-17,69,0
10640,2,-13,241,-19,68,-1
10645,2,-16,241,-20,69,-1
10650,2,-10,243,-21,70,-3
10655,2,-10,243,-20,71,-2
10660,2,-14,243,-18,71,-4
10665,2,-15,245,-16,70,-3
10670,3,-10,243,-15,70,-4
10675,6,-13,245,-14,70,-5
10680,2,-13,240,-15,68,-3
10685,3,-11,243,-16,69,-3
10690,4,-11,244,-17,69,-3
10695,0,-12,246,-18,69,-1
10700,1,-14,243,-20,68,-1
10705,2,-11,245,-20,68,-3
10710,4,-14,243,-22,67,-3
10715,1,-10,241,-19,64,-3
10720,4,-11,243,-17,64,-4
10725,3,-10,245,-14,62,-4
10730,2,-13,246,-12,61,-3
10735,1,-9,244,-11,62,-2
10740,3,-13,241,-11,62,-2
10745,6,-11,241,-13,61,-2
10750,3,-11,243,-16,63,-4
10755,4,-11,243,-18,64,-3
10760,2,-9,242,-19,66,-5
10765,0,-9,247,-19,67,-4
10770,3,-13,245,-16,68,-7
10775,3,-12,245,-10,68,-5
10780,2,-10,242,0,66,-8
10785,6,-13,244,11,66,-6
10790,1,-8,242,21,65,-5
10795,2,-13,242,30,66,-5
10800,4,-14,240,36,66,-3
10805,2,-11,242,39,69,-5
10810,7,-13,243,36,70,-5
10815,4,-11,243,31,70,-7
10820,2,-12,242,23,70,-5
10825,2,-11,243,16,70,-5
10830,4,-15,240,11,70,-6
10835,2,-12,242,11,70,-5
10840,4,-14,239,11,70,-5
10845,2,-10,243,11,71,-4
10850,3,-11,241,9,71,-5
10855,2,-9,242,9,72,-4
10860,3,-9,243,12,73,-3
10865,2,-11,242,15,76,-3
10870,2,-13,241,22,79,-4
10875,3,-9,244,26,82,-3
10880,2,-11,245,26,83,-2
10885,1,-11,245,24,82,0
10890,1,-11,245,16,81,1
10895,1,-8,242,11,81,1
10900,3,-8,242,4,79,-1
10905,2,-8,246,-4,77,-1
10910,2,-3,243,-9,76,1
10915,4,-10,249,-13,76,0
10920,2,-8,245,-13,74,1
10925,1,-9,248,-14,72,1
10930,2,-9,248,-11,72,0
10935,3,-11,242,-8,71,-1
10940,3,-9,243,-6,70,-2
10945,4,-9,242,-4,70,-2
10950,3,-10,245,-1,70,-1
10955,3,-9,243,1,70,-1
10960,0,-8,248,1,72,0
10965,3,-12,247,0,71,0
10970,5,-7,244,0,72,-1
10975,4,-9,241,1,73,-2
10980,0,-6,244,-2,74,0
10985,4,-8,244,-3,73,-1
10990,1,-7,245,-6,74,-1
10995,4,-10,244,-9,74,-1
11000,3,-11,246,-11,74,-1
11005,2,-10,244,-14,72,-1
11010,1,-10,243,-16,74,-2
11015,5,-8,241,-17,74,0
11020,4,-10,246,-17,74,1
11025,3,-10,242,-18,74,1
11030,5,0,247,-18,73,-1
11035,2,-8,245,-15,73,-2
11040,1,-11,248,-14,72,-2
11045,1,-10,240,-11,72,-2
11050,2,-8,241,-11,72,-1
11055,3,-10,245,-12,72,0
11060,2,-10,246,-12,72,-1
11065,4,-10,245,-12,72,0
11070,2,-8,241,-13,73,1
11075,4,-15,245,-12,72,2
11080,2,-12,241,-9,73,1
11085,4,-13,243,-8,73,0
11090,2,-12,243,-6,72,0
11095,2,-8,246,-5,71,0
11100,1,-11,244,-6,70,1
11105,1,-10,242,-9,69,-1
11110,2,-10,247,-12,68,-2
11115,2,-10,243,-13,68,-3
11120,0,-8,243,-16,65,-4
11125,2,-11,247,-19,64,-4
11130,1,-11,245,-18,63,-6
11135,4,-11,245,-16,65,-5
11140,2,-10,239,-13,68,-5
11145,3,-10,244,-9,72,-4
11150,1,-9,243,-8,73,-5
11155,4,-12,244,-6,75,-3
11160,3,-10,243,-7,73,-3
11165,2,-9,242,-8,72,-6
11170,0,-9,242,-11,72,-6
11175,3,-9,245,-13,72,-5
11180,1,-10,246,-20,72,-6
11185,2,-8,244,-25,70,-6
11190,1,-10,253,-28,70,-6
11195,4,-12,246,-27,70,-7
11200,4,-11,248,-26,70,-7
11205,3,-12,247,-23,69,-5
11210,4,-10,247,-19,69,-5
11215,1,-10,245,-13,69,-4
11220,2,-11,245,-9,69,-5
11225,2,-9,248,-8,71,-3
11230,1,-9,240,-8,71,-2
11235,3,-10,241,-7,72,-3
11240,2,-11,242,-9,72,-3
11245,3,-9,242,-11,73,-3
11250,4,-7,244,-12,73,-2
11255,3,-10,245,-14,74,-2
11260,2,-8,244,-16,72,0
11265,2,-13,245,-16,72,-1
11270,3,-11,242,-14,70,-1
11275,3,-11,244,-15,70,0
11280,2,-11,245,-14,69,0
11285,2,-8,245,-13,70,0
11290,3,-11,246,-12,69,-1
11295,3,-9,242,-11,69,0
11300,3,-11,243,-10,69,0
11305,3,-9,243,-11,69,0
11310,4,-9,243,-11,70,1
11315,0,-7,240,-12,70,-1
11320,4,-7,244,-14,70,-1
11325,3,-12,244,-12,71,0
11330,6,-10,249,-14,70,0
11335,4,-10,245,-13,70,-1
11340,3,-10,244,-12,70,0
11345,4,-10,242,-13,69,-1
11350,5,-13,246,-12,69,0
11355,2,-9,242,-12,69,1
11360,5,-8,246,-12,70,0
11365,3,-9,243,-11,70,0
11370,2,-10,244,-13,70,0
11375,3,-9,242,-13,72,1
11380,3,-9,242,-14,73,2
11385,1,-8,240,-15,72,2
11390,3,-12,245,-17,72,0
11395,3,-11,244,-18,73,0
11400,2,-8,247,-18,73,0
11405,3,-10,240,-16,74,-1
11410,1,-9,245,-17,73,-2
11415,2,-9,243,-16,71,-2
11420,3,-8,243,-15,71,-1
11425,1,-9,247,-16,70,-2
11430,2,-6,243,-16,69,0
11435,2,-10,244,-17,68,-2
11440,2,-6,243,-23,64,-1
11445,1,-9,247,-25,63,-1
11450,1,-10,246,-23,65,-2
11455,3,-10,245,-23,66,-1
11460,3,-9,246,-20,66,-2
11465,3,-11,244,-18,65,-4
11470,4,-12,245,-16,64,-3
11475,3,-9,243,-14,64,0
11480,2,-10,243,-14,64,-2
11485,2,-6,243,-14,63,-2
11490,2,-10,244,-18,63,-3
11495,1,-11,244,-21,64,-4
11500,3,-9,243,-24,64,-3
11505,0,-9,246,-25,65,-4
11510,5,-13,246,-24,66,-5
11515,2,-10,246,-21,66,-6
11520,5,-11,245,-17,66,-5
11525,4,-11,246,-11,67,-6
11530,1,-10,245,-5,68,-6
11535,0,-11,243,1,68,-4
11540,2,-11,243,8,67,-4
11545,2,-9,244,14,69,-3
11550,3,-13,242,15,69,-3
11555,2,-9,243,18,70,-2
11560,2,-11,242,16,71,-3
11565,2,-11,246,11,72,-4
11570,1,-10,248,6,71,-4
11575,2,-14,237,2,72,-5
11580,2,-13,245,0,72,-5
11585,2,-14,245,0,71,-5
11590,2,-12,241,0,72,-5
11595,2,-9,242,0,72,-6
11600,4,-8,240,-2,73,-7
11605,2,-12,242,-1,73,-7
11610,1,-7,244,4,76,-6
11615,4,-11,246,11,77,-6
11620,3,-12,243,19,81,-5
11625,2,-9,244,26,85,-2
11630,2,-7,246,31,84,-3
11635,3,-11,244,32,85,-2
11640,2,-9,242,29,85,-1
11645,2,-10,246,23,84,0
11650,2,-8,242,16,83,1
11655,3,-9,243,10,80,1
11660,2,-8,242,3,80,0
11665,0,-8,242,-1,79,0
11670,2,-6,242,-5,79,-2
11675,1,-6,248,-5,77,-2
11680,2,-7,246,-4,77,-1
11685,5,-15,240,-3,74,-1
11690,1,-7,243,-2,73,-1
11695,1,-8,243,-2,72,-2
11700,5,-8,244,2,72,0
11705,2,-11,244,3,72,-1
11710,4,-9,246,5,74,-1
11715,4,-8,246,4,75,-1
11720,2,-8,247,3,74,0
11725,5,-8,245,4,75,3
11730,3,-8,247,3,73,4
11735,2,-10,246,1,73,1
11740,1,-8,247,-5,75,-1
11745,2,-7,247,-9,75,-1
11750,5,-11,246,-14,75,-1
11755,4,-10,247,-16,74,0
11760,2,-9,247,-14,75,-1
11765,1,-9,248,-16,73,-1
11770,1,-6,245,-16,74,-1
11775,2,-9,241,-14,73,0
11780,1,-12,243,-14,73,-1
11785,2,-8,245,-14,74,-2
11790,0,-9,242,-11,74,-2
11795,4,-12,245,-10,74,-2
11800,2,-12,240,-11,73,-1
11805,1,-9,242,-12,73,-1
11810,4,-11,240,-13,73,-1
11815,1,-11,245,-13,73,-2
11820,6,-12,246,-14,74,0
11825,1,-11,245,-14,73,-1
11830,4,-10,245,-14,74,0
11835,0,-8,246,-14,73,0
11840,1,-6,241,-12,72,-2
11845,1,-10,243,-13,72,0
11850,1,-8,244,-13,73,-3
11855,1,-8,244,-14,70,-2
11860,2,-13,245,-16,69,-4
11865,3,-9,244,-17,67,-3
11870,1,-10,241,-18,68,-4
11875,4,-9,243,-19,68,-6
11880,3,-10,243,-19,69,-7
11885,2,-8,244,-18,70,-7
11890,1,-7,246,-16,72,-6
11895,2,-8,241,-15,72,-6
11900,2,-8,244,-14,74,-6
11905,4,-7,245,-15,74,-7
11910,1,-7,245,-15,72,-6
11915,2,-7,246,-15,73,-6
11920,2,-11,244,-17,72,-7
11925,1,-11,246,-20,72,-6
11930,2,-6,244,-24,71,-3
11935,0,-8,245,-27,70,-3
11940,0,-6,247,-29,70,-5
11945,2,-7,244,-30,69,-5
11950,2,-6,247,-28,69,-4
11955,1,-7,243,-26,70,-6
11960,0,-9,244,-22,69,-4
11965,0,-8,239,-18,69,-2
11970,0,-9,246,-14,69,-3
11975,0,-5,243,-12,68,-3
11980,2,-7,242,-11,69,-3
11985,1,-10,242,-11,70,-2
11990,2,-9,241,-13,72,-3
11995,2,-9,243,-14,72,-4
12000,1,-11,241,-15,71,-3
12005,1,-8,243,-15,70,-2
12010,2,-10,244,-18,71,-3
12015,2,-7,243,-17,70,-1
12020,4,-9,244,-16,70,-1
12025,3,-10,244,-15,68,-1
12030,1,-10,246,-15,68,-1
12035,1,-11,243,-15,68,-1
12040,1,-9,247,-13,67,-1
12045,1,-10,243,-13,69,-2
12050,2,-9,246,-13,68,-2
12055,4,-8,244,-12,69,-1
12060,0,-8,244,-14,70,-1
12065,0,-6,244,-15,70,-1
12070,1,-9,247,-17,71,-1
12075,2,-11,243,-16,71,-2
12080,5,-11,242,-18,71,0
12085,4,-9,243,-18,70,-1
12090,4,-9,246,-19,72,-2
12095,2,-9,246,-18,72,-2
12100,1,-11,241,-17,71,-1
12105,2,-10,245,-16,71,-1
12110,3,-9,242,-15,70,-1
12115,1,-10,241,-16,70,-2
12120,1,-13,243,-16,69,-2
12125,5,-12,241,-16,71,-1
12130,2,-9,243,-16,71,-1
12135,2,-8,244,-16,72,-1
12140,0,-6,243,-17,71,-3
12145,0,-8,243,-18,70,-2
12150,1,-10,240,-20,71,-2
12155,2,-11,244,-20,71,-3
12160,1,-9,242,-19,68,-3
12165,3,-8,246,-20,70,-2
12170,1,-11,244,-20,68,0
12175,3,-10,242,-20,68,-1
12180,4,-10,246,-23,67,-3
12185,2,-8,244,-23,67,-2
12190,2,-10,245,-23,67,-4
12195,1,-8,244,-25,66,-4
12200,2,-8,245,-24,65,-6
12205,1,-9,247,-23,64,-6
12210,0,-9,241,-21,64,-6
12215,2,-11,244,-18,65,-5
12220,1,-10,246,-16,64,-6
12225,2,-13,247,-16,64,-5
12230,4,-1,244,-14,63,-6
12235,1,-9,244,-12,63,-4
12240,4,-8,244,-13,65,-5
12245,1,-8,246,-15,63,-5
12250,2,-10,245,-17,64,-4
12255,2,-9,244,-17,64,-5
12260,2,-9,245,-19,65,-4
12265,3,-9,242,-21,63,-5
12270,2,-9,250,-18,62,-5
12275,2,-9,244,-17,64,-3
12280,5,-8,241,-15,62,-2
12285,1,-12,244,-13,63,-1
12290,2,-6,243,-11,64,-1
12295,2,-10,242,-12,67,-2
12300,4,-10,242,-11,67,-2
12305,3,-10,246,-13,70,-4
12310,1,-10,245,-14,71,-5
12315,6,-9,241,-15,69,-5
12320,2,-8,246,-13,70,-6
12325,3,-7,246,-9,68,-5
12330,5,-9,243,-5,67,-5
12335,1,-9,240,1,66,-4
12340,2,-11,243,7,66,-5
12345,1,-11,242,13,66,-5
12350,2,-8,246,16,65,-3
12355,3,-9,242,18,68,-3
12360,3,-11,242,18,69,-3
12365,4,-10,245,15,70,-5
12370,2,-12,246,11,70,-5
12375,1,-11,247,4,71,-4
12380,2,-10,242,0,70,-5
12385,1,-11,242,-4,69,-5
12390,4,-14,238,-2,69,-4
12395,2,-9,238,0,71,-6
12400,2,-9,242,-2,72,-7
12405,2,-6,242,-3,72,-7
12410,1,-8,243,-2,74,-6
12415,0,-9,245,1,75,-7
12420,3,-6,241,8,77,-5
12425,1,-9,245,15,78,-5
12430,4,-8,242,20,81,-4
12435,4,-10,244,24,81,-3
12440,1,-9,242,21,80,-2
12445,2,-8,246,17,79,-3
12450,0,-4,243,10,78,-1
12455,3,-9,241,4,76,-1
12460,1,-3,245,-2,76,-1
12465,3,-9,244,-6,75,-1
12470,3,-6,246,-8,73,-2
12475,0,-4,241,-8,73,-2
12480,2,-8,245,-7,74,-2
12485,0,-10,247,-7,72,-1
12490,4,-9,245,-7,73,-2
12495,5,-9,247,-5,72,0
12500,3,-9,242,-4,73,-2
12505,2,-7,243,-4,75,-2
12510,1,-9,246,-4,74,-1
12515,2,-4,247,-3,75,0
12520,1,-6,247,-4,76,1
12525,0,-6,244,-3,76,1
12530,2,-7,243,-4,76,-1
12535,3,-8,249,-4,77,0
12540,1,-9,242,-7,77,1
12545,1,-8,241,-7,77,1
12550,7,-11,244,-10,77,1
12555,2,-10,245,-12,75,0
12560,2,-10,243,-13,75,0
12565,1,-8,245,-15,74,0
12570,1,-10,243,-15,75,0
12575,2,-8,246,-14,75,1
12580,0,-8,242,-15,75,0
12585,0,-5,246,-14,75,0
12590,1,-7,246,-13,75,-1
12595,0,-9,245,-12,75,-1
12600,3,-10,244,-11,73,-1
12605,2,-8,241,-9,72,-2
12610,2,-8,246,-11,72,-1
12615,3,-9,243,-13,73,0
12620,0,-6,243,-14,71,0
12625,2,-8,241,-16,72,0
12630,1,-7,246,-15,73,0
12635,1,-6,244,-13,74,2
12640,1,-9,241,-13,74,0
12645,2,-9,246,-11,71,2
12650,1,-9,245,-10,73,-1
12655,1,-10,246,-9,72,-1
12660,1,-6,242,-11,70,-1
12665,7,-10,252,-13,67,-3
12670,2,-10,245,-15,67,-4
12675,2,-9,246,-16,66,-5
12680,2,-8,245,-18,66,-5
12685,1,-10,245,-18,66,-6
12690,4,-9,246,-18,68,-5
12695,2,-10,243,-17,69,-6
12700,4,-8,244,-17,70,-6
12705,1,-9,244,-15,72,-5
12710,0,-6,244,-14,73,-5
12715,4,-11,240,-15,74,-4
12720,1,-8,246,-15,74,-4
12725,0,-8,246,-16,71,-6
12730,2,-10,245,-18,69,-4
12735,1,-8,243,-20,67,-6
12740,2,-8,246,-23,68,-6
12745,1,-7,244,-27,67,-5
12750,1,-7,245,-27,67,-5
12755,1,-9,247,-27,67,-5
12760,3,-10,244,-26,67,-5
12765,0,-9,245,-23,68,-6
12770,2,-8,244,-18,68,-3
12775,1,-7,242,-15,69,-4
12780,1,-9,247,-12,69,-4
12785,2,-9,247,-9,70,-2
12790,1,-6,241,-8,71,-3
12795,2,-9,248,-8,72,-1
12800,2,-8,246,-10,74,-1
12805,4,-10,243,-11,71,-1
12810,1,-8,245,-12,72,-1
12815,5,-7,246,-14,72,-1
12820,4,-9,246,-14,69,-2
12825,2,-6,243,-15,70,0
12830,4,-9,242,-17,70,1
12835,3,-8,244,-16,70,-1
12840,4,-7,243,-15,68,0
12845,2,-6,240,-12,68,0
12850,1,-7,244,-12,68,-1
12855,0,-7,243,-14,70,1
12860,1,-6,243,-12,70,0
12865,2,-9,242,-13,70,0
12870,2,-8,243,-14,71,-1
12875,2,-11,245,-13,73,0
12880,4,-10,244,-15,72,-2
12885,4,-11,243,-15,71,-2
12890,2,-9,246,-15,71,-1
12895,4,-9,243,-16,72,1
12900,1,-7,243,-14,72,-1
12905,1,-10,244,-14,71,0
12910,0,-8,244,-14,71,-1
12915,2,-10,241,-14,71,-2
12920,2,-7,246,-12,71,-2
12925,3,-12,244,-13,71,-2
12930,1,-7,245,-14,71,-1
12935,4,-9,245,-14,71,-1
12940,1,-6,243,-15,71,-2
12945,2,-10,244,-16,72,0
12950,2,-8,246,-17,72,0
12955,0,-7,244,-18,71,0
12960,0,-8,246,-17,70,-1
12965,0,-10,239,-18,69,-1
12970,1,-8,242,-17,70,0
12975,1,-6,241,-14,68,-2
12980,0,-6,243,-11,66,-2
12985,3,-8,243,-11,67,-2
12990,1,-8,242,-9,66,-1
12995,1,-8,245,-8,66,-3
13000,3,-7,244,-9,66,-4
13005,1,-10,243,-10,66,-4
13010,0,-7,242,-12,66,-4
13015,1,-7,244,-13,67,-4
13020,2,-9,246,-13,67,-4
13025,1,-10,244,-13,66,-4
13030,1,-8,242,-11,67,-5
13035,-2,-8,250,-11,65,-7
13040,2,-11,242,-9,65,-4
13045,3,-8,244,-8,65,-4
13050,3,-8,242,-8,65,-5
13055,2,-11,243,-10,64,-4
13060,1,-8,243,-12,64,-4
13065,1,-9,244,-14,64,-5
13070,1,-8,246,-16,65,-5
13075,1,-10,246,-17,63,-4
13080,3,-8,243,-16,63,-6
13085,2,-10,245,-16,64,-4
13090,1,-7,242,-15,64,-4
13095,4,-10,243,-13,66,-2
13100,2,-9,243,-10,65,-2
13105,3,-9,244,-9,66,-2
13110,3,-3,243,-9,67,-3
13115,3,-11,245,-10,69,-2
13120,0,-8,244,-10,70,-3
13125,2,-9,245,-11,71,-4
13130,3,-8,246,-12,72,-5
13135,1,-9,249,-10,71,-5
13140,1,-9,245,-8,69,-4
13145,3,-8,244,-5,70,-4
13150,2,-2,244,1,69,-4
13155,8,-9,242,5,67,-4
13160,2,-10,243,11,67,-4
13165,2,-7,244,14,67,-4
13170,1,-8,244,16,69,-4
13175,2,-8,244,15,71,-3
13180,3,-10,243,13,70,-3
13185,4,-8,244,8,71,-5
13190,3,-8,244,2,71,-5
13195,1,-9,246,-4,69,-4
13200,1,-8,245,-7,70,-4
13205,3,-12,244,-7,68,-3
13210,1,-16,243,-6,69,-5
13215,0,-10,241,-7,70,-5
13220,1,-7,241,-7,72,-7
13225,2,-8,242,-7,72,-5
13230,2,-7,241,-4,73,-5
13235,1,-8,241,4,77,-4
13240,3,-10,242,12,78,-3
13245,3,-9,245,20,81,-2
13250,3,-8,240,26,83,-3
13255,2,-7,243,28,84,-1
13260,2,-9,242,27,83,-1
13265,4,-3,244,23,83,0
13270,4,-6,245,18,82,-1
13275,2,-8,245,11,80,-1
13280,1,-5,244,3,79,0
13285,4,-7,243,-2,80,0
13290,4,-7,243,-7,78,-1
13295,1,-1,243,-9,77,-3
13300,2,-8,243,-10,75,-2
13305,2,-5,244,-12,74,-1
13310,2,-9,246,-11,74,0
13315,4,-9,242,-9,72,0
13320,1,-13,246,-8,72,0
13325,4,-6,245,-6,73,1
13330,1,-7,247,-5,74,-1
13335,1,-7,245,-4,74,0
13340,2,-5,243,-4,75,0
13345,2,-8,244,-3,76,0
13350,1,-4,244,-4,77,0
13355,1,-8,242,-5,75,0
13360,2,-7,245,-7,74,1
13365,1,-7,245,-9,75,-1
13370,1,-6,244,-10,74,0
13375,4,-7,240,-10,74,1
13380,1,-9,244,-11,73,-1
13385,0,-8,244,-11,74,1
13390,2,-9,247,-11,74,2
13395,3,-10,244,-12,72,1
13400,0,-7,243,-14,72,1
13405,1,-8,243,-14,72,0
13410,1,-7,244,-12,70,-2
13415,1,-9,242,-11,71,-2
13420,1,-9,244,-11,71,0
13425,2,-7,245,-11,71,0
13430,-1,-8,243,-13,73,-1
13435,3,-8,244,-14,71,0
13440,1,-5,244,-13,71,-1
13445,1,-5,244,-12,72,-1
13450,2,-6,245,-12,71,-1
13455,1,-6,243,-12,70,1
13460,5,-5,246,-12,72,0
13465,1,-9,245,-12,71,1
13470,2,-8,247,-11,70,0
13475,1,-7,243,-12,70,0
13480,1,-8,244,-13,68,-1
13485,0,-6,242,-14,68,-3
13490,1,-8,245,-15,66,-4
13495,2,-8,243,-16,66,-3
13500,3,-10,247,-17,67,-4
13505,3,-6,244,-18,67,-5
13510,2,-7,245,-17,67,-5
13515,0,-9,246,-15,68,-5
13520,1,-9,247,-15,69,-6
13525,3,-8,245,-13,71,-5
13530,2,-6,247,-14,71,-5
13535,2,-7,244,-14,71,-5
13540,1,-4,244,-16,70,-5
13545,1,-5,245,-17,70,-4
13550,0,-4,246,-21,68,-4
13555,1,-7,246,-24,68,-6
13560,0,-5,243,-28,65,-5
13565,2,-8,248,-29,67,-5
13570,-1,-7,244,-30,66,-5
13575,2,-9,245,-30,66,-6
13580,1,-6,247,-28,67,-5
13585,2,-7,243,-25,68,-4
13590,1,-6,243,-21,68,-3
13595,1,-7,246,-18,68,-5
13600,1,-9,246,-18,69,-3
13605,0,-9,246,-16,70,-3
13610,0,-9,246,-17,70,-4
13615,1,-6,248,-19,71,-3
13620,1,-7,243,-20,70,-1
13625,0,-8,246,-24,71,-2
13630,2,-9,243,-23,69,-1
13635,1,-9,244,-24,69,0
13640,1,-7,244,-24,67,-1
13645,2,-10,246,-23,66,-1
13650,2,-6,246,-22,68,-1
13655,0,-9,240,-21,66,0
13660,3,-5,244,-21,66,-2
13665,1,-7,243,-21,64,0
13670,0,-7,241,-21,65,-1
13675,1,-7,244,-21,65,-1
13680,2,-10,239,-22,65,-2
13685,3,-8,245,-24,64,-2
13690,1,-8,245,-25,64,-1
13695,1,-9,244,-26,63,-3
13700,1,-3,244,-26,64,-2
13705,0,-8,243,-27,64,-3
13710,1,-7,248,-28,63,-2
13715,3,-11,244,-28,63,-4
13720,3,-9,245,-29,64,-3
13725,2,-8,244,-31,64,-3
13730,4,-7,243,-30,64,-3
13735,1,-6,245,-29,65,-4
13740,1,-9,240,-31,67,-4
13745,1,-9,245,-31,64,-4
13750,1,-8,247,-31,64,-4
13755,1,-14,253,-31,65,-5
13760,0,-7,242,-33,64,-4
13765,2,-10,244,-33,64,-4
13770,2,-8,246,-35,64,-4
13775,3,-7,244,-35,64,-4
13780,0,-7,243,-35,64,-6
13785,0,-7,242,-37,63,-5
13790,3,-8,247,-38,63,-4
13795,2,-10,243,-39,62,-5
13800,1,-9,247,-40,62,-5
13805,0,-7,245,-40,62,-5
13810,0,-7,243,-41,63,-7
13815,0,-7,245,-41,60,-7
13820,1,-10,243,-41,60,-5
13825,2,-9,244,-42,61,-6
13830,1,-8,248,-41,60,-7
13835,-1,-8,245,-41,60,-6
13840,1,-10,245,-39,60,-7
13845,2,-7,241,-39,60,-8
13850,2,-11,245,-41,60,-8
13855,2,-11,246,-41,60,-6
13860,1,-7,247,-41,60,-7
13865,2,-12,249,-40,61,-7
13870,2,-10,245,-40,61,-7
13875,3,-9,246,-40,61,-8
13880,2,-9,244,-40,61,-6
13885,1,-9,244,-40,61,-8
13890,0,-9,248,-35,62,-9
13895,1,-8,242,-36,62,-8
13900,1,-8,243,-35,60,-10
13905,3,-10,243,-34,61,-9
13910,0,-7,244,-31,59,-9
13915,-2,-11,250,-28,59,-9
13920,4,-8,244,-27,61,-9
13925,3,-12,247,-27,59,-8
13930,2,-10,246,-29,61,-8
13935,4,-7,241,-30,61,-8
13940,3,-12,245,-32,62,-7
13945,4,-12,244,-33,63,-8
13950,2,-6,243,-33,63,-7
13955,2,-12,243,-34,64,-7
13960,2,-10,246,-33,63,-10
13965,6,-10,245,-34,64,-8
13970,1,-12,239,-33,63,-9
13975,2,-10,244,-32,64,-7
13980,2,-13,246,-30,62,-6
13985,1,-9,241,-27,62,-6
13990,2,-9,241,-26,63,-7
13995,1,-10,245,-27,63,-8
14000,1,-7,244,-28,64,-7
14005,2,-9,242,-31,65,-7
14010,2,-9,245,-31,66,-7
14015,1,-8,244,-31,65,-8
14020,2,-7,243,-30,65,-8
14025,1,-7,245,-29,64,-9
14030,0,-8,242,-25,64,-9
14035,3,-11,245,-22,62,-8
14040,3,-10,242,-17,62,-7
14045,2,-11,243,-13,62,-7
14050,1,-13,247,-10,63,-9
14055,5,-11,243,-8,66,-9
14060,1,-13,241,-10,66,-10
14065,2,-10,244,-12,65,-11
14070,1,-10,243,-18,65,-10
14075,3,-14,247,-26,65,-11
14080,4,-14,244,-33,64,-10
14085,1,-12,243,-38,63,-10
14090,3,-12,243,-39,61,-9
14095,3,-12,241,-40,62,-11
14100,-1,-9,241,-41,62,-11
14105,1,-11,242,-43,62,-12
14110,1,-10,240,-42,61,-11
14115,3,-9,244,-39,62,-9
14120,5,-8,242,-34,64,-6
14125,1,-11,245,-29,68,-6
14130,3,-7,243,-27,68,-3
14135,1,-8,244,-24,68,-1
14140,4,-8,247,-24,67,-1
14145,2,-9,245,-27,65,-1
14150,3,-10,243,-32,63,-1
14155,3,-10,245,-35,61,-1
14160,2,-11,244,-41,57,-3
14165,3,-9,244,-43,55,-3
14170,1,-8,248,-45,53,-4
14175,4,-7,245,-45,50,-4
14180,2,-9,243,-45,47,-6
14185,2,-7,244,-43,47,-6
14190,2,-9,242,-42,43,-6
14195,1,-11,242,-42,43,-5
14200,2,-7,243,-43,43,-5
14205,2,-9,247,-45,43,-4
14210,1,-11,244,-46,42,-3
14215,3,-9,250,-47,43,-2
14220,2,-10,245,-48,43,-5
14225,3,-10,242,-47,43,-4
14230,3,-12,244,-48,45,-3
14235,4,-14,242,-51,48,-2
14240,1,-13,245,-52,49,-3
14245,2,-13,245,-53,49,-3
14250,3,-12,244,-52,51,-3
14255,2,-12,245,-51,52,-3
14260,4,-14,243,-48,53,-2
14265,2,-12,244,-45,52,-3
14270,3,-11,244,-46,55,-4
14275,3,-12,241,-45,54,-2
14280,3,-12,240,-44,53,-4
14285,5,-12,244,-42,53,-4
14290,1,-13,244,-41,52,-6
14295,3,-12,239,-39,52,-7
14300,4,-19,236,-40,56,-6
14305,2,-13,244,-39,58,-6
14310,0,-13,243,-37,57,-6
14315,1,-11,240,-34,57,-5
14320,2,-13,243,-32,57,-6
14325,3,-14,247,-28,57,-7
14330,3,-14,244,-26,57,-6
14335,5,-14,242,-24,57,-5
14340,5,-12,246,-23,56,-6
14345,2,-15,244,-24,59,-5
14350,6,-14,243,-25,61,-7
14355,2,-13,245,-29,64,-7
14360,3,-13,242,-32,63,-6
14365,4,-14,243,-35,59,-7
14370,6,-16,243,-37,58,-7
14375,2,-14,243,-39,57,-8
14380,2,-15,245,-40,58,-9
14385,4,-16,244,-35,56,-10
14390,4,-13,242,-31,58,-10
14395,1,-14,242,-28,57,-11
14400,3,-12,244,-28,59,-11
14405,2,-10,244,-29,60,-12
14410,2,-14,241,-30,61,-11
14415,3,-12,244,-33,62,-11
14420,4,-12,245,-38,65,-9
14425,4,-12,244,-43,67,-11
14430,4,-13,245,-43,66,-10
14435,2,-15,244,-45,64,-10
14440,2,-12,244,-48,65,-9
14445,3,-11,244,-49,64,-9
14450,4,-11,247,-47,64,-8
14455,1,-13,249,-44,64,-9
14460,2,-14,244,-39,61,-9
14465,2,-11,244,-34,60,-8
14470,1,-11,243,-32,60,-9
14475,3,-15,242,-30,60,-8
14480,2,-11,243,-26,60,-7
14485,3,-16,242,-23,61,-7
14490,1,-11,242,-22,61,-5
14495,5,-15,244,-22,61,-5
14500,4,-14,241,-22,61,-5
14505,4,-12,247,-23,61,-5
14510,5,-11,243,-24,63,-5
14515,4,-10,240,-22,63,-4
14520,3,-11,246,-20,63,-4
14525,5,-15,244,-20,63,-3
14530,6,-14,241,-19,63,-3
14535,2,-13,243,-18,60,-3
14540,3,-16,244,-19,61,-3
14545,3,-14,244,-20,62,-4
14550,5,-13,238,-21,61,-5
14555,5,-16,240,-20,62,-5
14560,5,-17,246,-21,62,-5
14565,1,-10,243,-20,60,-4
14570,5,-16,244,-18,59,-4
14575,5,-15,244,-18,59,-6
14580,4,-13,243,-18,58,-6
14585,3,-13,244,-20,57,-6
14590,4,-14,241,-20,56,-7
14595,3,-14,244,-21,57,-7
14600,4,-15,246,-21,58,-6
14605,3,-14,246,-22,60,-6
14610,3,-14,242,-23,61,-6
14615,2,-12,243,-22,60,-6
14620,2,-11,248,-22,60,-6
14625,3,-15,244,-21,63,-4
14630,4,-14,243,-21,62,-6
14635,6,-17,248,-21,61,-5
14640,4,-15,243,-23,62,-7
14645,2,-13,241,-25,63,-6
14650,3,-11,243,-27,62,-6
14655,4,-13,245,-27,62,-7
14660,4,-15,243,-30,60,-9
14665,4,-16,243,-31,60,-8
14670,2,-10,241,-32,60,-9
14675,2,-14,245,-34,60,-8
14680,5,-11,243,-34,61,-8
14685,5,-13,244,-37,63,-8
14690,6,-14,244,-38,63,-6
14695,4,-13,245,-38,64,-5
14700,3,-12,247,-39,65,-5
14705,5,-13,245,-40,66,-3
14710,4,-15,247,-40,67,-2
14715,6,-15,246,-42,66,-2
14720,3,-13,242,-41,65,-2
14725,3,-13,246,-37,62,-1
14730,4,-14,242,-32,59,-1
14735,3,-6,244,-30,56,-6
14740,6,-15,246,-25,54,-5
14745,2,-15,242,-24,54,-5
14750,7,-17,241,-23,53,-6
14755,2,-17,243,-22,53,-7
14760,4,-15,244,-24,53,-7
14765,6,-15,239,-27,57,-6
14770,2,-11,245,-31,58,-6
14775,4,-10,246,-36,61,-5
14780,6,-14,246,-37,61,-6
14785,3,-11,247,-36,60,-5
14790,4,-15,241,-34,60,-3
14795,5,-13,245,-29,58,-4
14800,3,-13,245,-23,56,-6
14805,8,-15,242,-14,53,-5
14810,3,-16,242,-6,56,-6
14815,4,-14,243,4,58,-6
14820,4,-17,242,14,60,-5
14825,3,-15,241,20,59,-6
14830,4,-12,242,19,61,-6
14835,2,-14,240,15,63,-7
14840,3,-17,241,8,65,-8
14845,2,-13,239,-4,67,-9
14850,5,-16,244,-16,70,-7
14855,5,-16,248,-29,69,-8
14860,3,-16,247,-36,72,-6
14865,4,-19,246,-41,72,-7
14870,5,-20,244,-41,71,-6
14875,3,-18,242,-41,70,-7
14880,4,-18,246,-38,68,-7
14885,5,-17,244,-32,66,-7
14890,3,-18,243,-27,65,-7
14895,3,-13,246,-21,65,-6
14900,4,-17,245,-13,65,-6
14905,2,-15,245,-8,67,-6
14910,4,-13,245,-4,67,-5
14915,3,-15,241,-2,67,-3
14920,4,-12,242,-1,67,-3
14925,3,-12,242,0,67,-3
14930,4,-12,239,1,65,-4
14935,4,-11,241,2,64,-4
14940,3,-12,242,3,64,-5
14945,6,-12,242,4,65,-4
14950,6,-13,241,4,64,-6
14955,10,-9,240,3,62,-6
14960,2,-9,243,0,62,-6
14965,7,-13,240,-3,61,-7
14970,5,-14,243,-7,62,-6
14975,8,-10,243,-9,63,-5
14980,3,-14,246,-11,64,-6
14985,4,-15,244,-12,63,-6
14990,6,-14,243,-13,62,-7
14995,6,-11,246,-13,64,-6
