timestamp,acc_x,acc_y,acc_z,gyro_x,gyro_y,gyro_z
0,-1,-252,-50,-35,60,2
5,1,-253,-44,-39,64,2
10,0,-253,-46,-43,68,-1
15,1,-252,-45,-45,69,-4
20,0,-251,-47,-43,71,-7
25,-2,-253,-45,-41,70,-11
30,1,-251,-43,-41,67,-14
35,0,-252,-48,-40,67,-17
40,2,-249,-48,-39,73,-20
45,3,-248,-52,-43,86,-25
50,4,-246,-54,-53,105,-33
55,12,-247,-55,-61,126,-44
60,9,-243,-55,-74,142,-56
65,13,-244,-53,-93,153,-70
70,14,-247,-56,-110,157,-80
75,22,-249,-57,-137,159,-88
80,26,-254,-58,-164,164,-96
85,30,-256,-56,-189,170,-107
90,31,-261,-63,-214,180,-116
95,32,-261,-67,-242,191,-123
100,30,-265,-66,-270,206,-126
105,28,-264,-69,-298,218,-117
110,19,-268,-68,-331,229,-97
115,18,-270,-69,-358,238,-71
120,7,-271,-69,-375,245,-52
125,3,-269,-66,-389,241,-27
130,-4,-266,-67,-400,237,-1
135,8,-265,-62,-406,228,23
140,6,-259,-59,-396,218,33
145,5,-254,-56,-376,198,38
150,4,-248,-49,-354,171,47
155,3,-244,-44,-333,141,58
160,0,-241,-35,-313,114,69
165,0,-233,-28,-295,80,76
170,-3,-221,-23,-269,48,67
175,-9,-220,-19,-236,24,50
180,-10,-222,-15,-213,0,54
185,-11,-223,-13,-204,-22,71
190,-15,-219,-15,-203,-44,87
195,-11,-225,-17,-205,-66,97
200,-5,-228,-15,-208,-85,97
205,6,-231,-17,-213,-100,87
210,9,-233,-20,-222,-113,79
215,21,-240,-26,-242,-132,77
220,30,-243,-30,-267,-147,74
225,41,-247,-33,-292,-155,68
230,43,-250,-33,-312,-156,59
235,54,-256,-46,-325,-150,51
240,56,-250,-48,-329,-132,40
245,62,-261,-53,-324,-106,28
250,62,-257,-55,-315,-76,20
255,60,-262,-54,-305,-46,15
260,55,-257,-58,-293,-16,19
265,47,-260,-59,-285,17,28
270,48,-262,-59,-281,46,37
275,38,-258,-60,-278,71,48
280,36,-255,-68,-275,93,56
285,32,-256,-63,-270,113,62
290,32,-257,-57,-263,130,67
295,28,-256,-60,-252,144,70
300,30,-254,-63,-242,156,70
305,31,-250,-61,-230,166,67
310,26,-251,-61,-219,177,64
315,25,-249,-66,-211,185,62
320,21,-247,-68,-209,186,62
325,19,-246,-69,-216,189,62
330,17,-245,-72,-230,192,66
335,15,-241,-73,-245,194,71
340,9,-237,-76,-261,192,73
345,8,-237,-75,-280,187,76
350,4,-234,-71,-297,180,82
355,3,-233,-74,-314,170,86
360,3,-234,-77,-327,155,89
365,0,-229,-81,-335,139,88
370,-1,-236,-78,-343,122,87
375,-7,-230,-77,-351,109,82
380,-10,-232,-72,-356,99,77
385,-13,-237,-68,-358,92,72
390,-15,-235,-70,-361,87,68
395,-21,-239,-64,-366,83,69
400,-24,-242,-63,-373,82,71
405,-28,-244,-63,-384,85,75
410,-26,-245,-65,-402,92,81
415,-31,-248,-67,-426,100,88
420,-31,-249,-67,-457,109,94
425,-31,-248,-73,-493,120,100
430,-33,-254,-75,-529,128,103
435,-32,-259,-71,-560,135,98
440,-33,-265,-70,-578,135,97
445,-42,-268,-62,-580,131,90
450,-43,-277,-59,-563,123,85
455,-51,-282,-57,-529,110,84
460,-51,-288,-50,-485,102,86
465,-48,-290,-47,-436,102,93
470,-49,-293,-42,-386,107,103
475,-49,-291,-40,-339,110,114
480,-46,-296,-49,-300,112,126
485,-46,-292,-43,-272,105,145
490,-41,-294,-48,-251,84,173
495,-39,-294,-43,-233,53,207
500,-41,-290,-51,-220,25,231
505,-44,-287,-50,-211,7,236
510,-49,-281,-54,-215,1,233
515,-51,-277,-57,-233,-2,231
520,-55,-270,-58,-254,-8,235
525,-56,-270,-57,-270,-21,247
530,-62,-262,-60,-278,-38,262
535,-63,-260,-60,-278,-55,277
540,-61,-256,-60,-274,-71,285
545,-59,-255,-62,-261,-86,292
550,-60,-252,-56,-236,-100,295
555,-53,-248,-61,-204,-118,295
560,-46,-248,-67,-178,-135,295
565,-44,-244,-67,-162,-152,292
570,-36,-240,-62,-155,-171,285
575,-32,-238,-59,-157,-188,279
580,-26,-233,-62,-160,-204,270
585,-20,-232,-61,-164,-215,259
590,-21,-226,-59,-170,-226,249
595,-17,-222,-55,-179,-235,240
600,-21,-221,-55,-192,-244,232
605,-21,-219,-54,-206,-252,224
610,-27,-220,-55,-219,-257,217
615,-31,-220,-55,-231,-263,214
620,-36,-226,-53,-238,-266,210
625,-40,-227,-50,-244,-267,207
630,-44,-233,-53,-245,-266,203
635,-43,-236,-48,-238,-261,196
640,-45,-238,-45,-229,-253,191
645,-47,-238,-46,-219,-239,189
650,-46,-242,-47,-209,-223,184
655,-42,-243,-49,-197,-209,170
660,-43,-244,-47,-180,-195,156
665,-41,-240,-45,-167,-184,138
670,-27,-227,-50,-161,-178,122
675,-36,-239,-43,-160,-177,105
680,-34,-237,-45,-165,-178,89
685,-32,-236,-45,-165,-179,77
690,-33,-237,-45,-164,-175,65
695,-32,-236,-48,-157,-169,54
700,-30,-236,-44,-147,-160,44
705,-28,-235,-48,-134,-151,32
710,-26,-234,-46,-120,-138,19
715,-25,-237,-44,-108,-130,5
720,-30,-237,-44,-99,-123,-12
725,-29,-242,-38,-89,-118,-27
730,-27,-241,-41,-83,-115,-42
735,-26,-244,-39,-76,-110,-55
740,-29,-245,-39,-68,-103,-68
745,-28,-247,-35,-54,-93,-76
750,-30,-245,-36,-36,-80,-86
755,-29,-248,-39,-23,-63,-101
760,-29,-244,-40,-6,-46,-115
765,-28,-243,-37,4,-28,-127
770,-29,-241,-40,9,-16,-138
775,-28,-239,-38,9,-1,-147
780,-24,-241,-30,8,12,-158
785,-26,-240,-36,11,19,-166
790,-23,-240,-34,14,22,-169
795,-21,-241,-39,15,27,-168
800,-22,-242,-36,15,34,-160
805,-29,-242,-38,11,43,-154
810,-27,-245,-39,4,59,-142
815,-30,-248,-34,-5,74,-134
820,-30,-251,-33,-1,85,-125
825,-35,-255,-36,8,93,-111
830,-35,-257,-41,16,95,-103
835,-38,-254,-43,16,92,-96
840,-38,-254,-44,-1,90,-91
845,-41,-255,-47,-21,93,-81
850,-36,-262,-45,-48,93,-66
855,-34,-263,-43,-53,116,-56
860,-35,-265,-40,-42,143,-41
865,-35,-267,-48,-25,166,-23
870,-37,-269,-50,-17,179,-4
875,-35,-266,-61,-31,180,18
880,-39,-261,-75,-64,175,33
885,-38,-260,-90,-122,163,42
890,-50,-257,-117,-198,148,52
895,-50,-256,-123,-290,126,64
900,-59,-260,-137,-387,88,77
905,-69,-266,-145,-480,40,88
910,-76,-282,-139,-549,-17,100
915,-89,-302,-137,-579,-76,112
920,-92,-318,-126,-567,-134,120
925,-93,-342,-108,-517,-190,130
930,-96,-354,-86,-426,-240,124
935,-96,-368,-72,-298,-282,113
940,-88,-371,-60,-151,-303,116
945,-80,-380,-47,-7,-304,138
950,-72,-382,-43,122,-299,146
955,-63,-374,-42,234,-295,130
960,-47,-363,-44,304,-273,127
965,-36,-340,-53,328,-241,114
970,-17,-315,-57,316,-195,90
975,-10,-294,-71,285,-142,43
980,-1,-270,-77,245,-83,-11
985,4,-253,-90,209,-20,-69
990,0,-236,-97,181,43,-120
995,-4,-223,-103,162,95,-159
1000,-13,-222,-113,146,136,-186
1005,-26,-224,-115,130,161,-204
1010,-39,-234,-122,110,166,-218
1015,-48,-241,-123,80,155,-231
1020,-63,-248,-125,39,129,-239
1025,-66,-253,-136,-11,89,-242
1030,-76,-256,-146,-76,49,-232
1035,-80,-259,-152,-153,11,-215
1040,-73,-258,-164,-239,-13,-193
1045,-65,-255,-165,-315,-19,-175
1050,-58,-251,-163,-361,-9,-162
1055,-49,-247,-165,-371,6,-148
1060,-40,-240,-165,-360,16,-130
1065,-27,-233,-161,-343,15,-105
1070,-17,-223,-161,-321,15,-78
1075,2,-211,-158,-288,14,-54
1080,14,-203,-151,-242,20,-33
1085,30,-196,-148,-181,33,-16
1090,45,-194,-149,-112,56,-5
1095,55,-196,-143,-40,85,3
1100,61,-195,-137,31,116,7
1105,65,-203,-131,91,143,6
1110,61,-207,-123,140,168,6
1115,56,-212,-123,170,185,4
1120,48,-221,-118,179,199,0
1125,36,-227,-115,169,210,-3
1130,19,-232,-112,141,219,-4
1135,4,-237,-116,102,229,-8
1140,-11,-240,-111,60,236,-10
1145,-24,-242,-111,22,243,-11
1150,-35,-243,-110,-11,251,-16
1155,-44,-247,-108,-34,259,-24
1160,-50,-246,-106,-45,265,-38
1165,-55,-246,-106,-52,268,-55
1170,-55,-240,-106,-49,267,-79
1175,-61,-238,-101,-39,260,-102
1180,-54,-230,-97,-20,245,-127
1185,-49,-228,-91,10,223,-154
1190,-46,-224,-88,50,201,-172
1195,-38,-218,-85,93,179,-194
1200,-34,-215,-83,134,161,-210
1205,-25,-210,-84,168,148,-218
1210,-15,-212,-80,194,140,-222
1215,-12,-209,-85,205,141,-223
1220,-7,-208,-85,205,144,-223
1225,-1,-206,-86,197,146,-224
1230,2,-204,-89,188,148,-230
1235,3,-208,-85,182,148,-236
1240,8,-207,-80,178,141,-243
1245,9,-209,-85,177,131,-252
1250,9,-213,-84,182,118,-262
1255,8,-216,-81,187,111,-273
1260,4,-219,-78,195,109,-290
1265,6,-222,-81,199,106,-305
1270,3,-227,-80,197,97,-317
1275,-1,-227,-82,190,85,-329
1280,-5,-228,-81,178,70,-334
1285,-10,-232,-82,160,54,-338
1290,-15,-233,-80,143,40,-342
1295,-16,-233,-80,125,26,-346
1300,-18,-232,-79,108,16,-351
1305,-22,-233,-77,99,8,-352
1310,-19,-232,-74,96,-5,-348
1315,-26,-230,-74,102,-19,-343
1320,-23,-225,-70,114,-35,-340
1325,-29,-235,-63,128,-53,-337
1330,-17,-222,-69,140,-72,-336
1335,-11,-215,-64,156,-86,-333
1340,-11,-220,-59,171,-101,-330
1345,-7,-217,-60,185,-118,-327
1350,-4,-215,-61,201,-140,-326
1355,0,-216,-66,214,-163,-326
1360,-2,-216,-61,229,-186,-334
1365,-1,-220,-62,243,-201,-345
1370,-3,-216,-65,255,-212,-353
1375,1,-213,-61,261,-225,-337
1380,2,-219,-60,254,-245,-295
1385,2,-220,-56,238,-268,-260
1390,-3,-221,-54,227,-289,-241
1395,-2,-224,-52,228,-309,-230
1400,-6,-226,-52,237,-327,-221
1405,-4,-231,-49,247,-344,-214
1410,-3,-230,-45,264,-368,-211
1415,-7,-231,-41,283,-387,-206
1420,-10,-228,-41,303,-410,-207
1425,-10,-226,-44,315,-432,-210
1430,-9,-221,-48,322,-450,-206
1435,-12,-219,-41,320,-463,-191
1440,-8,-219,-42,312,-480,-183
1445,-10,-217,-40,305,-495,-172
1450,-11,-216,-39,297,-516,-168
1455,-11,-220,-40,284,-542,-179
1460,1,-220,-40,278,-562,-162
1465,1,-219,-39,273,-580,-146
1470,0,-230,-38,267,-599,-140
1475,6,-233,-39,262,-615,-120
1480,3,-233,-39,253,-630,-101
1485,9,-235,-40,239,-646,-85
1490,10,-238,-37,230,-658,-72
1495,14,-238,-35,227,-661,-57
1500,19,-238,-33,226,-655,-36
1505,24,-238,-36,227,-642,-14
1510,23,-234,-35,226,-631,6
1515,23,-237,-30,217,-621,24
1520,24,-237,-36,203,-617,42
1525,24,-240,-32,188,-616,56
1530,22,-240,-28,174,-616,68
1535,21,-245,-25,159,-608,82
1540,21,-251,-21,148,-591,92
1545,22,-256,-18,136,-562,94
1550,31,-261,-17,130,-523,91
1555,31,-265,-16,131,-477,75
1560,37,-273,-10,139,-432,52
1565,42,-278,-11,153,-401,20
1570,48,-285,-7,169,-383,-14
1575,52,-286,-4,186,-370,-44
1580,53,-289,-2,201,-361,-71
1585,53,-293,1,215,-354,-89
1590,53,-292,-1,226,-344,-107
1595,58,-281,-3,235,-332,-119
1600,45,-284,-4,243,-316,-121
1605,40,-281,-6,247,-301,-115
1610,32,-278,-15,250,-291,-107
1615,28,-275,-19,240,-289,-98
1620,20,-282,-22,220,-293,-90
1625,16,-285,-36,191,-301,-82
1630,12,-291,-49,154,-302,-75
1635,13,-300,-68,103,-283,-68
1640,14,-309,-87,43,-239,-61
1645,17,-312,-112,-30,-162,-57
1650,33,-314,-138,-105,-59,-59
1655,44,-323,-160,-171,64,-76
1660,59,-330,-186,-222,194,-107
1665,69,-332,-215,-261,314,-150
1670,81,-336,-237,-306,423,-212
1675,81,-337,-249,-358,521,-287
1680,80,-340,-245,-402,608,-358
1685,67,-335,-239,-416,671,-416
1690,55,-332,-233,-401,687,-460
1695,32,-327,-221,-361,650,-488
1700,3,-319,-208,-301,574,-503
1705,-25,-309,-195,-223,476,-517
1710,-62,-296,-180,-139,376,-524
1715,-97,-283,-171,-53,291,-508
1720,-133,-263,-164,18,214,-482
1725,-165,-246,-161,65,142,-443
1730,-191,-232,-164,81,75,-392
1735,-210,-216,-166,62,15,-328
1740,-211,-208,-157,20,-40,-262
1745,-202,-201,-149,-26,-96,-205
1750,-179,-212,-135,-63,-151,-156
1755,-144,-225,-124,-81,-195,-121
1760,-105,-238,-115,-78,-223,-89
1765,-63,-254,-114,-68,-231,-58
1770,-29,-263,-107,-66,-222,-25
1775,3,-275,-112,-82,-201,14
1780,32,-285,-108,-111,-171,54
1785,62,-296,-106,-149,-133,92
1790,84,-307,-103,-186,-84,120
1795,103,-308,-101,-221,-31,141
1800,110,-306,-101,-251,24,159
1805,112,-300,-97,-270,75,179
1810,112,-295,-91,-271,126,203
1815,105,-278,-89,-251,182,238
1820,94,-264,-88,-208,238,274
1825,78,-246,-83,-147,292,312
1830,61,-222,-80,-79,341,352
1835,49,-206,-82,-9,382,390
1840,32,-191,-81,56,419,425
1845,14,-185,-83,112,448,459
1850,4,-175,-80,158,470,491
1855,-8,-167,-78,192,485,523
1860,-23,-172,-78,210,495,547
1865,-34,-164,-72,214,498,571
1870,-47,-167,-71,203,489,592
1875,-57,-162,-69,181,474,612
1880,-57,-174,-67,154,451,641
1885,-52,-182,-64,138,421,707
1890,-57,-195,-65,135,394,757
1895,-58,-198,-64,130,386,731
1900,-51,-205,-66,115,397,674
1905,-43,-207,-65,91,422,622
1910,-35,-211,-60,71,448,586
1915,-24,-218,-57,60,470,572
1920,-12,-222,-61,59,496,566
1925,-5,-225,-57,60,525,557
1930,-1,-225,-59,64,554,550
1935,-2,-221,-57,72,581,539
1940,2,-221,-55,81,605,528
1945,2,-217,-57,85,625,517
1950,-2,-211,-59,86,638,508
1955,-3,-207,-59,86,650,496
1960,-11,-205,-56,87,659,479
1965,-14,-200,-53,91,672,461
1970,-18,-201,-46,96,686,432
1975,-29,-198,-45,106,699,402
1980,-33,-197,-38,116,710,371
1985,-36,-196,-40,128,719,337
1990,-43,-199,-34,140,723,304
1995,-48,-199,-34,152,723,272
2000,-48,-202,-31,160,718,239
2005,-52,-207,-32,168,708,206
2010,-54,-208,-35,176,694,176
2015,-55,-214,-34,185,681,147
2020,-54,-220,-30,197,670,119
2025,-53,-225,-32,218,659,88
2030,-50,-229,-29,239,652,61
2035,-47,-230,-22,268,644,33
2040,-44,-234,-20,297,636,5
2045,-40,-239,-19,326,628,-21
2050,-37,-241,-15,358,620,-47
2055,-33,-243,-8,393,613,-70
2060,-30,-240,-11,429,607,-94
2065,-27,-239,-7,464,601,-118
2070,-27,-240,-4,502,596,-144
2075,-25,-235,-6,533,589,-170
2080,-31,-230,-11,556,577,-196
2085,-26,-218,-16,561,555,-223
2090,-25,-209,-22,533,521,-249
2095,-26,-205,-31,475,474,-271
2100,-29,-194,-43,392,417,-287
2105,-41,-184,-56,292,349,-300
2110,-53,-179,-61,178,269,-309
2115,-64,-173,-64,57,173,-315
2120,-75,-175,-61,-49,56,-317
2125,-92,-173,-54,-126,-65,-312
2130,-106,-181,-46,-166,-171,-296
2135,-115,-197,-29,-170,-244,-271
2140,-116,-217,-20,-144,-272,-237
2145,-114,-241,-10,-93,-268,-192
2150,-103,-264,-1,-34,-244,-147
2155,-84,-291,11,29,-213,-107
2160,-63,-310,19,90,-182,-71
2165,-43,-320,20,142,-150,-43
2170,-19,-335,15,179,-119,-19
2175,5,-342,15,185,-90,11
2180,29,-342,10,160,-66,36
2185,48,-334,1,108,-43,52
2190,67,-333,0,47,-14,61
2195,79,-327,3,-7,26,67
2200,84,-322,-3,-38,80,77
2205,86,-314,-8,-43,148,97
2210,88,-313,-18,-29,231,130
2215,76,-312,-31,-14,319,173
2220,66,-313,-40,-5,407,227
2225,49,-321,-54,-12,487,295
2230,17,-327,-68,-17,541,353
2235,-11,-343,-80,-18,557,404
2240,-39,-356,-90,-11,542,460
2245,-60,-369,-92,2,485,498
2250,-71,-375,-96,25,393,522
2255,-91,-379,-104,61,274,540
2260,-125,-381,-116,105,132,568
2265,-164,-375,-132,144,-21,628
2270,-189,-368,-150,158,-165,713
2275,-186,-353,-176,123,-270,807
2280,-168,-346,-187,34,-303,896
2285,-140,-333,-191,-66,-276,930
2290,-117,-319,-190,-126,-202,914
2295,-85,-305,-193,-149,-107,883
2300,-44,-285,-191,-150,0,835
2305,-3,-262,-196,-146,104,742
2310,38,-240,-192,-140,210,639
2315,75,-223,-190,-124,326,553
2320,114,-210,-181,-86,451,475
2325,146,-196,-169,-22,571,400
2330,176,-192,-154,60,672,328
2335,199,-192,-140,157,757,253
2340,201,-194,-130,247,823,175
2345,185,-200,-124,309,879,114
2350,154,-208,-118,369,939,79
2355,123,-220,-120,395,993,69
2360,81,-234,-122,380,1035,72
2365,36,-244,-124,325,1059,86
2370,-1,-255,-120,244,1072,103
2375,-42,-268,-115,155,1066,123
2380,-74,-281,-114,62,1042,142
2385,-111,-284,-102,-31,996,158
2390,-134,-291,-100,-120,935,176
2395,-160,-293,-98,-215,861,188
2400,-166,-287,-100,-308,783,184
2405,-168,-286,-95,-389,700,164
2410,-165,-276,-87,-442,625,117
2415,-157,-270,-86,-463,555,47
2420,-137,-260,-82,-448,494,-39
2425,-121,-248,-80,-402,441,-140
2430,-100,-240,-75,-334,396,-248
2435,-75,-232,-77,-254,354,-355
2440,-50,-228,-71,-174,326,-448
2445,-32,-221,-75,-108,305,-523
2450,-8,-221,-70,-57,292,-581
2455,8,-216,-67,-20,287,-618
2460,28,-211,-66,2,291,-642
2465,41,-207,-68,9,295,-652
2470,49,-206,-64,6,304,-643
2475,59,-202,-65,-4,318,-617
2480,63,-207,-65,-20,328,-586
2485,60,-201,-64,-40,334,-552
2490,60,-206,-64,-64,341,-514
2495,52,-211,-61,-88,347,-474
2500,41,-215,-61,-104,349,-434
2505,29,-220,-60,-120,347,-400
2510,9,-227,-59,-131,341,-372
2515,7,-223,-58,-143,340,-344
2520,-4,-225,-60,-155,340,-322
2525,-16,-226,-53,-166,339,-308
2530,-22,-224,-54,-166,340,-300
2535,-30,-223,-49,-153,341,-296
2540,-36,-214,-53,-136,331,-320
2545,-32,-206,-51,-130,324,-347
2550,-36,-205,-52,-124,322,-346
2555,-31,-205,-49,-121,320,-338
2560,-28,-195,-46,-115,311,-335
2565,-24,-192,-41,-101,290,-336
2570,-25,-194,-45,-85,257,-341
2575,-22,-200,-40,-55,216,-357
2580,-12,-191,-48,11,170,-381
2585,8,-185,-50,30,122,-338
2590,6,-185,-47,-26,82,-286
2595,5,-189,-37,-108,48,-248
2600,9,-194,-39,-165,19,-228
2605,8,-202,-40,-198,-4,-220
2610,9,-207,-39,-213,-25,-208
2615,8,-211,-39,-216,-45,-192
2620,6,-218,-45,-204,-64,-169
2625,3,-218,-46,-182,-89,-146
2630,2,-224,-44,-163,-115,-123
2635,0,-225,-42,-148,-139,-104
2640,-1,-228,-42,-136,-157,-84
2645,0,-230,-38,-127,-171,-67
2650,-4,-233,-39,-120,-184,-52
2655,-1,-242,-29,-109,-195,-39
2660,0,-250,-26,-87,-203,-29
2665,-3,-252,-20,-56,-213,-20
2670,-3,-258,-18,-17,-226,-16
2675,-3,-268,-13,29,-243,-19
2680,-3,-274,-13,82,-264,-22
2685,-1,-280,-11,140,-289,-28
2690,-4,-285,-10,203,-317,-33
2695,-8,-284,-6,265,-347,-37
2700,-8,-282,-10,326,-372,-46
2705,-7,-272,-20,377,-381,-52
2710,-7,-263,-28,405,-372,-50
2715,-4,-249,-38,398,-351,-43
2720,-2,-231,-51,357,-312,-20
2725,1,-215,-60,289,-261,12
2730,12,-209,-70,208,-200,37
2735,22,-199,-66,130,-132,45
2740,36,-196,-52,75,-66,37
2745,53,-200,-46,57,-10,17
2750,64,-209,-30,64,27,-6
2755,73,-226,-20,88,41,-33
2760,78,-240,-13,112,28,-68
2765,76,-259,-5,128,-4,-105
2770,72,-278,-2,135,-62,-142
2775,60,-297,6,134,-129,-171
2780,48,-306,9,133,-188,-186
2785,29,-312,6,138,-234,-191
2790,14,-313,4,149,-264,-183
2795,-3,-312,-2,157,-280,-167
2800,-22,-312,-16,149,-286,-142
2805,-41,-311,-30,114,-292,-108
2810,-55,-312,-46,51,-296,-68
2815,-64,-316,-62,-31,-298,-32
2820,-65,-321,-70,-124,-288,-9
2825,-58,-326,-82,-207,-264,-3
2830,-45,-336,-85,-264,-230,-19
2835,-37,-347,-89,-274,-196,-57
2840,-15,-348,-92,-228,-176,-110
2845,1,-352,-100,-140,-170,-181
2850,18,-344,-113,-35,-163,-258
2855,30,-332,-136,62,-147,-318
2860,48,-325,-158,119,-118,-347
2865,60,-310,-184,118,-83,-358
2870,62,-286,-212,63,-45,-351
2875,63,-262,-234,-36,-17,-334
2880,62,-241,-251,-163,-10,-317
2885,55,-218,-246,-295,-30,-302
2890,41,-206,-237,-402,-78,-299
2895,24,-198,-215,-458,-142,-312
2900,2,-201,-185,-455,-209,-334
2905,-23,-204,-156,-395,-271,-360
2910,-51,-207,-132,-299,-326,-388
2915,-87,-220,-107,-180,-371,-406
2920,-114,-227,-98,-55,-401,-405
2925,-141,-236,-96,49,-424,-387
2930,-165,-246,-103,115,-454,-353
2935,-175,-249,-102,136,-501,-310
2940,-172,-248,-106,122,-561,-259
2945,-164,-241,-108,78,-620,-202
2950,-143,-246,-115,12,-665,-145
2955,-127,-245,-118,-71,-686,-91
2960,-100,-250,-111,-154,-689,-37
2965,-69,-260,-105,-219,-674,11
2970,-38,-274,-101,-256,-658,54
2975,-1,-286,-99,-272,-648,86
2980,30,-293,-93,-275,-647,107
2985,64,-306,-99,-274,-646,111
2990,91,-314,-102,-270,-636,98
2995,108,-321,-102,-260,-604,77
3000,110,-327,-112,-241,-540,63
3005,101,-326,-109,-220,-451,68
3010,90,-315,-105,-197,-355,90
3015,76,-300,-105,-173,-272,126
3020,61,-275,-103,-147,-205,164
3025,48,-254,-99,-122,-154,201
3030,31,-232,-101,-92,-116,239
3035,14,-211,-98,-59,-88,277
3040,1,-199,-96,-27,-64,310
3045,-14,-186,-83,1,-48,337
3050,-20,-181,-82,26,-40,357
3055,-29,-179,-78,43,-37,376
3060,-31,-179,-71,57,-40,405
3065,-33,-182,-69,66,-50,449
3070,-40,-184,-70,71,-56,460
3075,-41,-186,-67,72,-49,422
3080,-40,-184,-68,62,-34,371
3085,-34,-189,-65,44,-12,322
3090,-32,-187,-66,22,11,285
3095,-23,-195,-60,1,30,273
3100,-14,-201,-58,-26,51,271
3105,-12,-204,-61,-55,73,269
3110,-7,-206,-61,-82,94,271
3115,0,-205,-61,-112,114,273
3120,-2,-206,-63,-135,139,278
3125,0,-208,-60,-165,167,292
3130,0,-211,-59,-187,189,301
3135,0,-208,-56,-198,215,314
3140,-4,-209,-56,-205,239,331
3145,-5,-211,-50,-207,275,345
3150,-8,-205,-55,-201,313,358
3155,-7,-201,-55,-195,363,382
3160,-19,-201,-41,-198,413,398
3165,-22,-207,-48,-180,423,352
3170,-23,-203,-47,-134,435,310
3175,-28,-203,-50,-94,457,286
3180,-29,-201,-47,-69,481,266
3185,-29,-199,-44,-49,504,252
3190,-33,-201,-44,-28,519,234
3195,-35,-203,-39,-1,532,217
3200,-35,-209,-39,25,539,200
3205,-36,-211,-39,51,546,180
3210,-37,-215,-31,73,552,159
3215,-36,-218,-39,95,560,142
3220,-36,-222,-33,115,569,124
3225,-32,-227,-33,134,581,104
3230,-30,-230,-33,155,599,84
3235,-26,-236,-31,178,619,62
3240,-21,-240,-31,201,642,38
3245,-18,-248,-29,222,666,15
3250,-16,-246,-25,244,687,-8
3255,-11,-248,-28,265,701,-31
3260,-14,-248,-24,285,714,-54
3265,-14,-250,-21,308,723,-79
3270,-7,-250,-25,335,731,-103
3275,-12,-254,-20,367,738,-125
3280,-16,-252,-19,407,740,-144
3285,-15,-250,-17,452,735,-156
3290,-22,-248,-19,494,722,-166
3295,-32,-239,-26,520,700,-170
3300,-37,-231,-28,520,667,-170
3305,-42,-222,-34,493,625,-166
3310,-54,-214,-40,453,578,-159
3315,-66,-204,-49,411,529,-150
3320,-75,-202,-43,368,478,-141
3325,-93,-199,-40,326,416,-130
3330,-106,-203,-31,292,344,-123
3335,-118,-207,-26,272,268,-114
3340,-123,-217,-20,266,199,-100
3345,-129,-231,-19,268,136,-83
3350,-131,-247,-14,276,92,-61
3355,-127,-258,-9,282,62,-33
3360,-113,-277,-2,287,45,-3
3365,-100,-288,-4,292,36,18
3370,-86,-293,-1,298,36,29
3375,-69,-298,4,306,40,36
3380,-62,-301,5,312,45,38
3385,-42,-301,-1,315,49,38
3390,-24,-299,-4,312,57,38
3395,-7,-300,-15,292,71,34
3400,5,-299,-30,253,92,38
3405,15,-301,-45,193,118,48
3410,16,-304,-69,108,141,67
3415,14,-311,-91,-5,153,93
3420,3,-323,-112,-149,147,124
3425,-2,-336,-130,-299,127,164
3430,-14,-356,-135,-417,97,211
3435,-24,-377,-127,-469,57,261
3440,-33,-398,-115,-438,10,315
3445,-38,-409,-113,-336,-45,374
3450,-47,-409,-117,-191,-107,434
3455,-53,-409,-116,-41,-179,496
3460,-63,-403,-131,92,-271,542
3465,-65,-382,-148,187,-369,589
3470,-83,-374,-177,215,-441,687
3475,-94,-360,-194,191,-511,740
3480,-80,-346,-199,123,-543,764
3485,-55,-327,-189,39,-500,776
3490,-23,-310,-172,-14,-392,744
3495,-1,-286,-153,-12,-243,695
3500,22,-270,-152,18,-81,642
3505,45,-254,-150,54,77,602
3510,73,-237,-147,88,216,571
3515,98,-219,-149,122,345,546
3520,126,-197,-151,153,467,513
3525,143,-177,-153,180,589,477
3530,163,-162,-149,203,705,435
3535,170,-150,-147,223,813,388
3540,166,-144,-144,236,904,336
3545,156,-148,-135,235,974,284
3550,130,-154,-124,225,1030,235
3555,110,-168,-120,210,1082,187
3560,80,-185,-119,187,1124,141
3565,39,-213,-117,148,1157,98
3570,3,-234,-116,93,1169,62
3575,-31,-249,-117,15,1167,36
3580,-59,-270,-114,-80,1141,23
3585,-82,-290,-110,-191,1099,21
3590,-92,-302,-105,-305,1053,29
3595,-100,-312,-99,-411,1001,44
3600,-103,-311,-87,-495,950,53
3605,-101,-308,-84,-548,892,53
3610,-97,-296,-84,-565,830,44
3615,-88,-277,-83,-539,769,27
3620,-76,-255,-81,-476,707,-1
3625,-64,-240,-80,-382,646,-37
3630,-54,-215,-81,-273,587,-82
3635,-49,-198,-80,-166,531,-125
3640,-39,-192,-77,-71,478,-166
3645,-28,-185,-71,3,438,-203
3650,-19,-185,-70,52,413,-237
3655,-9,-184,-71,70,400,-268
3660,1,-186,-65,62,405,-288
3665,11,-190,-63,32,417,-300
3670,18,-195,-60,-10,433,-301
3675,22,-199,-57,-56,449,-293
3680,27,-205,-61,-100,468,-276
3685,29,-212,-58,-145,486,-254
3690,24,-215,-58,-187,502,-229
3695,23,-225,-54,-223,514,-203
3700,19,-224,-60,-249,520,-174
3705,12,-231,-61,-263,517,-141
3710,7,-233,-57,-261,503,-111
3715,4,-236,-59,-250,484,-93
3720,5,-237,-60,-230,466,-79
3725,2,-238,-55,-202,450,-60
3730,0,-236,-50,-170,442,-44
3735,-2,-235,-49,-140,438,-44
3740,-1,-234,-46,-109,444,-57
3745,-1,-233,-49,-78,447,-83
3750,2,-229,-51,-56,453,-115
3755,3,-224,-50,-45,458,-145
3760,1,-220,-51,-39,461,-163
3765,5,-217,-50,-39,456,-175
3770,7,-216,-53,-37,450,-187
3775,5,-221,-49,-25,440,-197
3780,5,-222,-50,10,426,-212
3785,15,-210,-51,56,408,-204
3790,25,-211,-48,52,390,-145
3795,19,-215,-49,-1,374,-92
3800,15,-219,-44,-56,360,-59
3805,14,-223,-40,-87,350,-41
3810,6,-235,-43,-99,341,-27
3815,4,-236,-43,-93,330,-8
3820,1,-240,-45,-74,320,16
3825,2,-243,-46,-44,311,35
3830,-3,-246,-45,-17,302,51
3835,-5,-244,-42,4,297,71
3840,-9,-242,-44,19,291,86
3845,-9,-243,-38,29,290,97
3850,-7,-241,-38,35,289,103
3855,-13,-239,-37,43,291,103
3860,-11,-238,-34,53,293,100
3865,-12,-238,-34,63,296,95
3870,-12,-240,-30,72,295,86
3875,-11,-237,-23,83,290,73
3880,-9,-240,-23,105,278,62
3885,-6,-243,-22,134,261,50
3890,-8,-245,-21,168,240,36
3895,-4,-247,-19,201,215,22
3900,-1,-248,-24,228,192,8
3905,0,-252,-19,252,173,3
3910,1,-258,-20,272,161,-1
3915,2,-257,-21,296,155,-6
3920,4,-264,-17,319,152,-10
3925,1,-258,-19,336,149,-15
3930,4,-258,-18,347,150,-20
3935,6,-253,-21,352,153,-18
3940,10,-249,-23,350,162,-6
3945,12,-243,-27,342,171,7
3950,13,-235,-29,332,178,18
3955,16,-226,-26,318,184,32
3960,21,-224,-28,304,190,47
3965,22,-213,-33,289,194,58
3970,29,-210,-32,273,198,66
3975,33,-210,-31,251,207,70
3980,39,-211,-29,224,214,67
3985,43,-217,-25,193,217,55
3990,41,-226,-24,159,215,38
3995,36,-236,-18,129,206,21
4000,34,-247,-16,104,189,6
4005,30,-264,-7,90,165,-6
4010,23,-276,-3,86,139,-12
4015,17,-287,2,87,112,-16
4020,9,-296,-1,87,88,-17
4025,3,-297,-3,81,66,-17
4030,-1,-307,-7,65,45,-18
4035,-8,-309,-18,36,31,-15
4040,-15,-310,-31,-2,23,-6
4045,-13,-313,-43,-50,24,11
4050,-12,-319,-62,-95,38,33
4055,-3,-328,-77,-135,65,44
4060,7,-341,-86,-162,101,46
4065,20,-357,-90,-175,146,39
4070,25,-367,-99,-164,191,28
4075,37,-377,-104,-132,231,12
4080,45,-382,-110,-90,261,-6
4085,55,-379,-121,-45,295,-21
4090,57,-372,-133,-14,342,-27
4095,59,-352,-154,-5,397,-23
4100,63,-332,-173,-17,447,-6
4105,62,-309,-200,-60,480,17
4110,59,-281,-213,-141,486,43
4115,50,-257,-221,-246,457,65
4120,32,-238,-215,-344,402,87
4125,18,-233,-202,-403,327,98
4130,1,-229,-185,-414,243,97
4135,-18,-229,-162,-384,160,72
4140,-35,-232,-149,-326,93,35
4145,-56,-226,-135,-247,43,-13
4150,-79,-224,-123,-157,8,-65
4155,-104,-221,-114,-67,-13,-112
4160,-126,-218,-102,9,-28,-146
4165,-147,-216,-102,57,-50,-161
4170,-158,-215,-99,67,-82,-155
4175,-161,-217,-107,34,-117,-133
4180,-148,-219,-114,-34,-146,-91
4185,-133,-227,-120,-127,-153,-40
4190,-110,-236,-121,-232,-148,19
4195,-85,-248,-120,-333,-129,77
4200,-59,-263,-109,-419,-109,133
4205,-28,-279,-106,-483,-92,185
4210,-2,-291,-105,-527,-85,230
4215,28,-302,-109,-565,-85,268
4220,56,-310,-110,-601,-92,290
4225,75,-313,-113,-631,-100,301
4230,78,-316,-110,-639,-96,305
4235,74,-313,-106,-606,-81,316
4240,61,-303,-98,-524,-57,339
4245,50,-291,-98,-405,-34,367
4250,39,-271,-106,-279,-20,394
4255,25,-251,-108,-170,-20,420
4260,7,-230,-108,-89,-28,448
4265,0,-213,-103,-29,-34,477
4270,-13,-200,-97,13,-30,502
4275,-30,-193,-94,40,-13,527
4280,-40,-189,-84,53,6,548
4285,-52,-186,-80,48,27,565
4290,-61,-186,-78,32,42,585
4295,-63,-190,-71,-1,53,591
4300,-63,-190,-68,-48,57,587
4305,-59,-194,-65,-116,57,583
4310,-56,-204,-62,-189,54,581
4315,-42,-213,-61,-258,53,609
4320,-37,-229,-58,-279,53,676
4325,-36,-237,-63,-241,44,722
4330,-36,-238,-67,-183,35,694
4335,-32,-233,-69,-156,45,631
4340,-29,-231,-65,-159,67,584
4345,-24,-238,-60,-156,90,571
4350,-16,-238,-62,-140,112,589
4355,-14,-245,-62,-119,135,618
4360,-15,-245,-61,-101,157,645
4365,-17,-244,-57,-86,181,666
4370,-21,-242,-52,-75,209,674
4375,-25,-237,-56,-67,236,672
4380,-27,-232,-52,-56,265,662
4385,-34,-232,-53,-42,287,651
4390,-34,-223,-52,-35,312,632
4395,-37,-222,-48,-32,332,607
4400,-34,-216,-52,-24,345,586
4405,-43,-207,-52,-21,350,548
4410,-44,-209,-50,-19,356,522
4415,-44,-199,-46,-16,355,498
4420,-52,-197,-50,-12,349,469
4425,-52,-190,-49,-8,343,452
4430,-52,-187,-48,-4,331,438
4435,-53,-187,-52,-7,310,416
4440,-56,-188,-54,-11,284,393
4445,-57,-186,-57,-23,257,368
4450,-59,-188,-56,-42,232,345
4455,-57,-193,-56,-60,215,322
4460,-51,-205,-54,-80,201,306
4465,-55,-206,-58,-97,192,282
4470,-55,-214,-53,-106,181,250
4475,-54,-219,-57,-111,169,217
4480,-53,-223,-55,-112,160,190
4485,-53,-226,-57,-114,155,168
4490,-49,-227,-60,-116,150,147
4495,-48,-224,-65,-120,151,130
4500,-44,-227,-63,-122,158,120
4505,-43,-227,-58,-125,173,109
4510,-37,-233,-57,-125,194,96
4515,-38,-229,-55,-119,218,82
4520,-33,-229,-51,-104,241,67
4525,-30,-233,-57,-88,271,59
4530,-27,-234,-54,-71,299,48
4535,-27,-241,-54,-56,322,36
4540,-27,-242,-52,-41,346,32
4545,-28,-245,-52,-24,374,35
4550,-31,-247,-51,-9,398,32
4555,-32,-250,-48,7,412,31
4560,-32,-252,-44,25,425,26
4565,-32,-256,-44,47,431,22
4570,-37,-256,-46,72,437,16
4575,-36,-257,-34,102,445,11
4580,-42,-259,-30,133,448,7
4585,-47,-257,-30,161,444,3
4590,-51,-259,-27,186,432,0
4595,-55,-258,-29,204,418,-1
4600,-59,-252,-30,216,404,-1
4605,-63,-252,-32,225,397,1
4610,-63,-249,-32,230,386,5
4615,-63,-247,-32,226,380,8
4620,-67,-245,-32,216,382,9
4625,-64,-247,-35,200,386,13
4630,-60,-247,-31,179,397,9
4635,-62,-253,-29,156,416,0
4640,-58,-248,-25,127,434,-15
4645,-53,-252,-28,95,445,-33
4650,-52,-256,-32,64,449,-52
4655,-51,-257,-43,31,447,-68
4660,-54,-257,-56,-7,441,-82
4665,-52,-263,-67,-54,424,-94
4670,-54,-260,-79,-105,395,-96
4675,-40,-260,-85,-169,368,-100
4680,-56,-268,-97,-244,346,-105
4685,-62,-278,-99,-318,329,-106
4690,-68,-292,-96,-379,318,-103
4695,-74,-305,-89,-403,296,-92
4700,-81,-321,-85,-391,267,-76
4705,-96,-333,-84,-360,230,-51
4710,-100,-347,-86,-321,185,-34
4715,-100,-356,-99,-284,158,-19
4720,-90,-361,-101,-270,143,5
4725,-83,-358,-118,-275,140,25
4730,-71,-355,-130,-293,151,32
4735,-62,-347,-139,-311,173,21
4740,-53,-330,-157,-331,197,-6
4745,-38,-312,-166,-344,224,-48
4750,-33,-294,-173,-360,251,-95
4755,-21,-271,-174,-377,276,-140
4760,-20,-254,-176,-387,297,-179
4765,-19,-247,-176,-386,312,-212
4770,-22,-241,-172,-371,326,-239
4775,-28,-233,-175,-349,339,-258
4780,-33,-232,-173,-331,347,-264
4785,-42,-233,-177,-316,350,-261
4790,-48,-234,-174,-307,344,-251
4795,-59,-231,-175,-307,336,-226
4800,-62,-238,-175,-316,329,-192
4805,-67,-239,-180,-337,328,-158
4810,-66,-243,-175,-364,332,-131
4815,-64,-247,-174,-383,340,-109
4820,-64,-248,-176,-384,348,-96
4825,-54,-253,-176,-372,361,-93
4830,-47,-253,-179,-348,384,-97
4835,-40,-252,-177,-319,414,-105
4840,-31,-250,-179,-285,446,-112
4845,-24,-247,-176,-249,467,-121
4850,-20,-240,-173,-214,472,-129
4855,-16,-238,-162,-184,461,-130
4860,-11,-235,-152,-151,439,-125
4865,-8,-233,-145,-113,410,-115
4870,-5,-231,-134,-75,377,-105
4875,-4,-233,-131,-38,338,-96
4880,-5,-233,-128,-5,304,-87
4885,-9,-235,-129,23,277,-82
4890,-14,-237,-123,47,261,-78
4895,-24,-241,-127,65,253,-75
4900,-26,-241,-128,76,247,-79
4905,-32,-240,-129,80,244,-88
4910,-33,-241,-122,82,237,-106
4915,-41,-242,-121,86,231,-132
4920,-45,-240,-115,91,227,-156
4925,-44,-236,-115,100,225,-179
4930,-42,-234,-111,108,224,-205
4935,-43,-232,-111,122,223,-233
4940,-39,-226,-106,140,227,-260
4945,-39,-219,-109,157,233,-288
4950,-34,-215,-107,173,241,-313
4955,-30,-207,-109,184,248,-340
4960,-28,-206,-109,190,257,-360
4965,-21,-202,-106,191,265,-376
4970,-20,-201,-100,188,273,-392
4975,-12,-199,-103,182,284,-405
4980,-12,-200,-96,171,294,-416
4985,-7,-203,-95,156,305,-422
4990,-6,-206,-91,146,314,-426
4995,-3,-209,-88,138,325,-428
5000,2,-212,-97,129,336,-434
5005,7,-211,-82,122,345,-435
5010,2,-225,-94,119,350,-435
5015,1,-222,-98,120,355,-436
5020,1,-209,-81,120,360,-441
5025,-2,-217,-89,119,368,-441
5030,1,-216,-84,121,374,-438
5035,-6,-204,-81,121,378,-438
5040,-11,-197,-75,120,380,-445
5045,-3,-196,-78,124,385,-447
5050,-4,-194,-84,127,392,-447
5055,-8,-187,-83,132,402,-447
5060,-5,-184,-82,133,414,-450
5065,-7,-179,-82,134,426,-450
5070,-2,-178,-80,133,437,-446
5075,1,-163,-67,129,444,-445
5080,1,-162,-75,124,444,-445
5085,5,-180,-69,116,438,-438
5090,13,-165,-77,105,424,-428
5095,-2,-193,-76,81,405,-439
5100,-5,-180,-66,60,389,-428
5105,-13,-203,-62,47,380,-389
5110,13,-178,-67,40,374,-366
5115,9,-191,-96,33,372,-354
5120,1,-197,-62,18,367,-341
5125,3,-197,-88,-5,363,-327
5130,0,-201,-83,-29,359,-317
5135,-2,-201,-81,-48,355,-314
5140,-4,-205,-81,-57,347,-307
5145,0,-206,-82,-60,334,-282
5150,-4,-216,-66,-62,309,-241
5155,-5,-200,-85,-66,278,-197
5160,-9,-221,-77,-73,242,-181
5165,-4,-220,-78,-76,214,-172
5170,-13,-223,-79,-81,189,-159
5175,-5,-233,-79,-98,155,-179
5180,-2,-217,-77,-101,141,-151
5185,-1,-230,-80,-102,123,-117
5190,0,-228,-67,-103,105,-97
5195,-3,-231,-79,-96,85,-86
5200,-1,-237,-76,-85,65,-74
5205,5,-229,-67,-69,48,-68
5210,1,-233,-68,-48,29,-60
5215,1,-232,-69,-28,12,-47
5220,4,-234,-70,-8,-6,-34
5225,6,-230,-63,10,-16,-26
5230,14,-231,-72,26,-24,-19
5235,20,-218,-68,41,-28,-12
5240,14,-225,-71,55,-26,-6
5245,12,-232,-57,68,-23,-3
5250,16,-238,-67,76,-24,1
5255,29,-231,-58,81,-25,8
5260,21,-242,-58,79,-30,16
5265,20,-234,-53,72,-32,20
5270,25,-231,-82,59,-37,21
5275,33,-240,-66,42,-39,15
5280,17,-239,-63,23,-38,15
5285,12,-238,-61,8,-36,15
5290,10,-235,-57,0,-37,15
5295,7,-240,-58,-1,-37,17
5300,12,-234,-58,7,-43,15
5305,4,-237,-62,19,-53,11
5310,4,-238,-42,33,-63,6
5315,8,-240,-59,48,-77,-1
5320,-16,-258,-57,66,-92,-5
5325,10,-254,-41,85,-108,-9
5330,3,-273,-39,104,-124,-12
5335,-6,-268,-54,122,-140,-12
5340,7,-267,-50,139,-156,-10
5345,5,-275,-46,152,-171,-10
5350,4,-269,-40,166,-184,-6
5355,12,-271,-40,177,-193,-3
5360,11,-269,-41,191,-199,-5
5365,14,-270,-41,208,-202,-8
5370,16,-269,-40,227,-204,-10
5375,20,-269,-36,248,-202,-17
5380,23,-266,-37,267,-200,-22
5385,31,-262,-43,286,-198,-28
5390,29,-260,-31,303,-199,-37
5395,29,-251,-27,315,-208,-48
5400,34,-255,-30,321,-218,-51
5405,26,-254,-21,318,-234,-51
5410,30,-256,-36,307,-251,-52
5415,22,-251,-22,286,-268,-46
5420,20,-249,-30,252,-282,-37
5425,23,-253,-29,213,-291,-30
5430,33,-252,-34,170,-299,-24
5435,17,-261,-38,123,-301,-24
5440,18,-262,-41,77,-300,-26
5445,13,-273,-41,35,-296,-31
5450,10,-278,-42,-5,-285,-41
5455,23,-283,-53,-49,-270,-53
5460,17,-292,-49,-91,-256,-58
5465,17,-294,-56,-111,-233,-46
5470,19,-289,-71,-118,-209,-25
5475,22,-303,-54,-109,-189,-12
5480,23,-313,-60,-91,-169,-10
5485,23,-310,-58,-61,-152,-6
5490,23,-310,-62,-16,-131,2
5495,27,-308,-65,30,-109,12
5500,26,-301,-73,80,-77,31
5505,27,-296,-82,125,-41,53
5510,25,-289,-87,160,-1,76
5515,25,-281,-100,183,40,101
5520,32,-277,-106,189,81,120
5525,28,-272,-119,176,128,132
5530,34,-273,-131,147,177,138
5535,36,-271,-139,102,222,132
5540,40,-277,-147,53,263,120
5545,43,-294,-146,7,289,108
5550,42,-301,-143,-32,305,83
5555,37,-306,-146,-71,317,57
5560,32,-310,-150,-100,328,37
5565,23,-304,-156,-120,330,27
5570,6,-289,-170,-127,323,27
5575,0,-273,-177,-122,306,33
5580,-7,-251,-180,-117,277,43
5585,-21,-232,-186,-112,239,51
5590,-32,-216,-186,-100,194,55
5595,-44,-198,-182,-76,151,60
5600,-58,-189,-177,-48,114,62
5605,-65,-180,-170,-11,86,66
5610,-70,-175,-166,30,67,68
5615,-73,-177,-152,71,52,67
5620,-76,-178,-146,111,44,61
5625,-74,-181,-140,135,37,53
5630,-66,-188,-135,147,37,38
5635,-59,-197,-137,135,42,23
5640,-50,-210,-134,92,49,13
5645,-37,-220,-137,26,64,10
5650,-29,-231,-134,-53,84,13
5655,-17,-244,-138,-137,113,23
5660,-8,-245,-135,-216,148,38
5665,0,-255,-129,-284,187,58
5670,9,-261,-127,-333,227,80
5675,14,-265,-122,-357,266,103
5680,20,-268,-121,-361,296,126
5685,20,-269,-121,-348,314,148
5690,23,-271,-122,-329,322,173
5695,22,-268,-124,-301,319,198
5700,20,-263,-119,-262,314,220
5705,17,-259,-115,-212,306,243
5710,10,-256,-114,-157,298,262
5715,3,-249,-109,-103,286,280
5720,0,-247,-109,-51,275,295
5725,-8,-246,-107,-8,264,308
5730,-13,-246,-103,24,253,319
5735,-20,-240,-102,46,241,328
5740,-23,-238,-104,61,234,338
5745,-26,-239,-99,70,231,348
5750,-28,-241,-94,75,226,361
5755,-27,-241,-89,77,223,377
5760,-23,-243,-87,79,216,406
5765,-19,-245,-85,87,212,446
5770,-20,-251,-80,100,212,464
5775,-14,-254,-77,123,220,456
5780,-12,-251,-79,146,236,435
5785,-9,-252,-78,166,256,421
5790,-5,-250,-75,179,275,423
5795,0,-253,-77,182,290,437
5800,0,-251,-73,177,301,456
5805,-4,-244,-79,163,310,479
5810,-3,-245,-74,145,315,507
5815,-7,-242,-72,133,323,534
5820,-8,-235,-71,130,330,562
5825,-11,-232,-65,135,335,590
5830,-22,-225,-57,148,338,617
5835,-23,-223,-57,166,341,638
5840,-33,-218,-54,185,345,650
5845,-36,-210,-50,202,347,656
5850,-36,-210,-49,213,352,656
5855,-41,-211,-54,219,357,650
5860,-33,-211,-52,214,363,637
5865,-35,-212,-51,205,369,612
5870,-38,-210,-51,194,375,586
5875,-29,-212,-51,183,383,555
5880,-32,-208,-49,172,389,518
5885,-29,-209,-49,159,393,483
5890,-30,-209,-45,152,401,444
5895,-24,-206,-46,153,411,407
5900,-17,-208,-47,161,423,375
5905,-17,-204,-49,169,439,342
5910,-18,-202,-46,180,454,307
5915,-17,-199,-49,192,466,276
5920,-17,-196,-51,200,472,252
5925,-14,-197,-48,209,476,230
5930,-18,-198,-45,213,480,207
5935,-17,-197,-47,217,486,186
5940,-19,-196,-45,218,496,167
5945,-20,-199,-45,214,504,151
5950,-20,-200,-44,203,512,132
5955,-17,-206,-44,192,520,110
5960,-19,-209,-40,180,529,89
5965,-20,-211,-36,168,535,65
5970,-23,-213,-36,157,539,44
5975,-31,-214,-36,148,538,28
5980,-30,-216,-37,140,534,17
5985,-35,-220,-35,130,528,9
5990,-34,-218,-30,125,522,-2
5995,-37,-222,-33,130,517,-16
6000,-37,-222,-34,142,509,-30
6005,-38,-225,-31,159,499,-44
6010,-41,-221,-31,172,484,-57
6015,-43,-219,-30,183,470,-67
6020,-42,-220,-30,188,459,-76
6025,-47,-215,-34,190,450,-78
6030,-45,-215,-33,183,443,-80
6035,-43,-212,-33,173,436,-82
6040,-40,-214,-36,160,432,-81
6045,-39,-217,-38,145,429,-79
6050,-39,-221,-41,130,429,-77
6055,-37,-224,-42,113,431,-73
6060,-34,-229,-46,95,433,-73
6065,-32,-235,-44,78,436,-75
6070,-30,-246,-42,68,441,-79
6075,-27,-251,-41,65,451,-85
6080,-20,-263,-41,67,460,-95
6085,-21,-275,-37,77,463,-101
6090,-18,-273,-35,89,455,-111
6095,-15,-276,-31,107,436,-118
6100,-22,-272,-35,125,411,-120
6105,-23,-268,-37,141,389,-116
6110,-28,-263,-43,153,371,-110
6115,-31,-257,-42,160,361,-99
6120,-33,-250,-42,164,353,-88
6125,-37,-249,-34,169,351,-78
6130,-42,-245,-37,179,350,-70
6135,-47,-243,-36,189,350,-58
6140,-47,-245,-34,192,349,-52
6145,-48,-246,-38,184,349,-41
6150,-46,-253,-40,163,350,-25
6155,-44,-258,-44,133,346,-8
6160,-42,-273,-48,92,335,15
6165,-37,-287,-53,43,318,43
6170,-36,-304,-57,-9,298,80
6175,-37,-323,-53,-54,268,102
6180,-41,-342,-55,-70,225,103
6185,-47,-352,-57,-58,187,106
6190,-51,-363,-58,-26,157,111
6195,-55,-367,-60,12,133,118
6200,-57,-370,-66,55,114,120
6205,-61,-365,-68,106,94,112
6210,-61,-359,-67,158,71,90
6215,-63,-347,-76,207,46,56
6220,-64,-335,-84,244,19,8
6225,-72,-318,-87,260,-5,-45
6230,-76,-304,-98,249,-23,-92
6235,-80,-296,-100,215,-29,-128
6240,-84,-286,-103,170,-25,-153
6245,-88,-289,-103,128,-11,-172
6250,-83,-289,-103,100,5,-186
6255,-77,-296,-106,83,16,-200
6260,-69,-300,-113,75,21,-216
6265,-63,-301,-119,67,17,-231
6270,-53,-297,-130,56,6,-241
6275,-46,-290,-147,38,-4,-241
6280,-34,-282,-153,17,-1,-230
6285,-22,-265,-162,-4,21,-214
6290,-11,-250,-172,-24,69,-193
6295,3,-234,-184,-46,133,-171
6300,24,-208,-184,-69,209,-148
6305,31,-193,-185,-92,287,-130
6310,47,-179,-182,-110,359,-115
6315,62,-166,-175,-113,417,-108
6320,77,-159,-167,-99,462,-106
6325,87,-161,-157,-71,497,-108
6330,92,-163,-146,-35,530,-110
6335,93,-176,-141,6,560,-104
6340,88,-188,-131,42,586,-90
6345,80,-206,-126,59,604,-68
6350,63,-220,-128,42,611,-38
6355,47,-236,-132,-12,604,-6
6360,28,-249,-129,-93,590,22
6365,1,-261,-128,-182,570,41
6370,-12,-273,-127,-269,549,57
6375,-28,-282,-127,-348,534,73
6380,-38,-290,-131,-415,532,86
6385,-52,-287,-129,-464,540,95
6390,-58,-284,-130,-490,549,94
6395,-55,-282,-121,-487,556,83
6400,-54,-275,-116,-454,558,64
6405,-48,-266,-115,-393,557,34
6410,-39,-257,-114,-306,554,-4
6415,-29,-250,-105,-206,552,-45
6420,-16,-248,-97,-106,545,-86
6425,-10,-244,-98,-15,535,-122
6430,0,-246,-97,54,522,-147
6435,1,-243,-103,92,504,-160
6440,5,-244,-98,97,484,-160
6445,7,-248,-98,78,459,-153
6450,5,-249,-96,44,436,-137
6455,3,-254,-92,6,409,-118
6460,-3,-256,-91,-33,386,-101
6465,-10,-259,-89,-59,363,-81
6470,-18,-260,-88,-84,335,-67
6475,-21,-263,-83,-101,299,-64
6480,-27,-264,-86,-109,253,-67
6485,-32,-266,-82,-111,211,-78
6490,-37,-267,-82,-103,159,-86
6495,-41,-270,-82,-87,108,-104
6500,-48,-266,-80,-68,56,-125
6505,-46,-262,-74,-38,4,-158
6510,-41,-260,-69,-7,-38,-187
6515,-38,-255,-65,27,-71,-213
6520,-33,-249,-62,57,-92,-242
6525,-24,-241,-63,83,-106,-282
6530,-20,-236,-60,97,-126,-325
6535,-5,-220,-58,98,-156,-378
6540,5,-209,-61,78,-191,-446
6545,11,-210,-59,64,-214,-452
6550,21,-208,-61,58,-236,-442
6555,15,-203,-63,66,-263,-445
6560,19,-207,-61,83,-294,-464
6565,19,-204,-64,107,-320,-486
6570,28,-202,-66,124,-345,-475
6575,29,-206,-64,111,-361,-419
6580,24,-214,-61,72,-375,-364
6585,20,-216,-65,36,-386,-329
6590,16,-221,-68,10,-394,-310
6595,14,-231,-67,-6,-400,-290
6600,12,-231,-73,-14,-402,-267
6605,14,-237,-77,-15,-403,-243
6610,8,-232,-73,-14,-402,-222
6615,6,-232,-76,-8,-400,-202
6620,10,-232,-72,4,-399,-186
6625,7,-232,-61,23,-395,-175
6630,15,-232,-60,54,-386,-172
6635,18,-228,-56,97,-371,-175
6640,15,-228,-57,148,-357,-177
6645,19,-225,-51,202,-347,-179
6650,19,-226,-55,254,-346,-176
6655,22,-224,-51,302,-357,-173
6660,18,-215,-47,343,-382,-165
6665,20,-212,-48,371,-418,-156
6670,15,-209,-55,386,-456,-147
6675,9,-201,-50,386,-493,-134
6680,4,-197,-50,371,-521,-119
6685,2,-198,-48,352,-538,-100
6690,0,-197,-49,339,-552,-78
6695,0,-197,-44,334,-564,-58
6700,0,-199,-40,335,-580,-40
6705,0,-198,-37,339,-602,-26
6710,0,-202,-34,349,-627,-17
6715,0,-204,-29,361,-653,-7
6720,0,-208,-28,374,-678,1
6725,1,-211,-25,388,-701,10
6730,0,-211,-20,398,-719,23
6735,4,-208,-25,398,-734,38
6740,0,-207,-23,383,-748,57
6745,0,-203,-25,359,-761,77
6750,0,-197,-22,337,-774,94
6755,3,-191,-18,327,-780,109
6760,5,-191,-18,334,-786,122
6765,4,-185,-20,358,-785,134
6770,7,-181,-17,391,-784,144
6775,8,-178,-14,428,-782,152
6780,9,-183,-17,461,-782,161
6785,11,-185,-8,492,-779,170
6790,18,-189,-11,515,-765,181
6795,20,-200,-12,526,-741,197
6800,23,-206,-11,520,-707,215
6805,26,-218,-11,505,-667,237
6810,29,-230,-14,476,-619,259
6815,29,-240,-10,444,-568,276
6820,33,-253,-8,412,-515,288
6825,32,-265,-10,389,-464,297
6830,31,-273,-10,381,-418,304
6835,29,-278,-4,391,-381,307
6840,31,-284,-2,415,-355,310
6845,30,-290,-1,449,-331,312
6850,31,-287,2,492,-307,311
6855,34,-283,2,541,-284,306
6860,35,-281,-1,597,-265,292
6865,36,-272,-11,645,-246,269
6870,32,-265,-17,672,-228,241
6875,25,-254,-25,677,-200,215
6880,21,-247,-35,654,-159,190
6885,15,-239,-35,604,-101,166
6890,11,-239,-41,538,-46,139
6895,6,-235,-51,470,23,113
6900,5,-246,-50,412,74,87
6905,1,-261,-47,384,100,65
6910,4,-281,-39,399,100,52
6915,8,-299,-30,460,97,38
6920,13,-315,-23,552,115,25
6925,24,-331,-20,659,150,14
6930,38,-340,-15,771,198,5
6935,46,-347,-18,886,248,-8
6940,56,-349,-33,995,300,-18
6945,61,-337,-51,1081,359,-23
6950,62,-322,-77,1114,426,-20
6955,61,-310,-100,1081,492,-10
6960,58,-297,-122,999,551,3
6965,53,-288,-140,900,609,16
6970,50,-288,-150,805,662,21
6975,36,-280,-166,720,689,10
6980,21,-268,-182,643,664,-22
6985,6,-259,-201,562,574,-72
6990,-13,-245,-216,483,430,-141
6995,-32,-225,-232,412,241,-219
7000,-57,-201,-244,365,16,-309
7005,-78,-166,-257,334,-222,-404
7010,-102,-127,-251,309,-450,-501
7015,-128,-84,-239,278,-649,-597
7020,-152,-41,-209,252,-806,-688
7025,-169,-4,-170,252,-901,-768
7030,-175,27,-120,284,-934,-830
7035,-172,52,-77,329,-905,-868
7040,-154,63,-38,367,-815,-872
7045,-125,57,-14,375,-670,-843
7050,-86,32,4,335,-491,-793
7055,-50,-6,16,244,-305,-735
7060,-24,-47,17,137,-137,-663
7065,0,-86,2,54,4,-563
7070,31,-125,-20,6,134,-432
7075,61,-159,-45,-34,268,-285
7080,87,-184,-70,-78,389,-143
7085,113,-200,-91,-124,478,-27
7090,129,-207,-102,-168,524,62
7095,131,-207,-113,-211,537,119
7100,125,-201,-105,-242,533,147
7105,104,-194,-86,-236,529,147
7110,86,-181,-72,-174,535,115
7115,76,-170,-43,-76,562,55
7120,72,-155,-28,31,618,-28
7125,67,-144,-19,120,726,-131
7130,61,-137,-2,185,876,-239
7135,57,-138,11,240,1046,-335
7140,49,-147,15,301,1216,-411
7145,41,-158,3,377,1368,-465
7150,39,-167,-7,451,1495,-481
7155,31,-174,-20,501,1595,-456
7160,22,-184,-33,528,1671,-389
7165,11,-189,-54,525,1723,-282
7170,0,-198,-58,502,1746,-139
7175,-20,-207,-69,462,1741,27
7180,-26,-213,-77,404,1712,204
7185,-46,-219,-71,336,1665,379
7190,-58,-221,-65,283,1592,548
7195,-67,-225,-57,261,1504,695
7200,-86,-225,-47,287,1420,817
7205,-103,-220,-36,348,1355,904
7210,-115,-203,-25,447,1312,966
7215,-120,-177,-23,556,1279,1003
7220,-117,-142,-22,653,1257,1019
7225,-112,-106,-23,714,1240,1016
7230,-105,-77,-25,738,1226,990
7235,-87,-59,-18,736,1208,954
7240,-74,-51,-11,735,1173,906
7245,-61,-53,-14,749,1110,855
7250,-46,-59,-19,757,1020,803
7255,-44,-75,-26,752,930,763
7260,-41,-96,-29,755,875,748
7265,-44,-120,-32,783,841,766
7270,-44,-154,-39,843,800,805
7275,-60,-195,-25,955,763,863
7280,-57,-228,-14,1120,745,929
7285,-57,-253,1,1312,729,993
7290,-49,-260,11,1484,705,1047
7295,-36,-249,1,1598,671,1086
7300,-23,-219,-19,1643,643,1118
7305,-3,-186,-38,1641,613,1129
7310,13,-163,-43,1620,582,1118
7315,38,-147,-25,1606,547,1077
7320,63,-144,-1,1624,508,987
7325,73,-124,25,1757,483,851
7330,74,-101,32,1994,503,689
7335,67,-73,42,2202,554,550
7340,55,-59,58,2291,652,446
7345,30,-58,46,2285,722,346
7350,-1,-72,35,2224,753,269
7355,-49,-101,8,2158,740,239
7360,-82,-151,-23,2093,686,256
7365,-105,-221,-64,2056,642,331
7370,-135,-286,-109,2098,613,450
7375,-159,-341,-141,2205,561,608
7380,-158,-389,-151,2367,450,796
7385,-143,-426,-154,2546,280,984
7390,-123,-446,-141,2701,107,1147
7395,-91,-448,-138,2825,-20,1262
7400,-71,-443,-114,2922,-113,1320
7405,-38,-412,-126,2999,-208,1320
7410,-9,-374,-119,2972,-276,1277
7415,12,-333,-91,2799,-298,1192
7420,16,-319,-44,2576,-268,1118
7425,3,-310,-2,2408,-193,1012
7430,-11,-311,34,2358,-67,872
7435,-17,-327,58,2420,83,734
7440,-18,-351,93,2585,234,609
7445,-41,-379,127,2793,340,511
7450,-66,-415,172,2946,399,450
7455,-86,-450,186,2971,424,377
7460,-134,-491,191,2838,488,326
7465,-182,-545,227,2587,603,353
7470,-198,-606,252,2327,717,432
7475,-231,-666,281,2131,781,479
7480,-298,-727,318,2037,749,496
7485,-361,-792,371,2087,587,519
7490,-442,-826,423,2239,328,515
7495,-435,-821,450,2448,54,513
7500,-410,-782,471,2662,-112,478
7505,-392,-728,496,2817,-171,434
7510,-375,-676,533,2922,-194,417
7515,-355,-631,567,3029,-229,406
7520,-319,-567,571,3162,-309,396
7525,-259,-486,552,3265,-425,392
7530,-174,-392,506,3264,-546,386
7535,-78,-288,465,3127,-612,366
7540,8,-208,437,2950,-545,410
7545,90,-142,404,2807,-393,492
7550,161,-94,363,2698,-212,574
7555,214,-69,322,2679,-64,615
7560,232,-51,289,2815,30,583
7565,207,-37,269,3075,120,500
7570,158,-15,258,3351,252,414
7575,81,9,236,3590,424,365
7580,5,18,221,3741,594,367
7585,-46,21,203,3748,743,402
7590,-73,25,197,3613,858,425
7595,-83,19,193,3363,932,394
7600,-87,-3,205,3047,970,302
7605,-78,-28,210,2737,971,185
7610,-67,-55,217,2446,942,82
7615,-47,-93,226,2121,897,14
7620,-27,-135,226,1783,883,-15
7625,-7,-173,189,1492,887,-17
7630,10,-199,134,1267,905,19
7635,18,-206,89,1131,918,96
7640,16,-207,54,1094,936,204
7645,1,-188,46,1169,972,343
7650,-27,-174,59,1301,1045,510
7655,-67,-142,76,1461,1112,668
7660,-106,-111,98,1602,1133,804
7665,-134,-58,122,1679,1102,892
7670,-153,-4,143,1655,1046,935
7675,-171,39,160,1546,997,938
7680,-176,72,167,1422,935,899
7685,-180,106,170,1329,855,850
7690,-171,125,160,1280,745,818
7695,-173,133,158,1297,619,786
7700,-176,128,153,1372,471,766
7705,-176,100,152,1478,312,741
7710,-172,79,153,1588,190,702
7715,-177,51,150,1692,112,655
7720,-191,25,148,1773,46,608
7725,-185,7,145,1824,-26,573
7730,-179,-12,137,1837,-69,532
7735,-182,-7,135,1818,-101,511
7740,-188,7,133,1750,-155,529
7745,-192,28,145,1627,-241,584
7750,-202,55,147,1482,-358,647
7755,-215,98,152,1341,-493,698
7760,-230,135,163,1187,-625,746
7765,-256,166,177,1060,-757,789
7770,-280,187,187,908,-887,819
7775,-289,193,201,780,-997,819
7780,-299,190,212,700,-1098,766
7785,-317,178,230,673,-1206,676
7790,-306,162,237,671,-1310,562
7795,-283,146,253,659,-1418,418
7800,-272,131,279,650,-1479,268
7805,-270,122,300,656,-1500,158
7810,-266,112,328,666,-1496,77
7815,-262,105,347,635,-1491,13
7820,-249,89,363,544,-1499,-68
7825,-211,81,350,433,-1499,-166
7830,-175,72,338,332,-1441,-260
7835,-179,67,327,273,-1355,-329
7840,-191,69,319,217,-1340,-350
7845,-148,72,303,122,-1384,-343
7850,-100,63,289,-2,-1371,-367
7855,-81,48,277,-78,-1303,-429
7860,-74,37,256,-73,-1251,-487
7865,-73,22,236,-35,-1236,-517
7870,-69,21,223,7,-1248,-512
7875,-52,13,215,61,-1253,-493
7880,-57,13,209,115,-1232,-473
7885,-61,13,204,163,-1199,-446
7890,-63,15,200,193,-1168,-410
7895,-64,19,208,192,-1130,-361
7900,-65,19,207,183,-1097,-303
7905,-60,18,206,167,-1078,-251
7910,-46,27,204,127,-1075,-210
7915,-33,26,213,41,-1055,-172
7920,-19,21,225,-36,-1030,-136
7925,-1,15,229,-70,-1009,-100
7930,9,11,231,-71,-985,-77
7935,22,7,226,-58,-960,-69
7940,38,0,226,-45,-939,-76
7945,46,-2,225,-25,-912,-91
7950,44,-4,221,15,-877,-102
7955,40,-5,215,62,-846,-99
7960,47,-6,214,93,-813,-92
7965,55,-4,219,116,-767,-108
7970,45,2,226,141,-711,-146
7975,28,2,232,166,-667,-160
7980,39,4,239,193,-634,-153
7985,34,8,250,216,-592,-172
7990,12,10,251,231,-561,-207
7995,28,13,245,229,-552,-217
8000,23,15,252,200,-522,-230
8005,17,18,252,178,-504,-236
8010,31,14,244,156,-512,-238
8015,37,11,248,122,-512,-252
8020,37,12,256,85,-507,-265
8025,37,11,267,77,-505,-263
8030,52,19,267,95,-509,-247
8035,51,10,278,103,-472,-195
8040,56,3,279,117,-457,-170
8045,62,8,263,113,-452,-166
8050,47,-4,273,78,-421,-147
8055,50,-6,261,78,-452,-193
8060,46,-1,246,106,-460,-232
8065,44,0,236,124,-427,-241
8070,40,3,230,125,-372,-233
8075,43,2,229,126,-316,-215
8080,40,6,228,130,-282,-196
8085,40,5,232,143,-275,-177
8090,43,3,236,168,-271,-163
8095,45,1,248,188,-256,-147
8100,53,-2,255,204,-221,-115
8105,56,0,261,205,-169,-57
8110,56,5,255,174,-121,15
8115,46,-2,250,96,-81,89
8120,34,4,242,34,-116,65
8125,18,23,231,-30,-182,10
8130,5,34,225,-117,-208,6
8135,-7,41,223,-219,-198,45
8140,-24,44,221,-304,-191,94
8145,-31,27,230,-353,-190,142
8150,-30,9,229,-350,-210,169
8155,-33,-10,233,-314,-224,190
8160,-31,-38,233,-249,-227,218
8165,-23,-56,230,-178,-222,247
8170,-11,-71,225,-127,-224,258
8175,-1,-82,216,-108,-227,258
8180,9,-80,212,-120,-238,246
8185,17,-78,212,-160,-241,235
8190,23,-70,215,-200,-232,221
8195,27,-58,224,-224,-214,210
8200,27,-44,238,-222,-188,196
8205,34,-41,254,-194,-154,185
8210,38,-33,267,-139,-115,168
8215,44,-23,278,-64,-73,147
8220,50,-13,294,19,-30,124
8225,57,-2,296,109,13,102
8230,48,13,273,180,83,77
8235,36,31,263,209,218,89
8240,39,30,258,214,342,119
8245,33,36,253,197,403,131
8250,26,16,268,174,407,122
8255,15,2,274,154,393,110
8260,-4,-16,262,141,390,101
8265,-21,-14,237,99,422,123
8270,-22,-29,241,68,425,144
8275,0,-36,249,70,343,109
8280,8,-34,251,90,240,46
8285,6,-30,232,103,192,5
8290,3,-22,218,79,195,2
8295,1,-7,213,24,210,4
8300,-8,10,217,-25,209,1
8305,-12,20,218,-74,195,-9
8310,-18,31,224,-101,174,-19
8315,-21,28,225,-102,156,-22
8320,-27,25,229,-84,148,-25
8325,-26,18,231,-54,133,-32
8330,-29,11,234,-29,119,-41
8335,-28,7,238,-17,101,-40
8340,-29,6,236,-24,84,-35
8345,-26,0,239,-42,75,-33
8350,-25,-11,241,-57,73,-33
8355,-23,-19,245,-67,77,-36
8360,-14,-22,245,-72,80,-35
8365,-14,-25,249,-68,83,-35
8370,-12,-23,255,-60,78,-33
8375,-4,-22,255,-49,72,-34
8380,0,-19,255,-37,66,-39
8385,-6,-15,254,-23,61,-44
8390,-4,-10,252,-12,58,-47
8395,-5,-5,254,-3,53,-52
8400,-6,-1,251,4,51,-55
8405,-8,4,246,12,49,-52
8410,-8,8,246,17,50,-49
8415,-10,9,246,15,53,-51
8420,-10,9,246,10,54,-53
8425,-9,8,247,6,55,-56
8430,-12,6,244,6,60,-55
8435,-13,7,244,8,69,-52
8440,-15,8,245,14,81,-45
8445,-16,3,247,17,90,-41
8450,-13,0,249,15,95,-38
8455,-10,-1,247,15,102,-33
8460,-15,0,251,33,128,-9
8465,-14,-3,248,46,145,6
8470,-15,0,246,46,144,7
8475,-13,4,244,45,144,8
8480,-13,7,244,38,150,14
8485,-19,6,246,29,158,21
8490,-16,4,244,21,163,29
8495,-21,4,246,25,162,25
8500,-17,8,242,37,157,16
8505,-14,6,240,45,156,11
8510,-16,7,244,43,156,7
8515,-14,6,244,35,152,4
8520,-16,9,245,31,147,0
8525,-16,7,244,29,143,-4
8530,-15,7,243,28,138,-8
8535,-13,8,245,27,134,-8
8540,-13,3,241,24,132,-8
8545,-13,3,232,25,122,-11
8550,-33,4,238,69,148,-18
8555,-16,6,250,47,112,-15
8560,-13,6,246,41,86,-19
8565,-17,8,248,27,68,-21
8570,-17,8,250,18,52,-25
8575,-14,6,250,16,42,-25
8580,-14,8,245,16,31,-28
8585,-11,10,247,18,19,-30
8590,-9,7,247,19,13,-29
8595,-6,6,246,13,11,-29
8600,-7,5,246,7,10,-26
8605,-8,6,244,6,5,-24
8610,-12,4,245,-1,0,-20
8615,-8,1,246,-13,-3,-16
8620,-6,0,252,-25,-6,-13
8625,-8,0,247,-32,-6,-9
8630,-7,-2,246,-33,-6,-3
8635,-6,0,245,-28,-1,3
8640,-8,-5,243,-22,5,9
8645,-10,-5,242,-12,11,12
8650,-8,-6,242,-5,19,16
8655,-8,-6,243,4,26,17
8660,-8,-4,244,10,34,19
8665,-6,-2,240,20,45,21
8670,-5,-5,246,24,57,25
8675,-7,-4,242,28,69,30
8680,-2,0,247,25,77,31
8685,-3,-3,241,22,84,31
8690,-3,-4,244,15,91,26
8695,-6,2,244,8,92,24
8700,-7,2,244,2,93,21
8705,-4,2,248,0,90,18
8710,-6,3,247,-2,86,16
8715,-4,-1,248,-5,83,13
8720,-4,5,249,-8,79,13
8725,-9,6,249,-10,74,13
8730,-6,5,247,-12,69,15
8735,-4,4,242,-14,66,14
8740,-4,4,245,-18,67,14
8745,-5,7,244,-20,69,16
8750,-6,2,243,-23,72,19
8755,-7,5,245,-25,75,21
8760,-5,2,245,-27,73,22
8765,-7,4,247,-29,72,20
8770,-6,5,244,-27,72,22
8775,-6,3,244,-23,69,21
8780,-8,7,245,-17,64,21
8785,-4,2,243,-12,62,19
8790,-10,6,241,-10,63,16
8795,-9,5,245,-9,61,14
8800,-8,5,243,-12,61,11
8805,-5,3,242,-18,60,8
8810,-7,8,242,-22,61,4
8815,-7,6,246,-26,61,3
8820,-7,5,241,-31,63,2
8825,-7,5,242,-36,63,2
8830,-5,6,247,-40,62,2
8835,-9,8,244,-39,62,2
8840,-7,1,243,-36,59,2
8845,-10,5,249,-29,57,2
8850,-6,5,250,-20,57,3
8855,-8,4,249,-12,53,4
8860,-4,7,247,-10,52,1
8865,-8,3,246,-7,51,-2
8870,-4,5,246,-4,50,1
8875,-5,2,244,-3,53,-1
8880,-2,1,243,-2,55,-4
8885,-7,6,244,-2,59,-4
8890,-4,1,243,-1,62,-2
8895,-8,3,246,-4,67,-5
8900,-9,0,251,-7,72,-5
8905,-6,6,245,-6,75,-5
8910,-4,6,247,-7,78,-4
8915,-4,8,245,-10,79,-3
8920,-7,7,247,-11,80,-2
8925,-4,6,247,-13,79,-1
8930,-4,6,245,-11,76,-1
8935,-6,4,247,-11,73,-1
8940,-3,5,245,-7,71,-4
8945,-6,2,246,-5,69,-5
8950,-5,7,245,-5,69,-5
8955,-7,7,244,-6,67,-5
8960,-5,2,242,-7,67,-6
8965,-4,3,243,-9,66,-5
8970,-6,7,245,-9,66,-5
8975,-7,3,244,-8,65,-4
8980,-8,4,243,-9,64,-4
8985,-7,5,246,-10,62,-4
8990,-5,4,242,-10,62,-3
8995,-9,6,246,-11,63,-3
9000,-5,5,247,-9,65,-2
9005,-6,5,246,-10,65,-4
9010,-10,7,243,-8,66,-5
9015,-3,3,245,-7,69,-4
9020,-8,4,243,-5,70,-4
9025,-6,3,245,-6,70,-3
9030,-8,4,244,-7,70,-3
9035,-7,5,243,-8,71,-2
9040,-4,5,243,-9,72,-1
9045,-8,7,245,-10,71,0
9050,-8,4,244,-12,71,1
9055,-5,2,243,-14,69,2
9060,-9,7,248,-17,68,4
9065,-8,4,243,-20,66,6
9070,-8,6,246,-22,67,4
9075,-5,6,247,-24,66,5
9080,-9,6,247,-23,70,4
9085,-7,3,247,-21,72,5
9090,-5,6,247,-18,74,4
9095,-11,2,245,-15,77,5
9100,-7,4,244,-13,78,6
9105,-7,-1,246,-10,77,6
9110,-5,3,244,-6,76,6
9115,-7,4,245,-3,76,6
9120,-6,3,243,-2,75,9
9125,-9,4,245,0,75,9
9130,-5,8,245,-1,73,8
9135,-8,6,246,-2,73,7
9140,-7,8,243,-6,73,6
9145,-7,5,246,-6,75,6
9150,-7,5,247,-5,74,2
9155,-7,3,249,-2,73,0
9160,-8,5,247,0,73,-1
9165,-7,8,247,2,72,-1
9170,-8,8,243,4,73,-2
9175,-9,6,245,6,72,-4
9180,-9,5,245,7,69,-2
9185,-8,7,244,9,67,-2
9190,-7,5,242,12,66,-1
9195,-3,4,240,14,65,-1
9200,-9,7,241,14,63,-1
9205,-7,3,244,10,63,0
9210,-6,5,241,7,65,-1
9215,-5,4,243,0,66,0
9220,-10,3,248,-8,65,-1
9225,-9,3,246,-15,66,-1
9230,-7,1,243,-20,66,-2
9235,-9,-1,246,-18,66,1
9240,-10,0,251,-13,65,-1
9245,-8,3,247,-8,61,0
9250,-9,4,246,-2,60,0
9255,-9,3,243,7,60,1
9260,-10,7,244,16,60,1
9265,-9,8,247,23,65,0
9270,-6,2,245,29,68,2
9275,-6,9,246,32,72,2
9280,-4,5,244,32,78,3
9285,-5,6,242,28,80,4
9290,-4,6,248,22,81,5
9295,-5,8,246,17,83,6
9300,-6,5,243,14,83,4
9305,-3,9,243,11,83,6
9310,-5,7,242,5,83,9
9315,-7,4,241,2,82,12
9320,-5,9,247,-2,80,12
9325,-6,8,245,-4,77,12
9330,-8,8,245,-5,73,13
9335,-7,3,247,-6,73,12
9340,-7,5,245,-5,72,11
9345,-7,8,247,-4,70,10
9350,-5,6,246,-3,71,10
9355,-4,8,244,-1,72,9
9360,-5,4,247,-2,73,6
9365,-4,2,244,0,72,4
9370,-8,8,243,1,73,3
9375,-5,7,247,1,71,2
9380,-9,8,246,2,70,1
9385,-6,8,242,1,70,-1
9390,-4,6,243,0,68,-1
9395,-7,5,243,2,67,-3
9400,-5,8,244,2,67,-3
9405,-6,8,246,1,67,-3
9410,-8,7,244,-1,66,-4
9415,-3,6,245,-1,66,-5
9420,-6,7,242,0,65,-4
9425,-6,8,245,0,64,-5
9430,-5,6,246,0,63,-6
9435,-8,4,242,-3,62,-7
9440,-9,6,247,-5,61,-7
9445,-10,10,245,-9,60,-6
9450,-6,4,245,-10,60,-7
9455,-8,7,244,-10,61,-4
9460,-8,4,244,-10,64,-2
9465,-5,5,244,-6,67,-2
9470,-4,4,245,-2,70,-1
9475,-6,4,245,2,70,0
9480,-10,8,245,4,68,-1
9485,-3,3,246,7,67,1
9490,-5,5,245,4,67,-1
9495,-4,3,236,2,64,-1
9500,-7,4,246,2,65,-1
9505,-9,3,242,1,66,-1
9510,-8,7,242,-2,66,0
9515,-7,8,244,-2,68,-2
9520,-9,8,242,-2,70,0
9525,-9,8,242,-4,73,0
9530,-5,4,244,-7,74,2
9535,-9,6,246,-7,75,2
9540,-8,9,248,-10,77,3
9545,-11,8,245,-15,75,6
9550,-6,4,245,-17,75,5
9555,-5,5,253,-20,75,5
9560,-4,4,244,-22,75,5
9565,-8,7,246,-24,75,4
9570,-6,7,245,-27,75,3
9575,-3,3,244,-25,75,3
9580,-6,5,248,-23,75,1
9585,-8,8,250,-21,75,1
9590,-5,8,244,-18,74,0
9595,-6,6,245,-16,74,1
9600,-9,8,248,-13,76,0
9605,-7,6,243,-9,77,1
9610,-4,7,245,-9,75,-1
9615,-6,8,245,-7,75,-1
9620,-8,5,243,-7,73,-2
9625,-12,6,240,-7,74,-2
9630,-4,8,246,-9,75,-1
9635,-8,8,243,-10,75,-1
9640,-7,6,244,-11,74,-3
9645,-9,6,241,-9,72,-2
9650,-9,7,247,-10,71,-2
9655,-9,5,246,-11,71,-1
9660,-7,5,240,-10,69,0
9665,-8,5,244,-9,69,-1
9670,-8,9,248,-8,68,-1
9675,-8,8,246,-7,67,-2
9680,-6,6,246,-6,65,-3
9685,-8,4,248,-6,62,-1
9690,-8,8,247,-6,59,-3
9695,-9,8,241,-7,57,-3
9700,-10,5,246,-8,56,-3
9705,-8,8,244,-9,56,-2
9710,-8,9,246,-10,55,-3
9715,-5,7,244,-10,55,-4
9720,-5,6,241,-8,56,-3
9725,-4,6,248,-10,57,-3
9730,-7,8,247,-10,57,-3
9735,-7,5,242,-10,56,-3
9740,-9,8,247,-8,56,-3
9745,-7,5,249,-9,57,-3
9750,-8,8,247,-10,59,-5
9755,-8,7,245,-11,62,-4
9760,-6,4,243,-13,65,-3
9765,-6,7,244,-13,66,-5
9770,-9,5,245,-17,68,-3
9775,-7,5,246,-16,69,-4
9780,-7,8,249,-17,70,-3
9785,-6,7,244,-16,71,-5
9790,-5,7,241,-15,69,-4
9795,-11,6,246,-15,68,-3
9800,-4,6,242,-14,68,-1
9805,-8,7,245,-15,68,0
9810,-3,5,243,-13,69,-1
9815,-7,7,248,-11,70,-1
9820,-8,4,245,-9,68,0
9825,-6,5,244,-8,67,-1
9830,-6,6,245,-7,68,0
9835,-6,8,246,-8,70,0
9840,-6,7,244,-6,70,-2
9845,-7,6,246,-7,68,-3
9850,-8,8,244,-9,68,-3
9855,-6,7,243,-10,67,-5
9860,-7,8,246,-9,66,-4
9865,-5,7,244,-7,67,-5
9870,-4,7,245,-6,68,-5
9875,-4,4,244,-3,70,-3
9880,-10,5,250,0,73,-2
9885,-3,8,248,1,72,-3
9890,-3,8,243,2,72,-2
9895,-6,7,244,2,71,-2
9900,-6,6,241,-4,70,-3
9905,-6,8,245,-9,69,-2
9910,-4,8,246,-14,66,-4
9915,-6,3,246,-17,65,-3
9920,-7,6,247,-19,66,-2
9925,-5,4,243,-20,65,-2
9930,-6,3,247,-19,66,-2
9935,-7,5,245,-19,67,-2
9940,-5,8,245,-15,67,-3
9945,-11,10,244,-9,67,-1
9950,-5,6,243,-3,69,-2
9955,-6,6,246,1,71,-1
9960,-6,3,244,3,73,1
9965,-5,8,249,1,73,1
9970,-8,5,248,-2,73,0
9975,-6,6,246,-8,74,1
9980,-8,8,244,-12,72,-1
9985,-6,5,244,-16,70,-1
9990,-4,9,242,-18,69,0
9995,-5,8,245,-18,70,-1
10000,-5,8,246,-18,70,0
10005,-5,9,240,-18,70,0
10010,-7,8,242,-18,70,-1
10015,-8,8,242,-18,70,2
10020,-7,8,243,-16,70,0
10025,-8,8,246,-14,70,2
10030,-7,7,246,-13,72,2
10035,-9,8,243,-13,73,0
10040,-6,7,250,-12,75,2
10045,-6,8,248,-11,74,2
10050,-7,9,246,-8,74,1
10055,-6,7,246,-7,75,0
10060,-9,4,246,-7,73,1
10065,-7,8,243,-7,75,0
10070,-5,5,247,-6,74,1
10075,-4,6,246,-6,73,1
10080,-3,6,247,-6,72,1
10085,-3,6,245,-5,72,1
10090,-11,8,248,-5,71,1
10095,-7,6,243,-4,69,1
10100,-8,7,247,-5,68,0
10105,-7,6,244,-3,69,0
10110,-6,7,247,-2,69,-1
10115,-9,8,247,-2,68,-1
10120,-7,6,247,-1,67,-2
10125,-8,8,246,-2,64,-2
10130,-8,7,245,-6,63,-1
10135,-8,5,243,-9,61,-1
10140,-11,4,244,-13,61,0
10145,-8,7,250,-16,61,0
10150,-6,7,247,-15,62,0
10155,-8,6,247,-16,62,1
10160,-7,6,246,-16,64,1
10165,-8,7,250,-16,63,1
10170,-9,5,246,-17,61,3
10175,-10,6,245,-20,58,2
10180,-8,8,247,-21,53,2
10185,-7,4,246,-22,50,1
10190,-12,7,248,-21,45,2
10195,-11,5,244,-19,44,0
10200,-11,4,245,-18,42,0
10205,-11,7,246,-16,41,1
10210,-8,5,244,-14,40,0
10215,-13,8,244,-13,41,-2
10220,-9,7,241,-10,41,-1
10225,-7,8,244,-9,41,-1
10230,-5,8,242,-9,41,-2
10235,-8,8,246,-7,42,-1
10240,-2,6,246,-9,42,-2
10245,-6,6,241,-10,43,-1
10250,-9,8,244,-8,45,0
10255,-7,7,245,-7,46,0
10260,-7,8,242,-9,47,0
10265,-8,7,245,-9,48,0
10270,-5,8,245,-11,50,1
10275,-6,9,245,-12,52,1
10280,-7,9,242,-14,53,1
10285,-3,6,245,-15,54,1
10290,-6,8,245,-15,56,3
10295,-6,7,243,-15,58,2
10300,-5,8,244,-11,58,2
10305,-5,8,248,-7,60,2
10310,-3,4,248,0,63,3
10315,-3,4,245,8,63,3
10320,-4,6,246,20,63,2
10325,-6,8,244,29,66,1
10330,-1,7,242,36,66,1
10335,-4,5,241,45,67,-1
10340,-6,8,245,50,68,-3
10345,-6,9,239,54,68,-2
10350,-3,9,238,53,69,-3
10355,-2,10,244,48,70,-3
10360,-5,9,241,42,70,-3
10365,-2,8,242,35,72,-1
10370,-1,8,244,27,74,-2
10375,-1,6,243,20,76,-1
10380,-2,7,242,14,75,0
10385,-7,7,246,7,76,-2
10390,-3,8,244,2,75,0
10395,-5,8,249,-2,75,1
10400,-7,8,248,-5,74,0
10405,-1,7,245,-8,73,0
10410,-6,8,248,-11,72,-1
10415,-4,8,249,-12,73,-1
10420,-2,8,244,-10,74,2
10425,-4,8,247,-6,77,1
10430,-6,8,247,-6,80,1
10435,-4,8,247,-5,82,1
10440,-7,7,246,-2,83,-1
10445,-1,8,245,1,83,0
10450,-2,8,247,5,84,2
10455,-5,8,246,7,86,1
10460,-6,8,242,6,88,0
10465,-3,9,240,4,89,-1
10470,-9,9,245,2,89,-1
10475,-9,10,241,-1,89,-2
10480,-6,8,242,-5,90,-4
10485,-8,8,245,-8,90,-6
10490,-7,8,242,-12,92,-7
10495,-6,8,245,-15,93,-8
10500,-7,9,246,-16,94,-7
10505,-7,8,246,-16,94,-5
10510,-4,8,249,-16,95,-4
10515,-1,8,245,-15,97,-2
10520,-7,6,249,-14,100,0
10525,-6,6,246,-11,101,1
10530,-6,6,246,-8,102,3
10535,-7,5,246,-5,103,5
10540,-8,7,246,-2,103,4
10545,-7,5,246,-1,98,4
10550,-6,8,245,-1,97,4
10555,-9,8,245,0,94,2
10560,-8,8,245,2,92,-1
10565,-8,8,245,2,91,0
10570,-10,8,247,2,89,0
10575,-9,9,242,2,87,0
10580,-7,8,245,1,86,0
10585,-10,6,246,-1,86,1
10590,-11,8,245,-5,85,-1
10595,-9,9,247,-9,82,-3
10600,-10,12,247,-10,80,-3
10605,-7,8,249,-11,76,-2
10610,-7,9,247,-8,75,-5
10615,-6,7,246,-5,73,-4
10620,-9,8,247,1,74,-4
10625,-9,8,248,8,75,-3
10630,-7,7,244,15,75,-2
10635,-9,8,243,21,76,-1
10640,-7,9,244,25,77,0
10645,-9,6,246,26,77,0
10650,-9,10,247,25,77,1
10655,-7,8,246,20,76,0
10660,-10,8,244,10,75,-1
10665,-7,8,246,4,74,0
10670,-9,7,246,-2,73,-2
10675,-11,9,244,-5,72,-2
10680,-9,7,243,-7,71,-2
10685,-7,3,243,-7,73,-2
10690,-10,10,245,-9,71,-3
10695,-10,10,244,-7,71,-4
10700,-8,10,244,-4,70,-3
10705,-9,9,242,1,70,-1
10710,-8,10,242,8,71,1
10715,-7,10,243,12,74,0
10720,-10,8,245,11,78,1
10725,-9,9,243,7,81,2
10730,-10,8,244,2,83,2
10735,-6,8,244,-3,82,2
10740,-7,10,245,-8,79,0
10745,-7,8,248,-11,79,1
10750,-8,8,245,-13,79,0
10755,-7,8,245,-14,77,-1
10760,-7,8,244,-12,74,0
10765,-7,10,243,-12,72,1
10770,-6,10,246,-11,71,0
10775,-4,9,245,-11,71,-1
10780,-4,9,241,-9,72,-1
10785,-5,9,244,-9,74,-1
10790,-9,9,246,-9,74,0
10795,-9,10,246,-7,75,1
10800,-6,8,248,-6,76,1
10805,-8,8,244,-5,77,-1
10810,-5,10,248,-8,78,-1
10815,-6,10,245,-9,78,0
10820,-8,8,246,-11,80,1
10825,-9,9,247,-14,79,1
10830,-7,10,248,-15,80,1
10835,-4,8,249,-17,81,0
10840,-5,8,248,-16,79,1
10845,-7,8,244,-18,80,1
10850,-6,9,243,-19,78,2
10855,-4,4,244,-19,78,1
10860,-8,9,247,-22,77,2
10865,-8,9,244,-25,76,0
10870,-10,8,247,-27,76,0
10875,-7,9,246,-28,77,-1
10880,-9,8,243,-29,74,-1
10885,-9,9,249,-29,76,-1
10890,-8,9,244,-30,74,-1
10895,-5,10,245,-30,73,-1
10900,-8,9,246,-32,73,-1
10905,-7,10,245,-33,73,0
10910,-5,9,249,-33,74,0
10915,-6,8,248,-31,74,-1
10920,-7,8,248,-29,74,0
10925,-9,6,246,-25,74,-2
10930,-5,4,245,-23,76,-2
10935,-8,8,249,-22,77,-1
10940,-10,7,244,-23,78,-3
10945,-8,8,241,-23,77,-2
10950,-10,8,246,-25,77,-5
10955,-10,8,244,-26,74,-5
10960,-10,9,244,-22,71,-6
10965,-9,8,244,-17,68,-8
10970,-10,8,242,-11,66,-7
10975,-9,8,246,-8,64,-7
10980,-11,8,245,-5,61,-8
10985,-7,8,245,-7,61,-10
10990,-8,8,244,-10,61,-10
10995,-9,8,242,-14,61,-12
11000,-10,9,241,-19,60,-11
11005,-10,6,241,-23,62,-13
11010,-8,8,247,-26,64,-10
11015,-8,6,243,-30,66,-8
11020,-5,8,247,-35,69,-6
11025,-7,7,246,-41,69,-5
11030,-7,8,249,-45,71,-4
11035,-8,8,246,-49,72,-1
11040,-6,8,248,-50,72,-2
11045,-6,8,249,-48,72,-1
11050,-8,9,248,-46,69,-2
11055,-8,8,249,-44,70,-1
11060,-5,8,249,-45,67,-3
11065,-9,9,244,-46,67,-4
11070,-8,8,245,-47,66,-4
11075,-4,8,247,-49,68,-5
11080,-9,6,243,-51,67,-7
11085,-7,8,246,-52,68,-6
11090,-7,9,244,-52,69,-6
11095,-9,4,246,-51,68,-6
11100,-5,6,245,-49,68,-7
11105,-8,8,242,-46,67,-5
11110,-9,8,245,-42,65,-6
11115,-5,6,249,-39,64,-4
11120,-5,9,242,-36,62,-6
11125,-7,9,246,-35,61,-5
11130,-12,6,245,-34,59,-5
11135,-9,9,245,-35,57,-6
11140,-8,8,243,-33,58,-6
11145,-9,8,243,-33,57,-6
11150,-6,6,244,-35,56,-6
11155,-5,8,243,-35,57,-5
11160,-9,10,246,-35,57,-7
11165,-9,7,242,-35,58,-5
11170,-7,8,246,-37,59,-6
11175,-8,8,246,-36,59,-7
11180,-9,7,242,-37,60,-5
11185,-5,9,244,-38,59,-5
11190,-6,8,243,-38,59,-5
11195,-8,10,244,-38,61,-5
11200,-8,8,245,-39,59,-6
11205,-4,5,244,-37,60,-7
11210,-9,8,242,-34,61,-7
11215,-9,8,247,-34,60,-7
11220,-5,5,246,-32,60,-9
11225,-5,6,246,-32,61,-12
11230,-9,8,245,-31,62,-10
11235,-7,7,243,-32,63,-10
11240,-6,6,244,-33,64,-10
11245,-1,6,244,-33,66,-9
11250,-9,7,245,-34,69,-9
11255,-10,8,243,-35,71,-7
11260,-7,7,243,-37,73,-6
11265,-2,8,245,-38,74,-5
11270,-10,8,244,-37,74,-3
11275,-5,7,245,-37,73,-2
11280,-10,7,245,-37,71,-4
11285,-7,7,242,-37,68,-3
11290,-7,3,244,-36,66,-4
11295,-6,6,246,-34,63,-3
11300,-7,8,244,-32,60,-4
11305,-8,7,248,-32,58,-4
11310,-9,8,240,-32,56,-5
11315,-9,6,240,-33,57,-6
11320,-5,5,243,-35,57,-7
11325,-6,5,245,-35,60,-6
11330,-8,6,247,-35,61,-7
11335,-5,6,242,-34,63,-7
11340,-7,7,243,-34,62,-7
11345,-8,6,244,-32,63,-7
11350,-7,8,247,-27,62,-7
11355,-6,6,243,-22,63,-7
11360,-7,8,242,-15,62,-7
11365,-5,6,243,-9,60,-5
11370,-7,6,244,-5,61,-6
11375,-8,8,248,-4,61,-6
11380,-4,6,242,-6,62,-5
11385,-11,8,242,-14,62,-6
11390,-7,9,242,-23,62,-8
11395,-11,6,245,-35,64,-8
11400,-7,6,244,-49,66,-7
11405,-10,3,242,-59,66,-7
11410,-7,1,245,-63,66,-6
11415,-10,4,243,-65,65,-7
11420,-6,0,246,-64,63,-8
11425,-9,6,249,-61,61,-9
11430,-3,4,247,-58,58,-10
11435,-8,6,247,-52,57,-10
11440,-5,6,243,-43,57,-9
11445,-7,5,244,-35,58,-8
11450,-6,8,245,-28,61,-7
11455,-3,6,247,-25,64,-8
11460,-7,6,244,-24,65,-7
11465,-7,6,245,-24,67,-5
11470,-5,7,245,-25,67,-6
11475,-5,5,242,-23,64,-6
11480,-9,7,249,-23,64,-5
11485,-6,8,246,-24,63,-6
11490,-9,8,242,-24,62,-6
11495,-7,6,244,-25,61,-7
11500,-5,6,240,-27,60,-6
11505,-6,7,245,-27,59,-7
11510,-4,8,241,-29,58,-7
11515,-8,9,240,-28,57,-8
11520,-7,4,241,-28,54,-9
11525,-7,6,245,-29,55,-9
11530,-5,3,245,-28,54,-8
11535,-9,7,246,-29,54,-9
11540,-9,7,247,-30,54,-8
11545,-9,9,249,-32,54,-8
11550,-7,7,246,-34,55,-7
11555,-7,6,250,-36,57,-8
11560,-5,4,245,-39,58,-7
11565,-10,4,245,-40,59,-5
11570,-6,5,243,-40,61,-4
11575,-4,5,248,-40,60,-3
11580,-5,5,249,-41,59,-3
11585,-4,3,246,-41,60,-2
11590,-10,7,244,-39,59,-3
11595,-6,6,244,-37,59,-3
11600,-8,5,241,-35,59,-5
11605,-7,4,243,-35,57,-5
11610,-6,7,245,-36,56,-5
11615,-8,7,244,-35,58,-4
11620,-5,3,241,-33,56,-5
11625,-4,-1,244,-32,57,-4
11630,-7,6,244,-30,60,-3
11635,-8,5,244,-26,62,-3
11640,-8,6,241,-23,64,-2
11645,-5,2,245,-21,66,-3
11650,-7,6,244,-19,67,-3
11655,-8,3,240,-20,69,-2
11660,-6,4,244,-22,70,-4
11665,-6,1,247,-24,69,-3
11670,-6,5,245,-30,67,-3
11675,-5,2,245,-33,66,-3
11680,-8,5,243,-36,64,-4
11685,-9,5,246,-38,63,-4
11690,-12,6,246,-37,62,-5
11695,-7,2,243,-36,63,-5
11700,-7,8,244,-34,62,-5
11705,-8,3,245,-33,64,-7
11710,-8,8,248,-31,66,-6
11715,-8,5,247,-33,67,-6
11720,-8,5,243,-35,68,-6
11725,-5,2,246,-36,69,-6
11730,-7,8,252,-37,70,-7
11735,-7,7,247,-38,70,-6
11740,-8,4,247,-39,70,-5
11745,-7,4,249,-38,69,-6
11750,-6,5,246,-37,68,-7
11755,-7,5,246,-33,67,-8
11760,-2,1,245,-30,66,-6
11765,-3,2,243,-30,67,-7
11770,-5,2,243,-28,67,-6
11775,-9,6,242,-27,69,-6
11780,-6,7,243,-27,71,-5
11785,-5,-2,245,-25,73,-4
11790,-7,4,244,-24,74,-3
11795,-6,1,244,-22,75,-3
11800,-8,3,242,-20,77,-2
11805,-7,4,245,-21,76,-2
11810,-4,2,244,-18,75,-2
11815,-8,6,246,-15,74,-1
11820,-8,2,243,-12,73,-2
11825,-7,4,247,-9,71,-2
11830,-5,7,245,-7,69,-1
11835,-5,4,244,-5,66,-1
11840,-7,6,243,-4,68,-1
11845,-8,2,244,-2,67,-1
11850,-3,2,240,-1,67,0
11855,-6,8,244,0,67,-1
11860,-7,6,243,0,66,0
11865,-6,4,245,0,66,0
11870,-5,1,246,0,65,-1
11875,-11,9,243,-1,66,-2
11880,-5,5,241,-2,66,-2
11885,-8,5,246,-2,66,-2
11890,-7,6,244,-3,68,-3
11895,-5,4,250,-3,68,-2
11900,-4,5,240,-3,70,-2
11905,-5,2,242,-4,71,-2
11910,-5,8,245,-2,72,0
11915,-3,3,244,-3,73,1
11920,-6,2,243,-3,74,1
11925,-8,3,244,-3,73,2
11930,-7,6,245,0,72,2
11935,-7,6,243,0,71,2
11940,-7,4,247,1,71,1
11945,-12,5,243,0,69,1
11950,-5,4,245,-1,69,0
11955,-7,1,244,-4,70,1
11960,-9,7,246,-7,70,3
11965,-5,4,243,-8,69,1
11970,-8,5,247,-9,70,2
11975,-8,4,245,-8,71,0
11980,-7,5,248,-6,73,0
11985,-2,4,245,-4,73,0
11990,-5,3,245,0,72,-1
11995,-4,3,247,5,71,0
12000,-5,8,245,8,71,-1
12005,-9,5,245,12,71,0
12010,-7,8,245,16,72,1
12015,-5,2,245,20,73,0
12020,-7,5,244,24,75,0
12025,-6,1,245,24,76,0
12030,-7,7,243,26,78,0
12035,-4,7,247,23,80,0
12040,-8,5,246,17,81,0
12045,-8,4,247,10,83,1
12050,-8,5,248,1,82,0
12055,-6,1,248,-7,81,-1
12060,-5,5,249,-10,78,-1
12065,-6,4,245,-11,76,-2
12070,-9,5,245,-9,75,-1
12075,-9,4,250,-7,74,-1
12080,-7,6,243,-5,71,-1
12085,-7,6,242,-1,70,-1
12090,-8,1,244,6,69,1
12095,-7,5,243,10,73,0
12100,-4,1,244,15,76,-1
12105,-6,4,245,20,79,2
12110,-4,5,243,21,82,2
12115,-8,7,242,20,81,3
12120,-8,7,245,18,79,3
12125,-6,7,247,15,78,3
12130,-5,8,243,13,75,2
12135,-6,6,245,11,74,2
12140,-8,7,244,11,74,1
12145,-5,4,245,12,73,2
12150,-7,5,245,11,72,1
12155,-5,7,242,12,72,-2
12160,-8,1,245,13,73,1
12165,-6,3,245,12,74,0
12170,-9,7,246,11,75,0
12175,-8,8,244,13,75,-1
12180,-4,8,243,14,75,1
12185,-4,7,246,15,77,1
12190,-10,6,246,15,76,0
12195,-7,6,245,13,76,0
12200,-8,5,249,10,76,-1
12205,-11,9,244,9,75,-1
12210,-7,7,246,5,75,-1
12215,-6,4,244,3,78,-1
12220,-5,3,247,2,77,-3
12225,-6,6,245,0,77,-2
12230,-7,5,247,0,76,-1
12235,-8,7,246,1,78,-2
12240,-7,7,248,1,77,1
12245,-9,8,243,2,76,0
12250,-6,5,247,3,75,1
12255,-7,7,244,4,75,0
12260,-4,1,244,5,75,1
12265,-7,7,248,7,74,-1
12270,-8,7,244,6,72,-1
12275,-7,4,249,5,70,0
12280,-6,5,246,4,72,0
12285,-6,6,243,2,73,2
12290,-8,5,243,1,74,1
12295,-8,7,246,0,74,1
12300,-4,8,248,-1,75,2
12305,-7,5,248,0,75,2
12310,-5,7,248,2,75,2
12315,-4,4,247,2,74,2
12320,-10,5,246,2,73,1
12325,-8,6,247,-1,73,1
12330,-8,7,244,-4,72,2
12335,-10,6,247,-7,71,3
12340,-9,5,245,-10,68,1
12345,-9,3,244,-10,68,0
12350,-5,7,243,-8,67,1
12355,-4,4,245,-6,67,1
12360,-8,7,247,-2,68,0
12365,-8,8,243,2,69,1
12370,-8,8,242,7,71,1
12375,-6,7,243,8,72,1
12380,-4,8,243,8,74,1
12385,-8,8,243,9,76,0
12390,-8,5,241,8,78,1
12395,-7,7,243,6,78,2
12400,-8,8,243,3,79,0
12405,-6,6,243,1,78,-2
12410,-7,8,246,1,75,-2
12415,-4,6,240,-1,74,-2
12420,-6,7,241,-1,71,-3
12425,-7,7,248,-2,71,-3
12430,-10,8,243,-2,70,-2
12435,-7,6,244,-2,68,-2
12440,-8,8,245,-5,68,-2
12445,-9,8,243,-6,69,-1
12450,-8,8,248,-7,70,-3
12455,-6,6,247,-8,71,-1
12460,-8,8,248,-8,74,-2
12465,-4,4,248,-7,75,-2
12470,-5,5,244,-7,74,-2
12475,-11,8,247,-7,75,0
12480,-8,6,244,-7,72,-1
12485,-8,8,245,-6,72,-1
12490,-6,3,254,-4,73,0
12495,-8,8,243,-4,72,1
12500,-6,9,244,-4,71,1
12505,-9,8,243,-2,71,0
12510,-7,6,244,-2,71,0
12515,-7,6,242,-2,73,1
12520,-6,6,241,-1,73,3
12525,-7,8,243,-2,72,1
12530,-8,7,241,-1,72,1
12535,-6,6,243,-1,72,1
12540,-7,7,244,-2,73,0
12545,-10,5,244,-4,72,0
12550,-9,6,244,-4,73,0
12555,-7,8,242,-5,73,-1
12560,-8,8,246,-7,72,-2
12565,-11,6,246,-8,72,-1
12570,-10,6,245,-7,71,-2
12575,-8,8,245,-6,71,0
12580,-7,7,242,-5,73,0
12585,-6,8,247,-5,75,-1
12590,-10,8,247,-5,75,1
12595,-5,6,243,-5,77,2
12600,-9,8,246,-8,78,0
12605,-5,5,255,-9,79,0
12610,-10,8,244,-9,78,0
12615,-8,8,243,-10,75,0
12620,-6,7,242,-9,74,1
12625,-7,6,243,-10,74,1
12630,-7,8,242,-11,73,2
12635,-8,6,246,-11,74,3
12640,-6,8,245,-12,74,3
12645,-8,4,243,-13,74,2
12650,-8,5,242,-14,74,0
12655,-8,8,246,-12,74,-2
12660,-8,8,249,-11,74,-2
12665,-5,5,243,-5,72,-4
12670,-6,8,246,-2,71,-4
12675,-7,8,243,3,72,-4
12680,-9,8,245,7,74,-4
12685,-10,8,246,12,75,-1
12690,-6,8,249,15,75,-2
12695,-7,8,245,18,75,-1
12700,-7,6,240,18,75,0
12705,-7,7,245,16,77,-2
12710,-6,2,242,11,77,-2
12715,-8,6,244,5,78,-2
12720,-10,6,243,-2,77,-2
12725,-7,5,245,-7,75,-2
12730,-6,6,245,-9,73,-3
12735,-11,8,244,-8,72,-3
12740,-7,9,247,-8,71,-4
12745,-8,11,241,-8,71,-4
12750,-8,8,246,-9,70,-4
12755,-7,8,246,-5,72,-6
12760,-9,10,244,1,73,-3
12765,-4,4,243,8,77,-2
12770,-4,8,244,14,80,-2
12775,-5,7,243,14,84,0
12780,-9,6,245,10,88,0
12785,-5,9,242,0,88,1
12790,-6,8,243,-10,89,2
12795,-7,9,246,-19,88,2
12800,-6,8,250,-24,85,3
12805,-11,9,250,-28,82,2
12810,-8,8,250,-28,79,1
12815,-8,9,249,-27,78,0
12820,-6,6,248,-26,75,2
12825,-9,9,243,-26,74,1
12830,-5,7,247,-24,72,0
12835,-7,8,245,-23,71,-3
12840,-11,8,246,-23,72,-1
12845,-8,7,248,-23,72,-2
12850,-6,6,243,-21,72,-3
12855,-10,6,247,-21,71,-2
12860,-7,8,246,-20,70,-2
12865,-8,8,248,-18,71,-2
12870,-8,7,245,-17,71,-3
12875,-6,8,246,-16,71,-3
12880,-8,9,246,-15,70,-1
12885,-8,8,244,-14,69,-2
12890,-8,7,243,-13,70,-1
12895,-8,8,240,-12,70,-3
12900,-10,8,242,-12,71,-3
12905,-10,6,243,-11,71,-2
12910,-6,10,245,-9,69,-2
12915,-9,9,246,-8,70,-2
12920,-7,7,247,-9,70,-1
12925,-11,8,247,-8,70,-1
12930,-8,7,248,-10,69,-1
12935,-11,9,245,-9,68,-4
12940,-8,9,248,-9,69,-3
12945,-7,8,247,-10,68,-3
12950,-6,8,242,-12,69,-3
12955,-9,8,243,-14,69,-2
12960,-9,6,247,-17,68,-3
12965,-6,5,244,-18,69,-4
12970,-4,5,244,-16,69,-2
12975,-6,1,246,-13,70,-1
12980,-6,3,243,-10,71,0
12985,-3,8,242,-9,71,2
12990,-9,8,245,-9,72,1
12995,-8,5,244,-11,70,0
13000,-9,8,245,-13,69,-2
13005,-5,8,242,-15,67,-3
13010,-9,8,244,-15,66,-3
13015,-8,8,245,-15,65,-4
13020,-7,7,245,-13,65,-4
13025,-9,9,243,-13,66,-5
13030,-9,8,241,-11,68,-5
13035,-7,8,243,-10,69,-4
13040,-7,7,242,-9,72,-4
13045,-6,5,243,-10,73,-3
13050,-8,8,246,-12,74,-4
13055,-11,9,246,-15,75,-2
13060,-9,6,243,-17,75,-3
13065,-8,7,244,-21,76,-1
13070,-9,7,244,-24,75,-1
13075,-12,9,246,-27,74,-1
13080,-6,9,243,-28,74,-2
13085,-9,8,246,-29,73,-3
13090,-8,8,244,-25,73,-4
13095,-10,7,249,-24,71,-5
13100,-7,10,244,-21,71,-3
13105,-9,7,242,-18,72,-4
13110,-11,8,243,-16,70,-3
13115,-7,7,246,-14,72,-4
13120,-8,8,241,-12,73,-4
13125,-10,8,244,-11,74,-3
13130,-10,8,244,-11,74,-4
13135,-9,8,246,-11,75,-3
13140,-9,8,246,-12,75,-2
13145,-6,9,245,-11,75,-1
13150,-8,7,246,-12,75,-1
13155,-7,8,246,-12,75,-2
13160,-10,9,247,-11,76,-2
13165,-9,8,247,-11,74,0
13170,-8,6,245,-11,73,-1
13175,-8,7,246,-10,72,-1
13180,-7,9,242,-11,71,-1
13185,-7,8,244,-11,70,-2
13190,-8,8,246,-13,69,-1
13195,-10,9,245,-13,68,-1
13200,-7,8,243,-12,69,0
13205,-7,7,245,-11,68,-1
13210,-8,8,245,-12,67,0
13215,-6,8,246,-13,67,-1
13220,-7,4,245,-13,66,-1
13225,-9,8,248,-12,66,-1
13230,-8,5,244,-14,67,0
13235,-8,7,247,-15,65,-1
13240,-7,9,245,-15,65,0
13245,-7,6,245,-15,65,-1
13250,-6,8,242,-15,66,0
13255,-15,9,239,-14,66,-1
13260,-8,8,245,-16,66,0
13265,-9,6,244,-16,69,0
13270,-10,6,246,-16,70,0
13275,-6,7,247,-17,71,-1
13280,-9,8,247,-16,70,-1
13285,-7,6,242,-18,72,-3
13290,-11,7,245,-16,72,-3
13295,-9,9,243,-15,73,-4
13300,-11,8,247,-14,73,-5
13305,-8,8,246,-15,73,-4
13310,-10,7,244,-16,74,-4
13315,-9,8,247,-18,74,-4
13320,-10,8,244,-18,74,-3
13325,-9,8,245,-21,76,-3
13330,-11,8,246,-20,76,-3
13335,-9,6,245,-21,77,-2
13340,-8,9,246,-23,76,-1
13345,-8,6,246,-22,75,-3
13350,-12,11,247,-19,72,-3
13355,-9,6,242,-17,69,-3
13360,-9,8,246,-14,68,-2
13365,-5,11,248,-13,69,-2
13370,-9,9,241,-13,68,0
13375,-7,9,241,-14,68,1
13380,-10,11,243,-16,68,-1
13385,-9,8,244,-17,69,-1
13390,-8,8,244,-17,70,-3
13395,-11,9,247,-18,69,-4
13400,-7,8,244,-17,70,-4
13405,-10,10,250,-16,68,-5
13410,-9,10,246,-12,68,-5
13415,-10,8,250,-9,67,-5
13420,-8,6,245,-4,67,-4
13425,-10,6,242,0,68,-6
13430,-10,8,245,4,68,-4
13435,-5,5,247,7,70,-4
13440,-8,6,245,8,70,-3
13445,-11,7,245,6,70,-3
13450,-9,6,246,2,70,-3
13455,-8,7,248,-5,70,-4
13460,-7,4,248,-10,68,-3
13465,-9,4,247,-15,66,-4
13470,-9,7,247,-17,64,-3
13475,-9,3,239,-14,62,-3
13480,-10,7,244,-13,62,-5
13485,-11,8,245,-12,63,-4
13490,-7,7,241,-10,63,-5
13495,-8,8,245,-6,64,-5
13500,-8,7,243,0,67,-5
13505,-5,6,240,8,69,-5
13510,-7,8,244,11,73,-1
13515,-9,8,245,10,76,-2
13520,-8,7,245,5,78,-2
13525,-7,8,247,-1,80,-2
13530,-7,9,247,-8,77,0
13535,-12,10,245,-13,76,-2
13540,-7,8,246,-17,72,-1
13545,-12,10,245,-19,70,-1
13550,-9,8,246,-18,69,-1
13555,-8,9,245,-17,68,-2
13560,-6,8,243,-16,67,-3
13565,-5,9,240,-14,67,-4
13570,-6,10,246,-14,66,-4
13575,-8,9,243,-14,66,-5
13580,-9,8,246,-11,68,-7
13585,-9,9,246,-9,70,-6
13590,-9,9,244,-6,70,-5
13595,-8,7,246,-3,71,-6
13600,-5,10,243,-4,70,-5
13605,-7,8,244,-4,71,-5
13610,-9,8,244,-2,72,-5
13615,-8,7,247,-4,70,-6
13620,-7,9,247,-4,70,-5
13625,-9,8,246,-4,71,-4
13630,-9,8,243,-5,71,-4
13635,-8,8,247,-3,70,-3
13640,-10,9,247,-2,71,-3
13645,-7,8,246,-1,70,-5
13650,-9,8,244,-1,71,-3
13655,-9,8,244,-1,71,-2
13660,-9,8,242,-2,70,-2
13665,-7,7,243,-2,72,-3
13670,-8,8,243,-4,71,-3
13675,-8,7,242,-4,71,-4
13680,-12,9,245,-5,72,-4
13685,-8,7,244,-5,70,-4
13690,-11,8,245,-5,70,-2
13695,-5,8,244,-6,72,-3
13700,-6,7,245,-8,72,-3
13705,-6,7,245,-7,73,0
13710,-7,8,246,-6,74,0
13715,-7,5,246,-3,76,0
13720,-10,6,243,0,76,1
13725,-8,8,242,2,78,0
13730,-12,8,243,2,77,1
13735,-10,8,245,2,77,1
13740,-7,6,245,1,75,0
13745,-10,8,246,-1,72,0
13750,-10,8,246,-1,71,0
13755,-8,8,247,-4,69,-1
13760,-7,7,244,-6,69,-1
13765,-9,8,244,-6,68,-1
13770,-11,8,243,-5,68,-2
13775,-10,9,240,-5,70,-4
13780,-8,9,245,-4,71,-4
13785,-7,9,246,-3,73,-2
13790,-5,8,244,-3,74,-2
13795,-10,7,243,-5,75,-3
13800,-7,10,248,-9,76,-1
13805,-10,8,242,-10,76,-1
13810,-7,9,246,-13,76,-1
13815,-9,8,247,-15,75,-1
13820,-8,9,245,-18,75,-2
13825,-7,11,249,-20,75,-3
13830,-9,9,245,-20,74,-3
13835,-10,8,248,-18,74,-4
13840,-8,9,247,-14,73,-4
13845,-8,8,244,-10,72,-3
13850,-8,8,242,-7,73,-3
13855,-7,7,247,-4,75,-3
13860,-7,9,246,-4,74,-2
13865,-9,8,244,-3,75,-1
13870,-11,8,244,-3,77,-1
13875,-10,8,242,-5,79,1
13880,-6,8,243,-6,79,0
13885,-7,8,245,-7,80,0
13890,-10,8,245,-7,82,-1
13895,-9,10,248,-10,82,-1
13900,-7,9,247,-10,81,-2
13905,-10,8,245,-11,80,-3
13910,-6,7,246,-11,80,-1
13915,-9,8,248,-9,80,-2
13920,-7,8,245,-7,78,-1
13925,-10,8,246,-5,77,-2
13930,-11,8,244,-1,78,-2
13935,-8,8,248,0,75,-2
13940,-8,9,247,1,75,1
13945,-10,9,245,0,77,0
13950,-11,8,243,-1,77,-1
13955,-10,7,243,-2,77,-1
13960,-7,7,245,-3,78,-3
13965,-9,8,241,-1,78,-3
13970,-12,8,248,0,79,-4
13975,-9,8,245,1,81,-4
13980,-8,8,242,3,82,-3
13985,-10,9,241,3,83,-5
13990,-12,8,243,2,84,-3
13995,-10,9,243,0,85,-3
14000,-5,8,247,-3,86,-3
14005,-10,9,245,-5,87,-2
14010,-12,8,245,-6,86,-2
14015,-9,7,245,-7,86,-1
14020,-7,9,245,-8,84,-3
14025,-9,8,246,-7,82,-4
14030,-10,8,248,-7,78,-3
14035,-9,8,245,-6,76,-2
14040,-10,8,244,-5,72,-3
14045,-8,9,243,-5,74,-1
14050,-9,8,243,-5,74,-1
14055,-9,9,244,-7,74,-3
14060,-11,9,244,-9,74,-3
14065,-10,8,245,-9,73,-5
14070,-9,12,236,-11,74,-6
14075,-9,9,245,-9,74,-6
14080,-8,9,246,-5,73,-7
14085,-10,8,247,-3,73,-5
14090,-8,8,244,1,70,-6
14095,-9,8,247,5,69,-5
14100,-10,9,250,11,70,-5
14105,-10,7,246,16,72,-5
14110,-13,10,247,20,71,-6
14115,-11,10,245,23,74,-5
14120,-9,8,244,24,75,-5
14125,-11,9,244,22,75,-4
14130,-9,11,246,19,76,-3
14135,-10,8,247,12,75,-3
14140,-10,8,245,2,74,-3
14145,-10,8,245,-4,74,-3
14150,-11,8,248,-8,72,-3
14155,-9,3,245,-11,72,-2
14160,-8,10,244,-12,72,-2
14165,-12,8,243,-14,71,-4
14170,-9,10,245,-12,70,-5
14175,-11,9,245,-8,72,-3
14180,-8,9,246,-4,74,-2
14185,-9,8,245,3,78,-4
14190,-9,8,245,9,80,-4
14195,-8,8,246,16,83,-3
14200,-9,8,246,22,84,-3
14205,-7,8,244,28,85,-5
14210,-8,8,244,33,88,-4
14215,-9,8,245,39,85,-5
14220,-10,12,241,42,85,-5
14225,-11,9,240,44,87,-4
14230,-9,9,243,46,89,-4
14235,-8,11,243,45,87,-2
14240,-9,9,246,40,87,-1
14245,-10,10,245,32,86,-3
14250,-6,9,243,25,85,-3
14255,-9,8,247,20,87,-4
14260,-10,9,248,17,86,-3
14265,-11,10,247,18,87,-2
14270,-11,9,246,19,85,-1
14275,-10,10,243,20,85,0
14280,-11,10,241,21,86,-1
14285,-10,8,245,22,86,0
14290,-13,8,246,21,85,0
14295,-10,8,247,18,82,-3
14300,-9,10,246,17,79,-2
14305,-11,9,246,18,78,-4
14310,-10,9,244,16,79,-4
14315,-11,13,250,15,78,-6
14320,-7,12,243,16,76,-6
14325,-11,10,244,17,77,-6
14330,-12,10,242,16,74,-5
14335,-11,14,242,17,74,-4
14340,-9,13,249,16,75,-5
14345,-9,10,243,16,74,-4
14350,-10,12,245,17,74,-6
14355,-10,8,241,19,74,-5
14360,-10,9,246,19,74,-4
14365,-11,11,244,17,73,-3
14370,-9,9,243,14,73,-3
14375,-11,10,247,12,73,-2
14380,-11,14,246,8,73,-4
14385,-10,11,243,7,71,-4
14390,-10,12,246,7,71,-2
14395,-13,10,244,7,70,-2
14400,-10,13,245,7,71,-3
14405,-8,9,244,9,71,-3
14410,-9,10,249,9,69,-3
14415,-8,10,245,7,69,-3
14420,-9,10,244,4,68,-3
14425,-10,10,245,2,66,-3
14430,-6,11,247,-1,66,-3
14435,-12,13,243,-2,64,-4
14440,-9,10,244,-6,64,-6
14445,-10,10,246,-7,66,-5
14450,-14,12,241,-8,66,-4
14455,-7,8,237,-8,69,-2
14460,-5,11,248,-8,68,-2
14465,-10,10,244,-8,68,-1
14470,-11,9,246,-9,68,-2
14475,-11,11,248,-11,68,-1
14480,-12,10,246,-14,66,-1
14485,-14,13,246,-18,65,-1
14490,-10,10,245,-20,64,0
14495,-11,11,250,-24,63,0
14500,-12,10,248,-26,62,-1
14505,-12,9,247,-29,63,-1
14510,-10,10,243,-31,62,-1
14515,-11,10,245,-31,61,-1
14520,-11,9,245,-30,62,-1
14525,-9,9,244,-29,64,0
14530,-8,9,244,-25,63,-1
14535,-11,11,245,-24,63,1
14540,-11,11,248,-20,63,0
14545,-10,10,249,-20,63,-1
14550,-10,8,244,-19,63,-2
14555,-13,9,245,-21,63,-3
14560,-10,10,245,-21,63,-2
14565,-12,12,243,-22,64,-2
14570,-9,11,247,-24,65,-3
14575,-10,9,246,-26,66,-3
14580,-11,10,245,-27,65,-3
14585,-10,9,244,-29,64,-2
14590,-14,14,244,-29,61,-3
14595,-7,9,241,-31,61,-4
14600,-10,12,247,-31,59,-4
14605,-6,12,244,-34,59,-4
14610,-10,11,249,-35,59,-3
14615,-10,11,245,-34,59,-2
14620,-11,10,243,-36,59,-3
14625,-8,9,241,-38,58,-3
14630,-11,11,247,-40,58,-3
14635,-8,10,245,-39,58,-3
14640,-9,12,246,-39,59,-3
14645,-11,10,245,-39,59,-4
14650,-7,8,245,-40,60,-4
14655,-10,8,246,-41,60,-4
14660,-10,11,248,-43,61,-4
14665,-8,12,243,-44,62,-4
14670,-9,12,243,-44,62,-5
14675,-11,11,246,-45,64,-4
14680,-8,9,243,-47,64,-4
14685,-9,10,249,-48,64,-5
14690,-12,9,245,-49,66,-4
14695,-8,9,246,-51,66,-5
14700,-11,11,245,-52,65,-4
14705,-9,11,245,-54,64,-6
14710,-9,8,245,-55,65,-5
14715,-10,10,248,-56,63,-5
14720,-9,11,243,-57,63,-7
14725,-12,11,246,-58,63,-8
14730,-7,11,243,-57,64,-8
14735,-7,10,247,-56,63,-8
14740,-12,10,247,-54,63,-7
14745,-11,9,243,-53,62,-7
14750,-7,8,245,-51,61,-8
14755,-13,9,247,-50,61,-7
14760,-10,8,242,-51,63,-8
14765,-11,10,242,-49,64,-8
14770,-9,9,244,-48,64,-9
14775,-10,8,247,-47,63,-9
14780,-14,8,241,-46,64,-9
14785,-10,9,246,-45,63,-9
14790,-13,9,246,-45,64,-10
14795,-5,9,245,-43,65,-11
14800,-9,9,246,-43,64,-10
14805,-11,9,243,-43,65,-10
14810,-9,9,245,-42,66,-9
14815,-12,11,249,-42,66,-8
14820,-10,9,243,-43,68,-9
14825,-9,6,248,-44,68,-8
14830,-9,9,247,-45,67,-8
14835,-7,8,248,-45,67,-8
14840,-11,8,247,-46,66,-8
14845,-10,8,248,-47,65,-10
14850,-10,8,242,-48,64,-10
14855,-10,8,245,-46,62,-10
14860,-10,8,247,-47,60,-8
14865,-10,8,244,-45,61,-7
14870,-10,8,243,-46,62,-6
14875,-12,10,244,-47,62,-8
14880,-4,6,249,-52,61,-7
14885,-5,9,241,-57,56,-9
14890,-9,8,248,-56,58,-8
14895,-7,9,243,-54,61,-10
14900,-8,9,243,-51,62,-8
14905,-9,8,242,-48,62,-8
14910,-6,7,246,-44,61,-6
14915,-8,10,245,-41,61,-7
14920,-8,7,242,-38,61,-7
14925,-6,8,244,-36,59,-8
14930,-6,8,244,-33,59,-7
14935,-7,8,245,-30,61,-8
14940,-7,8,244,-30,59,-8
14945,-9,7,247,-32,59,-7
14950,-11,8,242,-39,59,-9
14955,-9,8,245,-48,57,-8
14960,-8,6,248,-59,57,-8
14965,-9,5,247,-66,57,-7
14970,-9,7,246,-67,54,-7
14975,-7,5,241,-65,53,-7
14980,-5,7,244,-61,54,-7
14985,-10,6,244,-60,54,-9
14990,-8,9,245,-57,54,-10
14995,-9,7,240,-51,55,-9
