timestamp,acc_x,acc_y,acc_z,gyro_x,gyro_y,gyro_z
0,-7,-253,-62,20,190,32
5,-7,-249,-59,19,189,30
10,-8,-249,-59,20,188,29
15,-11,-252,-60,23,186,25
20,-10,-251,-57,31,186,23
25,-11,-254,-61,39,182,19
30,-12,-251,-59,48,178,19
35,-11,-254,-53,53,174,19
40,-14,-253,-57,59,171,18
45,-12,-251,-55,62,169,17
50,-14,-256,-56,64,166,16
55,-13,-254,-54,65,162,16
60,-16,-254,-57,63,159,18
65,-16,-253,-54,58,157,19
70,-18,-253,-58,53,155,20
75,-13,-244,-62,46,151,22
80,-17,-248,-61,40,150,24
85,-12,-251,-56,33,148,27
90,-14,-247,-63,27,146,28
95,-12,-246,-56,19,146,30
100,-12,-246,-56,14,144,30
105,-11,-246,-58,10,144,28
110,-8,-247,-59,5,146,26
115,-7,-248,-57,1,148,25
120,-8,-247,-55,-4,149,22
125,-5,-245,-60,-11,151,19
130,-3,-248,-61,-19,154,19
135,-5,-248,-63,-28,158,17
140,-3,-249,-64,-37,165,19
145,0,-248,-62,-47,173,18
150,0,-250,-62,-56,183,19
155,0,-250,-62,-64,191,19
160,-1,-248,-58,-72,198,19
165,1,-250,-57,-80,204,18
170,-1,-247,-53,-87,205,18
175,-2,-250,-52,-93,204,15
180,0,-247,-56,-98,204,12
185,2,-245,-50,-105,205,7
190,-3,-249,-51,-109,206,3
195,-7,-249,-48,-111,205,0
200,-9,-254,-49,-109,208,1
205,-4,-257,-49,-104,211,-2
210,-7,-256,-48,-97,214,-7
215,-8,-257,-50,-85,215,-9
220,-10,-264,-50,-73,216,-11
225,-9,-266,-51,-64,214,-8
230,-11,-263,-47,-52,210,-11
235,-3,-267,-44,-37,205,-15
240,-2,-268,-48,-15,198,-20
245,-3,-267,-46,11,191,-23
250,-5,-268,-48,37,186,-25
255,-7,-270,-49,57,183,-21
260,-7,-267,-57,69,183,-14
265,-3,-265,-59,74,186,-9
270,0,-262,-64,72,195,-3
275,1,-257,-67,64,206,0
280,2,-255,-66,51,214,4
285,2,-249,-63,38,226,8
290,3,-246,-61,26,236,11
295,0,-244,-54,13,246,16
300,4,-243,-60,-2,253,20
305,3,-240,-57,-15,257,25
310,0,-239,-57,-23,256,27
315,2,-240,-60,-30,257,29
320,0,-241,-57,-36,259,31
325,-4,-243,-58,-47,261,33
330,-6,-244,-56,-58,261,36
335,-5,-245,-56,-69,262,37
340,-8,-245,-56,-76,265,37
345,-11,-249,-53,-81,268,41
350,-12,-249,-51,-86,263,47
355,-10,-252,-50,-89,257,51
360,-11,-251,-51,-92,250,53
365,-7,-253,-50,-96,246,55
370,-9,-251,-51,-98,239,61
375,-6,-250,-48,-98,231,66
380,-9,-250,-49,-101,226,71
385,-7,-252,-51,-102,223,74
390,-7,-253,-51,-103,218,80
395,0,-254,-53,-103,219,87
400,1,-257,-53,-100,225,93
405,0,-254,-55,-95,232,100
410,-1,-254,-56,-91,236,104
415,1,-254,-58,-85,235,108
420,-2,-253,-56,-79,232,113
425,0,-252,-55,-74,227,113
430,0,-251,-51,-69,220,113
435,4,-250,-53,-59,213,110
440,24,-251,-38,-37,212,93
445,16,-248,-42,15,208,47
450,-2,-246,-50,67,203,18
455,-15,-244,-56,91,189,26
460,-11,-246,-60,93,165,43
465,-6,-250,-58,85,160,47
470,0,-254,-58,82,173,48
475,0,-255,-66,84,185,51
480,-3,-259,-63,79,197,56
485,-8,-258,-63,66,206,65
490,-14,-254,-60,45,203,83
495,-13,-253,-60,18,197,98
500,-12,-250,-56,-2,186,108
505,-8,-251,-58,-18,173,115
510,-7,-247,-53,-26,157,118
515,-8,-248,-59,-28,145,119
520,-4,-249,-59,-28,138,115
525,-3,-248,-62,-28,134,107
530,-1,-248,-65,-26,131,98
535,-1,-248,-57,-24,135,92
540,0,-248,-62,-21,139,84
545,-2,-249,-61,-18,146,78
550,-5,-249,-61,-17,152,76
555,-3,-247,-61,-16,159,73
560,-3,-247,-61,-15,163,72
565,-7,-245,-61,-16,166,71
570,-1,-247,-65,-23,166,71
575,0,-243,-64,-31,166,68
580,-4,-238,-62,-40,162,69
585,-9,-234,-63,-52,148,72
590,4,-232,-67,-66,139,75
595,3,-226,-67,-76,141,66
600,0,-221,-66,-82,141,59
605,2,-218,-66,-85,138,53
610,-2,-217,-64,-87,129,45
615,-3,-212,-66,-93,125,34
620,-6,-213,-55,-104,122,18
625,-6,-213,-67,-126,121,1
630,-7,-218,-66,-155,121,-15
635,-11,-214,-63,-188,123,-27
640,-10,-219,-62,-220,124,-37
645,-12,-222,-57,-248,125,-43
650,-16,-227,-61,-273,123,-45
655,-19,-232,-54,-293,115,-42
660,-23,-235,-54,-311,112,-34
665,-21,-237,-52,-322,110,-26
670,-25,-245,-50,-324,110,-17
675,-26,-249,-50,-317,113,-8
680,-27,-253,-53,-303,120,2
685,-28,-261,-53,-286,124,10
690,-28,-271,-47,-272,129,17
695,-31,-282,-52,-261,134,22
700,-29,-287,-51,-257,138,29
705,-24,-296,-50,-253,140,35
710,-30,-299,-47,-249,140,40
715,-29,-303,-47,-242,139,46
720,-33,-307,-45,-233,139,51
725,-30,-307,-48,-217,144,57
730,-32,-305,-42,-195,149,65
735,-32,-300,-38,-172,151,71
740,-34,-296,-38,-145,150,78
745,-37,-289,-34,-115,146,84
750,-37,-285,-29,-81,141,92
755,-33,-281,-27,-43,138,96
760,-31,-275,-28,-10,137,101
765,-31,-271,-27,15,138,107
770,-32,-267,-33,28,140,114
775,-31,-263,-33,28,141,120
780,-24,-263,-42,19,137,128
785,-30,-258,-44,-2,129,137
790,-29,-260,-48,-33,116,146
795,-30,-259,-50,-63,101,160
800,-33,-259,-53,-83,85,174
805,-34,-258,-47,-89,69,186
810,-35,-255,-44,-80,55,195
815,-37,-253,-45,-61,42,204
820,-36,-251,-44,-36,30,211
825,-35,-249,-42,-19,24,216
830,-36,-245,-46,-8,20,219
835,-35,-239,-42,-6,16,219
840,-26,-240,-43,-11,18,216
845,-29,-239,-43,-18,20,211
850,-24,-239,-41,-28,28,205
855,-22,-237,-47,-43,38,196
860,-21,-240,-41,-55,53,188
865,-19,-238,-39,-62,71,178
870,-18,-240,-41,-65,88,168
875,-16,-239,-39,-66,104,162
880,-16,-241,-39,-66,118,154
885,-16,-241,-38,-69,132,150
890,-19,-241,-38,-71,146,146
895,-17,-241,-38,-73,158,144
900,-19,-242,-40,-74,172,141
905,-21,-242,-36,-70,185,138
910,-27,-247,-37,-64,191,132
915,-25,-248,-33,-55,195,125
920,-28,-249,-33,-46,197,114
925,-32,-251,-35,-34,196,106
930,-34,-250,-31,-24,196,99
935,-36,-253,-34,-16,192,92
940,-41,-251,-34,-8,187,84
945,-46,-249,-24,-5,179,78
950,-43,-248,-32,-2,171,71
955,-46,-248,-33,-3,160,65
960,-51,-246,-30,-2,147,59
965,-51,-244,-28,0,137,53
970,-51,-245,-27,4,126,45
975,-49,-244,-28,9,116,37
980,-51,-247,-29,15,103,26
985,-47,-247,-24,27,92,13
990,-47,-248,-21,43,78,0
995,-48,-247,-20,58,63,-14
1000,-46,-249,-20,68,43,-28
1005,-45,-248,-22,77,23,-36
1010,-40,-249,-22,83,7,-50
1015,-46,-247,-21,89,-7,-60
1020,-45,-248,-19,95,-17,-70
1025,-43,-244,-19,100,-23,-79
1030,-39,-247,-19,103,-28,-87
1035,-40,-245,-20,106,-30,-93
1040,-33,-246,-19,107,-31,-101
1045,-35,-245,-19,106,-32,-106
1050,-31,-244,-17,106,-34,-110
1055,-37,-241,-21,106,-35,-112
1060,-27,-244,-20,105,-34,-117
1065,-26,-241,-19,104,-34,-119
1070,-27,-245,-21,100,-33,-122
1075,-26,-243,-25,92,-30,-125
1080,-27,-241,-24,81,-30,-127
1085,-29,-239,-20,70,-27,-129
1090,-26,-242,-22,61,-21,-130
1095,-26,-242,-22,51,-15,-131
1100,-29,-241,-28,41,-8,-134
1105,-27,-242,-19,36,0,-135
1110,-30,-243,-20,33,8,-137
1115,-33,-246,-21,30,14,-137
1120,-32,-249,-18,30,19,-137
1125,-34,-249,-20,26,24,-138
1130,-37,-249,-18,24,24,-138
1135,-36,-249,-20,19,27,-138
1140,-40,-252,-22,19,31,-137
1145,-36,-253,-19,22,40,-134
1150,-37,-255,-19,31,50,-131
1155,-37,-253,-17,42,59,-129
1160,-39,-264,-7,54,68,-126
1165,-37,-256,-10,62,76,-122
1170,-38,-255,-9,68,81,-116
1175,-37,-256,-6,71,86,-109
1180,-39,-254,-8,72,93,-102
1185,-38,-253,-6,71,104,-95
1190,-38,-255,-4,72,118,-83
1195,-40,-255,-2,73,128,-77
1200,-39,-254,-9,79,140,-77
1205,-40,-253,-9,82,151,-73
1210,-39,-255,-8,81,160,-66
1215,-39,-254,-13,75,168,-63
1220,-44,-256,-15,62,177,-55
1225,-45,-256,-19,39,185,-46
1230,-51,-261,-23,9,187,-35
1235,-52,-260,-29,-26,186,-27
1240,-57,-267,-36,-64,176,-13
1245,-63,-275,-46,-102,160,-1
1250,-69,-280,-50,-141,137,10
1255,-72,-286,-57,-177,107,20
1260,-77,-295,-64,-205,71,34
1265,-83,-298,-69,-224,32,51
1270,-89,-304,-76,-234,-14,66
1275,-84,-316,-74,-239,-70,84
1280,-83,-322,-75,-237,-132,100
1285,-77,-328,-72,-228,-194,115
1290,-71,-335,-73,-213,-252,130
1295,-68,-334,-74,-193,-310,143
1300,-64,-335,-77,-177,-362,157
1305,-63,-335,-77,-169,-411,171
1310,-60,-332,-80,-167,-453,187
1315,-55,-328,-83,-169,-488,195
1320,-50,-325,-87,-173,-510,197
1325,-42,-321,-84,-163,-509,198
1330,-35,-316,-88,-136,-481,194
1335,-28,-312,-83,-96,-441,180
1340,-13,-305,-78,-48,-388,158
1345,-4,-301,-83,0,-331,129
1350,1,-288,-84,36,-270,101
1355,2,-283,-84,58,-217,71
1360,4,-275,-94,77,-183,28
1365,3,-266,-99,78,-149,-10
1370,4,-261,-99,57,-110,-39
1375,5,-260,-90,30,-68,-62
1380,4,-250,-99,8,-27,-79
1385,2,-249,-103,-7,16,-91
1390,0,-244,-105,-18,60,-101
1395,-3,-238,-109,-31,101,-108
1400,-5,-231,-108,-49,142,-111
1405,-4,-226,-118,-70,184,-114
1410,-7,-218,-119,-93,223,-116
1415,-4,-210,-119,-113,263,-113
1420,0,-207,-118,-130,292,-108
1425,7,-205,-118,-141,325,-97
1430,12,-199,-119,-150,351,-88
1435,18,-200,-112,-155,376,-76
1440,22,-198,-109,-152,397,-68
1445,32,-201,-105,-142,412,-58
1450,39,-205,-98,-127,419,-52
1455,36,-199,-94,-109,419,-49
1460,36,-205,-94,-89,410,-46
1465,31,-210,-91,-74,400,-44
1470,24,-216,-89,-66,388,-44
1475,17,-222,-91,-68,379,-41
1480,8,-229,-89,-75,375,-41
1485,-2,-233,-89,-87,370,-43
1490,0,-240,-88,-98,366,-43
1495,-10,-245,-89,-112,360,-50
1500,-21,-251,-89,-124,350,-54
1505,-21,-257,-86,-132,336,-60
1510,-29,-257,-87,-142,319,-70
1515,-31,-259,-85,-150,300,-80
1520,-33,-257,-88,-160,277,-91
1525,-34,-254,-86,-169,253,-102
1530,-32,-256,-89,-177,234,-115
1535,-34,-252,-87,-178,217,-128
1540,-35,-248,-84,-172,203,-140
1545,-29,-245,-85,-159,193,-148
1550,-23,-242,-84,-139,186,-153
1555,-24,-234,-83,-122,181,-157
1560,-21,-227,-81,-110,177,-157
1565,-14,-224,-82,-104,169,-156
1570,-14,-221,-80,-103,159,-152
1575,-10,-219,-82,-104,147,-146
1580,-8,-218,-81,-109,135,-140
1585,-4,-215,-81,-122,126,-132
1590,0,-219,-78,-140,118,-127
1595,4,-215,-77,-164,115,-122
1600,2,-217,-80,-192,117,-118
1605,7,-220,-78,-217,125,-119
1610,11,-225,-78,-237,137,-123
1615,16,-229,-78,-247,152,-131
1620,18,-233,-73,-250,166,-141
1625,22,-236,-72,-245,174,-157
1630,22,-243,-70,-238,177,-170
1635,22,-246,-72,-231,179,-182
1640,19,-248,-71,-227,176,-189
1645,20,-249,-72,-222,171,-197
1650,20,-248,-72,-219,163,-204
1655,14,-249,-68,-219,156,-208
1660,11,-251,-72,-223,150,-207
1665,10,-249,-71,-232,148,-206
1670,5,-248,-75,-246,155,-203
1675,6,-249,-72,-257,162,-200
1680,7,-247,-74,-260,173,-200
1685,2,-241,-70,-256,176,-204
1690,2,-238,-73,-242,169,-207
1695,3,-235,-68,-224,156,-211
1700,2,-233,-68,-206,137,-212
1705,-5,-231,-73,-191,113,-210
1710,0,-235,-64,-178,88,-208
1715,-1,-235,-58,-166,60,-205
1720,-3,-235,-57,-156,36,-202
1725,-12,-234,-59,-149,9,-198
1730,-15,-235,-56,-144,-16,-198
1735,-16,-234,-61,-146,-36,-196
1740,-20,-229,-57,-149,-49,-183
1745,-19,-231,-58,-155,-61,-174
1750,-21,-232,-58,-163,-83,-184
1755,-21,-229,-59,-167,-101,-183
1760,-25,-226,-56,-164,-121,-177
1765,-25,-226,-58,-162,-142,-173
1770,-27,-228,-53,-161,-164,-169
1775,-28,-225,-55,-155,-190,-159
1780,-28,-229,-54,-145,-217,-152
1785,-29,-228,-54,-134,-245,-152
1790,-28,-229,-52,-127,-272,-152
1795,-29,-233,-53,-120,-299,-153
1800,-23,-236,-57,-113,-327,-153
1805,-23,-237,-50,-108,-352,-155
1810,-41,-248,-42,-98,-377,-157
1815,-21,-239,-54,-86,-405,-159
1820,-19,-242,-54,-72,-429,-158
1825,-16,-244,-53,-59,-452,-157
1830,-10,-243,-57,-49,-482,-168
1835,-9,-243,-55,-39,-502,-169
1840,-3,-243,-56,-27,-516,-162
1845,0,-246,-53,-18,-521,-150
1850,0,-245,-54,-8,-527,-142
1855,4,-245,-51,0,-528,-131
1860,6,-246,-58,10,-529,-121
1865,5,-243,-52,19,-531,-109
1870,7,-243,-53,31,-533,-101
1875,8,-241,-50,43,-537,-92
1880,7,-239,-51,52,-539,-82
1885,11,-237,-55,54,-541,-76
1890,8,-238,-60,52,-543,-68
1895,8,-237,-58,45,-544,-59
1900,5,-241,-59,31,-548,-49
1905,5,-243,-57,17,-551,-41
1910,4,-247,-52,6,-551,-32
1915,1,-248,-52,-5,-545,-23
1920,-2,-252,-52,-14,-532,-15
1925,-2,-254,-51,-20,-516,-5
1930,-3,-254,-51,-28,-493,2
1935,-2,-260,-55,-37,-471,6
1940,-3,-262,-55,-46,-450,8
1945,0,-264,-57,-58,-430,3
1950,1,-266,-55,-71,-416,-4
1955,2,-268,-55,-81,-403,-18
1960,4,-266,-50,-86,-390,-37
1965,8,-272,-46,-86,-380,-57
1970,5,-268,-43,-79,-370,-81
1975,6,-268,-37,-66,-364,-107
1980,3,-269,-39,-50,-360,-129
1985,1,-270,-31,-34,-361,-149
1990,-4,-267,-34,-17,-366,-165
1995,-4,-272,-29,0,-378,-180
2000,-10,-272,-27,21,-392,-190
2005,-17,-271,-30,43,-403,-192
2010,-18,-272,-38,56,-418,-183
2015,-20,-271,-40,49,-434,-161
2020,-26,-271,-52,17,-456,-139
2025,-22,-277,-58,-42,-484,-122
2030,-19,-277,-65,-126,-509,-113
2035,-19,-287,-81,-228,-527,-112
2040,-17,-297,-86,-330,-527,-113
2045,-10,-307,-85,-414,-512,-116
2050,0,-319,-82,-455,-483,-137
2055,0,-330,-76,-447,-446,-164
2060,8,-335,-72,-401,-413,-206
2065,13,-339,-73,-318,-366,-237
2070,18,-343,-74,-218,-313,-256
2075,31,-340,-80,-121,-252,-270
2080,32,-337,-84,-42,-186,-285
2085,44,-327,-94,19,-130,-290
2090,45,-314,-106,66,-74,-282
2095,51,-311,-118,96,-21,-260
2100,57,-299,-132,110,22,-238
2105,59,-287,-144,105,56,-218
2110,58,-277,-147,77,81,-212
2115,57,-270,-155,32,94,-214
2120,53,-264,-150,-9,97,-202
2125,38,-263,-145,-30,81,-187
2130,29,-258,-140,-24,46,-178
2135,13,-255,-139,2,2,-169
2140,4,-257,-129,42,-42,-156
2145,-5,-249,-125,77,-82,-141
2150,-20,-243,-132,99,-120,-118
2155,-35,-232,-132,106,-161,-88
2160,-47,-218,-135,98,-205,-58
2165,-55,-205,-131,77,-255,-31
2170,-63,-192,-141,53,-304,-11
2175,-65,-180,-145,29,-355,2
2180,-69,-167,-141,14,-397,5
2185,-68,-163,-139,10,-426,-2
2190,-69,-163,-136,24,-437,-17
2195,-66,-163,-130,51,-434,-39
2200,-58,-171,-126,84,-421,-68
2205,-49,-178,-122,112,-403,-101
2210,-35,-191,-117,127,-386,-140
2215,-22,-204,-118,124,-373,-186
2220,-13,-218,-115,101,-364,-227
2225,-3,-229,-116,60,-353,-259
2230,1,-240,-115,14,-334,-277
2235,2,-247,-118,-37,-307,-276
2240,10,-253,-122,-84,-267,-258
2245,12,-251,-116,-126,-219,-225
2250,16,-249,-113,-163,-172,-183
2255,16,-247,-117,-200,-133,-136
2260,21,-249,-114,-231,-105,-82
2265,14,-244,-116,-261,-95,-31
2270,13,-248,-109,-277,-98,20
2275,8,-250,-103,-272,-109,74
2280,7,-254,-103,-243,-118,124
2285,0,-252,-97,-190,-124,170
2290,-6,-257,-94,-133,-129,213
2295,-13,-253,-92,-59,-137,246
2300,-14,-251,-95,8,-150,273
2305,-23,-249,-91,63,-164,293
2310,-21,-247,-93,105,-176,312
2315,-23,-242,-91,136,-185,334
2320,-23,-242,-93,160,-198,355
2325,-26,-241,-89,178,-205,356
2330,-25,-238,-89,190,-206,331
2335,-24,-232,-89,195,-197,300
2340,-26,-225,-86,194,-183,265
2345,-21,-225,-83,190,-163,235
2350,-18,-225,-83,190,-143,215
2355,-10,-220,-78,193,-122,202
2360,-11,-219,-78,192,-102,188
2365,-8,-221,-80,183,-91,180
2370,-4,-218,-80,166,-87,176
2375,-4,-220,-76,142,-88,180
2380,-1,-221,-81,118,-89,189
2385,-1,-221,-79,101,-88,204
2390,-2,-220,-78,92,-77,222
2395,-4,-221,-71,96,-59,245
2400,-9,-219,-70,110,-29,268
2405,-11,-223,-66,127,8,288
2410,-14,-223,-62,141,47,303
2415,-14,-228,-60,150,87,314
2420,-17,-225,-57,151,119,323
2425,-22,-226,-56,143,146,329
2430,-24,-224,-54,126,168,331
2435,-24,-226,-59,105,187,332
2440,-27,-226,-58,85,203,328
2445,-23,-223,-55,68,217,319
2450,-28,-220,-59,56,228,305
2455,-25,-218,-54,54,241,285
2460,-19,-213,-60,62,251,262
2465,-24,-214,-50,77,260,235
2470,-28,-211,-47,96,265,208
2475,-26,-211,-49,121,272,180
2480,-31,-209,-46,145,278,153
2485,-27,-208,-48,166,286,127
2490,-33,-209,-47,184,294,99
2495,-28,-209,-46,195,304,75
2500,-29,-213,-45,198,312,52
2505,-27,-211,-42,197,322,29
2510,-26,-216,-40,200,333,9
2515,-24,-216,-42,199,345,-11
2520,-22,-218,-41,198,354,-29
2525,-22,-223,-35,197,366,-47
2530,-18,-225,-29,200,376,-64
2535,-20,-228,-34,203,385,-79
2540,-19,-230,-32,207,395,-93
2545,-20,-233,-29,212,404,-109
2550,-18,-234,-27,218,414,-123
2555,-19,-236,-32,226,424,-136
2560,-19,-238,-29,232,433,-152
2565,-21,-236,-31,239,438,-164
2570,-25,-245,-45,244,442,-178
2575,-24,-241,-40,242,438,-192
2580,-26,-239,-46,230,428,-204
2585,-29,-235,-50,206,411,-216
2590,-31,-233,-56,174,391,-225
2595,-38,-231,-63,139,370,-235
2600,-43,-230,-63,107,344,-240
2605,-50,-232,-61,77,315,-244
2610,-56,-233,-60,55,273,-246
2615,-59,-233,-50,42,224,-244
2620,-65,-234,-50,43,169,-237
2625,-67,-243,-45,59,123,-221
2630,-64,-247,-35,83,92,-201
2635,-66,-252,-32,113,81,-175
2640,-61,-260,-28,144,86,-147
2645,-58,-265,-20,174,103,-118
2650,-49,-268,-22,199,127,-92
2655,-37,-275,-17,217,154,-67
2660,-27,-278,-13,235,182,-49
2665,-15,-283,-9,248,213,-35
2670,-10,-287,-7,259,247,-24
2675,1,-291,-3,269,283,-11
2680,6,-294,-8,272,327,5
2685,18,-301,-4,274,363,17
2690,23,-302,-11,270,396,29
2695,25,-305,-19,252,428,47
2700,26,-311,-28,222,458,74
2705,24,-317,-40,183,483,105
2710,14,-324,-52,140,502,138
2715,1,-332,-68,92,515,179
2720,-7,-342,-77,41,526,227
2725,-22,-350,-84,-4,530,274
2730,-33,-359,-88,-32,523,309
2735,-43,-363,-85,-33,505,337
2740,-45,-371,-78,-3,477,358
2745,-55,-370,-76,60,437,379
2750,-65,-372,-76,150,381,392
2755,-81,-363,-79,250,287,390
2760,-87,-355,-98,317,178,388
2765,-90,-341,-108,355,76,399
2770,-89,-325,-121,343,-6,412
2775,-91,-310,-135,290,-65,420
2780,-87,-297,-147,202,-97,426
2785,-86,-288,-151,104,-103,425
2790,-72,-281,-149,17,-77,423
2795,-65,-275,-145,-44,-31,413
2800,-55,-272,-134,-67,17,407
2805,-43,-264,-135,-65,68,411
2810,-25,-257,-134,-46,121,415
2815,-11,-249,-134,-22,180,418
2820,7,-237,-139,1,250,416
2825,28,-217,-144,22,335,410
2830,50,-201,-147,38,431,398
2835,64,-181,-150,47,529,379
2840,77,-162,-152,46,622,351
2845,89,-153,-148,43,699,317
2850,98,-146,-139,43,759,280
2855,99,-147,-133,47,807,240
2860,97,-152,-129,57,853,205
2865,86,-161,-120,72,896,170
2870,68,-177,-113,87,938,136
2875,48,-191,-106,94,968,114
2880,21,-208,-99,81,984,108
2885,0,-223,-100,48,976,113
2890,-24,-238,-93,-8,943,118
2895,-42,-239,-95,-77,888,126
2900,-62,-260,-82,-152,817,136
2905,-72,-268,-80,-227,735,154
2910,-81,-275,-78,-290,649,175
2915,-93,-278,-78,-337,570,193
2920,-95,-276,-82,-365,504,200
2925,-98,-266,-88,-375,452,193
2930,-88,-260,-91,-365,410,166
2935,-77,-249,-90,-337,376,124
2940,-65,-237,-94,-293,348,67
2945,-57,-227,-89,-239,326,2
2950,-38,-218,-95,-181,311,-63
2955,-30,-212,-90,-127,302,-124
2960,-16,-209,-85,-82,294,-180
2965,-1,-209,-86,-52,290,-223
2970,3,-205,-82,-35,289,-254
2975,8,-208,-82,-34,290,-273
2980,15,-212,-80,-49,293,-278
2985,17,-215,-83,-77,303,-273
2990,18,-215,-82,-110,313,-259
2995,20,-222,-78,-142,330,-241
3000,20,-221,-82,-166,345,-222
3005,16,-230,-75,-183,359,-200
3010,11,-238,-79,-192,365,-184
3015,6,-241,-77,-196,363,-174
3020,1,-243,-77,-197,352,-167
3025,-6,-241,-77,-194,333,-165
3030,-11,-247,-80,-193,310,-167
3035,-17,-248,-72,-190,286,-174
3040,-23,-249,-74,-181,262,-187
3045,-27,-248,-69,-169,240,-207
3050,-27,-248,-66,-151,224,-228
3055,-28,-248,-64,-130,213,-253
3060,-24,-247,-61,-108,205,-279
3065,-21,-247,-59,-87,192,-308
3070,-19,-244,-56,-65,173,-344
3075,-12,-239,-57,-48,154,-376
3080,-7,-236,-59,-41,135,-399
3085,-3,-234,-59,-39,119,-412
3090,1,-231,-58,-39,102,-420
3095,3,-230,-54,-38,85,-429
3100,6,-229,-54,-40,68,-427
3105,9,-228,-55,-39,52,-419
3110,6,-233,-52,-38,34,-404
3115,6,-226,-53,-35,14,-385
3120,2,-225,-51,-31,-6,-360
3125,5,-228,-49,-23,-24,-338
3130,1,-225,-51,-15,-43,-314
3135,-4,-227,-49,-4,-59,-292
3140,-8,-226,-49,10,-79,-276
3145,-14,-228,-45,36,-97,-267
3150,-18,-222,-47,78,-119,-266
3155,-12,-218,-44,114,-142,-239
3160,-6,-217,-45,111,-162,-195
3165,-10,-213,-45,83,-182,-167
3170,-14,-212,-39,54,-201,-156
3175,-15,-215,-40,33,-224,-152
3180,-16,-211,-35,20,-246,-148
3185,-15,-213,-32,14,-271,-137
3190,-14,-220,-34,16,-296,-123
3195,-13,-223,-35,27,-319,-113
3200,-13,-229,-30,40,-344,-104
3205,-12,-227,-34,49,-367,-99
3210,-8,-234,-32,57,-391,-97
3215,-9,-232,-29,62,-415,-94
3220,-10,-228,-30,62,-438,-90
3225,-11,-239,-27,64,-456,-85
3230,-8,-244,-25,70,-477,-84
3235,-9,-246,-27,77,-497,-74
3240,-11,-249,-22,87,-517,-68
3245,-10,-251,-33,99,-536,-59
3250,-15,-250,-31,115,-551,-47
3255,-9,-252,-34,131,-565,-33
3260,-9,-249,-38,142,-576,-18
3265,-7,-248,-42,148,-581,0
3270,-8,-245,-46,147,-582,17
3275,0,-243,-50,139,-574,35
3280,5,-241,-52,124,-556,51
3285,14,-240,-58,104,-527,62
3290,21,-236,-54,81,-480,64
3295,34,-233,-47,61,-415,63
3300,45,-239,-44,47,-341,55
3305,56,-243,-43,39,-262,39
3310,65,-249,-34,35,-192,13
3315,70,-259,-35,37,-139,-18
3320,74,-265,-27,40,-108,-51
3325,77,-274,-21,45,-93,-87
3330,77,-281,-17,52,-89,-121
3335,68,-287,-15,61,-89,-144
3340,60,-292,-12,72,-85,-160
3345,46,-294,-5,87,-78,-165
3350,34,-298,-2,100,-70,-166
3355,19,-292,2,116,-64,-158
3360,5,-290,-2,131,-63,-141
3365,-5,-287,-2,139,-70,-119
3370,-19,-281,-8,137,-86,-90
3375,-32,-282,-16,120,-112,-62
3380,-41,-282,-21,85,-142,-35
3385,-46,-286,-32,34,-177,-13
3390,-44,-297,-46,-33,-203,-1
3395,-39,-308,-54,-102,-207,1
3400,-30,-317,-56,-157,-183,-8
3405,-14,-334,-54,-188,-133,-31
3410,-8,-341,-55,-186,-74,-67
3415,2,-349,-52,-154,-17,-111
3420,17,-355,-55,-101,29,-150
3425,26,-359,-59,-38,62,-182
3430,36,-356,-61,18,96,-198
3435,48,-342,-59,70,128,-204
3440,47,-335,-73,125,157,-191
3445,52,-319,-84,176,180,-166
3450,54,-306,-99,210,195,-133
3455,54,-289,-110,213,202,-91
3460,51,-278,-128,174,206,-44
3465,51,-273,-140,92,204,-3
3470,50,-269,-153,-17,203,19
3475,47,-274,-164,-134,211,19
3480,42,-278,-156,-226,229,8
3485,38,-286,-146,-264,253,-15
3490,30,-284,-142,-247,272,-51
3495,20,-278,-140,-197,275,-96
3500,2,-265,-140,-144,256,-141
3505,-15,-251,-146,-107,208,-180
3510,-39,-234,-147,-83,135,-207
3515,-69,-216,-142,-70,47,-221
3520,-93,-196,-137,-57,-50,-220
3525,-117,-182,-131,-40,-141,-200
3530,-135,-175,-124,-16,-218,-169
3535,-147,-168,-118,19,-277,-129
3540,-154,-163,-112,51,-309,-86
3545,-148,-174,-118,61,-318,-47
3550,-137,-180,-102,50,-308,-19
3555,-122,-188,-98,16,-297,-6
3560,-91,-209,-94,-28,-287,-5
3565,-64,-224,-91,-73,-278,-14
3570,-36,-235,-95,-112,-265,-35
3575,-7,-248,-93,-155,-244,-59
3580,13,-258,-94,-197,-217,-85
3585,33,-272,-95,-241,-184,-108
3590,49,-288,-91,-281,-147,-126
3595,58,-290,-93,-316,-106,-134
3600,60,-293,-98,-346,-66,-126
3605,62,-293,-98,-367,-23,-101
3610,64,-290,-97,-378,15,-58
3615,61,-284,-94,-372,49,-4
3620,48,-273,-95,-343,77,63
3625,38,-267,-87,-297,96,137
3630,22,-258,-86,-227,101,214
3635,11,-249,-82,-151,95,284
3640,0,-245,-82,-73,80,346
3645,-13,-233,-77,-9,62,389
3650,-23,-225,-77,34,40,420
3655,-32,-219,-71,56,21,439
3660,-39,-215,-71,62,8,446
3665,-41,-207,-71,52,-1,444
3670,-42,-203,-70,28,-5,437
3675,-41,-199,-71,4,-10,435
3680,-37,-200,-72,-14,-10,455
3685,-40,-205,-67,-21,-14,456
3690,-40,-208,-64,-18,-18,406
3695,-37,-206,-57,-15,-15,327
3700,-32,-210,-58,-18,-7,255
3705,-28,-214,-56,-23,4,210
3710,-20,-220,-57,-28,19,197
3715,-9,-223,-54,-35,42,203
3720,-6,-227,-54,-52,70,213
3725,-6,-229,-55,-69,91,211
3730,-6,-229,-54,-72,112,213
3735,-5,-224,-53,-64,145,219
3740,-3,-224,-53,-55,180,229
3745,-2,-221,-57,-50,222,240
3750,0,-215,-49,-47,264,250
3755,-3,-213,-53,-51,299,266
3760,-12,-208,-46,-60,326,280
3765,-9,-208,-49,-68,349,293
3770,-14,-204,-45,-70,369,299
3775,-18,-207,-43,-65,386,304
3780,-20,-208,-43,-58,403,303
3785,-24,-210,-46,-49,419,300
3790,-24,-208,-46,-43,434,288
3795,-27,-215,-44,-35,450,270
3800,-28,-215,-47,-27,460,245
3805,-30,-212,-42,-14,473,219
3810,-32,-218,-42,1,483,188
3815,-41,-217,-47,19,488,156
3820,-35,-216,-39,39,492,123
3825,-32,-220,-37,60,496,92
3830,-33,-225,-31,82,496,64
3835,-39,-229,-35,107,495,38
3840,-42,-227,-32,130,495,12
3845,-43,-235,-30,152,493,-10
3850,-43,-238,-34,174,498,-31
3855,-41,-238,-26,197,500,-53
3860,-42,-242,-25,222,503,-74
3865,-38,-244,-19,249,505,-94
3870,-34,-252,1,283,506,-114
3875,-37,-247,-16,316,513,-131
3880,-34,-250,-17,354,520,-145
3885,-32,-249,-13,393,526,-158
3890,-32,-249,-11,421,536,-169
3895,-28,-252,-17,446,531,-182
3900,-22,-248,-20,473,514,-197
3905,-19,-246,-24,485,497,-214
3910,-14,-247,-29,474,481,-232
3915,-14,-242,-29,448,458,-249
3920,-22,-237,-33,410,421,-268
3925,-30,-227,-39,362,361,-283
3930,-43,-222,-42,306,285,-291
3935,-58,-209,-45,242,192,-292
3940,-73,-205,-44,179,91,-282
3945,-85,-203,-35,130,-5,-261
3950,-95,-209,-26,112,-81,-235
3955,-106,-221,-20,132,-132,-199
3960,-108,-230,-12,179,-155,-156
3965,-112,-249,-3,242,-151,-115
3970,-107,-262,7,305,-136,-77
3975,-102,-285,21,365,-115,-46
3980,-87,-292,28,425,-92,-21
3985,-70,-302,23,472,-76,2
3990,-56,-310,28,495,-63,21
3995,-36,-314,9,476,-57,38
4000,-23,-315,-1,412,-56,45
4005,-1,-318,-18,309,-58,52
4010,6,-323,-36,178,-66,67
4015,10,-329,-54,25,-79,89
4020,8,-336,-72,-148,-104,120
4025,5,-353,-88,-305,-122,157
4030,-7,-370,-96,-432,-137,208
4035,-11,-385,-89,-509,-157,267
4040,-18,-398,-87,-506,-178,321
4045,-18,-407,-75,-418,-200,365
4050,-25,-409,-65,-247,-216,398
4055,-45,-403,-66,-18,-236,432
4060,-59,-391,-78,218,-269,482
4065,-61,-378,-90,395,-287,558
4070,-68,-371,-109,493,-304,604
4075,-57,-342,-141,540,-345,576
4080,-53,-323,-157,518,-331,555
4085,-46,-298,-183,446,-304,493
4090,-39,-276,-187,328,-252,416
4095,-34,-253,-191,184,-171,364
4100,-21,-243,-186,41,-72,339
4105,-10,-228,-185,-75,40,327
4110,6,-226,-183,-151,151,336
4115,26,-220,-178,-186,268,353
4120,49,-217,-177,-187,388,372
4125,64,-205,-173,-167,506,389
4130,88,-198,-162,-140,608,406
4135,106,-191,-156,-112,692,412
4140,119,-186,-149,-86,751,404
4145,123,-186,-140,-54,791,381
4150,116,-184,-137,-25,817,346
4155,108,-194,-130,-2,833,307
4160,86,-203,-122,10,846,261
4165,53,-221,-122,13,856,219
4170,26,-234,-112,4,864,179
4175,-2,-246,-107,-14,858,141
4180,-24,-254,-110,-38,835,104
4185,-49,-261,-102,-73,796,74
4190,-63,-277,-100,-120,746,53
4195,-82,-277,-94,-172,688,40
4200,-94,-279,-89,-219,627,27
4205,-104,-277,-87,-254,574,11
4210,-104,-278,-86,-272,525,-10
4215,-103,-271,-88,-277,479,-43
4220,-95,-269,-83,-269,438,-83
4225,-89,-255,-86,-249,396,-128
4230,-77,-245,-81,-222,356,-175
4235,-66,-237,-83,-192,318,-221
4240,-58,-228,-80,-169,281,-261
4245,-50,-221,-78,-153,247,-296
4250,-40,-214,-75,-144,220,-323
4255,-28,-209,-71,-143,202,-341
4260,-22,-206,-76,-145,183,-351
4265,-14,-204,-68,-150,169,-356
4270,-8,-200,-74,-158,158,-355
4275,0,-197,-68,-165,149,-350
4280,0,-197,-66,-170,136,-344
4285,0,-196,-64,-176,123,-336
4290,0,-202,-61,-180,110,-329
4295,0,-202,-65,-186,102,-321
4300,2,-221,-53,-194,92,-316
4305,0,-212,-56,-207,80,-313
4310,-2,-219,-55,-223,66,-314
4315,-5,-223,-53,-246,46,-321
4320,-10,-222,-52,-269,28,-325
4325,-11,-226,-51,-292,2,-330
4330,-12,-229,-52,-309,-22,-336
4335,-14,-225,-51,-325,-40,-338
4340,-11,-222,-54,-335,-58,-340
4345,-9,-222,-53,-341,-75,-346
4350,-5,-221,-52,-337,-88,-355
4355,-2,-218,-54,-325,-106,-368
4360,2,-219,-52,-306,-123,-385
4365,3,-219,-53,-279,-144,-402
4370,8,-220,-53,-252,-167,-418
4375,5,-219,-53,-227,-197,-426
4380,7,-219,-60,-207,-227,-426
4385,7,-220,-60,-194,-258,-420
4390,6,-223,-58,-181,-288,-405
4395,8,-222,-55,-168,-315,-384
4400,5,-221,-58,-152,-339,-358
4405,9,-226,-49,-137,-356,-329
4410,11,-216,-65,-122,-371,-300
4415,3,-223,-53,-109,-386,-272
4420,2,-228,-51,-95,-398,-244
4425,1,-223,-52,-81,-408,-219
4430,1,-226,-50,-71,-420,-196
4435,0,-223,-45,-60,-430,-170
4440,-1,-224,-47,-47,-442,-150
4445,-3,-225,-43,-36,-455,-133
4450,-6,-223,-39,-23,-470,-116
4455,-5,-226,-36,-7,-483,-103
4460,-6,-230,-31,15,-496,-91
4465,-5,-233,-27,40,-509,-81
4470,-6,-236,-29,67,-521,-74
4475,-9,-237,-25,93,-535,-69
4480,-11,-240,-26,115,-551,-63
4485,-12,-245,-28,132,-571,-56
4490,-14,-246,-25,144,-600,-50
4495,-19,-249,-20,163,-632,-40
4500,-18,-253,-22,183,-667,-30
4505,-23,-256,-25,207,-698,-15
4510,-27,-254,-33,229,-721,8
4515,-29,-252,-34,247,-726,40
4520,-20,-250,-46,253,-719,72
4525,-19,-240,-47,244,-684,108
4530,-12,-236,-54,224,-621,140
4535,0,-225,-61,195,-538,160
4540,10,-216,-55,165,-443,165
4545,22,-210,-53,142,-349,159
4550,32,-206,-52,130,-270,139
4555,42,-205,-47,131,-212,110
4560,49,-209,-44,142,-178,73
4565,60,-213,-40,157,-168,36
4570,66,-221,-33,167,-178,1
4575,68,-232,-30,171,-190,-30
4580,68,-247,-23,168,-200,-55
4585,65,-264,-19,163,-204,-81
4590,59,-277,-11,163,-202,-104
4595,50,-288,1,168,-199,-125
4600,36,-298,2,172,-201,-144
4605,17,-307,3,172,-208,-158
4610,3,-311,-6,160,-229,-167
4615,-11,-312,-14,133,-248,-169
4620,-27,-314,-27,81,-269,-161
4625,-36,-314,-54,4,-282,-144
4630,-38,-324,-70,-96,-276,-132
4635,-31,-335,-88,-217,-244,-130
4640,-25,-345,-105,-348,-192,-142
4645,-16,-356,-106,-461,-130,-164
4650,-6,-371,-108,-519,-63,-197
4655,10,-387,-92,-497,3,-244
4660,22,-397,-82,-388,70,-308
4665,33,-401,-68,-216,130,-375
4670,40,-394,-66,-20,186,-436
4675,42,-383,-74,161,241,-474
4680,53,-367,-75,302,291,-474
4685,56,-351,-96,401,337,-449
4690,56,-326,-117,447,374,-410
4695,54,-307,-139,434,399,-366
4700,44,-283,-142,360,399,-315
4705,31,-272,-139,246,364,-254
4710,19,-257,-133,127,298,-197
4715,10,-252,-121,32,222,-149
4720,0,-251,-114,-32,145,-115
4725,-13,-246,-111,-66,75,-97
4730,-25,-242,-121,-99,7,-95
4735,-39,-232,-127,-132,-62,-102
4740,-57,-220,-137,-167,-142,-120
4745,-74,-204,-140,-198,-238,-142
4750,-89,-188,-142,-220,-351,-170
4755,-105,-178,-137,-224,-443,-201
4760,-121,-162,-137,-207,-548,-231
4765,-133,-156,-134,-167,-631,-250
4770,-142,-154,-132,-115,-683,-256
4775,-143,-157,-131,-66,-705,-250
4780,-133,-170,-131,-36,-704,-239
4785,-113,-190,-125,-29,-690,-227
4790,-90,-209,-127,-55,-666,-221
4795,-66,-232,-123,-107,-635,-211
4800,-41,-257,-117,-177,-592,-198
4805,-16,-281,-118,-247,-531,-184
4810,1,-298,-115,-313,-452,-175
4815,17,-312,-111,-378,-368,-165
4820,33,-314,-111,-441,-283,-155
4825,50,-319,-109,-505,-206,-141
4830,57,-314,-110,-555,-143,-122
4835,63,-308,-104,-584,-94,-94
4840,64,-307,-95,-579,-59,-55
4845,60,-286,-94,-533,-34,-3
4850,54,-275,-87,-448,-17,57
4855,36,-261,-84,-335,-5,117
4860,27,-248,-84,-213,-4,173
4865,15,-243,-83,-91,-11,226
4870,3,-228,-79,19,-26,271
4875,-5,-218,-80,106,-44,308
4880,-9,-216,-79,165,-61,336
4885,-15,-210,-76,194,-78,356
4890,-22,-208,-76,197,-96,369
4895,-31,-205,-74,181,-113,375
4900,-31,-212,-70,153,-130,374
4905,-33,-211,-68,120,-141,372
4910,-36,-211,-74,86,-145,368
4915,-35,-210,-70,54,-145,369
4920,-36,-214,-65,31,-143,377
4925,-35,-217,-63,17,-135,388
4930,-33,-218,-64,13,-120,379
4935,-31,-217,-66,18,-104,349
4940,-30,-216,-61,18,-84,316
4945,-26,-216,-62,12,-65,289
4950,-20,-212,-53,6,-49,277
4955,-15,-217,-60,4,-32,273
4960,-11,-214,-60,6,-13,280
4965,-8,-213,-58,17,8,292
4970,-7,-212,-52,35,38,303
4975,-6,-212,-50,63,76,315
4980,-7,-212,-47,92,117,328
4985,-11,-207,-48,112,154,343
4990,-17,-208,-46,122,185,359
4995,-20,-206,-41,118,208,375
5000,-22,-210,-45,107,231,386
5005,-30,-211,-40,93,255,393
5010,-30,-212,-42,82,283,399
5015,-35,-213,-41,72,319,398
5020,-36,-214,-43,67,355,392
5025,-41,-215,-45,61,390,379
5030,-39,-214,-45,52,421,356
5035,-42,-216,-50,43,446,326
5040,-39,-213,-47,31,468,294
5045,-36,-212,-48,22,486,261
5050,-35,-212,-48,18,498,226
5055,-30,-214,-45,22,511,192
5060,-23,-218,-54,34,521,158
5065,-21,-219,-46,47,533,124
5070,-20,-215,-40,67,543,91
5075,-19,-219,-37,85,552,58
5080,-19,-222,-34,104,559,30
5085,-20,-218,-34,123,569,5
5090,-21,-223,-29,143,582,-17
5095,-21,-225,-27,163,598,-34
5100,-20,-230,-21,185,618,-50
5105,-17,-233,-21,210,647,-65
5110,-12,-240,-17,238,682,-80
5115,-14,-244,-14,271,720,-98
5120,-5,-247,-16,299,758,-117
5125,-3,-248,-14,324,792,-136
5130,2,-249,-17,344,819,-157
5135,3,-247,-21,352,836,-180
5140,4,-245,-27,345,838,-205
5145,0,-242,-33,323,828,-231
5150,-3,-238,-38,287,803,-252
5155,-14,-233,-37,248,769,-268
5160,-27,-226,-44,213,729,-278
5165,-42,-219,-41,187,684,-282
5170,-54,-215,-45,166,631,-280
5175,-66,-214,-46,149,570,-272
5180,-80,-213,-44,138,506,-258
5185,-89,-215,-42,138,441,-241
5190,-99,-216,-44,143,383,-219
5195,-108,-220,-42,152,335,-194
5200,-117,-227,-33,168,298,-166
5205,-122,-234,-29,182,272,-134
5210,-120,-248,-21,198,254,-105
5215,-111,-259,-14,209,242,-77
5220,-99,-269,-8,218,238,-55
5225,-84,-278,-5,225,239,-38
5230,-64,-289,1,228,248,-21
5235,-49,-299,8,233,265,-8
5240,-33,-306,8,237,285,10
5245,-17,-310,8,238,307,26
5250,-1,-310,3,235,328,40
5255,8,-311,5,226,348,52
5260,19,-312,4,220,369,65
5265,20,-310,1,220,395,82
5270,24,-309,-2,224,428,105
5275,25,-310,-15,227,467,131
5280,15,-312,-25,223,508,162
5285,6,-313,-43,211,550,196
5290,0,-317,-64,185,588,232
5295,-14,-321,-85,147,618,263
5300,-30,-326,-101,97,635,285
5305,-48,-327,-115,45,631,299
5310,-65,-333,-120,0,592,306
5315,-82,-339,-128,-27,521,316
5320,-95,-346,-130,-31,430,331
5325,-102,-357,-136,-9,319,344
5330,-111,-361,-145,20,192,364
5335,-112,-363,-158,26,62,401
5340,-116,-362,-175,-3,-64,457
5345,-114,-357,-186,-63,-184,520
5350,-104,-346,-190,-135,-286,586
5355,-88,-333,-188,-183,-343,640
5360,-67,-316,-183,-189,-346,673
5365,-49,-296,-181,-163,-302,696
5370,-16,-275,-172,-133,-217,707
5375,9,-252,-173,-116,-102,700
5380,45,-237,-169,-110,25,676
5385,66,-214,-172,-108,151,633
5390,107,-200,-161,-105,260,581
5395,133,-185,-159,-108,350,520
5400,156,-181,-151,-115,418,450
5405,164,-181,-142,-115,473,371
5410,163,-186,-138,-101,523,297
5415,144,-200,-128,-80,573,233
5420,121,-218,-124,-54,628,179
5425,93,-237,-113,-35,681,138
5430,58,-249,-113,-38,719,103
5435,23,-264,-114,-71,738,72
5440,-6,-279,-107,-130,734,44
5445,-41,-286,-107,-205,714,9
5450,-63,-296,-105,-286,681,-17
5455,-89,-301,-98,-358,640,-38
5460,-104,-299,-94,-419,596,-56
5465,-116,-302,-87,-459,548,-78
5470,-120,-294,-84,-473,498,-107
5475,-117,-284,-82,-463,441,-148
5480,-113,-265,-80,-430,381,-194
5485,-101,-251,-81,-382,320,-247
5490,-88,-236,-79,-330,260,-300
5495,-72,-217,-80,-276,198,-350
5500,-63,-204,-82,-225,140,-391
5505,-51,-192,-78,-182,84,-427
5510,-36,-183,-80,-149,40,-451
5515,-22,-175,-74,-126,8,-466
5520,-11,-174,-72,-115,-15,-470
5525,0,-173,-63,-110,-22,-467
5530,11,-173,-63,-115,-19,-459
5535,25,-177,-58,-127,-6,-447
5540,33,-181,-61,-146,6,-436
5545,44,-187,-59,-166,9,-424
5550,52,-194,-55,-189,5,-409
5555,55,-204,-53,-209,-1,-396
5560,50,-208,-58,-224,-12,-385
5565,47,-215,-60,-238,-19,-373
5570,40,-223,-59,-251,-17,-360
5575,35,-231,-58,-256,-5,-349
5580,28,-240,-62,-255,15,-338
5585,22,-243,-65,-250,42,-328
5590,15,-246,-66,-248,67,-319
5595,13,-244,-65,-245,86,-313
5600,14,-241,-71,-243,97,-308
5605,6,-241,-73,-244,100,-302
5610,0,-238,-70,-246,98,-292
5615,0,-234,-73,-243,93,-283
5620,-5,-226,-69,-236,87,-272
5625,-2,-221,-71,-225,80,-266
5630,-6,-221,-71,-217,79,-257
5635,-8,-216,-69,-205,75,-252
5640,-9,-214,-64,-191,70,-245
5645,-7,-210,-66,-179,63,-238
5650,-2,-214,-59,-168,50,-231
5655,-3,-215,-57,-159,33,-223
5660,2,-218,-57,-151,13,-214
5665,2,-220,-53,-142,-5,-199
5670,5,-227,-51,-132,-18,-182
5675,9,-232,-53,-124,-24,-162
5680,13,-238,-54,-118,-25,-143
5685,15,-245,-55,-110,-17,-123
5690,18,-248,-47,-101,-10,-104
5695,20,-252,-49,-84,1,-86
5700,18,-253,-47,-63,8,-73
5705,20,-255,-48,-39,15,-64
5710,18,-251,-40,-12,21,-52
5715,18,-255,-39,17,22,-40
5720,18,-257,-36,41,21,-31
5725,13,-252,-40,62,17,-22
5730,11,-250,-37,79,14,-12
5735,8,-250,-34,92,11,-2
5740,2,-246,-39,102,4,10
5745,0,-243,-33,110,-5,23
5750,-3,-240,-34,120,-14,35
5755,-8,-240,-32,133,-25,48
5760,-9,-238,-30,149,-36,62
5765,-15,-238,-25,167,-46,74
5770,-16,-240,-22,183,-57,86
5775,-15,-238,-19,199,-69,98
5780,-18,-236,-21,210,-81,109
5785,-19,-238,-27,215,-89,120
5790,-18,-241,-24,217,-91,132
5795,-10,-237,-29,215,-87,139
5800,-10,-239,-34,209,-72,147
5805,-1,-234,-37,204,-53,153
5810,2,-234,-34,197,-30,158
5815,8,-231,-29,190,-4,159
5820,17,-227,-41,180,22,159
5825,26,-227,-44,167,44,154
5830,31,-229,-44,152,63,149
5835,34,-231,-47,135,81,138
5840,42,-236,-42,118,100,123
5845,44,-241,-39,106,122,101
5850,47,-246,-36,97,144,81
5855,44,-249,-45,88,160,68
5860,39,-257,-39,74,171,67
5865,30,-259,-34,54,166,68
5870,24,-267,-32,37,151,69
5875,12,-268,-27,24,128,74
5880,5,-271,-21,15,100,81
5885,-5,-275,-20,9,66,92
5890,-9,-276,-23,8,37,105
5895,-17,-274,-26,6,18,120
5900,-22,-281,-22,0,7,135
5905,-22,-283,-29,-12,2,152
5910,-24,-287,-39,-27,3,166
5915,-23,-294,-43,-43,12,170
5920,-14,-303,-52,-64,24,169
5925,-9,-313,-60,-82,44,158
5930,0,-321,-66,-99,65,141
5935,10,-331,-68,-113,94,118
5940,22,-342,-75,-115,126,92
5945,38,-356,-78,-102,166,62
5950,50,-356,-79,-73,217,30
5955,62,-363,-81,-37,272,3
5960,65,-357,-90,-2,329,-14
5965,67,-352,-99,21,378,-22
5970,69,-342,-108,23,418,-13
5975,70,-328,-121,8,445,7
5980,71,-318,-128,-19,464,37
5985,69,-304,-141,-55,477,66
5990,64,-293,-145,-96,488,92
5995,56,-279,-146,-135,492,114
6000,47,-265,-144,-168,486,128
6005,37,-256,-147,-191,467,135
6010,21,-243,-147,-206,430,133
6015,3,-227,-145,-217,381,123
6020,-16,-210,-143,-228,320,111
6025,-43,-196,-145,-236,250,99
6030,-63,-181,-134,-238,172,91
6035,-82,-170,-136,-228,90,88
6040,-106,-160,-124,-205,11,87
6045,-121,-159,-119,-167,-58,96
6050,-134,-163,-114,-124,-109,115
6055,-141,-171,-111,-88,-143,138
6060,-137,-184,-108,-70,-157,170
6065,-129,-199,-111,-75,-157,197
6070,-109,-216,-110,-99,-146,208
6075,-82,-233,-106,-134,-126,207
6080,-53,-252,-105,-168,-85,202
6085,-25,-264,-102,-197,-26,194
6090,2,-280,-102,-218,48,182
6095,26,-289,-103,-235,129,160
6100,54,-298,-107,-254,213,132
6105,72,-302,-107,-280,288,108
6110,84,-302,-111,-312,354,86
6115,92,-297,-114,-348,407,75
6120,89,-291,-115,-383,449,76
6125,85,-278,-114,-404,480,98
6130,74,-269,-109,-395,507,141
6135,60,-259,-99,-359,527,202
6140,48,-248,-102,-297,537,273
6145,23,-242,-98,-221,535,341
6150,4,-235,-95,-140,520,408
6155,-13,-227,-92,-68,497,469
6160,-27,-218,-94,-15,469,521
6165,-39,-216,-87,20,444,566
6170,-53,-210,-90,40,424,601
6175,-60,-208,-86,50,407,625
6180,-63,-208,-85,57,396,639
6185,-64,-207,-82,67,393,623
6190,-68,-207,-82,77,400,581
6195,-68,-204,-76,90,413,528
6200,-64,-205,-75,94,428,475
6205,-61,-200,-76,78,441,433
6210,-50,-202,-78,46,450,407
6215,-46,-202,-80,3,459,396
6220,-41,-205,-78,-44,468,392
6225,-32,-209,-80,-85,482,395
6230,-24,-218,-80,-113,501,404
6235,-18,-223,-76,-126,524,419
6240,-12,-228,-69,-132,548,440
6245,-9,-236,-70,-133,570,461
6250,-8,-238,-76,-126,593,483
6255,-11,-240,-64,-112,615,504
6260,-13,-242,-66,-97,641,525
6265,-14,-240,-62,-85,669,544
6270,-17,-240,-65,-76,698,560
6275,-20,-240,-66,-75,728,568
6280,-22,-237,-69,-78,756,569
6285,-28,-233,-67,-82,784,566
6290,-29,-234,-66,-82,813,557
6295,-32,-231,-66,-78,843,540
6300,-37,-231,-67,-69,866,520
6305,-38,-232,-64,-52,883,498
6310,-42,-229,-61,-32,896,473
6315,-47,-231,-60,-9,901,450
6320,-48,-229,-59,8,902,428
6325,-45,-233,-59,25,900,407
6330,-45,-234,-60,41,900,387
6335,-44,-235,-59,55,903,369
6340,-43,-238,-55,68,908,354
6345,-44,-241,-52,78,917,341
6350,-38,-240,-55,85,926,328
6355,-36,-241,-54,85,936,317
6360,-33,-242,-58,80,945,304
6365,-27,-240,-55,71,951,295
6370,-26,-240,-49,66,955,282
6375,-23,-240,-47,72,957,268
6380,-19,-235,-50,85,961,257
6385,-14,-235,-49,104,970,248
6390,-13,-232,-47,127,987,238
6395,-13,-223,-47,152,1009,229
6400,-11,-219,-48,171,1035,221
6405,-6,-219,-48,181,1063,215
6410,-4,-217,-49,183,1087,207
6415,-2,-215,-48,181,1108,199
6420,0,-212,-50,178,1127,192
6425,-2,-210,-48,178,1141,187
6430,-6,-207,-44,182,1159,185
6435,-11,-205,-40,187,1180,186
6440,-13,-208,-37,192,1203,190
6445,-18,-204,-34,195,1229,194
6450,-25,-211,-35,195,1255,198
6455,-27,-212,-33,186,1279,202
6460,-34,-209,-34,172,1303,203
6465,-37,-215,-21,156,1316,198
6470,-44,-204,-35,145,1319,192
6475,-50,-210,-28,143,1313,189
6480,-52,-206,-24,156,1304,183
6485,-51,-204,-20,183,1294,172
6490,-52,-203,-22,223,1288,159
6495,-49,-198,-21,265,1294,144
6500,-46,-195,-20,302,1319,130
6505,-36,-192,-27,328,1358,114
6510,-25,-187,-28,340,1407,102
6515,-14,-187,-30,342,1468,86
6520,-8,-186,-38,335,1534,73
6525,1,-180,-39,314,1603,70
6530,14,-178,-47,277,1674,72
6535,27,-171,-56,229,1747,78
6540,35,-165,-62,177,1822,85
6545,43,-158,-68,126,1897,94
6550,49,-153,-76,80,1970,105
6555,51,-151,-74,41,2035,115
6560,52,-152,-66,19,2088,128
6565,42,-154,-64,13,2125,143
6570,35,-158,-55,24,2153,164
6575,23,-173,-43,53,2175,188
6580,16,-174,-37,101,2197,212
6585,3,-184,-32,156,2225,236
6590,-10,-193,-29,213,2263,263
6595,-18,-202,-25,267,2313,291
6600,-30,-210,-28,321,2368,319
6605,-38,-213,-27,373,2426,339
6610,-42,-216,-21,420,2479,351
6615,-49,-213,-22,460,2525,352
6620,-51,-211,-23,489,2550,340
6625,-50,-205,-27,513,2555,313
6630,-47,-193,-30,527,2538,279
6635,-47,-183,-40,525,2498,241
6640,-41,-172,-44,505,2449,205
6645,-36,-157,-56,481,2414,178
6650,-32,-140,-63,464,2407,164
6655,-29,-121,-61,451,2425,167
6660,-21,-108,-53,437,2460,179
6665,-17,-103,-42,425,2498,196
6670,-14,-91,-37,408,2528,210
6675,-8,-89,-33,378,2538,220
6680,-12,-88,-30,340,2528,230
6685,-19,-91,-34,311,2503,239
6690,-20,-94,-21,283,2473,252
6695,-32,-103,-19,276,2447,270
6700,-48,-112,-18,293,2437,283
6705,-60,-117,-24,321,2439,299
6710,-67,-118,-28,343,2449,308
6715,-73,-119,-38,341,2454,306
6720,-87,-113,-53,306,2445,300
6725,-103,-109,-66,238,2416,289
6730,-125,-102,-71,143,2372,283
6735,-145,-94,-76,33,2322,274
6740,-172,-85,-79,-74,2262,266
6745,-190,-83,-80,-171,2192,258
6750,-204,-73,-73,-258,2118,249
6755,-205,-76,-63,-328,2046,241
6760,-192,-83,-48,-375,1972,228
6765,-167,-96,-41,-401,1896,199
6770,-132,-108,-39,-415,1830,165
6775,-90,-110,-47,-447,1805,138
6780,-57,-112,-57,-524,1838,110
6785,-20,-115,-91,-676,1903,70
6790,12,-121,-130,-899,1986,12
6795,29,-128,-166,-1140,2094,-71
6800,35,-140,-206,-1357,2204,-175
6805,40,-149,-248,-1532,2306,-282
6810,48,-166,-284,-1671,2396,-376
6815,56,-171,-311,-1779,2469,-463
6820,55,-188,-338,-1860,2513,-546
6825,51,-202,-347,-1920,2522,-623
6830,43,-226,-357,-1957,2518,-682
6835,29,-247,-356,-1978,2517,-719
6840,18,-263,-366,-1986,2519,-723
6845,10,-275,-376,-1997,2519,-695
6850,11,-288,-387,-2020,2521,-659
6855,16,-298,-382,-2067,2516,-638
6860,16,-312,-380,-2126,2477,-642
6865,4,-317,-375,-2193,2385,-660
6870,0,-329,-363,-2257,2228,-684
6875,-6,-336,-356,-2298,2039,-708
6880,-11,-345,-341,-2304,1856,-731
6885,-18,-357,-320,-2265,1696,-748
6890,-17,-368,-297,-2189,1559,-765
6895,-18,-379,-257,-2098,1439,-805
6900,-20,-387,-224,-1975,1307,-909
6905,-13,-404,-172,-1835,1196,-1034
6910,-17,-409,-133,-1707,1112,-1151
6915,-17,-402,-95,-1572,1081,-1237
6920,-9,-393,-74,-1413,1114,-1298
6925,12,-360,-57,-1225,1198,-1357
6930,32,-319,-61,-1007,1316,-1419
6935,63,-276,-68,-791,1446,-1485
6940,92,-225,-65,-623,1586,-1560
6945,121,-182,-41,-520,1727,-1632
6950,149,-146,-18,-436,1850,-1701
6955,171,-121,8,-335,1963,-1768
6960,193,-104,10,-206,2076,-1835
6965,230,-100,-2,-79,2194,-1902
6970,268,-115,-3,20,2319,-1982
6975,310,-148,-4,128,2449,-2083
6980,339,-198,-13,265,2567,-2180
6985,352,-250,-19,397,2659,-2263
6990,375,-299,-24,484,2729,-2332
6995,372,-326,-32,555,2825,-2392
7000,361,-329,-50,637,2938,-2423
7005,330,-329,-79,725,3049,-2426
7010,322,-312,-101,801,3125,-2416
7015,318,-310,-117,852,3151,-2424
7020,302,-292,-120,880,3123,-2487
7025,273,-258,-120,894,3023,-2633
7030,261,-238,-119,901,2875,-2842
7035,270,-228,-138,871,2697,-3063
7040,292,-248,-150,807,2565,-3246
7045,323,-272,-137,783,2472,-3401
7050,329,-302,-112,797,2380,-3561
7055,340,-320,-98,844,2272,-3727
7060,322,-338,-77,918,2122,-3869
7065,323,-354,-44,1063,1902,-3931
7070,342,-352,-59,1229,1659,-3893
7075,327,-337,-73,1322,1464,-3868
7080,314,-305,-80,1336,1284,-3878
7085,292,-272,-82,1301,1088,-3918
7090,279,-258,-85,1236,842,-3986
7095,281,-259,-70,1170,561,-4094
7100,275,-257,-55,1136,285,-4220
7105,266,-252,-42,1153,37,-4303
7110,260,-238,-27,1222,-177,-4308
7115,257,-204,-32,1333,-376,-4236
7120,264,-157,-42,1440,-574,-4094
7125,284,-92,-65,1463,-744,-3924
7130,299,-31,-72,1351,-852,-3762
7135,310,12,-58,1105,-899,-3632
7140,315,29,-40,807,-906,-3552
7145,318,45,-13,586,-911,-3527
7150,319,63,14,406,-866,-3536
7155,322,64,37,268,-769,-3562
7160,319,53,54,182,-645,-3595
7165,301,34,63,154,-506,-3618
7170,259,8,63,176,-369,-3608
7175,224,-19,46,213,-224,-3526
7180,198,-50,27,249,-54,-3386
7185,180,-74,17,262,139,-3228
7190,170,-91,4,250,319,-3093
7195,172,-101,1,225,449,-3005
7200,175,-94,-9,209,515,-2954
7205,189,-67,-15,198,528,-2910
7210,199,-40,-13,185,513,-2845
7215,213,-10,-13,157,499,-2742
7220,227,16,-4,117,496,-2598
7225,248,45,3,65,507,-2419
7230,272,58,-1,-5,543,-2228
7235,284,71,0,-93,591,-2045
7240,293,76,-4,-185,662,-1865
7245,298,72,-7,-241,736,-1691
7250,295,64,-16,-224,786,-1520
7255,300,42,-24,-135,780,-1358
7260,293,24,-40,10,730,-1201
7265,285,6,-59,169,661,-1069
7270,295,-16,-82,299,598,-897
7275,284,-19,-87,370,572,-754
7280,291,-20,-88,387,576,-635
7285,292,-18,-91,361,615,-541
7290,297,-14,-85,306,671,-470
7295,313,-10,-84,244,745,-425
7300,319,-7,-77,201,842,-405
7305,312,9,-79,168,924,-385
7310,286,32,-86,91,962,-365
7315,260,54,-86,-21,956,-356
7320,241,66,-79,-131,930,-341
7325,203,75,-75,-210,921,-305
7330,179,76,-83,-279,922,-235
7335,184,74,-76,-352,943,-149
7340,173,72,-79,-398,999,-91
7345,170,67,-79,-437,1050,-37
7350,201,53,-85,-486,1087,8
7355,203,45,-82,-527,1117,26
7360,238,23,-74,-562,1126,45
7365,252,8,-62,-569,1133,46
7370,255,-2,-55,-549,1131,38
7375,272,-8,-57,-515,1135,39
7380,263,-9,-59,-494,1194,37
7385,253,6,-68,-529,1274,68
7390,244,20,-73,-628,1348,113
7395,228,38,-70,-788,1412,155
7400,239,48,-55,-995,1459,197
7405,234,54,-30,-1210,1493,212
7410,241,66,-13,-1387,1505,194
7415,244,73,7,-1510,1501,122
7420,241,78,27,-1606,1519,76
7425,234,82,19,-1646,1482,-5
7430,273,92,12,-1638,1383,-98
7435,292,88,40,-1591,1278,-188
7440,305,113,55,-1431,1130,-276
7445,317,128,70,-1229,960,-319
7450,330,144,81,-992,830,-248
7455,353,173,80,-781,707,-155
7460,354,178,92,-587,684,35
7465,358,188,98,-398,685,266
7470,347,197,104,-264,641,457
7475,347,194,116,-165,554,607
7480,342,193,121,-71,433,703
7485,337,180,112,21,299,760
7490,329,164,94,71,168,801
7495,322,144,91,57,73,831
7500,320,128,95,6,23,838
7505,329,107,101,-80,-7,864
7510,322,92,102,-196,-27,944
7515,329,73,109,-315,-69,1028
7520,323,72,110,-376,-117,1072
7525,329,65,106,-322,-158,1081
7530,325,74,89,-179,-189,1077
7535,322,76,83,-21,-195,1105
7540,319,81,84,124,-187,1169
7545,313,79,90,242,-187,1213
7550,294,75,96,338,-194,1220
7555,271,65,89,403,-216,1205
7560,254,51,75,433,-243,1200
7565,241,38,70,445,-237,1196
7570,223,23,72,455,-191,1179
7575,205,17,67,459,-145,1149
7580,195,12,61,442,-130,1108
7585,187,15,46,401,-136,1055
7590,183,23,38,337,-134,1015
7595,180,25,40,252,-108,984
7600,192,35,43,160,-61,964
7605,210,40,49,79,0,947
7610,235,50,47,21,73,913
7615,251,61,53,-7,149,863
7620,255,62,58,-2,202,805
7625,250,71,59,24,222,753
7630,242,72,63,70,210,703
7635,233,73,58,145,181,673
7640,222,71,50,240,155,663
7645,209,68,44,331,153,671
7650,197,70,39,391,186,685
7655,193,65,30,414,257,695
7660,194,62,29,409,360,687
7665,197,59,39,383,476,657
7670,202,55,45,341,580,615
7675,209,55,51,302,665,564
7680,212,52,53,269,732,508
7685,216,53,47,239,770,453
7690,218,55,46,214,786,407
7695,219,63,35,194,785,373
7700,229,64,31,168,775,347
7705,238,69,28,138,764,324
7710,244,63,23,106,756,310
7715,250,58,15,64,747,302
7720,256,52,12,19,738,296
7725,260,39,11,-19,731,297
7730,262,28,5,-49,716,304
7735,260,16,1,-81,679,312
7740,252,1,0,-123,619,318
7745,246,-14,-4,-167,538,310
7750,240,-26,-5,-229,450,280
7755,239,-42,0,-293,379,233
7760,247,-41,5,-335,343,191
7765,253,-53,8,-340,333,159
7770,259,-56,22,-308,343,143
7775,262,-56,24,-250,362,123
7780,269,-55,32,-199,353,90
7785,276,-52,33,-173,320,45
7790,283,-49,37,-166,276,6
7795,293,-46,38,-166,231,-18
7800,301,-45,42,-163,191,-40
7805,301,-41,39,-154,155,-57
7810,307,-42,39,-141,117,-63
7815,309,-40,36,-121,86,-52
7820,303,-42,44,-103,61,-30
7825,302,-45,43,-80,22,0
7830,298,-44,37,-71,-24,17
7835,293,-54,33,-77,-42,48
7840,286,-62,33,-94,-34,91
7845,278,-60,32,-119,-21,117
7850,271,-73,29,-170,-13,118
7855,259,-78,34,-224,5,122
7860,261,-87,34,-259,42,150
7865,261,-84,26,-262,101,203
7870,259,-91,30,-262,136,241
7875,256,-93,29,-284,148,280
7880,250,-97,32,-294,152,339
7885,241,-101,23,-281,147,351
7890,232,-103,22,-247,141,319
7895,221,-101,18,-182,138,279
7900,217,-100,20,-75,150,256
7905,217,-94,21,48,167,250
7910,214,-87,18,143,192,257
7915,209,-73,22,186,215,263
7920,216,-66,21,183,239,266
7925,219,-64,21,139,259,257
7930,223,-60,26,74,280,248
7935,223,-57,28,5,296,245
7940,224,-61,27,-58,306,242
7945,225,-62,28,-106,316,241
7950,223,-68,26,-137,323,243
7955,221,-72,28,-153,337,245
7960,226,-72,29,-161,352,246
7965,227,-77,30,-167,366,244
7970,230,-79,32,-175,377,239
7975,234,-84,32,-182,393,231
7980,233,-83,37,-190,407,219
7985,238,-84,32,-190,419,206
7990,237,-87,35,-185,426,189
7995,237,-88,33,-174,431,173
8000,238,-90,35,-160,433,157
8005,239,-91,36,-144,430,144
8010,242,-92,42,-132,427,132
8015,240,-89,38,-121,419,119
8020,242,-87,39,-113,415,107
8025,244,-82,41,-103,415,94
8030,252,-83,41,-94,418,79
8035,253,-79,42,-84,422,64
8040,257,-72,43,-74,425,47
8045,256,-67,44,-64,421,33
8050,257,-67,45,-53,411,20
8055,258,-64,46,-38,397,7
8060,255,-63,47,-19,380,-2
8065,256,-60,43,1,363,-9
8070,255,-63,46,19,349,-16
8075,253,-59,45,37,339,-21
8080,249,-61,45,51,333,-26
8085,252,-63,48,64,330,-30
8090,246,-57,44,72,328,-31
8095,247,-56,41,75,326,-30
8100,243,-54,40,71,325,-28
8105,243,-56,43,69,324,-25
8110,242,-56,39,69,322,-20
8115,238,-57,37,70,319,-16
8120,236,-56,42,73,317,-13
8125,235,-58,45,80,311,-9
8130,234,-58,48,85,310,-7
8135,230,-59,48,89,312,-7
8140,232,-59,50,94,318,-6
8145,233,-56,52,99,328,-6
8150,233,-51,53,103,339,-7
8155,235,-50,50,103,349,-9
8160,237,-46,54,103,356,-6
8165,238,-46,53,100,358,-3
8170,239,-41,50,96,362,3
8175,241,-39,56,91,363,9
8180,245,-40,59,83,362,16
8185,242,-42,62,79,358,24
8190,251,-39,67,75,351,31
8195,239,-41,61,72,343,37
8200,242,-43,59,75,338,40
8205,243,-40,64,77,342,43
8210,241,-45,62,76,348,44
8215,245,-42,60,74,361,45
8220,245,-45,66,70,375,45
8225,245,-44,63,64,387,45
8230,244,-45,61,60,396,47
8235,246,-47,63,56,405,50
8240,242,-48,65,53,409,55
8245,244,-46,69,52,412,60
8250,244,-50,67,56,410,64
8255,241,-49,70,66,408,66
8260,240,-52,68,76,407,66
8265,243,-52,68,87,405,69
8270,245,-52,71,93,408,87
8275,248,-50,67,87,410,106
8280,246,-50,70,72,408,118
8285,247,-50,71,54,399,119
8290,244,-54,68,39,385,121
8295,239,-54,67,33,370,119
8300,243,-50,58,33,356,120
8305,240,-61,66,40,345,120
8310,237,-61,68,53,337,117
8315,235,-57,67,73,336,112
8320,236,-61,75,93,342,108
8325,235,-61,71,118,350,104
8330,236,-60,72,139,356,101
8335,236,-61,72,154,355,100
8340,238,-60,76,159,349,97
8345,240,-61,73,158,340,95
8350,239,-59,75,153,325,91
8355,237,-57,71,148,309,92
8360,238,-59,72,143,297,91
8365,237,-59,70,141,284,94
8370,239,-61,73,141,275,96
8375,237,-60,73,141,269,95
8380,235,-58,76,139,269,95
8385,236,-60,75,138,275,94
8390,237,-65,79,133,281,95
8395,235,-62,74,127,284,94
8400,232,-61,73,114,288,94
8405,227,-59,72,102,284,96
8410,225,-68,74,91,278,98
8415,227,-63,74,84,269,97
8420,226,-63,72,82,258,98
8425,225,-63,78,87,248,97
8430,225,-66,73,101,247,94
8435,229,-67,75,119,251,88
8440,225,-65,78,136,260,86
8445,230,-65,77,151,273,81
8450,230,-63,79,160,287,75
8455,231,-65,81,161,298,71
8460,230,-63,81,156,306,65
8465,227,-64,80,147,308,59
8470,230,-57,84,137,305,60
8475,233,-59,86,125,296,62
8480,229,-58,85,115,288,66
8485,229,-60,85,105,279,71
8490,231,-61,86,103,272,74
8495,233,-59,87,102,268,74
8500,230,-60,89,102,266,75
8505,231,-59,88,102,265,75
8510,231,-60,90,99,264,73
8515,230,-60,86,92,263,69
8520,235,-59,80,80,260,64
8525,224,-59,90,67,255,62
8530,227,-62,90,55,246,59
8535,224,-61,88,44,237,54
8540,223,-64,92,39,232,47
8545,223,-64,90,43,227,40
8550,224,-64,91,50,221,33
8555,225,-66,90,61,220,26
8560,227,-65,93,73,220,20
8565,223,-64,93,83,217,15
8570,225,-66,95,90,216,12
8575,228,-64,94,92,211,4
8580,228,-63,94,88,204,2
8585,225,-62,94,78,192,-3
8590,225,-64,96,67,183,-8
8595,223,-58,96,55,171,-9
8600,224,-63,91,46,161,-8
8605,229,-64,92,43,153,-7
8610,227,-62,97,42,151,-11
8615,226,-60,90,46,150,-10
8620,223,-59,93,52,150,-9
8625,228,-62,93,55,150,-8
8630,234,-51,104,57,147,-5
8635,226,-61,90,61,144,-6
8640,228,-57,91,62,138,-5
8645,229,-61,88,61,130,-3
8650,229,-62,91,63,121,-4
8655,231,-60,87,67,114,-6
8660,235,-63,90,73,110,-5
8665,229,-61,90,80,110,-6
8670,232,-60,86,89,111,-4
8675,231,-60,92,96,109,-5
8680,231,-56,89,100,109,-8
8685,229,-55,85,102,111,-10
8690,226,-56,88,100,111,-11
8695,228,-57,89,92,109,-8
8700,226,-54,91,83,109,-6
8705,228,-56,88,74,110,-9
8710,227,-55,91,68,114,-11
8715,227,-53,92,65,118,-10
8720,227,-57,93,66,123,-11
8725,229,-56,92,69,125,-11
8730,228,-54,92,70,129,-10
8735,233,-55,65,70,133,-10
8740,228,-54,91,67,134,-10
8745,227,-57,90,63,132,-10
8750,229,-56,91,56,129,-9
8755,230,-57,90,51,123,-6
8760,225,-56,87,45,117,-6
8765,227,-58,91,42,111,-4
8770,227,-60,92,41,106,-5
8775,227,-58,95,44,104,-5
8780,224,-61,94,51,103,-5
8785,225,-65,92,60,104,-6
8790,227,-62,94,69,107,-9
8795,225,-60,93,77,110,-11
8800,226,-56,93,82,113,-14
8805,229,-57,92,84,116,-16
8810,226,-54,95,84,118,-17
8815,228,-56,95,80,120,-18
8820,229,-56,94,74,120,-19
8825,227,-55,92,67,119,-18
8830,230,-57,95,61,117,-16
8835,231,-56,96,53,114,-15
8840,228,-56,92,47,108,-13
8845,226,-58,98,43,105,-13
8850,229,-58,97,42,104,-12
8855,227,-57,97,39,100,-12
8860,229,-55,95,36,97,-14
8865,230,-57,99,32,93,-16
8870,228,-57,99,29,90,-16
8875,228,-56,97,21,84,-15
8880,227,-56,96,14,82,-15
8885,227,-57,101,8,79,-15
8890,229,-58,97,4,75,-15
8895,228,-60,98,-2,72,-16
8900,228,-59,97,-6,70,-16
8905,230,-56,95,-6,69,-15
8910,226,-58,96,-5,67,-16
8915,229,-59,97,-1,70,-15
8920,226,-58,90,3,72,-15
8925,229,-59,95,4,73,-15
8930,229,-58,92,7,74,-15
8935,227,-56,91,8,74,-15
8940,227,-58,92,6,75,-15
8945,227,-55,91,5,73,-15
8950,230,-58,91,4,71,-14
8955,230,-49,93,4,68,-14
8960,229,-56,92,3,67,-13
8965,228,-55,95,4,67,-14
8970,227,-57,91,4,65,-13
8975,229,-59,95,3,66,-14
8980,226,-56,93,4,69,-14
8985,228,-56,91,5,74,-13
8990,231,-57,93,5,79,-14
8995,229,-56,91,3,84,-14
9000,229,-56,93,3,84,-12
9005,229,-57,90,2,86,-11
9010,230,-57,91,1,86,-10
9015,229,-56,89,-1,87,-8
9020,229,-54,92,-1,87,-6
9025,230,-57,91,1,85,-7
9030,230,-56,89,3,85,-6
9035,229,-55,90,8,85,-7
9040,228,-57,96,13,85,-7
9045,231,-56,92,17,87,-5
9050,230,-55,93,21,90,-6
9055,229,-55,94,21,92,-5
9060,234,-58,94,18,93,-5
9065,229,-54,90,13,94,-4
9070,227,-56,91,8,94,-4
9075,231,-55,97,3,92,-3
9080,227,-54,92,-3,89,-4
9085,230,-56,97,-7,88,-5
9090,229,-58,97,-9,90,-6
9095,231,-57,96,-11,89,-7
9100,226,-56,93,-13,91,-6
9105,228,-57,97,-16,93,-5
9110,229,-54,92,-20,96,-4
9115,226,-56,93,-24,99,-3
9120,229,-55,93,-27,99,-3
9125,228,-56,91,-30,100,-2
9130,227,-56,97,-31,100,-1
9135,227,-56,97,-27,102,0
9140,224,-56,92,-24,100,0
9145,226,-56,96,-21,99,1
9150,230,-58,94,-14,97,2
9155,229,-59,96,-9,95,0
9160,224,-57,97,-3,93,2
9165,227,-57,95,3,90,0
9170,227,-57,95,9,87,0
9175,224,-58,93,11,87,0
9180,229,-56,99,14,84,-1
9185,230,-59,98,16,86,-1
9190,228,-57,96,17,86,0
9195,226,-57,94,17,89,-1
9200,229,-56,96,18,91,1
9205,229,-56,95,16,91,0
9210,228,-57,95,15,91,1
9215,226,-55,95,16,88,2
9220,227,-57,94,14,88,3
9225,228,-56,92,12,87,4
9230,228,-57,96,12,84,3
9235,229,-56,98,10,84,5
9240,226,-56,97,10,84,5
9245,224,-53,93,9,85,6
9250,226,-56,90,10,85,5
9255,227,-58,95,11,88,7
9260,226,-57,94,12,92,8
9265,228,-57,96,12,96,8
9270,227,-55,97,14,99,7
9275,229,-56,92,14,101,8
9280,227,-60,98,14,101,7
9285,228,-56,93,13,101,8
9290,228,-56,96,12,101,9
9295,225,-55,93,10,96,9
9300,229,-57,93,7,93,9
9305,227,-56,93,4,91,9
9310,226,-55,98,1,89,8
9315,226,-56,99,-2,87,7
9320,227,-57,97,-4,87,6
9325,227,-55,96,-6,87,5
9330,226,-54,97,-8,85,3
9335,227,-56,97,-10,83,2
9340,225,-54,99,-14,80,1
9345,223,-55,98,-19,76,-1
9350,226,-57,97,-24,72,-3
9355,224,-57,100,-31,70,-2
9360,225,-56,100,-40,67,-3
9365,226,-57,101,-53,62,-4
9370,226,-56,102,-61,59,-3
9375,227,-57,97,-70,59,-3
9380,228,-55,100,-75,59,-3
9385,229,-59,97,-75,61,-2
9390,224,-55,102,-73,66,-3
9395,230,-58,95,-67,74,-4
9400,232,-61,94,-62,81,-3
9405,229,-57,93,-57,88,-1
9410,232,-58,92,-48,94,2
9415,233,-59,92,-39,95,5
9420,230,-57,94,-28,94,6
9425,229,-58,94,-15,90,4
9430,229,-58,91,-2,82,4
9435,229,-60,94,8,75,0
9440,229,-60,93,14,68,-1
9445,225,-58,93,15,62,-4
9450,227,-57,94,14,57,-4
9455,227,-58,97,11,51,-4
9460,225,-54,97,5,49,-6
9465,223,-55,95,-1,49,-6
9470,223,-54,91,-6,53,-6
9475,225,-54,91,-10,56,-7
9480,222,-52,97,-13,60,-7
9485,222,-55,95,-15,67,-6
9490,223,-54,101,-19,74,-3
9495,224,-54,100,-22,82,-3
9500,228,-52,101,-25,87,-1
9505,224,-55,100,-28,89,-2
9510,225,-57,100,-33,90,-3
9515,225,-58,101,-36,87,-3
9520,226,-56,97,-37,83,-5
9525,230,-59,102,-37,81,-6
9530,226,-58,100,-38,73,-6
9535,225,-61,103,-37,70,-6
9540,225,-55,99,-36,65,-7
9545,226,-58,99,-34,61,-9
9550,225,-57,94,-31,57,-11
9555,225,-57,98,-29,56,-11
9560,225,-57,97,-26,57,-12
9565,224,-54,98,-23,58,-12
9570,227,-57,98,-19,61,-13
9575,227,-55,97,-16,63,-14
9580,228,-55,96,-15,64,-12
9585,229,-55,95,-13,65,-12
9590,230,-56,93,-14,67,-11
9595,229,-57,98,-15,64,-10
9600,230,-55,96,-19,61,-12
9605,229,-56,96,-23,59,-12
9610,216,-55,88,-25,59,-14
9615,230,-56,98,-24,58,-15
9620,228,-54,98,-23,60,-13
9625,230,-57,94,-24,63,-13
9630,226,-55,98,-26,65,-12
9635,230,-56,95,-32,68,-11
9640,230,-56,96,-38,68,-10
9645,230,-55,98,-44,69,-8
9650,231,-55,94,-47,70,-8
9655,228,-56,96,-52,67,-6
9660,228,-55,96,-54,65,-5
9665,225,-56,94,-57,64,-6
9670,230,-54,92,-58,65,-5
9675,228,-55,96,-60,67,-5
9680,227,-56,94,-60,70,-5
9685,226,-56,93,-60,74,-5
9690,229,-57,93,-61,77,-4
9695,226,-59,95,-63,79,-4
9700,230,-57,92,-64,79,-4
9705,227,-57,97,-64,81,-3
9710,228,-59,95,-65,81,-3
9715,240,-64,102,-63,79,-2
9720,228,-57,95,-62,77,-1
9725,227,-56,96,-59,76,-3
9730,226,-60,92,-58,74,-3
9735,225,-56,94,-56,71,-5
9740,225,-56,92,-56,72,-5
9745,228,-57,93,-58,71,-9
9750,226,-58,99,-60,71,-9
9755,227,-57,95,-62,74,-11
9760,225,-54,101,-67,76,-12
9765,226,-56,97,-72,77,-13
9770,229,-59,99,-77,78,-13
9775,225,-56,96,-81,80,-14
9780,228,-60,97,-82,80,-14
9785,228,-57,95,-82,80,-14
9790,223,-59,102,-81,77,-15
9795,226,-60,96,-78,76,-15
9800,226,-58,96,-73,76,-14
9805,229,-60,93,-67,73,-15
9810,229,-57,96,-64,72,-14
9815,227,-57,92,-61,67,-15
9820,224,-56,96,-60,66,-14
9825,218,-59,87,-59,63,-13
9830,228,-57,97,-58,62,-14
9835,226,-56,94,-59,62,-13
9840,229,-57,92,-56,63,-12
9845,230,-58,93,-54,63,-12
9850,230,-60,93,-53,65,-12
9855,226,-59,95,-51,66,-12
9860,227,-58,95,-51,66,-12
9865,225,-57,95,-49,65,-11
9870,225,-58,92,-48,66,-9
9875,230,-57,93,-46,66,-8
9880,224,-57,94,-46,64,-9
9885,229,-59,94,-48,64,-7
9890,228,-60,100,-47,66,-8
9895,228,-59,91,-46,67,-7
9900,228,-59,97,-45,70,-7
9905,227,-55,94,-47,71,-6
9910,231,-55,96,-49,72,-7
9915,227,-56,95,-52,74,-6
9920,225,-55,95,-54,72,-7
9925,225,-57,96,-57,71,-8
9930,228,-57,93,-59,71,-8
9935,232,-59,90,-61,71,-9
9940,226,-57,94,-60,71,-9
9945,229,-58,94,-62,71,-11
9950,227,-57,95,-62,70,-12
9955,228,-57,93,-62,70,-14
9960,227,-57,96,-67,70,-12
9965,228,-57,98,-70,71,-14
9970,229,-59,94,-74,71,-13
9975,226,-55,94,-77,74,-13
9980,228,-58,101,-84,74,-11
9985,228,-59,96,-92,74,-11
9990,220,-58,95,-96,72,-13
9995,225,-57,94,-98,70,-12
10000,226,-59,93,-97,68,-13
10005,226,-56,93,-94,64,-13
10010,227,-59,95,-91,61,-14
10015,228,-59,94,-85,59,-15
10020,226,-59,96,-80,58,-16
10025,227,-59,98,-76,58,-15
10030,226,-62,95,-74,58,-16
10035,224,-57,98,-72,57,-16
10040,228,-57,98,-71,60,-18
10045,229,-62,97,-72,60,-18
10050,228,-57,96,-74,61,-18
10055,230,-59,93,-76,60,-17
10060,228,-58,96,-74,58,-18
10065,229,-58,93,-72,57,-19
10070,232,-57,95,-69,57,-18
10075,229,-59,94,-65,55,-17
10080,231,-58,93,-63,53,-18
10085,227,-57,94,-60,53,-17
10090,228,-58,97,-58,52,-17
10095,230,-57,94,-58,54,-16
10100,226,-57,86,-56,54,-15
10105,228,-57,95,-53,56,-13
10110,229,-59,95,-50,59,-12
10115,227,-60,91,-48,59,-10
10120,226,-61,93,-44,59,-7
10125,228,-58,93,-42,58,-8
10130,225,-58,93,-41,56,-8
10135,228,-60,92,-44,56,-7
10140,229,-59,96,-44,56,-8
10145,227,-60,96,-45,60,-10
10150,225,-59,95,-47,64,-8
10155,228,-59,97,-49,68,-11
10160,226,-58,94,-52,71,-15
10165,226,-58,94,-56,72,-18
10170,228,-58,95,-60,73,-19
10175,227,-55,96,-64,71,-21
10180,228,-58,91,-67,71,-21
10185,226,-59,97,-70,69,-23
10190,230,-61,97,-70,66,-24
10195,227,-61,95,-69,63,-23
10200,227,-58,97,-68,59,-24
10205,229,-58,95,-64,53,-25
10210,228,-60,92,-61,48,-25
10215,228,-59,97,-59,45,-24
10220,226,-58,93,-57,41,-24
10225,227,-61,93,-56,38,-24
10230,227,-60,91,-55,37,-22
10235,224,-58,93,-54,35,-22
10240,227,-58,92,-52,35,-21
10245,228,-58,92,-51,35,-21
10250,227,-56,94,-50,38,-21
10255,225,-58,93,-48,38,-22
10260,223,-48,101,-48,40,-22
10265,230,-56,92,-48,41,-23
10270,229,-56,93,-50,44,-24
10275,229,-56,97,-53,46,-22
10280,230,-58,93,-57,49,-21
10285,231,-60,94,-61,50,-19
10290,227,-59,92,-66,50,-20
10295,230,-58,92,-69,50,-20
10300,226,-59,94,-71,52,-19
10305,230,-58,90,-73,51,-18
10310,231,-59,92,-72,51,-18
10315,228,-59,91,-71,49,-17
10320,229,-59,92,-69,47,-16
10325,229,-59,88,-67,47,-18
10330,229,-58,91,-65,48,-18
10335,227,-57,91,-65,49,-16
10340,230,-59,92,-62,50,-17
10345,231,-59,91,-61,53,-16
10350,229,-57,89,-62,54,-16
10355,229,-59,88,-64,55,-15
10360,231,-60,89,-65,56,-15
10365,230,-58,90,-66,58,-15
10370,233,-61,89,-66,57,-14
10375,230,-58,85,-66,58,-12
10380,230,-59,93,-65,59,-12
10385,230,-58,83,-62,59,-10
10390,230,-58,89,-60,60,-11
10395,227,-59,93,-56,62,-8
10400,230,-58,87,-53,62,-8
10405,228,-62,91,-49,63,-6
10410,227,-57,93,-44,61,-4
10415,230,-62,93,-43,59,-6
10420,227,-58,90,-41,59,-6
10425,229,-57,86,-41,59,-6
10430,226,-57,93,-43,61,-8
10435,226,-55,89,-48,63,-12
10440,229,-58,89,-52,64,-13
10445,227,-59,93,-55,67,-13
10450,230,-58,90,-57,68,-14
10455,227,-60,92,-59,72,-15
10460,230,-60,91,-57,74,-15
10465,229,-57,90,-57,76,-14
10470,227,-60,91,-56,75,-12
10475,232,-60,93,-55,74,-12
10480,229,-59,97,-54,74,-10
10485,229,-61,91,-50,71,-10
10490,232,-60,92,-47,69,-10
10495,232,-62,90,-44,68,-8
10500,232,-59,92,-37,69,-7
10505,228,-57,91,-33,70,-6
10510,228,-58,93,-28,70,-6
10515,228,-61,91,-23,70,-6
10520,226,-56,89,-19,70,-3
10525,229,-57,87,-16,71,-1
10530,230,-59,89,-12,72,0
10535,224,-55,94,-8,73,1
10540,226,-55,86,-3,74,2
10545,229,-58,93,0,75,3
10550,229,-60,91,4,75,3
10555,228,-58,94,3,76,4
10560,227,-59,94,4,76,4
10565,231,-58,88,2,76,4
10570,228,-59,91,1,75,4
10575,227,-58,92,1,74,3
10580,225,-58,93,0,74,1
10585,230,-59,91,-1,76,2
10590,230,-56,84,1,77,2
10595,229,-59,92,2,77,1
10600,230,-60,94,2,80,1
10605,228,-59,91,2,81,2
10610,229,-59,93,2,82,2
10615,227,-58,90,1,82,4
10620,230,-58,92,1,82,4
10625,226,-58,88,-2,83,4
10630,227,-60,89,-3,84,4
10635,227,-60,94,-4,85,4
10640,229,-58,93,-5,85,4
10645,230,-61,89,-4,87,3
10650,227,-56,90,-5,88,4
10655,226,-60,94,-6,91,5
10660,227,-61,91,-7,91,4
10665,225,-58,88,-9,91,4
10670,228,-63,90,-12,89,4
10675,228,-62,89,-12,87,7
10680,228,-63,93,-11,85,6
10685,228,-59,95,-9,84,5
10690,226,-61,96,-4,81,4
10695,226,-61,87,-1,79,4
10700,231,-61,93,3,76,3
10705,228,-58,92,6,74,4
10710,224,-56,95,8,74,5
10715,228,-60,93,12,74,5
10720,229,-61,98,11,76,4
10725,229,-58,90,12,76,5
10730,228,-60,94,14,77,4
10735,229,-61,93,17,77,2
10740,232,-60,96,17,76,3
10745,229,-60,96,17,76,2
10750,228,-59,93,18,73,0
10755,227,-57,93,18,70,0
10760,227,-56,93,19,69,-1
10765,232,-60,92,19,65,-1
10770,229,-61,92,19,63,-1
10775,225,-57,90,18,60,0
10780,229,-61,92,19,59,2
10785,228,-56,87,19,59,0
10790,227,-61,95,20,61,1
10795,228,-60,93,16,62,1
10800,228,-60,90,15,63,0
10805,227,-61,89,11,66,-1
10810,227,-60,92,8,68,-2
10815,227,-61,89,5,71,-4
10820,226,-60,92,4,74,-4
10825,227,-58,93,1,74,-6
10830,229,-56,91,-1,75,-7
10835,228,-58,93,-3,75,-9
10840,227,-56,93,-3,72,-7
10845,228,-61,90,-3,70,-7
10850,228,-61,96,-2,70,-6
10855,227,-59,95,-1,69,-6
10860,229,-60,96,2,70,-7
10865,230,-60,90,5,70,-8
10870,228,-57,93,11,70,-6
10875,229,-61,92,16,69,-7
10880,229,-59,93,19,69,-6
10885,228,-60,92,20,70,-7
10890,230,-58,93,22,71,-6
10895,229,-59,89,22,71,-6
10900,231,-59,89,20,74,-4
10905,229,-57,87,17,74,-3
10910,229,-56,91,16,74,-1
10915,218,-63,89,14,74,-1
10920,233,-59,94,12,75,-2
10925,228,-56,90,12,75,-2
10930,229,-56,95,10,77,-1
10935,229,-60,92,11,76,1
10940,230,-56,91,11,78,0
10945,230,-56,92,11,81,0
10950,227,-57,92,13,83,1
10955,230,-57,87,12,86,0
10960,229,-57,95,11,86,1
10965,230,-59,93,11,86,3
10970,228,-58,90,10,86,3
10975,229,-58,91,10,85,4
10980,228,-57,91,8,84,4
10985,230,-58,87,7,81,5
10990,226,-57,94,9,78,5
10995,228,-58,95,10,78,5
11000,227,-58,92,12,76,5
11005,228,-60,89,14,77,6
11010,226,-58,93,16,80,4
11015,226,-60,94,19,81,5
11020,225,-57,93,20,85,2
11025,226,-58,97,19,89,3
11030,229,-58,93,16,89,3
11035,225,-57,91,15,91,2
11040,231,-62,93,12,91,4
11045,224,-56,93,8,90,5
11050,230,-57,90,6,88,5
11055,229,-59,90,4,86,5
11060,225,-56,93,4,84,6
11065,228,-57,94,6,84,5
11070,229,-61,97,10,84,6
11075,227,-61,92,16,87,6
11080,228,-59,92,20,87,8
11085,228,-58,92,24,90,7
11090,227,-60,97,25,90,6
11095,228,-58,95,26,92,5
11100,226,-60,96,24,91,5
11105,226,-58,94,21,89,3
11110,226,-58,95,17,87,1
11115,227,-56,92,14,86,0
11120,228,-57,96,13,85,0
11125,226,-60,95,12,84,-2
11130,226,-58,94,13,83,-2
11135,218,-55,96,15,83,-1
11140,225,-57,95,16,83,-3
11145,228,-59,94,16,82,-3
11150,226,-58,95,14,82,-2
11155,227,-57,95,10,80,-2
11160,229,-58,96,9,79,-1
11165,227,-56,93,3,77,-1
11170,226,-58,96,0,76,-1
11175,226,-58,94,-3,75,-2
11180,227,-58,94,-4,77,-2
11185,228,-57,99,-4,78,-3
11190,227,-57,95,-2,80,-4
11195,226,-59,94,1,80,-4
11200,227,-56,99,2,82,-4
11205,230,-56,96,5,81,-3
11210,229,-59,95,6,81,-1
11215,229,-58,94,10,80,0
11220,229,-59,93,12,78,-1
11225,229,-59,93,14,75,0
11230,227,-58,91,16,75,1
11235,231,-60,95,19,72,0
11240,232,-60,86,23,70,-1
11245,227,-59,90,25,70,-1
11250,229,-62,91,28,71,-2
11255,228,-55,94,30,70,-2
11260,225,-56,93,30,71,-2
11265,227,-56,91,32,74,-4
11270,226,-56,91,30,76,-3
11275,229,-57,93,29,78,-1
11280,226,-57,92,27,81,-2
11285,227,-58,92,25,83,-1
11290,228,-58,92,22,86,1
11295,229,-59,94,19,87,3
11300,227,-58,96,15,86,4
11305,228,-58,93,14,86,5
11310,227,-56,94,14,86,6
11315,226,-58,91,15,84,5
11320,228,-57,95,18,85,6
11325,225,-58,92,21,84,6
11330,228,-61,98,24,84,7
11335,228,-58,96,28,85,8
11340,227,-62,96,31,85,8
11345,227,-58,94,34,85,9
11350,236,-50,103,36,86,9
11355,228,-60,94,38,87,8
11360,228,-58,95,38,86,7
11365,225,-57,95,37,88,7
11370,226,-56,96,37,90,7
11375,227,-57,98,36,91,9
11380,225,-60,97,33,91,7
11385,229,-60,96,33,92,7
11390,228,-58,96,32,93,7
11395,227,-56,95,32,92,9
11400,227,-59,93,32,91,7
11405,227,-56,93,32,91,6
11410,228,-56,93,32,89,5
11415,228,-56,97,29,86,5
11420,228,-56,94,25,83,4
11425,228,-55,94,20,83,3
11430,229,-60,97,13,81,2
11435,226,-58,98,8,83,3
11440,226,-56,96,3,82,4
11445,226,-56,95,1,82,5
11450,228,-57,96,-1,83,6
11455,226,-57,96,-2,81,7
11460,227,-56,87,-1,78,5
11465,230,-61,97,3,76,6
11470,224,-56,94,5,75,4
11475,228,-59,95,8,72,2
11480,227,-57,95,9,68,0
11485,226,-57,91,9,66,0
11490,227,-56,97,8,66,0
11495,228,-57,97,9,64,-1
11500,227,-58,98,9,62,0
11505,226,-58,98,11,61,0
11510,226,-60,97,14,60,1
11515,227,-62,94,16,59,4
11520,226,-61,97,17,56,4
11525,224,-61,97,18,57,5
11530,226,-60,96,17,57,5
11535,225,-58,99,15,58,4
11540,225,-59,95,14,61,3
11545,226,-59,95,10,64,2
11550,229,-61,97,7,65,0
11555,225,-58,97,4,67,-2
11560,226,-56,95,1,68,-2
11565,227,-56,94,1,69,-1
11570,225,-52,101,1,69,0
11575,224,-53,94,2,70,0
11580,227,-56,97,3,70,0
11585,228,-60,98,6,72,2
11590,229,-59,97,6,73,0
11595,228,-58,97,9,71,1
11600,228,-58,96,10,68,-1
11605,228,-60,97,10,66,-2
11610,229,-57,96,10,65,-2
11615,224,-56,94,9,65,-3
11620,225,-56,96,7,63,-2
11625,232,-62,96,5,63,-2
11630,229,-57,94,4,63,-2
11635,225,-56,95,1,62,-2
11640,226,-55,96,0,64,-1
11645,226,-57,95,0,66,0
11650,226,-56,97,-2,67,-1
11655,230,-59,92,-5,68,-1
11660,226,-58,95,-6,68,0
11665,227,-57,98,-7,69,1
11670,229,-59,97,-7,70,0
11675,226,-57,97,-8,73,4
11680,228,-60,92,-8,73,3
11685,220,-59,98,-7,74,4
11690,235,-57,92,-4,75,4
11695,226,-57,87,-2,74,4
11700,230,-57,83,-2,74,5
11705,229,-63,95,-1,73,4
11710,224,-54,103,0,72,3
11715,224,-54,105,0,72,5
11720,221,-46,99,0,70,4
11725,238,-58,95,-2,69,4
11730,233,-56,93,-3,69,4
11735,226,-57,94,-5,69,2
11740,227,-59,101,-7,69,2
11745,227,-58,97,-7,69,2
11750,226,-56,97,-6,70,0
11755,225,-61,94,-6,70,-1
11760,228,-58,95,-6,72,-1
11765,233,-55,93,-8,75,0
11770,224,-53,96,-10,76,0
11775,231,-57,98,-11,78,-1
11780,228,-60,98,-11,80,-1
11785,224,-60,89,-12,81,2
11790,226,-63,101,-12,80,1
11795,217,-57,92,-10,79,2
11800,219,-55,99,-9,77,2
11805,226,-65,89,-8,76,2
11810,230,-61,93,-7,74,3
11815,227,-59,96,-5,71,3
11820,227,-56,96,-4,70,2
11825,228,-57,97,-4,71,0
11830,226,-55,101,-7,71,-1
11835,234,-63,103,-9,72,-1
11840,226,-47,95,-12,72,-3
11845,236,-49,91,-14,74,-3
11850,225,-44,115,-17,76,-3
11855,232,-53,100,-20,78,-4
11860,223,-55,95,-23,79,-4
11865,231,-54,103,-23,77,-3
11870,228,-59,86,-24,77,-5
11875,229,-65,97,-25,75,-7
11880,225,-49,93,-25,73,-7
11885,228,-54,96,-26,69,-7
11890,227,-60,98,-26,67,-8
11895,225,-58,99,-25,64,-8
11900,227,-56,96,-24,63,-8
11905,228,-57,101,-21,62,-9
11910,235,-53,77,-19,60,-8
11915,228,-58,88,-18,59,-8
11920,237,-61,91,-16,57,-8
11925,214,-43,84,-14,57,-6
11930,221,-50,98,-13,55,-5
11935,224,-58,105,-11,56,-7
11940,224,-58,95,-10,57,-6
11945,224,-62,95,-9,59,-7
11950,226,-58,93,-9,60,-8
11955,227,-55,96,-9,61,-7
11960,232,-58,95,-11,61,-7
11965,225,-58,96,-13,61,-7
11970,226,-59,95,-15,59,-7
11975,225,-56,96,-16,59,-7
11980,228,-57,102,-17,59,-8
11985,234,-56,101,-16,58,-7
11990,233,-60,95,-14,58,-6
11995,229,-52,89,-10,58,-6
12000,221,-60,95,-6,58,-4
12005,224,-55,96,-3,59,-5
12010,234,-54,99,1,62,-4
12015,228,-56,77,2,66,-3
12020,228,-55,75,3,67,-2
12025,232,-45,95,4,69,-2
12030,224,-57,80,2,69,0
12035,234,-63,96,1,71,-2
12040,228,-56,92,-4,71,0
12045,226,-56,95,-6,70,-1
12050,226,-59,98,-11,69,1
12055,224,-56,95,-15,67,2
12060,223,-57,95,-16,66,1
12065,227,-61,99,-19,65,2
12070,227,-55,100,-19,67,0
12075,228,-56,97,-18,63,2
12080,228,-50,101,-17,64,3
12085,231,-60,109,-14,64,4
12090,242,-55,106,-11,65,5
12095,239,-56,114,-6,65,5
12100,225,-43,103,-2,65,5
12105,230,-68,88,0,67,5
12110,230,-56,87,4,65,6
12115,226,-60,93,6,67,6
12120,227,-56,93,8,68,7
12125,226,-57,94,9,70,5
12130,228,-58,94,11,70,2
12135,227,-56,99,13,73,6
12140,211,-59,86,10,74,5
12145,226,-58,98,10,74,4
12150,228,-54,92,8,74,5
12155,226,-57,103,10,76,5
12160,229,-58,100,11,76,5
12165,229,-59,94,13,77,5
12170,227,-56,94,14,75,7
12175,227,-57,92,15,75,9
12180,232,-53,92,16,74,9
12185,226,-57,91,15,73,9
12190,226,-56,93,14,72,9
12195,228,-56,94,13,72,7
12200,226,-55,96,11,70,6
12205,227,-59,83,10,70,7
12210,229,-58,94,11,72,5
12215,226,-55,99,9,74,6
12220,228,-58,97,10,74,5
12225,222,-56,101,11,74,5
12230,227,-56,98,14,76,6
12235,225,-56,94,17,77,7
12240,225,-55,94,21,79,5
12245,227,-56,93,23,80,5
12250,229,-50,95,25,83,5
12255,227,-57,95,27,87,6
12260,229,-56,98,29,90,7
12265,225,-55,95,30,89,8
12270,226,-59,100,32,89,9
12275,229,-56,78,34,90,9
12280,227,-59,99,35,90,10
12285,224,-58,95,38,89,11
12290,226,-61,99,40,88,11
12295,225,-60,95,42,86,11
12300,225,-61,96,40,84,10
12305,225,-58,100,35,81,9
12310,222,-57,100,30,82,8
12315,225,-57,99,24,82,5
12320,224,-56,97,19,84,3
12325,224,-58,97,15,83,3
12330,225,-61,99,12,85,1
12335,230,-56,99,10,85,1
12340,226,-56,95,11,85,0
12345,224,-58,91,12,87,0
12350,226,-57,99,15,88,0
12355,227,-58,101,18,90,0
12360,228,-56,101,23,93,1
12365,224,-56,97,24,95,1
12370,227,-56,99,25,96,0
12375,226,-57,100,24,92,0
12380,227,-56,100,21,90,1
12385,228,-57,97,16,87,0
12390,225,-54,100,11,84,2
12395,226,-56,99,6,83,1
12400,228,-55,96,2,80,1
12405,225,-56,99,-2,79,2
12410,225,-55,98,-6,78,1
12415,227,-59,100,-7,75,1
12420,225,-56,95,-6,73,0
12425,225,-57,96,-5,73,-1
12430,225,-57,99,-2,73,-2
12435,228,-59,101,-3,72,-3
12440,223,-49,97,-1,72,-3
12445,227,-57,97,-2,74,-2
12450,226,-56,99,-4,73,-2
12455,224,-55,99,-5,73,-1
12460,226,-54,100,-8,74,-1
12465,229,-60,95,-10,74,-1
12470,228,-59,96,-13,74,0
12475,227,-56,96,-12,76,-1
12480,224,-56,100,-11,75,0
12485,227,-59,99,-10,74,0
12490,227,-56,95,-7,75,1
12495,225,-57,97,-3,76,0
12500,228,-56,96,-1,74,-1
12505,226,-60,101,2,74,1
12510,227,-58,97,4,74,0
12515,226,-58,100,5,72,0
12520,227,-57,93,5,70,2
12525,226,-56,99,3,70,1
12530,227,-55,98,0,70,0
12535,227,-56,98,-2,70,0
12540,225,-55,94,-4,71,1
12545,227,-56,98,-6,71,1
12550,216,-62,99,-8,73,0
12555,227,-55,95,-9,75,1
12560,226,-54,99,-10,76,1
12565,226,-55,97,-11,78,0
12570,227,-57,99,-12,77,1
12575,225,-55,96,-11,77,1
12580,226,-56,97,-9,76,1
12585,228,-59,97,-6,74,1
12590,225,-57,94,-5,73,1
12595,228,-56,95,-4,73,-1
12600,229,-56,98,-5,72,-1
12605,224,-56,95,-7,74,-3
12610,227,-58,98,-9,73,-3
12615,223,-56,100,-13,74,-5
12620,224,-56,100,-15,74,-7
12625,224,-56,97,-17,75,-7
12630,224,-55,101,-17,75,-7
12635,227,-56,102,-19,75,-6
12640,228,-57,99,-18,76,-5
12645,226,-56,100,-16,75,-4
12650,226,-57,99,-17,72,-3
12655,225,-58,98,-15,72,-5
12660,221,-59,94,-17,69,-4
12665,225,-56,99,-15,67,-3
12670,225,-57,99,-17,65,-2
12675,225,-55,98,-16,63,-3
12680,225,-56,97,-15,61,-3
12685,224,-56,100,-15,60,-3
12690,226,-56,98,-15,59,-5
12695,229,-56,97,-13,62,-4
12700,227,-55,98,-12,64,-4
12705,223,-56,98,-11,65,-3
12710,226,-55,97,-9,67,-2
12715,227,-57,100,-7,68,-2
12720,226,-57,97,-6,68,-2
12725,228,-56,97,-2,68,-2
12730,227,-57,95,0,70,-1
12735,224,-56,97,2,68,-1
12740,227,-57,101,4,67,0
12745,225,-58,98,5,67,-1
12750,226,-55,97,7,66,-2
12755,227,-57,96,7,68,-4
12760,226,-57,101,6,68,-4
12765,226,-57,97,7,70,-3
12770,227,-59,98,7,70,-3
12775,226,-57,102,6,70,-3
12780,225,-57,100,7,71,-1
12785,226,-56,96,5,71,-2
12790,228,-58,98,3,70,-4
12795,224,-54,100,2,69,-2
12800,226,-55,97,1,71,-1
12805,224,-56,99,1,68,-1
12810,224,-55,99,0,69,-2
12815,223,-55,97,-3,68,-2
12820,230,-57,97,-5,68,-4
12825,223,-56,96,-7,69,-6
12830,227,-59,100,-9,69,-4
12835,223,-56,103,-10,70,-6
12840,225,-56,99,-12,70,-6
12845,224,-56,94,-12,71,-6
12850,227,-59,99,-13,71,-6
12855,225,-56,98,-11,70,-5
12860,228,-58,97,-10,71,-3
12865,226,-56,98,-9,72,-1
12870,229,-58,99,-8,69,0
12875,218,-57,95,-5,69,-1
12880,226,-57,101,-5,67,-1
12885,226,-56,98,-7,67,-1
12890,228,-57,96,-8,67,-2
12895,226,-57,98,-12,68,-2
12900,226,-59,99,-16,68,-1
12905,225,-57,99,-21,69,-2
12910,228,-57,101,-27,69,-3
12915,227,-57,98,-31,71,-4
12920,227,-58,103,-33,70,-4
12925,228,-58,97,-35,70,-5
12930,227,-58,98,-34,68,-2
12935,224,-58,97,-34,67,-4
12940,226,-56,99,-35,65,-4
12945,225,-56,101,-37,63,-5
12950,228,-56,101,-40,59,-5
12955,225,-58,100,-45,59,-5
12960,224,-55,101,-49,58,-7
12965,229,-56,100,-54,58,-7
12970,228,-58,101,-58,60,-8
12975,227,-57,103,-65,60,-7
12980,227,-57,102,-69,59,-7
12985,226,-54,95,-74,56,-8
12990,225,-57,97,-76,54,-10
12995,226,-56,101,-78,50,-9
13000,226,-58,100,-79,49,-11
13005,226,-56,98,-78,48,-11
13010,228,-55,95,-76,48,-12
13015,225,-56,95,-76,48,-11
13020,225,-54,103,-77,50,-11
13025,225,-56,97,-77,52,-11
13030,227,-56,101,-74,50,-9
13035,227,-57,98,-70,50,-9
13040,226,-58,98,-64,50,-9
13045,226,-59,96,-57,48,-6
13050,226,-57,97,-51,45,-7
13055,229,-62,98,-45,43,-6
13060,227,-60,93,-43,42,-5
13065,224,-59,96,-42,42,-5
13070,225,-58,97,-44,42,-7
13075,226,-59,99,-48,44,-8
13080,223,-58,98,-54,47,-9
13085,224,-55,96,-60,49,-12
13090,221,-57,95,-67,53,-12
13095,224,-56,98,-72,56,-15
13100,226,-56,97,-72,59,-15
13105,223,-57,93,-75,59,-16
13110,228,-58,96,-75,59,-14
13115,225,-58,98,-74,59,-13
13120,226,-58,102,-74,58,-12
13125,228,-57,100,-74,56,-12
13130,227,-58,94,-72,55,-12
13135,226,-58,95,-71,52,-14
13140,228,-60,98,-69,48,-14
13145,226,-57,99,-69,43,-16
13150,226,-56,97,-69,40,-17
13155,227,-58,95,-71,39,-18
13160,228,-60,96,-74,38,-19
13165,228,-57,96,-77,36,-19
13170,223,-56,96,-79,38,-19
13175,228,-54,96,-81,39,-19
13180,229,-57,100,-83,40,-18
13185,226,-55,94,-83,41,-16
13190,229,-55,96,-81,43,-15
13195,229,-59,97,-78,42,-16
13200,224,-58,98,-76,42,-16
13205,251,-62,101,-75,41,-15
13210,228,-58,92,-74,38,-15
13215,227,-57,94,-73,37,-16
13220,225,-59,96,-70,37,-16
13225,227,-57,91,-70,37,-16
13230,225,-58,95,-70,37,-16
13235,224,-58,93,-71,34,-16
13240,227,-57,95,-73,35,-17
13245,228,-57,98,-74,37,-19
13250,226,-57,96,-74,38,-18
13255,226,-58,97,-74,40,-17
13260,226,-56,94,-73,41,-17
13265,227,-59,94,-72,41,-16
13270,231,-56,93,-72,41,-17
13275,229,-57,94,-71,42,-16
13280,228,-59,93,-70,42,-15
13285,227,-58,94,-68,41,-14
13290,228,-57,93,-68,42,-15
13295,229,-60,95,-68,42,-16
13300,227,-56,91,-70,42,-16
13305,228,-57,95,-73,44,-17
13310,221,-56,79,-72,44,-18
13315,224,-59,92,-71,46,-18
13320,228,-58,93,-68,47,-15
13325,228,-58,91,-67,46,-15
13330,226,-57,91,-63,47,-15
13335,225,-58,96,-61,46,-14
13340,229,-61,94,-57,45,-14
13345,231,-60,97,-55,46,-14
13350,230,-58,92,-53,45,-15
13355,229,-60,92,-52,44,-16
13360,228,-56,95,-55,42,-16
13365,227,-60,95,-58,45,-18
13370,225,-58,94,-62,46,-19
13375,225,-56,92,-65,46,-22
13380,224,-58,92,-70,46,-22
13385,224,-56,95,-74,46,-23
13390,228,-58,94,-77,47,-23
13395,228,-59,95,-80,49,-23
13400,228,-60,95,-81,48,-24
13405,229,-58,94,-81,49,-23
13410,228,-58,92,-80,49,-22
13415,230,-62,96,-79,50,-21
13420,225,-58,94,-76,49,-20
13425,228,-60,93,-76,47,-18
13430,228,-59,95,-73,46,-18
13435,229,-57,94,-71,43,-16
13440,226,-57,90,-68,43,-16
13445,228,-57,94,-64,41,-15
13450,228,-58,90,-61,41,-15
13455,228,-57,92,-60,42,-15
13460,230,-56,91,-59,43,-15
13465,229,-56,91,-58,45,-15
13470,229,-57,88,-57,46,-14
13475,228,-58,91,-57,47,-15
13480,230,-60,94,-56,46,-14
13485,228,-57,93,-55,47,-15
13490,227,-55,93,-54,48,-15
13495,229,-57,90,-55,49,-14
13500,230,-59,91,-54,47,-13
13505,227,-58,89,-54,46,-14
13510,226,-57,94,-53,45,-13
13515,228,-58,92,-51,44,-13
13520,229,-61,89,-48,43,-12
13525,227,-60,89,-46,48,-12
13530,229,-56,92,-43,49,-13
13535,227,-58,96,-44,51,-13
13540,229,-56,96,-44,52,-14
13545,229,-57,93,-44,53,-14
13550,227,-58,91,-46,54,-14
13555,225,-55,93,-47,55,-14
13560,228,-58,96,-50,53,-15
13565,228,-58,92,-52,49,-15
13570,228,-59,91,-54,45,-15
13575,227,-59,92,-56,42,-16
13580,227,-57,92,-58,39,-15
13585,228,-59,90,-58,38,-16
13590,228,-59,90,-58,37,-17
13595,230,-61,93,-60,38,-16
13600,226,-57,95,-61,41,-16
13605,228,-60,95,-60,43,-15
13610,227,-57,91,-58,45,-14
13615,228,-60,90,-57,46,-13
13620,230,-58,91,-55,47,-15
13625,231,-60,94,-56,47,-14
13630,227,-57,90,-57,47,-13
13635,228,-57,90,-56,46,-12
13640,227,-53,86,-56,46,-12
13645,226,-58,91,-56,43,-14
13650,226,-57,90,-57,41,-15
13655,229,-57,91,-60,38,-18
13660,229,-59,87,-63,37,-18
13665,227,-57,91,-68,36,-19
13670,232,-59,89,-70,35,-19
13675,228,-59,93,-73,36,-18
13680,231,-62,93,-75,38,-19
13685,230,-58,92,-75,39,-18
13690,229,-58,93,-74,39,-17
13695,228,-59,92,-71,39,-17
13700,230,-59,91,-68,40,-16
13705,227,-60,91,-66,40,-17
13710,227,-59,89,-62,39,-15
13715,231,-60,93,-61,40,-15
13720,229,-60,87,-61,38,-15
13725,232,-61,86,-62,37,-15
13730,227,-58,92,-61,38,-16
13735,228,-57,89,-61,37,-19
13740,229,-58,90,-62,38,-20
13745,228,-58,88,-62,39,-22
13750,222,-68,106,-64,40,-22
13755,227,-58,91,-66,42,-22
13760,229,-59,87,-66,41,-20
13765,229,-61,88,-65,40,-19
13770,230,-57,90,-62,39,-18
13775,233,-62,87,-58,36,-17
13780,228,-57,88,-53,35,-16
13785,231,-60,84,-48,33,-16
13790,228,-57,87,-42,35,-17
13795,226,-58,84,-36,36,-18
13800,230,-58,85,-32,39,-17
13805,229,-59,86,-26,41,-16
13810,227,-61,88,-21,45,-17
13815,227,-57,89,-16,49,-14
13820,230,-61,88,-13,50,-14
13825,227,-59,88,-11,53,-12
13830,228,-58,92,-9,54,-11
13835,228,-59,86,-10,55,-10
13840,225,-58,90,-15,54,-11
13845,229,-59,94,-21,54,-11
13850,228,-60,92,-27,54,-12
13855,228,-70,95,-33,53,-12
13860,227,-58,89,-35,52,-13
13865,230,-63,90,-37,50,-14
13870,230,-60,90,-36,48,-17
13875,231,-62,88,-33,46,-19
13880,234,-61,89,-27,42,-19
13885,229,-60,87,-20,40,-20
13890,230,-59,90,-13,37,-19
13895,230,-59,90,-4,34,-19
13900,232,-60,91,3,32,-19
13905,231,-58,85,10,30,-20
13910,229,-57,87,18,27,-19
13915,230,-57,88,23,29,-19
13920,233,-57,88,26,29,-19
13925,229,-56,87,25,31,-18
13930,232,-56,85,24,34,-17
13935,228,-55,84,22,37,-17
13940,231,-57,86,19,39,-16
13945,233,-54,83,16,41,-16
13950,227,-55,85,14,41,-16
13955,231,-57,86,12,44,-15
13960,227,-57,88,12,43,-14
13965,220,-58,91,11,45,-16
13970,230,-54,88,7,47,-16
13975,230,-58,88,3,50,-15
13980,231,-56,88,-5,51,-13
13985,232,-57,88,-13,52,-13
13990,231,-57,89,-19,54,-10
13995,230,-56,86,-22,56,-9
14000,232,-56,93,-24,57,-8
14005,229,-58,87,-24,58,-9
14010,231,-57,89,-23,59,-8
14015,230,-59,86,-21,57,-9
14020,235,-59,86,-20,54,-8
14025,231,-61,87,-19,53,-8
14030,233,-60,85,-18,50,-6
14035,231,-61,90,-14,48,-7
14040,231,-61,90,-12,46,-8
14045,232,-61,89,-11,46,-8
14050,232,-57,90,-11,47,-8
14055,232,-58,87,-11,49,-11
14060,232,-59,86,-13,52,-10
14065,230,-58,91,-13,54,-11
14070,229,-56,86,-14,56,-12
14075,225,-58,89,-16,61,-12
14080,233,-57,88,-17,62,-12
14085,232,-57,90,-17,63,-11
14090,228,-54,87,-20,60,-10
14095,234,-57,86,-22,61,-9
14100,228,-61,87,-21,61,-10
14105,229,-58,89,-21,59,-10
14110,228,-58,84,-23,57,-8
14115,230,-61,87,-23,54,-8
14120,230,-58,88,-22,53,-9
14125,233,-59,82,-24,55,-9
14130,232,-59,86,-24,55,-9
14135,228,-56,84,-26,55,-11
14140,230,-59,88,-27,56,-11
14145,229,-59,84,-27,58,-13
14150,228,-57,86,-29,61,-12
14155,229,-59,90,-29,62,-13
14160,232,-58,87,-28,60,-14
14165,229,-59,85,-26,61,-14
14170,231,-59,89,-23,59,-13
14175,231,-58,86,-22,60,-13
14180,229,-59,85,-21,61,-13
14185,235,-57,96,-18,62,-12
14190,231,-60,85,-18,61,-10
14195,234,-59,88,-18,62,-10
14200,231,-58,88,-20,62,-10
14205,232,-56,83,-21,63,-10
14210,230,-57,87,-20,63,-9
14215,230,-56,86,-20,64,-9
14220,230,-57,87,-21,65,-9
14225,232,-59,83,-20,67,-9
14230,229,-58,89,-19,69,-9
14235,231,-58,84,-16,69,-7
14240,231,-60,88,-14,68,-7
14245,230,-59,82,-12,67,-4
14250,230,-57,84,-9,65,-5
14255,229,-57,86,-9,65,-4
14260,230,-57,88,-8,65,-4
14265,230,-57,86,-7,66,-5
14270,229,-58,88,-7,66,-4
14275,228,-57,86,-6,67,-3
14280,231,-56,85,-8,67,-5
14285,229,-54,84,-9,68,-6
14290,228,-58,85,-11,69,-6
14295,227,-56,84,-12,70,-7
14300,230,-55,88,-13,73,-8
14305,229,-58,86,-14,77,-7
14310,233,-56,87,-15,75,-6
14315,231,-58,87,-16,77,-5
14320,230,-58,86,-17,79,-5
14325,232,-58,89,-17,76,-5
14330,231,-56,85,-17,76,-4
14335,230,-61,90,-17,74,-4
14340,230,-59,90,-14,73,-5
14345,230,-59,87,-12,73,-3
14350,230,-57,87,-11,71,-3
14355,231,-60,85,-9,73,-4
14360,228,-58,87,-8,72,-2
14365,229,-56,86,-5,70,-1
14370,233,-57,84,-3,71,0
14375,230,-59,87,0,73,0
14380,231,-56,88,1,75,-1
14385,232,-58,84,1,76,-1
14390,233,-56,86,2,77,-2
14395,231,-56,82,0,79,-1
14400,229,-60,87,-2,81,-1
14405,231,-56,85,-5,82,-1
14410,232,-59,85,-8,82,0
14415,230,-58,89,-9,83,2
14420,233,-59,89,-7,83,3
14425,228,-58,89,-6,84,5
14430,229,-56,89,-3,83,6
14435,229,-59,87,0,81,7
14440,229,-58,88,2,78,6
14445,233,-56,86,2,78,5
14450,231,-57,86,4,78,5
14455,229,-54,84,5,77,3
14460,228,-58,88,5,77,3
14465,232,-56,87,3,80,2
14470,227,-56,88,1,82,3
14475,232,-57,90,-1,85,2
14480,231,-58,89,-2,88,3
14485,234,-58,89,-2,90,4
14490,233,-57,88,-2,89,4
14495,232,-58,86,-1,85,6
14500,232,-57,88,0,84,5
14505,230,-58,87,2,84,5
14510,234,-61,84,4,82,6
14515,230,-56,86,7,82,6
14520,230,-61,85,9,84,7
14525,230,-56,86,11,86,6
14530,231,-58,88,14,89,7
14535,232,-58,87,18,93,8
14540,230,-59,87,21,96,10
14545,227,-62,88,25,98,10
14550,230,-58,88,29,101,11
14555,229,-59,85,32,102,13
14560,229,-59,87,34,101,13
14565,229,-58,89,33,99,12
14570,231,-61,91,32,96,11
14575,228,-59,93,28,93,11
14580,231,-58,91,24,89,8
14585,232,-60,85,19,88,7
14590,227,-59,87,13,88,4
14595,231,-58,89,11,89,2
14600,230,-57,88,9,88,1
14605,230,-59,89,11,89,3
14610,228,-58,87,14,91,3
14615,227,-55,86,17,93,2
14620,240,-57,90,21,95,5
14625,229,-57,88,25,95,5
14630,231,-57,91,32,96,6
14635,229,-58,87,39,96,6
14640,233,-58,90,42,94,5
14645,232,-57,88,42,90,5
14650,231,-57,86,42,87,4
14655,228,-58,87,42,84,4
14660,232,-57,88,39,86,3
14665,229,-56,89,37,86,2
14670,228,-56,88,37,86,3
14675,232,-57,88,35,87,5
14680,230,-57,92,33,89,7
14685,231,-56,90,33,90,6
14690,229,-57,89,31,90,6
14695,233,-60,91,30,89,6
14700,227,-56,92,30,89,7
14705,232,-60,92,28,89,7
14710,230,-55,88,27,90,8
14715,227,-57,90,26,86,7
14720,229,-55,90,26,84,6
14725,230,-57,90,27,84,8
14730,220,-61,85,27,83,6
14735,228,-56,89,27,82,6
14740,228,-58,87,29,81,6
14745,230,-59,84,29,81,7
14750,231,-58,91,31,81,8
14755,229,-56,91,31,83,8
14760,231,-57,90,30,85,7
14765,227,-56,92,30,86,8
14770,227,-57,89,31,85,7
14775,231,-58,90,32,86,9
14780,231,-56,90,34,87,7
14785,228,-57,90,36,87,7
14790,231,-56,90,34,87,7
14795,226,-58,86,33,86,7
14800,230,-54,90,30,86,6
14805,233,-58,88,28,86,6
14810,228,-56,89,25,86,5
14815,232,-59,87,24,87,6
14820,227,-57,89,21,88,6
14825,232,-56,86,20,90,6
14830,230,-59,89,21,91,6
14835,224,-61,94,20,92,5
14840,230,-58,90,20,91,4
14845,229,-59,90,20,91,4
14850,229,-57,89,20,89,4
14855,231,-60,90,20,89,5
14860,228,-57,90,20,88,6
14865,230,-57,91,21,85,5
14870,227,-58,89,20,82,4
14875,229,-56,89,21,81,3
14880,229,-57,93,21,82,0
14885,228,-57,93,21,85,0
14890,227,-56,91,21,84,-1
14895,228,-56,93,23,86,-2
14900,228,-57,93,23,88,-3
14905,228,-59,95,23,89,-1
14910,226,-57,90,22,89,-1
14915,230,-58,92,20,89,1
14920,228,-55,91,19,89,1
14925,230,-56,92,17,85,2
14930,229,-57,88,14,82,4
14935,230,-57,91,14,80,5
14940,227,-61,94,15,77,5
14945,234,-57,79,15,74,6
14950,229,-56,93,15,75,6
14955,229,-56,92,15,75,7
14960,229,-57,91,15,78,7
14965,229,-56,92,16,80,7
14970,229,-58,92,17,82,9
14975,229,-55,93,18,84,9
14980,231,-58,92,18,82,9
14985,231,-56,91,19,81,11
14990,233,-56,92,20,79,12
14995,228,-56,89,22,77,12
