timestamp,acc_x,acc_y,acc_z,gyro_x,gyro_y,gyro_z
0,51,-369,-61,-113,214,-234
5,47,-362,-66,-13,265,-243
10,42,-351,-69,66,308,-235
15,41,-341,-79,120,340,-211
20,31,-322,-83,145,367,-181
25,13,-318,-91,137,377,-142
30,13,-298,-94,106,358,-96
35,12,-290,-105,59,313,-55
40,2,-283,-108,7,251,-13
45,1,-277,-113,-42,188,23
50,-2,-272,-116,-84,135,48
55,0,-270,-111,-119,98,61
60,4,-274,-109,-137,81,64
65,1,-271,-109,-140,79,61
70,1,-272,-106,-131,73,57
75,3,-264,-113,-120,58,49
80,-7,-261,-110,-109,28,41
85,-15,-246,-122,-104,-16,41
90,-24,-234,-127,-104,-67,45
95,-36,-223,-131,-106,-118,53
100,-46,-209,-132,-109,-162,65
105,-54,-196,-134,-108,-194,76
110,-59,-186,-132,-101,-216,81
115,-65,-182,-127,-91,-226,81
120,-70,-180,-120,-79,-227,75
125,-71,-179,-116,-70,-219,64
130,-72,-183,-111,-58,-206,48
135,-70,-188,-106,-53,-187,28
140,-64,-199,-101,-53,-170,7
145,-61,-209,-99,-61,-152,-12
150,-52,-220,-94,-80,-135,-25
155,-40,-230,-91,-108,-118,-35
160,-29,-233,-88,-138,-93,-36
165,-23,-236,-84,-171,-65,-28
170,-10,-242,-86,-204,-33,-15
175,-1,-244,-88,-244,-7,0
180,3,-245,-87,-287,8,14
185,6,-240,-93,-326,18,35
190,15,-253,-89,-352,21,64
195,16,-252,-85,-361,21,97
200,18,-258,-84,-356,25,132
205,20,-260,-89,-344,29,170
210,18,-258,-87,-328,35,201
215,19,-256,-89,-305,44,229
220,12,-252,-84,-280,54,251
225,9,-247,-82,-250,59,271
230,2,-244,-81,-214,61,288
235,-4,-240,-81,-173,58,301
240,-11,-236,-76,-134,51,312
245,-19,-232,-79,-99,41,318
250,-22,-229,-78,-65,33,320
255,-22,-222,-77,-43,35,317
260,-25,-223,-79,-25,43,312
265,-26,-220,-75,-11,63,296
270,-28,-218,-70,-4,89,282
275,-27,-218,-72,-1,115,263
280,-30,-220,-67,-3,135,246
285,-32,-220,-63,-7,145,232
290,-29,-227,-66,-12,145,218
295,-23,-226,-68,-13,140,210
300,-31,-234,-65,-14,136,205
305,-28,-235,-68,-15,133,205
310,-26,-236,-66,-20,140,212
315,-25,-235,-68,-28,155,225
320,-22,-235,-65,-41,172,234
325,-19,-232,-67,-59,190,241
330,-16,-231,-69,-77,205,250
335,-18,-228,-62,-92,212,255
340,-18,-229,-60,-98,210,261
345,-18,-234,-58,-93,205,271
350,-19,-233,-60,-76,201,285
355,-21,-232,-59,-55,202,300
360,-17,-230,-60,-31,207,315
365,-23,-231,-59,-10,221,331
370,-20,-229,-64,-3,235,329
375,-19,-218,-66,-5,254,325
380,-21,-214,-65,-19,280,326
385,-19,-214,-60,-31,301,306
390,-23,-212,-54,-41,317,269
395,-22,-211,-54,-46,325,233
400,-22,-217,-41,-42,331,199
405,-21,-213,-48,-32,339,172
410,-18,-212,-48,-17,343,146
415,-19,-211,-50,-3,351,121
420,-15,-213,-44,8,362,100
425,-18,-207,-51,12,377,82
430,-17,-208,-49,13,396,73
435,-16,-211,-51,11,415,73
440,-15,-215,-47,9,428,77
445,-16,-213,-43,16,436,73
450,-15,-220,-41,29,447,58
455,-17,-223,-37,43,455,30
460,-20,-221,-37,54,462,4
465,-17,-224,-36,65,468,-17
470,-18,-224,-38,75,470,-30
475,-20,-225,-37,82,473,-41
480,-20,-228,-36,87,477,-52
485,-24,-232,-37,86,479,-62
490,-22,-234,-38,84,480,-75
495,-23,-235,-41,83,480,-88
500,-26,-236,-39,81,477,-106
505,-26,-239,-46,82,472,-127
510,-34,-239,-45,82,459,-147
515,-31,-239,-49,79,441,-167
520,-34,-242,-49,74,412,-186
525,-38,-241,-58,65,385,-206
530,-40,-242,-58,50,349,-218
535,-49,-237,-56,32,312,-226
540,-54,-239,-59,18,277,-228
545,-59,-240,-58,8,243,-229
550,-65,-241,-50,3,209,-227
555,-65,-242,-53,5,168,-224
560,-69,-244,-48,10,123,-219
565,-68,-248,-47,17,77,-211
570,-66,-250,-45,28,37,-202
575,-65,-254,-39,39,7,-189
580,-58,-256,-37,53,-6,-178
585,-50,-263,-31,72,-14,-164
590,-44,-266,-30,92,-15,-152
595,-37,-270,-25,110,-10,-139
600,-28,-274,-24,125,3,-128
605,-18,-276,-22,135,22,-114
610,-10,-277,-24,134,37,-100
615,-4,-284,-34,118,52,-83
620,-1,-283,-44,78,64,-66
625,5,-290,-57,13,69,-47
630,10,-293,-77,-80,61,-27
635,7,-296,-87,-194,43,-3
640,2,-306,-107,-320,13,28
645,-10,-315,-122,-442,-25,67
650,-18,-327,-126,-541,-73,117
655,-28,-340,-128,-599,-122,168
660,-38,-356,-113,-592,-176,214
665,-49,-368,-96,-518,-234,256
670,-60,-377,-83,-376,-294,293
675,-66,-378,-77,-185,-352,314
680,-72,-371,-82,10,-399,333
685,-77,-362,-89,162,-429,360
690,-76,-346,-104,264,-449,400
695,-73,-331,-119,295,-470,416
700,-70,-315,-126,268,-472,428
705,-60,-309,-132,210,-461,398
710,-54,-290,-127,162,-425,344
715,-42,-283,-120,130,-345,300
720,-27,-267,-113,112,-235,257
725,-11,-263,-121,109,-119,218
730,2,-255,-117,124,-7,183
735,18,-248,-124,150,98,153
740,30,-241,-129,177,199,128
745,41,-231,-135,198,297,107
750,51,-219,-139,212,395,93
755,64,-207,-139,217,492,84
760,65,-194,-142,212,589,75
765,69,-188,-141,206,673,70
770,72,-182,-144,200,745,69
775,67,-179,-145,191,801,71
780,65,-178,-144,176,848,79
785,54,-176,-148,154,877,85
790,45,-184,-146,121,891,88
795,21,-187,-147,81,891,90
800,2,-197,-141,39,878,95
805,-20,-208,-141,2,850,98
810,-45,-219,-131,-32,809,106
815,-63,-230,-121,-52,755,123
820,-81,-242,-117,-65,691,145
825,-94,-251,-108,-77,616,174
830,-104,-260,-106,-88,533,204
835,-103,-263,-90,-101,451,229
840,-98,-266,-105,-108,375,242
845,-88,-268,-106,-110,310,239
850,-75,-263,-117,-108,269,220
855,-56,-254,-124,-102,248,180
860,-41,-247,-133,-94,241,127
865,-24,-239,-136,-88,243,63
870,-7,-229,-136,-81,251,-8
875,2,-223,-127,-73,260,-77
880,13,-219,-125,-63,271,-135
885,18,-218,-119,-45,287,-180
890,25,-216,-113,-26,311,-211
895,27,-220,-107,-9,334,-224
900,27,-218,-100,6,366,-218
905,23,-221,-100,19,397,-201
910,20,-223,-95,28,418,-178
915,15,-226,-93,35,430,-155
920,10,-229,-85,39,428,-128
925,2,-226,-83,40,418,-103
930,-1,-229,-83,43,400,-88
935,-11,-227,-81,49,379,-77
940,-19,-231,-78,54,354,-75
945,-27,-234,-72,58,329,-80
950,-35,-232,-81,56,304,-89
955,-43,-235,-74,50,274,-102
960,-46,-233,-79,40,243,-121
965,-46,-236,-75,33,213,-142
970,-52,-242,-72,36,185,-165
975,-53,-241,-70,53,160,-182
980,-52,-240,-69,75,138,-193
985,-46,-244,-62,105,122,-208
990,-34,-239,-64,141,106,-231
995,-20,-232,-65,168,94,-241
1000,-8,-231,-67,163,78,-228
1005,-2,-224,-70,123,60,-211
1010,5,-223,-65,70,37,-207
1015,13,-222,-65,21,11,-219
1020,13,-221,-67,-10,-15,-228
1025,18,-227,-66,-17,-42,-234
1030,25,-231,-68,-2,-71,-233
1035,29,-234,-70,24,-93,-222
1040,26,-232,-66,46,-106,-217
1045,22,-229,-66,58,-111,-206
1050,17,-238,-73,62,-111,-191
1055,13,-229,-67,58,-113,-172
1060,7,-231,-66,50,-121,-159
1065,1,-230,-66,44,-132,-145
1070,-7,-232,-68,41,-145,-126
1075,-12,-234,-66,50,-159,-106
1080,-22,-230,-61,60,-178,-92
1085,-26,-231,-58,77,-197,-77
1090,-27,-227,-56,94,-217,-62
1095,-31,-228,-54,109,-234,-50
1100,-30,-224,-54,118,-247,-45
1105,-28,-223,-50,124,-260,-44
1110,-27,-226,-47,125,-271,-48
1115,-24,-225,-49,124,-284,-54
1120,-20,-227,-47,121,-302,-66
1125,-15,-232,-46,120,-325,-78
1130,-13,-241,-45,123,-353,-90
1135,-10,-248,-40,133,-386,-103
1140,-8,-254,-41,150,-418,-114
1145,-3,-260,-35,175,-450,-124
1150,1,-265,-32,205,-471,-131
1155,0,-268,-27,241,-484,-132
1160,1,-272,-18,278,-492,-129
1165,0,-267,-26,315,-497,-126
1170,2,-261,-21,341,-500,-123
1175,-1,-251,-28,358,-500,-117
1180,0,-247,-34,365,-500,-110
1185,2,-235,-35,363,-495,-98
1190,4,-225,-43,356,-491,-89
1195,7,-219,-44,346,-484,-80
1200,12,-214,-51,334,-478,-74
1205,15,-210,-50,317,-465,-68
1210,23,-211,-52,294,-447,-66
1215,25,-204,-54,266,-423,-69
1220,35,-213,-50,233,-390,-75
1225,41,-222,-50,198,-357,-81
1230,44,-225,-45,163,-325,-89
1235,47,-239,-46,135,-295,-95
1240,50,-248,-44,115,-276,-101
1245,46,-255,-39,108,-265,-102
1250,44,-264,-33,117,-264,-103
1255,37,-265,-30,137,-263,-100
1260,32,-267,-28,166,-263,-96
1265,25,-263,-30,197,-259,-93
1270,18,-261,-29,226,-257,-91
1275,11,-258,-26,250,-255,-89
1280,2,-252,-30,269,-256,-90
1285,2,-250,-31,276,-257,-93
1290,-1,-250,-36,276,-264,-93
1295,-1,-248,-44,262,-269,-97
1300,-4,-250,-47,236,-274,-103
1305,-2,-255,-57,197,-277,-109
1310,-2,-260,-59,154,-274,-116
1315,0,-266,-66,114,-266,-127
1320,-1,-275,-67,84,-249,-146
1325,4,-284,-72,63,-220,-161
1330,5,-294,-79,48,-178,-184
1335,6,-298,-81,37,-121,-209
1340,12,-297,-86,29,-53,-231
1345,17,-304,-91,30,27,-254
1350,20,-302,-94,38,113,-279
1355,28,-301,-96,55,204,-301
1360,31,-298,-97,77,288,-329
1365,38,-295,-99,107,359,-348
1370,41,-296,-96,144,410,-355
1375,35,-288,-104,173,438,-354
1380,29,-288,-101,184,452,-334
1385,27,-288,-101,173,447,-297
1390,19,-285,-99,141,426,-246
1395,8,-288,-96,98,397,-192
1400,2,-290,-99,59,360,-148
1405,-1,-296,-97,27,324,-106
1410,-17,-298,-95,2,296,-72
1415,-28,-294,-95,-12,272,-47
1420,-36,-289,-96,-14,246,-25
1425,-52,-284,-93,-5,212,-14
1430,-58,-278,-93,10,166,-7
1435,-65,-267,-101,27,110,-7
1440,-74,-256,-101,43,45,-8
1445,-80,-244,-103,54,-19,-13
1450,-81,-234,-99,61,-80,-15
1455,-84,-222,-105,66,-132,-18
1460,-79,-215,-102,66,-173,-16
1465,-79,-209,-99,62,-201,-13
1470,-68,-204,-100,50,-219,-9
1475,-64,-204,-98,35,-225,-8
1480,-53,-206,-91,15,-226,-6
1485,-46,-201,-93,-12,-220,-1
1490,-37,-212,-94,-44,-211,3
1495,-24,-220,-90,-78,-198,10
1500,-16,-227,-93,-115,-181,14
1505,-10,-230,-93,-151,-158,19
1510,-3,-230,-94,-185,-127,28
1515,1,-238,-94,-218,-91,35
1520,4,-243,-91,-246,-55,41
1525,3,-247,-95,-268,-16,48
1530,4,-249,-97,-282,25,54
1535,2,-247,-92,-286,69,63
1540,6,-249,-89,-278,113,70
1545,2,-249,-87,-260,156,76
1550,1,-250,-85,-239,197,84
1555,-1,-250,-83,-225,228,92
1560,-5,-249,-87,-223,252,102
1565,-10,-253,-89,-232,270,114
1570,-14,-257,-86,-245,279,128
1575,-18,-258,-90,-258,278,145
1580,-27,-256,-88,-260,274,159
1585,-30,-255,-86,-249,268,173
1590,-35,-249,-85,-225,263,183
1595,-40,-249,-76,-194,259,189
1600,-46,-248,-76,-159,259,193
1605,-45,-242,-78,-123,254,192
1610,-46,-241,-75,-93,244,188
1615,-43,-241,-79,-67,230,181
1620,-39,-237,-74,-48,217,175
1625,-39,-236,-75,-36,208,165
1630,-37,-233,-76,-31,205,156
1635,-35,-235,-75,-32,207,148
1640,-29,-234,-80,-39,210,141
1645,-24,-232,-80,-52,218,131
1650,-25,-234,-74,-69,221,126
1655,-20,-238,-78,-84,217,123
1660,-21,-239,-75,-95,208,123
1665,-22,-240,-75,-98,194,128
1670,-21,-246,-74,-92,178,140
1675,-27,-243,-75,-80,165,159
1680,-27,-246,-74,-68,155,178
1685,-32,-246,-69,-57,154,196
1690,-32,-244,-68,-49,155,209
1695,-35,-247,-70,-44,158,222
1700,-40,-243,-73,-48,157,230
1705,-39,-248,-65,-54,155,233
1710,-39,-248,-70,-60,153,235
1715,-43,-249,-72,-67,159,234
1720,-40,-250,-79,-70,170,229
1725,-36,-248,-77,-71,184,219
1730,-35,-250,-74,-67,202,205
1735,-32,-251,-78,-58,217,191
1740,-30,-251,-73,-46,226,174
1745,-28,-248,-71,-29,232,158
1750,-27,-247,-71,-8,232,145
1755,-23,-245,-69,16,234,134
1760,-22,-241,-70,39,239,125
1765,-19,-240,-70,60,246,120
1770,-20,-236,-68,76,256,115
1775,-20,-234,-69,88,264,113
1780,-20,-231,-68,97,271,111
1785,-19,-231,-66,104,281,110
1790,-16,-231,-65,107,289,107
1795,-17,-232,-59,103,300,101
1800,-16,-235,-55,90,315,97
1805,-15,-236,-58,72,331,89
1810,-17,-244,-62,50,352,81
1815,-13,-246,-60,30,378,72
1820,-12,-248,-55,15,406,63
1825,-11,-250,-55,8,434,53
1830,-15,-255,-51,12,464,43
1835,-12,-257,-50,27,488,36
1840,-15,-257,-51,52,512,28
1845,-19,-251,-56,81,529,18
1850,-17,-248,-62,105,544,14
1855,-22,-248,-56,125,559,14
1860,-21,-247,-52,142,571,15
1865,-19,-246,-50,156,585,15
1870,-24,-247,-48,170,595,18
1875,-28,-247,-53,181,601,23
1880,-23,-248,-49,190,602,27
1885,-28,-246,-46,200,596,28
1890,-25,-249,-42,213,593,30
1895,-29,-244,-42,230,589,29
1900,-30,-240,-43,244,581,24
1905,-31,-235,-43,253,573,19
1910,-36,-230,-45,259,562,11
1915,-35,-233,-47,259,550,4
1920,-34,-234,-45,254,540,-3
1925,-40,-241,-39,253,531,-11
1930,-42,-243,-39,252,521,-15
1935,-46,-247,-39,253,513,-18
1940,-47,-251,-46,250,499,-20
1945,-47,-254,-42,244,484,-21
1950,-46,-260,-43,234,464,-21
1955,-46,-258,-47,222,440,-21
1960,-43,-267,-52,210,412,-20
1965,-46,-265,-51,196,381,-17
1970,-46,-263,-56,179,342,-14
1975,-47,-266,-65,171,305,-10
1980,-46,-267,-70,167,267,-5
1985,-48,-266,-70,167,233,0
1990,-45,-265,-67,169,200,3
1995,-48,-268,-69,172,167,4
2000,-52,-269,-68,177,132,3
2005,-52,-271,-68,180,95,2
2010,-55,-266,-67,183,54,-1
2015,-54,-271,-65,186,13,-1
2020,-51,-265,-64,188,-21,-3
2025,-54,-268,-75,187,-53,-6
2030,-43,-263,-61,179,-80,-8
2035,-40,-256,-67,166,-103,-9
2040,-40,-255,-63,147,-130,-10
2045,-33,-252,-67,128,-158,-8
2050,-29,-249,-64,107,-183,-5
2055,-26,-248,-67,89,-205,-2
2060,-21,-248,-62,76,-222,4
2065,-17,-247,-63,71,-231,7
2070,-12,-246,-61,70,-234,10
2075,-6,-246,-57,74,-233,12
2080,-6,-241,-54,81,-230,13
2085,-6,-237,-60,87,-224,11
2090,0,-241,-54,91,-214,11
2095,0,-240,-56,93,-200,10
2100,0,-237,-54,92,-186,9
2105,1,-233,-55,92,-171,8
2110,-1,-233,-54,89,-157,7
2115,-2,-232,-51,83,-145,6
2120,-4,-230,-55,78,-134,5
2125,-9,-234,-53,71,-120,3
2130,-14,-233,-52,60,-103,4
2135,-23,-238,-53,44,-88,3
2140,-19,-236,-55,22,-70,1
2145,-22,-236,-57,-5,-54,-2
2150,-24,-240,-55,-33,-41,-5
2155,-25,-244,-57,-57,-32,-8
2160,-28,-246,-59,-78,-29,-9
2165,-28,-248,-62,-90,-31,-9
2170,-26,-249,-64,-95,-34,-6
2175,-28,-249,-63,-98,-38,-4
2180,-24,-247,-60,-96,-41,3
2185,-20,-249,-62,-90,-46,8
2190,-14,-250,-62,-80,-51,14
2195,-13,-248,-64,-69,-58,17
2200,-9,-247,-66,-58,-68,19
2205,-5,-248,-71,-53,-82,18
2210,0,-242,-73,-53,-96,17
2215,0,-243,-74,-56,-111,15
2220,1,-242,-75,-61,-124,12
2225,4,-243,-77,-69,-132,12
2230,6,-241,-78,-77,-134,11
2235,2,-240,-71,-85,-131,8
2240,2,-244,-71,-93,-123,6
2245,5,-249,-68,-101,-111,4
2250,3,-248,-67,-106,-99,3
2255,3,-250,-67,-115,-88,1
2260,1,-253,-67,-120,-79,0
2265,0,-258,-65,-125,-73,1
2270,-1,-258,-64,-130,-65,2
2275,0,-262,-65,-131,-58,2
2280,-2,-264,-63,-129,-54,2
2285,-7,-261,-62,-126,-50,2
2290,-5,-270,-63,-120,-46,2
2295,-7,-266,-63,-112,-40,0
2300,-10,-268,-58,-102,-34,-4
2305,-5,-267,-60,-92,-26,-8
2310,-5,-262,-61,-82,-15,-13
2315,-5,-258,-60,-69,-1,-22
2320,1,-257,-60,-57,15,-28
2325,3,-256,-61,-45,34,-34
2330,5,-251,-59,-38,54,-40
2335,5,-252,-60,-36,71,-44
2340,7,-250,-60,-36,87,-47
2345,9,-250,-60,-39,101,-51
2350,9,-243,-64,-42,113,-52
2355,8,-247,-63,-47,122,-50
2360,9,-248,-63,-48,131,-48
2365,13,-248,-63,-50,137,-44
2370,12,-248,-63,-54,146,-42
2375,11,-249,-68,-58,154,-38
2380,9,-249,-66,-65,162,-32
2385,8,-249,-61,-73,171,-28
2390,8,-250,-72,-80,179,-23
2395,5,-253,-64,-85,188,-20
2400,1,-254,-64,-88,194,-13
2405,4,-258,-68,-91,202,-10
2410,0,-256,-64,-94,207,-7
2415,-2,-262,-63,-98,214,-3
2420,-2,-262,-65,-103,218,-4
2425,-5,-260,-67,-107,225,-5
2430,-6,-259,-60,-111,229,-10
2435,-6,-261,-64,-114,234,-18
2440,-8,-261,-63,-112,236,-26
2445,-13,-262,-61,-105,238,-34
2450,-9,-260,-56,-95,243,-42
2455,-11,-255,-56,-80,250,-48
2460,-11,-254,-53,-66,261,-56
2465,-8,-255,-52,-53,275,-63
2470,-9,-252,-50,-42,293,-68
2475,-9,-255,-46,-33,306,-72
2480,-13,-254,-50,-27,317,-76
2485,-11,-250,-52,-22,327,-82
2490,-9,-251,-52,-17,332,-87
2495,-8,-255,-53,-15,335,-95
2500,-9,-250,-49,-12,336,-103
2505,-9,-253,-51,-9,338,-109
2510,-12,-250,-50,-5,341,-115
2515,-10,-249,-52,-7,349,-121
2520,-7,-249,-52,-11,362,-124
2525,-6,-250,-50,-21,377,-125
2530,-11,-252,-45,-32,393,-122
2535,-10,-251,-49,-43,407,-117
2540,-12,-250,-47,-52,418,-109
2545,-11,-255,-51,-58,423,-102
2550,-11,-250,-51,-59,421,-93
2555,-11,-249,-51,-59,417,-86
2560,-10,-254,-52,-57,413,-78
2565,-9,-251,-53,-56,414,-70
2570,-6,-249,-45,-55,421,-62
2575,-8,-248,-56,-55,433,-60
2580,-11,-244,-62,-57,447,-56
2585,-10,-242,-60,-62,464,-53
2590,-5,-237,-64,-66,485,-52
2595,-5,-234,-67,-74,503,-51
2600,1,-229,-65,-85,522,-49
2605,0,-225,-72,-100,541,-45
2610,5,-215,-71,-121,558,-40
2615,7,-217,-73,-143,577,-35
2620,9,-210,-74,-166,593,-29
2625,10,-208,-69,-185,608,-24
2630,13,-210,-70,-200,623,-19
2635,14,-210,-68,-207,634,-11
2640,19,-215,-61,-208,645,0
2645,16,-216,-59,-204,653,9
2650,14,-220,-57,-196,660,18
2655,10,-224,-53,-192,664,33
2660,10,-225,-58,-199,665,49
2665,9,-226,-59,-217,669,65
2670,5,-230,-60,-244,674,81
2675,6,-232,-55,-275,675,99
2680,5,-228,-55,-307,667,115
2685,-2,-234,-49,-336,654,127
2690,-2,-237,-49,-356,633,138
2695,-1,-243,-46,-368,607,146
2700,-5,-247,-38,-375,571,150
2705,-4,-253,-39,-378,528,153
2710,-11,-256,-36,-376,478,153
2715,-12,-266,-33,-372,426,153
2720,-13,-273,-30,-366,369,150
2725,-16,-284,-36,-364,315,146
2730,-20,-289,-35,-366,264,142
2735,-21,-298,-40,-373,219,137
2740,-24,-299,-42,-388,179,130
2745,-22,-302,-51,-403,147,121
2750,-20,-307,-51,-416,127,111
2755,-18,-306,-53,-420,116,98
2760,-16,-306,-54,-415,111,82
2765,-12,-302,-49,-389,109,61
2770,-11,-300,-47,-338,107,38
2775,-6,-295,-40,-263,101,15
2780,-3,-294,-37,-175,95,-4
2785,16,-282,-31,-84,87,-27
2790,6,-284,-41,-2,79,-47
2795,5,-273,-46,58,74,-66
2800,2,-263,-42,91,72,-83
2805,4,-259,-40,99,73,-97
2810,2,-251,-39,95,72,-106
2815,0,-250,-40,84,69,-112
2820,-5,-246,-38,68,60,-118
2825,-9,-238,-35,48,46,-130
2830,-14,-239,-35,24,30,-134
2835,-15,-235,-34,2,16,-137
2840,-18,-230,-34,-18,-3,-136
2845,-20,-228,-34,-33,-21,-141
2850,-18,-226,-33,-48,-38,-147
2855,-19,-218,-31,-62,-53,-153
2860,-16,-223,-30,-80,-72,-161
2865,-17,-219,-34,-99,-90,-170
2870,-14,-222,-30,-119,-111,-179
2875,-10,-225,-27,-138,-133,-184
2880,-7,-225,-28,-157,-158,-189
2885,-5,-232,-28,-173,-188,-194
2890,0,-236,-27,-187,-220,-195
2895,-2,-229,-36,-199,-248,-192
2900,4,-241,-27,-211,-273,-187
2905,2,-242,-30,-220,-292,-179
2910,11,-247,-31,-229,-311,-172
2915,13,-248,-30,-236,-324,-162
2920,16,-250,-35,-238,-337,-150
2925,14,-250,-35,-238,-349,-143
2930,16,-251,-32,-234,-361,-138
2935,17,-251,-32,-227,-373,-129
2940,14,-253,-35,-213,-382,-122
2945,12,-257,-30,-200,-389,-118
2950,12,-257,-31,-182,-393,-113
2955,11,-257,-33,-167,-394,-106
2960,10,-261,-31,-154,-392,-100
2965,12,-259,-26,-139,-388,-94
2970,10,-262,-23,-117,-385,-90
2975,8,-266,-27,-90,-384,-86
2980,7,-266,-23,-61,-384,-82
2985,7,-263,-26,-36,-384,-81
2990,8,-266,-24,-16,-383,-82
2995,10,-264,-33,0,-380,-86
3000,10,-261,-29,14,-375,-92
3005,11,-262,-25,26,-372,-99
3010,9,-265,-24,39,-368,-109
3015,10,-265,-26,58,-363,-118
3020,4,-264,-20,80,-362,-129
3025,5,-265,-19,102,-363,-138
3030,5,-262,-19,126,-362,-145
3035,-2,-258,-19,150,-363,-146
3040,4,-256,-19,168,-364,-146
3045,1,-250,-20,181,-365,-144
3050,2,-246,-20,192,-367,-144
3055,4,-242,-20,201,-367,-141
3060,5,-241,-21,208,-371,-139
3065,9,-238,-20,211,-373,-135
3070,15,-236,-20,209,-375,-131
3075,16,-236,-21,200,-375,-130
3080,19,-239,-26,184,-375,-124
3085,22,-237,-35,159,-373,-118
3090,29,-238,-35,130,-372,-111
3095,29,-243,-37,98,-367,-104
3100,28,-244,-45,66,-363,-102
3105,31,-249,-39,36,-360,-100
3110,35,-256,-52,10,-358,-97
3115,29,-260,-45,-11,-357,-96
3120,30,-270,-44,-23,-357,-93
3125,22,-279,-48,-34,-352,-93
3130,20,-288,-49,-46,-341,-98
3135,18,-293,-57,-59,-320,-105
3140,16,-304,-62,-75,-293,-118
3145,16,-310,-68,-86,-253,-131
3150,17,-312,-73,-90,-209,-143
3155,16,-313,-81,-83,-159,-163
3160,17,-320,-82,-65,-104,-180
3165,21,-322,-83,-31,-47,-192
3170,26,-323,-77,17,7,-203
3175,27,-320,-77,74,53,-214
3180,30,-317,-80,130,89,-222
3185,31,-312,-85,175,108,-225
3190,30,-307,-92,194,107,-209
3195,25,-299,-92,186,86,-185
3200,22,-294,-103,158,56,-153
3205,18,-292,-107,118,19,-115
3210,12,-287,-111,67,-15,-80
3215,7,-288,-128,10,-42,-52
3220,0,-283,-121,-46,-64,-30
3225,-3,-281,-130,-100,-83,-15
3230,-10,-278,-129,-143,-105,-9
3235,-23,-276,-130,-170,-134,-10
3240,-34,-270,-127,-177,-166,-23
3245,-45,-262,-129,-178,-206,-42
3250,-56,-249,-128,-170,-255,-62
3255,-61,-241,-124,-152,-307,-82
3260,-66,-227,-123,-130,-358,-99
3265,-74,-214,-120,-103,-391,-117
3270,-78,-203,-112,-73,-423,-134
3275,-80,-194,-105,-40,-444,-150
3280,-76,-187,-100,-9,-457,-161
3285,-78,-185,-93,15,-464,-165
3290,-70,-192,-87,27,-465,-164
3295,-60,-200,-86,21,-465,-156
3300,-46,-215,-86,-6,-456,-144
3305,-32,-228,-84,-54,-441,-126
3310,-24,-243,-85,-116,-413,-103
3315,-11,-251,-84,-181,-374,-78
3320,-5,-266,-82,-238,-328,-45
3325,10,-278,-76,-285,-277,-12
3330,11,-284,-80,-322,-227,22
3335,15,-290,-78,-348,-182,56
3340,22,-291,-79,-366,-148,91
3345,21,-298,-79,-373,-126,127
3350,25,-299,-82,-368,-116,161
3355,17,-301,-87,-351,-112,196
3360,11,-294,-86,-322,-117,228
3365,6,-284,-86,-278,-130,255
3370,1,-277,-82,-219,-149,278
3375,-10,-265,-84,-146,-172,295
3380,-18,-259,-79,-64,-201,306
3385,-28,-248,-74,16,-235,310
3390,-36,-241,-70,86,-268,315
3395,-42,-234,-67,143,-297,317
3400,-48,-222,-66,179,-323,316
3405,-58,-218,-65,199,-341,316
3410,-54,-214,-64,200,-354,312
3415,-56,-209,-61,185,-363,301
3420,-55,-208,-58,161,-375,285
3425,-50,-211,-54,137,-386,270
3430,-47,-211,-54,116,-396,255
3435,-35,-206,-47,99,-401,238
3440,-39,-219,-51,88,-403,227
3445,-35,-220,-49,81,-400,220
3450,-30,-225,-48,74,-386,212
3455,-23,-226,-46,66,-372,210
3460,-18,-227,-46,56,-353,214
3465,-17,-225,-49,44,-335,218
3470,-9,-230,-50,33,-320,220
3475,-11,-229,-53,27,-305,228
3480,-9,-228,-48,28,-294,237
3485,-11,-227,-56,36,-284,245
3490,-17,-221,-50,49,-271,254
3495,-17,-222,-51,66,-253,269
3500,-19,-220,-46,82,-236,282
3505,-26,-215,-49,92,-219,281
3510,-31,-211,-45,92,-201,280
3515,-34,-212,-48,80,-184,278
3520,-42,-205,-50,57,-168,271
3525,-44,-205,-43,29,-150,262
3530,-44,-208,-43,2,-135,255
3535,-48,-212,-42,-24,-120,239
3540,-48,-212,-48,-41,-106,213
3545,-45,-214,-41,-49,-89,189
3550,-45,-214,-41,-48,-73,162
3555,-45,-214,-39,-43,-58,130
3560,-43,-220,-37,-34,-45,96
3565,-42,-218,-37,-24,-39,60
3570,-41,-223,-37,-15,-34,30
3575,-42,-226,-37,-6,-26,3
3580,-43,-227,-35,1,-20,-20
3585,-39,-232,-35,10,-15,-38
3590,-41,-234,-34,19,-8,-57
3595,-41,-236,-38,28,3,-71
3600,-38,-239,-42,35,12,-86
3605,-35,-244,-35,41,22,-102
3610,-37,-240,-39,45,32,-120
3615,-34,-245,-37,46,37,-142
3620,-35,-249,-37,50,41,-162
3625,-31,-256,-33,58,42,-183
3630,-33,-259,-35,68,42,-204
3635,-34,-264,-32,83,41,-220
3640,-33,-266,-32,105,37,-233
3645,-33,-267,-31,134,26,-243
3650,-29,-268,-26,170,9,-249
3655,-35,-265,-31,211,-18,-253
3660,-37,-265,-26,247,-51,-255
3665,-40,-260,-27,271,-94,-252
3670,-43,-258,-30,289,-139,-248
3675,-46,-255,-31,304,-185,-239
3680,-58,-252,-28,319,-227,-226
3685,-62,-249,-29,333,-266,-208
3690,-69,-246,-31,343,-299,-190
3695,-75,-244,-28,347,-327,-173
3700,-78,-244,-31,345,-349,-157
3705,-81,-243,-33,337,-371,-141
3710,-82,-245,-36,324,-385,-126
3715,-81,-249,-35,298,-395,-113
3720,-75,-256,-37,264,-402,-102
3725,-72,-258,-42,222,-399,-86
3730,-69,-266,-55,171,-392,-75
3735,-66,-277,-59,105,-394,-66
3740,-62,-283,-68,39,-399,-51
3745,-53,-296,-72,-28,-416,-28
3750,-45,-313,-74,-83,-436,-2
3755,-39,-326,-78,-118,-449,26
3760,-32,-342,-73,-138,-456,59
3765,-25,-356,-71,-146,-460,104
3770,-17,-365,-65,-147,-462,166
3775,-15,-376,-50,-137,-460,236
3780,-16,-387,-45,-77,-465,280
3785,-18,-382,-45,58,-478,292
3790,-20,-375,-54,224,-477,267
3795,-11,-360,-58,380,-457,239
3800,-5,-334,-65,496,-411,219
3805,-5,-310,-80,559,-348,191
3810,-6,-286,-89,571,-287,144
3815,-3,-269,-97,539,-215,101
3820,-8,-248,-96,475,-133,52
3825,-8,-240,-96,398,-37,9
3830,-12,-233,-96,328,57,-24
3835,-24,-227,-98,273,135,-46
3840,-28,-227,-100,227,196,-58
3845,-38,-221,-102,183,237,-64
3850,-43,-218,-108,139,266,-64
3855,-42,-214,-111,95,290,-56
3860,-40,-212,-118,51,311,-39
3865,-32,-203,-108,10,336,-24
3870,-17,-205,-126,-24,366,-5
3875,-5,-200,-125,-55,400,10
3880,0,-197,-132,-77,435,23
3885,13,-198,-125,-85,459,35
3890,24,-198,-123,-86,472,41
3895,32,-203,-115,-82,477,43
3900,35,-205,-116,-75,480,45
3905,34,-210,-98,-66,482,51
3910,31,-220,-98,-64,483,60
3915,19,-223,-92,-72,486,69
3920,13,-233,-91,-96,487,80
3925,3,-240,-90,-130,481,83
3930,-6,-246,-86,-164,464,84
3935,-14,-252,-87,-196,442,81
3940,-23,-256,-86,-227,414,75
3945,-32,-256,-80,-256,377,64
3950,-39,-260,-83,-278,339,51
3955,-45,-260,-80,-293,303,32
3960,-53,-263,-79,-298,271,8
3965,-51,-270,-78,-290,251,-24
3970,-49,-270,-69,-273,249,-58
3975,-39,-265,-82,-249,263,-95
3980,-42,-267,-72,-220,285,-138
3985,-38,-263,-73,-183,305,-179
3990,-31,-258,-72,-136,315,-215
3995,-24,-254,-68,-80,310,-248
4000,-18,-249,-74,-20,286,-279
4005,-19,-244,-70,44,256,-301
4010,-14,-235,-70,99,223,-313
4015,-11,-231,-66,143,195,-320
4020,-14,-225,-69,178,174,-316
4025,-17,-225,-62,205,160,-312
4030,-10,-221,-57,235,158,-308
4035,-2,-217,-59,242,160,-279
4040,0,-216,-54,208,163,-236
4045,0,-214,-58,141,169,-203
4050,-6,-215,-55,72,174,-197
4055,-4,-218,-56,13,171,-206
4060,-2,-216,-57,-27,161,-222
4065,-9,-222,-57,-48,143,-239
4070,-3,-228,-53,-50,119,-250
4075,-2,-229,-53,-36,97,-262
4080,-9,-230,-61,-19,73,-275
4085,-4,-237,-51,-3,55,-288
4090,-1,-237,-47,11,40,-302
4095,0,-238,-44,18,28,-313
4100,0,-239,-44,18,18,-321
4105,-2,-236,-45,8,9,-328
4110,3,-240,-46,-7,0,-330
4115,2,-241,-45,-25,-9,-333
4120,0,-240,-41,-42,-21,-332
4125,4,-241,-40,-56,-36,-329
4130,5,-241,-36,-66,-51,-319
4135,4,-238,-40,-67,-63,-306
4140,1,-241,-37,-60,-77,-290
4145,3,-240,-34,-53,-91,-273
4150,0,-239,-33,-40,-106,-254
4155,0,-237,-33,-28,-120,-233
4160,0,-233,-32,-18,-131,-210
4165,0,-233,-31,-9,-141,-185
4170,-2,-229,-30,0,-151,-164
4175,-5,-227,-28,11,-158,-143
4180,-4,-223,-23,21,-170,-125
4185,-3,-220,-21,33,-182,-106
4190,-4,-229,-21,45,-194,-91
4195,-2,-222,-19,56,-204,-75
4200,0,-220,-15,64,-214,-61
4205,1,-226,-15,69,-224,-49
4210,2,-228,-15,74,-233,-36
4215,3,-233,-16,78,-242,-26
4220,3,-241,-12,83,-255,-17
4225,2,-245,-12,93,-270,-8
4230,1,-252,-11,106,-287,-1
4235,0,-249,-9,126,-304,11
4240,0,-256,-11,148,-318,22
4245,-4,-258,-13,169,-325,30
4250,-4,-256,-12,186,-328,39
4255,-7,-256,-15,199,-330,53
4260,-9,-253,-15,209,-331,65
4265,-8,-247,-19,216,-327,78
4270,-10,-243,-25,215,-323,95
4275,-7,-240,-29,210,-316,113
4280,-2,-236,-31,206,-306,132
4285,-1,-236,-27,201,-290,149
4290,6,-231,-24,201,-268,160
4295,9,-228,-30,201,-228,168
4300,26,-219,-25,199,-173,173
4305,24,-230,-23,193,-123,174
4310,29,-232,-22,181,-60,168
4315,31,-237,-20,163,-8,155
4320,34,-239,-28,136,28,134
4325,36,-249,-24,110,42,111
4330,34,-252,-26,87,33,79
4335,32,-256,-24,71,6,46
4340,28,-263,-20,62,-34,20
4345,14,-264,-15,65,-80,4
4350,8,-269,-12,73,-128,-3
4355,-2,-273,-10,79,-172,-4
4360,-14,-278,-10,74,-213,-2
4365,-24,-284,-12,52,-253,3
4370,-37,-287,-16,12,-288,7
4375,-46,-297,-19,-43,-318,7
4380,-52,-304,-27,-103,-342,2
4385,-48,-315,-27,-165,-353,-13
4390,-48,-330,-30,-210,-350,-37
4395,-42,-342,-34,-233,-333,-72
4400,-31,-358,-34,-216,-300,-113
4405,-21,-368,-40,-168,-266,-162
4410,-7,-359,-51,-99,-232,-217
4415,6,-378,-51,-24,-193,-268
4420,19,-373,-59,47,-142,-313
4425,32,-363,-68,99,-84,-353
4430,46,-352,-82,130,-15,-376
4435,52,-339,-103,140,55,-378
4440,63,-316,-121,123,110,-371
4445,67,-299,-132,82,151,-350
4450,71,-285,-137,24,169,-322
4455,69,-272,-138,-31,160,-293
4460,67,-265,-132,-69,132,-266
4465,59,-258,-124,-87,89,-246
4470,48,-257,-117,-93,38,-233
4475,35,-252,-114,-91,-18,-229
4480,13,-248,-112,-84,-74,-230
4485,-4,-230,-112,-80,-135,-229
4490,-24,-221,-112,-80,-201,-227
4495,-51,-204,-109,-86,-278,-217
4500,-75,-193,-105,-91,-361,-203
4505,-102,-184,-100,-89,-447,-183
4510,-124,-171,-92,-75,-533,-155
4515,-147,-164,-81,-48,-610,-124
4520,-148,-164,-80,-15,-665,-87
4525,-150,-165,-81,10,-692,-49
4530,-143,-175,-79,16,-695,-14
4535,-121,-188,-73,-14,-676,4
4540,-97,-203,-77,-76,-633,8
4545,-69,-222,-74,-162,-565,10
4550,-40,-244,-79,-261,-477,18
4555,-13,-269,-79,-356,-377,25
4560,15,-291,-80,-442,-274,24
4565,36,-314,-81,-517,-181,17
4570,57,-332,-82,-580,-106,7
4575,68,-339,-83,-624,-49,2
4580,81,-346,-91,-650,-9,5
4585,89,-341,-94,-656,22,20
4590,84,-331,-96,-637,51,52
4595,77,-320,-92,-584,83,106
4600,65,-308,-83,-493,113,175
4605,49,-288,-79,-382,141,246
4610,36,-272,-80,-263,161,313
4615,24,-259,-77,-148,175,371
4620,7,-247,-79,-47,185,421
4625,1,-245,-76,34,197,457
4630,-16,-228,-73,91,210,482
4635,-25,-222,-68,125,222,494
4640,-34,-216,-65,140,231,500
4645,-43,-211,-62,137,230,501
4650,-50,-209,-55,123,230,495
4655,-55,-206,-54,104,227,485
4660,-57,-204,-50,81,227,472
4665,-55,-205,-55,52,226,457
4670,-57,-200,-50,19,226,442
4675,-50,-205,-49,-13,232,424
4680,-44,-206,-53,-46,238,410
4685,-44,-207,-51,-73,245,395
4690,-41,-211,-54,-95,254,373
4695,-34,-215,-51,-107,266,358
4700,-26,-215,-50,-113,282,346
4705,-21,-219,-49,-114,303,336
4710,-15,-221,-49,-116,329,332
4715,-15,-219,-48,-116,357,337
4720,-12,-226,-49,-112,385,343
4725,-11,-221,-43,-110,407,350
4730,-12,-215,-41,-112,432,365
4735,-17,-220,-40,-117,453,373
4740,-23,-218,-38,-125,472,380
4745,-26,-218,-39,-135,488,386
4750,-30,-217,-37,-141,503,385
4755,-34,-221,-34,-142,520,383
4760,-41,-222,-34,-139,536,374
4765,-42,-219,-31,-135,549,356
4770,-46,-219,-32,-133,561,335
4775,-45,-220,-30,-137,572,315
4780,-46,-223,-31,-139,584,302
4785,-49,-227,-31,-138,591,284
4790,-53,-229,-30,-117,586,249
4795,-53,-234,-29,-72,575,198
4800,-55,-234,-32,-15,564,139
4805,-52,-231,-31,40,560,89
4810,-53,-230,-29,79,560,54
4815,-49,-230,-27,100,564,31
4820,-47,-228,-22,102,573,3
4825,-44,-232,-23,96,583,-19
4830,-35,-238,-21,93,590,-47
4835,-35,-236,-22,102,594,-75
4840,-42,-252,-12,111,598,-104
4845,-27,-239,-21,120,593,-133
4850,-21,-246,-21,125,586,-163
4855,-21,-246,-22,130,577,-194
4860,-23,-247,-24,138,564,-219
4865,-21,-245,-28,149,545,-243
4870,-24,-246,-31,157,516,-266
4875,-25,-242,-32,156,479,-287
4880,-30,-239,-36,148,437,-301
4885,-33,-239,-45,127,384,-307
4890,-44,-237,-49,103,332,-309
4895,-55,-235,-49,77,280,-301
4900,-65,-237,-49,57,223,-290
4905,-72,-239,-44,46,161,-274
4910,-79,-241,-42,47,94,-258
4915,-88,-247,-38,60,30,-239
4920,-95,-250,-34,83,-27,-214
4925,-99,-254,-30,115,-72,-189
4930,-104,-259,-28,150,-104,-163
4935,-103,-262,-20,186,-126,-139
4940,-97,-266,-19,217,-131,-119
4945,-83,-267,-13,252,-122,-107
4950,-68,-267,-5,288,-101,-103
4955,-52,-267,-14,323,-73,-107
4960,-39,-262,-14,341,-41,-113
4965,-21,-261,-15,342,-4,-121
4970,-7,-260,-26,318,34,-125
4975,7,-262,-30,270,78,-128
4980,22,-266,-39,200,126,-123
4985,32,-278,-50,112,175,-110
4990,39,-283,-57,15,222,-91
4995,41,-301,-65,-84,265,-65
5000,39,-312,-69,-163,298,-27
5005,32,-324,-78,-220,318,26
5010,26,-339,-87,-259,323,89
5015,8,-347,-88,-281,310,155
5020,-8,-354,-101,-287,280,223
5025,-26,-363,-111,-281,237,282
5030,-41,-365,-118,-261,192,330
5035,-53,-363,-120,-229,151,359
5040,-63,-362,-121,-189,114,370
5045,-69,-359,-130,-143,77,378
5050,-77,-353,-124,-98,40,391
5055,-81,-355,-127,-57,12,407
5060,-65,-345,-123,-13,8,419
5065,-51,-338,-116,42,31,415
5070,-35,-326,-107,112,73,399
5075,-19,-312,-97,195,125,379
5080,-6,-305,-96,273,180,348
5085,5,-283,-102,339,229,312
5090,28,-261,-109,375,295,291
5095,48,-241,-115,372,387,282
5100,65,-215,-115,342,512,297
5105,82,-192,-123,300,651,325
5110,89,-173,-126,245,790,330
5115,102,-153,-130,190,913,317
5120,104,-136,-134,138,1022,297
5125,106,-122,-136,92,1125,280
5130,105,-117,-134,55,1220,278
5135,99,-117,-134,11,1307,284
5140,81,-118,-131,-39,1375,293
5145,65,-125,-124,-99,1425,295
5150,49,-145,-117,-172,1456,295
5155,23,-165,-118,-257,1466,295
5160,1,-191,-114,-348,1461,298
5165,-20,-217,-106,-440,1441,303
5170,-43,-243,-105,-527,1410,305
5175,-62,-262,-99,-605,1365,307
5180,-76,-281,-100,-674,1306,314
5185,-92,-299,-98,-738,1226,319
5190,-101,-311,-99,-797,1128,319
5195,-105,-320,-101,-841,1018,310
5200,-104,-319,-103,-864,901,288
5205,-101,-314,-103,-857,791,253
5210,-89,-306,-103,-813,691,207
5215,-77,-294,-104,-733,608,150
5220,-63,-279,-105,-625,549,83
5225,-49,-262,-95,-495,510,16
5230,-34,-249,-97,-362,486,-46
5235,-23,-238,-93,-246,472,-101
5240,-9,-227,-87,-151,458,-146
5245,0,-217,-86,-78,453,-182
5250,8,-212,-83,-35,458,-208
5255,16,-207,-87,-14,469,-225
5260,24,-202,-83,-20,487,-238
5265,31,-199,-85,-42,515,-236
5270,33,-197,-85,-74,550,-226
5275,34,-202,-83,-108,576,-213
5280,32,-202,-79,-149,593,-204
5285,30,-207,-80,-190,606,-193
5290,27,-211,-82,-223,613,-176
5295,22,-221,-82,-242,617,-157
5300,21,-226,-78,-254,615,-142
5305,14,-233,-72,-257,611,-129
5310,9,-240,-72,-249,606,-115
5315,4,-245,-70,-240,601,-105
5320,2,-247,-71,-221,599,-96
5325,2,-247,-68,-205,593,-87
5330,0,-245,-65,-197,586,-78
5335,0,-242,-66,-198,572,-75
5340,-4,-238,-65,-204,560,-77
5345,-2,-235,-68,-211,538,-86
5350,-2,-230,-67,-219,516,-101
5355,0,-220,-69,-223,498,-115
5360,0,-220,-65,-223,485,-125
5365,3,-219,-67,-224,472,-138
5370,7,-212,-64,-218,472,-138
5375,10,-211,-65,-207,474,-133
5380,20,-209,-63,-198,478,-125
5385,19,-220,-65,-193,479,-115
5390,21,-216,-70,-196,478,-102
5395,24,-217,-70,-206,478,-85
5400,22,-219,-74,-220,479,-68
5405,23,-228,-70,-230,478,-45
5410,21,-229,-73,-235,481,-20
5415,21,-234,-68,-235,485,4
5420,21,-234,-73,-233,494,24
5425,19,-240,-62,-230,501,44
5430,17,-241,-65,-225,506,62
5435,16,-243,-66,-215,512,78
5440,9,-246,-61,-204,514,97
5445,7,-243,-62,-192,514,113
5450,4,-242,-64,-182,513,129
5455,0,-241,-66,-172,510,147
5460,-1,-238,-65,-162,506,164
5465,-3,-241,-58,-150,498,180
5470,-8,-239,-57,-136,488,192
5475,-10,-241,-52,-119,477,204
5480,-13,-240,-53,-99,463,214
5485,-12,-245,-51,-82,447,222
5490,-10,-247,-41,-70,429,230
5495,-14,-246,-51,-57,411,235
5500,-18,-248,-53,-42,390,238
5505,-18,-247,-51,-26,372,241
5510,-16,-246,-49,-13,359,247
5515,-18,-243,-49,1,348,250
5520,-18,-246,-44,18,338,253
5525,-17,-245,-47,33,331,254
5530,-14,-246,-43,45,327,256
5535,-5,-243,-50,51,327,259
5540,-1,-245,-50,52,328,256
5545,0,-242,-54,46,324,249
5550,1,-241,-56,41,319,243
5555,3,-241,-51,38,310,241
5560,2,-241,-54,38,301,241
5565,2,-241,-55,41,288,242
5570,0,-246,-53,44,274,237
5575,0,-248,-52,49,260,235
5580,-4,-249,-51,47,246,231
5585,-6,-252,-47,46,229,224
5590,-3,-256,-49,47,207,223
5595,-9,-260,-47,47,185,220
5600,-7,-261,-42,56,162,215
5605,-10,-265,-42,65,138,205
5610,-15,-266,-37,80,113,202
5615,-13,-268,-38,96,92,199
5620,-16,-271,-39,108,68,192
5625,-17,-266,-42,118,42,173
5630,-17,-268,-34,123,16,153
5635,-16,-267,-32,133,-10,133
5640,-22,-266,-24,149,-33,123
5645,-18,-267,-20,173,-56,116
5650,-19,-269,-17,206,-85,98
5655,-23,-266,-17,242,-114,82
5660,-23,-264,-16,277,-147,78
5665,-23,-263,-22,300,-185,77
5670,-30,-261,-28,310,-226,78
5675,-31,-262,-38,300,-266,84
5680,-28,-264,-41,268,-294,96
5685,-21,-273,-48,218,-307,109
5690,-10,-286,-50,166,-306,119
5695,2,-298,-60,123,-281,125
5700,13,-311,-71,92,-233,135
5705,16,-315,-96,62,-168,141
5710,40,-320,-115,21,-96,148
5715,52,-322,-145,-45,-30,151
5720,63,-322,-172,-142,26,146
5725,78,-324,-199,-255,72,135
5730,94,-324,-212,-361,100,115
5735,109,-328,-215,-434,116,88
5740,121,-326,-210,-450,138,51
5745,126,-325,-206,-397,178,12
5750,120,-321,-192,-295,233,-22
5755,104,-311,-188,-176,288,-48
5760,81,-300,-189,-71,335,-66
5765,59,-280,-189,3,368,-75
5770,29,-260,-191,38,382,-72
5775,-4,-242,-191,35,386,-55
5780,-31,-223,-182,6,380,-30
5785,-63,-205,-170,-34,366,0
5790,-86,-195,-156,-68,344,28
5795,-113,-188,-144,-83,319,53
5800,-134,-184,-132,-79,294,74
5805,-144,-187,-120,-58,273,90
5810,-149,-196,-113,-27,256,97
5815,-139,-193,-107,10,244,98
5820,-118,-206,-110,41,236,91
5825,-90,-214,-115,58,230,77
5830,-64,-220,-117,58,236,61
5835,-38,-233,-122,37,246,53
5840,-10,-243,-119,2,261,59
5845,14,-253,-118,-38,273,75
5850,35,-265,-120,-83,282,102
5855,58,-271,-114,-127,288,135
5860,68,-278,-120,-175,298,171
5865,79,-281,-122,-222,316,217
5870,84,-286,-123,-257,342,266
5875,79,-287,-116,-278,374,323
5880,76,-287,-111,-274,414,386
5885,65,-288,-106,-240,456,449
5890,51,-283,-103,-184,495,505
5895,31,-276,-100,-108,530,555
5900,8,-263,-94,-23,557,591
5905,-7,-256,-97,60,580,618
5910,-22,-245,-96,135,602,634
5915,-39,-233,-95,185,620,644
5920,-52,-222,-101,237,635,645
5925,-62,-211,-96,275,647,638
5930,-70,-203,-100,302,653,625
5935,-81,-200,-98,320,654,607
5940,-85,-196,-98,332,651,592
5945,-88,-197,-95,337,647,579
5950,-88,-201,-94,340,642,569
5955,-82,-205,-89,340,638,563
5960,-75,-215,-89,338,636,557
5965,-69,-217,-89,330,639,548
5970,-57,-225,-91,320,646,539
5975,-45,-229,-89,305,655,535
5980,-29,-240,-90,291,666,530
5985,-14,-246,-91,277,683,531
5990,-10,-245,-93,257,705,535
5995,0,-251,-93,235,728,543
6000,0,-251,-92,212,757,553
6005,8,-252,-87,193,785,562
6010,6,-255,-89,185,813,570
6015,6,-252,-87,191,837,575
6020,2,-253,-84,215,859,585
6025,-2,-251,-82,248,886,592
6030,5,-250,-84,283,916,592
6035,-16,-247,-81,323,946,585
6040,-18,-240,-84,359,976,574
6045,-27,-235,-81,383,1003,558
6050,-33,-229,-86,395,1032,544
6055,-41,-218,-84,395,1056,530
6060,-49,-211,-80,391,1077,518
6065,-54,-210,-75,382,1092,505
6070,-55,-208,-76,372,1101,494
6075,-57,-211,-78,359,1102,479
6080,-62,-210,-74,341,1095,468
6085,-63,-213,-76,321,1083,457
6090,-63,-221,-76,300,1068,446
6095,-64,-227,-75,284,1050,435
6100,-64,-230,-71,272,1035,425
6105,-64,-236,-76,262,1018,416
6110,-63,-234,-76,256,1002,406
6115,-63,-239,-70,251,988,398
6120,-62,-240,-71,243,979,389
6125,-58,-237,-67,235,969,385
6130,-55,-235,-68,222,964,379
6135,-49,-231,-70,212,958,373
6140,-52,-229,-73,210,953,365
6145,-40,-229,-68,212,946,353
6150,-39,-224,-65,221,939,338
6155,-38,-220,-67,234,931,324
6160,-34,-221,-65,245,924,309
6165,-34,-219,-66,255,920,292
6170,-38,-216,-62,260,919,274
6175,-36,-217,-67,259,922,257
6180,-36,-216,-63,252,928,242
6185,-38,-214,-59,239,933,226
6190,-40,-214,-57,222,941,215
6195,-43,-213,-62,201,948,200
6200,-42,-210,-57,180,955,186
6205,-42,-216,-54,163,962,172
6210,-44,-210,-54,148,969,157
6215,-41,-211,-53,141,974,140
6220,-45,-209,-51,141,979,121
6225,-41,-203,-52,145,984,102
6230,-40,-202,-48,151,986,85
6235,-34,-200,-44,155,986,66
6240,-36,-193,-43,156,987,47
6245,-35,-193,-48,157,989,29
6250,-39,-192,-43,153,988,13
6255,-38,-189,-44,147,986,2
6260,-34,-191,-43,138,985,-9
6265,-39,-192,-43,129,987,-13
6270,-40,-197,-41,118,987,-16
6275,-44,-200,-35,109,991,-15
6280,-43,-206,-36,102,995,-12
6285,-47,-215,-28,96,1001,-9
6290,-46,-217,-31,95,1007,-8
6295,-43,-225,-27,97,1013,-8
6300,-43,-231,-31,105,1026,-11
6305,-42,-235,-26,122,1040,-19
6310,-43,-239,-25,143,1054,-30
6315,-40,-242,-26,169,1072,-44
6320,-35,-241,-23,202,1089,-59
6325,-32,-246,-20,242,1108,-76
6330,-27,-248,-14,289,1129,-94
6335,-19,-250,-14,341,1151,-116
6340,-19,-243,-10,392,1171,-135
6345,-14,-239,-12,433,1188,-151
6350,-15,-230,-13,455,1201,-158
6355,-15,-212,-15,461,1215,-157
6360,-11,-208,-12,454,1233,-152
6365,-13,-197,-14,442,1256,-147
6370,-7,-186,-10,432,1288,-138
6375,0,-180,-17,426,1328,-128
6380,1,-171,-17,422,1371,-114
6385,6,-164,-16,415,1417,-103
6390,9,-158,-19,405,1459,-95
6395,12,-155,-18,396,1502,-83
6400,11,-155,-20,386,1539,-71
6405,3,-154,-22,376,1571,-56
6410,0,-158,-31,354,1599,-31
6415,-6,-164,-33,312,1620,0
6420,-16,-171,-38,250,1632,38
6425,-25,-180,-45,175,1638,78
6430,-38,-183,-51,100,1645,120
6435,-45,-190,-58,33,1656,155
6440,-57,-201,-60,-14,1677,178
6445,-62,-212,-63,-41,1702,186
6450,-70,-223,-62,-46,1725,181
6455,-76,-229,-60,-33,1740,162
6460,-75,-235,-64,-6,1746,135
6465,-72,-237,-64,31,1745,99
6470,-69,-236,-59,59,1742,64
6475,-65,-230,-58,90,1738,32
6480,-61,-219,-59,110,1734,11
6485,-54,-209,-60,118,1728,1
6490,-48,-199,-50,118,1726,3
6495,-41,-187,-48,117,1727,20
6500,-37,-180,-50,112,1733,43
6505,-35,-170,-51,105,1738,70
6510,-31,-170,-46,95,1739,101
6515,-34,-167,-45,85,1734,128
6520,-39,-168,-41,78,1730,148
6525,-43,-170,-40,73,1721,174
6530,-51,-181,-27,82,1717,201
6535,-58,-189,-30,100,1711,219
6540,-62,-199,-23,126,1709,235
6545,-67,-199,-24,165,1703,255
6550,-70,-203,-21,207,1694,267
6555,-71,-205,-22,250,1680,270
6560,-69,-195,-22,293,1655,269
6565,-67,-184,-23,338,1632,264
6570,-63,-177,-31,370,1608,259
6575,-64,-166,-37,386,1579,251
6580,-59,-153,-41,377,1548,246
6585,-56,-141,-50,337,1520,244
6590,-51,-134,-47,282,1506,249
6595,-58,-123,-51,225,1513,261
6600,-58,-119,-43,173,1543,281
6605,-58,-120,-43,131,1595,310
6610,-58,-120,-34,96,1659,344
6615,-61,-120,-31,68,1728,377
6620,-53,-126,-21,48,1789,408
6625,-54,-127,-20,36,1835,430
6630,-47,-127,-25,27,1863,439
6635,-39,-127,-28,22,1874,438
6640,-33,-125,-37,13,1874,426
6645,-30,-113,-49,-4,1868,405
6650,-30,-103,-58,-33,1860,376
6655,-26,-94,-67,-78,1860,343
6660,-21,-83,-71,-136,1876,311
6665,-19,-75,-76,-205,1906,282
6670,-19,-65,-74,-282,1948,257
6675,-15,-62,-72,-359,1994,233
6680,-10,-58,-64,-429,2039,205
6685,-10,-55,-64,-489,2078,173
6690,-8,-56,-68,-550,2104,133
6695,-15,-51,-73,-615,2116,87
6700,-31,-47,-79,-691,2121,50
6705,-52,-45,-92,-776,2126,27
6710,-68,-41,-115,-880,2120,12
6715,-83,-42,-136,-1011,2106,-13
6720,-92,-38,-153,-1164,2089,-55
6725,-95,-40,-177,-1334,2067,-111
6730,-93,-40,-207,-1513,2036,-183
6735,-93,-46,-232,-1701,1985,-268
6740,-96,-56,-246,-1880,1910,-356
6745,-84,-67,-258,-2027,1821,-445
6750,-65,-91,-260,-2114,1750,-532
6755,-44,-123,-248,-2140,1728,-618
6760,-20,-163,-228,-2104,1760,-704
6765,14,-201,-218,-2019,1832,-795
6770,45,-241,-207,-1913,1923,-897
6775,71,-273,-188,-1806,2017,-999
6780,104,-306,-167,-1699,2101,-1080
6785,129,-324,-153,-1598,2175,-1136
6790,146,-340,-133,-1480,2253,-1174
6795,166,-346,-118,-1356,2338,-1200
6800,178,-352,-112,-1247,2425,-1223
6805,192,-349,-111,-1154,2507,-1235
6810,194,-333,-107,-1086,2586,-1241
6815,197,-304,-114,-1047,2657,-1236
6820,198,-266,-113,-1030,2725,-1202
6825,198,-242,-114,-1018,2794,-1138
6830,186,-206,-117,-963,2885,-1069
6835,173,-190,-119,-854,3018,-996
6840,157,-186,-127,-702,3207,-912
6845,160,-198,-131,-553,3417,-832
6850,167,-237,-125,-424,3605,-798
6855,191,-308,-138,-304,3759,-811
6860,234,-379,-169,-195,3859,-877
6865,286,-440,-229,-124,3886,-1053
6870,349,-491,-298,-114,3863,-1373
6875,400,-539,-355,-186,3842,-1788
6880,438,-583,-376,-283,3866,-2181
6885,463,-629,-382,-303,3935,-2475
6890,485,-681,-384,-197,4013,-2624
6895,497,-680,-402,-3,4023,-2683
6900,453,-640,-397,222,3945,-2726
6905,415,-605,-377,501,3779,-2791
6910,391,-606,-352,872,3588,-2822
6915,389,-646,-334,1283,3445,-2768
6920,384,-697,-286,1643,3346,-2661
6925,374,-713,-249,1934,3242,-2565
6930,365,-701,-217,2168,3100,-2488
6935,332,-675,-203,2348,2893,-2459
6940,296,-626,-187,2523,2597,-2558
6945,259,-547,-163,2669,2334,-2684
6950,211,-480,-115,2700,2136,-2751
6955,165,-409,-68,2613,1939,-2866
6960,111,-348,-15,2456,1750,-2998
6965,67,-305,33,2263,1581,-3086
6970,16,-267,57,2069,1427,-3164
6975,-27,-237,63,1895,1266,-3233
6980,-63,-221,76,1728,1094,-3279
6985,-87,-210,79,1586,922,-3288
6990,-99,-211,79,1477,777,-3228
6995,-101,-214,74,1423,618,-3145
7000,-83,-211,68,1429,438,-3045
7005,-44,-208,50,1461,258,-2871
7010,8,-200,38,1473,84,-2630
7015,56,-185,24,1427,-69,-2364
7020,98,-167,21,1296,-199,-2095
7025,131,-145,27,1095,-294,-1850
7030,158,-120,32,868,-357,-1650
7035,184,-104,36,668,-398,-1498
7040,201,-79,42,539,-411,-1396
7045,214,-63,44,505,-387,-1339
7050,215,-49,39,534,-319,-1317
7055,193,-34,25,624,-222,-1301
7060,163,-24,10,753,-118,-1274
7065,135,-25,-2,901,-19,-1237
7070,110,-27,-11,1041,68,-1196
7075,84,-32,-21,1155,137,-1149
7080,62,-37,-36,1224,177,-1094
7085,52,-45,-51,1234,214,-1026
7090,45,-56,-59,1196,238,-951
7095,43,-66,-61,1120,253,-875
7100,49,-77,-59,1025,263,-811
7105,69,-83,-58,925,277,-774
7110,88,-95,-48,829,300,-751
7115,108,-94,-35,755,335,-745
7120,127,-83,-33,712,379,-741
7125,147,-66,-28,676,432,-730
7130,166,-46,-18,634,500,-727
7135,183,-28,-11,594,576,-725
7140,204,-16,-4,576,653,-727
7145,230,-6,3,586,736,-730
7150,254,-8,8,615,835,-742
7155,274,-19,12,665,945,-764
7160,303,-31,23,726,1061,-801
7165,318,-43,33,794,1190,-857
7170,338,-55,40,845,1323,-913
7175,365,-69,52,872,1470,-965
7180,387,-80,65,897,1645,-1009
7185,394,-100,68,926,1842,-1027
7190,391,-107,62,943,2022,-1016
7195,397,-117,64,922,2174,-981
7200,400,-117,78,877,2308,-943
7205,396,-119,78,840,2421,-899
7210,383,-117,89,834,2498,-851
7215,365,-112,91,851,2526,-796
7220,347,-108,100,874,2514,-734
7225,328,-106,113,894,2481,-684
7230,296,-101,132,927,2434,-663
7235,250,-87,145,989,2357,-660
7240,223,-70,139,1053,2256,-659
7245,194,-54,132,1068,2155,-675
7250,177,-40,128,1034,2062,-691
7255,172,-27,121,968,1973,-697
7260,179,-21,122,865,1895,-683
7265,195,-13,125,749,1835,-666
7270,215,-8,121,637,1770,-666
7275,259,-3,128,526,1697,-692
7280,295,11,136,441,1640,-774
7285,313,24,133,375,1607,-863
7290,318,29,137,272,1585,-914
7295,330,29,139,141,1578,-936
7300,328,18,150,14,1609,-918
7305,320,4,163,-93,1619,-893
7310,293,-11,159,-116,1543,-964
7315,317,-14,123,-135,1412,-1129
7320,288,-32,130,-62,1432,-1163
7325,295,-24,125,41,1385,-1236
7330,271,-21,110,190,1388,-1299
7335,269,-35,112,399,1411,-1296
7340,256,-18,132,764,1459,-1307
7345,252,-6,151,1128,1446,-1261
7350,229,4,159,1394,1370,-1208
7355,210,18,144,1575,1258,-1208
7360,215,18,160,1672,1237,-1175
7365,214,43,162,1733,1283,-1145
7370,236,59,169,1769,1346,-1083
7375,236,74,172,1811,1409,-1001
7380,239,87,177,1845,1479,-884
7385,233,102,180,1855,1557,-737
7390,231,116,191,1830,1634,-576
7395,232,119,199,1772,1693,-420
7400,236,122,201,1691,1722,-274
7405,231,119,206,1589,1726,-131
7410,239,106,202,1448,1695,11
7415,240,90,216,1301,1650,130
7420,238,77,216,1180,1574,222
7425,229,72,218,1062,1493,324
7430,234,73,223,932,1417,460
7435,231,55,218,797,1354,605
7440,228,52,213,664,1315,737
7445,227,55,196,554,1303,850
7450,221,54,176,478,1319,943
7455,207,52,151,438,1348,1031
7460,201,42,136,425,1389,1106
7465,186,36,122,435,1428,1167
7470,177,26,118,466,1445,1212
7475,167,20,121,512,1452,1238
7480,158,14,130,559,1451,1252
7485,154,16,128,594,1448,1247
7490,153,24,135,600,1450,1232
7495,138,35,139,579,1457,1211
7500,131,50,140,534,1459,1192
7505,129,61,135,480,1459,1177
7510,126,72,142,422,1459,1162
7515,126,81,152,370,1460,1149
7520,125,89,157,326,1458,1138
7525,123,94,166,292,1446,1134
7530,118,91,175,266,1424,1141
7535,115,88,179,235,1388,1151
7540,108,82,179,194,1353,1155
7545,100,74,189,148,1321,1151
7550,94,64,197,106,1290,1141
7555,92,52,207,88,1266,1123
7560,91,38,216,97,1232,1094
7565,93,27,222,132,1188,1056
7570,95,17,230,176,1143,1009
7575,99,14,237,213,1102,948
7580,103,9,233,229,1076,889
7585,108,8,228,233,1058,821
7590,107,9,231,242,1028,749
7595,106,8,227,264,987,666
7600,112,10,223,321,941,571
7605,113,15,220,407,887,469
7610,103,13,214,493,828,383
7615,108,11,220,545,764,330
7620,137,9,230,563,740,267
7625,149,10,246,568,752,168
7630,157,9,251,556,775,83
7635,162,9,252,515,774,19
7640,165,10,247,455,736,-25
7645,169,6,235,387,676,-48
7650,160,-5,232,320,621,-56
7655,166,-11,219,258,584,-52
7660,156,-20,215,212,576,-34
7665,150,-32,222,176,585,4
7670,144,-43,219,150,609,52
7675,145,-50,223,142,644,97
7680,134,-55,226,147,678,128
7685,131,-60,225,158,691,156
7690,132,-62,222,176,684,176
7695,124,-63,220,207,658,182
7700,119,-60,213,236,617,186
7705,114,-64,206,239,581,186
7710,107,-64,205,213,563,182
7715,101,-63,203,170,558,173
7720,95,-59,199,122,564,158
7725,93,-57,192,81,565,145
7730,95,-51,184,54,568,132
7735,99,-53,184,58,587,126
7740,112,-50,184,81,605,128
7745,108,-50,186,110,622,136
7750,110,-48,186,154,632,150
7755,98,-44,203,199,633,171
7760,94,-32,207,242,632,199
7765,88,-26,212,275,639,223
7770,76,-16,224,286,656,242
7775,67,-15,231,277,673,263
7780,63,-15,237,249,683,278
7785,59,-19,247,213,679,289
7790,55,-21,254,181,656,286
7795,48,-28,251,169,619,272
7800,45,-30,256,170,565,252
7805,44,-35,256,188,493,227
7810,47,-42,250,219,420,200
7815,50,-47,248,253,350,171
7820,55,-53,245,285,286,145
7825,64,-56,239,311,231,126
7830,68,-58,237,323,181,114
7835,72,-58,236,324,140,96
7840,83,-59,233,318,109,79
7845,86,-55,231,308,93,51
7850,90,-52,227,292,85,28
7855,93,-49,226,261,80,6
7860,102,-43,220,220,80,-15
7865,107,-35,217,175,87,-34
7870,104,-36,213,136,96,-49
7875,105,-36,214,102,103,-59
7880,103,-35,206,76,112,-65
7885,102,-35,208,56,122,-70
7890,97,-38,213,37,133,-71
7895,96,-40,209,16,149,-71
7900,95,-46,212,-14,164,-70
7905,89,-49,210,-43,183,-64
7910,87,-48,215,-67,198,-57
7915,86,-50,215,-80,207,-47
7920,84,-51,212,-85,212,-40
7925,83,-46,216,-81,213,-32
7930,80,-45,217,-68,205,-23
7935,83,-41,215,-54,192,-18
7940,79,-36,218,-42,176,-14
7945,79,-32,223,-34,159,-11
7950,80,-25,222,-31,145,-6
7955,83,-27,224,-34,134,-2
7960,83,-20,226,-42,127,-1
7965,79,-20,228,-53,123,0
7970,84,-20,229,-60,120,-3
7975,80,-22,230,-67,116,-8
7980,88,-18,226,-80,112,-15
7985,86,-17,227,-90,103,-22
7990,88,-20,229,-92,94,-29
7995,92,-20,226,-94,81,-35
8000,90,-20,225,-95,71,-43
8005,93,-23,229,-98,61,-45
8010,97,-21,228,-95,54,-46
8015,94,-21,225,-93,48,-49
8020,97,-18,229,-88,42,-50
8025,99,-18,229,-80,34,-52
8030,102,-15,225,-67,31,-57
8035,108,-15,230,-56,31,-61
8040,108,-13,231,-41,33,-69
8045,111,-10,224,-26,33,-76
8050,112,-8,226,-19,34,-84
8055,113,-6,228,-16,38,-86
8060,111,-6,229,-20,44,-91
8065,114,-5,228,-25,44,-89
8070,109,-5,226,-31,48,-91
8075,114,-8,223,-31,54,-86
8080,111,-7,228,-24,61,-82
8085,110,-13,224,-18,65,-77
8090,115,-5,227,-12,67,-68
8095,118,-6,228,-4,71,-62
8100,119,-5,224,3,78,-55
8105,116,-6,226,2,84,-45
8110,121,-6,223,-3,92,-34
8115,115,-5,216,-24,96,-33
8120,118,-6,212,-48,106,-32
8125,120,-11,218,-57,120,-28
8130,123,-14,222,-50,130,-25
8135,121,-12,221,-37,134,-22
8140,119,-7,221,-20,134,-17
8145,124,-10,217,-3,137,-15
8150,118,-10,221,8,141,-8
8155,118,-11,221,17,141,0
8160,118,-12,220,22,141,9
8165,115,-14,224,29,141,16
8170,114,-17,217,37,143,21
8175,110,-18,225,49,145,27
8180,110,-18,223,61,151,29
8185,109,-16,219,72,155,35
8190,107,-15,220,80,159,40
8195,112,-20,218,87,162,44
8200,103,-17,223,88,166,50
8205,102,-17,228,85,166,56
8210,103,-19,229,80,161,64
8215,100,-20,229,75,159,69
8220,97,-21,229,71,158,72
8225,96,-23,227,72,159,79
8230,97,-24,224,73,157,84
8235,92,-25,225,78,155,89
8240,98,-25,226,85,155,89
8245,99,-24,220,89,156,89
8250,96,-21,225,90,158,86
8255,97,-24,224,86,161,83
8260,97,-19,223,81,166,84
8265,93,-20,226,74,172,83
8270,94,-21,223,69,178,82
8275,95,-21,224,64,181,80
8280,93,-26,225,62,181,75
8285,90,-26,226,63,180,75
8290,91,-25,223,69,177,76
8295,89,-25,226,74,172,73
8300,83,-28,227,78,167,68
8305,90,-27,226,78,162,60
8310,91,-25,227,75,157,56
8315,89,-27,225,70,153,53
8320,93,-29,226,64,148,50
8325,91,-27,229,60,145,46
8330,90,-29,228,57,142,47
8335,92,-27,228,57,141,49
8340,90,-29,228,59,141,49
8345,90,-30,228,59,138,48
8350,92,-29,230,57,137,46
8355,89,-28,227,53,133,45
8360,90,-26,229,50,128,41
8365,89,-28,229,45,119,37
8370,89,-27,228,43,114,34
8375,94,-27,228,41,110,31
8380,90,-25,224,42,107,24
8385,91,-24,225,37,101,20
8390,94,-21,223,29,93,15
8395,92,-25,224,20,86,6
8400,93,-21,225,12,78,2
8405,93,-22,224,9,76,2
8410,93,-25,222,11,74,2
8415,96,-18,226,9,75,1
8420,93,-18,224,4,70,-4
8425,97,-16,225,-4,68,-6
8430,96,-16,226,-11,64,-8
8435,96,-16,228,-16,67,-9
8440,96,-14,224,-21,72,-8
8445,97,-17,224,-28,74,-8
8450,95,-13,223,-38,76,-10
8455,97,-13,229,-45,76,-10
8460,98,-14,226,-47,81,-7
8465,98,-15,226,-45,89,-6
8470,98,-14,223,-44,93,-7
8475,99,-13,224,-46,94,-6
8480,100,-12,227,-46,92,-10
8485,102,-13,228,-49,92,-12
8490,99,-16,227,-49,90,-17
8495,98,-11,227,-53,88,-20
8500,97,-13,228,-57,87,-22
8505,98,-13,227,-58,86,-23
8510,95,-13,227,-58,88,-23
8515,100,-14,225,-58,90,-24
8520,102,-7,225,-58,91,-24
8525,98,-19,226,-56,93,-26
8530,95,-17,230,-53,95,-27
8535,94,-17,229,-51,99,-28
8540,96,-17,228,-49,100,-29
8545,94,-19,228,-45,105,-30
8550,95,-20,225,-41,106,-34
8555,94,-19,229,-37,106,-34
8560,96,-21,225,-32,104,-35
8565,95,-20,227,-26,100,-37
8570,92,-20,224,-23,97,-38
8575,95,-21,227,-19,97,-38
8580,91,-22,227,-15,97,-36
8585,95,-25,232,-11,99,-36
8590,92,-24,229,-11,98,-33
8595,91,-21,231,-8,97,-30
8600,95,-26,229,-8,94,-28
8605,94,-26,228,-6,94,-26
8610,95,-25,230,0,92,-23
8615,94,-26,228,5,92,-19
8620,91,-24,231,10,89,-14
8625,91,-27,228,15,86,-11
8630,91,-15,224,20,84,-5
8635,90,-24,224,24,82,-3
8640,94,-22,228,27,80,2
8645,93,-22,229,29,79,4
8650,94,-21,227,31,78,7
8655,89,-16,225,30,79,10
8660,95,-20,229,29,79,13
8665,92,-19,229,27,80,16
8670,91,-20,226,25,79,18
8675,92,-16,226,24,80,20
8680,95,-15,224,20,84,23
8685,95,-16,224,21,86,25
8690,93,-15,222,21,90,26
8695,95,-16,223,18,93,28
8700,94,-16,226,17,95,29
8705,95,-16,224,15,98,30
8710,98,-17,224,14,100,28
8715,94,-17,224,13,103,27
8720,95,-15,227,11,105,28
8725,95,-17,229,9,106,27
8730,96,-18,227,7,108,26
8735,98,-19,225,6,109,23
8740,102,-15,229,4,113,21
8745,98,-18,228,5,118,20
8750,98,-19,229,6,122,20
8755,97,-19,222,8,125,20
8760,97,-19,231,8,125,16
8765,99,-16,228,7,125,12
8770,99,-20,227,8,122,10
8775,99,-18,228,10,120,8
8780,99,-21,226,12,117,5
8785,96,-17,230,13,113,4
8790,99,-19,225,10,109,1
8795,96,-15,229,9,105,-2
8800,92,-18,228,3,103,-3
8805,94,-16,228,-1,101,-6
8810,95,-17,228,-4,100,-6
8815,92,-15,228,-8,98,-5
8820,92,-19,227,-9,98,-5
8825,92,-17,226,-9,98,-7
8830,95,-18,233,-9,98,-7
8835,95,-18,226,-7,99,-9
8840,93,-18,227,-5,100,-11
8845,90,-10,228,-5,102,-12
8850,92,-16,228,-4,102,-12
8855,89,-17,228,-3,103,-14
8860,92,-16,227,-1,103,-12
8865,90,-18,227,0,100,-13
8870,88,-15,225,1,99,-13
8875,88,-18,226,0,95,-15
8880,83,-19,226,-1,91,-17
8885,87,-18,229,-1,89,-17
8890,88,-18,227,-1,90,-15
8895,84,-18,229,-1,91,-13
8900,87,-19,231,-4,90,-14
8905,89,-20,230,-9,89,-12
8910,89,-20,229,-11,89,-12
8915,87,-21,232,-11,89,-12
8920,87,-19,228,-10,89,-15
8925,91,-17,231,-12,89,-16
8930,90,-17,227,-14,87,-17
8935,85,-11,226,-17,85,-20
8940,91,-18,226,-20,86,-21
8945,90,-16,229,-22,88,-22
8950,90,-16,227,-24,91,-21
8955,84,-20,221,-24,92,-21
8960,90,-17,225,-24,95,-22
8965,90,-20,228,-24,95,-20
8970,92,-18,232,-23,94,-19
8975,87,-17,230,-23,92,-17
8980,93,-20,228,-22,89,-14
8985,94,-17,230,-21,86,-14
8990,93,-16,231,-23,85,-11
8995,94,-20,231,-25,83,-11
9000,94,-19,226,-29,81,-10
9005,91,-16,231,-31,79,-10
9010,92,-16,231,-33,79,-9
9015,90,-16,232,-32,77,-9
9020,93,-17,229,-30,77,-7
9025,95,-19,230,-28,76,-7
9030,94,-16,228,-27,77,-7
9035,92,-16,226,-26,79,-6
9040,88,-13,223,-24,77,-6
9045,91,-18,231,-24,78,-6
9050,91,-17,229,-23,76,-6
9055,92,-17,231,-25,75,-5
9060,91,-19,226,-25,73,-5
9065,87,-16,230,-23,73,-6
9070,90,-17,227,-23,73,-4
9075,94,-19,228,-23,71,-2
9080,89,-19,229,-23,70,-2
9085,90,-17,228,-22,69,-1
9090,94,-20,228,-22,67,-1
9095,92,-18,224,-21,66,-3
9100,92,-19,232,-22,65,-2
9105,89,-18,229,-21,64,-2
9110,91,-17,230,-21,63,-1
9115,92,-18,226,-21,62,-2
9120,91,-16,229,-23,63,-1
9125,92,-17,230,-26,63,-1
9130,89,-16,228,-27,64,-1
9135,91,-18,226,-27,65,0
9140,91,-20,224,-27,67,1
9145,89,-16,230,-28,67,0
9150,90,-15,228,-27,67,1
9155,91,-16,229,-26,67,3
9160,91,-14,226,-24,68,0
9165,93,-20,226,-22,67,1
9170,91,-17,229,-20,66,0
9175,93,-22,230,-20,66,0
9180,91,-18,227,-20,64,1
9185,90,-21,231,-21,62,-1
9190,91,-18,229,-23,61,-1
9195,91,-17,228,-23,60,-3
9200,88,-16,230,-23,60,-4
9205,89,-18,226,-23,62,-5
9210,90,-15,231,-27,65,-9
9215,92,-22,228,-31,67,-9
9220,91,-22,226,-31,71,-11
9225,90,-16,228,-31,73,-10
9230,89,-17,226,-33,73,-10
9235,91,-18,226,-35,74,-9
9240,91,-14,225,-37,75,-9
9245,92,-18,230,-39,76,-7
9250,92,-18,229,-39,75,-5
9255,91,-21,226,-38,75,-5
9260,91,-16,229,-39,72,-2
9265,91,-20,231,-37,71,-1
9270,92,-21,229,-35,71,1
9275,92,-17,230,-37,69,1
9280,98,-18,224,-39,68,1
9285,89,-19,231,-41,66,0
9290,90,-20,227,-42,66,0
9295,89,-20,231,-43,63,-2
9300,91,-19,231,-43,60,-4
9305,90,-18,229,-44,57,-5
9310,90,-20,232,-42,54,-7
9315,91,-21,230,-40,52,-10
9320,90,-17,228,-38,49,-10
9325,91,-20,232,-36,48,-10
9330,90,-19,228,-32,46,-10
9335,86,-22,232,-29,45,-12
9340,92,-20,230,-27,45,-11
9345,92,-22,228,-27,46,-11
9350,89,-15,226,-27,46,-10
9355,89,-19,232,-28,48,-8
9360,89,-22,229,-30,52,-8
9365,90,-14,229,-30,53,-5
9370,90,-19,230,-31,54,-5
9375,92,-16,227,-30,55,-6
9380,93,-17,230,-32,58,-4
9385,93,-18,227,-34,58,-4
9390,94,-23,229,-37,56,-5
9395,93,-21,229,-39,56,-4
9400,96,-22,218,-41,56,-4
9405,97,-12,228,-43,53,-4
9410,92,-16,223,-44,54,-4
9415,90,-15,221,-44,51,-6
9420,94,-26,229,-44,50,-5
9425,87,-22,233,-43,51,-5
9430,88,-26,232,-41,50,-5
9435,94,-21,229,-39,48,-5
9440,87,-21,230,-38,47,-4
9445,94,-19,229,-39,46,-6
9450,90,-19,226,-41,47,-7
9455,89,-17,226,-43,48,-6
9460,88,-19,228,-46,48,-7
9465,89,-24,235,-47,49,-8
9470,84,-18,229,-48,50,-8
9475,97,-29,230,-46,53,-7
9480,108,-20,226,-43,54,-6
9485,85,-12,229,-40,54,-6
9490,99,-21,223,-36,53,-6
9495,95,-24,240,-33,51,-7
9500,106,-26,208,-31,49,-9
9505,101,-23,228,-31,45,-10
9510,105,-19,222,-30,43,-11
9515,93,-20,224,-30,42,-11
9520,91,-21,227,-31,42,-11
9525,90,-23,226,-31,42,-12
9530,93,-21,226,-30,41,-10
9535,92,-22,224,-29,42,-9
9540,93,-22,223,-28,43,-10
9545,94,-22,226,-27,43,-9
9550,97,-16,230,-27,44,-10
9555,97,-15,220,-24,47,-9
9560,101,-11,231,-24,50,-9
9565,97,-16,225,-21,51,-9
9570,93,-29,232,-20,55,-11
9575,95,-12,219,-19,55,-10
9580,90,-26,235,-19,57,-10
9585,93,-27,229,-17,57,-11
9590,92,-17,221,-14,56,-11
9595,91,-19,226,-12,56,-12
9600,93,-21,224,-10,53,-12
9605,91,-22,224,-8,53,-13
9610,93,-23,224,-9,54,-12
9615,89,-17,224,-13,53,-12
9620,81,-21,235,-21,54,-11
9625,93,-20,230,-28,57,-8
9630,103,-18,231,-33,56,-9
9635,88,-25,217,-36,59,-9
9640,91,-17,219,-36,59,-9
9645,83,-35,228,-34,59,-10
9650,92,-18,214,-32,58,-10
9655,86,-14,223,-29,58,-11
9660,93,-22,211,-26,59,-11
9665,103,-14,231,-24,61,-11
9670,87,-22,231,-22,63,-10
9675,95,-21,225,-23,63,-10
9680,95,-20,225,-23,65,-9
9685,95,-20,228,-23,67,-8
9690,93,-21,230,-23,66,-8
9695,100,-20,216,-23,66,-9
9700,93,-22,226,-22,64,-8
9705,90,-19,235,-20,62,-8
9710,93,-17,217,-20,60,-7
9715,90,-23,231,-19,59,-7
9720,97,-26,219,-18,59,-7
9725,99,-27,218,-18,59,-5
9730,86,-19,236,-21,58,-5
9735,90,-16,230,-24,60,-4
9740,95,-20,226,-26,59,-5
9745,108,-32,223,-29,60,-5
9750,92,-19,228,-31,60,-5
9755,95,-20,229,-33,61,-5
9760,94,-23,228,-32,60,-5
9765,94,-19,228,-31,60,-4
9770,99,-19,220,-30,59,-5
9775,99,-9,234,-31,59,-5
9780,101,-28,230,-31,57,-5
9785,96,-21,206,-30,56,-5
9790,86,-24,215,-28,56,-5
9795,87,-21,229,-28,56,-6
9800,90,-24,226,-29,56,-7
9805,101,-26,236,-28,57,-8
9810,98,-24,217,-27,57,-7
9815,94,-17,219,-26,56,-6
9820,84,-25,223,-27,55,-7
9825,93,-21,227,-28,56,-8
9830,92,-24,223,-29,56,-9
9835,90,-21,226,-30,56,-10
9840,91,-20,218,-32,58,-10
9845,93,-23,232,-34,62,-11
9850,96,-20,226,-34,62,-8
9855,99,-20,238,-35,63,-8
9860,95,-26,219,-35,64,-8
9865,94,-22,224,-31,64,-8
9870,94,-24,228,-30,63,-9
9875,95,-24,225,-28,60,-9
9880,95,-23,226,-24,59,-9
9885,92,-26,231,-24,58,-8
9890,94,-24,228,-21,57,-9
9895,92,-21,225,-21,56,-9
9900,94,-23,226,-21,55,-10
9905,94,-20,227,-21,54,-11
9910,95,-14,228,-24,56,-11
9915,95,-22,228,-25,56,-11
9920,95,-21,229,-28,57,-12
9925,91,-22,229,-33,59,-11
9930,93,-20,229,-38,60,-13
9935,97,-19,230,-40,61,-13
9940,94,-23,226,-42,61,-15
9945,93,-22,225,-43,62,-15
9950,94,-22,228,-45,63,-12
9955,92,-21,226,-46,62,-11
9960,98,-24,224,-46,60,-10
9965,97,-21,230,-47,58,-9
9970,96,-20,228,-46,56,-10
9975,96,-24,229,-44,55,-8
9980,96,-20,227,-41,55,-8
9985,97,-22,229,-38,55,-8
9990,94,-21,226,-35,55,-9
9995,96,-23,225,-33,54,-12
10000,94,-20,227,-31,56,-12
10005,97,-23,226,-29,57,-12
10010,97,-24,227,-28,61,-12
10015,93,-20,228,-28,62,-13
10020,93,-19,224,-27,64,-12
10025,95,-26,230,-25,66,-11
10030,93,-25,230,-25,68,-9
10035,95,-19,229,-24,67,-9
10040,96,-20,221,-22,67,-8
10045,98,-19,221,-20,65,-8
10050,95,-21,225,-20,66,-7
10055,93,-22,227,-18,65,-8
10060,94,-22,225,-18,64,-7
10065,94,-23,226,-17,66,-8
10070,95,-21,223,-17,66,-7
10075,95,-23,225,-17,66,-6
10080,94,-22,224,-17,67,-6
10085,91,-20,224,-18,69,-6
10090,95,-23,222,-17,69,-7
10095,93,-20,222,-16,69,-6
10100,90,-19,226,-16,71,-7
10105,96,-23,223,-16,72,-8
10110,92,-21,223,-15,73,-6
10115,93,-23,227,-14,74,-5
10120,95,-23,226,-15,74,-4
10125,95,-17,225,-14,75,-5
10130,92,-25,224,-16,75,-3
10135,94,-22,222,-15,74,-3
10140,92,-21,226,-16,76,-3
10145,92,-23,227,-15,76,-1
10150,93,-26,226,-17,79,0
10155,95,-19,231,-15,80,-1
10160,91,-23,224,-15,80,0
10165,93,-23,225,-12,79,0
10170,90,-23,227,-9,80,1
10175,94,-23,225,-7,79,0
10180,95,-23,226,-6,76,0
10185,95,-24,222,-5,76,0
10190,95,-22,225,-5,76,-1
10195,93,-21,223,-6,76,-1
10200,93,-24,228,-6,75,0
10205,91,-21,227,-6,76,-1
10210,92,-23,227,-8,75,0
10215,92,-20,226,-9,78,0
10220,93,-24,222,-8,78,0
10225,96,-23,226,-6,77,2
10230,95,-22,226,-2,77,2
10235,96,-23,226,3,77,1
10240,95,-20,225,6,76,0
10245,93,-22,227,9,75,-1
10250,94,-24,223,11,76,-1
10255,92,-21,225,10,79,-2
10260,92,-19,227,8,80,-4
10265,99,-25,233,8,82,-6
10270,90,-21,228,9,85,-7
10275,91,-22,224,8,87,-7
10280,91,-21,227,8,88,-8
10285,91,-21,226,8,89,-6
10290,91,-21,226,8,92,-7
10295,87,-23,227,4,92,-7
10300,94,-25,226,-2,92,-7
10305,98,-24,228,-9,92,-6
10310,90,-22,231,-16,91,-4
10315,94,-26,228,-21,89,-4
10320,91,-21,228,-20,89,-5
10325,96,-25,226,-16,88,-6
10330,95,-22,223,-11,87,-8
10335,94,-22,226,-5,87,-11
10340,96,-22,226,2,86,-12
10345,95,-22,226,6,87,-13
10350,89,-21,228,10,87,-12
10355,92,-22,223,13,89,-10
10360,96,-19,227,16,91,-11
10365,92,-19,221,19,92,-10
10370,93,-27,229,21,95,-9
10375,94,-17,225,21,94,-11
10380,94,-20,228,22,95,-12
10385,91,-18,225,20,96,-9
10390,91,-14,222,20,96,-12
10395,93,-20,226,19,95,-13
10400,92,-18,230,15,96,-10
10405,93,-21,224,11,97,-9
10410,91,-20,230,5,98,-8
10415,92,-18,226,0,97,-5
10420,92,-21,228,-6,97,-4
10425,92,-21,226,-10,98,-4
10430,92,-19,231,-12,97,-3
10435,91,-25,227,-12,94,-2
10440,89,-20,229,-13,95,-2
10445,92,-23,231,-12,93,-1
10450,91,-18,227,-11,93,-1
10455,92,-22,228,-8,91,-1
10460,91,-22,228,-7,89,-1
10465,91,-20,224,-6,88,-3
10470,90,-24,229,-4,86,-2
10475,94,-22,227,-3,86,-2
10480,84,-24,228,-3,85,-3
10485,95,-26,224,-1,83,-1
10490,90,-21,228,0,82,-2
10495,90,-22,227,3,83,-2
10500,91,-20,224,4,82,-1
10505,90,-23,228,4,81,-3
10510,92,-21,225,5,83,-4
10515,90,-20,227,4,83,-5
10520,92,-19,228,2,83,-6
10525,92,-18,230,1,86,-6
10530,90,-19,228,0,88,-6
10535,93,-19,227,-1,90,-6
10540,94,-21,228,-3,91,-5
10545,91,-19,227,-3,92,-4
10550,92,-22,225,-2,91,-2
10555,94,-21,227,-3,88,-1
10560,92,-19,229,-2,89,0
10565,94,-22,227,0,88,0
10570,91,-21,227,1,87,1
10575,92,-23,227,3,86,2
10580,94,-21,227,3,83,2
10585,89,-17,228,4,82,3
10590,91,-23,234,3,80,3
10595,93,-19,227,2,77,2
10600,91,-22,225,1,77,4
10605,93,-19,226,-2,78,3
10610,88,-19,226,-4,79,0
10615,89,-18,232,-6,81,1
10620,89,-19,225,-7,82,-2
10625,91,-20,228,-8,86,-1
10630,90,-20,229,-6,86,-2
10635,91,-21,226,-8,87,-1
10640,90,-19,228,-7,87,-2
10645,91,-20,229,-7,87,-3
10650,89,-21,226,-7,87,-1
10655,92,-20,227,-5,87,0
10660,92,-22,226,-3,86,1
10665,91,-22,228,-3,84,0
10670,90,-22,224,-2,84,1
10675,93,-22,225,-2,84,1
10680,93,-20,222,0,82,-1
10685,91,-19,226,1,83,-1
10690,88,-18,230,1,83,-2
10695,92,-22,232,1,85,-1
10700,91,-12,227,1,86,-1
10705,91,-22,228,1,86,0
10710,91,-19,227,-1,88,0
10715,93,-20,229,0,88,1
10720,86,-18,225,2,88,0
10725,91,-23,226,3,87,1
10730,90,-20,228,4,84,-1
10735,90,-19,228,5,83,-1
10740,88,-16,227,5,82,-1
10745,87,-18,226,4,82,-2
10750,91,-18,223,5,81,-4
10755,90,-22,228,7,80,-7
10760,90,-18,228,8,83,-8
10765,92,-20,230,9,84,-8
10770,91,-21,229,8,85,-10
10775,92,-18,226,8,86,-10
10780,91,-19,228,7,86,-8
10785,89,-20,230,3,88,-6
10790,92,-23,227,0,89,-4
10795,91,-18,225,-3,89,-1
10800,91,-21,227,-2,87,-1
10805,90,-18,229,0,86,2
10810,85,-13,226,-1,86,2
10815,88,-16,229,0,85,3
10820,91,-20,227,-2,84,2
10825,89,-19,225,-1,82,3
10830,93,-19,227,-2,81,3
10835,92,-21,229,0,80,2
10840,87,-19,232,0,79,1
10845,90,-19,229,1,78,2
10850,90,-19,229,-1,77,4
10855,92,-19,228,-1,77,4
10860,90,-18,232,-1,76,3
10865,88,-22,228,-2,75,1
10870,88,-19,229,-1,76,3
10875,89,-20,231,0,76,4
10880,90,-20,229,-2,76,1
10885,89,-20,228,-5,77,1
10890,88,-18,229,-7,78,0
10895,90,-17,229,-9,80,0
10900,88,-20,228,-11,81,0
10905,91,-19,228,-11,81,0
10910,88,-18,228,-12,82,1
10915,88,-22,232,-10,81,1
10920,91,-20,229,-8,82,2
10925,91,-24,230,-8,80,1
10930,91,-21,231,-6,78,1
10935,92,-22,228,-2,75,1
10940,88,-21,227,0,74,0
10945,89,-22,226,1,71,1
10950,91,-20,229,2,70,0
10955,90,-18,229,1,70,-2
10960,89,-18,227,-1,70,-3
10965,88,-17,231,-5,72,-2
10970,90,-16,227,-6,73,-3
10975,91,-18,229,-7,74,-3
10980,88,-17,230,-7,74,-4
10985,90,-18,229,-6,73,-3
10990,89,-18,228,-6,72,-3
10995,91,-18,230,-6,73,-3
11000,92,-18,228,-6,73,-4
11005,91,-16,230,-8,75,-5
11010,89,-16,226,-10,76,-6
11015,86,-14,231,-9,79,-7
11020,89,-16,228,-9,80,-5
11025,91,-9,230,-6,81,-4
11030,91,-21,226,-2,80,-5
11035,90,-21,228,4,78,-4
11040,87,-19,230,12,79,-5
11045,90,-20,232,16,77,-5
11050,90,-21,225,21,76,-4
11055,89,-23,227,23,73,-4
11060,87,-19,230,20,73,-5
11065,87,-23,227,14,72,-4
11070,89,-19,232,10,73,-5
11075,86,-22,230,8,73,-6
11080,86,-18,228,9,75,-6
11085,88,-19,231,6,77,-8
11090,90,-17,228,8,79,-8
11095,91,-15,226,9,80,-9
11100,91,-18,226,11,83,-9
11105,90,-17,227,12,88,-10
11110,88,-16,225,13,90,-8
11115,92,-18,225,13,93,-5
11120,90,-18,224,10,97,-6
11125,91,-20,230,10,99,-7
11130,89,-15,228,7,99,-6
11135,97,-19,229,6,100,-6
11140,91,-17,229,6,99,-6
11145,89,-15,225,6,98,-4
11150,90,-18,226,8,95,-3
11155,91,-18,231,9,92,-3
11160,92,-18,225,9,89,-2
11165,89,-16,228,8,85,0
11170,91,-15,234,6,84,2
11175,93,-19,229,6,81,1
11180,89,-18,229,4,79,3
11185,91,-15,230,3,78,3
11190,93,-21,225,2,77,3
11195,91,-17,225,1,78,5
11200,91,-18,227,0,78,3
11205,86,-17,233,-1,79,4
11210,90,-15,230,1,78,4
11215,90,-15,230,2,81,2
11220,88,-18,227,-3,85,-1
11225,90,-18,233,-6,84,2
11230,87,-19,231,-6,81,5
11235,87,-17,230,-2,79,6
11240,88,-20,228,2,77,5
11245,90,-16,231,5,77,4
11250,89,-20,227,8,78,2
11255,90,-16,228,8,79,3
11260,91,-20,230,8,80,3
11265,87,-19,226,6,80,3
11270,89,-18,225,4,80,3
11275,87,-15,224,2,81,2
11280,89,-20,231,0,81,1
11285,92,-18,228,0,83,1
11290,91,-17,230,-1,82,1
11295,87,-14,226,-1,82,2
11300,88,-18,226,-1,82,1
11305,89,-17,227,-3,83,1
11310,90,-19,230,-5,84,0
11315,90,-16,224,-5,85,1
11320,90,-19,224,-9,85,1
11325,88,-14,229,-8,84,2
11330,88,-17,231,-4,84,1
11335,86,-18,227,-2,84,1
11340,89,-20,224,2,83,1
11345,88,-16,230,4,80,0
11350,72,-30,224,5,77,-1
11355,89,-17,226,4,75,-1
11360,88,-16,229,3,75,0
11365,91,-16,227,2,74,0
11370,88,-18,226,0,73,-2
11375,89,-17,230,0,73,-4
11380,90,-19,228,-2,74,-5
11385,86,-18,226,-3,76,-5
11390,88,-18,229,-3,79,-5
11395,87,-16,229,-4,82,-4
11400,89,-16,232,-6,85,-4
11405,88,-15,231,-9,87,-4
11410,90,-20,229,-11,87,-2
11415,89,-19,231,-15,86,-3
11420,89,-17,229,-19,84,-2
11425,91,-18,229,-20,82,-2
11430,87,-16,231,-18,80,-2
11435,89,-21,226,-16,79,-2
11440,90,-19,231,-15,78,-1
11445,91,-19,230,-12,74,-2
11450,85,-18,227,-10,75,-2
11455,89,-15,228,-10,77,-2
11460,96,-11,221,-8,79,-1
11465,91,-19,228,-8,80,0
11470,90,-15,230,-6,80,0
11475,87,-16,226,-6,80,-1
11480,88,-15,229,-5,80,1
11485,86,-17,230,-4,80,1
11490,91,-18,230,-3,79,3
11495,86,-15,229,-2,79,1
11500,87,-17,227,-1,81,2
11505,91,-19,228,1,81,1
11510,91,-19,231,1,79,1
11515,89,-16,227,1,79,1
11520,90,-19,230,0,78,2
11525,91,-19,232,-1,77,1
11530,90,-15,230,-3,77,1
11535,88,-17,228,-5,77,1
11540,90,-17,228,-5,77,1
11545,86,-18,231,-7,77,2
11550,91,-16,228,-8,78,2
11555,89,-17,228,-6,79,3
11560,88,-19,230,-8,79,1
11565,88,-15,228,-8,81,0
11570,88,-14,227,-7,80,1
11575,86,-16,229,-6,80,2
11580,86,-16,230,-7,78,3
11585,88,-16,229,-8,78,1
11590,88,-17,227,-9,77,1
11595,90,-17,226,-8,78,2
11600,85,-15,229,-7,77,2
11605,87,-18,227,-5,76,3
11610,87,-18,228,-8,74,4
11615,86,-16,230,-7,73,3
11620,89,-18,229,-9,72,5
11625,89,-20,228,-10,71,3
11630,87,-18,230,-10,70,3
11635,90,-19,229,-10,70,3
11640,87,-18,230,-11,72,1
11645,90,-16,231,-12,72,2
11650,90,-17,228,-12,74,1
11655,89,-17,226,-12,73,1
11660,90,-18,230,-13,72,-1
11665,89,-19,230,-14,72,0
11670,89,-16,233,-15,70,0
11675,86,-14,230,-15,70,-1
11680,89,-15,229,-15,70,0
11685,86,-16,227,-15,70,0
11690,88,-16,231,-15,70,-2
11695,90,-18,231,-15,68,-2
11700,90,-16,229,-13,68,-2
11705,89,-19,231,-11,67,-1
11710,85,-15,229,-11,68,-2
11715,87,-16,228,-11,66,-1
11720,90,-17,232,-11,66,-3
11725,89,-16,233,-11,66,-3
11730,87,-16,229,-11,68,-2
11735,86,-16,232,-9,68,-3
11740,88,-16,232,-8,67,-3
11745,89,-16,229,-10,68,-3
11750,88,-12,232,-12,66,-2
11755,86,-14,234,-14,69,-3
11760,87,-16,232,-15,68,-4
11765,89,-19,231,-17,68,-5
11770,90,-17,230,-17,67,-4
11775,90,-18,229,-16,68,-3
11780,87,-17,229,-17,68,-3
11785,88,-18,231,-15,68,-5
11790,89,-18,221,-13,67,-6
11795,85,-16,231,-12,67,-5
11800,87,-16,228,-10,66,-6
11805,88,-15,227,-8,64,-5
11810,88,-19,230,-7,64,-7
11815,90,-17,229,-8,64,-7
11820,86,-17,231,-8,64,-7
11825,85,-14,229,-10,65,-6
11830,88,-15,232,-13,68,-7
11835,88,-13,226,-16,69,-7
11840,88,-17,227,-17,71,-6
11845,92,-16,229,-18,72,-7
11850,88,-19,227,-18,73,-5
11855,89,-14,226,-17,73,-1
11860,89,-16,228,-17,71,-3
11865,89,-16,228,-18,71,-2
11870,90,-16,224,-18,72,-2
11875,91,-16,230,-21,71,-1
11880,86,-15,230,-22,73,-2
11885,88,-18,228,-24,73,-4
11890,87,-16,231,-23,74,-3
11895,96,-14,244,-20,73,-3
11900,87,-17,233,-14,71,-1
11905,86,-19,227,-8,69,-2
11910,85,-16,228,0,68,-3
11915,85,-19,226,5,65,-4
11920,88,-17,231,6,62,-4
11925,86,-15,231,4,62,-4
11930,85,-17,231,-2,62,-6
11935,86,-16,230,-11,62,-7
11940,89,-19,229,-17,63,-7
11945,87,-13,229,-20,65,-9
11950,86,-16,231,-21,66,-10
11955,88,-19,230,-23,67,-10
11960,90,-19,225,-21,69,-10
11965,88,-17,227,-20,70,-10
11970,90,-17,231,-20,73,-11
11975,90,-16,227,-23,75,-10
11980,88,-18,228,-24,78,-9
11985,93,-17,228,-25,80,-7
11990,88,-16,230,-24,81,-7
11995,88,-16,231,-23,81,-5
12000,90,-16,230,-20,78,-5
12005,95,-14,229,-19,76,-6
12010,87,-16,228,-19,72,-6
12015,89,-15,234,-21,70,-3
12020,88,-15,230,-24,67,-5
12025,91,-15,228,-28,65,-3
12030,86,-15,230,-30,63,-3
12035,89,-17,231,-34,62,0
12040,91,-18,230,-36,60,0
12045,88,-18,230,-39,59,1
12050,89,-16,232,-42,59,1
12055,89,-15,233,-44,61,1
12060,86,-15,229,-45,62,0
12065,89,-17,233,-45,63,1
12070,89,-17,229,-45,62,1
12075,84,-16,229,-44,62,1
12080,88,-17,230,-45,61,0
12085,86,-17,227,-44,60,-1
12090,88,-14,231,-44,59,2
12095,85,-19,229,-44,59,0
12100,87,-17,225,-45,58,0
12105,87,-19,225,-44,56,1
12110,89,-20,228,-45,55,-1
12115,88,-9,234,-48,54,1
12120,87,-18,232,-50,53,0
12125,87,-17,228,-52,52,-1
12130,86,-17,229,-54,50,0
12135,87,-20,232,-57,50,-4
12140,88,-17,231,-60,50,-5
12145,86,-18,230,-57,52,-5
12150,88,-20,232,-55,52,-4
12155,91,-19,231,-53,52,-5
12160,84,-18,233,-52,49,-7
12165,88,-17,231,-52,49,-8
12170,89,-17,227,-56,47,-9
12175,87,-18,229,-58,47,-9
12180,88,-18,231,-59,48,-8
12185,88,-20,228,-61,50,-7
12190,89,-18,227,-59,53,-7
12195,87,-16,228,-54,53,-6
12200,89,-20,227,-50,54,-7
12205,87,-20,225,-46,52,-6
12210,89,-21,223,-43,53,-6
12215,90,-20,231,-39,51,-5
12220,87,-19,230,-40,50,-6
12225,97,-21,232,-41,50,-5
12230,88,-20,229,-43,49,-6
12235,89,-21,230,-44,49,-7
12240,87,-17,229,-46,46,-9
12245,88,-19,228,-46,46,-11
12250,87,-18,225,-49,47,-11
12255,91,-21,231,-51,49,-13
12260,89,-17,232,-53,51,-13
12265,88,-19,230,-56,54,-13
12270,89,-20,227,-58,55,-11
12275,90,-20,230,-60,56,-11
12280,90,-18,227,-62,54,-9
12285,90,-22,230,-66,52,-10
12290,89,-22,231,-70,51,-11
12295,91,-22,227,-69,51,-9
12300,90,-20,231,-67,50,-8
12305,88,-19,233,-63,47,-7
12310,88,-22,228,-61,43,-7
12315,89,-19,230,-58,43,-6
12320,91,-19,226,-56,43,-8
12325,91,-22,227,-54,44,-9
12330,90,-18,226,-51,43,-9
12335,88,-16,222,-49,44,-9
12340,90,-20,229,-47,45,-10
12345,92,-22,229,-43,47,-10
12350,90,-21,229,-40,47,-8
12355,89,-20,227,-36,49,-9
12360,89,-20,229,-35,50,-9
12365,88,-19,227,-32,50,-9
12370,88,-22,228,-30,49,-9
12375,90,-19,227,-31,48,-9
12380,89,-17,229,-31,47,-8
12385,89,-20,227,-32,48,-8
12390,90,-20,229,-32,48,-9
12395,89,-20,224,-33,47,-9
12400,89,-20,231,-35,48,-8
12405,91,-21,225,-34,48,-9
12410,88,-22,225,-33,49,-8
12415,91,-20,227,-34,49,-7
12420,91,-22,230,-33,50,-7
12425,90,-21,228,-34,53,-7
12430,91,-19,229,-35,54,-6
12435,90,-21,230,-35,55,-7
12440,90,-23,236,-35,54,-5
12445,90,-21,230,-35,51,-5
12450,88,-23,228,-37,48,-6
12455,89,-20,228,-36,47,-5
12460,88,-22,228,-34,49,-5
12465,90,-25,230,-33,50,-6
12470,88,-23,228,-32,51,-6
12475,87,-21,228,-30,52,-6
12480,90,-21,229,-31,52,-6
12485,91,-23,225,-29,54,-6
12490,91,-20,231,-29,54,-6
12495,90,-23,228,-28,53,-4
12500,90,-23,229,-27,53,-5
12505,92,-23,231,-27,52,-6
12510,89,-21,224,-29,51,-5
12515,90,-22,225,-30,52,-4
12520,92,-19,227,-28,50,-3
12525,91,-23,225,-26,51,-4
12530,90,-18,228,-26,51,-5
12535,91,-21,229,-28,49,-5
12540,90,-22,226,-31,50,-7
12545,90,-20,227,-34,50,-8
12550,84,-25,232,-34,50,-8
12555,88,-17,228,-35,51,-10
12560,94,-23,227,-36,53,-9
12565,90,-18,229,-37,53,-7
12570,88,-22,231,-35,55,-8
12575,89,-21,231,-34,54,-6
12580,89,-24,229,-32,52,-4
12585,91,-24,228,-29,51,-4
12590,88,-21,232,-26,48,-3
12595,91,-24,231,-25,46,-4
12600,92,-23,228,-25,44,-5
12605,90,-23,225,-24,41,-6
12610,89,-20,227,-25,39,-8
12615,89,-23,231,-27,39,-10
12620,92,-19,225,-29,41,-9
12625,90,-20,225,-33,42,-9
12630,91,-19,229,-35,43,-8
12635,89,-21,227,-37,45,-8
12640,93,-22,229,-37,46,-9
12645,94,-21,230,-37,45,-8
12650,94,-21,225,-33,46,-7
12655,96,-22,228,-30,45,-5
12660,87,-34,229,-24,44,-6
12665,92,-22,224,-19,46,-6
12670,93,-20,224,-14,47,-6
12675,91,-19,226,-10,46,-7
12680,90,-19,223,-7,47,-8
12685,90,-21,227,-5,48,-11
12690,90,-20,222,-3,50,-12
12695,90,-23,224,-2,53,-13
12700,88,-26,226,-1,55,-12
12705,89,-23,227,-2,57,-12
12710,88,-22,227,-3,58,-14
12715,87,-21,227,-7,60,-13
12720,89,-26,228,-13,60,-14
12725,92,-22,231,-21,59,-11
12730,92,-23,229,-29,61,-9
12735,93,-24,233,-37,60,-9
12740,93,-23,230,-41,60,-9
12745,93,-24,229,-42,57,-8
12750,92,-24,230,-39,55,-9
12755,92,-21,221,-35,53,-11
12760,92,-23,228,-30,50,-13
12765,93,-23,224,-26,48,-11
12770,90,-24,228,-22,48,-11
12775,89,-20,226,-20,47,-12
12780,91,-20,228,-20,48,-11
12785,96,-25,224,-21,50,-12
12790,94,-21,227,-22,53,-12
12795,93,-21,229,-23,53,-11
12800,94,-23,228,-24,54,-10
12805,96,-21,228,-23,56,-10
12810,92,-20,228,-21,57,-11
12815,94,-22,224,-20,56,-9
12820,94,-20,228,-17,56,-9
12825,93,-23,225,-15,55,-9
12830,92,-22,222,-15,57,-7
12835,92,-20,226,-16,58,-6
12840,91,-20,228,-16,59,-5
12845,92,-19,227,-17,64,-5
12850,93,-22,228,-17,64,-3
12855,93,-22,225,-15,65,-3
12860,94,-24,227,-13,67,-2
12865,95,-24,225,-13,67,-2
12870,95,-23,228,-12,67,0
12875,91,-18,222,-12,68,0
12880,92,-19,226,-11,68,0
12885,92,-19,228,-13,66,-1
12890,93,-21,225,-13,67,0
12895,92,-19,227,-13,67,0
12900,95,-22,227,-14,66,-1
12905,91,-20,227,-14,64,-1
12910,91,-23,230,-15,62,-2
12915,92,-20,227,-15,62,-3
12920,90,-22,226,-16,62,-4
12925,91,-21,224,-18,60,-5
12930,93,-23,227,-19,60,-6
12935,91,-22,227,-21,59,-7
12940,91,-19,226,-23,60,-11
12945,91,-23,226,-24,63,-10
12950,93,-20,224,-27,66,-12
12955,89,-17,229,-29,69,-13
12960,91,-21,227,-32,71,-15
12965,90,-22,226,-32,74,-14
12970,93,-20,228,-34,75,-14
12975,92,-25,226,-33,75,-13
12980,90,-22,230,-29,75,-13
12985,90,-24,237,-25,74,-13
12990,91,-22,228,-23,75,-11
12995,92,-24,228,-18,73,-11
13000,92,-26,225,-13,72,-10
13005,90,-24,225,-9,70,-8
13010,95,-26,221,-6,70,-7
13015,93,-24,227,-5,70,-7
13020,95,-25,224,-4,71,-8
13025,91,-24,225,-3,73,-9
13030,91,-21,219,-4,73,-8
13035,93,-24,224,-5,74,-10
13040,93,-25,231,-7,77,-9
13045,95,-22,228,-7,80,-7
13050,93,-24,228,-8,81,-8
13055,93,-23,227,-8,83,-6
13060,93,-23,226,-9,83,-7
13065,93,-24,225,-11,83,-6
13070,94,-22,224,-11,83,-3
13075,96,-27,229,-11,83,-1
13080,96,-23,229,-12,82,-1
13085,94,-24,231,-10,82,-2
13090,95,-22,225,-7,81,-2
13095,99,-17,223,-7,81,-1
13100,92,-21,231,-4,81,-1
13105,91,-18,228,-5,82,0
13110,89,-19,228,-5,84,0
13115,91,-20,226,-5,85,-2
13120,95,-23,222,-6,87,0
13125,93,-22,225,-4,89,3
13130,94,-22,230,-5,89,3
13135,93,-23,233,-2,89,3
13140,90,-22,225,0,88,3
13145,92,-23,226,3,85,3
13150,89,-22,227,4,83,5
13155,94,-23,227,8,80,2
13160,91,-22,225,10,79,2
13165,92,-24,224,11,79,3
13170,89,-21,226,12,79,3
13175,93,-23,227,12,80,2
13180,88,-21,230,11,80,0
13185,92,-18,227,10,83,0
13190,89,-21,227,11,83,0
13195,94,-22,225,11,85,-1
13200,90,-23,229,11,86,0
13205,100,-18,232,9,88,-1
13210,92,-20,227,6,88,0
13215,91,-21,225,4,86,0
13220,91,-22,230,5,85,1
13225,90,-20,226,4,86,2
13230,91,-19,226,6,84,1
13235,88,-21,229,7,85,2
13240,90,-25,230,8,83,1
13245,91,-20,231,10,83,2
13250,90,-23,225,11,84,2
13255,91,-25,226,12,84,1
13260,89,-21,229,13,85,1
13265,93,-24,226,14,85,1
13270,91,-22,225,14,85,1
13275,93,-19,225,15,87,0
13280,91,-22,227,11,89,0
13285,90,-19,226,7,90,-1
13290,93,-18,227,2,90,-2
13295,92,-19,229,-4,93,-3
13300,91,-23,226,-8,95,-1
13305,91,-20,229,-10,98,-2
13310,93,-23,227,-11,99,-2
13315,93,-23,233,-10,99,-1
13320,88,-23,228,-6,98,-1
13325,91,-24,230,-3,97,0
13330,93,-22,227,0,95,1
13335,91,-24,227,2,92,1
13340,92,-22,228,6,90,3
13345,92,-22,223,6,86,1
13350,91,-24,227,8,85,0
13355,90,-19,227,8,86,-2
13360,92,-20,227,9,84,-1
13365,89,-22,229,7,87,-2
13370,90,-22,229,6,86,-3
13375,92,-21,231,4,88,-3
13380,90,-18,225,2,90,-5
13385,89,-19,229,2,92,-4
13390,93,-20,224,2,91,-5
13395,89,-21,229,2,92,-4
13400,92,-21,229,1,92,-6
13405,94,-21,227,2,94,-6
13410,86,-20,223,3,93,-6
13415,90,-20,226,4,93,-6
13420,87,-22,237,5,93,-5
13425,86,-21,230,7,92,-3
13430,90,-22,230,8,91,-2
13435,88,-20,229,11,91,-2
13440,90,-22,225,15,91,-1
13445,91,-25,227,18,91,1
13450,91,-23,227,21,91,1
13455,88,-23,228,22,88,2
13460,89,-23,229,21,87,1
13465,90,-26,226,18,85,1
13470,87,-22,230,14,85,2
13475,89,-26,236,10,86,2
13480,90,-20,233,6,85,1
13485,89,-22,230,5,84,-1
13490,92,-22,229,5,83,-2
13495,88,-20,227,6,84,-4
13500,89,-20,231,10,83,-4
13505,91,-21,230,18,81,-5
13510,86,-20,226,22,79,-7
13515,88,-20,227,25,81,-6
13520,94,-18,225,26,86,-4
13525,88,-18,228,25,93,-4
13530,87,-20,234,24,97,-3
13535,89,-18,227,23,100,-3
13540,91,-19,228,23,99,-1
13545,91,-20,228,24,99,0
13550,89,-16,228,23,98,-1
13555,93,-19,228,20,97,1
13560,91,-18,231,15,94,1
13565,90,-17,229,10,93,3
13570,90,-17,235,6,91,4
13575,89,-18,232,1,89,5
13580,89,-17,231,-2,89,6
13585,92,-17,231,-5,87,5
13590,90,-21,228,-9,86,5
13595,90,-19,230,-13,84,4
13600,92,-21,229,-14,82,4
13605,89,-20,230,-14,81,4
13610,89,-20,231,-13,79,3
13615,89,-19,232,-9,79,1
13620,90,-19,230,-6,77,1
13625,88,-19,231,-5,74,0
13630,88,-15,230,-3,74,1
13635,86,-19,227,-2,73,-1
13640,86,-15,229,-2,74,-1
13645,89,-18,229,-1,74,-1
13650,87,-16,226,1,74,-1
13655,89,-19,228,4,74,-1
13660,88,-22,228,5,75,0
13665,88,-20,225,6,75,-2
13670,87,-19,229,6,76,-5
13675,90,-21,228,7,78,-6
13680,87,-18,228,6,80,-7
13685,88,-20,227,6,81,-6
13690,88,-19,227,7,83,-5
13695,86,-17,227,8,83,-4
13700,88,-20,225,5,83,-6
13705,87,-16,228,1,84,-8
13710,86,-16,226,0,88,-8
13715,88,-18,228,-1,90,-6
13720,91,-20,231,-3,91,-7
13725,86,-17,225,-4,90,-6
13730,89,-20,229,-4,88,-4
13735,92,-21,224,-4,88,-3
13740,88,-20,232,-1,87,-4
13745,90,-20,227,3,87,-2
13750,90,-19,226,7,87,-2
13755,89,-24,228,10,86,0
13760,87,-21,231,13,83,0
13765,89,-19,227,13,81,0
13770,89,-21,227,10,78,-3
13775,88,-20,229,8,78,-3
13780,90,-18,229,5,78,-4
13785,88,-18,231,4,80,-5
13790,87,-19,230,3,83,-5
13795,90,-20,230,3,86,-5
13800,89,-16,230,3,88,-4
13805,88,-17,228,4,90,-6
13810,90,-20,227,5,93,-4
13815,90,-19,226,6,97,-3
13820,89,-14,231,5,95,-1
13825,90,-18,230,4,97,-1
13830,88,-18,226,2,98,0
13835,87,-16,230,0,96,1
13840,87,-18,231,-1,93,1
13845,89,-17,233,-1,91,1
13850,88,-19,229,-2,90,3
13855,87,-14,229,-3,89,3
13860,91,-8,234,-5,91,5
13865,91,-19,230,-6,93,5
13870,90,-19,232,-8,95,7
13875,89,-18,232,-10,96,8
13880,86,-18,228,-12,93,8
13885,92,-20,232,-14,92,8
13890,88,-17,228,-14,89,6
13895,90,-19,229,-12,88,5
13900,87,-17,232,-7,85,6
13905,91,-20,228,-4,83,5
13910,89,-17,232,-1,79,5
13915,85,-17,234,-1,77,6
13920,88,-19,230,-4,74,6
13925,87,-19,229,-6,73,6
13930,86,-19,231,-8,70,2
13935,86,-17,231,-8,70,3
13940,90,-18,229,-9,71,2
13945,84,-18,233,-9,71,2
13950,88,-18,230,-9,72,2
13955,85,-18,230,-8,72,0
13960,88,-18,227,-8,72,1
13965,92,-15,224,-7,72,-1
13970,87,-21,230,-9,72,-1
13975,87,-18,227,-6,74,-1
13980,92,-18,228,-6,75,0
13985,87,-18,227,-11,78,-4
13990,82,-19,230,-17,78,1
13995,85,-18,231,-16,76,3
14000,85,-21,231,-13,75,1
14005,86,-20,227,-10,74,2
14010,86,-19,232,-6,74,2
14015,86,-18,230,-4,74,2
14020,89,-18,229,-3,73,1
14025,89,-19,228,-3,72,0
14030,86,-15,230,-5,73,0
14035,87,-18,229,-5,74,0
14040,87,-17,223,-6,73,1
14045,88,-20,232,-9,71,0
14050,87,-18,231,-8,72,1
14055,90,-18,230,-7,72,-1
14060,90,-19,230,-9,72,-1
14065,87,-19,226,-9,73,0
14070,87,-19,226,-9,73,0
14075,81,-20,222,-10,73,-3
14080,87,-15,232,-9,73,-4
14085,87,-20,229,-8,73,-2
14090,90,-19,229,-6,74,-3
14095,85,-19,229,-5,72,-2
14100,87,-17,229,-3,73,-1
14105,89,-20,228,-2,72,-3
14110,88,-19,232,-3,73,-3
14115,87,-16,229,-2,74,-3
14120,87,-20,232,-2,75,-1
14125,87,-17,228,-2,75,-3
14130,87,-17,235,-2,75,-1
14135,90,-18,231,-2,75,-1
14140,88,-17,229,-3,74,-1
14145,90,-18,228,-2,75,-1
14150,85,-15,228,-2,75,-1
14155,88,-17,231,-3,75,-2
14160,86,-15,230,-4,75,-2
14165,90,-23,227,-5,75,-2
14170,89,-18,233,-5,75,-1
14175,88,-16,225,-2,75,-1
14180,86,-16,231,-2,75,-1
14185,95,-18,224,0,73,-1
14190,90,-16,228,0,73,-2
14195,89,-18,229,-3,75,-1
14200,86,-18,233,-4,74,-1
14205,87,-14,232,-5,74,-2
14210,88,-16,231,-5,74,0
14215,89,-17,227,-5,75,-2
14220,86,-20,231,-4,75,-3
14225,85,-17,234,-3,78,-3
14230,89,-18,229,-3,78,-2
14235,85,-16,228,-3,81,-1
14240,86,-20,231,-4,78,-2
14245,85,-21,231,-4,78,-2
14250,84,-17,231,-2,78,0
14255,86,-20,230,-1,78,0
14260,89,-18,230,0,76,0
14265,85,-17,233,3,74,1
14270,83,-17,226,3,71,0
14275,88,-18,231,3,70,1
14280,87,-21,230,2,69,2
14285,88,-17,230,2,69,1
14290,88,-16,229,1,69,0
14295,93,-15,229,-2,72,1
14300,89,-17,231,-4,72,0
14305,87,-16,230,-5,75,0
14310,87,-16,226,-5,75,0
14315,87,-16,233,-6,75,1
14320,87,-15,233,-6,76,0
14325,86,-14,228,-7,76,0
14330,91,-15,230,-7,76,0
14335,87,-15,229,-8,78,1
14340,87,-16,229,-8,79,-1
14345,85,-15,229,-10,78,0
14350,87,-17,230,-10,79,-1
14355,84,-18,232,-9,79,1
14360,85,-20,227,-6,77,1
14365,86,-20,226,-1,76,2
14370,85,-18,229,5,74,0
14375,88,-21,231,10,73,-1
14380,89,-20,228,12,70,-2
14385,83,-16,230,11,68,-2
14390,84,-17,231,5,68,-3
14395,86,-17,235,-3,68,-4
14400,89,-20,231,-11,69,-4
14405,87,-20,232,-15,69,-5
14410,85,-15,228,-16,69,-7
14415,84,-18,231,-17,71,-8
14420,86,-18,229,-15,69,-7
14425,85,-16,224,-13,69,-9
14430,87,-16,229,-11,69,-9
14435,87,-15,226,-12,69,-10
14440,89,-16,225,-13,71,-10
14445,85,-16,229,-15,75,-9
14450,88,-17,229,-17,78,-6
14455,90,-19,228,-18,79,-4
14460,91,-20,233,-19,80,-4
14465,90,-16,227,-20,80,-4
14470,87,-15,234,-22,78,-4
14475,91,-16,233,-23,75,-3
14480,87,-16,229,-24,72,-1
14485,86,-14,233,-25,70,-1
14490,87,-18,232,-26,68,-1
14495,88,-18,232,-28,65,0
14500,87,-19,230,-30,62,1
14505,88,-19,231,-32,61,1
14510,85,-13,230,-33,60,2
14515,89,-19,233,-33,58,3
14520,87,-18,233,-35,57,3
14525,87,-18,228,-38,57,1
14530,85,-18,231,-37,57,1
14535,85,-16,226,-38,55,0
14540,85,-19,234,-39,54,-1
14545,88,-19,229,-40,53,-3
14550,85,-19,231,-39,53,-3
14555,86,-15,229,-40,54,-4
14560,87,-16,228,-38,53,-2
14565,84,-17,230,-38,55,-3
14570,87,-19,231,-36,54,-3
14575,87,-19,229,-38,54,-2
14580,85,-19,231,-40,56,-5
14585,87,-17,230,-41,54,-5
14590,84,-16,230,-46,53,-4
14595,88,-15,228,-48,53,-3
14600,87,-20,227,-49,54,-4
14605,87,-18,229,-51,54,-4
14610,84,-17,230,-52,53,-3
14615,86,-18,230,-54,51,-3
14620,85,-14,229,-56,49,-3
14625,87,-18,230,-59,48,-4
14630,88,-19,229,-64,49,-5
14635,86,-18,231,-66,51,-5
14640,87,-16,231,-65,51,-6
14645,90,-19,229,-64,51,-3
14650,88,-18,228,-64,50,-4
14655,89,-17,229,-62,51,-4
14660,92,-18,225,-61,50,-3
14665,89,-20,228,-57,51,-3
14670,87,-22,227,-52,51,-4
14675,91,-22,228,-47,50,-5
14680,87,-21,226,-45,49,-5
14685,88,-21,229,-42,49,-4
14690,90,-23,229,-40,48,-4
14695,87,-20,231,-42,46,-4
14700,87,-22,227,-45,45,-6
14705,85,-22,230,-48,45,-9
14710,86,-18,232,-49,44,-10
14715,86,-20,227,-51,44,-11
14720,86,-19,233,-51,44,-12
14725,89,-21,230,-53,46,-11
14730,89,-18,213,-53,48,-12
14735,89,-20,230,-57,51,-11
14740,87,-18,232,-61,53,-11
14745,86,-19,228,-68,53,-10
14750,91,-18,230,-73,55,-9
14755,91,-22,233,-77,54,-10
14760,87,-20,230,-78,53,-8
14765,87,-22,229,-79,51,-8
14770,89,-22,231,-75,49,-6
14775,90,-20,232,-67,47,-7
14780,87,-20,226,-61,43,-7
14785,91,-20,227,-58,40,-7
14790,88,-20,227,-53,40,-8
14795,87,-20,225,-50,39,-7
14800,86,-20,230,-48,39,-9
14805,87,-21,229,-46,38,-10
14810,87,-20,229,-49,35,-10
14815,88,-19,228,-49,37,-10
14820,89,-22,227,-50,43,-8
14825,89,-23,228,-46,46,-7
14830,89,-24,232,-44,46,-8
14835,90,-23,229,-43,45,-7
14840,95,-12,224,-43,43,-8
14845,88,-23,232,-44,42,-9
14850,87,-21,231,-46,39,-10
14855,87,-21,229,-47,40,-10
14860,91,-23,228,-49,38,-10
14865,87,-18,230,-47,40,-9
14870,85,-24,224,-44,38,-8
14875,89,-24,230,-42,37,-9
14880,88,-21,226,-38,40,-10
14885,87,-23,230,-37,39,-10
14890,89,-19,230,-37,42,-11
14895,89,-21,227,-36,43,-11
14900,90,-21,226,-33,45,-12
14905,89,-23,225,-32,47,-10
14910,90,-22,230,-33,48,-11
14915,93,-21,226,-32,48,-9
14920,86,-18,227,-33,48,-7
14925,89,-24,229,-34,48,-9
14930,88,-20,227,-35,46,-8
14935,90,-21,229,-37,45,-8
14940,88,-23,228,-36,45,-8
14945,88,-23,224,-36,47,-8
14950,88,-23,227,-36,46,-8
14955,91,-24,231,-37,46,-10
14960,90,-23,226,-36,47,-8
14965,91,-24,227,-35,48,-9
14970,92,-26,227,-34,47,-7
14975,92,-24,231,-32,47,-8
14980,91,-23,226,-32,48,-8
14985,92,-23,230,-32,50,-6
14990,89,-21,228,-32,47,-7
14995,90,-23,229,-32,45,-5
