timestamp,acc_x,acc_y,acc_z,gyro_x,gyro_y,gyro_z
0,8,-238,-73,58,15,-3
5,7,-236,-69,58,15,-2
10,10,-237,-66,55,16,-4
15,8,-238,-70,54,14,-6
20,8,-236,-71,53,15,-6
25,9,-241,-70,50,16,-6
30,10,-238,-72,48,16,-6
35,5,-231,-74,46,17,-7
40,6,-237,-73,43,18,-9
45,6,-234,-76,42,18,-9
50,8,-237,-74,40,18,-8
55,7,-238,-75,38,19,-7
60,6,-235,-74,39,18,-8
65,5,-232,-70,39,19,-8
70,5,-238,-69,39,19,-8
75,5,-236,-79,39,19,-8
80,10,-239,-68,38,19,-8
85,8,-239,-73,39,18,-7
90,6,-237,-74,40,18,-7
95,8,-236,-72,39,18,-8
100,9,-236,-75,38,17,-9
105,8,-239,-72,39,18,-9
110,7,-234,-73,37,18,-8
115,9,-236,-73,37,18,-8
120,8,-239,-71,36,18,-9
125,9,-239,-73,37,17,-8
130,10,-238,-84,36,18,-8
135,8,-238,-74,36,19,-7
140,5,-235,-74,37,20,-7
145,8,-236,-72,36,21,-7
150,8,-239,-72,37,22,-8
155,7,-236,-71,36,22,-9
160,7,-237,-76,37,24,-10
165,7,-236,-77,37,25,-10
170,8,-234,-71,34,26,-10
175,8,-238,-72,32,26,-11
180,7,-237,-73,31,27,-9
185,8,-239,-74,31,28,-9
190,7,-235,-73,32,30,-7
195,7,-233,-74,31,32,-5
200,8,-239,-72,33,32,-4
205,9,-236,-70,34,33,-3
210,8,-239,-72,34,34,-3
215,7,-236,-68,33,35,-4
220,5,-239,-70,32,34,-3
225,8,-238,-73,29,34,-3
230,6,-238,-73,27,34,-3
235,7,-236,-72,27,35,-5
240,9,-236,-67,25,35,-6
245,8,-239,-77,24,35,-8
250,6,-239,-70,23,36,-7
255,8,-241,-70,23,36,-8
260,8,-240,-70,24,38,-6
265,8,-236,-74,24,37,-5
270,9,-239,-73,28,38,-4
275,11,-236,-76,29,38,-1
280,5,-238,-77,30,40,-1
285,10,-239,-77,30,42,0
290,12,-235,-73,29,46,1
295,7,-239,-65,30,47,1
300,9,-235,-70,32,48,1
305,9,-239,-70,32,50,2
310,8,-237,-69,33,52,1
315,8,-240,-72,35,53,1
320,10,-240,-76,35,56,2
325,8,-239,-74,38,59,0
330,9,-235,-74,38,60,2
335,9,-239,-71,39,63,1
340,4,-239,-73,39,65,2
345,4,-238,-75,38,66,2
350,9,-238,-77,39,68,4
355,5,-237,-71,39,70,5
360,7,-234,-67,40,71,5
365,6,-237,-71,40,69,5
370,7,-237,-76,39,68,5
375,6,-238,-71,41,69,5
380,9,-238,-72,42,70,6
385,4,-239,-68,43,71,7
390,5,-234,-75,44,71,8
395,9,-239,-72,45,71,9
400,7,-241,-73,45,71,10
405,2,-240,-71,45,71,10
410,8,-237,-74,45,72,11
415,9,-239,-75,45,74,12
420,7,-237,-71,44,76,12
425,9,-240,-75,44,77,14
430,7,-238,-72,43,79,15
435,8,-236,-74,43,81,16
440,5,-238,-77,44,85,14
445,7,-235,-73,46,87,15
450,8,-236,-78,46,89,15
455,9,-238,-75,48,91,14
460,5,-235,-75,48,94,16
465,10,-235,-75,48,97,16
470,8,-237,-71,45,100,18
475,7,-238,-76,41,102,18
480,9,-235,-75,38,105,20
485,9,-232,-71,35,109,19
490,7,-238,-75,35,111,22
495,9,-236,-77,33,112,24
500,8,-235,-72,32,114,24
505,8,-235,-73,31,118,26
510,11,-237,-69,29,119,24
515,12,-227,-64,28,121,25
520,11,-236,-73,29,123,25
525,12,-238,-71,30,127,24
530,10,-235,-71,30,130,23
535,12,-232,-74,26,137,21
540,10,-232,-78,23,144,20
545,15,-232,-75,16,153,20
550,12,-230,-83,7,163,19
555,8,-231,-80,-7,175,19
560,17,-231,-81,-24,189,18
565,15,-227,-89,-39,204,19
570,20,-224,-86,-52,223,16
575,23,-225,-84,-63,242,15
580,19,-222,-89,-71,265,16
585,25,-224,-88,-77,288,17
590,31,-224,-87,-88,312,16
595,34,-223,-87,-99,336,16
600,36,-220,-91,-116,363,16
605,38,-223,-91,-134,389,16
610,38,-214,-93,-153,415,16
615,43,-220,-96,-172,442,13
620,48,-218,-93,-191,469,11
625,52,-221,-101,-207,499,7
630,57,-222,-99,-221,532,1
635,59,-222,-104,-231,568,-4
640,57,-228,-107,-237,604,-5
645,58,-232,-105,-239,642,-6
650,61,-232,-105,-239,678,-3
655,63,-233,-108,-233,710,0
660,61,-231,-110,-223,739,2
665,60,-228,-109,-212,767,6
670,59,-230,-111,-203,792,13
675,60,-230,-112,-198,817,24
680,56,-226,-108,-200,841,38
685,52,-223,-107,-205,862,50
690,50,-221,-102,-212,883,65
695,49,-224,-98,-223,900,77
700,42,-222,-93,-234,919,86
705,43,-224,-90,-247,936,95
710,40,-222,-87,-261,953,105
715,33,-222,-89,-277,972,111
720,34,-229,-87,-286,989,116
725,30,-228,-87,-296,1005,122
730,30,-225,-87,-306,1020,126
735,28,-227,-90,-315,1032,134
740,26,-226,-92,-325,1043,141
745,25,-226,-96,-334,1054,154
750,24,-224,-90,-339,1066,165
755,24,-226,-94,-340,1077,177
760,24,-223,-94,-337,1087,189
765,24,-223,-94,-332,1097,203
770,27,-219,-95,-324,1104,218
775,27,-218,-91,-313,1106,235
780,31,-215,-90,-303,1106,251
785,31,-220,-85,-292,1100,268
790,30,-223,-79,-281,1090,287
795,32,-225,-76,-273,1077,304
800,36,-231,-72,-265,1062,318
805,34,-231,-70,-259,1049,334
810,36,-231,-70,-255,1035,345
815,37,-234,-67,-251,1020,355
820,37,-235,-68,-248,1005,362
825,35,-237,-67,-242,984,366
830,35,-243,-63,-235,963,371
835,32,-247,-66,-225,939,376
840,33,-251,-62,-214,913,381
845,28,-247,-64,-201,888,385
850,30,-250,-65,-185,864,390
855,30,-249,-66,-172,842,395
860,29,-251,-66,-152,822,401
865,25,-249,-66,-131,802,407
870,25,-247,-69,-112,783,414
875,25,-249,-67,-91,765,424
880,30,-249,-67,-70,752,431
885,28,-245,-71,-47,742,440
890,31,-246,-64,-22,738,450
895,29,-244,-62,1,737,461
900,37,-242,-67,24,740,472
905,37,-243,-68,42,745,484
910,43,-235,-63,58,753,497
915,46,-234,-60,70,759,506
920,51,-234,-69,78,767,517
925,56,-228,-65,83,779,526
930,60,-229,-65,87,790,535
935,62,-230,-65,90,805,541
940,65,-227,-66,91,820,544
945,65,-224,-69,92,836,547
950,67,-225,-67,93,845,550
955,69,-225,-66,96,851,552
960,69,-229,-68,96,850,556
965,66,-231,-70,92,840,561
970,64,-229,-72,83,822,564
975,62,-234,-75,68,802,567
980,57,-237,-79,50,782,574
985,53,-239,-82,31,765,576
990,44,-243,-81,13,749,574
995,40,-246,-85,-8,739,570
1000,34,-251,-97,-30,734,561
1005,32,-255,-93,-53,734,549
1010,30,-256,-97,-71,743,535
1015,24,-259,-97,-84,755,518
1020,25,-262,-101,-85,770,500
1025,22,-259,-103,-72,787,483
1030,24,-258,-102,-40,803,465
1035,26,-256,-102,4,819,452
1040,25,-254,-94,59,831,437
1045,28,-250,-94,113,839,425
1050,25,-241,-90,162,844,414
1055,30,-244,-84,204,845,403
1060,35,-235,-88,231,843,394
1065,33,-231,-84,247,836,385
1070,33,-231,-84,258,831,380
1075,31,-230,-82,270,822,377
1080,28,-228,-78,278,811,377
1085,28,-228,-78,284,798,381
1090,31,-224,-77,286,786,384
1095,34,-227,-78,276,775,388
1100,36,-227,-85,255,766,394
1105,35,-229,-85,228,758,395
1110,45,-229,-84,194,753,398
1115,44,-231,-85,157,754,399
1120,47,-231,-87,126,757,400
1125,47,-234,-87,99,765,397
1130,46,-230,-87,77,779,397
1135,50,-231,-90,63,795,397
1140,48,-233,-91,53,813,397
1145,50,-228,-94,47,830,401
1150,47,-231,-98,45,846,402
1155,44,-227,-94,50,864,406
1160,44,-232,-92,59,876,413
1165,39,-219,-98,70,884,423
1170,37,-225,-98,82,889,432
1175,34,-226,-101,91,890,441
1180,28,-224,-103,98,887,457
1185,23,-219,-101,102,882,468
1190,18,-220,-102,103,873,483
1195,13,-220,-106,101,861,495
1200,7,-219,-105,95,845,511
1205,4,-220,-103,86,828,525
1210,0,-220,-104,74,809,540
1215,-4,-216,-106,61,789,553
1220,-8,-223,-103,48,769,565
1225,-15,-219,-106,33,751,574
1230,-15,-219,-105,21,736,581
1235,-21,-222,-103,9,727,583
1240,-22,-221,-105,-1,724,586
1245,-20,-222,-101,-9,726,585
1250,-23,-221,-97,-14,736,578
1255,-19,-226,-100,-17,747,574
1260,-18,-228,-100,-17,761,564
1265,-15,-230,-99,-14,775,553
1270,-12,-228,-96,-11,791,543
1275,-7,-230,-105,-4,805,531
1280,-12,-225,-97,3,817,520
1285,-10,-224,-98,13,829,511
1290,-8,-225,-96,26,840,502
1295,-8,-226,-93,34,854,498
1300,-12,-225,-91,39,869,495
1305,-10,-227,-92,35,888,496
1310,-11,-228,-91,26,911,502
1315,-4,-234,-92,12,934,505
1320,-2,-235,-93,-3,953,511
1325,0,-237,-87,-19,971,516
1330,-3,-242,-93,-30,985,519
1335,1,-236,-98,-38,993,521
1340,0,-238,-100,-40,999,521
1345,0,-236,-97,-37,1004,522
1350,0,-235,-98,-29,1009,523
1355,0,-232,-96,-19,1012,525
1360,-1,-231,-94,-12,1017,522
1365,-4,-227,-96,-8,1019,522
1370,-10,-222,-95,-9,1020,520
1375,-14,-220,-98,-16,1018,519
1380,-13,-215,-91,-27,1015,519
1385,-12,-220,-91,-39,1011,519
1390,-18,-219,-88,-48,1006,517
1395,-20,-217,-93,-57,1004,516
1400,-19,-219,-89,-65,1001,514
1405,-21,-221,-89,-72,999,510
1410,-27,-219,-88,-80,998,504
1415,-28,-215,-89,-87,995,498
1420,-28,-217,-85,-97,992,491
1425,-23,-222,-82,-106,984,484
1430,-23,-219,-84,-117,977,478
1435,-33,-219,-84,-125,966,474
1440,-24,-216,-90,-133,953,469
1445,-24,-219,-89,-149,939,465
1450,-25,-217,-91,-165,925,464
1455,-21,-221,-87,-179,913,462
1460,-18,-220,-87,-194,901,460
1465,-23,-219,-87,-204,890,459
1470,-22,-221,-84,-214,880,457
1475,-20,-225,-85,-224,869,455
1480,-20,-223,-82,-233,859,455
1485,-19,-221,-76,-238,850,453
1490,-23,-226,-87,-241,841,451
1495,-15,-224,-78,-243,833,445
1500,-19,-224,-78,-245,825,441
1505,-11,-230,-77,-248,821,438
1510,-8,-232,-78,-249,816,430
1515,-9,-230,-77,-251,812,422
1520,-4,-229,-80,-250,811,414
1525,-2,-230,-75,-252,812,406
1530,-2,-236,-77,-253,812,398
1535,-5,-232,-77,-257,813,389
1540,0,-234,-72,-253,812,379
1545,-2,-238,-76,-248,811,366
1550,-1,-230,-74,-242,809,355
1555,0,-231,-69,-236,806,341
1560,-3,-231,-68,-228,799,329
1565,-4,-229,-65,-219,794,317
1570,-5,-230,-66,-213,787,306
1575,-6,-225,-63,-207,777,293
1580,-8,-224,-64,-199,767,285
1585,-8,-228,-64,-194,753,276
1590,-10,-229,-61,-190,734,267
1595,-10,-232,-61,-185,715,257
1600,-14,-231,-59,-181,693,251
1605,-11,-235,-60,-177,676,244
1610,-15,-233,-56,-176,658,238
1615,-14,-238,-57,-174,643,233
1620,-14,-243,-54,-172,627,225
1625,-10,-244,-52,-166,614,216
1630,-8,-247,-51,-161,606,211
1635,-4,-252,-52,-153,600,205
1640,0,-252,-43,-142,599,198
1645,2,-256,-45,-125,597,190
1650,1,-259,-38,-104,591,182
1655,-4,-255,-49,-75,581,175
1660,3,-263,-48,-47,560,166
1665,1,-261,-48,-15,533,156
1670,0,-262,-51,20,503,149
1675,-9,-259,-54,56,470,143
1680,-7,-259,-51,93,451,144
1685,-6,-258,-48,129,449,141
1690,-1,-259,-47,166,461,137
1695,1,-257,-45,202,485,129
1700,6,-260,-39,237,516,119
1705,15,-265,-31,269,554,109
1710,24,-262,-32,296,593,95
1715,34,-266,-27,314,636,80
1720,44,-267,-25,330,679,67
1725,47,-267,-22,344,724,53
1730,50,-270,-25,356,770,42
1735,53,-272,-28,360,811,33
1740,49,-271,-40,348,836,26
1745,48,-267,-57,310,844,26
1750,53,-269,-73,241,831,38
1755,69,-273,-95,127,805,59
1760,50,-276,-125,-7,774,93
1765,48,-277,-150,-149,702,100
1770,38,-279,-173,-274,614,106
1775,25,-287,-179,-370,516,127
1780,1,-300,-173,-415,425,158
1785,-29,-310,-157,-406,349,200
1790,-60,-320,-141,-339,276,234
1795,-72,-322,-132,-229,214,258
1800,-80,-321,-132,-101,167,273
1805,-80,-319,-133,10,147,276
1810,-75,-317,-139,97,158,277
1815,-72,-307,-144,165,198,276
1820,-75,-288,-151,225,267,279
1825,-67,-274,-149,287,351,279
1830,-58,-261,-148,358,435,281
1835,-47,-247,-157,427,509,284
1840,-38,-227,-160,497,577,292
1845,-24,-205,-160,561,651,307
1850,-20,-187,-157,607,731,318
1855,-10,-167,-155,621,802,323
1860,-4,-150,-146,605,857,320
1865,-1,-147,-139,555,891,310
1870,1,-145,-140,474,899,294
1875,5,-150,-140,368,883,275
1880,14,-162,-135,251,847,251
1885,22,-173,-132,135,793,224
1890,30,-184,-127,37,723,200
1895,34,-192,-129,-31,648,179
1900,31,-204,-125,-70,580,164
1905,29,-212,-127,-84,524,152
1910,25,-222,-122,-78,485,142
1915,19,-230,-122,-56,463,133
1920,14,-230,-129,-24,448,124
1925,8,-240,-126,7,444,115
1930,0,-240,-124,41,445,103
1935,-2,-242,-126,73,451,81
1940,-7,-242,-128,104,459,52
1945,-12,-239,-129,134,470,17
1950,-15,-236,-130,157,481,-23
1955,-15,-237,-126,178,496,-64
1960,-19,-224,-123,193,505,-107
1965,-17,-223,-120,203,511,-147
1970,-18,-213,-114,201,513,-180
1975,-20,-216,-105,193,512,-209
1980,-9,-201,-102,183,507,-229
1985,-6,-193,-98,167,500,-245
1990,-1,-189,-95,147,490,-253
1995,0,-185,-93,128,480,-251
2000,3,-181,-96,105,467,-243
2005,4,-175,-91,77,453,-228
2010,10,-175,-88,47,437,-212
2015,12,-174,-91,16,421,-191
2020,12,-171,-91,-14,405,-168
2025,16,-172,-83,-36,387,-147
2030,15,-174,-87,-47,366,-125
2035,15,-172,-84,-49,343,-107
2040,16,-177,-86,-42,320,-91
2045,17,-176,-79,-34,294,-77
2050,15,-176,-81,-17,268,-68
2055,14,-175,-78,0,239,-61
2060,11,-181,-79,13,212,-54
2065,10,-181,-76,21,185,-47
2070,10,-182,-79,26,163,-41
2075,8,-184,-76,26,144,-37
2080,8,-184,-73,19,130,-34
2085,11,-188,-78,6,118,-34
2090,14,-186,-75,-10,111,-35
2095,13,-189,-75,-28,105,-37
2100,18,-191,-75,-54,98,-40
2105,20,-193,-76,-83,89,-46
2110,21,-193,-75,-114,80,-51
2115,27,-192,-77,-146,73,-52
2120,24,-196,-75,-171,67,-50
2125,22,-198,-78,-195,60,-45
2130,29,-201,-76,-211,51,-38
2135,23,-203,-71,-224,42,-30
2140,27,-206,-67,-228,29,-24
2145,24,-212,-63,-229,12,-19
2150,26,-219,-61,-221,-6,-14
2155,25,-223,-57,-208,-26,-11
2160,29,-230,-48,-192,-46,-10
2165,23,-237,-41,-172,-69,-11
2170,19,-242,-31,-149,-92,-13
2175,23,-250,-26,-119,-114,-16
2180,20,-255,-25,-88,-127,-19
2185,10,-256,-24,-54,-134,-20
2190,11,-263,-27,-11,-141,-20
2195,6,-267,-26,28,-150,-19
2200,14,-266,-36,65,-157,-6
2205,14,-266,-38,99,-149,6
2210,20,-264,-42,131,-134,20
2215,21,-264,-44,164,-112,34
2220,27,-263,-49,196,-83,43
2225,29,-263,-47,226,-51,55
2230,39,-259,-52,253,-13,67
2235,44,-256,-59,284,30,82
2240,54,-253,-64,316,76,98
2245,72,-250,-73,340,125,114
2250,78,-250,-67,353,173,118
2255,91,-251,-65,352,209,112
2260,98,-256,-57,344,225,97
2265,91,-264,-38,342,216,73
2270,78,-275,-25,352,186,55
2275,66,-281,-18,378,149,45
2280,55,-289,-21,407,116,37
2285,34,-294,-40,413,84,24
2290,17,-296,-71,368,54,5
2295,7,-298,-105,266,23,-18
2300,2,-305,-129,112,6,-44
2305,0,-312,-158,-81,14,-65
2310,0,-315,-172,-266,56,-81
2315,6,-318,-182,-396,128,-90
2320,18,-315,-183,-449,223,-103
2325,31,-320,-180,-422,316,-123
2330,24,-332,-167,-328,382,-160
2335,46,-336,-162,-195,424,-203
2340,44,-341,-144,-16,457,-187
2345,33,-343,-137,153,461,-175
2350,28,-341,-138,279,452,-165
2355,19,-329,-150,365,420,-160
2360,0,-312,-151,432,356,-164
2365,-10,-296,-164,497,259,-180
2370,-22,-272,-167,555,139,-196
2375,-31,-259,-176,599,1,-205
2380,-49,-237,-181,618,-139,-205
2385,-63,-220,-182,615,-273,-208
2390,-77,-206,-186,592,-389,-207
2395,-82,-194,-186,551,-481,-206
2400,-88,-187,-188,501,-543,-206
2405,-84,-184,-178,453,-567,-206
2410,-83,-186,-171,404,-560,-205
2415,-62,-190,-173,349,-530,-204
2420,-45,-189,-156,291,-485,-207
2425,-35,-191,-148,235,-436,-208
2430,-17,-193,-137,178,-385,-209
2435,-8,-200,-124,130,-332,-207
2440,-2,-206,-112,93,-277,-206
2445,7,-217,-101,71,-222,-204
2450,16,-225,-91,62,-172,-200
2455,27,-228,-91,64,-136,-191
2460,30,-238,-105,69,-118,-179
2465,40,-228,-104,75,-118,-161
2470,45,-228,-115,83,-130,-134
2475,45,-228,-117,101,-157,-104
2480,43,-224,-124,139,-187,-69
2485,36,-217,-119,183,-219,-30
2490,33,-210,-115,228,-243,12
2495,26,-206,-107,262,-256,53
2500,19,-199,-101,284,-253,93
2505,15,-193,-95,283,-240,131
2510,10,-190,-89,259,-225,162
2515,13,-183,-94,219,-207,184
2520,5,-178,-85,172,-191,204
2525,5,-171,-93,122,-183,213
2530,4,-164,-86,76,-177,216
2535,0,-160,-84,43,-173,215
2540,-2,-162,-80,11,-168,208
2545,-5,-157,-80,-11,-161,200
2550,-8,-156,-80,-25,-151,189
2555,-13,-154,-76,-31,-137,175
2560,-17,-150,-80,-33,-121,162
2565,-17,-149,-77,-26,-101,148
2570,-11,-149,-70,-18,-78,134
2575,-15,-150,-75,-10,-56,119
2580,-11,-151,-74,-2,-34,107
2585,-11,-150,-72,8,-16,97
2590,-5,-156,-73,15,-1,91
2595,-6,-160,-72,21,10,84
2600,-2,-164,-74,26,15,76
2605,1,-170,-69,27,15,67
2610,1,-175,-72,29,8,59
2615,-2,-179,-70,34,1,51
2620,-1,-179,-65,38,-9,44
2625,0,-192,-64,38,-18,35
2630,-5,-192,-65,40,-26,21
2635,-9,-195,-64,42,-35,8
2640,-12,-201,-62,40,-42,-6
2645,-12,-204,-55,41,-49,-21
2650,-17,-205,-58,43,-53,-35
2655,-16,-213,-51,45,-56,-50
2660,-17,-215,-51,48,-60,-64
2665,-17,-209,-46,50,-62,-77
2670,-17,-218,-47,55,-67,-89
2675,-17,-217,-46,59,-69,-100
2680,-14,-212,-49,65,-67,-110
2685,-9,-214,-47,69,-62,-114
2690,-10,-217,-51,74,-49,-118
2695,-3,-218,-46,76,-31,-118
2700,1,-223,-44,82,-7,-115
2705,6,-225,-44,88,21,-111
2710,11,-231,-40,94,51,-104
2715,20,-235,-38,102,83,-91
2720,26,-241,-36,109,111,-75
2725,35,-250,-35,114,138,-58
2730,42,-254,-41,122,157,-45
2735,40,-248,-50,127,173,-27
2740,42,-262,-49,129,170,-12
2745,37,-266,-52,136,149,-2
2750,36,-272,-53,143,117,14
2755,28,-274,-60,147,80,32
2760,19,-279,-58,152,44,58
2765,9,-278,-55,163,18,82
2770,4,-283,-49,176,11,102
2775,-3,-287,-49,192,25,116
2780,-12,-288,-36,208,62,127
2785,-13,-284,-25,224,116,135
2790,-15,-289,-23,247,180,138
2795,-7,-295,-6,270,247,137
2800,-3,-297,-8,292,309,131
2805,1,-297,-5,309,367,132
2810,2,-301,-8,318,413,135
2815,5,-307,-19,311,434,141
2820,15,-305,-41,271,433,157
2825,22,-310,-62,193,414,183
2830,35,-313,-89,82,382,216
2835,40,-316,-129,-54,332,251
2840,35,-316,-180,-213,250,281
2845,23,-321,-209,-358,136,302
2850,13,-321,-217,-459,9,327
2855,-1,-328,-208,-490,-86,363
2860,-28,-336,-185,-448,-120,407
2865,-52,-345,-153,-350,-111,456
2870,-73,-363,-140,-223,-87,496
2875,-70,-348,-150,-64,-66,476
2880,-71,-336,-164,53,-37,446
2885,-68,-320,-176,128,-1,422
2890,-68,-298,-186,172,33,408
2895,-52,-281,-189,217,63,401
2900,-35,-266,-192,266,116,398
2905,-11,-249,-187,311,209,392
2910,-1,-227,-179,351,323,379
2915,0,-210,-178,385,439,362
2920,0,-184,-179,398,537,344
2925,5,-173,-178,379,602,324
2930,20,-163,-178,328,625,306
2935,38,-155,-178,258,617,290
2940,45,-156,-162,180,591,277
2945,46,-159,-161,111,556,260
2950,42,-160,-149,57,518,237
2955,41,-179,-135,8,471,209
2960,38,-193,-130,-36,422,181
2965,29,-204,-125,-75,373,158
2970,24,-216,-120,-97,325,137
2975,18,-222,-116,-94,284,121
2980,8,-227,-112,-72,249,103
2985,2,-235,-112,-39,216,82
2990,-14,-234,-108,-4,188,55
2995,-22,-237,-104,27,162,18
3000,-28,-233,-102,47,137,-25
3005,-33,-228,-109,60,113,-78
3010,-33,-222,-100,65,101,-131
3015,-33,-218,-97,66,96,-179
3020,-31,-213,-98,60,94,-231
3025,-31,-206,-96,49,98,-279
3030,-29,-199,-95,34,106,-321
3035,-19,-195,-88,17,113,-358
3040,-18,-189,-88,4,118,-386
3045,-11,-188,-82,-11,114,-409
3050,-11,-180,-77,-26,101,-425
3055,-5,-181,-80,-42,89,-430
3060,0,-174,-74,-60,73,-430
3065,0,-168,-73,-81,56,-422
3070,3,-167,-73,-102,33,-409
3075,5,-162,-69,-115,6,-393
3080,6,-159,-63,-125,-25,-367
3085,7,-157,-65,-128,-58,-338
3090,10,-160,-66,-130,-94,-308
3095,8,-153,-64,-129,-131,-280
3100,14,-153,-65,-126,-167,-249
3105,8,-151,-63,-121,-205,-222
3110,7,-155,-64,-115,-242,-194
3115,7,-154,-63,-109,-277,-171
3120,11,-156,-65,-106,-311,-151
3125,9,-157,-66,-104,-340,-134
3130,11,-160,-66,-105,-364,-121
3135,12,-161,-65,-106,-383,-113
3140,7,-165,-68,-108,-400,-109
3145,11,-175,-67,-116,-416,-105
3150,14,-179,-72,-128,-427,-102
3155,16,-181,-72,-146,-434,-102
3160,17,-192,-71,-170,-435,-102
3165,20,-199,-71,-196,-435,-103
3170,25,-202,-64,-218,-438,-109
3175,25,-208,-63,-237,-432,-108
3180,24,-218,-59,-253,-427,-103
3185,25,-223,-57,-258,-426,-99
3190,30,-233,-49,-255,-427,-96
3195,32,-241,-42,-247,-429,-93
3200,33,-250,-34,-227,-438,-91
3205,28,-255,-23,-198,-456,-94
3210,23,-266,-15,-156,-483,-98
3215,11,-269,-7,-111,-531,-110
3220,19,-281,2,-55,-569,-116
3225,9,-280,-1,28,-587,-95
3230,-8,-286,-2,109,-595,-73
3235,-15,-284,-11,195,-598,-56
3240,-13,-279,-21,276,-589,-42
3245,-13,-274,-27,347,-558,-24
3250,-9,-267,-23,409,-506,-14
3255,-7,-264,-20,459,-436,-9
3260,1,-265,-27,510,-363,-9
3265,6,-256,-42,552,-289,-12
3270,16,-241,-56,570,-213,-7
3275,31,-231,-67,555,-129,4
3280,59,-224,-75,515,-44,18
3285,80,-223,-69,463,33,24
3290,95,-232,-54,416,85,17
3295,100,-241,-34,402,102,5
3300,108,-247,-19,423,85,-11
3305,98,-256,-12,458,42,-33
3310,88,-263,-14,481,-10,-57
3315,66,-269,-38,464,-59,-80
3320,40,-276,-65,385,-97,-106
3325,19,-278,-99,237,-128,-133
3330,6,-278,-146,19,-137,-167
3335,4,-306,-186,-243,-105,-201
3340,0,-319,-205,-493,-24,-228
3345,3,-325,-208,-663,96,-258
3350,10,-328,-211,-735,239,-290
3355,24,-343,-199,-707,378,-341
3360,28,-355,-190,-597,491,-407
3365,32,-367,-164,-431,557,-483
3370,45,-375,-141,-254,603,-541
3375,37,-382,-143,-70,641,-525
3380,30,-365,-149,86,644,-506
3385,10,-358,-156,206,604,-488
3390,-5,-340,-170,302,511,-471
3395,-22,-316,-187,402,372,-468
3400,-40,-301,-191,509,204,-470
3405,-63,-274,-201,594,19,-462
3410,-81,-254,-199,631,-164,-447
3415,-107,-235,-201,624,-331,-418
3420,-109,-225,-193,581,-466,-386
3425,-111,-217,-200,519,-550,-354
3430,-101,-214,-193,441,-590,-324
3435,-98,-220,-191,369,-590,-300
3440,-78,-220,-182,316,-556,-283
3445,-63,-225,-175,280,-508,-277
3450,-43,-226,-169,253,-462,-279
3455,-26,-228,-158,232,-425,-286
3460,-17,-228,-148,219,-390,-286
3465,1,-227,-135,212,-351,-276
3470,8,-224,-131,208,-305,-261
3475,15,-225,-123,195,-262,-235
3480,26,-223,-120,178,-226,-207
3485,35,-222,-108,159,-198,-175
3490,43,-217,-108,144,-179,-137
3495,46,-209,-108,137,-171,-97
3500,49,-202,-108,139,-168,-48
3505,51,-197,-113,157,-165,6
3510,51,-193,-110,178,-166,57
3515,53,-191,-111,195,-165,110
3520,49,-183,-99,209,-157,152
3525,47,-180,-97,216,-146,189
3530,43,-179,-90,210,-131,216
3535,39,-177,-79,191,-118,234
3540,33,-174,-81,167,-110,243
3545,25,-168,-82,138,-104,242
3550,23,-166,-79,106,-102,243
3555,18,-163,-75,80,-98,241
3560,12,-158,-79,57,-94,238
3565,3,-155,-75,41,-96,233
3570,-1,-151,-73,30,-98,228
3575,-6,-148,-75,25,-101,222
3580,-10,-148,-65,25,-104,211
3585,-11,-141,-68,28,-104,196
3590,-14,-139,-66,31,-99,181
3595,-17,-135,-55,34,-89,162
3600,-20,-140,-63,34,-73,147
3605,-21,-131,-61,33,-51,130
3610,-23,-131,-58,30,-24,114
3615,-23,-131,-58,24,4,97
3620,-21,-132,-55,16,34,83
3625,-25,-138,-62,2,60,70
3630,-25,-138,-62,-14,82,57
3635,-21,-148,-56,-36,101,43
3640,-21,-152,-59,-59,110,31
3645,-22,-158,-58,-78,111,16
3650,-22,-169,-56,-90,104,3
3655,-26,-178,-58,-93,90,-15
3660,-17,-186,-55,-92,71,-34
3665,-23,-190,-54,-85,56,-45
3670,-23,-198,-45,-77,32,-63
3675,-22,-206,-46,-73,9,-80
3680,-28,-208,-49,-63,-14,-96
3685,-28,-216,-41,-57,-44,-121
3690,-32,-212,-41,-49,-62,-142
3695,-33,-223,-35,-38,-77,-157
3700,-25,-221,-38,-17,-90,-171
3705,-20,-226,-32,4,-93,-182
3710,-22,-222,-34,26,-90,-187
3715,-13,-226,-31,49,-83,-192
3720,-9,-225,-35,67,-71,-197
3725,-2,-228,-37,79,-54,-200
3730,-1,-228,-34,83,-37,-201
3735,3,-230,-36,82,-16,-200
3740,8,-236,-39,75,5,-197
3745,10,-242,-40,66,28,-195
3750,16,-247,-38,59,56,-188
3755,19,-255,-40,54,84,-181
3760,24,-263,-42,51,113,-169
3765,40,-263,-48,55,131,-163
3770,27,-270,-43,50,159,-139
3775,29,-281,-42,48,149,-124
3780,21,-284,-53,59,102,-123
3785,17,-279,-53,68,53,-121
3790,4,-285,-52,73,5,-110
3795,-3,-291,-51,81,-44,-96
3800,-14,-294,-47,89,-82,-78
3805,-21,-299,-39,100,-102,-61
3810,-22,-302,-23,126,-99,-43
3815,-27,-312,-11,163,-74,-24
3820,-27,-305,-9,206,-35,-8
3825,-25,-315,-3,247,14,9
3830,-22,-315,-6,276,60,20
3835,-14,-309,-21,274,93,33
3840,-1,-310,-38,235,105,47
3845,4,-311,-56,160,94,70
3850,14,-308,-89,40,71,104
3855,21,-313,-129,-118,25,146
3860,18,-317,-168,-303,-40,200
3865,2,-319,-192,-479,-132,244
3870,1,-320,-207,-612,-256,274
3875,-33,-334,-199,-692,-362,318
3880,-49,-342,-185,-676,-449,323
3885,-70,-348,-168,-610,-492,339
3890,-80,-357,-160,-515,-502,368
3895,-82,-360,-172,-406,-493,378
3900,-76,-354,-183,-311,-469,367
3905,-77,-336,-212,-236,-438,356
3910,-72,-325,-232,-158,-411,351
3915,-48,-297,-243,-47,-371,354
3920,-26,-289,-237,60,-284,357
3925,-1,-267,-220,161,-146,353
3930,7,-249,-210,250,6,344
3935,12,-229,-203,308,141,329
3940,20,-210,-204,323,241,311
3945,35,-198,-194,305,294,294
3950,61,-191,-186,263,297,274
3955,68,-188,-173,212,264,251
3960,75,-189,-163,166,207,223
3965,67,-191,-157,137,137,186
3970,60,-196,-148,118,68,145
3975,51,-205,-142,99,6,105
3980,39,-213,-138,80,-48,68
3985,25,-220,-130,65,-93,40
3990,13,-230,-127,60,-132,14
3995,2,-233,-122,64,-164,-5
4000,-10,-240,-119,74,-188,-24
4005,-19,-243,-111,86,-214,-48
4010,-33,-245,-117,100,-239,-81
4015,-43,-239,-109,113,-262,-118
4020,-46,-237,-109,130,-282,-161
4025,-54,-224,-106,150,-299,-205
4030,-44,-224,-103,172,-313,-251
4035,-50,-208,-99,193,-314,-296
4040,-40,-198,-98,205,-304,-336
4045,-37,-193,-98,209,-286,-370
4050,-24,-189,-94,201,-264,-398
4055,-16,-177,-89,184,-241,-423
4060,-5,-172,-86,161,-220,-441
4065,5,-169,-84,132,-201,-453
4070,14,-164,-77,98,-182,-463
4075,18,-159,-76,65,-167,-468
4080,25,-149,-70,31,-160,-468
4085,33,-147,-73,-3,-161,-462
4090,37,-145,-76,-35,-166,-450
4095,36,-140,-71,-59,-180,-429
4100,35,-135,-65,-72,-202,-402
4105,35,-135,-66,-78,-226,-371
4110,33,-129,-64,-78,-253,-337
4115,37,-133,-61,-70,-282,-301
4120,31,-129,-63,-65,-307,-265
4125,28,-129,-63,-60,-335,-231
4130,23,-130,-65,-55,-362,-203
4135,20,-134,-67,-50,-383,-179
4140,15,-138,-61,-44,-403,-156
4145,13,-138,-67,-40,-421,-138
4150,9,-142,-70,-44,-435,-125
4155,4,-145,-71,-53,-448,-116
4160,4,-153,-71,-66,-461,-107
4165,3,-158,-70,-82,-471,-100
4170,4,-162,-67,-99,-479,-95
4175,5,-163,-69,-116,-481,-89
4180,4,-177,-71,-135,-481,-81
4185,10,-185,-68,-156,-482,-79
4190,14,-186,-72,-177,-478,-77
4195,10,-199,-70,-193,-470,-70
4200,14,-197,-67,-203,-462,-62
4205,15,-203,-67,-207,-455,-53
4210,20,-210,-63,-200,-446,-36
4215,20,-211,-60,-187,-438,-20
4220,21,-221,-60,-170,-433,-3
4225,23,-224,-55,-147,-433,17
4230,26,-226,-52,-120,-437,34
4235,25,-236,-52,-89,-448,49
4240,27,-232,-44,-55,-466,61
4245,24,-241,-43,-20,-490,67
4250,14,-249,-34,19,-521,73
4255,12,-249,-37,65,-557,75
4260,3,-256,-33,111,-594,75
4265,-2,-260,-28,155,-630,72
4270,-5,-268,-29,203,-653,77
4275,-11,-270,-25,251,-670,83
4280,-38,-270,-24,297,-676,84
4285,-6,-271,-39,311,-688,50
4290,-5,-277,-44,346,-612,55
4295,-2,-277,-43,374,-535,61
4300,3,-275,-37,388,-455,41
4305,10,-274,-55,390,-372,15
4310,18,-267,-64,373,-285,-10
4315,31,-263,-65,340,-199,-34
4320,45,-257,-64,303,-121,-61
4325,60,-261,-58,279,-65,-89
4330,70,-268,-42,277,-35,-120
4335,67,-273,-31,305,-28,-148
4340,69,-277,-18,355,-39,-172
4345,63,-281,-14,418,-57,-190
4350,55,-285,-9,479,-73,-202
4355,45,-289,-7,537,-87,-208
4360,37,-292,-7,580,-101,-216
4365,25,-298,-14,597,-112,-229
4370,15,-300,-23,569,-130,-246
4375,1,-307,-45,486,-159,-269
4380,-15,-303,-79,338,-192,-292
4385,-25,-305,-129,128,-209,-314
4390,-22,-311,-175,-133,-188,-331
4395,-17,-309,-200,-382,-119,-351
4400,0,-312,-224,-557,-8,-368
4405,12,-303,-227,-641,128,-404
4410,63,-301,-234,-658,255,-489
4415,97,-313,-220,-586,417,-541
4420,107,-324,-195,-433,563,-557
4425,107,-340,-181,-257,657,-578
4430,95,-344,-177,-122,706,-577
4435,74,-341,-182,-55,718,-565
4440,45,-333,-191,-34,698,-551
4445,26,-327,-191,-31,640,-546
4450,2,-318,-191,16,553,-551
4455,-27,-303,-195,112,441,-560
4460,-62,-283,-199,224,301,-558
4465,-90,-266,-191,311,139,-534
4470,-110,-256,-192,355,-30,-491
4475,-128,-242,-192,352,-188,-435
4480,-135,-240,-192,320,-314,-373
4485,-138,-233,-194,278,-401,-309
4490,-133,-230,-199,232,-449,-250
4495,-128,-226,-194,202,-471,-202
4500,-106,-225,-190,191,-474,-167
4505,-75,-223,-180,200,-463,-142
4510,-50,-228,-161,220,-442,-122
4515,-29,-229,-143,235,-419,-109
4520,-19,-231,-136,235,-393,-103
4525,-1,-230,-128,215,-366,-101
4530,7,-225,-123,187,-331,-96
4535,18,-226,-118,154,-290,-86
4540,29,-226,-117,125,-243,-75
4545,39,-220,-114,113,-196,-61
4550,51,-216,-108,116,-159,-45
4555,54,-214,-108,138,-127,-22
4560,60,-208,-103,173,-101,9
4565,63,-200,-99,212,-81,43
4570,65,-198,-100,246,-65,76
4575,62,-192,-91,269,-54,108
4580,55,-191,-89,278,-46,133
4585,47,-183,-78,277,-46,152
4590,37,-177,-74,272,-50,160
4595,30,-172,-80,255,-58,163
4600,22,-166,-74,226,-68,163
4605,14,-159,-77,191,-83,158
4610,6,-154,-72,154,-96,152
4615,2,-147,-72,127,-107,145
4620,-5,-143,-71,109,-117,135
4625,-13,-144,-75,99,-122,126
4630,-15,-136,-74,90,-123,117
4635,-20,-136,-71,76,-121,108
4640,-23,-135,-69,63,-115,96
4645,-25,-136,-65,46,-108,84
4650,-24,-136,-63,27,-97,68
4655,-20,-136,-62,9,-82,53
4660,-17,-135,-61,-9,-61,34
4665,-21,-140,-61,-22,-36,14
4670,-15,-142,-60,-35,-7,-6
4675,-14,-143,-62,-45,28,-24
4680,-13,-148,-63,-54,63,-40
4685,-11,-154,-64,-63,95,-58
4690,-10,-155,-63,-76,121,-70
4695,-13,-157,-58,-87,142,-82
4700,-12,-166,-66,-100,158,-87
4705,-10,-172,-66,-119,165,-91
4710,-11,-174,-68,-138,166,-91
4715,-10,-182,-64,-154,162,-95
4720,-7,-187,-63,-165,159,-95
4725,-9,-191,-62,-170,153,-98
4730,-7,-194,-54,-167,151,-102
4735,-5,-207,-51,-161,152,-108
4740,-2,-210,-53,-150,154,-117
4745,0,-212,-49,-136,152,-132
4750,-2,-215,-43,-114,155,-148
4755,0,-219,-43,-89,162,-168
4760,1,-223,-40,-58,171,-186
4765,2,-222,-36,-26,187,-204
4770,3,-222,-32,9,206,-223
4775,3,-224,-35,47,227,-238
4780,4,-228,-28,88,245,-250
4785,8,-225,-25,127,260,-264
4790,28,-229,-28,165,282,-267
4795,4,-224,-32,197,305,-256
4800,8,-234,-29,219,304,-270
4805,10,-231,-30,241,313,-283
4810,20,-224,-40,249,337,-287
4815,7,-233,-30,257,357,-287
4820,9,-230,-35,275,349,-295
4825,12,-232,-37,290,348,-302
4830,14,-233,-35,294,342,-303
4835,16,-236,-39,299,334,-299
4840,10,-237,-41,295,327,-290
4845,14,-234,-43,286,315,-277
4850,13,-242,-48,267,308,-264
4855,6,-244,-54,250,288,-250
4860,1,-243,-59,232,260,-236
4865,-13,-248,-58,212,233,-215
4870,-14,-252,-61,198,209,-190
4875,-29,-268,-51,180,204,-156
4880,-22,-272,-40,180,199,-146
4885,-29,-286,-30,173,210,-127
4890,-25,-305,-24,183,211,-109
4895,-16,-315,-19,193,227,-87
4900,-20,-323,-6,199,242,-61
4905,-15,-337,1,210,256,-30
4910,-13,-343,6,233,258,0
4915,-8,-355,7,266,255,29
4920,-6,-360,13,311,249,62
4925,2,-366,10,359,248,99
4930,17,-364,-4,405,247,140
4935,25,-358,-35,409,241,178
4940,47,-347,-79,361,212,189
4945,50,-333,-123,266,170,175
4950,31,-320,-193,100,115,159
4955,12,-313,-246,-115,39,153
4960,-12,-316,-263,-326,-44,162
4965,-25,-320,-262,-478,-133,162
4970,-41,-324,-255,-555,-231,152
4975,-65,-328,-238,-553,-346,148
4980,-99,-329,-217,-492,-475,170
4985,-124,-331,-209,-389,-605,220
4990,-128,-337,-222,-286,-706,291
4995,-130,-323,-237,-207,-761,374
5000,-107,-294,-260,-173,-765,451
5005,-66,-282,-273,-161,-699,502
5010,-44,-265,-284,-144,-545,520
5015,-3,-247,-285,-110,-342,499
5020,21,-235,-280,-79,-135,453
5025,65,-217,-266,-58,41,397
5030,101,-209,-256,-57,161,345
5035,123,-207,-241,-64,217,302
5040,132,-205,-231,-77,227,262
5045,134,-202,-218,-92,208,217
5050,129,-211,-201,-111,178,174
5055,112,-226,-192,-132,148,140
5060,103,-231,-181,-143,123,104
5065,92,-246,-158,-137,97,66
5070,82,-254,-153,-118,64,24
5075,70,-264,-142,-98,15,-17
5080,54,-272,-139,-84,-38,-52
5085,34,-271,-135,-77,-89,-78
5090,20,-264,-135,-81,-130,-101
5095,7,-260,-140,-93,-156,-129
5100,-5,-250,-134,-98,-171,-153
5105,-20,-235,-137,-87,-176,-179
5110,-25,-229,-125,-58,-169,-211
5115,-25,-206,-117,-17,-150,-246
5120,-21,-193,-107,32,-126,-280
5125,-19,-178,-105,82,-102,-317
5130,-12,-169,-93,125,-85,-349
5135,-1,-157,-94,148,-77,-378
5140,2,-146,-96,151,-75,-404
5145,11,-143,-92,136,-76,-425
5150,15,-134,-92,103,-80,-443
5155,16,-131,-94,58,-84,-453
5160,23,-135,-84,9,-94,-458
5165,22,-136,-90,-43,-105,-456
5170,27,-132,-91,-99,-116,-453
5175,27,-136,-87,-159,-130,-441
5180,29,-142,-77,-227,-147,-428
5185,27,-147,-71,-285,-168,-407
5190,24,-153,-64,-328,-200,-381
5195,18,-156,-58,-354,-238,-355
5200,16,-162,-58,-372,-279,-330
5205,11,-162,-53,-383,-329,-305
5210,6,-169,-56,-385,-382,-282
5215,17,-176,-56,-385,-438,-269
5220,12,-180,-53,-378,-492,-255
5225,16,-186,-57,-368,-545,-246
5230,17,-187,-58,-357,-594,-242
5235,17,-192,-58,-338,-639,-239
5240,17,-194,-65,-314,-680,-245
5245,16,-195,-65,-285,-714,-255
5250,15,-192,-69,-246,-742,-265
5255,12,-191,-69,-202,-760,-272
5260,9,-192,-70,-151,-770,-281
5265,8,-193,-74,-104,-774,-287
5270,12,-195,-79,-74,-769,-292
5275,11,-191,-84,-55,-769,-300
5280,9,-192,-77,-58,-759,-307
5285,18,-192,-77,-81,-754,-324
5290,22,-196,-79,-116,-732,-327
5295,32,-195,-78,-179,-728,-345
5300,36,-193,-79,-225,-673,-332
5305,35,-195,-81,-267,-626,-306
5310,39,-199,-84,-304,-589,-292
5315,45,-197,-88,-335,-554,-284
5320,44,-198,-92,-357,-525,-277
5325,42,-203,-91,-367,-506,-272
5330,47,-205,-96,-370,-496,-265
5335,49,-206,-101,-366,-497,-260
5340,48,-213,-101,-362,-507,-255
5345,46,-213,-103,-359,-524,-247
5350,44,-224,-98,-357,-546,-243
5355,41,-231,-96,-352,-573,-242
5360,36,-237,-98,-346,-598,-243
5365,34,-246,-102,-334,-622,-252
5370,29,-249,-104,-319,-640,-267
5375,29,-258,-108,-304,-650,-283
5380,20,-261,-110,-288,-657,-301
5385,16,-268,-115,-270,-662,-324
5390,4,-270,-114,-251,-667,-350
5395,7,-274,-112,-237,-692,-401
5400,13,-275,-110,-224,-710,-464
5405,14,-270,-115,-180,-707,-485
5410,7,-274,-112,-124,-711,-497
5415,9,-276,-112,-66,-722,-521
5420,9,-276,-114,-13,-729,-549
5425,10,-275,-114,31,-722,-569
5430,12,-274,-113,67,-711,-584
5435,4,-278,-117,92,-697,-600
5440,4,-275,-124,108,-683,-611
5445,1,-274,-126,109,-667,-628
5450,7,-271,-136,93,-654,-641
5455,6,-269,-148,62,-638,-648
5460,4,-264,-152,14,-620,-660
5465,8,-265,-162,-46,-599,-671
5470,12,-266,-165,-119,-583,-676
5475,-14,-280,-167,-210,-560,-676
5480,37,-262,-187,-342,-559,-713
5485,38,-271,-201,-470,-506,-646
5490,45,-273,-213,-601,-452,-584
5495,55,-286,-224,-735,-396,-548
5500,75,-283,-234,-862,-329,-533
5505,86,-291,-244,-964,-241,-511
5510,102,-297,-245,-1022,-145,-498
5515,104,-296,-245,-1040,-38,-492
5520,68,-317,-225,-1022,65,-490
5525,94,-282,-229,-987,140,-533
5530,73,-272,-218,-936,228,-443
5535,51,-272,-202,-843,270,-339
5540,38,-256,-199,-722,250,-255
5545,29,-249,-193,-593,179,-182
5550,18,-236,-187,-466,68,-106
5555,9,-221,-180,-347,-81,-43
5560,0,-194,-181,-235,-261,14
5565,-20,-169,-183,-145,-459,66
5570,-32,-147,-187,-83,-658,118
5575,-56,-127,-190,-44,-840,166
5580,-69,-110,-188,-22,-989,209
5585,-76,-102,-184,-12,-1099,240
5590,-77,-97,-168,-18,-1172,247
5595,-81,-88,-152,-32,-1206,244
5600,-76,-94,-147,-57,-1201,229
5605,-65,-105,-137,-107,-1158,201
5610,-47,-120,-131,-177,-1088,162
5615,-28,-137,-128,-261,-1024,109
5620,-27,-153,-130,-348,-999,51
5625,-25,-171,-138,-427,-1024,-4
5630,-30,-189,-146,-481,-1078,-59
5635,-35,-209,-155,-495,-1140,-114
5640,-40,-234,-169,-451,-1189,-176
5645,-47,-240,-171,-328,-1221,-245
5650,-59,-250,-181,-132,-1234,-319
5655,-65,-249,-182,94,-1240,-390
5660,-69,-253,-179,305,-1253,-454
5665,-75,-246,-160,476,-1288,-503
5670,-71,-240,-138,609,-1353,-531
5675,-68,-231,-111,717,-1442,-530
5680,-62,-217,-101,784,-1538,-507
5685,-54,-197,-115,784,-1632,-462
5690,-48,-184,-144,716,-1729,-404
5695,-43,-179,-160,626,-1830,-355
5700,-34,-161,-157,581,-1911,-322
5705,-12,-146,-130,620,-1951,-291
5710,8,-121,-122,742,-1943,-257
5715,33,-93,-119,860,-1870,-209
5720,57,-90,-107,943,-1787,-149
5725,82,-75,-86,1006,-1754,-105
5730,111,-65,-61,1054,-1751,-75
5735,121,-50,-39,1094,-1764,-48
5740,115,-33,-36,1096,-1805,-18
5745,106,-22,-37,1032,-1856,17
5750,80,-24,-32,948,-1896,48
5755,55,-25,-17,887,-1902,74
5760,19,-24,-1,869,-1872,103
5765,-14,-19,-7,866,-1803,145
5770,-33,-17,-19,858,-1712,195
5775,-38,-10,-20,826,-1608,241
5780,-29,2,-30,779,-1478,281
5785,-8,5,-42,731,-1309,321
5790,16,6,-45,699,-1118,349
5795,37,1,-44,675,-943,350
5800,69,-4,-33,651,-803,329
5805,94,-7,-23,624,-697,294
5810,113,-3,-42,588,-621,260
5815,127,1,-49,543,-559,231
5820,136,12,-63,505,-505,219
5825,137,18,-88,482,-431,222
5830,130,18,-104,465,-333,240
5835,120,9,-106,441,-219,275
5840,113,-9,-100,409,-94,323
5845,105,-26,-95,370,46,381
5850,106,-53,-87,325,181,443
5855,110,-78,-89,272,308,499
5860,115,-102,-89,215,414,551
5865,127,-129,-93,168,491,618
5870,140,-145,-110,152,539,699
5875,157,-151,-148,158,547,776
5880,156,-150,-187,153,521,834
5885,137,-150,-220,141,457,883
5890,102,-155,-239,110,375,920
5895,67,-169,-243,68,286,937
5900,20,-180,-243,45,192,949
5905,-20,-204,-226,-43,114,946
5910,-60,-231,-218,-151,38,965
5915,-86,-250,-205,-277,-48,997
5920,-114,-264,-208,-398,-162,1031
5925,-140,-263,-209,-497,-317,1054
5930,-166,-269,-199,-528,-511,1065
5935,-187,-274,-199,-477,-719,1061
5940,-181,-277,-196,-380,-929,1045
5945,-144,-285,-209,-266,-1092,1001
5950,-97,-280,-224,-152,-1173,960
5955,-43,-274,-233,-95,-1208,930
5960,-31,-246,-223,-47,-1200,902
5965,70,-251,-205,-22,-1186,825
5970,112,-226,-198,111,-1087,811
5975,146,-206,-179,259,-1033,816
5980,165,-189,-152,399,-984,808
5985,149,-164,-129,513,-936,791
5990,129,-157,-119,561,-899,787
5995,110,-165,-95,563,-864,797
6000,107,-169,-68,516,-810,826
6005,102,-169,-58,417,-745,856
6010,63,-154,-64,267,-704,882
6015,93,-185,-60,25,-717,856
6020,77,-193,-69,-53,-674,884
6025,61,-188,-97,-13,-670,910
6030,59,-162,-119,61,-692,888
6035,36,-144,-133,139,-714,825
6040,12,-138,-142,205,-755,740
6045,-29,-127,-133,249,-818,647
6050,-72,-107,-120,254,-883,560
6055,-102,-93,-105,226,-930,483
6060,-135,-78,-95,165,-964,409
6065,-162,-79,-95,70,-994,340
6070,-176,-87,-94,-47,-1022,289
6075,-151,-97,-100,-151,-1059,252
6080,-129,-96,-98,-212,-1111,223
6085,-91,-104,-101,-248,-1170,204
6090,-66,-108,-104,-273,-1220,196
6095,-36,-109,-101,-292,-1258,199
6100,-14,-108,-97,-296,-1287,219
6105,8,-105,-86,-299,-1324,232
6110,14,-105,-93,-271,-1328,263
6115,19,-104,-83,-153,-1326,348
6120,17,-96,-76,-51,-1344,420
6125,10,-94,-62,30,-1367,475
6130,-5,-84,-52,90,-1396,521
6135,-19,-82,-36,126,-1432,553
6140,-26,-79,-33,136,-1471,568
6145,-45,-81,-32,132,-1511,569
6150,-61,-81,-27,137,-1554,565
6155,-72,-81,-25,153,-1604,559
6160,-80,-82,-19,177,-1655,553
6165,-85,-79,-16,207,-1698,552
6170,-87,-83,-6,240,-1726,559
6175,-78,-86,-5,243,-1754,555
6180,-57,-94,-18,235,-1745,558
6185,-36,-107,-23,272,-1717,582
6190,-14,-103,-26,328,-1692,601
6195,8,-108,-34,389,-1670,609
6200,19,-114,-32,454,-1650,607
6205,21,-122,-39,532,-1646,599
6210,10,-117,-46,621,-1663,582
6215,-3,-106,-45,705,-1704,556
6220,-25,-97,-39,773,-1769,522
6225,-57,-84,-45,811,-1869,478
6230,-80,-96,-40,819,-1998,438
6235,-115,-96,-21,844,-2156,409
6240,-130,-97,-18,898,-2328,388
6245,-160,-95,-11,959,-2510,351
6250,-189,-98,-8,1029,-2706,295
6255,-203,-113,3,1106,-2907,228
6260,-222,-144,-29,1184,-3122,143
6265,-254,-184,-34,1244,-3381,41
6270,-268,-289,-37,1332,-3694,-39
6275,-357,-381,-43,1454,-3954,-124
6280,-500,-441,-112,1546,-4252,-232
6285,-692,-520,-136,1616,-4652,-213
6290,-745,-621,-159,1659,-5009,-114
6295,-772,-798,-198,1595,-5119,-132
6300,-921,-855,-193,1461,-4936,-349
6305,-1007,-776,-210,1241,-4663,-485
6310,-1047,-762,-197,859,-4262,-348
6315,-1035,-795,-143,654,-3862,15
6320,-901,-877,-141,791,-3609,399
6325,-590,-930,-132,1230,-3482,638
6330,-530,-888,-134,1760,-3379,812
6335,-519,-827,-116,2217,-3246,1108
6340,-545,-766,-69,2518,-2995,1519
6345,-558,-673,-2,2676,-2681,1922
6350,-514,-596,22,2868,-2378,2221
6355,-408,-548,44,3207,-2119,2420
6360,-301,-463,49,3662,-1945,2597
6365,-202,-381,45,4067,-1862,2772
6370,-78,-266,29,4255,-1818,2901
6375,2,-178,17,4251,-1758,2965
6380,20,-117,-12,4169,-1706,3003
6385,30,-88,-24,4057,-1638,3059
6390,3,-76,-25,3925,-1497,3143
6395,-91,-97,-20,3769,-1338,3261
6400,-143,-136,-9,3584,-1244,3343
6405,-137,-179,28,3446,-1174,3358
6410,-105,-202,62,3393,-1106,3331
6415,-85,-207,74,3393,-1043,3278
6420,-93,-192,82,3378,-1007,3196
6425,-75,-165,84,3268,-1005,3069
6430,-36,-133,87,3067,-1019,2918
6435,-1,-82,72,2830,-1050,2777
6440,-34,-47,60,2566,-1105,2665
6445,-56,-6,60,2238,-1187,2619
6450,37,15,79,1893,-1216,2565
6455,-42,33,73,1563,-1205,2498
6460,-50,60,74,1270,-1240,2409
6465,-6,71,82,1042,-1281,2315
6470,-56,86,91,909,-1292,2188
6475,-72,91,113,858,-1305,2071
6480,-114,85,142,847,-1330,1975
6485,-114,73,164,856,-1368,1888
6490,-106,58,178,862,-1384,1840
6495,-64,44,202,850,-1418,1805
6500,-135,33,198,850,-1415,1775
6505,-119,24,201,836,-1479,1775
6510,-175,27,195,829,-1528,1755
6515,-131,26,202,831,-1582,1757
6520,-222,37,202,865,-1605,1747
6525,-210,32,224,902,-1671,1775
6530,-279,36,226,960,-1723,1767
6535,-217,33,234,1011,-1791,1777
6540,-282,55,229,1060,-1837,1745
6545,-253,56,234,1086,-1916,1706
6550,-256,69,235,1094,-1979,1612
6555,-261,69,237,1063,-2041,1531
6560,-190,82,242,1001,-2093,1414
6565,-194,94,236,943,-2089,1287
6570,-188,110,223,884,-2079,1182
6575,-175,123,220,855,-2030,1105
6580,-198,127,211,835,-2017,1001
6585,-216,116,209,783,-2020,909
6590,-209,111,219,729,-2011,815
6595,-199,96,236,701,-1977,750
6600,-212,79,253,691,-1937,705
6605,-150,72,269,708,-1895,644
6610,-156,97,265,777,-1819,575
6615,-183,50,278,833,-1724,606
6620,-152,46,274,880,-1730,518
6625,-132,70,266,916,-1669,398
6630,-161,52,251,918,-1595,366
6635,-131,55,261,925,-1609,275
6640,-172,64,256,962,-1603,121
6645,-182,67,250,979,-1610,17
6650,-104,74,255,967,-1597,-50
6655,-149,67,253,1005,-1529,-151
6660,-171,74,243,1066,-1513,-241
6665,-104,89,253,1086,-1520,-300
6670,-143,82,264,1089,-1470,-331
6675,-134,88,253,1115,-1498,-404
6680,-109,83,252,1120,-1511,-438
6685,-145,65,257,1113,-1531,-465
6690,-152,73,242,1125,-1584,-517
6695,-91,76,237,1076,-1626,-544
6700,-124,87,230,1033,-1613,-555
6705,-91,92,219,960,-1612,-518
6710,-70,104,227,878,-1610,-518
6715,-68,105,234,837,-1589,-520
6720,-46,103,211,799,-1584,-507
6725,-24,116,211,746,-1579,-521
6730,-46,122,211,685,-1563,-529
6735,-26,128,215,607,-1558,-514
6740,5,135,217,513,-1536,-504
6745,-14,135,237,432,-1500,-507
6750,7,131,233,357,-1487,-514
6755,31,127,239,273,-1461,-534
6760,5,112,246,194,-1422,-559
6765,10,95,248,122,-1398,-565
6770,31,85,237,52,-1380,-573
6775,20,76,242,40,-1330,-602
6780,1,68,223,69,-1285,-602
6785,20,70,226,71,-1259,-595
6790,28,72,230,47,-1222,-594
6795,10,68,231,24,-1181,-587
6800,15,62,224,-15,-1154,-568
6805,36,62,218,-71,-1123,-569
6810,29,56,215,-92,-1072,-581
6815,25,51,207,-81,-1024,-582
6820,40,47,203,-65,-988,-574
6825,21,54,208,-37,-958,-562
6830,25,51,205,-13,-932,-540
6835,17,57,209,-8,-906,-517
6840,25,57,220,-7,-876,-495
6845,5,61,227,-14,-840,-474
6850,23,66,228,-46,-810,-452
6855,26,68,233,-86,-769,-448
6860,-11,66,234,-120,-728,-455
6865,-14,63,226,-164,-705,-449
6870,10,65,220,-220,-695,-457
6875,22,68,227,-257,-689,-472
6880,8,63,225,-264,-690,-490
6885,4,62,217,-262,-700,-509
6890,8,60,216,-265,-706,-530
6895,23,59,219,-265,-700,-552
6900,17,57,230,-245,-669,-568
6905,18,52,226,-207,-636,-559
6910,16,48,219,-177,-608,-535
6915,38,52,222,-164,-607,-503
6920,29,51,228,-150,-613,-477
6925,47,52,226,-138,-620,-448
6930,45,55,231,-145,-610,-431
6935,50,56,228,-162,-593,-415
6940,55,64,225,-186,-568,-409
6945,43,70,232,-189,-528,-414
6950,52,76,232,-189,-492,-416
6955,50,76,243,-205,-459,-418
6960,41,74,246,-216,-427,-416
6965,36,76,244,-239,-393,-413
6970,42,70,249,-267,-350,-412
6975,46,67,255,-287,-305,-410
6980,40,61,262,-294,-268,-410
6985,38,52,263,-289,-247,-410
6990,37,50,254,-283,-235,-411
6995,35,44,254,-280,-225,-412
7000,33,40,251,-271,-209,-407
7005,33,35,249,-258,-190,-399
7010,38,35,238,-245,-168,-386
7015,45,38,238,-230,-140,-368
7020,50,43,233,-216,-105,-359
7025,58,47,242,-207,-70,-344
7030,62,45,247,-206,-42,-327
7035,63,47,250,-217,-18,-310
7040,62,49,249,-237,10,-293
7045,64,48,250,-256,39,-280
7050,61,47,254,-276,67,-270
7055,56,42,259,-292,92,-265
7060,49,38,258,-306,115,-262
7065,48,30,260,-308,141,-264
7070,40,22,260,-294,166,-263
7075,44,11,263,-276,187,-263
7080,37,9,258,-259,207,-257
7085,30,8,252,-243,229,-248
7090,23,9,256,-226,255,-233
7095,27,7,248,-208,285,-211
7100,26,5,253,-185,319,-192
7105,38,9,258,-166,356,-172
7110,39,6,263,-157,394,-142
7115,40,0,264,-150,425,-123
7120,38,7,260,-149,466,-108
7125,37,11,252,-160,519,-96
7130,38,14,251,-174,571,-80
7135,40,24,249,-180,618,-64
7140,37,34,255,-203,662,-55
7145,38,11,268,-250,682,-39
7150,28,4,272,-223,678,-34
7155,21,-5,264,-201,679,-29
7160,11,-14,259,-185,697,-23
7165,5,-21,256,-166,731,-21
7170,1,-22,259,-149,760,-25
7175,0,-27,252,-133,785,-28
7180,0,-29,257,-117,804,-21
7185,-12,-38,248,-98,825,1
7190,-5,-31,251,-75,845,-13
7195,-11,-30,249,-56,867,-23
7200,-8,-26,259,-47,895,-9
7205,-5,-25,249,-39,914,0
7210,-2,-21,251,-20,936,-1
7215,-3,-14,259,18,955,-3
7220,1,-23,288,57,956,-14
7225,0,-36,296,91,912,-33
7230,-13,-48,283,111,880,-62
7235,-30,-60,269,102,898,-94
7240,-33,-56,257,86,937,-127
7245,-32,-55,272,0,1005,-159
7250,-37,-60,254,-8,1030,-157
7255,-40,-55,251,60,1043,-170
7260,-37,-40,254,111,1046,-216
7265,-50,-24,256,136,1055,-240
7270,-57,-21,258,136,1076,-240
7275,-55,-5,260,152,1095,-251
7280,-40,-4,265,144,1111,-245
7285,-59,-14,265,147,1127,-241
7290,-48,-4,248,163,1137,-283
7295,-47,8,231,144,1145,-312
7300,-28,-2,227,90,1149,-325
7305,-24,-9,226,53,1155,-337
7310,-9,-4,219,57,1155,-338
7315,-17,-4,219,56,1157,-336
7320,-20,-6,224,60,1157,-334
7325,-24,2,223,57,1166,-326
7330,-55,-10,220,41,1188,-295
7335,-58,2,220,7,1220,-302
7340,-73,15,232,-78,1250,-308
7345,-72,-1,227,-163,1268,-289
7350,-75,5,241,-139,1261,-285
7355,-70,4,242,-133,1237,-300
7360,-76,11,225,-125,1227,-317
7365,-83,-2,230,-166,1258,-343
7370,-86,-3,212,-174,1293,-375
7375,-79,-1,208,-166,1315,-399
7380,-74,6,211,-157,1331,-419
7385,-57,4,210,-177,1334,-440
7390,-79,-12,200,-180,1321,-415
7395,-76,-12,205,-211,1324,-470
7400,-71,-1,193,-235,1328,-492
7405,-70,1,193,-268,1336,-507
7410,-86,11,193,-287,1345,-509
7415,-96,20,189,-303,1348,-498
7420,-114,10,194,-331,1342,-480
7425,-123,7,190,-348,1336,-457
7430,-134,-3,196,-348,1335,-446
7435,-139,-10,197,-350,1335,-442
7440,-136,-17,215,-369,1343,-443
7445,-141,-28,222,-382,1348,-450
7450,-163,-26,222,-374,1351,-461
7455,-186,-40,226,-382,1349,-473
7460,-209,-35,222,-372,1328,-469
7465,-229,-43,211,-391,1293,-459
7470,-232,-48,207,-416,1256,-452
7475,-213,-61,217,-434,1225,-458
7480,-212,-71,241,-405,1198,-485
7485,-225,-76,253,-325,1163,-505
7490,-222,-79,259,-241,1119,-565
7495,-237,-84,260,-145,1074,-622
7500,-228,-77,248,-41,1016,-673
7505,-256,-63,216,57,956,-674
7510,-257,-43,187,94,900,-700
7515,-250,-35,166,98,833,-690
7520,-241,-23,144,81,770,-665
7525,-235,-31,130,61,707,-613
7530,-206,-32,125,18,641,-606
7535,-201,-40,129,-36,583,-579
7540,-195,-44,131,-76,539,-545
7545,-200,-41,131,-86,513,-506
7550,-198,-43,129,-85,492,-460
7555,-197,-45,125,-96,476,-414
7560,-199,-51,124,-132,460,-378
7565,-206,-52,120,-173,442,-344
7570,-217,-55,119,-200,413,-313
7575,-221,-62,104,-211,389,-282
7580,-241,-63,101,-215,380,-247
7585,-236,-69,108,-228,348,-206
7590,-225,-81,121,-231,300,-168
7595,-212,-83,132,-205,254,-138
7600,-214,-84,145,-159,206,-111
7605,-205,-83,149,-103,152,-82
7610,-204,-76,145,-52,91,-54
7615,-200,-71,152,-10,30,-22
7620,-204,-70,164,22,-28,12
7625,-199,-77,175,50,-75,44
7630,-196,-83,186,68,-108,72
7635,-198,-97,198,80,-129,89
7640,-201,-98,199,89,-147,97
7645,-203,-104,195,98,-158,101
7650,-206,-109,194,111,-168,103
7655,-208,-110,192,132,-179,107
7660,-203,-111,180,154,-194,111
7665,-199,-107,176,178,-210,119
7670,-193,-108,174,198,-227,126
7675,-185,-102,173,214,-249,129
7680,-179,-97,173,232,-273,131
7685,-177,-84,168,245,-302,133
7690,-167,-84,175,254,-329,132
7695,-165,-79,180,258,-355,132
7700,-154,-74,180,260,-377,128
7705,-147,-68,178,258,-391,123
7710,-140,-64,183,251,-400,112
7715,-132,-59,184,242,-403,99
7720,-129,-58,189,232,-402,83
7725,-123,-54,190,223,-398,66
7730,-118,-58,189,220,-389,48
7735,-118,-51,188,222,-378,31
7740,-113,-48,187,229,-366,13
7745,-99,-46,192,240,-356,-2
7750,-108,-42,187,254,-348,-14
7755,-105,-41,192,270,-343,-24
7760,-111,-37,195,287,-337,-34
7765,-111,-39,199,303,-331,-39
7770,-118,-33,200,316,-324,-41
7775,-119,-34,204,324,-312,-40
7780,-120,-31,207,333,-298,-35
7785,-123,-31,213,341,-281,-27
7790,-129,-27,216,352,-260,-18
7795,-128,-33,218,363,-242,-6
7800,-136,-33,222,373,-230,5
7805,-134,-31,219,382,-224,14
7810,-133,-33,219,389,-231,18
7815,-133,-28,220,389,-242,24
7820,-133,-23,220,381,-255,24
7825,-133,-22,219,368,-264,25
7830,-134,-23,215,353,-272,23
7835,-132,-20,218,339,-273,16
7840,-131,-19,212,329,-267,13
7845,-131,-15,208,321,-255,15
7850,-129,-12,209,309,-244,21
7855,-127,-3,206,292,-237,28
7860,-129,1,205,265,-235,36
7865,-131,3,206,232,-237,46
7870,-132,9,207,196,-241,58
7875,-132,10,203,159,-245,65
7880,-139,13,201,122,-246,68
7885,-145,11,198,87,-246,72
7890,-149,11,195,56,-246,69
7895,-144,6,200,26,-248,65
7900,-146,1,206,-5,-254,58
7905,-143,-8,209,-32,-262,51
7910,-145,-17,209,-50,-264,38
7915,-147,-22,212,-51,-256,19
7920,-142,-28,210,-40,-244,4
7925,-141,-25,213,-19,-237,-6
7930,-140,-23,218,-1,-231,-12
7935,-135,-23,218,8,-229,-10
7940,-136,-21,216,12,-228,-5
7945,-139,-17,220,10,-228,-3
7950,-132,-13,219,6,-228,5
7955,-133,-14,222,-4,-225,10
7960,-133,-11,222,-14,-222,13
7965,-135,-13,214,-21,-218,14
7970,-129,-15,222,-26,-216,14
7975,-129,-14,220,-29,-218,15
7980,-124,-17,221,-27,-222,13
7985,-127,-18,223,-23,-231,14
7990,-126,-20,224,-18,-242,11
7995,-123,-23,222,-11,-254,9
8000,-123,-25,218,-7,-260,0
8005,-123,-27,218,1,-259,-6
8010,-124,-24,221,9,-256,-13
8015,-125,-26,222,17,-252,-16
8020,-123,-27,228,22,-250,-18
8025,-121,-26,225,27,-248,-22
8030,-118,-29,221,34,-244,-27
8035,-114,-34,216,38,-234,-33
8040,-117,-34,216,45,-218,-39
8045,-113,-34,213,52,-202,-46
8050,-111,-28,212,62,-186,-49
8055,-114,-24,212,69,-174,-44
8060,-114,-27,213,66,-169,-35
8065,-114,-25,215,58,-165,-28
8070,-111,-21,215,46,-161,-22
8075,-111,-16,211,34,-158,-19
8080,-107,-22,212,25,-157,-15
8085,-107,-20,211,19,-157,-16
8090,-105,-21,213,14,-159,-17
8095,-106,-19,215,10,-164,-21
8100,-103,-15,219,0,-172,-22
8105,-105,-17,219,-13,-178,-27
8110,-106,-18,220,-28,-179,-35
8115,-107,-23,220,-45,-173,-46
8120,-106,-28,222,-60,-162,-56
8125,-101,-35,217,-74,-145,-66
8130,-108,-36,224,-81,-127,-79
8135,-107,-38,224,-81,-106,-88
8140,-105,-38,224,-75,-87,-94
8145,-108,-36,227,-66,-74,-94
8150,-107,-34,225,-57,-62,-93
8155,-110,-32,223,-49,-56,-89
8160,-109,-33,220,-43,-49,-79
8165,-108,-35,217,-36,-43,-71
8170,-109,-34,222,-31,-38,-65
8175,-111,-29,222,-24,-33,-63
8180,-110,-27,215,-16,-31,-60
8185,-111,-37,220,-9,-31,-56
8190,-112,-35,220,-1,-33,-53
8195,-113,-38,221,6,-38,-51
8200,-111,-39,218,11,-39,-52
8205,-110,-41,219,16,-40,-55
8210,-110,-39,222,20,-36,-60
8215,-113,-45,221,22,-33,-62
8220,-110,-41,220,24,-27,-64
8225,-109,-41,219,28,-24,-65
8230,-110,-42,220,33,-22,-65
8235,-110,-40,224,38,-21,-63
8240,-108,-44,220,44,-21,-60
8245,-106,-40,226,53,-20,-56
8250,-106,-40,221,61,-20,-55
8255,-105,-41,216,67,-18,-51
8260,-104,-40,221,71,-16,-47
8265,-106,-41,213,75,-11,-45
8270,-109,-38,217,78,-5,-43
8275,-109,-39,217,83,2,-42
8280,-108,-38,212,87,10,-43
8285,-107,-34,209,90,17,-43
8290,-106,-34,210,92,22,-42
8295,-106,-35,216,93,27,-43
8300,-112,-33,211,94,29,-41
8305,-110,-28,210,95,32,-39
8310,-112,-27,211,96,32,-36
8315,-112,-26,213,98,29,-33
8320,-115,-26,207,98,27,-32
8325,-112,-28,215,98,22,-29
8330,-115,-30,209,98,17,-28
8335,-113,-28,211,97,11,-27
8340,-117,-28,211,95,5,-27
8345,-113,-34,218,94,1,-25
8350,-118,-28,215,93,-1,-28
8355,-118,-31,213,93,-1,-26
8360,-116,-30,218,92,1,-25
8365,-119,-31,218,90,4,-26
8370,-118,-29,215,87,6,-26
8375,-119,-30,216,85,11,-29
8380,-118,-31,217,84,15,-29
8385,-121,-29,215,82,18,-31
8390,-118,-31,218,83,22,-32
8395,-119,-32,215,82,23,-33
8400,-123,-32,216,80,24,-33
8405,-121,-32,216,81,24,-34
8410,-117,-34,220,80,24,-35
8415,-121,-33,220,83,23,-34
8420,-118,-32,220,83,21,-35
8425,-121,-31,220,84,21,-35
8430,-120,-34,223,85,17,-34
8435,-120,-34,223,85,17,-36
8440,-120,-31,221,86,15,-36
8445,-125,-32,221,87,15,-36
8450,-120,-31,218,89,14,-38
8455,-122,-37,215,91,12,-39
8460,-123,-31,217,92,13,-42
8465,-117,-33,217,93,13,-44
8470,-120,-35,217,92,14,-45
8475,-121,-33,217,94,14,-46
8480,-121,-33,215,95,14,-45
8485,-122,-31,209,96,13,-42
8490,-119,-30,214,97,11,-40
8495,-121,-27,216,96,8,-36
8500,-122,-27,215,95,3,-35
8505,-120,-27,216,95,-4,-33
8510,-122,-31,222,94,-12,-31
8515,-123,-24,215,94,-19,-30
8520,-122,-27,217,96,-24,-29
8525,-124,-26,215,95,-29,-29
8530,-122,-27,217,93,-33,-30
8535,-118,-31,217,89,-38,-29
8540,-120,-30,216,85,-40,-31
8545,-121,-28,215,78,-43,-32
8550,-121,-30,220,75,-44,-32
8555,-118,-29,219,72,-44,-31
8560,-118,-31,217,69,-43,-30
8565,-116,-33,223,67,-41,-29
8570,-122,-30,221,67,-38,-31
8575,-121,-32,217,66,-35,-29
8580,-122,-26,217,66,-33,-30
8585,-119,-30,216,67,-31,-25
8590,-121,-31,219,68,-31,-23
8595,-118,-28,218,66,-31,-21
8600,-121,-28,219,65,-32,-20
8605,-117,-33,221,64,-34,-20
8610,-120,-31,218,62,-34,-17
8615,-116,-33,225,60,-35,-18
8620,-113,-32,222,58,-35,-18
8625,-115,-29,221,55,-35,-17
8630,-116,-34,217,55,-35,-19
8635,-113,-29,220,55,-32,-19
8640,-113,-33,219,55,-31,-19
8645,-115,-31,220,54,-30,-21
8650,-117,-30,222,54,-29,-21
8655,-115,-33,219,50,-30,-20
8660,-116,-35,218,49,-29,-21
8665,-115,-34,221,48,-30,-21
8670,-114,-29,219,49,-31,-20
8675,-114,-30,214,49,-32,-21
8680,-115,-31,222,50,-36,-20
8685,-114,-31,218,47,-39,-23
8690,-113,-32,222,45,-39,-23
8695,-110,-36,219,42,-38,-25
8700,-110,-32,218,40,-34,-26
8705,-114,-30,220,36,-32,-26
8710,-115,-31,216,35,-29,-24
8715,-111,-32,212,34,-26,-23
8720,-114,-31,215,32,-24,-23
8725,-112,-34,219,33,-22,-25
8730,-117,-34,211,36,-22,-22
8735,-116,-28,213,39,-22,-21
8740,-110,-34,215,42,-23,-21
8745,-111,-33,216,47,-27,-20
8750,-112,-32,218,52,-31,-18
8755,-109,-33,220,55,-35,-17
8760,-107,-35,222,58,-39,-19
8765,-111,-34,219,60,-43,-18
8770,-111,-36,220,60,-45,-17
8775,-110,-39,222,60,-45,-18
8780,-105,-35,219,59,-45,-19
8785,-111,-34,218,59,-44,-16
8790,-115,-34,220,59,-40,-17
8795,-111,-33,219,58,-36,-19
8800,-111,-31,221,57,-30,-19
8805,-112,-34,220,55,-23,-19
8810,-112,-31,223,52,-17,-18
8815,-112,-30,217,51,-10,-14
8820,-113,-29,223,49,-4,-16
8825,-110,-34,224,50,-2,-15
8830,-109,-31,220,49,-1,-14
8835,-112,-37,225,51,1,-14
8840,-110,-33,220,54,0,-14
8845,-111,-30,224,56,0,-12
8850,-108,-29,221,60,-2,-16
8855,-108,-30,218,60,-4,-16
8860,-113,-29,224,63,-5,-16
8865,-109,-30,221,64,-8,-15
8870,-110,-29,222,64,-8,-13
8875,-109,-27,222,62,-8,-15
8880,-113,-30,217,61,-7,-15
8885,-114,-29,216,61,-7,-17
8890,-114,-32,217,60,-6,-18
8895,-112,-31,221,62,-6,-19
8900,-113,-31,221,63,-6,-18
8905,-116,-30,219,63,-6,-18
8910,-111,-30,222,64,-5,-18
8915,-109,-31,219,64,-5,-18
8920,-111,-32,220,65,-6,-20
8925,-111,-29,218,64,-5,-20
8930,-113,-29,222,64,-4,-21
8935,-113,-31,221,64,-4,-19
8940,-113,-33,221,65,-3,-20
8945,-109,-37,222,66,-2,-19
8950,-113,-31,220,66,-3,-20
8955,-114,-30,220,68,-2,-19
8960,-113,-32,215,69,-1,-20
8965,-113,-31,222,69,-1,-19
8970,-112,-33,220,71,0,-20
8975,-112,-30,219,70,0,-22
8980,-114,-31,220,68,1,-22
8985,-112,-34,221,66,1,-20
8990,-114,-28,217,63,0,-18
8995,-111,-30,222,62,-1,-17
9000,-115,-31,216,58,-1,-15
9005,-112,-32,220,55,-2,-18
9010,-113,-31,219,53,-2,-19
9015,-113,-29,216,55,-1,-19
9020,-114,-29,220,57,-1,-18
9025,-113,-31,218,58,-3,-20
9030,-114,-33,217,61,-4,-21
9035,-113,-34,221,62,-5,-21
9040,-111,-29,217,62,-5,-21
9045,-111,-32,216,64,-5,-22
9050,-115,-29,221,64,-6,-21
9055,-110,-33,217,63,-7,-21
9060,-110,-32,221,62,-7,-20
9065,-111,-31,221,61,-8,-19
9070,-108,-33,222,60,-7,-17
9075,-114,-33,218,58,-8,-16
9080,-112,-33,222,57,-10,-15
9085,-115,-32,218,56,-10,-13
9090,-116,-29,221,56,-10,-14
9095,-112,-32,222,56,-10,-12
9100,-114,-33,223,58,-11,-12
9105,-115,-31,226,57,-10,-11
9110,-112,-33,222,58,-10,-11
9115,-113,-30,220,58,-8,-12
9120,-114,-31,221,59,-6,-11
9125,-115,-27,219,58,-3,-12
9130,-112,-31,221,57,-1,-13
9135,-113,-29,218,56,-1,-10
9140,-111,-33,220,54,0,-9
9145,-114,-31,219,53,0,-9
9150,-113,-26,217,51,1,-9
9155,-112,-32,219,51,-1,-7
9160,-113,-31,227,50,-2,-9
9165,-111,-30,221,50,-5,-9
9170,-111,-32,219,52,-8,-7
9175,-112,-29,218,53,-10,-9
9180,-113,-31,220,53,-12,-12
9185,-112,-30,218,51,-12,-11
9190,-111,-29,216,50,-12,-11
9195,-112,-32,221,49,-12,-12
9200,-110,-31,227,49,-9,-11
9205,-111,-30,220,46,-9,-12
9210,-110,-33,223,44,-8,-10
9215,-112,-28,220,44,-8,-12
9220,-111,-32,221,45,-9,-13
9225,-114,-32,221,47,-8,-12
9230,-111,-30,223,52,-9,-12
9235,-112,-32,224,54,-9,-14
9240,-113,-31,225,55,-9,-14
9245,-110,-32,221,57,-8,-14
9250,-112,-33,220,56,-8,-14
9255,-111,-30,219,57,-6,-14
9260,-112,-30,221,57,-7,-13
9265,-111,-32,218,56,-4,-14
9270,-115,-36,226,55,-3,-12
9275,-111,-32,224,54,-1,-12
9280,-111,-33,219,55,-1,-15
9285,-110,-31,220,56,1,-14
9290,-111,-29,218,55,1,-12
9295,-110,-30,219,54,1,-13
9300,-112,-29,221,52,1,-14
9305,-109,-32,220,50,2,-11
9310,-113,-28,221,47,2,-10
9315,-111,-31,220,45,3,-13
9320,-113,-29,219,46,3,-12
9325,-107,-35,225,46,1,-11
9330,-111,-33,220,48,0,-11
9335,-113,-30,220,50,-1,-12
9340,-112,-27,225,52,-2,-14
9345,-109,-33,221,51,-1,-13
9350,-111,-31,220,50,-2,-14
9355,-111,-26,215,50,1,-15
9360,-112,-31,219,47,4,-14
9365,-107,-33,223,44,7,-13
9370,-107,-32,227,42,9,-12
9375,-111,-32,222,42,11,-13
9380,-112,-31,217,40,13,-11
9385,-109,-30,222,42,15,-10
9390,-110,-29,221,45,15,-10
9395,-110,-31,223,48,11,-8
9400,-110,-28,221,53,5,-9
9405,-112,-30,220,56,0,-8
9410,-109,-29,220,57,-5,-10
9415,-111,-31,217,56,-7,-10
9420,-109,-33,225,57,-11,-13
9425,-113,-31,219,56,-12,-12
9430,-111,-30,224,54,-12,-12
9435,-112,-30,218,53,-12,-11
9440,-112,-31,222,50,-10,-11
9445,-112,-30,217,48,-7,-9
9450,-110,-31,223,47,-3,-6
9455,-109,-28,218,46,1,-6
9460,-109,-33,220,45,4,-5
9465,-110,-31,221,45,5,-5
9470,-109,-32,219,46,7,-5
9475,-106,-34,219,48,8,-4
9480,-114,-28,218,49,11,-5
9485,-109,-32,221,49,11,-6
9490,-114,-32,227,48,11,-5
9495,-111,-29,219,47,12,-7
9500,-111,-30,219,48,11,-9
9505,-111,-31,222,47,9,-8
9510,-110,-29,223,47,8,-10
9515,-109,-32,220,48,6,-11
9520,-109,-33,224,48,5,-10
9525,-113,-28,219,49,4,-12
9530,-111,-27,224,48,2,-13
9535,-115,-30,218,47,2,-14
9540,-110,-35,219,47,3,-16
9545,-111,-27,216,45,3,-14
9550,-112,-31,223,45,4,-14
9555,-109,-31,223,47,3,-15
9560,-110,-30,218,47,3,-16
9565,-107,-35,218,47,3,-15
9570,-113,-31,221,48,3,-15
9575,-112,-31,222,48,2,-14
9580,-110,-31,221,48,3,-14
9585,-106,-34,222,49,2,-13
9590,-109,-32,220,50,1,-13
9595,-111,-32,221,50,2,-14
9600,-106,-33,220,51,1,-15
9605,-106,-29,223,50,-1,-14
9610,-112,-29,220,49,-2,-15
9615,-108,-32,223,48,-3,-14
9620,-109,-29,219,48,-3,-16
9625,-111,-29,220,49,-1,-17
9630,-108,-31,222,48,-1,-16
9635,-105,-33,220,46,0,-16
9640,-108,-33,219,44,1,-16
9645,-106,-30,222,42,2,-16
9650,-111,-33,215,41,2,-17
9655,-110,-31,219,41,2,-16
9660,-108,-33,223,42,-1,-18
9665,-108,-34,217,44,0,-17
9670,-110,-30,220,46,-2,-16
9675,-109,-31,221,48,-6,-17
9680,-108,-33,223,50,-9,-16
9685,-110,-32,222,52,-12,-17
9690,-111,-32,222,52,-13,-18
9695,-108,-36,219,55,-14,-17
9700,-110,-34,221,56,-15,-18
9705,-111,-34,217,56,-16,-18
9710,-108,-31,221,55,-15,-18
9715,-110,-30,223,57,-14,-17
9720,-110,-30,224,57,-14,-18
9725,-109,-32,222,54,-11,-17
9730,-109,-32,220,54,-10,-16
9735,-110,-34,224,53,-8,-15
9740,-106,-34,221,53,-7,-15
9745,-108,-37,221,55,-5,-15
9750,-109,-31,225,57,-5,-16
9755,-106,-32,221,57,-4,-14
9760,-112,-38,220,57,-3,-14
9765,-107,-29,221,58,-2,-13
9770,-109,-26,221,57,-2,-12
9775,-108,-29,225,54,-2,-13
9780,-108,-30,219,54,-3,-13
9785,-109,-32,221,52,-3,-13
9790,-107,-33,224,51,-3,-13
9795,-109,-29,221,51,-2,-12
9800,-114,-30,220,53,-2,-15
9805,-107,-32,222,53,-1,-15
9810,-107,-32,224,53,-1,-13
9815,-111,-24,214,53,1,-13
9820,-108,-32,221,54,1,-16
9825,-109,-30,218,56,2,-17
9830,-111,-29,222,56,3,-18
9835,-108,-29,222,58,5,-16
9840,-108,-29,221,58,5,-16
9845,-105,-30,221,58,4,-15
9850,-107,-28,221,56,6,-13
9855,-108,-30,219,54,5,-13
9860,-107,-30,221,54,6,-14
9865,-108,-30,223,50,6,-13
9870,-111,-30,219,47,7,-12
9875,-104,-30,223,46,8,-10
9880,-108,-32,225,47,10,-11
9885,-108,-33,225,46,10,-10
9890,-105,-34,222,47,14,-12
9895,-109,-33,225,47,17,-12
9900,-106,-29,223,47,18,-13
9905,-109,-27,221,47,19,-12
9910,-109,-30,219,45,19,-10
9915,-109,-26,220,43,19,-9
9920,-108,-30,217,39,18,-7
9925,-110,-28,223,33,18,-6
9930,-108,-31,215,29,17,-4
9935,-107,-27,220,27,18,-6
9940,-108,-31,219,28,22,-6
9945,-105,-32,222,29,23,-7
9950,-107,-32,225,31,24,-7
9955,-106,-31,218,33,26,-7
9960,-106,-35,223,35,25,-7
9965,-106,-36,225,39,27,-7
9970,-106,-36,224,43,27,-9
9975,-105,-33,221,47,27,-7
9980,-111,-35,219,51,27,-10
9985,-107,-34,220,54,27,-11
9990,-108,-32,220,56,26,-12
9995,-110,-31,222,59,27,-13
10000,-104,-37,221,62,26,-13
10005,-108,-34,221,64,27,-14
10010,-110,-29,224,66,26,-16
10015,-106,-33,228,69,25,-17
10020,-112,-31,224,70,24,-17
10025,-107,-32,227,73,24,-17
10030,-107,-32,225,72,24,-18
10035,-110,-33,222,68,25,-16
10040,-111,-30,226,65,28,-16
10045,-108,-30,222,63,32,-18
10050,-109,-34,222,57,38,-17
10055,-110,-33,223,53,44,-17
10060,-109,-34,220,49,50,-16
10065,-107,-32,213,46,55,-14
10070,-107,-32,217,45,58,-13
10075,-109,-31,216,44,58,-9
10080,-108,-27,222,45,57,-8
10085,-111,-28,218,46,53,-6
10090,-110,-29,226,46,49,-3
10095,-115,-29,218,47,44,1
10100,-113,-28,219,46,40,3
10105,-112,-30,219,46,36,5
10110,-109,-33,222,49,32,7
10115,-115,-29,222,48,29,7
10120,-113,-26,221,51,23,8
10125,-114,-30,226,52,20,9
10130,-114,-36,218,52,16,8
10135,-111,-34,220,51,14,9
10140,-113,-34,221,49,14,8
10145,-112,-31,222,47,14,3
10150,-113,-33,222,44,16,0
10155,-111,-33,218,43,20,-3
10160,-113,-31,220,40,23,-6
10165,-110,-31,221,36,27,-9
10170,-112,-32,218,35,32,-9
10175,-111,-29,215,33,33,-9
10180,-111,-31,220,34,33,-7
10185,-109,-30,219,36,32,-5
10190,-107,-32,223,41,29,-1
10195,-115,-30,213,45,26,2
10200,-112,-31,219,49,23,4
10205,-111,-31,217,55,20,3
10210,-108,-29,217,60,18,4
10215,-110,-29,219,63,16,5
10220,-111,-29,219,63,13,2
10225,-112,-29,221,64,13,2
10230,-109,-27,222,62,11,1
10235,-110,-27,216,59,11,0
10240,-112,-30,221,56,12,-2
10245,-109,-29,215,51,15,-6
10250,-110,-29,217,46,16,-7
10255,-111,-30,221,44,19,-8
10260,-110,-31,221,43,20,-10
10265,-109,-33,222,43,20,-9
10270,-111,-34,222,45,21,-8
10275,-113,-32,222,49,21,-9
10280,-114,-33,225,53,21,-7
10285,-113,-33,222,54,21,-6
10290,-112,-31,222,57,20,-4
10295,-113,-30,222,60,20,-4
10300,-113,-32,221,60,21,-4
10305,-109,-32,233,61,22,-2
10310,-112,-33,222,59,24,-2
10315,-114,-34,223,58,25,-3
10320,-113,-33,219,58,28,-4
10325,-109,-32,218,55,29,-7
10330,-113,-32,217,53,30,-6
10335,-113,-32,223,53,32,-7
10340,-112,-34,215,54,29,-6
10345,-113,-30,217,54,27,-5
10350,-112,-34,219,56,22,-4
10355,-114,-34,215,56,20,-3
10360,-109,-35,223,57,16,-4
10365,-111,-28,216,58,13,-4
10370,-113,-30,220,56,12,-3
10375,-114,-29,218,56,11,-4
10380,-112,-30,221,56,8,-5
10385,-111,-31,219,52,9,-5
10390,-114,-28,221,50,9,-6
10395,-110,-31,218,44,9,-7
10400,-113,-32,218,39,11,-10
10405,-113,-29,221,37,15,-12
10410,-111,-31,221,34,16,-12
10415,-110,-33,222,31,21,-11
10420,-109,-31,218,29,23,-10
10425,-111,-32,220,27,27,-9
10430,-109,-33,222,24,27,-7
10435,-116,-30,222,23,30,-5
10440,-111,-31,221,24,28,-3
10445,-111,-31,223,25,27,-2
10450,-115,-33,220,27,25,-1
10455,-110,-32,223,30,23,-1
10460,-108,-31,221,34,22,-1
10465,-111,-34,224,37,21,-3
10470,-112,-30,224,38,21,-2
10475,-109,-38,219,41,21,-5
10480,-111,-32,221,43,22,-6
10485,-109,-35,225,44,24,-9
10490,-111,-34,222,44,26,-10
10495,-115,-31,216,44,31,-13
10500,-108,-31,221,46,36,-15
10505,-114,-30,217,46,39,-17
10510,-111,-26,218,45,40,-13
10515,-111,-29,222,44,39,-9
10520,-111,-25,221,41,37,-7
10525,-105,-34,215,40,36,-3
10530,-111,-27,219,38,35,0
10535,-111,-29,222,40,32,3
10540,-111,-26,218,39,29,5
10545,-112,-28,216,39,26,3
10550,-114,-27,214,40,24,4
10555,-111,-30,220,39,24,2
10560,-110,-32,217,39,24,-1
10565,-113,-31,223,37,22,-1
10570,-110,-33,221,35,20,-2
10575,-112,-31,220,36,18,-5
10580,-110,-32,215,35,18,-7
10585,-113,-33,221,34,19,-10
10590,-111,-32,222,35,19,-9
10595,-113,-34,223,35,20,-12
10600,-113,-30,223,35,22,-15
10605,-112,-35,218,35,23,-15
10610,-111,-34,223,35,25,-14
10615,-113,-31,223,37,26,-14
10620,-114,-33,214,40,29,-14
10625,-110,-31,220,43,31,-12
10630,-114,-33,217,45,31,-11
10635,-110,-34,220,47,30,-12
10640,-110,-36,220,49,30,-10
10645,-113,-32,218,50,30,-9
10650,-115,-33,221,53,30,-9
10655,-113,-34,217,55,30,-8
10660,-113,-32,220,53,30,-7
10665,-112,-34,224,54,29,-6
10670,-115,-32,222,55,28,-5
10675,-113,-31,222,55,28,-6
10680,-114,-34,220,54,28,-6
10685,-115,-33,218,54,27,-5
10690,-113,-35,218,53,27,-7
10695,-117,-33,221,50,30,-9
10700,-116,-29,220,47,31,-13
10705,-116,-31,220,45,34,-15
10710,-113,-33,216,44,37,-18
10715,-115,-31,218,44,38,-18
10720,-112,-31,216,45,35,-17
10725,-115,-31,216,46,29,-14
10730,-119,-32,214,47,23,-10
10735,-115,-32,218,47,19,-8
10740,-117,-31,220,47,16,-7
10745,-117,-30,215,48,14,-5
10750,-113,-30,211,45,12,-3
10755,-115,-30,215,41,11,-1
10760,-112,-27,216,37,13,-2
10765,-114,-29,218,32,12,-2
10770,-114,-30,218,27,13,-4
10775,-109,-34,224,25,14,-6
10780,-110,-34,221,26,13,-8
10785,-111,-38,222,29,13,-12
10790,-112,-31,220,31,15,-15
10795,-111,-30,226,36,16,-18
10800,-113,-35,217,43,16,-20
10805,-116,-32,220,48,15,-21
10810,-113,-33,215,50,15,-21
10815,-114,-30,222,49,15,-20
10820,-115,-32,221,50,16,-20
10825,-111,-33,220,47,18,-16
10830,-110,-34,222,46,19,-14
10835,-110,-30,218,44,20,-10
10840,-108,-32,220,43,21,-7
10845,-113,-28,221,42,23,-5
10850,-105,-30,214,42,25,-1
10855,-115,-30,218,40,26,-1
10860,-112,-30,220,40,27,0
10865,-114,-29,218,38,27,-1
10870,-115,-30,218,37,30,-3
10875,-114,-30,220,36,33,-7
10880,-110,-32,221,34,37,-9
10885,-112,-32,221,34,40,-12
10890,-114,-31,220,32,43,-14
10895,-109,-29,225,30,44,-16
10900,-111,-32,223,27,45,-16
10905,-113,-32,228,27,45,-17
10910,-109,-31,218,25,41,-18
10915,-113,-33,217,24,38,-15
10920,-109,-31,215,24,34,-13
10925,-113,-31,217,25,29,-12
10930,-111,-32,218,28,24,-12
10935,-114,-31,217,27,20,-11
10940,-113,-33,217,28,17,-10
10945,-113,-35,219,31,14,-9
10950,-113,-32,217,30,13,-9
10955,-112,-34,220,30,13,-10
10960,-114,-23,221,30,15,-10
10965,-110,-31,218,28,17,-10
10970,-116,-30,218,28,19,-10
10975,-114,-33,218,26,21,-11
10980,-113,-31,220,26,25,-13
10985,-111,-32,224,25,27,-13
10990,-113,-33,222,27,28,-14
10995,-112,-35,217,28,31,-13
11000,-112,-35,218,30,32,-13
11005,-112,-33,223,31,32,-11
11010,-115,-34,224,30,33,-9
11015,-117,-31,223,29,33,-8
11020,-113,-33,220,30,32,-7
11025,-112,-33,219,31,30,-9
11030,-113,-29,223,31,29,-6
11035,-115,-32,219,30,29,-4
11040,-115,-33,217,30,29,-6
11045,-116,-33,219,29,30,-6
11050,-112,-36,217,31,30,-4
11055,-113,-39,220,33,31,-4
11060,-117,-35,221,36,31,-4
11065,-119,-32,219,40,28,-3
11070,-118,-38,217,43,26,-5
11075,-116,-35,217,45,23,-5
11080,-117,-38,220,48,22,-7
11085,-117,-35,220,50,22,-10
11090,-115,-35,216,51,21,-11
11095,-116,-34,218,51,22,-14
11100,-117,-33,213,53,24,-14
11105,-120,-31,215,52,22,-13
11110,-114,-37,215,51,21,-12
11115,-118,-32,218,50,18,-9
11120,-115,-35,218,49,16,-8
11125,-114,-31,213,48,13,-6
11130,-117,-32,217,50,12,-6
11135,-116,-36,214,51,11,-6
11140,-117,-36,221,52,11,-5
11145,-116,-34,222,53,9,-4
11150,-115,-36,222,54,11,-9
11155,-118,-34,218,58,11,-9
11160,-117,-34,216,59,11,-9
11165,-114,-34,219,63,13,-11
11170,-113,-35,219,64,12,-10
11175,-114,-30,219,63,10,-10
11180,-120,-33,217,64,9,-9
11185,-117,-32,218,65,8,-10
11190,-114,-34,217,66,4,-9
11195,-114,-32,219,67,0,-9
11200,-114,-34,216,67,-2,-7
11205,-117,-31,216,67,-4,-8
11210,-115,-34,217,66,-6,-9
11215,-114,-36,218,67,-6,-9
11220,-114,-33,222,67,-7,-10
11225,-115,-34,216,68,-8,-12
11230,-115,-34,218,68,-7,-13
11235,-118,-33,216,67,-8,-15
11240,-115,-34,218,66,-5,-14
11245,-112,-32,219,64,-3,-14
11250,-115,-31,216,64,-3,-14
11255,-114,-33,219,60,-2,-12
11260,-117,-33,217,59,-2,-12
11265,-113,-30,219,57,-1,-12
11270,-117,-30,217,57,-1,-9
11275,-114,-30,215,58,-3,-8
11280,-114,-33,218,57,-2,-9
11285,-115,-33,218,58,-5,-9
11290,-117,-34,216,59,-6,-9
11295,-115,-33,219,60,-7,-10
11300,-114,-35,219,61,-7,-9
11305,-114,-35,219,61,-8,-10
11310,-113,-33,219,60,-9,-11
11315,-117,-29,218,62,-9,-11
11320,-111,-31,221,62,-8,-11
11325,-111,-32,219,62,-8,-11
11330,-112,-30,218,61,-7,-10
11335,-115,-30,223,60,-7,-8
11340,-108,-42,212,59,-6,-8
11345,-114,-31,219,59,-5,-7
11350,-112,-29,221,59,-6,-6
11355,-112,-32,219,57,-7,-7
11360,-112,-33,218,55,-5,-8
11365,-112,-31,221,55,-5,-7
11370,-112,-34,221,55,-4,-7
11375,-112,-31,219,56,-5,-7
11380,-114,-34,223,58,-4,-5
11385,-112,-36,224,58,-3,-6
11390,-111,-35,224,58,-4,-7
11395,-114,-33,218,59,-1,-7
11400,-113,-31,220,58,2,-7
11405,-111,-33,220,58,5,-7
11410,-112,-30,216,56,7,-6
11415,-113,-30,219,55,11,-6
11420,-112,-34,219,53,12,-5
11425,-112,-31,221,51,13,-4
11430,-109,-31,218,51,13,-6
11435,-108,-36,222,51,12,-4
11440,-111,-34,220,51,13,-7
11445,-111,-33,217,52,12,-6
11450,-110,-35,220,54,11,-6
11455,-113,-31,222,52,10,-4
11460,-109,-34,220,53,12,-6
11465,-111,-34,222,52,12,-7
11470,-113,-34,216,53,13,-7
11475,-111,-34,220,52,13,-6
11480,-116,-32,217,50,16,-4
11485,-113,-28,221,49,18,-3
11490,-115,-29,217,50,19,-4
11495,-115,-32,221,49,20,-4
11500,-112,-34,216,50,22,-4
11505,-113,-34,219,49,21,-4
11510,-113,-29,219,48,20,-6
11515,-115,-31,218,45,20,-6
11520,-116,-32,217,44,23,-5
11525,-117,-32,222,45,24,-4
11530,-114,-33,217,43,25,-3
11535,-113,-33,220,38,28,-3
11540,-110,-36,221,38,30,-4
11545,-115,-32,220,38,31,0
11550,-112,-35,222,40,34,-1
11555,-114,-32,217,44,35,-2
11560,-110,-25,219,47,34,-1
11565,-110,-36,216,51,31,-1
11570,-110,-35,218,55,28,-3
11575,-114,-35,218,58,23,-4
11580,-112,-34,216,63,20,-6
11585,-117,-32,219,63,17,-5
11590,-111,-33,221,60,15,-8
11595,-117,-32,223,59,12,-5
11600,-111,-32,220,56,12,-5
11605,-114,-32,215,54,12,-5
11610,-114,-31,216,54,15,-4
11615,-119,-32,215,55,17,-4
11620,-115,-28,217,55,19,-1
11625,-116,-30,221,55,19,1
11630,-114,-33,217,55,21,0
11635,-114,-34,216,54,22,2
11640,-116,-31,217,53,22,2
11645,-115,-33,219,54,23,1
11650,-118,-33,215,52,23,2
11655,-115,-29,217,50,25,0
11660,-116,-32,217,49,23,-1
11665,-119,-31,215,47,23,-3
11670,-116,-32,221,45,22,-4
11675,-116,-32,221,43,20,-5
11680,-115,-31,220,43,19,-5
11685,-116,-32,214,42,17,-6
11690,-117,-32,218,43,17,-6
11695,-118,-33,217,43,16,-7
11700,-117,-29,217,43,16,-9
11705,-117,-29,217,45,14,-8
11710,-114,-34,219,46,13,-8
11715,-116,-32,219,48,12,-7
11720,-116,-32,220,48,12,-8
11725,-114,-34,219,49,12,-10
11730,-113,-34,218,51,13,-10
11735,-114,-31,223,52,12,-11
11740,-118,-31,218,54,14,-10
11745,-115,-31,218,56,14,-11
11750,-115,-36,216,56,13,-12
11755,-115,-31,218,56,15,-13
11760,-117,-31,216,55,15,-12
11765,-114,-32,217,53,14,-10
11770,-113,-35,219,55,12,-9
11775,-116,-27,219,54,10,-10
11780,-115,-30,218,53,9,-9
11785,-113,-32,218,53,10,-12
11790,-114,-34,217,54,10,-10
11795,-113,-32,218,54,10,-8
11800,-113,-31,218,56,9,-8
11805,-112,-33,218,55,10,-8
11810,-118,-29,216,53,11,-8
11815,-114,-34,220,52,14,-8
11820,-117,-33,222,50,15,-8
11825,-113,-32,221,50,18,-9
11830,-118,-30,214,51,18,-8
11835,-110,-34,218,51,17,-7
11840,-110,-33,219,52,17,-6
11845,-115,-32,220,53,15,-5
11850,-115,-33,217,52,13,-6
11855,-114,-33,220,52,13,-8
11860,-113,-36,219,53,10,-7
11865,-115,-35,220,51,10,-9
11870,-113,-31,220,52,10,-9
11875,-115,-31,217,52,10,-9
11880,-116,-30,220,50,10,-8
11885,-122,-37,223,51,9,-10
11890,-114,-35,220,50,10,-8
11895,-114,-35,216,49,12,-8
11900,-115,-31,219,49,11,-11
11905,-114,-35,219,51,12,-9
11910,-116,-34,218,53,13,-10
11915,-113,-32,218,53,14,-9
11920,-118,-30,223,54,15,-9
11925,-117,-32,214,53,15,-8
11930,-115,-31,213,53,16,-7
11935,-115,-32,217,52,18,-8
11940,-117,-35,223,50,19,-9
11945,-114,-33,220,50,19,-10
11950,-115,-33,217,51,19,-9
11955,-116,-29,222,51,19,-9
11960,-113,-32,222,51,18,-9
11965,-114,-30,219,51,14,-8
11970,-113,-28,218,50,14,-10
11975,-111,-35,221,49,13,-11
11980,-114,-34,217,50,13,-11
11985,-115,-30,218,53,14,-11
11990,-115,-30,216,53,14,-10
11995,-118,-29,215,52,15,-11
12000,-113,-29,221,53,15,-9
12005,-118,-28,221,53,16,-11
12010,-113,-33,218,52,18,-9
12015,-114,-31,216,51,18,-9
12020,-115,-30,218,50,18,-9
12025,-114,-29,219,49,18,-9
12030,-115,-33,221,49,20,-9
12035,-115,-34,219,49,20,-8
12040,-112,-31,217,49,19,-10
12045,-116,-31,218,50,19,-8
12050,-115,-32,221,50,18,-8
12055,-114,-34,220,49,16,-8
12060,-113,-35,223,49,16,-7
12065,-115,-33,218,49,14,-7
12070,-113,-32,220,50,13,-9
12075,-111,-35,220,50,13,-8
12080,-115,-33,217,51,14,-9
12085,-114,-31,221,51,14,-7
12090,-112,-35,221,52,13,-7
12095,-115,-35,219,52,13,-7
12100,-115,-35,221,52,15,-7
12105,-120,-32,227,53,17,-9
12110,-115,-30,216,53,17,-8
12115,-113,-33,218,52,18,-8
12120,-114,-34,220,52,18,-6
12125,-115,-29,216,50,17,-6
12130,-112,-32,215,48,17,-5
12135,-115,-31,216,48,17,-5
12140,-112,-33,217,48,16,-5
12145,-115,-33,219,49,15,-4
12150,-115,-32,217,49,13,-4
12155,-115,-31,215,50,12,-4
12160,-116,-34,219,49,11,-3
12165,-115,-35,220,49,12,-4
12170,-117,-33,217,50,12,-6
12175,-114,-32,222,50,15,-6
12180,-116,-33,218,49,18,-6
12185,-115,-33,217,50,19,-5
12190,-116,-30,220,50,18,-4
12195,-115,-30,220,51,18,-5
12200,-112,-33,219,52,18,-4
12205,-115,-35,220,52,18,-4
12210,-113,-27,213,52,18,-5
12215,-116,-29,216,51,18,-5
12220,-116,-30,215,51,20,-5
12225,-116,-29,219,50,21,-5
12230,-116,-33,219,50,21,-8
12235,-112,-29,221,49,21,-9
12240,-117,-31,216,48,21,-7
12245,-117,-32,218,46,22,-7
12250,-114,-32,219,45,21,-8
12255,-116,-32,218,43,21,-5
12260,-117,-33,217,42,21,-6
12265,-118,-24,219,41,22,-5
12270,-115,-31,218,39,22,-5
12275,-114,-29,218,38,21,-3
12280,-114,-32,218,35,21,-5
12285,-115,-31,215,34,22,-4
12290,-114,-29,219,34,24,-6
12295,-115,-32,217,33,25,-5
12300,-117,-33,217,35,28,-6
12305,-115,-32,217,35,28,-4
12310,-113,-30,222,36,28,-4
12315,-114,-32,214,35,28,-4
12320,-112,-27,221,32,28,-4
12325,-115,-30,217,30,29,-5
12330,-114,-34,220,26,31,-5
12335,-115,-30,214,24,32,-6
12340,-114,-29,223,22,33,-4
12345,-113,-32,219,21,32,-3
12350,-114,-34,221,20,33,-2
12355,-111,-34,219,20,34,-2
12360,-114,-36,221,23,36,-5
12365,-114,-33,213,25,38,-5
12370,-115,-37,221,27,39,-5
12375,-106,-34,211,30,40,-3
12380,-114,-36,219,34,37,-2
12385,-112,-34,216,38,35,-3
12390,-117,-34,217,41,34,-4
12395,-113,-34,219,43,33,-2
12400,-115,-33,218,43,31,-4
12405,-112,-37,214,42,32,-3
12410,-116,-33,217,39,32,-2
12415,-117,-33,219,35,31,-2
12420,-117,-30,213,33,32,-3
12425,-116,-33,217,32,33,-2
12430,-116,-26,219,33,33,-2
12435,-114,-35,217,31,35,0
12440,-118,-33,215,32,37,2
12445,-115,-35,215,33,39,1
12450,-116,-33,217,36,39,3
12455,-117,-31,216,37,38,4
12460,-116,-34,222,40,39,3
12465,-115,-31,215,41,38,3
12470,-115,-32,217,40,40,2
12475,-115,-34,217,41,41,1
12480,-117,-32,221,41,39,-1
12485,-114,-39,221,42,37,0
12490,-115,-35,221,41,36,-2
12495,-117,-35,216,41,34,-5
12500,-117,-33,215,42,33,-5
12505,-120,-32,216,44,33,-6
12510,-116,-34,215,45,31,-7
12515,-120,-33,214,47,31,-8
12520,-119,-33,213,47,31,-8
12525,-113,-34,215,48,31,-9
12530,-122,-34,215,50,32,-9
12535,-118,-34,216,51,31,-11
12540,-121,-34,215,51,32,-10
12545,-119,-31,216,51,32,-10
12550,-120,-33,218,51,31,-8
12555,-117,-31,215,50,32,-8
12560,-118,-33,214,50,31,-8
12565,-120,-32,215,49,29,-8
12570,-119,-32,213,50,29,-7
12575,-119,-28,212,49,27,-7
12580,-117,-34,219,49,23,-6
12585,-120,-31,223,49,22,-7
12590,-121,-31,219,51,20,-7
12595,-118,-33,218,51,17,-10
12600,-120,-37,217,53,18,-10
12605,-117,-36,215,52,18,-10
12610,-117,-36,218,52,19,-10
12615,-120,-32,212,52,20,-8
12620,-117,-35,218,49,20,-8
12625,-116,-35,217,45,21,-8
12630,-120,-33,214,44,21,-5
12635,-117,-34,215,43,23,-5
12640,-117,-34,221,43,24,-5
12645,-118,-29,218,43,24,-4
12650,-112,-31,217,41,23,-4
12655,-116,-34,218,41,22,-4
12660,-116,-35,215,40,20,-5
12665,-119,-29,212,41,20,-5
12670,-117,-29,215,42,20,-7
12675,-119,-32,217,42,21,-7
12680,-118,-32,213,41,22,-5
12685,-118,-33,220,39,23,-6
12690,-119,-34,216,36,24,-4
12695,-115,-35,217,32,25,-5
12700,-119,-34,225,28,25,-5
12705,-118,-37,218,26,25,-4
12710,-117,-31,219,24,28,-5
12715,-116,-34,220,22,30,-5
12720,-114,-32,217,23,34,-6
12725,-117,-30,218,24,39,-4
12730,-117,-30,219,23,44,-3
12735,-116,-34,219,22,46,-3
12740,-118,-32,219,20,47,0
12745,-113,-32,215,18,48,2
12750,-121,-32,219,16,46,4
12755,-116,-31,213,17,46,6
12760,-116,-34,213,17,44,8
12765,-117,-33,214,18,44,12
12770,-115,-34,213,18,44,11
12775,-116,-32,217,18,45,10
12780,-117,-32,218,16,47,10
12785,-115,-35,220,16,48,9
12790,-116,-36,217,14,48,10
12795,-117,-32,220,16,48,9
12800,-116,-36,220,18,48,9
12805,-116,-35,219,21,45,7
12810,-115,-39,216,22,46,6
12815,-117,-35,220,23,47,6
12820,-114,-36,221,26,49,4
12825,-117,-33,216,28,49,3
12830,-119,-33,218,30,50,2
12835,-118,-35,212,32,51,1
12840,-116,-36,215,33,50,0
12845,-117,-38,220,34,50,-2
12850,-113,-36,215,35,50,-2
12855,-115,-35,215,37,49,-3
12860,-117,-35,216,40,48,-2
12865,-121,-38,210,44,46,-3
12870,-116,-37,214,47,45,-5
12875,-119,-36,215,51,44,-6
12880,-119,-36,220,52,45,-7
12885,-121,-37,214,55,45,-6
12890,-120,-34,215,57,45,-7
12895,-118,-40,217,59,44,-10
12900,-122,-31,217,59,46,-10
12905,-119,-36,213,60,45,-10
12910,-118,-36,218,62,45,-11
12915,-115,-34,215,62,44,-11
12920,-125,-33,206,64,42,-12
12925,-124,-33,213,64,40,-12
12930,-121,-33,217,66,37,-11
12935,-121,-38,211,66,36,-11
12940,-122,-35,214,65,37,-12
12945,-121,-36,211,67,35,-10
12950,-124,-35,214,68,34,-11
12955,-122,-36,216,68,34,-12
12960,-125,-34,210,66,34,-12
12965,-124,-34,209,65,35,-10
12970,-122,-35,213,64,32,-11
12975,-124,-32,216,65,31,-11
12980,-124,-34,216,63,30,-11
12985,-124,-34,215,63,28,-11
12990,-124,-33,214,62,25,-11
12995,-125,-32,216,62,23,-11
13000,-125,-35,213,60,20,-12
13005,-125,-33,213,57,18,-12
13010,-123,-33,209,56,19,-10
13015,-125,-32,213,55,17,-11
13020,-124,-31,219,55,17,-10
13025,-124,-33,214,58,14,-11
13030,-120,-34,215,58,11,-9
13035,-124,-29,215,61,9,-9
13040,-122,-34,216,64,5,-9
13045,-126,-32,215,62,4,-10
13050,-122,-34,214,63,1,-11
13055,-122,-33,214,62,3,-13
13060,-123,-32,211,61,3,-13
13065,-123,-35,214,59,2,-14
13070,-124,-32,215,57,3,-14
13075,-121,-33,214,55,4,-13
13080,-123,-32,216,54,5,-13
13085,-118,-35,210,54,3,-12
13090,-120,-34,213,53,3,-10
13095,-121,-32,216,52,1,-10
13100,-124,-33,213,53,-1,-10
13105,-120,-34,216,54,-4,-9
13110,-120,-31,215,55,-5,-11
13115,-119,-34,220,52,-7,-11
13120,-122,-33,218,51,-7,-13
13125,-118,-32,213,50,-6,-12
13130,-120,-32,217,48,-5,-12
13135,-122,-35,214,46,-5,-13
13140,-115,-36,219,47,-4,-13
13145,-119,-33,211,46,-6,-11
13150,-120,-34,216,48,-7,-12
13155,-119,-32,215,49,-9,-11
13160,-119,-34,215,48,-9,-10
13165,-118,-34,217,48,-10,-10
13170,-121,-29,217,46,-9,-10
13175,-121,-33,215,45,-6,-10
13180,-122,-32,214,43,-3,-11
13185,-120,-35,212,41,-2,-10
13190,-121,-33,218,39,1,-10
13195,-118,-34,218,38,3,-12
13200,-118,-38,217,40,4,-12
13205,-118,-34,216,41,5,-13
13210,-118,-36,214,44,5,-12
13215,-119,-33,214,47,2,-11
13220,-118,-35,216,50,1,-9
13225,-121,-33,218,53,-2,-7
13230,-119,-32,215,54,-5,-9
13235,-120,-33,217,54,-5,-7
13240,-121,-32,217,53,-4,-10
13245,-119,-37,215,50,-4,-9
13250,-120,-31,218,49,-1,-10
13255,-121,-35,216,48,0,-11
13260,-117,-34,214,47,5,-11
13265,-116,-32,213,46,9,-10
13270,-117,-36,216,44,10,-10
13275,-118,-34,218,44,12,-9
13280,-117,-34,216,45,14,-11
13285,-120,-33,216,45,15,-8
13290,-115,-37,212,47,16,-9
13295,-119,-32,215,49,17,-9
13300,-124,-35,214,49,18,-8
13305,-119,-32,218,53,17,-9
13310,-117,-33,218,54,17,-10
13315,-118,-34,216,56,16,-9
13320,-115,-37,218,56,16,-10
13325,-119,-34,216,55,16,-11
13330,-118,-34,218,53,16,-13
13335,-119,-35,217,51,18,-12
13340,-118,-31,218,51,18,-12
13345,-121,-30,217,50,17,-10
13350,-120,-35,214,51,17,-11
13355,-120,-36,216,53,16,-12
13360,-120,-33,217,53,16,-11
13365,-118,-35,216,55,15,-10
13370,-121,-34,214,55,16,-11
13375,-122,-35,214,55,19,-12
13380,-120,-33,215,57,19,-12
13385,-119,-34,219,56,21,-10
13390,-119,-36,214,56,20,-10
13395,-120,-34,215,54,20,-11
13400,-122,-33,215,53,22,-10
13405,-118,-32,215,53,23,-10
13410,-122,-38,212,52,22,-8
13415,-120,-34,214,53,22,-8
13420,-122,-33,218,52,21,-9
13425,-121,-32,217,53,21,-10
13430,-121,-34,213,54,21,-11
13435,-120,-32,213,54,20,-11
13440,-120,-34,215,56,19,-10
13445,-120,-32,215,56,18,-7
13450,-117,-38,214,56,18,-9
13455,-121,-29,210,55,17,-8
13460,-119,-36,218,53,17,-7
13465,-122,-40,215,50,17,-8
13470,-123,-33,216,49,16,-8
13475,-124,-32,215,47,18,-8
13480,-122,-32,215,47,16,-7
13485,-122,-32,215,47,14,-7
13490,-120,-33,218,49,13,-8
13495,-122,-34,215,50,12,-9
13500,-123,-35,213,50,11,-9
13505,-124,-35,213,50,11,-10
13510,-120,-37,216,52,11,-9
13515,-122,-33,214,53,10,-9
13520,-121,-36,213,55,10,-9
13525,-122,-30,214,55,10,-9
13530,-122,-32,216,57,9,-8
13535,-122,-35,215,57,8,-7
13540,-121,-33,216,58,5,-6
13545,-123,-33,215,59,4,-5
13550,-123,-34,217,60,2,-4
13555,-123,-35,220,61,0,-5
13560,-123,-33,217,63,0,-7
13565,-120,-34,218,63,2,-5
13570,-118,-35,213,63,3,-6
13575,-116,-41,216,62,4,-6
13580,-121,-33,215,60,5,-4
13585,-119,-35,213,59,5,-6
13590,-118,-33,216,57,6,-4
13595,-117,-35,215,57,5,-3
13600,-120,-33,214,55,5,-5
13605,-121,-32,219,54,6,-6
13610,-121,-36,216,53,7,-6
13615,-120,-34,215,51,5,-6
13620,-122,-31,213,50,6,-6
13625,-122,-32,220,47,6,-4
13630,-117,-32,213,47,7,-5
13635,-121,-33,217,45,7,-4
13640,-120,-32,217,44,8,-7
13645,-120,-33,214,41,8,-7
13650,-120,-34,215,42,9,-7
13655,-119,-34,216,41,10,-8
13660,-118,-36,213,42,10,-6
13665,-119,-35,217,42,11,-6
13670,-122,-33,215,43,11,-7
13675,-117,-34,217,43,11,-6
13680,-122,-31,218,42,11,-5
13685,-122,-34,213,43,11,-4
13690,-120,-34,219,43,11,-6
13695,-119,-32,214,45,9,-7
13700,-122,-33,214,45,10,-5
13705,-119,-35,214,44,9,-3
13710,-121,-33,213,43,8,-4
13715,-117,-34,214,44,7,-6
13720,-119,-32,216,44,6,-5
13725,-117,-36,216,47,7,-6
13730,-118,-36,216,46,6,-6
13735,-121,-35,214,45,8,-7
13740,-119,-36,216,45,9,-9
13745,-118,-34,217,45,9,-9
13750,-121,-32,217,45,13,-9
13755,-117,-34,213,45,14,-10
13760,-119,-29,213,45,14,-9
13765,-122,-37,214,43,15,-9
13770,-121,-32,215,44,15,-9
13775,-121,-31,216,46,15,-8
13780,-120,-33,214,46,15,-8
13785,-119,-35,213,45,15,-7
13790,-115,-33,213,45,14,-7
13795,-121,-33,215,47,13,-6
13800,-118,-34,214,46,11,-4
13805,-120,-32,216,46,11,-4
13810,-121,-34,213,47,13,-6
13815,-120,-31,212,47,13,-6
13820,-120,-33,215,50,14,-6
13825,-116,-35,214,50,15,-6
13830,-119,-35,217,50,15,-9
13835,-117,-35,219,48,14,-10
13840,-122,-31,218,47,16,-10
13845,-122,-32,218,45,18,-9
13850,-119,-33,216,43,16,-8
13855,-120,-36,213,42,18,-6
13860,-119,-36,215,41,17,-6
13865,-119,-32,216,42,15,-4
13870,-120,-31,215,43,16,-3
13875,-123,-32,216,44,14,-2
13880,-118,-31,216,43,14,-3
13885,-120,-35,219,43,16,-7
13890,-122,-30,215,43,17,-6
13895,-121,-30,214,44,18,-7
13900,-117,-34,217,45,19,-5
13905,-121,-33,215,44,19,-5
13910,-120,-33,217,41,18,-5
13915,-121,-33,212,41,18,-5
13920,-118,-36,212,41,18,-5
13925,-118,-32,211,39,17,-3
13930,-121,-34,218,41,15,-3
13935,-120,-34,215,41,14,-2
13940,-118,-37,218,44,11,-3
13945,-118,-37,218,44,10,-3
13950,-122,-32,213,41,11,-5
13955,-122,-37,216,41,13,-5
13960,-114,-32,209,39,16,-6
13965,-123,-33,213,39,16,-5
13970,-121,-36,213,38,17,-6
13975,-122,-36,214,39,18,-8
13980,-121,-34,216,39,19,-8
13985,-120,-36,214,39,18,-7
13990,-123,-34,216,39,19,-7
13995,-124,-32,212,39,17,-7
14000,-126,-31,212,37,19,-6
14005,-123,-33,213,36,18,-5
14010,-116,-30,204,33,19,-3
14015,-122,-32,216,30,19,-2
14020,-122,-34,216,29,17,0
14025,-117,-36,215,29,17,-3
14030,-120,-37,217,27,17,-4
14035,-122,-38,217,27,17,-3
14040,-119,-36,218,29,21,-5
14045,-120,-33,213,31,22,-5
14050,-121,-31,211,32,21,-6
14055,-119,-32,213,34,19,-6
14060,-123,-36,217,35,17,-4
14065,-118,-36,215,35,17,-6
14070,-122,-35,216,36,16,-5
14075,-118,-36,209,36,16,-7
14080,-122,-35,211,36,16,-7
14085,-120,-34,217,36,16,-4
14090,-118,-33,215,36,16,-5
14095,-123,-30,217,35,17,-4
14100,-121,-35,218,35,17,-3
14105,-120,-34,212,37,16,0
14110,-122,-34,208,38,16,1
14115,-121,-33,211,36,15,0
14120,-117,-39,214,36,15,1
14125,-119,-33,218,38,15,-1
14130,-123,-31,214,40,14,-2
14135,-123,-34,215,40,14,-2
14140,-119,-33,217,42,14,-4
14145,-117,-35,213,43,15,-5
14150,-121,-35,212,43,15,-4
14155,-121,-34,211,46,16,-8
14160,-120,-36,215,46,14,-8
14165,-119,-36,217,48,15,-10
14170,-118,-33,213,51,14,-11
14175,-123,-34,213,52,13,-12
14180,-123,-36,212,55,13,-14
14185,-121,-36,219,57,13,-15
14190,-124,-34,217,59,11,-16
14195,-121,-35,212,60,10,-16
14200,-121,-36,213,62,10,-15
14205,-123,-35,213,62,8,-17
14210,-123,-34,218,64,7,-19
14215,-124,-32,215,66,6,-18
14220,-125,-34,210,67,5,-19
14225,-120,-38,210,66,4,-19
14230,-123,-35,217,66,4,-16
14235,-123,-34,213,65,3,-18
14240,-123,-33,215,63,2,-18
14245,-123,-32,216,61,1,-18
14250,-123,-34,213,60,1,-18
14255,-120,-35,211,60,-1,-19
14260,-123,-36,216,59,-3,-20
14265,-119,-37,213,58,-4,-18
14270,-122,-34,211,59,-7,-20
14275,-121,-37,211,60,-8,-21
14280,-121,-35,210,59,-11,-20
14285,-120,-37,213,61,-13,-20
14290,-119,-35,215,60,-13,-20
14295,-120,-33,213,60,-10,-21
14300,-121,-32,218,60,-10,-20
14305,-122,-34,216,59,-6,-19
14310,-118,-34,218,58,-5,-19
14315,-119,-33,220,56,-4,-17
14320,-119,-35,217,56,-3,-17
14325,-116,-34,215,55,-3,-17
14330,-118,-38,215,55,-5,-17
14335,-117,-37,219,54,-5,-15
14340,-119,-36,216,56,-6,-15
14345,-116,-38,212,56,-7,-15
14350,-119,-32,213,56,-8,-16
14355,-117,-34,215,54,-6,-14
14360,-118,-32,214,52,-6,-14
14365,-119,-34,216,51,-5,-14
14370,-120,-34,215,49,-6,-13
14375,-120,-33,218,48,-6,-13
14380,-119,-36,212,47,-4,-13
14385,-118,-34,216,47,-3,-14
14390,-118,-34,212,46,0,-13
14395,-121,-34,217,47,0,-13
14400,-119,-35,215,46,2,-15
14405,-117,-34,213,46,4,-15
14410,-117,-32,215,47,4,-12
14415,-119,-32,217,46,3,-13
14420,-119,-36,217,47,3,-13
14425,-118,-33,214,48,3,-12
14430,-122,-32,212,49,1,-9
14435,-122,-32,219,50,1,-9
14440,-117,-34,212,52,-1,-10
14445,-121,-32,216,53,-2,-11
14450,-119,-33,216,54,-2,-11
14455,-120,-33,212,55,-3,-12
14460,-119,-33,218,57,-4,-11
14465,-121,-35,213,59,-3,-12
14470,-119,-36,215,60,-5,-13
14475,-122,-32,217,61,-3,-13
14480,-119,-34,217,61,-5,-14
14485,-120,-37,219,60,-4,-15
14490,-117,-38,212,61,-3,-17
14495,-118,-36,217,61,-3,-18
14500,-124,-34,209,60,-3,-17
14505,-119,-35,214,61,1,-17
14510,-120,-33,215,60,3,-18
14515,-119,-35,210,60,3,-18
14520,-119,-31,215,59,4,-18
14525,-121,-32,212,60,3,-18
14530,-118,-32,216,60,3,-17
14535,-117,-35,212,59,2,-16
14540,-119,-34,216,61,0,-15
14545,-118,-33,218,61,-1,-14
14550,-120,-36,211,61,-1,-13
14555,-118,-35,217,62,-1,-14
14560,-120,-37,218,61,1,-15
14565,-116,-32,218,60,0,-14
14570,-119,-35,219,62,1,-13
14575,-118,-36,216,60,2,-15
14580,-121,-34,218,59,3,-14
14585,-119,-32,217,57,4,-14
14590,-119,-35,216,56,5,-15
14595,-119,-33,215,58,5,-16
14600,-115,-35,219,57,5,-13
14605,-120,-33,215,56,6,-14
14610,-117,-32,214,58,6,-14
14615,-118,-33,212,59,6,-15
14620,-119,-33,212,59,5,-13
14625,-118,-32,214,58,4,-12
14630,-116,-34,216,59,1,-13
14635,-120,-33,215,59,-1,-11
14640,-123,-34,216,58,-1,-11
14645,-117,-34,217,58,-1,-12
14650,-125,-34,214,57,0,-12
14655,-119,-37,211,58,1,-13
14660,-119,-35,215,59,1,-11
14665,-115,-33,210,58,1,-12
14670,-118,-35,217,58,2,-12
14675,-120,-34,215,56,2,-11
14680,-120,-38,217,56,3,-12
14685,-118,-37,214,57,4,-13
14690,-117,-33,214,59,4,-14
14695,-120,-34,217,59,5,-12
14700,-119,-34,214,61,6,-12
14705,-119,-36,213,61,6,-13
14710,-120,-35,216,62,6,-14
14715,-120,-33,218,63,6,-13
14720,-119,-28,215,63,5,-13
14725,-119,-30,217,62,4,-12
14730,-120,-35,217,61,3,-12
14735,-119,-33,215,60,3,-12
14740,-120,-35,218,59,3,-11
14745,-118,-33,215,61,1,-12
14750,-117,-37,215,61,1,-13
14755,-118,-32,216,63,2,-14
14760,-122,-33,215,63,1,-13
14765,-119,-34,217,61,1,-13
14770,-125,-33,217,60,2,-13
14775,-117,-35,218,58,2,-13
14780,-119,-35,215,57,3,-14
14785,-121,-33,215,58,2,-13
14790,-121,-34,215,55,4,-14
14795,-123,-33,217,55,3,-13
14800,-118,-35,217,57,3,-14
14805,-120,-35,216,56,2,-15
14810,-118,-35,215,58,1,-16
14815,-120,-34,218,59,0,-16
14820,-117,-34,221,60,0,-16
14825,-121,-31,223,59,1,-15
14830,-120,-31,214,58,4,-15
14835,-119,-33,213,59,6,-14
14840,-117,-35,214,59,7,-14
14845,-118,-35,213,56,10,-13
14850,-119,-36,215,55,12,-11
14855,-118,-35,215,54,13,-11
14860,-118,-32,215,54,13,-12
14865,-117,-34,219,54,14,-11
14870,-117,-34,212,54,14,-12
14875,-121,-33,221,56,14,-12
14880,-114,-28,214,56,10,-11
14885,-119,-34,215,57,7,-10
14890,-120,-31,216,58,5,-9
14895,-120,-33,216,59,3,-9
14900,-117,-34,217,57,0,-9
14905,-119,-34,217,55,-3,-11
14910,-120,-33,213,55,-3,-9
14915,-120,-33,219,56,-2,-9
14920,-114,-39,219,57,-3,-10
14925,-119,-34,215,58,-2,-11
14930,-120,-33,217,59,0,-12
14935,-118,-26,213,59,2,-11
14940,-116,-35,215,58,3,-10
14945,-118,-34,215,57,5,-10
14950,-118,-31,220,55,7,-10
14955,-120,-32,214,54,9,-10
14960,-118,-34,216,53,10,-10
14965,-120,-33,217,54,10,-11
14970,-119,-36,214,54,11,-11
14975,-117,-32,216,54,11,-10
14980,-118,-35,217,55,10,-10
14985,-120,-34,217,57,8,-11
14990,-119,-34,227,59,6,-13
14995,-117,-35,215,61,6,-12
