timestamp,acc_x,acc_y,acc_z,gyro_x,gyro_y,gyro_z
0,3,-208,-96,54,468,-100
5,7,-205,-91,61,470,-99
10,8,-205,-88,64,467,-90
15,11,-203,-89,64,455,-79
20,10,-201,-83,58,439,-63
25,12,-201,-84,50,419,-46
30,15,-199,-78,37,399,-26
35,15,-198,-77,18,378,-6
40,15,-192,-73,2,360,13
45,15,-194,-69,-10,343,32
50,16,-196,-73,-18,329,48
55,14,-188,-69,-18,316,61
60,14,-191,-71,-13,306,73
65,12,-189,-67,-9,296,80
70,9,-188,-70,-8,284,91
75,8,-186,-68,-6,272,99
80,12,-190,-69,-4,265,105
85,8,-188,-77,-5,256,110
90,11,-193,-73,-8,247,112
95,8,-192,-69,-12,240,116
100,9,-195,-72,-16,234,119
105,12,-196,-72,-22,231,123
110,18,-199,-70,-27,228,125
115,18,-200,-67,-33,225,128
120,19,-208,-65,-41,222,130
125,17,-210,-65,-49,218,133
130,15,-203,-64,-56,214,135
135,23,-212,-60,-64,211,141
140,21,-217,-61,-72,205,148
145,19,-218,-55,-77,200,157
150,20,-222,-59,-78,194,167
155,18,-221,-50,-72,188,178
160,17,-227,-51,-62,178,186
165,17,-231,-44,-44,165,195
170,16,-235,-44,-17,150,202
175,16,-234,-38,17,136,209
180,13,-235,-35,58,121,214
185,9,-231,-31,104,107,221
190,8,-237,-33,147,91,228
195,10,-238,-35,187,75,233
200,8,-241,-32,222,58,242
205,1,-238,-30,246,32,251
210,-3,-243,-27,261,-2,263
215,-10,-250,-18,275,-45,280
220,-19,-252,-18,292,-90,302
225,-25,-253,-12,319,-133,324
230,-38,-256,-10,354,-168,348
235,-31,-258,-16,400,-193,367
240,-27,-245,-20,446,-184,394
245,-25,-249,-30,491,-153,423
250,-21,-246,-37,534,-101,455
255,-15,-236,-39,570,-32,480
260,-4,-226,-51,592,43,497
265,7,-223,-50,600,106,503
270,23,-221,-39,597,148,497
275,37,-226,-37,591,164,478
280,45,-229,-41,579,155,454
285,48,-243,-46,555,132,429
290,42,-250,-62,506,110,406
295,34,-260,-80,426,96,387
300,30,-265,-109,311,97,368
305,33,-280,-136,168,132,343
310,41,-294,-173,4,213,311
315,48,-306,-198,-159,329,271
320,61,-317,-220,-300,465,219
325,70,-318,-232,-397,612,162
330,87,-329,-224,-435,763,105
335,94,-349,-198,-393,905,53
340,88,-358,-179,-265,1022,14
345,78,-375,-147,-84,1099,-11
350,67,-382,-144,102,1120,-23
355,50,-383,-133,259,1086,-30
360,27,-382,-128,372,1009,-27
365,9,-375,-125,445,902,-20
370,-8,-356,-117,501,782,-9
375,-24,-342,-114,555,648,4
380,-45,-318,-120,615,520,21
385,-66,-291,-132,670,396,34
390,-71,-254,-148,701,278,42
395,-83,-224,-159,697,174,47
400,-90,-208,-172,664,86,52
405,-86,-183,-174,605,19,55
410,-80,-171,-175,532,-29,60
415,-68,-164,-173,447,-56,66
420,-57,-162,-163,360,-62,77
425,-43,-167,-158,276,-46,84
430,-24,-177,-151,198,-9,87
435,-5,-186,-142,135,42,90
440,7,-197,-140,84,109,87
445,16,-206,-136,46,181,83
450,28,-212,-134,23,255,80
455,30,-219,-133,14,325,79
460,34,-226,-125,26,384,83
465,35,-230,-123,49,433,90
470,34,-231,-116,83,470,103
475,35,-233,-122,127,503,122
480,34,-237,-116,183,526,148
485,35,-233,-111,241,546,173
490,31,-237,-111,295,560,200
495,28,-235,-101,338,568,225
500,25,-231,-99,368,573,248
505,21,-227,-104,382,574,266
510,13,-230,-96,379,577,279
515,14,-222,-95,360,580,288
520,9,-213,-97,332,583,294
525,8,-209,-97,298,587,298
530,10,-201,-98,263,589,302
535,3,-193,-95,232,590,307
540,3,-187,-102,206,591,314
545,2,-181,-99,182,593,319
550,1,-176,-94,161,599,324
555,2,-170,-100,142,612,327
560,3,-169,-101,125,631,327
565,6,-164,-98,112,656,325
570,4,-163,-91,99,683,322
575,6,-163,-89,88,714,318
580,4,-162,-86,81,744,314
585,4,-167,-81,77,774,309
590,3,-167,-80,75,800,306
595,2,-171,-85,70,820,300
600,3,-172,-80,61,834,298
605,0,-173,-86,48,841,293
610,-2,-178,-87,26,843,289
615,-10,-177,-81,-3,837,287
620,-16,-184,-83,-29,828,290
625,-20,-186,-84,-50,820,294
630,-25,-189,-80,-69,811,299
635,-29,-191,-79,-83,801,305
640,-32,-193,-82,-100,788,308
645,-37,-198,-80,-116,776,308
650,-36,-202,-77,-133,763,308
655,-40,-206,-72,-150,749,304
660,-37,-207,-76,-165,736,295
665,-35,-212,-69,-180,724,287
670,-34,-214,-69,-191,715,274
675,-34,-216,-58,-200,709,261
680,-32,-223,-67,-203,704,245
685,-28,-223,-64,-202,702,228
690,-22,-226,-62,-196,702,213
695,-22,-229,-61,-187,703,196
700,-18,-230,-55,-177,706,180
705,-17,-230,-59,-167,711,166
710,-16,-233,-54,-155,715,153
715,-16,-235,-55,-143,716,141
720,-15,-227,-56,-130,714,129
725,-11,-232,-53,-117,706,119
730,-13,-231,-62,-105,693,110
735,-19,-224,-60,-94,678,104
740,-15,-222,-63,-90,661,100
745,-14,-221,-62,-90,644,97
750,-18,-217,-63,-89,631,94
755,-19,-222,-59,-91,617,96
760,-18,-220,-60,-102,606,97
765,-17,-221,-60,-116,596,99
770,-18,-227,-56,-129,588,104
775,-19,-228,-57,-139,582,108
780,-5,-235,-54,-150,577,111
785,-9,-238,-48,-157,574,117
790,-8,-244,-50,-157,572,122
795,-1,-252,-48,-156,567,128
800,-3,-253,-48,-147,563,133
805,-2,-256,-43,-135,561,136
810,2,-256,-44,-114,557,139
815,2,-259,-45,-90,555,141
820,2,-260,-44,-65,552,144
825,0,-262,-45,-37,547,148
830,-1,-264,-43,-6,543,152
835,-10,-262,-44,30,534,157
840,-16,-262,-43,67,519,166
845,-17,-258,-45,104,499,180
850,-26,-259,-52,139,472,192
855,-32,-260,-57,165,441,210
860,-42,-255,-57,185,418,229
865,-45,-256,-52,203,413,248
870,-43,-257,-40,223,438,261
875,-37,-257,-31,245,493,268
880,-25,-263,-25,267,574,264
885,-16,-261,-15,291,666,255
890,-3,-268,-15,312,758,245
895,9,-270,-16,322,841,235
900,20,-271,-30,310,907,226
905,30,-271,-46,271,952,223
910,39,-274,-72,196,976,224
915,45,-283,-97,92,974,230
920,47,-291,-119,-33,941,238
925,47,-293,-131,-157,872,251
930,51,-300,-145,-260,776,268
935,45,-307,-147,-330,670,291
940,29,-312,-143,-354,576,329
945,17,-325,-124,-323,507,369
950,6,-327,-106,-237,464,408
955,-3,-333,-91,-109,442,442
960,0,-342,-93,35,439,468
965,2,-337,-100,162,455,490
970,3,-330,-117,256,483,505
975,0,-317,-132,320,518,501
980,-4,-300,-143,358,565,490
985,-8,-279,-152,396,634,480
990,-13,-258,-162,416,725,468
995,-17,-247,-175,419,822,452
1000,-13,-217,-180,399,909,433
1005,-11,-197,-196,365,995,420
1010,-2,-179,-198,322,1092,413
1015,6,-161,-193,275,1192,411
1020,19,-148,-189,230,1290,407
1025,36,-141,-173,195,1377,399
1030,47,-144,-158,166,1446,385
1035,48,-148,-157,135,1486,372
1040,57,-157,-148,100,1492,363
1045,68,-164,-142,53,1464,356
1050,87,-173,-141,3,1409,355
1055,83,-189,-130,-48,1339,359
1060,79,-201,-129,-96,1266,365
1065,70,-216,-124,-134,1200,367
1070,66,-228,-127,-161,1150,369
1075,57,-235,-128,-175,1116,370
1080,43,-239,-124,-183,1097,370
1085,29,-241,-123,-187,1088,368
1090,16,-237,-126,-191,1087,371
1095,7,-237,-126,-197,1087,370
1100,-1,-237,-129,-208,1090,363
1105,-11,-240,-130,-220,1094,354
1110,-9,-232,-132,-229,1094,336
1115,-13,-230,-129,-235,1096,315
1120,-15,-228,-127,-225,1100,288
1125,-13,-227,-120,-200,1106,258
1130,-10,-224,-117,-162,1113,226
1135,-6,-221,-118,-115,1122,192
1140,-1,-215,-111,-73,1137,162
1145,1,-213,-113,-37,1153,140
1150,2,-212,-108,-9,1171,125
1155,3,-208,-100,8,1185,117
1160,9,-212,-105,9,1191,114
1165,4,-203,-89,1,1188,118
1170,5,-202,-86,-3,1179,128
1175,11,-200,-82,-7,1164,137
1180,13,-198,-81,-13,1142,150
1185,15,-192,-80,-22,1117,161
1190,17,-189,-77,-28,1088,173
1195,16,-190,-76,-31,1054,183
1200,15,-181,-70,-33,1018,194
1205,16,-181,-69,-29,982,206
1210,15,-181,-71,-26,944,214
1215,12,-179,-75,-22,907,220
1220,9,-175,-67,-17,866,225
1225,10,-172,-71,-10,828,223
1230,9,-174,-67,-5,797,222
1235,6,-172,-64,-3,765,221
1240,1,-173,-62,-3,731,213
1245,1,-176,-64,-4,700,204
1250,0,-177,-62,-11,671,194
1255,2,-183,-66,-21,647,182
1260,1,-184,-63,-38,626,172
1265,6,-181,-64,-53,610,161
1270,0,-188,-68,-72,595,154
1275,2,-190,-63,-91,580,149
1280,8,-196,-55,-108,562,145
1285,5,-197,-58,-126,542,146
1290,8,-203,-56,-138,519,152
1295,10,-209,-52,-146,493,160
1300,9,-213,-52,-151,464,171
1305,10,-218,-53,-151,434,179
1310,11,-221,-51,-146,403,189
1315,7,-226,-47,-134,369,196
1320,3,-231,-42,-115,333,202
1325,2,-236,-45,-92,298,208
1330,1,-236,-48,-61,264,215
1335,-4,-238,-49,-29,232,222
1340,-10,-244,-44,9,201,230
1345,-6,-251,-41,48,165,236
1350,-10,-252,-38,88,127,242
1355,-14,-258,-29,122,87,249
1360,-15,-264,-26,158,46,255
1365,-19,-268,-33,184,11,261
1370,-18,-274,-28,199,-12,267
1375,-20,-277,-33,210,-26,275
1380,-10,-286,-27,213,-18,277
1385,-9,-288,-24,227,-6,272
1390,3,-296,-25,228,2,237
1395,27,-286,-46,218,62,217
1400,27,-280,-48,268,149,255
1405,40,-275,-51,318,210,269
1410,45,-271,-55,360,254,266
1415,49,-268,-57,383,284,248
1420,53,-269,-60,384,300,221
1425,50,-269,-65,365,305,190
1430,50,-267,-85,321,306,162
1435,64,-276,-94,246,311,134
1440,67,-282,-120,147,328,105
1445,70,-289,-134,30,355,76
1450,72,-296,-161,-93,392,50
1455,81,-306,-181,-206,440,28
1460,87,-308,-185,-284,503,14
1465,94,-311,-181,-314,577,5
1470,99,-315,-169,-293,658,-3
1475,105,-321,-145,-225,743,-13
1480,101,-336,-131,-126,836,-26
1485,85,-342,-127,-22,923,-36
1490,69,-335,-127,72,982,-52
1495,56,-331,-136,147,994,-70
1500,33,-315,-149,206,959,-78
1505,17,-302,-159,257,883,-69
1510,-2,-289,-168,314,783,-49
1515,-24,-270,-177,373,666,-21
1520,-41,-257,-175,426,541,10
1525,-51,-246,-180,463,414,37
1530,-62,-236,-186,467,299,62
1535,-67,-225,-194,434,208,80
1540,-62,-216,-189,380,148,91
1545,-61,-214,-188,321,122,97
1550,-53,-213,-181,266,122,97
1555,-45,-213,-169,227,148,88
1560,-40,-209,-155,206,196,73
1565,-28,-215,-136,194,260,53
1570,-19,-216,-132,192,333,30
1575,-10,-223,-126,196,402,8
1580,0,-226,-125,196,461,-4
1585,8,-226,-122,196,502,-12
1590,14,-234,-125,194,520,-11
1595,20,-233,-118,196,517,0
1600,26,-239,-122,209,499,23
1605,29,-238,-120,233,475,54
1610,27,-233,-123,270,442,93
1615,27,-233,-116,315,410,138
1620,23,-231,-112,363,383,185
1625,21,-222,-107,402,361,232
1630,14,-219,-98,423,347,279
1635,18,-214,-95,423,341,316
1640,19,-206,-96,409,348,347
1645,17,-205,-80,378,357,367
1650,16,-195,-89,329,371,379
1655,18,-192,-94,275,386,384
1660,17,-186,-93,220,404,388
1665,16,-175,-89,172,423,392
1670,16,-169,-87,133,440,394
1675,14,-163,-89,104,455,399
1680,14,-164,-90,84,470,402
1685,15,-158,-81,78,482,402
1690,11,-158,-78,79,495,403
1695,10,-153,-78,82,507,403
1700,4,-145,-72,89,522,398
1705,4,-147,-76,95,536,393
1710,1,-145,-74,99,554,382
1715,-1,-142,-72,103,574,372
1720,-3,-143,-69,102,594,361
1725,-3,-143,-73,98,615,353
1730,-3,-142,-73,82,634,343
1735,-5,-143,-72,61,653,334
1740,-8,-144,-70,32,669,327
1745,-11,-150,-72,3,681,319
1750,-9,-157,-73,-28,689,314
1755,-13,-161,-70,-62,693,307
1760,-12,-171,-74,-92,694,298
1765,-17,-174,-67,-120,691,285
1770,-17,-185,-67,-139,686,269
1775,-20,-191,-63,-151,681,250
1780,-21,-200,-57,-156,676,230
1785,-22,-204,-55,-155,666,206
1790,-21,-212,-52,-153,656,185
1795,-24,-214,-50,-151,642,166
1800,-19,-218,-47,-148,625,148
1805,-19,-223,-48,-144,607,130
1810,-23,-228,-53,-137,590,114
1815,-23,-231,-49,-129,574,99
1820,-25,-232,-47,-119,563,84
1825,-29,-233,-50,-108,552,70
1830,-28,-232,-54,-93,546,53
1835,-27,-233,-49,-76,540,39
1840,-33,-233,-49,-58,540,25
1845,-26,-237,-48,-39,544,12
1850,-27,-236,-47,-18,552,0
1855,-23,-237,-39,7,560,-9
1860,-18,-242,-38,33,571,-14
1865,-19,-243,-34,57,575,-18
1870,-17,-243,-36,80,573,-17
1875,-8,-249,-34,94,569,-12
1880,-7,-250,-33,100,563,-6
1885,2,-257,-37,101,550,-2
1890,4,-258,-37,92,533,4
1895,9,-261,-41,80,512,8
1900,3,-268,-40,69,483,15
1905,0,-271,-48,70,439,19
1910,3,-275,-49,83,380,18
1915,-8,-276,-58,104,323,26
1920,-10,-279,-54,131,280,40
1925,-19,-283,-44,174,258,62
1930,-23,-290,-36,234,267,85
1935,-22,-296,-20,301,305,103
1940,-19,-302,-7,371,366,116
1945,-12,-307,4,440,446,122
1950,-1,-312,13,506,531,123
1955,4,-312,15,565,613,120
1960,16,-316,13,612,681,119
1965,28,-313,1,632,732,121
1970,27,-301,-9,621,760,128
1975,44,-301,-38,567,768,136
1980,59,-296,-75,466,766,145
1985,69,-294,-134,308,758,162
1990,65,-284,-193,99,724,171
1995,64,-276,-235,-141,646,178
2000,39,-273,-262,-357,526,194
2005,4,-271,-256,-509,390,225
2010,-35,-278,-224,-563,273,262
2015,-70,-292,-181,-517,196,289
2020,-88,-295,-153,-398,162,295
2025,-97,-311,-151,-255,155,302
2030,-101,-313,-160,-128,152,304
2035,-94,-320,-183,-34,131,318
2040,-83,-319,-201,55,92,351
2045,-72,-316,-214,133,78,411
2050,-38,-310,-214,193,127,473
2055,-9,-294,-206,250,240,516
2060,0,-267,-196,307,384,536
2065,2,-230,-205,343,521,536
2070,10,-207,-210,333,622,531
2075,42,-187,-211,282,684,522
2080,62,-176,-203,211,703,507
2085,69,-175,-193,149,687,481
2090,68,-187,-177,111,645,445
2095,65,-193,-163,95,584,398
2100,60,-212,-144,86,522,351
2105,49,-221,-131,75,466,304
2110,39,-237,-124,59,415,260
2115,29,-244,-116,47,372,220
2120,17,-253,-111,43,329,185
2125,8,-261,-108,47,289,161
2130,-4,-259,-111,60,254,142
2135,-17,-263,-104,77,225,128
2140,-32,-258,-105,101,198,113
2145,-36,-258,-102,125,169,95
2150,-45,-251,-100,153,139,69
2155,-53,-235,-97,184,108,38
2160,-60,-220,-93,222,77,2
2165,-54,-207,-90,259,54,-35
2170,-46,-199,-83,290,42,-73
2175,-42,-189,-83,313,39,-105
2180,-35,-181,-75,323,43,-133
2185,-28,-177,-69,314,49,-162
2190,-17,-169,-65,290,54,-187
2195,-13,-163,-64,252,57,-206
2200,-4,-163,-61,205,62,-219
2205,2,-157,-59,153,62,-228
2210,4,-151,-61,101,60,-235
2215,14,-153,-55,52,54,-235
2220,19,-155,-55,10,42,-230
2225,21,-151,-57,-25,21,-218
2230,26,-144,-58,-53,-7,-204
2235,30,-144,-59,-75,-40,-185
2240,30,-144,-61,-90,-78,-160
2245,26,-140,-60,-98,-118,-137
2250,26,-137,-60,-101,-158,-115
2255,20,-139,-63,-99,-198,-92
2260,15,-137,-62,-94,-235,-71
2265,13,-142,-63,-82,-265,-53
2270,11,-143,-64,-69,-289,-40
2275,8,-146,-65,-53,-303,-30
2280,5,-150,-71,-41,-311,-23
2285,6,-155,-66,-32,-315,-19
2290,9,-160,-66,-27,-314,-18
2295,5,-164,-68,-26,-316,-21
2300,8,-172,-71,-30,-316,-21
2305,9,-180,-71,-41,-319,-24
2310,12,-187,-71,-59,-322,-28
2315,13,-197,-71,-83,-322,-31
2320,18,-204,-72,-107,-321,-31
2325,18,-213,-70,-134,-319,-33
2330,21,-222,-61,-156,-316,-31
2335,24,-227,-58,-173,-311,-27
2340,25,-235,-55,-180,-303,-22
2345,25,-240,-46,-175,-295,-14
2350,32,-237,-34,-159,-290,-7
2355,31,-252,-31,-134,-288,-1
2360,31,-258,-26,-101,-291,4
2365,30,-262,-20,-64,-303,7
2370,28,-267,-19,-17,-319,12
2375,19,-271,-21,33,-326,19
2380,11,-264,-26,89,-328,27
2385,7,-266,-25,150,-324,37
2390,3,-264,-16,208,-320,51
2395,-2,-263,-17,264,-318,64
2400,2,-267,-18,322,-313,75
2405,0,-268,-20,373,-300,81
2410,0,-269,-20,407,-270,85
2415,0,-265,-25,426,-225,86
2420,3,-269,-27,437,-170,86
2425,4,-266,-28,451,-111,85
2430,6,-258,-41,466,-44,89
2435,18,-250,-54,468,29,96
2440,36,-240,-56,454,110,99
2445,48,-237,-58,428,184,94
2450,66,-242,-49,398,233,73
2455,71,-245,-36,379,248,48
2460,69,-256,-14,382,225,22
2465,61,-265,-5,412,174,4
2470,49,-272,9,465,108,-9
2475,34,-279,1,515,40,-24
2480,16,-285,-18,521,-21,-39
2485,1,-294,-50,466,-76,-60
2490,-14,-298,-90,340,-121,-85
2495,-20,-314,-125,156,-153,-106
2500,-27,-327,-172,-73,-152,-117
2505,-21,-333,-213,-307,-108,-122
2510,-11,-336,-223,-490,-8,-124
2515,7,-328,-221,-578,124,-132
2520,21,-334,-214,-568,253,-153
2525,40,-341,-195,-480,353,-192
2530,50,-351,-173,-338,421,-229
2535,41,-353,-158,-176,465,-261
2540,37,-344,-160,-38,474,-295
2545,29,-335,-162,62,449,-327
2550,17,-319,-165,137,381,-352
2555,-4,-299,-161,208,278,-367
2560,-36,-283,-166,284,161,-375
2565,-66,-267,-165,348,35,-375
2570,-77,-260,-160,382,-92,-374
2575,-84,-254,-165,379,-210,-370
2580,-83,-249,-179,337,-305,-357
2585,-82,-245,-188,276,-360,-343
2590,-75,-243,-190,219,-375,-330
2595,-70,-241,-188,193,-355,-329
2600,-62,-237,-185,202,-315,-329
2605,-50,-232,-159,235,-269,-321
2610,-33,-227,-142,280,-223,-304
2615,-11,-232,-127,319,-171,-283
2620,4,-240,-121,328,-113,-258
2625,22,-245,-109,295,-56,-237
2630,38,-253,-109,236,-1,-220
2635,48,-258,-112,180,46,-202
2640,58,-261,-111,148,84,-180
2645,66,-262,-108,151,112,-154
2650,69,-258,-107,199,132,-123
2655,74,-255,-100,279,146,-84
2660,73,-241,-96,375,159,-37
2665,79,-234,-86,463,170,13
2670,69,-221,-83,535,178,63
2675,65,-210,-78,587,191,107
2680,56,-201,-76,614,214,147
2685,51,-196,-77,613,235,180
2690,45,-185,-72,587,260,206
2695,40,-185,-71,540,293,225
2700,31,-174,-69,475,330,240
2705,23,-168,-64,405,365,254
2710,18,-159,-64,341,397,262
2715,11,-149,-62,287,426,269
2720,3,-141,-60,241,452,274
2725,5,-143,-54,204,472,275
2730,-6,-127,-57,175,490,275
2735,-11,-123,-60,150,501,272
2740,-14,-118,-59,127,510,267
2745,-21,-115,-62,108,518,265
2750,-22,-111,-59,90,527,259
2755,-21,-109,-60,73,539,251
2760,-22,-109,-63,60,549,242
2765,-22,-112,-64,43,560,230
2770,-19,-113,-64,24,563,219
2775,-22,-115,-60,1,561,209
2780,-17,-121,-63,-24,555,199
2785,-19,-130,-64,-58,546,187
2790,-12,-129,-66,-101,536,180
2795,3,-122,-67,-153,536,191
2800,-35,-161,-57,-184,510,197
2805,-33,-166,-50,-205,466,163
2810,-31,-177,-53,-229,428,141
2815,-33,-182,-57,-256,392,127
2820,-33,-192,-51,-279,360,115
2825,-35,-202,-53,-290,330,107
2830,-35,-211,-50,-287,305,98
2835,-33,-216,-45,-272,287,92
2840,-32,-220,-45,-249,273,83
2845,-28,-226,-41,-219,261,75
2850,-21,-232,-44,-190,254,65
2855,-20,-238,-41,-159,244,51
2860,-17,-237,-43,-127,238,34
2865,-15,-237,-54,-102,231,17
2870,-3,-237,-48,-83,227,-1
2875,-1,-239,-45,-66,228,-16
2880,-2,-242,-39,-52,230,-27
2885,-5,-241,-40,-41,238,-35
2890,5,-253,-33,-35,247,-39
2895,6,-255,-26,-31,257,-40
2900,7,-256,-28,-25,264,-40
2905,11,-262,-23,-14,265,-37
2910,18,-271,-23,-3,260,-32
2915,26,-276,-23,7,254,-29
2920,20,-277,-28,19,245,-26
2925,23,-284,-28,30,230,-24
2930,16,-282,-34,44,205,-19
2935,10,-287,-37,52,167,-14
2940,1,-289,-37,64,128,-3
2945,0,-289,-31,85,97,16
2950,-16,-293,-28,108,80,40
2955,-20,-302,-17,131,85,67
2960,-19,-306,-12,153,119,90
2965,-18,-310,-1,174,180,108
2970,-9,-314,0,198,258,119
2975,-1,-319,2,210,343,128
2980,7,-321,-8,204,421,138
2985,23,-321,-24,175,479,147
2990,32,-319,-48,116,511,160
2995,59,-322,-76,25,522,183
3000,71,-327,-114,-95,512,211
3005,74,-329,-150,-226,465,245
3010,68,-329,-185,-349,373,281
3015,53,-330,-195,-433,256,320
3020,33,-334,-202,-465,128,350
3025,2,-344,-189,-447,54,394
3030,-22,-354,-170,-374,35,447
3035,-40,-355,-156,-260,50,489
3040,-55,-343,-160,-131,89,513
3045,-71,-331,-177,-26,126,524
3050,-81,-298,-201,52,143,531
3055,-67,-286,-200,111,159,544
3060,-61,-276,-203,149,216,565
3065,-47,-265,-190,185,317,586
3070,-34,-244,-177,245,447,592
3075,-33,-220,-167,308,579,582
3080,-31,-196,-183,345,692,564
3085,-18,-178,-188,333,774,545
3090,4,-174,-189,279,820,531
3095,36,-170,-180,197,831,513
3100,41,-178,-174,116,814,492
3105,44,-181,-156,61,774,460
3110,44,-195,-133,32,719,423
3115,42,-199,-130,15,660,386
3120,38,-211,-120,-5,610,359
3125,33,-220,-110,-33,566,337
3130,29,-230,-105,-59,527,320
3135,22,-235,-102,-76,494,299
3140,13,-241,-101,-81,466,279
3145,4,-248,-102,-72,446,257
3150,-6,-248,-96,-51,434,231
3155,-5,-247,-96,-25,427,202
3160,-20,-247,-92,6,423,171
3165,-29,-244,-91,40,419,137
3170,-36,-241,-91,69,415,98
3175,-38,-233,-86,99,409,54
3180,-41,-223,-84,126,412,10
3185,-41,-218,-78,148,419,-34
3190,-39,-215,-79,158,423,-73
3195,-38,-204,-73,157,423,-111
3200,-30,-199,-69,147,423,-139
3205,-21,-193,-68,130,421,-162
3210,-20,-187,-62,117,417,-178
3215,-15,-182,-64,111,412,-186
3220,-10,-173,-56,100,400,-188
3225,-8,-168,-58,88,383,-185
3230,-5,-159,-57,71,365,-177
3235,-1,-154,-53,54,345,-166
3240,0,-152,-49,36,318,-151
3245,2,-147,-48,20,288,-133
3250,4,-144,-48,3,253,-114
3255,3,-141,-51,-18,213,-92
3260,3,-137,-47,-38,170,-70
3265,3,-136,-52,-57,127,-46
3270,4,-138,-49,-71,86,-24
3275,3,-138,-46,-82,50,0
3280,5,-142,-50,-91,15,17
3285,2,-141,-49,-96,-17,30
3290,2,-142,-52,-97,-45,41
3295,2,-145,-55,-101,-65,49
3300,5,-155,-56,-104,-79,55
3305,6,-157,-52,-110,-91,62
3310,8,-165,-56,-117,-101,63
3315,7,-174,-54,-127,-104,62
3320,10,-185,-51,-134,-105,63
3325,12,-189,-53,-143,-105,61
3330,19,-201,-49,-153,-103,60
3335,23,-208,-53,-165,-102,61
3340,25,-216,-48,-178,-100,64
3345,31,-233,-46,-190,-103,68
3350,29,-240,-39,-202,-111,71
3355,30,-249,-39,-210,-126,75
3360,31,-259,-32,-210,-149,78
3365,31,-267,-23,-196,-177,81
3370,26,-276,-27,-163,-204,88
3375,9,-277,-21,-109,-217,98
3380,9,-280,-23,-38,-216,109
3385,5,-281,-23,42,-206,121
3390,2,-276,-25,121,-194,134
3395,5,-274,-29,194,-189,140
3400,5,-271,-26,244,-167,153
3405,7,-271,-21,283,-144,163
3410,5,-268,-21,308,-113,170
3415,6,-269,-22,331,-74,170
3420,4,-264,-36,350,-26,175
3425,9,-255,-48,359,34,181
3430,19,-247,-46,358,106,185
3435,37,-237,-49,345,183,189
3440,48,-235,-38,328,254,184
3445,59,-238,-29,314,301,167
3450,64,-243,-17,308,320,141
3455,63,-254,-3,310,312,116
3460,57,-258,-1,323,290,93
3465,51,-266,0,339,262,74
3470,38,-273,-14,342,237,61
3475,24,-281,-37,302,216,53
3480,15,-289,-80,198,201,37
3485,7,-301,-134,28,190,14
3490,4,-314,-179,-206,190,-10
3495,7,-323,-215,-457,215,-26
3500,12,-330,-234,-655,281,-34
3505,26,-336,-244,-751,388,-38
3510,51,-349,-244,-754,517,-57
3515,64,-362,-228,-684,654,-99
3520,73,-383,-196,-551,777,-146
3525,67,-388,-177,-365,868,-184
3530,50,-386,-159,-187,921,-218
3535,44,-372,-166,-43,931,-233
3540,33,-362,-175,65,895,-240
3545,13,-346,-181,153,814,-232
3550,-11,-327,-176,241,689,-216
3555,-35,-309,-169,324,539,-197
3560,-59,-283,-171,389,390,-173
3565,-62,-272,-175,418,251,-145
3570,-68,-259,-178,410,140,-114
3575,-71,-248,-182,370,62,-87
3580,-74,-237,-189,324,24,-64
3585,-79,-232,-188,290,23,-52
3590,-70,-227,-172,285,52,-43
3595,-66,-221,-160,301,96,-35
3600,-52,-220,-141,327,142,-31
3605,-41,-219,-128,347,177,-25
3610,-31,-222,-119,352,206,-18
3615,-14,-226,-116,336,240,2
3620,-1,-237,-114,302,280,21
3625,12,-241,-113,258,323,42
3630,27,-243,-117,223,359,64
3635,31,-239,-112,207,388,85
3640,39,-240,-108,220,406,111
3645,41,-235,-106,258,418,136
3650,45,-224,-103,313,427,165
3655,41,-212,-100,373,434,195
3660,40,-208,-94,432,444,226
3665,38,-197,-89,476,453,250
3670,38,-188,-90,503,461,271
3675,34,-182,-84,510,471,285
3680,32,-181,-81,497,486,294
3685,33,-178,-81,461,502,302
3690,29,-172,-81,406,517,306
3695,25,-169,-66,334,530,312
3700,22,-162,-72,262,542,315
3705,14,-156,-71,199,553,318
3710,12,-155,-70,148,561,319
3715,5,-149,-65,109,568,318
3720,1,-145,-68,83,576,320
3725,-1,-142,-64,64,586,321
3730,-7,-134,-63,54,596,318
3735,-9,-131,-63,53,609,316
3740,-13,-129,-64,58,629,309
3745,-11,-127,-62,62,650,300
3750,-12,-129,-61,64,672,289
3755,-12,-126,-63,64,697,276
3760,-9,-130,-63,60,718,261
3765,-6,-126,-65,52,740,245
3770,-4,-132,-64,42,759,229
3775,-6,-134,-64,27,775,215
3780,-8,-138,-64,8,783,204
3785,-14,-146,-66,-13,785,196
3790,-12,-153,-63,-36,781,186
3795,-17,-163,-62,-55,773,180
3800,-18,-171,-62,-74,760,172
3805,-25,-177,-63,-95,746,166
3810,-27,-185,-59,-115,732,156
3815,-29,-192,-58,-132,717,150
3820,-31,-196,-59,-143,702,142
3825,-32,-204,-51,-152,688,132
3830,-34,-208,-48,-157,676,119
3835,-35,-211,-40,-153,669,103
3840,-31,-215,-36,-143,663,85
3845,-29,-221,-35,-132,655,67
3850,-25,-225,-37,-122,651,47
3855,-21,-225,-32,-110,651,27
3860,-24,-227,-43,-99,656,4
3865,-16,-231,-35,-88,666,-14
3870,-16,-235,-36,-73,680,-31
3875,-14,-235,-40,-58,695,-48
3880,-9,-236,-33,-46,711,-59
3885,-9,-241,-39,-34,719,-70
3890,-6,-244,-37,-25,726,-76
3895,-2,-251,-34,-9,725,-75
3900,-2,-255,-37,8,717,-72
3905,-1,-261,-30,27,701,-64
3910,1,-266,-36,51,680,-53
3915,0,-271,-42,75,653,-40
3920,6,-277,-34,102,625,-25
3925,6,-283,-31,128,595,-7
3930,5,-281,-36,160,562,8
3935,0,-284,-32,192,526,25
3940,0,-286,-32,223,484,47
3945,-12,-288,-32,254,435,74
3950,-21,-292,-32,280,388,109
3955,-30,-294,-20,306,353,149
3960,-40,-298,-18,334,339,188
3965,-35,-301,-1,365,348,222
3970,-38,-307,3,398,379,245
3975,-27,-311,2,426,427,262
3980,-20,-309,-9,434,490,273
3985,-5,-310,-29,409,564,282
3990,2,-313,-53,345,632,291
3995,23,-315,-79,249,681,303
4000,27,-318,-120,129,701,314
4005,46,-323,-159,-14,677,326
4010,59,-321,-190,-149,618,328
4015,61,-322,-217,-264,533,335
4020,50,-328,-235,-331,416,342
4025,32,-324,-228,-340,305,366
4030,2,-325,-206,-277,223,414
4035,-17,-320,-196,-155,173,479
4040,-37,-321,-199,-26,142,538
4045,-41,-319,-208,64,114,581
4050,-50,-300,-209,120,109,627
4055,-38,-288,-200,148,149,674
4060,-28,-279,-187,162,254,707
4065,-24,-258,-174,184,413,730
4070,-21,-226,-186,190,594,736
4075,2,-205,-200,159,759,719
4080,45,-187,-198,92,890,693
4085,73,-184,-197,8,973,662
4090,96,-189,-196,-62,1010,622
4095,101,-193,-191,-100,1003,573
4100,99,-210,-181,-102,959,514
4105,89,-227,-167,-92,898,453
4110,76,-242,-157,-86,839,400
4115,65,-256,-138,-95,795,356
4120,48,-265,-120,-103,766,320
4125,33,-267,-112,-96,747,288
4130,20,-278,-99,-71,738,265
4135,14,-278,-109,-36,733,249
4140,5,-279,-113,0,732,233
4145,0,-279,-114,30,729,221
4150,-7,-270,-110,57,720,203
4155,-14,-263,-111,82,701,181
4160,-18,-253,-110,111,676,150
4165,-21,-242,-103,138,644,111
4170,-31,-226,-95,161,616,70
4175,-35,-213,-92,178,592,29
4180,-43,-199,-82,191,575,-8
4185,-37,-188,-89,203,562,-41
4190,-29,-180,-76,202,563,-67
4195,-28,-169,-76,193,569,-84
4200,-18,-161,-70,179,579,-98
4205,-17,-154,-68,161,587,-110
4210,-9,-152,-65,136,587,-119
4215,-1,-148,-62,108,580,-124
4220,1,-142,-57,77,568,-121
4225,4,-142,-57,43,554,-112
4230,9,-136,-51,8,532,-96
4235,10,-131,-50,-24,504,-78
4240,15,-136,-48,-55,472,-56
4245,14,-132,-48,-83,435,-33
4250,17,-133,-46,-105,394,-10
4255,16,-134,-48,-118,351,9
4260,15,-135,-45,-127,309,30
4265,16,-137,-44,-129,267,51
4270,12,-133,-51,-128,228,65
4275,7,-139,-50,-122,195,80
4280,4,-139,-54,-116,163,90
4285,5,-143,-54,-105,140,96
4290,6,-145,-57,-97,119,97
4295,10,-149,-52,-90,106,99
4300,8,-153,-54,-88,93,95
4305,13,-161,-57,-92,82,89
4310,15,-165,-60,-102,70,85
4315,14,-175,-58,-115,60,82
4320,16,-185,-58,-130,48,77
4325,19,-194,-58,-150,36,76
4330,24,-201,-54,-172,22,76
4335,25,-209,-52,-190,7,77
4340,22,-219,-49,-206,-8,76
4345,25,-229,-45,-215,-24,79
4350,24,-244,-40,-212,-46,84
4355,27,-247,-38,-195,-69,87
4360,26,-253,-35,-174,-84,92
4365,27,-259,-30,-148,-102,105
4370,20,-262,-36,-117,-114,121
4375,19,-267,-34,-77,-117,141
4380,18,-269,-32,-30,-117,158
4385,7,-273,-35,25,-121,173
4390,6,-274,-18,88,-132,191
4395,-2,-278,-10,158,-152,206
4400,-3,-281,-12,240,-173,216
4405,-8,-280,-12,313,-184,218
4410,-11,-286,-19,368,-178,219
4415,-16,-277,-30,403,-156,221
4420,-16,-271,-42,418,-103,226
4425,-1,-259,-60,427,-27,232
4430,18,-255,-60,406,69,234
4435,40,-252,-60,374,164,224
4440,56,-254,-42,346,237,208
4445,70,-255,-28,330,274,186
4450,79,-264,-9,326,274,163
4455,86,-265,-5,323,251,143
4460,79,-278,11,320,217,123
4465,64,-285,15,330,180,109
4470,58,-295,14,353,150,95
4475,42,-302,1,384,125,79
4480,35,-306,-13,390,115,55
4485,20,-308,-42,348,118,20
4490,17,-310,-72,256,129,-24
4495,16,-315,-123,110,138,-71
4500,16,-319,-180,-84,154,-112
4505,33,-331,-206,-298,183,-137
4510,42,-320,-229,-477,252,-146
4515,60,-319,-227,-575,354,-160
4520,77,-321,-213,-572,479,-176
4525,92,-323,-195,-479,611,-190
4530,96,-325,-188,-329,752,-201
4535,94,-331,-180,-178,833,-221
4540,67,-325,-181,-70,870,-245
4545,56,-316,-192,-24,856,-266
4550,31,-311,-196,-14,799,-282
4555,9,-298,-194,-1,723,-282
4560,-13,-295,-183,33,644,-272
4565,-46,-291,-180,97,559,-261
4570,-62,-285,-179,160,470,-249
4575,-64,-286,-179,189,377,-236
4580,-65,-283,-188,182,288,-222
4585,-75,-278,-192,148,213,-208
4590,-75,-272,-197,110,162,-200
4595,-77,-264,-198,93,138,-195
4600,-80,-257,-182,105,137,-193
4605,-86,-254,-168,151,151,-178
4610,-79,-243,-149,213,176,-160
4615,-60,-246,-128,271,216,-131
4620,-40,-246,-121,302,262,-100
4625,-15,-250,-121,297,309,-66
4630,3,-253,-122,253,352,-30
4635,24,-254,-123,199,378,-3
4640,44,-254,-127,159,387,26
4645,47,-253,-122,150,387,54
4650,58,-252,-117,197,370,85
4655,60,-239,-108,295,356,118
4660,61,-230,-105,384,340,159
4665,64,-216,-93,467,331,201
4670,60,-210,-85,532,333,247
4675,59,-202,-80,570,345,285
4680,58,-194,-75,577,368,318
4685,48,-192,-71,551,397,345
4690,47,-189,-71,495,423,359
4695,41,-181,-72,425,450,365
4700,35,-173,-68,351,481,367
4705,29,-169,-64,282,511,368
4710,25,-163,-64,223,541,369
4715,19,-159,-66,174,571,371
4720,18,-144,-68,129,597,375
4725,7,-149,-63,95,624,383
4730,2,-142,-64,77,636,370
4735,1,-135,-63,69,646,354
4740,0,-129,-63,67,662,339
4745,-2,-125,-60,67,676,326
4750,-8,-118,-62,65,690,314
4755,-5,-118,-59,64,702,299
4760,-11,-112,-65,58,712,285
4765,-9,-104,-64,52,718,275
4770,-11,-112,-64,41,721,266
4775,-12,-110,-61,26,721,258
4780,-10,-111,-65,3,715,251
4785,-13,-116,-64,-26,710,245
4790,-17,-123,-68,-58,700,235
4795,-17,-133,-65,-94,690,227
4800,-18,-141,-67,-132,676,215
4805,-23,-147,-65,-170,661,202
4810,-28,-156,-66,-207,642,186
4815,-29,-167,-63,-239,624,169
4820,-39,-173,-64,-263,601,152
4825,-32,-185,-58,-279,575,136
4830,-41,-193,-62,-288,547,122
4835,-40,-201,-55,-289,521,109
4840,-39,-208,-51,-282,499,96
4845,-38,-215,-51,-267,482,80
4850,-37,-221,-53,-248,469,66
4855,-35,-223,-46,-225,455,51
4860,-34,-230,-42,-200,446,36
4865,-33,-232,-46,-173,437,18
4870,-32,-236,-48,-146,425,0
4875,-27,-241,-41,-122,406,-20
4880,-25,-243,-36,-102,385,-36
4885,-24,-241,-29,-81,361,-54
4890,-20,-252,-32,-62,340,-65
4895,-22,-252,-26,-38,326,-77
4900,-14,-257,-26,-13,311,-81
4905,-10,-257,-26,14,300,-84
4910,-9,-260,-26,38,289,-85
4915,0,-268,-25,60,276,-84
4920,3,-268,-30,78,263,-83
4925,6,-269,-33,93,253,-82
4930,16,-273,-34,110,246,-81
4935,19,-265,-40,126,238,-78
4940,21,-273,-38,139,226,-74
4945,19,-275,-42,143,206,-68
4950,16,-274,-41,144,175,-56
4955,9,-275,-48,144,142,-34
4960,4,-283,-41,145,111,-5
4965,-6,-288,-37,149,91,30
4970,-12,-289,-29,160,89,60
4975,-11,-293,-21,182,110,90
4980,-14,-302,-10,212,154,114
4985,-10,-310,3,252,213,134
4990,-1,-315,13,294,284,149
4995,0,-317,2,326,353,157
5000,5,-319,-1,337,412,166
5005,13,-320,-20,314,453,170
5010,28,-318,-43,253,472,179
5015,47,-320,-78,150,474,194
5020,59,-321,-126,9,455,216
5025,56,-324,-158,-166,403,239
5030,53,-327,-191,-344,306,261
5035,39,-325,-216,-492,165,283
5040,10,-328,-214,-580,29,316
5045,-25,-343,-193,-597,-73,360
5050,-52,-349,-176,-532,-136,411
5055,-77,-351,-170,-400,-169,458
5060,-95,-350,-174,-246,-175,492
5065,-99,-333,-192,-108,-163,515
5070,-92,-309,-212,-5,-140,529
5075,-77,-291,-222,75,-91,541
5080,-51,-274,-222,143,15,548
5085,-39,-255,-215,208,178,548
5090,-32,-237,-204,283,369,546
5095,-22,-211,-210,353,546,535
5100,0,-199,-209,380,683,526
5105,33,-197,-208,344,776,516
5110,62,-198,-206,261,826,498
5115,72,-200,-190,173,833,472
5120,75,-205,-175,109,806,433
5125,74,-208,-170,75,760,390
5130,65,-216,-149,62,707,346
5135,57,-225,-140,49,653,302
5140,48,-237,-126,35,600,265
5145,33,-239,-114,26,548,231
5150,20,-251,-108,22,496,202
5155,14,-256,-115,18,453,174
5160,2,-259,-123,13,421,150
5165,-11,-258,-122,16,397,126
5170,-23,-259,-123,33,381,102
5175,-27,-255,-113,62,369,78
5180,-40,-248,-102,102,358,54
5185,-47,-240,-103,149,347,22
5190,-50,-225,-95,195,339,-12
5195,-52,-217,-89,227,337,-47
5200,-49,-208,-87,244,340,-80
5205,-48,-197,-75,251,350,-112
5210,-43,-187,-73,251,367,-141
5215,-32,-179,-68,240,383,-164
5220,-24,-171,-63,225,398,-186
5225,-15,-165,-65,202,408,-203
5230,-6,-160,-61,175,415,-217
5235,0,-150,-60,145,418,-224
5240,3,-143,-60,114,414,-226
5245,10,-142,-56,81,408,-219
5250,13,-135,-55,46,394,-210
5255,15,-130,-50,19,371,-195
5260,22,-121,-51,-8,341,-175
5265,23,-125,-50,-34,305,-149
5270,20,-125,-49,-61,261,-119
5275,21,-123,-51,-84,213,-85
5280,20,-121,-49,-104,163,-49
5285,21,-122,-57,-120,116,-14
5290,16,-127,-53,-131,70,18
5295,11,-125,-57,-140,31,47
5300,7,-129,-56,-139,-3,73
5305,6,-131,-58,-131,-31,94
5310,7,-135,-58,-118,-53,111
5315,4,-139,-54,-102,-70,125
5320,2,-147,-64,-87,-82,133
5325,3,-151,-62,-74,-90,137
5330,2,-158,-63,-68,-94,136
5335,1,-165,-64,-74,-92,135
5340,0,-174,-60,-86,-85,131
5345,3,-185,-55,-105,-74,126
5350,7,-191,-50,-128,-60,121
5355,16,-201,-45,-147,-47,119
5360,14,-208,-44,-164,-34,120
5365,23,-219,-36,-179,-32,126
5370,30,-232,-32,-191,-42,132
5375,26,-236,-32,-202,-64,137
5380,28,-245,-25,-209,-97,144
5385,26,-258,-22,-207,-136,150
5390,22,-268,-13,-190,-178,158
5395,20,-275,-10,-157,-218,168
5400,17,-282,-8,-106,-241,180
5405,5,-288,-10,-38,-243,194
5410,3,-285,-17,45,-230,200
5415,9,-283,-19,129,-205,204
5420,10,-277,-17,206,-174,201
5425,14,-282,-19,274,-138,192
5430,12,-279,-24,329,-100,175
5435,7,-275,-35,372,-60,156
5440,4,-265,-50,398,-12,138
5445,19,-260,-60,403,41,122
5450,31,-256,-56,394,107,108
5455,44,-253,-49,387,176,97
5460,51,-257,-30,393,230,84
5465,58,-256,-17,411,259,64
5470,61,-263,-7,431,266,44
5475,45,-275,-11,447,256,22
5480,38,-281,4,455,240,1
5485,30,-290,8,467,221,-16
5490,24,-295,2,481,206,-35
5495,19,-296,-16,487,198,-54
5500,12,-294,-33,451,197,-77
5505,3,-294,-69,351,200,-106
5510,-3,-301,-135,158,203,-133
5515,-6,-318,-200,-136,195,-161
5520,-10,-322,-234,-466,202,-177
5525,-2,-330,-245,-724,251,-177
5530,18,-331,-236,-830,350,-165
5535,40,-331,-228,-789,482,-168
5540,57,-341,-204,-650,620,-193
5545,68,-352,-185,-458,731,-236
5550,66,-366,-169,-280,800,-272
5555,57,-376,-165,-163,819,-288
5560,35,-383,-166,-109,797,-295
5565,0,-382,-171,-84,733,-307
5570,-15,-379,-182,-40,643,-329
5575,-42,-356,-196,39,549,-352
5580,-66,-335,-202,142,457,-359
5585,-89,-307,-195,241,357,-359
5590,-102,-282,-194,313,245,-349
5595,-104,-262,-190,337,117,-328
5600,-104,-249,-195,317,-16,-295
5605,-104,-239,-195,280,-138,-251
5610,-103,-234,-200,251,-229,-209
5615,-94,-230,-197,235,-284,-172
5620,-88,-228,-194,233,-307,-146
5625,-73,-223,-177,245,-301,-128
5630,-57,-221,-162,267,-276,-118
5635,-37,-224,-145,283,-238,-107
5640,-29,-225,-127,282,-195,-93
5645,-17,-229,-123,260,-149,-80
5650,3,-238,-112,217,-108,-71
5655,13,-244,-112,171,-76,-63
5660,20,-247,-109,141,-48,-52
5665,24,-250,-103,140,-20,-34
5670,26,-244,-104,171,9,-12
5675,31,-237,-98,229,44,11
5680,34,-225,-91,304,77,36
5685,36,-216,-89,385,107,63
5690,33,-199,-85,452,130,85
5695,38,-193,-77,500,144,108
5700,37,-182,-75,522,151,132
5705,38,-172,-71,515,153,152
5710,36,-162,-72,481,151,166
5715,38,-153,-69,424,148,178
5720,32,-148,-67,356,148,188
5725,30,-139,-68,283,150,194
5730,26,-138,-69,215,155,199
5735,19,-133,-64,156,165,200
5740,8,-125,-57,109,179,204
5745,5,-114,-57,71,193,206
5750,0,-117,-64,44,206,205
5755,-2,-115,-63,24,218,200
5760,-5,-113,-62,10,230,193
5765,-11,-117,-61,1,240,184
5770,-13,-111,-61,-7,244,171
5775,-13,-114,-59,-14,250,157
5780,-17,-111,-62,-23,257,145
5785,-17,-113,-65,-39,267,130
5790,-18,-116,-68,-54,277,112
5795,-19,-117,-67,-72,289,96
5800,-23,-127,-72,-94,301,79
5805,-19,-134,-69,-120,314,62
5810,-18,-140,-65,-147,323,42
5815,-20,-150,-64,-171,327,21
5820,-19,-158,-59,-194,326,3
5825,-22,-171,-59,-214,320,-17
5830,-24,-180,-59,-230,305,-34
5835,-28,-187,-57,-241,286,-50
5840,-34,-190,-57,-249,262,-69
5845,-37,-195,-53,-253,234,-81
5850,-41,-205,-51,-254,203,-90
5855,-46,-207,-48,-253,171,-97
5860,-47,-219,-46,-243,141,-100
5865,-51,-225,-41,-223,115,-97
5870,-49,-227,-41,-198,93,-96
5875,-49,-232,-43,-169,74,-96
5880,-47,-231,-41,-145,61,-95
5885,-44,-239,-44,-126,52,-96
5890,-44,-237,-39,-112,47,-100
5895,-41,-239,-39,-98,47,-103
5900,-33,-246,-41,-85,56,-104
5905,-33,-248,-35,-72,72,-106
5910,-14,-251,-33,-53,95,-107
5915,-6,-253,-29,-28,124,-107
5920,3,-256,-31,2,153,-106
5925,14,-259,-33,30,178,-101
5930,26,-261,-37,54,193,-101
5935,31,-262,-46,68,194,-95
5940,29,-261,-56,74,173,-89
5945,31,-265,-64,70,130,-79
5950,23,-263,-65,63,75,-63
5955,10,-265,-70,63,15,-35
5960,-4,-269,-68,73,-33,-1
5965,-19,-275,-54,94,-60,35
5970,-28,-283,-43,122,-54,69
5975,-33,-294,-21,157,-11,96
5980,-34,-304,-1,196,63,115
5985,-26,-315,16,242,161,121
5990,-12,-322,29,296,270,116
5995,-1,-329,29,355,381,108
6000,17,-335,28,415,488,98
6005,31,-342,4,457,587,91
6010,47,-336,-34,464,666,85
6015,61,-331,-83,426,720,77
6020,72,-320,-126,342,737,67
6025,70,-313,-196,213,717,62
6030,66,-298,-259,54,657,60
6035,46,-284,-310,-107,555,67
6040,19,-282,-315,-244,433,91
6045,-9,-275,-299,-342,314,137
6050,-54,-275,-257,-386,218,205
6055,-81,-272,-221,-366,132,286
6060,-88,-269,-195,-282,64,367
6065,-92,-258,-191,-162,13,441
6070,-88,-248,-184,-38,-10,510
6075,-92,-238,-186,58,14,578
6080,-94,-229,-193,104,73,647
6085,-70,-223,-192,109,152,702
6090,-30,-221,-185,96,232,746
6095,1,-225,-180,63,298,771
6100,43,-236,-180,34,342,772
6105,62,-241,-187,10,359,742
6110,71,-249,-192,1,350,695
6115,73,-260,-188,5,328,647
6120,71,-253,-187,11,302,603
6125,63,-267,-173,-2,275,555
6130,49,-276,-158,-17,242,506
6135,29,-283,-142,-26,208,459
6140,11,-290,-131,-37,183,413
6145,0,-287,-133,-53,164,368
6150,-17,-283,-129,-74,160,318
6155,-29,-274,-129,-99,168,267
6160,-34,-271,-120,-108,186,209
6165,-40,-260,-116,-99,214,150
6170,-49,-254,-110,-67,240,91
6175,-54,-244,-98,-20,261,32
6180,-57,-235,-91,30,278,-22
6185,-56,-228,-80,78,287,-65
6190,-53,-220,-76,122,298,-103
6195,-51,-207,-68,157,305,-131
6200,-39,-192,-64,180,316,-155
6205,-28,-181,-63,191,330,-170
6210,-17,-171,-63,192,344,-182
6215,-4,-165,-64,186,353,-193
6220,0,-155,-60,167,357,-201
6225,5,-147,-53,140,355,-201
6230,19,-141,-56,104,349,-200
6235,24,-132,-52,63,337,-191
6240,28,-123,-54,24,322,-181
6245,29,-119,-54,-14,298,-167
6250,29,-114,-53,-50,263,-149
6255,27,-107,-52,-81,220,-132
6260,26,-106,-53,-111,170,-110
6265,20,-107,-55,-142,115,-89
6270,17,-105,-56,-174,60,-67
6275,9,-108,-60,-204,8,-50
6280,3,-112,-57,-232,-38,-35
6285,-8,-117,-62,-259,-78,-24
6290,-10,-117,-63,-284,-111,-15
6295,-16,-122,-60,-301,-137,-8
6300,-16,-128,-61,-314,-156,-4
6305,-12,-139,-61,-323,-168,-1
6310,-11,-151,-59,-334,-173,-2
6315,-12,-160,-58,-347,-178,-7
6320,-4,-179,-53,-354,-188,-16
6325,0,-198,-46,-359,-198,-28
6330,-6,-213,-46,-361,-204,-35
6335,1,-239,-38,-353,-206,-42
6340,2,-248,-41,-339,-207,-48
6345,2,-264,-38,-322,-207,-50
6350,5,-281,-39,-298,-208,-42
6355,8,-287,-35,-266,-207,-27
6360,12,-300,-29,-220,-204,-8
6365,12,-304,-28,-160,-200,8
6370,11,-302,-25,-91,-190,27
6375,15,-305,-27,-23,-171,48
6380,11,-300,-34,48,-146,66
6385,12,-291,-38,118,-114,85
6390,14,-286,-34,192,-75,108
6395,20,-276,-41,277,-30,133
6400,24,-264,-51,368,19,162
6405,30,-255,-49,461,69,190
6410,34,-246,-44,545,115,219
6415,37,-241,-38,616,149,238
6420,37,-239,-33,658,163,251
6425,36,-241,-31,669,151,255
6430,32,-249,-26,653,119,253
6435,16,-255,-24,609,69,246
6440,0,-259,-34,539,11,240
6445,-25,-263,-58,439,-50,237
6450,-42,-263,-101,292,-104,235
6455,-46,-270,-154,93,-139,231
6460,-53,-277,-205,-147,-140,226
6465,-54,-286,-239,-396,-104,222
6470,-45,-300,-261,-609,-30,204
6475,-32,-319,-262,-756,68,162
6480,8,-335,-259,-841,158,72
6485,39,-358,-230,-827,287,-9
6490,45,-375,-194,-701,410,-66
6495,40,-388,-167,-504,494,-128
6500,21,-394,-153,-303,527,-189
6505,9,-381,-158,-130,497,-238
6510,0,-360,-180,10,427,-270
6515,-10,-342,-187,122,336,-272
6520,-28,-319,-200,217,230,-258
6525,-43,-284,-199,305,113,-239
6530,-58,-256,-196,371,-15,-227
6535,-74,-226,-201,396,-149,-214
6540,-77,-202,-206,368,-272,-198
6545,-74,-185,-208,289,-362,-176
6550,-72,-172,-205,188,-408,-151
6555,-64,-168,-196,94,-408,-121
6560,-48,-180,-186,25,-367,-96
6565,-32,-185,-173,-11,-307,-78
6570,-20,-197,-153,-33,-241,-67
6575,-3,-209,-137,-50,-178,-57
6580,7,-217,-127,-55,-120,-46
6585,15,-226,-121,-68,-63,-34
6590,28,-226,-116,-94,-12,-15
6595,29,-231,-116,-134,32,2
6600,36,-236,-114,-172,71,24
6605,29,-239,-114,-200,103,46
6610,33,-230,-117,-202,126,73
6615,30,-228,-111,-178,144,101
6620,25,-217,-107,-128,156,125
6625,24,-202,-107,-57,169,154
6630,16,-196,-99,13,185,179
6635,14,-185,-101,73,197,203
6640,13,-179,-97,117,208,221
6645,5,-171,-93,138,220,236
6650,6,-164,-90,141,220,239
6655,6,-164,-90,121,224,242
6660,7,-157,-76,85,221,242
6665,10,-151,-79,37,222,240
6670,12,-132,-82,-18,217,240
6675,3,-153,-70,-78,227,260
6680,0,-148,-67,-125,207,247
6685,-1,-143,-66,-160,191,233
6690,0,-143,-70,-190,179,225
6695,-2,-139,-70,-215,173,216
6700,-7,-132,-72,-237,173,207
6705,-12,-135,-73,-257,181,198
6710,-18,-131,-80,-275,199,191
6715,-22,-130,-78,-296,223,186
6720,-21,-127,-73,-320,252,181
6725,-25,-126,-74,-344,281,178
6730,-24,-122,-77,-368,308,180
6735,-27,-125,-76,-386,330,182
6740,-33,-125,-75,-398,350,187
6745,-33,-127,-76,-405,361,191
6750,-34,-133,-74,-409,368,194
6755,-34,-141,-76,-416,367,194
6760,-35,-145,-79,-432,361,193
6765,-32,-159,-71,-457,354,187
6770,-28,-173,-75,-485,345,181
6775,-24,-185,-71,-515,336,173
6780,-24,-196,-78,-546,328,164
6785,-23,-202,-71,-573,317,153
6790,-22,-217,-77,-598,306,147
6795,-25,-224,-75,-616,293,140
6800,-27,-227,-75,-625,282,137
6805,-31,-232,-68,-626,273,135
6810,-27,-242,-69,-618,268,133
6815,-30,-243,-70,-602,270,130
6820,-26,-252,-68,-586,278,130
6825,-33,-263,-71,-571,291,130
6830,-28,-256,-65,-558,311,131
6835,-23,-257,-66,-549,333,134
6840,-19,-260,-71,-539,355,139
6845,-13,-268,-74,-530,376,145
6850,-11,-269,-78,-522,396,151
6855,-3,-275,-75,-512,413,156
6860,2,-292,-79,-500,420,159
6865,0,-291,-76,-486,424,165
6870,3,-306,-79,-467,421,169
6875,4,-318,-80,-447,411,173
6880,6,-327,-78,-423,384,178
6885,0,-335,-78,-389,339,185
6890,-10,-340,-84,-341,271,194
6895,-27,-345,-77,-276,192,212
6900,-40,-350,-68,-191,117,234
6905,-56,-359,-59,-89,59,252
6910,-63,-362,-51,27,18,265
6915,-80,-366,-49,147,-5,274
6920,-80,-371,-38,242,-15,272
6925,-86,-372,-40,328,-5,268
6930,-90,-364,-47,394,13,267
6935,-87,-356,-41,438,37,253
6940,-87,-351,-49,467,60,240
6945,-82,-338,-49,469,81,223
6950,-72,-325,-73,458,102,201
6955,-63,-309,-101,432,125,168
6960,-57,-286,-127,388,142,131
6965,-53,-258,-175,316,151,91
6970,-49,-226,-237,231,147,54
6975,-51,-204,-283,126,124,17
6980,-70,-188,-319,14,85,-14
6985,-86,-181,-328,-89,43,-25
6990,-105,-183,-312,-163,2,-26
6995,-100,-184,-298,-209,-30,-16
7000,-92,-183,-285,-234,-44,5
7005,-83,-179,-278,-243,-48,41
7010,-66,-184,-263,-242,-54,82
7015,-44,-179,-246,-193,-57,123
7020,-13,-180,-237,-99,-51,164
7025,5,-179,-240,-9,-17,201
7030,35,-178,-239,53,31,219
7035,41,-184,-223,93,78,219
7040,52,-198,-227,121,107,203
7045,47,-213,-216,137,115,183
7050,50,-230,-207,146,106,159
7055,39,-241,-199,158,84,136
7060,32,-249,-190,192,48,114
7065,20,-258,-179,243,-10,94
7070,7,-262,-165,301,-87,80
7075,-7,-265,-155,361,-168,64
7080,-21,-263,-153,405,-241,48
7085,-28,-260,-150,428,-297,32
7090,-43,-249,-155,446,-326,15
7095,-53,-238,-149,453,-321,-3
7100,-64,-230,-144,453,-284,-27
7105,-55,-214,-141,449,-222,-68
7110,-53,-210,-133,441,-131,-93
7115,-47,-202,-117,424,-46,-118
7120,-30,-193,-106,396,28,-145
7125,-21,-189,-104,353,83,-171
7130,-16,-181,-96,306,116,-192
7135,-4,-179,-100,264,126,-206
7140,1,-174,-105,226,123,-217
7145,7,-177,-104,187,113,-221
7150,15,-171,-104,154,100,-229
7155,15,-171,-104,126,85,-232
7160,20,-170,-99,104,68,-237
7165,21,-165,-94,90,50,-237
7170,20,-165,-92,84,33,-232
7175,16,-160,-86,79,15,-223
7180,10,-164,-80,69,0,-208
7185,4,-159,-83,59,-15,-191
7190,1,-164,-80,48,-28,-170
7195,-8,-160,-70,44,-42,-150
7200,-12,-168,-67,44,-55,-132
7205,-15,-156,-66,49,-67,-116
7210,-14,-156,-62,58,-71,-101
7215,-10,-154,-59,74,-68,-91
7220,-11,-146,-59,93,-56,-85
7225,-3,-146,-57,117,-38,-83
7230,0,-145,-56,143,-14,-87
7235,-1,-140,-59,165,15,-91
7240,6,-139,-63,182,43,-95
7245,15,-138,-64,195,71,-103
7250,24,-142,-64,201,98,-116
7255,22,-147,-56,207,119,-127
7260,28,-141,-64,210,128,-140
7265,30,-150,-62,210,128,-153
7270,35,-156,-61,208,116,-167
7275,36,-159,-60,208,98,-178
7280,39,-168,-57,209,74,-186
7285,38,-176,-54,210,43,-198
7290,38,-186,-51,207,10,-209
7295,32,-190,-49,199,-27,-224
7300,26,-196,-51,186,-66,-241
7305,24,-202,-50,165,-98,-254
7310,13,-209,-48,145,-118,-262
7315,-2,-215,-42,138,-131,-267
7320,-17,-222,-27,159,-142,-276
7325,-33,-231,-24,215,-158,-283
7330,-47,-240,-23,310,-175,-288
7335,-58,-248,-20,432,-190,-293
7340,-72,-249,-19,566,-209,-301
7345,-91,-243,-29,684,-232,-317
7350,-104,-237,-36,763,-260,-329
7355,-109,-237,-41,788,-303,-330
7360,-123,-234,-51,762,-344,-314
7365,-127,-237,-55,709,-380,-277
7370,-113,-229,-55,656,-396,-230
7375,-84,-220,-55,633,-376,-167
7380,-59,-217,-59,641,-311,-96
7385,-28,-221,-64,658,-224,-29
7390,1,-225,-72,643,-150,11
7395,29,-236,-91,566,-107,28
7400,59,-254,-103,425,-111,28
7405,76,-262,-125,230,-149,14
7410,89,-260,-157,20,-194,9
7415,102,-256,-201,-170,-230,20
7420,118,-252,-260,-328,-244,28
7425,127,-234,-320,-463,-230,30
7430,133,-225,-367,-611,-182,20
7435,129,-219,-398,-770,-88,-2
7440,121,-223,-399,-904,57,-33
7445,107,-234,-361,-966,247,-77
7450,69,-242,-306,-917,446,-129
7455,55,-247,-280,-771,639,-176
7460,47,-235,-266,-585,806,-225
7465,30,-235,-249,-422,936,-272
7470,-4,-217,-231,-280,1033,-297
7475,-25,-216,-211,-183,1105,-312
7480,-31,-216,-195,-112,1169,-298
7485,-52,-201,-181,-101,1221,-264
7490,-56,-199,-170,-153,1249,-205
7495,-50,-206,-168,-229,1250,-122
7500,-39,-225,-178,-336,1218,-34
7505,-26,-239,-184,-450,1162,41
7510,-7,-253,-193,-542,1103,102
7515,13,-262,-201,-596,1044,156
7520,37,-272,-194,-621,981,198
7525,62,-282,-195,-609,895,232
7530,70,-283,-194,-588,798,247
7535,83,-294,-185,-587,724,277
7540,81,-298,-175,-582,677,304
7545,85,-299,-162,-565,660,318
7550,72,-294,-155,-537,651,316
7555,63,-291,-157,-501,627,296
7560,31,-283,-153,-461,581,258
7565,5,-273,-158,-429,524,212
7570,-17,-242,-168,-398,466,155
7575,-70,-252,-151,-393,435,119
7580,-89,-226,-146,-317,356,58
7585,-111,-211,-152,-245,317,-4
7590,-123,-200,-141,-200,300,-40
7595,-124,-197,-128,-188,285,-70
7600,-126,-199,-120,-207,261,-98
7605,-120,-200,-117,-252,229,-113
7610,-116,-191,-111,-298,206,-102
7615,-98,-186,-116,-340,198,-49
7620,-48,-192,-92,-401,207,27
7625,6,-184,-89,-429,252,101
7630,31,-194,-77,-510,309,174
7635,69,-211,-51,-671,319,205
7640,120,-220,-10,-838,256,194
7645,132,-217,7,-923,147,175
7650,106,-213,2,-910,32,177
7655,78,-199,-34,-823,-64,191
7660,48,-181,-77,-722,-114,191
7665,16,-153,-117,-620,-126,167
7670,-7,-126,-137,-528,-110,130
7675,-25,-95,-124,-481,-87,101
7680,-35,-74,-123,-458,-100,83
7685,-42,-41,-116,-437,-151,30
7690,-43,-36,-120,-426,-199,-7
7695,-40,-27,-138,-418,-241,-14
7700,-44,-31,-174,-439,-276,22
7705,-47,-39,-191,-508,-312,91
7710,-47,-45,-231,-627,-341,185
7715,-37,-53,-258,-780,-350,277
7720,-36,-62,-276,-949,-332,345
7725,-37,-77,-277,-1108,-293,390
7730,-43,-87,-267,-1226,-244,406
7735,-45,-118,-243,-1312,-201,411
7740,-51,-142,-221,-1360,-180,406
7745,-56,-162,-205,-1384,-197,405
7750,-60,-183,-192,-1393,-250,404
7755,-67,-192,-183,-1387,-336,402
7760,-74,-202,-174,-1359,-442,392
7765,-87,-199,-162,-1307,-547,377
7770,-96,-195,-156,-1237,-647,358
7775,-108,-181,-155,-1160,-728,334
7780,-114,-167,-154,-1089,-784,299
7785,-116,-148,-147,-1039,-811,262
7790,-106,-131,-138,-1000,-797,218
7795,-93,-114,-130,-990,-750,177
7800,-64,-105,-129,-1013,-682,142
7805,-47,-99,-120,-1054,-613,112
7810,-26,-99,-110,-1101,-556,89
7815,-6,-99,-105,-1140,-519,76
7820,9,-99,-106,-1176,-499,75
7825,15,-102,-108,-1209,-493,86
7830,21,-104,-110,-1233,-485,103
7835,26,-114,-111,-1248,-474,122
7840,27,-123,-106,-1255,-450,137
7845,35,-127,-100,-1261,-417,144
7850,37,-131,-95,-1268,-369,146
7855,39,-132,-94,-1262,-307,148
7860,43,-136,-99,-1245,-232,147
7865,42,-136,-109,-1212,-153,143
7870,49,-139,-111,-1176,-81,138
7875,47,-140,-113,-1140,-16,128
7880,50,-143,-100,-1106,44,115
7885,51,-139,-106,-1075,99,97
7890,42,-131,-104,-1059,147,74
7895,37,-138,-97,-1064,191,59
7900,37,-141,-100,-1086,228,51
7905,34,-149,-74,-1116,255,46
7910,37,-155,-60,-1142,272,46
7915,31,-161,-59,-1161,282,46
7920,25,-172,-50,-1180,289,49
7925,19,-179,-47,-1191,294,61
7930,13,-184,-42,-1197,295,72
7935,6,-193,-46,-1197,300,80
7940,5,-197,-40,-1199,313,92
7945,18,-205,-31,-1194,330,99
7950,25,-218,-26,-1161,364,99
7955,43,-232,-27,-1106,423,91
7960,59,-239,-32,-1038,495,77
7965,77,-248,-34,-956,579,55
7970,95,-248,-54,-856,660,25
7975,109,-245,-65,-742,736,-13
7980,118,-236,-86,-616,801,-58
7985,127,-217,-110,-495,847,-108
7990,119,-193,-147,-385,875,-156
7995,105,-179,-191,-307,875,-187
8000,83,-164,-220,-277,829,-203
8005,40,-150,-264,-320,723,-196
8010,-15,-147,-307,-429,549,-175
8015,-86,-142,-343,-584,340,-141
8020,-143,-151,-372,-769,136,-97
8025,-178,-147,-391,-968,-43,-43
8030,-200,-161,-417,-1163,-183,3
8035,-212,-166,-432,-1325,-286,28
8040,-223,-183,-419,-1430,-379,31
8045,-234,-207,-388,-1438,-474,18
8050,-224,-229,-363,-1349,-573,-4
8055,-190,-237,-326,-1206,-669,-40
8060,-148,-237,-300,-1050,-739,-105
8065,-114,-225,-273,-913,-772,-182
8070,-77,-216,-252,-808,-763,-251
8075,-61,-198,-242,-705,-725,-330
8080,-55,-169,-228,-581,-671,-411
8085,-48,-134,-216,-452,-600,-477
8090,-38,-94,-195,-344,-514,-524
8095,-34,-60,-185,-261,-419,-554
8100,-24,-44,-175,-215,-318,-565
8105,-7,-18,-177,-212,-221,-563
8110,10,4,-188,-257,-135,-547
8115,11,20,-199,-332,-61,-517
8120,26,35,-226,-434,7,-476
8125,32,39,-242,-552,82,-424
8130,28,38,-261,-662,150,-374
8135,15,32,-277,-746,192,-322
8140,1,13,-289,-813,206,-263
8145,-9,-4,-283,-890,196,-187
8150,-16,-23,-285,-980,175,-100
8155,-25,-39,-288,-1085,144,-9
8160,-40,-59,-292,-1188,109,76
8165,-47,-66,-298,-1263,69,141
8170,-49,-67,-300,-1298,28,183
8175,-52,-64,-291,-1301,-8,196
8180,-64,-52,-285,-1283,-44,187
8185,-63,-59,-282,-1272,-65,180
8190,-56,-80,-275,-1282,-67,181
8195,-44,-101,-277,-1300,-60,184
8200,-42,-116,-270,-1314,-57,194
8205,-35,-131,-267,-1320,-59,205
8210,-28,-143,-269,-1314,-70,212
8215,-29,-155,-272,-1305,-87,219
8220,-24,-162,-263,-1284,-109,226
8225,-27,-163,-257,-1247,-137,233
8230,-34,-169,-250,-1199,-161,230
8235,-47,-170,-238,-1142,-178,222
8240,-56,-169,-224,-1080,-185,211
8245,-59,-177,-218,-1017,-187,192
8250,-59,-177,-209,-958,-179,167
8255,-61,-169,-188,-901,-165,141
8260,-61,-151,-179,-854,-144,112
8265,-63,-134,-186,-841,-122,84
8270,-54,-121,-193,-872,-112,55
8275,-59,-113,-201,-940,-130,31
8280,-46,-116,-215,-1017,-186,18
8285,-47,-111,-205,-1078,-267,11
8290,-47,-106,-195,-1102,-356,10
8295,-47,-97,-190,-1111,-434,7
8300,-50,-88,-190,-1137,-493,3
8305,-49,-73,-194,-1186,-537,3
8310,-45,-59,-193,-1256,-588,8
8315,-43,-54,-189,-1334,-648,11
8320,-40,-50,-173,-1404,-704,13
8325,-42,-47,-165,-1455,-751,21
8330,-38,-33,-152,-1515,-779,28
8335,-11,-26,-164,-1623,-788,20
8340,-8,-75,-114,-1777,-777,-29
8345,13,-92,-90,-1732,-786,-31
8350,32,-91,-82,-1628,-815,-13
8355,43,-93,-53,-1515,-848,2
8360,55,-94,-29,-1414,-862,15
8365,64,-90,2,-1341,-847,26
8370,75,-77,16,-1266,-813,49
8375,80,-60,21,-1188,-761,88
8380,95,-37,19,-1133,-697,131
8385,100,-17,31,-1151,-620,151
8390,101,-17,51,-1208,-530,150
8395,116,4,40,-1186,-456,164
8400,121,7,45,-1129,-383,206
8405,126,15,44,-1064,-307,246
8410,118,18,36,-1002,-239,277
8415,100,27,14,-944,-173,301
8420,74,32,-13,-930,-109,318
8425,52,34,-19,-959,-47,332
8430,3,29,-42,-1002,16,338
8435,-33,22,-50,-1051,86,340
8440,-44,13,-48,-1081,149,343
8445,-65,-2,-44,-1117,194,335
8450,-85,-31,-35,-1155,206,332
8455,-91,-63,-7,-1185,165,336
8460,-92,-77,-1,-1151,87,359
8465,-94,-89,14,-1120,-20,371
8470,-93,-91,21,-1063,-126,381
8475,-86,-109,36,-1014,-207,390
8480,-73,-96,32,-939,-244,419
8485,-56,-81,35,-904,-255,441
8490,-44,-71,39,-916,-249,455
8495,-30,-65,39,-911,-237,479
8500,-16,-59,41,-895,-218,499
8505,-1,-62,35,-861,-199,537
8510,15,-37,15,-782,-188,598
8515,27,-29,3,-724,-185,659
8520,39,-2,-42,-642,-129,751
8525,60,18,-94,-603,71,820
8530,93,38,-147,-566,393,912
8535,137,56,-181,-536,747,1007
8540,182,62,-193,-504,1089,1075
8545,202,70,-201,-465,1403,1114
8550,216,76,-223,-418,1712,1142
8555,215,87,-241,-357,2050,1179
8560,214,105,-252,-279,2403,1232
8565,224,123,-292,-186,2747,1290
8570,245,133,-320,-97,3073,1353
8575,266,158,-345,-30,3360,1414
8580,277,180,-358,-5,3645,1475
8585,258,189,-366,-32,3848,1518
8590,213,197,-369,-93,4010,1546
8595,170,210,-373,-156,4155,1560
8600,123,229,-390,-191,4292,1558
8605,74,228,-391,-177,4417,1538
8610,40,212,-372,-113,4488,1508
8615,10,189,-378,-16,4494,1468
8620,-27,175,-406,73,4455,1427
8625,45,88,-278,138,4323,1398
8630,-269,647,-580,1716,4255,1349
8635,-48,520,-612,2511,4525,1361
8640,52,993,-630,1371,3796,472
8645,65,950,-620,1209,3595,581
8650,51,796,-787,1452,2581,135
8655,-90,279,-318,1465,1961,-160
8660,-78,-361,-741,1804,1796,369
8665,-47,56,-961,1249,1194,317
8670,91,100,-824,875,510,140
8675,312,-189,-748,1256,-101,220
8680,438,-25,-810,1067,-366,234
8685,768,174,-917,620,-315,136
8690,676,353,-902,277,-77,-5
8695,534,390,-933,230,157,-160
8700,463,418,-877,250,279,-293
8705,412,343,-827,205,329,-349
8710,312,308,-758,-112,358,-406
8715,205,264,-678,-594,390,-448
8720,188,269,-680,-1052,385,-472
8725,148,218,-687,-1376,296,-509
8730,103,118,-528,-1639,242,-541
8735,40,74,-467,-1729,140,-577
8740,32,22,-421,-1791,-13,-579
8745,-24,38,-337,-1880,-8,-536
8750,-36,55,-310,-1993,63,-424
8755,-12,110,-321,-2065,-51,-328
8760,-34,75,-258,-1918,-134,-172
8765,-63,38,-190,-1577,-160,7
8770,-19,92,-172,-1267,-289,164
8775,-8,148,-152,-1069,-669,204
8780,9,131,-76,-996,-935,254
8785,30,137,-90,-775,-1090,250
8790,65,180,-103,-476,-1189,254
8795,91,153,-78,-281,-1221,264
8800,163,153,-72,-183,-1192,283
8805,223,160,-86,-72,-1252,244
8810,238,161,-89,81,-1323,170
8815,235,166,-106,187,-1337,73
8820,218,166,-104,208,-1323,-28
8825,184,161,-117,177,-1285,-119
8830,131,157,-134,139,-1208,-190
8835,85,137,-139,99,-1102,-241
8840,50,126,-139,53,-985,-276
8845,44,116,-151,5,-863,-282
8850,31,109,-162,-56,-759,-284
8855,48,90,-144,-103,-654,-278
8860,51,73,-140,-118,-578,-285
8865,78,66,-131,-105,-523,-279
8870,56,61,-130,-37,-504,-261
8875,110,68,-157,62,-505,-249
8880,88,86,-160,106,-538,-224
8885,143,79,-189,62,-599,-214
8890,132,62,-194,142,-548,-173
8895,121,76,-185,320,-473,-162
8900,112,97,-149,402,-400,-167
8905,102,106,-157,420,-301,-200
8910,137,89,-118,361,-195,-230
8915,109,123,-127,339,-67,-260
8920,102,121,-120,313,28,-276
8925,106,125,-110,295,116,-287
8930,103,120,-111,284,199,-283
8935,110,113,-126,280,283,-263
8940,112,120,-152,293,372,-231
8945,112,119,-162,302,458,-197
8950,112,123,-169,304,524,-166
8955,111,116,-169,287,556,-140
8960,105,91,-150,256,563,-112
8965,93,64,-140,250,566,-103
8970,69,51,-125,280,576,-113
8975,49,47,-121,298,595,-119
8980,35,35,-108,306,610,-119
8985,23,36,-97,312,601,-115
8990,13,34,-96,336,562,-111
8995,-4,43,-110,381,518,-100
9000,-6,51,-125,429,500,-80
9005,-7,71,-138,463,509,-56
9010,7,74,-138,485,521,-33
9015,20,72,-142,492,519,-15
9020,29,140,-178,573,477,-2
9025,33,113,-159,737,402,-18
9030,35,101,-158,884,326,-25
9035,36,95,-179,947,265,-40
9040,33,121,-183,911,157,-80
9045,46,153,-247,935,-201,-278
9050,7,146,-250,943,-463,-374
9055,-12,126,-229,873,-611,-394
9060,6,120,-272,826,-617,-332
9065,-9,101,-262,617,-720,-352
9070,-1,79,-240,342,-743,-312
9075,-27,82,-204,137,-730,-263
9080,32,101,-261,-114,-736,-329
9085,43,101,-256,-272,-764,-358
9090,32,90,-259,-279,-805,-377
9095,43,94,-277,-228,-828,-397
9100,69,175,-307,-185,-799,-385
9105,110,135,-283,-208,-763,-306
9110,86,112,-279,-215,-777,-291
9115,109,111,-291,-69,-803,-290
9120,96,109,-305,156,-820,-282
9125,95,121,-307,313,-861,-279
9130,64,111,-304,397,-895,-264
9135,55,98,-307,408,-886,-232
9140,58,100,-311,381,-824,-191
9145,54,104,-310,344,-731,-153
9150,55,93,-314,310,-637,-124
9155,61,93,-321,284,-559,-108
9160,61,96,-315,254,-504,-94
9165,56,97,-319,230,-460,-88
9170,55,91,-319,222,-420,-83
9175,46,80,-314,224,-386,-78
9180,41,71,-311,230,-367,-74
9185,43,66,-312,228,-363,-64
9190,41,64,-310,228,-359,-57
9195,48,76,-296,232,-346,-51
9200,18,61,-285,240,-338,-44
9205,32,42,-291,247,-352,-38
9210,48,64,-293,236,-347,-32
9215,41,58,-279,225,-314,-27
9220,26,37,-288,237,-295,-29
9225,38,38,-295,258,-280,-28
9230,41,43,-289,285,-259,-21
9235,47,52,-287,318,-255,-17
9240,46,62,-285,346,-261,-16
9245,47,55,-274,354,-272,-13
9250,39,54,-273,357,-279,-12
9255,34,54,-265,351,-282,-9
9260,34,53,-259,338,-285,-7
9265,28,50,-256,327,-285,1
9270,30,55,-255,318,-284,8
9275,24,58,-247,311,-282,19
9280,22,44,-246,303,-286,31
9285,25,38,-256,302,-292,42
9290,26,37,-257,304,-291,50
9295,24,39,-255,314,-288,60
9300,29,42,-260,325,-286,65
9305,28,36,-256,341,-281,71
9310,34,39,-249,359,-275,80
9315,31,35,-242,371,-270,84
9320,28,28,-242,382,-263,88
9325,33,33,-235,385,-260,90
9330,44,45,-245,381,-245,91
9335,37,53,-237,366,-214,89
9340,37,48,-241,360,-197,92
9345,39,33,-237,350,-163,116
9350,51,51,-241,325,-126,143
9355,40,44,-241,292,-82,167
9360,34,45,-246,285,-50,179
9365,17,45,-236,272,-33,171
9370,24,22,-229,266,-23,173
9375,11,27,-223,261,-7,167
9380,8,22,-223,254,6,151
9385,18,26,-229,252,2,135
9390,5,22,-227,244,2,123
9395,9,21,-231,242,-6,112
9400,23,17,-236,239,-6,98
9405,11,14,-228,241,-4,88
9410,10,20,-238,243,-9,80
9415,15,20,-240,245,-15,74
9420,11,18,-242,246,-19,72
9425,9,12,-236,245,-25,69
9430,13,10,-241,246,-33,66
9435,5,14,-236,239,-41,60
9440,12,13,-240,231,-48,55
9445,9,13,-235,226,-57,51
9450,10,11,-240,223,-64,44
9455,8,16,-233,217,-67,36
9460,12,15,-238,211,-68,31
9465,20,15,-239,205,-68,26
9470,16,15,-237,195,-65,23
9475,14,19,-238,186,-63,21
9480,21,14,-242,179,-58,20
9485,23,14,-249,175,-49,18
9490,21,15,-246,174,-42,17
9495,16,16,-248,175,-33,14
9500,19,15,-250,171,-24,14
9505,21,14,-253,167,-13,13
9510,17,19,-252,160,-5,10
9515,18,17,-252,154,3,9
9520,22,15,-252,149,13,6
9525,22,16,-253,144,23,6
9530,25,18,-249,138,32,5
9535,25,17,-248,131,40,4
9540,22,18,-250,126,49,2
9545,26,18,-248,123,59,1
9550,19,18,-248,116,66,3
9555,21,23,-247,110,74,1
9560,22,20,-250,102,77,1
9565,16,23,-245,96,83,-1
9570,22,21,-244,92,87,-1
9575,26,18,-253,87,91,-1
9580,23,20,-251,83,96,-2
9585,24,22,-254,78,101,-2
9590,24,21,-252,74,104,-2
9595,24,23,-250,72,104,-3
9600,26,23,-253,68,105,-1
9605,23,22,-254,62,106,-1
9610,22,21,-250,58,107,-2
9615,31,25,-245,53,109,-1
9620,22,26,-251,47,112,-3
9625,21,24,-246,43,118,-5
9630,23,24,-246,41,121,-6
9635,27,21,-249,42,121,-8
9640,24,24,-246,40,123,-9
9645,25,21,-242,38,123,-10
9650,26,24,-245,34,121,-9
9655,25,23,-240,30,121,-8
9660,24,24,-244,25,120,-8
9665,25,22,-247,21,119,-9
9670,24,22,-236,19,119,-9
9675,30,20,-245,18,120,-7
9680,27,23,-248,18,123,-8
9685,29,22,-245,17,125,-7
9690,29,23,-251,16,127,-7
9695,27,27,-245,16,128,-7
9700,29,24,-248,17,127,-6
9705,30,26,-248,21,126,-5
9710,31,27,-246,20,127,-4
9715,26,27,-248,22,125,-3
9720,30,23,-246,25,122,-4
9725,32,20,-250,27,120,-5
9730,29,25,-242,26,122,-7
9735,30,24,-247,26,121,-7
9740,31,28,-247,29,118,-3
9745,32,25,-251,33,116,-5
9750,31,22,-246,37,113,-4
9755,29,22,-248,39,108,-5
9760,32,25,-249,37,104,-7
9765,28,19,-250,35,101,-5
9770,32,22,-250,33,96,-5
9775,31,23,-246,33,91,-6
9780,31,21,-248,34,86,-5
9785,30,24,-250,39,81,-5
9790,30,25,-249,43,77,-4
9795,30,26,-253,49,73,-4
9800,29,26,-253,55,71,-3
9805,33,24,-252,55,68,-6
9810,33,22,-253,54,68,-3
9815,32,24,-253,50,65,-3
9820,30,27,-252,49,63,-3
9825,32,25,-253,51,62,-4
9830,29,24,-254,51,61,-3
9835,34,23,-249,50,59,-4
9840,33,25,-252,51,57,-5
9845,31,23,-251,51,53,-3
9850,34,23,-249,50,49,-3
9855,33,24,-250,48,46,-5
9860,32,25,-250,47,40,-6
9865,32,23,-249,47,37,-5
9870,29,23,-251,46,34,-4
9875,31,23,-249,47,31,-7
9880,30,26,-252,50,29,-9
9885,32,21,-253,55,26,-9
9890,32,21,-253,59,23,-7
9895,32,24,-251,62,22,-7
9900,32,25,-249,64,21,-8
9905,35,22,-248,64,20,-7
9910,36,24,-252,65,18,-7
9915,32,19,-246,66,15,-6
9920,37,21,-251,67,13,-7
9925,31,25,-248,66,10,-6
9930,31,25,-245,67,8,-7
9935,32,32,-240,66,5,-8
9940,32,24,-244,63,3,-10
9945,33,18,-246,60,2,-9
9950,28,22,-243,59,1,-8
9955,32,23,-245,58,0,-10
9960,30,23,-246,58,0,-9
9965,31,20,-242,58,0,-11
9970,33,22,-246,59,1,-11
9975,31,22,-252,63,-2,-10
9980,32,23,-247,66,-1,-12
9985,33,21,-242,69,-1,-11
9990,28,21,-245,70,-1,-11
9995,30,23,-250,73,0,-8
10000,33,18,-252,74,0,-10
10005,29,22,-250,73,1,-11
10010,32,22,-249,72,3,-10
10015,34,22,-249,71,2,-11
10020,29,21,-249,71,2,-10
10025,32,23,-248,69,1,-9
10030,29,22,-244,69,0,-11
10035,29,23,-250,68,1,-11
10040,31,23,-245,66,1,-11
10045,28,26,-248,64,3,-11
10050,30,22,-248,63,2,-11
10055,28,22,-246,64,3,-11
10060,33,21,-246,63,5,-12
10065,33,21,-248,64,4,-9
10070,33,21,-251,64,5,-10
10075,31,22,-253,66,4,-10
10080,30,24,-247,66,3,-9
10085,31,19,-250,66,2,-10
10090,29,20,-246,66,3,-10
10095,39,21,-254,65,1,-10
10100,33,22,-247,64,1,-11
10105,31,23,-251,62,1,-11
10110,29,21,-247,61,0,-11
10115,30,23,-248,60,1,-10
10120,30,23,-246,57,1,-12
10125,30,21,-247,55,3,-11
10130,29,22,-250,55,4,-12
10135,29,21,-243,54,8,-11
10140,33,21,-247,54,9,-11
10145,29,23,-251,55,11,-12
10150,28,22,-247,55,12,-12
10155,31,24,-248,55,12,-10
10160,27,23,-248,54,12,-10
10165,29,21,-246,54,14,-9
10170,30,20,-249,55,14,-9
10175,31,21,-250,54,14,-10
10180,32,22,-247,52,15,-11
10185,31,22,-248,52,16,-11
10190,31,21,-249,52,16,-10
10195,28,21,-247,51,17,-11
10200,36,19,-247,52,19,-11
10205,30,24,-248,53,20,-11
10210,30,22,-248,54,22,-11
10215,31,24,-246,51,22,-10
10220,29,23,-246,50,23,-10
10225,33,20,-248,47,22,-9
10230,32,22,-247,47,24,-10
10235,31,23,-246,49,23,-11
10240,29,22,-251,49,24,-9
10245,33,19,-251,51,26,-9
10250,33,25,-245,54,24,-9
10255,32,19,-249,55,26,-9
10260,29,22,-248,58,29,-7
10265,29,21,-251,60,31,-8
10270,32,22,-246,63,30,-10
10275,27,24,-246,63,31,-9
10280,31,23,-246,60,31,-8
10285,28,24,-249,59,33,-9
10290,28,23,-243,59,33,-8
10295,32,22,-247,60,33,-8
10300,29,24,-246,62,32,-9
10305,34,20,-245,63,31,-7
10310,44,24,-256,64,31,-7
10315,33,25,-247,63,31,-7
10320,32,25,-251,64,32,-9
10325,30,22,-248,64,33,-9
10330,32,21,-253,65,35,-8
10335,36,20,-250,66,36,-9
10340,34,19,-251,69,35,-8
10345,32,24,-250,69,34,-6
10350,32,20,-248,68,34,-6
10355,32,23,-245,69,33,-6
10360,33,22,-244,69,34,-6
10365,33,26,-247,69,36,-6
10370,32,24,-250,69,36,-7
10375,31,23,-249,68,37,-8
10380,32,24,-244,68,37,-9
10385,31,23,-244,67,38,-6
10390,32,21,-246,65,37,-6
10395,35,22,-251,63,37,-8
10400,34,20,-246,64,37,-8
10405,31,19,-249,64,36,-7
10410,33,20,-248,62,34,-7
10415,30,22,-244,62,32,-7
10420,34,18,-237,61,32,-7
10425,31,21,-247,61,31,-8
10430,33,21,-248,60,30,-8
10435,33,23,-247,59,30,-10
10440,33,23,-244,58,31,-9
10445,30,19,-245,59,30,-9
10450,34,19,-249,57,31,-8
10455,36,20,-245,59,30,-9
10460,38,16,-248,61,28,-8
10465,32,23,-244,62,32,-8
10470,24,21,-248,64,29,-9
10475,32,20,-248,64,28,-8
10480,35,19,-247,59,27,-9
10485,32,20,-247,58,28,-9
10490,32,23,-247,58,28,-10
10495,33,18,-247,58,27,-10
10500,33,20,-247,59,26,-7
10505,32,23,-248,59,27,-9
10510,34,19,-250,59,26,-11
10515,35,21,-246,58,26,-9
10520,32,21,-247,59,29,-11
10525,31,18,-237,61,28,-11
10530,32,19,-243,58,26,-12
10535,33,19,-248,56,26,-10
10540,32,20,-247,56,25,-11
10545,30,22,-248,56,25,-10
10550,35,21,-247,55,25,-11
10555,35,20,-246,55,24,-9
10560,34,16,-248,56,25,-10
10565,37,19,-247,59,25,-10
10570,36,21,-249,58,25,-9
10575,34,19,-249,58,23,-9
10580,34,16,-252,57,25,-7
10585,31,20,-250,58,31,-10
10590,32,22,-250,57,31,-9
10595,33,19,-244,57,30,-10
10600,32,22,-246,52,31,-11
10605,36,18,-244,49,30,-11
10610,31,19,-250,50,29,-10
10615,36,23,-250,51,26,-9
10620,31,21,-246,55,24,-11
10625,33,23,-246,55,25,-11
10630,32,22,-254,55,28,-12
10635,33,18,-247,56,32,-13
10640,33,22,-249,57,34,-15
10645,34,21,-249,60,35,-12
10650,36,21,-247,57,35,-10
10655,32,22,-249,55,36,-10
10660,34,23,-246,56,37,-10
10665,35,20,-248,55,35,-10
10670,33,25,-253,54,34,-9
10675,34,17,-249,52,35,-10
10680,38,22,-249,50,35,-10
10685,38,24,-244,52,36,-10
10690,33,23,-254,49,38,-12
10695,32,21,-250,52,34,-12
10700,33,24,-246,49,36,-12
10705,38,18,-249,46,37,-8
10710,35,23,-248,46,36,-8
10715,33,21,-243,47,34,-9
10720,34,22,-249,46,32,-8
10725,33,20,-251,47,32,-10
10730,33,18,-247,48,34,-10
10735,33,22,-247,48,34,-13
10740,42,19,-251,51,33,-10
10745,36,18,-247,51,35,-9
10750,31,20,-247,51,35,-10
10755,35,19,-248,53,36,-9
10760,35,20,-248,53,36,-9
10765,32,21,-245,53,34,-8
10770,35,20,-248,54,34,-9
10775,37,20,-249,52,34,-10
10780,39,22,-248,49,33,-10
10785,37,17,-248,50,33,-11
10790,34,20,-248,49,35,-14
10795,27,20,-247,51,31,-12
10800,36,25,-248,51,33,-11
10805,39,21,-247,51,34,-11
10810,34,21,-245,51,33,-11
10815,31,18,-247,50,34,-10
10820,36,19,-246,52,35,-9
10825,38,18,-247,52,35,-9
10830,35,17,-241,55,38,-10
10835,34,24,-250,54,38,-10
10840,35,21,-249,56,38,-9
10845,35,25,-247,57,38,-11
10850,36,19,-249,56,37,-9
10855,35,22,-247,59,35,-9
10860,37,20,-247,58,33,-10
10865,38,22,-246,57,32,-9
10870,36,21,-254,56,33,-9
10875,34,21,-247,52,37,-11
10880,37,17,-249,55,32,-11
10885,39,20,-248,53,31,-11
10890,41,18,-243,53,33,-9
10895,39,18,-245,52,34,-8
10900,36,21,-251,52,33,-10
10905,36,20,-248,52,33,-9
10910,35,19,-247,52,31,-8
10915,34,17,-248,52,31,-8
10920,37,19,-249,52,33,-8
10925,39,20,-248,53,34,-8
10930,39,27,-247,52,35,-8
10935,37,16,-247,54,37,-9
10940,38,19,-252,51,37,-10
10945,39,19,-249,55,34,-11
10950,39,23,-243,53,38,-10
10955,38,23,-251,51,38,-9
10960,39,22,-246,53,36,-10
10965,37,21,-248,54,34,-9
10970,38,21,-253,56,32,-8
10975,37,24,-247,57,34,-9
10980,36,20,-248,56,36,-9
10985,37,19,-250,57,36,-8
10990,35,19,-250,55,34,-9
10995,38,22,-243,56,34,-9
11000,39,19,-248,55,35,-8
11005,37,15,-249,54,34,-10
11010,34,21,-246,54,34,-8
11015,36,18,-247,52,33,-11
11020,37,21,-246,53,31,-10
11025,33,23,-245,53,31,-8
11030,34,19,-246,54,29,-10
11035,38,20,-249,52,27,-9
11040,40,19,-250,53,24,-10
11045,38,24,-245,53,24,-8
11050,38,21,-250,53,26,-9
11055,37,21,-248,54,27,-10
11060,38,15,-245,53,27,-12
11065,37,22,-250,54,27,-11
11070,42,19,-247,54,26,-11
11075,39,19,-243,54,25,-10
11080,40,17,-246,53,26,-10
11085,37,20,-246,55,25,-10
11090,36,21,-249,54,23,-9
11095,37,19,-246,55,21,-10
11100,38,17,-243,54,22,-13
11105,33,21,-249,53,20,-13
11110,34,26,-250,56,20,-11
11115,35,18,-249,58,20,-10
11120,35,19,-246,56,25,-12
11125,36,19,-247,56,22,-12
11130,39,19,-249,56,22,-12
11135,40,21,-247,57,24,-12
11140,37,21,-248,58,26,-11
11145,36,20,-249,58,26,-11
11150,37,19,-251,57,24,-11
11155,39,18,-251,56,21,-12
11160,37,23,-246,56,18,-12
11165,34,23,-249,54,16,-11
11170,39,19,-242,53,14,-11
11175,39,22,-248,51,12,-11
11180,37,19,-252,50,13,-11
11185,38,22,-249,51,14,-11
11190,36,22,-244,50,14,-11
11195,35,21,-245,48,15,-12
11200,34,21,-249,48,17,-11
11205,40,24,-245,47,17,-10
11210,39,19,-248,48,18,-9
11215,35,20,-245,51,16,-10
11220,36,16,-246,55,14,-9
11225,39,17,-246,56,14,-9
11230,37,19,-248,57,14,-9
11235,38,21,-250,58,13,-10
11240,38,18,-247,58,14,-10
11245,35,20,-249,58,14,-10
11250,36,20,-249,56,15,-10
11255,35,23,-243,55,16,-10
11260,36,18,-246,53,16,-10
11265,38,20,-246,53,16,-12
11270,39,21,-247,52,16,-12
11275,36,22,-247,51,16,-10
11280,37,19,-247,52,17,-10
11285,37,20,-247,53,18,-11
11290,35,19,-249,53,18,-11
11295,36,22,-245,56,19,-9
11300,39,19,-247,57,20,-11
11305,35,21,-250,58,19,-10
11310,34,22,-247,60,18,-9
11315,38,21,-247,61,20,-9
11320,39,17,-246,60,19,-9
11325,40,23,-249,58,18,-9
11330,37,21,-250,58,17,-10
11335,36,20,-246,56,15,-11
11340,37,20,-250,56,15,-9
11345,38,18,-249,56,14,-10
11350,38,20,-253,54,16,-10
11355,40,21,-248,54,15,-9
11360,36,23,-250,55,13,-11
11365,37,24,-247,52,13,-11
11370,39,21,-252,51,14,-12
11375,37,24,-254,50,13,-9
11380,37,18,-249,50,14,-10
11385,39,20,-249,50,13,-9
11390,39,18,-248,50,14,-10
11395,39,21,-247,49,15,-11
11400,37,22,-249,50,15,-11
11405,38,20,-246,48,16,-13
11410,37,21,-249,48,15,-12
11415,39,21,-247,48,16,-11
11420,38,20,-244,49,15,-10
11425,36,21,-247,50,14,-10
11430,37,24,-251,51,14,-10
11435,38,21,-248,51,14,-12
11440,37,20,-248,50,15,-11
11445,38,18,-248,50,15,-11
11450,36,22,-247,49,15,-11
11455,37,20,-248,50,14,-10
11460,36,19,-247,50,14,-9
11465,38,20,-243,51,13,-11
11470,35,19,-248,52,13,-9
11475,36,19,-244,52,14,-9
11480,38,20,-247,52,14,-9
11485,38,22,-249,52,15,-10
11490,39,18,-247,49,16,-11
11495,38,21,-246,51,17,-9
11500,35,24,-248,51,18,-11
11505,38,19,-247,51,18,-13
11510,38,21,-248,52,17,-11
11515,35,22,-246,51,15,-10
11520,35,18,-249,49,16,-11
11525,40,19,-245,47,13,-13
11530,37,19,-246,43,11,-11
11535,38,21,-247,46,11,-10
11540,37,18,-249,49,12,-11
11545,38,22,-249,49,14,-11
11550,38,21,-250,48,14,-11
11555,39,19,-247,47,14,-11
11560,38,19,-248,47,16,-12
11565,38,24,-246,47,17,-11
11570,36,19,-245,49,18,-11
11575,38,19,-250,48,20,-10
11580,38,21,-250,50,22,-11
11585,46,20,-248,51,22,-10
11590,40,18,-255,50,23,-11
11595,38,21,-245,49,22,-11
11600,36,23,-249,49,21,-12
11605,37,18,-250,46,21,-12
11610,41,16,-245,45,19,-11
11615,38,22,-249,46,19,-12
11620,37,21,-249,46,16,-10
11625,36,21,-249,47,17,-11
11630,37,19,-248,47,18,-11
11635,38,23,-247,47,16,-11
11640,36,25,-247,46,16,-11
11645,38,20,-244,44,16,-10
11650,40,24,-247,44,17,-11
11655,39,21,-245,45,18,-11
11660,38,18,-248,45,17,-12
11665,38,20,-247,45,18,-12
11670,40,22,-250,45,19,-11
11675,39,22,-248,46,18,-13
11680,38,22,-246,46,18,-11
11685,39,21,-249,46,17,-9
11690,40,21,-245,47,16,-10
11695,40,16,-246,47,15,-9
11700,39,16,-253,47,16,-10
11705,40,19,-246,46,16,-11
11710,40,19,-248,47,15,-11
11715,40,20,-242,47,13,-11
11720,38,20,-250,48,13,-11
11725,38,22,-245,50,12,-9
11730,39,20,-247,51,11,-11
11735,41,19,-248,52,11,-11
11740,36,21,-245,51,11,-10
11745,41,20,-246,51,13,-11
11750,39,20,-246,50,14,-10
11755,39,22,-250,48,14,-11
11760,36,21,-245,47,15,-12
11765,38,23,-248,47,13,-11
11770,38,21,-243,47,12,-12
11775,40,20,-249,47,12,-11
11780,40,19,-247,47,12,-11
11785,38,20,-246,46,12,-10
11790,34,24,-248,48,11,-10
11795,39,17,-245,49,11,-10
11800,41,20,-245,49,10,-11
11805,38,20,-248,49,11,-9
11810,39,19,-247,49,10,-10
11815,35,20,-249,49,11,-11
11820,41,20,-247,50,10,-11
11825,41,20,-244,49,10,-11
11830,38,21,-247,48,10,-11
11835,40,21,-246,47,9,-12
11840,40,24,-249,47,8,-13
11845,36,19,-245,45,8,-13
11850,41,16,-249,43,7,-12
11855,38,21,-243,44,8,-12
11860,34,24,-241,42,9,-13
11865,38,22,-244,42,11,-12
11870,38,20,-248,42,10,-12
11875,40,22,-243,41,11,-11
11880,38,19,-246,43,10,-11
11885,38,17,-248,45,8,-10
11890,36,21,-248,46,7,-10
11895,39,18,-245,48,6,-12
11900,40,18,-253,49,6,-12
11905,38,20,-245,50,7,-10
11910,43,13,-248,49,8,-12
11915,38,21,-249,49,9,-11
11920,40,19,-246,47,10,-12
11925,38,21,-248,46,11,-12
11930,38,20,-244,44,13,-11
11935,38,20,-245,44,13,-10
11940,38,21,-245,45,12,-12
11945,36,21,-248,47,12,-11
11950,42,20,-249,49,12,-10
11955,39,19,-243,50,12,-11
11960,39,20,-250,51,11,-12
11965,47,15,-251,50,12,-11
11970,37,23,-246,50,12,-11
11975,37,24,-245,51,13,-11
11980,38,22,-246,50,11,-10
11985,41,22,-248,49,12,-11
11990,42,23,-248,48,12,-10
11995,38,20,-249,48,10,-10
12000,38,22,-248,48,11,-11
12005,40,20,-252,48,10,-11
12010,37,21,-247,48,12,-9
12015,41,20,-248,47,12,-10
12020,38,24,-249,47,14,-10
12025,38,20,-247,47,14,-11
12030,39,19,-245,45,14,-10
12035,37,22,-247,45,14,-11
12040,39,22,-247,46,15,-12
12045,39,21,-247,46,16,-10
12050,38,20,-247,45,15,-11
12055,41,20,-248,46,13,-10
12060,36,22,-247,45,12,-12
12065,41,19,-245,45,11,-10
12070,37,19,-245,44,10,-9
12075,37,21,-247,44,11,-9
12080,40,20,-247,45,11,-11
12085,38,22,-246,45,11,-11
12090,41,17,-246,45,13,-11
12095,38,18,-249,47,14,-10
12100,39,18,-249,48,13,-11
12105,39,23,-240,49,14,-11
12110,41,21,-252,51,16,-11
12115,38,23,-243,51,16,-10
12120,38,22,-244,52,17,-10
12125,40,18,-248,51,16,-11
12130,36,19,-251,51,15,-10
12135,39,20,-250,49,14,-11
12140,39,24,-247,49,13,-11
12145,41,20,-248,48,13,-10
12150,37,21,-246,47,12,-9
12155,37,22,-248,47,13,-9
12160,39,23,-248,48,11,-10
12165,37,25,-247,49,11,-11
12170,36,16,-250,48,12,-11
12175,41,22,-251,48,12,-10
12180,44,17,-253,47,12,-9
12185,39,23,-249,45,11,-10
12190,38,21,-247,44,11,-12
12195,41,23,-244,45,11,-11
12200,38,22,-247,46,11,-11
12205,39,20,-249,46,11,-11
12210,37,21,-248,45,11,-11
12215,37,20,-247,47,11,-11
12220,37,20,-248,49,12,-9
12225,42,19,-246,49,12,-10
12230,41,20,-239,49,13,-11
12235,40,21,-249,49,12,-10
12240,38,23,-247,50,14,-9
12245,38,20,-249,48,14,-9
12250,38,21,-247,48,12,-11
12255,37,20,-249,50,11,-10
12260,39,21,-249,49,12,-10
12265,40,20,-250,48,12,-9
12270,41,21,-245,48,12,-9
12275,37,25,-247,48,12,-11
12280,38,17,-246,47,12,-10
12285,42,22,-245,48,12,-10
12290,41,19,-247,48,13,-11
12295,36,22,-248,48,12,-11
12300,39,20,-248,49,11,-9
12305,36,20,-246,49,10,-10
12310,41,19,-245,49,10,-10
12315,38,24,-249,50,10,-11
12320,35,23,-248,52,9,-11
12325,39,19,-248,55,9,-10
12330,36,18,-249,56,7,-10
12335,37,18,-248,54,12,-12
12340,40,22,-243,50,13,-11
12345,40,22,-250,51,13,-12
12350,40,17,-248,52,11,-11
12355,37,21,-247,53,10,-10
12360,40,20,-248,53,10,-10
12365,36,20,-246,53,10,-10
12370,40,21,-247,53,11,-10
12375,40,21,-245,54,11,-10
12380,41,21,-251,53,12,-10
12385,40,19,-245,53,12,-10
12390,37,23,-249,54,11,-10
12395,38,19,-247,52,12,-9
12400,39,21,-247,53,12,-11
12405,37,26,-249,54,11,-11
12410,39,23,-250,55,12,-11
12415,38,20,-248,56,11,-10
12420,39,23,-249,56,10,-10
12425,40,21,-246,55,11,-9
12430,40,21,-249,55,11,-9
12435,36,23,-246,55,12,-11
12440,40,16,-251,55,11,-11
12445,37,22,-251,54,12,-10
12450,42,23,-247,55,12,-8
12455,41,18,-247,52,13,-9
12460,36,19,-246,53,12,-10
12465,39,24,-248,52,12,-11
12470,37,20,-248,52,11,-11
12475,41,20,-246,53,11,-10
12480,39,23,-245,52,12,-9
12485,39,19,-243,53,12,-10
12490,37,19,-250,52,13,-11
12495,39,21,-246,51,13,-10
12500,36,20,-249,52,12,-9
12505,40,17,-245,52,12,-10
12510,40,21,-247,51,10,-11
12515,38,22,-251,51,8,-10
12520,39,21,-253,50,9,-12
12525,39,23,-247,50,10,-12
12530,37,23,-249,50,9,-12
12535,34,21,-248,50,10,-11
12540,36,18,-249,49,11,-12
12545,40,24,-245,48,11,-11
12550,38,22,-244,46,13,-11
12555,43,17,-244,46,13,-10
12560,42,22,-246,47,14,-10
12565,40,19,-248,49,12,-10
12570,37,23,-249,51,11,-9
12575,39,21,-246,53,11,-9
12580,39,20,-248,55,10,-10
12585,41,20,-250,55,9,-9
12590,40,22,-249,53,10,-10
12595,41,19,-252,51,10,-11
12600,39,20,-246,50,11,-11
12605,40,22,-248,48,13,-11
12610,39,21,-247,49,13,-12
12615,38,24,-243,48,14,-11
12620,35,20,-248,49,13,-12
12625,38,22,-248,50,13,-11
12630,36,23,-247,51,13,-11
12635,38,19,-251,51,13,-11
12640,38,21,-248,54,14,-10
12645,38,19,-250,54,14,-9
12650,37,23,-246,55,14,-10
12655,40,22,-250,55,16,-10
12660,38,24,-244,55,15,-9
12665,40,21,-249,54,15,-10
12670,41,20,-246,53,13,-9
12675,37,22,-251,51,13,-10
12680,40,25,-250,51,11,-11
12685,41,23,-244,50,10,-10
12690,40,22,-247,49,10,-9
12695,35,23,-247,49,10,-10
12700,39,21,-247,49,10,-9
12705,39,26,-244,50,10,-12
12710,33,19,-248,52,10,-12
12715,42,22,-249,52,11,-12
12720,38,20,-247,52,12,-11
12725,38,22,-248,52,12,-11
12730,40,21,-246,53,13,-10
12735,36,21,-249,52,11,-9
12740,38,20,-246,52,11,-9
12745,37,21,-247,53,11,-11
12750,37,22,-247,51,11,-12
12755,38,22,-248,54,11,-12
12760,41,19,-243,53,10,-11
12765,37,19,-245,53,11,-10
12770,41,20,-249,54,10,-10
12775,36,24,-248,53,10,-8
12780,41,22,-249,55,12,-8
12785,36,22,-243,56,12,-10
12790,38,20,-248,56,13,-10
12795,38,24,-246,57,13,-8
12800,42,21,-245,57,12,-10
12805,38,20,-246,58,13,-10
12810,37,24,-245,58,13,-10
12815,39,18,-248,58,13,-10
12820,36,21,-249,57,11,-10
12825,37,21,-244,56,10,-10
12830,35,19,-249,55,11,-9
12835,39,20,-244,55,9,-8
12840,38,21,-249,54,10,-10
12845,43,18,-245,54,11,-10
12850,39,21,-247,55,12,-9
12855,43,20,-245,56,12,-9
12860,39,22,-245,55,11,-9
12865,42,19,-249,54,10,-11
12870,36,21,-248,53,11,-9
12875,37,21,-248,54,10,-11
12880,39,18,-249,53,10,-10
12885,39,22,-248,53,11,-10
12890,39,21,-246,53,12,-11
12895,37,19,-242,52,13,-10
12900,36,20,-247,52,14,-9
12905,36,19,-249,51,12,-10
12910,39,21,-250,51,12,-11
12915,39,22,-247,51,12,-11
12920,34,23,-247,51,12,-12
12925,35,25,-254,51,13,-11
12930,37,20,-247,51,14,-10
12935,39,21,-249,51,12,-9
12940,38,20,-248,52,14,-11
12945,41,20,-248,51,13,-10
12950,39,20,-245,51,13,-9
12955,39,19,-247,53,11,-9
12960,39,21,-249,52,13,-10
12965,39,21,-247,52,14,-11
12970,40,22,-246,52,14,-10
12975,39,22,-250,51,14,-10
12980,42,19,-249,52,13,-9
12985,38,22,-247,52,13,-10
12990,39,22,-247,53,13,-10
12995,39,22,-250,52,12,-10
13000,39,23,-247,50,11,-10
13005,38,21,-247,50,11,-10
13010,40,21,-246,49,11,-11
13015,36,26,-246,50,9,-11
13020,37,16,-250,49,10,-9
13025,37,19,-249,50,12,-9
13030,48,25,-249,51,11,-12
13035,39,25,-249,50,12,-12
13040,40,19,-245,52,12,-10
13045,42,19,-250,52,13,-10
13050,38,24,-246,52,12,-12
13055,38,20,-247,53,14,-12
13060,39,21,-246,54,13,-10
13065,35,21,-245,54,13,-12
13070,41,24,-248,53,12,-10
13075,38,20,-246,53,11,-9
13080,35,20,-247,53,14,-11
13085,37,21,-249,55,13,-10
13090,36,22,-246,54,13,-10
13095,37,18,-249,53,11,-11
13100,39,22,-246,53,12,-11
13105,38,20,-247,53,12,-13
13110,38,19,-246,53,10,-11
13115,40,20,-251,52,11,-10
13120,40,17,-248,53,10,-11
13125,40,20,-249,54,12,-10
13130,38,25,-252,56,12,-10
13135,35,21,-247,55,13,-11
13140,39,18,-246,55,13,-11
13145,41,22,-246,54,15,-11
13150,37,21,-249,55,15,-10
13155,39,20,-247,54,15,-9
13160,39,23,-248,52,13,-10
13165,39,20,-246,54,13,-8
13170,40,18,-247,53,13,-9
13175,41,22,-248,54,13,-10
13180,40,21,-245,53,11,-10
13185,38,19,-246,53,11,-10
13190,39,16,-245,52,12,-10
13195,40,21,-249,52,11,-10
13200,38,21,-245,52,12,-10
13205,40,20,-251,53,13,-11
13210,40,21,-245,52,11,-10
13215,40,20,-250,51,11,-11
13220,41,21,-246,50,10,-12
13225,39,19,-245,50,11,-11
13230,39,21,-247,49,10,-11
13235,36,22,-247,48,9,-11
13240,42,22,-245,48,10,-11
13245,39,23,-245,50,10,-11
13250,40,24,-245,49,11,-11
13255,39,20,-247,47,12,-11
13260,40,23,-245,46,12,-12
13265,39,21,-246,46,12,-11
13270,37,21,-245,47,10,-10
13275,38,22,-248,51,10,-10
13280,38,24,-248,52,9,-10
13285,41,18,-248,54,9,-10
13290,38,22,-249,53,11,-10
13295,39,17,-244,54,11,-11
13300,38,24,-247,53,13,-11
13305,37,23,-246,50,13,-12
13310,40,22,-246,51,13,-12
13315,40,21,-245,51,14,-12
13320,36,21,-250,51,13,-12
13325,39,24,-246,50,12,-12
13330,37,24,-249,50,12,-12
13335,38,24,-244,51,11,-11
13340,38,21,-244,52,11,-12
13345,38,21,-247,53,11,-11
13350,37,18,-250,54,12,-10
13355,38,22,-249,55,13,-11
13360,39,20,-248,56,14,-10
13365,39,22,-246,55,14,-10
13370,36,24,-246,54,13,-11
13375,40,22,-249,55,14,-12
13380,33,24,-248,54,12,-10
13385,40,22,-245,55,11,-10
13390,37,16,-248,53,11,-10
13395,41,19,-246,54,10,-10
13400,38,21,-243,54,10,-11
13405,39,13,-251,53,9,-10
13410,41,19,-253,53,9,-11
13415,37,21,-246,53,9,-12
13420,41,20,-245,52,9,-12
13425,41,19,-248,52,10,-11
13430,40,21,-252,53,10,-10
13435,39,22,-245,53,10,-10
13440,40,19,-247,54,10,-10
13445,40,20,-246,53,10,-9
13450,39,16,-246,53,11,-10
13455,39,20,-251,54,11,-10
13460,42,19,-246,54,11,-11
13465,39,18,-244,53,11,-9
13470,39,18,-248,53,12,-9
13475,38,22,-248,51,11,-11
13480,38,20,-246,53,14,-13
13485,37,23,-246,57,14,-11
13490,40,20,-245,56,14,-10
13495,38,21,-246,57,14,-10
13500,39,19,-244,57,13,-10
13505,40,17,-250,56,13,-9
13510,38,24,-247,57,13,-8
13515,37,22,-248,57,14,-9
13520,42,17,-249,55,12,-11
13525,38,19,-244,54,12,-10
13530,42,22,-247,53,12,-10
13535,38,20,-247,53,11,-10
13540,38,20,-248,53,13,-11
13545,37,20,-244,54,13,-10
13550,42,19,-243,55,14,-10
13555,41,16,-247,55,12,-10
13560,43,22,-239,55,11,-10
13565,42,11,-243,54,10,-9
13570,41,20,-248,54,9,-10
13575,38,19,-248,53,10,-11
13580,38,23,-245,53,9,-11
13585,39,17,-246,52,11,-9
13590,42,19,-246,53,10,-9
13595,39,21,-245,52,12,-10
13600,37,21,-249,51,14,-10
13605,38,20,-248,52,14,-10
13610,35,18,-249,51,14,-11
13615,40,18,-247,52,14,-11
13620,34,25,-251,52,15,-10
13625,39,22,-249,51,13,-11
13630,37,21,-248,52,13,-11
13635,41,20,-250,52,12,-12
13640,39,21,-249,52,13,-12
13645,39,20,-247,52,13,-10
13650,37,23,-250,52,14,-11
13655,39,23,-243,52,15,-11
13660,39,22,-245,53,15,-11
13665,40,19,-246,51,14,-10
13670,39,14,-243,52,14,-11
13675,38,22,-247,51,14,-8
13680,35,24,-249,53,15,-11
13685,39,19,-247,53,14,-10
13690,39,22,-249,51,15,-11
13695,37,22,-245,53,14,-9
13700,39,18,-249,54,13,-12
13705,40,20,-243,53,14,-11
13710,36,23,-248,52,12,-10
13715,40,23,-253,52,12,-12
13720,40,22,-246,52,11,-9
13725,35,22,-248,52,11,-11
13730,38,20,-245,52,12,-11
13735,42,17,-245,52,12,-11
13740,39,18,-248,53,13,-11
13745,38,18,-247,52,12,-11
13750,38,21,-243,52,14,-12
13755,41,22,-250,52,13,-12
13760,39,19,-247,53,13,-11
13765,37,19,-247,53,14,-10
13770,40,22,-247,53,14,-11
13775,39,16,-248,54,12,-10
13780,38,21,-247,53,13,-10
13785,38,22,-246,52,13,-10
13790,40,19,-249,53,12,-12
13795,39,21,-247,55,12,-10
13800,42,20,-249,55,13,-9
13805,41,19,-244,56,12,-9
13810,37,23,-247,55,12,-10
13815,40,19,-250,55,12,-10
13820,41,19,-246,56,13,-11
13825,40,23,-248,54,13,-10
13830,40,19,-251,54,13,-9
13835,43,21,-255,54,14,-12
13840,39,20,-246,54,14,-11
13845,40,21,-246,54,15,-11
13850,39,21,-246,54,15,-10
13855,40,19,-248,54,14,-10
13860,38,24,-248,55,13,-10
13865,38,23,-250,55,13,-9
13870,42,22,-247,56,12,-9
13875,39,20,-247,56,13,-10
13880,43,16,-245,55,13,-12
13885,36,20,-242,53,14,-11
13890,40,20,-248,55,12,-10
13895,41,19,-250,54,12,-11
13900,38,23,-247,53,11,-9
13905,39,19,-248,54,13,-11
13910,42,21,-244,54,13,-12
13915,39,23,-249,54,13,-10
13920,37,22,-250,54,14,-9
13925,37,20,-249,53,14,-10
13930,39,20,-248,52,13,-11
13935,40,20,-246,52,14,-12
13940,36,22,-251,52,14,-11
13945,39,21,-245,51,13,-11
13950,38,21,-245,51,13,-12
13955,39,21,-246,52,12,-12
13960,38,20,-249,50,12,-12
13965,36,21,-251,49,11,-13
13970,40,18,-246,48,11,-12
13975,38,20,-244,48,12,-10
13980,39,21,-243,50,13,-11
13985,42,21,-247,49,13,-12
13990,35,21,-243,48,14,-11
13995,38,21,-247,47,15,-11
14000,39,20,-247,47,13,-12
14005,40,20,-247,48,11,-12
14010,38,22,-245,50,10,-9
14015,40,22,-248,54,10,-9
14020,40,20,-245,55,10,-9
14025,39,21,-248,55,10,-9
14030,37,20,-249,54,12,-11
14035,40,19,-249,52,12,-12
14040,36,22,-249,52,13,-12
14045,38,18,-246,50,13,-11
14050,42,20,-247,50,13,-10
14055,39,22,-244,49,15,-10
14060,40,19,-244,51,15,-10
14065,40,18,-245,52,15,-11
14070,42,21,-248,53,14,-10
14075,37,23,-246,54,13,-9
14080,40,23,-246,55,13,-12
14085,36,24,-251,56,13,-10
14090,38,24,-247,56,14,-10
14095,39,23,-247,55,13,-10
14100,38,22,-250,56,15,-9
14105,40,22,-248,56,15,-9
14110,40,18,-244,55,14,-9
14115,40,20,-249,54,14,-9
14120,38,21,-251,54,14,-8
14125,40,21,-250,54,13,-8
14130,41,21,-246,53,13,-10
14135,39,18,-242,53,14,-12
14140,37,19,-247,52,13,-10
14145,39,23,-245,53,12,-11
14150,39,27,-248,54,10,-11
14155,39,22,-247,51,11,-11
14160,39,21,-246,51,12,-10
14165,41,20,-249,50,11,-12
14170,40,20,-245,52,11,-12
14175,40,21,-246,51,10,-12
14180,38,21,-251,51,11,-11
14185,35,22,-249,52,11,-11
14190,39,19,-250,52,12,-12
14195,38,18,-251,52,12,-11
14200,41,24,-247,53,13,-10
14205,33,32,-242,53,13,-10
14210,40,19,-244,54,12,-11
14215,39,21,-246,53,12,-11
14220,37,21,-245,55,12,-10
14225,40,19,-244,54,12,-10
14230,38,19,-248,55,12,-8
14235,39,22,-245,55,12,-8
14240,40,18,-245,54,11,-9
14245,40,21,-248,52,10,-10
14250,40,21,-246,53,11,-10
14255,40,18,-246,54,12,-10
14260,35,21,-248,53,12,-11
14265,40,21,-247,53,14,-10
14270,37,23,-246,53,14,-10
14275,40,19,-250,54,13,-10
14280,38,22,-245,54,13,-11
14285,39,20,-243,54,12,-9
14290,41,19,-250,53,12,-10
14295,38,17,-248,53,11,-12
14300,40,20,-245,52,11,-11
14305,38,20,-245,51,10,-11
14310,42,20,-240,50,9,-10
14315,41,18,-246,49,9,-10
14320,39,20,-245,50,10,-10
14325,41,19,-253,49,9,-9
14330,38,20,-248,50,11,-11
14335,39,20,-251,50,13,-11
14340,41,23,-246,50,15,-11
14345,41,20,-245,50,15,-11
14350,39,19,-248,49,15,-12
14355,39,20,-246,48,16,-11
14360,39,19,-248,50,14,-10
14365,34,17,-242,50,14,-12
14370,42,20,-247,49,15,-12
14375,38,19,-247,49,15,-10
14380,36,21,-247,50,13,-10
14385,38,20,-245,50,14,-9
14390,40,21,-245,50,13,-9
14395,42,21,-247,50,12,-11
14400,39,21,-244,50,12,-11
14405,40,19,-241,50,12,-12
14410,41,20,-247,49,13,-11
14415,40,20,-250,49,13,-11
14420,45,18,-249,51,15,-11
14425,42,22,-245,50,13,-11
14430,39,22,-246,50,14,-11
14435,38,19,-247,51,13,-10
14440,41,18,-246,50,14,-12
14445,42,19,-245,50,12,-12
14450,40,19,-247,51,13,-9
14455,39,24,-250,51,12,-9
14460,37,20,-244,50,12,-10
14465,37,20,-248,51,12,-10
14470,40,19,-243,51,11,-10
14475,36,19,-247,51,13,-11
14480,38,22,-242,51,13,-10
14485,39,19,-250,51,14,-11
14490,41,19,-249,51,14,-11
14495,37,24,-246,52,13,-12
14500,39,22,-249,52,13,-11
14505,39,23,-246,50,13,-12
14510,39,21,-247,49,13,-12
14515,40,24,-247,50,12,-9
14520,40,23,-245,49,12,-12
14525,35,19,-250,50,13,-11
14530,39,20,-247,51,12,-10
14535,38,20,-249,50,13,-9
14540,37,22,-245,51,13,-10
14545,41,21,-248,53,12,-10
14550,41,17,-248,53,12,-9
14555,40,21,-248,53,12,-9
14560,38,24,-246,53,13,-9
14565,40,20,-245,54,12,-10
14570,39,19,-248,54,14,-8
14575,41,22,-245,54,14,-8
14580,48,22,-253,54,14,-8
14585,43,17,-245,54,15,-10
14590,39,18,-246,53,15,-10
14595,43,19,-248,51,15,-10
14600,41,21,-248,51,14,-11
14605,38,22,-250,50,13,-10
14610,40,21,-243,51,13,-10
14615,38,21,-243,50,12,-10
14620,36,23,-249,51,12,-11
14625,38,22,-245,52,10,-10
14630,40,15,-247,53,9,-9
14635,40,20,-249,55,10,-10
14640,36,22,-247,54,11,-12
14645,41,19,-247,55,12,-12
14650,42,20,-244,55,13,-12
14655,40,21,-246,54,13,-11
14660,39,22,-253,54,14,-11
14665,38,21,-249,52,14,-10
14670,36,18,-243,51,13,-12
14675,41,23,-246,49,13,-11
14680,36,23,-251,50,13,-13
14685,40,19,-249,51,12,-12
14690,40,18,-246,49,12,-12
14695,40,23,-244,48,11,-10
14700,37,20,-246,49,10,-10
14705,39,20,-247,49,10,-10
14710,40,23,-251,48,9,-11
14715,43,19,-250,50,9,-10
14720,38,21,-250,49,9,-12
14725,36,20,-250,50,9,-11
14730,38,20,-249,49,9,-13
14735,39,17,-247,50,10,-13
14740,38,20,-250,49,11,-11
14745,38,22,-247,49,12,-12
14750,40,22,-250,49,12,-12
14755,41,20,-247,48,13,-11
14760,38,20,-248,46,12,-11
14765,40,18,-246,45,13,-11
14770,43,20,-242,44,12,-11
14775,40,17,-243,44,11,-10
14780,38,19,-247,47,10,-10
14785,38,19,-246,50,10,-11
14790,42,16,-246,52,9,-12
14795,41,21,-249,53,10,-12
14800,40,18,-246,53,10,-12
14805,38,23,-246,53,10,-12
14810,36,20,-245,53,11,-12
14815,34,26,-245,52,13,-11
14820,40,21,-243,52,15,-11
14825,40,19,-245,52,15,-12
14830,39,22,-247,52,15,-12
14835,37,19,-242,52,15,-13
14840,40,16,-248,54,13,-11
14845,42,22,-243,53,13,-12
14850,42,19,-245,55,13,-9
14855,43,20,-250,56,10,-10
14860,41,20,-248,57,12,-11
14865,41,19,-248,58,13,-10
14870,40,19,-252,57,13,-9
14875,38,24,-250,57,13,-10
14880,40,18,-244,56,13,-10
14885,40,20,-251,53,15,-12
14890,39,21,-249,52,13,-10
14895,39,21,-248,50,13,-9
14900,37,18,-245,52,13,-10
14905,41,18,-248,50,12,-11
14910,39,21,-246,53,11,-11
14915,40,18,-246,51,10,-11
14920,38,22,-248,52,10,-10
14925,40,20,-244,51,10,-11
14930,41,17,-247,51,10,-10
14935,40,17,-245,50,11,-11
14940,39,16,-248,50,11,-10
14945,41,19,-251,51,11,-11
14950,38,17,-240,51,12,-11
14955,38,23,-244,52,11,-11
14960,39,21,-242,52,10,-11
14965,42,22,-248,53,10,-11
14970,40,19,-246,53,12,-10
14975,40,19,-247,53,12,-10
14980,36,20,-243,54,10,-12
14985,37,19,-248,54,10,-11
14990,42,19,-248,54,11,-11
14995,41,23,-247,55,12,-11
