timestamp,acc_x,acc_y,acc_z,gyro_x,gyro_y,gyro_z
0,64,-216,-126,193,-104,-210
5,70,-216,-127,196,-62,-197
10,74,-224,-121,204,-26,-183
15,72,-219,-118,212,3,-167
20,67,-224,-114,219,24,-154
25,62,-231,-105,222,36,-140
30,52,-224,-109,219,44,-127
35,40,-228,-103,211,48,-116
40,35,-231,-100,202,49,-102
45,25,-226,-99,200,55,-91
50,15,-230,-100,205,57,-79
55,8,-229,-101,220,62,-71
60,2,-227,-105,239,64,-64
65,-4,-228,-103,256,66,-54
70,-11,-225,-106,274,68,-47
75,-17,-228,-100,290,66,-40
80,-19,-228,-111,301,65,-30
85,-21,-221,-109,308,62,-23
90,-22,-223,-112,311,58,-15
95,-19,-224,-103,308,52,-8
100,-19,-221,-104,303,47,-4
105,-17,-217,-108,291,41,0
110,-13,-215,-111,278,34,4
115,-9,-215,-106,265,30,5
120,-9,-208,-109,251,27,9
125,-2,-202,-107,239,25,10
130,-1,-205,-113,226,22,12
135,1,-204,-109,208,20,14
140,4,-205,-104,190,15,15
145,7,-205,-107,169,12,14
150,8,-207,-106,147,8,12
155,10,-210,-107,126,3,8
160,14,-213,-104,107,-2,4
165,13,-215,-102,91,-6,2
170,16,-220,-101,81,-9,1
175,14,-217,-100,75,-10,-2
180,15,-222,-101,74,-10,-1
185,14,-224,-99,75,-7,-1
190,11,-226,-98,81,-5,1
195,19,-227,-100,90,-3,4
200,13,-226,-96,102,-3,10
205,14,-223,-99,113,-5,14
210,9,-223,-100,121,-8,19
215,8,-221,-96,126,-13,23
220,5,-215,-100,128,-21,28
225,3,-210,-100,125,-27,30
230,2,-209,-100,122,-38,31
235,1,-207,-100,119,-51,29
240,-2,-209,-95,113,-70,29
245,-7,-204,-95,101,-93,28
250,-12,-202,-99,90,-120,27
255,-13,-199,-100,78,-151,28
260,-15,-193,-104,62,-184,28
265,-23,-192,-108,48,-220,26
270,-25,-191,-108,31,-258,24
275,-29,-190,-107,14,-293,21
280,-35,-193,-102,-5,-330,16
285,-40,-194,-103,-22,-364,11
290,-42,-191,-98,-39,-397,6
295,-53,-185,-98,-53,-422,-1
300,-55,-197,-87,-69,-445,-10
305,-59,-197,-86,-82,-464,-19
310,-61,-205,-83,-94,-477,-29
315,-60,-206,-79,-106,-484,-37
320,-54,-214,-78,-121,-484,-43
325,-53,-221,-78,-138,-478,-48
330,-49,-227,-82,-157,-463,-51
335,-47,-231,-85,-172,-446,-55
340,-40,-237,-82,-185,-429,-60
345,-31,-242,-83,-191,-412,-63
350,-32,-245,-92,-191,-397,-64
355,-24,-247,-89,-182,-385,-66
360,-20,-256,-88,-169,-375,-68
365,-15,-256,-90,-149,-368,-67
370,-12,-259,-92,-125,-358,-68
375,-6,-259,-90,-101,-346,-66
380,-2,-262,-89,-77,-329,-63
385,-5,-259,-91,-53,-307,-59
390,-3,-259,-87,-37,-285,-52
395,3,-260,-83,-21,-261,-45
400,7,-260,-89,-8,-232,-35
405,8,-260,-72,-6,-206,-22
410,14,-264,-81,-7,-180,-9
415,19,-260,-79,-13,-161,3
420,20,-256,-86,-20,-143,15
425,18,-252,-85,-26,-130,31
430,19,-252,-88,-32,-121,45
435,20,-246,-84,-36,-113,61
440,15,-248,-85,-36,-108,76
445,15,-241,-85,-30,-107,91
450,11,-237,-86,-21,-102,103
455,14,-236,-89,-18,-97,116
460,8,-231,-81,-15,-88,126
465,4,-229,-90,-18,-79,132
470,5,-226,-84,-25,-67,136
475,3,-221,-87,-34,-48,142
480,2,-219,-83,-45,-27,146
485,0,-216,-91,-55,-8,148
490,-1,-216,-83,-63,10,151
495,-3,-212,-88,-69,26,154
500,-4,-209,-85,-73,41,161
505,-5,-213,-84,-77,56,168
510,-11,-209,-78,-79,71,174
515,-10,-207,-80,-82,85,181
520,-9,-208,-79,-88,99,189
525,-11,-210,-77,-94,113,196
530,-13,-207,-77,-100,124,203
535,-12,-208,-83,-108,134,206
540,-14,-207,-83,-118,144,211
545,-14,-206,-78,-128,154,214
550,-11,-209,-78,-141,164,217
555,-13,-206,-80,-153,173,218
560,-11,-209,-82,-166,181,216
565,-11,-210,-72,-175,187,211
570,-11,-211,-80,-184,191,211
575,-12,-213,-80,-191,199,207
580,-11,-213,-78,-194,203,202
585,-11,-212,-76,-195,208,197
590,-11,-219,-78,-197,215,192
595,-10,-216,-74,-201,226,187
600,-8,-220,-76,-205,237,184
605,-9,-223,-77,-208,250,183
610,-7,-222,-77,-212,263,182
615,-2,-226,-74,-217,278,179
620,-1,-223,-74,-218,294,179
625,0,-227,-76,-216,310,173
630,1,-225,-72,-215,329,173
635,4,-226,-71,-212,346,171
640,3,-230,-72,-213,365,172
645,5,-226,-73,-217,382,170
650,3,-230,-74,-227,400,169
655,12,-230,-77,-233,418,171
660,14,-232,-72,-244,439,173
665,15,-236,-69,-255,460,176
670,17,-240,-67,-262,479,179
675,16,-237,-66,-266,497,182
680,21,-243,-65,-268,510,186
685,23,-248,-65,-268,518,190
690,22,-249,-67,-267,522,193
695,14,-252,-68,-261,517,197
700,15,-255,-70,-252,501,203
705,12,-254,-70,-237,479,207
710,3,-256,-68,-216,450,211
715,0,-257,-74,-188,419,217
720,-7,-258,-71,-156,391,222
725,-14,-257,-71,-122,370,229
730,-19,-258,-74,-84,355,232
735,-21,-258,-70,-42,347,237
740,-25,-258,-66,-3,348,236
745,-29,-257,-64,37,355,235
750,-33,-256,-64,70,368,234
755,-36,-258,-65,94,385,237
760,-31,-264,-66,110,409,243
765,-25,-265,-67,114,435,248
770,-18,-266,-72,109,460,249
775,-16,-264,-79,92,480,251
780,-9,-268,-96,63,490,257
785,-15,-274,-99,17,489,263
790,-12,-280,-114,-45,476,275
795,-6,-284,-122,-122,453,288
800,-1,-292,-128,-205,416,296
805,-1,-295,-137,-287,365,306
810,0,-304,-139,-359,304,315
815,4,-306,-142,-409,239,329
820,-4,-306,-140,-429,174,345
825,-6,-311,-140,-417,116,363
830,-14,-307,-135,-378,68,377
835,-21,-311,-129,-316,32,386
840,-20,-302,-126,-246,13,388
845,-23,-298,-125,-174,13,381
850,-24,-288,-131,-111,27,367
855,-25,-278,-137,-56,53,344
860,-24,-269,-144,-4,93,320
865,-18,-255,-154,55,149,297
870,-23,-242,-164,120,219,280
875,-18,-234,-172,185,304,267
880,-18,-218,-175,236,394,254
885,-26,-212,-179,262,467,244
890,-29,-198,-180,272,519,237
895,-23,-184,-187,272,561,240
900,-22,-174,-185,259,598,247
905,-14,-162,-173,241,628,255
910,-9,-154,-170,223,654,265
915,-3,-149,-167,196,677,275
920,0,-148,-161,154,697,287
925,0,-148,-159,97,701,295
930,8,-147,-157,29,685,304
935,16,-150,-157,-45,651,312
940,26,-156,-157,-122,609,321
945,31,-161,-162,-189,563,328
950,35,-169,-153,-240,519,330
955,33,-182,-153,-268,482,327
960,31,-191,-149,-271,459,324
965,24,-198,-143,-253,446,319
970,14,-206,-148,-226,446,318
975,7,-209,-150,-192,458,318
980,3,-216,-149,-162,473,319
985,4,-224,-155,-139,495,316
990,1,-223,-156,-128,516,305
995,2,-231,-153,-122,539,289
1000,1,-223,-157,-120,562,268
1005,7,-229,-151,-116,585,244
1010,11,-226,-149,-105,611,215
1015,13,-224,-151,-87,636,186
1020,13,-217,-143,-63,664,159
1025,12,-216,-140,-34,689,133
1030,18,-209,-140,-6,715,112
1035,14,-206,-132,16,735,94
1040,11,-200,-128,33,751,81
1045,12,-195,-122,41,762,77
1050,13,-195,-120,42,767,76
1055,16,-193,-112,33,763,83
1060,14,-191,-111,22,752,91
1065,13,-188,-107,7,736,100
1070,13,-186,-99,-10,717,113
1075,14,-181,-102,-24,696,127
1080,13,-182,-104,-34,676,142
1085,12,-181,-101,-37,657,152
1090,11,-176,-99,-36,638,163
1095,14,-176,-99,-26,617,175
1100,7,-170,-100,-14,597,182
1105,11,-176,-99,4,575,188
1110,4,-172,-94,26,555,196
1115,1,-171,-92,49,536,202
1120,1,-173,-89,69,513,207
1125,2,-172,-90,83,494,213
1130,1,-171,-92,89,476,215
1135,2,-177,-93,88,462,217
1140,2,-176,-89,81,451,212
1145,7,-178,-89,73,439,205
1150,5,-179,-88,60,426,198
1155,12,-177,-99,43,414,191
1160,15,-184,-100,24,405,187
1165,14,-183,-97,9,394,186
1170,17,-183,-95,-4,382,184
1175,15,-185,-98,-19,368,185
1180,20,-189,-97,-34,354,187
1185,25,-188,-96,-50,340,190
1190,22,-192,-96,-65,322,193
1195,21,-196,-96,-79,305,196
1200,24,-197,-93,-93,286,198
1205,26,-203,-97,-105,268,198
1210,25,-210,-90,-115,249,194
1215,19,-220,-89,-119,231,192
1220,23,-223,-81,-113,209,188
1225,20,-233,-80,-97,189,187
1230,20,-245,-72,-68,163,188
1235,11,-252,-69,-28,136,192
1240,5,-258,-64,17,107,196
1245,4,-261,-58,67,80,204
1250,-5,-268,-59,119,49,212
1255,-14,-270,-58,169,20,221
1260,-12,-274,-63,214,1,230
1265,-14,-274,-64,254,-2,242
1270,-14,-275,-67,295,19,253
1275,-2,-271,-68,332,60,264
1280,6,-274,-65,371,114,271
1285,15,-270,-67,412,174,275
1290,26,-266,-64,458,235,278
1295,36,-264,-61,505,290,276
1300,47,-259,-62,554,335,270
1305,59,-261,-59,595,373,264
1310,68,-256,-58,629,402,250
1315,73,-256,-54,660,422,230
1320,73,-257,-60,691,432,207
1325,79,-254,-57,722,430,186
1330,76,-250,-63,744,421,166
1335,74,-248,-80,740,409,147
1340,65,-238,-101,694,400,127
1345,61,-241,-122,604,400,106
1350,52,-233,-154,474,412,90
1355,53,-237,-186,324,437,78
1360,52,-238,-215,167,479,73
1365,63,-239,-231,24,530,73
1370,67,-239,-242,-92,593,80
1375,73,-248,-237,-174,665,85
1380,84,-262,-229,-214,743,88
1385,91,-285,-218,-204,821,84
1390,89,-307,-197,-154,901,78
1395,78,-320,-194,-84,973,66
1400,62,-322,-193,-16,1013,47
1405,40,-319,-194,40,1008,21
1410,12,-309,-194,92,956,-5
1415,-7,-292,-205,155,863,-21
1420,-26,-272,-213,237,744,-34
1425,-54,-255,-222,331,611,-40
1430,-69,-243,-218,424,469,-41
1435,-98,-231,-222,495,331,-39
1440,-109,-221,-219,523,212,-35
1445,-116,-216,-221,515,123,-34
1450,-112,-207,-210,488,68,-33
1455,-106,-199,-206,450,48,-31
1460,-88,-199,-199,408,54,-37
1465,-77,-193,-197,371,81,-45
1470,-58,-193,-186,348,116,-50
1475,-49,-193,-173,336,157,-52
1480,-32,-202,-165,329,203,-47
1485,-13,-200,-156,316,254,-37
1490,5,-210,-146,294,308,-21
1495,19,-208,-141,263,354,-2
1500,31,-210,-144,227,393,26
1505,46,-214,-142,184,425,61
1510,61,-217,-143,145,452,103
1515,72,-217,-145,124,471,143
1520,77,-211,-150,127,479,182
1525,80,-207,-144,156,483,227
1530,80,-204,-139,204,485,281
1535,77,-199,-135,259,488,340
1540,76,-196,-136,305,490,403
1545,69,-198,-128,332,494,457
1550,65,-197,-124,341,507,504
1555,56,-196,-117,340,526,542
1560,46,-195,-114,328,553,573
1565,39,-189,-118,303,583,597
1570,32,-184,-114,268,611,613
1575,25,-182,-110,235,641,629
1580,18,-173,-106,202,666,640
1585,11,-163,-113,174,687,649
1590,2,-155,-106,152,702,657
1595,3,-155,-113,138,715,660
1600,-1,-146,-105,132,724,660
1605,-7,-142,-105,134,732,657
1610,-9,-142,-98,141,739,650
1615,-16,-137,-98,149,745,639
1620,-16,-136,-96,159,752,626
1625,-18,-133,-93,167,760,610
1630,-25,-129,-91,172,768,594
1635,-22,-128,-89,165,778,581
1640,-26,-127,-91,152,791,565
1645,-24,-132,-82,130,802,556
1650,-24,-133,-88,101,812,548
1655,-22,-137,-84,68,818,546
1660,-20,-138,-82,29,821,542
1665,-21,-140,-83,-7,820,539
1670,-23,-146,-87,-42,812,537
1675,-20,-158,-87,-72,802,528
1680,-19,-161,-85,-103,790,515
1685,-19,-171,-81,-131,771,499
1690,-23,-175,-82,-149,749,477
1695,-18,-188,-82,-160,729,450
1700,-22,-192,-81,-165,705,422
1705,-25,-196,-71,-159,679,392
1710,-21,-205,-67,-151,644,361
1715,-20,-211,-67,-135,615,328
1720,-23,-217,-65,-113,589,300
1725,-26,-220,-63,-93,567,271
1730,-24,-221,-64,-70,547,242
1735,-22,-226,-67,-42,529,218
1740,-26,-228,-67,-18,515,191
1745,-24,-232,-67,9,502,168
1750,-25,-229,-71,33,495,146
1755,-21,-230,-74,53,492,130
1760,-19,-230,-72,77,493,114
1765,-14,-231,-67,97,495,104
1770,-2,-234,-68,109,499,100
1775,1,-241,-64,121,503,100
1780,9,-242,-63,126,500,108
1785,14,-247,-65,130,489,119
1790,23,-250,-62,125,474,135
1795,50,-247,-69,117,458,164
1800,35,-260,-68,113,441,201
1805,48,-260,-67,99,411,195
1810,58,-260,-75,82,394,196
1815,60,-260,-72,83,379,201
1820,51,-270,-64,96,360,208
1825,49,-279,-70,120,327,213
1830,40,-275,-68,157,291,217
1835,25,-278,-66,212,255,233
1840,13,-278,-63,264,240,257
1845,8,-287,-57,305,261,286
1850,4,-301,-43,338,317,313
1855,8,-306,-28,367,404,335
1860,16,-311,-19,388,506,350
1865,21,-311,-29,390,609,361
1870,33,-314,-39,366,699,368
1875,45,-314,-63,305,760,375
1880,58,-311,-98,199,793,388
1885,70,-306,-146,47,793,406
1890,83,-301,-187,-136,747,427
1895,94,-290,-246,-329,643,447
1900,79,-283,-281,-496,481,468
1905,53,-288,-282,-582,296,508
1910,29,-306,-248,-562,155,581
1915,-5,-315,-223,-429,79,670
1920,-38,-334,-185,-208,54,743
1925,-53,-330,-179,29,62,775
1930,-67,-304,-200,210,95,778
1935,-83,-280,-227,306,147,766
1940,-96,-258,-239,343,205,741
1945,-98,-238,-245,346,271,712
1950,-90,-218,-242,344,377,692
1955,-61,-205,-225,345,532,679
1960,-39,-191,-216,354,708,652
1965,-32,-179,-214,366,877,625
1970,-34,-164,-212,362,1015,599
1975,-32,-141,-223,334,1105,576
1980,-21,-132,-220,267,1149,558
1985,-5,-132,-211,165,1159,542
1990,2,-143,-206,51,1145,528
1995,9,-158,-193,-49,1105,515
2000,14,-175,-181,-125,1044,498
2005,19,-186,-169,-174,972,481
2010,24,-196,-163,-200,897,460
2015,28,-205,-157,-213,825,439
2020,18,-211,-159,-208,766,418
2025,12,-222,-158,-182,724,403
2030,7,-224,-160,-143,703,392
2035,5,-228,-158,-96,702,380
2040,4,-229,-158,-53,715,362
2045,0,-232,-153,-13,737,338
2050,-3,-233,-146,19,758,306
2055,-7,-229,-137,46,777,267
2060,-11,-224,-131,66,794,227
2065,-10,-217,-122,81,807,180
2070,-16,-212,-117,92,819,134
2075,-15,-203,-113,90,828,89
2080,-20,-189,-112,80,837,47
2085,-14,-187,-102,65,842,11
2090,-16,-182,-98,47,848,-19
2095,-13,-177,-94,32,847,-44
2100,-12,-171,-92,23,843,-63
2105,-10,-162,-87,12,832,-79
2110,-8,-158,-80,-2,818,-87
2115,-15,-153,-76,-10,794,-90
2120,-8,-147,-73,-11,762,-86
2125,-8,-147,-74,-10,723,-77
2130,-10,-145,-73,-10,680,-66
2135,-10,-140,-76,-13,633,-48
2140,-7,-139,-72,-16,587,-28
2145,-5,-135,-70,-25,541,-10
2150,-7,-134,-70,-37,498,10
2155,-4,-134,-72,-49,455,27
2160,-1,-132,-72,-66,414,40
2165,0,-133,-72,-83,373,55
2170,0,-133,-71,-101,335,62
2175,2,-136,-73,-125,296,71
2180,2,-134,-75,-149,255,78
2185,4,-142,-78,-168,218,86
2190,4,-149,-83,-186,182,87
2195,9,-150,-85,-200,148,91
2200,7,-157,-88,-216,112,91
2205,8,-167,-91,-226,80,91
2210,15,-171,-88,-235,53,93
2215,10,-180,-86,-245,30,91
2220,14,-193,-86,-254,11,90
2225,15,-202,-85,-262,-3,92
2230,18,-220,-72,-267,-12,95
2235,17,-226,-67,-264,-23,95
2240,20,-241,-64,-258,-32,94
2245,22,-250,-57,-253,-41,91
2250,18,-252,-56,-243,-53,82
2255,20,-271,-54,-229,-67,71
2260,16,-273,-50,-204,-76,66
2265,17,-284,-51,-160,-79,66
2270,16,-290,-46,-93,-75,69
2275,13,-298,-46,-11,-68,80
2280,11,-298,-38,86,-65,89
2285,8,-299,-41,189,-61,97
2290,8,-295,-41,289,-51,110
2295,10,-293,-44,376,-22,119
2300,15,-284,-48,446,25,125
2305,22,-278,-50,506,86,131
2310,32,-273,-52,562,155,130
2315,40,-268,-48,615,225,130
2320,55,-258,-56,666,294,131
2325,62,-248,-58,712,362,135
2330,75,-234,-63,742,424,140
2335,85,-234,-66,754,471,138
2340,94,-230,-62,755,493,121
2345,92,-232,-56,747,485,95
2350,87,-244,-42,745,443,66
2355,69,-251,-31,753,381,47
2360,65,-249,-40,758,323,41
2365,51,-252,-56,728,275,38
2370,38,-252,-81,639,242,26
2375,25,-251,-119,488,224,4
2380,17,-251,-169,284,232,-25
2385,18,-257,-218,39,266,-55
2390,20,-264,-273,-221,324,-77
2395,34,-264,-311,-447,409,-79
2400,57,-270,-310,-589,510,-61
2405,82,-271,-299,-621,629,-52
2410,85,-285,-272,-550,749,-64
2415,94,-303,-248,-410,859,-92
2420,79,-321,-226,-254,943,-130
2425,57,-321,-218,-114,988,-176
2430,44,-319,-221,-9,994,-219
2435,29,-309,-216,72,956,-250
2440,-2,-296,-210,145,875,-267
2445,-40,-288,-209,215,766,-273
2450,-69,-282,-207,282,642,-275
2455,-75,-273,-208,335,514,-272
2460,-88,-267,-212,380,391,-267
2465,-97,-261,-219,406,285,-257
2470,-99,-250,-225,413,202,-252
2475,-98,-236,-221,412,151,-252
2480,-98,-226,-215,419,128,-254
2485,-93,-219,-205,441,128,-254
2490,-90,-214,-187,469,150,-249
2495,-69,-216,-169,489,181,-227
2500,-46,-218,-155,489,228,-196
2505,-16,-222,-148,464,282,-158
2510,6,-225,-150,404,335,-120
2515,30,-229,-147,327,371,-83
2520,49,-234,-144,254,386,-48
2525,64,-227,-143,205,386,-15
2530,74,-221,-136,191,377,25
2535,78,-211,-134,215,365,71
2540,83,-204,-123,268,356,123
2545,86,-195,-124,335,351,182
2550,78,-185,-111,391,357,246
2555,76,-174,-109,425,371,306
2560,71,-175,-99,431,396,362
2565,66,-181,-105,425,425,407
2570,57,-172,-98,391,459,441
2575,52,-173,-99,342,490,467
2580,44,-168,-97,283,515,484
2585,30,-167,-100,224,533,497
2590,26,-163,-98,171,551,503
2595,17,-159,-98,134,568,508
2600,11,-150,-95,108,584,510
2605,3,-144,-90,91,599,515
2610,1,-137,-88,92,609,516
2615,-3,-131,-87,102,620,512
2620,-8,-127,-80,114,629,508
2625,-9,-126,-76,131,638,502
2630,-11,-119,-73,142,648,496
2635,-14,-116,-72,151,655,483
2640,-14,-113,-80,151,661,469
2645,-12,-113,-80,132,669,453
2650,-12,-112,-75,105,675,436
2655,-13,-105,-80,72,686,421
2660,-14,-115,-79,33,693,406
2665,-12,-120,-78,-8,696,391
2670,-14,-124,-75,-45,701,378
2675,-13,-135,-76,-85,706,369
2680,-16,-136,-76,-125,710,361
2685,-15,-143,-79,-167,712,355
2690,-16,-150,-78,-205,711,353
2695,-16,-159,-80,-242,705,346
2700,-17,-172,-80,-274,694,345
2705,-17,-177,-75,-296,677,342
2710,-19,-184,-80,-306,662,340
2715,-19,-193,-76,-311,651,337
2720,-15,-201,-77,-313,637,331
2725,-19,-212,-73,-310,624,320
2730,-17,-218,-68,-296,608,309
2735,-15,-224,-74,-277,594,297
2740,-13,-228,-70,-254,587,280
2745,-8,-234,-69,-230,584,263
2750,-9,-238,-69,-212,585,248
2755,-6,-244,-68,-191,585,233
2760,-14,-249,-67,-171,587,222
2765,-9,-251,-63,-152,586,214
2770,-11,-255,-60,-131,579,210
2775,-11,-259,-56,-109,568,208
2780,-15,-260,-56,-88,549,208
2785,-10,-266,-58,-67,524,213
2790,-5,-270,-57,-51,487,216
2795,-2,-272,-60,-35,448,220
2800,1,-276,-64,-17,401,221
2805,1,-279,-62,1,356,225
2810,4,-281,-65,26,314,229
2815,2,-287,-63,57,281,234
2820,0,-290,-59,92,262,242
2825,-1,-300,-51,129,254,250
2830,-1,-294,-49,169,254,260
2835,-1,-291,-45,209,262,269
2840,-3,-304,-31,252,275,280
2845,-7,-306,-24,299,293,292
2850,-3,-310,-19,345,318,304
2855,-5,-313,-22,380,348,319
2860,3,-314,-29,399,383,337
2865,8,-311,-46,395,418,356
2870,17,-305,-72,353,452,376
2875,35,-296,-114,268,480,391
2880,52,-288,-155,138,490,401
2885,61,-280,-212,-31,482,400
2890,63,-267,-277,-221,444,392
2895,59,-263,-314,-404,373,386
2900,40,-267,-317,-539,285,392
2905,20,-278,-313,-591,209,426
2910,-11,-296,-284,-551,160,468
2915,-53,-306,-248,-423,132,509
2920,-79,-306,-242,-249,104,540
2925,-78,-296,-248,-88,73,566
2930,-74,-287,-251,45,72,594
2935,-61,-276,-250,134,127,628
2940,-29,-262,-241,185,233,655
2945,-13,-250,-227,227,386,677
2950,-6,-222,-228,262,553,694
2955,5,-204,-226,274,703,705
2960,37,-188,-220,259,802,708
2965,68,-172,-217,218,847,701
2970,87,-166,-219,163,838,681
2975,91,-171,-203,108,797,654
2980,91,-169,-196,64,746,621
2985,79,-175,-185,37,689,580
2990,68,-186,-173,18,652,531
2995,59,-196,-163,0,620,479
3000,38,-208,-149,-14,590,429
3005,23,-219,-144,-17,561,384
3010,6,-226,-138,-11,536,345
3015,-8,-228,-136,2,517,309
3020,-20,-235,-140,12,511,274
3025,-33,-234,-138,17,510,236
3030,-33,-236,-129,28,513,193
3035,-45,-228,-137,44,512,150
3040,-53,-219,-126,65,509,105
3045,-55,-210,-122,87,500,59
3050,-59,-198,-112,106,492,11
3055,-51,-193,-106,117,486,-32
3060,-50,-183,-103,110,477,-74
3065,-43,-171,-95,95,468,-112
3070,-32,-165,-87,67,457,-144
3075,-28,-158,-83,36,444,-167
3080,-21,-156,-79,9,430,-186
3085,-12,-153,-73,-22,413,-201
3090,-4,-147,-76,-52,395,-208
3095,1,-146,-72,-76,375,-213
3100,7,-141,-69,-93,350,-211
3105,11,-143,-64,-105,320,-203
3110,15,-138,-68,-118,285,-191
3115,13,-135,-66,-133,246,-175
3120,13,-131,-66,-146,205,-157
3125,15,-130,-65,-156,157,-134
3130,16,-128,-67,-162,109,-115
3135,19,-130,-67,-166,62,-95
3140,10,-128,-65,-167,16,-76
3145,7,-131,-69,-173,-29,-58
3150,11,-129,-79,-179,-69,-44
3155,7,-131,-75,-185,-104,-35
3160,5,-138,-80,-191,-138,-31
3165,7,-132,-79,-189,-164,-31
3170,10,-141,-80,-180,-184,-31
3175,9,-142,-84,-169,-200,-28
3180,11,-145,-83,-156,-211,-27
3185,15,-156,-86,-147,-217,-30
3190,17,-165,-89,-140,-219,-27
3195,19,-176,-83,-137,-218,-24
3200,24,-183,-85,-137,-215,-16
3205,27,-192,-82,-140,-210,-8
3210,24,-203,-75,-145,-209,3
3215,29,-216,-77,-150,-208,15
3220,32,-223,-69,-155,-212,26
3225,37,-235,-73,-155,-215,37
3230,36,-245,-67,-151,-218,45
3235,38,-256,-66,-140,-223,52
3240,39,-261,-64,-122,-227,62
3245,32,-265,-61,-91,-227,73
3250,26,-268,-66,-53,-218,92
3255,26,-271,-65,-5,-200,114
3260,23,-277,-63,51,-178,136
3265,19,-273,-49,116,-159,157
3270,18,-283,-45,191,-143,173
3275,16,-286,-38,266,-131,187
3280,16,-281,-44,334,-112,196
3285,17,-284,-49,386,-76,207
3290,18,-277,-51,423,-16,214
3295,23,-275,-56,457,65,220
3300,28,-268,-63,488,161,225
3305,38,-257,-66,525,261,227
3310,50,-239,-75,551,355,226
3315,66,-234,-74,565,434,221
3320,85,-231,-73,569,489,205
3325,85,-236,-69,568,513,183
3330,84,-243,-63,565,503,154
3335,74,-251,-56,564,476,123
3340,67,-254,-46,567,437,93
3345,55,-259,-56,564,398,64
3350,42,-259,-66,531,361,33
3355,29,-262,-95,449,327,-2
3360,23,-267,-128,312,303,-38
3365,16,-275,-176,137,292,-61
3370,9,-276,-219,-62,306,-74
3375,16,-288,-250,-257,357,-73
3380,30,-295,-275,-417,442,-61
3385,46,-292,-296,-516,560,-53
3390,65,-297,-292,-548,686,-60
3395,83,-307,-272,-509,802,-82
3400,88,-317,-253,-404,901,-115
3405,77,-324,-227,-261,976,-148
3410,58,-315,-225,-118,1014,-186
3415,41,-300,-226,-6,1001,-228
3420,16,-275,-230,75,940,-259
3425,-6,-267,-235,124,844,-275
3430,-41,-258,-219,159,726,-281
3435,-65,-255,-218,189,602,-282
3440,-77,-252,-210,209,481,-280
3445,-80,-252,-217,220,373,-273
3450,-84,-250,-217,216,291,-267
3455,-88,-248,-215,206,237,-263
3460,-86,-238,-213,197,217,-265
3465,-88,-233,-211,206,231,-262
3470,-78,-222,-201,229,268,-258
3475,-71,-222,-189,266,311,-250
3480,-53,-224,-180,297,350,-236
3485,-33,-230,-165,323,382,-211
3490,-9,-236,-158,334,414,-171
3495,9,-234,-155,321,441,-129
3500,30,-241,-150,290,460,-88
3505,47,-240,-153,258,466,-50
3510,58,-238,-149,240,456,-17
3515,69,-229,-138,250,436,24
3520,74,-220,-137,284,410,70
3525,73,-211,-136,338,387,129
3530,70,-199,-128,399,368,192
3535,69,-191,-114,456,355,260
3540,62,-186,-121,495,348,323
3545,62,-187,-107,507,353,381
3550,55,-187,-107,489,368,427
3555,48,-182,-103,447,388,460
3560,40,-179,-97,389,413,485
3565,33,-171,-97,322,441,499
3570,27,-164,-96,259,471,506
3575,22,-161,-93,204,500,508
3580,14,-149,-87,157,526,512
3585,9,-142,-90,124,549,515
3590,7,-133,-87,101,567,517
3595,1,-129,-86,86,581,518
3600,0,-124,-81,79,590,517
3605,0,-124,-82,77,599,509
3610,-6,-121,-77,77,608,499
3615,-8,-113,-79,72,618,481
3620,-11,-114,-77,67,632,464
3625,-10,-110,-78,58,645,440
3630,-10,-109,-78,45,656,415
3635,-11,-113,-75,27,666,391
3640,-12,-112,-76,3,675,367
3645,-12,-114,-76,-19,679,347
3650,-15,-118,-75,-45,684,328
3655,-15,-128,-74,-79,684,310
3660,-18,-134,-71,-113,681,297
3665,-23,-142,-74,-145,672,286
3670,-23,-147,-78,-176,658,274
3675,-27,-157,-78,-207,640,264
3680,-33,-165,-75,-229,618,249
3685,-36,-172,-75,-244,591,237
3690,-34,-177,-77,-251,558,223
3695,-39,-183,-75,-251,526,208
3700,-42,-194,-73,-239,490,193
3705,-40,-203,-67,-222,458,180
3710,-41,-212,-64,-202,429,165
3715,-37,-222,-66,-179,404,151
3720,-33,-226,-65,-149,384,136
3725,-30,-229,-73,-115,365,117
3730,-31,-226,-75,-87,349,100
3735,-26,-228,-83,-70,334,83
3740,-19,-235,-83,-57,324,70
3745,-19,-234,-84,-48,318,63
3750,-16,-236,-81,-45,315,63
3755,-9,-247,-72,-42,314,64
3760,-7,-252,-67,-40,315,75
3765,1,-254,-64,-37,309,87
3770,7,-260,-65,-38,297,96
3775,17,-266,-62,-35,276,106
3780,18,-267,-62,-28,253,116
3785,21,-266,-66,-14,231,125
3790,22,-270,-67,7,211,136
3795,19,-277,-64,34,196,149
3800,12,-279,-57,64,185,163
3805,17,-286,-55,100,179,180
3810,6,-292,-50,135,174,194
3815,1,-297,-48,163,167,208
3820,0,-299,-45,191,159,223
3825,-7,-304,-37,219,156,240
3830,-9,-313,-34,253,167,260
3835,-7,-319,-25,287,191,280
3840,-5,-321,-28,326,230,301
3845,0,-326,-32,357,275,319
3850,8,-323,-48,372,328,336
3855,21,-317,-84,356,380,345
3860,34,-309,-128,302,423,350
3865,52,-301,-174,209,446,351
3870,62,-290,-226,76,439,349
3875,61,-284,-278,-78,385,350
3880,61,-275,-312,-218,281,362
3885,45,-282,-312,-311,162,393
3890,26,-290,-289,-325,56,451
3895,-15,-312,-246,-237,-21,520
3900,-46,-322,-210,-62,-80,582
3905,-71,-317,-202,143,-125,629
3910,-77,-297,-214,316,-165,674
3915,-76,-273,-221,430,-176,716
3920,-65,-251,-229,463,-121,748
3925,-35,-236,-218,442,8,756
3930,-18,-218,-208,406,192,749
3935,-11,-202,-202,370,398,737
3940,-3,-186,-206,335,582,721
3945,14,-171,-212,301,717,705
3950,54,-158,-213,264,794,682
3955,74,-158,-212,218,820,648
3960,83,-163,-205,172,812,605
3965,91,-167,-195,140,779,559
3970,81,-181,-189,125,734,520
3975,70,-191,-167,106,683,486
3980,63,-196,-158,78,630,451
3985,46,-203,-142,43,582,416
3990,37,-210,-137,9,537,379
3995,22,-215,-136,-14,502,343
4000,8,-221,-145,-31,485,310
4005,3,-227,-136,-44,486,275
4010,-10,-228,-140,-51,497,237
4015,-16,-229,-133,-49,514,194
4020,-22,-235,-130,-36,529,149
4025,-34,-225,-126,-8,539,103
4030,-39,-223,-120,33,542,55
4035,-46,-215,-118,78,541,6
4040,-46,-208,-111,116,537,-42
4045,-44,-201,-105,143,532,-90
4050,-40,-195,-101,157,527,-138
4055,-36,-192,-98,154,518,-177
4060,-33,-186,-91,136,507,-208
4065,-25,-179,-92,109,493,-228
4070,-19,-173,-84,87,475,-234
4075,-17,-167,-85,61,454,-233
4080,-2,-163,-74,33,429,-227
4085,4,-158,-74,17,398,-220
4090,5,-155,-69,6,366,-205
4095,8,-148,-68,-4,330,-191
4100,11,-147,-65,-6,287,-174
4105,9,-139,-67,-2,244,-157
4110,12,-137,-62,6,199,-138
4115,7,-133,-65,13,154,-120
4120,9,-132,-62,18,109,-101
4125,7,-129,-61,20,66,-84
4130,1,-129,-63,21,24,-72
4135,1,-127,-64,18,-16,-60
4140,0,-125,-68,8,-57,-52
4145,0,-129,-66,-5,-98,-47
4150,0,-131,-73,-20,-139,-44
4155,1,-133,-73,-35,-178,-43
4160,0,-139,-81,-47,-215,-45
4165,3,-144,-79,-60,-244,-46
4170,7,-153,-82,-75,-271,-46
4175,15,-162,-81,-91,-289,-44
4180,18,-172,-77,-109,-303,-41
4185,19,-187,-83,-122,-309,-33
4190,23,-189,-75,-140,-312,-25
4195,28,-203,-73,-162,-311,-16
4200,36,-214,-73,-184,-305,-5
4205,40,-229,-66,-203,-297,4
4210,40,-242,-61,-220,-291,14
4215,40,-252,-57,-226,-290,18
4220,45,-267,-52,-220,-300,25
4225,42,-275,-51,-198,-311,35
4230,37,-285,-50,-160,-317,48
4235,33,-289,-49,-102,-311,69
4240,35,-294,-54,-30,-300,90
4245,27,-287,-56,48,-280,111
4250,29,-287,-58,127,-259,135
4255,30,-285,-54,202,-231,157
4260,29,-285,-49,276,-196,175
4265,31,-281,-45,350,-149,187
4270,29,-274,-45,414,-92,193
4275,25,-266,-58,464,-22,199
4280,31,-257,-66,493,60,209
4285,39,-238,-69,497,155,219
4290,58,-234,-67,485,251,226
4295,67,-230,-65,471,324,219
4300,71,-233,-56,463,362,202
4305,66,-244,-50,470,360,176
4310,59,-246,-41,481,334,147
4315,46,-254,-28,497,297,117
4320,36,-258,-19,516,265,95
4325,20,-261,-27,529,239,74
4330,10,-266,-41,509,220,49
4335,1,-267,-59,439,203,14
4340,-13,-275,-88,323,180,-26
4345,-21,-281,-126,165,149,-66
4350,-26,-283,-179,-32,118,-104
4355,-18,-298,-227,-245,106,-128
4360,-8,-303,-254,-427,139,-126
4365,20,-311,-273,-534,232,-103
4370,50,-310,-288,-559,363,-85
4375,76,-310,-284,-515,495,-94
4380,102,-316,-269,-422,609,-123
4385,107,-319,-254,-302,709,-171
4390,95,-325,-234,-183,781,-218
4395,76,-318,-228,-85,807,-264
4400,71,-305,-231,-16,790,-306
4405,54,-289,-214,42,733,-326
4410,29,-284,-208,97,646,-324
4415,0,-276,-198,156,540,-316
4420,-29,-264,-198,206,424,-318
4425,-41,-260,-197,237,308,-315
4430,-49,-258,-205,243,208,-307
4435,-58,-254,-200,236,137,-297
4440,-66,-242,-204,225,107,-293
4445,-72,-235,-208,210,113,-289
4450,-70,-222,-199,209,146,-286
4455,-69,-206,-193,222,191,-280
4460,-69,-201,-181,244,240,-268
4465,-62,-198,-167,258,279,-237
4470,-39,-203,-153,258,314,-192
4475,-16,-209,-142,242,354,-136
4480,8,-215,-138,203,392,-81
4485,22,-224,-141,151,422,-28
4490,46,-228,-135,104,436,20
4495,61,-224,-138,72,436,63
4500,75,-221,-137,60,427,110
4505,81,-214,-135,73,413,163
4510,82,-203,-127,115,405,224
4515,86,-198,-127,173,408,287
4520,82,-196,-123,221,418,356
4525,79,-191,-116,253,434,418
4530,72,-190,-115,272,459,467
4535,66,-191,-108,261,491,506
4540,58,-193,-108,241,520,538
4545,44,-186,-106,208,550,556
4550,36,-180,-103,172,580,564
4555,29,-177,-103,138,606,569
4560,25,-167,-99,106,630,572
4565,15,-159,-95,81,648,575
4570,11,-148,-94,61,661,576
4575,3,-137,-93,48,670,580
4580,0,-129,-88,42,675,585
4585,0,-130,-86,37,678,587
4590,-9,-123,-82,33,683,587
4595,-16,-119,-81,27,687,584
4600,-18,-114,-82,17,692,576
4605,-20,-106,-80,5,701,564
4610,-17,-110,-81,-11,712,551
4615,-14,-112,-80,-25,728,538
4620,-17,-116,-81,-47,746,528
4625,-20,-116,-83,-64,755,513
4630,-15,-123,-88,-78,767,499
4635,-18,-127,-85,-93,772,482
4640,-18,-132,-85,-114,773,466
4645,-19,-141,-86,-137,772,449
4650,-23,-151,-80,-158,771,432
4655,-25,-161,-82,-179,766,412
4660,-25,-168,-83,-196,753,393
4665,-31,-177,-83,-207,736,374
4670,-33,-188,-72,-214,714,354
4675,-40,-186,-75,-217,688,336
4680,-39,-191,-68,-214,660,318
4685,-40,-201,-67,-204,632,300
4690,-39,-209,-64,-193,603,281
4695,-38,-215,-66,-182,580,259
4700,-33,-218,-64,-169,560,236
4705,-30,-220,-67,-152,548,210
4710,-24,-226,-65,-141,543,183
4715,-15,-229,-68,-129,543,157
4720,-16,-226,-64,-119,545,129
4725,-2,-229,-58,-108,548,105
4730,-7,-229,-63,-98,551,88
4735,-1,-229,-57,-93,548,75
4740,0,-235,-53,-86,539,71
4745,0,-239,-56,-81,520,75
4750,5,-242,-63,-86,492,82
4755,16,-249,-65,-95,456,90
4760,21,-249,-68,-101,410,98
4765,22,-251,-74,-104,362,105
4770,23,-256,-78,-97,317,116
4775,23,-261,-76,-82,275,128
4780,18,-266,-77,-48,243,139
4785,15,-274,-71,1,218,148
4790,7,-283,-64,56,198,157
4795,1,-290,-62,103,180,170
4800,-1,-299,-54,147,165,183
4805,-9,-301,-52,187,158,198
4810,-16,-307,-47,227,161,215
4815,-16,-313,-40,263,179,234
4820,-10,-321,-32,296,207,254
4825,-7,-320,-32,325,246,271
4830,-6,-323,-34,353,288,288
4835,-2,-322,-44,364,324,307
4840,5,-321,-65,346,349,332
4845,25,-314,-107,285,354,348
4850,53,-307,-157,179,335,361
4855,62,-293,-204,25,284,372
4860,66,-282,-257,-156,196,374
4865,53,-276,-294,-323,80,383
4870,33,-279,-284,-428,-32,410
4875,8,-289,-261,-446,-97,461
4880,-11,-308,-234,-378,-115,513
4885,-35,-315,-213,-240,-104,549
4890,-46,-314,-215,-67,-77,570
4895,-63,-302,-228,81,-46,590
4900,-59,-284,-248,171,-14,616
4905,-51,-268,-250,213,28,644
4910,-36,-258,-247,222,112,675
4915,-9,-242,-231,225,242,692
4920,7,-223,-217,240,402,688
4925,7,-195,-209,266,566,672
4930,15,-179,-217,280,712,648
4935,25,-156,-217,267,817,619
4940,52,-150,-212,224,879,592
4945,63,-143,-214,159,898,561
4950,64,-145,-208,95,892,533
4955,60,-148,-201,43,870,508
4960,54,-157,-188,-4,842,483
4965,50,-169,-173,-52,806,454
4970,39,-184,-160,-101,763,423
4975,27,-190,-149,-139,715,394
4980,14,-197,-140,-159,667,370
4985,1,-209,-141,-159,625,354
4990,-4,-219,-141,-150,593,339
4995,-16,-226,-141,-135,576,323
5000,-17,-227,-141,-120,567,301
5005,-22,-227,-137,-101,566,275
5010,-25,-229,-136,-85,571,240
5015,-32,-224,-130,-66,582,202
5020,-31,-217,-123,-46,598,162
5025,-34,-213,-122,-26,619,114
5030,-31,-207,-113,-8,638,66
5035,-35,-192,-105,-2,655,17
5040,-25,-188,-95,-2,667,-31
5045,-22,-181,-103,-8,671,-72
5050,-17,-176,-96,-22,668,-105
5055,-12,-170,-93,-39,663,-128
5060,-1,-170,-93,-51,650,-144
5065,2,-161,-85,-54,633,-150
5070,1,-154,-86,-62,613,-148
5075,6,-151,-88,-68,586,-139
5080,5,-145,-80,-74,556,-129
5085,11,-146,-76,-77,521,-115
5090,9,-140,-73,-81,482,-100
5095,9,-134,-71,-85,440,-83
5100,6,-135,-64,-87,398,-66
5105,7,-133,-70,-89,356,-47
5110,5,-131,-70,-94,314,-30
5115,2,-132,-67,-102,269,-14
5120,4,-131,-70,-110,225,-4
5125,1,-133,-74,-121,180,5
5130,1,-132,-74,-135,133,12
5135,0,-135,-76,-148,87,13
5140,2,-139,-78,-162,44,17
5145,5,-141,-83,-175,5,20
5150,3,-148,-82,-189,-26,24
5155,7,-156,-88,-199,-49,31
5160,12,-170,-85,-203,-67,40
5165,18,-175,-89,-205,-80,49
5170,18,-181,-90,-200,-88,61
5175,26,-192,-88,-191,-94,72
5180,27,-199,-87,-181,-96,83
5185,32,-211,-85,-169,-95,93
5190,34,-224,-74,-154,-91,102
5195,41,-235,-68,-139,-87,107
5200,43,-247,-69,-129,-88,105
5205,42,-259,-60,-118,-97,95
5210,44,-270,-57,-100,-104,92
5215,43,-282,-55,-65,-106,92
5220,33,-287,-52,-15,-94,99
5225,29,-289,-53,55,-77,111
5230,22,-286,-55,146,-59,120
5235,18,-287,-56,245,-44,134
5240,13,-278,-57,344,-27,152
5245,16,-281,-49,440,9,173
5250,13,-275,-43,539,50,186
5255,18,-274,-36,633,101,195
5260,14,-264,-44,719,159,198
5265,5,-245,-66,774,224,201
5270,24,-226,-81,781,298,207
5275,40,-210,-78,738,384,213
5280,56,-200,-84,644,465,216
5285,69,-214,-68,575,516,213
5290,76,-227,-51,543,525,200
5295,76,-235,-39,556,491,182
5300,70,-240,-33,589,424,166
5305,58,-243,-39,606,343,154
5310,38,-243,-61,571,272,138
5315,15,-236,-94,461,215,120
5320,1,-236,-148,274,182,93
5325,0,-237,-196,13,183,52
5330,-2,-256,-265,-308,233,4
5335,2,-285,-311,-609,335,-32
5340,18,-313,-316,-801,495,-52
5345,40,-324,-310,-853,692,-83
5350,65,-336,-284,-787,893,-157
5355,95,-329,-258,-660,1062,-299
5360,109,-346,-213,-485,1235,-364
5365,96,-369,-189,-282,1360,-395
5370,82,-369,-177,-110,1431,-433
5375,58,-352,-186,12,1443,-462
5380,33,-324,-195,93,1381,-475
5385,6,-294,-213,158,1264,-478
5390,-26,-274,-215,245,1102,-467
5395,-45,-265,-220,342,911,-436
5400,-78,-256,-220,432,708,-388
5405,-96,-239,-231,497,510,-332
5410,-98,-226,-235,519,341,-272
5415,-88,-217,-236,491,209,-209
5420,-80,-215,-235,431,122,-157
5425,-74,-212,-233,367,84,-121
5430,-60,-208,-216,319,86,-100
5435,-42,-207,-196,284,109,-95
5440,-26,-207,-183,252,144,-103
5445,-26,-212,-171,226,182,-106
5450,-23,-221,-157,204,222,-101
5455,-8,-230,-147,195,276,-83
5460,1,-234,-152,195,338,-55
5465,16,-240,-150,197,394,-23
5470,23,-233,-153,195,434,10
5475,36,-232,-151,199,451,44
5480,50,-228,-147,215,446,76
5485,45,-220,-144,248,428,112
5490,45,-206,-139,298,399,155
5495,42,-198,-132,363,369,209
5500,39,-188,-132,420,342,269
5505,34,-184,-131,455,321,335
5510,31,-178,-120,464,307,394
5515,30,-177,-117,449,299,439
5520,31,-178,-121,414,301,466
5525,27,-179,-113,360,315,483
5530,27,-176,-111,296,332,488
5535,24,-164,-102,231,351,487
5540,20,-163,-101,164,370,481
5545,22,-161,-98,110,385,476
5550,18,-149,-96,78,399,470
5555,12,-145,-92,61,413,465
5560,10,-140,-93,54,424,464
5565,7,-138,-90,52,437,463
5570,3,-133,-92,54,456,471
5575,-2,-137,-89,65,464,461
5580,-3,-133,-91,78,474,439
5585,-5,-130,-89,91,488,415
5590,-11,-125,-92,106,504,389
5595,-11,-125,-86,113,519,366
5600,-16,-121,-91,114,529,340
5605,-20,-118,-83,109,537,320
5610,-19,-120,-83,102,544,303
5615,-16,-121,-83,86,546,289
5620,-20,-125,-86,57,545,279
5625,-19,-127,-87,15,536,271
5630,-22,-132,-85,-36,521,265
5635,-21,-134,-82,-88,501,258
5640,-26,-146,-85,-135,480,252
5645,-31,-146,-83,-172,451,244
5650,-31,-151,-80,-200,420,235
5655,-36,-162,-74,-219,386,221
5660,-36,-171,-78,-238,350,206
5665,-37,-181,-72,-248,315,191
5670,-34,-188,-67,-253,284,175
5675,-35,-197,-70,-250,257,157
5680,-36,-206,-69,-239,234,138
5685,-29,-211,-66,-218,219,122
5690,-25,-218,-60,-193,209,108
5695,-19,-223,-61,-161,205,92
5700,-16,-220,-72,-127,201,73
5705,-10,-224,-74,-95,197,55
5710,-9,-226,-72,-61,197,41
5715,-4,-227,-71,-30,204,29
5720,0,-231,-68,0,217,20
5725,2,-233,-65,31,231,13
5730,5,-240,-61,62,240,11
5735,14,-245,-58,86,241,11
5740,18,-249,-59,106,234,13
5745,21,-251,-57,121,217,19
5750,35,-252,-64,129,191,23
5755,25,-257,-67,133,160,25
5760,29,-259,-69,135,126,30
5765,23,-260,-71,138,93,31
5770,13,-266,-74,143,56,33
5775,9,-267,-74,148,8,34
5780,-1,-267,-75,164,-43,37
5785,-12,-269,-77,181,-78,51
5790,-24,-273,-69,192,-84,74
5795,-24,-284,-61,206,-55,97
5800,-19,-295,-44,233,16,121
5805,1,-308,-25,273,118,134
5810,8,-319,-10,322,235,141
5815,17,-320,-2,370,352,145
5820,33,-326,-13,404,457,147
5825,44,-325,-33,404,536,150
5830,69,-322,-77,358,583,147
5835,92,-307,-131,258,590,135
5840,96,-298,-184,102,562,127
5845,86,-281,-251,-99,487,130
5850,68,-265,-299,-295,375,152
5855,44,-264,-313,-436,252,201
5860,16,-281,-299,-499,163,282
5865,-3,-295,-279,-498,123,387
5870,-30,-316,-251,-447,120,485
5875,-41,-326,-222,-348,138,562
5880,-71,-313,-220,-222,146,615
5885,-68,-291,-221,-100,124,644
5890,-62,-272,-225,13,103,661
5895,-48,-256,-231,91,139,684
5900,-27,-244,-222,127,234,708
5905,-11,-233,-208,163,372,727
5910,-7,-217,-204,223,511,732
5915,0,-198,-214,298,614,724
5920,8,-179,-221,356,673,711
5925,37,-165,-233,373,693,696
5930,53,-158,-230,335,692,671
5935,53,-161,-218,263,675,641
5940,43,-164,-204,197,644,605
5945,31,-176,-186,151,597,561
5950,11,-186,-165,113,547,514
5955,2,-197,-144,74,488,465
5960,-13,-199,-138,35,420,419
5965,-26,-201,-131,-10,345,371
5970,-43,-206,-138,-58,267,324
5975,-51,-214,-139,-100,197,275
5980,-59,-223,-141,-135,139,229
5985,-63,-228,-144,-152,101,181
5990,-69,-227,-142,-152,81,132
5995,-68,-224,-139,-135,77,76
6000,-65,-227,-137,-101,84,12
6005,-64,-228,-134,-59,99,-55
6010,-55,-226,-127,-18,116,-121
6015,-51,-223,-121,14,134,-183
6020,-40,-223,-109,39,155,-235
6025,-24,-218,-103,56,176,-280
6030,-12,-213,-98,60,193,-318
6035,0,-202,-91,57,200,-347
6040,5,-194,-84,53,196,-366
6045,12,-186,-79,44,188,-375
6050,21,-176,-79,33,179,-374
6055,23,-162,-75,22,169,-371
6060,22,-153,-80,13,153,-366
6065,26,-147,-78,4,126,-359
6070,31,-140,-79,-3,91,-353
6075,27,-131,-84,-7,48,-342
6080,29,-122,-80,-5,0,-332
6085,22,-117,-77,0,-47,-317
6090,19,-112,-79,6,-94,-298
6095,15,-111,-82,10,-139,-278
6100,6,-111,-78,6,-177,-258
6105,-3,-112,-80,-7,-211,-235
6110,-9,-109,-78,-23,-239,-214
6115,-13,-113,-78,-42,-259,-195
6120,-15,-113,-79,-61,-273,-177
6125,-10,-121,-82,-82,-280,-166
6130,-13,-125,-75,-102,-282,-158
6135,-3,-133,-83,-121,-279,-154
6140,2,-138,-86,-145,-270,-150
6145,7,-149,-86,-174,-261,-144
6150,16,-157,-87,-202,-250,-135
6155,27,-172,-86,-235,-237,-121
6160,32,-177,-90,-270,-224,-104
6165,39,-190,-82,-303,-213,-84
6170,43,-205,-83,-327,-208,-63
6175,56,-214,-82,-345,-202,-43
6180,61,-224,-78,-349,-203,-28
6185,59,-237,-72,-340,-207,-16
6190,59,-249,-62,-318,-217,-6
6195,55,-256,-60,-282,-234,4
6200,50,-266,-51,-231,-256,16
6205,46,-273,-46,-166,-276,31
6210,31,-279,-44,-95,-286,49
6215,17,-277,-40,-3,-282,75
6220,10,-277,-44,79,-268,100
6225,2,-273,-44,160,-245,128
6230,2,-266,-47,233,-211,159
6235,0,-258,-47,291,-162,189
6240,-2,-257,-45,342,-98,211
6245,0,-251,-47,384,-21,227
6250,-3,-241,-64,420,71,241
6255,1,-224,-79,433,178,258
6260,15,-213,-84,415,294,277
6265,40,-210,-88,373,406,290
6270,54,-209,-80,324,496,294
6275,70,-226,-69,299,550,287
6280,78,-240,-54,308,567,272
6285,73,-247,-48,346,544,249
6290,70,-254,-39,398,496,225
6295,50,-283,-30,456,435,198
6300,23,-295,-28,512,373,175
6305,-2,-299,-38,561,320,154
6310,-22,-300,-51,578,275,130
6315,-41,-303,-82,540,236,103
6320,-62,-302,-116,437,205,73
6325,-71,-309,-151,278,183,39
6330,-76,-314,-192,82,181,6
6335,-68,-316,-222,-112,218,-19
6340,-47,-314,-255,-265,298,-41
6345,-16,-302,-276,-361,406,-70
6350,28,-298,-294,-399,509,-112
6355,65,-297,-285,-381,589,-162
6360,83,-293,-275,-321,654,-212
6365,93,-290,-260,-222,698,-246
6370,87,-283,-255,-113,719,-271
6375,82,-271,-248,-32,701,-293
6380,69,-257,-243,28,642,-309
6385,48,-248,-228,82,540,-306
6390,22,-245,-216,130,412,-295
6395,-2,-254,-203,162,287,-275
6400,-30,-250,-184,168,182,-262
6405,-45,-258,-168,166,99,-259
6410,-54,-262,-166,165,40,-259
6415,-61,-258,-170,153,12,-263
6420,-67,-257,-177,142,21,-268
6425,-65,-245,-187,138,61,-278
6430,-69,-229,-189,147,109,-284
6435,-65,-216,-185,171,145,-277
6440,-55,-203,-184,205,165,-249
6445,-34,-191,-173,241,175,-208
6450,-14,-187,-161,268,180,-163
6455,12,-193,-154,278,181,-122
6460,28,-197,-144,265,180,-92
6465,46,-204,-138,244,181,-71
6470,63,-202,-131,222,183,-54
6475,72,-200,-127,202,187,-37
6480,75,-195,-126,192,194,-11
6485,80,-193,-124,191,206,25
6490,82,-192,-125,192,227,70
6495,79,-190,-119,197,253,120
6500,73,-182,-117,207,281,168
6505,64,-183,-119,214,308,208
6510,54,-185,-113,208,326,245
6515,44,-183,-109,187,338,271
6520,26,-182,-108,152,339,289
6525,7,-177,-101,109,336,303
6530,0,-173,-99,63,334,310
6535,-12,-165,-98,25,331,318
6540,-21,-158,-95,-6,328,324
6545,-27,-157,-97,-30,325,329
6550,-34,-146,-101,-48,320,333
6555,-36,-136,-95,-61,312,336
6560,-40,-135,-89,-68,304,340
6565,-39,-130,-94,-75,297,341
6570,-39,-129,-97,-82,297,343
6575,-32,-127,-94,-96,298,339
6580,-30,-125,-94,-113,299,331
6585,-25,-123,-89,-130,298,318
6590,-23,-123,-89,-142,297,303
6595,-19,-124,-83,-150,294,286
6600,-17,-127,-83,-152,293,267
6605,-7,-133,-84,-147,293,249
6610,-7,-136,-85,-151,293,232
6615,-6,-146,-80,-163,291,210
6620,-8,-150,-79,-178,293,192
6625,-8,-158,-80,-197,290,175
6630,-11,-167,-79,-215,285,163
6635,-13,-171,-76,-234,278,151
6640,-15,-179,-75,-252,270,137
6645,-18,-187,-75,-271,258,123
6650,-18,-192,-76,-286,246,108
6655,-21,-194,-71,-296,233,90
6660,-18,-208,-66,-297,220,75
6665,-15,-215,-65,-292,213,62
6670,-15,-220,-62,-279,213,50
6675,-4,-233,-52,-257,223,37
6680,-1,-233,-55,-228,237,19
6685,5,-237,-58,-194,253,1
6690,8,-239,-60,-158,269,-16
6695,13,-243,-61,-121,282,-35
6700,14,-244,-60,-79,293,-45
6705,15,-248,-61,-35,295,-56
6710,19,-253,-58,13,293,-60
6715,21,-256,-56,61,286,-57
6720,23,-257,-58,106,274,-54
6725,23,-256,-66,147,257,-48
6730,29,-255,-68,183,233,-43
6735,30,-256,-69,217,210,-39
6740,22,-257,-70,249,185,-37
6745,21,-257,-74,278,146,-35
6750,8,-261,-80,311,99,-32
6755,-3,-262,-81,347,42,-22
6760,-15,-267,-80,381,-10,-6
6765,-26,-268,-77,406,-44,19
6770,-38,-274,-72,421,-48,43
6775,-45,-282,-65,427,-20,62
6780,-42,-285,-64,425,32,71
6785,-33,-287,-74,404,96,73
6790,-24,-290,-93,350,164,67
6795,-13,-297,-117,267,221,65
6800,-5,-299,-156,147,252,63
6805,-2,-297,-195,-8,232,68
6810,-1,-305,-250,-188,160,78
6815,5,-303,-288,-361,46,95
6820,11,-309,-309,-490,-85,118
6825,4,-313,-309,-549,-193,162
6830,-5,-311,-305,-523,-267,222
6835,-10,-313,-282,-415,-285,291
6840,-23,-301,-265,-246,-261,357
6845,-19,-282,-256,-69,-227,402
6850,-7,-259,-253,82,-177,424
6855,0,-249,-247,171,-83,443
6860,13,-227,-230,203,49,450
6865,10,-204,-218,208,211,455
6870,7,-178,-217,199,378,468
6875,16,-153,-207,173,525,487
6880,38,-147,-204,144,626,502
6885,72,-136,-205,118,671,501
6890,82,-129,-212,85,661,482
6895,82,-130,-212,51,609,452
6900,72,-140,-213,15,539,426
6905,64,-150,-205,-29,460,401
6910,39,-164,-193,-85,386,378
6915,24,-175,-182,-147,315,351
6920,6,-192,-167,-204,254,323
6925,-19,-201,-161,-252,200,291
6930,-27,-212,-166,-288,159,265
6935,-43,-222,-164,-318,137,236
6940,-53,-229,-163,-341,129,205
6945,-56,-229,-159,-355,135,167
6950,-60,-233,-157,-355,153,123
6955,-63,-228,-155,-340,182,72
6960,-62,-225,-152,-316,218,15
6965,-57,-222,-144,-290,256,-47
6970,-54,-211,-133,-267,299,-107
6975,-41,-213,-128,-249,339,-167
6980,-33,-212,-126,-246,376,-225
6985,-21,-206,-121,-256,403,-279
6990,-12,-199,-115,-275,418,-323
6995,7,-193,-101,-303,426,-353
7000,15,-187,-98,-330,423,-369
7005,26,-184,-93,-348,411,-374
7010,31,-169,-88,-362,390,-375
7015,35,-160,-89,-372,361,-368
7020,40,-151,-87,-377,326,-359
7025,37,-143,-89,-380,287,-346
7030,38,-135,-93,-384,249,-327
7035,37,-130,-93,-389,202,-307
7040,36,-126,-93,-392,161,-287
7045,27,-123,-94,-397,124,-266
7050,32,-124,-96,-410,91,-244
7055,23,-124,-98,-427,63,-221
7060,24,-126,-94,-448,39,-200
7065,26,-129,-95,-475,24,-182
7070,25,-136,-98,-509,19,-168
7075,27,-140,-97,-542,18,-159
7080,21,-140,-101,-572,22,-155
7085,24,-147,-100,-594,27,-154
7090,19,-156,-106,-608,36,-150
7095,20,-167,-106,-618,45,-151
7100,23,-178,-104,-623,56,-157
7105,21,-187,-109,-624,64,-161
7110,24,-196,-107,-628,66,-172
7115,19,-210,-114,-623,63,-178
7120,25,-220,-113,-621,57,-185
7125,23,-229,-116,-615,49,-189
7130,20,-239,-116,-600,38,-188
7135,16,-252,-118,-578,27,-183
7140,13,-258,-111,-542,20,-176
7145,16,-266,-110,-497,10,-168
7150,10,-270,-109,-442,-4,-171
7155,13,-271,-106,-394,-33,-210
7160,19,-269,-104,-329,-37,-196
7165,19,-272,-98,-245,-49,-176
7170,19,-272,-94,-151,-60,-157
7175,19,-273,-90,-58,-69,-152
7180,19,-272,-84,25,-69,-158
7185,17,-270,-84,91,-60,-174
7190,18,-266,-85,142,-45,-192
7195,17,-261,-84,180,-21,-209
7200,15,-259,-82,208,8,-224
7205,7,-259,-84,239,42,-233
7210,4,-260,-86,271,74,-240
7215,2,-262,-80,311,99,-242
7220,-1,-265,-79,351,116,-242
7225,-2,-271,-82,392,122,-236
7230,-9,-269,-84,431,114,-228
7235,-5,-274,-86,464,98,-217
7240,0,-274,-89,487,75,-200
7245,8,-272,-97,497,49,-181
7250,14,-272,-102,491,25,-156
7255,25,-268,-113,464,4,-133
7260,26,-264,-116,416,-13,-114
7265,41,-259,-133,346,-25,-105
7270,45,-256,-151,257,-28,-97
7275,47,-253,-168,165,-23,-88
7280,50,-247,-193,72,-4,-76
7285,56,-230,-227,-18,17,-59
7290,68,-227,-253,-103,46,-34
7295,82,-229,-273,-177,82,-3
7300,90,-227,-278,-224,123,31
7305,102,-228,-264,-243,166,59
7310,111,-229,-260,-236,213,85
7315,106,-226,-256,-227,263,105
7320,101,-219,-261,-223,310,114
7325,95,-212,-269,-229,348,114
7330,77,-199,-274,-237,370,104
7335,62,-192,-280,-226,378,89
7340,50,-184,-277,-185,372,70
7345,34,-176,-270,-127,358,51
7350,18,-170,-257,-63,335,43
7355,-4,-165,-245,-4,301,38
7360,-19,-158,-228,39,254,33
7365,-37,-156,-213,64,198,29
7370,-44,-162,-206,69,138,29
7375,-45,-166,-194,61,80,29
7380,-42,-170,-197,45,37,31
7385,-34,-173,-196,27,15,34
7390,-21,-183,-201,13,11,33
7395,-13,-186,-196,2,30,24
7400,0,-193,-199,-9,60,16
7405,8,-199,-201,-19,103,14
7410,20,-207,-193,-19,155,16
7415,31,-206,-189,-11,208,19
7420,29,-194,-188,-4,256,25
7425,34,-200,-173,8,293,33
7430,36,-194,-165,27,316,42
7435,43,-196,-159,56,318,53
7440,39,-194,-148,80,306,63
7445,40,-197,-144,100,274,83
7450,36,-192,-136,115,240,109
7455,30,-194,-134,120,201,145
7460,28,-187,-136,109,163,190
7465,17,-182,-127,75,135,236
7470,18,-190,-123,43,111,287
7475,17,-183,-118,35,85,339
7480,6,-191,-115,21,65,389
7485,11,-191,-122,-4,18,404
7490,11,-183,-117,-40,-18,405
7495,14,-180,-119,-77,-46,404
7500,17,-176,-118,-113,-68,402
7505,18,-166,-109,-149,-83,395
7510,21,-162,-105,-165,-96,376
7515,24,-146,-99,-151,-104,350
7520,21,-144,-94,-114,-104,330
7525,22,-133,-90,-61,-100,315
7530,20,-131,-87,-10,-94,301
7535,11,-128,-83,35,-91,294
7540,2,-127,-84,76,-90,287
7545,-3,-126,-78,113,-95,282
7550,-17,-129,-71,142,-105,284
7555,-30,-128,-72,162,-121,283
7560,-42,-131,-71,168,-143,288
7565,-44,-138,-69,156,-171,293
7570,-46,-140,-70,136,-207,298
7575,-60,-148,-62,112,-243,301
7580,-61,-157,-65,90,-279,310
7585,-64,-172,-58,68,-314,319
7590,-64,-178,-52,45,-344,324
7595,-63,-186,-56,23,-369,328
7600,-56,-197,-52,5,-385,333
7605,-44,-204,-58,-7,-389,335
7610,-31,-210,-56,-10,-383,337
7615,-22,-217,-66,-11,-364,333
7620,-15,-217,-68,-10,-336,322
7625,-3,-223,-68,-5,-296,307
7630,14,-222,-73,10,-251,285
7635,25,-220,-67,45,-202,255
7640,36,-220,-72,92,-170,220
7645,42,-211,-80,148,-163,179
7650,46,-214,-81,215,-185,142
7655,53,-215,-91,281,-224,114
7660,55,-215,-88,353,-269,98
7665,55,-222,-87,432,-306,96
7670,55,-221,-85,511,-330,107
7675,54,-223,-93,585,-341,122
7680,53,-225,-90,641,-333,137
7685,56,-231,-91,678,-300,150
7690,64,-239,-85,694,-243,167
7695,70,-254,-90,695,-154,182
7700,79,-269,-71,683,-39,188
7705,93,-284,-66,661,88,179
7710,110,-304,-61,636,215,157
7715,125,-315,-59,627,336,120
7720,131,-322,-58,651,454,79
7725,131,-325,-60,711,562,29
7730,130,-322,-80,805,649,-22
7735,128,-311,-102,919,711,-73
7740,118,-294,-123,1032,742,-119
7745,105,-267,-155,1132,744,-135
7750,85,-250,-197,1207,715,-131
7755,57,-225,-231,1237,661,-110
7760,14,-202,-271,1219,587,-72
7765,-22,-191,-294,1148,487,-20
7770,-54,-179,-308,1037,367,35
7775,-81,-156,-320,914,222,97
7780,-129,-148,-328,775,132,171
7785,-163,-133,-324,659,85,232
7790,-187,-129,-310,551,70,271
7795,-197,-108,-287,470,44,291
7800,-199,-120,-267,363,-15,313
7805,-182,-149,-240,245,-99,324
7810,-155,-168,-213,171,-185,330
7815,-139,-185,-195,99,-261,345
7820,-116,-206,-175,48,-320,354
7825,-87,-221,-165,27,-364,341
7830,-55,-241,-174,31,-390,310
7835,-27,-257,-189,49,-393,253
7840,1,-270,-202,71,-369,175
7845,27,-279,-207,96,-326,88
7850,51,-285,-208,136,-271,-2
7855,65,-289,-204,182,-210,-85
7860,80,-297,-199,211,-164,-157
7865,81,-299,-193,210,-160,-220
7870,65,-304,-187,195,-193,-275
7875,39,-303,-177,183,-239,-312
7880,5,-279,-169,181,-259,-329
7885,-21,-267,-156,185,-236,-333
7890,-37,-251,-150,178,-174,-334
7895,-41,-234,-136,169,-91,-337
7900,-31,-226,-117,166,3,-343
7905,-40,-209,-147,166,95,-345
7910,126,-189,-162,136,171,-359
7915,234,-166,-67,190,217,-502
7920,8,-168,-63,429,114,-666
7925,-121,-191,-90,605,-249,-711
7930,-244,-212,43,678,-439,-634
7935,-320,-210,123,755,-457,-471
7940,-269,-186,116,724,-349,-371
7945,-108,-162,72,438,-112,-455
7950,77,-163,3,-45,168,-632
7955,208,-158,-56,-471,387,-765
7960,243,-128,-100,-673,501,-832
7965,228,-118,-106,-600,485,-792
7970,170,-124,-125,-391,349,-699
7975,111,-99,-179,-159,168,-573
7980,39,-44,-218,-92,39,-461
7985,-28,-9,-227,-216,18,-382
7990,-90,14,-211,-421,80,-327
7995,-126,1,-185,-583,156,-300
8000,-139,-35,-165,-662,177,-304
8005,-136,-61,-159,-693,146,-320
8010,-124,-78,-161,-705,79,-337
8015,-103,-110,-146,-704,-7,-341
8020,-84,-129,-148,-692,-103,-341
8025,-65,-139,-151,-686,-204,-348
8030,-45,-143,-169,-702,-318,-362
8035,-33,-131,-186,-756,-436,-370
8040,-11,-124,-201,-845,-534,-356
8045,9,-121,-221,-944,-572,-331
8050,38,-124,-227,-1058,-549,-301
8055,68,-135,-227,-1200,-486,-287
8060,87,-139,-221,-1338,-407,-283
8065,101,-154,-200,-1432,-336,-270
8070,107,-179,-191,-1474,-283,-239
8075,105,-188,-180,-1482,-252,-195
8080,101,-202,-179,-1478,-229,-145
8085,93,-214,-173,-1485,-207,-96
8090,79,-226,-180,-1509,-180,-51
8095,61,-231,-187,-1545,-150,-17
8100,32,-228,-180,-1587,-118,-1
8105,5,-221,-178,-1633,-93,-10
8110,-5,-212,-174,-1679,-50,-18
8115,-22,-201,-168,-1715,-8,-32
8120,-29,-185,-159,-1753,28,-64
8125,-48,-168,-150,-1799,70,-105
8130,-43,-160,-143,-1848,119,-142
8135,-41,-159,-135,-1900,162,-183
8140,-34,-148,-135,-1941,182,-225
8145,-24,-149,-139,-1959,168,-253
8150,-17,-157,-147,-1970,126,-278
8155,-16,-166,-156,-1982,71,-292
8160,-18,-168,-160,-1998,23,-298
8165,-21,-174,-168,-2022,-4,-293
8170,-21,-187,-157,-2043,-2,-276
8175,-24,-199,-148,-2041,17,-257
8180,-19,-190,-138,-2002,40,-257
8185,-21,-187,-137,-1979,58,-247
8190,-2,-177,-135,-1985,81,-215
8195,-3,-174,-127,-1941,101,-129
8200,-10,-174,-116,-1872,111,-67
8205,-15,-180,-110,-1801,106,-31
8210,-20,-188,-111,-1736,83,-4
8215,-33,-199,-99,-1668,51,16
8220,-47,-209,-89,-1590,11,32
8225,-57,-215,-75,-1492,-41,39
8230,-70,-220,-66,-1380,-113,44
8235,-77,-217,-58,-1263,-211,49
8240,-86,-199,-44,-1144,-330,57
8245,-83,-183,-31,-1029,-464,83
8250,-79,-163,-29,-925,-597,126
8255,-76,-152,-32,-841,-715,181
8260,-66,-138,-43,-789,-804,237
8265,-60,-128,-51,-770,-870,284
8270,-48,-121,-64,-776,-915,322
8275,-37,-110,-63,-794,-951,350
8280,-30,-108,-65,-814,-978,374
8285,-23,-101,-65,-839,-986,403
8290,-13,-93,-59,-868,-972,429
8295,-8,-84,-57,-903,-930,443
8300,-5,-67,-68,-954,-870,449
8305,0,-52,-87,-1027,-791,456
8310,0,-26,-121,-1125,-695,462
8315,5,3,-163,-1256,-594,470
8320,19,22,-202,-1430,-493,477
8325,32,48,-242,-1645,-396,490
8330,54,58,-255,-1908,-296,507
8335,84,55,-268,-2218,-195,527
8340,116,34,-280,-2555,-95,541
8345,150,-15,-293,-2898,15,541
8350,172,-66,-305,-3208,161,515
8355,177,-102,-309,-3440,362,471
8360,161,-126,-318,-3572,579,421
8365,126,-128,-314,-3618,780,382
8370,71,-120,-291,-3578,912,353
8375,3,-149,-275,-3461,926,335
8380,-58,-157,-280,-3312,888,288
8385,-129,-161,-294,-3194,839,232
8390,-183,-136,-299,-3084,782,203
8395,-196,-75,-297,-2931,693,213
8400,-191,-30,-288,-2736,569,239
8405,-176,-18,-281,-2546,423,257
8410,-150,-11,-276,-2410,267,246
8415,-115,-14,-262,-2353,110,212
8420,-72,-23,-251,-2381,-47,156
8425,-33,-20,-245,-2452,-202,107
8430,-6,-20,-241,-2529,-330,51
8435,33,-13,-234,-2577,-429,-13
8440,52,-15,-248,-2578,-493,-79
8445,74,-21,-278,-2526,-511,-153
8450,83,-23,-299,-2435,-473,-223
8455,94,-30,-320,-2329,-392,-285
8460,93,-31,-340,-2238,-293,-340
8465,84,-23,-357,-2186,-196,-402
8470,73,-26,-361,-2175,-115,-441
8475,67,-23,-355,-2183,-65,-463
8480,66,-33,-343,-2179,-64,-462
8485,64,-35,-324,-2157,-113,-448
8490,63,-34,-301,-2113,-204,-427
8495,49,-37,-287,-2067,-344,-415
8500,31,-28,-273,-2039,-518,-412
8505,21,-24,-272,-2043,-713,-421
8510,-10,-6,-277,-2084,-898,-433
8515,-30,-1,-285,-2139,-1052,-440
8520,-36,12,-290,-2194,-1157,-443
8525,-34,21,-295,-2218,-1236,-442
8530,-30,33,-297,-2204,-1310,-433
8535,-22,37,-303,-2151,-1363,-423
8540,-8,31,-305,-2073,-1386,-411
8545,-6,26,-298,-1981,-1385,-398
8550,5,12,-302,-1895,-1363,-378
8555,12,2,-287,-1825,-1317,-354
8560,21,-13,-257,-1768,-1261,-321
8565,31,-21,-244,-1716,-1205,-288
8570,44,-20,-245,-1702,-1161,-275
8575,53,-20,-251,-1712,-1132,-281
8580,65,-18,-261,-1721,-1117,-298
8585,89,-1,-282,-1709,-1100,-310
8590,102,13,-295,-1670,-1084,-315
8595,108,17,-299,-1607,-1077,-304
8600,107,20,-300,-1536,-1083,-288
8605,109,19,-291,-1465,-1090,-277
8610,111,15,-280,-1382,-1107,-260
8615,96,10,-273,-1300,-1150,-250
8620,72,11,-277,-1210,-1215,-219
8625,45,16,-279,-1119,-1282,-180
8630,12,25,-294,-1033,-1338,-118
8635,-7,39,-301,-978,-1373,-30
8640,-31,43,-302,-964,-1381,71
8645,-47,45,-305,-966,-1373,171
8650,-47,48,-302,-977,-1362,270
8655,-54,62,-291,-1004,-1354,359
8660,-67,74,-277,-1088,-1361,425
8665,-79,65,-268,-1222,-1368,480
8670,-103,54,-264,-1362,-1354,515
8675,-123,16,-265,-1480,-1263,532
8680,-141,-20,-268,-1435,-1093,544
8685,-156,-34,-269,-1294,-879,504
8690,-153,-36,-247,-1145,-640,457
8695,-135,-28,-209,-1023,-447,443
8700,-125,-11,-185,-964,-314,459
8705,-97,-14,-179,-967,-235,531
8710,-86,3,-179,-984,-179,642
8715,-36,41,-200,-962,-100,793
8720,-88,10,-182,-978,29,989
8725,-88,0,-180,-962,84,1099
8730,-85,-5,-168,-934,181,1165
8735,-81,-5,-153,-940,295,1244
8740,-76,-9,-128,-958,462,1367
8745,-85,-23,-129,-955,611,1536
8750,-83,-36,-119,-921,706,1613
8755,-83,-33,-104,-891,756,1634
8760,-61,-18,-82,-856,803,1652
8765,-67,-40,-41,-862,869,1751
8770,-56,-36,-63,-878,878,1847
8775,-48,-66,-53,-835,868,1825
8780,-22,-37,-62,-768,850,1800
8785,-9,-62,-48,-704,865,1845
8790,3,-28,-39,-618,841,1840
8795,49,-4,-26,-567,866,1859
8800,66,17,-18,-567,913,1936
8805,63,15,-15,-549,941,2028
8810,38,27,-32,-389,1001,2079
8815,27,38,-29,-146,1121,2123
8820,15,30,-53,110,1284,2205
8825,1,17,-70,323,1495,2301
8830,5,-8,-86,491,1741,2416
8835,15,-22,-83,617,1995,2501
8840,49,-34,-89,740,2228,2567
8845,72,-45,-79,881,2454,2599
8850,111,-49,-59,1047,2675,2639
8855,152,-42,-40,1254,2905,2683
8860,182,-34,-6,1477,3129,2732
8865,199,-10,-21,1655,3302,2783
8870,226,6,-17,1782,3452,2868
8875,255,26,-13,1852,3587,2935
8880,297,40,-21,1881,3733,2990
8885,324,44,-27,1851,3848,3009
8890,326,64,-50,1791,3956,3006
8895,321,93,-75,1679,4050,2978
8900,290,138,-104,1496,4092,2929
8905,262,176,-130,1269,4100,2902
8910,241,177,-140,1029,4077,2911
8915,252,158,-153,830,4045,2926
8920,249,142,-176,730,4022,2904
8925,230,134,-225,725,3976,2813
8930,181,172,-274,728,3888,2658
8935,132,219,-297,675,3758,2485
8940,91,252,-299,595,3623,2331
8945,44,251,-290,542,3503,2229
8950,-23,232,-266,563,3362,2180
8955,-76,197,-249,640,3201,2162
8960,-130,169,-252,757,3001,2136
8965,-151,162,-284,929,2689,2116
8970,-133,149,-290,1129,2276,2147
8975,-82,130,-256,1374,1794,2255
8980,2,103,-232,1674,1297,2404
8985,102,84,-233,1994,853,2513
8990,213,95,-232,2264,490,2546
8995,307,117,-215,2407,263,2512
9000,419,145,-206,2444,144,2439
9005,516,157,-222,2438,106,2335
9010,642,207,-253,2431,148,2168
9015,693,317,-280,2363,287,1921
9020,926,404,-368,2366,212,1648
9025,774,498,-476,2554,-197,858
9030,507,475,-455,2745,-367,158
9035,456,280,-331,2663,-89,-144
9040,597,629,-402,2180,389,-430
9045,668,822,-523,1759,414,-1138
9050,612,642,-540,1575,45,-1538
9055,475,505,-490,1309,-64,-1558
9060,337,492,-427,702,48,-1567
9065,232,350,-348,119,206,-1521
9070,183,216,-321,199,403,-1310
9075,188,76,-300,527,554,-1094
9080,190,-19,-285,755,565,-963
9085,228,60,-345,809,430,-922
9090,173,245,-449,998,-33,-1013
9095,185,0,-322,801,-384,-1197
9100,166,48,-298,725,-516,-1173
9105,207,65,-278,588,-667,-1142
9110,251,39,-222,477,-771,-1082
9115,295,31,-184,328,-886,-1038
9120,259,33,-165,237,-1097,-1032
9125,265,54,-175,207,-1282,-1008
9130,254,86,-175,229,-1453,-1032
9135,247,57,-158,304,-1522,-1071
9140,251,18,-164,362,-1584,-1035
9145,292,48,-148,381,-1666,-1010
9150,301,-44,-128,422,-1836,-948
9155,312,25,-197,614,-1915,-976
9160,270,21,-200,630,-2070,-1158
9165,371,49,-215,526,-2141,-997
9170,292,88,-230,197,-2069,-1111
9175,224,133,-215,-299,-1797,-1006
9180,119,169,-221,-773,-1669,-1076
9185,119,100,-169,-1126,-1704,-1161
9190,107,193,-232,-1226,-1772,-1134
9195,150,291,-255,-1427,-1866,-1129
9200,119,199,-194,-1608,-2004,-1104
9205,43,64,18,-1425,-2040,-904
9210,120,305,-223,-778,-1933,-574
9215,101,292,-333,-522,-2022,-624
9220,93,187,-210,-709,-1979,-483
9225,125,122,-229,-754,-1875,-281
9230,128,177,-278,-724,-1868,-194
9235,140,178,-272,-684,-1859,-194
9240,154,133,-247,-605,-1737,-207
9245,198,46,-203,-368,-1539,-276
9250,211,152,-245,-58,-1431,-356
9255,245,167,-265,65,-1276,-408
9260,266,154,-259,111,-1030,-415
9265,281,115,-264,159,-819,-406
9270,319,124,-309,165,-597,-257
9275,302,166,-287,1,-382,-233
9280,305,123,-305,73,-195,-57
9285,244,230,-284,67,52,140
9290,193,250,-271,-162,233,4
9295,141,236,-258,-248,378,-46
9300,108,249,-216,-275,447,-114
9305,78,224,-162,-285,481,-192
9310,27,249,-157,-248,401,-290
9315,1,263,-175,-188,309,-366
9320,-27,279,-202,-153,229,-405
9325,-43,280,-196,-204,146,-424
9330,-37,242,-179,-223,67,-409
9335,-39,216,-160,-161,-52,-387
9340,-50,212,-165,-57,-187,-368
9345,-50,185,-158,-6,-328,-364
9350,-55,175,-148,19,-422,-330
9355,-50,167,-164,39,-515,-321
9360,-36,154,-166,14,-636,-353
9365,-27,141,-165,-8,-737,-373
9370,-10,126,-171,-11,-799,-384
9375,-3,136,-185,6,-839,-384
9380,7,134,-190,24,-864,-391
9385,17,133,-184,46,-882,-380
9390,30,135,-192,75,-923,-381
9395,43,128,-190,117,-974,-376
9400,34,117,-194,188,-1042,-362
9405,32,112,-217,260,-1104,-348
9410,38,114,-233,287,-1134,-313
9415,40,102,-239,299,-1153,-277
9420,45,99,-242,314,-1134,-230
9425,47,112,-246,320,-1094,-190
9430,52,122,-242,328,-1053,-162
9435,60,124,-246,336,-1005,-119
9440,59,131,-238,342,-961,-76
9445,69,143,-238,352,-916,-32
9450,66,133,-221,400,-873,31
9455,61,127,-209,447,-845,77
9460,63,120,-209,466,-812,112
9465,66,129,-206,472,-816,111
9470,47,102,-195,467,-831,104
9475,48,129,-195,426,-817,103
9480,34,107,-194,471,-755,138
9485,49,109,-188,544,-704,174
9490,27,68,-173,682,-688,199
9495,31,36,-153,743,-674,212
9500,33,5,-161,734,-709,207
9505,30,9,-191,805,-737,225
9510,57,30,-225,910,-754,251
9515,37,2,-193,916,-747,250
9520,47,26,-209,978,-725,274
9525,49,35,-211,1021,-706,291
9530,63,49,-210,1033,-661,318
9535,70,38,-200,1013,-615,338
9540,75,40,-192,1062,-579,358
9545,77,39,-201,1176,-565,360
9550,82,53,-201,1299,-562,354
9555,80,54,-199,1390,-542,346
9560,92,87,-207,1428,-518,331
9565,81,102,-199,1440,-487,285
9570,64,120,-198,1456,-448,257
9575,98,162,-252,1432,-364,240
9580,89,190,-216,1181,-318,223
9585,120,209,-269,926,-239,219
9590,115,174,-235,684,-235,182
9595,72,115,-227,522,-212,154
9600,49,85,-224,429,-196,113
9605,60,58,-235,377,-153,105
9610,65,30,-225,351,-74,114
9615,46,23,-253,312,-53,113
9620,20,58,-272,314,-34,107
9625,38,30,-265,317,-12,112
9630,64,-32,-256,332,38,133
9635,68,-22,-252,403,91,134
9640,44,28,-270,412,145,134
9645,33,28,-248,374,175,144
9650,51,38,-237,347,213,136
9655,44,43,-247,336,255,129
9660,42,38,-245,326,297,121
9665,40,53,-247,297,333,106
9670,27,66,-235,253,358,92
9675,60,53,-236,212,376,92
9680,54,48,-240,182,391,75
9685,49,41,-245,149,395,65
9690,75,37,-237,110,404,66
9695,28,21,-258,82,387,54
9700,38,34,-278,97,333,60
9705,51,32,-273,117,323,57
9710,38,28,-268,123,355,52
9715,59,14,-273,122,377,48
9720,42,26,-275,114,403,33
9725,46,20,-272,104,414,28
9730,29,12,-279,81,431,29
9735,41,15,-274,49,437,24
9740,49,18,-267,33,449,20
9745,45,18,-265,12,458,13
9750,49,23,-260,-5,465,3
9755,52,21,-261,-21,474,-6
9760,45,22,-257,-32,483,-11
9765,49,17,-254,-41,490,-16
9770,53,19,-259,-50,490,-21
9775,52,25,-265,-57,481,-27
9780,57,27,-262,-55,476,-26
9785,64,18,-265,-40,476,-23
9790,57,20,-271,-32,481,-20
9795,53,24,-272,-39,488,-18
9800,51,30,-270,-50,497,-17
9805,50,27,-271,-59,511,-14
9810,59,25,-266,-66,530,-13
9815,61,25,-263,-75,554,-13
9820,64,30,-259,-84,568,-13
9825,65,28,-261,-94,572,-7
9830,69,22,-259,-106,564,-6
9835,63,32,-258,-114,555,-8
9840,68,24,-256,-130,544,-7
9845,69,24,-257,-136,537,-4
9850,70,29,-255,-145,530,-4
9855,71,31,-255,-144,522,-3
9860,76,32,-252,-142,514,-4
9865,80,32,-252,-134,507,-3
9870,75,31,-254,-136,501,-2
9875,80,32,-252,-141,492,0
9880,73,32,-249,-149,486,1
9885,78,39,-249,-160,480,0
9890,70,35,-251,-168,476,3
9895,73,35,-249,-174,470,6
9900,74,31,-245,-178,467,9
9905,76,32,-244,-178,466,14
9910,81,34,-237,-176,462,20
9915,76,38,-242,-173,460,21
9920,81,34,-241,-168,452,23
9925,82,38,-246,-167,447,24
9930,81,38,-246,-170,442,26
9935,81,47,-239,-178,437,27
9940,85,37,-244,-186,435,30
9945,89,38,-238,-194,436,32
9950,84,45,-238,-199,439,30
9955,91,37,-233,-202,440,27
9960,88,39,-231,-201,440,25
9965,88,40,-231,-201,436,25
9970,91,39,-230,-199,428,22
9975,88,37,-228,-198,416,19
9980,95,41,-227,-198,399,21
9985,90,40,-226,-194,380,17
9990,90,39,-224,-185,365,14
9995,100,41,-229,-173,351,14
10000,97,45,-231,-162,337,9
10005,94,42,-231,-156,322,6
10010,99,44,-232,-152,310,3
10015,97,41,-231,-154,299,1
10020,94,43,-225,-156,289,-1
10025,94,42,-226,-156,281,-2
10030,97,41,-224,-160,271,-6
10035,92,43,-224,-160,261,-11
10040,88,41,-220,-150,247,-16
10045,90,38,-224,-142,233,-18
10050,94,41,-218,-132,219,-21
10055,95,43,-219,-124,209,-24
10060,97,39,-218,-119,198,-26
10065,95,41,-218,-115,186,-30
10070,89,44,-216,-108,171,-33
10075,94,46,-216,-101,151,-35
10080,95,52,-216,-92,134,-34
10085,93,49,-212,-76,119,-37
10090,93,45,-217,-60,104,-36
10095,101,51,-217,-42,89,-35
10100,94,56,-220,-29,74,-33
10105,92,44,-213,-9,63,-33
10110,89,46,-215,3,42,-35
10115,95,40,-220,20,31,-30
10120,101,42,-217,31,26,-27
10125,96,52,-218,36,17,-29
10130,94,49,-220,44,-1,-32
10135,97,48,-219,52,-19,-34
10140,93,43,-223,58,-31,-35
10145,94,41,-221,62,-39,-35
10150,95,45,-224,63,-48,-35
10155,92,45,-219,64,-58,-36
10160,91,45,-224,68,-66,-36
10165,94,45,-221,73,-70,-35
10170,91,46,-224,78,-73,-35
10175,96,44,-224,85,-80,-34
10180,93,49,-222,93,-86,-31
10185,94,47,-224,104,-87,-30
10190,93,45,-230,111,-89,-29
10195,93,46,-226,116,-93,-27
10200,95,42,-231,121,-95,-26
10205,93,44,-231,125,-95,-24
10210,92,43,-229,129,-94,-22
10215,90,47,-230,134,-93,-24
10220,89,48,-233,136,-94,-23
10225,92,43,-235,136,-91,-23
10230,92,48,-237,133,-89,-24
10235,93,44,-239,128,-85,-22
10240,95,45,-239,121,-83,-24
10245,91,47,-241,114,-84,-25
10250,95,44,-238,109,-81,-25
10255,93,42,-236,107,-76,-23
10260,93,44,-237,103,-68,-23
10265,91,38,-238,101,-62,-24
10270,92,46,-239,96,-59,-23
10275,88,41,-236,93,-53,-22
10280,89,47,-237,89,-47,-21
10285,88,43,-234,86,-39,-19
10290,91,47,-236,87,-32,-19
10295,90,43,-237,90,-25,-19
10300,90,41,-235,91,-18,-18
10305,88,44,-238,93,-9,-16
10310,86,42,-239,89,-2,-14
10315,88,42,-237,87,3,-16
10320,86,37,-238,79,4,-16
10325,88,45,-235,71,4,-19
10330,93,44,-235,63,-1,-19
10335,89,44,-238,59,-3,-19
10340,87,46,-237,57,-4,-21
10345,90,45,-233,54,-5,-22
10350,88,43,-238,53,-6,-24
10355,89,44,-232,51,-7,-25
10360,87,43,-235,49,-4,-23
10365,94,45,-235,47,-2,-22
10370,89,42,-233,47,3,-22
10375,89,44,-239,48,7,-22
10380,88,42,-234,51,12,-21
10385,90,44,-237,49,18,-20
10390,86,43,-232,48,19,-20
10395,89,43,-232,45,20,-20
10400,91,42,-229,43,23,-21
10405,88,43,-230,40,24,-21
10410,90,41,-230,36,27,-20
10415,88,41,-231,35,26,-18
10420,89,44,-231,33,26,-21
10425,91,40,-222,35,24,-22
10430,91,43,-233,36,25,-19
10435,90,41,-230,39,25,-18
10440,88,42,-232,39,23,-19
10445,89,46,-233,39,22,-18
10450,89,41,-232,38,22,-20
10455,91,41,-230,36,23,-20
10460,92,38,-231,33,25,-19
10465,90,43,-226,33,25,-19
10470,89,46,-230,33,26,-18
10475,91,44,-228,35,26,-16
10480,93,44,-222,39,25,-16
10485,88,49,-231,41,21,-16
10490,92,44,-229,43,18,-14
10495,88,46,-230,48,14,-16
10500,88,46,-233,50,15,-16
10505,90,44,-237,51,16,-17
10510,88,47,-236,53,19,-17
10515,90,45,-236,52,19,-14
10520,97,47,-232,52,21,-16
10525,90,46,-230,52,22,-17
10530,90,43,-234,54,21,-16
10535,93,38,-232,54,19,-15
10540,91,43,-232,56,19,-16
10545,90,43,-235,57,18,-15
10550,91,45,-231,58,19,-16
10555,92,43,-229,60,19,-14
10560,89,44,-231,61,19,-13
10565,89,46,-229,62,22,-13
10570,90,45,-233,62,23,-13
10575,92,42,-233,64,22,-15
10580,95,42,-232,65,19,-12
10585,89,48,-232,65,16,-13
10590,89,48,-232,63,13,-13
10595,93,44,-232,63,7,-14
10600,91,47,-231,63,4,-14
10605,92,42,-234,62,1,-14
10610,89,46,-233,63,-3,-13
10615,92,44,-234,62,-7,-14
10620,91,44,-231,62,-8,-15
10625,91,45,-227,63,-9,-15
10630,90,43,-229,65,-10,-16
10635,92,44,-230,66,-12,-15
10640,90,44,-234,66,-11,-16
10645,89,46,-234,66,-11,-15
10650,91,44,-229,67,-10,-16
10655,91,44,-230,67,-10,-15
10660,94,43,-235,69,-11,-16
10665,90,45,-232,72,-10,-15
10670,90,44,-233,74,-11,-14
10675,88,45,-234,76,-10,-15
10680,91,45,-235,76,-9,-14
10685,90,43,-235,78,-10,-14
10690,89,40,-233,77,-9,-15
10695,92,44,-237,75,-7,-16
10700,86,40,-234,74,-5,-12
10705,91,43,-236,73,-5,-14
10710,89,39,-234,70,-4,-16
10715,87,47,-230,66,-6,-16
10720,89,42,-232,64,-6,-18
10725,89,44,-230,62,-7,-16
10730,89,43,-233,60,-8,-16
10735,88,42,-231,61,-10,-16
10740,87,43,-232,59,-10,-18
10745,87,41,-233,59,-8,-17
10750,91,39,-232,61,-7,-18
10755,85,46,-235,63,-4,-16
10760,90,45,-232,65,-1,-16
10765,88,44,-233,66,2,-16
10770,89,44,-232,67,5,-17
10775,93,42,-234,68,8,-16
10780,90,44,-236,68,10,-15
10785,91,44,-235,66,10,-13
10790,90,44,-234,61,7,-14
10795,89,44,-231,56,5,-15
10800,91,46,-235,52,4,-15
10805,91,43,-233,49,1,-16
10810,81,47,-230,49,0,-15
10815,92,45,-230,48,-2,-16
10820,90,45,-234,47,-4,-17
10825,90,43,-229,45,-3,-16
10830,88,44,-233,44,-2,-15
10835,88,45,-238,45,2,-12
10840,90,48,-239,46,4,-14
10845,87,43,-232,45,9,-13
10850,90,41,-233,46,13,-14
10855,91,46,-230,48,17,-13
10860,90,41,-232,48,20,-12
10865,89,45,-230,49,21,-12
10870,91,45,-230,47,21,-11
10875,90,43,-235,47,21,-13
10880,89,46,-229,46,20,-13
10885,89,43,-233,46,19,-12
10890,88,46,-233,44,19,-13
10895,91,44,-232,45,19,-12
10900,90,45,-233,43,17,-13
10905,88,43,-231,43,16,-12
10910,86,41,-230,43,14,-14
10915,81,42,-233,43,14,-14
10920,90,42,-231,43,12,-12
10925,89,45,-233,44,10,-13
10930,90,45,-231,43,10,-12
10935,91,40,-229,43,10,-12
10940,90,42,-232,45,11,-14
10945,89,42,-233,44,12,-14
10950,86,46,-227,44,13,-14
10955,87,45,-228,44,12,-12
10960,86,42,-229,43,13,-14
10965,90,44,-225,43,13,-14
10970,87,46,-229,43,11,-15
10975,90,46,-230,43,10,-14
10980,87,45,-231,45,10,-13
10985,89,46,-230,46,8,-13
10990,90,46,-229,47,7,-12
10995,91,46,-232,48,7,-13
11000,88,44,-230,48,3,-13
11005,90,47,-228,49,2,-11
11010,92,43,-231,50,1,-14
11015,90,42,-234,50,1,-13
11020,90,42,-232,50,1,-14
11025,93,38,-235,49,-1,-14
11030,88,46,-235,48,-2,-15
11035,90,44,-233,48,1,-16
11040,89,43,-229,48,0,-16
11045,90,43,-230,48,-1,-15
11050,90,43,-232,48,-3,-13
11055,89,44,-229,47,-4,-13
11060,85,42,-231,48,-5,-15
11065,90,43,-233,51,-6,-15
11070,90,48,-230,54,-7,-13
11075,89,45,-239,56,-8,-14
11080,89,46,-228,55,-7,-14
11085,91,40,-234,53,-6,-14
11090,90,44,-233,50,-8,-13
11095,89,42,-230,47,-10,-13
11100,87,45,-232,45,-11,-13
11105,90,44,-236,44,-14,-14
11110,87,45,-232,44,-15,-13
11115,87,44,-229,45,-15,-16
11120,89,42,-230,45,-17,-17
11125,89,46,-232,47,-17,-17
11130,87,40,-230,48,-18,-15
11135,85,46,-228,48,-18,-17
11140,87,42,-228,48,-17,-17
11145,88,44,-231,48,-16,-18
11150,86,43,-231,48,-15,-17
11155,90,43,-232,49,-13,-17
11160,87,41,-230,48,-10,-15
11165,86,49,-230,49,-7,-15
11170,89,44,-233,50,-5,-14
11175,88,44,-229,50,-6,-15
11180,92,44,-235,53,-5,-16
11185,89,47,-235,53,-6,-14
11190,87,53,-238,52,-8,-15
11195,89,48,-235,53,-8,-14
11200,91,45,-235,53,-11,-13
11205,91,41,-235,52,-12,-15
11210,86,47,-230,49,-12,-17
11215,86,45,-233,49,-12,-17
11220,88,46,-234,48,-13,-16
11225,95,40,-232,47,-11,-14
11230,88,43,-230,46,-9,-15
11235,88,44,-229,47,-7,-16
11240,85,44,-232,46,-6,-17
11245,90,41,-234,46,-3,-17
11250,88,45,-232,46,-2,-17
11255,88,44,-234,46,-1,-18
11260,86,46,-230,46,-1,-15
11265,86,45,-233,45,1,-17
11270,86,45,-232,44,1,-15
11275,89,45,-231,44,-1,-17
11280,84,46,-231,43,-2,-16
11285,87,44,-232,42,-4,-16
11290,88,44,-231,43,-4,-16
11295,87,44,-233,43,-4,-17
11300,84,43,-233,44,-2,-16
11305,85,45,-231,44,-2,-16
11310,87,45,-234,43,1,-14
11315,86,46,-236,42,0,-13
11320,86,49,-236,42,-1,-15
11325,87,45,-231,42,1,-16
11330,89,45,-235,43,2,-15
11335,88,44,-232,41,3,-15
11340,91,43,-233,43,5,-15
11345,87,47,-232,43,5,-14
11350,87,49,-241,40,6,-14
11355,85,45,-231,39,6,-15
11360,87,45,-232,38,4,-16
11365,90,44,-231,36,3,-16
11370,86,45,-235,37,3,-15
11375,89,45,-232,38,3,-15
11380,84,46,-232,39,4,-17
11385,84,44,-229,39,4,-15
11390,87,43,-230,39,5,-16
11395,88,47,-236,41,8,-15
11400,84,46,-234,42,9,-15
11405,89,51,-229,42,11,-14
11410,86,47,-234,42,12,-13
11415,88,43,-236,41,12,-13
11420,89,44,-233,40,14,-13
11425,87,46,-232,41,16,-13
11430,87,44,-238,41,17,-15
11435,87,46,-229,40,17,-14
11440,87,46,-230,42,17,-14
11445,88,43,-232,41,17,-13
11450,88,45,-234,41,19,-14
11455,86,45,-231,42,20,-13
11460,88,43,-224,41,19,-12
11465,88,45,-231,40,19,-12
11470,84,46,-236,41,19,-13
11475,87,45,-233,41,19,-11
11480,90,41,-231,40,20,-12
11485,87,43,-229,42,21,-13
11490,86,48,-230,41,21,-14
11495,88,45,-233,42,21,-12
11500,92,47,-231,44,21,-13
11505,88,49,-233,44,20,-12
11510,88,46,-235,45,19,-12
11515,87,39,-233,47,19,-12
11520,86,44,-231,46,18,-11
11525,86,44,-235,47,19,-13
11530,89,45,-235,47,17,-13
11535,85,46,-233,47,17,-12
11540,86,43,-231,47,16,-12
11545,89,46,-233,47,16,-12
11550,89,42,-232,48,15,-13
11555,89,43,-230,47,16,-12
11560,88,44,-231,48,16,-14
11565,89,46,-232,47,15,-13
11570,89,41,-231,45,14,-13
11575,89,44,-231,49,14,-13
11580,87,44,-232,49,14,-12
11585,90,43,-231,50,14,-12
11590,86,45,-234,48,12,-13
11595,88,46,-235,47,11,-12
11600,91,42,-232,47,11,-12
11605,86,46,-231,46,11,-15
11610,87,48,-231,44,10,-14
11615,89,44,-232,42,9,-13
11620,91,44,-232,42,9,-13
11625,89,43,-231,42,9,-13
11630,87,46,-231,42,10,-13
11635,86,43,-229,42,9,-13
11640,88,46,-234,44,7,-12
11645,88,41,-234,45,5,-13
11650,89,45,-233,48,4,-12
11655,90,44,-233,48,3,-15
11660,87,47,-236,47,5,-13
11665,85,47,-238,43,6,-12
11670,87,46,-236,43,7,-15
11675,88,45,-233,40,10,-13
11680,92,38,-234,39,11,-14
11685,91,42,-229,39,10,-13
11690,88,46,-237,39,9,-13
11695,89,46,-231,40,9,-13
11700,86,47,-232,41,8,-13
11705,87,46,-234,42,8,-12
11710,91,44,-233,44,8,-12
11715,87,43,-230,44,6,-14
11720,88,46,-234,44,7,-15
11725,87,46,-234,44,6,-13
11730,89,45,-234,43,7,-14
11735,89,46,-225,42,6,-14
11740,88,48,-237,42,6,-14
11745,86,45,-234,41,7,-14
11750,85,46,-237,42,7,-12
11755,90,45,-235,43,8,-13
11760,86,44,-233,43,6,-12
11765,89,46,-234,44,7,-13
11770,87,46,-233,44,7,-14
11775,86,48,-227,46,7,-13
11780,86,44,-238,46,6,-14
11785,89,45,-227,47,4,-13
11790,84,46,-232,47,5,-13
11795,86,47,-235,46,5,-16
11800,85,44,-234,46,5,-15
11805,90,46,-231,45,5,-14
11810,87,46,-232,46,4,-13
11815,88,46,-232,45,5,-13
11820,89,45,-233,44,4,-12
11825,87,45,-229,45,4,-13
11830,85,44,-226,45,4,-13
11835,87,45,-232,46,5,-13
11840,87,46,-234,47,6,-14
11845,88,43,-226,46,6,-13
11850,86,43,-233,48,6,-13
11855,87,45,-232,49,6,-13
11860,87,46,-232,50,7,-13
11865,87,44,-233,51,8,-10
11870,89,43,-231,53,8,-10
11875,88,47,-235,55,9,-10
11880,92,44,-230,54,9,-11
11885,87,47,-233,54,10,-10
11890,88,45,-230,55,9,-11
11895,90,43,-233,53,9,-12
11900,89,46,-233,53,8,-11
11905,85,47,-233,53,7,-11
11910,88,46,-231,53,7,-11
11915,87,47,-232,53,5,-11
11920,84,49,-229,52,8,-12
11925,87,47,-234,53,9,-12
11930,92,45,-235,54,11,-12
11935,85,48,-229,52,12,-11
11940,84,48,-233,53,13,-11
11945,86,45,-230,55,13,-11
11950,87,43,-233,58,13,-9
11955,88,47,-233,59,12,-9
11960,88,43,-233,61,13,-9
11965,87,46,-238,62,12,-9
11970,87,41,-235,62,13,-9
11975,88,46,-234,62,12,-9
11980,89,47,-235,61,11,-9
11985,86,44,-235,60,11,-10
11990,86,43,-232,59,12,-10
11995,86,45,-227,56,13,-10
12000,87,44,-234,55,13,-9
12005,89,47,-234,56,14,-9
12010,84,46,-232,55,13,-11
12015,86,45,-233,56,14,-11
12020,89,46,-233,54,15,-10
12025,88,46,-232,55,15,-10
12030,90,44,-232,55,14,-9
12035,88,46,-234,56,15,-10
12040,88,44,-232,56,15,-9
12045,89,47,-236,56,15,-8
12050,90,46,-229,54,16,-9
12055,88,45,-232,56,15,-10
12060,86,44,-237,56,15,-9
12065,85,45,-235,56,14,-9
12070,86,47,-232,56,14,-9
12075,88,43,-234,56,14,-9
12080,88,48,-231,56,14,-11
12085,84,46,-230,55,14,-10
12090,87,47,-235,55,13,-8
12095,89,43,-228,54,12,-11
12100,85,46,-228,53,12,-10
12105,88,45,-233,53,11,-11
12110,90,49,-230,54,11,-12
12115,87,43,-231,55,10,-11
12120,89,47,-234,54,9,-13
12125,86,48,-235,55,8,-11
12130,87,43,-233,57,9,-11
12135,86,46,-234,57,10,-12
12140,87,49,-232,57,9,-13
12145,89,47,-234,57,10,-12
12150,88,48,-232,57,10,-12
12155,87,44,-233,57,10,-11
12160,87,45,-230,56,10,-10
12165,88,44,-232,57,10,-11
12170,92,47,-220,57,10,-10
12175,87,40,-230,57,10,-12
12180,88,44,-233,57,9,-11
12185,87,46,-231,55,9,-11
12190,87,44,-233,54,8,-12
12195,88,44,-230,54,7,-10
12200,85,47,-233,54,8,-11
12205,89,48,-229,54,9,-11
12210,84,46,-233,56,10,-11
12215,89,43,-230,56,11,-10
12220,86,47,-231,58,11,-10
12225,86,48,-240,60,11,-8
12230,84,43,-234,63,11,-10
12235,87,46,-231,64,11,-10
12240,87,46,-236,64,12,-9
12245,89,47,-237,64,12,-11
12250,86,46,-233,62,13,-11
12255,86,44,-234,59,14,-12
12260,87,47,-235,55,16,-13
12265,89,44,-233,53,15,-11
12270,87,44,-235,51,14,-12
12275,90,44,-233,51,13,-11
12280,86,50,-238,52,12,-11
12285,89,46,-234,51,12,-10
12290,90,44,-230,52,12,-10
12295,84,45,-232,54,9,-11
12300,91,43,-231,57,11,-10
12305,87,48,-237,57,11,-11
12310,89,44,-233,58,11,-10
12315,88,44,-231,58,12,-11
12320,87,47,-233,58,13,-11
12325,89,44,-234,59,14,-10
12330,89,49,-234,58,15,-10
12335,83,47,-229,59,16,-9
12340,88,45,-234,59,19,-10
12345,90,45,-230,59,18,-10
12350,88,46,-234,60,17,-9
12355,91,43,-233,60,16,-10
12360,88,42,-233,61,16,-9
12365,89,43,-233,61,17,-8
12370,86,45,-232,60,14,-10
12375,87,44,-231,60,14,-10
12380,87,47,-230,59,13,-10
12385,86,45,-226,60,13,-10
12390,88,47,-233,59,14,-11
12395,86,43,-234,58,14,-10
12400,87,47,-229,58,14,-10
12405,87,42,-234,59,16,-11
12410,86,47,-231,58,17,-11
12415,86,44,-237,59,18,-12
12420,85,43,-230,58,19,-10
12425,89,39,-237,59,20,-8
12430,88,47,-236,57,22,-8
12435,86,43,-233,57,24,-11
12440,86,46,-236,56,25,-10
12445,88,45,-233,56,27,-11
12450,90,44,-232,55,29,-10
12455,87,45,-233,55,30,-9
12460,88,48,-233,54,29,-9
12465,86,47,-231,54,30,-9
12470,87,46,-232,55,31,-9
12475,86,42,-234,55,30,-9
12480,88,46,-233,52,29,-10
12485,86,46,-235,51,29,-9
12490,89,42,-232,51,27,-10
12495,94,38,-225,52,28,-9
12500,89,46,-229,53,28,-9
12505,86,46,-231,54,26,-9
12510,88,46,-229,56,26,-9
12515,89,44,-231,57,26,-9
12520,87,44,-231,56,25,-9
12525,89,43,-233,55,25,-9
12530,85,45,-230,53,25,-9
12535,88,42,-229,53,24,-10
12540,89,46,-237,54,23,-9
12545,87,44,-229,53,22,-9
12550,86,41,-236,53,21,-11
12555,86,47,-231,53,21,-10
12560,85,45,-233,52,19,-8
12565,90,43,-234,53,18,-9
12570,86,45,-232,55,17,-8
12575,84,48,-232,54,18,-8
12580,89,44,-232,54,19,-9
12585,90,45,-234,54,19,-10
12590,87,43,-233,55,18,-10
12595,93,40,-233,55,18,-10
12600,90,42,-229,55,19,-9
12605,85,39,-231,56,18,-11
12610,88,44,-232,54,18,-11
12615,89,44,-231,54,18,-10
12620,87,44,-231,55,18,-10
12625,90,44,-236,55,18,-9
12630,89,43,-231,55,18,-10
12635,89,46,-234,54,16,-10
12640,88,43,-230,55,16,-9
12645,88,45,-233,54,16,-11
12650,87,44,-231,52,15,-11
12655,88,46,-231,53,15,-11
12660,85,44,-231,53,15,-11
12665,89,44,-234,52,13,-11
12670,88,45,-232,53,13,-10
12675,89,44,-229,54,12,-12
12680,87,47,-231,54,12,-11
12685,88,46,-230,55,12,-10
12690,88,44,-235,54,13,-10
12695,89,45,-232,55,13,-12
12700,89,42,-232,54,13,-11
12705,89,43,-230,55,14,-11
12710,90,42,-232,56,17,-9
12715,90,41,-234,55,15,-10
12720,88,45,-233,55,13,-10
12725,85,44,-229,55,13,-10
12730,86,44,-230,53,12,-11
12735,86,45,-232,52,12,-10
12740,90,45,-231,52,12,-11
12745,86,45,-231,53,11,-10
12750,89,45,-235,53,11,-11
12755,88,41,-233,52,10,-10
12760,88,45,-234,53,12,-10
12765,89,44,-234,54,11,-11
12770,87,37,-231,54,11,-11
12775,91,43,-231,54,11,-12
12780,88,45,-231,53,11,-13
12785,84,45,-231,51,12,-12
12790,88,44,-233,50,12,-13
12795,89,43,-232,49,11,-12
12800,89,47,-231,49,12,-11
12805,92,44,-230,50,12,-9
12810,89,44,-235,51,11,-12
12815,90,43,-230,52,11,-12
12820,87,43,-231,55,7,-10
12825,85,41,-236,58,8,-12
12830,88,44,-229,58,8,-11
12835,88,43,-237,58,10,-10
12840,88,45,-233,56,11,-7
12845,89,46,-236,54,12,-10
12850,90,43,-234,52,13,-10
12855,88,43,-232,50,15,-11
12860,87,43,-231,50,14,-11
12865,89,47,-232,49,13,-12
12870,91,45,-227,49,12,-9
12875,86,44,-231,50,12,-10
12880,90,44,-230,53,12,-10
12885,86,46,-233,55,12,-10
12890,90,44,-229,56,12,-9
12895,90,42,-233,56,12,-10
12900,85,44,-228,59,13,-10
12905,89,45,-230,57,13,-9
12910,87,45,-231,57,16,-9
12915,91,44,-227,55,16,-10
12920,86,47,-232,55,16,-9
12925,88,46,-233,53,16,-10
12930,97,45,-238,53,15,-11
12935,88,44,-231,52,14,-10
12940,89,45,-232,53,14,-12
12945,88,45,-232,51,13,-11
12950,88,41,-237,52,11,-12
12955,89,44,-231,52,10,-11
12960,91,43,-234,52,10,-11
12965,91,44,-236,53,9,-12
12970,86,44,-231,53,10,-11
12975,88,43,-233,54,10,-12
12980,87,48,-228,54,9,-11
12985,94,44,-234,55,9,-9
12990,92,48,-233,55,10,-11
12995,89,44,-233,55,13,-11
13000,89,44,-234,55,13,-11
13005,86,44,-232,54,13,-10
13010,87,45,-233,54,14,-11
13015,86,44,-232,53,14,-11
13020,85,41,-232,52,14,-11
13025,87,43,-229,51,13,-12
13030,89,44,-230,52,12,-10
13035,88,44,-231,53,12,-10
13040,88,41,-234,53,11,-10
13045,89,43,-235,53,10,-11
13050,88,44,-233,53,10,-12
13055,89,46,-229,53,11,-12
13060,86,45,-233,50,12,-12
13065,87,45,-229,50,12,-11
13070,89,41,-227,50,11,-12
13075,86,44,-233,50,10,-11
13080,87,45,-234,49,12,-11
13085,88,45,-231,50,12,-9
13090,89,43,-229,50,11,-11
13095,91,44,-237,51,12,-10
13100,88,45,-231,50,12,-10
13105,88,46,-232,49,12,-11
13110,92,42,-231,48,13,-11
13115,88,45,-232,48,13,-11
13120,89,47,-232,48,12,-12
13125,89,45,-234,48,11,-11
13130,91,44,-236,48,11,-11
13135,87,46,-227,47,11,-11
13140,89,46,-236,48,10,-10
13145,86,47,-237,49,11,-11
13150,85,38,-231,47,10,-13
13155,90,44,-230,47,11,-10
13160,92,45,-234,47,12,-11
13165,88,45,-231,48,13,-11
13170,86,45,-232,48,13,-10
13175,86,45,-232,49,15,-11
13180,89,42,-231,49,14,-11
13185,88,43,-230,49,15,-12
13190,91,44,-234,48,16,-11
13195,91,42,-230,49,16,-11
13200,87,42,-235,49,15,-12
13205,99,39,-240,48,14,-11
13210,91,44,-231,49,13,-12
13215,90,44,-232,49,12,-10
13220,90,46,-231,49,12,-9
13225,91,44,-229,49,12,-10
13230,89,44,-235,50,11,-11
13235,90,44,-231,50,10,-11
13240,87,51,-233,50,12,-12
13245,87,43,-230,51,13,-11
13250,86,43,-234,50,13,-11
13255,86,45,-232,49,14,-12
13260,90,39,-230,49,14,-10
13265,89,45,-230,49,13,-11
13270,91,44,-230,50,12,-11
13275,87,46,-231,50,12,-11
13280,88,45,-231,51,11,-12
13285,88,44,-230,52,12,-11
13290,88,44,-233,53,11,-12
13295,88,43,-233,52,12,-11
13300,91,45,-231,54,12,-12
13305,90,45,-231,51,12,-11
13310,91,43,-232,51,13,-12
13315,87,43,-238,51,13,-12
13320,88,42,-229,51,13,-12
13325,90,44,-232,51,12,-10
13330,88,46,-230,50,12,-11
13335,90,44,-235,50,11,-12
13340,90,44,-233,49,12,-13
13345,83,47,-231,49,11,-12
13350,88,47,-228,49,11,-12
13355,88,46,-235,50,10,-11
13360,89,43,-231,50,10,-11
13365,94,44,-231,53,9,-11
13370,95,41,-233,53,10,-11
13375,86,42,-228,52,10,-11
13380,89,45,-235,52,11,-12
13385,87,48,-232,52,11,-12
13390,89,45,-231,49,11,-14
13395,90,43,-233,49,12,-11
13400,90,45,-228,48,12,-11
13405,89,46,-230,47,14,-11
13410,90,45,-234,48,13,-10
13415,91,43,-230,47,13,-11
13420,86,44,-234,49,12,-13
13425,87,43,-234,51,11,-11
13430,88,47,-233,54,9,-12
13435,91,44,-232,54,8,-11
13440,88,45,-233,54,9,-11
13445,87,43,-230,53,10,-10
13450,88,46,-233,51,10,-12
13455,86,43,-234,50,12,-10
13460,89,42,-233,49,12,-11
13465,91,43,-232,47,11,-10
13470,86,48,-228,47,11,-11
13475,83,38,-234,49,10,-9
13480,92,41,-231,50,10,-9
13485,87,47,-229,51,10,-12
13490,87,46,-232,52,9,-11
13495,92,42,-232,52,10,-13
13500,87,46,-232,53,11,-11
13505,91,45,-231,53,11,-9
13510,91,45,-231,54,11,-10
13515,86,46,-230,53,12,-10
13520,90,42,-233,52,11,-11
13525,93,41,-233,52,12,-12
13530,90,43,-236,51,13,-11
13535,87,46,-231,51,12,-10
13540,90,42,-235,52,11,-11
13545,88,44,-229,51,10,-10
13550,91,42,-230,50,10,-9
13555,89,43,-230,51,9,-11
13560,86,44,-231,52,9,-13
13565,90,43,-231,51,7,-13
13570,88,44,-225,52,8,-12
13575,87,41,-232,51,9,-12
13580,89,43,-231,52,8,-11
13585,86,43,-235,52,7,-10
13590,88,43,-235,52,8,-12
13595,90,46,-232,53,9,-11
13600,87,48,-232,54,8,-11
13605,89,44,-232,51,7,-12
13610,86,43,-233,54,8,-13
13615,87,47,-233,54,8,-8
13620,87,44,-228,53,8,-10
13625,88,44,-234,54,8,-11
13630,88,45,-231,55,8,-10
13635,85,45,-234,55,9,-10
13640,84,49,-231,56,10,-11
13645,90,41,-233,58,12,-10
13650,88,44,-236,58,12,-9
13655,88,46,-232,59,13,-9
13660,89,42,-234,59,14,-8
13665,88,43,-233,57,14,-9
13670,89,44,-227,55,14,-10
13675,88,44,-230,55,16,-11
13680,88,46,-232,56,16,-9
13685,86,47,-234,57,15,-7
13690,87,45,-231,57,17,-8
13695,91,43,-224,58,17,-8
13700,91,43,-232,57,17,-8
13705,88,45,-233,55,16,-9
13710,90,45,-233,54,16,-9
13715,89,43,-232,53,15,-9
13720,88,47,-230,53,15,-10
13725,90,43,-233,53,15,-10
13730,87,48,-232,53,14,-10
13735,93,43,-233,53,16,-11
13740,88,46,-231,52,15,-10
13745,89,46,-230,53,15,-11
13750,83,42,-233,53,15,-10
13755,89,44,-233,52,14,-10
13760,89,44,-229,52,15,-10
13765,90,45,-236,52,15,-10
13770,87,46,-233,50,16,-9
13775,90,41,-229,52,15,-11
13780,85,45,-231,50,15,-10
13785,91,44,-235,50,14,-11
13790,87,44,-236,50,14,-11
13795,92,40,-236,50,14,-11
13800,89,43,-234,51,13,-13
13805,85,44,-232,51,13,-12
13810,87,45,-231,49,11,-12
13815,89,44,-233,50,12,-12
13820,89,44,-231,51,11,-13
13825,89,47,-232,51,11,-12
13830,89,42,-229,53,11,-10
13835,89,47,-232,54,11,-10
13840,90,41,-230,54,11,-10
13845,90,43,-235,53,10,-10
13850,91,43,-233,56,10,-10
13855,87,45,-235,55,9,-11
13860,88,44,-232,55,11,-12
13865,89,44,-230,56,11,-10
13870,88,43,-234,54,12,-13
13875,87,47,-233,55,13,-11
13880,93,44,-234,54,12,-10
13885,89,47,-232,55,12,-10
13890,92,41,-230,56,12,-9
13895,88,44,-234,56,12,-9
13900,91,44,-226,58,10,-9
13905,84,46,-227,56,12,-11
13910,86,52,-231,57,12,-11
13915,89,46,-230,56,12,-11
13920,88,44,-232,57,12,-10
13925,86,45,-230,57,12,-11
13930,87,44,-233,55,12,-10
13935,90,45,-226,55,12,-9
13940,88,46,-234,54,12,-9
13945,87,45,-233,54,12,-10
13950,89,43,-232,54,11,-11
13955,88,40,-231,55,12,-11
13960,88,42,-228,55,11,-11
13965,87,51,-228,55,10,-11
13970,90,43,-231,55,8,-10
13975,88,41,-234,54,7,-9
13980,87,49,-234,54,9,-12
13985,89,49,-233,53,9,-12
13990,88,41,-232,53,9,-10
13995,87,46,-233,51,9,-10
14000,89,46,-231,51,9,-12
14005,89,47,-233,50,9,-11
14010,89,44,-232,50,10,-11
14015,91,46,-233,51,13,-9
14020,95,45,-229,51,12,-10
14025,90,45,-232,50,13,-11
14030,88,43,-231,52,12,-11
14035,90,43,-234,52,11,-10
14040,90,43,-235,54,10,-11
14045,91,46,-234,56,8,-11
14050,91,44,-232,55,9,-10
14055,90,44,-232,57,9,-10
14060,89,42,-227,53,10,-10
14065,87,44,-232,52,11,-11
14070,90,42,-230,50,12,-13
14075,86,49,-234,49,14,-12
14080,88,43,-230,50,12,-10
14085,87,43,-232,51,13,-11
14090,90,44,-229,52,13,-9
14095,88,44,-233,54,13,-10
14100,90,48,-232,56,12,-9
14105,89,45,-232,57,11,-11
14110,89,44,-228,56,12,-11
14115,86,44,-232,56,12,-11
14120,91,46,-237,54,12,-10
14125,89,44,-229,54,12,-11
14130,87,43,-231,54,12,-11
14135,89,46,-233,53,12,-10
14140,88,46,-232,53,12,-9
14145,88,42,-234,53,12,-10
14150,89,44,-231,53,13,-9
14155,88,43,-232,53,13,-9
14160,92,42,-232,53,12,-11
14165,89,42,-230,54,11,-11
14170,86,45,-231,55,9,-10
14175,88,47,-233,56,9,-11
14180,89,44,-232,55,7,-11
14185,91,45,-231,56,7,-11
14190,89,46,-233,56,7,-10
14195,89,44,-231,56,6,-12
14200,88,42,-234,56,7,-10
14205,86,43,-231,55,7,-9
14210,88,44,-235,56,6,-9
14215,89,46,-234,56,8,-9
14220,88,46,-230,56,10,-10
14225,89,46,-230,55,11,-9
14230,87,44,-230,55,11,-9
14235,88,42,-230,55,11,-11
14240,88,41,-233,55,12,-11
14245,87,42,-230,55,11,-11
14250,91,44,-233,55,13,-10
14255,89,44,-232,55,12,-9
14260,89,42,-234,55,12,-11
14265,88,44,-237,55,12,-11
14270,90,41,-232,55,14,-9
14275,82,47,-233,53,13,-9
14280,91,44,-234,52,13,-9
14285,88,43,-233,51,13,-9
14290,90,45,-229,52,13,-11
14295,92,42,-231,53,12,-7
14300,90,43,-232,54,13,-9
14305,89,42,-234,55,12,-11
14310,88,43,-230,55,12,-11
14315,90,45,-231,54,11,-10
14320,91,42,-232,53,10,-9
14325,88,44,-231,53,11,-9
14330,93,42,-228,52,12,-11
14335,87,43,-233,53,12,-11
14340,91,40,-232,51,14,-11
14345,88,46,-234,52,13,-12
14350,85,44,-232,53,13,-12
14355,89,44,-234,53,14,-10
14360,88,45,-232,53,15,-11
14365,89,44,-236,54,15,-9
14370,89,44,-232,52,15,-11
14375,89,45,-233,52,13,-10
14380,91,44,-234,52,16,-11
14385,91,41,-232,52,15,-8
14390,90,42,-231,52,15,-10
14395,91,40,-232,52,14,-11
14400,87,42,-233,53,16,-9
14405,89,44,-232,52,15,-10
14410,90,43,-232,52,16,-11
14415,88,45,-232,52,14,-11
14420,90,44,-228,53,12,-11
14425,88,44,-234,53,14,-11
14430,87,43,-230,53,14,-11
14435,89,45,-232,52,14,-12
14440,92,45,-230,52,13,-12
14445,88,44,-230,52,13,-11
14450,91,40,-235,52,11,-11
14455,89,42,-232,53,11,-10
14460,91,41,-232,54,10,-11
14465,88,43,-231,53,11,-10
14470,89,44,-232,54,12,-10
14475,90,45,-234,54,13,-11
14480,90,42,-231,54,13,-12
14485,90,44,-232,54,13,-10
14490,88,43,-232,55,12,-10
14495,90,43,-230,55,13,-9
14500,89,43,-232,54,13,-10
14505,84,43,-233,55,14,-11
14510,89,43,-235,56,13,-10
14515,88,45,-233,57,12,-10
14520,90,45,-232,56,12,-11
14525,85,46,-231,57,13,-12
14530,87,42,-232,55,12,-10
14535,90,43,-231,55,12,-11
14540,87,44,-230,55,11,-12
14545,89,46,-228,54,14,-10
14550,87,44,-235,53,13,-10
14555,88,41,-232,53,13,-11
14560,86,45,-231,52,13,-11
14565,91,45,-239,54,12,-11
14570,88,45,-230,53,13,-10
14575,89,43,-228,52,13,-10
14580,90,45,-228,52,14,-11
14585,90,42,-233,50,12,-11
14590,91,44,-232,52,11,-13
14595,89,41,-233,52,11,-13
14600,85,48,-230,54,11,-11
14605,89,44,-234,54,11,-10
14610,87,43,-235,53,11,-11
14615,90,44,-229,53,10,-11
14620,89,39,-235,52,10,-11
14625,90,42,-232,51,11,-11
14630,89,46,-232,50,12,-12
14635,90,40,-229,50,13,-10
14640,88,47,-233,52,13,-11
14645,90,42,-230,51,14,-10
14650,86,44,-232,51,13,-10
14655,91,44,-232,50,14,-10
14660,92,45,-234,51,13,-10
14665,88,45,-232,53,11,-10
14670,87,47,-235,54,10,-12
14675,88,42,-236,54,10,-11
14680,89,43,-233,54,10,-12
14685,90,41,-233,52,11,-12
14690,86,43,-230,51,13,-10
14695,91,44,-232,48,12,-10
14700,87,46,-232,47,12,-10
14705,89,43,-230,47,13,-10
14710,92,42,-231,48,12,-11
14715,86,44,-231,49,13,-11
14720,88,43,-228,50,11,-9
14725,92,42,-228,53,10,-9
14730,91,44,-228,54,10,-10
14735,88,46,-234,55,11,-8
14740,87,46,-235,54,11,-10
14745,93,42,-233,54,11,-9
14750,90,44,-235,54,11,-9
14755,90,45,-232,53,13,-9
14760,88,48,-231,53,13,-10
14765,92,43,-235,53,14,-11
14770,90,43,-231,52,13,-10
14775,90,44,-236,53,13,-10
14780,91,44,-233,53,14,-10
14785,87,42,-239,54,13,-10
14790,89,42,-235,54,12,-11
14795,88,45,-231,54,11,-12
14800,88,43,-230,53,10,-11
14805,87,45,-232,52,11,-12
14810,89,45,-231,53,10,-12
14815,87,46,-234,53,10,-11
14820,86,40,-230,54,9,-10
14825,87,46,-237,53,10,-11
14830,91,41,-231,52,8,-11
14835,86,47,-234,53,9,-11
14840,79,44,-232,54,10,-12
14845,87,41,-234,54,10,-11
14850,88,43,-232,54,9,-12
14855,90,42,-235,55,10,-12
14860,88,46,-232,55,11,-12
14865,90,41,-233,56,9,-10
14870,87,44,-232,57,9,-10
14875,89,41,-233,56,9,-9
14880,90,44,-233,56,12,-11
14885,88,45,-232,57,11,-10
14890,89,45,-232,55,12,-10
14895,84,37,-236,54,13,-11
14900,89,42,-229,53,15,-11
14905,88,45,-232,53,15,-11
14910,89,42,-231,52,13,-12
14915,90,41,-234,52,15,-9
14920,89,41,-233,52,13,-11
14925,88,42,-231,51,14,-12
14930,88,45,-228,52,13,-10
14935,88,43,-232,51,13,-11
14940,91,40,-230,51,12,-11
14945,88,40,-236,51,12,-10
14950,89,46,-231,49,13,-10
14955,91,43,-230,50,13,-11
14960,91,40,-233,50,12,-10
14965,90,44,-231,50,15,-11
14970,87,45,-236,50,15,-10
14975,89,41,-234,51,15,-11
14980,89,45,-233,50,15,-11
14985,85,48,-230,50,15,-10
14990,90,41,-231,50,16,-11
14995,87,43,-233,50,17,-9
