timestamp,acc_x,acc_y,acc_z,gyro_x,gyro_y,gyro_z
0,-11,-257,4,11,-39,8
5,-12,-257,7,9,-38,9
10,-10,-256,6,8,-37,10
15,-11,-256,6,8,-37,9
20,-10,-258,2,9,-34,8
25,-10,-258,6,11,-31,10
30,-11,-255,7,15,-30,8
35,-11,-259,5,19,-28,6
40,-9,-256,6,24,-25,6
45,-11,-257,7,27,-24,6
50,-7,-257,10,31,-21,4
55,-13,-257,6,30,-20,3
60,-11,-259,6,31,-20,3
65,-8,-259,6,25,-22,0
70,-7,-259,6,18,-27,-2
75,-10,-258,3,10,-34,-5
80,-9,-255,6,2,-41,-8
85,-8,-253,7,-4,-45,-10
90,-7,-253,2,-8,-50,-11
95,-7,-253,7,-10,-49,-11
100,-11,-250,7,-13,-48,-11
105,-12,-248,3,-22,-45,-11
110,-15,-247,3,-36,-45,-11
115,-12,-248,5,-53,-48,-9
120,-13,-252,7,-67,-54,-8
125,-13,-252,3,-83,-58,-2
130,-7,-261,1,-95,-60,1
135,-14,-251,-1,-105,-58,7
140,-15,-252,-3,-111,-50,13
145,-18,-256,1,-113,-36,20
150,-23,-255,0,-108,-20,26
155,-18,-258,0,-100,-5,33
160,-21,-256,-1,-94,6,39
165,-21,-253,-1,-91,13,44
170,-23,-253,0,-91,13,51
175,-22,-250,-2,-100,9,54
180,-22,-250,1,-111,1,59
185,-21,-251,-3,-119,-2,65
190,-22,-254,3,-122,-5,70
195,-23,-251,1,-124,-5,71
200,-27,-256,5,-124,-4,74
205,-27,-259,6,-122,-3,74
210,-28,-257,6,-120,-3,73
215,-26,-263,8,-117,-8,68
220,-28,-263,8,-119,-14,61
225,-26,-262,5,-124,-23,54
230,-23,-262,12,-132,-31,44
235,-24,-258,10,-143,-40,32
240,-22,-254,6,-156,-48,20
245,-21,-255,8,-172,-49,11
250,-18,-248,3,-190,-45,1
255,-16,-246,6,-208,-37,-5
260,-17,-243,5,-225,-23,-11
265,-16,-238,3,-241,-9,-15
270,-17,-240,11,-251,3,-14
275,-11,-240,9,-257,14,-15
280,-12,-240,10,-260,23,-16
285,-10,-244,12,-258,32,-18
290,-7,-248,12,-251,45,-24
295,-8,-249,16,-244,62,-34
300,0,-252,17,-237,83,-43
305,0,-254,17,-229,106,-53
310,0,-257,19,-226,130,-66
315,0,-259,22,-226,153,-76
320,0,-260,15,-227,177,-84
325,0,-259,17,-231,199,-90
330,-1,-260,20,-231,221,-93
335,-8,-258,13,-231,242,-93
340,-9,-255,8,-229,260,-92
345,-14,-254,9,-229,273,-86
350,-17,-250,8,-229,282,-79
355,-24,-247,2,-234,286,-74
360,-27,-246,1,-241,283,-69
365,-34,-246,1,-252,277,-62
370,-36,-245,-1,-267,268,-56
375,-44,-242,-1,-285,254,-51
380,-42,-243,-2,-305,244,-48
385,-43,-242,-4,-321,226,-46
390,-44,-244,-6,-337,208,-43
395,-42,-246,-4,-350,189,-43
400,-44,-245,-6,-361,168,-42
405,-39,-247,-6,-369,151,-42
410,-37,-256,-7,-376,133,-43
415,-36,-257,-3,-374,119,-45
420,-33,-261,-1,-371,106,-44
425,-30,-264,4,-360,93,-47
430,-27,-263,3,-351,82,-49
435,-22,-266,3,-339,75,-51
440,-26,-266,-1,-325,66,-54
445,-23,-266,5,-311,63,-55
450,-19,-265,3,-294,60,-59
455,-18,-261,1,-275,61,-62
460,-20,-259,3,-260,62,-65
465,-19,-255,-4,-248,66,-69
470,-21,-251,-5,-238,67,-73
475,-17,-248,-7,-232,67,-77
480,-18,-249,-4,-233,64,-77
485,-21,-244,-8,-237,62,-77
490,-25,-241,-4,-241,58,-77
495,-22,-245,-6,-247,54,-74
500,-25,-243,-3,-251,50,-70
505,-25,-246,-2,-257,45,-67
510,-28,-243,-4,-260,40,-64
515,-25,-243,-4,-264,34,-61
520,-28,-245,0,-269,26,-60
525,-28,-249,-5,-279,18,-55
530,-26,-249,-5,-289,9,-52
535,-27,-249,-3,-299,-3,-48
540,-27,-247,-4,-309,-15,-43
545,-25,-250,2,-320,-29,-38
550,-25,-249,1,-328,-46,-34
555,-26,-250,-1,-335,-64,-28
560,-32,-246,1,-340,-82,-20
565,-28,-247,-1,-347,-102,-11
570,-31,-246,-3,-355,-119,-2
575,-26,-244,-7,-368,-134,8
580,-27,-236,-6,-385,-147,16
585,-25,-234,-13,-404,-159,25
590,-21,-231,-13,-425,-169,32
595,-16,-226,-18,-448,-177,38
600,-15,-220,-18,-475,-182,40
605,-12,-215,-22,-503,-186,42
610,-5,-209,-26,-530,-187,43
615,-3,-208,-29,-559,-184,42
620,0,-205,-33,-590,-179,41
625,6,-206,-34,-619,-171,39
630,7,-213,-28,-643,-162,37
635,14,-217,-29,-658,-150,35
640,14,-222,-24,-664,-136,30
645,19,-230,-20,-663,-122,25
650,24,-240,-20,-662,-104,18
655,26,-246,-17,-660,-87,9
660,32,-254,-15,-664,-67,-1
665,36,-257,-15,-670,-50,-14
670,39,-261,-13,-681,-36,-25
675,44,-267,-8,-692,-27,-36
680,46,-269,-9,-698,-19,-42
685,40,-270,-9,-701,-11,-46
690,39,-273,-3,-699,0,-43
695,39,-273,-3,-694,11,-36
700,35,-272,-1,-687,26,-28
705,36,-275,2,-680,40,-13
710,27,-274,2,-672,49,4
715,25,-278,1,-660,53,20
720,21,-281,7,-647,52,37
725,16,-282,7,-640,50,48
730,14,-276,7,-634,46,62
735,12,-276,9,-634,35,73
740,7,-273,4,-638,19,78
745,3,-272,5,-645,0,82
750,1,-269,5,-653,-15,84
755,1,-266,2,-664,-32,83
760,0,-264,-3,-680,-40,82
765,1,-263,-5,-697,-39,80
770,0,-259,-9,-711,-29,76
775,4,-259,-10,-725,-18,72
780,8,-257,-17,-737,-6,65
785,6,-256,-21,-753,4,57
790,3,-255,-22,-769,8,51
795,6,-252,-20,-782,11,42
800,9,-257,-20,-788,12,33
805,7,-252,-26,-789,15,25
810,4,-254,-26,-782,18,18
815,7,-255,-22,-771,22,11
820,4,-256,-22,-758,25,8
825,2,-256,-22,-748,24,7
830,0,-253,-22,-739,23,8
835,0,-256,-21,-734,24,10
840,1,-253,-26,-727,28,8
845,1,-251,-22,-717,37,7
850,3,-252,-27,-700,48,3
855,7,-252,-22,-680,61,-6
860,11,-251,-24,-660,75,-15
865,12,-254,-29,-642,90,-24
870,15,-253,-30,-624,105,-31
875,21,-257,-27,-607,120,-35
880,19,-255,-29,-594,138,-34
885,19,-255,-26,-579,157,-28
890,17,-259,-31,-565,176,-19
895,20,-261,-27,-545,195,-10
900,16,-262,-29,-519,214,-4
905,15,-264,-25,-487,238,3
910,7,-265,-24,-447,268,7
915,4,-263,-25,-405,306,6
920,5,-260,-33,-363,355,-2
925,6,-255,-32,-323,415,-14
930,4,-252,-35,-288,471,-35
935,10,-247,-34,-258,516,-59
940,13,-244,-30,-234,548,-83
945,21,-241,-27,-217,563,-107
950,23,-237,-26,-208,571,-134
955,33,-235,-20,-210,570,-156
960,35,-239,-20,-223,564,-153
965,35,-241,-21,-248,558,-143
970,38,-248,-18,-281,553,-133
975,37,-252,-20,-310,549,-115
980,34,-260,-16,-333,549,-93
985,36,-267,-15,-350,547,-68
990,40,-273,-8,-360,546,-43
995,36,-280,-5,-371,545,-20
1000,36,-282,-3,-379,547,3
1005,36,-285,-2,-385,551,24
1010,34,-287,0,-385,563,39
1015,35,-289,3,-380,580,55
1020,35,-287,2,-365,603,75
1025,29,-287,4,-342,626,94
1030,28,-285,4,-316,654,114
1035,29,-282,3,-288,677,132
1040,27,-278,5,-258,701,151
1045,24,-281,2,-225,719,165
1050,27,-284,6,-181,727,183
1055,23,-286,14,-128,718,198
1060,18,-289,21,-63,691,212
1065,16,-293,30,16,648,230
1070,10,-295,31,108,593,248
1075,1,-297,33,201,525,261
1080,-7,-296,24,293,446,274
1085,-16,-289,12,373,359,290
1090,-25,-278,-10,428,275,311
1095,-34,-263,-35,450,208,334
1100,-39,-248,-65,433,173,357
1105,-40,-236,-92,379,166,382
1110,-30,-207,-118,292,177,398
1115,-19,-191,-132,193,199,404
1120,-3,-184,-134,113,220,398
1125,9,-185,-139,65,239,377
1130,27,-190,-141,42,246,348
1135,38,-191,-143,20,249,317
1140,53,-201,-147,-22,250,293
1145,68,-213,-150,-86,254,268
1150,73,-224,-157,-156,266,249
1155,74,-237,-164,-216,281,233
1160,71,-256,-174,-272,298,224
1165,63,-272,-177,-323,319,221
1170,52,-293,-177,-370,340,220
1175,32,-311,-167,-409,351,207
1180,9,-334,-159,-429,353,182
1185,-8,-359,-147,-422,348,153
1190,-31,-383,-137,-405,355,128
1195,-59,-407,-127,-380,357,118
1200,-85,-428,-121,-342,343,116
1205,-112,-451,-120,-303,314,135
1210,-131,-472,-121,-269,260,187
1215,-149,-484,-113,-238,170,255
1220,-167,-496,-111,-217,52,327
1225,-178,-506,-110,-200,-95,379
1230,-182,-515,-102,-187,-245,426
1235,-181,-524,-94,-170,-390,454
1240,-170,-533,-84,-149,-521,458
1245,-154,-544,-75,-116,-636,442
1250,-123,-556,-69,-62,-744,382
1255,-94,-564,-69,1,-838,305
1260,-64,-562,-70,64,-894,233
1265,-38,-556,-68,115,-943,164
1270,-18,-543,-64,153,-975,108
1275,1,-527,-59,190,-993,67
1280,13,-508,-50,229,-1005,46
1285,24,-484,-47,273,-1003,36
1290,35,-458,-41,328,-989,42
1295,51,-433,-41,392,-962,62
1300,59,-405,-36,461,-921,94
1305,67,-378,-33,530,-868,131
1310,65,-353,-31,593,-806,166
1315,68,-320,-30,659,-739,187
1320,65,-284,-26,724,-663,213
1325,57,-259,-28,786,-592,205
1330,51,-223,-27,858,-526,168
1335,44,-188,-25,913,-451,143
1340,38,-148,-19,939,-369,159
1345,36,-106,-19,921,-300,170
1350,26,-90,-2,871,-248,167
1355,5,-60,4,859,-234,55
1360,3,-33,9,867,-227,-30
1365,0,-20,17,853,-226,-36
1370,-1,5,21,817,-235,-36
1375,-9,6,23,759,-245,-63
1380,-26,31,27,707,-270,-103
1385,-24,34,22,629,-294,-91
1390,-31,31,20,534,-311,-66
1395,-43,34,17,444,-345,-73
1400,-44,34,9,363,-396,-71
1405,-37,28,-4,282,-440,-45
1410,-36,16,-12,204,-472,-52
1415,-26,8,-17,134,-498,-84
1420,-13,0,-20,72,-512,-114
1425,1,-19,-17,18,-515,-138
1430,12,-31,-14,-16,-503,-163
1435,23,-44,-12,-30,-482,-191
1440,32,-55,-6,-30,-452,-217
1445,40,-63,1,-21,-415,-245
1450,43,-73,13,-8,-369,-277
1455,42,-79,18,12,-319,-310
1460,40,-81,24,45,-268,-336
1465,32,-78,23,99,-217,-353
1470,20,-76,31,175,-172,-359
1475,12,-70,34,258,-127,-352
1480,6,-63,37,343,-79,-337
1485,1,-56,27,418,-16,-315
1490,-1,-46,26,482,69,-284
1495,3,-39,21,538,174,-250
1500,10,-30,13,590,295,-218
1505,27,-27,8,635,421,-192
1510,37,-19,-4,667,546,-176
1515,49,-13,-19,669,652,-175
1520,57,-7,-43,609,728,-180
1525,55,2,-93,453,758,-189
1530,43,-5,-152,161,733,-205
1535,18,-8,-221,-301,649,-215
1540,-17,-33,-297,-931,512,-213
1545,-79,-76,-374,-1669,314,-194
1550,-141,-142,-425,-2328,87,-134
1555,-202,-223,-455,-2708,-97,9
1560,-262,-328,-420,-2711,-157,261
1565,-318,-454,-342,-2418,-76,589
1570,-349,-605,-234,-1973,77,888
1575,-329,-744,-155,-1443,218,1134
1580,-290,-834,-124,-898,262,1295
1585,-198,-855,-133,-443,167,1344
1590,-81,-813,-151,-208,27,1234
1595,11,-742,-156,-202,-97,938
1600,53,-675,-150,-297,-202,524
1605,53,-616,-134,-347,-254,99
1610,39,-570,-97,-278,-209,-257
1615,41,-534,-72,-93,-75,-526
1620,40,-498,-56,146,128,-712
1625,41,-475,-36,377,352,-802
1630,48,-459,-30,536,543,-782
1635,60,-456,-28,584,683,-709
1640,65,-468,-32,536,795,-639
1645,67,-471,-35,467,899,-606
1650,68,-484,-49,428,1024,-614
1655,59,-488,-59,421,1182,-641
1660,50,-494,-67,412,1360,-671
1665,35,-494,-67,380,1535,-697
1670,26,-494,-58,331,1682,-726
1675,16,-499,-54,286,1785,-770
1680,6,-505,-47,244,1848,-825
1685,2,-518,-43,211,1879,-874
1690,-6,-528,-36,206,1873,-912
1695,-19,-532,-41,237,1823,-955
1700,-25,-525,-47,315,1713,-1048
1705,-14,-489,-57,410,1582,-1132
1710,-21,-452,-63,510,1487,-1111
1715,-12,-398,-64,570,1387,-1122
1720,-11,-354,-58,629,1291,-1073
1725,-23,-294,-55,697,1214,-1006
1730,-31,-239,-50,779,1143,-893
1735,-40,-181,-48,854,1084,-762
1740,-54,-126,-40,882,1014,-705
1745,-61,-72,-28,882,969,-656
1750,-69,-31,-12,872,969,-536
1755,-57,6,5,865,988,-406
1760,-47,28,26,870,1037,-285
1765,-41,53,31,891,1080,-189
1770,-28,74,33,905,1107,-123
1775,-11,95,25,903,1114,-65
1780,1,114,12,879,1107,-1
1785,13,116,1,805,1079,68
1790,18,110,-16,685,1027,130
1795,24,100,-36,518,959,178
1800,17,77,-45,293,905,220
1805,10,48,-39,54,871,265
1810,-2,9,-20,-150,861,312
1815,-14,-34,-4,-271,859,353
1820,-26,-83,13,-287,858,374
1825,-37,-131,30,-188,857,372
1830,-53,-162,43,52,832,351
1835,-55,-181,43,355,761,336
1840,-59,-170,44,630,689,323
1845,-57,-146,44,819,621,313
1850,-49,-114,38,910,562,318
1855,-37,-80,27,931,521,322
1860,-28,-53,18,911,488,306
1865,-17,-26,7,878,457,278
1870,-10,1,0,847,424,253
1875,-2,22,-8,823,388,239
1880,-1,42,-14,798,342,233
1885,1,54,-22,769,289,236
1890,0,66,-25,736,233,247
1895,1,64,-40,694,182,266
1900,4,52,-70,618,164,292
1905,13,35,-100,473,200,318
1910,24,12,-145,253,269,330
1915,48,-20,-189,-50,354,326
1920,77,-54,-247,-442,427,308
1925,102,-97,-299,-931,467,270
1930,131,-178,-342,-1442,434,191
1935,151,-266,-332,-1850,301,49
1940,171,-371,-291,-2016,77,-118
1945,159,-490,-222,-1874,-175,-287
1950,127,-627,-138,-1505,-362,-441
1955,65,-753,-70,-999,-495,-595
1960,-22,-844,-23,-443,-489,-640
1965,-104,-913,-52,45,-333,-534
1970,-189,-930,-113,317,-137,-335
1975,-243,-899,-170,310,23,-67
1980,-249,-832,-191,107,90,261
1985,-225,-737,-153,-91,22,474
1990,-205,-643,-113,-102,-168,507
1995,-181,-570,-85,64,-393,458
2000,-152,-521,-71,261,-598,383
2005,-129,-504,-55,392,-773,315
2010,-113,-505,-44,458,-929,250
2015,-110,-515,-25,482,-1066,218
2020,-111,-525,-15,481,-1216,219
2025,-109,-529,-17,442,-1381,249
2030,-99,-528,-13,371,-1570,286
2035,-85,-518,-13,296,-1769,314
2040,-73,-511,-16,239,-1954,330
2045,-61,-505,-12,207,-2091,342
2050,-49,-502,2,205,-2168,371
2055,-36,-493,9,222,-2183,439
2060,-27,-496,24,254,-2172,492
2065,-18,-484,27,329,-2157,487
2070,-11,-468,19,433,-2113,492
2075,0,-442,1,539,-2034,536
2080,6,-399,-12,622,-1933,604
2085,13,-372,-15,642,-1817,733
2090,9,-327,-16,674,-1734,800
2095,21,-268,-30,753,-1668,812
2100,33,-208,-37,829,-1586,851
2105,51,-148,-36,873,-1495,946
2110,71,-87,-40,879,-1406,1064
2115,77,-44,-26,837,-1329,1148
2120,91,9,-32,803,-1284,1110
2125,95,55,-27,802,-1233,1030
2130,101,81,-29,818,-1186,913
2135,102,109,-26,858,-1127,750
2140,102,132,-37,884,-1084,600
2145,88,142,-42,829,-1056,496
2150,75,140,-48,690,-1079,383
2155,59,140,-58,513,-1141,228
2160,34,132,-75,314,-1186,113
2165,18,109,-85,67,-1196,25
2170,3,86,-82,-205,-1175,-44
2175,-21,49,-76,-477,-1122,-86
2180,-33,13,-49,-684,-1057,-114
2185,-25,-20,-33,-792,-981,-114
2190,-21,-59,-15,-839,-860,-83
2195,-3,-94,5,-821,-714,-38
2200,7,-126,27,-775,-545,2
2205,11,-145,48,-686,-388,43
2210,19,-150,44,-515,-300,65
2215,38,-140,29,-356,-258,85
2220,46,-122,17,-203,-223,95
2225,49,-104,8,-114,-193,83
2230,57,-81,0,-60,-168,57
2235,62,-63,-3,-14,-142,24
2240,64,-48,-12,31,-95,-9
2245,69,-33,-7,80,-28,-44
2250,69,-24,-5,136,47,-77
2255,67,-20,5,202,121,-103
2260,69,-18,17,278,195,-135
2265,68,-24,23,356,268,-173
2270,67,-34,29,421,347,-211
2275,68,-49,28,469,439,-242
2280,65,-56,10,490,539,-269
2285,63,-65,-23,453,625,-286
2290,41,-68,-85,311,657,-292
2295,2,-78,-180,3,610,-282
2300,-51,-88,-275,-538,452,-248
2305,-119,-117,-365,-1290,188,-199
2310,-201,-168,-416,-2113,-157,-120
2315,-280,-231,-449,-2768,-441,57
2320,-346,-328,-415,-3095,-438,457
2325,-388,-486,-267,-2959,-109,1033
2330,-396,-720,-89,-2270,335,1617
2335,-348,-888,-23,-1296,682,2054
2340,-282,-994,-20,-432,845,2236
2345,-152,-1011,-69,124,795,2190
2350,9,-956,-119,319,595,1924
2355,122,-866,-165,167,387,1431
2360,184,-759,-194,-181,236,779
2365,194,-650,-181,-516,170,109
2370,192,-561,-155,-604,239,-449
2375,183,-498,-128,-396,451,-861
2380,126,-442,-84,-39,755,-1121
2385,75,-406,-42,275,1058,-1200
2390,24,-389,-3,459,1300,-1113
2395,-6,-394,22,539,1453,-891
2400,-20,-412,43,557,1527,-616
2405,-14,-443,44,574,1557,-425
2410,-16,-476,24,614,1601,-369
2415,-30,-489,6,643,1680,-429
2420,-43,-497,-7,604,1771,-530
2425,-54,-510,-25,498,1848,-635
2430,-36,-546,-20,373,1924,-789
2435,-57,-553,-19,343,2044,-947
2440,-77,-528,-24,335,2143,-1096
2445,-101,-485,-25,261,2217,-1190
2450,-99,-470,-33,139,2249,-1191
2455,-84,-464,-25,50,2236,-1214
2460,-76,-445,-15,71,2177,-1275
2465,-73,-403,-4,210,2052,-1332
2470,-48,-365,-5,365,1852,-1372
2475,-37,-311,7,543,1678,-1370
2480,-24,-260,13,719,1545,-1341
2485,-11,-204,14,939,1453,-1272
2490,-6,-144,9,1170,1378,-1164
2495,-1,-88,13,1312,1297,-1033
2500,-10,-33,2,1377,1206,-904
2505,1,23,-10,1380,1137,-754
2510,15,57,-8,1315,1105,-619
2515,17,82,-7,1238,1105,-518
2520,8,102,-4,1173,1127,-427
2525,-4,111,-1,1090,1141,-339
2530,-6,114,-7,989,1147,-264
2535,-9,111,-15,875,1152,-212
2540,-20,109,-28,743,1156,-169
2545,-27,97,-38,584,1150,-117
2550,-32,79,-56,409,1127,-35
2555,-34,62,-75,216,1090,56
2560,-36,36,-82,7,1045,148
2565,-42,9,-77,-197,997,226
2570,-41,-15,-64,-372,944,279
2575,-42,-49,-53,-487,888,314
2580,-40,-79,-29,-518,835,335
2585,-37,-109,-12,-447,790,344
2590,-31,-137,-3,-294,743,339
2595,-25,-159,0,-103,685,313
2600,-24,-167,2,122,627,276
2605,-26,-152,0,360,562,241
2610,-17,-130,-5,594,494,214
2615,-10,-97,-14,795,416,184
2620,0,-62,-18,942,338,153
2625,7,-26,-23,1037,268,120
2630,14,8,-28,1074,214,99
2635,18,37,-32,1048,172,84
2640,15,60,-22,966,138,75
2645,9,75,-24,847,104,76
2650,-4,74,-27,704,63,93
2655,-17,67,-33,535,13,126
2660,-33,50,-35,355,-46,168
2665,-42,25,-53,172,-102,212
2670,-48,-13,-81,-29,-128,252
2675,-46,-54,-125,-295,-87,290
2680,-26,-103,-179,-681,63,320
2685,-8,-157,-233,-1195,310,326
2690,8,-224,-312,-1701,452,276
2695,76,-277,-417,-2116,411,130
2700,145,-343,-449,-2565,312,-99
2705,172,-458,-368,-2797,61,-440
2710,173,-587,-283,-2473,-364,-876
2715,149,-761,-171,-1956,-704,-1240
2720,92,-897,-71,-1138,-843,-1452
2725,-1,-1011,-5,-311,-776,-1478
2730,-98,-1074,-15,316,-546,-1296
2735,-189,-1097,-63,577,-220,-945
2740,-245,-1057,-134,475,-11,-475
2745,-238,-926,-149,127,34,-39
2750,-189,-781,-126,-200,-164,260
2755,-152,-634,-99,-299,-446,394
2760,-114,-512,-72,-296,-683,420
2765,-78,-423,-36,-304,-860,421
2770,-56,-367,-10,-342,-984,386
2775,-41,-335,1,-375,-1049,318
2780,-39,-325,15,-388,-1076,265
2785,-45,-320,23,-395,-1122,257
2790,-39,-332,28,-416,-1230,307
2795,-29,-353,29,-435,-1382,362
2800,-4,-372,20,-429,-1547,406
2805,5,-393,12,-388,-1703,442
2810,14,-410,0,-306,-1844,477
2815,32,-425,-10,-202,-1954,547
2820,37,-468,-12,-85,-2029,621
2825,44,-481,-21,52,-2072,657
2830,46,-491,-21,161,-2037,747
2835,40,-496,-18,211,-1956,847
2840,33,-488,-8,243,-1831,910
2845,26,-465,-3,292,-1696,949
2850,34,-417,-4,379,-1556,948
2855,33,-374,5,435,-1359,1014
2860,26,-313,10,508,-1214,976
2865,46,-235,7,592,-1102,874
2870,62,-179,14,637,-956,888
2875,60,-127,38,681,-856,873
2880,63,-62,44,778,-830,742
2885,66,-11,50,919,-806,615
2890,62,32,49,1073,-760,560
2895,57,72,62,1204,-704,487
2900,43,115,61,1326,-668,376
2905,39,149,52,1428,-653,309
2910,20,167,40,1491,-623,335
2915,0,177,20,1525,-619,283
2920,-1,201,-15,1528,-629,180
2925,-10,199,-48,1350,-605,143
2930,-32,181,-69,1024,-591,115
2935,-35,143,-88,636,-611,19
2940,-34,109,-91,274,-625,-94
2945,-27,62,-90,-44,-583,-147
2950,-16,11,-80,-315,-478,-154
2955,0,-42,-49,-523,-338,-136
2960,10,-92,-13,-632,-203,-113
2965,37,-132,20,-634,-84,-99
2970,43,-174,56,-550,15,-99
2975,54,-193,65,-368,67,-106
2980,65,-198,70,-126,91,-131
2985,71,-186,65,148,110,-173
2990,77,-161,49,433,140,-218
2995,82,-125,29,708,186,-257
3000,81,-89,-3,945,253,-286
3005,75,-54,-24,1115,344,-308
3010,70,-20,-43,1201,448,-322
3015,56,10,-58,1202,555,-330
3020,52,43,-53,1123,656,-333
3025,56,55,-49,986,744,-335
3030,51,59,-25,825,836,-356
3035,64,32,-1,662,929,-398
3040,84,26,1,631,1126,-450
3045,40,232,-92,900,1601,-279
3050,27,529,-213,1280,2396,314
3055,127,18,-79,2061,3360,897
3060,17,11,-112,1712,3513,728
3065,29,56,-219,271,2995,456
3070,-17,-211,-235,-1054,2343,357
3075,-137,-186,-381,-3079,876,-118
3080,-222,-412,-509,-5292,-661,-179
3085,-407,-718,-553,-6940,-1663,-197
3090,-533,-957,-435,-7844,-2105,-308
3095,-573,-1201,-294,-7486,-1821,273
3100,-476,-1386,-211,-5509,-784,1546
3105,-261,-1448,-196,-3131,134,2678
3110,-43,-1340,-221,-1407,650,2946
3115,122,-1188,-213,-477,760,2429
3120,192,-1017,-183,19,520,1470
3125,193,-821,-150,376,202,482
3130,210,-664,-110,720,64,-193
3135,247,-548,-72,983,116,-640
3140,241,-446,-51,1104,334,-979
3145,193,-349,-41,1121,702,-1192
3150,139,-273,-22,1073,1154,-1215
3155,98,-229,-5,1007,1576,-1109
3160,66,-204,-3,946,1902,-945
3165,58,-201,-12,870,2080,-809
3170,52,-210,-21,734,2146,-732
3175,33,-234,-29,533,2173,-699
3180,6,-265,-34,290,2166,-734
3185,-35,-309,-33,43,2144,-807
3190,-71,-361,-23,-134,2093,-907
3195,-95,-415,-18,-220,2040,-982
3200,-105,-469,-9,-238,2020,-978
3205,-116,-505,-9,-213,2043,-961
3210,-127,-532,-12,-192,2112,-941
3215,-144,-536,-11,-158,2158,-945
3220,-151,-520,-5,-107,2138,-994
3225,-154,-484,-1,-43,2037,-1050
3230,-133,-431,-10,59,1883,-1053
3235,-101,-363,-18,134,1734,-1066
3240,-70,-307,-18,183,1564,-1015
3245,-52,-233,-19,221,1382,-945
3250,-33,-176,-15,262,1197,-871
3255,-26,-121,1,295,1001,-784
3260,-11,-74,17,372,818,-709
3265,-18,-32,26,503,658,-615
3270,-16,13,27,657,514,-514
3275,-6,43,20,774,401,-395
3280,8,62,19,865,333,-280
3285,14,72,17,934,300,-191
3290,18,74,10,985,298,-136
3295,24,72,-3,1003,325,-120
3300,29,63,-18,978,376,-122
3305,22,69,-36,893,450,-122
3310,21,58,-48,745,530,-101
3315,14,56,-53,542,614,-52
3320,8,40,-40,321,700,21
3325,1,25,-22,133,771,105
3330,-6,2,-10,4,815,193
3335,-13,-27,6,-47,825,264
3340,-18,-51,15,-23,796,314
3345,-26,-75,25,69,738,341
3350,-34,-92,17,221,640,347
3355,-39,-96,11,398,512,345
3360,-49,-92,4,552,379,336
3365,-60,-77,-3,662,251,321
3370,-62,-59,-8,733,129,308
3375,-63,-44,-11,773,29,317
3380,-62,-28,-10,794,-54,337
3385,-64,-14,-10,813,-125,359
3390,-65,-6,-7,833,-189,375
3395,-66,-3,-8,845,-251,388
3400,-65,-2,-15,839,-313,403
3405,-68,-9,-20,792,-378,415
3410,-72,-20,-31,701,-452,418
3415,-65,-42,-46,553,-538,416
3420,-61,-67,-72,326,-629,404
3425,-56,-95,-105,-20,-708,391
3430,-77,-155,-131,-454,-804,380
3435,-74,-234,-221,-797,-1008,345
3440,-55,-277,-324,-1157,-1184,257
3445,-16,-369,-405,-1632,-1283,192
3450,21,-454,-426,-2009,-1412,-6
3455,53,-594,-366,-2230,-1481,-303
3460,89,-731,-269,-2218,-1416,-627
3465,74,-904,-147,-1954,-1244,-956
3470,26,-1052,-42,-1422,-1047,-1196
3475,-36,-1142,-7,-676,-915,-1285
3480,-86,-1145,-56,31,-821,-1181
3485,-95,-1079,-92,485,-746,-897
3490,-57,-944,-120,595,-719,-565
3495,-25,-754,-149,421,-754,-283
3500,-3,-595,-156,34,-815,-58
3505,1,-467,-135,-389,-919,138
3510,1,-384,-78,-673,-1057,338
3515,-8,-344,-33,-746,-1205,512
3520,-20,-314,-2,-636,-1330,591
3525,-45,-288,31,-420,-1427,607
3530,-63,-260,41,-222,-1513,612
3535,-66,-242,54,-87,-1606,623
3540,-68,-232,72,23,-1711,631
3545,-61,-230,75,134,-1830,633
3550,-64,-235,73,226,-1969,638
3555,-65,-248,57,327,-2110,583
3560,-57,-274,41,444,-2228,486
3565,-52,-286,15,548,-2297,401
3570,-21,-304,-1,595,-2302,367
3575,-1,-309,-18,548,-2248,391
3580,19,-300,-17,417,-2159,448
3585,50,-290,-19,248,-2039,502
3590,83,-259,-20,93,-1887,569
3595,103,-225,-7,-22,-1698,659
3600,125,-193,-3,-90,-1512,748
3605,138,-156,-4,-84,-1363,743
3610,160,-116,-12,-17,-1228,700
3615,155,-79,-3,85,-1079,683
3620,159,-41,-16,195,-919,701
3625,158,-33,-4,304,-765,687
3630,133,5,-26,414,-606,607
3635,120,13,-12,523,-440,475
3640,94,27,-23,630,-267,357
3645,85,31,-11,691,-109,248
3650,59,42,-18,732,-23,64
3655,50,33,-16,731,18,-91
3660,19,31,-37,641,50,-209
3665,7,30,-34,476,46,-333
3670,-6,15,-26,264,34,-449
3675,-14,7,-18,98,6,-547
3680,-9,-3,-12,5,-12,-594
3685,4,6,-9,-40,25,-575
3690,-14,-14,0,-47,104,-512
3695,-17,-22,7,-25,204,-424
3700,-13,-7,2,14,313,-322
3705,-2,-19,-5,55,422,-221
3710,2,-17,-11,71,522,-133
3715,8,-15,-25,40,605,-58
3720,6,-15,-41,-48,680,-2
3725,5,-23,-68,-210,751,42
3730,2,-31,-109,-459,820,67
3735,-14,-44,-130,-798,894,82
3740,-16,-75,-167,-1233,965,90
3745,-23,-116,-184,-1729,1032,109
3750,-47,-143,-182,-2207,1084,168
3755,-35,-202,-171,-2611,1093,331
3760,13,-318,-170,-2849,1126,516
3765,70,-438,-142,-2802,1250,627
3770,89,-519,-125,-2486,1389,672
3775,105,-593,-129,-2039,1479,682
3780,106,-660,-151,-1571,1505,699
3785,95,-712,-174,-1121,1504,695
3790,62,-742,-197,-742,1479,652
3795,50,-745,-198,-543,1436,528
3800,-27,-719,-185,-438,1412,327
3805,-77,-675,-160,-450,1443,128
3810,-103,-622,-137,-477,1544,-35
3815,-135,-569,-122,-443,1678,-167
3820,-155,-531,-113,-360,1781,-256
3825,-165,-497,-101,-268,1890,-321
3830,-164,-469,-75,-190,1972,-387
3835,-146,-427,-36,-139,2014,-477
3840,-132,-398,-4,-112,2028,-521
3845,-125,-371,13,-92,2030,-506
3850,-95,-359,17,-50,1993,-505
3855,-65,-325,19,-11,1947,-545
3860,-44,-314,29,34,1928,-522
3865,-16,-280,31,91,1921,-532
3870,3,-277,44,179,1950,-514
3875,24,-269,45,322,1996,-478
3880,33,-274,49,467,2067,-496
3885,49,-270,48,593,2155,-517
3890,61,-273,16,663,2226,-564
3895,66,-279,8,645,2275,-584
3900,69,-276,7,572,2274,-596
3905,69,-271,7,479,2213,-659
3910,66,-247,-1,385,2116,-721
3915,58,-216,-8,298,2010,-721
3920,41,-181,-19,187,1917,-639
3925,21,-148,-16,53,1830,-525
3930,1,-103,-16,-65,1749,-415
3935,-26,-71,-4,-138,1684,-307
3940,-50,-46,-1,-158,1635,-180
3945,-67,-23,15,-129,1595,-46
3950,-82,-11,29,-55,1568,86
3955,-83,-2,39,57,1557,217
3960,-86,10,47,200,1548,331
3965,-73,22,35,359,1532,416
3970,-57,37,23,503,1516,475
3975,-27,54,0,602,1502,511
3980,-1,67,-12,647,1478,527
3985,18,69,-20,632,1441,509
3990,42,72,-24,578,1390,456
3995,61,65,-19,495,1314,362
4000,70,54,-12,399,1215,237
4005,68,36,-17,309,1104,104
4010,69,16,-1,231,994,1
4015,69,-2,2,166,896,-53
4020,57,-28,5,134,797,-80
4025,37,-47,-10,143,689,-90
4030,3,-66,-33,162,608,-48
4035,-23,-78,-70,183,548,32
4040,-47,-84,-102,179,545,148
4045,-63,-84,-147,145,624,280
4050,-59,-87,-199,40,774,404
4055,-47,-99,-233,-171,972,523
4060,-29,-106,-281,-469,1185,630
4065,-25,-128,-300,-808,1345,761
4070,5,-161,-312,-1131,1332,776
4075,66,-221,-275,-1486,1217,641
4080,104,-320,-212,-1757,1057,286
4085,63,-427,-138,-1813,910,-272
4090,-1,-520,-75,-1626,795,-773
4095,-59,-611,-21,-1267,740,-1038
4100,-103,-687,2,-847,787,-1133
4105,-172,-718,-14,-440,942,-1153
4110,-233,-666,-74,-91,1188,-1081
4115,-281,-569,-121,80,1460,-840
4120,-285,-451,-138,12,1629,-417
4125,-251,-347,-125,-296,1634,18
4130,-203,-263,-95,-697,1523,341
4135,-146,-196,-66,-1015,1362,573
4140,-90,-148,-42,-1168,1209,753
4145,-39,-116,-27,-1185,1094,898
4150,20,-109,-18,-1123,1027,999
4155,62,-109,-19,-1005,1008,1024
4160,89,-128,-37,-859,1030,952
4165,98,-158,-65,-719,1089,803
4170,98,-192,-85,-607,1177,661
4175,109,-236,-96,-521,1302,580
4180,115,-279,-99,-432,1475,556
4185,115,-315,-90,-343,1668,572
4190,111,-336,-85,-277,1847,620
4195,98,-356,-79,-266,2005,696
4200,74,-369,-66,-305,2167,809
4205,50,-376,-53,-347,2355,962
4210,41,-373,-37,-346,2587,1150
4215,30,-356,-27,-303,2838,1346
4220,26,-326,-20,-234,3083,1512
4225,15,-290,-14,-146,3307,1626
4230,5,-243,-7,-39,3491,1689
4235,3,-187,-1,76,3628,1718
4240,-1,-137,10,194,3726,1727
4245,-7,-70,14,320,3776,1713
4250,-18,-16,12,435,3778,1686
4255,-32,39,10,503,3749,1659
4260,-48,81,5,503,3706,1631
4265,-66,120,1,434,3674,1612
4270,-83,148,-8,298,3660,1585
4275,-85,165,-24,117,3669,1561
4280,-80,168,-62,-110,3685,1529
4285,-83,139,-82,-376,3704,1475
4290,-82,116,-98,-591,3624,1293
4295,-74,101,-130,-732,3472,1091
4300,-66,65,-146,-893,3314,975
4305,-62,32,-167,-1041,3139,835
4310,-64,-1,-201,-1159,3003,677
4315,-62,-35,-216,-1289,2934,550
4320,-56,-73,-235,-1447,2900,426
4325,-60,-115,-239,-1645,2867,296
4330,-70,-155,-238,-1861,2818,172
4335,-86,-202,-221,-2057,2754,74
4340,-99,-242,-200,-2205,2705,20
4345,-100,-279,-175,-2274,2689,19
4350,-81,-307,-152,-2259,2716,71
4355,-51,-325,-135,-2170,2786,158
4360,4,-339,-111,-2036,2907,245
4365,77,-349,-97,-1904,3078,286
4370,156,-341,-94,-1721,3283,244
4375,232,-330,-79,-1544,3499,122
4380,315,-315,-50,-1370,3705,-52
4385,370,-306,-22,-1167,3859,-266
4390,413,-291,-14,-934,4035,-523
4395,413,-264,-16,-697,4187,-837
4400,375,-230,-33,-494,4285,-1200
4405,315,-184,-53,-348,4319,-1574
4410,250,-136,-69,-261,4305,-1865
4415,173,-95,-73,-202,4251,-2211
4420,98,-74,-59,-162,4160,-2517
4425,25,-66,-48,-144,4030,-2787
4430,-39,-69,-21,-142,3870,-3026
4435,-90,-87,2,-132,3709,-3241
4440,-131,-111,32,-135,3599,-3403
4445,-136,-137,37,-134,3526,-3516
4450,-144,-164,47,-91,3460,-3620
4455,-140,-172,41,-9,3355,-3729
4460,-101,-183,39,41,3190,-3674
4465,-55,-172,40,48,2996,-3559
4470,-6,-163,52,35,2809,-3490
4475,26,-166,52,63,2633,-3477
4480,69,-176,37,141,2469,-3501
4485,115,-180,35,243,2349,-3560
4490,156,-175,21,361,2246,-3654
4495,206,-173,21,462,2146,-3767
4500,303,-175,0,514,2075,-3905
4505,391,-180,7,559,2090,-4122
4510,475,-170,-6,619,2162,-4407
4515,557,-142,-14,623,2224,-4700
4520,629,-112,-15,567,2177,-4975
4525,703,-116,-12,453,1970,-5208
4530,764,-147,-6,337,1665,-5435
4535,799,-203,-15,277,1354,-5686
4540,813,-287,-16,319,1123,-5873
4545,817,-342,-41,438,1020,-6016
4550,837,-375,-59,527,996,-6003
4555,893,-393,-72,558,1018,-5798
4560,943,-402,-56,575,1115,-5503
4565,980,-412,-63,663,1256,-5256
4570,1016,-397,-86,857,1395,-5144
4575,997,-357,-102,1056,1492,-5190
4580,969,-270,-105,1172,1507,-5220
4585,932,-177,-86,1216,1435,-5170
4590,882,-83,-61,1240,1308,-5050
4595,802,7,-18,1244,1215,-4871
4600,697,90,15,1203,1182,-4608
4605,547,190,28,1086,1174,-4300
4610,390,280,22,820,1095,-3866
4615,255,334,3,336,888,-3269
4620,156,323,-10,-295,629,-2591
4625,112,264,-4,-931,450,-1959
4630,147,182,10,-1377,415,-1435
4635,221,103,13,-1614,459,-1064
4640,284,21,-9,-1713,536,-840
4645,338,-60,-7,-1722,616,-711
4650,358,-124,-1,-1639,668,-667
4655,396,-208,40,-1486,655,-646
4660,411,-265,72,-1302,599,-648
4665,430,-318,100,-1122,524,-673
4670,407,-349,107,-889,484,-740
4675,369,-353,92,-570,491,-805
4680,320,-316,73,-214,566,-849
4685,278,-258,48,92,717,-884
4690,249,-186,12,307,913,-909
4695,227,-112,-39,443,1116,-911
4700,208,-40,-72,504,1300,-877
4705,188,17,-88,488,1458,-824
4710,180,56,-113,429,1585,-773
4715,168,86,-129,334,1668,-769
4720,163,116,-137,212,1711,-813
4725,155,149,-146,106,1717,-872
4730,154,182,-144,-5,1713,-909
4735,152,210,-123,-167,1731,-918
4740,150,237,-76,-400,1777,-913
4745,140,238,-35,-691,1872,-905
4750,135,210,-11,-978,1986,-891
4755,142,167,-18,-1193,2056,-852
4760,166,100,-28,-1260,2030,-767
4765,179,45,-30,-1163,1912,-670
4770,182,5,-7,-979,1717,-572
4775,182,-28,3,-776,1486,-478
4780,178,-46,14,-616,1273,-381
4785,185,-42,6,-511,1110,-281
4790,185,-20,-18,-478,1029,-180
4795,210,23,-28,-515,1055,-58
4800,199,51,-11,-532,1201,87
4805,212,82,18,-528,1346,195
4810,224,101,52,-556,1391,255
4815,258,128,65,-552,1311,209
4820,267,132,64,-484,1233,92
4825,253,122,42,-314,1176,-15
4830,239,80,34,-59,1141,-13
4835,225,36,21,291,1138,82
4840,218,18,15,656,1137,165
4845,212,24,19,914,1149,260
4850,216,64,11,1038,1143,320
4855,200,103,6,1037,1114,341
4860,203,129,20,959,1073,370
4865,207,125,41,875,1036,406
4870,188,108,68,829,1005,454
4875,167,92,99,780,951,518
4880,145,84,117,724,890,582
4885,143,82,133,672,847,630
4890,158,101,146,599,845,625
4895,160,123,153,504,886,532
4900,163,130,142,414,947,387
4905,159,133,137,332,1028,221
4910,149,127,130,281,1103,77
4915,154,114,114,237,1172,2
4920,172,103,121,161,1239,-1
4925,194,103,111,52,1279,36
4930,210,80,122,-75,1274,110
4935,247,77,114,-139,1183,147
4940,271,77,128,-148,1107,189
4945,295,65,135,-145,1070,314
4950,286,59,148,-142,1043,469
4955,272,53,145,-141,1007,651
4960,236,49,155,-123,953,787
4965,193,58,161,-51,854,806
4970,150,73,162,81,776,771
4975,122,97,159,239,760,720
4980,119,115,168,356,811,689
4985,132,131,173,432,894,678
4990,164,140,171,487,953,678
4995,204,150,170,544,959,703
5000,255,146,159,620,901,756
5005,290,136,134,710,781,808
5010,324,126,106,792,622,879
5015,355,111,88,824,484,943
5020,352,101,86,792,397,975
5025,358,76,99,693,351,967
5030,332,71,98,617,367,908
5035,291,66,106,566,422,849
5040,246,62,111,557,505,790
5045,204,70,129,589,597,728
5050,176,82,142,659,717,667
5055,160,96,165,759,829,626
5060,162,101,171,861,876,635
5065,182,107,186,934,822,675
5070,223,114,184,981,703,734
5075,250,113,198,1026,574,769
5080,277,111,195,1077,425,747
5085,305,117,172,1136,268,719
5090,317,118,158,1116,143,752
5095,318,120,156,978,51,801
5100,306,116,144,742,-12,811
5105,286,108,144,454,-38,781
5110,259,95,141,215,-18,719
5115,243,80,133,90,40,638
5120,211,67,145,99,108,545
5125,197,54,137,207,143,455
5130,190,56,132,372,166,366
5135,168,63,122,544,174,272
5140,144,70,117,677,169,209
5145,123,69,118,745,171,207
5150,123,60,124,741,182,250
5155,130,51,148,696,210,315
5160,154,36,166,656,236,381
5165,213,15,198,645,257,418
5170,185,19,189,691,286,409
5175,189,-2,181,685,190,466
5180,217,-11,181,663,44,530
5185,223,-21,167,667,-87,547
5190,217,-27,150,684,-213,549
5195,240,-33,148,693,-311,559
5200,216,-26,148,723,-324,534
5205,190,-25,132,718,-342,547
5210,188,-23,128,666,-366,590
5215,205,-20,131,634,-339,608
5220,186,-10,128,640,-266,594
5225,183,-3,141,656,-204,597
5230,196,-2,148,655,-149,617
5235,210,-5,162,649,-95,616
5240,213,-4,159,648,-68,593
5245,205,-11,144,650,-91,567
5250,215,-15,134,631,-172,570
5255,224,-19,122,621,-240,558
5260,217,-20,109,613,-308,545
5265,221,-18,101,577,-389,549
5270,228,-24,91,517,-448,556
5275,230,-24,91,436,-483,561
5280,244,-27,95,359,-487,557
5285,244,-24,99,312,-454,534
5290,234,-23,107,295,-396,511
5295,228,-18,107,297,-325,502
5300,224,-17,109,311,-241,499
5305,227,-14,108,323,-149,496
5310,219,-10,109,325,-54,495
5315,226,-10,108,312,22,490
5320,229,-12,100,291,84,483
5325,239,-27,95,275,134,478
5330,245,-31,86,265,157,477
5335,249,-39,81,242,150,473
5340,252,-46,74,199,131,454
5345,260,-57,67,157,110,432
5350,264,-56,60,127,102,400
5355,255,-61,60,114,125,363
5360,253,-64,59,122,157,332
5365,246,-67,56,141,180,301
5370,243,-68,52,173,204,276
5375,243,-65,45,216,237,242
5380,248,-61,38,242,275,185
5385,234,-56,47,248,333,135
5390,240,-56,46,254,373,116
5395,226,-55,52,235,408,90
5400,210,-51,66,195,419,63
5405,209,-56,76,154,397,53
5410,207,-55,87,126,367,33
5415,216,-62,88,112,328,17
5420,226,-66,93,110,301,-11
5425,236,-73,93,119,291,-52
5430,245,-77,89,138,290,-92
5435,251,-86,85,162,285,-122
5440,251,-89,82,181,269,-151
5445,246,-95,83,196,237,-171
5450,244,-98,77,198,181,-187
5455,239,-99,79,186,134,-204
5460,234,-98,79,168,80,-215
5465,233,-98,80,152,32,-230
5470,225,-94,84,140,7,-243
5475,223,-86,94,140,-8,-246
5480,228,-76,97,150,-17,-252
5485,228,-73,97,166,-6,-263
5490,236,-70,103,173,33,-267
5495,245,-69,109,162,82,-258
5500,251,-64,102,127,121,-247
5505,256,-70,90,77,146,-230
5510,258,-74,92,21,170,-216
5515,256,-86,88,-25,191,-203
5520,255,-94,87,-46,210,-185
5525,241,-97,84,-53,222,-166
5530,236,-102,82,-31,224,-145
5535,231,-102,79,15,233,-133
5540,221,-95,86,72,252,-129
5545,205,-87,93,130,279,-129
5550,201,-85,98,189,292,-129
5555,189,-69,108,230,306,-137
5560,191,-62,110,256,318,-134
5565,185,-51,115,264,341,-134
5570,189,-38,121,260,367,-129
5575,190,-22,128,246,388,-126
5580,191,-13,129,220,397,-122
5585,193,-1,128,192,395,-107
5590,204,1,126,161,385,-92
5595,211,3,122,128,377,-81
5600,214,7,119,98,366,-72
5605,222,-2,116,75,355,-59
5610,224,-3,115,58,341,-43
5615,229,-14,112,47,324,-36
5620,235,-18,112,43,309,-32
5625,236,-27,117,37,297,-39
5630,237,-31,117,30,291,-52
5635,239,-35,120,21,294,-72
5640,235,-36,127,11,294,-95
5645,240,-38,130,4,291,-116
5650,237,-35,133,4,284,-140
5655,240,-33,131,13,273,-162
5660,240,-26,133,32,259,-186
5665,233,-18,128,58,240,-207
5670,230,-9,124,85,217,-226
5675,226,2,123,106,196,-242
5680,224,3,123,121,177,-252
5685,226,11,123,134,163,-262
5690,224,14,126,140,160,-269
5695,222,10,127,148,169,-266
5700,221,8,125,155,175,-257
5705,219,8,124,159,180,-242
5710,217,9,125,163,189,-228
5715,218,8,125,171,197,-220
5720,212,6,125,178,204,-214
5725,217,6,127,184,210,-210
5730,215,6,128,187,212,-205
5735,215,5,130,189,211,-196
5740,214,7,127,190,207,-187
5745,214,7,128,184,201,-178
5750,213,1,128,173,189,-163
5755,211,5,129,160,177,-148
5760,208,3,132,146,166,-129
5765,208,0,131,134,152,-110
5770,207,3,135,125,142,-94
5775,204,3,133,116,133,-75
5780,206,2,134,109,131,-58
5785,208,4,130,102,133,-42
5790,206,0,128,94,136,-28
5795,210,0,130,86,139,-15
5800,207,2,130,82,141,-2
5805,208,0,129,77,140,10
5810,205,3,134,72,139,24
5815,208,1,132,69,132,35
5820,209,0,132,68,123,48
5825,207,-1,130,67,115,58
5830,207,-1,132,62,107,64
5835,206,-2,132,55,101,66
5840,204,-3,130,45,96,67
5845,205,-5,130,33,93,64
5850,205,-3,133,21,89,58
5855,206,-8,136,8,83,48
5860,208,-6,131,-2,78,39
5865,209,-5,135,-10,74,29
5870,206,-4,136,-17,69,20
5875,216,-9,136,-17,66,13
5880,215,-9,135,-9,64,0
5885,215,-11,133,5,62,-15
5890,220,-15,137,19,61,-25
5895,220,-17,130,35,57,-29
5900,225,-20,131,48,49,-29
5905,226,-23,127,63,32,-26
5910,228,-24,127,80,11,-22
5915,229,-26,127,98,-11,-20
5920,226,-24,122,114,-32,-14
5925,227,-23,122,124,-53,-8
5930,227,-26,119,131,-73,-7
5935,225,-21,120,134,-89,-5
5940,225,-22,120,138,-99,-10
5945,227,-19,119,139,-100,-15
5950,228,-22,114,141,-90,-21
5955,224,-17,113,145,-76,-27
5960,227,-21,113,155,-61,-31
5965,228,-22,110,171,-43,-32
5970,229,-18,110,191,-26,-31
5975,232,-19,111,210,-10,-28
5980,234,-15,114,223,4,-24
5985,232,-13,113,229,16,-22
5990,232,-11,112,225,26,-21
5995,231,-11,110,217,31,-20
6000,230,-8,113,206,33,-19
6005,228,-8,113,193,36,-22
6010,228,-7,109,182,40,-26
6015,226,-13,113,175,46,-30
6020,225,-12,111,173,55,-33
6025,224,-16,112,177,64,-35
6030,225,-16,116,185,73,-36
6035,227,-19,116,196,78,-32
6040,223,-18,117,207,81,-29
6045,222,-21,122,214,85,-27
6050,224,-16,118,217,91,-27
6055,223,-13,118,214,93,-29
6060,218,-12,120,208,92,-28
6065,222,-9,121,200,90,-29
6070,218,-8,125,192,91,-34
6075,222,-7,120,179,91,-33
6080,222,-4,125,167,90,-26
6085,218,0,123,158,88,-25
6090,220,-1,120,150,87,-33
6095,217,2,122,142,85,-36
6100,219,3,124,130,87,-35
6105,218,4,124,118,90,-32
6110,218,5,123,106,91,-30
6115,222,3,120,100,92,-26
6120,222,1,118,96,94,-24
6125,223,2,118,92,99,-26
6130,223,0,116,89,101,-27
6135,225,-1,118,87,104,-29
6140,229,-1,120,83,106,-29
6145,229,2,118,80,108,-26
6150,228,2,120,76,108,-34
6155,232,7,117,72,107,-43
6160,227,4,115,68,105,-52
6165,229,4,117,63,105,-60
6170,229,4,117,55,108,-66
6175,228,6,116,47,109,-74
6180,227,7,112,38,109,-76
6185,228,8,113,29,112,-79
6190,227,9,114,19,117,-82
6195,224,7,120,9,120,-82
6200,227,3,119,-1,122,-76
6205,226,6,122,-5,123,-67
6210,223,4,118,-1,125,-59
6215,225,1,116,6,126,-52
6220,226,0,117,14,131,-44
6225,229,-2,118,21,137,-39
6230,227,-1,114,28,142,-36
6235,227,0,119,32,149,-33
6240,224,1,114,32,157,-33
6245,226,1,119,28,161,-31
6250,223,3,114,22,168,-33
6255,221,3,115,12,173,-33
6260,225,0,124,5,180,-33
6265,223,-1,123,1,188,-29
6270,221,1,121,2,193,-28
6275,221,3,122,4,194,-28
6280,221,3,125,10,194,-26
6285,219,1,124,12,195,-23
6290,219,4,123,14,190,-22
6295,220,3,131,13,186,-18
6300,221,5,126,13,184,-13
6305,219,2,129,10,180,-11
6310,219,1,125,4,177,-10
6315,217,4,127,-4,174,-10
6320,216,1,128,-12,172,-9
6325,214,-2,129,-18,170,-8
6330,211,1,130,-21,167,-5
6335,214,-2,131,-21,166,-2
6340,211,0,131,-18,167,-4
6345,214,-2,130,-16,165,-3
6350,212,0,130,-15,165,-6
6355,213,3,133,-16,164,-9
6360,216,4,131,-18,164,-12
6365,214,8,134,-24,160,-17
6370,210,3,132,-31,156,-17
6375,214,4,138,-35,151,-19
6380,216,1,129,-38,145,-19
6385,211,6,128,-38,142,-19
6390,217,-3,131,-38,140,-17
6395,211,1,130,-36,138,-13
6400,216,1,130,-33,135,-10
6405,216,-3,130,-30,134,-8
6410,221,-4,127,-25,132,-7
6415,220,-3,126,-24,129,-6
6420,219,-2,128,-23,126,-4
6425,221,-1,127,-22,123,-6
6430,216,1,128,-23,120,-8
6435,217,6,126,-27,116,-9
6440,217,1,126,-32,114,-11
6445,220,-3,128,-37,111,-14
6450,217,1,129,-39,108,-15
6455,218,-1,126,-40,108,-15
6460,214,1,125,-41,105,-15
6465,219,-5,126,-36,102,-14
6470,218,1,129,-33,103,-13
6475,222,-3,126,-28,102,-12
6480,218,0,127,-22,100,-13
6485,216,-4,123,-17,96,-13
6490,217,-6,128,-14,95,-12
6495,217,-4,123,-14,95,-16
6500,218,-4,127,-16,95,-17
6505,217,-2,129,-18,99,-20
6510,215,-3,128,-22,103,-23
6515,213,-4,129,-23,107,-28
6520,211,-4,129,-24,113,-30
6525,213,-4,131,-22,114,-29
6530,214,-4,134,-17,118,-30
6535,215,-4,133,-13,117,-29
6540,214,-2,134,-10,113,-27
6545,216,-4,135,-11,108,-26
6550,214,-1,135,-15,104,-25
6555,214,3,135,-21,98,-25
6560,211,3,134,-26,94,-25
6565,214,4,133,-29,88,-25
6570,211,-1,132,-28,85,-25
6575,215,0,132,-27,79,-26
6580,218,-3,133,-23,72,-26
6585,213,0,139,-19,69,-27
6590,216,-1,129,-17,63,-30
6595,214,-2,129,-16,58,-30
6600,213,-1,134,-16,57,-29
6605,211,2,133,-17,57,-28
6610,209,5,130,-16,58,-28
6615,212,2,130,-18,59,-28
6620,208,3,136,-20,63,-26
6625,212,1,129,-21,66,-27
6630,213,1,133,-21,68,-25
6635,212,0,131,-21,68,-22
6640,213,4,136,-20,67,-18
6645,214,3,130,-21,66,-17
6650,213,1,127,-21,65,-17
6655,214,4,132,-23,63,-13
6660,216,3,127,-24,61,-10
6665,216,3,124,-27,58,-6
6670,219,2,130,-30,59,-2
6675,217,2,126,-33,60,0
6680,216,3,129,-35,59,3
6685,219,1,129,-33,56,4
6690,218,0,127,-33,53,5
6695,214,2,130,-29,48,5
6700,216,5,130,-30,44,4
6705,218,-1,130,-26,40,3
6710,216,1,130,-24,37,4
6715,220,-1,132,-19,34,4
6720,220,2,130,-16,32,3
6725,216,5,126,-13,33,4
6730,219,3,125,-13,33,6
6735,222,4,129,-14,32,8
6740,219,8,126,-17,31,9
6745,221,4,126,-18,30,10
6750,226,5,122,-19,30,10
6755,225,3,123,-20,28,11
6760,226,4,121,-18,24,10
6765,230,5,118,-19,17,8
6770,229,6,119,-18,10,7
6775,229,3,121,-19,0,9
6780,226,1,120,-18,-10,11
6785,224,3,123,-19,-19,12
6790,221,1,126,-20,-27,14
6795,219,2,127,-18,-31,12
6800,215,-4,125,-19,-30,8
6805,211,-3,125,-18,-24,4
6810,212,-1,132,-16,-14,1
6815,212,-1,128,-17,-4,0
6820,211,-2,126,-15,8,0
6825,214,-4,126,-16,21,0
6830,215,-1,126,-14,32,-1
6835,217,-3,126,-8,38,0
6840,216,2,125,-4,48,1
6845,217,0,124,0,56,2
6850,216,-5,127,-1,63,2
6855,220,1,122,-2,70,1
6860,217,-1,128,-2,73,1
6865,217,-3,129,-2,77,0
6870,213,1,125,1,78,-1
6875,216,-1,124,0,77,-2
6880,214,2,133,0,77,-4
6885,219,3,132,-3,75,-4
6890,216,-2,131,-10,72,-9
6895,215,-4,129,-17,67,-11
6900,215,3,132,-26,63,-13
6905,216,-1,129,-37,60,-15
6910,213,0,128,-46,58,-16
6915,209,1,129,-55,60,-17
6920,210,0,131,-64,62,-18
6925,210,-2,135,-70,66,-19
6930,210,-2,131,-72,71,-21
6935,209,-1,134,-73,74,-20
6940,212,-1,131,-71,77,-20
6945,215,-5,128,-67,81,-20
6950,216,-1,129,-63,80,-20
6955,216,-1,129,-59,76,-17
6960,221,3,123,-55,72,-15
6965,223,-1,124,-54,68,-12
6970,221,-2,126,-50,65,-9
6975,222,-4,127,-49,60,-4
6980,219,-1,128,-46,57,0
6985,215,-1,127,-45,54,1
6990,215,-2,127,-44,52,2
6995,216,-2,127,-41,49,2
7000,214,-1,126,-38,46,1
7005,212,1,126,-32,42,-2
7010,219,-1,128,-27,41,-3
7015,214,-1,130,-21,40,-3
7020,216,2,127,-20,38,-3
7025,220,0,125,-19,38,-5
7030,219,1,127,-18,39,-4
7035,222,2,123,-16,40,-3
7040,223,3,126,-19,41,-1
7045,222,2,121,-20,42,1
7050,221,2,121,-24,44,0
7055,220,2,122,-29,43,1
7060,221,3,126,-33,43,2
7065,219,3,127,-34,42,4
7070,220,2,126,-34,42,4
7075,224,-1,127,-32,40,5
7080,220,-1,126,-31,39,6
7085,221,-1,124,-26,37,6
7090,221,-1,121,-21,34,6
7095,220,-4,121,-15,31,9
7100,221,-1,120,-10,32,9
7105,219,-1,119,-8,31,7
7110,217,0,124,-9,32,1
7115,218,4,124,-11,37,-3
7120,220,4,123,-13,41,-6
7125,220,4,123,-14,47,-9
7130,220,4,126,-14,53,-10
7135,216,7,126,-12,58,-12
7140,221,4,120,-11,60,-13
7145,220,3,123,-9,64,-14
7150,219,2,121,-6,68,-13
7155,220,-2,122,-6,69,-12
7160,221,-2,123,-6,72,-12
7165,217,-1,126,-9,73,-10
7170,217,-1,126,-13,71,-9
7175,216,-1,128,-21,69,-7
7180,216,-1,129,-30,66,-7
7185,215,-4,133,-37,67,-6
7190,217,-4,136,-41,64,-5
7195,215,-4,128,-42,59,-3
7200,216,-4,128,-40,55,-3
7205,216,-2,131,-36,50,-2
7210,217,-5,126,-33,48,-3
7215,214,-4,128,-30,46,-5
7220,221,-5,130,-27,44,-6
7225,218,-5,126,-23,45,-8
7230,221,-4,122,-20,45,-8
7235,217,-5,126,-16,45,-4
7240,218,-4,127,-12,46,-1
7245,224,1,132,-5,46,0
7250,221,-3,121,2,46,1
7255,216,2,124,8,50,-1
7260,221,-2,128,12,50,-3
7265,219,-2,123,17,51,-1
7270,219,-2,121,18,52,0
7275,219,0,124,17,54,0
7280,219,0,124,16,54,3
7285,221,2,123,13,56,5
7290,220,0,121,12,58,5
7295,218,2,120,10,60,7
7300,221,2,123,8,64,8
7305,219,0,122,8,65,8
7310,220,4,121,6,69,8
7315,218,7,122,2,72,7
7320,220,1,120,0,74,7
7325,218,0,119,-5,78,8
7330,217,1,123,-11,81,7
7335,219,2,124,-14,83,9
7340,218,3,121,-18,85,8
7345,218,1,120,-21,87,10
7350,217,1,121,-25,87,9
7355,218,-10,114,-26,87,9
7360,215,-1,124,-25,87,6
7365,218,-1,121,-24,87,5
7370,219,-2,127,-23,85,6
7375,216,2,122,-21,86,5
7380,219,-1,123,-21,87,4
7385,214,2,121,-24,87,2
7390,218,1,126,-27,90,1
7395,216,2,120,-29,91,3
7400,218,0,127,-29,93,4
7405,218,-2,127,-28,93,5
7410,218,-3,124,-24,93,5
7415,218,-2,125,-21,93,4
7420,218,0,123,-18,89,3
7425,219,-4,123,-16,88,1
7430,217,-5,124,-14,87,-3
7435,217,-6,123,-12,84,-5
7440,216,-5,128,-9,85,-8
7445,220,-3,124,-8,85,-10
7450,215,-3,125,-7,87,-13
7455,219,-3,125,-6,87,-12
7460,219,-3,126,-9,88,-13
7465,220,0,128,-14,90,-13
7470,217,1,129,-17,92,-12
7475,218,1,128,-20,93,-11
7480,216,1,127,-21,94,-10
7485,215,-2,125,-23,94,-10
7490,218,-1,123,-24,92,-11
7495,217,-2,127,-24,92,-12
7500,216,-6,121,-26,92,-14
7505,216,-3,124,-29,91,-12
7510,216,-4,126,-28,90,-12
7515,219,-3,126,-24,91,-10
7520,219,-4,123,-17,90,-9
7525,221,-4,128,-13,92,-8
7530,221,-1,127,-8,93,-8
7535,221,0,128,-5,95,-8
7540,223,1,123,-6,97,-8
7545,218,0,125,-8,98,-8
7550,221,0,123,-10,98,-8
7555,219,-2,125,-11,98,-9
7560,216,1,127,-14,97,-8
7565,218,1,125,-12,96,-7
7570,220,-1,125,-8,95,-5
7575,219,-4,122,-3,95,-5
7580,218,-1,122,2,95,-4
7585,216,-2,126,9,95,-4
7590,220,-3,126,14,94,-6
7595,217,2,127,14,95,-7
7600,219,4,130,12,96,-7
7605,217,0,125,7,96,-7
7610,217,4,124,-1,94,-6
7615,214,3,124,-8,96,-7
7620,217,2,127,-14,97,-6
7625,214,3,125,-16,98,-6
7630,218,-1,128,-17,99,-4
7635,217,3,129,-13,101,-6
7640,216,0,126,-13,101,-3
7645,217,0,125,-11,99,-4
7650,217,0,129,-10,97,-5
7655,217,-4,125,-7,95,-3
7660,217,0,126,-3,92,-2
7665,217,-3,127,4,91,-3
7670,218,-2,125,11,87,-5
7675,213,-4,130,14,84,-5
7680,217,3,127,12,84,-9
7685,217,3,129,9,86,-11
7690,217,8,128,5,88,-13
7695,216,4,131,3,90,-13
7700,218,2,126,4,90,-11
7705,217,-1,127,5,91,-8
7710,218,-2,126,7,92,-8
7715,219,-3,128,13,93,-7
7720,217,-4,132,17,93,-7
7725,219,-5,127,23,92,-5
7730,216,-3,124,25,92,-5
7735,217,-4,127,26,92,-7
7740,217,-1,132,23,92,-7
7745,215,1,126,18,91,-8
7750,214,3,131,9,92,-8
7755,211,-3,133,1,91,-6
7760,213,0,130,-7,88,-4
7765,214,-1,131,-12,88,-2
7770,215,1,126,-11,85,-1
7775,216,0,130,-8,84,-2
7780,219,-3,125,-7,85,-5
7785,217,-3,128,-6,83,-5
7790,221,-1,126,-6,83,-3
7795,218,-2,126,-6,81,-1
7800,219,0,127,-4,79,-2
7805,220,-3,130,2,80,-5
7810,220,-3,126,7,79,-5
7815,220,-4,125,13,77,-7
7820,218,1,126,19,77,-8
7825,219,0,124,21,78,-8
7830,218,0,127,23,78,-9
7835,218,-2,126,25,79,-11
7840,216,2,125,22,82,-11
7845,218,2,128,18,84,-9
7850,217,0,129,14,86,-8
7855,216,3,125,10,86,-9
7860,218,4,125,4,88,-6
7865,215,0,126,1,89,-5
7870,214,2,130,-3,88,-5
7875,216,4,127,-6,90,-5
7880,214,5,128,-7,89,-5
7885,216,2,125,-8,89,-4
7890,213,3,127,-8,89,-2
7895,216,-1,127,-9,89,-1
7900,213,1,133,-8,89,0
7905,215,3,128,-9,88,0
7910,220,1,129,-10,90,0
7915,217,0,128,-9,90,0
7920,215,-1,129,-8,89,-1
7925,215,-2,128,-7,88,-3
7930,218,-1,130,-6,88,-4
7935,217,0,129,-6,88,-4
7940,215,1,127,-3,86,-4
7945,216,4,130,-1,86,-3
7950,215,4,129,-2,88,-5
7955,215,2,130,-2,86,-7
7960,216,3,130,-2,83,-6
7965,215,4,132,-4,84,-6
7970,216,3,131,-6,82,-4
7975,217,4,129,-8,80,-2
7980,216,-1,129,-8,81,-4
7985,218,-4,129,-5,80,-4
7990,215,2,126,-4,81,-4
7995,215,0,128,0,80,-4
8000,214,-2,128,6,79,-6
8005,220,0,128,10,80,-6
8010,211,2,126,14,79,-7
8015,216,1,131,13,77,-8
8020,215,0,130,10,79,-10
8025,214,0,128,4,80,-11
8030,214,5,130,-3,80,-12
8035,216,1,129,-9,83,-12
8040,213,4,131,-13,84,-10
8045,216,2,131,-14,85,-9
8050,217,2,127,-15,85,-9
8055,217,1,129,-12,87,-7
8060,217,3,128,-8,87,-4
8065,215,1,125,-8,84,-4
8070,217,1,130,-7,82,-4
8075,215,0,128,-8,82,-5
8080,216,-2,129,-8,83,-6
8085,215,0,132,-9,82,-7
8090,216,1,127,-9,82,-8
8095,216,1,129,-8,83,-7
8100,220,-2,131,-7,86,-9
8105,216,2,132,-7,90,-10
8110,220,2,129,-8,91,-10
8115,212,8,128,-9,91,-9
8120,217,2,127,-10,91,-9
8125,217,4,129,-11,92,-7
8130,217,5,129,-13,90,-5
8135,216,-2,128,-14,87,-3
8140,216,0,130,-14,85,-5
8145,216,0,130,-11,84,-5
8150,217,-1,127,-5,81,-4
8155,216,-1,129,1,80,-6
8160,214,1,131,7,81,-6
8165,217,-2,124,10,82,-6
8170,216,1,126,13,82,-7
8175,215,2,130,13,87,-8
8180,216,6,132,12,89,-7
8185,218,0,128,8,91,-8
8190,217,6,131,2,93,-9
8195,216,3,130,-3,96,-8
8200,219,3,129,-8,96,-7
8205,218,3,127,-10,95,-7
8210,216,2,129,-13,95,-7
8215,217,2,131,-14,93,-7
8220,215,4,131,-13,92,-6
8225,213,0,133,-12,89,-7
8230,214,3,134,-12,88,-9
8235,214,-1,131,-11,86,-9
8240,213,0,127,-9,84,-10
8245,216,-3,127,-6,82,-9
8250,215,-4,133,1,83,-8
8255,212,1,126,8,85,-8
8260,216,3,128,18,86,-9
8265,216,1,130,22,87,-11
8270,217,5,128,21,88,-13
8275,216,6,129,18,93,-16
8280,217,6,128,12,97,-18
8285,218,5,129,5,102,-19
8290,216,7,128,1,106,-19
8295,217,4,127,1,107,-16
8300,216,1,128,4,107,-17
8305,217,-1,131,9,105,-14
8310,217,0,128,14,103,-14
8315,213,0,126,20,101,-14
8320,212,-1,128,26,99,-15
8325,211,3,132,28,98,-16
8330,212,2,133,26,97,-18
8335,214,3,138,20,96,-18
8340,214,5,134,12,95,-19
8345,214,5,132,5,94,-16
8350,212,5,131,-1,91,-13
8355,213,6,132,-4,90,-11
8360,213,6,129,-6,91,-9
8365,214,5,131,-6,93,-9
8370,215,5,132,-4,94,-9
8375,215,7,132,-1,94,-11
8380,217,5,129,-1,95,-10
8385,214,2,132,0,95,-10
8390,216,4,125,2,94,-10
8395,215,3,126,5,94,-12
8400,215,0,130,9,92,-13
8405,214,2,132,13,91,-13
8410,215,1,130,15,91,-15
8415,216,1,133,16,92,-12
8420,217,4,133,17,93,-15
8425,215,6,130,17,94,-13
8430,216,4,129,17,96,-14
8435,213,3,133,15,96,-11
8440,214,9,133,15,98,-8
8445,209,6,126,11,98,-7
8450,215,8,136,11,98,-6
8455,215,3,134,11,98,-6
8460,211,8,132,11,97,-5
8465,215,5,134,11,97,-5
8470,215,2,132,11,94,-4
8475,212,3,133,12,90,-3
8480,217,3,129,12,89,-3
8485,214,4,135,11,87,-2
8490,215,2,132,11,86,0
8495,215,4,131,11,84,2
8500,216,0,133,10,83,2
8505,214,3,130,9,85,2
8510,213,6,130,8,83,3
8515,215,4,133,6,84,3
8520,215,7,131,4,84,2
8525,214,4,132,2,86,0
8530,213,5,130,2,86,0
8535,210,8,131,1,85,1
8540,215,5,131,0,86,1
8545,217,3,133,1,86,0
8550,211,4,131,1,86,0
8555,216,2,129,1,87,1
8560,215,5,131,-1,89,0
8565,215,3,130,0,87,-1
8570,215,6,132,0,88,-1
8575,214,3,131,-1,90,0
8580,218,-2,130,2,91,0
8585,214,-2,132,5,90,-2
8590,215,0,129,9,90,-2
8595,216,4,131,13,90,-2
8600,215,3,132,13,92,-4
8605,214,2,135,10,91,-8
8610,212,6,132,6,90,-9
8615,214,5,133,1,91,-11
8620,214,2,133,-4,90,-13
8625,215,2,134,-7,91,-14
8630,210,4,135,-10,91,-14
8635,214,5,128,-11,88,-14
8640,212,1,131,-14,87,-15
8645,217,5,128,-15,89,-12
8650,210,3,131,-15,91,-10
8655,211,2,133,-14,89,-8
8660,212,5,135,-14,90,-6
8665,215,1,131,-12,90,-6
8670,214,1,131,-11,89,-7
8675,214,2,134,-10,89,-7
8680,214,2,132,-10,87,-7
8685,215,8,137,-10,85,-9
8690,213,2,131,-11,84,-8
8695,217,6,132,-10,83,-10
8700,216,5,136,-10,83,-10
8705,214,7,131,-11,84,-10
8710,213,5,133,-10,84,-8
8715,212,6,134,-8,85,-8
8720,215,4,133,-5,85,-9
8725,213,4,134,-3,84,-8
8730,214,3,131,0,84,-7
8735,213,2,134,3,83,-7
8740,214,5,134,4,83,-8
8745,215,3,134,4,83,-8
8750,211,7,132,4,83,-10
8755,213,8,131,2,82,-11
8760,212,3,134,1,82,-10
8765,216,4,138,1,83,-9
8770,213,6,134,0,83,-7
8775,213,4,129,1,83,-5
8780,214,2,135,3,84,-5
8785,212,1,132,5,83,-3
8790,214,1,130,6,85,-1
8795,212,7,134,3,84,-2
8800,214,4,133,2,83,-1
8805,212,8,130,1,85,-2
8810,211,7,136,-2,85,-2
8815,211,5,133,-4,85,-2
8820,211,2,135,-6,83,0
8825,215,2,133,-7,79,1
8830,216,7,133,-6,78,1
8835,212,4,133,-6,77,1
8840,212,8,133,-8,74,0
8845,212,7,136,-8,74,0
8850,214,4,135,-10,73,-1
8855,211,2,135,-12,69,-3
8860,211,7,135,-13,69,-4
8865,213,3,136,-14,68,-4
8870,213,2,132,-12,71,1
8875,213,1,138,-6,70,1
8880,204,-3,136,1,70,2
8885,211,4,132,6,70,0
8890,212,4,134,6,72,1
8895,215,8,134,3,74,-2
8900,214,7,131,-1,77,-4
8905,214,8,133,-6,79,-7
8910,213,8,127,-8,80,-8
8915,212,5,136,-7,81,-8
8920,213,4,135,-4,81,-8
8925,214,2,133,2,80,-5
8930,216,3,134,7,79,-4
8935,214,2,131,14,78,-3
8940,214,1,132,17,78,-5
8945,215,1,132,16,75,-5
8950,214,3,135,13,74,-5
8955,210,3,133,7,76,-8
8960,213,6,137,-1,76,-11
8965,212,6,137,-9,77,-9
8970,212,6,136,-13,77,-9
8975,211,7,136,-17,77,-6
8980,211,8,136,-16,75,-8
8985,213,5,131,-15,77,-9
8990,211,8,130,-15,76,-9
8995,211,5,130,-16,78,-10
9000,212,3,132,-18,80,-9
9005,214,8,134,-21,81,-8
9010,212,4,134,-22,81,-7
9015,214,2,139,-21,81,-7
9020,212,0,132,-23,81,-6
9025,214,3,138,-22,83,-6
9030,211,4,136,-20,80,-5
9035,218,5,137,-21,80,-6
9040,211,5,137,-21,81,-6
9045,215,5,139,-21,76,-7
9050,217,4,135,-21,74,-7
9055,215,7,134,-23,73,-6
9060,212,8,136,-25,75,-5
9065,213,6,135,-27,74,-4
9070,215,7,133,-28,74,-5
9075,213,5,131,-31,73,-5
9080,213,8,134,-32,74,-5
9085,210,7,133,-34,75,-4
9090,214,7,134,-36,77,-4
9095,214,6,136,-38,79,-4
9100,214,3,135,-41,80,-6
9105,211,8,130,-48,82,-5
9110,212,7,135,-54,86,-6
9115,212,6,134,-60,89,-6
9120,214,4,135,-70,94,-9
9125,212,5,134,-76,101,-10
9130,211,6,134,-83,106,-10
9135,209,7,135,-90,111,-9
9140,213,6,137,-96,115,-9
9145,215,8,138,-98,120,-9
9150,212,7,132,-99,119,-5
9155,214,8,134,-100,116,-5
9160,214,7,136,-97,111,-6
9165,215,3,130,-95,106,-5
9170,216,3,133,-91,100,-2
9175,216,4,134,-86,96,0
9180,216,2,134,-80,90,2
9185,218,0,133,-76,82,4
9190,213,1,131,-70,76,4
9195,214,1,131,-65,72,3
9200,212,0,132,-59,70,4
9205,214,0,137,-51,70,5
9210,212,-1,135,-44,70,4
9215,213,2,136,-39,71,1
9220,211,5,134,-35,72,-2
9225,210,1,138,-36,74,-3
9230,209,7,139,-40,75,-7
9235,207,2,137,-46,77,-10
9240,210,3,138,-52,77,-10
9245,210,6,136,-57,80,-11
9250,212,7,134,-63,80,-15
9255,211,3,137,-68,81,-15
9260,211,7,136,-71,79,-14
9265,212,1,136,-73,80,-12
9270,212,2,133,-72,78,-11
9275,215,6,132,-74,77,-10
9280,215,-3,134,-70,77,-7
9285,213,0,137,-69,77,-9
9290,212,1,136,-67,76,-7
9295,212,1,137,-64,76,-9
9300,213,-1,134,-62,75,-10
9305,212,1,133,-60,75,-10
9310,218,0,132,-62,76,-11
9315,211,6,132,-61,76,-9
9320,214,1,136,-61,74,-11
9325,208,4,132,-61,74,-10
9330,214,2,133,-62,73,-10
9335,215,4,133,-64,74,-12
9340,217,0,132,-67,75,-11
9345,213,3,134,-68,75,-9
9350,216,-2,135,-70,76,-10
9355,210,0,134,-70,78,-6
9360,212,-1,133,-69,79,-6
9365,211,2,136,-67,80,-6
9370,210,-2,133,-65,81,-5
9375,212,-1,135,-61,81,-7
9380,211,-1,133,-59,84,-7
9385,210,1,136,-57,82,-7
9390,213,1,133,-52,82,-7
9395,214,2,132,-49,81,-6
9400,215,2,136,-47,79,-6
9405,212,1,131,-43,75,-5
9410,215,-1,138,-43,71,-5
9415,213,-2,135,-42,69,-6
9420,211,5,135,-43,66,-4
9425,217,5,130,-44,66,-3
9430,212,1,135,-47,64,-4
9435,213,4,133,-50,61,-4
9440,212,1,136,-54,60,-3
9445,213,4,133,-57,59,-3
9450,214,2,132,-58,58,-4
9455,211,3,136,-61,56,-7
9460,211,3,135,-63,56,-6
9465,212,5,138,-63,57,-8
9470,212,0,133,-62,57,-8
9475,209,3,135,-61,58,-6
9480,213,0,137,-57,58,-4
9485,209,2,131,-54,60,-3
9490,214,-1,130,-53,60,0
9495,216,-1,134,-51,61,1
9500,212,1,136,-51,59,4
9505,213,-2,136,-54,56,2
9510,209,-2,135,-56,59,2
9515,211,0,139,-57,59,1
9520,212,-2,135,-54,58,0
9525,211,-2,132,-50,58,3
9530,210,5,136,-43,58,4
9535,210,3,133,-36,57,5
9540,213,1,134,-29,56,2
9545,212,2,132,-23,55,1
9550,211,3,132,-20,57,-3
9555,212,2,130,-19,59,-3
9560,213,-1,135,-17,62,-3
9565,214,1,133,-14,65,-5
9570,213,0,134,-16,65,-6
9575,217,0,129,-19,64,-6
9580,212,0,133,-21,65,-7
9585,212,0,134,-21,66,-6
9590,209,-2,134,-21,67,-6
9595,209,0,133,-21,65,-6
9600,208,2,135,-21,67,-8
9605,210,1,141,-24,65,-9
9610,208,2,140,-31,65,-9
9615,211,0,137,-38,64,-8
9620,210,4,140,-44,61,-7
9625,213,-2,138,-47,60,-6
9630,211,-3,136,-49,59,-4
9635,211,-2,137,-46,53,-2
9640,213,3,136,-44,52,-1
9645,212,-2,134,-40,51,-1
9650,211,3,129,-39,49,-1
9655,212,0,134,-38,47,-2
9660,216,0,133,-36,48,-4
9665,214,-1,129,-34,52,-2
9670,217,-4,132,-29,53,-2
9675,214,-4,134,-24,55,-1
9680,214,-1,134,-19,55,1
9685,214,-1,131,-13,56,1
9690,213,0,138,-10,55,1
9695,211,2,135,-8,56,1
9700,215,2,134,-9,56,1
9705,215,3,137,-12,54,0
9710,215,5,132,-14,55,1
9715,212,2,137,-22,55,2
9720,213,2,134,-29,57,4
9725,211,3,133,-35,58,5
9730,211,2,134,-41,59,6
9735,211,-1,131,-45,61,8
9740,212,-1,131,-45,62,10
9745,208,-4,134,-43,64,10
9750,208,-4,134,-43,67,12
9755,209,-1,135,-43,68,12
9760,208,-3,137,-45,70,13
9765,209,-2,135,-49,71,12
9770,208,-1,136,-53,69,12
9775,207,-1,138,-57,68,12
9780,208,-1,135,-61,68,11
9785,213,-3,139,-64,69,11
9790,211,-5,137,-67,68,9
9795,211,0,136,-67,66,9
9800,211,-5,137,-65,66,9
9805,209,0,135,-61,66,10
9810,208,-3,137,-58,61,9
9815,213,-4,131,-57,63,9
9820,213,-1,133,-55,62,8
9825,214,-3,131,-55,60,6
9830,214,-1,130,-55,59,5
9835,216,-3,128,-54,61,3
9840,218,-3,134,-50,60,3
9845,219,-4,130,-45,60,1
9850,218,0,128,-38,59,0
9855,214,2,127,-31,56,-2
9860,215,0,132,-25,56,-4
9865,218,-4,129,-21,55,-3
9870,216,-3,131,-18,53,-6
9875,214,-2,129,-18,53,-5
9880,213,0,135,-19,51,-7
9885,216,-3,135,-21,52,-8
9890,213,-2,131,-28,51,-9
9895,213,-2,133,-38,55,-11
9900,211,-1,135,-46,57,-13
9905,217,-2,132,-53,57,-15
9910,211,0,135,-57,61,-16
9915,214,1,131,-57,61,-15
9920,215,-2,132,-56,61,-16
9925,213,1,133,-55,62,-15
9930,217,-2,128,-49,66,-14
9935,211,1,132,-45,71,-16
9940,216,0,131,-43,71,-14
9945,215,1,133,-44,71,-15
9950,212,1,128,-46,70,-14
9955,216,-2,132,-43,68,-13
9960,216,-1,131,-41,68,-10
9965,213,0,132,-38,70,-11
9970,215,-1,132,-35,72,-10
9975,211,-2,132,-33,73,-7
9980,216,1,132,-32,73,-8
9985,212,4,133,-30,75,-7
9990,215,-3,131,-31,76,-5
9995,213,0,133,-29,77,-4
10000,212,0,133,-26,77,-2
10005,214,-1,133,-23,77,0
10010,215,-1,133,-21,78,3
10015,213,-7,132,-17,77,4
10020,215,-4,134,-14,79,6
10025,215,-6,133,-8,80,9
10030,211,-2,135,-5,82,9
10035,215,-2,133,-2,83,12
10040,210,0,135,0,85,11
10045,211,0,137,2,85,12
10050,215,-1,136,1,85,11
10055,215,0,131,2,86,11
10060,213,1,133,2,84,11
10065,212,-1,135,3,82,10
10070,211,4,133,0,82,9
10075,211,1,127,-2,81,10
10080,211,0,134,-6,79,8
10085,214,-2,132,-11,78,7
10090,215,-3,139,-14,78,6
10095,211,-2,138,-15,77,8
10100,212,-4,138,-18,76,5
10105,213,-4,135,-15,76,6
10110,210,-4,131,-13,76,6
10115,208,-2,134,-10,76,6
10120,211,-4,136,-6,76,8
10125,212,-4,132,-2,78,7
10130,213,0,129,0,80,5
10135,212,-3,133,1,81,5
10140,212,0,133,2,83,3
10145,211,-2,131,-2,85,0
10150,212,-3,129,-5,86,-3
10155,213,-3,130,-4,87,-5
10160,214,-6,133,-1,90,-3
10165,216,-4,132,5,90,-3
10170,212,-3,131,9,93,-3
10175,212,-2,130,12,95,-6
10180,215,-2,131,12,96,-7
10185,216,-2,132,12,99,-10
10190,214,3,135,10,100,-11
10195,216,-3,129,9,103,-12
10200,217,0,131,9,106,-15
10205,214,0,129,7,108,-14
10210,216,-1,131,6,106,-16
10215,213,-1,131,6,107,-15
10220,211,-1,133,6,108,-16
10225,215,-2,131,9,107,-14
10230,214,-4,131,9,109,-15
10235,214,0,134,9,109,-16
10240,212,-5,139,9,110,-15
10245,209,-3,139,6,111,-13
10250,209,1,141,-1,111,-15
10255,208,-2,136,-7,111,-15
10260,210,1,138,-14,112,-14
10265,212,-7,141,-19,112,-14
10270,208,-1,143,-18,114,-13
10275,211,-2,136,-15,112,-12
10280,210,-5,138,-10,109,-13
10285,213,-5,137,-6,106,-13
10290,210,-1,136,-2,102,-14
10295,210,-1,137,0,99,-15
10300,211,-2,137,2,95,-14
10305,212,-4,134,4,94,-14
10310,211,-7,138,9,93,-12
10315,214,-7,134,13,91,-11
10320,210,-1,133,19,89,-11
10325,207,-2,140,23,90,-10
10330,210,3,132,26,91,-10
10335,210,-1,140,28,90,-10
10340,208,3,138,28,90,-10
10345,212,-1,136,27,92,-8
10350,206,-2,138,23,93,-5
10355,210,0,136,20,96,-5
10360,208,2,140,17,94,-3
10365,210,2,134,12,93,-1
10370,213,-2,138,9,92,1
10375,211,2,137,6,90,2
10380,210,-2,137,5,89,1
10385,211,0,136,4,87,2
10390,214,0,137,5,85,3
10395,209,-1,135,8,84,1
10400,210,-3,138,10,83,1
10405,208,2,136,12,83,0
10410,213,-2,133,14,83,1
10415,211,1,135,15,83,-1
10420,211,1,135,16,82,-1
10425,212,0,137,17,84,-2
10430,211,2,134,18,84,-3
10435,212,2,137,17,84,-3
10440,213,5,134,15,85,-3
10445,213,2,137,12,85,-3
10450,213,4,135,11,85,-4
10455,213,2,135,9,83,-4
10460,212,1,138,6,82,-4
10465,211,0,138,5,83,-5
10470,211,-1,133,5,81,-5
10475,209,-1,133,3,82,-5
10480,212,-4,136,4,83,-4
10485,209,0,134,7,85,-3
10490,210,0,134,11,87,-4
10495,209,0,131,14,88,-4
10500,211,3,134,17,86,-5
10505,211,-3,136,18,87,-6
10510,212,1,134,20,88,-7
10515,220,2,138,22,88,-7
10520,213,-1,139,25,91,-7
10525,210,2,137,24,90,-8
10530,214,1,136,22,91,-9
10535,208,4,135,18,90,-9
10540,213,2,136,11,89,-11
10545,211,2,141,5,88,-13
10550,213,1,137,1,86,-14
10555,208,3,138,-2,84,-13
10560,213,-3,133,-4,80,-13
10565,210,0,137,-4,78,-12
10570,209,-3,140,-4,76,-11
10575,208,3,134,-2,76,-10
10580,210,-1,141,0,73,-11
10585,208,1,138,2,74,-9
10590,212,-1,131,5,74,-9
10595,213,-3,137,7,74,-9
10600,209,-1,139,7,74,-8
10605,211,2,138,7,77,-8
10610,212,3,138,4,78,-9
10615,211,0,139,1,79,-9
10620,213,2,137,1,81,-10
10625,210,1,137,-3,81,-9
10630,208,2,135,-4,81,-8
10635,210,-1,136,-3,80,-6
10640,212,-3,134,-1,78,-6
10645,210,-1,139,2,75,-6
10650,212,-3,136,6,73,-4
10655,207,-3,139,12,69,-4
10660,211,-1,138,17,69,-5
10665,213,-3,138,21,67,-5
10670,210,1,133,23,67,-5
10675,208,2,139,23,67,-3
10680,209,3,134,21,63,-4
10685,210,0,136,16,63,-4
10690,211,1,140,12,64,-4
10695,210,1,139,10,68,-6
10700,212,1,138,9,72,-8
10705,207,3,136,10,76,-7
10710,210,5,133,10,77,-5
10715,211,1,136,10,78,-6
10720,211,1,137,10,78,-8
10725,213,4,138,10,78,-7
10730,211,-5,131,10,78,-8
10735,211,3,137,10,77,-8
10740,214,3,134,10,78,-9
10745,213,-1,135,10,78,-10
10750,211,1,133,11,79,-10
10755,211,2,138,10,79,-10
10760,213,1,135,6,79,-12
10765,210,5,132,1,78,-12
10770,208,6,134,-7,78,-13
10775,211,2,139,-13,79,-13
10780,210,1,137,-18,82,-13
10785,212,0,137,-20,85,-11
10790,208,6,137,-19,86,-12
10795,212,0,139,-17,85,-11
10800,210,-1,138,-13,84,-10
10805,211,-1,134,-8,83,-9
10810,212,0,140,-5,82,-7
10815,210,1,138,0,80,-7
10820,210,2,140,1,78,-7
10825,211,2,139,2,77,-8
10830,208,3,136,0,77,-8
10835,210,1,140,2,75,-8
10840,210,1,138,4,74,-7
10845,212,-1,137,9,72,-4
10850,212,1,137,15,72,-3
10855,211,4,136,20,68,-4
10860,213,4,140,22,67,-5
10865,210,6,137,21,67,-7
10870,212,5,138,16,68,-8
10875,210,3,139,10,71,-7
10880,211,2,138,6,73,-9
10885,211,4,135,6,76,-9
10890,211,1,137,8,79,-8
10895,212,4,136,13,78,-7
10900,214,-1,135,18,79,-6
10905,211,-1,136,24,77,-5
10910,211,0,136,28,77,-4
10915,211,0,133,31,77,-3
10920,208,2,138,30,77,-5
10925,208,4,137,25,80,-6
10930,209,6,138,17,81,-9
10935,207,2,139,7,82,-9
10940,209,4,140,-2,81,-8
10945,207,3,141,-10,81,-9
10950,211,7,143,-13,83,-8
10955,209,6,143,-13,81,-9
10960,210,2,139,-10,82,-9
10965,211,4,136,-8,81,-9
10970,211,0,136,-6,79,-9
10975,213,4,137,-7,77,-9
10980,209,7,135,-8,77,-7
10985,213,0,138,-8,78,-7
10990,212,0,136,-5,79,-6
10995,212,1,139,-2,81,-7
11000,210,2,136,4,82,-6
11005,211,1,138,10,81,-6
11010,211,1,137,12,80,-7
11015,209,3,137,16,80,-7
11020,210,1,138,16,79,-9
11025,212,6,135,14,79,-11
11030,210,4,136,10,78,-10
11035,209,6,135,5,79,-9
11040,207,7,143,0,78,-7
11045,212,6,136,-4,77,-5
11050,213,4,134,-7,77,-6
11055,208,5,139,-9,75,-4
11060,211,-2,141,-10,74,-3
11065,206,7,141,-10,72,-2
11070,209,6,135,-9,72,0
11075,207,4,140,-9,70,0
11080,212,2,138,-7,70,1
11085,211,2,139,-6,69,2
11090,213,-3,140,-4,70,4
11095,207,3,140,-1,68,4
11100,212,1,137,2,69,4
11105,210,1,134,4,70,5
11110,211,2,135,6,71,4
11115,213,-2,139,7,73,4
11120,211,0,134,9,74,4
11125,207,1,139,7,76,3
11130,209,-1,138,6,76,2
11135,208,8,139,4,74,1
11140,208,4,137,3,73,2
11145,209,2,138,2,72,1
11150,210,4,134,2,71,0
11155,210,1,137,3,73,-1
11160,210,2,135,3,74,0
11165,210,2,135,5,73,0
11170,210,4,137,10,74,-1
11175,211,3,134,15,75,-2
11180,209,5,136,17,76,-1
11185,211,4,137,21,77,-1
11190,211,1,138,24,80,-3
11195,210,6,142,26,79,-5
11200,212,4,137,26,81,-5
11205,210,8,135,24,82,-9
11210,210,8,136,19,82,-12
11215,210,6,137,13,83,-12
11220,211,2,138,9,84,-15
11225,207,7,138,4,85,-15
11230,210,3,141,1,84,-16
11235,210,4,139,0,87,-17
11240,209,3,139,-1,89,-15
11245,209,4,136,-4,93,-15
11250,209,6,131,-6,98,-13
11255,207,2,135,-9,103,-15
11260,212,8,136,-14,107,-16
11265,209,3,136,-18,107,-17
11270,207,8,136,-22,108,-22
11275,212,8,138,-25,107,-25
11280,209,5,135,-23,102,-27
11285,213,6,136,-19,95,-30
11290,210,7,136,-12,86,-32
11295,207,4,138,-5,77,-30
11300,212,5,139,-2,70,-31
11305,211,6,137,0,62,-28
11310,210,7,137,-1,56,-28
11315,211,6,140,-4,51,-26
11320,213,5,141,-6,45,-25
11325,210,8,137,-9,43,-25
11330,210,6,138,-12,44,-24
11335,211,3,141,-16,42,-21
11340,207,6,140,-21,42,-18
11345,207,3,141,-23,45,-17
11350,210,1,140,-20,53,-14
11355,207,1,141,-20,59,-12
11360,211,4,139,-18,66,-10
11365,207,2,145,-18,72,-9
11370,208,1,141,-19,77,-10
11375,206,5,140,-19,81,-11
11380,211,5,141,-22,86,-12
11385,210,1,141,-22,87,-11
11390,209,4,138,-21,84,-12
11395,207,1,142,-19,82,-12
11400,207,4,140,-15,81,-11
11405,208,5,139,-9,80,-11
11410,208,1,139,-4,79,-12
11415,209,3,136,0,77,-11
11420,211,3,138,3,76,-11
11425,209,3,137,6,75,-10
11430,210,3,142,9,75,-9
11435,210,5,142,12,75,-9
11440,213,6,135,14,75,-8
11445,208,3,137,16,73,-6
11450,211,5,140,18,71,-3
11455,211,4,136,19,70,-3
11460,211,4,137,18,70,-3
11465,209,3,141,19,70,-2
11470,210,5,139,17,72,-3
11475,211,7,139,14,73,-4
11480,212,7,139,9,74,-5
11485,212,6,139,4,76,-6
11490,210,8,141,-1,78,-7
11495,213,8,139,-3,79,-5
11500,209,7,139,-4,78,-6
11505,210,8,139,-1,80,-4
11510,208,7,137,3,80,-4
11515,209,3,140,10,81,-4
11520,212,1,137,17,81,-1
11525,213,2,136,22,83,0
11530,210,1,140,23,83,4
11535,213,7,141,22,82,3
11540,209,8,139,18,81,3
11545,207,6,135,12,80,1
11550,209,2,136,8,79,-1
11555,211,8,139,7,78,0
11560,210,4,140,8,79,1
11565,208,5,141,13,78,3
11570,210,3,139,18,77,3
11575,212,7,140,20,79,2
11580,213,7,136,20,78,1
11585,211,8,142,15,81,-2
11590,210,6,137,7,82,-2
11595,211,6,139,2,83,-4
11600,208,6,130,-4,85,-4
11605,211,7,139,-4,85,-3
11610,208,5,141,-3,83,-1
11615,210,1,138,3,81,1
11620,206,0,140,12,77,1
11625,207,1,140,20,75,0
11630,208,5,140,26,72,1
11635,211,-1,138,31,70,-1
11640,207,6,143,31,67,-3
11645,207,6,141,27,66,-3
11650,209,4,141,22,65,-6
11655,208,3,142,13,65,-9
11660,205,6,143,8,65,-9
11665,205,3,137,7,66,-9
11670,208,5,140,10,69,-10
11675,207,4,138,15,70,-10
11680,207,4,142,23,71,-10
11685,207,6,140,32,72,-9
11690,207,6,135,40,76,-11
11695,209,6,137,43,78,-10
11700,210,6,138,43,81,-10
11705,209,8,137,42,85,-8
11710,202,0,142,40,89,-7
11715,211,5,139,36,91,-7
11720,208,6,139,34,92,-7
11725,209,8,140,29,91,-7
11730,207,8,142,23,89,-6
11735,209,6,139,17,86,-7
11740,209,8,139,10,82,-6
11745,207,9,139,1,78,-5
11750,211,8,143,-3,76,-2
11755,210,7,140,-11,75,0
11760,210,9,141,-14,74,2
11765,209,10,138,-16,75,2
11770,210,8,136,-17,74,4
11775,208,6,141,-16,73,3
11780,207,7,141,-16,75,5
11785,208,7,138,-16,76,5
11790,212,9,139,-18,78,5
11795,211,5,139,-21,79,3
11800,211,5,139,-20,80,3
11805,209,8,141,-22,82,5
11810,208,5,140,-23,80,5
11815,212,6,145,-23,78,4
11820,212,8,142,-24,76,5
11825,210,6,142,-26,76,3
11830,211,6,141,-28,75,4
11835,208,7,139,-30,72,4
11840,208,4,142,-33,70,5
11845,209,6,142,-33,67,6
11850,210,7,140,-37,66,7
11855,211,5,142,-40,63,7
11860,208,4,137,-40,61,7
11865,208,8,139,-40,59,6
11870,210,8,141,-40,57,6
11875,209,9,141,-41,56,7
11880,209,8,138,-42,57,5
11885,211,8,136,-43,54,4
11890,212,7,139,-45,54,4
11895,209,5,137,-46,55,4
11900,208,8,140,-45,55,6
11905,207,8,142,-47,53,5
11910,210,7,142,-47,51,5
11915,209,8,140,-48,49,5
11920,209,7,142,-54,50,4
11925,207,6,143,-63,51,2
11930,208,8,139,-72,53,0
11935,210,7,141,-82,55,0
11940,208,6,138,-89,55,0
11945,206,6,141,-94,53,-2
11950,206,6,142,-96,54,0
11955,209,1,144,-96,54,-1
11960,209,4,144,-91,53,0
11965,211,2,140,-87,51,2
11970,207,3,139,-80,48,3
11975,210,5,141,-75,45,4
11980,208,4,139,-69,40,4
11985,211,3,138,-68,37,4
11990,208,4,139,-70,34,2
11995,210,5,141,-76,32,1
12000,210,5,141,-79,30,0
12005,211,6,138,-84,30,1
12010,211,5,139,-87,30,0
12015,212,5,139,-88,32,1
12020,208,6,141,-87,33,1
12025,211,6,138,-84,34,0
12030,210,8,141,-81,37,-1
12035,208,7,138,-77,37,0
12040,209,0,133,-73,37,1
12045,208,6,139,-72,36,1
12050,210,7,140,-70,36,1
12055,212,4,138,-70,35,1
12060,210,0,134,-70,32,1
12065,209,2,136,-71,29,2
12070,210,6,141,-69,26,2
12075,212,2,140,-67,24,2
12080,209,0,140,-66,23,2
12085,210,5,138,-65,23,1
12090,209,2,139,-66,23,0
12095,210,7,137,-64,24,1
12100,212,4,139,-67,27,0
12105,213,1,138,-66,28,2
12110,211,3,140,-65,28,1
12115,211,2,139,-66,28,2
12120,209,2,138,-66,29,1
12125,208,5,136,-66,30,0
12130,208,5,137,-65,29,1
12135,211,2,139,-65,28,3
12140,208,3,139,-63,27,2
12145,206,4,134,-61,25,2
12150,212,2,138,-59,26,3
12155,210,1,136,-58,26,1
12160,208,7,139,-55,24,1
12165,209,6,136,-54,23,1
12170,210,1,136,-52,24,1
12175,211,3,137,-51,23,1
12180,209,3,132,-50,26,0
12185,210,5,138,-53,29,-2
12190,209,6,136,-54,31,-3
12195,213,8,129,-58,32,-3
12200,211,3,136,-64,36,-3
12205,209,3,136,-71,38,-4
12210,210,4,138,-76,41,-3
12215,210,1,134,-81,41,-2
12220,212,2,135,-82,44,-1
12225,214,3,136,-81,45,-1
12230,209,2,139,-78,45,1
12235,212,1,132,-74,44,4
12240,212,2,138,-69,41,5
12245,210,1,136,-64,38,4
12250,212,2,135,-62,35,3
12255,209,0,137,-61,33,3
12260,211,-1,138,-61,32,1
12265,210,4,138,-63,32,2
12270,212,-1,135,-65,32,2
12275,211,-1,137,-67,31,3
12280,214,3,137,-67,30,4
12285,213,-1,138,-65,31,5
12290,212,-3,139,-61,32,6
12295,212,-1,134,-56,34,4
12300,212,-1,137,-53,36,4
12305,212,0,134,-48,37,3
12310,210,1,136,-47,39,0
12315,210,1,137,-45,39,-1
12320,213,-2,134,-43,38,-5
12325,214,-3,139,-40,33,-3
12330,213,-1,135,-37,29,-5
12335,213,-6,138,-33,29,-4
12340,211,-4,134,-26,29,-6
12345,212,-3,135,-22,28,-7
12350,210,0,136,-20,32,-7
12355,210,0,134,-22,36,-7
12360,208,3,132,-26,40,-7
12365,209,1,140,-35,43,-6
12370,210,-2,139,-46,47,-4
12375,211,0,140,-56,47,-3
12380,208,2,139,-66,49,-1
12385,208,-3,137,-70,51,0
12390,211,-1,137,-73,49,2
12395,213,-3,136,-71,49,3
12400,211,-2,135,-67,48,2
12405,212,-3,135,-63,48,1
12410,211,0,136,-57,43,2
12415,214,0,132,-54,40,3
12420,215,-2,133,-51,38,1
12425,217,-3,136,-50,34,1
12430,216,-2,135,-47,32,0
12435,214,-2,134,-43,31,-2
12440,215,-1,133,-39,25,-4
12445,213,0,132,-37,24,-4
12450,216,2,130,-33,24,-4
12455,216,3,130,-29,25,-4
12460,213,1,133,-26,28,-5
12465,214,3,133,-24,31,-4
12470,213,-2,134,-25,33,-4
12475,216,5,139,-27,35,-2
12480,211,1,129,-32,37,-1
12485,212,0,134,-37,42,-1
12490,215,2,132,-42,44,3
12495,213,-1,129,-47,47,3
12500,215,-2,133,-50,50,4
12505,214,4,130,-51,49,4
12510,210,5,137,-53,49,6
12515,213,0,136,-54,51,7
12520,211,0,133,-51,52,8
12525,212,-1,134,-50,52,9
12530,211,0,129,-49,50,10
12535,213,4,134,-51,51,11
12540,214,-2,131,-51,49,10
12545,214,0,135,-50,49,10
12550,211,-2,136,-48,50,10
12555,215,-5,129,-41,47,13
12560,215,-1,131,-40,47,9
12565,215,0,133,-41,47,5
12570,211,0,134,-46,47,1
12575,215,-1,136,-50,45,-1
12580,212,-2,134,-55,43,-2
12585,214,-2,136,-58,41,-2
12590,212,0,132,-57,41,-2
12595,214,-3,134,-53,42,-4
12600,213,-1,132,-52,43,-4
12605,215,-2,130,-48,45,-5
12610,212,-1,134,-47,45,-6
12615,214,0,132,-47,46,-6
12620,214,-3,135,-46,49,-9
12625,212,-3,133,-42,50,-7
12630,213,-6,138,-39,52,-9
12635,213,-3,135,-37,51,-9
12640,210,-1,138,-37,49,-8
12645,213,3,135,-40,48,-8
12650,212,0,135,-45,47,-7
12655,211,0,135,-48,48,-6
12660,211,0,135,-53,45,-8
12665,209,-3,137,-55,43,-9
12670,212,-4,132,-54,40,-9
12675,213,-5,138,-49,35,-9
12680,213,-3,130,-44,32,-8
12685,211,-1,133,-39,31,-9
12690,207,-3,134,-37,26,-11
12695,213,-2,134,-34,26,-11
12700,211,-4,133,-34,24,-8
12705,212,-2,136,-32,27,-9
12710,212,-2,131,-29,26,-6
12715,216,-3,130,-28,28,-6
12720,214,2,133,-25,31,-7
12725,213,0,131,-25,35,-5
12730,214,2,129,-25,39,-7
12735,214,-3,130,-29,40,-8
12740,215,-2,128,-32,43,-8
12745,216,1,130,-31,43,-4
12750,217,-2,132,-28,46,-3
12755,213,-1,132,-25,46,-2
12760,216,-1,132,-25,46,0
12765,216,-2,128,-22,45,2
12770,217,-2,132,-22,44,2
12775,217,2,132,-19,44,2
12780,214,-1,131,-19,45,-1
12785,214,-2,130,-18,44,0
12790,214,0,129,-17,44,-1
12795,214,0,131,-16,43,-2
12800,214,-2,130,-15,45,-2
12805,210,-2,132,-12,47,-3
12810,214,1,129,-9,48,-5
12815,214,-3,130,-6,50,-5
12820,216,-3,131,-5,53,-5
12825,212,0,130,-6,56,-5
12830,215,-2,127,-9,59,-5
12835,214,-3,127,-14,64,-5
12840,217,4,132,-19,67,-6
12845,218,-3,133,-22,70,-5
12850,215,-2,127,-26,72,-5
12855,213,-2,128,-26,76,-1
12860,214,-3,131,-26,75,0
12865,215,-3,131,-23,75,0
12870,212,-3,129,-20,77,0
12875,215,-4,128,-15,76,1
12880,212,-2,131,-12,74,0
12885,213,-5,130,-10,73,-2
12890,213,-1,132,-9,73,-3
12895,212,-3,131,-10,71,-4
12900,214,-2,135,-11,72,-5
12905,217,-8,130,-12,74,-7
12910,213,-5,133,-11,74,-7
12915,214,-4,132,-8,75,-6
12920,215,-4,135,-4,76,-5
12925,215,0,132,-1,78,-3
12930,216,-5,129,2,81,-5
12935,217,1,127,4,82,-5
12940,218,-3,132,5,85,-5
12945,218,0,130,8,86,-4
12950,218,-2,126,11,90,-4
12955,218,-3,128,11,94,-5
12960,216,-2,129,12,95,-6
12965,214,-1,129,12,98,-7
12970,214,-1,131,12,100,-6
12975,214,1,131,12,103,-7
12980,214,1,132,13,104,-6
12985,215,-1,135,14,103,-6
12990,211,0,127,15,104,-4
12995,213,0,136,13,100,-3
13000,213,-1,135,6,98,-3
13005,213,-2,133,-3,97,-2
13010,211,-1,136,-14,97,-2
13015,214,-4,134,-26,96,-2
13020,209,-4,140,-35,93,-2
13025,208,-1,134,-41,94,-1
13030,211,-2,138,-41,93,0
13035,212,-4,134,-37,92,2
13040,211,-4,135,-32,90,2
13045,211,-3,133,-26,88,0
13050,215,-1,134,-21,84,-2
13055,215,-4,135,-16,81,-2
13060,217,-4,135,-10,78,-3
13065,215,-3,130,-5,76,-3
13070,215,-1,131,-1,73,-4
13075,213,-3,131,4,70,-3
13080,215,-4,134,9,69,-3
13085,211,0,131,13,68,-3
13090,214,-1,133,13,70,-5
13095,210,1,133,11,69,-3
13100,214,-2,133,9,70,-3
13105,212,-2,138,6,72,-3
13110,212,-1,132,3,72,-1
13115,217,-1,134,1,74,0
13120,214,1,136,-1,73,2
13125,210,4,123,-1,72,3
13130,213,-3,136,-2,69,2
13135,214,-4,133,-1,66,1
13140,212,1,133,-2,63,1
13145,212,2,130,-1,62,3
13150,211,0,131,-1,60,2
13155,215,0,132,0,59,0
13160,212,-3,132,1,58,0
13165,213,0,135,-1,59,1
13170,210,2,133,-2,63,1
13175,215,-5,142,-4,65,2
13180,214,-2,133,-8,68,2
13185,214,-1,131,-11,70,1
13190,215,-2,131,-14,70,0
13195,213,0,132,-16,71,1
13200,213,-1,131,-17,72,2
13205,213,0,132,-16,71,3
13210,215,1,131,-18,69,5
13215,214,2,133,-17,68,6
13220,215,0,129,-16,67,4
13225,212,0,130,-15,63,6
13230,213,-4,129,-19,62,5
13235,210,-7,134,-23,61,6
13240,214,0,134,-25,62,5
13245,214,-3,131,-25,65,4
13250,212,-2,131,-24,68,5
13255,212,-1,131,-24,71,5
13260,211,-2,133,-21,73,4
13265,214,-3,132,-16,76,5
13270,214,-1,133,-12,77,1
13275,215,-2,130,-10,78,3
13280,213,-5,133,-10,79,2
13285,214,-1,135,-12,80,0
13290,213,-1,130,-17,80,-2
13295,213,-3,131,-21,82,-4
13300,214,2,133,-25,83,-4
13305,213,-2,132,-28,82,-4
13310,211,-3,136,-29,82,-5
13315,213,-2,137,-29,83,-7
13320,212,-3,133,-29,82,-9
13325,214,-3,135,-29,82,-8
13330,214,-2,132,-27,81,-8
13335,215,-5,133,-24,81,-10
13340,213,-2,136,-23,79,-9
13345,214,-3,132,-22,77,-9
13350,210,-2,135,-21,77,-7
13355,212,-2,131,-22,77,-9
13360,213,-3,132,-22,75,-8
13365,211,-1,136,-24,76,-10
13370,213,0,131,-27,79,-9
13375,214,-1,136,-29,80,-8
13380,214,-3,132,-27,80,-8
13385,213,-4,133,-24,81,-6
13390,212,-3,131,-21,80,-4
13395,214,-3,134,-17,82,-3
13400,212,-5,133,-13,84,-3
13405,214,-4,132,-10,84,-1
13410,212,-2,127,-7,84,-2
13415,212,-2,130,-5,83,-3
13420,214,-2,129,-4,81,-2
13425,211,-2,132,-3,79,-1
13430,213,0,133,-4,79,-1
13435,214,-2,132,-5,78,-2
13440,216,-2,134,-7,77,0
13445,214,2,130,-9,76,-1
13450,216,-3,134,-10,76,0
13455,210,0,131,-9,78,-1
13460,215,-4,130,-10,80,0
13465,214,-2,133,-10,81,0
13470,215,-4,133,-7,79,1
13475,214,-4,134,-4,78,1
13480,214,-4,132,-3,80,2
13485,212,1,130,-4,78,0
13490,212,-1,135,-5,76,-1
13495,211,-1,133,-7,76,-2
13500,208,3,135,-11,76,-1
13505,214,-2,134,-14,77,-3
13510,211,-2,137,-18,78,-4
13515,214,-4,136,-19,79,-4
13520,214,-2,132,-20,82,-4
13525,213,-1,131,-17,82,-4
13530,211,-3,134,-14,82,-3
13535,211,-4,135,-11,84,-2
13540,215,-6,134,-7,83,-1
13545,210,-1,131,-6,82,-1
13550,215,-3,132,-6,84,-1
13555,212,-1,133,-7,84,-2
13560,211,-1,131,-9,83,-3
13565,212,-1,132,-11,83,-3
13570,215,-5,132,-11,82,-3
13575,212,-5,132,-9,81,-1
13580,212,-3,134,-4,79,-1
13585,214,-1,135,-1,77,0
13590,214,1,135,-1,76,-1
13595,211,2,137,-3,72,-2
13600,212,3,135,-8,73,-3
13605,215,0,132,-14,75,-4
13610,213,1,133,-21,76,-6
13615,211,2,139,-23,79,-6
13620,213,-1,132,-22,81,-7
13625,215,-2,132,-19,84,-6
13630,213,-4,131,-15,83,-4
13635,215,-5,134,-9,82,-3
13640,209,-2,131,-2,82,-3
13645,213,-6,132,3,81,-4
13650,212,-5,133,5,78,-3
13655,212,-4,134,4,77,-5
13660,211,-2,136,-1,77,-8
13665,210,-1,135,-9,75,-7
13670,212,7,138,-21,75,-11
13675,208,-1,142,-32,73,-12
13680,210,-1,135,-37,76,-11
13685,212,-2,141,-39,76,-13
13690,212,-1,135,-36,74,-12
13695,211,-2,135,-30,75,-11
13700,213,-3,133,-21,74,-11
13705,212,-2,131,-13,71,-10
13710,217,-6,136,-7,70,-11
13715,213,-3,132,-1,69,-11
13720,210,-3,132,4,68,-11
13725,212,-2,130,10,70,-9
13730,214,-5,128,16,70,-9
13735,212,-2,129,22,73,-9
13740,214,-2,130,26,75,-11
13745,215,-2,136,30,77,-11
13750,214,-2,130,30,79,-13
13755,214,-2,134,29,81,-12
13760,212,1,134,25,83,-12
13765,213,2,133,21,86,-12
13770,215,5,134,18,86,-11
13775,212,1,134,15,91,-10
13780,210,1,133,10,92,-9
13785,211,3,132,6,93,-11
13790,212,0,134,4,94,-7
13795,214,2,134,4,94,-6
13800,211,1,135,5,95,-5
13805,212,-1,133,5,96,-3
13810,212,1,136,7,96,-4
13815,215,-3,133,11,96,-4
13820,211,-3,131,14,96,-3
13825,213,-2,131,16,98,-3
13830,209,1,131,18,99,-2
13835,210,0,133,19,100,-2
13840,212,-1,135,20,99,-3
13845,212,-3,134,22,101,-1
13850,212,0,134,24,101,-1
13855,212,-2,135,24,101,-1
13860,211,-1,135,20,101,-3
13865,213,-2,135,16,100,-2
13870,211,0,138,13,100,0
13875,213,1,133,11,100,1
13880,212,-2,133,11,100,1
13885,213,0,133,11,101,0
13890,214,0,135,11,100,-2
13895,214,-3,135,10,100,-2
13900,215,0,136,10,100,-2
13905,212,-2,135,11,101,0
13910,213,-3,133,15,99,1
13915,212,-4,137,20,100,-1
13920,213,0,134,24,98,-2
13925,212,-2,135,30,97,-4
13930,212,-1,135,35,95,-5
13935,213,-2,134,36,97,-8
13940,213,1,137,38,97,-9
13945,211,4,135,36,99,-11
13950,214,-1,137,33,99,-14
13955,211,0,138,29,101,-13
13960,213,2,137,24,101,-13
13965,210,1,134,18,100,-14
13970,209,7,138,13,98,-14
13975,210,0,138,9,99,-13
13980,210,-3,136,5,97,-13
13985,211,-1,136,3,95,-11
13990,209,0,139,3,94,-11
13995,209,-1,135,3,92,-11
14000,208,1,133,6,90,-9
14005,211,0,140,9,90,-6
14010,212,-2,137,12,89,-4
14015,213,-5,138,15,90,-5
14020,209,1,134,16,90,-5
14025,211,-3,135,17,93,-6
14030,210,0,135,15,94,-7
14035,213,-1,137,13,95,-8
14040,210,0,136,10,96,-8
14045,211,2,137,7,94,-9
14050,212,2,134,3,93,-8
14055,211,1,135,1,91,-8
14060,209,0,138,0,92,-8
14065,209,4,136,1,90,-9
14070,212,3,136,4,89,-8
14075,211,3,139,6,88,-7
14080,212,-3,137,10,86,-7
14085,213,-1,138,13,86,-5
14090,212,-1,138,16,88,-4
14095,212,-1,138,18,88,-4
14100,213,1,135,19,88,-4
14105,210,1,141,19,88,-4
14110,209,3,141,17,86,-6
14115,214,-1,137,16,87,-5
14120,208,2,140,15,85,-4
14125,213,5,136,16,83,-5
14130,213,1,135,16,82,-5
14135,211,1,136,16,82,-4
14140,210,4,135,17,82,-6
14145,210,0,133,16,82,-5
14150,212,3,137,17,84,-5
14155,210,2,142,16,84,-6
14160,212,1,135,16,86,-7
14165,212,3,136,15,88,-7
14170,210,-1,136,13,89,-7
14175,210,1,139,10,91,-6
14180,210,0,135,8,91,-5
14185,212,5,138,7,91,-5
14190,210,0,135,6,90,-3
14195,212,-1,136,6,90,-3
14200,211,-1,138,5,89,-3
14205,209,0,137,5,88,-3
14210,208,0,139,3,87,-4
14215,211,1,137,2,85,-4
14220,211,-1,139,3,85,-4
14225,211,2,139,5,86,-4
14230,211,0,140,9,84,-3
14235,214,0,139,16,80,0
14240,211,1,136,19,77,0
14245,211,6,141,19,75,-2
14250,213,8,136,17,73,-3
14255,214,2,133,12,74,-7
14260,210,5,134,9,75,-7
14265,214,1,137,4,75,-6
14270,211,3,137,5,74,-6
14275,209,6,133,6,75,-3
14280,212,5,138,11,76,-1
14285,212,0,137,19,76,2
14290,213,-1,137,26,75,5
14295,213,-1,140,34,75,4
14300,206,4,138,38,75,4
14305,209,0,141,42,77,2
14310,210,0,138,41,76,1
14315,207,2,142,36,75,-2
14320,211,3,141,27,75,-3
14325,210,6,142,19,77,-4
14330,210,2,138,9,79,-6
14335,208,0,140,5,79,-6
14340,208,1,136,4,80,-7
14345,209,0,139,6,81,-6
14350,210,4,136,7,83,-7
14355,209,5,138,8,81,-7
14360,209,5,138,9,79,-9
14365,208,4,133,13,80,-8
14370,209,2,140,14,81,-8
14375,210,1,139,17,84,-7
14380,211,1,136,20,84,-5
14385,210,0,136,22,84,-5
14390,212,0,138,23,84,-4
14395,210,2,138,25,82,-5
14400,211,7,136,26,80,-4
14405,214,7,135,25,78,-4
14410,210,8,138,26,76,-5
14415,213,2,140,23,73,-6
14420,212,6,132,20,74,-6
14425,209,5,138,17,72,-6
14430,212,5,140,16,72,-5
14435,209,5,133,16,73,-4
14440,210,5,136,13,75,-3
14445,209,6,137,12,77,-2
14450,209,6,137,11,80,-2
14455,209,4,140,12,83,-2
14460,209,6,140,10,85,-2
14465,211,4,139,10,88,-4
14470,207,7,137,8,89,-2
14475,208,5,137,6,87,-2
14480,210,4,138,5,87,-1
14485,215,1,137,5,87,-3
14490,209,6,136,5,88,-3
14495,211,7,140,8,88,-4
14500,208,5,138,10,88,-4
14505,212,3,136,12,87,-4
14510,211,6,136,14,86,-3
14515,213,1,138,15,88,-3
14520,211,1,138,16,87,-4
14525,207,7,136,16,87,-5
14530,208,4,140,15,87,-6
14535,212,3,135,13,86,-5
14540,209,6,139,13,86,-5
14545,206,7,142,9,86,-5
14550,211,3,139,10,89,-6
14555,210,5,138,10,89,-6
14560,212,-1,138,13,90,-7
14565,212,6,140,15,90,-6
14570,212,3,141,19,91,-6
14575,211,5,137,22,89,-4
14580,210,7,140,25,87,-3
14585,211,3,138,26,84,-5
14590,209,4,138,25,86,-6
14595,208,4,139,24,85,-5
14600,209,3,142,20,84,-6
14605,208,4,140,16,81,-6
14610,208,6,138,10,81,-6
14615,210,3,138,7,80,-7
14620,208,6,139,4,82,-8
14625,207,6,143,1,81,-8
14630,209,4,143,0,81,-4
14635,206,6,139,0,80,-3
14640,209,1,137,0,78,-1
14645,208,2,142,1,77,2
14650,206,10,136,3,77,5
14655,208,3,139,4,76,3
14660,211,0,139,5,74,2
14665,209,4,141,5,75,4
14670,209,4,139,3,73,2
14675,211,2,139,3,73,0
14680,208,5,135,2,74,-1
14685,211,1,139,1,75,0
14690,208,6,137,1,75,-2
14695,211,2,139,2,76,-5
14700,205,7,136,3,79,-6
14705,210,2,135,7,80,-5
14710,209,7,139,8,80,-5
14715,209,4,138,10,80,-7
14720,210,4,139,10,82,-8
14725,209,4,140,11,83,-9
14730,210,2,136,11,83,-9
14735,206,5,138,11,84,-9
14740,207,3,137,9,85,-11
14745,209,2,138,9,86,-11
14750,210,4,137,8,89,-10
14755,211,4,140,9,90,-11
14760,202,7,134,9,92,-9
14765,208,6,134,10,93,-10
14770,209,3,134,8,96,-10
14775,209,4,138,8,99,-10
14780,211,5,137,7,102,-11
14785,208,8,138,4,103,-12
14790,212,3,139,4,102,-10
14795,210,7,140,3,103,-7
14800,210,8,139,3,102,-4
14805,210,4,141,3,99,-5
14810,208,7,141,5,97,-4
14815,208,4,140,6,95,-4
14820,209,3,139,6,93,-5
14825,210,2,138,7,94,-5
14830,209,2,138,8,95,-4
14835,210,5,138,9,93,-4
14840,207,7,139,9,95,-6
14845,210,8,143,8,97,-8
14850,207,7,140,5,96,-7
14855,207,7,140,1,97,-10
14860,208,8,142,-1,98,-10
14865,207,5,141,-4,100,-10
14870,203,4,139,-7,100,-10
14875,207,6,144,-7,103,-10
14880,208,7,139,-6,102,-9
14885,208,6,138,-2,103,-5
14890,208,6,140,0,102,-3
14895,210,3,143,5,99,-1
14900,207,6,138,6,95,0
14905,209,6,137,6,91,-2
14910,208,5,142,5,88,-3
14915,208,6,143,4,85,-5
14920,208,4,141,4,84,-4
14925,211,2,138,7,84,-4
14930,211,2,139,11,83,-2
14935,206,5,140,17,82,0
14940,211,2,137,23,80,-1
14945,211,6,139,28,81,-1
14950,206,8,141,31,80,-2
14955,211,8,139,28,81,-5
14960,210,9,140,25,81,-8
14965,211,9,139,21,84,-9
14970,209,9,137,16,85,-10
14975,209,8,140,13,85,-10
14980,208,6,142,13,85,-8
14985,211,5,138,13,87,-7
14990,209,5,138,16,85,-5
14995,208,5,142,18,85,-4
