timestamp,acc_x,acc_y,acc_z,gyro_x,gyro_y,gyro_z
0,10,-233,-84,61,-48,-17
5,5,-232,-90,61,-47,-17
10,8,-233,-84,64,-45,-16
15,11,-239,-88,64,-45,-17
20,4,-229,-92,65,-45,-17
25,16,-234,-92,66,-45,-18
30,6,-230,-89,66,-45,-17
35,8,-232,-83,68,-45,-17
40,8,-230,-86,69,-45,-17
45,5,-234,-82,73,-47,-17
50,3,-228,-86,75,-48,-18
55,7,-232,-83,75,-49,-15
60,5,-230,-83,77,-49,-18
65,9,-237,-84,79,-49,-15
70,10,-230,-88,78,-48,-15
75,7,-231,-85,79,-49,-13
80,6,-234,-89,77,-48,-13
85,8,-231,-90,75,-48,-14
90,7,-229,-86,73,-47,-14
95,7,-228,-85,69,-49,-15
100,4,-227,-88,65,-49,-15
105,5,-231,-84,60,-50,-15
110,4,-229,-84,56,-50,-15
115,3,-229,-81,53,-51,-14
120,7,-232,-84,50,-52,-16
125,4,-232,-86,48,-52,-18
130,6,-233,-83,47,-52,-16
135,10,-234,-85,46,-53,-18
140,8,-229,-86,45,-53,-20
145,7,-235,-86,45,-54,-20
150,10,-234,-87,44,-52,-19
155,8,-230,-85,42,-49,-19
160,9,-236,-86,41,-50,-18
165,8,-231,-90,39,-47,-18
170,8,-233,-87,40,-44,-18
175,11,-233,-90,41,-41,-19
180,7,-227,-85,42,-38,-17
185,5,-229,-86,43,-35,-18
190,9,-234,-82,43,-33,-19
195,10,-233,-85,44,-29,-19
200,11,-234,-82,43,-29,-19
205,9,-235,-85,41,-25,-20
210,8,-236,-82,40,-26,-20
215,9,-235,-84,39,-24,-20
220,8,-233,-84,37,-23,-20
225,5,-233,-86,37,-21,-19
230,7,-233,-87,36,-19,-17
235,7,-230,-84,36,-19,-18
240,7,-230,-85,37,-17,-19
245,9,-233,-86,38,-17,-17
250,9,-231,-87,38,-14,-17
255,9,-231,-82,39,-13,-16
260,12,-235,-81,40,-11,-15
265,9,-233,-83,39,-8,-14
270,6,-232,-84,38,-7,-13
275,8,-232,-80,37,-7,-14
280,9,-228,-84,38,-7,-12
285,9,-229,-86,37,-6,-11
290,11,-228,-79,36,-6,-11
295,7,-231,-89,36,-5,-10
300,12,-230,-84,38,-3,-9
305,10,-231,-83,40,-1,-8
310,11,-230,-83,41,1,-8
315,7,-227,-83,42,2,-10
320,8,-230,-80,43,3,-9
325,9,-228,-82,43,6,-6
330,7,-230,-80,44,8,-6
335,8,-228,-82,44,8,-5
340,8,-229,-81,44,9,-4
345,8,-227,-79,46,9,-3
350,8,-230,-79,45,8,-3
355,8,-227,-81,45,6,-1
360,6,-229,-81,42,6,-1
365,12,-230,-74,42,3,1
370,9,-226,-77,41,0,4
375,11,-224,-79,40,-2,6
380,11,-225,-77,41,-5,7
385,13,-226,-80,40,-9,9
390,9,-224,-78,37,-12,11
395,11,-222,-76,34,-16,13
400,8,-223,-80,31,-20,16
405,9,-220,-73,27,-25,16
410,8,-229,-76,23,-27,19
415,10,-229,-77,20,-30,20
420,10,-232,-72,15,-33,21
425,10,-234,-74,13,-35,22
430,9,-236,-76,9,-40,22
435,9,-234,-74,5,-43,23
440,7,-238,-76,4,-46,23
445,8,-241,-77,4,-48,22
450,8,-239,-72,4,-52,23
455,7,-242,-69,7,-54,22
460,4,-232,-68,8,-58,22
465,5,-240,-76,11,-61,23
470,7,-238,-75,16,-63,21
475,5,-239,-73,20,-65,18
480,7,-241,-69,22,-65,16
485,5,-236,-72,25,-64,14
490,8,-237,-70,28,-65,11
495,4,-237,-75,32,-64,9
500,3,-231,-73,35,-63,4
505,6,-236,-72,39,-62,1
510,6,-235,-74,42,-59,0
515,7,-234,-72,43,-59,-4
520,8,-233,-72,42,-60,-5
525,15,-237,-73,40,-59,-6
530,13,-232,-73,38,-57,-8
535,17,-235,-70,36,-56,-10
540,14,-236,-73,34,-55,-10
545,14,-240,-69,33,-55,-9
550,14,-236,-71,33,-54,-11
555,12,-238,-75,33,-54,-13
560,16,-241,-72,33,-55,-16
565,9,-233,-74,31,-55,-17
570,13,-235,-72,33,-56,-20
575,14,-234,-67,33,-56,-25
580,12,-230,-72,35,-58,-29
585,10,-233,-73,37,-59,-35
590,11,-227,-74,40,-61,-40
595,11,-227,-76,42,-63,-47
600,9,-227,-75,42,-66,-52
605,9,-224,-72,41,-67,-57
610,8,-223,-74,43,-70,-63
615,11,-221,-73,44,-73,-70
620,10,-225,-77,46,-76,-78
625,8,-220,-75,49,-78,-84
630,4,-221,-76,52,-82,-92
635,5,-223,-73,51,-86,-100
640,6,-223,-73,47,-89,-104
645,5,-225,-68,43,-87,-112
650,6,-226,-74,40,-87,-117
655,5,-224,-73,36,-88,-125
660,8,-231,-72,32,-89,-131
665,10,-227,-72,28,-91,-136
670,11,-227,-78,26,-95,-141
675,10,-223,-80,27,-98,-145
680,9,-225,-73,26,-103,-153
685,11,-225,-73,23,-108,-157
690,10,-223,-72,18,-116,-160
695,10,-223,-75,10,-125,-167
700,8,-221,-73,4,-137,-170
705,5,-221,-73,-6,-147,-174
710,3,-222,-73,-12,-157,-183
715,1,-217,-79,-18,-167,-188
720,0,-214,-76,-25,-180,-195
725,-1,-210,-77,-28,-198,-202
730,-8,-211,-81,-34,-223,-210
735,-11,-206,-80,-41,-249,-214
740,-17,-203,-81,-48,-276,-219
745,-20,-204,-83,-53,-301,-221
750,-26,-203,-84,-59,-322,-225
755,-29,-201,-82,-68,-337,-229
760,-29,-203,-83,-83,-349,-229
765,-34,-206,-86,-106,-356,-231
770,-32,-206,-82,-138,-360,-234
775,-33,-207,-83,-174,-363,-238
780,-33,-215,-75,-209,-364,-241
785,-32,-215,-85,-243,-367,-241
790,-32,-223,-80,-278,-375,-239
795,-32,-225,-84,-310,-384,-235
800,-30,-232,-87,-342,-397,-228
805,-34,-237,-81,-372,-408,-217
810,-32,-239,-83,-403,-413,-206
815,-32,-244,-78,-433,-414,-189
820,-31,-249,-77,-463,-408,-172
825,-25,-255,-77,-491,-397,-154
830,-16,-263,-74,-517,-380,-133
835,-6,-274,-71,-542,-360,-111
840,-4,-276,-72,-562,-333,-84
845,3,-286,-74,-581,-302,-62
850,13,-295,-74,-600,-271,-39
855,24,-302,-82,-616,-241,-17
860,32,-311,-80,-629,-216,7
865,33,-312,-82,-634,-195,29
870,40,-320,-87,-631,-181,52
875,44,-322,-89,-623,-172,72
880,43,-328,-94,-605,-167,92
885,42,-329,-86,-574,-168,115
890,38,-326,-89,-531,-168,138
895,33,-324,-92,-482,-165,163
900,30,-321,-94,-431,-156,187
905,30,-318,-98,-384,-144,207
910,23,-313,-95,-341,-129,222
915,20,-308,-94,-302,-114,233
920,20,-304,-90,-270,-97,245
925,17,-296,-92,-245,-81,257
930,9,-291,-87,-228,-62,268
935,7,-283,-88,-203,-51,276
940,4,-277,-87,-183,-38,280
945,0,-267,-98,-173,-21,284
950,0,-262,-89,-171,-4,285
955,1,-260,-81,-175,13,287
960,0,-255,-91,-182,28,284
965,1,-251,-86,-189,43,284
970,-3,-248,-88,-200,55,279
975,-1,-241,-86,-211,67,273
980,-7,-234,-87,-230,76,268
985,-9,-234,-84,-251,81,261
990,-15,-229,-93,-270,83,253
995,-19,-228,-84,-291,83,247
1000,-16,-234,-81,-309,83,242
1005,-23,-232,-79,-323,81,236
1010,-23,-236,-75,-337,81,227
1015,-24,-240,-76,-352,79,217
1020,-25,-244,-72,-363,74,205
1025,-23,-251,-65,-369,71,195
1030,-23,-252,-63,-372,69,182
1035,-24,-251,-65,-364,68,167
1040,-21,-251,-57,-347,68,152
1045,-17,-253,-57,-322,68,134
1050,-12,-251,-49,-288,69,114
1055,-15,-249,-56,-247,76,97
1060,-10,-244,-49,-198,88,80
1065,-7,-239,-45,-145,106,61
1070,0,-235,-39,-88,131,42
1075,1,-229,-35,-29,163,24
1080,9,-222,-33,30,202,6
1085,15,-216,-27,87,248,-14
1090,19,-215,-22,144,299,-32
1095,28,-205,-20,198,349,-49
1100,32,-200,-19,250,397,-65
1105,40,-197,-12,301,442,-80
1110,44,-191,-10,349,481,-93
1115,54,-187,-7,400,516,-108
1120,60,-177,-1,455,549,-124
1125,62,-169,-3,515,575,-136
1130,59,-158,-2,575,600,-151
1135,60,-150,-4,633,621,-162
1140,54,-144,2,683,643,-170
1145,51,-134,-3,735,670,-176
1150,43,-125,-4,783,704,-180
1155,35,-116,-6,826,739,-182
1160,29,-103,-16,863,778,-184
1165,28,-92,-21,886,808,-182
1170,21,-77,-36,895,822,-179
1175,11,-64,-47,883,820,-170
1180,0,-52,-67,841,795,-147
1185,-6,-36,-89,759,749,-114
1190,-12,-30,-102,637,694,-74
1195,-25,-20,-124,474,628,-29
1200,-25,-17,-150,285,557,17
1205,-45,-13,-175,72,488,61
1210,-63,-8,-207,-166,416,102
1215,-60,-4,-221,-438,335,145
1220,-57,-26,-242,-744,247,179
1225,-55,-53,-267,-1063,145,204
1230,-61,-95,-289,-1385,18,228
1235,-62,-140,-315,-1685,-131,248
1240,-59,-184,-314,-1936,-293,266
1245,-58,-241,-301,-2094,-454,268
1250,-46,-302,-263,-2118,-617,256
1255,-39,-370,-215,-1974,-770,232
1260,-28,-411,-193,-1690,-899,195
1265,-12,-454,-176,-1317,-969,148
1270,8,-474,-179,-934,-973,101
1275,31,-484,-188,-618,-923,56
1280,32,-486,-193,-419,-840,29
1285,30,-484,-198,-334,-740,14
1290,27,-480,-200,-313,-618,4
1295,26,-471,-196,-305,-483,-14
1300,22,-454,-199,-281,-339,-48
1305,17,-434,-193,-238,-203,-104
1310,19,-413,-189,-183,-86,-174
1315,11,-379,-187,-121,7,-251
1320,11,-353,-173,-56,72,-323
1325,10,-332,-158,6,102,-384
1330,5,-314,-153,60,100,-428
1335,2,-308,-152,97,75,-452
1340,-2,-303,-152,102,40,-459
1345,-1,-302,-152,69,6,-451
1350,-2,-306,-153,15,-24,-436
1355,3,-303,-148,-43,-47,-425
1360,7,-300,-148,-95,-64,-423
1365,20,-295,-143,-138,-73,-426
1370,30,-295,-135,-176,-80,-442
1375,32,-287,-132,-205,-87,-464
1380,41,-283,-129,-222,-95,-491
1385,40,-276,-127,-230,-100,-518
1390,38,-271,-122,-229,-106,-539
1395,31,-269,-119,-228,-113,-554
1400,24,-266,-117,-227,-126,-563
1405,13,-263,-106,-213,-143,-568
1410,7,-259,-103,-188,-165,-566
1415,3,-256,-98,-148,-184,-557
1420,-2,-249,-88,-100,-196,-542
1425,-14,-237,-74,-53,-202,-523
1430,-15,-230,-67,-6,-201,-497
1435,-16,-218,-64,41,-189,-467
1440,-19,-201,-52,81,-167,-429
1445,-9,-190,-43,114,-140,-390
1450,-9,-177,-35,135,-109,-347
1455,-2,-165,-29,149,-83,-306
1460,0,-157,-29,150,-62,-268
1465,4,-155,-21,138,-50,-232
1470,8,-150,-20,119,-46,-198
1475,7,-143,-7,101,-52,-168
1480,5,-142,-9,92,-65,-134
1485,4,-142,1,98,-84,-99
1490,6,-137,-9,120,-112,-66
1495,10,-135,-14,155,-143,-33
1500,10,-128,-13,201,-175,-5
1505,11,-125,-12,260,-205,16
1510,11,-119,-10,327,-234,26
1515,5,-114,-6,390,-260,34
1520,2,-110,-8,443,-285,38
1525,1,-100,-10,490,-310,45
1530,0,-98,-10,537,-333,54
1535,-3,-89,-4,588,-356,67
1540,-13,-89,-4,642,-378,80
1545,-9,-87,0,698,-403,92
1550,-8,-84,0,755,-431,102
1555,-14,-82,3,807,-460,106
1560,-15,-83,4,857,-495,109
1565,-17,-75,-6,889,-523,109
1570,-22,-62,-34,882,-535,110
1575,-26,-50,-73,804,-532,102
1580,-27,-35,-119,638,-511,80
1585,-25,-31,-163,390,-470,50
1590,3,-33,-228,67,-410,27
1595,25,-46,-291,-315,-330,5
1600,62,-73,-342,-713,-241,-9
1605,83,-100,-357,-1069,-149,-30
1610,97,-133,-351,-1310,-56,-52
1615,105,-187,-306,-1385,37,-80
1620,103,-255,-243,-1291,116,-113
1625,80,-322,-191,-1067,172,-141
1630,47,-367,-157,-794,200,-153
1635,16,-393,-145,-523,217,-150
1640,-15,-434,-147,-288,235,-137
1645,-29,-457,-163,-112,269,-125
1650,-32,-481,-177,-4,328,-124
1655,-33,-480,-186,48,395,-128
1660,-28,-471,-202,65,442,-124
1665,-24,-449,-217,72,447,-115
1670,-22,-415,-232,82,397,-99
1675,-11,-385,-249,99,307,-85
1680,3,-353,-258,137,200,-88
1685,15,-331,-258,198,96,-99
1690,40,-307,-251,261,16,-105
1695,58,-301,-244,313,-37,-104
1700,71,-304,-216,342,-67,-93
1705,79,-304,-215,335,-76,-69
1710,79,-317,-205,295,-60,-40
1715,72,-322,-195,239,-32,-10
1720,65,-327,-193,178,4,18
1725,56,-330,-193,125,37,43
1730,43,-327,-193,88,65,76
1735,31,-325,-192,64,86,110
1740,18,-318,-190,61,98,149
1745,7,-310,-185,75,102,186
1750,-5,-300,-175,99,99,216
1755,-13,-297,-171,121,88,245
1760,-18,-284,-159,143,73,264
1765,-20,-271,-147,160,57,275
1770,-23,-260,-135,169,42,281
1775,-26,-250,-128,168,31,284
1780,-26,-240,-123,157,26,281
1785,-21,-232,-115,143,23,273
1790,-20,-220,-100,126,26,259
1795,-17,-208,-99,108,34,241
1800,-20,-198,-93,93,44,220
1805,-20,-194,-85,76,51,198
1810,-7,-193,-82,61,53,174
1815,-11,-178,-71,51,49,153
1820,-13,-171,-61,45,42,134
1825,-15,-165,-57,45,32,123
1830,-15,-163,-47,55,14,114
1835,-17,-159,-40,80,0,109
1840,-12,-161,-36,110,-9,105
1845,-7,-158,-37,144,-3,103
1850,1,-148,-43,178,19,94
1855,7,-143,-41,216,54,88
1860,19,-135,-47,255,104,75
1865,25,-129,-43,291,158,61
1870,30,-122,-38,334,213,44
1875,29,-114,-32,386,261,22
1880,35,-107,-29,448,298,0
1885,38,-96,-27,523,319,-27
1890,36,-85,-35,594,323,-48
1895,30,-74,-40,645,307,-59
1900,33,-63,-44,673,274,-68
1905,32,-58,-49,683,234,-75
1910,30,-46,-56,681,203,-85
1915,16,-35,-54,671,187,-90
1920,15,-35,-55,659,191,-91
1925,5,-34,-49,648,218,-85
1930,0,-29,-41,640,266,-74
1935,-7,-21,-36,635,328,-64
1940,-3,-19,-34,624,393,-56
1945,-3,-12,-36,593,442,-51
1950,-4,-11,-53,520,463,-41
1955,-3,-12,-69,382,449,-19
1960,-8,-19,-90,169,411,21
1965,-11,-33,-112,-90,347,69
1970,-8,-55,-133,-369,252,109
1975,1,-78,-177,-655,122,136
1980,9,-99,-215,-951,-44,156
1985,16,-129,-267,-1258,-242,170
1990,15,-159,-293,-1528,-438,179
1995,0,-194,-281,-1680,-605,185
2000,-22,-239,-250,-1668,-728,189
2005,-20,-283,-221,-1508,-809,196
2010,-8,-346,-205,-1256,-861,207
2015,11,-405,-209,-989,-903,207
2020,7,-461,-231,-725,-945,210
2025,-18,-495,-255,-469,-978,209
2030,-42,-507,-265,-236,-981,194
2035,-73,-505,-265,-47,-943,166
2040,-103,-490,-258,74,-878,108
2045,-116,-466,-256,134,-789,17
2050,-124,-436,-245,159,-679,-105
2055,-121,-409,-241,171,-569,-228
2060,-107,-389,-241,174,-481,-336
2065,-88,-375,-233,173,-415,-416
2070,-55,-372,-231,181,-374,-466
2075,-34,-360,-226,202,-350,-497
2080,-14,-361,-217,235,-341,-511
2085,9,-358,-207,272,-342,-513
2090,32,-350,-194,305,-346,-502
2095,52,-342,-179,323,-336,-480
2100,75,-335,-171,328,-311,-445
2105,92,-327,-166,316,-272,-407
2110,109,-322,-156,286,-225,-366
2115,116,-309,-159,251,-176,-334
2120,125,-295,-155,216,-122,-307
2125,128,-288,-153,190,-62,-290
2130,127,-287,-138,178,-3,-280
2135,121,-278,-143,175,56,-282
2140,108,-266,-134,182,115,-292
2145,96,-258,-124,197,171,-307
2150,82,-248,-116,215,220,-321
2155,74,-241,-109,235,259,-334
2160,60,-229,-96,250,287,-339
2165,55,-218,-81,259,306,-336
2170,41,-204,-72,265,311,-325
2175,29,-196,-64,274,306,-304
2180,17,-189,-60,277,292,-273
2185,8,-181,-41,279,277,-233
2190,0,-177,-28,283,263,-189
2195,-13,-172,-21,296,252,-141
2200,-20,-167,-14,311,240,-92
2205,-21,-161,-7,335,228,-42
2210,-24,-155,-6,378,211,3
2215,-31,-140,-9,433,186,49
2220,-29,-129,-12,505,155,95
2225,-29,-125,-9,598,121,138
2230,-23,-117,-9,697,83,178
2235,-20,-103,-11,801,46,211
2240,-11,-92,-9,898,9,237
2245,-6,-83,-9,979,-26,252
2250,0,-78,-11,1039,-56,257
2255,3,-70,-12,1068,-89,253
2260,5,-63,-19,1072,-123,246
2265,6,-55,-22,1056,-159,238
2270,4,-43,-25,1026,-191,230
2275,4,-33,-26,994,-224,225
2280,0,-22,-29,965,-257,220
2285,1,-21,-25,946,-289,213
2290,0,-12,-20,938,-323,206
2295,-3,-7,-15,939,-356,194
2300,-4,0,-19,938,-386,185
2305,0,1,-31,923,-417,170
2310,0,4,-50,869,-433,157
2315,-9,7,-75,749,-440,139
2320,-9,8,-104,558,-443,108
2325,-5,4,-125,303,-444,76
2330,2,-6,-163,-7,-430,48
2335,31,-20,-221,-364,-395,17
2340,67,-49,-301,-772,-328,-21
2345,93,-93,-356,-1207,-214,-69
2350,103,-132,-359,-1580,-41,-131
2355,102,-190,-310,-1776,167,-198
2360,82,-241,-243,-1748,340,-260
2365,55,-295,-182,-1576,450,-311
2370,17,-358,-137,-1370,465,-337
2375,-6,-412,-125,-1166,462,-329
2380,-32,-477,-130,-964,474,-298
2385,-47,-509,-169,-751,502,-266
2390,-48,-509,-200,-554,518,-241
2395,-37,-491,-224,-391,507,-211
2400,-30,-474,-235,-264,466,-169
2405,-23,-464,-234,-191,399,-117
2410,-11,-451,-229,-157,310,-59
2415,7,-446,-227,-133,206,-5
2420,32,-430,-224,-58,108,42
2425,43,-419,-228,56,31,74
2430,51,-395,-221,197,-24,102
2435,60,-377,-207,324,-62,133
2440,62,-365,-200,409,-82,167
2445,58,-357,-188,433,-88,200
2450,60,-363,-183,405,-83,232
2455,59,-368,-167,342,-79,249
2460,54,-365,-160,259,-81,251
2465,49,-357,-160,175,-77,243
2470,45,-349,-150,106,-69,236
2475,35,-333,-153,61,-52,234
2480,27,-322,-155,27,-33,244
2485,12,-310,-152,3,-11,259
2490,-3,-291,-153,-8,10,278
2495,-10,-283,-147,-8,26,296
2500,-22,-275,-142,0,34,313
2505,-22,-265,-121,11,35,329
2510,-37,-259,-123,26,27,346
2515,-45,-249,-112,37,15,357
2520,-45,-246,-108,44,-2,365
2525,-41,-240,-103,47,-16,364
2530,-40,-234,-92,45,-24,357
2535,-35,-229,-82,43,-28,345
2540,-31,-223,-74,39,-27,321
2545,-17,-220,-64,47,-24,295
2550,-16,-213,-56,60,-26,266
2555,-8,-207,-51,77,-22,238
2560,-1,-198,-39,103,-9,210
2565,0,-190,-39,141,10,187
2570,0,-178,-36,190,36,167
2575,4,-170,-34,245,64,149
2580,8,-153,-40,297,89,131
2585,15,-138,-38,348,115,111
2590,25,-127,-39,394,141,90
2595,26,-111,-40,427,173,68
2600,35,-104,-37,447,212,43
2605,44,-90,-32,458,257,17
2610,45,-78,-28,468,311,-12
2615,59,-73,-23,492,362,-46
2620,56,-64,-18,530,406,-77
2625,54,-61,-8,569,443,-109
2630,61,-50,-9,608,455,-133
2635,54,-44,-15,639,443,-155
2640,44,-37,-24,657,396,-166
2645,39,-29,-26,661,326,-166
2650,29,-26,-37,646,254,-156
2655,13,-25,-35,610,207,-128
2660,4,-30,-31,559,210,-94
2665,-7,-23,-16,500,262,-55
2670,-3,-21,-9,448,358,-15
2675,1,-16,-14,395,476,18
2680,19,-12,-17,327,592,38
2685,26,-4,-40,232,681,54
2690,21,-7,-67,89,717,77
2695,11,-13,-88,-118,692,115
2700,10,-30,-121,-385,615,167
2705,11,-54,-177,-696,493,225
2710,3,-69,-241,-1048,338,294
2715,-8,-88,-321,-1441,154,373
2720,-13,-102,-370,-1840,-35,465
2725,-31,-132,-392,-2171,-201,556
2730,-47,-188,-374,-2338,-304,634
2735,-62,-260,-318,-2295,-342,692
2740,-60,-354,-252,-2068,-331,719
2745,-50,-412,-207,-1715,-302,696
2750,-18,-483,-183,-1311,-266,629
2755,0,-546,-201,-892,-230,539
2760,-9,-568,-252,-466,-196,459
2765,-13,-557,-285,-75,-174,407
2770,-22,-548,-298,229,-173,385
2775,-44,-524,-293,404,-168,365
2780,-64,-510,-283,467,-131,320
2785,-75,-475,-258,496,-60,251
2790,-74,-447,-232,528,22,172
2795,-74,-423,-213,569,105,100
2800,-61,-399,-197,603,180,36
2805,-48,-382,-179,626,238,-23
2810,-35,-368,-174,647,273,-74
2815,-30,-356,-169,663,288,-113
2820,-22,-345,-166,670,296,-137
2825,-2,-334,-153,663,304,-147
2830,11,-324,-152,635,317,-152
2835,24,-313,-141,585,335,-150
2840,42,-302,-133,527,358,-150
2845,51,-297,-130,471,380,-152
2850,64,-286,-124,428,397,-158
2855,68,-277,-126,392,407,-164
2860,75,-272,-125,361,412,-170
2865,82,-264,-115,332,424,-179
2870,83,-259,-113,311,442,-191
2875,81,-253,-108,301,468,-199
2880,77,-247,-98,305,498,-209
2885,75,-239,-86,323,529,-214
2890,72,-233,-79,344,557,-216
2895,65,-226,-73,363,577,-209
2900,54,-210,-64,374,589,-193
2905,44,-195,-58,385,591,-167
2910,35,-187,-48,396,587,-133
2915,28,-180,-38,406,580,-94
2920,20,-169,-29,413,576,-52
2925,8,-163,-22,417,576,-9
2930,3,-154,-9,425,575,31
2935,-1,-146,-3,436,571,68
2940,-7,-135,-1,455,560,108
2945,-7,-128,-7,482,538,143
2950,-11,-114,-10,520,510,179
2955,-13,-96,-16,571,476,217
2960,-10,-82,-17,639,444,255
2965,-9,-69,-19,715,412,295
2970,-9,-65,-18,792,382,335
2975,-1,-61,-18,857,355,368
2980,0,-56,-16,904,331,393
2985,0,-49,-18,926,308,408
2990,5,-49,-18,928,289,413
2995,0,-41,-10,907,270,412
3000,0,-40,-17,875,252,409
3005,1,-34,-22,834,234,407
3010,0,-24,-15,788,212,405
3015,0,-15,-16,748,187,404
3020,0,-9,-18,717,160,402
3025,-1,-7,-11,698,129,397
3030,0,-1,-11,690,96,389
3035,0,3,-24,693,72,382
3040,4,6,-47,679,57,374
3045,4,13,-72,613,46,358
3050,2,18,-105,469,44,328
3055,4,25,-141,242,42,288
3060,14,14,-212,-67,45,242
3065,30,7,-274,-468,63,195
3070,63,-17,-358,-960,113,153
3075,94,-61,-403,-1484,206,96
3080,108,-120,-389,-1910,319,37
3085,97,-194,-317,-2107,429,-20
3090,80,-255,-256,-2045,519,-73
3095,45,-333,-191,-1799,586,-129
3100,-4,-410,-147,-1466,632,-166
3105,-44,-467,-127,-1107,652,-178
3110,-75,-520,-136,-755,662,-167
3115,-93,-544,-153,-453,671,-148
3120,-106,-551,-192,-244,684,-128
3125,-96,-538,-219,-153,696,-104
3130,-79,-511,-240,-158,686,-69
3135,-49,-479,-239,-200,633,-22
3140,-23,-457,-230,-237,538,36
3145,12,-429,-223,-251,412,80
3150,37,-400,-221,-227,270,99
3155,63,-368,-236,-176,121,89
3160,63,-354,-234,-134,4,62
3165,63,-345,-232,-52,-81,37
3170,62,-345,-219,40,-99,37
3175,64,-356,-210,116,-66,58
3180,66,-370,-199,149,-12,81
3185,65,-382,-195,128,42,99
3190,61,-385,-183,73,88,116
3195,58,-389,-175,17,124,140
3200,53,-388,-176,-20,148,172
3205,42,-386,-171,-32,159,214
3210,30,-383,-170,-17,157,261
3215,21,-378,-167,20,143,313
3220,8,-364,-156,71,121,368
3225,1,-345,-144,130,99,416
3230,0,-323,-132,187,86,462
3235,0,-302,-118,236,83,495
3240,0,-281,-112,263,91,518
3245,-2,-255,-103,266,105,529
3250,-2,-234,-92,251,118,529
3255,0,-210,-80,219,132,518
3260,2,-195,-69,181,145,497
3265,2,-187,-65,149,151,473
3270,3,-184,-62,120,151,453
3275,5,-178,-60,94,142,432
3280,4,-176,-52,73,131,411
3285,1,-177,-45,62,122,387
3290,-8,-171,-37,63,113,370
3295,-12,-171,-37,73,106,359
3300,-13,-173,-35,85,102,351
3305,-6,-165,-33,100,113,344
3310,-1,-155,-30,126,139,336
3315,5,-147,-30,165,181,319
3320,12,-132,-33,207,232,295
3325,20,-118,-35,242,291,263
3330,29,-99,-25,277,352,222
3335,37,-86,-21,317,410,177
3340,44,-78,-16,370,459,132
3345,47,-63,-16,428,497,92
3350,58,-52,-14,493,524,55
3355,58,-38,-15,547,539,23
3360,60,-28,-25,584,544,0
3365,57,-26,-37,601,539,-19
3370,45,-11,-40,601,520,-32
3375,46,-8,-48,576,483,-35
3380,31,-7,-52,533,435,-32
3385,13,-12,-40,471,376,-16
3390,0,-16,-35,397,322,17
3395,-18,-21,-25,322,294,60
3400,-20,-32,-11,267,310,116
3405,-18,-39,2,247,384,166
3410,-13,-42,2,264,505,215
3415,11,-31,-11,282,647,250
3420,49,-24,-37,260,782,275
3425,66,-20,-71,182,876,292
3430,57,-26,-134,30,885,305
3435,41,-44,-199,-206,786,330
3440,33,-60,-250,-519,589,367
3445,20,-74,-315,-875,335,411
3450,4,-102,-346,-1221,78,457
3455,-10,-129,-356,-1493,-141,502
3460,-27,-177,-342,-1649,-303,544
3465,-46,-225,-329,-1669,-394,584
3470,-62,-311,-298,-1554,-425,634
3475,-65,-410,-253,-1330,-394,679
3480,-31,-488,-214,-1027,-313,699
3485,18,-533,-208,-692,-198,680
3490,34,-539,-226,-400,-101,627
3495,33,-529,-258,-212,-64,588
3500,15,-511,-272,-134,-54,575
3505,-15,-502,-274,-92,-31,548
3510,-43,-480,-268,-20,6,495
3515,-60,-463,-261,103,54,419
3520,-70,-446,-253,243,111,336
3525,-68,-426,-238,336,180,256
3530,-57,-420,-217,355,257,184
3535,-48,-412,-193,339,314,116
3540,-45,-413,-182,336,343,57
3545,-43,-404,-169,362,347,14
3550,-32,-393,-169,401,341,-16
3555,-19,-378,-164,423,339,-33
3560,-6,-360,-161,421,344,-36
3565,5,-343,-150,394,358,-32
3570,20,-329,-135,357,375,-21
3575,33,-315,-133,331,392,-15
3580,50,-299,-126,318,406,-12
3585,56,-295,-125,316,419,-12
3590,62,-278,-117,325,440,-17
3595,68,-268,-105,334,471,-27
3600,71,-260,-97,343,506,-42
3605,74,-245,-95,350,546,-62
3610,74,-240,-87,360,584,-86
3615,72,-226,-80,373,621,-107
3620,68,-221,-76,391,656,-121
3625,69,-205,-64,405,684,-131
3630,64,-193,-61,414,708,-135
3635,63,-189,-57,416,718,-129
3640,60,-175,-46,412,716,-113
3645,52,-165,-35,398,705,-92
3650,45,-153,-25,374,689,-62
3655,35,-144,-15,355,669,-27
3660,32,-137,-6,346,650,10
3665,12,-132,1,352,630,53
3670,2,-123,2,373,609,98
3675,-1,-116,3,405,592,141
3680,-17,-101,-3,450,577,182
3685,-20,-95,-3,507,558,224
3690,-30,-79,-12,575,533,264
3695,-29,-67,-10,647,498,306
3700,-30,-53,-12,720,456,343
3705,-31,-44,-12,790,414,374
3710,-27,-47,-6,851,373,394
3715,-23,-47,-4,902,335,403
3720,-22,-45,-2,936,297,400
3725,-14,-44,-11,945,256,391
3730,-7,-39,-12,932,211,378
3735,-5,-36,-19,896,161,373
3740,-2,-26,-23,848,109,367
3745,1,-19,-16,804,57,359
3750,3,-16,-19,772,9,348
3755,11,-14,-13,748,-34,331
3760,10,-13,-22,722,-68,307
3765,12,-9,-42,664,-86,278
3770,10,-13,-72,556,-82,239
3775,1,-11,-113,395,-59,194
3780,4,-14,-155,173,-22,149
3785,13,-19,-202,-110,24,106
3790,33,-39,-267,-472,78,67
3795,67,-80,-327,-899,140,15
3800,95,-125,-355,-1320,209,-48
3805,104,-186,-332,-1638,296,-114
3810,100,-233,-306,-1785,408,-171
3815,82,-295,-255,-1771,536,-223
3820,48,-358,-200,-1648,653,-283
3825,9,-429,-164,-1466,735,-324
3830,-21,-487,-144,-1223,796,-326
3835,-39,-511,-155,-928,857,-315
3840,-60,-514,-188,-619,919,-296
3845,-60,-500,-225,-342,963,-268
3850,-54,-461,-249,-143,956,-234
3855,-34,-446,-240,-33,905,-189
3860,-17,-440,-235,22,824,-138
3865,3,-430,-222,39,723,-92
3870,23,-423,-219,51,612,-61
3875,33,-410,-227,77,509,-41
3880,41,-392,-231,117,432,-26
3885,33,-378,-233,168,382,-9
3890,26,-362,-228,229,349,19
3895,26,-353,-209,294,333,58
3900,38,-367,-192,346,326,107
3905,52,-375,-188,360,317,158
3910,55,-382,-183,331,299,195
3915,61,-384,-178,272,272,216
3920,58,-376,-171,209,250,231
3925,55,-372,-158,157,238,254
3930,49,-358,-157,119,235,287
3935,46,-352,-152,89,235,330
3940,35,-337,-148,71,232,379
3945,19,-321,-143,67,224,424
3950,9,-307,-134,80,213,463
3955,-3,-298,-127,103,203,495
3960,-10,-280,-120,132,194,523
3965,-20,-269,-108,167,185,535
3970,-29,-256,-103,201,177,536
3975,-41,-242,-93,227,168,532
3980,-43,-231,-79,245,156,524
3985,-46,-224,-77,259,143,509
3990,-47,-210,-64,271,129,488
3995,-46,-202,-59,278,117,468
4000,-36,-195,-47,282,106,445
4005,-31,-189,-40,297,100,419
4010,-27,-187,-39,321,97,391
4015,-26,-175,-37,343,105,365
4020,-24,-163,-37,366,124,338
4025,-13,-151,-36,387,153,316
4030,0,-139,-38,406,189,287
4035,8,-124,-36,425,236,255
4040,26,-104,-43,443,289,220
4045,31,-86,-49,455,345,182
4050,38,-75,-47,470,402,142
4055,45,-64,-43,494,461,103
4060,59,-56,-35,529,521,67
4065,58,-46,-27,578,571,37
4070,64,-44,-17,636,611,14
4075,62,-35,-12,685,644,-1
4080,64,-28,-8,718,668,-13
4085,66,-24,-5,741,682,-22
4090,66,-22,-2,758,684,-28
4095,65,-16,-7,772,681,-33
4100,60,-12,-4,780,677,-34
4105,49,-4,-12,772,677,-33
4110,49,1,-14,741,669,-25
4115,38,3,-22,691,655,-13
4120,24,9,-28,625,633,18
4125,10,0,-21,549,619,60
4130,3,0,-32,468,623,113
4135,8,2,-49,371,644,170
4140,9,12,-76,243,675,216
4145,10,12,-101,66,701,255
4150,-6,0,-136,-160,702,289
4155,-30,-22,-173,-448,652,329
4160,-53,-54,-228,-806,533,394
4165,-67,-83,-287,-1213,363,482
4170,-77,-108,-343,-1633,164,586
4175,-64,-136,-384,-2012,-29,691
4180,-51,-162,-390,-2299,-169,788
4185,-46,-214,-382,-2436,-219,889
4190,-36,-289,-336,-2403,-177,981
4195,-11,-384,-267,-2218,-86,1060
4200,23,-466,-215,-1900,-9,1106
4205,51,-521,-205,-1494,45,1110
4210,80,-561,-240,-1072,59,1053
4215,66,-567,-287,-674,34,940
4220,26,-568,-302,-309,2,806
4225,-22,-559,-302,14,-4,666
4230,-46,-547,-303,260,38,540
4235,-67,-512,-287,400,117,433
4240,-84,-478,-271,439,224,348
4245,-101,-448,-247,412,353,286
4250,-104,-426,-218,367,480,229
4255,-93,-420,-199,346,582,172
4260,-81,-406,-176,356,643,126
4265,-67,-390,-157,383,657,97
4270,-56,-372,-146,403,637,84
4275,-41,-352,-141,409,599,84
4280,-36,-343,-137,392,565,91
4285,-14,-326,-132,356,539,102
4290,1,-317,-127,310,527,113
4295,18,-306,-119,264,522,119
4300,27,-298,-114,222,531,125
4305,36,-297,-103,193,547,125
4310,47,-292,-99,186,568,123
4315,50,-286,-96,197,598,119
4320,58,-280,-92,221,633,113
4325,65,-269,-83,256,674,106
4330,58,-259,-81,300,723,101
4335,63,-256,-72,351,773,93
4340,64,-249,-66,404,820,85
4345,67,-235,-57,445,864,82
4350,65,-224,-45,474,900,82
4355,67,-214,-43,488,927,88
4360,62,-198,-38,492,943,100
4365,62,-180,-27,486,949,118
4370,54,-167,-18,476,946,141
4375,46,-148,-9,465,940,166
4380,38,-138,-6,450,930,195
4385,29,-128,0,436,915,229
4390,17,-114,1,427,895,264
4395,4,-101,0,434,869,302
4400,-3,-91,-7,458,835,341
4405,-12,-85,-15,496,795,383
4410,-22,-68,-13,549,747,428
4415,-21,-58,-16,606,696,476
4420,-24,-47,-21,665,644,523
4425,-19,-43,-8,720,596,564
4430,-20,-38,-8,768,552,596
4435,-10,-38,-3,800,513,614
4440,-10,-40,0,814,476,622
4445,-6,-45,-1,805,442,622
4450,1,-46,-2,779,406,621
4455,2,-46,-4,747,370,620
4460,7,-42,-8,725,336,616
4465,6,-35,-12,722,307,613
4470,8,-34,-12,739,286,607
4475,7,-29,-13,764,268,604
4480,9,-29,-8,797,255,593
4485,9,-35,-1,845,243,580
4490,12,-38,7,899,226,560
4495,11,-42,3,942,202,531
4500,10,-41,-31,945,180,500
4505,-2,-26,-65,859,165,464
4510,-12,-6,-117,659,155,416
4515,-13,4,-189,345,143,361
4520,17,3,-290,-109,136,308
4525,44,-1,-377,-725,139,247
4530,78,-32,-486,-1440,151,183
4535,112,-110,-502,-2089,186,124
4540,126,-208,-440,-2468,281,60
4545,120,-317,-319,-2483,411,-19
4550,75,-381,-230,-2207,537,-108
4555,17,-454,-151,-1810,633,-166
4560,-22,-523,-97,-1383,728,-170
4565,-55,-572,-103,-937,843,-144
4570,-66,-596,-156,-502,948,-132
4575,-63,-601,-210,-161,1016,-126
4580,-52,-577,-269,14,1044,-121
4585,-25,-540,-289,23,1049,-105
4590,0,-486,-284,-60,1039,-58
4595,33,-441,-274,-140,995,10
4600,53,-405,-265,-146,895,69
4605,85,-366,-253,-68,747,99
4610,100,-336,-237,34,583,110
4615,103,-320,-221,119,444,114
4620,91,-324,-203,183,370,129
4625,87,-334,-194,226,369,163
4630,79,-353,-188,220,427,207
4635,71,-380,-180,179,492,261
4640,68,-385,-179,137,542,300
4645,72,-397,-176,69,593,325
4650,71,-397,-182,-4,641,355
4655,69,-393,-178,-63,676,389
4660,65,-394,-175,-95,692,429
4665,53,-387,-169,-95,691,479
4670,33,-378,-165,-61,669,536
4675,21,-363,-154,-3,639,599
4680,6,-347,-147,66,606,656
4685,-1,-323,-135,132,577,704
4690,-19,-299,-126,190,557,740
4695,-30,-274,-117,230,550,760
4700,-30,-253,-115,254,557,771
4705,-42,-231,-108,266,570,769
4710,-34,-213,-95,267,583,760
4715,-35,-196,-89,257,594,741
4720,-32,-186,-81,239,598,717
4725,-27,-176,-70,213,594,688
4730,-26,-169,-64,186,579,653
4735,-28,-162,-59,159,559,622
4740,-27,-155,-58,133,537,590
4745,-33,-152,-48,113,519,560
4750,-33,-153,-45,99,495,529
4755,-40,-144,-43,95,469,502
4760,-41,-140,-28,93,448,477
4765,-33,-135,-25,100,434,453
4770,-25,-127,-19,126,429,425
4775,-17,-121,-15,164,437,396
4780,-11,-108,-18,207,457,364
4785,-2,-94,-24,248,497,330
4790,11,-81,-23,283,540,295
4795,17,-68,-20,311,589,256
4800,25,-59,-27,328,629,217
4805,40,-54,-26,343,661,180
4810,43,-41,-24,361,679,148
4815,52,-36,-21,379,686,116
4820,58,-30,-20,401,684,88
4825,64,-28,-19,422,677,61
4830,65,-23,-8,445,670,32
4835,64,-13,-15,463,644,5
4840,54,-13,-29,457,597,-23
4845,35,-9,-31,422,526,-33
4850,19,-18,-26,364,459,-14
4855,0,-24,-17,297,419,27
4860,-3,-27,-8,245,434,68
4865,0,-33,-7,223,513,103
4870,8,-33,-17,220,633,125
4875,26,-22,-35,202,765,131
4880,40,-18,-71,142,875,134
4885,51,-22,-117,18,934,143
4890,19,-41,-179,-189,901,167
4895,-2,-62,-230,-486,756,215
4900,-24,-92,-283,-852,527,295
4905,-38,-119,-320,-1219,271,390
4910,-38,-151,-359,-1519,59,471
4915,-35,-189,-380,-1704,-68,533
4920,-36,-221,-385,-1758,-103,587
4925,-26,-294,-367,-1673,-76,641
4930,-25,-368,-308,-1456,-7,686
4935,-1,-450,-259,-1134,87,705
4940,38,-520,-241,-743,193,690
4945,57,-535,-253,-382,267,645
4950,43,-530,-279,-161,265,600
4955,22,-515,-309,-79,199,573
4960,-13,-496,-311,-62,132,549
4965,-47,-477,-312,-34,99,506
4970,-71,-454,-298,16,112,450
4975,-83,-435,-293,65,167,387
4980,-95,-418,-261,96,246,321
4985,-93,-416,-236,107,331,251
4990,-83,-407,-205,115,408,184
4995,-72,-397,-196,120,467,126
5000,-57,-387,-182,126,502,77
5005,-51,-374,-176,129,513,46
5010,-36,-363,-176,120,511,32
5015,-25,-349,-176,97,506,29
5020,-12,-338,-166,67,504,33
5025,4,-332,-161,51,511,42
5030,17,-321,-153,47,531,51
5035,36,-315,-143,59,564,54
5040,53,-303,-131,77,605,56
5045,61,-293,-126,101,655,56
5050,73,-277,-116,129,704,53
5055,81,-265,-112,152,751,48
5060,87,-256,-109,172,798,41
5065,87,-250,-101,192,842,35
5070,85,-241,-91,210,886,28
5075,81,-233,-90,223,927,20
5080,69,-221,-79,228,960,15
5085,69,-206,-74,229,979,15
5090,64,-195,-69,228,987,18
5095,59,-184,-56,228,985,29
5100,55,-177,-42,230,975,49
5105,47,-161,-32,233,955,74
5110,35,-152,-26,237,924,103
5115,21,-142,-23,241,887,134
5120,6,-134,-16,246,843,170
5125,-1,-130,-17,256,798,204
5130,-17,-118,-10,275,752,236
5135,-33,-111,-7,309,708,267
5140,-41,-93,-2,363,665,294
5145,-40,-92,4,442,625,319
5150,-46,-85,11,541,582,340
5155,-44,-76,18,651,542,356
5160,-45,-69,27,758,498,366
5165,-38,-72,29,858,456,368
5170,-38,-69,31,940,413,365
5175,-33,-69,24,1003,370,362
5180,-26,-65,15,1040,326,354
5185,-25,-62,14,1056,286,348
5190,-16,-52,1,1062,252,350
5195,-7,-44,1,1055,224,353
5200,-6,-31,-10,1041,201,358
5205,2,-22,-9,1020,184,358
5210,8,-11,-13,996,170,357
5215,8,-2,-19,964,156,351
5220,14,4,-35,912,140,340
5225,13,15,-55,824,126,325
5230,7,19,-80,691,115,299
5235,1,17,-117,507,104,257
5240,-2,19,-152,263,94,214
5245,6,14,-213,-57,93,176
5250,28,-1,-304,-468,94,143
5255,46,-38,-377,-962,98,109
5260,67,-92,-399,-1454,112,67
5265,84,-149,-375,-1817,167,19
5270,76,-230,-317,-1969,278,-35
5275,47,-304,-251,-1922,451,-89
5280,12,-382,-193,-1740,660,-132
5285,-10,-461,-158,-1479,835,-157
5290,-24,-511,-148,-1155,937,-165
5295,-36,-552,-169,-815,978,-173
5300,-35,-552,-198,-515,1010,-186
5305,-33,-535,-244,-289,1034,-191
5310,-21,-513,-260,-138,1018,-192
5315,-8,-493,-263,-50,936,-177
5320,5,-458,-264,0,789,-135
5325,19,-433,-264,31,625,-69
5330,36,-409,-269,63,465,-9
5335,48,-390,-268,107,341,35
5340,55,-373,-255,177,263,78
5345,52,-353,-235,271,223,118
5350,52,-355,-201,356,205,160
5355,45,-354,-195,394,199,199
5360,43,-363,-187,379,195,238
5365,40,-370,-180,326,186,268
5370,39,-376,-172,256,177,280
5375,36,-372,-171,192,170,277
5380,23,-363,-167,142,164,266
5385,13,-347,-162,107,168,266
5390,10,-341,-161,92,183,275
5395,-3,-330,-151,89,204,292
5400,-13,-318,-150,95,218,310
5405,-14,-299,-137,105,223,329
5410,-34,-285,-132,125,224,348
5415,-41,-276,-123,157,220,363
5420,-43,-260,-109,192,215,372
5425,-40,-247,-101,229,214,376
5430,-42,-234,-86,257,217,374
5435,-39,-217,-81,269,225,366
5440,-34,-208,-71,271,235,352
5445,-33,-195,-56,271,241,332
5450,-23,-189,-47,281,241,310
5455,-16,-183,-39,301,235,289
5460,-11,-172,-34,321,232,268
5465,-11,-162,-34,343,233,250
5470,3,-151,-34,368,238,232
5475,14,-134,-25,395,252,210
5480,31,-125,-25,430,282,185
5485,43,-107,-23,469,325,157
5490,45,-98,-31,513,377,124
5495,53,-83,-34,556,435,88
5500,54,-71,-31,596,489,53
5505,57,-63,-32,635,542,16
5510,56,-57,-23,684,587,-18
5515,62,-47,-19,742,626,-48
5520,58,-46,-15,798,657,-66
5525,60,-40,-12,845,682,-80
5530,61,-36,-14,872,706,-87
5535,58,-33,-20,881,726,-93
5540,62,-31,-22,875,735,-98
5545,57,-25,-28,857,728,-109
5550,42,-17,-32,820,697,-115
5555,26,-9,-33,761,646,-111
5560,15,-12,-32,684,589,-94
5565,0,-9,-29,606,547,-59
5570,-15,-7,-19,533,535,-13
5575,-22,-3,-9,468,564,33
5580,-32,0,-16,412,628,76
5585,-20,5,-40,344,700,114
5590,-5,16,-66,236,753,142
5595,19,22,-98,77,774,154
5600,1,12,-129,-126,746,159
5605,-39,-13,-182,-381,638,185
5610,-63,-38,-225,-708,443,255
5615,-86,-64,-308,-1104,192,364
5620,-92,-90,-380,-1547,-63,510
5625,-74,-115,-413,-1976,-266,657
5630,-61,-144,-410,-2293,-362,775
5635,-55,-188,-390,-2452,-368,868
5640,-35,-255,-325,-2418,-290,940
5645,-2,-346,-244,-2216,-192,970
5650,34,-436,-183,-1892,-119,977
5655,68,-499,-187,-1498,-73,957
5660,82,-518,-228,-1126,-50,888
5665,73,-534,-289,-827,-51,770
5670,37,-536,-325,-567,-71,611
5675,-10,-549,-329,-292,-81,442
5680,-55,-550,-329,-5,-40,288
5685,-77,-537,-317,228,55,175
5690,-99,-504,-300,342,176,90
5695,-99,-468,-283,340,311,13
5700,-88,-447,-254,287,430,-58
5705,-70,-436,-228,263,497,-116
5710,-56,-423,-212,278,507,-159
5715,-42,-400,-188,304,474,-185
5720,-25,-378,-176,313,419,-196
5725,-13,-342,-172,294,367,-195
5730,2,-320,-154,243,329,-180
5735,17,-308,-146,164,308,-164
5740,33,-289,-140,78,297,-157
5745,48,-276,-135,-1,293,-154
5750,56,-267,-128,-63,303,-153
5755,63,-261,-125,-104,327,-156
5760,66,-257,-117,-116,363,-163
5765,75,-251,-114,-113,415,-175
5770,81,-242,-114,-98,475,-190
5775,84,-233,-112,-81,545,-205
5780,88,-229,-105,-61,617,-220
5785,96,-229,-92,-39,685,-233
5790,94,-225,-79,-20,743,-250
5795,92,-218,-75,-10,787,-262
5800,88,-213,-56,-10,823,-269
5805,85,-209,-49,-16,845,-268
5810,78,-201,-39,-32,856,-260
5815,70,-194,-35,-47,850,-242
5820,60,-186,-29,-70,831,-216
5825,47,-177,-27,-94,798,-183
5830,25,-168,-21,-109,758,-141
5835,11,-160,-20,-110,711,-90
5840,-2,-149,-20,-88,655,-32
5845,-19,-134,-31,-53,597,30
5850,-28,-128,-26,-8,544,91
5855,-33,-123,-18,64,496,158
5860,-37,-119,-13,159,456,220
5865,-36,-107,1,266,425,277
5870,-38,-97,11,376,397,322
5875,-40,-92,20,480,374,334
5880,-27,-92,22,579,349,328
5885,-22,-88,20,666,316,312
5890,-18,-82,15,738,276,292
5895,-4,-77,11,786,231,277
5900,0,-69,5,812,194,265
5905,1,-61,4,820,167,257
5910,2,-54,1,818,148,253
5915,1,-43,0,813,133,251
5920,0,-36,1,810,118,251
5925,3,-35,-2,816,96,249
5930,4,-34,-6,828,66,242
5935,5,-32,-13,841,30,232
5940,5,-28,-28,837,-11,221
5945,-16,-17,-68,769,-51,206
5950,-33,0,-118,632,-78,187
5955,-44,18,-177,406,-80,156
5960,-34,29,-228,81,-44,122
5965,-7,36,-304,-346,28,93
5970,43,32,-400,-861,123,62
5975,100,5,-490,-1446,219,31
5980,126,-42,-502,-2026,293,-4
5985,130,-137,-426,-2425,341,-30
5990,103,-235,-305,-2490,367,-59
5995,42,-297,-201,-2268,378,-90
6000,-10,-359,-151,-1915,368,-113
6005,-40,-402,-140,-1548,362,-124
6010,-65,-447,-158,-1223,377,-142
6015,-65,-483,-202,-958,426,-178
6020,-77,-498,-249,-748,511,-217
6025,-88,-503,-285,-592,601,-242
6030,-90,-495,-298,-494,663,-251
6035,-83,-471,-292,-434,668,-227
6040,-66,-448,-286,-377,606,-170
6045,-30,-427,-276,-281,482,-114
6050,17,-387,-262,-136,314,-81
6055,51,-360,-257,27,125,-68
6060,72,-332,-244,165,-60,-65
6065,83,-318,-227,255,-213,-62
6070,96,-314,-211,279,-303,-46
6075,104,-326,-197,241,-327,-2
6080,106,-331,-197,187,-323,50
6085,107,-341,-185,109,-288,100
6090,108,-349,-183,13,-244,144
6095,101,-354,-175,-78,-210,181
6100,92,-357,-173,-147,-177,213
6105,78,-353,-169,-179,-147,248
6110,55,-351,-170,-178,-127,288
6115,29,-355,-161,-151,-116,328
6120,7,-356,-156,-112,-115,366
6125,-13,-354,-149,-62,-122,403
6130,-22,-355,-140,-3,-131,435
6135,-35,-353,-125,60,-142,462
6140,-39,-345,-117,118,-158,480
6145,-42,-332,-110,154,-179,487
6150,-36,-318,-102,166,-197,485
6155,-29,-309,-98,166,-214,476
6160,-23,-288,-82,162,-227,457
6165,-11,-270,-81,161,-238,433
6170,-2,-256,-79,167,-253,406
6175,6,-246,-82,170,-282,377
6180,10,-235,-87,162,-320,346
6185,11,-218,-87,147,-366,323
6190,4,-205,-82,131,-411,309
6195,0,-195,-79,123,-453,294
6200,-1,-184,-66,121,-488,277
6205,-9,-172,-54,125,-507,257
6210,-4,-161,-43,134,-502,232
6215,-5,-142,-21,156,-474,192
6220,7,-126,-13,200,-426,139
6225,27,-107,-14,255,-348,73
6230,39,-100,-20,310,-242,0
6235,47,-85,-22,355,-131,-73
6240,68,-77,-18,392,-38,-140
6245,88,-70,-19,439,23,-191
6250,107,-70,-24,496,42,-227
6255,112,-77,-33,553,34,-262
6260,102,-80,-43,596,8,-295
6265,91,-85,-51,622,-22,-322
6270,82,-89,-57,632,-45,-352
6275,75,-90,-62,630,-52,-377
6280,73,-86,-64,602,-45,-405
6285,49,-84,-74,544,-36,-433
6290,25,-79,-92,486,-34,-460
6295,2,-64,-101,433,-44,-489
6300,-28,-40,-125,361,-58,-498
6305,-52,-33,-140,228,-101,-467
6310,-65,-16,-176,57,-178,-417
6315,-80,-10,-212,-140,-277,-353
6320,-102,-3,-243,-326,-376,-276
6325,-104,-15,-271,-483,-452,-185
6330,-110,-21,-290,-603,-486,-91
6335,-106,-34,-322,-679,-505,-4
6340,-106,-52,-336,-736,-550,60
6345,-123,-61,-335,-747,-651,85
6350,-145,-82,-321,-737,-810,111
6355,-161,-113,-302,-711,-1006,159
6360,-172,-147,-306,-692,-1221,223
6365,-160,-180,-313,-695,-1430,275
6370,-149,-213,-329,-730,-1577,301
6375,-151,-211,-339,-789,-1633,293
6380,-107,-227,-347,-886,-1619,207
6385,-84,-210,-339,-950,-1493,131
6390,-75,-196,-332,-993,-1356,48
6395,-57,-206,-313,-992,-1209,-30
6400,-44,-215,-293,-920,-1052,-89
6405,-29,-235,-277,-820,-911,-123
6410,-16,-252,-271,-751,-790,-135
6415,-9,-275,-268,-717,-686,-127
6420,-1,-296,-271,-695,-614,-120
6425,0,-312,-270,-661,-567,-112
6430,1,-337,-266,-596,-525,-107
6435,1,-359,-256,-496,-471,-122
6440,8,-376,-247,-386,-394,-155
6445,3,-386,-235,-308,-293,-203
6450,0,-401,-236,-285,-178,-263
6455,4,-431,-232,-329,-59,-341
6460,107,-460,-219,-392,77,-491
6465,116,-474,-219,-417,257,-768
6470,-42,-487,-164,-399,411,-1045
6475,-347,-522,-67,-349,495,-1160
6480,-418,-641,102,-467,578,-1043
6485,-188,-739,145,-769,811,-1019
6490,128,-633,-31,-1165,961,-1243
6495,250,-471,-248,-1525,999,-1406
6500,214,-354,-305,-1753,1070,-1576
6505,92,-279,-338,-1490,1338,-1452
6510,-3,-192,-315,-999,1505,-1374
6515,-73,-125,-255,-674,1545,-1316
6520,-108,-114,-210,-575,1526,-1196
6525,-103,-128,-179,-665,1452,-1050
6530,-96,-151,-134,-851,1327,-954
6535,-119,-154,-98,-1028,1123,-936
6540,-165,-163,-89,-1126,876,-946
6545,-176,-198,-88,-1092,638,-909
6550,-161,-234,-92,-783,426,-722
6555,-100,-154,-126,-310,274,-487
6560,-34,-62,-114,-152,343,-335
6565,52,-2,-111,-263,516,-175
6570,156,-5,-74,-452,711,-31
6575,204,-23,-60,-580,886,53
6580,250,-63,-46,-709,1046,91
6585,263,-85,-6,-875,1196,103
6590,271,-128,22,-1030,1323,144
6595,242,-164,43,-1142,1351,237
6600,221,-186,76,-1215,1262,342
6605,191,-212,102,-1132,1123,479
6610,171,-218,117,-895,1001,644
6615,165,-190,127,-617,908,798
6620,173,-157,126,-369,816,927
6625,173,-127,114,-98,690,1029
6630,159,-90,67,195,551,1106
6635,149,-72,11,497,435,1146
6640,127,-47,-100,840,337,1154
6645,91,-11,-188,1177,279,1128
6650,66,19,-219,1474,318,1111
6655,22,59,-199,1706,488,1110
6660,0,67,-138,1846,756,1120
6665,-15,68,-74,1879,1070,1112
6670,-16,57,-24,1799,1377,1084
6675,-6,38,-2,1633,1616,1045
6680,-3,3,31,1430,1742,992
6685,-8,-22,42,1258,1725,928
6690,-20,-47,35,1113,1581,845
6695,-29,-55,10,1000,1330,750
6700,-44,-62,-16,916,1013,648
6705,-72,-61,-23,872,686,544
6710,-119,-50,-14,867,390,445
6715,-153,-54,9,916,134,361
6720,-175,-48,32,1021,-83,283
6725,-166,-27,32,1126,-268,218
6730,-204,-48,60,1178,-417,173
6735,-223,-30,49,1284,-594,133
6740,-239,-1,41,1374,-775,101
6745,-251,31,-2,1456,-946,84
6750,-247,85,-121,1515,-1081,75
6755,-207,158,-252,1481,-1179,59
6760,-142,242,-382,1307,-1300,16
6765,-76,302,-535,921,-1526,-42
6770,-44,311,-681,313,-1867,-96
6775,-15,322,-851,-459,-2256,-152
6780,42,306,-987,-1300,-2563,-208
6785,154,259,-1051,-2137,-2620,-242
6790,275,162,-979,-2867,-2364,-263
6795,296,73,-894,-3310,-1906,-285
6800,178,-83,-760,-3457,-1432,-261
6805,62,-224,-636,-3370,-1037,-203
6810,17,-348,-592,-3128,-615,-120
6815,39,-424,-543,-2928,-160,-59
6820,86,-465,-507,-2815,285,-32
6825,126,-525,-474,-2760,649,-18
6830,144,-569,-452,-2801,877,0
6835,104,-575,-434,-2971,940,60
6840,62,-538,-409,-3257,807,191
6845,32,-507,-379,-3549,584,356
6850,3,-506,-291,-3811,447,638
6855,-27,-459,-270,-3900,282,832
6860,-30,-429,-247,-4050,169,978
6865,-27,-392,-213,-4229,97,1154
6870,-10,-370,-177,-4426,41,1332
6875,10,-324,-132,-4593,-19,1446
6880,37,-286,-86,-4724,-54,1530
6885,107,-298,-61,-4854,-101,1650
6890,65,-193,-37,-5029,-181,1838
6895,22,-87,-45,-5106,-350,1602
6900,-38,-40,-55,-5068,-481,1286
6905,-80,-32,-76,-4869,-586,1041
6910,-117,-77,-103,-4625,-677,868
6915,-128,-135,-122,-4410,-752,842
6920,-134,-181,-128,-4304,-785,907
6925,-161,-209,-109,-4318,-817,999
6930,-185,-236,-72,-4377,-845,1068
6935,-192,-269,-25,-4399,-885,1119
6940,-176,-304,54,-4341,-925,1142
6945,-154,-325,94,-4175,-912,1130
6950,-127,-328,118,-3948,-830,1056
6955,-91,-316,128,-3690,-788,901
6960,-58,-293,136,-3401,-772,716
6965,-34,-254,159,-3104,-770,547
6970,-24,-231,171,-2851,-756,409
6975,-20,-209,179,-2671,-690,298
6980,-6,-197,196,-2552,-556,216
6985,29,-201,189,-2458,-410,160
6990,70,-203,151,-2331,-297,129
6995,89,-204,127,-2051,-218,121
7000,107,-208,110,-1726,-178,133
7005,83,-205,104,-1382,-188,152
7010,45,-156,91,-1038,-230,174
7015,2,-104,78,-718,-267,189
7020,-23,-57,53,-481,-296,209
7025,-43,28,-21,-391,-322,239
7030,-46,112,-99,-471,-350,280
7035,-43,211,-193,-716,-446,307
7040,-61,305,-263,-1093,-629,276
7045,-125,429,-375,-1419,-814,172
7050,-184,511,-490,-1626,-966,30
7055,-252,563,-578,-1782,-1101,-92
7060,-288,501,-614,-1896,-1237,-147
7065,-292,419,-591,-2022,-1421,-92
7070,-292,319,-555,-2307,-1717,-140
7075,-230,264,-551,-2789,-2150,-166
7080,-146,305,-530,-3394,-2517,-417
7085,-128,337,-516,-3764,-2761,-643
7090,-113,319,-478,-3765,-2790,-756
7095,-87,254,-441,-3459,-2536,-728
7100,-50,182,-429,-3206,-2123,-623
7105,0,134,-424,-3167,-1737,-564
7110,37,112,-410,-3258,-1467,-563
7115,32,100,-389,-3382,-1270,-584
7120,24,84,-365,-3446,-1140,-573
7125,-3,67,-345,-3397,-1061,-524
7130,-61,95,-312,-3273,-1003,-485
7135,-92,84,-274,-3108,-928,-417
7140,-99,64,-268,-3001,-837,-320
7145,-103,40,-280,-2945,-761,-221
7150,-116,19,-309,-2902,-700,-147
7155,-127,23,-327,-2849,-616,-109
7160,-136,37,-346,-2783,-478,-89
7165,-151,51,-331,-2715,-297,-72
7170,-151,60,-313,-2643,-116,-49
7175,-155,48,-286,-2531,70,-14
7180,-143,29,-274,-2371,221,18
7185,-125,8,-269,-2188,352,62
7190,-115,3,-275,-2008,478,97
7195,-106,6,-275,-1825,583,112
7200,-109,7,-284,-1630,651,112
7205,-124,9,-271,-1423,679,108
7210,-128,11,-267,-1207,686,104
7215,-126,13,-257,-1000,694,93
7220,-140,63,-235,-827,715,29
7225,-157,104,-212,-724,773,-31
7230,-186,152,-200,-724,876,-161
7235,-217,149,-208,-771,1022,-363
7240,-232,113,-232,-702,1204,-592
7245,-257,53,-266,-373,1426,-729
7250,-229,0,-294,227,1686,-678
7255,-155,68,-324,1050,1919,-436
7260,-199,-74,-269,1932,2189,127
7265,-91,57,-333,2852,2319,463
7270,-58,51,-314,3424,2484,839
7275,-64,-69,-205,3818,2579,1162
7280,-11,-45,-193,4064,2578,1304
7285,43,-51,-203,4035,2511,1454
7290,102,-36,-217,3799,2261,1455
7295,146,-36,-211,3377,2107,1423
7300,156,-79,-182,2836,1998,1370
7305,101,-132,-133,2317,1826,1212
7310,114,-46,-128,1801,1685,1026
7315,87,-78,-48,1100,1620,788
7320,81,-163,16,679,1638,639
7325,60,-131,6,666,1755,600
7330,17,-137,50,506,1966,592
7335,46,-119,73,388,2042,652
7340,39,-149,102,409,1961,688
7345,73,-84,83,640,1803,814
7350,137,13,41,871,1622,883
7355,165,50,53,939,1500,891
7360,204,84,48,1049,1406,956
7365,241,98,41,1136,1362,1017
7370,259,124,46,1172,1351,1037
7375,262,127,29,1160,1389,1049
7380,258,140,20,1111,1546,1089
7385,241,144,7,1042,1805,1156
7390,203,145,-8,936,2127,1236
7395,164,134,-44,805,2473,1326
7400,127,122,-86,679,2789,1414
7405,124,106,-125,552,3034,1499
7410,127,102,-155,402,3205,1569
7415,146,92,-177,221,3312,1639
7420,153,85,-188,63,3360,1702
7425,144,96,-195,-22,3358,1740
7430,125,105,-189,-51,3320,1761
7435,104,113,-173,-48,3276,1772
7440,76,107,-126,-8,3263,1776
7445,66,93,-68,65,3291,1761
7450,67,88,-16,143,3352,1732
7455,67,89,6,184,3409,1680
7460,60,96,-8,178,3440,1594
7465,40,97,-47,140,3449,1487
7470,34,96,-89,95,3466,1383
7475,38,85,-119,69,3522,1289
7480,59,85,-147,93,3607,1202
7485,67,84,-183,156,3674,1110
7490,89,97,-209,219,3660,1007
7495,108,113,-193,251,3542,904
7500,109,127,-152,287,3354,823
7505,116,120,-120,362,3155,767
7510,114,104,-123,511,2978,724
7515,114,85,-158,724,2837,687
7520,122,77,-204,946,2718,667
7525,120,48,-247,1144,2563,636
7530,123,31,-261,1333,2351,602
7535,128,19,-269,1493,2087,568
7540,138,2,-255,1642,1809,531
7545,152,-1,-250,1813,1540,492
7550,163,6,-256,1965,1253,420
7555,160,33,-271,2056,958,347
7560,153,44,-274,2074,622,299
7565,141,65,-259,2039,245,272
7570,150,152,-236,1955,-125,201
7575,321,331,-401,1746,-872,-90
7580,-109,290,-215,2191,-2310,-788
7585,27,322,-370,2530,-2159,-551
7590,139,490,-573,2383,-2229,-206
7595,121,1015,-595,1493,-2037,-515
7600,210,535,-818,1640,-2875,-786
7605,115,1696,-1130,1122,-3518,-1342
7610,112,1872,-275,1073,-2860,-1122
7615,488,722,-333,1582,-2812,-625
7620,370,-49,-707,2385,-2928,-849
7625,367,55,-634,1884,-2985,-1188
7630,427,-79,-491,1232,-2305,-1446
7635,465,-106,-532,1506,-1594,-1242
7640,567,-198,-616,1878,-1467,-1028
7645,622,-37,-548,1520,-1212,-683
7650,412,102,-566,739,-978,-703
7655,358,165,-584,49,-757,-684
7660,338,318,-716,-569,-984,-660
7665,220,303,-777,-1246,-992,-737
7670,175,161,-714,-2134,-723,-613
7675,130,243,-499,-2824,-553,-443
7680,95,187,-489,-2751,-483,-209
7685,25,236,-420,-2662,-368,41
7690,19,249,-324,-2412,-54,310
7695,37,369,-396,-2013,180,448
7700,75,297,-335,-1785,378,544
7705,135,312,-284,-1674,551,695
7710,103,282,-247,-1706,704,670
7715,108,280,-204,-1830,869,720
7720,72,320,-186,-1942,952,753
7725,67,320,-161,-2101,1093,782
7730,88,364,-180,-2040,1033,752
7735,100,396,-192,-1899,937,798
7740,108,423,-231,-1721,787,842
7745,58,460,-258,-1636,674,818
7750,91,501,-244,-1847,725,884
7755,106,471,-219,-2120,777,916
7760,136,398,-194,-2149,816,819
7765,169,346,-188,-1942,857,660
7770,150,273,-175,-1709,861,508
7775,125,191,-149,-1530,849,408
7780,112,143,-118,-1406,888,339
7785,87,102,-88,-1318,973,289
7790,80,99,-72,-1271,1079,254
7795,86,101,-59,-1264,1162,272
7800,107,124,-52,-1266,1227,299
7805,103,135,-57,-1252,1272,259
7810,81,133,-67,-1177,1284,180
7815,83,116,-72,-1059,1286,120
7820,87,101,-85,-945,1261,114
7825,86,97,-97,-847,1210,148
7830,81,102,-97,-774,1153,189
7835,77,112,-95,-730,1109,220
7840,81,128,-85,-700,1096,236
7845,89,143,-79,-668,1098,248
7850,101,150,-84,-638,1083,259
7855,97,159,-82,-603,1041,267
7860,94,178,-90,-560,983,274
7865,89,192,-90,-527,915,286
7870,83,201,-96,-514,854,298
7875,80,209,-99,-516,804,318
7880,80,216,-88,-528,769,343
7885,81,217,-89,-544,737,375
7890,75,211,-80,-561,698,402
7895,68,208,-67,-566,656,435
7900,64,199,-65,-553,613,466
7905,63,188,-64,-525,572,499
7910,64,172,-69,-487,531,528
7915,65,167,-75,-441,487,554
7920,76,157,-74,-388,431,578
7925,82,155,-75,-325,383,596
7930,92,159,-75,-249,336,605
7935,97,161,-69,-179,303,612
7940,105,164,-65,-123,280,611
7945,109,174,-56,-81,270,606
7950,121,179,-49,-45,273,591
7955,135,188,-41,-15,286,574
7960,147,192,-35,12,305,552
7965,163,205,-38,31,322,513
7970,178,205,-36,46,335,460
7975,185,207,-40,55,333,396
7980,187,204,-44,59,318,320
7985,193,203,-53,58,296,242
7990,192,194,-55,65,269,199
7995,187,189,-52,88,238,178
8000,176,181,-47,126,201,171
8005,166,170,-46,168,161,153
8010,158,159,-42,201,124,125
8015,149,150,-35,229,95,90
8020,140,138,-37,244,61,32
8025,132,124,-32,245,18,-54
8030,144,122,-42,239,-20,-152
8035,134,105,-40,260,-20,-167
8040,126,90,-33,303,-31,-182
8045,119,81,-37,356,-35,-224
8050,116,80,-40,399,-40,-299
8055,127,90,-58,404,-38,-385
8060,146,98,-72,392,-16,-394
8065,150,105,-84,386,-12,-348
8070,160,119,-88,374,-40,-309
8075,163,121,-89,366,-73,-286
8080,174,127,-76,366,-113,-281
8085,179,128,-75,358,-167,-295
8090,166,125,-72,320,-233,-331
8095,195,130,-89,225,-316,-408
8100,201,122,-104,149,-350,-387
8105,212,110,-118,124,-380,-326
8110,207,105,-136,135,-406,-275
8115,217,102,-156,174,-416,-242
8120,222,114,-159,216,-408,-213
8125,225,118,-173,268,-408,-186
8130,228,115,-181,349,-426,-149
8135,238,115,-176,439,-436,-97
8140,245,118,-177,526,-415,-43
8145,254,124,-183,587,-375,-3
8150,264,130,-181,615,-320,17
8155,283,131,-197,661,-283,47
8160,283,137,-199,730,-249,65
8165,291,139,-195,748,-183,84
8170,292,137,-192,742,-107,117
8175,292,127,-192,728,-34,148
8180,289,121,-204,717,31,179
8185,286,119,-215,699,87,192
8190,276,109,-218,678,138,194
8195,263,101,-219,670,195,193
8200,248,95,-224,674,257,186
8205,233,85,-222,676,331,168
8210,212,82,-227,674,407,149
8215,195,73,-230,665,478,137
8220,184,67,-230,652,520,130
8225,175,72,-232,637,533,127
8230,158,69,-232,620,518,124
8235,155,65,-231,605,474,118
8240,144,63,-233,598,419,118
8245,147,61,-225,592,361,115
8250,138,60,-224,576,301,114
8255,136,55,-223,554,243,118
8260,134,57,-219,532,190,118
8265,137,56,-212,508,143,112
8270,131,60,-212,491,98,103
8275,126,57,-209,487,62,92
8280,127,56,-203,486,33,82
8285,128,61,-197,485,12,74
8290,129,60,-199,478,-1,65
8295,122,55,-199,462,-14,58
8300,130,61,-198,431,-26,51
8305,138,62,-199,407,-37,41
8310,154,68,-199,387,-37,38
8315,165,73,-194,362,-22,37
8320,165,72,-194,345,-13,33
8325,168,69,-199,338,-12,27
8330,172,71,-198,334,-14,18
8335,168,71,-201,329,-16,10
8340,163,71,-199,320,-14,3
8345,162,75,-200,302,-8,-5
8350,162,69,-194,276,1,-13
8355,160,67,-191,251,14,-19
8360,162,65,-189,222,30,-28
8365,164,65,-185,196,46,-37
8370,165,67,-187,169,63,-43
8375,166,72,-184,147,79,-46
8380,167,75,-182,129,98,-49
8385,169,75,-180,115,121,-48
8390,175,82,-180,105,148,-41
8395,175,82,-182,103,178,-27
8400,178,79,-181,89,195,-29
8405,187,90,-178,69,213,-26
8410,186,90,-178,49,228,-21
8415,185,93,-174,33,241,-15
8420,189,92,-175,18,252,-6
8425,184,92,-179,7,262,0
8430,188,90,-171,-2,275,5
8435,188,91,-177,-6,286,9
8440,186,90,-170,-11,295,10
8445,184,88,-176,-15,304,8
8450,177,91,-177,-18,312,10
8455,172,84,-175,-21,321,11
8460,175,89,-167,-23,326,11
8465,172,91,-163,-26,329,14
8470,171,88,-157,-30,329,15
8475,171,89,-158,-35,328,19
8480,165,92,-156,-38,320,23
8485,165,86,-152,-41,313,26
8490,168,88,-151,-43,302,30
8495,165,87,-148,-41,287,36
8500,164,85,-151,-35,268,40
8505,160,86,-143,-32,244,46
8510,163,77,-149,-27,221,51
8515,168,79,-142,-26,195,56
8520,164,81,-141,-21,171,60
8525,169,78,-142,-17,148,64
8530,170,76,-144,-10,128,68
8535,173,80,-141,0,108,72
8540,177,83,-146,12,92,74
8545,176,80,-148,26,77,75
8550,179,83,-152,39,64,78
8555,181,84,-154,53,49,81
8560,182,83,-154,63,39,85
8565,182,81,-156,70,28,88
8570,187,85,-153,74,20,90
8575,192,79,-149,71,11,94
8580,191,78,-150,67,4,93
8585,194,76,-146,60,-5,95
8590,196,78,-149,52,-14,94
8595,200,78,-153,44,-26,92
8600,203,78,-148,38,-33,87
8605,199,77,-155,30,-43,83
8610,198,75,-154,23,-57,78
8615,196,74,-157,25,-73,70
8620,195,71,-159,31,-89,62
8625,193,73,-167,36,-101,57
8630,194,71,-156,39,-111,51
8635,190,72,-163,42,-115,47
8640,190,73,-164,40,-119,42
8645,190,75,-164,38,-120,35
8650,192,73,-164,36,-121,29
8655,191,75,-163,35,-126,23
8660,192,78,-164,33,-128,19
8665,191,72,-168,29,-132,13
8670,191,75,-167,23,-136,7
8675,191,78,-167,21,-137,0
8680,188,73,-169,21,-135,-5
8685,191,76,-170,19,-135,-9
8690,190,74,-174,20,-135,-14
8695,191,75,-171,22,-136,-20
8700,190,77,-172,24,-136,-24
8705,190,75,-175,27,-137,-31
8710,189,76,-173,30,-136,-32
8715,192,74,-170,35,-131,-29
8720,189,76,-170,38,-128,-29
8725,187,76,-173,42,-125,-29
8730,186,73,-173,42,-123,-35
8735,182,79,-172,44,-121,-39
8740,188,79,-174,44,-122,-45
8745,185,76,-176,45,-121,-51
8750,184,77,-171,46,-119,-60
8755,182,77,-172,49,-114,-66
8760,183,80,-175,54,-108,-72
8765,183,79,-170,58,-103,-75
8770,181,79,-173,60,-97,-79
8775,180,80,-174,65,-93,-81
8780,179,81,-175,70,-90,-83
8785,182,81,-166,71,-89,-84
8790,179,85,-172,67,-88,-87
8795,177,87,-168,64,-91,-88
8800,176,87,-170,59,-92,-82
8805,178,88,-169,52,-93,-84
8810,174,90,-171,49,-92,-86
8815,175,87,-167,45,-91,-83
8820,178,80,-168,44,-92,-79
8825,173,83,-170,56,-92,-67
8830,169,91,-169,48,-91,-62
8835,168,92,-170,41,-84,-68
8840,174,89,-168,37,-79,-66
8845,173,82,-169,33,-77,-62
8850,174,86,-169,31,-75,-56
8855,172,85,-165,30,-74,-52
8860,174,85,-168,31,-71,-48
8865,172,82,-166,32,-67,-44
8870,172,82,-167,34,-69,-41
8875,170,83,-170,34,-69,-38
8880,178,79,-164,33,-69,-37
8885,172,78,-166,33,-67,-36
8890,171,86,-170,33,-67,-35
8895,174,80,-170,33,-67,-32
8900,172,83,-169,33,-64,-32
8905,174,80,-167,33,-62,-31
8910,175,79,-169,35,-59,-29
8915,172,85,-172,37,-55,-29
8920,175,81,-172,39,-51,-27
8925,178,82,-173,43,-46,-25
8930,175,81,-176,49,-40,-23
8935,174,81,-172,57,-36,-20
8940,172,83,-174,56,-33,-21
8945,173,91,-181,50,-30,-22
8950,178,86,-177,47,-27,-22
8955,186,65,-173,50,-24,-22
8960,171,77,-175,77,-20,-3
8965,173,92,-175,59,-15,-15
8970,176,83,-176,51,-6,-18
8975,172,84,-172,43,-3,-17
8980,172,82,-172,39,-6,-16
8985,173,84,-174,36,-4,-17
8990,176,83,-173,36,-1,-14
8995,177,83,-168,36,3,-14
9000,175,80,-165,36,5,-11
9005,180,82,-175,36,7,-10
9010,176,85,-176,36,8,-10
9015,178,83,-173,35,8,-9
9020,177,83,-176,36,8,-10
9025,178,84,-173,36,10,-9
9030,176,85,-172,36,13,-9
9035,173,85,-175,37,16,-9
9040,179,82,-171,39,19,-8
9045,176,85,-173,40,21,-6
9050,180,84,-172,41,23,-6
9055,177,80,-170,40,23,-5
9060,179,81,-173,40,22,-5
9065,178,86,-172,42,23,-5
9070,178,82,-167,42,21,-3
9075,177,86,-174,41,20,-4
9080,174,82,-172,41,22,-6
9085,177,82,-167,41,22,-6
9090,175,85,-168,41,21,-6
9095,173,82,-167,41,19,-5
9100,171,81,-169,42,18,-6
9105,173,83,-167,42,16,-5
9110,179,80,-159,43,12,-6
9115,177,81,-166,46,10,-5
9120,175,79,-165,48,7,-4
9125,174,82,-170,49,5,-3
9130,176,83,-168,50,2,-3
9135,177,78,-167,51,1,-2
9140,178,82,-173,52,-3,-4
9145,175,85,-171,53,-4,-3
9150,175,82,-171,54,-6,-3
9155,175,78,-168,55,-10,-5
9160,175,78,-169,55,-11,-6
9165,179,83,-165,55,-13,-9
9170,177,77,-168,55,-13,-11
9175,178,78,-170,55,-15,-11
9180,177,80,-171,53,-15,-10
9185,176,80,-173,51,-15,-13
9190,177,84,-175,50,-17,-13
9195,178,79,-172,50,-19,-13
9200,177,79,-173,50,-21,-15
9205,177,80,-174,50,-22,-15
9210,174,81,-170,52,-23,-14
9215,174,80,-181,53,-22,-13
9220,178,87,-175,54,-19,-14
9225,176,83,-176,54,-15,-13
9230,176,79,-172,52,-11,-12
9235,177,74,-173,51,-3,-6
9240,174,78,-173,51,7,7
9245,175,86,-171,47,8,-5
9250,174,83,-175,45,7,-15
9255,172,83,-171,45,8,-18
9260,174,80,-168,43,6,-20
9265,171,86,-174,44,3,-19
9270,177,79,-173,46,3,-20
9275,177,81,-177,48,3,-21
9280,176,82,-174,48,1,-20
9285,178,82,-171,50,1,-21
9290,176,80,-169,50,-1,-20
9295,178,80,-170,50,-2,-19
9300,176,81,-172,51,-4,-18
9305,186,69,-170,55,0,-8
9310,174,67,-168,63,17,28
9315,166,92,-173,51,8,17
9320,167,93,-168,48,7,-8
9325,173,83,-168,55,10,-20
9330,176,82,-171,55,2,-23
9335,174,84,-172,51,-5,-22
9340,172,82,-171,51,-7,-21
9345,175,83,-170,50,-7,-21
9350,172,83,-172,51,-6,-19
9355,171,83,-170,52,-8,-16
9360,172,85,-169,53,-8,-16
9365,173,81,-176,51,-10,-17
9370,172,82,-169,50,-8,-18
9375,172,81,-169,50,-10,-19
9380,175,78,-163,50,-11,-17
9385,173,82,-170,50,-11,-18
9390,173,82,-170,52,-10,-16
9395,173,83,-172,51,-10,-17
9400,174,83,-170,52,-9,-18
9405,172,84,-170,53,-8,-17
9410,176,83,-171,52,-8,-17
9415,175,81,-172,53,-8,-16
9420,176,83,-166,51,-8,-13
9425,172,85,-173,49,-8,-13
9430,171,85,-175,50,-7,-11
9435,178,83,-174,49,-6,-11
9440,172,85,-171,49,-7,-11
9445,174,83,-174,48,-6,-9
9450,176,82,-168,47,-2,-7
9455,173,82,-172,49,0,-6
9460,174,82,-173,50,1,-7
9465,177,83,-172,51,3,-7
9470,176,83,-171,50,3,-6
9475,172,84,-172,49,3,-5
9480,176,79,-174,49,2,-4
9485,177,78,-174,48,2,-2
9490,176,76,-165,47,9,15
9495,168,84,-175,38,12,23
9500,171,89,-170,38,5,3
9505,171,85,-169,45,0,-5
9510,173,86,-175,49,-2,-9
9515,173,80,-171,49,-5,-9
9520,173,82,-172,49,-3,-10
9525,174,83,-171,50,-3,-11
9530,175,81,-166,50,-2,-9
9535,174,80,-168,50,-4,-10
9540,174,81,-171,48,-2,-9
9545,174,81,-174,48,-4,-10
9550,174,82,-169,46,-5,-9
9555,177,80,-174,45,-6,-9
9560,176,81,-172,44,-3,-8
9565,173,82,-175,44,-2,-9
9570,175,84,-175,43,1,-9
9575,177,78,-172,42,4,-5
9580,176,76,-169,37,21,18
9585,173,82,-168,29,18,16
9590,171,84,-176,29,16,13
9595,173,88,-171,34,9,-1
9600,167,81,-172,41,7,-10
9605,172,84,-180,46,2,-15
9610,171,84,-170,47,0,-16
9615,176,81,-175,46,-2,-16
9620,172,82,-168,46,-2,-16
9625,173,83,-174,45,-3,-16
9630,172,82,-174,44,-4,-15
9635,173,82,-173,45,-5,-16
9640,173,83,-168,45,-5,-17
9645,177,81,-173,45,-6,-16
9650,171,81,-170,44,-7,-16
9655,174,84,-176,44,-7,-17
9660,174,81,-170,43,-9,-17
9665,174,80,-168,43,-9,-18
9670,172,84,-171,41,-10,-18
9675,175,83,-173,39,-12,-18
9680,172,83,-169,40,-13,-18
9685,174,79,-167,39,-14,-15
9690,181,74,-168,38,-6,3
9695,173,83,-174,25,3,22
9700,173,85,-173,24,-8,2
9705,175,81,-173,32,-12,-9
9710,169,86,-175,40,-16,-13
9715,171,83,-176,42,-20,-17
9720,173,83,-177,44,-21,-18
9725,175,82,-174,44,-20,-19
9730,174,81,-172,42,-17,-20
9735,171,82,-172,40,-16,-19
9740,172,82,-172,38,-17,-18
9745,176,83,-172,37,-16,-16
9750,173,83,-174,36,-17,-16
9755,173,81,-173,36,-16,-10
9760,172,77,-172,33,-3,14
9765,170,74,-173,26,-6,13
9770,175,83,-172,26,-8,10
9775,172,85,-177,31,-13,-3
9780,170,82,-171,36,-12,-3
9785,171,86,-175,41,-15,-12
9790,171,82,-170,45,-14,-18
9795,173,80,-174,46,-12,-19
9800,173,83,-175,45,-13,-21
9805,171,84,-174,43,-14,-20
9810,169,83,-173,41,-15,-19
9815,173,85,-169,40,-15,-16
9820,167,82,-171,41,-16,-16
9825,173,81,-173,41,-16,-14
9830,175,82,-173,40,-15,-15
9835,171,83,-175,38,-16,-12
9840,174,85,-173,39,-15,-11
9845,173,84,-171,38,-15,-11
9850,176,82,-179,38,-12,-9
9855,179,80,-170,39,-11,-8
9860,173,79,-171,34,5,21
9865,172,86,-173,26,0,13
9870,171,91,-175,30,-4,0
9875,171,86,-174,40,-6,-7
9880,173,86,-170,46,-8,-11
9885,175,86,-175,49,-9,-13
9890,171,83,-174,50,-7,-13
9895,171,83,-177,51,-7,-12
9900,172,81,-172,51,-6,-11
9905,175,87,-176,50,-4,-10
9910,172,83,-175,52,-5,-10
9915,170,85,-176,52,-3,-10
9920,172,87,-172,51,-3,-9
9925,175,81,-176,51,-2,-9
9930,172,83,-171,51,0,-7
9935,174,82,-174,51,1,-8
9940,171,82,-172,51,3,-9
9945,171,83,-174,52,4,-9
9950,172,83,-171,52,5,-9
9955,173,85,-171,51,3,-8
9960,173,84,-173,54,5,-9
9965,173,86,-177,53,6,-10
9970,174,80,-174,55,8,-8
9975,173,81,-174,54,10,-9
9980,173,81,-175,54,12,-10
9985,170,84,-169,53,15,-10
9990,171,82,-174,52,15,-9
9995,171,84,-174,51,17,-9
10000,173,82,-173,51,17,-9
10005,171,84,-170,51,18,-6
10010,170,83,-174,51,21,-8
10015,167,86,-178,50,22,-9
10020,172,85,-176,49,22,-10
10025,174,81,-169,48,23,-9
10030,172,83,-173,47,22,-10
10035,170,82,-176,47,22,-10
10040,173,85,-176,47,22,-12
10045,172,83,-171,46,21,-13
10050,173,82,-175,46,20,-13
10055,174,82,-175,45,21,-13
10060,172,83,-170,45,22,-14
10065,170,80,-169,43,22,-15
10070,172,82,-172,43,23,-17
10075,176,79,-170,41,24,-14
10080,174,84,-172,41,25,-16
10085,174,82,-171,41,27,-16
10090,172,82,-173,41,28,-17
10095,174,83,-169,42,29,-16
10100,174,86,-174,42,28,-16
10105,173,83,-173,42,29,-16
10110,170,85,-172,42,29,-17
10115,170,87,-173,42,29,-18
10120,173,83,-174,39,29,-16
10125,171,85,-170,38,24,-13
10130,170,84,-172,42,26,-14
10135,172,82,-168,43,29,-15
10140,173,82,-178,44,27,-16
10145,174,85,-170,45,26,-16
10150,172,83,-173,45,24,-14
10155,173,86,-171,46,25,-14
10160,172,83,-170,45,25,-15
10165,174,83,-172,47,24,-14
10170,172,83,-173,47,24,-13
10175,174,80,-174,48,25,-14
10180,171,85,-174,48,24,-14
10185,175,83,-172,49,24,-12
10190,173,81,-171,50,24,-13
10195,173,79,-172,50,24,-12
10200,174,81,-175,51,24,-13
10205,172,82,-174,52,22,-11
10210,171,82,-175,53,23,-11
10215,172,85,-170,53,22,-13
10220,171,82,-176,53,23,-14
10225,173,77,-173,48,18,-13
10230,167,88,-172,50,16,-8
10235,174,84,-171,54,22,-10
10240,175,82,-171,58,27,-10
10245,175,86,-174,57,25,-10
10250,171,84,-175,56,25,-10
10255,169,82,-175,53,25,-10
10260,173,85,-175,54,26,-11
10265,172,83,-172,54,26,-9
10270,172,84,-172,56,25,-8
10275,173,85,-175,55,24,-9
10280,173,86,-173,54,22,-11
10285,173,82,-173,52,22,-10
10290,173,83,-172,50,22,-12
10295,173,82,-171,48,23,-12
10300,173,82,-172,47,23,-13
10305,173,84,-171,45,23,-13
10310,173,85,-168,44,22,-12
10315,173,83,-169,45,21,-11
10320,175,82,-171,46,20,-13
10325,172,82,-173,48,17,-12
10330,173,84,-172,50,14,-15
10335,174,81,-172,52,13,-15
10340,174,82,-177,53,13,-14
10345,174,82,-173,53,13,-14
10350,171,82,-171,51,12,-13
10355,173,82,-171,50,14,-15
10360,177,82,-165,50,16,-15
10365,172,81,-173,47,18,-19
10370,173,83,-174,45,14,-13
10375,167,65,-164,44,13,-13
10380,171,75,-176,85,20,11
10385,176,87,-171,98,27,-5
10390,173,88,-174,91,26,-5
10395,174,97,-169,64,23,-16
10400,171,87,-175,53,22,-21
10405,174,82,-174,51,18,-19
10410,174,84,-173,50,14,-17
10415,175,84,-170,49,14,-15
10420,174,85,-174,50,14,-12
10425,172,85,-172,49,14,-13
10430,172,82,-172,49,13,-10
10435,174,86,-170,48,14,-10
10440,172,89,-168,49,16,-8
10445,175,82,-173,49,16,-10
10450,171,84,-176,48,17,-10
10455,177,81,-169,49,18,-9
10460,175,80,-173,48,18,-10
10465,174,83,-170,50,17,-10
10470,175,87,-166,50,17,-11
10475,171,84,-165,50,16,-11
10480,174,84,-172,51,15,-11
10485,172,85,-170,50,15,-12
10490,170,84,-173,50,13,-11
10495,172,84,-172,50,14,-11
10500,175,85,-168,49,14,-11
10505,171,86,-170,50,14,-11
10510,170,83,-176,51,14,-11
10515,169,85,-172,51,14,-11
10520,175,82,-172,50,15,-9
10525,171,80,-176,51,17,-7
10530,174,84,-175,52,17,-8
10535,174,84,-172,52,18,-7
10540,173,86,-175,52,18,-7
10545,173,85,-176,52,19,-7
10550,174,83,-176,53,20,-8
10555,173,84,-172,53,21,-8
10560,173,82,-173,52,21,-7
10565,175,82,-170,53,22,-8
10570,176,84,-173,52,23,-8
10575,173,83,-170,53,22,-8
10580,172,82,-170,53,20,-8
10585,171,89,-171,54,20,-10
10590,172,83,-171,52,19,-10
10595,173,83,-170,52,19,-11
10600,174,84,-172,51,19,-10
10605,175,86,-170,52,17,-11
10610,174,83,-170,50,18,-12
10615,175,83,-169,49,17,-10
10620,174,83,-174,50,17,-13
10625,173,82,-170,49,18,-11
10630,175,84,-173,50,17,-14
10635,166,81,-178,49,17,-14
10640,174,82,-171,49,18,-14
10645,175,84,-173,48,17,-13
10650,171,86,-172,48,18,-15
10655,174,87,-170,49,18,-16
10660,174,83,-172,49,18,-15
10665,171,82,-171,49,17,-15
10670,172,86,-171,50,15,-13
10675,172,84,-170,49,15,-13
10680,176,78,-172,48,16,-12
10685,176,80,-175,50,16,-13
10690,175,86,-171,49,16,-13
10695,176,84,-171,50,16,-15
10700,175,85,-169,46,15,-12
10705,173,85,-169,46,11,-11
10710,174,84,-174,50,14,-12
10715,173,81,-173,51,18,-12
10720,171,87,-170,52,18,-12
10725,172,85,-172,51,19,-12
10730,172,87,-175,51,19,-11
10735,174,86,-173,50,20,-9
10740,177,83,-172,51,22,-11
10745,172,83,-172,52,21,-11
10750,176,85,-171,51,21,-12
10755,175,81,-168,52,21,-9
10760,172,82,-174,53,21,-9
10765,170,83,-174,54,19,-8
10770,176,84,-170,55,20,-9
10775,175,82,-168,56,18,-9
10780,173,80,-170,56,18,-10
10785,175,79,-170,59,18,-8
10790,173,79,-171,62,17,-10
10795,171,77,-171,80,12,-2
10800,169,82,-169,97,12,-5
10805,175,78,-165,92,13,-12
10810,174,84,-175,90,8,-3
10815,177,96,-171,60,7,-13
10820,175,87,-170,60,15,-17
10825,178,83,-170,54,15,-14
10830,170,86,-172,49,9,-12
10835,177,86,-169,49,9,-10
10840,175,85,-166,52,9,-9
10845,172,85,-172,53,10,-7
10850,174,82,-176,53,11,-10
10855,178,78,-169,52,10,-10
10860,175,78,-171,50,10,-10
10865,173,83,-172,49,11,-10
10870,178,80,-170,48,11,-10
10875,176,81,-172,48,11,-12
10880,171,81,-168,47,11,-11
10885,175,82,-165,46,11,-11
10890,177,84,-173,47,8,-13
10895,175,83,-173,49,8,-13
10900,175,84,-168,50,6,-11
10905,178,77,-175,51,4,-13
10910,173,84,-171,53,4,-11
10915,175,82,-175,51,5,-10
10920,176,81,-173,50,6,-11
10925,171,83,-169,50,8,-11
10930,172,86,-171,48,9,-12
10935,173,82,-171,48,11,-12
10940,177,84,-173,47,13,-12
10945,176,81,-170,46,15,-13
10950,174,82,-171,46,15,-13
10955,175,81,-173,46,15,-12
10960,174,80,-174,47,14,-11
10965,174,86,-173,48,13,-13
10970,176,82,-171,49,9,-12
10975,172,84,-175,50,6,-13
10980,173,86,-169,51,3,-13
10985,175,84,-170,50,2,-12
10990,172,87,-174,52,0,-13
10995,172,85,-174,51,-1,-13
11000,174,86,-176,51,-1,-11
11005,174,83,-172,51,0,-13
11010,174,82,-169,50,2,-12
11015,176,82,-170,50,2,-11
11020,174,88,-169,50,3,-11
11025,174,86,-171,51,4,-10
11030,173,82,-175,51,4,-12
11035,173,84,-171,51,5,-12
11040,176,85,-173,50,5,-11
11045,175,84,-172,52,5,-11
11050,172,84,-170,51,4,-11
11055,171,81,-171,51,4,-11
11060,171,83,-170,51,6,-11
11065,173,83,-165,52,3,-10
11070,173,83,-175,52,4,-10
11075,176,83,-171,52,4,-10
11080,175,84,-173,52,3,-10
11085,175,85,-173,52,3,-10
11090,175,83,-173,51,2,-10
11095,176,83,-169,52,3,-10
11100,173,81,-173,50,2,-11
11105,175,87,-171,51,3,-9
11110,175,79,-171,51,2,-10
11115,172,83,-169,51,2,-9
11120,179,81,-171,51,2,-8
11125,172,80,-174,51,3,-7
11130,175,85,-173,51,2,-7
11135,175,82,-169,52,3,-6
11140,172,82,-171,51,3,-9
11145,176,82,-173,51,3,-9
11150,173,80,-172,50,2,-9
11155,172,80,-168,50,3,-9
11160,175,80,-172,50,3,-9
11165,173,86,-172,48,2,-9
11170,173,83,-171,47,1,-13
11175,171,80,-171,47,0,-13
11180,173,81,-165,46,0,-14
11185,174,81,-172,45,-2,-15
11190,174,82,-169,45,-2,-13
11195,173,84,-172,44,-2,-14
11200,174,86,-172,44,-2,-15
11205,176,83,-172,44,-1,-15
11210,173,84,-169,44,-1,-15
11215,172,85,-173,44,-2,-15
11220,173,85,-177,45,0,-11
11225,175,81,-175,47,-1,-11
11230,173,84,-177,45,1,-14
11235,176,81,-172,45,0,-12
11240,175,84,-175,47,0,-13
11245,170,84,-173,46,0,-13
11250,172,84,-172,47,2,-14
11255,172,81,-172,48,2,-13
11260,172,84,-171,47,2,-14
11265,174,83,-175,48,2,-13
11270,175,86,-170,48,4,-13
11275,175,79,-173,47,5,-14
11280,174,82,-176,49,6,-12
11285,170,84,-174,49,7,-12
11290,174,81,-178,50,7,-11
11295,171,87,-174,50,6,-13
11300,175,85,-173,52,7,-11
11305,175,82,-174,51,7,-12
11310,171,85,-171,51,8,-9
11315,171,84,-171,52,7,-10
11320,172,84,-169,53,7,-8
11325,174,82,-173,51,7,-8
11330,171,82,-172,51,8,-8
11335,171,80,-170,52,6,-8
11340,180,82,-169,51,6,-7
11345,173,80,-172,51,7,-7
11350,174,84,-170,52,7,-8
11355,175,81,-170,52,6,-8
11360,172,83,-172,51,5,-7
11365,175,82,-171,52,6,-10
11370,171,83,-172,52,6,-9
11375,168,85,-170,53,7,-8
11380,175,81,-168,52,6,-10
11385,171,85,-174,52,6,-9
11390,175,89,-173,51,5,-10
11395,172,81,-173,51,8,-9
11400,172,86,-174,50,7,-8
11405,172,84,-175,49,7,-8
11410,171,85,-174,48,7,-8
11415,176,83,-171,50,8,-7
11420,172,82,-170,51,8,-8
11425,173,85,-171,52,8,-9
11430,174,81,-177,50,7,-11
11435,173,86,-176,50,7,-11
11440,171,84,-172,49,7,-11
11445,175,83,-172,50,8,-11
11450,174,86,-184,50,7,-12
11455,173,82,-171,47,8,-14
11460,173,82,-172,47,11,-14
11465,176,82,-173,45,9,-12
11470,174,84,-174,45,7,-12
11475,176,83,-172,45,7,-10
11480,174,84,-169,46,4,-10
11485,174,84,-172,46,3,-11
11490,174,81,-172,48,2,-13
11495,171,80,-176,48,1,-14
11500,168,83,-172,49,0,-12
11505,177,79,-178,49,3,-13
11510,172,82,-173,49,5,-12
11515,172,82,-172,49,7,-11
11520,172,82,-177,47,9,-11
11525,174,83,-167,46,12,-13
11530,172,81,-171,46,13,-13
11535,174,83,-171,47,14,-11
11540,174,82,-169,47,13,-11
11545,170,84,-172,48,13,-13
11550,175,82,-173,49,12,-12
11555,173,85,-173,50,12,-11
11560,169,81,-171,50,12,-11
11565,175,83,-176,51,12,-11
11570,173,83,-172,49,11,-12
11575,173,85,-171,49,11,-12
11580,173,84,-174,49,11,-12
11585,174,82,-172,49,12,-11
11590,173,87,-170,48,14,-10
11595,171,84,-170,49,14,-12
11600,169,86,-176,50,14,-11
11605,172,85,-175,50,15,-9
11610,169,84,-173,50,15,-10
11615,171,82,-172,50,14,-9
11620,173,86,-174,50,14,-10
11625,173,83,-172,51,12,-11
11630,174,84,-174,52,12,-10
11635,169,83,-175,51,13,-10
11640,173,86,-173,52,11,-11
11645,177,82,-173,51,11,-12
11650,171,83,-172,51,12,-12
11655,172,80,-170,51,12,-10
11660,171,85,-174,51,12,-9
11665,174,83,-175,51,13,-9
11670,172,77,-174,52,12,-8
11675,173,81,-175,51,13,-9
11680,170,83,-173,50,13,-8
11685,173,83,-173,51,13,-9
11690,171,85,-170,51,14,-10
11695,171,85,-174,53,15,-8
11700,173,84,-173,52,19,-8
11705,175,81,-166,52,18,-6
11710,174,82,-172,51,20,-7
11715,172,83,-175,53,20,-6
11720,170,86,-175,52,20,-5
11725,168,80,-177,52,19,-6
11730,173,82,-170,51,19,-8
11735,173,84,-172,51,17,-8
11740,169,83,-173,50,16,-9
11745,175,82,-169,50,16,-11
11750,171,86,-172,49,16,-10
11755,173,82,-172,48,14,-11
11760,173,85,-174,47,14,-11
11765,176,82,-168,47,13,-14
11770,171,85,-172,47,13,-13
11775,173,81,-175,48,13,-14
11780,171,81,-174,47,13,-14
11785,173,84,-171,48,13,-12
11790,173,83,-173,49,15,-13
11795,175,83,-173,48,15,-13
11800,174,84,-173,48,18,-14
11805,173,86,-174,49,17,-12
11810,172,86,-173,50,17,-12
11815,175,86,-171,48,18,-12
11820,169,86,-173,49,17,-12
11825,172,85,-170,49,18,-12
11830,173,86,-170,49,19,-12
11835,175,79,-161,49,19,-10
11840,171,85,-173,51,17,-12
11845,173,85,-174,49,17,-12
11850,174,81,-173,48,17,-11
11855,175,82,-173,48,18,-11
11860,175,79,-170,49,18,-12
11865,173,83,-171,49,17,-11
11870,168,84,-174,49,17,-11
11875,174,84,-176,50,18,-11
11880,177,85,-179,50,17,-10
11885,175,84,-166,49,17,-10
11890,173,84,-169,51,17,-10
11895,173,82,-172,50,17,-10
11900,173,85,-176,51,18,-9
11905,178,82,-173,51,18,-7
11910,173,83,-171,51,17,-6
11915,173,80,-172,51,17,-6
11920,174,86,-170,53,17,-6
11925,174,83,-169,52,17,-7
11930,170,86,-174,52,17,-6
11935,174,82,-172,53,17,-7
11940,173,79,-171,53,17,-8
11945,173,83,-173,53,18,-8
11950,173,86,-171,53,18,-8
11955,176,85,-173,53,17,-8
11960,174,85,-170,53,17,-9
11965,173,84,-172,53,16,-9
11970,171,83,-172,52,17,-10
11975,175,84,-169,52,16,-9
11980,173,84,-170,50,15,-8
11985,176,81,-171,51,14,-10
11990,173,85,-173,52,14,-11
11995,175,78,-166,50,16,-9
12000,173,85,-173,50,16,-10
12005,174,83,-168,50,14,-11
12010,175,83,-173,50,14,-10
12015,172,85,-169,52,13,-10
12020,174,83,-174,52,10,-12
12025,175,86,-174,51,10,-13
12030,175,82,-170,51,9,-13
12035,172,80,-177,50,10,-12
12040,174,87,-171,49,12,-12
12045,171,85,-174,49,13,-14
12050,172,83,-169,48,14,-11
12055,175,84,-168,47,15,-11
12060,173,83,-169,47,14,-11
12065,175,81,-167,49,14,-11
12070,173,83,-172,49,13,-12
12075,174,84,-173,49,12,-12
12080,174,86,-170,50,10,-13
12085,174,83,-172,50,9,-12
12090,172,85,-173,50,10,-12
12095,177,81,-171,52,11,-11
12100,170,84,-166,49,13,-12
12105,171,84,-169,48,13,-12
12110,173,84,-172,47,15,-11
12115,171,83,-169,45,18,-13
12120,174,85,-173,45,20,-13
12125,171,83,-175,46,20,-13
12130,173,83,-169,47,20,-13
12135,176,86,-172,48,19,-12
12140,174,82,-173,49,17,-12
12145,176,83,-175,50,15,-12
12150,173,87,-173,49,14,-12
12155,174,83,-171,50,13,-12
12160,177,77,-173,49,12,-12
12165,175,86,-172,50,11,-12
12170,174,85,-171,50,11,-11
12175,172,87,-173,50,14,-11
12180,169,84,-173,50,16,-12
12185,173,86,-170,50,16,-11
12190,170,85,-173,50,17,-11
12195,175,82,-171,50,17,-12
12200,174,84,-169,50,16,-10
12205,173,86,-171,51,16,-9
12210,176,83,-172,50,16,-11
12215,177,84,-167,50,15,-8
12220,175,84,-172,50,14,-10
12225,175,84,-173,52,13,-9
12230,175,83,-173,52,12,-10
12235,174,84,-168,52,12,-7
12240,171,81,-172,53,12,-9
12245,173,81,-171,54,12,-9
12250,173,83,-170,53,13,-8
12255,175,83,-170,53,13,-8
12260,173,83,-174,52,14,-10
12265,177,81,-170,52,15,-11
12270,175,77,-177,51,16,-11
12275,176,82,-172,52,16,-11
12280,176,82,-171,52,17,-9
12285,173,85,-172,52,17,-9
12290,173,85,-172,52,17,-8
12295,173,83,-171,52,17,-10
12300,178,83,-170,53,18,-8
12305,172,84,-173,52,19,-9
12310,173,86,-172,53,18,-9
12315,170,83,-170,52,17,-8
12320,171,88,-168,51,18,-9
12325,166,75,-167,50,17,-11
12330,174,84,-171,50,16,-9
12335,176,83,-175,50,17,-10
12340,175,85,-171,49,17,-10
12345,174,84,-173,49,17,-12
12350,177,80,-172,50,16,-12
12355,175,83,-172,49,15,-10
12360,172,84,-171,48,16,-11
12365,172,82,-176,49,16,-12
12370,172,85,-173,49,16,-12
12375,173,84,-173,49,15,-12
12380,168,79,-172,50,16,-11
12385,175,81,-172,50,16,-12
12390,174,85,-170,50,16,-11
12395,175,85,-171,50,15,-13
12400,174,84,-174,51,15,-12
12405,173,84,-173,51,15,-12
12410,171,88,-171,51,13,-10
12415,172,85,-174,51,15,-13
12420,175,86,-172,50,16,-12
12425,171,81,-170,51,16,-9
12430,174,81,-172,50,17,-9
12435,174,84,-169,51,18,-9
12440,173,86,-172,50,18,-11
12445,175,84,-169,50,18,-10
12450,172,82,-172,51,17,-10
12455,172,85,-172,50,18,-10
12460,178,84,-173,51,16,-11
12465,173,81,-171,48,17,-14
12470,173,82,-170,42,11,-10
12475,171,85,-173,42,8,-8
12480,174,83,-170,48,14,-10
12485,171,89,-168,52,17,-9
12490,175,85,-175,52,16,-10
12495,172,86,-172,52,14,-8
12500,170,84,-174,52,14,-8
12505,174,85,-171,52,15,-8
12510,170,85,-169,53,16,-8
12515,178,80,-172,52,17,-8
12520,174,84,-170,53,16,-8
12525,176,85,-169,53,17,-9
12530,172,85,-170,53,15,-9
12535,175,84,-167,53,14,-9
12540,175,81,-170,54,13,-8
12545,173,85,-170,54,14,-8
12550,174,83,-168,54,13,-8
12555,175,80,-171,54,13,-9
12560,171,84,-171,55,14,-9
12565,172,81,-170,53,14,-8
12570,174,82,-170,53,14,-9
12575,173,86,-175,52,14,-9
12580,173,80,-174,52,14,-9
12585,178,80,-171,53,14,-9
12590,171,84,-172,52,14,-7
12595,170,83,-174,51,15,-8
12600,174,85,-175,51,15,-9
12605,175,84,-174,51,16,-7
12610,173,82,-169,52,16,-10
12615,174,84,-170,53,14,-10
12620,173,86,-177,52,14,-10
12625,174,81,-170,51,12,-8
12630,173,84,-176,51,12,-11
12635,172,82,-170,52,14,-11
12640,174,84,-172,52,16,-11
12645,174,83,-168,51,17,-10
12650,170,84,-174,50,18,-10
12655,173,83,-172,49,17,-11
12660,173,85,-172,49,18,-10
12665,176,83,-168,49,17,-13
12670,176,81,-172,50,13,-12
12675,174,83,-172,52,12,-12
12680,174,82,-170,52,11,-12
12685,172,86,-176,53,11,-12
12690,175,87,-174,53,12,-11
12695,175,82,-172,53,11,-11
12700,174,81,-172,53,14,-11
12705,173,80,-175,54,15,-11
12710,173,85,-171,53,17,-12
12715,175,80,-168,51,17,-12
12720,172,82,-168,51,21,-13
12725,173,85,-171,51,22,-11
12730,172,84,-167,51,22,-11
12735,175,83,-171,52,22,-10
12740,175,83,-168,53,21,-11
12745,178,86,-172,53,21,-11
12750,171,87,-174,55,19,-11
12755,173,84,-174,53,17,-10
12760,174,81,-172,54,15,-11
12765,180,86,-170,54,13,-12
12770,177,83,-174,51,13,-15
12775,172,80,-175,45,5,-10
12780,173,86,-166,44,2,-7
12785,175,84,-173,54,12,-11
12790,175,79,-172,61,16,-9
12795,177,68,-179,86,7,5
12800,174,89,-176,110,10,-6
12805,173,92,-169,96,16,-17
12810,173,86,-165,73,18,-18
12815,168,81,-166,55,14,-15
12820,175,84,-173,51,10,-10
12825,175,83,-174,51,11,-10
12830,173,84,-171,53,12,-7
12835,173,84,-176,51,12,-8
12840,173,88,-170,51,11,-7
12845,175,84,-173,52,13,-7
12850,175,81,-171,51,13,-7
12855,170,86,-173,51,14,-8
12860,176,82,-165,51,13,-8
12865,175,81,-173,50,13,-9
12870,171,83,-174,50,14,-10
12875,174,85,-170,50,16,-11
12880,175,82,-171,51,14,-10
12885,173,86,-171,50,14,-11
12890,177,82,-172,51,15,-10
12895,172,84,-168,51,15,-9
12900,176,84,-173,52,15,-9
12905,175,85,-174,52,17,-10
12910,171,84,-169,52,16,-10
12915,174,82,-176,52,17,-9
12920,181,83,-162,53,17,-10
12925,179,81,-173,53,16,-12
12930,172,83,-171,51,17,-13
12935,176,80,-175,52,16,-13
12940,172,85,-173,52,16,-12
12945,171,86,-170,53,16,-12
12950,174,85,-172,51,17,-11
12955,175,86,-173,52,15,-12
12960,170,86,-172,52,15,-11
12965,173,83,-174,49,16,-10
12970,177,81,-174,50,15,-12
12975,180,79,-174,49,16,-12
12980,177,80,-172,49,17,-12
12985,172,83,-172,49,18,-11
12990,176,84,-170,50,18,-12
12995,175,85,-169,49,18,-12
13000,174,84,-170,50,19,-10
13005,174,80,-175,52,19,-11
13010,174,82,-173,50,20,-12
13015,171,85,-174,53,20,-9
13020,172,86,-170,52,18,-9
13025,175,83,-171,51,17,-9
13030,181,84,-176,52,18,-10
13035,173,86,-169,51,19,-8
13040,177,79,-169,49,18,-8
13045,172,86,-174,51,17,-9
13050,176,83,-172,52,18,-9
13055,176,80,-172,51,18,-8
13060,175,83,-171,51,19,-8
13065,174,84,-172,52,18,-9
13070,174,84,-173,52,18,-10
13075,175,86,-174,52,15,-8
13080,175,82,-168,51,17,-12
13085,171,77,-171,45,8,-10
13090,176,84,-172,45,6,-7
13095,169,76,-164,55,11,-9
13100,174,73,-175,106,2,7
13105,175,93,-172,117,8,-7
13110,178,90,-166,101,13,-16
13115,174,91,-169,78,16,-16
13120,173,86,-169,58,13,-14
13125,171,82,-171,53,12,-12
13130,174,89,-171,53,12,-9
13135,175,80,-171,53,15,-9
13140,177,84,-173,52,16,-8
13145,172,87,-170,52,17,-8
13150,174,85,-169,53,17,-8
13155,173,84,-170,53,15,-8
13160,176,86,-171,54,14,-10
13165,175,83,-170,54,15,-8
13170,173,83,-174,53,15,-9
13175,177,84,-169,53,13,-11
13180,173,83,-175,52,14,-11
13185,171,83,-174,51,13,-11
13190,175,79,-170,50,13,-10
13195,174,91,-174,51,14,-11
13200,177,82,-172,50,13,-12
13205,173,83,-175,50,12,-11
13210,177,80,-172,49,14,-12
13215,174,83,-172,49,14,-10
13220,176,80,-172,48,15,-10
13225,174,83,-173,48,15,-10
13230,172,82,-173,48,13,-12
13235,173,81,-175,49,13,-11
13240,176,83,-171,49,13,-12
13245,178,82,-171,50,12,-13
13250,169,81,-172,49,11,-13
13255,172,82,-171,49,11,-14
13260,175,85,-172,48,13,-14
13265,173,87,-169,49,14,-13
13270,175,85,-170,48,13,-12
13275,175,79,-168,48,13,-13
13280,177,82,-174,48,12,-11
13285,173,83,-169,49,10,-11
13290,174,83,-173,50,9,-14
13295,171,84,-170,50,7,-13
13300,173,84,-171,51,6,-13
13305,176,85,-171,52,6,-14
13310,173,86,-168,53,8,-14
13315,174,83,-170,52,9,-13
13320,172,82,-168,51,11,-13
13325,173,83,-169,50,13,-13
13330,172,84,-169,50,16,-10
13335,173,84,-172,50,19,-10
13340,175,84,-174,49,20,-10
13345,172,84,-174,50,22,-11
13350,176,81,-170,51,22,-12
13355,173,78,-173,52,22,-11
13360,174,93,-172,54,21,-9
13365,176,84,-170,54,19,-10
13370,174,85,-168,53,17,-11
13375,171,85,-167,53,14,-9
13380,176,84,-172,52,12,-9
13385,171,85,-171,52,12,-10
13390,177,83,-168,53,13,-11
13395,177,82,-176,52,12,-11
13400,176,80,-175,52,12,-10
13405,174,86,-171,52,13,-10
13410,174,82,-175,52,14,-10
13415,172,83,-176,52,16,-10
13420,176,83,-170,53,18,-10
13425,173,87,-172,53,18,-12
13430,176,83,-171,54,20,-11
13435,174,83,-168,54,21,-12
13440,174,85,-172,53,21,-10
13445,175,82,-168,54,22,-9
13450,177,83,-173,55,22,-10
13455,173,84,-167,55,20,-9
13460,175,80,-171,57,21,-10
13465,170,79,-176,56,21,-11
13470,173,83,-174,55,21,-11
13475,177,82,-173,56,21,-11
13480,175,83,-174,56,22,-11
13485,175,84,-169,57,21,-10
13490,174,80,-169,58,22,-13
13495,158,47,-167,66,15,-5
13500,177,81,-181,139,-23,13
13505,176,96,-171,138,3,-7
13510,175,95,-170,125,23,-24
13515,179,92,-169,95,33,-25
13520,170,86,-172,65,23,-18
13525,174,83,-176,54,18,-12
13530,173,84,-173,54,19,-8
13535,172,85,-171,54,22,-8
13540,173,80,-173,53,25,-6
13545,172,82,-171,53,27,-4
13550,174,85,-175,53,29,-5
13555,175,80,-170,54,31,-5
13560,174,83,-172,52,30,-5
13565,175,86,-171,50,29,-7
13570,174,82,-173,50,30,-8
13575,173,85,-172,51,30,-10
13580,176,81,-169,51,30,-12
13585,177,83,-171,50,30,-10
13590,179,81,-170,50,30,-12
13595,176,84,-173,47,29,-15
13600,156,39,-159,44,18,-10
13605,175,85,-173,110,-2,4
13610,177,96,-165,108,15,-16
13615,176,89,-167,99,27,-22
13620,179,85,-174,70,28,-21
13625,175,86,-174,52,20,-17
13630,171,92,-181,49,16,-14
13635,177,85,-174,49,18,-14
13640,173,86,-170,49,20,-12
13645,173,81,-171,48,21,-10
13650,176,82,-172,49,20,-9
13655,175,85,-174,51,21,-10
13660,178,84,-170,50,21,-10
13665,175,82,-172,51,20,-9
13670,175,85,-176,52,20,-11
13675,175,81,-169,52,19,-10
13680,173,82,-177,52,19,-11
13685,172,84,-171,51,18,-11
13690,174,84,-168,51,17,-11
13695,176,82,-172,51,16,-11
13700,174,85,-173,51,15,-11
13705,177,83,-168,51,15,-11
13710,176,85,-171,51,16,-10
13715,178,82,-173,50,14,-10
13720,175,80,-173,49,15,-10
13725,174,82,-171,51,14,-9
13730,175,81,-173,52,15,-8
13735,171,86,-172,50,14,-9
13740,174,83,-168,51,13,-10
13745,176,84,-169,51,14,-8
13750,176,83,-170,50,13,-8
13755,178,81,-171,49,13,-9
13760,176,84,-170,48,12,-8
13765,174,83,-170,51,13,-8
13770,173,84,-171,52,11,-10
13775,174,84,-174,51,12,-9
13780,174,81,-174,53,12,-8
13785,173,83,-175,53,11,-9
13790,176,80,-173,52,10,-10
13795,175,79,-175,52,11,-9
13800,176,81,-172,52,11,-8
13805,176,83,-173,51,12,-7
13810,175,84,-171,52,11,-7
13815,176,85,-171,52,10,-8
13820,176,83,-169,50,9,-9
13825,175,84,-169,51,10,-8
13830,176,80,-170,51,10,-8
13835,171,87,-166,50,9,-9
13840,173,82,-171,49,10,-9
13845,173,83,-171,50,10,-9
13850,171,82,-171,51,9,-10
13855,176,82,-167,51,8,-10
13860,177,79,-167,50,7,-9
13865,174,82,-171,51,6,-10
13870,175,81,-171,52,6,-13
13875,176,81,-168,54,7,-10
13880,177,81,-175,53,7,-11
13885,173,80,-172,53,8,-9
13890,175,84,-169,53,8,-8
13895,177,83,-171,51,8,-8
13900,176,83,-173,50,7,-9
13905,176,78,-173,51,6,-10
13910,175,75,-167,51,3,-11
13915,175,82,-173,54,2,-11
13920,175,85,-172,54,1,-12
13925,173,84,-172,55,0,-12
13930,175,82,-172,55,2,-12
13935,169,84,-172,55,2,-12
13940,175,82,-170,54,4,-12
13945,175,82,-166,52,6,-10
13950,175,83,-169,51,7,-10
13955,171,82,-170,50,9,-9
13960,174,81,-172,50,11,-10
13965,179,80,-169,50,12,-10
13970,174,81,-168,49,11,-12
13975,179,82,-170,50,11,-11
13980,176,82,-170,50,9,-10
13985,179,84,-169,50,7,-11
13990,175,83,-172,51,5,-12
13995,172,85,-172,53,3,-11
14000,176,82,-175,52,0,-11
14005,175,82,-175,53,-1,-8
14010,173,83,-168,52,-1,-9
14015,176,82,-170,52,-3,-11
14020,174,86,-171,52,-2,-10
14025,173,85,-174,52,0,-10
14030,177,82,-171,51,1,-10
14035,175,83,-173,52,4,-9
14040,176,82,-174,50,5,-10
14045,177,81,-174,53,7,-8
14050,177,79,-173,52,8,-9
14055,173,83,-170,50,9,-9
14060,175,82,-172,50,8,-8
14065,175,84,-175,51,8,-9
14070,174,84,-168,52,7,-9
14075,175,80,-168,53,6,-10
14080,177,79,-171,52,5,-9
14085,177,81,-169,53,5,-9
14090,172,83,-171,52,4,-11
14095,175,82,-170,52,4,-11
14100,175,82,-169,52,4,-10
14105,175,83,-174,52,3,-11
14110,177,82,-171,52,4,-11
14115,175,79,-173,52,3,-10
14120,180,80,-178,51,2,-11
14125,174,80,-169,50,3,-11
14130,174,81,-169,51,3,-10
14135,177,81,-170,51,5,-10
14140,175,82,-168,53,5,-8
14145,178,82,-171,53,3,-8
14150,172,84,-171,52,3,-11
14155,177,79,-165,52,3,-9
14160,175,82,-167,52,4,-10
14165,173,85,-171,51,5,-11
14170,173,81,-173,50,5,-11
14175,177,80,-169,50,5,-12
14180,175,82,-166,49,4,-13
14185,175,85,-168,49,4,-12
14190,174,81,-171,48,4,-12
14195,175,80,-175,48,5,-11
14200,175,81,-170,49,5,-11
14205,175,82,-171,49,5,-11
14210,172,85,-168,49,4,-9
14215,175,80,-174,50,5,-10
14220,175,81,-171,50,5,-11
14225,173,82,-170,49,4,-11
14230,172,83,-166,50,4,-11
14235,176,81,-172,50,5,-10
14240,176,82,-171,51,4,-10
14245,175,80,-172,51,3,-12
14250,174,82,-172,51,3,-10
14255,174,84,-170,50,2,-11
14260,176,83,-172,51,3,-12
14265,174,83,-176,51,3,-12
14270,176,80,-169,52,3,-11
14275,175,81,-173,52,3,-11
14280,176,84,-168,52,3,-11
14285,175,79,-168,51,2,-10
14290,175,82,-170,50,2,-10
14295,176,83,-174,51,3,-11
14300,175,81,-172,52,3,-11
14305,177,84,-170,52,2,-10
14310,176,83,-173,52,2,-10
14315,178,83,-172,51,2,-11
14320,175,83,-177,51,2,-10
14325,177,85,-171,51,2,-10
14330,175,82,-173,51,4,-10
14335,176,80,-170,51,3,-9
14340,171,77,-171,51,3,-8
14345,176,84,-169,52,3,-8
14350,173,84,-175,53,4,-9
14355,175,82,-170,53,4,-8
14360,174,82,-175,53,5,-7
14365,174,81,-172,52,5,-7
14370,171,84,-169,53,6,-7
14375,178,76,-171,53,6,-8
14380,171,85,-172,52,5,-7
14385,174,82,-170,50,5,-9
14390,172,85,-172,51,3,-6
14395,179,82,-177,51,2,-8
14400,174,80,-173,52,2,-9
14405,176,84,-171,52,2,-10
14410,175,81,-171,52,1,-11
14415,172,85,-173,51,2,-9
14420,175,81,-172,51,2,-10
14425,170,85,-171,50,1,-8
14430,172,82,-172,49,1,-8
14435,176,79,-170,49,0,-9
14440,175,80,-166,49,0,-10
14445,171,82,-173,48,-1,-9
14450,175,83,-173,48,0,-8
14455,173,80,-171,47,0,-9
14460,173,83,-171,46,0,-10
14465,171,85,-171,45,-1,-9
14470,177,80,-172,45,-2,-9
14475,171,85,-173,46,-4,-10
14480,175,82,-169,46,-3,-10
14485,174,82,-175,47,-3,-10
14490,177,82,-173,47,-4,-12
14495,173,84,-174,47,-4,-12
14500,168,91,-182,46,-2,-12
14505,174,82,-172,46,-2,-12
14510,174,80,-170,43,0,-9
14515,173,82,-174,41,-1,-8
14520,174,82,-170,42,-2,-8
14525,173,83,-174,42,-2,-7
14530,175,82,-171,44,-4,-9
14535,175,82,-169,43,-7,-11
14540,175,79,-168,45,-10,-11
14545,173,81,-170,46,-12,-13
14550,174,81,-169,47,-12,-12
14555,172,77,-170,47,-13,-13
14560,174,81,-172,47,-13,-13
14565,172,84,-173,47,-13,-13
14570,174,85,-170,45,-12,-12
14575,170,83,-170,45,-10,-11
14580,175,82,-174,45,-9,-10
14585,170,81,-169,44,-9,-11
14590,173,85,-165,44,-6,-10
14595,171,83,-175,44,-6,-10
14600,175,84,-173,44,-5,-10
14605,176,84,-170,45,-7,-11
14610,168,84,-180,46,-6,-12
14615,173,81,-175,47,-5,-11
14620,174,84,-173,46,-5,-10
14625,175,80,-170,47,-5,-9
14630,173,83,-175,47,-4,-9
14635,174,85,-172,47,-4,-7
14640,176,83,-174,46,-3,-8
14645,175,83,-171,45,-3,-7
14650,171,84,-174,45,-1,-9
14655,171,86,-171,45,0,-6
14660,173,80,-175,46,1,-6
14665,174,87,-171,46,1,-6
14670,174,82,-172,47,1,-6
14675,175,79,-169,47,2,-6
14680,175,82,-175,46,2,-6
14685,173,82,-172,47,1,-6
14690,174,83,-173,48,0,-9
14695,173,83,-173,48,-2,-8
14700,175,83,-173,48,-3,-7
14705,174,80,-174,48,-3,-7
14710,173,81,-170,47,-4,-9
14715,173,83,-172,46,-4,-9
14720,174,83,-170,46,-5,-10
14725,174,85,-176,48,-5,-9
14730,172,81,-169,47,-5,-9
14735,173,81,-173,47,-4,-10
14740,174,82,-171,47,-4,-9
14745,173,82,-171,46,-2,-8
14750,174,81,-170,46,-1,-8
14755,176,82,-172,45,1,-10
14760,173,84,-174,46,2,-8
14765,172,83,-178,46,2,-9
14770,174,85,-172,46,3,-8
14775,171,78,-175,45,2,-7
14780,175,80,-174,45,0,-8
14785,175,82,-171,44,1,-7
14790,176,82,-173,44,1,-8
14795,171,82,-173,43,-1,-9
14800,171,83,-170,43,-1,-9
14805,174,86,-173,43,-2,-10
14810,175,84,-171,43,-1,-10
14815,171,84,-173,43,-1,-9
14820,172,85,-171,43,-2,-8
14825,177,80,-168,42,-2,-8
14830,171,85,-166,42,-1,-8
14835,173,82,-169,42,-1,-7
14840,176,84,-174,42,0,-7
14845,172,82,-170,43,-2,-6
14850,173,84,-170,43,-2,-7
14855,173,84,-178,43,-2,-8
14860,173,80,-175,44,-2,-5
14865,176,83,-172,44,-4,-6
14870,173,82,-170,44,-4,-7
14875,172,81,-171,44,-4,-5
14880,172,85,-175,44,-3,-7
14885,173,83,-173,44,-3,-6
14890,171,85,-170,43,-3,-6
14895,174,82,-174,42,-2,-5
14900,173,85,-175,43,-2,-5
14905,172,86,-167,41,-1,-4
14910,173,82,-173,39,-1,-3
14915,176,82,-173,38,0,-1
14920,175,78,-173,38,0,-3
14925,171,83,-173,39,-2,-3
14930,171,81,-171,39,-2,-4
14935,171,81,-171,38,-2,-4
14940,180,77,-173,38,-3,-4
14945,172,82,-170,40,-6,-4
14950,173,83,-176,40,-7,-3
14955,172,84,-173,40,-7,-4
14960,174,80,-173,41,-7,-1
14965,171,83,-172,41,-8,-5
14970,173,82,-172,43,-10,-4
14975,175,81,-176,43,-8,-4
14980,176,81,-174,44,-7,-4
14985,173,79,-176,44,-6,-4
14990,170,82,-175,43,-5,-4
14995,171,83,-170,44,-5,-4
