timestamp,acc_x,acc_y,acc_z,gyro_x,gyro_y,gyro_z
0,15,-230,-97,39,1,-16
5,16,-228,-95,39,3,-14
10,13,-227,-97,39,3,-15
15,14,-226,-91,38,3,-14
20,14,-226,-95,38,4,-15
25,15,-232,-100,37,4,-15
30,15,-227,-93,36,3,-16
35,16,-223,-100,34,1,-19
40,17,-229,-90,33,1,-18
45,13,-228,-96,30,-1,-19
50,15,-230,-93,29,-3,-20
55,12,-230,-93,27,-5,-19
60,14,-230,-97,29,-7,-19
65,12,-225,-99,32,-10,-22
70,12,-225,-98,36,-12,-20
75,16,-230,-97,40,-15,-22
80,9,-232,-92,42,-17,-23
85,13,-226,-103,45,-18,-24
90,15,-228,-98,44,-17,-24
95,17,-231,-95,44,-18,-24
100,13,-228,-94,43,-19,-24
105,16,-231,-99,40,-20,-24
110,14,-228,-100,38,-22,-26
115,14,-231,-93,37,-22,-26
120,14,-230,-95,37,-24,-28
125,16,-233,-94,38,-25,-25
130,18,-228,-93,39,-22,-24
135,15,-231,-92,41,-20,-24
140,16,-231,-92,45,-17,-22
145,18,-228,-94,45,-14,-21
150,15,-226,-98,48,-11,-19
155,17,-227,-92,47,-9,-18
160,17,-224,-93,47,-7,-17
165,17,-224,-93,45,-7,-17
170,17,-223,-90,42,-7,-16
175,16,-223,-86,40,-7,-15
180,18,-223,-92,38,-8,-16
185,13,-222,-93,33,-10,-17
190,20,-220,-95,30,-11,-18
195,18,-218,-91,24,-10,-17
200,21,-219,-90,17,-8,-18
205,20,-220,-87,12,-8,-19
210,18,-221,-96,6,-8,-19
215,22,-219,-93,1,-10,-18
220,21,-222,-92,-4,-12,-17
225,19,-226,-87,-10,-15,-17
230,18,-223,-92,-17,-21,-17
235,16,-224,-87,-24,-27,-15
240,14,-229,-99,-30,-32,-14
245,17,-230,-90,-37,-39,-14
250,15,-232,-98,-42,-45,-15
255,15,-233,-94,-46,-52,-16
260,15,-228,-97,-52,-58,-17
265,14,-229,-100,-57,-64,-17
270,15,-232,-96,-60,-67,-17
275,15,-233,-94,-62,-71,-18
280,12,-234,-94,-63,-75,-19
285,13,-233,-91,-62,-78,-18
290,13,-233,-92,-57,-81,-21
295,10,-226,-97,-55,-84,-20
300,14,-233,-92,-51,-86,-19
305,15,-230,-93,-50,-87,-20
310,15,-228,-91,-50,-88,-20
315,18,-230,-92,-51,-89,-19
320,20,-232,-92,-52,-92,-20
325,17,-228,-90,-52,-94,-21
330,17,-232,-84,-53,-94,-23
335,19,-230,-90,-52,-94,-23
340,23,-229,-89,-51,-94,-23
345,21,-230,-85,-51,-92,-23
350,22,-229,-90,-50,-91,-25
355,23,-228,-87,-50,-89,-22
360,22,-228,-90,-50,-87,-22
365,24,-231,-88,-49,-85,-20
370,24,-231,-90,-47,-84,-17
375,23,-230,-85,-45,-82,-16
380,21,-230,-87,-43,-80,-16
385,23,-231,-88,-39,-77,-15
390,21,-232,-86,-30,-76,-13
395,28,-233,-88,-23,-74,-13
400,21,-231,-89,-17,-72,-14
405,20,-226,-96,-10,-69,-16
410,23,-235,-89,-2,-67,-16
415,24,-232,-89,4,-63,-18
420,27,-230,-90,8,-58,-16
425,28,-232,-92,9,-53,-15
430,26,-233,-95,13,-49,-11
435,26,-232,-94,13,-48,-8
440,25,-234,-93,16,-47,-5
445,28,-234,-91,19,-45,1
450,26,-234,-89,24,-44,3
455,26,-231,-92,27,-42,5
460,25,-227,-96,29,-40,9
465,25,-231,-94,31,-38,11
470,24,-233,-93,34,-36,11
475,26,-233,-90,36,-33,13
480,23,-229,-90,39,-33,16
485,24,-227,-88,44,-34,16
490,22,-230,-89,48,-35,13
495,22,-228,-93,49,-37,14
500,20,-230,-85,52,-38,14
505,19,-226,-90,54,-38,14
510,20,-225,-92,54,-38,13
515,30,-230,-83,52,-38,10
520,23,-227,-94,46,-37,9
525,23,-226,-93,39,-36,7
530,20,-225,-93,35,-35,6
535,22,-226,-95,30,-35,4
540,25,-226,-97,22,-36,4
545,21,-223,-92,17,-40,3
550,23,-226,-95,9,-42,5
555,25,-226,-95,1,-45,9
560,19,-223,-95,-7,-49,13
565,22,-225,-93,-9,-53,16
570,23,-228,-94,-8,-59,22
575,20,-226,-95,-14,-65,24
580,20,-225,-95,-21,-68,28
585,19,-229,-98,-21,-72,31
590,20,-229,-97,-23,-73,32
595,24,-227,-96,-30,-73,33
600,25,-228,-97,-31,-73,30
605,21,-227,-97,-32,-71,28
610,17,-226,-93,-34,-70,25
615,22,-228,-96,-29,-70,23
620,15,-228,-98,-28,-72,21
625,21,-230,-95,-31,-75,19
630,18,-225,-97,-30,-78,20
635,15,-224,-98,-26,-82,21
640,14,-222,-98,-31,-89,23
645,15,-221,-105,-43,-96,26
650,12,-218,-103,-62,-106,31
655,10,-219,-99,-81,-121,36
660,5,-218,-97,-98,-141,39
665,6,-221,-104,-112,-161,41
670,2,-219,-103,-123,-181,44
675,2,-217,-97,-132,-203,45
680,0,-215,-103,-141,-226,42
685,-6,-213,-111,-150,-249,41
690,-8,-213,-109,-154,-274,36
695,-16,-212,-108,-152,-301,25
700,-22,-210,-106,-148,-327,12
705,-25,-209,-110,-141,-352,-2
710,-30,-207,-108,-134,-375,-15
715,-32,-206,-107,-130,-395,-27
720,-31,-208,-103,-128,-413,-38
725,-39,-207,-101,-130,-430,-51
730,-33,-200,-96,-139,-443,-62
735,-42,-209,-101,-155,-461,-70
740,-47,-209,-102,-184,-480,-76
745,-47,-213,-103,-220,-501,-76
750,-48,-219,-105,-252,-522,-74
755,-52,-221,-101,-278,-542,-70
760,-56,-227,-101,-290,-558,-64
765,-54,-226,-101,-287,-570,-58
770,-49,-233,-103,-262,-574,-54
775,-40,-240,-102,-233,-569,-55
780,-34,-244,-102,-201,-558,-56
785,-16,-250,-105,-173,-543,-57
790,-13,-252,-101,-158,-518,-59
795,-3,-252,-103,-161,-480,-59
800,13,-256,-97,-172,-431,-54
805,26,-262,-98,-181,-374,-48
810,36,-265,-98,-193,-313,-41
815,44,-265,-97,-207,-251,-28
820,51,-269,-96,-223,-195,-9
825,60,-270,-97,-234,-150,9
830,60,-271,-102,-250,-113,33
835,61,-270,-105,-271,-87,59
840,57,-264,-98,-288,-73,89
845,47,-263,-111,-287,-69,121
850,39,-256,-109,-277,-70,152
855,29,-255,-111,-258,-74,179
860,22,-249,-107,-233,-78,199
865,20,-243,-107,-208,-83,216
870,14,-240,-103,-188,-87,225
875,7,-235,-98,-180,-86,226
880,3,-230,-97,-173,-79,224
885,2,-227,-87,-165,-66,218
890,1,-228,-79,-153,-47,209
895,-9,-221,-86,-144,-25,200
900,-15,-215,-80,-143,-4,189
905,-19,-208,-79,-149,16,175
910,-21,-206,-76,-154,34,162
915,-24,-201,-79,-161,51,150
920,-23,-197,-79,-175,64,136
925,-23,-196,-79,-187,72,123
930,-25,-200,-80,-194,70,113
935,-24,-200,-75,-191,64,106
940,-25,-197,-76,-186,55,97
945,-27,-200,-66,-181,46,92
950,-26,-203,-72,-169,35,87
955,-21,-204,-69,-162,25,83
960,-19,-205,-72,-162,15,77
965,-18,-206,-75,-159,6,69
970,-20,-208,-70,-157,-2,63
975,-17,-212,-77,-161,-7,56
980,-16,-214,-75,-172,-10,51
985,-13,-217,-69,-179,-11,43
990,-17,-219,-71,-183,-13,35
995,-10,-222,-72,-182,-11,28
1000,-9,-228,-70,-186,-7,19
1005,-4,-226,-68,-184,0,11
1010,-1,-227,-69,-167,10,3
1015,-2,-233,-68,-148,22,-4
1020,3,-232,-68,-128,36,-12
1025,4,-232,-67,-110,51,-18
1030,5,-236,-66,-95,67,-23
1035,7,-235,-70,-84,86,-26
1040,12,-241,-67,-80,108,-29
1045,17,-241,-66,-71,128,-36
1050,22,-242,-66,-56,148,-42
1055,20,-246,-63,-41,167,-46
1060,23,-244,-66,-29,187,-54
1065,24,-247,-66,-18,203,-69
1070,21,-248,-65,-4,210,-80
1075,16,-251,-65,13,204,-91
1080,13,-251,-69,29,192,-100
1085,6,-252,-61,43,175,-105
1090,1,-257,-61,67,161,-109
1095,-5,-255,-62,93,150,-109
1100,-6,-260,-62,124,142,-108
1105,-10,-257,-59,154,136,-104
1110,-12,-258,-75,179,131,-98
1115,-10,-255,-82,200,122,-88
1120,-13,-250,-94,199,108,-76
1125,-16,-249,-108,167,89,-60
1130,-25,-248,-117,119,61,-38
1135,-32,-250,-126,65,24,-15
1140,-35,-253,-124,9,-17,9
1145,-36,-265,-126,-41,-56,30
1150,-27,-286,-130,-79,-96,51
1155,-25,-299,-128,-118,-144,73
1160,-20,-312,-125,-163,-208,101
1165,-16,-323,-130,-203,-292,146
1170,-11,-328,-122,-227,-382,190
1175,-13,-330,-118,-227,-467,232
1180,-18,-329,-124,-219,-531,266
1185,-17,-323,-125,-205,-558,284
1190,-16,-320,-129,-192,-543,291
1195,-16,-317,-136,-179,-481,286
1200,-10,-316,-147,-155,-379,263
1205,-7,-305,-161,-107,-256,215
1210,-9,-289,-165,-19,-127,166
1215,-11,-276,-182,105,6,91
1220,-6,-253,-192,234,138,13
1225,-2,-237,-201,336,267,-52
1230,-3,-218,-209,393,385,-102
1235,-8,-201,-209,396,485,-141
1240,-15,-189,-207,358,551,-162
1245,-19,-169,-203,289,582,-165
1250,-17,-155,-189,192,575,-153
1255,-11,-145,-177,84,542,-129
1260,0,-141,-160,-22,505,-92
1265,8,-143,-154,-123,479,-48
1270,10,-141,-150,-210,466,3
1275,13,-148,-145,-275,460,54
1280,10,-149,-145,-325,442,105
1285,9,-155,-150,-363,401,151
1290,8,-161,-157,-385,343,188
1295,9,-168,-151,-388,277,213
1300,11,-173,-151,-367,226,223
1305,20,-183,-154,-316,202,218
1310,23,-185,-150,-247,211,205
1315,25,-190,-150,-164,244,185
1320,27,-193,-151,-84,289,162
1325,34,-199,-145,-11,339,140
1330,33,-199,-152,45,386,114
1335,36,-200,-148,87,431,89
1340,37,-202,-152,114,472,61
1345,40,-202,-149,125,510,29
1350,37,-204,-148,116,547,-6
1355,36,-205,-152,92,580,-42
1360,35,-209,-151,59,606,-78
1365,30,-208,-145,21,629,-111
1370,29,-209,-145,-13,646,-139
1375,22,-205,-143,-46,661,-159
1380,24,-200,-140,-76,674,-172
1385,18,-199,-134,-95,683,-176
1390,19,-199,-134,-104,686,-171
1395,19,-198,-131,-110,684,-162
1400,18,-195,-127,-113,676,-149
1405,14,-193,-125,-118,663,-131
1410,10,-194,-120,-126,643,-115
1415,9,-191,-120,-137,621,-102
1420,5,-190,-115,-149,598,-94
1425,8,-190,-109,-156,575,-92
1430,5,-192,-110,-157,553,-94
1435,5,-191,-108,-155,530,-101
1440,8,-187,-107,-149,510,-108
1445,5,-185,-102,-138,489,-115
1450,8,-180,-103,-117,468,-120
1455,7,-177,-104,-86,446,-121
1460,7,-171,-99,-53,422,-121
1465,8,-171,-97,-21,399,-125
1470,10,-167,-93,9,374,-124
1475,9,-169,-95,35,351,-122
1480,10,-165,-96,53,331,-117
1485,15,-163,-89,66,313,-108
1490,13,-164,-93,66,299,-106
1495,15,-167,-95,56,287,-101
1500,21,-167,-92,40,278,-99
1505,25,-171,-91,20,268,-96
1510,24,-178,-94,-4,257,-97
1515,23,-179,-90,-32,245,-95
1520,24,-182,-94,-62,234,-90
1525,23,-191,-88,-89,218,-83
1530,19,-191,-94,-109,200,-77
1535,22,-195,-90,-120,177,-71
1540,20,-201,-88,-123,150,-69
1545,25,-204,-84,-126,113,-60
1550,22,-207,-84,-124,72,-47
1555,20,-212,-78,-119,28,-43
1560,20,-222,-75,-104,-13,-39
1565,22,-230,-72,-82,-50,-42
1570,20,-239,-67,-49,-85,-53
1575,21,-249,-65,2,-117,-70
1580,14,-258,-64,65,-149,-93
1585,12,-260,-53,143,-181,-130
1590,14,-258,-56,244,-219,-147
1595,18,-262,-46,374,-250,-153
1600,11,-258,-46,522,-274,-151
1605,8,-257,-45,677,-288,-143
1610,10,-250,-47,818,-297,-128
1615,14,-249,-47,924,-301,-111
1620,16,-240,-57,983,-294,-88
1625,18,-240,-62,995,-275,-62
1630,21,-237,-58,969,-247,-34
1635,22,-240,-59,927,-219,-11
1640,27,-240,-56,878,-195,6
1645,35,-242,-56,826,-175,23
1650,45,-247,-56,774,-155,44
1655,52,-244,-49,723,-124,62
1660,62,-247,-57,671,-86,79
1665,67,-246,-62,608,-46,89
1670,76,-246,-59,539,-15,95
1675,76,-249,-52,471,-4,90
1680,74,-250,-50,411,-18,75
1685,71,-256,-59,360,-47,57
1690,70,-255,-70,312,-63,38
1695,65,-255,-99,251,-51,24
1700,62,-253,-132,154,-17,7
1705,64,-255,-194,10,32,-26
1710,66,-257,-241,-171,103,-83
1715,70,-265,-267,-351,185,-150
1720,75,-288,-288,-473,274,-211
1725,87,-293,-294,-507,387,-288
1730,91,-301,-283,-456,498,-325
1735,82,-313,-254,-348,625,-352
1740,72,-317,-237,-226,728,-385
1745,61,-318,-199,-127,790,-415
1750,64,-320,-190,-64,821,-407
1755,74,-316,-195,-34,853,-371
1760,76,-301,-200,-24,884,-319
1765,69,-291,-204,-18,878,-274
1770,54,-274,-206,20,804,-240
1775,33,-258,-212,104,666,-224
1780,18,-249,-222,207,482,-219
1785,-1,-239,-224,287,280,-224
1790,-22,-234,-226,323,73,-218
1795,-50,-236,-212,326,-122,-193
1800,-67,-232,-207,317,-277,-158
1805,-72,-234,-212,312,-393,-130
1810,-70,-233,-212,314,-465,-109
1815,-68,-227,-224,326,-489,-91
1820,-57,-216,-220,339,-468,-78
1825,-45,-207,-210,350,-418,-71
1830,-35,-198,-196,362,-361,-70
1835,-21,-191,-178,372,-306,-80
1840,-15,-187,-174,378,-252,-99
1845,-5,-184,-162,358,-197,-126
1850,2,-187,-145,309,-139,-152
1855,14,-189,-139,244,-82,-174
1860,33,-193,-130,183,-35,-181
1865,36,-197,-120,148,-4,-177
1870,46,-197,-123,146,1,-161
1875,52,-199,-126,175,-17,-128
1880,56,-198,-125,225,-50,-79
1885,58,-191,-128,280,-93,-16
1890,57,-189,-128,320,-145,62
1895,57,-182,-130,321,-202,143
1900,54,-178,-129,294,-255,221
1905,54,-175,-126,246,-295,288
1910,50,-171,-128,180,-320,351
1915,48,-174,-122,103,-330,410
1920,47,-178,-114,27,-325,458
1925,45,-175,-115,-39,-308,498
1930,40,-174,-114,-93,-286,522
1935,31,-169,-117,-144,-266,533
1940,30,-168,-111,-191,-247,532
1945,24,-160,-105,-233,-232,522
1950,23,-159,-103,-259,-214,508
1955,25,-158,-101,-270,-189,487
1960,21,-151,-97,-261,-156,466
1965,18,-148,-96,-235,-119,440
1970,15,-152,-85,-191,-81,411
1975,10,-134,-84,-130,-43,374
1980,2,-135,-82,-59,-6,340
1985,-5,-130,-79,16,29,305
1990,-4,-132,-78,85,63,274
1995,-12,-129,-80,141,95,247
2000,-15,-125,-87,181,125,221
2005,-20,-129,-90,202,150,197
2010,-21,-128,-90,200,170,174
2015,-27,-131,-91,179,184,155
2020,-28,-137,-96,145,186,137
2025,-31,-144,-97,109,179,116
2030,-32,-146,-96,75,165,95
2035,-34,-152,-94,49,144,76
2040,-33,-161,-92,29,118,58
2045,-32,-171,-92,12,86,43
2050,-30,-181,-91,2,52,28
2055,-27,-187,-86,4,19,13
2060,-26,-195,-82,15,-15,-2
2065,-22,-202,-76,34,-47,-16
2070,-21,-209,-74,57,-76,-32
2075,-15,-220,-73,83,-102,-48
2080,-10,-224,-67,120,-123,-60
2085,-3,-234,-71,172,-135,-77
2090,-2,-236,-65,231,-139,-90
2095,0,-239,-68,290,-137,-104
2100,4,-242,-75,344,-132,-114
2105,6,-240,-77,391,-126,-123
2110,7,-236,-85,433,-117,-129
2115,8,-238,-90,462,-104,-131
2120,8,-231,-93,480,-87,-131
2125,13,-230,-88,487,-63,-125
2130,13,-227,-77,489,-34,-123
2135,18,-232,-68,509,-5,-121
2140,20,-233,-63,546,24,-122
2145,26,-237,-55,589,45,-124
2150,32,-236,-59,625,59,-124
2155,37,-242,-51,641,68,-123
2160,38,-240,-55,633,68,-119
2165,44,-245,-57,597,56,-116
2170,48,-246,-59,536,34,-114
2175,50,-248,-58,456,5,-108
2180,47,-255,-60,372,-28,-102
2185,39,-258,-60,300,-65,-97
2190,27,-264,-66,253,-113,-91
2195,17,-266,-59,226,-167,-73
2200,4,-265,-57,220,-207,-33
2205,-1,-272,-47,234,-207,19
2210,1,-281,-35,257,-153,70
2215,7,-287,-27,280,-56,110
2220,14,-302,-11,308,58,138
2225,27,-313,-3,337,177,159
2230,38,-319,5,366,294,172
2235,49,-319,0,392,399,180
2240,50,-316,-7,405,486,184
2245,59,-314,-36,403,553,178
2250,65,-300,-83,368,585,157
2255,74,-281,-148,282,573,136
2260,75,-258,-212,123,505,107
2265,65,-243,-257,-76,360,118
2270,35,-237,-294,-274,171,156
2275,5,-246,-302,-423,-17,235
2280,-28,-276,-277,-496,-139,331
2285,-64,-304,-253,-506,-180,410
2290,-88,-321,-225,-482,-201,464
2295,-103,-327,-201,-439,-242,510
2300,-101,-329,-193,-384,-304,547
2305,-117,-317,-200,-320,-357,572
2310,-126,-293,-209,-260,-382,594
2315,-123,-277,-210,-217,-359,617
2320,-104,-258,-201,-181,-278,625
2325,-64,-245,-193,-124,-141,607
2330,-33,-229,-190,-35,37,569
2335,-17,-210,-195,70,235,519
2340,-12,-191,-204,152,406,472
2345,2,-176,-205,192,514,424
2350,29,-164,-198,198,553,384
2355,38,-163,-202,184,542,343
2360,47,-172,-191,152,512,294
2365,46,-175,-177,110,471,240
2370,46,-191,-160,64,417,187
2375,43,-198,-139,13,350,142
2380,39,-206,-129,-29,276,107
2385,29,-210,-120,-50,203,83
2390,24,-212,-120,-42,133,62
2395,11,-214,-122,-5,68,40
2400,4,-216,-124,52,11,17
2405,-12,-212,-130,116,-35,-8
2410,-13,-212,-135,173,-66,-38
2415,-17,-214,-135,217,-79,-72
2420,-26,-215,-143,245,-72,-111
2425,-32,-214,-145,257,-60,-158
2430,-31,-215,-146,261,-47,-214
2435,-34,-211,-142,250,-29,-279
2440,-29,-210,-140,213,-11,-348
2445,-25,-206,-138,150,9,-415
2450,-18,-205,-128,64,27,-474
2455,-16,-204,-123,-25,42,-523
2460,-9,-201,-115,-109,49,-559
2465,-6,-195,-109,-188,54,-583
2470,-3,-191,-105,-255,56,-596
2475,1,-187,-98,-305,53,-602
2480,0,-182,-95,-340,49,-602
2485,3,-174,-91,-368,39,-598
2490,4,-172,-85,-385,24,-588
2495,10,-165,-83,-384,3,-576
2500,8,-161,-80,-364,-26,-560
2505,11,-148,-79,-340,-61,-547
2510,12,-146,-71,-315,-103,-530
2515,9,-140,-73,-281,-149,-514
2520,13,-133,-72,-240,-192,-495
2525,14,-128,-70,-193,-233,-477
2530,14,-121,-69,-139,-270,-455
2535,16,-121,-67,-84,-299,-430
2540,17,-118,-69,-40,-322,-403
2545,23,-118,-69,-1,-340,-378
2550,27,-117,-73,26,-351,-354
2555,31,-121,-72,37,-357,-328
2560,29,-125,-80,34,-361,-305
2565,38,-131,-83,16,-366,-282
2570,38,-133,-86,-9,-370,-261
2575,40,-149,-88,-44,-377,-243
2580,40,-163,-90,-82,-382,-224
2585,37,-175,-90,-122,-389,-207
2590,36,-182,-93,-164,-393,-193
2595,35,-194,-87,-199,-401,-182
2600,37,-209,-91,-220,-406,-175
2605,34,-220,-80,-224,-409,-171
2610,37,-235,-72,-206,-413,-173
2615,38,-243,-63,-161,-421,-176
2620,35,-257,-48,-95,-433,-181
2625,32,-271,-42,-12,-448,-190
2630,25,-280,-30,87,-464,-200
2635,14,-290,-21,202,-486,-211
2640,11,-291,-11,330,-507,-218
2645,7,-290,-8,463,-530,-222
2650,10,-290,-22,600,-537,-210
2655,0,-281,-32,716,-509,-190
2660,7,-278,-40,804,-447,-169
2665,10,-268,-46,864,-370,-152
2670,32,-256,-50,897,-276,-138
2675,38,-254,-56,904,-169,-113
2680,49,-250,-50,897,-52,-102
2685,49,-250,-50,877,46,-109
2690,47,-242,-58,845,113,-119
2695,51,-233,-67,794,158,-112
2700,63,-221,-71,723,206,-84
2705,82,-216,-75,630,262,-46
2710,99,-210,-65,530,316,-18
2715,95,-213,-56,433,344,-15
2720,86,-228,-34,356,325,-23
2725,64,-239,-4,307,250,-38
2730,47,-242,5,287,140,-52
2735,37,-259,9,282,26,-60
2740,26,-262,2,273,-59,-62
2745,19,-270,-20,232,-104,-61
2750,8,-274,-60,147,-121,-57
2755,-7,-271,-127,-9,-112,-60
2760,-26,-268,-209,-250,-90,-80
2765,-39,-275,-262,-563,-48,-116
2770,-34,-294,-306,-874,16,-163
2775,-14,-311,-320,-1061,128,-257
2780,28,-329,-318,-1062,263,-353
2785,55,-335,-305,-905,425,-451
2790,83,-341,-294,-680,560,-537
2795,93,-347,-262,-470,661,-595
2800,93,-350,-231,-300,727,-630
2805,86,-344,-199,-154,749,-637
2810,78,-333,-184,11,724,-611
2815,71,-319,-187,208,657,-571
2820,57,-300,-191,401,546,-534
2825,33,-285,-189,534,392,-507
2830,0,-277,-181,578,199,-489
2835,-42,-269,-178,551,-12,-466
2840,-66,-263,-177,489,-228,-438
2845,-82,-256,-194,414,-434,-421
2850,-89,-241,-221,314,-595,-405
2855,-83,-229,-234,197,-670,-376
2860,-83,-223,-240,83,-659,-336
2865,-83,-219,-237,4,-605,-294
2870,-87,-209,-222,-18,-559,-252
2875,-73,-209,-201,12,-544,-217
2880,-50,-199,-179,73,-537,-187
2885,-20,-198,-154,147,-513,-158
2890,-1,-191,-137,224,-459,-137
2895,24,-193,-129,270,-385,-133
2900,37,-192,-124,269,-312,-143
2905,52,-187,-123,218,-257,-149
2910,62,-189,-121,139,-227,-150
2915,70,-190,-115,64,-214,-146
2920,74,-187,-108,14,-209,-128
2925,78,-184,-117,-1,-205,-95
2930,82,-177,-113,7,-202,-49
2935,80,-170,-116,16,-206,3
2940,79,-167,-119,14,-214,60
2945,76,-172,-110,-12,-226,117
2950,71,-176,-114,-62,-239,174
2955,68,-187,-111,-128,-243,228
2960,65,-192,-105,-193,-235,282
2965,62,-197,-105,-236,-219,333
2970,53,-198,-104,-260,-194,376
2975,40,-194,-106,-276,-166,407
2980,23,-189,-108,-285,-145,424
2985,16,-183,-99,-292,-135,437
2990,9,-169,-105,-299,-130,447
2995,2,-161,-98,-303,-121,453
3000,-2,-155,-96,-304,-105,452
3005,-8,-138,-87,-299,-89,441
3010,-10,-132,-80,-283,-75,425
3015,-18,-125,-74,-256,-65,401
3020,-20,-114,-70,-214,-54,375
3025,-17,-111,-71,-168,-43,343
3030,-23,-100,-71,-120,-25,307
3035,-25,-98,-66,-75,-3,266
3040,-24,-98,-72,-37,23,221
3045,-27,-98,-71,-10,48,176
3050,-27,-102,-68,10,74,131
3055,-31,-115,-73,24,98,92
3060,-27,-122,-69,33,117,48
3065,-28,-131,-73,40,132,5
3070,-32,-142,-69,54,143,-34
3075,-33,-150,-73,73,150,-70
3080,-34,-168,-79,88,151,-94
3085,-33,-174,-75,89,142,-128
3090,-36,-184,-73,92,123,-155
3095,-32,-191,-71,94,97,-178
3100,-29,-201,-75,96,62,-194
3105,-31,-212,-69,102,24,-205
3110,-28,-217,-70,114,-20,-210
3115,-25,-225,-66,138,-65,-213
3120,-24,-231,-64,172,-109,-209
3125,-19,-234,-66,211,-146,-202
3130,-12,-233,-64,260,-170,-194
3135,-9,-235,-60,314,-182,-178
3140,-8,-231,-61,369,-184,-163
3145,-3,-227,-63,416,-176,-149
3150,-1,-235,-61,449,-164,-141
3155,1,-233,-63,466,-147,-135
3160,3,-231,-60,464,-126,-130
3165,8,-237,-50,460,-99,-133
3170,18,-241,-56,459,-68,-137
3175,28,-250,-57,456,-32,-142
3180,32,-254,-63,453,2,-154
3185,37,-257,-61,447,26,-167
3190,42,-263,-61,443,39,-182
3195,40,-265,-61,442,37,-197
3200,42,-263,-61,435,19,-203
3205,42,-265,-65,420,-8,-202
3210,41,-265,-66,387,-41,-188
3215,33,-267,-63,334,-79,-164
3220,25,-266,-65,271,-122,-128
3225,13,-264,-56,201,-164,-81
3230,6,-269,-44,133,-189,-21
3235,5,-274,-39,74,-183,40
3240,8,-287,-20,34,-145,99
3245,11,-296,-14,23,-77,145
3250,15,-307,-9,38,7,179
3255,28,-307,-21,70,98,192
3260,32,-314,-42,112,182,185
3265,36,-305,-83,143,243,164
3270,39,-296,-137,144,273,151
3275,40,-282,-217,96,255,153
3280,38,-277,-279,6,158,172
3285,21,-271,-303,-91,-18,225
3290,-2,-276,-316,-171,-229,292
3295,-30,-291,-300,-239,-419,374
3300,-59,-322,-265,-303,-536,452
3305,-91,-350,-230,-359,-602,519
3310,-100,-363,-211,-408,-651,579
3315,-101,-368,-217,-443,-679,628
3320,-107,-352,-226,-455,-673,660
3325,-104,-327,-241,-435,-633,688
3330,-94,-308,-238,-386,-552,714
3335,-66,-298,-230,-301,-423,719
3340,-27,-283,-227,-177,-245,690
3345,8,-261,-229,-29,-14,645
3350,24,-240,-234,104,222,588
3355,35,-218,-232,201,403,524
3360,49,-204,-219,282,484,462
3365,75,-188,-210,369,475,403
3370,92,-170,-195,446,430,345
3375,94,-166,-181,490,384,286
3380,87,-163,-165,480,336,225
3385,81,-160,-145,405,274,170
3390,68,-168,-134,286,203,135
3395,55,-175,-114,157,140,122
3400,38,-183,-110,54,92,123
3405,20,-186,-106,-11,55,132
3410,11,-187,-117,-41,26,142
3415,-3,-199,-123,-53,-8,145
3420,-11,-206,-125,-50,-34,139
3425,-19,-213,-129,-30,-51,114
3430,-30,-222,-132,5,-57,75
3435,-36,-223,-134,49,-57,16
3440,-43,-226,-135,97,-52,-63
3445,-44,-223,-137,149,-43,-156
3450,-45,-216,-133,203,-33,-260
3455,-41,-211,-130,246,-15,-365
3460,-34,-205,-128,262,6,-464
3465,-32,-194,-122,245,16,-548
3470,-20,-193,-114,202,18,-614
3475,-18,-185,-112,141,17,-658
3480,-10,-184,-105,57,16,-684
3485,-6,-180,-96,-39,12,-695
3490,-1,-177,-93,-135,6,-696
3495,0,-176,-86,-222,-2,-691
3500,3,-178,-86,-298,-11,-678
3505,4,-172,-79,-359,-30,-662
3510,4,-169,-75,-397,-59,-640
3515,3,-164,-75,-411,-105,-610
3520,3,-155,-77,-404,-161,-578
3525,2,-149,-71,-376,-224,-545
3530,8,-145,-66,-326,-292,-512
3535,10,-138,-64,-259,-360,-479
3540,17,-136,-63,-182,-419,-449
3545,25,-129,-64,-97,-468,-419
3550,28,-125,-65,-18,-503,-389
3555,34,-122,-67,52,-526,-361
3560,35,-119,-66,106,-540,-336
3565,39,-120,-68,143,-548,-315
3570,40,-120,-70,160,-548,-300
3575,41,-122,-67,159,-546,-281
3580,42,-127,-79,141,-537,-261
3585,48,-139,-79,111,-528,-250
3590,46,-148,-79,69,-524,-239
3595,48,-150,-84,23,-521,-225
3600,43,-170,-81,-22,-522,-213
3605,38,-188,-86,-60,-526,-203
3610,35,-199,-82,-86,-534,-192
3615,29,-207,-74,-95,-539,-193
3620,32,-221,-72,-83,-548,-186
3625,29,-234,-67,-45,-548,-178
3630,22,-241,-63,11,-549,-181
3635,18,-248,-50,87,-554,-186
3640,12,-261,-47,182,-568,-194
3645,5,-271,-37,296,-588,-198
3650,-4,-278,-26,419,-617,-203
3655,-10,-283,-28,547,-649,-210
3660,-14,-285,-25,676,-685,-209
3665,-20,-282,-39,804,-707,-199
3670,-31,-278,-42,913,-695,-183
3675,-36,-267,-52,998,-658,-174
3680,-25,-259,-62,1054,-610,-171
3685,-12,-251,-60,1077,-554,-165
3690,2,-247,-58,1070,-485,-151
3695,14,-246,-57,1048,-399,-152
3700,16,-239,-63,1004,-311,-165
3705,21,-231,-77,934,-232,-169
3710,31,-218,-89,833,-157,-158
3715,57,-199,-98,698,-88,-135
3720,78,-191,-97,540,-19,-119
3725,98,-192,-84,372,42,-117
3730,103,-201,-56,226,79,-132
3735,103,-215,-24,132,82,-155
3740,97,-235,0,107,47,-183
3745,83,-249,19,148,-15,-212
3750,65,-256,32,228,-85,-229
3755,48,-264,21,296,-155,-235
3760,37,-264,5,306,-215,-234
3765,17,-270,-19,237,-261,-234
3770,-3,-278,-58,93,-300,-242
3775,-27,-287,-111,-117,-334,-265
3780,-51,-297,-179,-373,-359,-299
3785,-67,-309,-222,-640,-354,-360
3790,-64,-323,-261,-855,-316,-441
3795,-45,-340,-289,-950,-220,-490
3800,-8,-350,-298,-900,-64,-561
3805,28,-354,-297,-725,91,-623
3810,44,-357,-292,-488,202,-665
3815,72,-349,-278,-255,284,-684
3820,86,-338,-255,-69,348,-698
3825,86,-334,-226,74,378,-707
3830,74,-323,-205,201,362,-704
3835,69,-309,-201,331,300,-688
3840,62,-288,-202,455,201,-670
3845,48,-270,-200,528,83,-658
3850,25,-263,-186,529,-54,-653
3855,-3,-256,-175,479,-215,-642
3860,-32,-255,-170,402,-386,-625
3865,-59,-250,-188,309,-528,-601
3870,-71,-242,-197,184,-625,-578
3875,-70,-238,-215,46,-659,-551
3880,-70,-231,-218,-73,-643,-515
3885,-65,-231,-220,-145,-611,-470
3890,-57,-228,-200,-153,-596,-413
3895,-50,-223,-190,-97,-593,-349
3900,-35,-213,-183,-2,-595,-285
3905,-16,-204,-166,93,-589,-229
3910,0,-203,-148,174,-573,-191
3915,11,-192,-140,229,-552,-168
3920,22,-197,-128,252,-534,-161
3925,42,-197,-124,240,-524,-166
3930,51,-201,-114,214,-518,-173
3935,61,-204,-115,188,-511,-169
3940,65,-204,-113,166,-500,-152
3945,68,-198,-120,149,-492,-123
3950,63,-192,-115,135,-492,-85
3955,65,-187,-120,124,-495,-37
3960,66,-185,-122,99,-500,14
3965,66,-184,-118,64,-497,66
3970,63,-184,-126,29,-484,118
3975,50,-184,-112,-12,-462,168
3980,44,-188,-108,-48,-436,217
3985,38,-193,-101,-80,-408,256
3990,33,-195,-99,-113,-375,284
3995,27,-194,-95,-144,-338,300
4000,22,-188,-100,-174,-302,311
4005,15,-184,-96,-211,-267,313
4010,9,-174,-95,-243,-240,310
4015,4,-165,-88,-268,-219,302
4020,1,-154,-89,-282,-206,290
4025,-3,-143,-79,-279,-196,276
4030,-7,-132,-78,-267,-184,260
4035,-8,-124,-73,-245,-173,243
4040,-9,-116,-71,-217,-163,221
4045,-11,-109,-67,-188,-153,195
4050,-10,-104,-69,-163,-143,169
4055,-12,-103,-67,-139,-137,142
4060,-13,-103,-63,-121,-131,113
4065,-12,-105,-65,-106,-127,80
4070,-15,-105,-65,-91,-124,48
4075,-16,-111,-68,-79,-125,19
4080,-19,-115,-76,-76,-126,-19
4085,-16,-123,-69,-78,-129,-59
4090,-16,-134,-67,-84,-133,-96
4095,-22,-138,-72,-85,-136,-128
4100,-17,-153,-67,-76,-136,-157
4105,-20,-164,-71,-70,-134,-189
4110,-20,-172,-72,-70,-131,-215
4115,-20,-185,-73,-72,-128,-241
4120,-19,-196,-67,-72,-131,-260
4125,-18,-205,-67,-69,-138,-274
4130,-18,-214,-64,-57,-152,-282
4135,-18,-226,-63,-35,-169,-285
4140,-12,-232,-65,0,-192,-281
4145,-10,-237,-63,48,-214,-273
4150,-1,-240,-64,104,-229,-265
4155,1,-239,-67,162,-237,-256
4160,2,-247,-64,219,-239,-244
4165,7,-246,-69,270,-236,-233
4170,6,-242,-69,312,-227,-222
4175,7,-243,-70,342,-216,-212
4180,12,-250,-70,366,-203,-205
4185,15,-253,-65,382,-186,-200
4190,20,-261,-71,400,-167,-195
4195,25,-265,-65,419,-147,-192
4200,30,-268,-63,438,-129,-196
4205,29,-271,-61,457,-111,-201
4210,36,-271,-62,475,-98,-205
4215,34,-269,-63,481,-91,-205
4220,31,-268,-63,473,-92,-198
4225,27,-267,-65,451,-105,-189
4230,26,-265,-66,415,-134,-177
4235,19,-266,-67,361,-171,-160
4240,12,-268,-61,304,-218,-137
4245,9,-268,-57,247,-263,-106
4250,1,-268,-53,196,-296,-67
4255,0,-267,-41,153,-309,-26
4260,-4,-271,-33,124,-295,14
4265,0,-277,-21,105,-254,49
4270,1,-277,-16,98,-195,84
4275,5,-281,-10,97,-121,111
4280,11,-282,-6,112,-45,135
4285,21,-285,-21,141,29,153
4290,25,-286,-45,171,91,158
4295,27,-283,-81,188,132,146
4300,44,-274,-132,184,138,136
4305,44,-268,-182,149,101,162
4310,49,-263,-232,75,18,186
4315,44,-263,-267,-14,-119,230
4320,19,-269,-280,-98,-275,283
4325,-15,-289,-274,-174,-413,342
4330,-42,-305,-258,-256,-513,410
4335,-72,-328,-242,-345,-576,483
4340,-90,-342,-215,-416,-621,551
4345,-92,-346,-220,-454,-660,599
4350,-107,-347,-212,-454,-682,624
4355,-114,-338,-232,-416,-681,640
4360,-107,-322,-232,-344,-638,651
4365,-77,-304,-228,-243,-528,642
4370,-40,-287,-226,-109,-337,603
4375,-13,-270,-222,43,-73,545
4380,-1,-255,-219,189,209,479
4385,8,-234,-211,302,435,411
4390,25,-214,-194,381,555,337
4395,54,-199,-186,440,567,268
4400,72,-187,-175,485,523,208
4405,83,-188,-170,504,472,166
4410,79,-186,-156,479,432,136
4415,72,-182,-143,408,392,119
4420,64,-180,-129,302,346,109
4425,55,-186,-117,186,288,103
4430,48,-185,-114,87,222,101
4435,37,-189,-105,26,149,101
4440,21,-190,-104,4,80,96
4445,10,-196,-116,7,27,83
4450,-3,-201,-117,22,-11,61
4455,-9,-201,-122,43,-37,33
4460,-21,-214,-125,67,-46,-5
4465,-27,-219,-124,98,-43,-54
4470,-32,-224,-125,119,-30,-117
4475,-35,-221,-127,136,-11,-189
4480,-32,-221,-123,146,9,-269
4485,-30,-216,-128,146,28,-354
4490,-24,-211,-124,128,51,-431
4495,-22,-207,-121,92,73,-496
4500,-15,-203,-116,44,94,-546
4505,-11,-199,-111,-9,111,-583
4510,-10,-201,-105,-60,119,-606
4515,-5,-193,-94,-108,119,-622
4520,-6,-190,-85,-154,112,-632
4525,-3,-188,-82,-190,102,-632
4530,-2,-188,-77,-216,84,-620
4535,0,-182,-76,-234,55,-604
4540,-2,-177,-68,-236,15,-582
4545,-4,-165,-67,-223,-39,-556
4550,-4,-159,-67,-202,-106,-525
4555,-6,-157,-61,-169,-181,-492
4560,-2,-143,-58,-125,-255,-457
4565,0,-129,-53,-73,-322,-422
4570,1,-122,-58,-22,-381,-389
4575,7,-115,-57,25,-431,-355
4580,14,-107,-61,61,-467,-323
4585,16,-101,-56,86,-491,-295
4590,22,-98,-61,97,-507,-271
4595,29,-102,-62,98,-515,-251
4600,31,-106,-63,90,-520,-237
4605,31,-105,-70,70,-523,-227
4610,37,-119,-71,44,-525,-212
4615,39,-128,-71,12,-524,-200
4620,48,-142,-85,-18,-525,-188
4625,45,-155,-83,-46,-524,-178
4630,44,-162,-85,-70,-523,-165
4635,40,-178,-84,-85,-519,-156
4640,41,-192,-84,-93,-514,-148
4645,41,-206,-81,-94,-508,-136
4650,42,-218,-79,-93,-496,-119
4655,38,-231,-66,-83,-481,-106
4660,41,-245,-63,-49,-470,-96
4665,32,-257,-56,7,-463,-86
4670,32,-267,-47,82,-462,-81
4675,27,-286,-42,174,-471,-77
4680,21,-288,-38,277,-485,-79
4685,17,-295,-34,392,-503,-81
4690,11,-297,-33,513,-523,-81
4695,7,-298,-25,638,-545,-78
4700,7,-296,-31,766,-564,-75
4705,7,-292,-34,877,-561,-63
4710,8,-286,-40,958,-520,-55
4715,15,-276,-47,1009,-453,-56
4720,25,-268,-51,1033,-373,-62
4725,37,-262,-53,1028,-291,-74
4730,40,-259,-60,994,-211,-92
4735,41,-249,-66,933,-133,-110
4740,38,-230,-77,849,-60,-113
4745,51,-211,-84,735,-3,-106
4750,68,-201,-80,598,50,-98
4755,80,-199,-70,444,106,-106
4760,82,-201,-51,291,149,-124
4765,74,-214,-17,173,159,-151
4770,65,-226,-1,110,132,-183
4775,59,-233,16,94,81,-215
4780,53,-243,20,104,20,-236
4785,36,-248,9,112,-36,-246
4790,20,-251,-15,83,-85,-244
4795,4,-255,-46,-9,-131,-241
4800,-20,-259,-98,-182,-179,-247
4805,-43,-270,-144,-437,-236,-274
4810,-74,-288,-204,-756,-283,-309
4815,-89,-310,-238,-1074,-289,-364
4820,-69,-345,-256,-1297,-252,-409
4825,-36,-378,-262,-1364,-121,-460
4830,-9,-389,-269,-1277,80,-533
4835,23,-392,-265,-1090,286,-612
4840,53,-395,-258,-865,436,-686
4845,80,-391,-246,-633,528,-744
4850,98,-389,-227,-414,586,-779
4855,97,-382,-222,-207,618,-791
4860,88,-363,-217,-4,610,-782
4865,73,-336,-208,202,543,-753
4870,64,-310,-204,417,410,-713
4875,53,-285,-202,612,230,-675
4880,32,-268,-193,735,23,-647
4885,2,-251,-189,765,-202,-618
4890,-34,-229,-185,723,-433,-577
4895,-67,-214,-186,624,-645,-523
4900,-89,-200,-199,483,-828,-462
4905,-94,-196,-213,322,-961,-405
4910,-97,-191,-222,158,-1029,-343
4915,-97,-192,-221,3,-1039,-284
4920,-91,-197,-209,-119,-1021,-227
4925,-79,-205,-189,-176,-996,-172
4930,-66,-207,-166,-176,-961,-123
4935,-48,-207,-155,-135,-912,-85
4940,-32,-206,-137,-80,-846,-65
4945,-17,-202,-135,-35,-762,-63
4950,-1,-198,-135,-20,-665,-73
4955,5,-193,-134,-39,-569,-93
4960,18,-193,-129,-81,-486,-115
4965,29,-194,-126,-116,-422,-132
4970,42,-194,-124,-121,-386,-143
4975,48,-195,-119,-100,-371,-144
4980,55,-192,-113,-59,-381,-133
4985,59,-190,-117,-1,-409,-106
4990,62,-184,-117,48,-449,-69
4995,63,-187,-123,68,-491,-34
5000,65,-177,-110,59,-527,-3
5005,63,-176,-106,34,-554,28
5010,57,-173,-100,7,-570,57
5015,50,-175,-98,-23,-578,85
5020,44,-177,-87,-56,-577,113
5025,35,-176,-88,-98,-571,135
5030,32,-171,-81,-146,-556,153
5035,23,-169,-83,-196,-540,161
5040,12,-161,-86,-250,-524,157
5045,10,-154,-83,-295,-508,145
5050,2,-148,-82,-324,-493,130
5055,-1,-143,-80,-334,-475,113
5060,-7,-140,-76,-323,-457,95
5065,-14,-130,-71,-295,-438,73
5070,-20,-128,-72,-256,-420,46
5075,-26,-124,-68,-211,-403,16
5080,-29,-120,-72,-169,-381,-18
5085,-34,-116,-70,-128,-358,-54
5090,-35,-118,-70,-83,-335,-91
5095,-40,-118,-75,-40,-312,-131
5100,-40,-119,-71,-5,-288,-172
5105,-41,-127,-74,28,-267,-216
5110,-42,-130,-73,53,-243,-262
5115,-38,-140,-75,70,-224,-307
5120,-41,-144,-73,83,-207,-348
5125,-36,-156,-74,94,-194,-385
5130,-35,-165,-73,103,-191,-415
5135,-35,-171,-73,103,-198,-450
5140,-34,-182,-74,92,-210,-477
5145,-29,-188,-75,76,-230,-496
5150,-22,-195,-71,61,-255,-504
5155,-21,-204,-72,54,-284,-509
5160,-9,-213,-67,56,-311,-513
5165,-11,-217,-71,68,-335,-512
5170,-4,-230,-64,94,-355,-509
5175,0,-238,-59,139,-369,-503
5180,1,-245,-56,204,-381,-496
5185,7,-252,-51,281,-389,-487
5190,12,-253,-49,365,-397,-476
5195,17,-255,-53,449,-400,-467
5200,18,-256,-55,523,-397,-453
5205,16,-250,-58,584,-389,-437
5210,18,-252,-61,626,-379,-420
5215,22,-247,-64,654,-365,-400
5220,24,-246,-63,670,-344,-385
5225,28,-246,-63,679,-317,-369
5230,33,-247,-64,681,-283,-354
5235,34,-250,-66,681,-245,-341
5240,32,-250,-63,669,-209,-335
5245,34,-246,-64,654,-188,-335
5250,28,-243,-66,635,-187,-329
5255,27,-242,-70,607,-195,-307
5260,20,-236,-75,557,-204,-275
5265,19,-239,-76,486,-202,-239
5270,22,-242,-55,404,-188,-205
5275,15,-254,-60,322,-163,-170
5280,14,-261,-49,252,-131,-138
5285,13,-269,-40,200,-96,-107
5290,12,-281,-34,162,-62,-76
5295,14,-289,-36,135,-35,-47
5300,14,-300,-43,116,-23,-9
5305,8,-296,-49,97,-21,27
5310,5,-298,-71,77,-34,62
5315,4,-299,-98,46,-52,104
5320,-6,-303,-132,10,-74,174
5325,0,-295,-157,-41,-97,252
5330,-3,-299,-192,-107,-149,327
5335,-14,-307,-220,-167,-277,419
5340,-39,-307,-247,-207,-470,488
5345,-73,-310,-259,-228,-701,570
5350,-97,-312,-266,-253,-886,660
5355,-113,-329,-249,-286,-981,745
5360,-106,-347,-231,-306,-995,799
5365,-92,-365,-224,-292,-949,806
5370,-89,-363,-218,-236,-878,770
5375,-95,-353,-230,-138,-810,712
5380,-97,-334,-246,-21,-752,654
5385,-78,-309,-254,77,-674,592
5390,-38,-287,-243,148,-550,527
5395,1,-270,-238,202,-385,464
5400,22,-259,-233,230,-193,409
5405,37,-246,-231,231,-10,358
5410,38,-227,-224,215,113,298
5415,48,-209,-201,191,124,243
5420,73,-192,-188,186,24,196
5425,93,-182,-179,193,-123,165
5430,102,-170,-169,195,-245,149
5435,97,-171,-154,176,-321,149
5440,82,-171,-141,128,-363,149
5445,68,-178,-131,55,-396,153
5450,53,-179,-131,-27,-428,153
5455,37,-183,-128,-89,-460,144
5460,18,-190,-123,-119,-481,125
5465,2,-197,-124,-104,-485,100
5470,-5,-208,-125,-50,-477,67
5475,-12,-210,-122,33,-462,20
5480,-13,-216,-120,130,-451,-38
5485,-25,-218,-122,221,-451,-108
5490,-34,-218,-125,296,-456,-186
5495,-33,-212,-128,342,-460,-267
5500,-38,-207,-128,363,-455,-349
5505,-32,-202,-123,367,-441,-426
5510,-30,-195,-122,356,-423,-494
5515,-25,-186,-119,323,-406,-550
5520,-16,-184,-115,276,-388,-592
5525,-9,-178,-114,214,-370,-618
5530,3,-178,-109,139,-352,-625
5535,10,-172,-109,61,-332,-621
5540,19,-174,-103,-15,-312,-608
5545,24,-177,-96,-87,-299,-597
5550,26,-178,-95,-150,-300,-589
5555,29,-181,-95,-198,-312,-580
5560,29,-182,-98,-232,-337,-569
5565,31,-177,-90,-255,-371,-555
5570,29,-176,-91,-260,-413,-537
5575,29,-176,-84,-242,-459,-515
5580,29,-174,-81,-205,-505,-481
5585,28,-167,-82,-150,-549,-444
5590,22,-164,-74,-85,-585,-405
5595,30,-155,-73,-19,-615,-363
5600,27,-155,-76,46,-633,-322
5605,30,-148,-76,100,-639,-277
5610,32,-143,-77,142,-635,-232
5615,29,-140,-74,171,-618,-193
5620,33,-141,-76,187,-596,-161
5625,32,-142,-75,192,-575,-133
5630,31,-143,-77,187,-552,-110
5635,32,-144,-74,172,-533,-90
5640,34,-150,-82,153,-515,-73
5645,35,-163,-79,127,-501,-60
5650,32,-159,-85,102,-485,-50
5655,34,-165,-82,76,-471,-46
5660,30,-169,-84,50,-456,-46
5665,33,-180,-84,31,-442,-49
5670,28,-189,-77,18,-428,-52
5675,29,-192,-75,16,-414,-57
5680,23,-198,-73,22,-403,-56
5685,20,-208,-70,35,-397,-54
5690,18,-214,-65,52,-394,-49
5695,16,-218,-51,73,-393,-43
5700,12,-225,-60,96,-397,-36
5705,15,-233,-54,124,-407,-28
5710,10,-237,-52,155,-422,-19
5715,5,-240,-46,191,-439,-11
5720,1,-249,-37,235,-464,-1
5725,0,-251,-31,289,-498,4
5730,-11,-257,-24,360,-540,10
5735,-13,-264,-20,442,-593,18
5740,-18,-268,-20,533,-648,30
5745,-25,-274,-20,625,-692,44
5750,-30,-272,-24,708,-713,54
5755,-35,-267,-32,782,-722,56
5760,-24,-269,-38,839,-720,51
5765,-17,-265,-44,879,-707,50
5770,-4,-261,-55,900,-677,44
5775,0,-257,-54,901,-622,33
5780,2,-250,-65,877,-541,24
5785,3,-234,-81,826,-444,25
5790,9,-218,-97,746,-345,35
5795,29,-202,-102,633,-265,47
5800,41,-195,-101,498,-208,48
5805,60,-197,-80,358,-166,39
5810,67,-206,-56,246,-145,27
5815,79,-223,-24,191,-143,12
5820,75,-236,-4,199,-155,-4
5825,65,-236,-3,245,-177,-17
5830,46,-239,-22,289,-204,-25
5835,25,-236,-55,291,-231,-29
5840,10,-234,-98,220,-258,-39
5845,3,-234,-153,68,-287,-63
5850,0,-241,-201,-144,-302,-124
5855,-4,-255,-252,-388,-278,-207
5860,0,-288,-276,-602,-188,-311
5865,14,-320,-280,-707,-42,-441
5870,27,-341,-281,-681,136,-593
5875,34,-346,-275,-597,290,-713
5880,56,-363,-259,-528,428,-797
5885,77,-375,-220,-483,581,-852
5890,90,-390,-177,-442,756,-871
5895,87,-394,-154,-377,900,-863
5900,84,-387,-141,-292,973,-846
5905,71,-385,-146,-194,969,-824
5910,55,-369,-166,-88,889,-811
5915,30,-348,-179,32,741,-797
5920,1,-309,-198,161,552,-771
5925,-21,-283,-208,296,342,-730
5930,-50,-245,-217,405,110,-694
5935,-69,-217,-225,460,-131,-667
5940,-103,-189,-228,462,-355,-633
5945,-122,-166,-226,422,-540,-581
5950,-128,-154,-226,345,-673,-513
5955,-130,-151,-216,246,-751,-437
5960,-121,-156,-209,123,-786,-371
5965,-101,-161,-201,-36,-797,-328
5970,-78,-167,-181,-217,-787,-308
5975,-60,-169,-171,-369,-749,-297
5980,-31,-179,-158,-458,-674,-287
5985,-10,-183,-152,-487,-565,-271
5990,3,-182,-150,-470,-441,-254
5995,20,-181,-147,-426,-322,-234
6000,33,-182,-142,-370,-228,-210
6005,39,-184,-144,-318,-159,-181
6010,49,-182,-144,-269,-115,-149
6015,51,-189,-138,-221,-87,-112
6020,50,-184,-130,-166,-62,-70
6025,52,-186,-130,-109,-47,-24
6030,58,-188,-132,-64,-43,28
6035,59,-187,-129,-37,-46,83
6040,58,-185,-128,-33,-55,139
6045,61,-187,-129,-56,-66,195
6050,58,-187,-132,-118,-79,245
6055,58,-192,-129,-195,-91,294
6060,55,-194,-124,-270,-102,338
6065,54,-198,-129,-346,-107,375
6070,50,-196,-128,-417,-109,403
6075,40,-201,-135,-485,-108,425
6080,44,-195,-132,-548,-105,443
6085,39,-194,-132,-611,-99,457
6090,36,-192,-130,-669,-84,469
6095,34,-189,-130,-720,-61,479
6100,34,-185,-127,-758,-29,482
6105,34,-180,-126,-785,12,477
6110,32,-173,-116,-792,60,461
6115,32,-169,-113,-775,115,443
6120,24,-163,-109,-736,172,419
6125,15,-154,-103,-682,223,394
6130,13,-154,-94,-617,266,365
6135,5,-148,-91,-544,294,343
6140,-6,-144,-89,-468,308,321
6145,-13,-144,-86,-391,309,301
6150,-16,-148,-85,-324,300,280
6155,-20,-145,-85,-269,288,257
6160,-20,-149,-89,-230,277,231
6165,-22,-153,-98,-210,270,210
6170,-27,-153,-99,-212,269,188
6175,-25,-156,-107,-237,264,172
6180,-29,-161,-111,-287,257,163
6185,-13,-165,-118,-360,246,156
6190,-24,-173,-118,-440,233,150
6195,-23,-181,-122,-520,216,142
6200,-23,-186,-123,-595,194,136
6205,-23,-193,-123,-661,171,131
6210,-21,-197,-121,-715,149,132
6215,-18,-209,-124,-757,127,140
6220,-17,-214,-126,-785,108,149
6225,-16,-217,-127,-803,92,165
6230,-10,-224,-127,-806,80,181
6235,-10,-227,-123,-797,67,196
6240,-2,-235,-125,-775,53,207
6245,-3,-235,-117,-737,37,212
6250,0,-236,-118,-684,20,215
6255,5,-234,-111,-616,7,217
6260,8,-240,-109,-543,3,219
6265,9,-239,-107,-468,3,224
6270,13,-235,-105,-400,7,222
6275,10,-232,-105,-336,15,219
6280,12,-225,-108,-282,26,220
6285,11,-219,-108,-247,37,227
6290,12,-212,-113,-228,47,236
6295,4,-207,-109,-216,58,248
6300,5,-202,-111,-199,67,261
6305,3,-196,-119,-180,81,277
6310,2,-191,-120,-165,94,290
6315,2,-186,-120,-154,110,302
6320,1,-179,-125,-148,132,313
6325,-2,-174,-126,-145,155,319
6330,-6,-176,-124,-137,176,326
6335,-5,-174,-128,-127,191,336
6340,-15,-168,-130,-117,199,356
6345,-17,-164,-133,-112,195,389
6350,-16,-163,-140,-119,181,433
6355,-13,-155,-145,-136,155,487
6360,-3,-159,-154,-156,121,546
6365,4,-160,-159,-177,86,603
6370,16,-167,-166,-194,61,650
6375,26,-172,-172,-200,48,687
6380,36,-177,-183,-193,50,716
6385,43,-168,-198,-178,66,749
6390,61,-157,-221,-171,102,792
6395,69,-150,-240,-189,156,840
6400,69,-145,-247,-242,216,889
6405,67,-142,-247,-329,272,943
6410,55,-143,-250,-434,324,998
6415,45,-146,-236,-538,374,1047
6420,35,-157,-227,-623,427,1086
6425,28,-157,-216,-684,496,1112
6430,20,-160,-207,-715,596,1123
6435,9,-165,-192,-719,721,1119
6440,5,-164,-180,-698,846,1092
6445,1,-158,-176,-660,956,1044
6450,-2,-155,-169,-619,1043,986
6455,-11,-148,-169,-586,1110,933
6460,-10,-144,-174,-561,1157,890
6465,-10,-139,-183,-539,1187,862
6470,-14,-129,-186,-524,1212,851
6475,-7,-131,-182,-508,1227,852
6480,-7,-128,-178,-485,1224,857
6485,0,-129,-171,-445,1196,854
6490,0,-132,-171,-397,1140,847
6495,3,-136,-163,-347,1066,845
6500,8,-142,-170,-311,994,845
6505,7,-142,-176,-292,935,843
6510,0,-144,-179,-288,883,837
6515,-2,-143,-184,-294,825,821
6520,-12,-146,-190,-305,751,793
6525,-12,-146,-193,-319,667,744
6530,-18,-147,-200,-338,583,689
6535,-27,-146,-196,-360,505,622
6540,-30,-152,-196,-383,441,574
6545,-38,-157,-192,-408,397,530
6550,-36,-161,-187,-435,372,487
6555,-42,-160,-184,-461,363,436
6560,-49,-162,-180,-487,364,385
6565,-56,-154,-183,-521,382,339
6570,-62,-145,-184,-561,419,299
6575,-66,-139,-171,-601,465,264
6580,-72,-138,-159,-627,505,238
6585,-79,-141,-148,-625,521,217
6590,-83,-145,-131,-591,505,198
6595,-82,-152,-123,-535,460,189
6600,-73,-162,-119,-470,396,189
6605,-68,-159,-126,-410,329,196
6610,-56,-159,-129,-362,278,215
6615,-52,-156,-137,-326,247,239
6620,-46,-159,-139,-298,231,269
6625,-32,-161,-143,-276,222,303
6630,-22,-163,-146,-254,215,340
6635,-9,-165,-147,-223,204,377
6640,-2,-170,-149,-175,177,411
6645,-1,-174,-149,-117,144,443
6650,1,-176,-162,-54,104,474
6655,8,-180,-177,-4,72,505
6660,9,-178,-190,18,55,535
6665,14,-185,-195,13,54,559
6670,16,-191,-208,-11,68,572
6675,20,-195,-212,-42,90,568
6680,27,-197,-219,-70,126,561
6685,34,-198,-223,-92,169,555
6690,35,-198,-229,-115,223,555
6695,37,-194,-237,-153,290,561
6700,36,-195,-241,-211,365,576
6705,35,-193,-242,-287,441,600
6710,31,-195,-243,-369,523,632
6715,27,-200,-238,-438,605,665
6720,19,-200,-233,-474,682,700
6725,8,-204,-229,-474,754,739
6730,1,-196,-230,-443,819,776
6735,-5,-194,-234,-409,883,814
6740,-7,-185,-237,-397,950,846
6745,-11,-182,-243,-415,1020,870
6750,-16,-172,-243,-461,1087,884
6755,-19,-171,-237,-516,1146,886
6760,-24,-172,-234,-565,1191,882
6765,-30,-170,-224,-598,1226,871
6770,-34,-166,-220,-614,1250,859
6775,-45,-164,-211,-628,1268,841
6780,-49,-164,-205,-658,1276,817
6785,-59,-162,-207,-714,1282,782
6790,-67,-171,-195,-817,1281,741
6795,-69,-176,-197,-913,1275,691
6800,-78,-186,-203,-1000,1260,650
6805,-86,-193,-206,-1063,1228,615
6810,-93,-204,-224,-1103,1167,592
6815,-90,-218,-242,-1114,1066,577
6820,-84,-226,-252,-1074,929,547
6825,-82,-229,-265,-971,769,494
6830,-78,-217,-284,-801,624,416
6835,-73,-194,-288,-574,533,332
6840,-70,-176,-284,-325,499,259
6845,-67,-162,-277,-106,487,198
6850,-64,-155,-269,39,455,138
6855,-58,-153,-263,102,396,78
6860,-47,-155,-250,103,323,26
6865,-34,-158,-241,72,246,-13
6870,-27,-155,-238,34,178,-43
6875,-13,-151,-237,-2,123,-60
6880,-5,-145,-234,-32,75,-70
6885,2,-138,-228,-53,33,-75
6890,8,-128,-224,-59,-3,-78
6895,19,-129,-223,-53,-39,-79
6900,18,-122,-222,-37,-67,-74
6905,24,-118,-220,-19,-89,-65
6910,27,-109,-218,-3,-102,-55
6915,21,-109,-221,2,-107,-47
6920,22,-106,-214,0,-104,-44
6925,17,-105,-210,-8,-96,-45
6930,15,-103,-212,-19,-86,-51
6935,16,-106,-214,-31,-73,-58
6940,12,-103,-211,-41,-59,-67
6945,14,-109,-211,-49,-46,-78
6950,8,-112,-207,-50,-36,-83
6955,8,-115,-211,-42,-30,-92
6960,5,-111,-209,-30,-28,-100
6965,5,-114,-207,-19,-32,-105
6970,5,-112,-209,-14,-35,-110
6975,2,-112,-210,-13,-41,-118
6980,1,-116,-205,-19,-45,-125
6985,-2,-116,-208,-32,-42,-131
6990,0,-120,-209,-43,-32,-139
6995,2,-122,-209,-53,-20,-148
7000,-1,-124,-209,-56,-7,-157
7005,0,-129,-201,-51,3,-163
7010,2,-124,-211,-34,11,-168
7015,1,-127,-213,-9,16,-170
7020,4,-127,-210,22,19,-168
7025,8,-128,-209,55,21,-162
7030,9,-125,-211,84,23,-151
7035,15,-120,-209,106,27,-137
7040,19,-122,-211,117,29,-123
7045,15,-117,-212,117,32,-105
7050,17,-116,-212,103,37,-86
7055,23,-117,-207,79,44,-67
7060,20,-114,-213,50,53,-46
7065,18,-116,-213,19,63,-28
7070,19,-114,-215,-8,72,-13
7075,15,-118,-209,-27,80,1
7080,13,-119,-209,-38,86,12
7085,11,-116,-212,-44,94,22
7090,15,-122,-214,-48,105,28
7095,6,-122,-209,-51,119,34
7100,6,-122,-210,-55,137,38
7105,7,-125,-210,-60,154,41
7110,3,-128,-208,-65,169,44
7115,0,-126,-208,-68,185,48
7120,1,-128,-205,-67,199,51
7125,5,-133,-205,-63,208,51
7130,4,-132,-206,-56,218,54
7135,2,-137,-209,-51,228,60
7140,4,-134,-207,-47,236,62
7145,3,-136,-206,-41,242,63
7150,5,-134,-211,-35,243,64
7155,1,-134,-209,-30,241,68
7160,3,-136,-203,-27,237,70
7165,2,-137,-208,-29,234,70
7170,4,-136,-207,-31,230,71
7175,5,-137,-205,-32,227,73
7180,1,-135,-204,-33,225,75
7185,2,-139,-201,-33,224,75
7190,0,-137,-203,-30,221,79
7195,-1,-136,-200,-26,219,84
7200,-2,-133,-202,-21,219,87
7205,2,-133,-200,-19,220,93
7210,1,-136,-201,-17,225,95
7215,1,-137,-202,-15,229,98
7220,6,-132,-203,-10,236,100
7225,0,-133,-194,-8,245,101
7230,-1,-130,-197,-8,257,102
7235,1,-133,-198,-11,267,103
7240,2,-134,-197,-20,280,105
7245,2,-134,-198,-32,292,105
7250,1,-135,-204,-48,306,107
7255,-1,-132,-206,-60,320,109
7260,-4,-133,-206,-68,334,111
7265,0,-141,-206,-64,344,111
7270,-1,-138,-209,-49,348,110
7275,-4,-137,-207,-28,349,107
7280,0,-143,-214,-1,349,104
7285,-1,-147,-205,19,350,102
7290,-4,-146,-201,34,349,99
7295,-3,-139,-205,40,348,98
7300,-4,-144,-206,37,346,97
7305,0,-141,-210,34,341,98
7310,-1,-134,-200,30,331,98
7315,1,-148,-197,27,319,104
7320,3,-146,-201,24,307,106
7325,1,-138,-199,21,297,111
7330,-2,-136,-201,18,290,116
7335,-6,-136,-203,17,285,120
7340,0,-137,-194,17,283,124
7345,3,-133,-208,16,288,128
7350,-7,-137,-203,15,295,131
7355,-4,-133,-192,14,304,132
7360,1,-137,-195,14,315,133
7365,-4,-133,-192,17,327,134
7370,0,-136,-195,19,336,134
7375,-2,-127,-201,18,345,134
7380,1,-135,-197,11,351,133
7385,-1,-135,-195,2,356,129
7390,5,-138,-193,-4,359,121
7395,5,-134,-191,-4,360,113
7400,6,-136,-196,1,361,107
7405,9,-142,-200,4,366,104
7410,5,-127,-206,2,374,104
7415,4,-136,-200,-3,378,103
7420,2,-134,-199,-10,379,105
7425,2,-139,-200,-12,376,106
7430,-1,-135,-199,-7,369,107
7435,1,-141,-200,-2,365,111
7440,1,-136,-198,2,365,115
7445,3,-136,-199,1,371,118
7450,2,-139,-196,-5,377,124
7455,2,-138,-198,-16,386,127
7460,4,-135,-196,-28,393,133
7465,4,-137,-196,-41,403,141
7470,2,-132,-203,-53,417,147
7475,3,-138,-201,-60,429,152
7480,5,-135,-204,-63,441,154
7485,14,-144,-200,-61,452,155
7490,8,-140,-204,-51,457,154
7495,7,-136,-203,-37,460,153
7500,4,-139,-205,-23,465,153
7505,5,-137,-210,-11,470,152
7510,3,-136,-215,-6,476,152
7515,5,-130,-208,-2,479,151
7520,5,-135,-201,2,481,151
7525,10,-136,-204,6,481,147
7530,12,-139,-206,10,480,146
7535,9,-134,-205,10,480,145
7540,6,-132,-208,6,483,144
7545,9,-137,-209,-1,487,145
7550,9,-136,-205,-4,492,143
7555,10,-135,-204,-4,498,143
7560,9,-136,-207,-4,507,148
7565,8,-134,-204,-3,518,149
7570,8,-134,-205,-8,523,150
7575,10,-130,-207,-17,526,150
7580,9,-133,-206,-25,530,150
7585,14,-137,-207,-30,537,150
7590,11,-134,-202,-33,546,150
7595,10,-132,-204,-36,556,155
7600,15,-135,-198,-44,565,159
7605,11,-132,-208,-60,574,162
7610,10,-128,-208,-73,583,163
7615,8,-130,-204,-83,588,160
7620,8,-132,-204,-87,595,158
7625,10,-134,-202,-86,603,155
7630,8,-134,-198,-82,612,151
7635,8,-136,-196,-78,620,147
7640,8,-135,-195,-74,632,142
7645,7,-131,-201,-76,645,137
7650,11,-134,-202,-80,661,137
7655,14,-131,-197,-82,676,134
7660,11,-137,-199,-81,690,133
7665,13,-134,-197,-74,703,135
7670,13,-133,-199,-65,716,136
7675,14,-130,-196,-61,727,138
7680,16,-128,-196,-63,737,139
7685,16,-130,-197,-69,743,136
7690,13,-128,-195,-72,748,133
7695,17,-133,-192,-74,753,129
7700,17,-128,-192,-74,763,130
7705,16,-126,-189,-78,771,131
7710,17,-127,-192,-86,780,130
7715,16,-124,-190,-99,786,133
7720,15,-123,-194,-113,794,134
7725,15,-124,-194,-130,799,136
7730,12,-126,-201,-147,802,141
7735,13,-121,-198,-161,807,149
7740,14,-123,-195,-172,815,156
7745,14,-121,-193,-183,821,159
7750,11,-119,-192,-191,825,161
7755,14,-124,-194,-197,830,163
7760,16,-121,-192,-202,839,165
7765,17,-118,-197,-212,852,171
7770,18,-119,-200,-226,869,182
7775,18,-118,-201,-240,887,192
7780,19,-119,-196,-254,904,208
7785,20,-119,-199,-268,922,223
7790,20,-120,-200,-282,936,237
7795,17,-123,-200,-295,949,250
7800,19,-119,-203,-303,961,266
7805,18,-125,-206,-310,978,283
7810,21,-124,-201,-312,996,302
7815,21,-120,-197,-313,1015,318
7820,24,-122,-200,-312,1036,332
7825,28,-119,-200,-310,1062,349
7830,31,-117,-202,-311,1091,367
7835,34,-115,-206,-316,1125,385
7840,38,-112,-201,-328,1165,406
7845,39,-110,-202,-342,1203,426
7850,35,-107,-198,-360,1239,443
7855,40,-110,-202,-380,1272,457
7860,39,-99,-208,-407,1303,474
7865,33,-96,-208,-437,1336,494
7870,40,-97,-206,-467,1367,516
7875,35,-99,-206,-495,1397,544
7880,35,-96,-202,-519,1419,576
7885,34,-97,-207,-543,1441,605
7890,36,-99,-204,-563,1461,637
7895,35,-97,-209,-584,1485,669
7900,33,-93,-213,-607,1514,702
7905,37,-94,-216,-630,1549,743
7910,38,-91,-218,-652,1583,785
7915,39,-90,-210,-669,1614,827
7920,43,-88,-206,-681,1639,870
7925,51,-86,-209,-695,1661,912
7930,45,-84,-203,-716,1680,951
7935,47,-81,-205,-745,1700,987
7940,47,-79,-201,-776,1720,1022
7945,43,-77,-199,-806,1740,1055
7950,45,-74,-197,-834,1758,1090
7955,41,-76,-195,-856,1774,1119
7960,40,-68,-191,-867,1790,1147
7965,41,-69,-191,-868,1808,1175
7970,41,-64,-189,-861,1829,1203
7975,38,-57,-190,-855,1857,1231
7980,34,-58,-191,-851,1884,1255
7985,37,-50,-187,-845,1907,1275
7990,36,-47,-184,-844,1926,1291
7995,34,-42,-177,-849,1942,1305
8000,34,-42,-169,-850,1955,1315
8005,28,-41,-163,-846,1970,1323
8010,30,-42,-161,-836,1983,1337
8015,32,-39,-152,-829,1996,1346
8020,25,-42,-151,-826,2012,1360
8025,23,-48,-143,-824,2025,1368
8030,22,-50,-137,-813,2036,1371
8035,18,-53,-132,-791,2049,1373
8040,30,-50,-129,-759,2071,1377
8045,30,-52,-129,-727,2091,1380
8050,32,-52,-119,-705,2109,1370
8055,34,-49,-113,-684,2122,1359
8060,35,-51,-103,-658,2127,1345
8065,40,-58,-88,-617,2125,1338
8070,50,-62,-84,-569,2122,1326
8075,51,-62,-78,-536,2135,1306
8080,54,-66,-68,-515,2164,1284
8085,61,-67,-64,-496,2197,1261
8090,60,-69,-62,-465,2231,1237
8095,60,-74,-56,-426,2266,1197
8100,63,-72,-52,-376,2301,1157
8105,68,-74,-42,-319,2336,1126
8110,68,-66,-35,-264,2358,1084
8115,64,-60,-25,-207,2349,1052
8120,68,-58,-19,-142,2319,1045
8125,65,-50,-10,-76,2284,1035
8130,63,-51,-2,-24,2241,1021
8135,59,-55,-1,7,2198,990
8140,55,-59,-2,25,2157,951
8145,57,-62,-5,48,2115,916
8150,55,-70,-4,89,2072,888
8155,64,-71,-15,144,2029,872
8160,68,-74,-19,216,1994,862
8165,71,-75,-25,309,1973,861
8170,75,-74,-21,418,1975,874
8175,81,-78,-17,535,1998,895
8180,80,-79,-8,647,2032,921
8185,85,-83,1,740,2067,952
8190,92,-88,0,814,2106,983
8195,100,-91,3,876,2151,1004
8200,119,-97,2,924,2197,1013
8205,131,-101,-19,959,2230,1012
8210,143,-104,-27,989,2234,1003
8215,155,-105,-40,1036,2222,985
8220,160,-99,-49,1122,2217,955
8225,166,-91,-59,1244,2249,933
8230,167,-91,-73,1383,2315,926
8235,159,-85,-90,1496,2383,926
8240,156,-82,-100,1565,2435,928
8245,150,-89,-113,1603,2477,949
8250,143,-84,-114,1634,2510,993
8255,139,-81,-102,1670,2536,1057
8260,161,-84,-105,1696,2559,1164
8265,204,-88,-113,1720,2615,1264
8270,232,-81,-126,1754,2774,1304
8275,237,-93,-138,1778,2953,1430
8280,257,-101,-136,1807,3096,1620
8285,273,-114,-144,1880,3230,1773
8290,293,-123,-163,1962,3369,1905
8295,332,-154,-186,1994,3513,2032
8300,370,-154,-171,1968,3646,2103
8305,388,-171,-157,1924,3741,2192
8310,387,-190,-145,1866,3789,2264
8315,381,-210,-138,1798,3822,2277
8320,375,-245,-143,1720,3845,2277
8325,378,-272,-133,1615,3851,2215
8330,400,-315,-111,1518,3815,2060
8335,430,-355,-103,1419,3751,1836
8340,396,-402,-83,1293,3741,1631
8345,417,-494,-30,1200,3733,1501
8350,486,-607,28,1199,3731,1406
8355,581,-728,59,1303,3749,1353
8360,649,-827,93,1452,3817,1354
8365,657,-892,85,1581,3840,1376
8370,677,-955,67,1637,3784,1392
8375,734,-1023,66,1622,3689,1356
8380,755,-1075,56,1603,3609,1205
8385,729,-1086,38,1674,3534,988
8390,648,-1069,28,1967,3458,769
8395,484,-995,22,2673,3351,640
8400,282,-856,-27,3768,3276,599
8405,102,-680,-39,4932,3311,586
8410,26,-531,45,5930,3440,636
8415,19,-448,109,6722,3553,690
8420,-15,-304,100,7179,3547,692
8425,-56,-162,42,7156,3461,704
8430,-75,-87,41,6653,3341,750
8435,-89,-60,55,5920,3179,756
8440,-95,-58,73,5201,3026,708
8445,-94,-70,88,4619,2892,625
8450,-86,-90,92,4184,2743,544
8455,-66,-118,77,3847,2562,477
8460,-28,-124,47,3582,2397,395
8465,-12,-134,52,3344,2312,297
8470,-24,-137,79,3159,2249,254
8475,-53,-117,87,3079,2150,327
8480,-72,-88,100,3076,2043,477
8485,-68,-61,132,3090,1947,644
8490,-65,-45,163,3086,1849,794
8495,-46,-36,208,3079,1752,931
8500,-32,-28,238,3059,1661,1044
8505,-14,-34,261,3012,1594,1123
8510,-29,-37,282,2936,1550,1164
8515,-38,-39,274,2810,1466,1200
8520,-55,-41,266,2617,1318,1223
8525,-71,-42,254,2407,1151,1219
8530,-79,-22,246,2247,1005,1198
8535,-74,-13,248,2150,902,1173
8540,-64,-8,251,2087,830,1130
8545,-53,0,260,2021,788,1074
8550,-47,5,264,1914,784,1008
8555,-35,6,270,1758,819,934
8560,-25,15,273,1580,894,845
8565,-20,24,275,1410,1008,766
8570,-25,46,284,1253,1140,713
8575,-27,63,299,1109,1238,684
8580,-27,79,312,974,1281,659
8585,-45,93,308,843,1288,606
8590,-63,94,308,705,1255,542
8595,-69,99,299,564,1174,471
8600,-74,102,293,442,1078,402
8605,-79,99,283,339,1006,341
8610,-89,97,281,252,972,293
8615,-86,93,278,170,960,262
8620,-82,80,278,90,955,246
8625,-75,71,275,21,941,243
8630,-65,68,272,-27,912,247
8635,-53,55,277,-57,871,248
8640,-41,42,278,-69,829,250
8645,-31,33,279,-64,795,251
8650,-24,12,266,-62,763,256
8655,-14,0,256,-49,720,255
8660,-10,-14,243,-20,666,233
8665,-5,-22,229,24,609,201
8670,0,-25,209,74,555,166
8675,-3,-20,194,116,511,142
8680,-1,-25,185,141,477,130
8685,-6,-14,175,145,462,130
8690,-9,-10,173,127,463,140
8695,-16,-4,166,90,477,157
8700,-44,0,178,42,498,181
8705,-66,7,186,-14,514,207
8710,-71,13,195,-75,507,230
8715,-74,17,205,-145,482,244
8720,-81,15,213,-229,458,260
8725,-82,14,217,-314,452,275
8730,-98,2,226,-390,457,293
8735,-102,-25,249,-437,459,308
8740,-119,-33,252,-433,447,311
8745,-122,-54,247,-399,432,312
8750,-116,-59,239,-346,403,302
8755,-114,-55,225,-266,364,285
8760,-115,-45,209,-185,326,260
8765,-117,-38,198,-128,301,237
8770,-112,-37,196,-103,279,212
8775,-109,-35,207,-99,251,185
8780,-106,-39,214,-106,212,153
8785,-104,-52,226,-125,161,111
8790,-106,-58,234,-152,91,66
8795,-103,-59,244,-185,8,17
8800,-98,-64,245,-229,-78,-30
8805,-99,-59,247,-297,-162,-76
8810,-98,-60,246,-386,-238,-118
8815,-96,-68,252,-478,-296,-146
8820,-98,-70,246,-559,-338,-165
8825,-95,-73,240,-625,-362,-184
8830,-89,-81,241,-683,-367,-208
8835,-87,-96,240,-719,-341,-225
8840,-83,-111,237,-725,-285,-230
8845,-76,-123,227,-691,-228,-224
8850,-69,-129,211,-625,-209,-235
8855,-66,-127,199,-549,-244,-262
8860,-62,-123,190,-485,-319,-284
8865,-53,-122,191,-440,-421,-295
8870,-43,-126,189,-408,-528,-308
8875,-35,-129,194,-381,-619,-336
8880,-26,-128,197,-356,-679,-360
8885,-19,-125,204,-343,-715,-381
8890,-19,-127,211,-352,-724,-388
8895,-16,-118,219,-370,-718,-381
8900,-7,-120,226,-395,-713,-371
8905,-5,-118,234,-422,-708,-369
8910,0,-125,240,-443,-698,-376
8915,0,-128,247,-442,-676,-379
8920,7,-138,255,-413,-638,-376
8925,12,-145,259,-349,-590,-367
8930,5,-156,270,-256,-555,-354
8935,1,-161,271,-148,-557,-337
8940,4,-159,256,-41,-611,-318
8945,11,-153,239,44,-691,-293
8950,19,-133,214,80,-769,-265
8955,26,-129,198,64,-833,-237
8960,23,-126,181,16,-873,-213
8965,19,-131,182,-46,-897,-189
8970,20,-133,177,-103,-904,-167
8975,15,-141,175,-149,-907,-144
8980,11,-149,180,-188,-921,-124
8985,11,-156,183,-211,-948,-116
8990,12,-164,193,-208,-984,-115
8995,17,-168,194,-172,-1016,-117
9000,26,-171,200,-109,-1031,-106
9005,39,-167,202,-31,-1025,-82
9010,52,-162,204,45,-1006,-48
9015,64,-155,219,92,-976,-5
9020,74,-148,221,99,-938,50
9025,79,-148,226,71,-890,99
9030,87,-150,223,28,-833,145
9035,91,-151,220,-19,-772,185
9040,99,-148,219,-69,-707,217
9045,97,-152,214,-106,-642,240
9050,101,-151,210,-119,-575,254
9055,102,-145,202,-111,-508,269
9060,101,-145,207,-96,-457,278
9065,107,-144,199,-71,-423,283
9070,115,-144,192,-34,-397,283
9075,111,-145,189,9,-372,283
9080,108,-147,181,54,-348,289
9085,103,-147,180,96,-329,296
9090,104,-149,182,138,-315,301
9095,101,-151,184,185,-293,297
9100,102,-148,183,228,-263,288
9105,100,-151,180,259,-217,277
9110,100,-149,186,274,-165,267
9115,96,-148,185,273,-114,255
9120,102,-147,191,264,-72,238
9125,100,-149,195,255,-40,210
9130,103,-143,197,250,-13,178
9135,105,-142,198,245,13,139
9140,104,-135,191,232,40,111
9145,107,-134,189,209,72,89
9150,107,-129,189,181,106,63
9155,102,-128,186,159,134,39
9160,97,-129,185,150,152,23
9165,87,-131,185,148,155,5
9170,88,-131,183,157,145,-15
9175,89,-132,180,176,132,-31
9180,89,-138,184,197,122,-50
9185,91,-140,180,217,121,-75
9190,94,-143,183,236,133,-97
9195,94,-148,184,246,158,-113
9200,87,-150,189,251,187,-123
9205,84,-156,193,255,220,-133
9210,73,-159,195,265,253,-127
9215,69,-160,196,274,273,-130
9220,65,-163,199,279,276,-137
9225,55,-164,199,277,277,-138
9230,50,-161,210,271,278,-133
9235,43,-159,201,261,277,-122
9240,37,-154,205,246,272,-113
9245,36,-153,202,226,263,-102
9250,33,-150,205,204,257,-90
9255,28,-145,199,182,249,-75
9260,25,-142,196,168,242,-61
9265,19,-137,198,165,236,-45
9270,20,-131,200,171,233,-29
9275,13,-127,198,184,225,-13
9280,14,-125,201,203,217,8
9285,5,-123,197,227,207,24
9290,10,-117,199,251,195,44
9295,7,-114,204,272,184,61
9300,6,-109,208,292,171,76
9305,7,-107,207,314,157,90
9310,8,-109,214,335,146,98
9315,7,-105,219,351,134,99
9320,3,-101,218,359,120,100
9325,0,-101,217,365,107,110
9330,1,-98,222,358,85,108
9335,2,-94,219,340,60,102
9340,3,-96,227,319,34,92
9345,5,-94,227,295,11,81
9350,5,-94,231,268,-6,73
9355,4,-97,233,248,-19,67
9360,2,-98,233,238,-28,65
9365,13,-104,230,228,-38,57
9370,20,-107,227,219,-50,43
9375,25,-109,224,213,-55,26
9380,27,-109,220,210,-57,17
9385,25,-107,221,212,-52,11
9390,32,-108,218,215,-47,6
9395,37,-108,213,216,-37,2
9400,38,-108,222,211,-27,-10
9405,38,-110,218,197,-20,-25
9410,39,-109,221,179,-13,-34
9415,37,-105,218,161,-7,-41
9420,35,-105,220,149,0,-46
9425,35,-106,224,138,7,-53
9430,31,-103,225,130,15,-56
9435,31,-106,222,124,24,-56
9440,29,-98,224,122,31,-57
9445,29,-100,230,117,38,-59
9450,28,-104,227,117,39,-59
9455,26,-94,230,117,37,-59
9460,20,-94,231,115,30,-61
9465,19,-90,231,113,17,-58
9470,19,-91,232,110,5,-58
9475,18,-88,232,106,-10,-56
9480,19,-91,234,103,-26,-54
9485,19,-92,231,98,-43,-56
9490,18,-94,234,92,-55,-54
9495,14,-93,231,88,-67,-52
9500,18,-91,237,83,-77,-53
9505,19,-99,236,80,-82,-52
9510,19,-93,238,77,-86,-52
9515,22,-97,230,75,-93,-56
9520,21,-94,231,71,-96,-57
9525,26,-99,228,68,-97,-57
9530,25,-99,229,61,-97,-56
9535,27,-99,229,52,-95,-56
9540,27,-98,222,42,-91,-51
9545,31,-98,224,32,-86,-47
9550,31,-101,223,24,-80,-43
9555,38,-100,217,18,-77,-39
9560,34,-101,223,15,-73,-39
9565,32,-103,218,15,-70,-36
9570,36,-106,221,18,-68,-31
9575,37,-105,222,19,-66,-28
9580,39,-101,218,18,-64,-24
9585,42,-107,217,17,-61,-22
9590,44,-104,216,12,-60,-21
9595,42,-107,220,9,-60,-19
9600,41,-109,220,5,-59,-20
9605,49,-104,219,-2,-59,-23
9610,43,-109,213,-9,-60,-22
9615,48,-111,217,-11,-61,-24
9620,48,-110,218,-9,-61,-26
9625,48,-114,218,-3,-61,-30
9630,49,-109,216,4,-60,-33
9635,50,-113,217,12,-57,-34
9640,51,-118,220,23,-51,-35
9645,48,-113,218,35,-47,-37
9650,43,-119,213,47,-43,-37
9655,46,-117,214,61,-39,-37
9660,49,-116,216,72,-41,-37
9665,51,-118,222,82,-41,-33
9670,47,-117,214,91,-40,-30
9675,49,-121,212,102,-32,-13
9680,43,-121,218,104,-26,-12
9685,46,-120,214,98,-34,-22
9690,44,-119,211,91,-40,-27
9695,46,-119,213,85,-42,-31
9700,49,-122,213,81,-40,-33
9705,45,-122,214,76,-38,-34
9710,47,-121,210,71,-33,-35
9715,49,-120,211,68,-31,-34
9720,44,-117,214,68,-26,-32
9725,43,-117,212,70,-24,-32
9730,41,-116,212,76,-22,-31
9735,41,-117,211,83,-20,-31
9740,42,-116,210,94,-18,-30
9745,40,-117,215,106,-20,-28
9750,36,-116,209,121,-22,-27
9755,40,-117,209,134,-27,-27
9760,42,-112,208,150,-29,-26
9765,36,-113,213,165,-32,-27
9770,39,-112,210,181,-32,-29
9775,41,-117,218,191,-34,-31
9780,42,-116,213,198,-27,-28
9785,39,-114,217,203,-20,-24
9790,40,-114,219,205,-13,-19
9795,41,-113,221,205,-7,-15
9800,36,-112,216,200,-1,-12
9805,40,-112,217,192,4,-12
9810,37,-113,223,182,7,-11
9815,38,-106,220,172,7,-11
9820,40,-112,224,164,7,-11
9825,38,-107,218,156,5,-10
9830,38,-109,221,151,3,-10
9835,39,-107,223,148,0,-11
9840,42,-106,220,145,-3,-12
9845,40,-105,222,142,-6,-12
9850,40,-103,222,143,-10,-13
9855,39,-104,222,143,-15,-12
9860,40,-107,223,143,-18,-13
9865,38,-106,221,138,-20,-13
9870,38,-104,232,133,-23,-14
9875,41,-106,222,130,-26,-15
9880,43,-100,223,128,-28,-16
9885,41,-105,226,133,-20,-2
9890,37,-105,225,129,-18,-8
9895,39,-102,225,121,-21,-14
9900,38,-101,225,114,-20,-16
9905,41,-99,225,108,-17,-16
9910,39,-101,218,102,-11,-16
9915,37,-98,226,96,-6,-15
9920,41,-103,222,90,-3,-12
9925,38,-102,226,81,0,-15
9930,38,-99,221,76,1,-14
9935,38,-103,223,68,4,-15
9940,41,-100,231,62,5,-17
9945,39,-99,226,56,6,-18
9950,37,-97,225,49,8,-19
9955,37,-97,226,43,9,-20
9960,35,-99,228,40,9,-19
9965,39,-102,226,39,9,-20
9970,38,-103,226,35,8,-21
9975,41,-99,228,33,7,-21
9980,42,-100,225,32,5,-20
9985,38,-98,224,30,5,-19
9990,39,-101,226,27,4,-20
9995,39,-105,236,21,3,-20
10000,41,-102,228,15,1,-21
10005,38,-105,227,7,-1,-22
10010,40,-103,223,0,-4,-20
10015,38,-103,224,-7,-6,-18
10020,41,-107,222,-11,-6,-17
10025,38,-106,227,-12,-7,-18
10030,37,-107,222,-12,-6,-15
10035,43,-107,221,-9,-6,-14
10040,40,-106,218,-2,-3,-14
10045,41,-110,226,7,-2,-13
10050,40,-112,225,16,-1,-14
10055,41,-106,222,24,1,-14
10060,40,-108,219,30,0,-11
10065,42,-106,215,33,1,-13
10070,42,-108,216,37,1,-12
10075,43,-106,221,38,2,-11
10080,42,-105,219,36,2,-10
10085,45,-105,216,32,2,-10
10090,42,-107,220,28,1,-12
10095,39,-105,217,23,1,-11
10100,48,-105,218,21,1,-11
10105,44,-104,217,16,-1,-12
10110,44,-103,221,12,-1,-13
10115,42,-105,224,8,-2,-14
10120,44,-104,217,6,-2,-14
10125,43,-106,220,4,-3,-14
10130,44,-106,222,5,-4,-15
10135,43,-109,218,6,-4,-14
10140,42,-105,220,7,-2,-15
10145,45,-106,218,10,-1,-15
10150,40,-111,219,14,0,-17
10155,43,-108,217,18,0,-16
10160,40,-107,217,26,2,-18
10165,40,-108,217,32,2,-19
10170,43,-110,218,38,4,-20
10175,40,-110,215,45,3,-19
10180,41,-109,215,52,4,-19
10185,40,-108,217,59,7,-20
10190,40,-107,214,64,7,-20
10195,40,-107,216,70,9,-19
10200,41,-108,211,75,12,-18
10205,46,-106,215,79,12,-18
10210,50,-112,220,85,14,-17
10215,39,-106,213,91,14,-16
10220,42,-109,218,98,15,-15
10225,42,-104,216,105,14,-16
10230,41,-104,217,115,15,-17
10235,40,-107,216,122,15,-18
10240,44,-106,216,130,16,-17
10245,44,-110,221,139,15,-17
10250,44,-108,219,146,15,-18
10255,45,-110,223,154,15,-19
10260,42,-104,228,158,15,-18
10265,39,-106,216,162,14,-19
10270,41,-107,225,163,13,-20
10275,41,-109,221,166,11,-18
10280,40,-104,220,165,11,-20
10285,43,-107,223,163,11,-20
10290,41,-105,216,161,10,-22
10295,42,-104,220,155,10,-21
10300,40,-104,218,152,11,-21
10305,40,-102,219,148,12,-22
10310,39,-99,219,145,11,-24
10315,44,-106,221,140,12,-22
10320,39,-109,215,137,13,-22
10325,41,-104,221,136,12,-21
10330,45,-107,223,136,14,-22
10335,41,-105,223,136,13,-21
10340,45,-104,220,139,12,-26
10345,43,-105,223,142,10,-26
10350,47,-106,223,145,9,-27
10355,45,-106,225,148,8,-28
10360,40,-105,223,153,4,-31
10365,43,-103,223,156,4,-29
10370,44,-102,221,160,4,-30
10375,40,-105,222,164,4,-27
10380,43,-100,219,166,3,-29
10385,43,-103,223,168,3,-27
10390,43,-102,223,169,2,-27
10395,42,-100,222,168,2,-26
10400,42,-96,219,163,1,-25
10405,41,-99,224,160,-1,-23
10410,40,-99,224,157,3,-16
10415,42,-99,222,148,2,-21
10420,38,-100,228,140,-1,-24
10425,38,-99,225,131,-4,-24
10430,40,-100,228,123,-3,-24
10435,43,-100,228,115,-4,-23
10440,41,-97,222,108,-2,-24
10445,40,-101,227,100,-1,-23
10450,44,-99,228,93,2,-23
10455,41,-97,224,88,2,-21
10460,42,-96,224,83,4,-21
10465,42,-99,229,77,6,-20
10470,40,-98,220,76,8,-18
10475,46,-104,223,74,8,-19
10480,45,-100,223,72,8,-16
10485,43,-103,224,71,9,-13
10490,41,-99,224,72,8,-14
10495,43,-102,222,71,8,-13
10500,43,-100,219,72,8,-13
10505,45,-99,224,75,7,-12
10510,42,-99,223,74,7,-13
10515,44,-101,226,75,7,-13
10520,43,-101,223,77,8,-14
10525,42,-98,220,78,8,-13
10530,44,-101,224,77,6,-15
10535,42,-103,221,80,6,-15
10540,40,-104,220,85,3,-15
10545,43,-98,221,89,2,-17
10550,43,-99,226,91,1,-17
10555,43,-99,224,95,1,-18
10560,40,-97,224,96,0,-16
10565,44,-99,222,99,0,-16
10570,43,-98,226,100,-1,-16
10575,43,-97,225,99,0,-18
10580,44,-102,225,98,0,-18
10585,41,-97,225,95,1,-19
10590,40,-98,226,95,4,-21
10595,43,-100,224,94,6,-20
10600,44,-100,224,91,8,-18
10605,40,-98,224,88,10,-18
10610,40,-101,223,85,12,-16
10615,44,-98,218,84,13,-15
10620,44,-97,224,81,15,-16
10625,41,-99,224,79,15,-17
10630,42,-98,223,77,15,-16
10635,40,-96,224,74,15,-17
10640,45,-97,223,71,15,-18
10645,39,-95,227,69,17,-18
10650,45,-99,224,66,17,-16
10655,41,-99,226,64,17,-16
10660,43,-95,226,60,15,-17
10665,43,-97,224,60,12,-18
10670,44,-101,229,58,9,-16
10675,42,-96,227,55,7,-18
10680,41,-97,226,52,4,-17
10685,43,-101,228,49,1,-18
10690,44,-98,227,47,-4,-17
10695,41,-97,224,46,-8,-18
10700,38,-99,224,43,-10,-17
10705,40,-97,228,41,-11,-19
10710,40,-95,224,40,-12,-19
10715,40,-100,223,40,-11,-19
10720,44,-101,222,40,-10,-18
10725,43,-100,222,43,-6,-17
10730,41,-98,224,48,-4,-17
10735,43,-102,224,54,-2,-16
10740,42,-100,221,63,0,-14
10745,41,-100,220,73,1,-17
10750,40,-101,224,84,1,-15
10755,40,-105,222,94,-2,-17
10760,43,-99,223,106,-3,-18
10765,44,-99,223,115,-4,-18
10770,44,-95,224,124,-5,-17
10775,39,-96,223,129,-7,-19
10780,43,-98,220,131,-6,-18
10785,44,-97,225,129,-6,-16
10790,42,-98,222,126,-4,-16
10795,43,-94,224,122,-3,-18
10800,45,-98,224,116,0,-16
10805,46,-99,226,109,3,-18
10810,42,-95,228,101,3,-17
10815,45,-92,226,91,4,-17
10820,44,-95,226,82,6,-15
10825,45,-94,227,73,7,-13
10830,42,-94,227,64,7,-14
10835,41,-95,224,56,7,-12
10840,40,-95,226,47,7,-12
10845,41,-96,228,40,7,-11
10850,44,-96,225,37,7,-10
10855,45,-96,221,32,7,-12
10860,44,-96,225,31,8,-12
10865,44,-102,229,30,9,-11
10870,43,-100,227,30,9,-11
10875,41,-95,224,35,10,-11
10880,44,-100,224,38,10,-12
10885,43,-98,224,43,11,-13
10890,45,-97,226,48,10,-13
10895,44,-95,223,53,10,-14
10900,41,-98,224,56,9,-13
10905,46,-98,225,58,10,-14
10910,41,-95,219,60,10,-13
10915,43,-96,224,61,12,-12
10920,44,-86,217,61,11,-14
10925,43,-97,224,62,12,-13
10930,44,-98,224,62,12,-12
10935,44,-96,223,62,12,-13
10940,44,-97,223,61,13,-11
10945,45,-96,223,60,14,-12
10950,42,-98,222,60,12,-11
10955,40,-97,225,60,12,-10
10960,42,-98,223,60,11,-10
10965,42,-97,222,57,12,-10
10970,42,-98,227,55,10,-13
10975,49,-98,230,53,9,-13
10980,44,-100,225,51,10,-11
10985,43,-98,220,50,11,-10
10990,42,-97,224,49,11,-12
10995,43,-99,223,46,12,-12
11000,40,-95,222,44,12,-12
11005,46,-97,227,42,13,-13
11010,42,-98,221,40,16,-13
11015,46,-99,222,37,16,-13
11020,46,-99,225,33,16,-14
11025,43,-97,222,30,16,-14
11030,36,-93,219,25,17,-12
11035,43,-97,226,23,16,-12
11040,42,-97,225,20,14,-12
11045,43,-95,227,18,13,-12
11050,42,-98,223,19,13,-12
11055,42,-100,227,20,11,-11
11060,46,-104,228,20,11,-12
11065,44,-99,223,22,9,-13
11070,41,-98,225,27,6,-12
11075,44,-98,221,30,4,-12
11080,44,-89,214,32,4,-12
11085,42,-96,221,36,4,-12
11090,43,-99,224,39,3,-12
11095,42,-97,226,42,3,-11
11100,41,-97,228,43,6,-11
11105,43,-100,220,44,8,-11
11110,46,-97,221,43,11,-9
11115,44,-97,220,41,10,-9
11120,47,-97,224,39,10,-10
11125,46,-94,222,34,10,-8
11130,44,-96,224,31,9,-9
11135,40,-96,223,26,10,-11
11140,45,-98,226,21,9,-9
11145,46,-97,222,19,7,-9
11150,45,-95,227,16,8,-9
11155,46,-98,223,13,8,-8
11160,42,-97,225,12,7,-10
11165,46,-98,225,11,6,-10
11170,43,-95,226,10,7,-11
11175,42,-99,227,11,8,-11
11180,43,-98,227,11,6,-12
11185,43,-101,221,10,8,-12
11190,52,-96,223,8,8,-10
11195,40,-99,224,6,8,-9
11200,42,-96,221,5,9,-10
11205,43,-98,221,4,11,-8
11210,44,-98,224,4,11,-9
11215,44,-99,219,4,10,-10
11220,41,-95,226,4,12,-8
11225,46,-101,225,6,12,-8
11230,44,-95,225,8,13,-10
11235,43,-96,226,8,13,-9
11240,43,-98,225,9,14,-10
11245,42,-98,219,8,13,-10
11250,45,-97,222,8,13,-11
11255,44,-97,224,9,12,-10
11260,45,-100,222,11,11,-10
11265,43,-100,222,12,11,-9
11270,42,-96,221,16,9,-7
11275,40,-98,221,21,7,-8
11280,47,-102,224,24,6,-8
11285,43,-98,220,30,5,-9
11290,43,-101,223,33,5,-9
11295,45,-104,224,35,4,-9
11300,43,-97,218,36,5,-9
11305,40,-98,220,36,6,-10
11310,43,-98,224,32,9,-11
11315,41,-101,221,28,10,-10
11320,45,-98,220,23,9,-8
11325,44,-96,223,18,9,-8
11330,43,-100,226,12,11,-11
11335,46,-98,219,8,12,-11
11340,42,-94,222,7,11,-11
11345,46,-99,221,6,11,-12
11350,41,-96,222,5,10,-13
11355,45,-98,221,6,10,-13
11360,44,-98,220,5,10,-14
11365,42,-100,223,6,11,-13
11370,43,-99,222,6,13,-12
11375,47,-103,218,8,13,-12
11380,43,-101,222,11,12,-12
11385,44,-99,226,15,14,-11
11390,47,-103,223,19,12,-11
11395,46,-100,224,24,10,-12
11400,45,-99,219,28,8,-11
11405,44,-100,223,33,6,-13
11410,42,-104,217,36,4,-13
11415,40,-102,221,38,2,-13
11420,42,-102,222,39,1,-13
11425,45,-100,226,42,2,-13
11430,42,-99,219,44,4,-14
11435,43,-100,221,49,2,-15
11440,43,-104,217,53,4,-14
11445,41,-100,219,64,6,-13
11450,44,-101,220,72,6,-13
11455,44,-107,220,81,7,-12
11460,44,-103,221,93,7,-12
11465,39,-102,223,104,8,-11
11470,43,-104,221,117,8,-11
11475,45,-103,218,128,5,-12
11480,43,-102,215,137,4,-12
11485,43,-102,219,142,3,-13
11490,44,-101,227,147,1,-15
11495,42,-97,221,147,-1,-13
11500,43,-97,223,145,-1,-14
11505,45,-101,226,140,-1,-16
11510,40,-99,226,132,0,-16
11515,45,-96,222,122,0,-16
11520,40,-96,221,111,2,-15
11525,43,-96,224,100,4,-16
11530,46,-96,223,88,6,-15
11535,45,-97,222,75,7,-14
11540,45,-96,219,66,9,-15
11545,46,-97,225,60,10,-13
11550,45,-99,222,57,12,-13
11555,44,-95,222,56,13,-11
11560,47,-100,223,57,14,-13
11565,42,-97,221,61,15,-13
11570,45,-99,224,66,15,-14
11575,41,-98,221,72,15,-14
11580,42,-97,225,79,13,-12
11585,45,-100,225,84,13,-13
11590,44,-99,221,89,13,-15
11595,45,-100,223,93,12,-14
11600,45,-101,222,98,11,-15
11605,46,-98,223,99,11,-16
11610,38,-97,222,102,11,-18
11615,42,-98,226,104,9,-16
11620,40,-96,219,104,11,-16
11625,46,-101,224,104,10,-16
11630,45,-95,222,103,11,-15
11635,44,-98,221,103,11,-17
11640,44,-100,224,103,11,-15
11645,46,-99,225,104,11,-15
11650,41,-98,223,105,13,-14
11655,41,-98,222,109,12,-14
11660,40,-95,222,111,13,-15
11665,42,-93,221,114,13,-14
11670,41,-98,224,116,13,-14
11675,44,-99,227,119,14,-14
11680,39,-95,217,120,13,-13
11685,42,-98,225,123,14,-13
11690,43,-96,225,125,14,-13
11695,43,-96,225,127,12,-13
11700,43,-97,223,126,13,-15
11705,44,-97,222,126,12,-15
11710,43,-99,227,126,12,-16
11715,47,-96,224,125,12,-15
11720,45,-97,220,122,11,-17
11725,42,-94,229,120,11,-18
11730,40,-96,224,118,11,-18
11735,43,-98,229,115,12,-16
11740,44,-96,226,112,12,-17
11745,45,-96,227,106,12,-18
11750,45,-95,227,100,12,-18
11755,44,-95,226,96,10,-20
11760,45,-96,223,92,9,-18
11765,47,-95,230,88,11,-18
11770,44,-94,225,88,13,-14
11775,40,-93,221,89,15,-12
11780,41,-98,229,88,12,-14
11785,44,-97,225,87,7,-16
11790,44,-95,234,87,6,-16
11795,38,-92,227,89,5,-17
11800,46,-98,221,89,-3,-24
11805,45,-94,226,89,0,-18
11810,44,-95,227,91,6,-15
11815,46,-95,225,93,10,-16
11820,45,-97,229,95,11,-15
11825,45,-95,225,96,12,-14
11830,44,-98,223,98,13,-13
11835,44,-95,226,97,14,-12
11840,46,-95,225,96,13,-11
11845,41,-103,219,96,13,-13
11850,44,-95,225,94,12,-12
11855,42,-94,224,92,12,-13
11860,43,-94,224,91,11,-13
11865,43,-98,226,89,10,-12
11870,44,-95,226,86,9,-13
11875,43,-96,226,84,8,-13
11880,44,-92,224,81,7,-15
11885,45,-92,227,78,5,-16
11890,47,-95,227,72,7,-15
11895,44,-94,228,69,8,-15
11900,43,-93,228,68,7,-15
11905,46,-93,225,69,8,-15
11910,42,-93,224,69,10,-13
11915,45,-92,225,67,10,-14
11920,44,-95,224,66,10,-15
11925,45,-94,225,66,12,-13
11930,45,-93,225,67,14,-13
11935,42,-93,223,64,15,-13
11940,43,-93,222,65,14,-14
11945,46,-99,228,64,15,-14
11950,42,-92,221,63,14,-14
11955,48,-95,224,63,15,-13
11960,44,-95,224,62,13,-13
11965,46,-94,221,64,13,-13
11970,45,-94,228,62,13,-13
11975,46,-96,226,61,12,-13
11980,44,-96,227,61,11,-10
11985,43,-94,221,62,10,-9
11990,46,-97,224,63,9,-9
11995,47,-95,225,64,8,-10
12000,46,-94,222,65,8,-12
12005,45,-96,225,68,8,-11
12010,46,-96,227,70,7,-11
12015,42,-95,226,74,7,-12
12020,44,-93,226,77,8,-14
12025,44,-95,225,80,8,-12
12030,45,-95,229,82,8,-13
12035,44,-94,223,83,8,-14
12040,43,-94,229,83,8,-12
12045,44,-93,224,82,9,-14
12050,41,-95,230,80,11,-15
12055,45,-92,226,77,8,-13
12060,45,-93,222,76,9,-13
12065,45,-96,227,71,11,-13
12070,42,-94,222,67,13,-14
12075,42,-94,229,61,13,-14
12080,42,-95,226,55,14,-13
12085,42,-94,224,51,16,-12
12090,43,-92,226,47,16,-14
12095,48,-92,224,44,16,-15
12100,44,-93,223,40,18,-14
12105,41,-94,225,37,19,-13
12110,42,-90,228,35,19,-12
12115,43,-91,224,35,21,-12
12120,46,-95,228,33,19,-14
12125,47,-95,226,31,19,-15
12130,45,-94,225,31,18,-13
12135,44,-93,226,32,15,-14
12140,45,-94,227,33,14,-14
12145,43,-93,227,36,11,-12
12150,44,-92,228,36,9,-15
12155,44,-91,229,38,8,-13
12160,48,-94,228,39,4,-14
12165,46,-95,226,40,0,-14
12170,45,-94,228,39,-1,-16
12175,46,-94,225,37,-1,-17
12180,45,-95,227,35,0,-17
12185,42,-93,224,33,0,-17
12190,46,-95,226,35,2,-17
12195,46,-98,228,36,6,-15
12200,46,-99,226,41,7,-14
12205,46,-97,220,48,9,-13
12210,42,-98,226,56,9,-13
12215,41,-96,225,67,9,-13
12220,44,-97,224,78,8,-13
12225,48,-95,223,88,6,-11
12230,38,-98,229,98,5,-11
12235,42,-94,225,105,2,-13
12240,44,-92,222,111,0,-15
12245,41,-93,225,113,-2,-15
12250,45,-96,222,115,-2,-15
12255,42,-92,224,114,-2,-16
12260,46,-94,226,111,-2,-16
12265,42,-93,229,106,0,-17
12270,46,-94,226,99,1,-17
12275,44,-93,222,89,4,-15
12280,42,-91,226,80,6,-13
12285,44,-90,227,68,9,-14
12290,45,-88,225,59,12,-12
12295,44,-92,225,49,14,-11
12300,47,-88,226,37,15,-9
12305,43,-90,226,24,15,-9
12310,43,-91,227,17,17,-8
12315,45,-91,228,15,15,-8
12320,42,-93,227,16,14,-10
12325,43,-92,226,19,14,-9
12330,41,-93,224,21,13,-10
12335,44,-96,227,25,12,-10
12340,45,-94,225,29,12,-9
12345,45,-96,224,35,13,-11
12350,45,-93,223,41,14,-13
12355,44,-97,223,45,13,-12
12360,45,-94,226,50,13,-13
12365,44,-94,226,53,13,-12
12370,46,-97,221,58,14,-11
12375,44,-94,226,61,14,-11
12380,46,-94,221,63,15,-12
12385,48,-95,226,63,15,-11
12390,46,-96,222,64,15,-12
12395,43,-96,226,65,16,-13
12400,41,-93,223,67,15,-11
12405,45,-94,224,68,15,-10
12410,45,-93,225,67,14,-11
12415,43,-92,223,66,13,-11
12420,46,-95,224,67,14,-11
12425,43,-93,224,69,15,-11
12430,47,-95,229,70,15,-10
12435,46,-96,225,70,16,-9
12440,42,-93,224,70,15,-9
12445,47,-103,230,70,16,-10
12450,43,-92,227,70,16,-11
12455,44,-91,226,70,16,-12
12460,42,-93,227,69,17,-12
12465,44,-95,227,67,17,-11
12470,44,-92,226,67,17,-14
12475,43,-91,224,65,17,-14
12480,43,-92,227,64,17,-13
12485,45,-94,223,64,18,-12
12490,42,-91,225,63,18,-12
12495,41,-94,232,61,18,-13
12500,38,-99,224,61,18,-14
12505,46,-93,227,59,17,-12
12510,47,-99,226,60,15,-13
12515,46,-93,226,59,14,-14
12520,45,-94,224,61,13,-13
12525,47,-94,225,62,12,-12
12530,45,-94,227,64,10,-14
12535,44,-95,225,67,10,-13
12540,46,-96,225,69,11,-13
12545,45,-93,220,71,10,-14
12550,41,-95,225,74,8,-13
12555,47,-97,227,77,9,-12
12560,44,-91,227,80,10,-12
12565,43,-95,226,82,10,-12
12570,41,-94,226,82,11,-12
12575,42,-93,227,82,11,-11
12580,47,-92,225,81,13,-10
12585,46,-91,226,79,13,-10
12590,41,-91,228,76,14,-10
12595,48,-93,227,74,15,-10
12600,48,-90,225,69,15,-12
12605,43,-90,225,64,13,-11
12610,47,-88,229,61,13,-9
12615,49,-97,226,62,20,2
12620,43,-96,231,64,27,-3
12625,41,-91,227,63,17,-7
12630,44,-90,226,62,10,-9
12635,48,-92,225,59,9,-10
12640,43,-92,227,58,9,-12
12645,41,-91,227,57,8,-12
12650,46,-94,226,56,8,-14
12655,44,-94,228,55,9,-14
12660,44,-92,230,53,9,-14
12665,43,-93,227,51,10,-12
12670,42,-93,228,51,12,-13
12675,45,-92,224,51,12,-12
12680,44,-94,224,49,13,-13
12685,42,-93,227,49,12,-12
12690,46,-93,224,50,11,-12
12695,41,-92,226,49,11,-12
12700,44,-93,225,50,12,-12
12705,45,-94,223,51,13,-13
12710,43,-88,226,54,12,-13
12715,40,-93,226,53,10,-12
12720,43,-91,226,56,11,-12
12725,44,-93,225,55,10,-12
12730,43,-94,227,55,11,-13
12735,47,-93,224,57,10,-11
12740,46,-92,224,57,10,-12
12745,47,-93,227,58,10,-9
12750,45,-91,224,58,9,-12
12755,43,-93,230,60,10,-11
12760,44,-92,229,61,9,-10
12765,47,-89,227,63,10,-10
12770,42,-94,231,65,10,-10
12775,44,-94,226,67,10,-10
12780,46,-94,226,69,10,-11
12785,44,-93,227,71,9,-11
12790,42,-92,227,72,11,-12
12795,44,-93,223,74,9,-13
12800,43,-91,228,77,9,-12
12805,45,-97,227,78,9,-12
12810,42,-94,224,77,9,-11
12815,44,-91,228,76,10,-13
12820,41,-90,230,74,10,-13
12825,47,-91,225,71,8,-13
12830,44,-91,227,67,9,-13
12835,45,-91,225,62,10,-13
12840,42,-92,225,59,11,-14
12845,44,-91,228,55,13,-15
12850,43,-95,227,52,15,-13
12855,45,-90,225,51,15,-13
12860,41,-91,229,49,17,-14
12865,41,-92,227,50,17,-13
12870,45,-93,230,50,17,-14
12875,43,-94,230,51,16,-13
12880,38,-86,219,51,16,-12
12885,44,-92,228,51,17,-14
12890,44,-92,226,50,17,-14
12895,43,-90,223,49,17,-13
12900,45,-93,226,48,18,-12
12905,44,-90,224,48,17,-14
12910,46,-92,224,46,17,-11
12915,44,-90,224,47,17,-10
12920,47,-91,223,50,15,-10
12925,46,-92,226,51,12,-11
12930,47,-93,230,52,10,-11
12935,51,-94,235,54,6,-12
12940,46,-93,230,54,2,-12
12945,44,-92,228,52,-1,-15
12950,42,-92,229,49,-3,-16
12955,44,-90,224,48,-5,-16
12960,45,-93,228,46,-6,-15
12965,42,-93,223,48,-2,-15
12970,45,-96,227,50,-1,-14
12975,46,-97,224,54,1,-13
12980,44,-94,224,60,3,-12
12985,44,-96,225,71,5,-13
12990,48,-98,224,83,6,-14
12995,44,-94,227,93,6,-13
13000,44,-95,225,104,6,-13
13005,42,-90,228,113,5,-13
13010,47,-92,224,120,3,-13
13015,44,-92,222,126,0,-15
13020,44,-91,226,127,-2,-17
13025,45,-91,228,129,-3,-17
13030,42,-88,227,126,-4,-17
13035,49,-89,228,121,-4,-18
13040,44,-88,224,115,-3,-17
13045,41,-92,223,106,-2,-17
13050,44,-87,226,97,-1,-16
13055,44,-85,226,85,2,-15
13060,43,-84,223,70,6,-14
13065,43,-83,224,57,7,-12
13070,44,-89,228,48,8,-12
13075,44,-89,229,39,9,-13
13080,44,-89,228,31,11,-10
13085,43,-89,228,24,12,-10
13090,44,-89,229,18,14,-9
13095,43,-87,220,17,14,-9
13100,47,-96,224,16,15,-8
13105,45,-93,226,17,15,-8
13110,43,-91,227,19,16,-10
13115,43,-91,226,23,16,-8
13120,42,-91,227,29,17,-8
13125,42,-92,225,34,15,-9
13130,41,-89,228,39,16,-9
13135,44,-91,226,44,17,-10
13140,46,-94,225,48,15,-8
13145,42,-90,229,51,12,-8
13150,43,-95,222,53,13,-10
13155,43,-90,227,54,11,-11
13160,45,-89,226,53,10,-13
13165,43,-92,227,52,8,-12
13170,43,-89,224,51,6,-14
13175,45,-92,231,51,5,-16
13180,44,-92,228,51,5,-16
13185,44,-88,226,50,6,-13
13190,43,-92,225,50,8,-14
13195,43,-91,224,50,9,-14
13200,45,-93,231,49,12,-11
13205,42,-95,227,49,14,-14
13210,45,-93,227,50,14,-12
13215,45,-93,228,51,16,-12
13220,43,-92,227,51,16,-12
13225,44,-91,229,51,16,-10
13230,43,-91,233,50,16,-11
13235,45,-93,226,50,15,-12
13240,45,-90,220,48,17,-12
13245,45,-90,224,47,17,-12
13250,43,-92,225,46,17,-12
13255,49,-91,222,43,17,-13
13260,46,-95,221,40,18,-12
13265,45,-90,227,38,19,-12
13270,44,-89,227,36,18,-11
13275,45,-91,225,33,18,-11
13280,44,-93,226,31,18,-12
13285,41,-87,224,32,17,-10
13290,46,-93,228,31,16,-10
13295,45,-92,230,33,13,-9
13300,44,-93,225,34,12,-8
13305,44,-92,228,37,11,-10
13310,43,-92,225,41,10,-11
13315,41,-94,224,43,9,-11
13320,46,-96,226,47,10,-11
13325,44,-95,224,50,9,-10
13330,45,-93,224,54,10,-10
13335,44,-91,225,57,11,-9
13340,43,-94,227,59,12,-9
13345,42,-91,224,60,12,-9
13350,44,-88,227,60,13,-8
13355,43,-93,228,60,12,-8
13360,43,-92,225,57,13,-8
13365,45,-88,226,52,13,-8
13370,42,-94,222,49,12,-10
13375,45,-91,223,45,12,-10
13380,44,-92,224,39,11,-10
13385,45,-90,226,38,10,-9
13390,44,-93,226,36,10,-9
13395,45,-90,226,35,10,-8
13400,45,-94,226,34,10,-10
13405,42,-90,231,33,10,-10
13410,47,-95,225,36,10,-10
13415,45,-91,226,37,9,-10
13420,45,-90,226,40,9,-10
13425,45,-95,223,41,9,-12
13430,45,-91,225,43,11,-11
13435,48,-92,225,44,10,-11
13440,45,-89,229,46,11,-12
13445,43,-91,226,44,10,-10
13450,44,-90,223,43,11,-11
13455,46,-93,225,42,11,-13
13460,44,-90,224,41,11,-12
13465,47,-90,228,40,11,-13
13470,45,-93,224,40,11,-11
13475,48,-95,227,39,11,-11
13480,43,-93,223,40,11,-11
13485,43,-92,225,41,12,-10
13490,44,-93,224,41,12,-11
13495,45,-92,226,43,11,-11
13500,46,-97,224,43,10,-10
13505,42,-90,225,43,11,-10
13510,42,-91,223,44,11,-12
13515,46,-94,227,44,10,-13
13520,43,-91,224,43,10,-12
13525,45,-94,224,42,11,-12
13530,46,-91,225,42,10,-11
13535,44,-97,225,41,9,-13
13540,44,-93,226,41,10,-11
13545,43,-95,227,42,10,-11
13550,42,-93,228,41,11,-10
13555,44,-92,227,43,10,-11
13560,42,-93,225,43,10,-12
13565,45,-94,225,45,10,-11
13570,44,-93,225,46,11,-11
13575,39,-94,225,48,10,-10
13580,40,-90,227,47,10,-10
13585,43,-92,224,48,10,-11
13590,41,-93,230,49,9,-11
13595,46,-95,224,49,9,-9
13600,44,-94,230,51,10,-11
13605,46,-95,228,55,11,-11
13610,44,-92,223,56,12,-9
13615,44,-91,225,57,13,-10
13620,47,-95,226,60,11,-12
13625,45,-92,221,61,11,-10
13630,43,-91,226,63,11,-9
13635,43,-93,224,65,11,-11
13640,38,-93,223,66,9,-11
13645,41,-90,229,67,8,-9
13650,44,-91,227,66,10,-9
13655,45,-89,225,64,9,-10
13660,45,-92,223,63,7,-11
13665,42,-90,227,60,7,-11
13670,43,-93,227,59,9,-13
13675,41,-93,222,56,9,-12
13680,46,-94,226,53,10,-12
13685,43,-88,227,51,11,-12
13690,42,-94,227,50,13,-13
13695,40,-90,222,49,14,-12
13700,44,-92,225,50,15,-11
13705,44,-93,226,50,16,-12
13710,44,-93,228,50,16,-11
13715,44,-93,222,50,16,-12
13720,43,-96,226,51,17,-12
13725,46,-93,229,51,15,-11
13730,46,-93,225,51,15,-13
13735,43,-90,229,51,17,-14
13740,46,-93,226,49,17,-12
13745,46,-93,226,47,15,-12
13750,49,-95,228,48,14,-11
13755,43,-90,228,48,12,-12
13760,44,-91,229,49,12,-13
13765,41,-88,222,50,10,-11
13770,44,-90,232,48,7,-13
13775,45,-92,229,44,7,-11
13780,43,-92,228,41,3,-13
13785,43,-94,230,37,1,-14
13790,43,-91,227,33,1,-13
13795,45,-93,228,31,0,-13
13800,44,-89,227,32,0,-14
13805,42,-99,221,35,2,-13
13810,44,-96,223,43,4,-11
13815,47,-96,222,52,3,-11
13820,45,-94,224,62,5,-10
13825,44,-98,225,75,7,-11
13830,45,-94,226,88,7,-11
13835,42,-95,225,100,4,-10
13840,46,-99,226,110,4,-11
13845,46,-96,226,120,2,-14
13850,44,-93,227,126,1,-14
13855,46,-93,225,130,-1,-14
13860,41,-93,225,132,-1,-16
13865,44,-89,224,129,-1,-16
13870,46,-90,226,125,-1,-18
13875,42,-87,222,118,0,-17
13880,44,-90,229,108,0,-16
13885,43,-86,228,96,3,-13
13890,43,-82,228,84,4,-14
13895,46,-88,230,72,5,-13
13900,47,-88,232,60,7,-11
13905,45,-88,224,48,9,-11
13910,44,-87,227,38,11,-10
13915,43,-90,226,31,12,-10
13920,46,-92,229,26,13,-8
13925,43,-91,224,23,13,-9
13930,47,-91,226,20,12,-9
13935,43,-91,229,21,13,-7
13940,44,-91,224,23,12,-8
13945,47,-93,229,28,12,-8
13950,48,-98,231,33,11,-8
13955,44,-96,227,39,11,-10
13960,44,-90,225,45,11,-10
13965,41,-86,224,52,11,-11
13970,39,-90,225,57,12,-10
13975,41,-94,216,62,12,-10
13980,43,-91,224,63,14,-12
13985,45,-89,223,64,12,-12
13990,43,-94,227,65,12,-12
13995,46,-93,225,64,12,-11
14000,43,-91,226,64,13,-11
14005,44,-92,224,63,12,-10
14010,41,-87,229,63,13,-11
14015,42,-91,225,63,12,-12
14020,46,-91,226,63,13,-9
14025,44,-93,217,65,13,-9
14030,44,-91,226,66,13,-12
14035,45,-92,224,65,14,-11
14040,45,-90,227,66,14,-11
14045,43,-89,225,68,13,-13
14050,45,-91,227,68,14,-11
14055,43,-93,225,68,14,-10
14060,46,-89,220,67,14,-8
14065,43,-91,227,67,13,-11
14070,45,-92,227,68,13,-13
14075,45,-93,229,67,13,-12
14080,42,-88,226,67,13,-14
14085,46,-90,225,64,14,-13
14090,43,-91,230,63,14,-13
14095,47,-92,226,60,14,-13
14100,44,-89,226,57,16,-11
14105,42,-90,228,55,17,-10
14110,45,-88,229,51,17,-12
14115,42,-88,226,51,16,-12
14120,46,-89,226,49,18,-11
14125,45,-92,224,48,16,-10
14130,42,-93,227,50,16,-10
14135,44,-91,233,51,15,-11
14140,41,-91,228,53,13,-11
14145,45,-93,227,57,13,-11
14150,44,-92,229,59,11,-11
14155,44,-90,231,64,9,-10
14160,46,-91,227,67,8,-11
14165,43,-92,227,70,8,-12
14170,41,-91,231,73,9,-13
14175,44,-94,222,76,8,-13
14180,44,-94,227,78,8,-13
14185,46,-95,229,79,8,-12
14190,43,-91,228,82,10,-12
14195,44,-90,227,80,10,-12
14200,43,-93,226,78,12,-11
14205,42,-89,227,75,10,-11
14210,44,-88,225,71,13,-12
14215,45,-89,227,66,11,-11
14220,45,-87,228,61,11,-11
14225,44,-90,228,58,10,-10
14230,47,-91,232,53,10,-9
14235,43,-89,229,50,10,-9
14240,42,-91,232,49,9,-11
14245,44,-89,228,49,9,-11
14250,41,-90,226,48,9,-10
14255,46,-89,228,48,8,-9
14260,42,-90,226,49,9,-10
14265,45,-91,229,51,9,-11
14270,45,-91,228,50,10,-12
14275,47,-88,225,51,11,-11
14280,41,-88,228,51,11,-13
14285,46,-91,224,51,11,-14
14290,44,-91,227,48,12,-13
14295,55,-88,220,49,12,-12
14300,43,-88,225,47,13,-13
14305,44,-91,228,47,13,-12
14310,44,-87,222,47,12,-12
14315,40,-89,226,47,13,-12
14320,44,-90,226,48,14,-12
14325,46,-90,223,49,15,-11
14330,46,-92,224,51,14,-12
14335,45,-90,224,52,16,-10
14340,44,-90,227,53,16,-10
14345,46,-89,224,53,16,-10
14350,39,-87,221,53,16,-11
14355,47,-92,227,55,16,-10
14360,45,-89,228,56,15,-11
14365,44,-92,225,57,12,-11
14370,44,-91,226,58,12,-10
14375,44,-94,226,59,11,-10
14380,42,-91,227,61,10,-11
14385,43,-91,228,61,9,-11
14390,44,-89,229,63,9,-11
14395,44,-89,228,63,8,-12
14400,40,-92,226,64,7,-12
14405,40,-94,227,65,7,-12
14410,44,-90,227,65,8,-14
14415,44,-91,223,66,8,-13
14420,46,-92,229,66,8,-12
14425,44,-91,226,66,8,-12
14430,42,-89,224,65,8,-12
14435,43,-91,228,64,8,-12
14440,46,-92,223,61,7,-13
14445,44,-91,226,60,9,-14
14450,45,-90,223,58,9,-14
14455,45,-94,226,55,9,-12
14460,46,-93,224,55,10,-11
14465,44,-92,227,52,11,-11
14470,45,-91,224,53,12,-12
14475,44,-89,228,53,13,-11
14480,45,-93,227,54,13,-12
14485,46,-91,228,55,13,-12
14490,46,-91,229,54,12,-12
14495,46,-91,223,57,10,-11
14500,42,-89,227,60,10,-11
14505,42,-90,229,63,12,-12
14510,46,-91,229,65,11,-11
14515,48,-93,223,67,11,-11
14520,45,-94,228,68,11,-11
14525,45,-89,224,69,11,-11
14530,43,-88,226,71,11,-11
14535,44,-87,227,70,10,-13
14540,44,-91,229,69,10,-11
14545,42,-86,228,69,8,-12
14550,42,-89,230,69,7,-11
14555,44,-86,226,67,6,-11
14560,43,-90,224,64,6,-11
14565,41,-85,228,61,6,-13
14570,47,-90,230,56,6,-14
14575,42,-90,227,53,9,-14
14580,46,-89,225,52,11,-13
14585,44,-90,227,49,13,-12
14590,43,-91,227,47,14,-11
14595,43,-89,230,47,14,-11
14600,46,-89,226,47,15,-12
14605,46,-91,228,47,15,-14
14610,45,-89,224,49,16,-13
14615,45,-92,228,49,16,-11
14620,45,-90,226,51,16,-12
14625,43,-89,225,49,16,-14
14630,44,-89,226,49,18,-14
14635,42,-86,228,48,17,-12
14640,43,-91,228,48,16,-12
14645,46,-89,227,46,14,-12
14650,45,-92,225,48,14,-11
14655,42,-89,224,48,12,-11
14660,45,-88,227,49,10,-10
14665,44,-89,230,47,8,-10
14670,45,-90,228,45,5,-12
14675,43,-95,236,44,2,-12
14680,45,-88,230,42,0,-11
14685,43,-90,231,40,-1,-13
14690,45,-90,226,37,-1,-13
14695,45,-92,230,37,-2,-12
14700,47,-95,223,37,-1,-11
14705,42,-91,229,41,2,-11
14710,47,-93,226,47,4,-9
14715,43,-96,222,58,5,-11
14720,46,-95,225,68,8,-10
14725,45,-90,224,80,7,-8
14730,37,-94,227,92,6,-9
14735,42,-96,227,104,5,-10
14740,43,-90,227,114,4,-8
14745,44,-93,228,122,1,-10
14750,45,-92,226,127,-1,-12
14755,46,-90,224,131,-2,-13
14760,44,-89,225,131,-6,-14
14765,48,-90,228,129,-6,-15
14770,44,-86,224,121,-6,-16
14775,43,-82,227,114,-5,-16
14780,45,-82,224,103,-2,-13
14785,38,-84,229,90,1,-13
14790,46,-84,227,77,2,-13
14795,44,-84,225,66,4,-12
14800,44,-85,228,54,8,-11
14805,45,-86,225,44,9,-10
14810,47,-88,229,34,11,-9
14815,46,-88,227,24,13,-7
14820,41,-87,226,17,14,-6
14825,45,-87,224,11,16,-7
14830,43,-86,230,10,16,-7
14835,45,-88,232,8,16,-4
14840,44,-90,231,10,16,-5
14845,43,-92,232,14,15,-6
14850,43,-90,225,19,15,-6
14855,44,-89,228,24,15,-7
14860,44,-93,227,30,14,-7
14865,45,-92,226,38,13,-8
14870,44,-87,224,42,13,-8
14875,45,-92,229,46,12,-10
14880,47,-91,229,49,12,-10
14885,42,-87,224,53,11,-10
14890,47,-93,232,54,13,-10
14895,48,-90,227,57,12,-11
14900,46,-88,225,58,13,-9
14905,47,-88,225,58,14,-10
14910,43,-87,223,57,14,-11
14915,46,-87,226,59,14,-10
14920,45,-90,227,59,15,-10
14925,45,-87,228,60,16,-10
14930,48,-91,230,59,17,-9
14935,42,-87,225,60,18,-6
14940,42,-90,225,60,19,-8
14945,49,-86,225,59,19,-5
14950,47,-91,220,59,20,-7
14955,41,-88,227,60,19,-5
14960,46,-91,228,60,21,-5
14965,46,-91,228,59,21,-4
14970,43,-88,226,60,20,-5
14975,47,-91,225,60,19,-4
14980,42,-88,230,59,18,-6
14985,47,-88,227,58,18,-5
14990,47,-86,227,56,19,-6
14995,43,-89,226,54,17,-6
