timestamp,acc_x,acc_y,acc_z,gyro_x,gyro_y,gyro_z
0,-12,-253,26,23,81,-17
5,-12,-255,26,22,84,-19
10,-11,-256,24,23,85,-22
15,-10,-259,24,26,90,-22
20,-11,-257,25,28,94,-22
25,-15,-258,22,34,97,-20
30,-12,-256,23,41,99,-17
35,-12,-256,23,49,103,-14
40,-12,-258,25,51,106,-15
45,-11,-255,25,52,110,-16
50,-8,-253,26,49,112,-18
55,-10,-254,27,44,117,-20
60,-9,-252,24,35,120,-24
65,-13,-250,26,27,125,-28
70,-10,-252,25,17,130,-31
75,-11,-248,29,9,135,-34
80,-10,-251,24,5,141,-35
85,-13,-254,23,3,149,-36
90,-13,-252,23,6,155,-36
95,-11,-253,23,8,160,-37
100,-12,-251,25,9,163,-36
105,-17,-249,28,6,167,-37
110,-13,-252,26,4,168,-37
115,-12,-253,27,-2,170,-36
120,-14,-253,26,-8,172,-34
125,-12,-254,26,-8,174,-33
130,-10,-252,23,-8,176,-34
135,-10,-253,25,-4,176,-36
140,-11,-254,23,0,176,-37
145,-9,-255,25,3,174,-37
150,-9,-251,25,9,173,-41
155,-11,-254,23,12,171,-43
160,-10,-254,27,16,168,-45
165,-8,-252,19,19,166,-47
170,-12,-251,22,19,167,-48
175,-13,-252,23,20,168,-47
180,-11,-252,18,17,169,-47
185,-9,-251,18,12,172,-46
190,-11,-253,28,7,173,-44
195,-10,-253,28,5,176,-43
200,-11,-253,25,6,180,-39
205,-9,-252,29,7,181,-38
210,-13,-252,28,9,183,-37
215,-10,-254,26,13,184,-35
220,-8,-249,30,16,187,-34
225,-8,-252,27,15,187,-35
230,-9,-253,28,13,191,-35
235,-9,-254,27,10,195,-35
240,-9,-253,22,8,199,-36
245,-8,-253,20,4,202,-36
250,-10,-256,23,0,205,-35
255,-10,-256,23,-2,211,-34
260,-9,-253,25,-2,215,-33
265,-9,-256,24,-1,222,-31
270,-11,-256,25,0,227,-32
275,-9,-258,27,2,229,-29
280,-13,-253,27,5,232,-30
285,-11,-254,29,10,233,-30
290,-14,-252,29,15,232,-33
295,-8,-250,32,19,229,-33
300,-10,-256,31,24,227,-31
305,-9,-255,31,29,224,-30
310,-9,-255,29,32,226,-31
315,-12,-253,27,34,229,-30
320,-12,-257,25,36,233,-28
325,-12,-255,26,35,236,-26
330,-10,-254,23,35,237,-23
335,-12,-258,25,33,235,-22
340,-13,-251,27,33,233,-22
345,-14,-254,27,32,230,-21
350,-12,-253,28,31,224,-20
355,-12,-252,27,30,218,-20
360,-14,-252,25,29,213,-20
365,-11,-252,28,27,211,-21
370,-12,-251,28,23,208,-25
375,-12,-252,27,20,206,-26
380,-9,-254,32,17,205,-26
385,-13,-252,25,14,205,-26
390,-10,-252,28,11,205,-28
395,-12,-252,26,8,205,-29
400,-10,-254,27,8,203,-30
405,-11,-247,30,8,202,-30
410,-14,-252,30,9,201,-28
415,-12,-251,28,10,197,-26
420,-11,-253,32,11,192,-24
425,-14,-251,31,10,189,-21
430,-14,-254,27,11,188,-17
435,-12,-254,29,11,186,-15
440,-14,-252,30,13,184,-11
445,-12,-256,32,15,181,-9
450,-11,-253,28,18,178,-8
455,-15,-253,28,21,177,-7
460,-14,-256,31,23,173,-8
465,-14,-253,27,26,169,-5
470,-12,-250,30,29,166,-5
475,-14,-254,32,31,163,-3
480,-11,-252,31,33,161,-2
485,-12,-253,34,36,159,-1
490,-11,-255,33,39,161,0
495,-13,-250,31,41,161,-1
500,-11,-250,32,38,161,0
505,-12,-252,33,37,159,0
510,-17,-251,31,34,158,1
515,-12,-249,30,32,155,3
520,-12,-253,32,29,154,3
525,-11,-252,34,27,151,3
530,-12,-251,33,25,148,2
535,-12,-252,34,20,145,3
540,-10,-253,34,18,144,3
545,-10,-254,31,18,142,4
550,-12,-251,30,17,144,5
555,-10,-255,30,14,143,6
560,-14,-252,31,12,143,7
565,-11,-254,29,10,145,8
570,-12,-254,31,8,146,8
575,-12,-257,32,6,146,10
580,-8,-254,29,2,147,10
585,-8,-254,30,3,148,8
590,-10,-252,31,3,151,10
595,-9,-250,29,3,155,11
600,-10,-255,31,2,158,10
605,-11,-256,32,-3,160,8
610,-10,-258,32,-7,160,6
615,-7,-258,35,-9,162,5
620,-6,-255,37,-8,163,2
625,-6,-256,30,-4,165,1
630,-6,-258,32,0,170,-1
635,-8,-259,31,6,175,-3
640,-8,-258,29,9,182,-6
645,-10,-255,32,13,186,-5
650,-5,-258,31,16,190,-3
655,-5,-261,33,17,190,-1
660,-3,-260,30,19,190,1
665,0,-258,33,19,192,2
670,-2,-255,32,16,191,1
675,0,-254,31,12,193,0
680,0,-253,37,7,196,-3
685,-3,-253,33,4,202,-5
690,0,-250,29,4,212,-8
695,-2,-249,35,6,224,-11
700,1,-248,38,10,234,-15
705,0,-247,31,10,245,-17
710,1,-249,31,8,255,-22
715,3,-251,34,1,268,-26
720,2,-252,33,-8,276,-28
725,0,-252,28,-20,285,-32
730,0,-255,33,-30,291,-35
735,0,-259,32,-41,298,-39
740,0,-259,33,-49,305,-44
745,0,-259,36,-51,310,-47
750,0,-259,34,-50,319,-48
755,-7,-256,34,-46,324,-48
760,-7,-253,35,-39,326,-42
765,-6,-253,36,-31,324,-34
770,-7,-251,35,-20,319,-27
775,-9,-249,30,-8,313,-19
780,-10,-246,35,2,304,-11
785,-11,-248,35,12,296,-6
790,-12,-246,33,24,288,-2
795,-13,-251,36,36,279,-1
800,-14,-246,38,47,272,1
805,-9,-247,35,53,265,1
810,-11,-248,35,56,257,4
815,-13,-247,30,52,254,5
820,-10,-248,32,47,251,11
825,-9,-247,27,41,250,18
830,-10,-249,28,36,251,24
835,-10,-243,28,28,249,30
840,-6,-247,25,20,248,37
845,-13,-241,18,12,247,47
850,-16,-243,21,3,242,52
855,-19,-243,18,-9,230,57
860,-20,-239,15,-22,212,62
865,-22,-236,22,-36,194,65
870,-28,-231,17,-48,174,64
875,-28,-229,15,-59,149,63
880,-27,-228,15,-71,123,61
885,-30,-223,13,-82,97,56
890,-31,-221,13,-93,70,48
895,-32,-225,16,-104,45,39
900,-33,-223,20,-107,16,29
905,-34,-227,20,-104,-15,19
910,-38,-224,25,-94,-51,8
915,-38,-226,25,-85,-88,-1
920,-37,-231,28,-75,-128,-4
925,-41,-232,32,-71,-166,-6
930,-47,-231,32,-69,-206,1
935,-45,-236,34,-68,-253,18
940,-43,-242,37,-64,-308,46
945,-43,-244,35,-62,-357,69
950,-39,-243,43,-63,-392,81
955,-35,-246,47,-66,-404,89
960,-41,-245,45,-72,-390,104
965,-42,-246,54,-73,-363,132
970,-28,-246,56,-65,-320,150
975,-22,-246,61,-74,-247,127
980,-17,-248,61,-100,-150,91
985,-22,-250,74,-138,-51,56
990,-25,-260,73,-170,29,36
995,-23,-266,72,-196,82,22
1000,-23,-272,68,-219,108,13
1005,-17,-281,70,-237,116,6
1010,-21,-285,70,-250,112,1
1015,-21,-292,71,-254,104,-3
1020,-19,-294,71,-239,98,3
1025,-23,-293,70,-213,102,10
1030,-28,-290,71,-188,118,17
1035,-27,-286,69,-166,142,25
1040,-27,-277,71,-149,168,32
1045,-28,-272,68,-141,195,39
1050,-28,-266,72,-145,218,46
1055,-24,-259,68,-156,236,51
1060,-37,-253,65,-175,247,56
1065,-39,-250,59,-201,248,64
1070,-43,-252,54,-235,240,73
1075,-45,-254,54,-269,225,84
1080,-50,-255,49,-300,205,101
1085,-59,-257,47,-323,180,119
1090,-62,-259,47,-335,154,142
1095,-63,-259,45,-332,123,166
1100,-65,-258,43,-318,90,190
1105,-64,-256,44,-294,56,215
1110,-63,-254,42,-267,23,240
1115,-60,-250,44,-239,-6,259
1120,-57,-244,42,-216,-30,277
1125,-52,-240,45,-199,-52,289
1130,-49,-235,43,-189,-67,294
1135,-48,-226,46,-182,-78,294
1140,-45,-224,46,-178,-78,292
1145,-43,-223,45,-178,-72,284
1150,-41,-220,46,-179,-62,275
1155,-39,-222,46,-179,-50,264
1160,-41,-216,48,-179,-36,251
1165,-43,-220,50,-176,-27,238
1170,-40,-219,43,-173,-16,224
1175,-39,-222,47,-168,-9,210
1180,-37,-222,49,-161,-2,195
1185,-39,-225,47,-153,4,177
1190,-38,-223,52,-145,7,159
1195,-39,-221,50,-140,15,139
1200,-42,-226,51,-137,17,122
1205,-39,-226,46,-140,21,106
1210,-42,-226,54,-144,31,86
1215,-43,-229,50,-150,44,63
1220,-47,-229,56,-155,57,47
1225,-49,-231,58,-156,72,32
1230,-48,-231,58,-158,84,19
1235,-52,-234,57,-159,95,8
1240,-52,-237,59,-159,102,-3
1245,-56,-238,53,-155,98,-11
1250,-54,-239,53,-149,89,-18
1255,-54,-242,54,-145,82,-31
1260,-55,-244,55,-142,76,-44
1265,-53,-243,56,-140,70,-53
1270,-54,-241,57,-138,67,-59
1275,-51,-247,60,-130,65,-64
1280,-51,-249,62,-120,63,-68
1285,-51,-248,67,-108,61,-71
1290,-49,-248,65,-101,56,-72
1295,-49,-248,63,-95,46,-74
1300,-45,-247,62,-92,35,-77
1305,-45,-247,63,-89,20,-79
1310,-44,-246,59,-82,3,-88
1315,-44,-246,57,-71,-12,-98
1320,-40,-246,56,-53,-26,-109
1325,-38,-243,57,-33,-38,-116
1330,-38,-237,56,-14,-47,-122
1335,-42,-239,55,3,-53,-128
1340,-42,-239,52,14,-57,-131
1345,-46,-241,52,19,-60,-133
1350,-50,-240,49,21,-61,-134
1355,-55,-241,48,18,-65,-132
1360,-63,-244,49,14,-72,-130
1365,-62,-248,48,7,-81,-125
1370,-67,-248,47,-4,-95,-119
1375,-65,-250,46,-20,-109,-111
1380,-62,-249,49,-46,-122,-102
1385,-62,-255,47,-82,-131,-91
1390,-61,-259,52,-126,-135,-80
1395,-60,-267,47,-163,-135,-67
1400,-55,-276,46,-214,-127,-52
1405,-52,-285,43,-266,-116,-39
1410,-48,-296,41,-310,-101,-28
1415,-46,-301,42,-343,-83,-17
1420,-40,-318,42,-363,-65,-7
1425,-39,-326,33,-357,-48,2
1430,-33,-337,31,-318,-35,9
1435,-35,-339,28,-260,-23,18
1440,-30,-345,27,-190,-23,27
1445,-25,-346,28,-116,-31,30
1450,-22,-342,27,-45,-45,30
1455,-21,-341,25,14,-63,29
1460,-20,-335,21,51,-78,26
1465,-20,-332,17,66,-88,23
1470,-21,-333,15,63,-91,19
1475,-30,-329,10,47,-82,18
1480,-34,-330,2,24,-67,22
1485,-40,-328,1,-3,-48,31
1490,-46,-323,-7,-30,-31,39
1495,-50,-321,-10,-58,-17,48
1500,-52,-319,-11,-88,-8,61
1505,-48,-314,-8,-116,0,70
1510,-43,-313,-11,-143,7,74
1515,-38,-304,-13,-172,13,73
1520,-29,-302,-13,-205,25,70
1525,-17,-294,-19,-239,39,60
1530,-6,-285,-20,-272,57,48
1535,1,-279,-22,-299,80,29
1540,14,-267,-31,-318,110,5
1545,29,-256,-37,-329,149,-17
1550,39,-245,-44,-334,193,-36
1555,50,-235,-52,-339,246,-57
1560,60,-223,-56,-346,301,-76
1565,65,-215,-56,-354,361,-95
1570,69,-207,-57,-360,424,-107
1575,74,-202,-58,-364,485,-114
1580,71,-201,-54,-365,550,-114
1585,68,-195,-47,-364,619,-110
1590,63,-195,-48,-361,685,-102
1595,46,-201,-31,-351,743,-94
1600,41,-207,-34,-338,788,-84
1605,21,-210,-32,-320,810,-82
1610,3,-221,-21,-306,813,-77
1615,-17,-229,-12,-295,784,-80
1620,-26,-235,-10,-285,727,-87
1625,-41,-243,-1,-276,651,-94
1630,-53,-252,2,-269,568,-101
1635,-62,-258,4,-255,481,-108
1640,-64,-262,4,-230,401,-115
1645,-66,-267,1,-199,341,-118
1650,-65,-270,0,-169,300,-117
1655,-60,-274,-2,-149,278,-119
1660,-51,-270,-7,-134,265,-126
1665,-39,-274,-11,-124,260,-131
1670,-29,-268,-5,-114,259,-135
1675,-13,-262,-15,-99,262,-138
1680,0,-259,-12,-80,269,-138
1685,15,-253,-12,-56,280,-138
1690,24,-249,-13,-31,293,-141
1695,33,-242,-12,-11,303,-151
1700,42,-235,-17,0,311,-160
1705,42,-232,-16,-2,319,-173
1710,48,-228,-15,-5,327,-178
1715,44,-223,-13,-12,343,-177
1720,39,-225,-11,-22,358,-177
1725,33,-230,-5,-40,376,-180
1730,26,-232,-3,-55,397,-185
1735,16,-241,-4,-67,419,-189
1740,7,-247,2,-74,440,-192
1745,0,-249,-1,-77,455,-194
1750,-7,-252,4,-75,468,-189
1755,-16,-257,9,-72,475,-183
1760,-24,-255,4,-67,472,-174
1765,-22,-258,4,-61,464,-159
1770,-28,-258,6,-53,448,-150
1775,-32,-251,4,-44,423,-139
1780,-31,-252,6,-33,392,-126
1785,-24,-251,3,-24,366,-122
1790,-26,-243,5,-15,343,-139
1795,-23,-240,9,-4,319,-149
1800,-18,-237,12,7,296,-157
1805,-16,-231,11,17,277,-171
1810,-13,-233,5,23,253,-170
1815,-1,-224,8,20,224,-170
1820,2,-226,12,13,201,-169
1825,8,-222,14,5,190,-171
1830,11,-219,14,-6,186,-176
1835,15,-223,17,-20,185,-187
1840,15,-225,16,-28,188,-191
1845,17,-228,17,-28,195,-194
1850,14,-227,20,-26,201,-196
1855,15,-230,17,-17,207,-191
1860,15,-232,18,-8,215,-182
1865,10,-230,18,3,219,-176
1870,7,-231,19,15,220,-174
1875,10,-231,20,27,217,-167
1880,7,-230,23,39,209,-163
1885,7,-230,24,53,197,-157
1890,4,-232,30,63,181,-150
1895,1,-233,29,68,163,-144
1900,2,-231,36,67,142,-135
1905,0,-231,38,58,121,-127
1910,-1,-233,39,42,104,-117
1915,-6,-234,37,21,88,-107
1920,-9,-240,33,0,74,-94
1925,-14,-236,41,-19,62,-78
1930,-15,-238,40,-35,50,-57
1935,-13,-239,38,-42,42,-40
1940,-15,-244,36,-45,39,-20
1945,-14,-246,26,-47,34,5
1950,-12,-245,24,-50,31,31
1955,-6,-248,19,-59,24,48
1960,0,-252,14,-74,18,65
1965,2,-248,16,-84,8,78
1970,7,-253,12,-87,3,91
1975,8,-254,13,-81,0,99
1980,7,-252,16,-64,3,108
1985,12,-260,19,-38,13,112
1990,11,-255,24,-10,23,115
1995,8,-255,27,20,36,117
2000,9,-257,34,48,46,123
2005,10,-261,34,73,51,126
2010,9,-261,38,92,45,119
2015,5,-263,38,104,33,106
2020,8,-270,40,108,15,88
2025,7,-275,42,100,-2,65
2030,7,-279,40,82,-16,39
2035,3,-291,43,64,-27,12
2040,2,-299,42,45,-31,-11
2045,2,-311,41,28,-25,-32
2050,0,-325,42,9,-16,-51
2055,-2,-338,38,-12,-5,-73
2060,-7,-351,36,-38,0,-91
2065,-11,-363,31,-57,-2,-93
2070,-15,-370,31,-67,-15,-83
2075,-19,-376,25,-64,-42,-81
2080,-31,-378,18,-35,-74,-73
2085,-37,-376,9,31,-106,-53
2090,-38,-360,1,124,-130,-13
2095,-36,-344,-5,223,-156,41
2100,-32,-318,-10,311,-191,101
2105,-23,-291,-15,376,-239,163
2110,-18,-269,-17,411,-294,217
2115,-9,-251,-22,414,-344,254
2120,-5,-239,-25,389,-375,277
2125,1,-235,-30,333,-391,291
2130,2,-231,-33,256,-390,287
2135,9,-237,-41,168,-378,273
2140,1,-232,-41,83,-364,246
2145,1,-234,-40,20,-357,212
2150,0,-239,-49,-13,-364,172
2155,-13,-235,-46,-13,-385,133
2160,-17,-240,-51,14,-415,97
2165,-33,-236,-52,58,-453,64
2170,-51,-230,-57,102,-494,36
2175,-62,-228,-64,137,-534,18
2180,-72,-224,-62,151,-572,1
2185,-88,-226,-62,144,-599,-10
2190,-92,-233,-58,114,-615,-17
2195,-91,-243,-51,77,-619,-21
2200,-89,-246,-41,34,-618,-24
2205,-85,-250,-31,-9,-617,-15
2210,-77,-256,-21,-37,-604,2
2215,-64,-263,-16,-52,-581,20
2220,-55,-263,-6,-58,-548,39
2225,-39,-269,0,-54,-508,52
2230,-29,-273,2,-45,-466,63
2235,-17,-279,2,-42,-428,73
2240,-6,-287,1,-47,-393,84
2245,-3,-295,-8,-57,-364,95
2250,3,-305,-2,-68,-338,112
2255,7,-312,-6,-71,-329,129
2260,3,-313,-12,-59,-332,147
2265,2,-315,-9,-33,-347,167
2270,-1,-312,-11,2,-369,191
2275,-12,-306,-17,43,-394,220
2280,-19,-303,-11,87,-414,244
2285,-27,-293,-10,127,-433,270
2290,-34,-278,-14,166,-443,288
2295,-43,-266,-12,196,-443,290
2300,-46,-256,-11,212,-435,283
2305,-48,-247,-8,217,-419,277
2310,-50,-241,-6,205,-401,260
2315,-47,-240,-2,182,-380,248
2320,-47,-233,-3,151,-362,238
2325,-43,-231,2,123,-347,232
2330,-37,-230,1,95,-344,225
2335,-31,-234,1,78,-345,223
2340,-27,-231,3,74,-345,230
2345,-22,-234,3,73,-346,241
2350,-19,-236,5,67,-342,247
2355,-15,-227,1,58,-338,257
2360,-11,-224,1,48,-321,263
2365,-10,-224,-2,30,-292,264
2370,-5,-222,3,15,-249,266
2375,-12,-216,4,6,-195,266
2380,-12,-216,8,2,-141,259
2385,-10,-214,13,2,-88,249
2390,-11,-209,17,6,-39,233
2395,-12,-205,21,10,4,216
2400,-8,-205,21,17,40,200
2405,-12,-201,23,28,74,182
2410,-12,-198,24,49,104,163
2415,-10,-199,27,66,131,137
2420,-15,-193,26,79,155,104
2425,-15,-192,28,90,179,74
2430,-18,-192,29,105,209,48
2435,-20,-188,29,113,237,20
2440,-24,-186,31,109,261,-7
2445,-31,-182,36,105,285,-34
2450,-32,-184,39,99,302,-61
2455,-34,-184,38,94,313,-91
2460,-34,-184,39,88,317,-120
2465,-38,-183,45,87,313,-148
2470,-35,-184,46,92,305,-173
2475,-38,-183,47,100,295,-198
2480,-39,-183,50,114,286,-221
2485,-37,-187,52,127,274,-246
2490,-37,-187,51,140,266,-267
2495,-34,-190,51,153,260,-286
2500,-33,-192,53,167,259,-303
2505,-29,-194,53,174,264,-318
2510,-25,-200,56,179,268,-331
2515,-25,-200,48,182,276,-342
2520,-18,-202,53,184,279,-349
2525,-18,-208,50,185,278,-353
2530,-15,-206,46,185,268,-360
2535,-18,-210,42,187,249,-369
2540,-21,-209,42,188,224,-379
2545,-22,-207,38,192,197,-383
2550,-22,-207,36,197,174,-378
2555,-26,-208,29,198,155,-367
2560,-28,-210,25,190,147,-347
2565,-30,-218,32,169,147,-321
2570,-36,-226,39,129,157,-289
2575,-30,-243,46,89,185,-248
2580,-35,-254,55,61,229,-207
2585,-32,-272,74,50,292,-165
2590,-30,-291,85,60,366,-132
2595,-25,-312,96,91,447,-109
2600,-18,-331,107,144,528,-105
2605,-16,-348,109,210,605,-114
2610,-16,-363,109,283,677,-136
2615,-14,-380,102,354,739,-164
2620,-19,-391,82,415,782,-189
2625,-19,-405,55,439,791,-209
2630,-35,-413,17,416,774,-222
2635,-44,-418,-17,331,734,-211
2640,-48,-428,-55,147,659,-161
2645,-69,-448,-83,-84,568,-84
2650,-80,-468,-86,-295,466,23
2655,-82,-493,-82,-432,348,154
2660,-86,-507,-64,-409,240,286
2665,-77,-510,-48,-250,132,415
2670,-56,-502,-38,-31,43,535
2675,-36,-459,-49,196,-2,635
2680,-20,-422,-44,379,-1,712
2685,4,-368,-62,501,50,758
2690,22,-314,-73,560,141,764
2695,43,-271,-82,566,253,739
2700,63,-236,-85,538,361,682
2705,86,-204,-93,490,453,604
2710,111,-182,-101,432,533,509
2715,126,-160,-102,374,614,390
2720,133,-150,-104,316,699,251
2725,140,-148,-92,260,801,106
2730,131,-153,-91,176,914,-32
2735,110,-168,-65,70,1047,-142
2740,78,-191,-51,-52,1198,-216
2745,47,-209,-26,-186,1346,-248
2750,9,-232,-5,-318,1468,-240
2755,-28,-254,16,-432,1539,-209
2760,-61,-282,39,-505,1544,-172
2765,-95,-304,53,-504,1472,-139
2770,-120,-315,54,-437,1331,-121
2775,-135,-333,52,-325,1155,-120
2780,-143,-337,41,-199,975,-142
2785,-145,-332,37,-79,816,-183
2790,-153,-330,19,29,683,-231
2795,-147,-329,8,122,569,-275
2800,-135,-320,0,195,474,-313
2805,-125,-304,-11,251,393,-341
2810,-102,-293,-12,289,325,-359
2815,-71,-277,-12,309,264,-364
2820,-46,-257,-12,318,203,-359
2825,-22,-246,-7,327,144,-346
2830,0,-227,-6,332,97,-327
2835,10,-210,1,330,66,-306
2840,16,-199,5,330,49,-283
2845,28,-184,14,332,40,-259
2850,34,-176,16,328,38,-240
2855,39,-173,22,308,50,-227
2860,37,-170,26,276,72,-225
2865,34,-172,25,235,107,-234
2870,30,-181,28,192,145,-247
2875,26,-185,24,151,184,-268
2880,19,-192,27,114,221,-295
2885,11,-202,32,85,250,-318
2890,0,-214,32,59,271,-338
2895,-4,-219,29,30,281,-355
2900,-13,-222,27,-2,280,-365
2905,-15,-223,25,-39,267,-362
2910,-22,-229,25,-84,249,-356
2915,-23,-226,25,-131,229,-348
2920,-25,-219,25,-176,208,-337
2925,-26,-222,23,-214,192,-325
2930,-28,-224,26,-242,179,-311
2935,-31,-218,27,-256,166,-297
2940,-30,-218,33,-255,153,-281
2945,-28,-216,30,-245,131,-260
2950,-25,-217,32,-228,99,-238
2955,-23,-216,32,-207,58,-222
2960,-19,-217,31,-187,10,-207
2965,-14,-212,27,-169,-39,-196
2970,-8,-211,33,-155,-86,-183
2975,-3,-209,27,-152,-125,-166
2980,1,-210,26,-152,-153,-145
2985,2,-213,29,-157,-172,-124
2990,9,-211,28,-160,-181,-102
2995,9,-211,31,-163,-183,-79
3000,2,-217,36,-165,-185,-56
3005,16,-218,35,-166,-187,-31
3010,14,-224,37,-164,-191,-5
3015,10,-225,40,-159,-197,18
3020,9,-228,43,-155,-207,38
3025,14,-237,46,-150,-216,55
3030,9,-238,50,-141,-222,71
3035,6,-237,52,-127,-222,83
3040,6,-239,52,-106,-218,94
3045,4,-241,56,-82,-211,103
3050,1,-239,58,-61,-207,110
3055,-4,-237,59,-43,-206,118
3060,-11,-237,60,-24,-202,127
3065,-11,-239,57,1,-196,141
3070,-15,-235,59,29,-188,154
3075,-23,-234,58,57,-181,169
3080,-22,-237,55,81,-176,185
3085,-23,-232,52,95,-178,205
3090,-22,-229,47,103,-174,228
3095,-21,-227,46,111,-169,249
3100,-16,-222,44,112,-158,273
3105,-12,-220,41,108,-144,296
3110,-3,-216,29,97,-125,317
3115,0,-216,34,81,-98,333
3120,2,-206,27,58,-68,338
3125,10,-205,24,23,-34,337
3130,14,-205,26,-25,0,325
3135,20,-212,32,-80,27,300
3140,19,-214,36,-136,47,263
3145,15,-222,44,-182,51,218
3150,19,-235,60,-212,37,167
3155,11,-244,72,-225,11,121
3160,2,-252,82,-225,-31,74
3165,-6,-264,93,-211,-81,39
3170,-19,-272,105,-179,-132,20
3175,-30,-279,109,-128,-181,24
3180,-46,-284,114,-64,-230,47
3185,-55,-291,120,17,-269,97
3190,-65,-287,119,107,-303,162
3195,-75,-285,121,191,-333,226
3200,-87,-284,118,256,-361,289
3205,-90,-285,107,297,-389,349
3210,-93,-292,98,307,-417,399
3215,-94,-302,85,281,-444,434
3220,-78,-313,68,221,-469,452
3225,-72,-324,47,127,-481,453
3230,-53,-338,24,0,-473,429
3235,-32,-359,-11,-163,-442,375
3240,-7,-373,-24,-344,-387,288
3245,26,-399,-49,-542,-326,170
3250,53,-422,-61,-729,-272,26
3255,82,-440,-90,-884,-226,-141
3260,119,-450,-107,-1011,-167,-337
3265,136,-458,-115,-1088,-74,-536
3270,139,-450,-120,-1088,31,-689
3275,134,-433,-128,-1010,124,-777
3280,123,-407,-130,-874,170,-836
3285,101,-371,-134,-686,194,-847
3290,75,-330,-137,-470,212,-820
3295,51,-290,-140,-262,229,-772
3300,20,-246,-137,-91,252,-716
3305,-12,-217,-133,34,281,-638
3310,-41,-189,-125,110,307,-541
3315,-75,-179,-112,139,328,-424
3320,-97,-178,-100,141,329,-308
3325,-112,-175,-87,136,312,-214
3330,-127,-184,-64,122,273,-139
3335,-125,-196,-41,105,201,-79
3340,-122,-208,-22,78,102,-34
3345,-112,-219,-7,41,-15,-8
3350,-97,-230,5,-2,-141,11
3355,-78,-246,10,-54,-256,31
3360,-60,-258,16,-111,-346,51
3365,-39,-271,13,-165,-404,79
3370,-17,-287,18,-211,-431,111
3375,5,-297,14,-245,-442,149
3380,28,-308,11,-255,-432,182
3385,44,-309,10,-238,-397,209
3390,66,-309,2,-206,-347,233
3395,84,-305,-7,-166,-276,250
3400,92,-297,-15,-123,-184,260
3405,101,-287,-19,-90,-89,270
3410,108,-276,-21,-70,11,264
3415,99,-262,-23,-58,117,236
3420,91,-249,-24,-49,220,215
3425,82,-246,-33,-34,308,207
3430,71,-232,-32,-17,378,193
3435,49,-216,-30,-1,434,168
3440,30,-213,-36,17,475,148
3445,9,-205,-34,31,499,137
3450,-3,-201,-36,40,519,140
3455,-23,-200,-28,38,530,150
3460,-30,-203,-27,32,539,174
3465,-49,-205,-20,18,542,191
3470,-60,-210,-18,-6,538,203
3475,-64,-218,-13,-26,530,222
3480,-73,-226,-6,-47,517,243
3485,-72,-231,-3,-71,498,267
3490,-72,-240,0,-101,475,279
3495,-72,-246,8,-129,450,291
3500,-64,-253,11,-154,427,301
3505,-58,-254,15,-176,406,303
3510,-52,-255,17,-195,393,293
3515,-46,-256,17,-206,381,278
3520,-37,-257,13,-209,378,261
3525,-28,-250,11,-204,379,235
3530,-21,-248,13,-192,379,208
3535,-17,-241,14,-174,380,187
3540,-12,-227,5,-152,377,166
3545,-8,-230,10,-126,370,146
3550,-7,-225,4,-103,361,123
3555,-4,-221,4,-85,352,103
3560,-4,-216,5,-69,344,79
3565,-6,-214,6,-59,342,57
3570,-10,-211,5,-50,347,32
3575,-17,-207,7,-46,355,15
3580,-23,-209,8,-45,364,-5
3585,-28,-212,13,-45,372,-25
3590,-27,-212,14,-44,379,-34
3595,-31,-212,21,-41,388,-50
3600,-36,-217,26,-36,396,-70
3605,-35,-224,31,-32,397,-91
3610,-35,-229,36,-25,391,-111
3615,-34,-235,41,-14,382,-129
3620,-36,-240,41,0,370,-146
3625,-33,-243,43,13,359,-157
3630,-29,-246,48,31,345,-164
3635,-30,-246,46,56,335,-174
3640,-29,-247,48,88,324,-187
3645,-28,-245,49,122,314,-194
3650,-31,-238,44,157,297,-198
3655,-22,-239,44,189,285,-203
3660,-22,-233,44,217,267,-212
3665,-23,-229,40,236,244,-217
3670,-27,-220,38,251,218,-221
3675,-28,-215,38,260,184,-225
3680,-29,-208,31,265,155,-223
3685,-36,-202,27,266,119,-221
3690,-38,-197,26,257,84,-216
3695,-42,-192,23,244,54,-210
3700,-47,-191,24,225,30,-196
3705,-47,-190,19,203,9,-183
3710,-45,-194,24,179,-11,-170
3715,-45,-195,22,157,-30,-158
3720,-44,-201,26,142,-51,-151
3725,-39,-209,29,134,-73,-146
3730,-39,-213,35,130,-91,-148
3735,-32,-221,36,130,-98,-145
3740,-24,-228,45,128,-98,-141
3745,-19,-234,47,128,-87,-137
3750,-10,-246,57,129,-68,-127
3755,-2,-251,68,128,-40,-117
3760,6,-257,76,127,-4,-101
3765,13,-270,80,126,42,-82
3770,33,-275,83,115,98,-79
3775,44,-284,85,89,183,-110
3780,49,-295,88,49,285,-152
3785,49,-302,87,9,385,-193
3790,46,-314,78,-38,469,-227
3795,43,-322,65,-93,527,-253
3800,33,-335,50,-163,556,-266
3805,23,-348,33,-235,555,-266
3810,14,-361,11,-291,536,-255
3815,1,-375,-5,-336,499,-230
3820,-11,-383,-19,-368,452,-182
3825,-32,-396,-26,-370,396,-109
3830,-46,-411,-30,-335,328,-10
3835,-62,-421,-34,-269,249,113
3840,-66,-424,-39,-182,153,237
3845,-82,-424,-49,-100,41,364
3850,-90,-417,-61,-28,-94,464
3855,-86,-401,-73,13,-222,543
3860,-72,-387,-84,17,-305,609
3865,-64,-370,-97,-6,-329,666
3870,-47,-343,-96,-43,-298,704
3875,-28,-321,-100,-77,-229,720
3880,-16,-294,-99,-103,-130,715
3885,8,-274,-103,-116,-17,696
3890,31,-249,-102,-114,107,665
3895,46,-225,-103,-98,248,613
3900,64,-199,-98,-80,388,540
3905,87,-184,-101,-59,501,469
3910,115,-176,-101,-43,598,394
3915,124,-167,-106,-42,696,304
3920,140,-162,-105,-67,789,216
3925,139,-164,-102,-109,887,120
3930,133,-172,-95,-163,987,20
3935,118,-185,-86,-227,1086,-78
3940,90,-195,-72,-281,1190,-165
3945,57,-214,-55,-323,1296,-226
3950,15,-233,-44,-342,1374,-259
3955,-15,-249,-30,-338,1409,-268
3960,-40,-266,-21,-309,1410,-268
3965,-68,-275,-17,-266,1375,-261
3970,-95,-286,-7,-216,1311,-251
3975,-123,-298,3,-169,1200,-227
3980,-138,-302,4,-130,1047,-198
3985,-150,-302,2,-103,867,-167
3990,-154,-302,-2,-87,682,-137
3995,-151,-298,-13,-89,515,-104
4000,-140,-293,-15,-98,380,-78
4005,-125,-288,-21,-97,270,-58
4010,-106,-282,-21,-77,185,-38
4015,-81,-275,-28,-37,121,-18
4020,-61,-260,-32,19,68,-4
4025,-38,-249,-32,83,21,0
4030,-13,-241,-33,151,-19,-10
4035,0,-229,-30,210,-50,-36
4040,21,-221,-27,255,-72,-70
4045,30,-213,-24,278,-76,-106
4050,37,-208,-19,276,-65,-143
4055,46,-203,-17,256,-37,-172
4060,49,-204,-12,226,0,-195
4065,44,-209,-4,183,43,-216
4070,43,-218,-4,133,85,-233
4075,41,-226,-3,92,126,-241
4080,32,-226,2,55,162,-243
4085,27,-236,2,23,200,-245
4090,15,-248,4,-9,232,-249
4095,3,-250,6,-38,250,-249
4100,-1,-251,7,-65,261,-244
4105,-14,-256,5,-86,261,-239
4110,-21,-258,13,-103,251,-234
4115,-31,-255,11,-112,233,-228
4120,-33,-253,12,-111,205,-222
4125,-33,-254,8,-104,168,-220
4130,-36,-249,11,-88,129,-222
4135,-36,-249,10,-66,86,-222
4140,-36,-244,11,-38,37,-220
4145,-35,-236,12,-8,-14,-222
4150,-30,-231,7,25,-64,-216
4155,-23,-225,8,53,-110,-206
4160,-14,-225,6,73,-152,-207
4165,-11,-217,7,90,-187,-208
4170,-1,-212,8,101,-213,-204
4175,2,-213,9,108,-227,-198
4180,12,-211,10,117,-231,-181
4185,20,-211,15,125,-226,-164
4190,26,-210,14,127,-213,-148
4195,27,-213,18,126,-194,-133
4200,32,-212,24,124,-173,-121
4205,35,-219,25,122,-149,-109
4210,32,-218,34,123,-121,-96
4215,31,-222,37,129,-97,-85
4220,28,-224,38,138,-78,-79
4225,23,-228,43,144,-67,-75
4230,15,-224,41,151,-62,-71
4235,14,-228,44,153,-60,-64
4240,8,-233,44,153,-60,-57
4245,7,-232,43,148,-63,-48
4250,0,-231,45,141,-65,-40
4255,-3,-228,44,130,-70,-27
4260,-7,-228,43,122,-74,-15
4265,-7,-231,45,114,-78,-3
4270,-11,-229,45,108,-81,13
4275,-12,-231,43,106,-89,30
4280,-15,-233,45,104,-101,44
4285,-19,-231,41,106,-112,61
4290,-17,-234,42,114,-127,77
4295,-17,-234,37,127,-139,94
4300,-17,-233,42,142,-150,114
4305,-11,-236,36,159,-156,135
4310,-7,-235,31,173,-153,157
4315,-4,-234,37,188,-148,181
4320,-1,-231,32,200,-139,204
4325,0,-231,35,212,-127,230
4330,0,-230,34,221,-111,255
4335,2,-229,31,231,-92,276
4340,2,-229,41,241,-74,288
4345,3,-228,41,254,-60,294
4350,2,-228,47,264,-55,292
4355,7,-232,47,274,-56,276
4360,1,-238,57,286,-66,252
4365,1,-246,61,297,-87,216
4370,0,-250,66,301,-120,174
4375,-4,-261,71,293,-159,131
4380,-9,-270,72,281,-201,89
4385,-12,-281,73,254,-239,54
4390,-13,-295,72,216,-269,22
4395,-16,-311,72,170,-286,-9
4400,-17,-327,58,125,-290,-35
4405,-17,-346,51,80,-283,-59
4410,-13,-371,41,28,-268,-76
4415,-6,-385,26,-35,-244,-93
4420,-2,-405,11,-113,-209,-113
4425,5,-420,-3,-203,-172,-139
4430,14,-430,-20,-297,-121,-176
4435,23,-440,-35,-346,-45,-215
4440,23,-440,-52,-339,47,-251
4445,33,-438,-62,-298,133,-292
4450,40,-431,-72,-236,215,-336
4455,43,-403,-75,-165,284,-382
4460,36,-377,-73,-98,321,-421
4465,38,-355,-66,-26,321,-451
4470,36,-329,-66,49,296,-472
4475,27,-308,-62,124,256,-490
4480,17,-282,-55,201,214,-499
4485,5,-259,-55,279,172,-500
4490,-6,-244,-47,366,135,-492
4495,-26,-219,-47,456,103,-477
4500,-47,-198,-42,544,73,-447
4505,-66,-178,-44,612,31,-394
4510,-92,-167,-46,641,-28,-329
4515,-126,-154,-60,634,-105,-252
4520,-133,-141,-52,585,-194,-159
4525,-151,-140,-52,500,-313,-72
4530,-155,-144,-46,381,-460,-4
4535,-152,-150,-42,231,-643,50
4540,-138,-169,-34,60,-827,84
4545,-120,-181,-28,-108,-997,117
4550,-96,-206,-16,-255,-1138,148
4555,-67,-227,-14,-372,-1231,161
4560,-39,-252,-12,-456,-1281,154
4565,-12,-277,-4,-505,-1285,127
4570,5,-296,-3,-522,-1245,95
4575,35,-312,2,-511,-1168,76
4580,60,-326,4,-480,-1054,68
4585,83,-340,1,-439,-899,64
4590,99,-343,3,-386,-717,61
4595,107,-343,-1,-321,-521,68
4600,115,-339,-13,-239,-328,86
4605,101,-336,-18,-147,-163,104
4610,85,-320,-23,-69,-54,122
4615,64,-308,-27,-10,-4,160
4620,40,-289,-39,49,14,221
4625,13,-267,-37,109,17,291
4630,-1,-257,-37,160,17,348
4635,-18,-242,-34,199,14,389
4640,-34,-227,-30,226,10,418
4645,-52,-214,-20,241,0,426
4650,-61,-203,-16,242,-20,420
4655,-63,-199,-6,228,-46,401
4660,-69,-198,4,207,-75,368
4665,-71,-198,8,172,-110,316
4670,-68,-205,12,132,-144,264
4675,-64,-212,19,84,-178,215
4680,-62,-220,22,31,-208,177
4685,-52,-230,25,-27,-238,150
4690,-45,-243,27,-79,-263,131
4695,-33,-249,22,-117,-278,127
4700,-30,-256,23,-138,-287,135
4705,-24,-255,20,-149,-294,152
4710,-15,-259,19,-150,-296,171
4715,-10,-260,14,-143,-296,191
4720,-6,-256,13,-129,-293,210
4725,-5,-246,13,-107,-292,220
4730,1,-239,5,-82,-290,235
4735,2,-232,4,-55,-284,243
4740,2,-224,6,-19,-269,251
4745,2,-217,7,16,-246,251
4750,3,-211,6,44,-218,247
4755,2,-204,3,56,-177,236
4760,-2,-201,8,55,-126,229
4765,-10,-194,2,42,-66,220
4770,-17,-194,9,18,1,212
4775,-25,-192,14,-17,61,198
4780,-29,-200,12,-54,114,184
4785,-41,-203,21,-83,153,172
4790,-45,-209,27,-105,176,153
4795,-50,-215,26,-117,183,128
4800,-51,-218,24,-118,178,100
4805,-51,-223,29,-108,161,71
4810,-52,-228,24,-87,137,45
4815,-48,-229,31,-61,112,23
4820,-44,-232,31,-39,86,2
4825,-42,-232,30,-23,65,-17
4830,-36,-233,27,-14,48,-38
4835,-30,-231,32,-14,41,-56
4840,-18,-228,36,-19,47,-72
4845,-18,-230,32,-25,58,-84
4850,-15,-230,36,-31,77,-95
4855,-11,-231,37,-30,99,-105
4860,-4,-234,36,-27,123,-115
4865,0,-235,39,-20,148,-126
4870,0,-237,34,-10,170,-137
4875,5,-237,37,-4,194,-152
4880,4,-241,32,3,214,-166
4885,5,-241,35,6,230,-179
4890,1,-244,36,12,246,-192
4895,-1,-247,36,20,257,-202
4900,-5,-247,33,29,258,-208
4905,-16,-249,38,41,256,-210
4910,-19,-250,42,57,245,-205
4915,-25,-253,45,75,234,-196
4920,-27,-257,51,93,219,-183
4925,-36,-255,60,116,201,-162
4930,-39,-258,64,143,179,-140
4935,-38,-259,69,172,154,-117
4940,-37,-262,69,204,126,-93
4945,-39,-263,71,243,103,-67
4950,-42,-264,66,284,85,-42
4955,-40,-260,65,322,77,-25
4960,-42,-256,61,355,79,-7
4965,-45,-252,61,376,92,9
4970,-47,-249,52,381,110,22
4975,-52,-246,46,372,137,36
4980,-51,-243,45,341,167,49
4985,-49,-243,40,299,200,60
4990,-45,-247,42,250,232,70
4995,-41,-249,39,197,259,79
5000,-35,-258,38,148,287,88
5005,-26,-277,42,106,309,93
5010,-22,-294,41,78,325,102
5015,-20,-312,36,58,334,114
5020,-17,-332,35,41,338,127
5025,-15,-350,35,3,328,140
5030,-14,-362,29,-51,306,150
5035,-17,-378,25,-111,282,158
5040,-21,-386,19,-164,261,172
5045,-30,-398,23,-198,239,193
5050,-32,-404,19,-208,219,219
5055,-28,-394,20,-195,201,250
5060,-44,-402,10,-169,179,282
5065,-45,-390,1,-125,163,303
5070,-43,-371,-9,-72,157,307
5075,-43,-350,-19,-21,156,294
5080,-36,-318,-31,11,164,271
5085,-27,-300,-40,23,177,249
5090,-21,-279,-43,15,191,229
5095,-16,-262,-53,-6,205,209
5100,-2,-249,-54,-40,220,186
5105,4,-234,-60,-81,240,167
5110,12,-222,-65,-130,266,149
5115,26,-213,-67,-181,300,133
5120,39,-204,-70,-236,341,115
5125,48,-199,-69,-293,391,99
5130,54,-197,-72,-353,446,81
5135,60,-197,-64,-413,500,61
5140,59,-200,-60,-465,552,39
5145,56,-205,-49,-497,597,19
5150,42,-214,-42,-511,630,7
5155,30,-224,-30,-511,646,2
5160,8,-237,-16,-498,645,0
5165,-3,-256,-6,-473,622,-6
5170,-28,-264,3,-450,586,-18
5175,-43,-274,16,-415,530,-23
5180,-57,-284,18,-367,462,-23
5185,-65,-294,18,-315,383,-17
5190,-73,-296,12,-260,302,-22
5195,-74,-302,9,-205,230,-34
5200,-75,-302,7,-158,176,-57
5205,-72,-298,0,-121,139,-85
5210,-67,-293,-3,-97,114,-114
5215,-56,-283,-8,-86,101,-140
5220,-42,-278,-14,-80,88,-162
5225,-27,-264,-14,-76,74,-183
5230,-8,-251,-21,-63,65,-187
5235,6,-241,-20,-50,60,-184
5240,16,-230,-20,-39,60,-172
5245,22,-217,-21,-36,64,-164
5250,33,-205,-22,-48,73,-164
5255,37,-200,-19,-75,84,-168
5260,33,-194,-20,-113,97,-172
5265,34,-195,-14,-147,116,-175
5270,27,-193,-17,-176,137,-179
5275,29,-199,-8,-201,163,-194
5280,27,-209,0,-217,194,-216
5285,18,-219,-3,-228,228,-239
5290,12,-221,4,-233,257,-258
5295,4,-226,9,-239,281,-275
5300,-1,-232,9,-243,293,-279
5305,-6,-239,10,-250,293,-274
5310,-12,-243,15,-266,277,-261
5315,-13,-244,14,-285,247,-247
5320,-16,-248,13,-306,217,-242
5325,-21,-247,17,-325,182,-233
5330,-14,-246,12,-341,149,-225
5335,-16,-246,13,-347,116,-226
5340,-15,-245,7,-340,86,-221
5345,-16,-242,7,-318,63,-220
5350,-9,-242,7,-288,43,-206
5355,-5,-233,7,-251,26,-182
5360,0,-233,8,-225,8,-161
5365,4,-227,6,-214,-13,-155
5370,4,-224,5,-211,-31,-154
5375,5,-219,8,-210,-46,-153
5380,6,-226,4,-215,-61,-154
5385,13,-224,9,-224,-72,-155
5390,16,-221,7,-232,-77,-149
5395,16,-223,11,-237,-75,-144
5400,15,-224,12,-241,-72,-139
5405,16,-227,18,-241,-68,-132
5410,12,-229,18,-232,-61,-120
5415,9,-232,23,-222,-54,-107
5420,8,-230,28,-207,-48,-92
5425,7,-233,32,-191,-43,-77
5430,2,-234,35,-173,-43,-58
5435,1,-236,43,-155,-47,-41
5440,0,-239,41,-138,-54,-26
5445,-3,-237,43,-123,-63,-12
5450,-2,-241,47,-112,-76,0
5455,-5,-239,45,-100,-90,12
5460,-9,-242,47,-88,-109,21
5465,-10,-241,50,-77,-130,28
5470,-13,-241,57,-65,-157,33
5475,-15,-241,55,-53,-187,38
5480,-18,-241,52,-39,-219,45
5485,-20,-242,50,-23,-251,50
5490,-21,-245,54,-12,-279,55
5495,-24,-244,52,-4,-301,62
5500,-26,-246,48,4,-316,67
5505,-27,-249,45,14,-324,75
5510,-27,-249,42,29,-320,88
5515,-15,-256,39,55,-304,101
5520,-13,-254,33,93,-277,114
5525,-2,-257,34,136,-242,123
5530,1,-256,32,187,-204,127
5535,13,-251,31,246,-163,132
5540,22,-250,29,302,-128,132
5545,32,-247,28,351,-97,128
5550,38,-243,24,392,-75,117
5555,43,-243,26,424,-56,99
5560,52,-242,21,444,-37,78
5565,58,-244,13,444,-15,49
5570,62,-249,10,416,13,16
5575,64,-254,11,359,52,-27
5580,68,-269,1,269,94,-77
5585,63,-281,-5,158,134,-131
5590,61,-296,-11,27,176,-186
5595,61,-311,-19,-118,214,-239
5600,59,-332,-30,-274,269,-295
5605,47,-347,-43,-424,333,-346
5610,33,-369,-53,-552,408,-390
5615,16,-392,-67,-645,479,-426
5620,0,-407,-68,-697,534,-458
5625,-26,-420,-68,-678,570,-476
5630,-49,-434,-66,-564,575,-468
5635,-66,-429,-58,-354,544,-435
5640,-80,-419,-55,-83,481,-375
5645,-98,-394,-55,194,398,-301
5650,-115,-361,-61,432,296,-227
5655,-123,-323,-68,611,181,-154
5660,-135,-292,-72,742,51,-78
5665,-138,-261,-82,830,-81,3
5670,-139,-234,-84,864,-208,82
5675,-132,-212,-88,840,-333,142
5680,-125,-191,-82,765,-458,173
5685,-115,-179,-72,649,-580,180
5690,-99,-177,-61,493,-699,168
5695,-79,-179,-49,296,-814,138
5700,-62,-185,-32,78,-917,89
5705,-49,-187,-33,-140,-998,27
5710,-36,-214,-23,-339,-1064,-38
5715,-20,-231,-20,-496,-1106,-115
5720,-5,-247,-28,-607,-1117,-193
5725,11,-263,-36,-671,-1084,-258
5730,23,-273,-42,-696,-1002,-300
5735,42,-283,-53,-684,-880,-308
5740,46,-293,-54,-646,-730,-301
5745,56,-298,-63,-576,-564,-270
5750,58,-297,-66,-494,-401,-229
5755,57,-295,-61,-407,-258,-188
5760,53,-299,-58,-330,-144,-163
5765,47,-290,-51,-266,-59,-141
5770,35,-284,-44,-214,-3,-127
5775,27,-276,-36,-173,29,-113
5780,19,-270,-26,-142,44,-103
5785,7,-262,-22,-111,45,-93
5790,0,-256,-20,-82,32,-79
5795,-9,-246,-13,-58,8,-59
5800,-13,-242,-16,-47,-23,-35
5805,-17,-235,-13,-45,-59,-9
5810,-15,-227,-15,-56,-99,13
5815,-25,-219,-11,-76,-146,28
5820,-29,-218,-11,-102,-196,42
5825,-30,-220,-11,-129,-246,51
5830,-32,-217,-8,-159,-293,54
5835,-25,-219,-8,-186,-335,57
5840,-27,-224,-9,-210,-370,60
5845,-20,-231,-11,-230,-394,67
5850,-19,-235,-11,-245,-404,80
5855,-17,-241,-16,-253,-405,95
5860,-9,-243,-17,-258,-394,110
5865,-10,-246,-14,-262,-368,125
5870,-2,-249,-16,-261,-333,139
5875,-3,-245,-14,-250,-290,149
5880,-1,-247,-13,-234,-242,158
5885,2,-246,-13,-212,-192,162
5890,-1,-242,-13,-188,-142,163
5895,2,-239,-15,-160,-92,164
5900,3,-231,-15,-137,-44,159
5905,1,-226,-17,-117,1,159
5910,0,-225,-14,-103,40,154
5915,-3,-220,-12,-94,73,148
5920,-8,-209,-10,-89,97,140
5925,-19,-216,-8,-91,116,131
5930,-25,-217,-7,-100,130,118
5935,-28,-217,-8,-117,136,108
5940,-32,-221,-8,-136,140,103
5945,-35,-224,-4,-157,145,93
5950,-39,-230,-3,-180,146,87
5955,-41,-229,-4,-195,143,80
5960,-42,-237,1,-202,140,75
5965,-42,-240,1,-203,133,70
5970,-40,-244,2,-203,126,66
5975,-39,-247,4,-200,123,61
5980,-34,-245,4,-194,117,57
5985,-32,-248,12,-186,115,49
5990,-28,-249,10,-175,117,38
5995,-26,-248,11,-162,120,26
6000,-23,-248,9,-147,127,11
6005,-20,-246,9,-134,133,-6
6010,-17,-245,10,-120,143,-25
6015,-12,-246,10,-109,154,-44
6020,-13,-242,9,-96,168,-62
6025,-12,-243,11,-83,183,-80
6030,-16,-241,10,-67,201,-98
6035,-13,-239,5,-46,219,-114
6040,-15,-241,6,-19,236,-129
6045,-14,-239,4,12,253,-142
6050,-15,-237,6,44,265,-155
6055,-19,-231,2,73,270,-167
6060,-23,-231,-2,91,268,-177
6065,-29,-224,-2,97,259,-185
6070,-31,-225,-7,88,240,-187
6075,-36,-224,-8,66,213,-187
6080,-41,-217,-11,36,180,-183
6085,-44,-219,-13,0,140,-172
6090,-47,-219,-14,-38,99,-158
6095,-52,-217,-17,-76,61,-135
6100,-55,-216,-20,-117,23,-106
6105,-49,-223,-20,-159,-10,-71
6110,-46,-227,-20,-208,-46,-34
6115,-42,-236,-21,-259,-81,5
6120,-37,-243,-26,-315,-116,42
6125,-28,-252,-29,-369,-144,77
6130,-24,-261,-31,-424,-171,108
6135,-18,-265,-30,-463,-187,130
6140,-16,-278,-34,-491,-199,146
6145,0,-283,-34,-511,-200,159
6150,3,-286,-28,-518,-191,165
6155,8,-288,-23,-509,-178,171
6160,14,-291,-20,-491,-166,172
6165,13,-289,-21,-468,-154,169
6170,14,-285,-19,-442,-145,161
6175,9,-278,-26,-419,-136,152
6180,7,-270,-23,-406,-130,139
6185,1,-261,-33,-405,-125,130
6190,-3,-250,-36,-416,-123,119
6195,-8,-240,-41,-440,-116,108
6200,-14,-234,-48,-475,-106,100
6205,-21,-227,-52,-520,-89,96
6210,-26,-221,-56,-571,-65,96
6215,-29,-222,-55,-626,-34,95
6220,-30,-229,-53,-678,0,92
6225,-33,-236,-47,-723,36,84
6230,-33,-247,-37,-759,63,67
6235,-34,-255,-37,-783,79,48
6240,-28,-269,-35,-788,84,27
6245,-37,-282,-33,-775,78,4
6250,-22,-288,-36,-743,60,-15
6255,-14,-298,-37,-688,32,-42
6260,-13,-302,-39,-614,-2,-78
6265,-13,-302,-39,-533,-43,-111
6270,-13,-310,-40,-455,-88,-151
6275,-11,-321,-39,-380,-137,-196
6280,-12,-331,-40,-298,-180,-224
6285,-17,-346,-41,-204,-224,-247
6290,-26,-360,-31,-87,-285,-279
6295,-28,-373,-34,62,-363,-299
6300,-40,-383,-36,237,-442,-294
6305,-60,-385,-43,408,-519,-272
6310,-67,-382,-53,555,-591,-235
6315,-75,-370,-53,652,-644,-179
6320,-82,-349,-66,683,-660,-87
6325,-86,-326,-60,621,-646,37
6330,-87,-303,-57,477,-632,141
6335,-79,-277,-58,299,-621,268
6340,-74,-251,-66,109,-623,362
6345,-61,-222,-65,-53,-644,434
6350,-49,-191,-66,-200,-689,473
6355,-41,-177,-68,-327,-774,460
6360,-40,-187,-65,-415,-896,431
6365,-33,-190,-73,-481,-1062,369
6370,-29,-192,-77,-549,-1218,314
6375,-7,-190,-80,-625,-1350,285
6380,10,-196,-79,-703,-1423,298
6385,29,-204,-83,-775,-1462,320
6390,48,-215,-84,-820,-1470,342
6395,57,-230,-87,-819,-1443,353
6400,66,-245,-87,-787,-1402,361
6405,64,-252,-93,-749,-1353,358
6410,61,-257,-87,-711,-1304,338
6415,55,-263,-84,-675,-1257,307
6420,43,-259,-84,-638,-1213,275
6425,28,-258,-88,-603,-1175,245
6430,13,-257,-83,-570,-1150,224
6435,3,-256,-85,-536,-1138,210
6440,-8,-257,-85,-510,-1140,195
6445,-18,-254,-88,-490,-1151,182
6450,-26,-248,-91,-473,-1170,171
6455,-34,-243,-90,-456,-1194,162
6460,-39,-230,-93,-442,-1220,153
6465,-46,-227,-93,-432,-1242,146
6470,-46,-220,-92,-424,-1254,142
6475,-51,-210,-87,-421,-1263,140
6480,-47,-206,-89,-429,-1267,144
6485,-42,-203,-87,-441,-1269,152
6490,-40,-201,-86,-450,-1271,163
6495,-42,-204,-86,-452,-1283,172
6500,-36,-209,-87,-449,-1302,175
6505,-36,-215,-93,-440,-1328,173
6510,-25,-224,-95,-435,-1359,167
6515,-23,-227,-92,-429,-1391,161
6520,-18,-235,-93,-433,-1419,150
6525,-12,-240,-97,-439,-1441,140
6530,-8,-246,-100,-451,-1460,129
6535,0,-250,-102,-476,-1473,118
6540,1,-253,-98,-510,-1476,119
6545,7,-263,-96,-542,-1469,122
6550,11,-273,-100,-552,-1454,122
6555,10,-279,-97,-535,-1429,114
6560,14,-296,-99,-487,-1393,103
6565,3,-303,-96,-404,-1350,89
6570,10,-312,-106,-301,-1298,64
6575,9,-312,-118,-180,-1232,31
6580,6,-312,-124,-82,-1155,-6
6585,1,-311,-132,18,-1060,-48
6590,0,-305,-129,85,-958,-93
6595,-2,-301,-125,117,-844,-136
6600,-4,-295,-125,121,-720,-179
6605,-8,-287,-119,117,-592,-224
6610,-10,-280,-110,117,-463,-267
6615,-10,-276,-104,130,-346,-300
6620,-15,-268,-92,154,-241,-330
6625,-19,-259,-86,187,-169,-347
6630,-19,-252,-82,218,-130,-350
6635,-20,-245,-82,246,-115,-343
6640,-26,-235,-82,260,-118,-336
6645,-38,-229,-85,256,-145,-337
6650,-47,-225,-83,236,-195,-320
6655,-45,-220,-79,197,-273,-289
6660,-52,-215,-74,147,-359,-266
6665,-54,-222,-67,93,-446,-248
6670,-60,-224,-75,54,-518,-243
6675,-60,-216,-60,3,-611,-251
6680,-48,-226,-66,-62,-679,-265
6685,-55,-235,-65,-96,-705,-268
6690,-55,-246,-65,-92,-718,-268
6695,-46,-249,-77,-62,-722,-274
6700,-44,-248,-78,-23,-703,-285
6705,-35,-251,-82,16,-660,-288
6710,-29,-249,-83,54,-608,-287
6715,-21,-249,-84,87,-550,-282
6720,-16,-247,-86,111,-488,-273
6725,-14,-241,-84,126,-425,-258
6730,-8,-236,-82,133,-373,-238
6735,-8,-230,-82,131,-335,-227
6740,-7,-226,-83,120,-305,-218
6745,-8,-225,-79,103,-285,-215
6750,-8,-225,-77,78,-277,-230
6755,-14,-226,-75,59,-267,-257
6760,-27,-231,-76,46,-244,-265
6765,-33,-235,-76,42,-220,-251
6770,-44,-238,-69,44,-209,-235
6775,-43,-241,-69,51,-208,-228
6780,-51,-248,-74,58,-194,-222
6785,-61,-243,-71,72,-166,-212
6790,-64,-243,-71,92,-137,-198
6795,-62,-244,-72,106,-116,-183
6800,-63,-242,-70,111,-99,-166
6805,-63,-240,-70,114,-79,-141
6810,-58,-241,-70,122,-65,-111
6815,-58,-240,-70,130,-61,-91
6820,-61,-239,-68,134,-77,-94
6825,-62,-239,-74,135,-107,-121
6830,-64,-241,-74,131,-135,-156
6835,-61,-236,-72,134,-159,-187
6840,-51,-238,-72,157,-180,-191
6845,-49,-235,-68,193,-194,-203
6850,-53,-238,-72,228,-215,-227
6855,-48,-232,-78,242,-237,-231
6860,-43,-222,-81,226,-243,-216
6865,-42,-223,-79,188,-229,-206
6870,-47,-224,-77,150,-209,-199
6875,-49,-240,-75,144,-187,-183
6880,-48,-246,-76,170,-166,-157
6885,-46,-247,-78,213,-145,-135
6890,-44,-247,-79,246,-133,-128
6895,-48,-243,-83,258,-129,-127
6900,-48,-243,-77,246,-139,-133
6905,-46,-242,-73,225,-159,-133
6910,-46,-241,-65,205,-176,-127
6915,-44,-238,-63,184,-186,-127
6920,-46,-236,-58,164,-179,-134
6925,-44,-230,-61,144,-160,-139
6930,-36,-233,-59,123,-134,-142
6935,-35,-230,-61,99,-109,-148
6940,-33,-232,-66,77,-89,-154
6945,-34,-232,-68,60,-83,-163
6950,-31,-233,-68,49,-77,-165
6955,-30,-234,-70,44,-70,-149
6960,-29,-240,-71,41,-64,-132
6965,-28,-243,-68,39,-65,-121
6970,-35,-239,-66,43,-70,-115
6975,-33,-244,-65,50,-78,-111
6980,-35,-243,-62,54,-77,-107
6985,-31,-248,-64,57,-67,-101
6990,-28,-248,-68,52,-46,-97
6995,-25,-248,-68,47,-19,-92
7000,-32,-257,-60,43,9,-89
7005,-26,-248,-67,46,37,-84
7010,-24,-252,-69,52,59,-80
7015,-28,-252,-68,59,72,-77
7020,-29,-254,-69,65,81,-73
7025,-30,-253,-68,72,79,-69
7030,-32,-258,-63,78,74,-65
7035,-31,-260,-64,87,67,-57
7040,-30,-263,-68,97,63,-54
7045,-28,-263,-66,104,65,-56
7050,-29,-259,-66,110,71,-61
7055,-28,-265,-63,119,78,-62
7060,-27,-264,-61,132,87,-67
7065,-29,-265,-65,150,102,-73
7070,-28,-259,-61,169,119,-80
7075,-31,-256,-60,182,132,-79
7080,-32,-251,-58,186,144,-73
7085,-33,-247,-58,181,155,-63
7090,-32,-247,-61,167,162,-50
7095,-35,-248,-64,153,167,-37
7100,-29,-248,-65,135,166,-27
7105,-31,-248,-61,116,161,-17
7110,-25,-254,-57,95,149,-9
7115,-27,-251,-57,78,134,-7
7120,-26,-252,-52,69,116,-12
7125,-23,-254,-53,65,103,-27
7130,-26,-251,-53,72,94,-45
7135,-33,-248,-47,83,95,-61
7140,-30,-248,-46,95,101,-69
7145,-30,-247,-44,102,112,-70
7150,-31,-244,-48,103,124,-66
7155,-31,-244,-50,96,136,-58
7160,-30,-248,-54,80,143,-43
7165,-29,-248,-52,61,146,-27
7170,-28,-251,-54,41,144,-13
7175,-28,-254,-56,19,140,-1
7180,-25,-261,-51,-2,136,7
7185,-26,-264,-53,-17,134,16
7190,-23,-264,-51,-26,129,23
7195,-22,-267,-52,-22,124,24
7200,-24,-260,-54,-7,117,26
7205,-24,-262,-55,17,107,30
7210,-21,-258,-60,46,101,34
7215,-26,-259,-61,68,99,39
7220,-20,-254,-60,76,94,41
7225,-22,-257,-58,75,92,41
7230,-23,-255,-57,74,88,34
7235,-21,-253,-55,76,88,25
7240,-19,-250,-54,81,98,22
7245,-14,-257,-55,87,112,22
7250,-13,-247,-50,93,136,21
7255,-10,-252,-53,102,168,24
7260,-6,-249,-58,111,204,27
7265,0,-247,-61,116,222,26
7270,0,-242,-65,120,236,25
7275,-1,-238,-66,122,242,28
7280,1,-240,-64,123,239,33
7285,-5,-235,-62,116,227,29
7290,-5,-232,-58,100,213,19
7295,-7,-231,-56,78,202,6
7300,-12,-236,-49,53,197,-6
7305,-19,-233,-49,32,195,-18
7310,-19,-239,-50,23,201,-27
7315,-23,-234,-46,31,210,-29
7320,-21,-240,-49,45,220,-32
7325,-20,-244,-50,64,232,-29
7330,-21,-237,-48,79,245,-27
7335,-17,-239,-43,94,254,-23
7340,-15,-235,-45,100,265,-20
7345,-13,-240,-43,98,276,-17
7350,-6,-242,-40,90,286,-12
7355,-6,-244,-37,78,301,-10
7360,-2,-247,-33,71,319,-9
7365,-1,-248,-31,73,340,-10
7370,0,-249,-29,85,360,-13
7375,-1,-250,-22,102,379,-19
7380,0,-246,-30,116,395,-19
7385,0,-242,-37,131,408,-15
7390,0,-241,-36,142,416,-13
7395,0,-241,-40,144,422,-10
7400,0,-240,-43,136,431,-5
7405,-1,-234,-38,117,442,3
7410,0,-237,-39,90,456,10
7415,1,-234,-37,57,475,16
7420,0,-237,-34,22,503,22
7425,0,-234,-39,-10,537,29
7430,0,-240,-36,-38,579,32
7435,2,-242,-39,-63,622,39
7440,2,-243,-41,-87,662,43
7445,4,-247,-42,-108,691,42
7450,4,-252,-44,-125,713,33
7455,1,-254,-48,-139,732,25
7460,5,-257,-51,-145,747,22
7465,4,-264,-48,-143,754,23
7470,4,-268,-42,-129,753,19
7475,1,-267,-40,-101,732,15
7480,2,-264,-38,-61,698,14
7485,4,-264,-38,-15,660,9
7490,5,-259,-41,28,625,3
7495,5,-257,-38,63,599,-6
7500,3,-258,-39,90,587,-17
7505,8,-254,-41,109,583,-28
7510,10,-255,-37,120,581,-37
7515,10,-254,-32,127,576,-45
7520,11,-255,-29,140,574,-48
7525,12,-255,-36,162,572,-50
7530,16,-259,-31,187,578,-49
7535,11,-254,-33,211,589,-53
7540,7,-253,-31,228,605,-59
7545,12,-250,-32,243,622,-60
7550,9,-253,-31,252,633,-54
7555,6,-251,-28,252,633,-43
7560,6,-252,-25,252,621,-34
7565,6,-251,-20,254,597,-32
7570,2,-251,-18,260,566,-33
7575,1,-252,-18,267,533,-35
7580,-4,-251,-14,279,506,-46
7585,-10,-246,-15,299,488,-59
7590,-14,-244,-14,313,470,-67
7595,-17,-236,-17,321,445,-68
7600,-13,-237,-15,316,416,-68
7605,-13,-237,-18,302,387,-66
7610,-14,-239,-13,279,359,-62
7615,-11,-241,-16,260,333,-54
7620,-7,-243,-11,251,310,-46
7625,-1,-243,-8,259,295,-37
7630,-1,-245,-9,278,280,-32
7635,-2,-243,-5,303,258,-28
7640,0,-246,-5,327,229,-22
7645,0,-242,-3,348,189,-18
7650,3,-240,3,367,149,-18
7655,0,-235,-2,378,113,-16
7660,-2,-230,-3,387,84,-15
7665,-4,-227,0,392,60,-11
7670,-1,-228,-3,397,36,-11
7675,0,-226,-4,399,12,-16
7680,-1,-225,-11,399,-11,-26
7685,1,-225,-8,395,-30,-35
7690,5,-222,-12,385,-50,-42
7695,8,-221,-8,374,-77,-50
7700,15,-220,-6,358,-111,-55
7705,21,-220,-4,339,-150,-65
7710,23,-226,-2,323,-190,-72
7715,24,-228,2,315,-228,-75
7720,23,-233,8,319,-258,-77
7725,26,-240,9,338,-282,-79
7730,27,-243,14,371,-300,-79
7735,31,-245,19,415,-314,-79
7740,38,-245,23,460,-331,-75
7745,42,-244,23,504,-354,-71
7750,50,-243,24,540,-389,-66
7755,54,-238,18,561,-428,-65
7760,61,-225,18,574,-473,-62
7765,56,-225,11,580,-522,-56
7770,53,-216,5,579,-568,-51
7775,49,-206,5,562,-604,-42
7780,43,-191,4,545,-631,-19
7785,43,-185,5,529,-651,9
7790,33,-178,5,514,-666,33
7795,28,-167,6,507,-675,67
7800,26,-162,10,501,-682,93
7805,23,-159,7,490,-699,102
7810,24,-158,6,482,-719,105
7815,24,-159,9,477,-745,105
7820,33,-161,13,481,-783,107
7825,38,-166,25,491,-832,112
7830,45,-168,26,505,-891,111
7835,47,-165,31,520,-954,116
7840,47,-163,33,535,-1015,130
7845,50,-153,30,540,-1073,148
7850,50,-146,26,526,-1108,169
7855,41,-132,15,487,-1121,194
7860,38,-124,16,432,-1120,225
7865,35,-119,9,372,-1102,256
7870,33,-107,8,311,-1072,287
7875,34,-114,7,247,-1045,314
7880,29,-112,0,188,-1020,342
7885,37,-116,1,138,-1004,364
7890,41,-114,2,89,-998,383
7895,49,-119,0,42,-998,394
7900,58,-121,-3,-1,-995,399
7905,66,-126,-1,-40,-987,400
7910,75,-139,-3,-79,-976,390
7915,81,-150,-4,-115,-964,374
7920,87,-161,-6,-152,-949,355
7925,94,-177,-6,-187,-922,331
7930,99,-187,-6,-218,-875,305
7935,99,-201,-11,-243,-810,282
7940,104,-209,-17,-263,-731,269
7945,102,-219,-26,-284,-638,261
7950,97,-229,-33,-303,-539,262
7955,87,-233,-41,-323,-447,271
7960,81,-237,-40,-346,-375,287
7965,74,-243,-40,-377,-328,307
7970,63,-243,-36,-412,-306,333
7975,54,-246,-27,-445,-306,363
7980,33,-250,-16,-467,-318,388
7985,15,-254,-5,-476,-332,415
7990,-2,-254,6,-484,-346,441
7995,-19,-253,19,-502,-364,468
8000,-38,-253,24,-541,-393,489
8005,-60,-252,22,-594,-440,494
8010,-88,-248,12,-655,-492,514
8015,-109,-248,7,-734,-550,550
8020,-125,-254,-12,-842,-631,582
8025,-143,-254,-23,-970,-746,583
8030,-153,-260,-46,-1098,-873,579
8035,-148,-277,-71,-1217,-981,583
8040,-130,-289,-87,-1314,-1048,602
8045,-111,-307,-110,-1396,-1075,635
8050,-82,-322,-124,-1474,-1085,646
8055,-56,-337,-141,-1547,-1091,641
8060,-30,-355,-145,-1615,-1085,629
8065,-8,-370,-147,-1664,-1062,627
8070,8,-390,-143,-1693,-1021,636
8075,17,-402,-137,-1701,-961,647
8080,16,-411,-125,-1684,-885,661
8085,7,-410,-111,-1639,-818,674
8090,-5,-406,-101,-1577,-772,663
8095,-24,-399,-90,-1513,-742,638
8100,-49,-387,-75,-1446,-726,620
8105,-65,-378,-61,-1371,-722,617
8110,-84,-374,-42,-1284,-734,619
8115,-107,-370,-25,-1192,-767,613
8120,-119,-365,-12,-1100,-827,602
8125,-133,-360,-6,-1014,-901,589
8130,-148,-348,-1,-931,-995,584
8135,-164,-342,0,-847,-1103,594
8140,-168,-333,-3,-768,-1217,617
8145,-166,-325,-6,-696,-1337,653
8150,-161,-311,-4,-629,-1455,698
8155,-149,-295,-7,-559,-1566,750
8160,-136,-279,-1,-488,-1670,802
8165,-120,-261,-1,-433,-1773,853
8170,-98,-239,0,-396,-1867,914
8175,-70,-225,6,-390,-1948,967
8180,-59,-214,10,-395,-2014,1009
8185,-39,-202,22,-388,-2059,1045
8190,-13,-195,35,-362,-2083,1075
8195,4,-188,36,-319,-2086,1090
8200,14,-183,43,-261,-2084,1073
8205,22,-177,41,-188,-2103,1026
8210,26,-171,38,-100,-2146,950
8215,26,-158,33,-9,-2202,865
8220,28,-154,29,76,-2247,783
8225,22,-148,17,141,-2269,720
8230,11,-152,23,171,-2248,679
8235,5,-162,24,175,-2178,674
8240,-10,-177,34,175,-2070,716
8245,-18,-187,31,191,-1934,808
8250,-29,-198,24,234,-1804,931
8255,-40,-206,12,303,-1717,1055
8260,-54,-212,4,402,-1694,1174
8265,-63,-205,-9,523,-1732,1282
8270,-64,-200,-8,647,-1809,1375
8275,-64,-191,-6,745,-1896,1447
8280,-64,-182,7,815,-1978,1498
8285,-62,-174,24,854,-2044,1533
8290,-65,-163,37,876,-2081,1557
8295,-69,-154,42,891,-2087,1571
8300,-68,-145,45,904,-2062,1571
8305,-74,-138,32,919,-2019,1552
8310,-83,-131,13,939,-1977,1508
8315,-87,-133,3,965,-1951,1450
8320,-102,-133,-7,998,-1940,1400
8325,-110,-147,-12,1045,-1935,1369
8330,-114,-162,-8,1112,-1923,1363
8335,-126,-179,2,1180,-1914,1382
8340,-138,-186,6,1245,-1935,1420
8345,-153,-191,19,1299,-1990,1475
8350,-170,-186,25,1339,-2054,1547
8355,-193,-179,29,1340,-2105,1641
8360,-213,-173,33,1286,-2132,1755
8365,-249,-167,33,1198,-2128,1865
8370,-291,-168,22,1112,-2104,1955
8375,-323,-170,13,1077,-2064,2036
8380,-358,-184,-2,1113,-2023,2132
8385,-377,-204,-11,1195,-1993,2255
8390,-386,-231,-11,1292,-1963,2394
8395,-396,-259,12,1394,-1921,2537
8400,-401,-293,38,1512,-1889,2692
8405,-405,-340,70,1660,-1892,2858
8410,-399,-380,104,1820,-1927,3027
8415,-392,-428,152,1943,-1967,3156
8420,-377,-470,186,2016,-1992,3211
8425,-369,-508,226,2058,-1985,3179
8430,-362,-535,250,2067,-1950,3076
8435,-348,-548,259,2020,-1869,2938
8440,-333,-527,245,1906,-1737,2773
8445,-309,-486,224,1752,-1540,2617
8450,-275,-406,221,1616,-1288,2467
8455,-264,-316,220,1525,-1032,2294
8460,-268,-213,239,1481,-823,2148
8465,-273,-132,236,1482,-697,2097
8470,-289,-87,225,1510,-679,2106
8475,-287,-78,213,1520,-729,2098
8480,-279,-92,190,1504,-757,2027
8485,-258,-132,159,1472,-708,1911
8490,-239,-157,140,1433,-607,1775
8495,-213,-167,126,1394,-506,1628
8500,-186,-162,119,1345,-436,1489
8505,-165,-152,113,1273,-394,1371
8510,-150,-142,111,1190,-373,1267
8515,-147,-144,108,1124,-392,1176
8520,-139,-146,107,1126,-463,1093
8525,-132,-141,108,1206,-585,1027
8530,-132,-127,108,1342,-729,993
8535,-134,-109,111,1483,-860,988
8540,-145,-77,112,1588,-957,1015
8545,-160,-54,115,1651,-1013,1057
8550,-177,-23,121,1675,-1039,1098
8555,-192,6,126,1646,-1063,1118
8560,-207,43,137,1570,-1119,1127
8565,-199,64,141,1461,-1219,1106
8570,-199,74,145,1325,-1334,1044
8575,-203,77,149,1195,-1457,977
8580,-213,73,161,1118,-1579,908
8585,-218,65,165,1098,-1695,845
8590,-223,50,168,1113,-1787,786
8595,-228,32,166,1148,-1855,723
8600,-236,16,173,1211,-1919,660
8605,-238,1,173,1265,-1980,602
8610,-259,-13,175,1291,-2030,553
8615,-284,-32,184,1292,-2086,525
8620,-311,-32,169,1252,-2150,522
8625,-304,-44,163,1179,-2223,542
8630,-281,-48,167,1086,-2292,538
8635,-268,-47,169,990,-2343,508
8640,-258,-43,172,884,-2390,481
8645,-244,-35,188,768,-2462,459
8650,-224,-28,203,653,-2535,412
8655,-222,-22,206,570,-2564,307
8660,-255,-10,200,523,-2561,179
8665,-286,-13,191,494,-2598,104
8670,-279,-29,176,485,-2668,86
8675,-277,-41,164,506,-2723,65
8680,-265,-54,151,532,-2778,51
8685,-246,-59,149,549,-2826,45
8690,-223,-64,149,564,-2845,54
8695,-203,-71,149,584,-2822,67
8700,-176,-75,149,615,-2778,88
8705,-140,-70,159,646,-2718,131
8710,-107,-60,170,676,-2632,181
8715,-65,-57,183,693,-2514,225
8720,-20,-51,197,708,-2373,250
8725,1,-47,199,742,-2231,250
8730,20,-38,198,796,-2110,235
8735,23,-36,194,868,-2009,195
8740,25,-31,187,951,-1917,135
8745,2,-17,184,1037,-1813,45
8750,-25,-9,183,1131,-1723,-38
8755,-49,-2,176,1207,-1652,-89
8760,-80,7,173,1253,-1595,-110
8765,-111,9,171,1282,-1567,-101
8770,-129,11,173,1309,-1563,-72
8775,-147,23,183,1337,-1571,-31
8780,-142,32,200,1350,-1599,11
8785,-118,40,207,1344,-1638,52
8790,-84,38,216,1327,-1691,80
8795,-38,38,228,1333,-1743,106
8800,11,35,238,1388,-1794,136
8805,51,45,234,1494,-1836,162
8810,77,46,219,1630,-1830,174
8815,92,54,218,1766,-1773,167
8820,99,67,219,1867,-1707,148
8825,100,80,233,1927,-1629,114
8830,80,93,245,1937,-1539,58
8835,60,116,272,1913,-1431,-9
8840,54,145,300,1866,-1313,-58
8845,41,166,322,1764,-1167,-108
8850,23,190,337,1617,-1042,-150
8855,19,199,342,1473,-951,-178
8860,7,207,346,1380,-881,-201
8865,-4,217,346,1344,-842,-219
8870,-14,237,350,1313,-847,-240
8875,-23,250,347,1254,-888,-240
8880,-26,260,345,1113,-934,-234
8885,-15,260,345,905,-966,-229
8890,-11,258,335,662,-968,-223
8895,-6,246,334,444,-945,-209
8900,2,231,321,253,-929,-194
8905,8,216,308,103,-916,-172
8910,19,196,292,-18,-904,-132
8915,39,181,271,-110,-883,-81
8920,54,156,253,-180,-862,-38
8925,62,130,237,-229,-842,-17
8930,73,103,218,-267,-808,-7
8935,75,77,204,-311,-757,-10
8940,78,51,199,-355,-701,-16
8945,78,25,188,-414,-639,-21
8950,76,11,188,-479,-567,-27
8955,76,-8,184,-536,-487,-18
8960,81,-12,187,-579,-410,-3
8965,78,-14,196,-600,-307,6
8970,78,-12,195,-604,-204,6
8975,79,-8,202,-586,-117,5
8980,77,-8,206,-540,-49,-7
8985,70,4,212,-452,-2,-28
8990,64,10,213,-330,29,-50
8995,57,24,210,-217,35,-66
9000,48,33,206,-136,22,-77
9005,45,50,203,-95,1,-80
9010,37,57,203,-80,-10,-70
9015,33,68,200,-81,-13,-60
9020,25,69,199,-71,-7,-58
9025,17,73,194,-58,1,-67
9030,11,77,193,-40,21,-82
9035,10,74,187,-33,46,-98
9040,9,71,188,-44,66,-117
9045,8,70,179,-63,82,-141
9050,10,59,176,-79,88,-162
9055,24,43,174,-97,79,-190
9060,34,31,174,-106,71,-214
9065,33,14,175,-91,67,-227
9070,35,-4,187,-54,58,-218
9075,36,-18,194,3,44,-192
9080,39,-30,205,68,26,-154
9085,47,-38,227,130,8,-116
9090,45,-43,240,193,-4,-89
9095,50,-43,260,271,-4,-60
9100,51,-40,270,357,5,-39
9105,61,-29,286,441,19,-30
9110,63,-12,289,516,42,-28
9115,61,4,295,578,76,-29
9120,60,21,298,611,121,-36
9125,57,45,301,620,186,-35
9130,55,58,302,602,267,-30
9135,44,78,306,554,357,-21
9140,38,93,307,479,444,-10
9145,27,107,305,379,519,5
9150,23,114,311,259,578,22
9155,12,112,301,129,620,40
9160,2,107,292,5,654,59
9165,0,95,279,-102,678,74
9170,-3,82,273,-182,691,90
9175,-13,74,264,-239,690,105
9180,-21,61,255,-274,671,122
9185,-26,51,246,-303,630,136
9190,-35,41,243,-340,567,152
9195,-41,33,240,-382,494,160
9200,-43,22,234,-418,426,163
9205,-52,16,234,-441,370,160
9210,-52,10,229,-441,327,150
9215,-55,11,233,-417,307,136
9220,-59,11,230,-376,302,123
9225,-54,15,233,-329,308,112
9230,-59,16,237,-290,316,102
9235,-57,23,241,-265,317,97
9240,-57,24,250,-247,301,97
9245,-54,34,251,-232,269,100
9250,-53,39,256,-213,223,104
9255,-43,44,258,-187,174,105
9260,-23,49,246,-154,131,102
9265,-24,42,245,-126,109,91
9270,-4,41,247,-108,99,68
9275,10,37,243,-98,94,31
9280,14,28,243,-98,93,-19
9285,19,21,245,-97,89,-70
9290,23,20,236,-102,93,-111
9295,24,15,224,-124,122,-136
9300,16,10,220,-168,181,-154
9305,0,-8,213,-217,259,-173
9310,-25,-19,208,-257,336,-195
9315,-46,-38,201,-288,399,-208
9320,-63,-57,205,-324,443,-217
9325,-79,-69,210,-348,465,-225
9330,-96,-80,223,-366,455,-228
9335,-119,-96,241,-360,413,-221
9340,-137,-99,248,-278,319,-208
9345,-142,-103,248,-130,185,-183
9350,-143,-91,252,67,38,-155
9355,-134,-68,250,296,-105,-127
9360,-132,-40,249,499,-224,-86
9365,-122,-7,249,648,-314,-21
9370,-108,19,243,734,-385,65
9375,-84,48,246,755,-428,147
9380,-55,63,247,722,-443,214
9385,-26,73,247,655,-423,260
9390,-2,75,249,554,-369,279
9395,16,69,248,440,-287,277
9400,33,58,249,321,-180,257
9405,39,48,260,210,-71,220
9410,47,32,258,110,30,173
9415,44,13,263,29,116,119
9420,33,1,261,-36,187,63
9425,18,-9,262,-79,252,17
9430,1,-15,262,-104,314,-14
9435,-17,-13,260,-120,370,-30
9440,-29,-11,253,-133,417,-35
9445,-46,-1,251,-152,457,-32
9450,-54,3,249,-177,483,-22
9455,-62,8,245,-197,493,-1
9460,-64,10,245,-210,482,24
9465,-68,11,240,-214,449,54
9470,-68,12,235,-206,399,85
9475,-64,12,231,-194,335,111
9480,-55,13,234,-180,265,131
9485,-57,8,226,-170,194,139
9490,-52,6,222,-158,128,138
9495,-42,0,225,-145,68,128
9500,-36,-1,230,-125,13,118
9505,-29,-1,228,-95,-31,110
9510,-25,2,235,-58,-64,97
9515,-18,8,235,-21,-83,82
9520,-8,9,241,18,-88,63
9525,-6,17,238,55,-81,47
9530,-1,22,239,76,-65,34
9535,0,30,240,91,-40,20
9540,1,37,243,100,-6,6
9545,5,45,240,91,22,-9
9550,3,44,242,66,40,-25
9555,4,48,241,48,54,-36
9560,2,49,243,17,55,-52
9565,2,44,246,-18,47,-63
9570,-2,41,250,-48,41,-69
9575,-6,36,246,-69,33,-74
9580,-13,27,248,-73,30,-71
9585,-22,21,238,-63,28,-65
9590,-30,17,249,-54,17,-62
9595,-37,15,248,-40,-2,-54
9600,-44,11,248,-18,-23,-42
9605,-47,13,241,12,-43,-27
9610,-56,15,241,47,-58,-11
9615,-55,15,241,76,-64,3
9620,-56,22,242,89,-64,17
9625,-54,24,239,89,-56,31
9630,-54,28,239,82,-39,45
9635,-50,32,234,69,-19,57
9640,-47,31,239,59,4,68
9645,-40,37,245,58,27,74
9650,-33,36,240,54,44,75
9655,-29,38,249,51,58,70
9660,-22,39,248,44,62,65
9665,-16,38,249,30,59,63
9670,-12,38,248,21,53,61
9675,-9,39,249,17,47,47
9680,-10,41,252,8,38,36
9685,-9,38,252,-4,26,27
9690,-8,38,250,-15,14,16
9695,-14,33,250,-34,-2,5
9700,-13,37,252,-54,-19,-7
9705,-13,32,249,-67,-37,-21
9710,-12,27,252,-79,-44,-34
9715,-9,30,249,-87,-40,-42
9720,-10,27,250,-93,-30,-46
9725,-7,23,254,-98,-11,-44
9730,-10,21,254,-97,11,-44
9735,-8,20,252,-83,31,-41
9740,-10,17,248,-57,47,-42
9745,-9,16,247,-19,56,-39
9750,-8,20,247,25,62,-36
9755,-13,14,239,65,67,-33
9760,-10,14,238,94,71,-26
9765,-11,17,238,114,73,-20
9770,-9,20,233,120,81,-12
9775,-8,18,236,116,95,-1
9780,-9,17,236,102,110,7
9785,-10,19,239,85,123,15
9790,-12,15,240,68,132,24
9795,-17,23,243,57,136,31
9800,-18,23,243,49,136,39
9805,-23,22,246,44,128,47
9810,-25,22,242,43,116,52
9815,-21,26,258,48,100,58
9820,-23,29,249,54,84,61
9825,-19,29,249,61,65,64
9830,-48,21,228,68,47,65
9835,-40,27,247,71,28,69
9840,-40,24,251,72,16,74
9845,-36,21,245,70,4,79
9850,-42,29,243,65,-4,84
9855,-41,22,237,56,-5,85
9860,-36,23,249,44,-7,85
9865,-34,23,242,28,-3,81
9870,-36,23,243,9,7,76
9875,-33,24,243,-7,17,71
9880,-32,27,256,-21,27,64
9885,-22,22,244,-32,32,55
9890,-28,20,238,-37,35,45
9895,-27,21,244,-32,38,35
9900,-20,25,243,-23,37,23
9905,-30,26,237,-16,40,14
9910,-21,17,246,-9,39,6
9915,-19,28,244,-4,36,1
9920,-16,31,248,1,32,-5
9925,-10,30,245,6,29,-13
9930,-12,29,241,14,25,-18
9935,-10,31,244,20,29,-26
9940,-8,30,243,8,27,-32
9945,-4,31,242,-9,30,-35
9950,-6,34,244,-40,31,-35
9955,0,26,248,-68,36,-33
9960,4,30,243,-86,43,-32
9965,8,27,251,-96,50,-32
9970,-3,12,237,-91,54,-33
9975,-2,16,250,-71,56,-37
9980,-4,35,241,-40,55,-37
9985,-10,26,248,-4,50,-38
9990,-6,21,230,43,48,-32
9995,-13,25,236,91,50,-24
10000,-5,18,243,125,53,-19
10005,-13,17,249,129,51,-18
10010,-9,29,244,117,52,-11
10015,-8,28,242,123,69,-5
10020,-11,32,239,130,88,-1
10025,-13,31,241,115,98,0
10030,-11,33,233,97,101,3
10035,-15,34,243,65,94,5
10040,-11,43,245,43,84,6
10045,-16,34,241,17,72,3
10050,-23,28,242,5,64,1
10055,-25,34,245,-5,60,-1
10060,-13,31,262,-16,56,-4
10065,-15,35,263,-20,62,-8
10070,-25,31,253,-28,70,-8
10075,-30,31,243,-32,79,-6
10080,-29,20,258,-43,79,-7
10085,-26,27,248,-51,80,-2
10090,-32,28,246,-50,80,2
10095,-29,28,248,-40,83,4
10100,-31,28,251,-36,81,5
10105,-21,33,264,-28,76,8
10110,-26,29,247,-20,75,14
10115,-30,26,251,-8,73,17
10120,-23,23,253,0,71,19
10125,-17,36,246,9,68,18
10130,-15,19,239,16,67,15
10135,-24,21,248,15,65,16
10140,-15,25,251,18,64,13
10145,-15,23,237,21,64,7
10150,-15,22,241,19,62,3
10155,-12,22,233,12,61,3
10160,-17,23,242,3,59,1
10165,-16,27,245,-3,59,-1
10170,-18,26,243,-7,60,-2
10175,-21,24,243,-10,60,-2
10180,-18,23,249,-9,63,-4
10185,-16,27,244,-5,63,-5
10190,-21,31,254,0,62,-5
10195,-18,25,240,2,59,-4
10200,-41,21,241,4,58,-3
10205,-24,23,247,8,58,-2
10210,-17,23,248,12,64,0
10215,-16,31,239,20,70,2
10220,-21,34,242,26,77,4
10225,-10,24,247,24,78,4
10230,-23,33,253,11,75,4
10235,-24,33,244,-8,63,7
10240,-17,30,246,-23,53,9
10245,-17,25,244,-33,45,8
10250,-20,28,244,-40,40,9
10255,-19,21,236,-39,37,7
10260,-30,20,251,-29,38,5
10265,-27,18,238,-17,38,3
10270,-24,26,244,-5,44,3
10275,-14,25,244,4,47,2
10280,-30,24,247,11,50,2
10285,-18,21,241,13,51,4
10290,-26,26,240,15,49,6
10295,-19,22,246,9,44,6
10300,-17,23,243,4,41,5
10305,-25,27,230,8,43,4
10310,-19,26,242,11,46,1
10315,-20,30,242,11,50,-2
10320,-20,29,239,13,56,-3
10325,-20,33,243,8,56,-3
10330,-14,28,246,3,58,-1
10335,-19,31,244,1,60,-1
10340,-16,29,247,-3,59,-3
10345,-15,31,247,-8,60,-4
10350,-13,28,246,-11,60,-6
10355,-19,25,247,-7,63,-7
10360,-12,31,243,-7,63,-7
10365,-17,29,244,-14,62,-7
10370,-16,31,245,-17,60,-6
10375,-11,28,247,-16,61,-7
10380,-16,30,245,-15,61,-8
10385,-14,27,243,-9,62,-9
10390,-14,25,246,-4,67,-9
10395,-17,29,243,1,67,-8
10400,-15,22,244,0,65,-7
10405,-18,30,247,-4,64,-6
10410,-15,28,242,-1,65,-7
10415,-14,28,241,1,66,-7
10420,-15,30,247,-2,66,-8
10425,-17,31,245,-4,67,-7
10430,-20,29,248,-6,64,-7
10435,-17,28,244,-4,62,-4
10440,-20,31,244,0,61,-2
10445,-20,27,247,2,58,-2
10450,-22,29,243,3,55,-1
10455,-21,34,244,2,52,1
10460,-8,29,237,2,47,2
10465,-19,29,244,3,43,4
10470,-20,27,245,4,42,4
10475,-15,29,247,2,36,4
10480,-17,32,245,-5,32,3
10485,-18,29,244,-13,27,5
10490,-17,31,243,-10,31,3
10495,-14,29,244,-4,40,-2
10500,-16,27,243,-2,47,-6
10505,-16,28,245,-5,53,-5
10510,-16,29,242,-10,55,-6
10515,-15,30,244,-15,58,-7
10520,-16,31,245,-20,57,-8
10525,-17,29,246,-26,57,-6
10530,-14,27,247,-27,58,-5
10535,-20,28,242,-26,58,-2
10540,-20,28,242,-28,53,0
10545,-15,27,246,-25,50,1
10550,-18,24,243,-18,46,3
10555,-15,28,247,-12,42,4
10560,-16,29,243,-8,39,6
10565,-16,24,248,-3,39,5
10570,-15,29,245,-1,41,5
10575,-17,27,245,-1,43,3
10580,-18,29,245,0,45,2
10585,-18,30,243,0,47,1
10590,-17,31,245,-2,53,-4
10595,-18,32,243,-7,58,-5
10600,-16,29,244,-12,63,-6
10605,-18,32,241,-14,73,-9
10610,-14,29,244,-15,79,-9
10615,-20,28,241,-11,82,-10
10620,-21,28,246,-3,80,-9
10625,-21,25,246,9,79,-10
10630,-21,26,241,25,78,-9
10635,-20,28,243,38,76,-10
10640,-20,27,243,47,73,-10
10645,-18,27,242,49,73,-8
10650,-20,29,246,46,76,-9
10655,-20,28,248,41,82,-9
10660,-14,27,249,35,91,-12
10665,-17,31,245,30,101,-12
10670,-17,28,242,29,107,-13
10675,-21,24,245,35,110,-12
10680,-17,26,239,36,104,-10
10685,-18,28,241,34,91,-6
10690,-20,28,245,31,73,-4
10695,-16,30,240,24,56,-5
10700,-19,32,239,16,36,-4
10705,-18,33,243,2,21,0
10710,-19,32,242,-17,11,2
10715,-18,32,243,-36,4,4
10720,-16,33,245,-46,6,7
10725,-17,30,241,-53,11,8
10730,-14,32,248,-54,20,8
10735,-15,33,244,-54,31,7
10740,-14,32,249,-48,42,7
10745,-14,29,247,-39,54,5
10750,-16,29,246,-34,61,5
10755,-16,32,251,-29,65,4
10760,-16,26,246,-25,67,5
10765,-15,30,245,-20,66,5
10770,-14,31,243,-14,68,3
10775,-13,29,246,-12,70,1
10780,-14,29,245,-10,69,2
10785,-22,24,244,-10,69,-2
10790,-13,27,245,-8,70,-1
10795,-15,27,243,5,80,-4
10800,-15,32,245,1,79,-4
10805,-17,33,243,-12,74,-5
10810,-16,31,242,-24,68,-2
10815,-14,28,244,-37,62,-2
10820,-20,30,246,-49,61,1
10825,-18,29,244,-56,62,-2
10830,-16,30,246,-58,64,-4
10835,-18,25,247,-58,66,-8
10840,-20,30,245,-55,72,-8
10845,-20,31,247,-54,77,-8
10850,-16,29,246,-53,79,-8
10855,-18,29,249,-54,81,-8
10860,-20,33,246,-59,83,-5
10865,-17,32,252,-62,85,-4
10870,-18,28,247,-68,90,-3
10875,-17,29,247,-72,93,-2
10880,-19,32,246,-75,97,-1
10885,-20,31,243,-79,100,-2
10890,-18,28,249,-82,103,-2
10895,-22,27,240,-88,104,-4
10900,-15,31,247,-96,103,-4
10905,-18,29,248,-100,102,-4
10910,-17,28,249,-103,105,-6
10915,-18,31,246,-108,107,-6
10920,-17,25,246,-109,112,-7
10925,-15,25,245,-112,119,-7
10930,-17,26,247,-115,124,-5
10935,-16,22,244,-114,133,-5
10940,-19,27,246,-115,141,-6
10945,-19,25,244,-117,143,-3
10950,-21,26,248,-123,142,-2
10955,-20,26,245,-128,136,-1
10960,-19,22,244,-130,132,-2
10965,-20,24,246,-129,128,-3
10970,-23,29,245,-130,125,0
10975,-19,25,245,-129,121,0
10980,-20,26,242,-129,119,1
10985,-18,23,245,-126,120,2
10990,-21,22,247,-124,122,1
10995,-19,26,242,-122,120,2
11000,-20,23,245,-121,120,5
11005,-20,24,240,-121,121,5
11010,-19,24,244,-119,120,5
11015,-17,26,241,-120,118,8
11020,-20,21,244,-122,117,9
11025,-19,23,241,-125,115,8
11030,-16,23,247,-124,115,9
11035,-18,20,247,-123,116,9
11040,-18,25,244,-118,117,11
11045,-16,22,247,-117,116,9
11050,-16,25,247,-122,114,8
11055,-20,26,247,-126,111,7
11060,-17,23,245,-129,110,8
11065,-21,25,246,-133,111,8
11070,-19,28,244,-137,111,8
11075,-17,23,247,-143,112,9
11080,-20,19,248,-143,115,9
11085,-20,20,247,-142,114,9
11090,-20,19,250,-143,113,9
11095,-23,21,249,-142,111,8
11100,-18,17,247,-137,109,8
11105,-18,20,245,-125,109,7
11110,-13,20,246,-113,111,6
11115,-18,18,242,-101,110,7
11120,-22,22,247,-91,110,6
11125,-21,20,242,-82,109,4
11130,-23,19,240,-74,106,4
11135,-20,18,245,-70,104,6
11140,-24,22,242,-64,102,4
11145,-22,22,244,-63,101,4
11150,-23,21,247,-64,98,3
11155,-23,19,242,-67,96,2
11160,-24,20,243,-74,93,0
11165,-21,20,243,-83,89,-2
11170,-22,22,246,-90,87,-6
11175,-20,18,244,-96,87,-7
11180,-20,19,245,-103,90,-7
11185,-20,21,244,-108,93,-7
11190,-20,20,243,-113,99,-6
11195,-21,21,248,-114,103,-5
11200,-24,18,243,-114,109,-3
11205,-18,18,244,-113,114,-2
11210,-21,16,246,-109,118,1
11215,-24,14,242,-104,118,2
11220,-23,26,247,-100,115,4
11225,-24,16,246,-96,112,5
11230,-25,17,247,-94,109,5
11235,-24,18,245,-90,106,5
11240,-23,15,249,-90,102,5
11245,-22,21,249,-91,99,3
11250,-23,20,244,-93,96,-1
11255,-24,19,245,-92,96,-4
11260,-22,16,246,-90,94,-6
11265,-21,17,245,-82,95,-9
11270,-22,18,247,-67,97,-11
11275,-19,15,243,-47,100,-12
11280,-18,15,241,-24,106,-12
11285,-20,14,242,-1,112,-10
11290,-24,14,245,23,116,-8
11295,-25,15,241,42,120,-6
11300,-25,15,242,55,120,-6
11305,-26,13,242,62,117,-4
11310,-29,19,243,62,110,-4
11315,-27,17,240,55,103,-5
11320,-28,18,243,37,95,-4
11325,-25,20,242,11,89,-3
11330,-26,16,246,-18,86,-1
11335,-25,17,245,-43,87,1
11340,-21,16,244,-62,92,2
11345,-24,18,242,-75,95,4
11350,-22,15,245,-80,99,7
11355,-24,15,242,-82,102,9
11360,-23,16,247,-83,101,10
11365,-22,14,245,-82,98,10
11370,-24,14,245,-81,93,11
11375,-23,14,243,-82,86,8
11380,-21,17,245,-79,81,6
11385,-20,16,244,-77,78,7
11390,-23,18,246,-75,79,6
11395,-21,15,244,-68,80,5
11400,-21,19,249,-57,83,2
11405,-22,13,242,-45,88,2
11410,-22,17,247,-30,91,3
11415,-24,17,246,-13,93,4
11420,-27,17,243,3,94,5
11425,-24,17,245,17,94,6
11430,-25,14,242,28,93,5
11435,-28,16,244,35,91,5
11440,-30,19,253,36,88,3
11445,-26,18,245,31,85,1
11450,-24,18,244,23,80,0
11455,-22,16,244,11,76,0
11460,-25,18,245,-1,70,-3
11465,-26,21,243,-14,68,-6
11470,-29,16,242,-28,65,-6
11475,-26,20,241,-41,64,-5
11480,-23,20,245,-55,65,-3
11485,-23,13,243,-65,66,-3
11490,-24,17,246,-74,66,-1
11495,-26,16,245,-81,67,-1
11500,-22,13,245,-82,66,0
11505,-25,16,248,-80,67,1
11510,-26,13,247,-73,70,0
11515,-23,13,248,-60,72,-2
11520,-26,12,248,-44,74,-3
11525,-25,11,244,-30,75,-4
11530,-24,14,241,-18,78,-4
11535,-21,13,244,-8,82,-3
11540,-27,15,244,-4,86,-1
11545,-21,16,242,-4,90,1
11550,-19,21,244,-9,95,2
11555,-22,16,244,-16,96,6
11560,-19,12,244,-25,97,7
11565,-23,16,247,-31,94,8
11570,-21,17,245,-33,90,6
11575,-20,15,243,-35,85,6
11580,-21,13,248,-35,83,6
11585,-26,13,245,-31,81,4
11590,-26,11,245,-22,80,3
11595,-22,13,241,-12,78,0
11600,-24,11,244,-1,79,2
11605,-23,12,247,9,80,1
11610,-23,12,245,16,79,0
11615,-26,15,244,16,77,1
11620,-25,14,244,11,77,3
11625,-28,15,246,3,76,2
11630,-24,13,244,-8,72,1
11635,-25,15,248,-21,72,1
11640,-21,15,243,-33,71,1
11645,-26,19,244,-44,70,-1
11650,-22,15,247,-54,70,-1
11655,-20,19,254,-59,69,-2
11660,-25,14,245,-60,68,-2
11665,-22,15,242,-57,69,-4
11670,-26,20,245,-50,69,-2
11675,-24,16,242,-42,69,-3
11680,-27,17,243,-31,67,-6
11685,-26,16,247,-22,67,-6
11690,-27,15,243,-13,68,-8
11695,-23,18,241,-7,71,-8
11700,-25,18,245,-7,72,-6
11705,-23,19,242,-10,74,-5
11710,-26,16,245,-17,76,-4
11715,-24,18,240,-23,79,-4
11720,-24,16,244,-28,78,-2
11725,-27,18,244,-30,79,-1
11730,-23,11,242,-30,78,-1
11735,-21,15,245,-23,78,0
11740,-22,13,242,-15,78,0
11745,-20,12,241,-5,76,-1
11750,-24,13,240,6,77,0
11755,-26,13,240,15,76,0
11760,-21,19,240,22,76,1
11765,-20,15,246,26,76,1
11770,-24,16,240,26,73,1
11775,-26,14,243,27,71,2
11780,-25,17,241,26,71,2
11785,-26,14,244,23,69,0
11790,-28,15,245,23,67,-1
11795,-24,13,243,22,64,-1
11800,-24,16,245,21,62,-1
11805,-24,14,246,21,61,-2
11810,-22,15,246,20,56,-3
11815,-24,13,241,16,56,-3
11820,-28,18,239,10,56,-4
11825,-23,15,243,2,56,-4
11830,-25,16,244,-6,55,-4
11835,-23,14,241,-14,56,-3
11840,-25,14,242,-20,56,-3
11845,-23,13,244,-24,59,-1
11850,-25,17,242,-26,57,1
11855,-24,15,242,-25,57,0
11860,-26,17,248,-19,57,1
11865,-24,14,245,-11,56,1
11870,-27,13,247,-2,54,-1
11875,-26,8,247,4,52,-1
11880,-26,17,244,6,47,1
11885,-26,12,241,4,46,2
11890,-23,15,245,-4,45,2
11895,-23,16,243,-15,47,1
11900,-25,18,245,-30,48,2
11905,-24,16,246,-45,49,4
11910,-19,17,244,-54,53,5
11915,-21,15,247,-53,57,3
11920,-25,16,243,-42,60,2
11925,-22,16,247,-24,65,-3
11930,-23,13,249,0,69,-4
11935,-23,16,244,22,72,-6
11940,-24,14,244,38,70,-7
11945,-27,16,243,46,69,-5
11950,-24,15,243,47,68,-5
11955,-27,17,242,43,68,-5
11960,-27,16,244,34,67,-5
11965,-25,14,243,24,68,-3
11970,-29,14,242,13,67,-2
11975,-29,13,246,1,67,-2
11980,-28,16,247,-13,68,-1
11985,-29,19,249,-27,67,-2
11990,-25,13,251,-38,67,-2
11995,-24,14,247,-44,67,-3
12000,-23,15,244,-44,70,-3
12005,-22,14,248,-37,74,-3
12010,-26,14,247,-27,74,-3
12015,-21,14,241,-16,75,-3
12020,-22,16,245,-3,74,-4
12025,-25,14,242,5,68,-5
12030,-24,15,246,10,63,-5
12035,-24,14,244,13,58,-6
12040,-20,14,243,13,54,-8
12045,-25,17,245,12,52,-7
12050,-24,17,244,10,53,-8
12055,-23,18,242,11,55,-8
12060,-25,19,242,15,57,-9
12065,-21,16,245,18,56,-9
12070,-24,17,242,22,56,-7
12075,-22,15,243,28,56,-5
12080,-27,16,245,33,53,-5
12085,-25,19,245,36,52,-5
12090,-24,19,240,37,48,-5
12095,-23,17,242,35,48,-4
12100,-22,16,245,33,48,-3
12105,-23,17,246,30,49,-3
12110,-21,17,243,25,49,-4
12115,-23,19,245,18,48,-6
12120,-22,16,245,14,47,-5
12125,-23,19,245,12,45,-6
12130,-27,21,243,10,46,-7
12135,-23,18,242,10,46,-5
12140,-22,16,242,6,46,-6
12145,-23,19,241,2,45,-5
12150,-24,16,244,-1,45,-4
12155,-22,19,244,-7,48,-3
12160,-24,16,248,-8,50,-4
12165,-24,17,248,-9,52,-4
12170,-26,17,245,-10,55,-6
12175,-24,15,249,-6,60,-5
12180,-25,13,243,1,63,-6
12185,-25,14,246,9,63,-8
12190,-26,15,246,14,62,-8
12195,-26,16,246,16,58,-8
12200,-24,20,247,15,54,-6
12205,-23,16,243,11,50,-7
12210,-25,16,246,4,50,-3
12215,-22,18,241,-2,51,-1
12220,-26,18,242,-11,51,0
12225,-24,17,246,-19,51,-1
12230,-22,17,242,-26,49,-2
12235,-24,17,247,-31,48,-2
12240,-21,18,246,-33,48,-2
12245,-22,15,244,-30,50,-2
12250,-21,16,245,-26,52,-3
12255,-23,15,248,-19,54,-6
12260,-23,16,244,-9,57,-6
12265,-22,14,247,2,58,-4
12270,-23,13,246,14,62,-6
12275,-24,18,245,25,61,-5
12280,-25,17,245,31,58,-5
12285,-21,14,243,34,58,-5
12290,-20,15,246,35,58,-4
12295,-22,14,242,34,59,-3
12300,-21,15,242,32,59,-2
12305,-23,19,241,24,61,-3
12310,-27,15,248,17,60,-4
12315,-21,15,244,8,60,-3
12320,-21,19,244,-1,57,-3
12325,-25,19,244,-6,55,-2
12330,-20,19,246,-12,51,-1
12335,-23,19,245,-9,52,-2
12340,-22,19,243,-4,51,-5
12345,-22,19,247,-2,49,-6
12350,-20,18,246,-4,47,-5
12355,-21,21,245,-5,46,-5
12360,-24,18,243,-3,49,-5
12365,-22,19,245,-5,52,-4
12370,-20,17,247,-7,55,-3
12375,-22,16,244,-8,57,-2
12380,-21,19,245,-10,57,-2
12385,-22,16,244,-13,57,-2
12390,-24,19,247,-14,56,-1
12395,-20,16,247,-11,57,-1
12400,-23,17,247,-8,58,0
12405,-24,19,246,-3,56,-1
12410,-22,16,244,3,56,-1
12415,-21,16,241,10,57,-1
12420,-27,17,244,14,59,-1
12425,-21,18,246,15,61,-1
12430,-22,21,243,15,60,0
12435,-23,17,245,13,57,0
12440,-23,16,243,10,56,-1
12445,-25,23,242,8,55,-2
12450,-21,17,244,5,54,-1
12455,-21,19,242,1,51,-2
12460,-23,17,243,-1,51,-3
12465,-22,18,245,1,53,-2
12470,-22,17,247,4,54,-3
12475,-23,18,247,8,57,-2
12480,-19,15,242,13,58,-2
12485,-24,18,243,18,59,-1
12490,-21,18,241,20,55,-1
12495,-22,18,243,20,54,0
12500,-22,19,246,22,53,-1
12505,-23,20,244,20,52,0
12510,-20,21,243,18,48,1
12515,-22,20,245,16,48,1
12520,-24,17,245,13,48,-1
12525,-21,21,244,11,49,-1
12530,-22,17,244,8,51,-3
12535,-22,17,249,4,52,-2
12540,-21,18,246,-2,54,-1
12545,-21,20,247,-12,57,-1
12550,-19,18,242,-23,58,-1
12555,-19,19,241,-35,60,1
12560,-19,22,245,-42,63,0
12565,-18,19,247,-46,69,0
12570,-18,16,247,-45,75,-2
12575,-19,19,247,-40,82,-3
12580,-22,16,247,-33,86,-3
12585,-24,20,251,-26,88,-1
12590,-23,14,245,-20,84,1
12595,-23,20,245,-18,78,1
12600,-21,21,246,-18,70,1
12605,-19,20,243,-24,61,-1
12610,-23,18,246,-28,51,-5
12615,-21,20,243,-29,44,-6
12620,-18,17,243,-26,35,-8
12625,-23,19,242,-20,30,-8
12630,-23,18,245,-13,27,-7
12635,-20,16,241,-7,27,-6
12640,-19,15,242,-3,31,-5
12645,-22,18,243,-1,38,-5
12650,-21,18,241,0,49,-6
12655,-24,19,241,2,59,-7
12660,-21,15,244,7,69,-9
12665,-24,16,242,14,74,-11
12670,-22,17,243,22,77,-11
12675,-24,16,245,30,78,-12
12680,-25,16,243,37,81,-11
12685,-23,16,246,45,83,-11
12690,-22,12,240,53,88,-7
12695,-23,15,246,61,96,-5
12700,-22,18,244,69,102,-4
12705,-20,17,240,79,107,-3
12710,-24,15,239,90,108,-1
12715,-22,18,241,99,105,-2
12720,-21,17,241,97,93,0
12725,-23,20,237,89,78,0
12730,-24,21,241,76,61,0
12735,-22,25,240,58,42,0
12740,-20,24,241,40,27,1
12745,-24,19,247,19,18,0
12750,-22,23,242,-1,10,0
12755,-25,22,245,-11,10,0
12760,-21,21,244,-17,13,-3
12765,-18,22,245,-20,15,0
12770,-19,21,243,-18,19,-2
12775,-20,24,243,-13,25,-1
12780,-21,23,245,-4,31,1
12785,-23,23,249,1,37,2
12790,-18,21,247,4,42,4
12795,-18,20,246,8,46,4
12800,-18,20,245,11,54,3
12805,-19,22,247,14,59,1
12810,-19,22,247,17,65,-1
12815,-19,19,246,16,69,-3
12820,-23,24,248,11,70,-4
12825,-22,22,246,3,67,-5
12830,-22,24,247,-9,59,-7
12835,-20,22,243,-12,55,-5
12840,-22,22,238,-17,53,-4
12845,-20,18,243,-17,54,-5
12850,-21,18,245,-14,55,-3
12855,-20,26,247,-12,55,-3
12860,-20,18,244,-16,54,-4
12865,-19,17,247,-16,52,-2
12870,-20,19,247,-15,53,-1
12875,-20,19,246,-11,51,-1
12880,-24,20,245,-7,52,-2
12885,-20,19,246,-4,51,-3
12890,-21,18,246,1,50,-2
12895,-19,17,245,7,51,-2
12900,-20,17,244,17,55,-1
12905,-19,20,244,23,56,-2
12910,-18,20,241,24,56,-1
12915,-20,24,242,25,54,3
12920,-20,20,244,20,51,3
12925,-19,20,243,14,49,4
12930,-21,23,244,8,47,6
12935,-20,23,246,0,46,5
12940,-19,22,242,-8,45,3
12945,-19,19,247,-13,44,2
12950,-19,22,245,-18,44,0
12955,-21,20,245,-17,46,-3
12960,-20,20,245,-11,48,-7
12965,-21,18,248,-4,51,-8
12970,-19,19,242,9,54,-9
12975,-21,17,244,19,58,-11
12980,-23,19,244,27,62,-11
12985,-22,23,241,30,63,-8
12990,-21,22,242,28,64,-8
12995,-20,21,243,26,64,-8
13000,-20,22,243,23,66,-8
13005,-20,20,244,17,63,-7
13010,-20,22,248,7,61,-6
13015,-21,21,245,0,58,-6
13020,-22,21,244,-4,55,-6
13025,-20,24,243,-8,53,-6
13030,-21,25,249,-13,47,-5
13035,-20,22,247,-15,43,-5
13040,-18,23,247,-14,41,-5
13045,-20,20,245,-13,35,-4
13050,-19,21,245,-11,34,-4
13055,-19,24,244,-10,32,-4
13060,-18,20,247,-2,35,-5
13065,-20,20,247,8,44,-5
13070,-18,21,246,12,50,-5
13075,-19,30,246,17,59,-5
13080,-19,21,248,12,60,-4
13085,-19,24,242,2,60,-2
13090,-19,22,247,-6,57,0
13095,-21,27,244,-16,54,0
13100,-18,22,246,-22,51,0
13105,-21,22,246,-21,53,0
13110,-18,21,242,-16,56,0
13115,-18,22,247,-11,59,0
13120,-20,22,247,-4,62,0
13125,-18,23,244,-3,64,0
13130,-20,23,247,-2,66,2
13135,-19,25,248,-4,65,2
13140,-18,25,244,-7,64,0
13145,-19,21,243,-14,61,-1
13150,-19,24,250,-21,60,-1
13155,-19,22,247,-26,61,-3
13160,-19,20,242,-30,61,-4
13165,-17,23,245,-30,64,-4
13170,-19,21,242,-30,67,-5
13175,-22,23,243,-31,68,-5
13180,-14,16,248,-30,68,-5
13185,-18,20,243,-28,67,-4
13190,-20,21,241,-25,67,-3
13195,-18,20,245,-19,66,-4
13200,-18,18,244,-11,63,-3
13205,-20,20,244,-1,59,-4
13210,-18,19,242,7,57,-4
13215,-22,20,244,12,53,-5
13220,-19,21,242,10,51,-5
13225,-20,24,244,6,50,-3
13230,-22,25,245,-1,47,-3
13235,-20,24,246,-10,48,-4
13240,-20,21,246,-18,47,-4
13245,-17,21,244,-25,50,-4
13250,-19,22,245,-29,52,-3
13255,-19,21,243,-31,54,-3
13260,-18,25,244,-30,55,-5
13265,-18,20,244,-32,53,-2
13270,-19,20,247,-33,52,-1
13275,-17,21,242,-33,52,-1
13280,-18,17,245,-35,54,-1
13285,-16,22,247,-37,56,-2
13290,-19,21,241,-41,61,-1
13295,-15,20,245,-45,63,0
13300,-14,20,247,-47,66,1
13305,-17,22,245,-44,69,0
13310,-19,22,245,-40,69,1
13315,-19,21,246,-33,67,0
13320,-20,22,244,-26,65,-1
13325,-17,18,247,-17,63,-3
13330,-20,21,246,-9,58,-3
13335,-22,20,245,-2,55,-1
13340,-17,20,245,4,53,-1
13345,-20,22,247,7,49,1
13350,-19,19,244,7,45,1
13355,-19,21,242,5,44,0
13360,-17,22,244,-1,45,-1
13365,-21,22,246,-5,45,-3
13370,-19,24,246,-7,45,-7
13375,-19,26,246,-8,46,-9
13380,-20,24,246,-7,48,-11
13385,-18,24,246,-6,52,-11
13390,-19,26,246,-6,58,-11
13395,-18,23,244,-6,67,-10
13400,-15,17,240,-8,76,-10
13405,-19,21,247,-7,85,-11
13410,-19,21,242,-5,93,-12
13415,-17,19,242,2,98,-13
13420,-19,18,245,12,97,-13
13425,-18,18,249,23,95,-13
13430,-21,16,245,33,90,-15
13435,-18,20,244,40,87,-14
13440,-21,17,247,43,87,-14
13445,-19,18,245,41,92,-13
13450,-21,24,240,40,99,-9
13455,-18,21,241,42,107,-8
13460,-20,19,239,44,112,-4
13465,-19,18,237,47,114,-2
13470,-20,21,242,49,110,0
13475,-18,22,241,50,100,3
13480,-19,21,237,47,86,4
13485,-22,24,241,34,65,5
13490,-21,22,245,19,43,6
13495,-18,25,244,8,28,6
13500,-16,24,245,-4,16,4
13505,-18,23,244,-14,7,3
13510,-17,23,250,-17,7,2
13515,-15,23,247,-23,9,0
13520,-17,22,248,-31,14,0
13525,-15,23,250,-33,22,2
13530,-16,26,246,-34,31,4
13535,-15,24,249,-35,41,6
13540,-15,26,249,-37,52,6
13545,-14,26,249,-40,62,5
13550,-14,24,249,-44,72,3
13555,-15,24,246,-45,80,1
13560,-16,26,247,-48,87,-2
13565,-16,24,247,-49,93,-4
13570,-19,28,247,-49,95,-5
13575,-15,22,245,-48,98,-6
13580,-19,23,246,-50,99,-6
13585,-18,20,246,-51,99,-6
13590,-22,22,244,-52,98,-7
13595,-15,22,243,-54,96,-8
13600,-21,25,250,-57,93,-7
13605,-20,23,251,-61,93,-7
13610,-21,25,249,-65,90,-7
13615,-22,21,246,-71,86,-8
13620,-21,20,244,-75,85,-6
13625,-19,22,245,-78,83,-4
13630,-18,18,247,-79,84,-3
13635,-18,22,248,-80,82,-2
13640,-19,22,248,-83,81,-3
13645,-18,22,249,-84,84,-3
13650,-20,20,246,-83,87,-3
13655,-17,20,247,-85,87,-4
13660,-19,21,244,-84,91,-4
13665,-17,21,245,-81,96,-2
13670,-19,19,244,-82,99,-4
13675,-16,20,244,-82,102,-4
13680,-18,22,244,-89,102,0
13685,-19,20,245,-97,99,0
13690,-17,20,247,-107,98,0
13695,-19,21,245,-116,94,-1
13700,-19,21,246,-119,92,-2
13705,-19,18,248,-111,94,-1
13710,-19,18,242,-106,93,-4
13715,-20,19,243,-95,97,-4
13720,-21,17,243,-83,101,-6
13725,-24,11,242,-79,99,-8
13730,-22,19,244,-78,99,-5
13735,-21,15,245,-73,100,-4
13740,-22,16,245,-67,102,-5
13745,-18,16,243,-63,103,-4
13750,-22,16,247,-65,101,-6
13755,-22,17,247,-72,97,-5
13760,-23,20,243,-80,94,-6
13765,-20,14,242,-90,91,-4
13770,-22,17,246,-98,91,-6
13775,-21,18,249,-104,91,-6
13780,-22,18,243,-114,91,-7
13785,-22,18,247,-120,91,-7
13790,-18,19,246,-124,90,-8
13795,-18,17,250,-125,90,-7
13800,-18,18,247,-125,88,-7
13805,-20,16,248,-119,87,-8
13810,-17,16,245,-110,91,-7
13815,-20,14,245,-97,95,-7
13820,-20,14,246,-84,99,-7
13825,-19,14,245,-77,102,-7
13830,-20,14,245,-71,107,-5
13835,-20,19,242,-68,110,-4
13840,-19,14,244,-68,111,-3
13845,-21,15,245,-71,112,-2
13850,-20,17,245,-75,110,0
13855,-20,18,245,-79,109,-1
13860,-21,14,244,-84,109,-1
13865,-20,20,244,-89,108,-2
13870,-21,16,246,-93,106,-1
13875,-22,15,251,-95,105,-1
13880,-20,17,247,-95,105,-1
13885,-20,14,244,-92,106,-2
13890,-18,11,248,-86,108,-1
13895,-17,13,244,-80,111,1
13900,-19,13,245,-73,113,0
13905,-19,14,247,-62,117,-2
13910,-22,11,245,-53,121,-1
13915,-19,13,243,-40,125,-1
13920,-22,14,244,-31,126,-1
13925,-22,16,249,-24,127,-1
13930,-22,13,241,-19,126,-1
13935,-23,13,244,-17,119,0
13940,-23,17,240,-20,112,-2
13945,-19,15,246,-25,102,-5
13950,-23,15,242,-32,94,-5
13955,-22,14,244,-43,86,-4
13960,-22,14,245,-57,79,-3
13965,-23,15,241,-68,75,-2
13970,-23,16,243,-77,75,0
13975,-21,12,249,-84,76,-1
13980,-25,11,246,-86,78,-1
13985,-23,13,246,-85,84,-1
13990,-22,14,247,-83,87,-1
13995,-18,11,244,-79,93,0
14000,-23,12,243,-75,97,-1
14005,-22,10,248,-71,101,0
14010,-22,10,241,-63,105,-1
14015,-23,10,248,-56,107,-1
14020,-22,8,246,-51,105,-1
14025,-25,11,244,-45,107,-2
14030,-24,14,242,-41,107,-1
14035,-23,9,246,-38,108,-3
14040,-23,15,247,-33,108,-2
14045,-22,11,245,-30,109,-2
14050,-25,9,242,-32,108,-2
14055,-20,15,246,-35,106,-2
14060,-23,12,247,-37,103,-1
14065,-24,11,245,-38,101,-1
14070,-21,12,246,-40,98,-2
14075,-21,12,246,-42,98,-3
14080,-22,15,245,-43,98,-3
14085,-21,11,246,-44,99,-3
14090,-24,13,246,-42,101,0
14095,-23,12,245,-46,100,0
14100,-23,10,247,-50,100,2
14105,-23,11,248,-51,99,1
14110,-23,13,244,-45,97,2
14115,-23,10,244,-40,97,2
14120,-25,11,245,-33,93,1
14125,-25,9,243,-26,90,1
14130,-21,13,243,-19,88,-1
14135,-26,13,243,-17,86,0
14140,-26,14,243,-18,86,0
14145,-25,13,242,-25,84,2
14150,-24,13,243,-34,84,2
14155,-25,11,246,-43,83,1
14160,-15,11,240,-46,84,-1
14165,-25,15,246,-44,85,-1
14170,-21,12,244,-38,83,-3
14175,-20,14,245,-26,84,-5
14180,-22,11,247,-8,85,-4
14185,-21,9,242,10,89,-5
14190,-21,10,242,28,93,-4
14195,-22,9,239,44,97,-3
14200,-25,9,242,55,101,-3
14205,-25,10,246,64,104,-3
14210,-26,10,245,67,105,-3
14215,-26,10,245,67,106,-4
14220,-26,11,244,60,105,-4
14225,-26,11,246,48,105,-6
14230,-23,9,241,28,102,-4
14235,-27,13,243,7,105,-3
14240,-26,8,247,-13,107,-1
14245,-25,10,245,-29,111,-1
14250,-23,11,242,-42,112,0
14255,-24,9,246,-51,111,2
14260,-24,10,246,-55,112,3
14265,-24,11,247,-52,110,3
14270,-25,11,243,-48,105,3
14275,-25,10,245,-41,101,2
14280,-23,9,245,-32,94,1
14285,-24,10,246,-21,89,0
14290,-24,10,245,-11,86,2
14295,-23,10,244,2,84,1
14300,-23,13,243,16,83,3
14305,-23,10,243,31,82,3
14310,-23,11,244,47,84,3
14315,-24,9,246,61,83,3
14320,-24,15,243,75,81,3
14325,-28,17,241,85,78,4
14330,-28,13,242,90,73,3
14335,-25,14,240,89,71,2
14340,-27,16,243,83,70,0
14345,-26,15,240,73,69,1
14350,-26,18,243,58,69,1
14355,-27,15,239,43,70,-1
14360,-27,16,245,27,71,0
14365,-23,15,244,13,72,-2
14370,-25,16,242,-3,73,-2
14375,-22,20,240,-17,72,-2
14380,-24,14,245,-28,73,-4
14385,-24,14,243,-40,71,-2
14390,-25,12,246,-49,70,-2
14395,-26,12,244,-53,68,-2
14400,-26,12,245,-54,67,-2
14405,-28,11,245,-50,68,-2
14410,-25,10,243,-43,70,-1
14415,-28,11,247,-32,71,-2
14420,-29,10,243,-19,71,-1
14425,-28,14,248,-8,73,-3
14430,-25,9,244,4,73,-2
14435,-25,11,243,10,72,-4
14440,-25,14,244,13,70,-5
14445,-24,13,244,14,71,-4
14450,-27,13,242,9,72,-5
14455,-27,17,242,0,74,-2
14460,-25,16,243,-11,76,-1
14465,-24,14,244,-20,77,1
14470,-26,14,243,-30,79,1
14475,-22,13,242,-38,78,3
14480,-24,11,243,-43,76,4
14485,-25,13,247,-44,72,4
14490,-24,13,240,-46,68,3
14495,-26,14,244,-41,67,1
14500,-23,12,244,-36,68,-1
14505,-25,10,245,-29,68,-3
14510,-27,10,244,-15,69,-5
14515,-27,12,240,-4,72,-4
14520,-26,11,245,7,75,-6
14525,-25,9,241,12,78,-6
14530,-26,10,246,12,80,-7
14535,-28,16,244,8,80,-6
14540,-28,11,242,2,81,-6
14545,-24,8,233,-5,80,-5
14550,-28,15,245,-12,81,-7
14555,-26,14,244,-17,82,-5
14560,-28,14,245,-21,82,-3
14565,-24,13,242,-22,83,-2
14570,-25,14,248,-22,83,-1
14575,-26,14,243,-19,82,-1
14580,-24,14,245,-12,80,0
14585,-25,14,241,-5,77,-1
14590,-25,14,244,5,76,-2
14595,-25,13,242,13,72,-5
14600,-27,11,235,17,72,-5
14605,-26,16,241,19,71,-6
14610,-24,12,242,16,71,-6
14615,-27,17,245,11,71,-5
14620,-25,14,243,4,73,-3
14625,-22,11,241,-3,75,-3
14630,-24,15,241,-8,77,-1
14635,-25,12,243,-10,78,0
14640,-26,12,243,-10,77,0
14645,-25,13,239,-7,78,-1
14650,-27,16,244,-3,74,0
14655,-24,15,243,3,72,-1
14660,-23,13,241,7,70,-1
14665,-27,14,243,8,71,-1
14670,-26,15,245,8,69,-1
14675,-25,16,244,7,70,-3
14680,-29,14,243,6,70,-2
14685,-27,14,243,6,71,-1
14690,-27,11,243,8,69,-1
14695,-27,14,243,10,68,-2
14700,-27,11,240,15,68,-2
14705,-28,15,240,19,68,-3
14710,-27,16,244,24,66,-2
14715,-26,12,241,29,64,-2
14720,-27,11,245,33,64,-2
14725,-24,13,244,33,62,-3
14730,-25,14,242,31,59,-3
14735,-27,16,241,28,59,-3
14740,-26,15,242,20,58,-4
14745,-26,15,244,14,57,-2
14750,-25,14,241,7,56,-2
14755,-25,14,240,3,56,0
14760,-26,10,245,-2,54,-2
14765,-26,13,242,-6,52,-1
14770,-27,14,244,-9,50,-1
14775,-26,15,243,-10,47,-2
14780,-28,16,245,-13,44,-4
14785,-27,17,244,-18,42,-6
14790,-27,13,244,-22,42,-7
14795,-26,14,245,-27,41,-5
14800,-27,16,243,-31,44,-5
14805,-26,13,246,-35,46,-4
14810,-26,15,244,-40,51,-3
14815,-31,14,232,-40,54,-2
14820,-26,12,245,-35,58,-1
14825,-22,13,247,-28,61,0
14830,-27,13,246,-19,64,0
14835,-29,13,242,-9,64,0
14840,-27,11,244,-1,63,0
14845,-26,14,245,4,63,2
14850,-27,17,241,7,61,1
14855,-26,17,244,6,61,1
14860,-26,15,242,-2,59,1
14865,-26,13,239,-10,59,1
14870,-27,18,245,-18,57,1
14875,-24,20,241,-22,55,-2
14880,-24,17,242,-20,56,-4
14885,-25,14,244,-14,56,-5
14890,-26,17,244,-5,58,-7
14895,-25,15,241,6,57,-9
14900,-22,15,240,12,57,-8
14905,-23,16,242,18,59,-9
14910,-24,13,245,19,62,-8
14915,-22,13,241,19,62,-10
14920,-28,11,244,16,62,-8
14925,-24,11,249,16,62,-6
14930,-29,15,242,14,64,-6
14935,-27,12,242,14,60,-5
14940,-25,12,245,12,59,-6
14945,-25,13,247,6,59,-5
14950,-27,11,249,1,59,-6
14955,-24,12,249,-6,62,-5
14960,-27,14,244,-8,65,-5
14965,-22,11,245,-9,68,-5
14970,-27,14,245,-9,70,-4
14975,-27,14,246,-8,69,-4
14980,-26,16,240,-6,67,-4
14985,-25,15,243,-6,61,-4
14990,-28,15,246,-5,54,-5
14995,-26,14,242,-3,47,-6
