timestamp,acc_x,acc_y,acc_z,gyro_x,gyro_y,gyro_z
0,6,-257,20,17,-62,27
5,8,-257,21,25,-42,24
10,2,-255,20,32,-24,21
15,3,-257,16,37,-10,16
20,3,-255,16,40,6,15
25,-3,-256,13,38,21,11
30,-6,-258,12,33,34,9
35,-7,-249,15,25,45,6
40,-10,-251,14,17,58,3
45,-12,-251,21,8,70,1
50,3,-257,22,2,80,-2
55,-10,-255,24,-3,89,-4
60,-12,-256,18,-4,95,-5
65,-7,-248,18,-5,102,-6
70,-16,-250,11,-7,107,-10
75,-9,-271,29,-6,110,-11
80,-12,-264,30,-7,113,-14
85,-6,-254,22,-7,115,-16
90,-8,-257,22,-6,120,-20
95,-3,-260,21,-2,125,-23
100,0,-259,20,0,131,-24
105,0,-259,25,5,135,-24
110,0,-257,21,12,139,-24
115,0,-256,22,18,141,-24
120,0,-255,25,23,144,-22
125,0,-254,25,28,147,-17
130,-7,-261,35,29,155,-16
135,-11,-258,29,27,167,-15
140,-9,-264,30,26,177,-15
145,3,-251,9,25,188,-15
150,-16,-251,34,26,199,-15
155,5,-249,8,25,205,-18
160,0,-251,34,24,206,-20
165,0,-264,19,23,203,-22
170,-19,-260,49,21,195,-24
175,1,-258,29,19,184,-25
180,-5,-257,28,18,173,-26
185,-7,-256,33,16,163,-27
190,-10,-257,30,14,155,-29
195,-10,-255,32,11,149,-29
200,-8,-266,27,8,146,-27
205,-17,-264,28,3,144,-26
210,-3,-263,34,-2,143,-24
215,-20,-262,26,-8,145,-22
220,-12,-252,18,-11,146,-19
225,-6,-260,22,-14,149,-16
230,0,-254,28,-16,152,-12
235,-5,-254,28,-17,158,-9
240,-8,-255,28,-20,161,-6
245,-7,-256,25,-22,164,-4
250,0,-259,29,-20,163,-3
255,-11,-255,39,-18,161,-2
260,0,-251,23,-16,158,-2
265,1,-253,28,-15,154,-4
270,1,-250,24,-17,150,-4
275,1,-246,27,-23,149,-5
280,1,-249,27,-29,149,-8
285,2,-254,25,-37,151,-9
290,5,-247,41,-44,154,-13
295,9,-237,19,-50,158,-14
300,5,-256,24,-58,164,-16
305,8,-249,15,-66,167,-19
310,3,-252,21,-73,173,-19
315,4,-251,24,-78,176,-22
320,-1,-249,32,-83,182,-22
325,0,-236,32,-86,188,-23
330,-3,-249,33,-88,193,-23
335,2,-251,23,-86,201,-23
340,1,-252,24,-85,209,-23
345,2,-251,24,-85,216,-22
350,6,-255,25,-88,225,-19
355,3,-248,17,-88,231,-18
360,9,-258,29,-90,238,-17
365,0,-249,26,-92,245,-17
370,11,-252,27,-93,249,-15
375,1,-248,36,-88,252,-15
380,3,-256,34,-81,254,-13
385,0,-257,35,-69,254,-12
390,2,-260,30,-57,253,-11
395,1,-257,32,-48,251,-9
400,4,-258,32,-39,251,-5
405,-3,-264,32,-33,249,-2
410,2,-260,31,-28,249,-1
415,1,-266,27,-22,248,0
420,0,-265,22,-17,248,-1
425,1,-266,27,-12,251,-5
430,4,-266,29,-8,255,-7
435,6,-264,21,-7,260,-11
440,-2,-268,28,-11,269,-13
445,7,-269,13,-15,279,-17
450,1,-260,19,-21,288,-22
455,4,-264,13,-28,297,-24
460,8,-253,22,-38,304,-27
465,2,-249,14,-50,308,-27
470,1,-249,15,-64,313,-28
475,-6,-251,12,-77,318,-29
480,-1,-245,4,-90,323,-28
485,-13,-243,11,-102,329,-27
490,-5,-247,10,-113,337,-25
495,-2,-247,10,-122,341,-24
500,-6,-246,8,-132,344,-22
505,-6,-245,2,-141,346,-21
510,-4,-248,5,-151,343,-18
515,-6,-245,10,-157,339,-17
520,-8,-253,14,-165,336,-13
525,-4,-248,17,-170,333,-8
530,-3,-249,19,-176,331,-5
535,-11,-249,6,-181,327,0
540,-8,-249,8,-183,325,4
545,-9,-254,9,-185,320,8
550,-11,-249,11,-186,312,11
555,-9,-250,13,-186,302,16
560,-5,-245,9,-184,289,18
565,-9,-249,13,-185,276,23
570,-10,-251,13,-184,262,27
575,-12,-251,12,-185,250,30
580,-17,-251,19,-187,239,33
585,-9,-255,14,-186,231,37
590,-17,-261,15,-186,224,41
595,-14,-256,12,-183,220,46
600,-17,-261,13,-177,215,51
605,-15,-264,11,-167,213,55
610,-18,-264,11,-157,212,58
615,-15,-268,10,-145,211,63
620,-14,-270,12,-131,208,64
625,-18,-267,13,-117,204,67
630,-28,-259,-2,-104,200,67
635,-15,-267,14,-95,194,67
640,-16,-264,6,-88,190,69
645,-17,-259,9,-86,187,68
650,-15,-260,6,-86,188,67
655,-14,-256,5,-85,189,66
660,-10,-255,9,-82,192,63
665,-9,-252,7,-80,194,59
670,-9,-248,8,-77,198,52
675,-6,-255,7,-78,203,48
680,-7,-250,8,-82,207,44
685,-4,-247,9,-84,214,39
690,-1,-251,5,-89,217,34
695,-2,-248,5,-92,222,28
700,-2,-247,10,-94,222,23
705,-4,-248,10,-91,222,17
710,-6,-247,6,-88,220,12
715,-7,-248,9,-83,218,8
720,-5,-248,6,-78,219,6
725,-9,-246,9,-71,219,3
730,-6,-249,6,-68,222,3
735,-8,-247,3,-64,226,5
740,-10,-246,5,-59,229,8
745,-12,-247,0,-54,233,8
750,-10,-246,3,-45,238,10
755,-11,-245,4,-36,241,12
760,-13,-239,0,-29,245,14
765,-9,-240,1,-26,250,13
770,-9,-236,-2,-28,251,14
775,-12,-232,2,-41,249,14
780,-10,-228,3,-56,244,16
785,-6,-227,2,-74,236,17
790,-9,-228,1,-92,225,19
795,-9,-229,-1,-107,213,21
800,-8,-229,3,-113,200,23
805,-11,-228,5,-110,188,26
810,-11,-230,8,-98,175,31
815,-17,-232,15,-80,161,37
820,-19,-236,14,-58,143,46
825,-26,-239,17,-37,123,57
830,-31,-238,15,-19,101,71
835,-30,-238,20,-5,73,87
840,-34,-240,17,3,43,106
845,-42,-240,14,3,15,125
850,-46,-241,11,-4,-16,143
855,-49,-242,12,-13,-46,161
860,-50,-245,11,-21,-81,175
865,-53,-248,13,-29,-115,183
870,-55,-248,9,-43,-151,185
875,-55,-254,6,-62,-195,183
880,-57,-253,14,-85,-241,176
885,-49,-256,9,-109,-292,167
890,-54,-262,7,-133,-339,153
895,-45,-264,15,-155,-376,137
900,-40,-264,23,-175,-396,118
905,-37,-271,27,-190,-394,98
910,-31,-276,33,-193,-373,77
915,-28,-280,36,-186,-336,55
920,-28,-282,37,-176,-291,32
925,-18,-286,36,-164,-245,7
930,-17,-290,36,-152,-203,-18
935,-12,-289,35,-142,-164,-42
940,-8,-291,36,-131,-131,-62
945,-10,-289,32,-121,-98,-77
950,-6,-293,35,-113,-64,-86
955,-9,-286,38,-108,-24,-91
960,-5,-290,37,-106,17,-93
965,-12,-289,36,-106,56,-91
970,-13,-288,34,-112,94,-84
975,-17,-285,35,-124,123,-74
980,-17,-286,33,-141,143,-63
985,-25,-280,34,-159,151,-51
990,-29,-276,29,-174,150,-36
995,-43,-278,33,-182,139,-21
1000,-34,-268,24,-183,125,-7
1005,-34,-265,25,-181,106,8
1010,-33,-258,25,-178,89,20
1015,-30,-254,24,-179,73,31
1020,-30,-249,25,-183,59,41
1025,-24,-246,24,-189,52,49
1030,-17,-244,24,-196,50,55
1035,-16,-243,29,-201,54,60
1040,-10,-241,25,-201,61,61
1045,-5,-239,28,-197,75,62
1050,-2,-244,29,-187,93,61
1055,-1,-240,26,-177,114,61
1060,0,-242,29,-164,139,64
1065,1,-244,26,-150,165,68
1070,1,-242,29,-138,192,71
1075,1,-243,28,-127,222,76
1080,0,-240,26,-121,248,78
1085,-1,-240,25,-117,275,80
1090,-3,-241,27,-115,301,80
1095,-8,-243,26,-114,325,80
1100,-6,-240,26,-111,347,77
1105,-13,-244,32,-109,366,72
1110,-11,-246,29,-105,383,64
1115,-17,-248,31,-99,396,57
1120,-23,-248,33,-94,406,51
1125,-25,-248,36,-88,412,44
1130,-26,-248,36,-83,412,38
1135,-30,-248,36,-78,414,36
1140,-33,-250,35,-71,413,33
1145,-35,-250,36,-67,414,30
1150,-37,-251,36,-62,417,26
1155,-38,-249,40,-59,422,22
1160,-42,-250,40,-52,423,17
1165,-42,-249,42,-43,426,10
1170,-41,-248,42,-33,428,4
1175,-41,-248,43,-24,426,-3
1180,-43,-246,40,-18,422,-12
1185,-44,-245,43,-15,415,-19
1190,-40,-245,43,-16,405,-26
1195,-39,-247,42,-21,391,-31
1200,-43,-243,45,-28,377,-36
1205,-35,-248,44,-34,363,-40
1210,-36,-248,44,-38,349,-44
1215,-21,-258,44,-39,335,-51
1220,-36,-249,45,-39,321,-59
1225,-36,-248,47,-38,306,-66
1230,-31,-247,47,-35,290,-75
1235,-32,-246,43,-32,273,-82
1240,-34,-241,43,-32,258,-88
1245,-36,-242,42,-35,243,-93
1250,-36,-244,42,-38,231,-96
1255,-36,-241,38,-42,222,-99
1260,-37,-241,37,-46,214,-104
1265,-37,-242,40,-48,207,-109
1270,-40,-245,41,-47,200,-115
1275,-37,-245,40,-42,192,-122
1280,-37,-246,42,-36,183,-130
1285,-41,-244,41,-31,171,-138
1290,-38,-245,42,-27,161,-143
1295,-41,-247,39,-25,151,-146
1300,-39,-246,41,-26,140,-147
1305,-40,-244,38,-27,132,-146
1310,-38,-244,38,-29,124,-148
1315,-40,-245,35,-28,118,-146
1320,-34,-241,42,-25,109,-144
1325,-37,-255,48,-20,102,-145
1330,-32,-248,39,-16,93,-146
1335,-33,-251,41,-12,85,-146
1340,-32,-249,42,-4,76,-146
1345,-33,-255,45,6,68,-146
1350,-35,-255,44,19,61,-145
1355,-33,-262,43,32,56,-142
1360,-35,-262,45,46,57,-140
1365,-37,-260,41,58,56,-133
1370,-38,-265,40,67,58,-128
1375,-40,-263,40,76,58,-122
1380,-43,-259,35,77,57,-117
1385,-46,-260,34,71,52,-111
1390,-52,-253,33,54,44,-105
1395,-55,-257,31,30,29,-102
1400,-52,-260,22,0,11,-96
1405,-56,-268,25,-31,-17,-90
1410,-58,-277,22,-65,-48,-79
1415,-62,-281,13,-96,-83,-68
1420,-62,-289,12,-124,-118,-53
1425,-63,-297,13,-142,-155,-33
1430,-56,-307,15,-147,-193,-12
1435,-64,-310,16,-141,-230,13
1440,-58,-315,15,-128,-262,41
1445,-60,-318,18,-112,-293,68
1450,-52,-325,13,-93,-323,94
1455,-48,-326,17,-77,-352,115
1460,-43,-323,20,-64,-381,133
1465,-39,-325,20,-50,-404,148
1470,-29,-327,25,-37,-423,159
1475,-24,-326,18,-19,-432,159
1480,-14,-327,16,5,-428,155
1485,-7,-324,19,36,-413,145
1490,-1,-322,11,73,-384,127
1495,4,-317,5,111,-343,104
1500,3,-312,2,140,-295,79
1505,5,-309,-5,170,-243,52
1510,8,-302,-4,195,-195,28
1515,7,-296,-8,206,-152,4
1520,3,-288,-13,210,-115,-17
1525,1,-283,-13,206,-82,-33
1530,-1,-278,-17,193,-49,-47
1535,0,-266,-22,175,-22,-59
1540,-3,-269,-26,153,6,-72
1545,-5,-265,-31,129,30,-85
1550,0,-263,-33,98,61,-99
1555,1,-259,-42,65,87,-112
1560,0,-253,-45,32,110,-122
1565,3,-248,-48,2,129,-130
1570,7,-243,-51,-25,141,-136
1575,11,-237,-47,-45,153,-140
1580,14,-233,-49,-62,164,-142
1585,19,-222,-51,-75,178,-141
1590,23,-216,-48,-84,195,-140
1595,29,-215,-50,-87,213,-140
1600,32,-210,-45,-85,233,-136
1605,37,-210,-43,-81,257,-132
1610,35,-211,-36,-71,284,-126
1615,38,-214,-32,-59,310,-123
1620,37,-217,-25,-40,333,-121
1625,33,-220,-18,-24,348,-118
1630,27,-222,-15,-10,357,-115
1635,25,-233,-5,-5,358,-114
1640,14,-239,-2,-9,347,-115
1645,1,-245,-3,-23,326,-116
1650,4,-251,5,-40,300,-119
1655,-5,-254,5,-58,265,-119
1660,-12,-260,2,-74,227,-115
1665,-15,-264,9,-85,184,-109
1670,-20,-266,8,-90,146,-102
1675,-27,-266,6,-89,114,-94
1680,-26,-271,4,-86,89,-85
1685,-32,-267,-1,-83,71,-77
1690,-26,-271,-4,-76,62,-71
1695,-24,-269,-2,-64,62,-63
1700,-18,-268,-8,-46,67,-63
1705,-14,-262,-9,-23,75,-65
1710,-5,-266,-8,2,82,-69
1715,0,-264,-5,29,88,-76
1720,3,-260,-5,58,91,-84
1725,7,-257,-5,85,93,-93
1730,11,-252,-4,111,94,-99
1735,17,-250,-3,132,98,-102
1740,19,-247,-7,147,103,-104
1745,19,-245,-3,157,111,-106
1750,19,-237,-6,161,127,-105
1755,19,-236,-8,160,143,-105
1760,18,-236,-1,155,160,-106
1765,16,-236,-2,147,177,-114
1770,19,-238,6,139,190,-123
1775,14,-241,3,131,202,-134
1780,11,-241,8,122,210,-148
1785,9,-240,12,112,210,-162
1790,6,-245,9,99,203,-176
1795,6,-247,13,88,197,-190
1800,6,-244,16,77,185,-202
1805,3,-247,17,72,172,-212
1810,3,-247,22,73,161,-219
1815,4,-244,15,81,151,-222
1820,-1,-244,15,91,145,-219
1825,0,-238,11,101,141,-213
1830,0,-238,18,107,142,-207
1835,2,-236,15,106,143,-199
1840,1,-234,15,104,144,-194
1845,9,-234,16,100,143,-188
1850,13,-231,11,92,141,-183
1855,17,-234,16,88,137,-180
1860,7,-227,18,85,133,-176
1865,16,-231,21,81,131,-171
1870,16,-231,21,75,133,-163
1875,17,-232,21,64,134,-151
1880,15,-231,22,51,139,-139
1885,14,-231,23,37,147,-126
1890,14,-232,21,21,153,-112
1895,12,-237,27,4,156,-98
1900,15,-234,30,-12,157,-83
1905,9,-235,30,-28,152,-69
1910,7,-236,34,-40,143,-57
1915,5,-238,34,-50,133,-45
1920,0,-237,37,-58,117,-33
1925,0,-240,36,-65,98,-22
1930,0,-235,38,-70,79,-9
1935,-5,-238,37,-72,57,3
1940,-10,-238,36,-72,37,16
1945,-11,-237,38,-69,17,27
1950,-14,-236,40,-65,-1,38
1955,-12,-238,40,-62,-19,46
1960,-14,-239,38,-54,-35,54
1965,-9,-245,44,-47,-49,61
1970,-6,-243,35,-37,-66,65
1975,-12,-239,46,-25,-80,68
1980,-8,-244,48,-11,-97,69
1985,-9,-240,53,5,-111,69
1990,-5,-239,52,23,-122,69
1995,-5,-237,52,42,-134,67
2000,-6,-230,52,60,-144,67
2005,-2,-234,57,72,-155,68
2010,0,-228,52,80,-166,72
2015,3,-224,49,85,-180,72
2020,3,-220,48,87,-191,75
2025,7,-220,45,83,-205,77
2030,6,-218,44,77,-220,81
2035,8,-217,42,69,-234,84
2040,11,-214,40,56,-250,87
2045,4,-212,37,37,-262,96
2050,3,-213,32,11,-271,107
2055,3,-216,34,-21,-276,122
2060,0,-220,33,-64,-277,137
2065,0,-224,35,-112,-276,147
2070,-1,-234,37,-162,-270,158
2075,0,-245,38,-204,-261,169
2080,0,-255,41,-236,-249,174
2085,0,-267,47,-251,-235,176
2090,3,-273,50,-247,-223,165
2095,3,-282,59,-223,-208,152
2100,0,-290,63,-181,-202,130
2105,0,-291,68,-127,-213,91
2110,0,-286,68,-74,-234,55
2115,-1,-287,69,-22,-253,40
2120,-1,-282,68,20,-268,45
2125,-3,-282,65,48,-287,53
2130,-9,-277,64,57,-306,58
2135,-9,-279,58,44,-319,66
2140,-10,-283,53,8,-322,72
2145,-7,-290,45,-56,-318,68
2150,-4,-302,39,-129,-310,36
2155,1,-313,32,-207,-291,4
2160,3,-337,27,-285,-260,-12
2165,8,-359,27,-337,-234,-36
2170,11,-375,20,-348,-211,-72
2175,21,-384,14,-319,-181,-121
2180,27,-392,10,-258,-124,-159
2185,35,-391,9,-174,-63,-203
2190,37,-383,-12,-83,12,-239
2195,37,-374,-21,-6,108,-240
2200,41,-359,-33,41,199,-232
2205,41,-339,-47,48,259,-231
2210,46,-321,-54,15,281,-235
2215,47,-317,-61,-46,269,-228
2220,47,-310,-64,-109,221,-215
2225,49,-308,-69,-160,139,-213
2230,47,-304,-66,-192,43,-218
2235,35,-295,-75,-204,-44,-221
2240,29,-293,-69,-198,-117,-224
2245,22,-284,-67,-172,-172,-222
2250,4,-270,-62,-134,-218,-216
2255,-6,-259,-70,-90,-255,-203
2260,-26,-246,-69,-53,-288,-187
2265,-43,-233,-73,-26,-313,-158
2270,-65,-219,-71,-15,-332,-116
2275,-80,-212,-74,-15,-353,-67
2280,-98,-206,-65,-17,-376,-17
2285,-108,-206,-62,-7,-397,29
2290,-115,-208,-59,3,-412,79
2295,-121,-219,-42,-1,-425,126
2300,-106,-227,-40,-16,-445,155
2305,-81,-242,-34,-42,-468,152
2310,-58,-254,-34,-73,-475,136
2315,-36,-269,-23,-99,-461,121
2320,-3,-282,-19,-117,-437,102
2325,14,-290,-14,-127,-411,80
2330,29,-294,-10,-126,-391,56
2335,51,-294,-9,-112,-379,36
2340,64,-296,-9,-89,-367,26
2345,66,-295,-9,-54,-351,28
2350,69,-285,-12,-16,-331,43
2355,60,-278,-11,23,-310,88
2360,48,-273,-10,63,-299,148
2365,42,-266,-14,91,-300,209
2370,25,-254,-19,116,-301,278
2375,10,-248,-18,141,-299,357
2380,-3,-239,-20,164,-299,429
2385,-13,-235,-22,184,-299,479
2390,-23,-226,-23,197,-297,507
2395,-26,-225,-19,203,-294,508
2400,-36,-217,-15,208,-288,491
2405,-34,-222,-16,206,-279,453
2410,-31,-229,-12,207,-264,410
2415,-27,-223,-6,214,-238,376
2420,-18,-226,-5,210,-213,334
2425,-7,-232,4,202,-193,288
2430,-2,-227,4,189,-176,254
2435,2,-234,6,175,-161,231
2440,14,-232,1,164,-150,216
2445,19,-230,3,151,-142,202
2450,25,-235,-4,141,-127,192
2455,28,-228,0,129,-104,188
2460,35,-228,-9,118,-76,194
2465,34,-226,-10,110,-31,194
2470,32,-226,-9,111,20,198
2475,29,-219,-9,120,78,207
2480,26,-221,-7,131,137,208
2485,21,-219,-5,148,193,213
2490,18,-213,3,167,245,224
2495,14,-213,0,180,296,221
2500,8,-211,1,185,346,212
2505,8,-211,3,181,392,199
2510,4,-219,4,171,438,182
2515,7,-213,8,156,481,162
2520,7,-216,8,140,521,137
2525,6,-219,6,124,557,110
2530,7,-221,13,116,587,82
2535,4,-226,13,112,614,50
2540,1,-227,17,120,638,20
2545,0,-230,21,134,661,-12
2550,-2,-233,24,156,687,-41
2555,-9,-235,26,181,714,-68
2560,-12,-236,31,210,738,-88
2565,-16,-238,33,237,756,-103
2570,-20,-234,33,261,772,-116
2575,-23,-237,36,281,783,-126
2580,-22,-236,43,298,787,-137
2585,-26,-235,43,314,786,-147
2590,-26,-235,47,328,781,-156
2595,-30,-230,52,344,775,-166
2600,-30,-234,53,357,769,-175
2605,-30,-234,56,373,763,-183
2610,-32,-230,56,385,758,-191
2615,-30,-231,59,396,758,-203
2620,-27,-225,73,405,759,-214
2625,-32,-231,55,415,758,-226
2630,-30,-230,52,423,750,-234
2635,-31,-231,48,432,734,-242
2640,-33,-226,45,434,707,-253
2645,-37,-226,39,432,668,-260
2650,-43,-220,36,426,624,-267
2655,-50,-217,29,409,573,-273
2660,-55,-215,25,386,516,-276
2665,-64,-211,21,360,451,-274
2670,-72,-211,29,333,379,-267
2675,-78,-213,29,302,305,-253
2680,-84,-215,34,273,236,-228
2685,-88,-219,38,249,177,-192
2690,-90,-226,47,229,135,-155
2695,-86,-230,52,211,112,-118
2700,-82,-239,56,190,105,-81
2705,-72,-247,69,173,117,-48
2710,-61,-256,78,159,146,-25
2715,-43,-270,87,153,181,-9
2720,-25,-277,93,152,220,-8
2725,-8,-284,105,150,259,-29
2730,5,-294,109,140,299,-61
2735,19,-297,107,122,335,-101
2740,23,-303,103,84,363,-147
2745,31,-311,94,30,375,-184
2750,29,-320,79,-43,376,-212
2755,28,-335,61,-127,369,-220
2760,13,-353,50,-199,356,-200
2765,-9,-374,41,-231,306,-141
2770,-19,-392,27,-216,228,-53
2775,-27,-413,15,-180,147,48
2780,-35,-425,13,-136,70,159
2785,-46,-430,23,-86,-2,266
2790,-51,-426,28,-18,-77,375
2795,-53,-423,36,57,-144,482
2800,-54,-415,34,116,-198,576
2805,-51,-399,30,158,-248,633
2810,-48,-385,19,176,-286,665
2815,-46,-363,5,171,-311,670
2820,-36,-338,-11,148,-313,640
2825,-22,-317,-29,118,-276,595
2830,-13,-295,-50,84,-197,542
2835,7,-271,-67,52,-82,484
2840,15,-250,-80,16,47,419
2845,34,-231,-84,-20,174,350
2850,50,-219,-90,-51,302,293
2855,68,-205,-94,-72,427,247
2860,77,-194,-99,-89,548,207
2865,95,-187,-98,-106,660,167
2870,106,-182,-98,-127,771,131
2875,113,-180,-101,-158,869,95
2880,119,-178,-95,-209,950,54
2885,122,-182,-94,-267,1023,10
2890,114,-185,-84,-325,1090,-32
2895,100,-192,-73,-402,1150,-66
2900,79,-207,-65,-497,1204,-102
2905,45,-221,-38,-591,1242,-142
2910,27,-240,-31,-653,1235,-182
2915,-12,-263,-8,-703,1203,-215
2920,-34,-277,1,-685,1119,-209
2925,-42,-292,7,-624,1006,-180
2930,-51,-304,12,-524,892,-157
2935,-66,-310,18,-436,796,-162
2940,-78,-310,13,-363,710,-156
2945,-79,-303,22,-317,624,-123
2950,-83,-297,5,-303,530,-95
2955,-80,-290,-7,-311,437,-80
2960,-76,-282,-10,-329,349,-77
2965,-66,-273,-17,-342,274,-75
2970,-56,-263,-20,-343,216,-76
2975,-41,-253,-21,-333,183,-82
2980,-31,-246,-20,-311,170,-94
2985,-16,-238,-20,-281,173,-105
2990,-7,-229,-18,-244,184,-119
2995,-1,-223,-12,-205,194,-136
3000,9,-222,-6,-171,198,-157
3005,16,-220,-3,-147,204,-173
3010,24,-220,-1,-134,210,-188
3015,26,-226,1,-128,215,-197
3020,28,-229,4,-129,223,-208
3025,30,-233,10,-131,236,-215
3030,28,-238,11,-133,255,-222
3035,28,-242,8,-130,284,-219
3040,22,-246,5,-132,318,-214
3045,19,-250,7,-136,353,-207
3050,12,-252,10,-148,385,-203
3055,9,-247,10,-162,414,-197
3060,3,-248,6,-181,432,-194
3065,-6,-245,13,-201,437,-191
3070,-6,-243,11,-219,425,-185
3075,-9,-241,14,-239,400,-185
3080,-13,-235,17,-257,365,-186
3085,-16,-233,21,-275,322,-186
3090,-14,-228,17,-286,274,-183
3095,-16,-228,18,-290,230,-188
3100,-13,-224,21,-287,185,-194
3105,-11,-221,18,-273,140,-206
3110,-10,-220,16,-258,103,-216
3115,-3,-218,11,-246,66,-212
3120,-5,-218,13,-240,33,-222
3125,0,-222,10,-231,7,-225
3130,4,-227,12,-222,-12,-216
3135,15,-226,15,-213,-23,-209
3140,16,-228,12,-203,-31,-205
3145,16,-233,14,-196,-37,-200
3150,23,-233,11,-187,-40,-191
3155,25,-231,13,-182,-41,-181
3160,25,-237,5,-179,-44,-171
3165,21,-233,18,-178,-47,-161
3170,21,-232,15,-174,-49,-148
3175,15,-232,18,-167,-52,-134
3180,17,-230,17,-156,-57,-118
3185,8,-225,20,-144,-63,-103
3190,4,-223,19,-134,-70,-90
3195,1,-222,18,-122,-80,-71
3200,-1,-225,15,-116,-93,-53
3205,0,-225,24,-112,-112,-35
3210,-4,-219,25,-111,-135,-19
3215,-4,-226,20,-111,-160,-7
3220,-7,-227,21,-111,-185,7
3225,-7,-229,15,-113,-208,19
3230,-6,-231,12,-119,-220,33
3235,-3,-236,9,-128,-228,48
3240,1,-238,9,-144,-230,58
3245,6,-245,8,-162,-233,62
3250,10,-247,7,-178,-244,63
3255,12,-249,3,-191,-256,64
3260,16,-250,0,-203,-270,64
3265,24,-260,0,-212,-279,64
3270,30,-256,4,-218,-274,69
3275,29,-266,3,-221,-253,73
3280,28,-264,6,-214,-218,79
3285,35,-267,7,-195,-167,88
3290,31,-266,1,-168,-105,94
3295,35,-270,-1,-136,-39,95
3300,38,-267,-2,-109,28,92
3305,48,-270,-7,-92,88,78
3310,59,-268,-6,-87,134,49
3315,63,-273,-7,-85,175,13
3320,73,-275,1,-86,211,-29
3325,82,-283,8,-82,244,-75
3330,84,-289,13,-76,270,-126
3335,90,-292,9,-68,299,-173
3340,87,-301,15,-65,331,-218
3345,84,-308,15,-71,365,-255
3350,78,-319,15,-88,394,-291
3355,69,-332,20,-112,417,-319
3360,56,-345,22,-141,427,-334
3365,34,-355,25,-157,427,-341
3370,12,-363,24,-152,417,-340
3375,-11,-373,39,-124,395,-327
3380,-27,-358,36,-82,374,-298
3385,-42,-351,30,-38,356,-254
3390,-58,-340,32,3,340,-198
3395,-69,-321,25,38,325,-137
3400,-70,-310,26,78,297,-71
3405,-70,-297,13,123,253,-1
3410,-65,-280,6,167,196,68
3415,-59,-267,1,201,128,123
3420,-40,-253,-8,214,56,157
3425,-31,-251,-17,195,-10,178
3430,-11,-254,-19,152,-68,187
3435,-1,-261,-23,88,-116,189
3440,5,-269,-21,25,-152,182
3445,19,-279,-24,-18,-177,168
3450,24,-286,-33,-43,-190,150
3455,31,-287,-36,-54,-196,127
3460,32,-289,-48,-55,-198,100
3465,28,-281,-53,-52,-196,69
3470,17,-272,-67,-46,-198,35
3475,7,-259,-68,-33,-205,2
3480,-4,-250,-79,-19,-215,-27
3485,-25,-235,-73,-6,-226,-47
3490,-39,-223,-85,-1,-236,-59
3495,-52,-217,-87,-5,-242,-67
3500,-68,-212,-88,-12,-246,-69
3505,-75,-211,-83,-26,-246,-67
3510,-85,-216,-84,-48,-248,-65
3515,-87,-223,-74,-78,-251,-67
3520,-81,-231,-57,-113,-256,-69
3525,-81,-241,-55,-146,-264,-74
3530,-71,-251,-45,-170,-268,-76
3535,-70,-255,-37,-181,-265,-73
3540,-63,-263,-37,-184,-254,-65
3545,-51,-272,-31,-176,-241,-52
3550,-42,-277,-30,-163,-230,-35
3555,-27,-281,-27,-149,-226,-12
3560,-23,-287,-27,-137,-227,10
3565,-19,-291,-29,-129,-239,30
3570,-14,-296,-24,-126,-258,56
3575,-5,-296,-30,-124,-281,82
3580,-4,-295,-31,-119,-306,108
3585,-2,-290,-29,-111,-326,127
3590,-3,-288,-25,-99,-340,144
3595,-7,-277,-27,-89,-353,156
3600,-6,-274,-29,-79,-363,163
3605,-7,-266,-25,-64,-376,169
3610,-14,-261,-24,-47,-389,171
3615,-19,-254,-24,-27,-404,170
3620,-20,-255,-22,-10,-425,164
3625,-22,-251,-23,3,-445,157
3630,-25,-251,-18,13,-462,147
3635,-27,-250,-20,17,-469,140
3640,-27,-250,-15,20,-467,133
3645,-26,-254,-12,19,-453,130
3650,-27,-250,-6,21,-437,128
3655,-16,-249,-5,24,-420,130
3660,-15,-249,-10,30,-401,131
3665,-9,-246,-10,33,-381,138
3670,-4,-241,-12,32,-358,147
3675,-7,-236,-7,26,-333,156
3680,-5,-232,-7,17,-307,166
3685,-3,-231,-6,10,-281,174
3690,0,-224,-3,4,-252,174
3695,0,-222,-5,2,-224,173
3700,3,-220,-5,0,-199,170
3705,0,-211,1,-2,-175,167
3710,-1,-208,-2,3,-156,159
3715,-9,-205,-1,8,-134,155
3720,-11,-201,5,18,-112,150
3725,-15,-202,6,33,-87,141
3730,-19,-198,8,47,-64,136
3735,-19,-201,8,61,-42,133
3740,-23,-197,9,74,-22,120
3745,-22,-195,11,90,-5,104
3750,-25,-196,12,100,11,91
3755,-25,-194,13,104,23,77
3760,-25,-193,13,105,28,58
3765,-23,-191,13,105,36,39
3770,-26,-191,15,104,40,21
3775,-23,-188,18,102,45,-1
3780,-23,-190,20,100,48,-20
3785,-24,-188,20,100,53,-36
3790,-24,-192,21,100,57,-51
3795,-21,-193,29,104,62,-63
3800,-19,-198,30,110,68,-74
3805,-16,-206,28,118,79,-84
3810,-18,-201,28,127,93,-92
3815,-14,-207,30,135,109,-102
3820,-15,-210,31,147,132,-115
3825,-11,-215,32,162,159,-129
3830,-13,-217,30,182,190,-149
3835,-14,-223,35,201,221,-165
3840,-10,-224,32,219,252,-184
3845,-9,-231,31,236,284,-200
3850,-8,-237,34,256,313,-221
3855,-6,-243,36,277,338,-245
3860,-3,-243,34,301,355,-271
3865,-8,-249,35,325,364,-301
3870,-10,-247,33,346,363,-326
3875,-20,-247,31,362,348,-344
3880,-25,-244,26,366,319,-354
3885,-39,-241,22,358,273,-347
3890,-52,-234,21,342,215,-323
3895,-68,-234,22,327,155,-281
3900,-77,-241,27,325,104,-223
3905,-83,-248,30,341,73,-156
3910,-95,-252,42,369,64,-83
3915,-93,-257,56,399,73,-8
3920,-89,-273,65,423,98,60
3925,-79,-282,81,433,136,118
3930,-69,-289,93,439,183,152
3935,-53,-297,98,439,227,162
3940,-39,-301,101,438,269,154
3945,-21,-305,103,433,297,125
3950,-5,-312,96,422,309,84
3955,1,-312,88,408,310,38
3960,17,-319,73,400,309,3
3965,18,-326,61,399,312,-28
3970,21,-335,44,404,319,-48
3975,20,-344,21,418,330,-60
3980,10,-350,6,440,353,-55
3985,4,-357,-6,476,379,-35
3990,-10,-359,-17,508,398,1
3995,-19,-360,-30,507,389,56
4000,-33,-363,-30,469,341,126
4005,-41,-362,-42,399,255,212
4010,-57,-358,-47,308,143,312
4015,-62,-351,-53,209,25,429
4020,-53,-343,-70,115,-64,550
4025,-41,-321,-83,34,-97,657
4030,-26,-316,-87,-19,-72,752
4035,-2,-296,-99,-47,-13,807
4040,10,-274,-101,-56,79,829
4045,33,-256,-100,-53,193,841
4050,58,-242,-99,-51,319,857
4055,87,-232,-93,-60,437,844
4060,116,-230,-91,-76,529,789
4065,140,-230,-86,-95,606,712
4070,153,-238,-79,-106,683,634
4075,155,-249,-67,-115,754,546
4080,140,-268,-58,-112,817,448
4085,119,-284,-45,-105,868,349
4090,89,-298,-39,-109,899,253
4095,57,-310,-29,-134,913,171
4100,18,-321,-22,-174,906,103
4105,-12,-331,-18,-217,878,54
4110,-39,-343,-15,-247,836,11
4115,-65,-349,-11,-261,785,-23
4120,-81,-348,-7,-255,737,-51
4125,-92,-352,-3,-234,706,-73
4130,-94,-348,-6,-198,673,-92
4135,-93,-341,-3,-149,642,-114
4140,-85,-332,-10,-93,607,-141
4145,-71,-317,-14,-39,563,-178
4150,-56,-305,-20,7,514,-217
4155,-34,-289,-30,45,460,-252
4160,-13,-264,-33,72,410,-280
4165,0,-245,-34,90,364,-295
4170,8,-229,-37,97,327,-296
4175,10,-213,-37,98,297,-292
4180,12,-205,-28,93,275,-286
4185,9,-195,-24,85,257,-284
4190,3,-193,-15,86,243,-285
4195,-2,-190,-10,93,238,-292
4200,-6,-191,0,105,234,-302
4205,-15,-191,4,116,233,-318
4210,-24,-195,5,120,227,-337
4215,-40,-194,9,115,215,-357
4220,-34,-200,9,99,191,-366
4225,-44,-203,9,73,170,-379
4230,-46,-209,7,38,139,-382
4235,-50,-208,11,0,105,-380
4240,-49,-214,3,-37,61,-377
4245,-44,-216,8,-65,15,-378
4250,-43,-215,9,-83,-27,-376
4255,-39,-215,11,-96,-65,-348
4260,-32,-213,17,-99,-107,-313
4265,-28,-211,17,-95,-152,-281
4270,-21,-207,17,-89,-196,-257
4275,-14,-205,17,-84,-235,-234
4280,-5,-202,19,-76,-266,-216
4285,2,-205,21,-68,-294,-207
4290,2,-208,16,-58,-322,-203
4295,13,-209,22,-55,-348,-203
4300,14,-209,20,-55,-373,-207
4305,24,-214,18,-55,-390,-209
4310,32,-217,16,-59,-397,-204
4315,30,-219,14,-60,-398,-197
4320,35,-222,16,-63,-396,-192
4325,36,-229,17,-70,-388,-184
4330,36,-233,24,-76,-378,-176
4335,35,-239,27,-85,-366,-165
4340,36,-240,28,-87,-352,-142
4345,35,-247,28,-81,-336,-112
4350,35,-252,35,-61,-318,-79
4355,28,-253,39,-39,-303,-48
4360,25,-255,39,-12,-286,-22
4365,25,-254,38,17,-269,3
4370,19,-258,43,49,-253,28
4375,17,-256,45,79,-237,54
4380,12,-252,46,107,-225,73
4385,10,-248,48,132,-221,89
4390,9,-248,49,153,-218,104
4395,7,-246,51,173,-217,116
4400,5,-245,49,191,-219,127
4405,1,-242,51,208,-221,137
4410,-2,-235,53,227,-225,151
4415,-5,-238,55,245,-232,165
4420,-11,-235,58,263,-241,183
4425,-13,-235,56,281,-252,199
4430,-19,-236,56,296,-262,220
4435,-19,-236,51,310,-274,239
4440,-24,-234,53,320,-284,259
4445,-27,-231,46,325,-290,278
4450,-25,-228,44,323,-288,295
4455,-30,-232,41,310,-280,306
4460,-21,-224,34,284,-267,315
4465,-14,-220,28,247,-248,315
4470,-5,-217,23,199,-223,305
4475,1,-217,22,150,-199,283
4480,16,-222,24,107,-177,248
4485,27,-226,27,75,-160,211
4490,33,-228,39,62,-155,173
4495,44,-233,44,62,-159,133
4500,50,-244,54,73,-170,96
4505,50,-249,58,89,-194,56
4510,48,-256,68,108,-227,21
4515,44,-263,75,125,-267,-5
4520,37,-273,81,142,-306,-16
4525,27,-279,84,155,-337,-15
4530,16,-286,86,166,-357,-6
4535,5,-292,84,172,-363,5
4540,-4,-293,84,179,-353,19
4545,-10,-301,78,184,-330,32
4550,-17,-309,74,184,-295,44
4555,-20,-314,66,172,-258,50
4560,-21,-324,56,149,-224,49
4565,-23,-332,43,116,-198,42
4570,-9,-347,39,83,-183,25
4575,-3,-355,27,57,-172,-1
4580,10,-360,17,38,-167,-30
4585,25,-359,8,31,-149,-69
4590,40,-360,4,34,-112,-116
4595,54,-351,3,51,-52,-168
4600,65,-340,2,79,18,-219
4605,70,-331,-2,98,110,-254
4610,77,-314,-4,106,211,-267
4615,76,-308,-14,101,303,-265
4620,71,-300,-18,78,378,-258
4625,71,-297,-21,46,438,-247
4630,67,-296,-34,11,484,-240
4635,58,-296,-41,-17,517,-242
4640,53,-295,-48,-31,537,-253
4645,38,-291,-51,-32,544,-270
4650,24,-288,-49,-24,542,-292
4655,15,-284,-51,-8,528,-321
4660,1,-274,-45,12,500,-349
4665,-15,-265,-43,25,460,-375
4670,-32,-250,-50,32,406,-396
4675,-52,-243,-43,33,339,-410
4680,-71,-230,-46,25,262,-414
4685,-93,-213,-48,10,175,-407
4690,-108,-199,-49,-13,87,-387
4695,-122,-188,-58,-42,2,-355
4700,-133,-182,-55,-81,-70,-307
4705,-140,-179,-59,-131,-136,-252
4710,-136,-183,-55,-191,-191,-188
4715,-122,-191,-55,-256,-232,-112
4720,-98,-207,-48,-317,-245,-45
4725,-77,-228,-42,-366,-229,2
4730,-52,-250,-31,-399,-198,30
4735,-33,-271,-23,-419,-153,49
4740,-12,-289,-15,-429,-98,62
4745,8,-303,-11,-431,-38,68
4750,24,-309,-4,-433,24,69
4755,43,-320,-7,-431,87,64
4760,52,-326,-5,-424,151,65
4765,60,-330,-9,-414,207,68
4770,57,-325,-8,-399,258,72
4775,53,-317,-16,-376,304,81
4780,48,-307,-21,-341,342,100
4785,33,-295,-24,-294,371,121
4790,23,-279,-25,-240,389,146
4795,10,-265,-27,-180,400,166
4800,0,-249,-23,-122,401,189
4805,-11,-236,-18,-72,398,207
4810,-20,-227,-18,-33,394,219
4815,-30,-219,-9,-8,391,221
4820,-32,-213,-8,8,387,217
4825,-38,-214,-3,11,385,207
4830,-41,-219,1,2,377,192
4835,-41,-224,16,-10,368,175
4840,-43,-231,20,-21,358,160
4845,-39,-238,21,-27,340,148
4850,-35,-246,23,-30,318,143
4855,-34,-248,21,-29,296,148
4860,-31,-251,21,-28,275,159
4865,-29,-252,24,-32,256,176
4870,-23,-250,22,-37,241,197
4875,-22,-253,18,-40,231,217
4880,-21,-250,16,-40,224,240
4885,-15,-239,16,-39,222,264
4890,-17,-245,14,-39,228,278
4895,-17,-234,14,-39,235,285
4900,-16,-230,15,-40,250,295
4905,-18,-226,19,-35,268,303
4910,-13,-222,21,-27,289,310
4915,-12,-219,23,-15,311,313
4920,-19,-215,25,-4,330,303
4925,-26,-213,29,11,346,293
4930,-23,-215,26,29,357,294
4935,-25,-217,23,40,371,284
4940,-34,-217,21,47,388,270
4945,-35,-219,20,50,400,258
4950,-41,-222,20,43,408,246
4955,-42,-226,19,31,414,230
4960,-49,-226,21,17,421,208
4965,-45,-235,21,8,426,186
4970,-44,-234,26,1,428,160
4975,-46,-238,29,-1,425,131
4980,-45,-238,30,-1,420,104
4985,-45,-240,35,2,408,78
4990,-41,-239,33,7,390,52
4995,-35,-239,35,16,372,30
5000,-39,-236,36,22,354,8
5005,-34,-232,36,25,336,-9
5010,-31,-236,34,23,322,-25
5015,-33,-232,36,21,310,-40
5020,-35,-233,37,19,304,-54
5025,-34,-236,42,18,301,-63
5030,-34,-237,43,22,297,-73
5035,-31,-240,44,27,293,-81
5040,-35,-241,45,35,289,-88
5045,-32,-245,47,44,285,-96
5050,-28,-247,46,53,280,-104
5055,-30,-249,47,64,275,-112
5060,-28,-249,50,78,267,-123
5065,-29,-250,54,95,259,-133
5070,-23,-250,56,116,250,-142
5075,-30,-252,54,140,238,-152
5080,-32,-249,55,165,224,-159
5085,-32,-249,56,188,206,-165
5090,-35,-248,55,208,184,-169
5095,-37,-244,57,224,157,-171
5100,-41,-241,52,239,133,-173
5105,-43,-244,49,250,103,-173
5110,-48,-234,54,260,75,-168
5115,-50,-230,54,270,45,-163
5120,-55,-227,49,279,19,-158
5125,-54,-229,51,289,-4,-152
5130,-54,-225,58,298,-23,-146
5135,-53,-224,55,306,-37,-144
5140,-49,-226,56,314,-49,-140
5145,-48,-227,57,318,-59,-135
5150,-41,-225,59,312,-66,-134
5155,-33,-224,61,297,-67,-139
5160,-36,-227,55,272,-67,-140
5165,-29,-233,50,241,-66,-139
5170,-25,-241,44,203,-64,-141
5175,-25,-249,36,165,-65,-140
5180,-22,-258,28,131,-66,-133
5185,-21,-270,28,104,-66,-122
5190,-25,-281,24,84,-64,-101
5195,-26,-295,25,67,-62,-71
5200,-35,-311,27,56,-64,-35
5205,-37,-324,30,49,-75,11
5210,-43,-340,33,42,-91,65
5215,-46,-353,37,28,-110,131
5220,-49,-363,36,12,-133,201
5225,-50,-375,36,5,-168,266
5230,-51,-379,35,12,-206,320
5235,-53,-377,38,30,-246,367
5240,-57,-377,38,61,-283,415
5245,-58,-375,34,96,-320,458
5250,-58,-367,30,129,-348,501
5255,-58,-363,24,157,-360,535
5260,-58,-355,16,181,-359,554
5265,-57,-345,7,203,-353,547
5270,-55,-334,-3,223,-334,519
5275,-47,-321,-11,239,-304,471
5280,-42,-310,-17,250,-259,412
5285,-38,-299,-20,255,-206,344
5290,-31,-286,-22,255,-154,275
5295,-23,-279,-20,242,-108,217
5300,-17,-271,-24,216,-67,179
5305,-10,-263,-29,178,-36,146
5310,-2,-258,-31,126,-17,115
5315,1,-248,-33,69,8,92
5320,2,-243,-39,11,41,73
5325,14,-232,-43,-45,74,54
5330,19,-231,-46,-100,112,37
5335,29,-220,-50,-148,149,22
5340,31,-214,-54,-189,186,14
5345,36,-207,-51,-221,223,3
5350,38,-203,-49,-242,253,-12
5355,37,-200,-46,-249,281,-30
5360,35,-198,-39,-245,300,-51
5365,30,-201,-31,-237,310,-70
5370,25,-202,-26,-228,307,-91
5375,12,-209,-20,-220,297,-109
5380,3,-218,-18,-219,282,-127
5385,-9,-232,-10,-223,269,-145
5390,-20,-246,-4,-225,246,-159
5395,-35,-251,4,-224,220,-172
5400,-42,-267,13,-208,183,-177
5405,-47,-271,11,-184,137,-178
5410,-49,-277,11,-163,97,-178
5415,-53,-277,12,-150,63,-174
5420,-55,-282,9,-143,35,-172
5425,-51,-278,7,-137,14,-171
5430,-55,-272,10,-135,-2,-172
5435,-43,-271,1,-134,-12,-174
5440,-34,-266,1,-132,-18,-176
5445,-26,-258,0,-125,-15,-182
5450,-16,-251,-2,-121,-13,-190
5455,-6,-246,0,-121,-7,-193
5460,0,-238,-4,-122,0,-193
5465,2,-233,-4,-124,3,-193
5470,8,-226,3,-126,9,-189
5475,11,-221,-1,-132,17,-182
5480,13,-219,-1,-139,20,-181
5485,12,-215,2,-148,22,-177
5490,14,-220,5,-156,25,-170
5495,12,-223,7,-162,23,-164
5500,7,-226,13,-165,20,-163
5505,4,-231,11,-168,15,-164
5510,4,-236,19,-169,8,-171
5515,-1,-236,22,-169,4,-180
5520,-3,-242,23,-172,0,-187
5525,-3,-245,22,-182,2,-192
5530,-7,-249,22,-200,5,-203
5535,-5,-250,17,-220,9,-208
5540,-5,-251,18,-236,10,-212
5545,-2,-250,19,-251,8,-213
5550,2,-255,18,-259,4,-219
5555,1,-250,19,-263,-2,-228
5560,3,-251,16,-255,-11,-236
5565,10,-252,20,-240,-19,-238
5570,9,-252,21,-222,-25,-244
5575,11,-250,26,-203,-30,-248
5580,8,-248,25,-186,-31,-246
5585,8,-248,22,-172,-31,-235
5590,10,-247,17,-161,-30,-222
5595,11,-247,24,-154,-27,-210
5600,11,-246,22,-149,-24,-197
5605,11,-245,24,-146,-23,-185
5610,11,-246,22,-146,-22,-173
5615,11,-243,23,-146,-24,-162
5620,9,-242,20,-147,-28,-151
5625,8,-241,27,-147,-34,-140
5630,5,-236,23,-146,-43,-130
5635,0,-237,24,-146,-53,-117
5640,-3,-232,26,-145,-62,-104
5645,-5,-232,29,-142,-69,-88
5650,-4,-229,28,-138,-77,-71
5655,-10,-224,27,-131,-86,-51
5660,-11,-226,33,-125,-94,-34
5665,-15,-223,34,-121,-104,-15
5670,-13,-228,39,-119,-115,3
5675,-15,-225,38,-117,-129,19
5680,-16,-227,41,-115,-142,29
5685,-14,-228,41,-115,-159,39
5690,-17,-229,43,-113,-175,50
5695,-14,-227,44,-111,-194,58
5700,-17,-230,41,-106,-212,67
5705,-17,-228,44,-103,-230,73
5710,-17,-228,44,-100,-247,79
5715,-15,-230,46,-100,-261,87
5720,-15,-229,44,-100,-273,98
5725,-15,-232,43,-102,-287,109
5730,-13,-229,43,-102,-299,118
5735,-12,-233,39,-103,-308,128
5740,-9,-235,44,-103,-318,134
5745,-2,-235,40,-102,-327,140
5750,0,-240,40,-95,-336,145
5755,6,-241,34,-84,-340,148
5760,4,-241,36,-66,-343,149
5765,7,-241,38,-45,-343,151
5770,9,-242,35,-22,-341,154
5775,11,-242,38,3,-337,158
5780,13,-243,43,29,-332,165
5785,16,-245,42,59,-328,171
5790,15,-243,44,88,-317,177
5795,13,-241,47,114,-305,185
5800,14,-241,48,135,-287,189
5805,11,-238,44,153,-267,194
5810,11,-239,48,166,-245,195
5815,9,-238,48,176,-228,191
5820,11,-238,54,180,-218,185
5825,9,-242,54,179,-218,172
5830,6,-243,49,171,-225,159
5835,5,-244,48,155,-235,146
5840,0,-247,44,128,-244,132
5845,-2,-254,42,85,-252,116
5850,-5,-265,39,30,-256,98
5855,0,-278,34,-35,-253,80
5860,0,-289,23,-109,-243,58
5865,4,-296,2,-198,-223,35
5870,10,-312,-2,-292,-194,9
5875,14,-323,-3,-388,-158,-16
5880,20,-339,-11,-478,-124,-52
5885,25,-358,-12,-553,-90,-95
5890,30,-375,-13,-596,-52,-141
5895,32,-387,-13,-599,-9,-188
5900,34,-399,-15,-562,35,-234
5905,28,-405,-9,-488,85,-264
5910,25,-405,-13,-391,135,-290
5915,14,-399,-11,-286,186,-306
5920,9,-388,-8,-179,235,-314
5925,5,-379,-13,-80,275,-310
5930,0,-363,-9,5,301,-303
5935,-8,-339,-10,72,307,-291
5940,-12,-323,-14,126,294,-273
5945,-23,-306,-13,167,262,-246
5950,-30,-281,-20,195,213,-213
5955,-33,-268,-28,212,151,-178
5960,-37,-251,-34,208,79,-146
5965,-39,-243,-46,182,5,-119
5970,-40,-224,-42,132,-68,-100
5975,-44,-225,-57,58,-141,-89
5980,-44,-214,-62,-29,-213,-78
5985,-49,-207,-66,-128,-286,-71
5990,-50,-197,-65,-233,-360,-63
5995,-51,-193,-65,-330,-432,-54
6000,-59,-186,-68,-421,-498,-45
6005,-61,-183,-73,-499,-558,-33
6010,-64,-181,-76,-562,-601,-20
6015,-57,-188,-72,-607,-627,-5
6020,-59,-192,-75,-637,-630,9
6025,-50,-208,-78,-650,-611,22
6030,-36,-231,-74,-645,-568,28
6035,-20,-249,-67,-627,-509,22
6040,-6,-275,-60,-596,-447,4
6045,4,-293,-55,-551,-382,-15
6050,15,-306,-50,-494,-317,-35
6055,18,-313,-46,-437,-246,-56
6060,28,-315,-44,-379,-176,-76
6065,37,-315,-40,-326,-105,-99
6070,36,-311,-37,-273,-37,-117
6075,39,-304,-26,-221,26,-128
6080,42,-293,-26,-179,79,-129
6085,26,-280,-24,-150,118,-123
6090,14,-265,-18,-130,142,-100
6095,2,-254,-17,-114,149,-65
6100,-6,-242,-19,-108,143,-22
6105,-15,-234,-19,-108,123,25
6110,-21,-227,-19,-119,97,69
6115,-25,-221,-16,-139,66,109
6120,-33,-219,-20,-158,31,138
6125,-34,-219,-16,-178,-9,163
6130,-36,-222,-15,-192,-50,180
6135,-33,-228,-13,-199,-90,190
6140,-33,-233,-12,-199,-127,195
6145,-32,-234,-11,-196,-156,194
6150,-29,-236,-12,-192,-174,192
6155,-24,-239,-15,-189,-175,189
6160,-19,-243,-15,-188,-161,184
6165,-15,-242,-13,-194,-133,178
6170,-9,-247,-15,-201,-92,174
6175,-5,-243,-16,-206,-44,171
6180,2,-246,-13,-211,5,167
6185,0,-250,-14,-209,55,163
6190,3,-242,-15,-204,103,161
6195,2,-237,-12,-196,145,158
6200,1,-239,-16,-186,183,159
6205,0,-238,-12,-172,214,160
6210,-5,-236,-13,-159,241,162
6215,-7,-232,-12,-147,263,165
6220,-13,-232,-9,-136,282,167
6225,-18,-235,-12,-125,297,170
6230,-23,-236,-10,-120,305,175
6235,-26,-237,-10,-121,309,175
6240,-29,-242,-14,-122,308,176
6245,-31,-244,-14,-124,302,175
6250,-34,-246,-12,-127,293,173
6255,-35,-247,-16,-128,283,171
6260,-38,-250,-11,-129,276,170
6265,-39,-253,-11,-128,268,169
6270,-41,-256,-14,-125,265,165
6275,-40,-252,-11,-120,263,160
6280,-35,-253,-13,-113,266,155
6285,-30,-255,-9,-101,269,144
6290,-29,-253,-9,-86,273,131
6295,-25,-250,-7,-65,278,115
6300,-20,-249,-3,-42,284,96
6305,-17,-249,-7,-17,287,74
6310,-17,-242,-2,8,291,54
6315,-16,-240,-1,31,294,35
6320,-16,-240,-3,49,301,20
6325,-15,-235,0,65,308,8
6330,-14,-237,1,74,319,1
6335,-15,-237,0,74,332,-5
6340,-15,-234,0,69,346,-11
6345,-17,-236,2,56,359,-16
6350,-20,-237,3,36,368,-20
6355,-18,-237,7,12,374,-27
6360,-20,-236,7,-12,375,-29
6365,-18,-237,9,-35,371,-34
6370,-21,-242,8,-56,366,-38
6375,-20,-244,9,-73,361,-40
6380,-17,-240,6,-85,353,-42
6385,-21,-244,6,-89,347,-44
6390,-23,-242,6,-90,341,-42
6395,-23,-242,4,-87,337,-41
6400,-23,-251,6,-83,334,-40
6405,-21,-241,5,-79,334,-39
6410,-26,-241,6,-78,334,-39
6415,-20,-244,3,-79,336,-42
6420,-24,-241,2,-83,337,-43
6425,-25,-242,2,-88,343,-46
6430,-25,-241,1,-94,353,-52
6435,-26,-241,2,-101,364,-58
6440,-26,-240,0,-106,378,-68
6445,-27,-236,3,-110,394,-76
6450,-27,-235,0,-115,411,-87
6455,-28,-238,8,-120,424,-99
6460,-28,-235,1,-126,439,-112
6465,-32,-238,0,-133,451,-123
6470,-31,-239,1,-144,461,-133
6475,-31,-243,-3,-159,464,-146
6480,-35,-244,-4,-176,462,-156
6485,-37,-246,-8,-195,454,-164
6490,-38,-247,-13,-214,443,-171
6495,-41,-249,-15,-236,432,-175
6500,-43,-251,-21,-261,418,-175
6505,-45,-254,-20,-290,407,-174
6510,-46,-256,-30,-323,394,-168
6515,-47,-266,-20,-360,376,-161
6520,-44,-264,-38,-402,353,-152
6525,-45,-270,-43,-448,324,-140
6530,-44,-276,-48,-491,291,-130
6535,-47,-278,-50,-534,255,-116
6540,-47,-286,-59,-574,218,-97
6545,-49,-291,-55,-609,182,-78
6550,-46,-304,-61,-639,142,-53
6555,-44,-305,-63,-662,105,-27
6560,-44,-310,-60,-678,69,-1
6565,-42,-313,-56,-688,36,26
6570,-36,-316,-58,-687,7,51
6575,-32,-315,-54,-679,-19,76
6580,-29,-316,-53,-663,-44,98
6585,-28,-311,-46,-642,-65,116
6590,-24,-306,-44,-618,-85,130
6595,-20,-300,-42,-596,-101,141
6600,-19,-291,-43,-577,-114,148
6605,-16,-282,-44,-564,-122,152
6610,-16,-271,-41,-561,-125,152
6615,-15,-260,-48,-567,-126,148
6620,-11,-252,-52,-580,-120,144
6625,-10,-245,-47,-599,-112,134
6630,-12,-238,-52,-620,-97,122
6635,-9,-233,-50,-641,-79,108
6640,-10,-228,-53,-660,-53,91
6645,-13,-226,-48,-676,-25,73
6650,-13,-221,-48,-688,4,55
6655,-10,-226,-50,-700,35,33
6660,-11,-227,-48,-705,63,12
6665,-11,-228,-48,-708,87,-10
6670,-8,-229,-46,-709,110,-31
6675,-3,-235,-39,-706,129,-55
6680,-3,-232,-45,-699,146,-78
6685,-2,-237,-42,-689,158,-99
6690,-2,-234,-44,-673,163,-120
6695,-1,-237,-44,-656,162,-139
6700,1,-233,-43,-641,158,-156
6705,2,-235,-51,-628,151,-169
6710,2,-232,-54,-620,143,-182
6715,1,-233,-57,-611,129,-195
6720,1,-237,-53,-598,107,-211
6725,-2,-243,-51,-575,76,-224
6730,1,-243,-48,-546,39,-234
6735,-4,-249,-52,-506,-3,-243
6740,-2,-256,-54,-461,-47,-247
6745,-5,-268,-57,-406,-87,-252
6750,-12,-272,-61,-347,-128,-254
6755,-11,-281,-61,-288,-173,-255
6760,-14,-287,-65,-234,-219,-248
6765,-14,-292,-67,-170,-263,-239
6770,-21,-300,-63,-92,-307,-223
6775,-25,-304,-58,5,-349,-205
6780,-31,-303,-59,122,-385,-185
6785,-35,-308,-55,249,-420,-159
6790,-41,-303,-59,382,-454,-148
6795,-41,-288,-61,494,-467,-118
6800,-36,-270,-62,546,-457,-79
6805,-41,-256,-64,536,-438,-38
6810,-35,-245,-64,477,-444,-1
6815,-29,-226,-68,391,-474,27
6820,-20,-216,-70,278,-528,43
6825,-9,-203,-70,165,-602,45
6830,1,-189,-69,62,-681,39
6835,5,-179,-84,-29,-751,49
6840,11,-179,-81,-109,-798,88
6845,20,-182,-81,-174,-838,115
6850,24,-192,-84,-221,-862,127
6855,27,-205,-82,-246,-877,124
6860,25,-215,-83,-252,-883,114
6865,24,-227,-89,-243,-879,108
6870,19,-240,-88,-235,-863,104
6875,15,-249,-85,-232,-844,99
6880,6,-254,-88,-235,-827,88
6885,3,-262,-86,-241,-809,77
6890,2,-264,-91,-247,-795,66
6895,-9,-274,-82,-250,-787,55
6900,-9,-274,-84,-242,-792,39
6905,-11,-272,-80,-228,-797,22
6910,-9,-264,-83,-218,-797,13
6915,-7,-261,-83,-215,-794,10
6920,-9,-256,-82,-210,-795,10
6925,-8,-253,-83,-204,-799,9
6930,-2,-253,-84,-196,-803,9
6935,-3,-250,-84,-182,-810,11
6940,2,-250,-81,-170,-820,12
6945,0,-247,-87,-162,-836,9
6950,1,-249,-86,-160,-857,7
6955,3,-246,-85,-166,-881,-1
6960,5,-248,-91,-176,-905,-8
6965,1,-246,-90,-194,-924,-14
6970,4,-248,-89,-222,-934,-17
6975,7,-249,-95,-257,-934,-17
6980,10,-251,-93,-292,-930,-14
6985,10,-254,-90,-318,-920,-12
6990,13,-259,-90,-333,-910,-8
6995,9,-260,-85,-337,-898,-2
7000,8,-260,-81,-322,-889,4
7005,4,-261,-82,-296,-884,7
7010,5,-262,-81,-264,-883,4
7015,3,-257,-84,-232,-887,-3
7020,3,-254,-85,-211,-887,-9
7025,1,-252,-85,-209,-884,-6
7030,3,-253,-85,-225,-876,1
7035,3,-256,-85,-247,-874,7
7040,4,-261,-89,-263,-870,7
7045,7,-268,-85,-263,-866,4
7050,4,-274,-91,-247,-855,-3
7055,9,-284,-95,-223,-842,-14
7060,2,-289,-97,-188,-826,-31
7065,3,-298,-97,-144,-811,-56
7070,0,-301,-98,-89,-796,-87
7075,0,-301,-103,-32,-771,-122
7080,0,-299,-104,18,-735,-159
7085,-1,-295,-106,58,-690,-201
7090,-2,-289,-107,85,-637,-241
7095,-6,-280,-113,100,-583,-278
7100,-6,-270,-109,104,-535,-310
7105,-3,-266,-103,102,-492,-333
7110,-4,-256,-103,102,-462,-349
7115,-6,-248,-94,111,-444,-355
7120,-8,-248,-90,131,-429,-355
7125,-14,-245,-85,157,-418,-356
7130,-18,-245,-83,188,-412,-358
7135,-24,-241,-82,219,-418,-364
7140,-30,-236,-84,239,-433,-372
7145,-36,-231,-80,247,-464,-379
7150,-42,-229,-81,235,-512,-384
7155,-42,-227,-88,206,-573,-387
7160,-46,-222,-86,163,-640,-387
7165,-50,-223,-92,120,-711,-382
7170,-46,-218,-103,69,-780,-386
7175,-44,-216,-98,11,-833,-394
7180,-39,-225,-93,-36,-856,-387
7185,-37,-227,-90,-59,-855,-373
7190,-34,-233,-89,-64,-838,-355
7195,-32,-236,-85,-61,-814,-336
7200,-27,-238,-83,-61,-790,-318
7205,-25,-242,-83,-60,-771,-299
7210,-25,-246,-81,-56,-756,-285
7215,-26,-248,-79,-46,-747,-274
7220,-26,-250,-83,-33,-749,-267
7225,-28,-252,-81,-17,-757,-264
7230,-31,-253,-82,-4,-774,-258
7235,-33,-250,-82,1,-804,-251
7240,-35,-242,-76,-1,-841,-244
7245,-38,-241,-83,-4,-884,-233
7250,-42,-238,-82,-15,-913,-222
7255,-43,-233,-77,-17,-948,-213
7260,-39,-232,-81,-17,-976,-201
7265,-43,-230,-83,-26,-994,-187
7270,-42,-230,-86,-40,-1005,-172
7275,-44,-229,-83,-54,-1016,-157
7280,-46,-230,-85,-64,-1029,-139
7285,-47,-230,-85,-68,-1041,-122
7290,-42,-237,-81,-62,-1055,-104
7295,-40,-241,-81,-53,-1061,-82
7300,-37,-238,-85,-50,-1067,-56
7305,-35,-239,-82,-52,-1070,-33
7310,-25,-239,-83,-54,-1073,-14
7315,-20,-245,-81,-61,-1067,-2
7320,-16,-244,-84,-60,-1054,7
7325,-15,-246,-88,-53,-1034,19
7330,-12,-243,-86,-43,-1010,26
7335,-12,-246,-92,-26,-983,30
7340,-15,-247,-88,-5,-958,34
7345,-11,-246,-88,24,-935,34
7350,-15,-245,-87,59,-920,32
7355,-17,-245,-86,95,-907,31
7360,-17,-243,-84,118,-898,30
7365,-16,-243,-92,124,-886,31
7370,-14,-243,-90,117,-877,31
7375,-11,-237,-91,97,-867,25
7380,-10,-232,-86,61,-853,14
7385,-8,-229,-89,15,-834,0
7390,-4,-231,-93,-23,-805,-15
7395,-7,-232,-87,-39,-774,-20
7400,-6,-240,-88,-25,-741,-18
7405,-5,-243,-84,8,-709,-13
7410,-10,-241,-83,44,-685,-12
7415,-10,-240,-80,79,-677,-14
7420,-10,-239,-79,107,-675,-18
7425,-11,-240,-79,128,-674,-24
7430,-12,-236,-82,134,-665,-27
7435,-10,-238,-79,127,-643,-24
7440,-10,-239,-81,114,-611,-17
7445,-6,-238,-80,96,-567,-8
7450,-3,-241,-81,80,-517,-3
7455,-10,-237,-82,67,-468,1
7460,-5,-239,-87,64,-430,-3
7465,-1,-235,-83,68,-394,-8
7470,-2,-237,-84,78,-368,-22
7475,-3,-232,-77,92,-346,-31
7480,-2,-233,-75,106,-327,-39
7485,0,-235,-71,115,-310,-46
7490,0,-232,-72,125,-291,-48
7495,1,-231,-71,131,-265,-49
7500,2,-233,-69,130,-230,-50
7505,6,-231,-72,125,-192,-52
7510,7,-233,-68,117,-156,-60
7515,8,-229,-69,108,-119,-69
7520,10,-229,-74,95,-78,-75
7525,9,-228,-74,80,-47,-85
7530,3,-229,-74,69,-24,-100
7535,2,-233,-79,63,-7,-120
7540,-2,-236,-75,63,6,-136
7545,-9,-238,-72,66,19,-148
7550,-13,-239,-71,69,34,-153
7555,-16,-245,-69,73,54,-151
7560,-15,-250,-67,78,77,-145
7565,-19,-251,-70,82,105,-136
7570,-16,-253,-72,88,134,-126
7575,-19,-249,-70,93,159,-119
7580,-18,-248,-72,97,182,-114
7585,-12,-248,-79,97,205,-112
7590,-13,-241,-82,96,225,-111
7595,-6,-238,-78,99,242,-113
7600,-7,-240,-82,102,256,-114
7605,-8,-241,-83,104,265,-120
7610,-11,-241,-82,107,273,-127
7615,-13,-240,-82,111,276,-128
7620,-17,-243,-77,116,281,-127
7625,-17,-247,-68,124,286,-122
7630,-17,-246,-67,134,293,-119
7635,-16,-246,-68,144,305,-114
7640,-15,-242,-72,146,321,-104
7645,-11,-244,-67,138,338,-95
7650,-6,-243,-68,128,354,-88
7655,-2,-245,-70,117,363,-87
7660,-5,-245,-71,108,364,-90
7665,-8,-246,-75,110,360,-99
7670,-5,-249,-76,119,356,-110
7675,-9,-252,-70,134,346,-123
7680,-10,-251,-70,156,343,-132
7685,-13,-250,-69,177,347,-140
7690,-13,-248,-67,194,355,-143
7695,-12,-245,-64,202,364,-142
7700,-11,-240,-61,207,376,-137
7705,1,-243,-50,205,388,-135
7710,0,-236,-62,197,400,-131
7715,2,-233,-66,187,410,-129
7720,6,-229,-67,176,416,-130
7725,5,-231,-70,170,420,-132
7730,9,-228,-72,165,423,-137
7735,11,-233,-76,161,427,-144
7740,10,-229,-67,158,433,-149
7745,14,-234,-64,162,438,-153
7750,11,-230,-62,168,443,-157
7755,15,-234,-60,179,447,-159
7760,14,-234,-57,189,457,-159
7765,17,-234,-55,197,463,-157
7770,22,-236,-52,207,470,-153
7775,25,-236,-48,220,478,-151
7780,27,-238,-45,232,488,-148
7785,25,-236,-37,247,497,-147
7790,28,-230,-40,257,507,-143
7795,26,-227,-37,262,519,-139
7800,26,-223,-41,260,532,-136
7805,27,-215,-43,251,549,-133
7810,27,-215,-43,238,565,-132
7815,26,-210,-45,225,580,-128
7820,30,-214,-43,219,593,-124
7825,31,-216,-42,227,608,-119
7830,36,-216,-37,248,616,-111
7835,37,-218,-36,281,621,-104
7840,36,-217,-29,315,623,-96
7845,34,-215,-29,351,621,-90
7850,34,-218,-34,375,615,-82
7855,32,-224,-34,387,606,-74
7860,32,-223,-30,396,591,-65
7865,36,-228,-29,409,572,-56
7870,36,-227,-21,430,554,-49
7875,35,-227,-18,455,535,-39
7880,36,-228,-15,483,518,-29
7885,40,-224,-10,514,503,-18
7890,39,-220,-14,538,487,-5
7895,39,-216,-14,562,469,6
7900,42,-215,-16,580,451,13
7905,43,-210,-14,593,435,18
7910,47,-207,-16,597,414,18
7915,46,-204,-18,591,393,20
7920,41,-208,-19,575,369,25
7925,50,-200,-10,560,341,29
7930,50,-196,-3,556,309,30
7935,54,-199,1,563,277,31
7940,54,-199,2,572,249,31
7945,51,-198,1,586,222,35
7950,56,-199,5,594,194,40
7955,54,-197,4,600,154,49
7960,55,-198,9,597,107,59
7965,57,-199,8,594,51,70
7970,55,-196,12,592,-9,80
7975,54,-192,11,589,-67,93
7980,51,-190,9,586,-127,105
7985,49,-184,7,587,-184,118
7990,46,-184,1,589,-237,132
7995,45,-176,2,590,-281,156
8000,47,-164,-2,581,-303,205
8005,38,-163,-1,555,-310,272
8010,43,-157,1,533,-371,283
8015,46,-152,0,508,-426,290
8020,50,-147,4,475,-456,305
8025,53,-147,6,438,-472,333
8030,70,-168,7,405,-485,361
8035,64,-154,6,379,-494,392
8040,71,-158,-4,356,-506,413
8045,82,-156,-9,334,-511,437
8050,84,-155,-16,311,-510,463
8055,95,-153,-21,286,-505,490
8060,107,-145,-24,250,-496,510
8065,108,-141,-33,213,-486,530
8070,106,-137,-37,169,-479,539
8075,104,-138,-30,124,-475,533
8080,100,-135,-36,88,-463,526
8085,95,-139,-32,59,-434,526
8090,88,-141,-36,28,-381,552
8095,71,-149,-38,-34,-305,583
8100,48,-158,-38,-142,-251,563
8105,31,-175,-37,-251,-207,541
8110,6,-180,-34,-350,-144,548
8115,-19,-186,-27,-478,-108,543
8120,-39,-194,-29,-616,-122,522
8125,-54,-203,-25,-741,-152,542
8130,-82,-215,-18,-859,-195,599
8135,-113,-225,-18,-952,-296,644
8140,-135,-226,-19,-1005,-453,669
8145,-157,-233,-19,-1037,-618,712
8150,-173,-238,-18,-1064,-778,783
8155,-190,-241,-27,-1095,-926,877
8160,-193,-250,-34,-1134,-1053,988
8165,-192,-260,-52,-1179,-1154,1102
8170,-188,-274,-70,-1232,-1231,1209
8175,-175,-285,-89,-1293,-1283,1304
8180,-149,-297,-106,-1358,-1323,1386
8185,-122,-310,-125,-1422,-1350,1440
8190,-90,-312,-139,-1483,-1372,1462
8195,-65,-320,-148,-1535,-1398,1455
8200,-50,-330,-157,-1586,-1432,1425
8205,-42,-333,-165,-1639,-1477,1377
8210,-38,-338,-158,-1698,-1521,1322
8215,-46,-346,-156,-1755,-1554,1268
8220,-61,-351,-144,-1798,-1575,1218
8225,-69,-350,-138,-1816,-1581,1182
8230,-87,-347,-126,-1815,-1581,1161
8235,-104,-352,-114,-1785,-1575,1157
8240,-114,-336,-108,-1715,-1575,1169
8245,-112,-316,-93,-1616,-1580,1208
8250,-117,-298,-94,-1485,-1593,1261
8255,-114,-265,-83,-1326,-1632,1321
8260,-118,-231,-74,-1114,-1686,1363
8265,-107,-187,-79,-863,-1736,1394
8270,-116,-151,-77,-632,-1785,1402
8275,-112,-103,-79,-436,-1845,1391
8280,-117,-70,-81,-304,-1934,1357
8285,-117,-39,-73,-266,-2057,1311
8290,-125,-12,-62,-345,-2206,1269
8295,-127,7,-55,-530,-2363,1232
8300,-142,9,-48,-790,-2515,1206
8305,-143,-4,-24,-1079,-2646,1191
8310,-156,-29,-5,-1346,-2733,1192
8315,-158,-61,11,-1561,-2753,1214
8320,-145,-104,25,-1705,-2715,1267
8325,-126,-153,36,-1769,-2645,1339
8330,-95,-191,30,-1760,-2583,1409
8335,-62,-222,36,-1699,-2554,1467
8340,-32,-238,34,-1581,-2564,1513
8345,-8,-247,26,-1390,-2590,1545
8350,24,-248,34,-1143,-2598,1560
8355,32,-250,23,-860,-2539,1542
8360,28,-236,21,-558,-2407,1504
8365,13,-212,20,-269,-2234,1469
8370,5,-188,18,-19,-2075,1451
8375,-13,-157,22,184,-1967,1438
8380,-30,-122,25,336,-1929,1426
8385,-46,-95,30,422,-1966,1421
8390,-62,-76,32,453,-2077,1432
8395,-84,-69,36,439,-2241,1460
8400,-108,-67,44,401,-2409,1504
8405,-138,-75,45,364,-2538,1555
8410,-172,-90,45,339,-2627,1611
8415,-215,-115,44,324,-2687,1671
8420,-259,-140,33,326,-2725,1733
8425,-311,-172,24,352,-2743,1798
8430,-369,-202,15,406,-2754,1877
8435,-423,-237,2,482,-2767,1982
8440,-487,-268,-10,580,-2776,2109
8445,-544,-307,-13,684,-2801,2277
8450,-606,-353,-21,782,-2851,2477
8455,-655,-412,-24,883,-2914,2696
8460,-700,-450,-16,992,-2954,2922
8465,-736,-503,10,1086,-2955,3132
8470,-759,-552,43,1174,-2928,3305
8475,-777,-596,82,1273,-2879,3417
8480,-798,-641,104,1402,-2823,3451
8485,-779,-680,119,1553,-2778,3435
8490,-736,-711,123,1760,-2756,3363
8495,-660,-708,120,2017,-2712,3176
8500,-562,-678,87,2288,-2669,2881
8505,-453,-629,64,2557,-2652,2525
8510,-322,-550,47,2807,-2660,2203
8515,-236,-457,70,3062,-2627,2003
8520,-139,-365,92,3321,-2509,2011
8525,-65,-273,104,3503,-2317,2148
8530,-22,-192,134,3543,-2090,2362
8535,5,-114,144,3460,-1911,2553
8540,14,-53,155,3284,-1784,2679
8545,28,-5,155,3036,-1719,2715
8550,34,36,162,2741,-1679,2666
8555,21,70,172,2416,-1645,2544
8560,8,77,174,2116,-1658,2380
8565,-37,77,158,1883,-1722,2179
8570,-91,79,139,1698,-1829,1969
8575,-157,54,131,1551,-1959,1796
8580,-207,9,124,1497,-2098,1657
8585,-255,-31,133,1511,-2191,1493
8590,-312,-70,141,1563,-2233,1325
8595,-347,-103,142,1584,-2230,1160
8600,-407,-134,140,1543,-2166,994
8605,-467,-163,138,1485,-2127,837
8610,-464,-189,160,1448,-2177,710
8615,-465,-188,146,1498,-2302,607
8620,-428,-181,138,1586,-2482,612
8625,-361,-156,118,1694,-2673,711
8630,-278,-115,100,1744,-2829,846
8635,-200,-68,82,1709,-2933,977
8640,-139,-19,82,1618,-2988,1101
8645,-84,22,88,1509,-3002,1201
8650,-44,49,91,1412,-2969,1250
8655,-16,61,98,1359,-2881,1238
8660,2,59,110,1344,-2770,1190
8665,9,49,122,1356,-2641,1125
8670,-2,33,148,1407,-2523,1066
8675,-18,25,160,1513,-2434,1032
8680,-38,13,161,1653,-2392,1019
8685,-51,16,151,1779,-2385,992
8690,-70,28,155,1868,-2386,955
8695,-96,44,162,1930,-2400,948
8700,-108,63,161,1968,-2462,964
8705,-132,89,182,1959,-2568,988
8710,-158,100,196,1905,-2704,1008
8715,-158,121,212,1851,-2844,1009
8720,-184,139,222,1799,-2924,979
8725,-188,151,225,1748,-2949,938
8730,-188,160,227,1690,-2915,861
8735,-177,160,231,1616,-2833,774
8740,-170,162,239,1548,-2729,682
8745,-167,165,255,1495,-2655,593
8750,-149,175,274,1442,-2632,514
8755,-132,182,275,1380,-2633,416
8760,-134,187,281,1320,-2658,272
8765,-120,192,265,1295,-2681,141
8770,-103,204,272,1306,-2649,33
8775,-98,210,266,1316,-2590,-76
8780,-101,233,279,1296,-2528,-163
8785,-87,243,278,1221,-2462,-216
8790,-76,259,281,1098,-2397,-286
8795,-72,265,279,951,-2337,-345
8800,-55,264,259,792,-2262,-386
8805,-30,262,245,629,-2171,-413
8810,-1,255,233,450,-2084,-453
8815,20,243,226,235,-2006,-496
8820,45,222,221,-5,-1941,-537
8825,59,197,232,-220,-1874,-587
8830,69,172,231,-372,-1819,-633
8835,80,143,226,-450,-1780,-650
8840,80,113,223,-470,-1736,-655
8845,71,84,222,-455,-1705,-634
8850,73,51,225,-423,-1676,-580
8855,68,19,227,-371,-1645,-494
8860,60,0,222,-317,-1602,-407
8865,52,-22,222,-275,-1544,-326
8870,48,-18,221,-246,-1490,-252
8875,52,-7,220,-245,-1427,-170
8880,51,-2,221,-249,-1343,-94
8885,64,9,222,-244,-1242,-34
8890,60,22,225,-212,-1134,12
8895,67,36,226,-157,-1025,39
8900,70,61,227,-106,-921,26
8905,65,79,226,-111,-829,0
8910,63,77,220,-146,-735,-17
8915,55,72,220,-193,-649,-28
8920,45,65,218,-222,-577,-26
8925,34,59,219,-191,-518,-19
8930,26,55,208,-120,-473,-10
8935,24,60,200,-44,-440,-6
8940,25,67,195,14,-423,4
8945,28,72,189,42,-418,25
8950,36,82,183,46,-418,60
8955,48,88,175,39,-417,96
8960,56,91,180,13,-411,130
8965,65,92,179,-14,-403,158
8970,70,90,183,-28,-384,179
8975,76,92,186,-37,-358,191
8980,80,89,191,-48,-321,189
8985,89,79,203,-61,-265,178
8990,81,88,208,-74,-191,156
8995,80,85,220,-84,-109,128
9000,73,85,231,-90,-27,103
9005,65,89,228,-94,44,83
9010,59,87,240,-113,94,69
9015,55,83,243,-106,145,70
9020,47,78,243,-91,186,84
9025,41,72,244,-89,213,98
9030,42,64,248,-97,233,113
9035,41,54,253,-116,242,122
9040,49,46,260,-134,242,116
9045,51,32,263,-138,242,105
9050,54,27,268,-115,251,89
9055,56,17,269,-57,273,64
9060,51,18,270,25,303,31
9065,50,22,275,102,341,-8
9070,45,26,276,169,385,-45
9075,43,31,278,218,436,-71
9080,36,38,275,244,493,-98
9085,30,41,278,252,543,-125
9090,22,50,268,255,582,-150
9095,18,62,271,263,609,-175
9100,7,61,256,276,620,-199
9105,6,72,246,281,612,-222
9110,6,78,242,268,590,-234
9115,8,88,233,243,563,-241
9120,4,97,237,195,538,-246
9125,4,104,239,136,516,-250
9130,4,107,243,66,499,-254
9135,0,110,244,1,490,-258
9140,-5,113,238,-65,487,-268
9145,-2,119,236,-130,498,-285
9150,-16,120,228,-182,525,-309
9155,-25,113,226,-207,540,-317
9160,-22,97,217,-208,548,-306
9165,-28,91,217,-209,581,-314
9170,-32,86,217,-209,612,-323
9175,-47,77,228,-212,619,-326
9180,-48,71,230,-206,576,-309
9185,-31,62,232,-207,504,-290
9190,-13,55,244,-225,446,-293
9195,-1,50,260,-243,415,-319
9200,2,50,268,-246,402,-362
9205,8,60,269,-221,389,-408
9210,6,57,267,-170,378,-444
9215,-1,62,268,-110,368,-481
9220,-3,66,255,-35,361,-482
9225,-2,72,243,33,364,-470
9230,0,84,243,91,382,-456
9235,-2,90,240,133,406,-445
9240,-4,102,240,149,430,-430
9245,-5,101,232,140,458,-431
9250,-6,99,239,86,502,-437
9255,-15,87,227,3,553,-426
9260,-16,58,254,-136,607,-385
9265,-30,24,261,-220,628,-336
9270,-23,0,249,-225,592,-283
9275,-30,-32,246,-183,540,-228
9280,-31,-53,235,-113,490,-173
9285,-50,-63,210,-53,464,-123
9290,-54,-85,197,-21,455,-68
9295,-65,-100,185,-20,462,-32
9300,-78,-111,186,-38,478,-23
9305,-91,-118,192,-53,514,-32
9310,-102,-123,217,-34,551,-54
9315,-113,-118,209,10,601,-77
9320,-129,-112,229,71,664,-103
9325,-140,-96,241,159,705,-118
9330,-152,-79,250,259,715,-123
9335,-169,-59,264,355,689,-127
9340,-182,-38,260,447,629,-112
9345,-195,-16,267,523,550,-83
9350,-207,8,261,582,434,-43
9355,-209,39,253,613,302,5
9360,-202,73,249,611,184,66
9365,-197,100,249,595,74,158
9370,-180,117,241,581,-52,288
9375,-144,118,239,570,-191,421
9380,-96,110,229,534,-329,493
9385,-68,99,218,446,-447,486
9390,-57,84,217,303,-547,456
9395,-32,61,218,119,-638,437
9400,-8,36,222,-70,-705,406
9405,10,14,230,-254,-746,352
9410,31,-6,231,-407,-755,268
9415,25,-23,241,-492,-710,172
9420,35,-33,250,-513,-619,94
9425,38,-50,258,-474,-489,28
9430,27,-53,257,-368,-328,-25
9435,10,-43,256,-222,-160,-55
9440,-9,-26,245,-85,-4,-48
9445,-27,-9,238,8,122,-31
9450,-43,9,234,46,224,-19
9455,-56,27,232,37,306,-10
9460,-65,39,230,4,369,0
9465,-78,46,234,-30,415,3
9470,-90,49,235,-49,441,13
9475,-96,53,235,-58,444,24
9480,-100,55,233,-64,423,27
9485,-94,55,234,-82,384,18
9490,-86,52,233,-112,323,0
9495,-75,41,237,-132,261,-29
9500,-64,34,238,-142,204,-67
9505,-59,25,238,-155,153,-104
9510,-52,19,243,-179,108,-134
9515,-45,12,246,-206,68,-153
9520,-44,9,251,-225,37,-158
9525,-38,10,247,-217,10,-154
9530,-31,6,257,-195,1,-141
9535,-36,10,254,-132,-1,-126
9540,-34,11,254,-40,8,-107
9545,-36,21,251,62,16,-86
9550,-35,33,246,164,27,-63
9555,-35,48,244,248,35,-44
9560,-36,58,239,306,41,-23
9565,-38,67,236,335,38,-7
9570,-35,71,232,336,29,6
9575,-40,78,229,303,18,9
9580,-39,78,227,253,1,10
9585,-37,75,228,192,-17,5
9590,-40,73,226,137,-31,-3
9595,-41,71,231,66,-39,-14
9600,-40,63,234,7,-51,-18
9605,-44,65,232,-37,-62,-20
9610,-43,62,234,-66,-67,-21
9615,-43,55,238,-86,-71,-14
9620,-45,55,236,-91,-74,-5
9625,-47,54,237,-88,-73,9
9630,-45,56,237,-79,-71,24
9635,-47,53,236,-67,-67,41
9640,-48,46,243,-51,-66,57
9645,-50,50,238,-34,-64,72
9650,-49,52,238,-21,-60,83
9655,-50,53,239,-19,-50,88
9660,-46,51,243,-27,-38,89
9665,-48,51,244,-32,-28,83
9670,-42,49,243,-37,-16,78
9675,-44,46,252,-49,-2,65
9680,-39,46,248,-56,12,49
9685,-38,49,254,-52,24,35
9690,-32,48,255,-40,38,20
9695,-31,47,248,-36,54,9
9700,-23,47,254,-41,74,0
9705,-25,48,248,-49,90,-9
9710,-20,45,249,-58,106,-18
9715,-21,46,250,-74,119,-21
9720,-17,45,250,-85,127,-21
9725,-19,49,241,-87,138,-25
9730,-17,47,246,-82,149,-32
9735,-17,46,244,-68,155,-37
9740,-20,45,244,-52,157,-39
9745,-24,43,240,-41,156,-35
9750,-22,46,241,-39,156,-29
9755,-27,45,239,-44,151,-26
9760,-33,43,240,-53,149,-24
9765,-38,40,241,-65,144,-21
9770,-38,39,243,-63,130,-17
9775,-42,37,237,-56,118,-11
9780,-44,38,239,-46,108,-12
9785,-52,41,237,-36,104,-11
9790,-50,37,242,-21,94,-7
9795,-55,40,242,8,79,3
9800,-53,37,239,36,61,10
9805,-56,43,238,56,50,10
9810,-60,42,235,65,43,9
9815,-63,46,237,68,35,15
9820,-62,44,235,66,25,19
9825,-64,46,236,62,14,19
9830,-64,40,235,55,3,13
9835,-64,44,236,44,-6,7
9840,-66,39,235,32,-15,2
9845,-67,39,236,23,-22,-2
9850,-66,41,235,17,-24,-7
9855,-68,35,237,13,-24,-9
9860,-63,39,235,13,-20,-10
9865,-63,40,236,14,-17,-4
9870,-62,43,236,15,-14,3
9875,-55,46,235,15,-11,14
9880,-53,48,236,11,-7,24
9885,-49,47,236,4,-8,35
9890,-43,45,236,-12,-10,45
9895,-40,47,238,-31,-13,52
9900,-36,51,239,-58,-12,60
9905,-34,47,240,-91,-9,61
9910,-31,42,239,-123,-4,64
9915,-26,39,242,-146,2,62
9920,-24,43,245,-158,9,57
9925,-19,36,244,-159,21,49
9930,-19,38,247,-154,38,38
9935,-20,33,247,-137,56,27
9940,-21,34,245,-118,75,22
9945,-22,37,250,-96,94,18
9950,-24,37,244,-71,110,16
9955,-25,36,249,-38,120,16
9960,-29,38,247,-9,127,18
9965,-32,36,245,15,131,20
9970,-25,39,239,24,134,21
9975,-31,43,240,28,132,21
9980,-30,40,239,29,123,20
9985,-29,40,237,26,113,16
9990,-29,39,243,18,104,11
9995,-29,41,241,13,98,5
10000,-28,39,241,2,95,0
10005,-29,39,239,-13,98,-5
10010,-28,39,238,-27,105,-10
10015,-32,43,240,-35,107,-13
10020,-30,37,242,-40,107,-14
10025,-35,40,240,-44,107,-18
10030,-36,38,240,-47,103,-19
10035,-40,40,245,-45,94,-20
10040,-43,38,244,-33,79,-18
10045,-44,43,239,-17,65,-18
10050,-45,44,242,-7,62,-20
10055,-49,45,241,-2,64,-24
10060,-47,45,241,3,71,-26
10065,-53,42,242,11,73,-30
10070,-50,51,245,41,75,-39
10075,-55,49,239,77,80,-44
10080,-42,54,234,101,87,-36
10085,-41,56,230,70,114,-51
10090,-43,45,241,0,145,-64
10095,-47,38,236,-24,147,-69
10100,-44,36,238,-26,135,-56
10105,-42,30,238,-2,123,-33
10110,-39,33,235,54,106,-15
10115,-37,37,235,115,88,0
10120,-38,43,235,166,63,15
10125,-40,44,235,188,22,28
10130,-41,51,234,170,-30,42
10135,-41,55,241,112,-75,47
10140,-44,64,241,21,-95,39
10145,-42,68,246,-97,-80,27
10150,-41,70,252,-214,-39,5
10155,-45,68,255,-316,28,-21
10160,-42,62,259,-389,102,-44
10165,-45,51,259,-418,162,-58
10170,-51,42,256,-405,191,-60
10175,-52,31,256,-348,187,-52
10180,-51,23,252,-269,159,-36
10185,-49,15,241,-176,123,-20
10190,-45,21,240,-88,96,-7
10195,-41,22,238,-18,82,3
10200,-40,23,235,31,79,13
10205,-39,28,232,60,83,20
10210,-42,32,228,68,88,25
10215,-44,33,233,62,90,26
10220,-44,37,233,49,85,25
10225,-47,42,233,32,81,21
10230,-45,45,233,11,70,19
10235,-48,48,234,-7,57,17
10240,-48,51,235,-21,44,13
10245,-47,46,237,-32,32,8
10250,-48,48,242,-39,20,6
10255,-47,45,240,-44,10,4
10260,-48,42,242,-47,3,0
10265,-49,41,245,-48,-4,-3
10270,-50,37,243,-48,-6,-2
10275,-45,38,241,-52,-4,-1
10280,-44,35,244,-59,4,0
10285,-44,33,247,-65,11,0
10290,-44,37,248,-68,19,1
10295,-42,35,249,-67,28,-1
10300,-41,35,246,-65,38,0
10305,-40,37,244,-63,50,0
10310,-42,37,247,-58,60,1
10315,-42,38,245,-54,70,2
10320,-41,41,245,-53,77,4
10325,-39,41,240,-54,79,4
10330,-37,42,243,-55,78,6
10335,-39,40,241,-60,72,5
10340,-36,42,237,-65,67,3
10345,-40,42,241,-72,60,3
10350,-35,39,241,-80,52,2
10355,-37,40,240,-90,47,1
10360,-39,41,239,-98,44,-1
10365,-36,37,241,-103,40,-2
10370,-38,39,241,-109,37,0
10375,-35,37,242,-112,36,-1
10380,-38,38,243,-113,36,0
10385,-36,40,240,-114,38,3
10390,-37,39,244,-115,41,3
10395,-38,40,245,-114,47,5
10400,-36,38,244,-112,54,7
10405,-36,40,240,-113,60,10
10410,-34,39,239,-113,65,12
10415,-36,42,247,-114,70,13
10420,-36,38,241,-116,72,14
10425,-40,38,239,-120,71,16
10430,-38,40,242,-126,68,14
10435,-37,38,242,-129,66,12
10440,-39,38,240,-130,62,11
10445,-37,35,240,-130,59,8
10450,-39,38,244,-128,57,5
10455,-41,38,240,-125,54,3
10460,-40,36,244,-123,54,2
10465,-42,37,242,-121,51,0
10470,-40,35,243,-118,53,-2
10475,-43,33,245,-117,56,-2
10480,-39,33,240,-117,59,-1
10485,-39,34,242,-115,63,-2
10490,-42,34,242,-113,67,0
10495,-42,33,239,-110,69,2
10500,-42,33,243,-106,72,3
10505,-43,33,242,-102,76,3
10510,-37,32,235,-98,78,6
10515,-39,32,241,-95,83,6
10520,-39,32,241,-91,83,8
10525,-41,28,239,-85,83,7
10530,-39,30,242,-80,82,9
10535,-42,31,242,-77,78,10
10540,-40,31,238,-75,75,9
10545,-42,31,236,-71,69,10
10550,-41,27,239,-66,67,13
10555,-44,29,243,-60,66,14
10560,-41,31,241,-54,66,14
10565,-43,28,239,-49,65,13
10570,-42,31,239,-40,67,13
10575,-41,31,238,-30,67,12
10580,-39,31,240,-24,69,10
10585,-39,33,241,-21,70,8
10590,-41,30,238,-20,71,8
10595,-38,31,237,-21,77,8
10600,-39,33,238,-22,81,9
10605,-36,34,243,-27,84,12
10610,-39,34,246,-32,87,13
10615,-36,34,241,-37,91,14
10620,-36,29,244,-43,93,15
10625,-36,30,241,-52,95,16
10630,-37,28,243,-60,97,14
10635,-36,30,244,-66,99,13
10640,-38,31,246,-72,100,12
10645,-37,27,241,-73,102,10
10650,-38,32,243,-72,102,10
10655,-41,27,243,-68,100,10
10660,-39,30,239,-65,99,12
10665,-41,29,242,-65,95,12
10670,-39,31,240,-68,89,13
10675,-41,30,240,-72,82,11
10680,-41,30,245,-80,75,11
10685,-42,31,241,-90,68,8
10690,-41,29,241,-95,61,5
10695,-41,28,239,-97,57,2
10700,-41,30,243,-96,54,-1
10705,-42,32,241,-89,54,-2
10710,-45,31,245,-79,55,-3
10715,-40,29,241,-69,58,-2
10720,-43,32,243,-57,60,-2
10725,-46,30,241,-46,65,-1
10730,-49,33,239,-36,68,1
10735,-43,31,244,-29,71,-1
10740,-45,33,241,-25,74,-2
10745,-42,34,241,-26,74,-4
10750,-42,32,240,-30,73,-7
10755,-43,32,240,-34,72,-8
10760,-42,35,241,-40,70,-9
10765,-42,33,244,-45,67,-10
10770,-42,31,240,-49,64,-11
10775,-41,32,240,-53,65,-13
10780,-37,33,244,-53,65,-13
10785,-41,30,243,-53,67,-13
10790,-43,28,240,-52,67,-13
10795,-41,29,244,-51,71,-12
10800,-43,30,242,-46,75,-11
10805,-40,31,246,-40,78,-6
10810,-42,33,242,-37,81,-5
10815,-40,29,243,-33,81,-3
10820,-42,28,241,-29,81,-2
10825,-41,28,242,-26,81,-2
10830,-41,28,240,-25,79,0
10835,-39,22,242,-22,78,1
10840,-40,29,242,-21,75,2
10845,-41,29,241,-19,74,0
10850,-39,29,240,-17,75,0
10855,-39,29,239,-18,74,2
10860,-39,29,239,-18,73,4
10865,-36,27,240,-20,75,3
10870,-36,28,242,-25,75,4
10875,-39,29,239,-29,75,4
10880,-37,30,241,-32,74,2
10885,-37,29,241,-36,75,1
10890,-38,32,242,-38,75,1
10895,-38,24,240,-37,77,0
10900,-39,28,242,-35,78,-1
10905,-38,27,243,-32,81,-1
10910,-37,25,242,-28,83,-1
10915,-38,28,244,-26,83,0
10920,-42,28,240,-24,83,2
10925,-40,28,242,-24,83,2
10930,-37,27,242,-28,82,2
10935,-35,28,240,-32,81,2
10940,-41,29,240,-39,78,1
10945,-37,34,245,-46,75,1
10950,-41,31,244,-52,74,0
10955,-39,30,242,-57,71,-2
10960,-39,29,242,-64,71,-3
10965,-40,30,241,-65,70,-4
10970,-41,31,243,-67,70,-5
10975,-42,32,242,-67,70,-7
10980,-40,26,242,-64,70,-6
10985,-42,28,245,-60,70,-7
10990,-43,29,245,-54,72,-7
10995,-41,28,237,-49,72,-8
11000,-43,25,245,-44,72,-8
11005,-43,27,244,-41,71,-8
11010,-41,26,239,-40,71,-7
11015,-41,30,241,-39,72,-8
11020,-44,29,241,-42,72,-7
11025,-40,29,241,-43,73,-6
11030,-42,27,242,-42,74,-6
11035,-43,34,239,-43,77,-5
11040,-43,29,241,-42,78,-6
11045,-40,28,243,-40,80,-4
11050,-41,28,244,-36,82,-2
11055,-43,29,240,-32,83,-1
11060,-43,31,243,-29,84,0
11065,-44,31,243,-24,82,1
11070,-44,30,239,-21,83,3
11075,-41,28,237,-18,83,4
11080,-41,27,240,-15,82,5
11085,-41,32,243,-12,80,6
11090,-46,26,243,-8,78,4
11095,-40,30,240,-7,75,4
11100,-42,27,241,-4,73,4
11105,-39,25,241,-2,69,3
11110,-40,29,244,-1,65,2
11115,-42,27,238,-2,62,1
11120,-40,25,240,-2,60,0
11125,-40,27,240,-4,60,-1
11130,-41,28,239,-7,62,-2
11135,-41,28,240,-10,65,-2
11140,-40,27,241,-12,68,-3
11145,-38,29,240,-13,68,0
11150,-41,27,244,-13,69,0
11155,-42,28,243,-12,70,1
11160,-40,26,240,-10,70,2
11165,-45,22,248,-9,68,2
11170,-39,27,242,-8,66,1
11175,-39,28,240,-9,63,1
11180,-36,25,241,-12,60,0
11185,-40,28,241,-14,59,-2
11190,-39,29,243,-20,58,-2
11195,-39,26,241,-23,60,-2
11200,-40,27,245,-24,62,-3
11205,-41,30,245,-21,65,-3
11210,-39,27,238,-16,68,-3
11215,-42,26,243,-7,68,-5
11220,-40,25,240,4,68,-5
11225,-43,26,242,15,71,-6
11230,-42,26,238,26,70,-7
11235,-42,28,240,38,68,-6
11240,-41,28,237,44,65,-6
11245,-41,26,241,47,63,-6
11250,-41,27,237,48,60,-6
11255,-43,24,241,45,57,-7
11260,-43,29,238,39,54,-7
11265,-43,27,239,30,52,-7
11270,-43,29,241,21,50,-9
11275,-43,26,241,6,49,-10
11280,-45,28,244,-5,51,-11
11285,-42,27,242,-10,53,-10
11290,-41,25,244,-11,54,-10
11295,-45,29,242,-6,59,-6
11300,-39,25,242,1,61,-5
11305,-40,28,242,9,63,-3
11310,-38,31,245,14,65,-1
11315,-38,28,241,14,63,1
11320,-40,29,240,11,62,0
11325,-44,30,241,6,57,-1
11330,-40,28,244,1,55,-2
11335,-42,31,240,-2,54,-4
11340,-40,30,243,-1,53,-3
11345,-38,29,244,3,54,-2
11350,-39,29,241,6,54,-3
11355,-40,29,241,10,56,0
11360,-42,32,241,14,56,1
11365,-40,29,241,20,58,1
11370,-39,31,245,23,58,2
11375,-37,28,242,25,60,0
11380,-34,36,242,25,61,0
11385,-41,31,242,19,61,-1
11390,-39,31,242,16,60,-2
11395,-41,32,241,12,60,-4
11400,-38,30,241,8,55,-4
11405,-38,30,242,5,53,-5
11410,-37,32,242,3,51,-5
11415,-41,31,238,1,51,-6
11420,-41,32,242,2,49,-6
11425,-40,30,241,1,48,-6
11430,-42,27,240,3,49,-7
11435,-41,30,239,1,51,-6
11440,-43,29,241,2,53,-5
11445,-40,29,241,3,56,-5
11450,-40,30,240,4,59,-3
11455,-39,31,241,3,59,-3
11460,-41,31,243,4,61,-2
11465,-39,28,241,5,61,-3
11470,-40,31,241,5,61,-4
11475,-37,29,243,8,60,-5
11480,-39,30,240,10,59,-5
11485,-39,27,239,12,56,-4
11490,-38,29,235,15,54,-5
11495,-39,29,240,17,54,-5
11500,-39,34,240,17,52,-4
11505,-36,31,242,15,50,-3
11510,-38,31,238,11,49,-3
11515,-38,29,243,5,47,-5
11520,-38,32,244,1,46,-4
11525,-40,27,240,-3,43,-5
11530,-42,28,242,-6,45,-7
11535,-43,30,241,-8,46,-6
11540,-40,25,246,-8,49,-6
11545,-44,28,241,-4,52,-7
11550,-40,30,240,3,57,-6
11555,-40,28,246,11,58,-6
11560,-41,30,238,19,61,-5
11565,-41,28,241,25,60,-5
11570,-39,29,240,30,60,-4
11575,-40,31,239,31,59,-3
11580,-43,29,238,30,56,-3
11585,-38,30,241,25,54,-2
11590,-40,30,240,22,51,-4
11595,-39,29,245,17,49,-4
11600,-38,37,246,12,47,-3
11605,-41,32,239,5,46,-4
11610,-41,31,242,1,44,-4
11615,-40,29,243,-2,44,-5
11620,-38,31,242,-3,46,-6
11625,-42,30,241,-3,47,-4
11630,-40,30,241,-2,50,-4
11635,-39,30,242,-1,52,-5
11640,-40,31,241,2,55,-5
11645,-38,30,240,2,59,-5
11650,-38,33,241,2,61,-5
11655,-35,29,243,-1,63,-5
11660,-40,34,244,-3,65,-5
11665,-38,32,245,-7,65,-6
11670,-37,31,240,-11,66,-7
11675,-39,34,242,-13,66,-6
11680,-36,34,243,-16,65,-5
11685,-37,32,244,-16,64,-5
11690,-35,30,245,-16,63,-4
11695,-39,29,241,-12,63,-3
11700,-38,32,242,-11,61,-3
11705,-40,30,242,-8,61,-2
11710,-40,33,252,-5,60,0
11715,-38,30,240,-4,58,-1
11720,-36,31,241,0,57,-2
11725,-39,30,242,1,55,-1
11730,-38,31,241,2,53,-1
11735,-37,29,239,2,51,-2
11740,-41,32,240,2,49,-2
11745,-38,31,242,1,48,-2
11750,-38,33,241,0,49,-3
11755,-35,33,239,-7,52,-5
11760,-38,36,243,-14,57,-5
11765,-39,35,240,-16,59,-4
11770,-40,33,239,-17,58,-5
11775,-37,29,239,-17,59,-5
11780,-36,30,243,-19,61,-4
11785,-38,32,243,-20,64,-4
11790,-37,31,245,-18,67,-4
11795,-36,29,240,-18,67,-4
11800,-37,34,244,-16,68,-2
11805,-39,30,246,-14,66,-3
11810,-40,30,241,-11,69,-2
11815,-42,32,243,-12,69,-1
11820,-37,28,234,-14,64,-1
11825,-40,28,242,-18,59,0
11830,-38,30,241,-27,57,-1
11835,-40,29,239,-33,55,-1
11840,-38,28,242,-39,58,-1
11845,-40,31,241,-43,61,-2
11850,-39,31,242,-41,63,0
11855,-39,31,241,-40,63,-1
11860,-41,30,245,-37,64,0
11865,-38,28,244,-34,64,-2
11870,-38,29,239,-30,62,-1
11875,-36,28,244,-28,61,-1
11880,-40,31,244,-26,61,0
11885,-39,31,245,-25,63,-2
11890,-43,30,241,-21,61,-2
11895,-41,31,241,-15,63,-3
11900,-41,29,241,-7,62,-5
11905,-42,31,241,-2,62,-6
11910,-41,33,237,3,62,-7
11915,-42,31,242,7,60,-8
11920,-40,30,244,10,61,-9
11925,-29,41,236,14,62,-10
11930,-38,30,239,16,65,-9
11935,-42,31,241,18,68,-9
11940,-41,30,243,21,72,-8
11945,-41,31,240,22,76,-9
11950,-39,31,244,19,81,-8
11955,-42,29,244,15,84,-8
11960,-38,30,245,11,86,-7
11965,-41,28,242,11,86,-7
11970,-37,27,244,16,87,-6
11975,-37,31,240,19,91,-5
11980,-43,31,242,25,94,-3
11985,-41,27,239,30,96,-1
11990,-40,33,239,33,95,0
11995,-38,32,239,28,88,-1
12000,-39,32,238,23,77,-1
12005,-39,29,241,12,62,-1
12010,-39,31,237,0,52,0
12015,-43,30,237,-13,43,1
12020,-38,33,240,-24,37,-1
12025,-38,32,241,-30,32,-1
12030,-39,32,243,-36,31,-1
12035,-39,35,253,-36,31,0
12040,-38,32,244,-33,36,-1
12045,-37,34,246,-31,45,-1
12050,-38,31,242,-25,55,0
12055,-35,34,247,-16,63,-2
12060,-39,33,242,-8,70,-3
12065,-35,32,242,2,73,-2
12070,-39,35,239,9,74,-4
12075,-39,36,239,11,77,-3
12080,-38,33,243,11,76,-2
12085,-40,35,243,9,72,-3
12090,-38,32,242,6,68,-3
12095,-39,32,241,3,64,-4
12100,-39,33,244,-1,60,-6
12105,-38,33,243,-4,56,-6
12110,-40,34,241,-7,54,-6
12115,-41,32,240,-13,54,-6
12120,-41,35,244,-17,54,-6
12125,-40,32,247,-19,54,-6
12130,-39,31,245,-24,54,-5
12135,-38,31,245,-25,53,-6
12140,-38,32,242,-23,51,-6
12145,-36,31,239,-21,53,-5
12150,-40,29,244,-21,54,-5
12155,-38,30,239,-19,56,-4
12160,-37,32,239,-19,57,-4
12165,-39,29,239,-20,60,-4
12170,-39,30,242,-19,60,-3
12175,-40,30,242,-17,61,-3
12180,-41,30,240,-16,61,-2
12185,-40,33,239,-16,62,-1
12190,-39,32,244,-16,63,-1
12195,-36,33,241,-18,63,1
12200,-35,33,243,-19,60,1
12205,-36,31,240,-21,58,1
12210,-38,33,243,-27,58,1
12215,-36,32,240,-33,57,-1
12220,-39,33,241,-38,56,-2
12225,-38,33,243,-37,58,-5
12230,-38,30,243,-31,59,-5
12235,-38,28,243,-21,60,-6
12240,-38,27,243,-10,65,-6
12245,-40,30,242,4,67,-5
12250,-36,25,242,12,68,-6
12255,-32,30,240,21,69,-5
12260,-40,31,239,24,65,-6
12265,-37,32,240,27,63,-6
12270,-39,33,239,25,59,-7
12275,-37,31,242,19,57,-7
12280,-36,29,240,14,53,-6
12285,-40,34,241,5,52,-6
12290,-33,32,241,-9,54,-7
12295,-40,35,244,-22,55,-6
12300,-37,34,241,-28,55,-7
12305,-36,28,241,-33,56,-4
12310,-38,32,239,-35,56,-4
12315,-37,33,245,-34,56,-6
12320,-39,30,239,-29,55,-6
12325,-36,30,242,-26,57,-4
12330,-38,32,243,-20,60,-6
12335,-36,31,244,-13,60,-6
12340,-39,33,245,-5,60,-6
12345,-37,27,241,0,62,-5
12350,-39,33,243,0,62,-3
12355,-38,31,243,0,64,-3
12360,-37,32,240,-4,63,-4
12365,-41,28,245,-4,62,-3
12370,-37,37,237,-5,63,-1
12375,-38,34,243,-8,61,-1
12380,-39,30,242,-9,61,-2
12385,-39,32,242,-10,61,-2
12390,-36,30,240,-12,59,-1
12395,-36,31,239,-14,57,-3
12400,-34,32,242,-19,58,-1
12405,-38,32,238,-22,58,-1
12410,-39,32,241,-24,58,-3
12415,-36,31,242,-26,57,-2
12420,-34,33,241,-27,58,-2
12425,-38,31,244,-27,57,-3
12430,-36,32,243,-24,58,-3
12435,-35,28,241,-18,60,-3
12440,-35,32,242,-14,59,-3
12445,-37,29,242,-9,58,-4
12450,-38,32,243,-4,58,-2
12455,-39,31,243,-5,59,-1
12460,-38,35,245,-10,60,-1
12465,-38,34,242,-15,61,-1
12470,-32,28,245,-19,62,-3
12475,-34,31,243,-22,62,-1
12480,-35,31,242,-25,64,-1
12485,-37,32,241,-26,64,-1
12490,-36,29,243,-23,63,-2
12495,-38,32,244,-19,61,-3
12500,-36,29,241,-13,61,-2
12505,-39,34,241,-9,57,-4
12510,-38,35,242,-6,54,-3
12515,-38,32,242,-4,52,-2
12520,-35,34,241,-7,52,-2
12525,-36,30,239,-12,54,-2
12530,-38,32,241,-19,57,-2
12535,-38,30,240,-25,55,-3
12540,-38,34,240,-30,56,-2
12545,-39,31,241,-35,55,-2
12550,-34,30,239,-34,53,-4
12555,-41,34,244,-35,50,-4
12560,-36,35,242,-37,51,-4
12565,-37,33,242,-43,53,-3
12570,-34,30,242,-46,54,-3
12575,-37,31,243,-46,56,-3
12580,-32,28,243,-46,58,-4
12585,-35,29,244,-46,61,-3
12590,-34,30,244,-42,65,-4
12595,-35,29,245,-36,66,-3
12600,-35,32,243,-30,69,-1
12605,-36,28,241,-24,70,-1
12610,-35,28,244,-19,72,-1
12615,-37,32,240,-14,70,-2
12620,-38,31,241,-9,69,-2
12625,-35,31,241,-8,65,-1
12630,-37,34,242,-8,63,-2
12635,-36,27,244,-12,60,-2
12640,-39,33,242,-14,58,-4
12645,-35,30,240,-16,58,-3
12650,-36,29,243,-15,58,-6
12655,-39,32,242,-12,57,-8
12660,-35,27,243,-7,57,-9
12665,-33,25,240,-1,56,-10
12670,-40,33,241,4,58,-11
12675,-37,29,241,11,57,-11
12680,-37,29,240,16,58,-11
12685,-40,30,242,16,62,-9
12690,-39,28,238,16,68,-7
12695,-38,34,239,15,73,-7
12700,-38,30,242,13,79,-8
12705,-37,28,244,10,85,-7
12710,-36,30,242,10,89,-8
12715,-38,29,244,9,94,-8
12720,-36,29,242,10,98,-7
12725,-36,25,243,16,101,-7
12730,-37,30,241,26,104,-6
12735,-38,31,241,34,105,-6
12740,-37,30,239,42,103,-4
12745,-36,30,240,44,101,-4
12750,-38,36,237,43,95,0
12755,-34,32,240,38,84,2
12760,-38,33,238,32,70,4
12765,-37,34,238,20,59,3
12770,-36,35,242,1,51,6
12775,-38,32,240,-17,42,5
12780,-38,35,241,-32,36,7
12785,-37,29,240,-43,31,8
12790,-39,31,247,-49,29,6
12795,-35,31,245,-51,31,6
12800,-35,32,243,-49,38,5
12805,-35,35,242,-44,44,3
12810,-34,32,243,-39,54,3
12815,-32,32,244,-33,63,1
12820,-31,30,241,-24,70,0
12825,-37,32,246,-14,74,0
12830,-34,33,244,-8,75,-1
12835,-32,32,241,-7,78,-2
12840,-37,32,241,-12,80,-2
12845,-37,32,242,-19,80,-3
12850,-34,33,243,-24,80,-5
12855,-37,31,240,-28,77,-3
12860,-38,34,248,-29,72,-5
12865,-42,31,240,-28,64,-5
12870,-38,30,241,-29,60,-6
12875,-38,33,243,-26,58,-5
12880,-37,33,242,-28,56,-3
12885,-34,30,244,-30,55,-2
12890,-35,34,246,-37,55,-2
12895,-36,32,244,-42,57,-1
12900,-35,29,245,-46,57,-2
12905,-34,38,241,-50,57,-2
12910,-36,27,240,-55,58,0
12915,-37,28,243,-57,59,-1
12920,-37,29,244,-59,61,-3
12925,-36,30,241,-61,62,-1
12930,-37,30,244,-61,64,-1
12935,-39,28,242,-60,66,-2
12940,-38,32,244,-61,68,0
12945,-35,27,244,-58,69,-1
12950,-36,32,242,-58,69,-1
12955,-37,28,241,-58,71,1
12960,-34,28,244,-60,72,1
12965,-36,32,243,-63,72,0
12970,-33,29,245,-68,74,0
12975,-36,31,247,-71,75,0
12980,-36,30,245,-73,76,-1
12985,-37,31,241,-74,80,0
12990,-38,28,244,-72,84,0
12995,-38,29,242,-69,88,-1
13000,-37,29,244,-64,90,-1
13005,-37,28,241,-59,91,-2
13010,-37,31,239,-53,93,-1
13015,-23,19,241,-48,92,0
13020,-37,32,244,-45,90,0
13025,-35,28,241,-44,87,-2
13030,-38,27,242,-45,84,-2
13035,-39,30,241,-51,81,-2
13040,-35,30,244,-55,77,-1
13045,-38,28,242,-60,74,-2
13050,-38,28,244,-67,72,-1
13055,-38,32,243,-71,71,-2
13060,-36,30,243,-76,70,-1
13065,-37,28,245,-78,72,-1
13070,-35,29,246,-81,73,-1
13075,-36,28,245,-83,76,-2
13080,-35,29,246,-83,80,-3
13085,-35,30,245,-82,83,-2
13090,-37,30,247,-80,87,0
13095,-38,27,243,-75,91,1
13100,-38,27,241,-72,92,1
13105,-38,28,238,-70,94,2
13110,-36,27,241,-69,96,0
13115,-39,25,241,-67,96,1
13120,-42,29,243,-66,97,2
13125,-33,21,243,-64,95,3
13130,-37,25,241,-62,95,2
13135,-37,25,241,-58,93,3
13140,-37,26,240,-55,92,2
13145,-36,25,240,-54,91,3
13150,-37,25,243,-50,89,3
13155,-37,27,244,-48,89,3
13160,-41,27,242,-47,87,3
13165,-38,25,241,-45,85,5
13170,-37,28,242,-44,83,4
13175,-39,26,240,-45,81,2
13180,-39,27,240,-43,79,3
13185,-37,29,243,-43,77,2
13190,-37,26,241,-42,75,2
13195,-37,25,240,-41,75,1
13200,-38,26,243,-42,74,1
13205,-41,26,243,-42,74,1
13210,-38,26,240,-42,75,0
13215,-37,26,242,-43,77,1
13220,-39,27,243,-44,79,-1
13225,-37,26,242,-43,81,0
13230,-40,26,243,-45,83,1
13235,-37,28,239,-46,85,2
13240,-38,25,243,-48,86,2
13245,-36,26,243,-48,87,1
13250,-36,25,246,-48,88,1
13255,-33,24,241,-50,88,1
13260,-40,27,242,-53,89,1
13265,-40,28,245,-55,88,2
13270,-40,25,242,-57,86,1
13275,-39,29,242,-61,85,1
13280,-38,24,245,-63,86,1
13285,-37,28,244,-65,86,0
13290,-36,24,244,-68,85,0
13295,-40,26,243,-69,85,-1
13300,-37,25,245,-69,86,-1
13305,-40,21,246,-69,88,1
13310,-38,24,246,-68,90,2
13315,-40,24,241,-68,91,3
13320,-35,22,242,-67,92,2
13325,-41,23,241,-65,91,3
13330,-39,25,242,-63,88,1
13335,-40,25,240,-61,87,2
13340,-42,28,246,-59,85,2
13345,-41,27,242,-56,81,1
13350,-37,24,242,-58,80,0
13355,-38,25,241,-63,80,0
13360,-37,28,247,-68,84,0
13365,-39,25,243,-69,87,0
13370,-36,25,241,-71,89,-2
13375,-38,23,244,-71,92,0
13380,-39,25,245,-70,95,2
13385,-38,23,240,-66,97,3
13390,-38,24,242,-64,99,3
13395,-41,27,238,-60,100,4
13400,-39,23,244,-58,98,5
13405,-39,23,241,-54,95,4
13410,-40,22,241,-51,90,4
13415,-39,26,245,-50,88,4
13420,-37,23,242,-51,86,2
13425,-40,25,239,-52,85,3
13430,-38,22,243,-55,85,2
13435,-38,25,244,-55,84,0
13440,-39,24,243,-53,84,-1
13445,-41,24,241,-48,85,-3
13450,-48,25,241,-39,88,-3
13455,-39,22,241,-27,88,-3
13460,-38,22,242,-19,94,-3
13465,-40,20,244,-10,98,-3
13470,-37,21,239,-2,101,-2
13475,-39,22,240,4,105,-2
13480,-39,21,243,8,107,-2
13485,-42,22,239,11,107,-1
13490,-45,20,242,12,106,1
13495,-41,21,243,10,103,-1
13500,-41,20,244,7,100,-1
13505,-40,21,244,1,97,-1
13510,-43,22,244,-9,96,-2
13515,-38,19,245,-18,97,-3
13520,-40,23,241,-24,98,-2
13525,-41,22,243,-27,97,-2
13530,-39,22,243,-27,99,0
13535,-37,22,245,-23,99,3
13540,-43,22,242,-21,98,5
13545,-40,24,242,-22,94,7
13550,-42,25,238,-25,91,7
13555,-40,24,239,-32,85,7
13560,-36,18,247,-38,81,4
13565,-41,26,241,-44,79,3
13570,-39,23,239,-47,77,2
13575,-37,23,239,-46,79,0
13580,-38,25,239,-41,78,2
13585,-42,22,238,-35,79,2
13590,-38,23,241,-25,79,3
13595,-38,24,243,-15,77,5
13600,-41,23,242,-7,78,7
13605,-39,23,239,-2,78,7
13610,-42,22,239,-3,79,6
13615,-40,25,241,-6,80,6
13620,-40,24,241,-11,81,6
13625,-41,27,241,-20,80,2
13630,-40,26,242,-27,80,2
13635,-42,29,243,-33,79,0
13640,-38,24,242,-39,79,1
13645,-41,23,243,-44,79,-2
13650,-41,25,243,-48,77,-3
13655,-40,25,245,-49,75,-3
13660,-40,20,241,-50,72,-4
13665,-40,22,242,-47,74,-3
13670,-40,20,243,-47,75,-4
13675,-38,21,245,-46,78,-3
13680,-40,23,244,-44,81,-3
13685,-39,20,242,-42,84,0
13690,-38,19,242,-40,86,-1
13695,-40,23,244,-37,86,0
13700,-41,22,241,-34,86,2
13705,-40,20,242,-33,85,2
13710,-42,20,244,-29,84,3
13715,-42,24,241,-29,84,2
13720,-40,20,240,-30,84,1
13725,-43,21,242,-30,83,-1
13730,-42,21,242,-28,82,0
13735,-38,22,242,-28,81,-2
13740,-39,22,240,-26,80,-3
13745,-40,20,242,-26,81,-2
13750,-40,21,240,-28,81,-4
13755,-39,21,241,-30,82,-4
13760,-42,22,243,-33,83,-2
13765,-38,21,237,-37,82,-2
13770,-40,23,245,-38,83,-3
13775,-39,21,241,-39,83,-3
13780,-42,21,242,-37,84,-3
13785,-43,20,245,-30,88,-3
13790,-40,19,238,-22,90,-3
13795,-40,20,241,-13,91,-3
13800,-45,20,242,-3,92,-3
13805,-39,22,241,3,91,-1
13810,-42,24,241,6,88,0
13815,-44,21,238,6,84,1
13820,-42,22,243,3,80,-2
13825,-42,23,238,-1,75,-2
13830,-42,22,240,-8,72,-4
13835,-42,23,244,-16,69,-4
13840,-39,23,239,-22,67,-5
13845,-43,22,244,-26,67,-5
13850,-37,21,242,-32,66,-6
13855,-40,24,241,-34,67,-5
13860,-40,24,246,-33,70,-5
13865,-41,22,243,-32,72,-6
13870,-40,21,240,-26,73,-5
13875,-45,21,245,-20,75,-5
13880,-40,20,239,-14,77,-4
13885,-37,23,240,-8,79,-2
13890,-40,26,239,-4,80,-2
13895,-31,20,241,-3,81,-4
13900,-38,27,245,-4,80,-2
13905,-37,19,242,-4,80,-2
13910,-48,25,232,-1,79,1
13915,-32,12,243,1,79,3
13920,-38,23,238,0,76,3
13925,-47,21,237,-1,73,4
13930,-45,19,239,2,71,5
13935,-43,23,250,4,67,2
13940,-39,24,236,4,64,1
13945,-39,22,239,4,62,-1
13950,-41,23,237,4,59,-2
13955,-38,21,243,4,58,-2
13960,-38,24,246,4,57,-3
13965,-41,24,251,7,57,-3
13970,-33,25,237,9,57,-4
13975,-33,21,236,13,57,-3
13980,-43,21,226,17,56,-2
13985,-36,33,260,17,55,-2
13990,-50,20,231,17,56,-3
13995,-45,15,240,17,55,-3
14000,-37,18,227,15,54,-4
14005,-40,18,253,13,52,-6
14010,-41,16,224,10,53,-6
14015,-41,30,240,9,54,-6
14020,-41,23,241,7,54,-6
14025,-40,23,241,6,55,-7
14030,-40,23,243,8,58,-8
14035,-42,22,241,10,59,-7
14040,-46,29,235,13,61,-7
14045,-39,21,255,14,60,-6
14050,-41,27,238,15,61,-4
14055,-38,25,243,14,60,-3
14060,-39,25,248,14,59,-3
14065,-50,37,237,12,56,-3
14070,-37,17,257,12,53,-2
14075,-46,21,264,11,51,-4
14080,-47,25,229,8,49,-4
14085,-42,19,239,5,48,-5
14090,-40,23,238,1,49,-6
14095,-41,22,240,-4,51,-5
14100,-40,21,243,-8,56,-5
14105,-41,25,245,-11,58,-4
14110,-38,22,245,-15,63,-2
14115,-45,30,244,-16,65,-2
14120,-32,30,238,-15,65,1
14125,-26,21,243,-15,66,0
14130,-43,22,237,-12,66,1
14135,-44,28,250,-9,65,1
14140,-41,25,244,-10,62,0
14145,-42,18,236,-9,60,1
14150,-39,27,256,-11,57,0
14155,-39,35,239,-15,57,-1
14160,-42,21,242,-20,56,-4
14165,-39,33,249,-22,57,-5
14170,-43,22,244,-23,58,-7
14175,-45,22,239,-19,59,-8
14180,-41,22,244,-12,59,-8
14185,-43,22,245,-5,60,-9
14190,-44,18,240,1,61,-8
14195,-33,28,238,8,61,-9
14200,-39,23,245,14,63,-10
14205,-51,26,247,19,66,-10
14210,-36,20,227,24,69,-9
14215,-59,31,230,28,71,-9
14220,-41,24,239,29,72,-8
14225,-47,16,239,30,73,-8
14230,-50,20,248,31,73,-7
14235,-39,20,243,29,72,-6
14240,-48,28,249,26,71,-6
14245,-43,23,244,22,71,-7
14250,-41,21,241,19,70,-7
14255,-40,21,240,16,70,-7
14260,-42,20,240,17,70,-8
14265,-38,20,243,19,71,-6
14270,-42,25,249,22,70,-3
14275,-41,20,246,24,68,-4
14280,-37,15,245,22,66,-2
14285,-37,19,236,19,63,-2
14290,-39,23,237,13,59,-1
14295,-37,22,234,7,58,-2
14300,-38,22,238,3,55,-2
14305,-34,25,242,2,53,-2
14310,-40,26,240,2,52,-5
14315,-38,21,257,5,52,-4
14320,-38,26,240,8,50,-3
14325,-43,26,243,13,52,-1
14330,-39,25,244,19,51,-1
14335,-38,26,244,23,54,0
14340,-40,30,239,24,55,-1
14345,-40,20,227,24,57,-1
14350,-42,25,244,21,58,-2
14355,-44,33,241,18,58,-2
14360,-40,26,241,12,57,-3
14365,-27,23,244,8,56,-3
14370,-41,24,243,4,56,-4
14375,-40,25,242,2,53,-6
14380,-39,28,241,1,52,-6
14385,-42,27,242,2,52,-7
14390,-40,21,250,3,52,-7
14395,-42,25,243,4,52,-6
14400,-38,27,239,7,52,-7
14405,-41,26,244,8,53,-5
14410,-41,28,246,7,56,-4
14415,-39,15,241,7,58,-3
14420,-39,23,243,8,58,-4
14425,-37,24,244,9,61,-4
14430,-41,24,245,8,62,-4
14435,-40,26,243,8,63,-1
14440,-40,24,244,8,62,-1
14445,-41,24,240,8,60,-3
14450,-40,23,241,8,60,-4
14455,-40,25,241,6,58,-3
14460,-48,31,239,6,57,-3
14465,-39,25,241,7,54,-3
14470,-41,25,240,8,52,-4
14475,-40,25,241,8,50,-4
14480,-40,27,245,7,49,-4
14485,-42,29,241,6,50,-3
14490,-37,26,240,4,49,-3
14495,-40,25,241,-2,50,-2
14500,-39,25,242,-7,49,-3
14505,-38,25,242,-10,48,-3
14510,-40,25,245,-14,50,-4
14515,-42,25,241,-15,54,-5
14520,-40,23,241,-14,58,-6
14525,-43,27,243,-9,63,-6
14530,-39,25,244,-2,68,-6
14535,-43,23,247,6,69,-6
14540,-38,24,243,14,70,-6
14545,-39,22,242,18,70,-5
14550,-37,24,243,20,70,-4
14555,-40,23,244,20,67,-3
14560,-41,24,241,17,64,-4
14565,-40,24,241,14,61,-4
14570,-40,22,241,10,59,-5
14575,-38,26,242,6,58,-6
14580,-36,26,242,2,57,-5
14585,-36,23,242,-2,56,-6
14590,-39,24,240,-5,56,-6
14595,-40,23,242,-5,53,-5
14600,-38,25,247,-7,53,-6
14605,-39,25,245,-5,54,-5
14610,-39,27,242,-3,53,-4
14615,-37,25,242,0,53,-4
14620,-40,27,241,0,53,-5
14625,-39,27,238,0,54,-6
14630,-37,29,239,-1,55,-5
14635,-43,27,240,-3,55,-4
14640,-40,25,244,-4,56,-4
14645,-44,27,241,-6,57,-4
14650,-41,24,244,-7,58,-4
14655,-40,24,243,-7,61,-2
14660,-40,26,245,-7,62,-2
14665,-38,25,242,-6,64,-2
14670,-38,26,244,-3,64,-2
14675,-40,27,243,0,68,-2
14680,-38,28,239,2,67,-2
14685,-38,27,243,5,68,-2
14690,-37,26,241,8,67,-1
14695,-35,28,241,10,64,-1
14700,-39,29,239,10,61,-2
14705,-39,27,241,9,58,-3
14710,-42,26,242,10,57,-3
14715,-37,23,239,10,54,-4
14720,-39,27,239,10,52,-3
14725,-37,27,241,10,53,-4
14730,-39,25,241,8,53,-4
14735,-39,25,240,6,52,-4
14740,-39,25,245,5,54,-5
14745,-38,27,240,2,54,-4
14750,-37,26,245,2,55,-4
14755,-39,28,240,0,55,-4
14760,-31,24,245,-1,55,-3
14765,-39,27,242,0,55,-4
14770,-38,28,240,0,59,-4
14775,-38,27,241,-1,59,-3
14780,-39,25,245,-1,61,-4
14785,-38,25,241,-1,60,-3
14790,-37,27,242,-2,61,-4
14795,-38,27,242,-2,63,-3
14800,-39,26,245,-4,63,-3
14805,-37,25,243,-5,63,-3
14810,-37,23,241,-6,64,-3
14815,-39,26,242,-6,63,-4
14820,-36,23,241,-6,64,-4
14825,-39,25,242,-7,62,-4
14830,-38,25,241,-6,62,-3
14835,-36,24,244,-7,61,-1
14840,-40,24,241,-4,59,0
14845,-39,26,245,-5,58,-2
14850,-38,27,240,-7,56,-2
14855,-37,29,243,-8,55,-1
14860,-41,27,242,-9,54,-2
14865,-38,29,241,-14,54,-1
14870,-38,29,238,-15,55,-2
14875,-39,25,244,-16,56,-2
14880,-37,27,243,-19,57,-3
14885,-37,28,241,-18,58,-1
14890,-38,29,241,-17,58,-3
14895,-37,28,240,-15,57,-3
14900,-39,27,242,-14,57,-3
14905,-38,27,245,-14,56,-3
14910,-38,25,241,-13,54,-3
14915,-36,27,238,-15,57,-2
14920,-39,28,241,-18,58,-3
14925,-35,28,243,-20,61,-2
14930,-37,28,241,-21,62,-3
14935,-36,28,239,-22,64,0
14940,-40,24,244,-23,66,-1
14945,-40,30,241,-22,69,-1
14950,-39,26,243,-20,69,-1
14955,-34,24,244,-18,70,-1
14960,-36,26,242,-15,69,-1
14965,-38,25,241,-13,68,-1
14970,-38,27,243,-11,64,-1
14975,-36,25,237,-11,63,-2
14980,-38,26,243,-12,61,-2
14985,-37,25,242,-13,61,-3
14990,-39,27,241,-15,61,-4
14995,-39,28,242,-13,64,-6
