timestamp,acc_x,acc_y,acc_z,gyro_x,gyro_y,gyro_z
0,6,-230,-94,-1,28,25
5,9,-232,-94,1,28,25
10,2,-226,-92,5,29,25
15,5,-228,-91,7,30,25
20,5,-231,-92,7,31,27
25,4,-230,-89,8,32,26
30,2,-231,-92,8,32,26
35,2,-226,-94,9,33,28
40,4,-227,-88,9,31,28
45,2,-227,-85,6,28,30
50,4,-231,-89,3,24,33
55,2,-226,-87,-2,21,33
60,0,-227,-89,-8,19,33
65,0,-226,-86,-12,15,35
70,0,-230,-88,-14,10,38
75,0,-226,-95,-15,6,39
80,1,-231,-94,-16,1,42
85,-1,-226,-92,-16,-2,44
90,-1,-225,-85,-15,-5,44
95,-2,-226,-90,-16,-9,42
100,-6,-223,-89,-15,-10,39
105,-5,-221,-87,-14,-13,35
110,-4,-219,-82,-13,-15,35
115,-7,-219,-82,-12,-16,32
120,-7,-221,-81,-11,-18,29
125,-13,-216,-82,-11,-22,28
130,-10,-214,-77,-16,-27,24
135,-9,-214,-76,-22,-30,22
140,-11,-215,-77,-32,-34,22
145,-11,-217,-81,-43,-37,21
150,-12,-215,-80,-55,-42,22
155,-7,-221,-78,-65,-48,24
160,-9,-219,-76,-74,-53,25
165,-8,-219,-81,-85,-61,26
170,-10,-222,-83,-94,-68,28
175,-10,-226,-85,-103,-78,28
180,-11,-230,-83,-113,-87,28
185,-8,-235,-87,-120,-94,26
190,-14,-237,-88,-126,-101,23
195,-11,-237,-92,-126,-108,18
200,-12,-240,-95,-125,-111,12
205,-12,-245,-93,-121,-110,3
210,-15,-245,-91,-113,-108,-4
215,-12,-251,-92,-103,-101,-13
220,-8,-250,-93,-89,-89,-18
225,-9,-254,-91,-76,-76,-22
230,-9,-255,-90,-63,-59,-26
235,-9,-256,-91,-52,-42,-29
240,-5,-249,-91,-45,-25,-29
245,-6,-257,-91,-41,-12,-28
250,-6,-258,-89,-32,-2,-24
255,-7,-256,-92,-23,5,-19
260,-4,-257,-89,-10,10,-15
265,-8,-251,-91,3,12,-11
270,-6,-255,-89,17,12,-9
275,-5,-250,-95,30,13,-7
280,-8,-250,-91,41,12,-8
285,-10,-247,-89,50,14,-9
290,-6,-242,-88,56,16,-10
295,-12,-246,-95,60,20,-12
300,-14,-240,-87,63,25,-16
305,-13,-236,-85,64,29,-21
310,-17,-235,-85,64,32,-26
315,-20,-229,-83,63,34,-35
320,-19,-232,-81,59,33,-45
325,-19,-228,-80,53,32,-53
330,-22,-227,-80,45,30,-65
335,-23,-227,-85,38,29,-77
340,-22,-225,-86,26,22,-89
345,-19,-225,-84,18,15,-98
350,-22,-229,-93,12,8,-108
355,-22,-227,-84,5,1,-116
360,-18,-227,-90,2,-8,-124
365,-22,-227,-85,-3,-17,-131
370,-19,-227,-89,-7,-32,-135
375,-14,-222,-94,-11,-44,-141
380,-13,-227,-90,-17,-44,-141
385,-9,-231,-94,-24,-43,-144
390,-11,-228,-95,-31,-43,-149
395,-5,-229,-96,-32,-45,-151
400,-6,-228,-98,-29,-48,-151
405,-3,-230,-99,-22,-49,-153
410,-2,-227,-96,-16,-50,-153
415,1,-230,-92,-11,-49,-153
420,0,-229,-95,-6,-48,-150
425,1,-229,-99,-2,-44,-146
430,2,-229,-95,-3,-40,-144
435,7,-233,-97,-3,-36,-142
440,6,-228,-104,0,-32,-140
445,7,-229,-97,4,-28,-137
450,7,-230,-99,7,-26,-137
455,9,-228,-105,10,-24,-136
460,9,-229,-101,11,-20,-136
465,8,-223,-104,10,-14,-137
470,8,-225,-103,5,-9,-136
475,8,-223,-107,-2,1,-135
480,9,-221,-106,-11,10,-135
485,14,-216,-107,-23,20,-133
490,14,-210,-109,-38,34,-125
495,17,-211,-110,-58,46,-120
500,19,-201,-110,-84,59,-110
505,23,-191,-114,-113,74,-101
510,31,-192,-121,-147,92,-94
515,31,-183,-121,-184,114,-86
520,33,-179,-118,-221,140,-76
525,38,-174,-116,-252,163,-75
530,47,-175,-111,-275,187,-70
535,54,-173,-105,-287,214,-71
540,61,-173,-99,-288,242,-71
545,64,-177,-96,-283,273,-73
550,68,-179,-87,-267,297,-80
555,73,-181,-84,-247,311,-87
560,72,-191,-74,-224,312,-91
565,69,-195,-71,-201,300,-89
570,69,-191,-70,-183,279,-79
575,65,-197,-66,-174,248,-67
580,66,-201,-61,-177,206,-57
585,63,-212,-63,-182,156,-53
590,59,-215,-62,-200,101,-50
595,50,-229,-61,-231,45,-50
600,44,-236,-65,-270,-10,-53
605,32,-245,-70,-313,-61,-56
610,25,-251,-80,-366,-101,-54
615,20,-259,-85,-426,-131,-55
620,15,-260,-105,-486,-150,-53
625,9,-275,-100,-537,-163,-57
630,8,-283,-108,-569,-172,-63
635,9,-289,-113,-582,-176,-72
640,13,-295,-118,-586,-174,-88
645,15,-298,-120,-575,-168,-103
650,20,-298,-126,-555,-152,-124
655,26,-292,-125,-528,-136,-147
660,31,-293,-120,-490,-122,-172
665,35,-288,-114,-436,-108,-197
670,38,-285,-109,-370,-97,-219
675,42,-281,-99,-303,-89,-236
680,47,-270,-97,-246,-83,-249
685,47,-265,-91,-212,-82,-261
690,46,-257,-86,-197,-85,-267
695,47,-253,-86,-201,-90,-277
700,48,-247,-83,-218,-99,-283
705,48,-240,-81,-243,-109,-285
710,43,-235,-82,-269,-120,-286
715,41,-228,-81,-292,-129,-287
720,42,-221,-75,-310,-135,-289
725,41,-219,-70,-323,-142,-286
730,41,-215,-80,-330,-144,-279
735,40,-214,-77,-328,-146,-274
740,40,-215,-77,-321,-145,-272
745,42,-208,-78,-309,-142,-276
750,41,-205,-80,-300,-137,-267
755,41,-204,-75,-294,-126,-262
760,38,-197,-79,-290,-116,-257
765,40,-199,-72,-288,-107,-255
770,37,-195,-71,-285,-101,-260
775,38,-194,-67,-281,-100,-261
780,39,-195,-65,-275,-100,-258
785,36,-195,-66,-274,-101,-260
790,39,-198,-66,-276,-106,-267
795,37,-198,-70,-286,-114,-274
800,34,-203,-67,-296,-123,-282
805,31,-205,-64,-306,-136,-291
810,27,-210,-66,-310,-151,-298
815,27,-220,-61,-314,-167,-304
820,25,-223,-63,-310,-185,-311
825,22,-229,-60,-295,-209,-318
830,15,-242,-59,-270,-239,-319
835,8,-245,-53,-229,-276,-317
840,11,-256,-49,-176,-319,-309
845,7,-264,-49,-116,-364,-300
850,2,-267,-44,-52,-410,-287
855,2,-272,-43,18,-453,-278
860,-1,-285,-42,90,-494,-268
865,-10,-285,-38,164,-529,-269
870,-8,-290,-43,238,-566,-250
875,-19,-295,-41,308,-592,-233
880,-24,-290,-42,373,-616,-226
885,-20,-288,-41,434,-641,-210
890,-23,-278,-44,494,-656,-194
895,-8,-275,-51,553,-660,-178
900,5,-272,-67,596,-639,-154
905,19,-260,-83,609,-593,-137
910,35,-252,-104,585,-528,-135
915,53,-245,-126,519,-464,-159
920,68,-246,-138,432,-410,-206
925,84,-249,-152,344,-369,-259
930,95,-260,-169,273,-325,-309
935,105,-265,-179,222,-271,-353
940,115,-268,-188,176,-208,-394
945,111,-277,-196,126,-150,-430
950,106,-287,-181,72,-83,-460
955,93,-305,-164,39,1,-481
960,73,-320,-147,41,106,-485
965,54,-330,-127,68,219,-474
970,38,-338,-118,122,296,-447
975,29,-344,-110,200,310,-417
980,20,-338,-113,300,262,-382
985,21,-323,-126,418,179,-336
990,32,-294,-146,547,82,-272
995,45,-272,-160,675,-10,-183
1000,51,-239,-180,776,-95,-110
1005,43,-216,-192,832,-185,-70
1010,35,-199,-198,834,-294,-50
1015,25,-180,-205,787,-408,-28
1020,18,-175,-204,702,-508,-4
1025,9,-168,-200,598,-578,24
1030,2,-161,-189,486,-614,42
1035,-4,-162,-183,383,-621,44
1040,-11,-167,-162,289,-605,26
1045,-15,-176,-153,209,-579,-14
1050,-27,-183,-143,138,-561,-74
1055,-29,-188,-136,67,-561,-143
1060,-37,-191,-139,0,-558,-212
1065,-32,-196,-142,-68,-531,-269
1070,-30,-197,-143,-129,-476,-313
1075,-26,-197,-147,-176,-403,-340
1080,-27,-199,-144,-199,-332,-352
1085,-23,-206,-145,-190,-283,-351
1090,-23,-205,-144,-149,-262,-333
1095,-19,-209,-141,-82,-263,-306
1100,-16,-209,-139,7,-283,-270
1105,-5,-202,-128,99,-312,-224
1110,0,-206,-136,184,-346,-176
1115,4,-202,-135,252,-385,-125
1120,8,-202,-135,297,-435,-77
1125,13,-195,-140,318,-490,-29
1130,17,-190,-138,312,-550,17
1135,20,-190,-138,277,-607,61
1140,20,-185,-135,221,-655,102
1145,24,-186,-136,150,-693,134
1150,22,-184,-133,79,-717,159
1155,21,-181,-130,20,-726,182
1160,24,-178,-128,-21,-722,196
1165,25,-183,-122,-57,-700,207
1170,26,-185,-124,-92,-668,204
1175,29,-184,-124,-126,-624,193
1180,28,-191,-115,-155,-573,178
1185,29,-194,-111,-170,-520,157
1190,28,-197,-105,-170,-472,136
1195,28,-195,-103,-159,-427,114
1200,23,-195,-103,-135,-384,94
1205,21,-195,-103,-99,-347,77
1210,20,-190,-106,-57,-313,63
1215,9,-186,-104,-15,-282,52
1220,10,-187,-100,25,-259,44
1225,5,-181,-101,62,-241,38
1230,3,-176,-99,90,-230,30
1235,1,-173,-94,113,-222,29
1240,1,-172,-92,132,-213,30
1245,0,-172,-86,141,-207,31
1250,-2,-170,-84,144,-201,35
1255,-2,-169,-80,140,-196,40
1260,-6,-170,-79,124,-192,45
1265,-1,-171,-76,96,-187,50
1270,-1,-179,-84,62,-182,57
1275,-2,-180,-82,25,-178,61
1280,-2,-183,-81,-8,-173,62
1285,-3,-187,-83,-34,-172,58
1290,0,-195,-81,-43,-172,47
1295,0,-199,-80,-39,-171,34
1300,0,-204,-76,-24,-166,18
1305,2,-211,-68,-5,-158,2
1310,6,-217,-75,15,-145,-18
1315,8,-218,-76,32,-133,-38
1320,10,-231,-65,42,-119,-62
1325,11,-229,-67,56,-105,-84
1330,9,-230,-67,77,-91,-106
1335,9,-236,-65,106,-71,-124
1340,8,-235,-62,136,-54,-142
1345,9,-232,-66,172,-37,-156
1350,5,-228,-64,205,-19,-163
1355,8,-227,-63,237,1,-167
1360,11,-221,-65,263,28,-168
1365,11,-223,-64,281,58,-167
1370,13,-221,-60,297,88,-164
1375,23,-215,-59,308,117,-158
1380,24,-220,-53,317,144,-153
1385,29,-222,-53,327,162,-145
1390,36,-225,-53,336,175,-136
1395,38,-227,-56,345,180,-127
1400,37,-226,-52,352,176,-109
1405,36,-231,-60,367,163,-93
1410,35,-235,-59,376,135,-71
1415,24,-234,-63,384,96,-54
1420,19,-236,-60,384,48,-32
1425,11,-237,-61,369,0,-14
1430,3,-243,-62,342,-41,11
1435,3,-247,-56,310,-61,37
1440,1,-247,-55,277,-54,63
1445,-2,-249,-51,250,-23,87
1450,-2,-252,-44,227,32,110
1455,0,-258,-36,216,103,130
1460,-2,-258,-35,213,179,142
1465,-1,-262,-40,216,245,152
1470,-1,-269,-46,223,296,155
1475,-1,-272,-63,218,321,156
1480,-6,-277,-86,196,312,155
1485,-14,-283,-120,151,272,160
1490,-12,-292,-144,82,199,176
1495,-20,-291,-167,0,97,206
1500,-19,-306,-191,-87,-24,269
1505,-26,-318,-197,-171,-137,312
1510,-23,-333,-188,-228,-238,360
1515,-16,-354,-181,-250,-313,429
1520,-19,-359,-170,-250,-352,482
1525,-30,-359,-172,-250,-367,513
1530,-19,-357,-181,-265,-358,539
1535,-19,-351,-191,-292,-313,552
1540,-25,-334,-208,-305,-225,531
1545,-24,-324,-220,-281,-111,487
1550,-25,-310,-229,-209,13,429
1555,-29,-281,-239,-99,135,355
1560,-35,-254,-245,31,241,273
1565,-31,-225,-252,151,322,209
1570,-14,-205,-244,232,403,176
1575,7,-182,-235,276,495,164
1580,14,-173,-217,309,590,154
1585,18,-163,-192,340,666,143
1590,17,-156,-171,359,686,143
1595,21,-152,-157,358,634,152
1600,24,-148,-147,329,523,171
1605,27,-147,-147,260,387,197
1610,22,-148,-148,150,262,232
1615,17,-155,-155,7,165,268
1620,7,-162,-152,-135,98,299
1625,0,-180,-146,-249,44,311
1630,-14,-190,-145,-315,-1,303
1635,-19,-202,-142,-319,-40,277
1640,-21,-220,-138,-263,-66,238
1645,-21,-229,-147,-160,-79,188
1650,-18,-235,-139,-33,-82,124
1655,-21,-232,-147,99,-74,53
1660,-26,-230,-151,215,-64,-24
1665,-22,-228,-150,295,-43,-108
1670,-25,-219,-153,326,-15,-194
1675,-19,-216,-159,308,18,-276
1680,-16,-208,-157,236,55,-353
1685,-7,-203,-147,128,97,-422
1690,-1,-202,-141,11,130,-474
1695,0,-198,-134,-87,161,-508
1700,13,-208,-127,-160,182,-525
1705,8,-196,-122,-211,193,-534
1710,10,-195,-117,-247,192,-530
1715,15,-193,-114,-280,182,-519
1720,7,-190,-105,-312,156,-503
1725,11,-189,-98,-336,121,-482
1730,13,-184,-88,-349,73,-461
1735,13,-181,-88,-350,16,-441
1740,12,-177,-85,-339,-45,-421
1745,15,-173,-78,-315,-102,-400
1750,17,-168,-82,-282,-154,-380
1755,17,-160,-75,-241,-199,-358
1760,21,-158,-75,-192,-237,-337
1765,22,-152,-78,-137,-268,-316
1770,24,-149,-77,-79,-292,-297
1775,23,-142,-77,-22,-310,-277
1780,25,-135,-78,30,-323,-255
1785,29,-135,-76,72,-329,-231
1790,31,-134,-78,105,-325,-211
1795,33,-135,-80,127,-313,-189
1800,40,-139,-74,139,-296,-172
1805,41,-137,-75,137,-273,-153
1810,45,-146,-77,126,-250,-140
1815,43,-150,-73,110,-226,-124
1820,44,-155,-75,90,-201,-109
1825,46,-164,-73,71,-178,-95
1830,44,-168,-76,57,-162,-79
1835,42,-180,-76,46,-147,-68
1840,39,-188,-74,40,-139,-60
1845,38,-192,-87,38,-140,-53
1850,35,-198,-82,38,-145,-45
1855,30,-202,-82,38,-153,-36
1860,30,-207,-73,44,-163,-22
1865,26,-221,-76,53,-177,-8
1870,28,-228,-64,68,-196,0
1875,22,-238,-60,94,-222,3
1880,15,-248,-54,132,-254,-2
1885,7,-260,-53,183,-279,-12
1890,1,-267,-47,249,-300,-31
1895,-2,-274,-50,334,-317,-51
1900,-6,-277,-50,434,-337,-66
1905,-8,-286,-47,547,-358,-76
1910,-14,-283,-49,663,-376,-92
1915,-21,-276,-54,770,-389,-96
1920,-23,-269,-58,854,-385,-95
1925,-18,-269,-55,902,-366,-91
1930,-16,-266,-54,910,-328,-87
1935,-16,-264,-54,885,-276,-84
1940,-13,-261,-48,835,-224,-86
1945,-13,-259,-41,776,-183,-92
1950,-1,-254,-36,718,-154,-98
1955,14,-249,-36,666,-124,-105
1960,29,-244,-34,622,-85,-110
1965,38,-231,-42,589,-38,-110
1970,47,-231,-38,562,10,-108
1975,61,-223,-35,538,54,-113
1980,68,-219,-41,512,78,-131
1985,77,-222,-33,474,82,-152
1990,79,-228,-38,422,67,-181
1995,76,-233,-44,351,40,-208
2000,70,-235,-63,248,8,-236
2005,64,-245,-97,102,-25,-268
2010,58,-256,-145,-83,-52,-302
2015,56,-274,-191,-286,-44,-337
2020,62,-295,-218,-477,8,-380
2025,60,-325,-258,-613,97,-415
2030,59,-337,-278,-662,221,-453
2035,60,-356,-278,-627,343,-501
2040,53,-370,-261,-545,442,-554
2045,44,-387,-240,-453,508,-595
2050,46,-394,-202,-350,562,-636
2055,56,-396,-192,-253,620,-632
2060,55,-384,-192,-165,701,-612
2065,47,-361,-196,-88,773,-590
2070,35,-338,-205,1,786,-563
2075,18,-308,-217,102,716,-516
2080,6,-278,-235,202,576,-459
2085,0,-245,-242,284,386,-397
2090,-13,-222,-225,328,172,-331
2095,-24,-207,-217,336,-44,-280
2100,-44,-203,-201,323,-249,-235
2105,-60,-196,-191,310,-424,-195
2110,-65,-190,-192,307,-562,-158
2115,-62,-188,-198,301,-651,-126
2120,-59,-184,-206,273,-675,-97
2125,-43,-187,-195,219,-649,-78
2130,-33,-182,-192,168,-591,-62
2135,-21,-188,-168,136,-521,-56
2140,-9,-186,-155,125,-444,-59
2145,0,-180,-153,112,-364,-75
2150,7,-182,-151,82,-282,-108
2155,20,-188,-141,29,-202,-151
2160,24,-190,-131,-31,-129,-193
2165,36,-202,-125,-75,-76,-217
2170,38,-198,-122,-88,-49,-218
2175,43,-207,-115,-52,-48,-198
2180,44,-205,-122,16,-67,-156
2185,51,-197,-117,93,-103,-94
2190,49,-199,-124,151,-152,-23
2195,45,-193,-130,173,-204,56
2200,41,-189,-128,152,-259,141
2205,43,-189,-127,116,-314,227
2210,38,-188,-122,72,-363,308
2215,39,-188,-122,22,-397,382
2220,36,-187,-119,-39,-413,447
2225,29,-185,-120,-107,-418,498
2230,31,-187,-118,-186,-413,533
2235,27,-178,-109,-267,-401,550
2240,22,-173,-111,-346,-383,553
2245,24,-171,-102,-411,-360,549
2250,20,-165,-101,-459,-331,537
2255,18,-157,-93,-489,-301,524
2260,17,-151,-90,-493,-266,504
2265,16,-145,-81,-468,-229,476
2270,15,-138,-84,-418,-185,439
2275,8,-129,-80,-351,-141,401
2280,9,-126,-74,-273,-92,360
2285,7,-123,-73,-191,-43,318
2290,6,-117,-71,-115,5,272
2295,0,-113,-76,-46,54,228
2300,-2,-116,-77,4,101,191
2305,-3,-115,-73,33,143,157
2310,-9,-120,-80,41,179,126
2315,-13,-125,-75,37,203,98
2320,-13,-129,-74,26,219,77
2325,-20,-138,-74,7,231,52
2330,-23,-147,-77,-11,228,25
2335,-22,-154,-77,-30,217,3
2340,-25,-161,-80,-47,199,-20
2345,-26,-173,-83,-58,177,-43
2350,-21,-186,-70,-62,149,-65
2355,-27,-197,-74,-63,119,-88
2360,-29,-205,-71,-54,85,-110
2365,-31,-215,-66,-28,53,-130
2370,-25,-220,-65,14,25,-144
2375,-26,-230,-62,73,-1,-156
2380,-26,-236,-60,144,-25,-162
2385,-21,-243,-60,221,-47,-165
2390,-20,-242,-61,301,-61,-166
2395,-18,-242,-65,375,-71,-165
2400,-18,-240,-66,439,-74,-162
2405,-13,-238,-73,494,-71,-159
2410,-15,-232,-70,540,-65,-157
2415,-13,-228,-67,577,-55,-157
2420,-11,-227,-69,607,-43,-157
2425,-11,-229,-65,632,-32,-158
2430,-1,-235,-64,650,-22,-161
2435,2,-237,-58,663,-18,-166
2440,5,-242,-55,672,-18,-171
2445,8,-248,-57,675,-31,-173
2450,14,-252,-59,669,-60,-179
2455,21,-255,-57,653,-99,-178
2460,26,-260,-53,617,-149,-176
2465,27,-255,-60,564,-198,-167
2470,32,-261,-63,499,-247,-154
2475,29,-263,-62,420,-285,-136
2480,28,-269,-56,336,-312,-109
2485,26,-279,-52,251,-325,-76
2490,16,-283,-47,173,-327,-35
2495,12,-289,-33,117,-312,4
2500,9,-297,-25,97,-287,46
2505,9,-306,-15,110,-245,88
2510,11,-308,2,154,-185,126
2515,18,-314,5,220,-106,162
2520,25,-316,7,299,-12,193
2525,31,-319,5,378,89,219
2530,43,-320,-16,442,184,222
2535,57,-315,-53,479,262,210
2540,63,-306,-100,466,316,184
2545,70,-283,-175,383,319,145
2550,69,-255,-246,238,248,133
2555,55,-238,-298,51,113,153
2560,34,-229,-315,-152,-45,212
2565,21,-245,-310,-332,-160,307
2570,-4,-283,-268,-462,-200,402
2575,-40,-318,-236,-556,-213,458
2580,-67,-341,-213,-619,-249,484
2585,-89,-345,-209,-654,-324,513
2590,-105,-338,-217,-658,-416,541
2595,-120,-316,-227,-627,-482,561
2600,-118,-290,-232,-578,-488,594
2605,-90,-275,-233,-523,-409,633
2610,-49,-261,-227,-452,-256,652
2615,-31,-252,-221,-341,-49,643
2620,-16,-225,-223,-189,179,613
2625,-11,-206,-212,-25,371,565
2630,7,-187,-203,122,482,513
2635,36,-173,-198,241,505,462
2640,54,-167,-195,320,482,414
2645,59,-164,-181,348,456,365
2650,57,-171,-169,338,433,311
2655,52,-180,-148,290,400,246
2660,44,-187,-141,219,347,180
2665,37,-189,-127,138,279,127
2670,30,-192,-116,70,209,90
2675,16,-195,-117,27,145,68
2680,13,-201,-118,17,90,60
2685,4,-202,-118,23,53,55
2690,0,-207,-124,38,29,55
2695,-8,-208,-131,47,15,57
2700,-18,-216,-129,51,17,49
2705,-21,-218,-137,52,27,35
2710,-28,-222,-142,50,41,0
2715,-21,-224,-143,41,61,-58
2720,-13,-225,-144,22,84,-132
2725,-1,-227,-141,-23,115,-210
2730,-1,-226,-131,-95,145,-293
2735,3,-224,-120,-169,176,-368
2740,5,-220,-119,-234,206,-423
2745,0,-216,-103,-284,230,-463
2750,0,-212,-97,-316,243,-493
2755,2,-205,-94,-331,244,-515
2760,4,-200,-85,-332,235,-530
2765,0,-195,-85,-321,220,-541
2770,1,-185,-75,-297,198,-546
2775,3,-177,-76,-265,164,-542
2780,-2,-170,-64,-232,120,-531
2785,0,-159,-67,-201,68,-515
2790,-1,-150,-69,-170,12,-495
2795,-3,-139,-64,-140,-48,-476
2800,1,-133,-63,-110,-106,-452
2805,0,-125,-64,-82,-160,-429
2810,3,-120,-61,-50,-209,-406
2815,5,-116,-62,-16,-251,-379
2820,10,-114,-64,15,-283,-355
2825,15,-110,-65,45,-303,-330
2830,14,-111,-69,69,-314,-310
2835,19,-116,-74,82,-325,-298
2840,24,-116,-74,81,-340,-274
2845,27,-121,-79,71,-354,-258
2850,29,-129,-85,52,-365,-244
2855,34,-138,-86,24,-377,-238
2860,35,-152,-86,-12,-391,-226
2865,35,-164,-89,-50,-403,-205
2870,34,-180,-85,-86,-412,-187
2875,30,-188,-87,-118,-421,-171
2880,36,-202,-87,-147,-428,-157
2885,34,-213,-84,-168,-431,-144
2890,33,-224,-70,-171,-433,-134
2895,35,-237,-66,-148,-434,-125
2900,31,-254,-62,-97,-439,-123
2905,27,-265,-51,-19,-446,-128
2910,21,-274,-38,87,-461,-142
2915,17,-282,-36,222,-487,-149
2920,16,-295,-23,373,-514,-158
2925,13,-303,-22,533,-536,-167
2930,9,-302,-31,695,-546,-169
2935,0,-295,-39,842,-526,-172
2940,0,-284,-46,955,-483,-163
2945,-3,-270,-52,1029,-424,-151
2950,17,-267,-55,1065,-354,-141
2955,30,-258,-48,1076,-273,-138
2960,37,-257,-43,1071,-184,-150
2965,42,-257,-40,1052,-98,-158
2970,43,-250,-49,1013,-27,-172
2975,44,-239,-62,944,33,-182
2980,53,-221,-75,847,93,-170
2985,68,-209,-81,725,161,-141
2990,84,-204,-72,586,230,-113
2995,96,-208,-61,452,284,-104
3000,93,-217,-41,350,296,-114
3005,82,-225,-13,301,259,-130
3010,69,-230,-2,300,177,-142
3015,65,-230,-8,322,78,-141
3020,52,-225,-32,328,-9,-126
3025,43,-226,-64,266,-74,-109
3030,28,-227,-113,103,-135,-109
3035,11,-239,-176,-156,-187,-134
3040,-2,-253,-212,-481,-210,-182
3045,-11,-275,-254,-803,-181,-237
3050,-10,-319,-276,-1027,-93,-288
3055,1,-350,-283,-1100,72,-371
3060,14,-369,-283,-1042,292,-447
3065,17,-382,-263,-901,513,-518
3070,29,-397,-224,-740,663,-592
3075,44,-405,-191,-569,738,-658
3080,52,-402,-169,-401,788,-687
3085,48,-393,-166,-242,821,-681
3090,35,-374,-166,-86,812,-663
3095,22,-345,-181,88,739,-642
3100,6,-309,-201,284,599,-624
3105,-1,-274,-226,462,413,-606
3110,-21,-247,-228,585,203,-587
3115,-45,-236,-219,628,-23,-565
3120,-69,-222,-210,606,-252,-533
3125,-88,-219,-201,547,-459,-488
3130,-101,-206,-206,468,-629,-438
3135,-100,-207,-206,378,-746,-388
3140,-98,-207,-210,281,-798,-336
3145,-92,-204,-208,181,-790,-279
3150,-79,-209,-189,85,-750,-228
3155,-62,-209,-173,24,-704,-190
3160,-48,-208,-158,4,-668,-169
3165,-31,-205,-144,20,-641,-161
3170,-9,-201,-134,53,-598,-160
3175,9,-197,-135,81,-527,-164
3180,23,-194,-136,83,-435,-173
3185,35,-193,-134,47,-348,-184
3190,44,-195,-133,-7,-291,-187
3195,54,-198,-128,-57,-267,-181
3200,60,-194,-127,-86,-269,-161
3205,63,-196,-127,-84,-287,-129
3210,60,-187,-125,-54,-313,-85
3215,61,-185,-119,-10,-346,-31
3220,60,-184,-121,21,-386,23
3225,55,-178,-120,31,-427,82
3230,52,-178,-115,22,-458,139
3235,55,-184,-117,-8,-474,195
3240,47,-184,-112,-69,-475,241
3245,44,-185,-111,-155,-458,278
3250,37,-185,-109,-252,-429,307
3255,24,-182,-110,-342,-395,324
3260,26,-183,-99,-419,-364,330
3265,17,-180,-95,-482,-333,321
3270,16,-168,-97,-521,-305,304
3275,9,-168,-88,-531,-277,282
3280,9,-164,-82,-516,-249,256
3285,3,-155,-81,-473,-219,230
3290,1,-149,-77,-409,-188,204
3295,-5,-137,-71,-337,-159,177
3300,-8,-129,-67,-259,-129,153
3305,-9,-122,-64,-184,-103,131
3310,-16,-113,-68,-115,-76,109
3315,-21,-111,-64,-59,-47,90
3320,-24,-107,-64,-12,-20,71
3325,-25,-107,-66,23,6,53
3330,-22,-112,-68,44,34,31
3335,-26,-116,-67,49,57,8
3340,-25,-122,-69,45,76,-18
3345,-25,-129,-69,38,89,-43
3350,-27,-138,-72,31,96,-70
3355,-24,-152,-74,24,96,-93
3360,-26,-157,-75,16,91,-119
3365,-26,-166,-74,5,82,-145
3370,-26,-175,-73,-13,72,-167
3375,-28,-177,-75,-27,57,-190
3380,-28,-189,-73,-37,40,-210
3385,-24,-199,-69,-41,23,-225
3390,-21,-208,-63,-38,7,-239
3395,-18,-218,-58,-16,-12,-252
3400,-14,-229,-54,27,-30,-265
3405,-14,-238,-45,92,-46,-277
3410,-7,-243,-48,173,-59,-287
3415,-6,-245,-47,264,-67,-294
3420,-2,-252,-44,355,-72,-296
3425,0,-251,-47,440,-75,-293
3430,0,-251,-46,518,-75,-288
3435,-2,-249,-49,584,-73,-282
3440,0,-246,-50,636,-68,-273
3445,0,-249,-49,682,-63,-257
3450,3,-252,-51,715,-54,-243
3455,3,-252,-49,736,-44,-227
3460,7,-254,-49,741,-36,-209
3465,10,-255,-51,734,-31,-194
3470,13,-260,-55,722,-31,-178
3475,17,-261,-60,699,-41,-164
3480,15,-261,-60,666,-59,-151
3485,16,-261,-64,621,-84,-139
3490,15,-259,-67,562,-116,-128
3495,14,-260,-64,487,-148,-113
3500,7,-265,-52,401,-180,-85
3505,4,-267,-49,312,-200,-51
3510,5,-274,-38,231,-201,-11
3515,6,-286,-28,166,-186,39
3520,4,-296,-17,112,-152,80
3525,11,-308,-13,81,-114,114
3530,21,-312,-28,63,-72,142
3535,23,-312,-42,45,-28,169
3540,28,-317,-77,24,12,192
3545,26,-317,-127,-8,34,193
3550,27,-311,-198,-39,17,210
3555,24,-304,-249,-91,-44,247
3560,15,-297,-277,-138,-159,292
3565,1,-296,-296,-170,-295,359
3570,-15,-306,-289,-186,-399,433
3575,-38,-327,-266,-197,-459,496
3580,-58,-341,-239,-218,-501,529
3585,-65,-356,-227,-248,-545,554
3590,-84,-355,-216,-274,-590,557
3595,-103,-339,-232,-286,-631,545
3600,-119,-317,-248,-281,-656,535
3605,-106,-294,-254,-264,-641,521
3610,-83,-281,-255,-241,-567,498
3615,-44,-266,-254,-207,-427,473
3620,-13,-256,-252,-162,-213,451
3625,-3,-243,-251,-112,26,435
3630,0,-230,-236,-60,216,411
3635,7,-215,-218,7,301,385
3640,31,-204,-196,81,289,358
3645,59,-194,-187,150,228,325
3650,65,-197,-178,188,161,280
3655,61,-199,-162,186,94,224
3660,58,-206,-150,161,24,158
3665,50,-209,-139,121,-50,90
3670,40,-212,-124,80,-127,32
3675,26,-211,-118,60,-197,-16
3680,12,-212,-116,73,-255,-56
3685,4,-214,-117,107,-292,-89
3690,-7,-209,-120,153,-312,-115
3695,-15,-208,-123,197,-320,-140
3700,-20,-202,-131,231,-321,-164
3705,-27,-200,-136,246,-314,-192
3710,-26,-202,-142,246,-297,-228
3715,-30,-192,-144,234,-273,-276
3720,-29,-191,-143,212,-243,-336
3725,-23,-185,-136,178,-210,-402
3730,-14,-183,-134,129,-178,-463
3735,-7,-182,-127,50,-146,-522
3740,0,-182,-117,-43,-119,-570
3745,7,-184,-102,-135,-96,-605
3750,13,-186,-98,-214,-80,-622
3755,17,-184,-91,-276,-71,-631
3760,17,-182,-85,-322,-70,-632
3765,24,-182,-78,-355,-78,-629
3770,24,-176,-78,-376,-94,-624
3775,26,-176,-74,-384,-119,-618
3780,24,-166,-76,-374,-155,-608
3785,19,-161,-74,-351,-203,-593
3790,20,-156,-71,-313,-256,-568
3795,20,-144,-74,-262,-309,-541
3800,19,-141,-69,-198,-363,-513
3805,22,-131,-72,-127,-410,-489
3810,23,-128,-67,-56,-452,-468
3815,28,-125,-74,8,-484,-447
3820,26,-121,-69,63,-505,-429
3825,28,-119,-72,102,-516,-409
3830,26,-117,-68,131,-519,-390
3835,32,-120,-65,145,-517,-374
3840,32,-122,-71,149,-512,-348
3845,29,-125,-76,137,-504,-325
3850,33,-130,-75,112,-496,-304
3855,34,-138,-77,83,-487,-283
3860,49,-146,-69,50,-483,-269
3865,38,-157,-79,21,-486,-244
3870,38,-170,-82,-10,-486,-224
3875,39,-181,-78,-38,-492,-209
3880,38,-192,-76,-61,-497,-196
3885,37,-199,-73,-70,-501,-186
3890,37,-213,-70,-67,-507,-172
3895,30,-228,-66,-46,-509,-159
3900,32,-239,-54,-7,-512,-148
3905,25,-248,-51,56,-521,-131
3910,25,-252,-45,142,-528,-117
3915,17,-266,-37,248,-537,-109
3920,9,-272,-35,371,-556,-105
3925,4,-277,-29,498,-583,-102
3930,-9,-279,-23,627,-616,-102
3935,-15,-279,-26,753,-652,-106
3940,-21,-276,-25,874,-689,-98
3945,-27,-269,-40,978,-707,-83
3950,-27,-261,-46,1045,-677,-67
3955,-16,-251,-60,1068,-595,-61
3960,-7,-246,-66,1057,-490,-59
3965,12,-241,-65,1022,-378,-65
3970,16,-248,-69,967,-276,-87
3975,24,-242,-58,903,-197,-122
3980,27,-240,-61,844,-143,-154
3985,30,-233,-64,780,-107,-164
3990,41,-227,-73,701,-76,-152
3995,57,-217,-74,605,-42,-132
4000,72,-216,-64,492,-10,-120
4005,81,-221,-50,387,8,-118
4010,82,-229,-31,301,6,-119
4015,74,-240,-7,253,-24,-124
4020,67,-252,13,247,-78,-120
4025,61,-254,22,272,-127,-114
4030,53,-261,22,300,-169,-107
4035,47,-262,20,313,-204,-101
4040,39,-271,1,297,-224,-96
4045,31,-275,-26,245,-237,-96
4050,23,-284,-66,147,-242,-107
4055,11,-285,-142,-11,-241,-141
4060,-5,-291,-207,-242,-212,-199
4065,-11,-307,-279,-521,-125,-310
4070,0,-330,-318,-766,11,-417
4075,23,-346,-328,-869,199,-509
4080,44,-362,-319,-805,405,-610
4085,67,-367,-283,-618,580,-715
4090,76,-366,-251,-374,708,-786
4095,68,-357,-219,-146,796,-820
4100,56,-342,-191,35,826,-817
4105,52,-334,-177,187,795,-795
4110,44,-320,-169,344,702,-773
4115,24,-302,-162,502,564,-744
4120,1,-290,-161,641,391,-696
4125,-22,-277,-149,738,191,-642
4130,-51,-269,-146,780,-25,-582
4135,-69,-257,-167,762,-244,-529
4140,-91,-242,-189,663,-443,-491
4145,-100,-235,-206,493,-593,-458
4150,-97,-224,-223,309,-676,-406
4155,-93,-220,-224,140,-703,-337
4160,-81,-217,-224,25,-705,-256
4165,-70,-217,-214,-22,-699,-170
4170,-57,-218,-200,-11,-679,-88
4175,-33,-223,-183,43,-645,-16
4180,-11,-222,-165,124,-606,27
4185,13,-223,-147,214,-573,29
4190,36,-228,-127,295,-539,-4
4195,55,-231,-122,350,-503,-58
4200,62,-231,-115,372,-458,-111
4205,65,-229,-117,361,-409,-144
4210,69,-225,-109,340,-360,-154
4215,71,-218,-116,321,-321,-144
4220,79,-215,-119,298,-291,-114
4225,76,-206,-125,270,-267,-71
4230,71,-196,-121,233,-256,-20
4235,69,-201,-120,181,-256,35
4240,64,-207,-116,122,-265,96
4245,57,-212,-112,55,-278,164
4250,52,-219,-113,-16,-285,236
4255,43,-221,-112,-83,-283,303
4260,39,-226,-109,-127,-267,365
4265,30,-220,-106,-160,-239,418
4270,23,-213,-108,-188,-203,462
4275,12,-203,-107,-215,-170,496
4280,10,-191,-102,-242,-141,516
4285,2,-178,-98,-262,-115,527
4290,0,-164,-94,-277,-96,524
4295,3,-151,-87,-283,-81,513
4300,-9,-135,-79,-287,-76,493
4305,-8,-127,-72,-286,-78,464
4310,-8,-111,-71,-278,-86,432
4315,-6,-103,-65,-273,-92,394
4320,-5,-88,-65,-263,-94,352
4325,-13,-84,-59,-243,-88,306
4330,-11,-80,-63,-221,-79,262
4335,-7,-74,-63,-205,-68,218
4340,-12,-80,-66,-186,-57,171
4345,-8,-81,-67,-170,-48,129
4350,-14,-94,-64,-161,-43,82
4355,-14,-97,-68,-151,-36,35
4360,-15,-112,-65,-137,-34,-4
4365,-14,-121,-69,-121,-30,-39
4370,-14,-137,-68,-116,-23,-73
4375,-20,-149,-72,-115,-17,-111
4380,-20,-157,-72,-112,-17,-139
4385,-21,-168,-71,-104,-25,-164
4390,-24,-177,-71,-95,-40,-178
4395,-24,-191,-69,-83,-63,-188
4400,-24,-189,-67,-62,-89,-188
4405,-20,-200,-69,-35,-118,-183
4410,-21,-202,-67,-6,-146,-171
4415,-20,-210,-73,25,-167,-159
4420,-19,-217,-69,58,-182,-144
4425,-11,-223,-66,94,-191,-131
4430,-11,-230,-63,126,-193,-120
4435,-10,-235,-63,166,-194,-111
4440,-8,-241,-61,210,-196,-104
4445,-3,-245,-62,251,-198,-102
4450,-1,-247,-60,288,-200,-105
4455,1,-250,-64,321,-196,-112
4460,0,-255,-56,344,-184,-119
4465,0,-260,-52,372,-164,-125
4470,5,-268,-49,400,-135,-131
4475,7,-274,-43,429,-102,-142
4480,13,-277,-44,461,-69,-154
4485,20,-277,-42,491,-46,-163
4490,25,-273,-42,512,-36,-168
4495,32,-270,-49,518,-38,-173
4500,34,-265,-55,504,-53,-181
4505,32,-265,-58,470,-81,-184
4510,39,-262,-60,424,-121,-181
4515,30,-260,-59,370,-171,-174
4520,22,-259,-52,320,-221,-156
4525,10,-262,-43,274,-253,-129
4530,9,-265,-42,235,-264,-91
4535,7,-266,-36,207,-241,-48
4540,12,-271,-19,184,-187,-6
4545,17,-274,-9,176,-100,27
4550,30,-280,3,185,10,50
4555,33,-281,7,209,132,63
4560,45,-284,3,244,251,69
4565,53,-292,-3,271,354,67
4570,59,-286,-34,281,423,57
4575,69,-282,-76,266,458,41
4580,70,-281,-118,211,458,34
4585,70,-271,-181,120,398,36
4590,63,-265,-239,9,251,66
4595,40,-260,-275,-104,24,132
4600,8,-266,-288,-208,-213,230
4605,-10,-290,-274,-307,-377,350
4610,-52,-319,-240,-395,-444,463
4615,-87,-353,-201,-461,-468,562
4620,-102,-378,-173,-501,-507,649
4625,-113,-381,-176,-510,-570,725
4630,-121,-372,-192,-490,-632,783
4635,-122,-356,-210,-437,-661,827
4640,-115,-328,-225,-350,-623,861
4645,-92,-306,-221,-243,-502,875
4650,-51,-284,-208,-111,-312,856
4655,-19,-265,-204,32,-86,809
4660,6,-243,-195,171,143,751
4665,32,-222,-199,294,350,680
4670,48,-192,-195,383,511,605
4675,53,-178,-186,457,591,538
4680,65,-164,-186,503,587,475
4685,81,-153,-180,496,527,413
4690,86,-146,-169,435,446,345
4695,84,-161,-146,336,364,282
4700,71,-169,-130,216,286,231
4705,64,-176,-121,99,219,201
4710,47,-190,-110,-2,161,184
4715,27,-200,-109,-71,113,168
4720,10,-206,-111,-99,73,153
4725,-3,-226,-114,-82,38,139
4730,-11,-229,-117,-20,8,117
4735,-20,-239,-116,70,-19,88
4740,-30,-246,-118,172,-40,56
4745,-40,-255,-123,271,-61,17
4750,-47,-255,-125,349,-84,-37
4755,-47,-255,-133,390,-105,-111
4760,-52,-249,-133,385,-120,-202
4765,-47,-245,-137,334,-125,-290
4770,-39,-239,-131,251,-121,-370
4775,-31,-241,-129,159,-108,-434
4780,-33,-227,-120,71,-82,-485
4785,-19,-228,-114,8,-53,-521
4790,-14,-223,-108,-25,-25,-548
4795,-8,-224,-97,-33,-2,-566
4800,-6,-220,-91,-20,8,-579
4805,-4,-214,-85,12,0,-587
4810,-1,-208,-84,51,-24,-590
4815,0,-198,-80,83,-58,-588
4820,0,-195,-75,99,-100,-576
4825,1,-182,-80,93,-144,-554
4830,1,-172,-76,72,-191,-526
4835,6,-160,-79,45,-232,-491
4840,4,-154,-72,16,-271,-457
4845,8,-146,-76,0,-308,-423
4850,13,-141,-73,-5,-342,-389
4855,15,-135,-75,3,-370,-358
4860,21,-129,-72,28,-389,-330
4865,25,-126,-70,61,-402,-310
4870,29,-125,-65,92,-410,-295
4875,33,-123,-69,113,-410,-282
4880,34,-123,-67,113,-403,-272
4885,38,-129,-69,93,-392,-259
4890,41,-140,-67,54,-381,-248
4895,40,-147,-67,1,-372,-234
4900,43,-155,-67,-62,-371,-229
4905,44,-166,-67,-132,-374,-218
4910,39,-172,-70,-207,-379,-209
4915,39,-190,-71,-269,-385,-205
4920,39,-197,-74,-311,-387,-207
4925,35,-206,-71,-327,-385,-200
4930,33,-221,-76,-314,-378,-193
4935,27,-223,-70,-277,-373,-183
4940,22,-230,-70,-222,-370,-171
4945,18,-234,-69,-151,-369,-163
4950,12,-234,-68,-72,-370,-153
4955,5,-234,-67,6,-373,-145
4960,7,-237,-62,77,-374,-137
4965,1,-236,-54,143,-376,-129
4970,1,-238,-45,204,-378,-120
4975,-1,-238,-34,259,-382,-109
4980,-4,-236,-35,315,-392,-94
4985,-8,-240,-25,371,-406,-79
4990,-12,-239,-23,432,-426,-63
4995,-10,-247,-20,496,-450,-47
5000,-10,-241,-18,556,-462,-33
5005,-11,-239,-17,604,-454,-22
5010,-6,-239,-21,637,-432,-21
5015,1,-230,-31,652,-404,-23
5020,15,-227,-35,647,-367,-22
5025,28,-222,-42,624,-316,-22
5030,35,-222,-47,593,-252,-28
5035,36,-216,-56,553,-181,-40
5040,41,-214,-67,502,-106,-44
5045,54,-202,-81,444,-30,-30
5050,68,-198,-87,373,39,-7
5055,90,-196,-90,286,110,13
5060,102,-198,-79,194,177,22
5065,105,-205,-61,118,227,29
5070,102,-224,-33,82,245,30
5075,93,-232,-15,89,217,25
5080,79,-248,-2,124,152,4
5085,62,-260,4,159,63,-27
5090,51,-276,-5,175,-23,-62
5095,33,-286,-24,157,-96,-103
5100,15,-292,-53,89,-142,-141
5105,-5,-304,-96,-34,-154,-172
5110,-24,-316,-129,-211,-126,-196
5115,-31,-332,-170,-407,-51,-221
5120,-32,-348,-206,-579,75,-257
5125,-24,-360,-230,-694,253,-329
5130,-12,-373,-253,-743,462,-440
5135,-6,-379,-259,-737,642,-590
5140,1,-389,-241,-684,756,-725
5145,15,-393,-211,-566,814,-828
5150,27,-398,-185,-389,852,-889
5155,39,-401,-151,-174,894,-908
5160,29,-386,-127,37,913,-888
5165,30,-373,-109,227,874,-842
5170,27,-354,-104,418,767,-780
5175,24,-329,-110,611,614,-707
5180,17,-300,-123,784,449,-626
5185,6,-267,-138,893,277,-537
5190,-12,-241,-149,906,93,-455
5195,-25,-218,-157,845,-111,-387
5200,-32,-208,-161,735,-325,-331
5205,-41,-188,-173,602,-529,-285
5210,-48,-182,-173,451,-704,-251
5215,-54,-179,-177,300,-837,-224
5220,-66,-177,-177,163,-919,-206
5225,-69,-179,-183,59,-955,-189
5230,-70,-172,-187,-7,-947,-165
5235,-62,-165,-192,-53,-897,-138
5240,-46,-159,-194,-90,-812,-117
5245,-23,-157,-187,-126,-719,-109
5250,-3,-161,-177,-161,-630,-109
5255,18,-163,-159,-190,-552,-117
5260,34,-171,-151,-198,-484,-129
5265,43,-183,-130,-197,-424,-151
5270,61,-188,-127,-183,-374,-176
5275,59,-191,-127,-162,-333,-195
5280,59,-190,-122,-130,-301,-204
5285,59,-193,-122,-100,-273,-200
5290,58,-195,-124,-77,-249,-182
5295,54,-201,-122,-51,-225,-155
5300,50,-203,-121,-29,-209,-120
5305,49,-213,-120,-10,-207,-84
5310,44,-223,-128,11,-217,-51
5315,36,-227,-126,25,-239,-12
5320,28,-231,-130,32,-267,31
5325,27,-239,-128,39,-296,79
5330,16,-239,-130,43,-315,129
5335,12,-236,-131,45,-329,180
5340,6,-228,-131,39,-332,225
5345,2,-224,-127,35,-334,257
5350,0,-217,-130,33,-330,281
5355,-1,-211,-118,23,-322,293
5360,-1,-201,-111,13,-314,298
5365,-8,-193,-108,6,-303,300
5370,-10,-185,-97,1,-291,293
5375,-19,-182,-99,-2,-279,285
5380,-10,-177,-92,-14,-267,272
5385,-10,-169,-90,-29,-254,253
5390,-4,-163,-85,-46,-238,227
5395,-6,-156,-88,-64,-219,195
5400,-1,-154,-87,-87,-199,157
5405,0,-153,-89,-108,-175,117
5410,0,-152,-83,-123,-154,72
5415,1,-153,-86,-131,-134,29
5420,3,-159,-91,-133,-121,-16
5425,0,-159,-85,-127,-116,-57
5430,-8,-168,-87,-117,-121,-97
5435,-5,-171,-83,-104,-133,-130
5440,-3,-177,-87,-90,-148,-158
5445,-5,-182,-86,-81,-164,-182
5450,-4,-185,-85,-80,-176,-201
5455,-10,-187,-85,-86,-188,-216
5460,-10,-190,-85,-98,-199,-229
5465,-10,-189,-85,-116,-208,-239
5470,-10,-198,-93,-142,-213,-241
5475,-11,-199,-88,-170,-218,-245
5480,-8,-204,-87,-198,-220,-242
5485,-7,-210,-86,-222,-219,-240
5490,-1,-220,-80,-238,-218,-236
5495,0,-231,-78,-243,-218,-231
5500,-1,-235,-77,-238,-217,-224
5505,5,-244,-75,-217,-221,-217
5510,9,-247,-74,-175,-226,-212
5515,12,-250,-76,-127,-230,-207
5520,15,-252,-80,-83,-230,-204
5525,15,-250,-78,-39,-228,-204
5530,20,-246,-76,11,-221,-208
5535,18,-244,-70,59,-214,-213
5540,25,-242,-74,109,-203,-222
5545,21,-239,-66,156,-194,-234
5550,18,-238,-63,196,-183,-245
5555,20,-235,-63,230,-171,-254
5560,24,-231,-61,255,-158,-260
5565,19,-222,-57,272,-141,-268
5570,21,-223,-55,277,-125,-277
5575,19,-220,-51,279,-109,-279
5580,25,-220,-53,279,-92,-282
5585,21,-218,-54,277,-73,-283
5590,28,-221,-47,273,-52,-286
5595,24,-219,-49,273,-33,-283
5600,28,-225,-46,278,-15,-279
5605,25,-225,-46,287,4,-272
5610,30,-232,-42,301,18,-262
5615,29,-229,-43,315,25,-252
5620,30,-234,-42,332,27,-239
5625,29,-231,-45,353,25,-223
5630,28,-235,-51,367,17,-206
5635,18,-229,-51,378,3,-185
5640,15,-229,-57,385,-22,-166
5645,9,-226,-67,387,-58,-143
5650,3,-224,-72,371,-98,-118
5655,0,-216,-74,340,-129,-86
5660,-5,-217,-76,312,-145,-49
5665,-7,-216,-77,289,-136,-17
5670,0,-217,-70,265,-96,8
5675,0,-222,-68,236,-38,24
5680,5,-228,-55,204,33,29
5685,12,-235,-54,181,106,31
5690,22,-241,-54,164,172,30
5695,21,-242,-60,147,227,27
5700,29,-254,-65,125,270,28
5705,27,-255,-70,97,296,34
5710,28,-263,-73,61,302,44
5715,29,-274,-84,20,285,57
5720,26,-280,-99,-21,238,72
5725,27,-290,-107,-55,149,98
5730,24,-300,-129,-76,17,133
5735,12,-304,-147,-89,-148,192
5740,0,-307,-157,-99,-317,276
5745,-18,-312,-159,-101,-458,371
5750,-41,-319,-149,-97,-560,479
5755,-59,-326,-140,-90,-633,586
5760,-71,-337,-135,-95,-688,672
5765,-70,-346,-138,-118,-723,740
5770,-67,-346,-134,-139,-734,785
5775,-56,-348,-139,-141,-717,800
5780,-54,-352,-142,-101,-678,782
5785,-46,-347,-142,-24,-628,730
5790,-45,-331,-140,82,-565,654
5795,-36,-323,-149,200,-492,566
5800,-28,-306,-152,302,-405,471
5805,-16,-280,-156,366,-309,384
5810,-6,-256,-153,394,-207,318
5815,-1,-249,-153,392,-115,265
5820,-1,-236,-155,374,-52,217
5825,-3,-220,-152,335,-27,177
5830,-3,-204,-152,284,-33,161
5835,1,-185,-154,204,-52,169
5840,13,-174,-151,101,-57,197
5845,18,-164,-136,4,-41,232
5850,31,-159,-128,-77,-19,265
5855,33,-154,-122,-139,1,297
5860,35,-141,-113,-183,12,327
5865,43,-139,-105,-206,17,353
5870,51,-142,-106,-216,24,369
5875,58,-143,-107,-217,34,369
5880,61,-141,-106,-207,48,354
5885,61,-140,-110,-188,64,325
5890,61,-145,-120,-183,77,283
5895,61,-147,-123,-185,86,229
5900,62,-158,-128,-189,90,168
5905,60,-165,-127,-183,89,104
5910,52,-174,-127,-160,87,44
5915,51,-191,-125,-123,84,-8
5920,39,-193,-123,-78,78,-51
5925,34,-207,-121,-21,71,-89
5930,23,-214,-120,40,65,-118
5935,13,-224,-118,94,56,-139
5940,5,-227,-118,140,44,-155
5945,0,-229,-118,178,27,-167
5950,-8,-237,-124,207,8,-175
5955,-19,-241,-129,216,-10,-180
5960,-18,-242,-135,199,-19,-181
5965,-22,-246,-135,163,-19,-179
5970,-17,-245,-131,114,-12,-177
5975,-25,-250,-132,56,-4,-180
5980,-22,-252,-129,3,1,-186
5985,-20,-255,-128,-38,1,-196
5990,-10,-259,-128,-57,-2,-205
5995,-4,-255,-125,-58,-4,-215
6000,0,-256,-122,-43,-10,-225
6005,7,-253,-118,-15,-14,-231
6010,11,-248,-111,17,-20,-239
6015,15,-244,-106,50,-33,-246
6020,16,-237,-105,85,-53,-253
6025,19,-234,-98,114,-80,-259
6030,23,-224,-102,136,-105,-258
6035,26,-217,-101,148,-127,-254
6040,26,-206,-101,143,-150,-247
6045,31,-199,-103,118,-170,-237
6050,31,-192,-101,81,-187,-229
6055,28,-188,-98,38,-204,-219
6060,34,-186,-102,-6,-221,-208
6065,29,-185,-97,-51,-231,-194
6070,30,-189,-92,-90,-240,-186
6075,32,-182,-89,-123,-239,-178
6080,25,-183,-92,-151,-234,-170
6085,32,-187,-87,-170,-224,-166
6090,31,-186,-90,-182,-210,-160
6095,31,-188,-86,-187,-194,-154
6100,31,-191,-85,-195,-174,-153
6105,30,-193,-80,-193,-158,-154
6110,25,-195,-77,-177,-146,-158
6115,25,-197,-78,-158,-140,-158
6120,24,-205,-82,-145,-140,-162
6125,19,-209,-81,-135,-143,-163
6130,18,-212,-81,-127,-145,-163
6135,14,-217,-84,-126,-149,-162
6140,12,-218,-75,-131,-154,-159
6145,14,-225,-82,-134,-161,-155
6150,10,-226,-77,-134,-171,-152
6155,9,-233,-79,-126,-184,-146
6160,5,-235,-73,-110,-200,-140
6165,3,-241,-70,-87,-218,-133
6170,6,-242,-69,-53,-238,-120
6175,-1,-240,-68,-15,-257,-109
6180,-4,-243,-66,26,-273,-99
6185,-6,-244,-65,65,-288,-87
6190,-4,-233,-63,98,-302,-75
6195,-3,-230,-60,130,-317,-66
6200,-3,-228,-60,162,-330,-62
6205,-5,-222,-61,192,-345,-59
6210,-4,-220,-55,220,-363,-54
6215,-5,-213,-47,251,-383,-55
6220,-9,-209,-49,286,-403,-52
6225,-7,-205,-37,320,-427,-51
6230,-10,-205,-40,351,-456,-52
6235,-11,-202,-42,369,-488,-54
6240,-18,-204,-45,378,-525,-56
6245,-14,-204,-39,376,-568,-58
6250,-18,-210,-38,370,-612,-58
6255,-15,-214,-41,360,-650,-62
6260,-12,-225,-40,350,-670,-63
6265,-12,-229,-46,346,-672,-65
6270,-9,-231,-49,350,-659,-69
6275,0,-238,-48,358,-637,-72
6280,2,-239,-49,369,-610,-72
6285,9,-239,-63,376,-576,-69
6290,15,-239,-74,377,-532,-66
6295,14,-238,-75,370,-479,-61
6300,27,-235,-94,353,-429,-52
6305,36,-227,-100,330,-388,-45
6310,46,-222,-98,299,-358,-36
6315,61,-224,-98,263,-341,-21
6320,63,-223,-89,231,-322,-3
6325,66,-230,-72,210,-308,15
6330,69,-238,-56,229,-305,32
6335,73,-249,-57,261,-312,37
6340,64,-254,-64,280,-329,30
6345,59,-262,-73,267,-345,10
6350,53,-274,-94,221,-347,-27
6355,44,-278,-116,150,-327,-68
6360,37,-286,-148,62,-275,-107
6365,31,-294,-175,-39,-182,-145
6370,30,-296,-191,-137,-48,-190
6375,35,-307,-206,-213,113,-253
6380,31,-308,-211,-259,278,-328
6385,30,-317,-205,-258,412,-408
6390,27,-319,-198,-226,503,-479
6395,24,-323,-179,-176,563,-531
6400,20,-330,-155,-107,611,-562
6405,16,-333,-130,-28,658,-563
6410,11,-325,-113,48,681,-548
6415,10,-319,-97,122,668,-506
6420,8,-314,-89,191,619,-459
6425,6,-305,-74,251,542,-407
6430,4,-295,-69,303,456,-352
6435,2,-286,-68,349,363,-295
6440,-2,-272,-67,400,269,-241
6445,-10,-259,-75,449,169,-188
6450,-16,-243,-85,475,56,-141
6455,-23,-231,-96,474,-67,-109
6460,-19,-216,-107,444,-193,-84
6465,-20,-203,-118,385,-302,-69
6470,-17,-195,-128,298,-391,-58
6475,-18,-187,-130,198,-457,-49
6480,-23,-182,-140,95,-498,-42
6485,-19,-174,-148,-6,-518,-36
6490,-16,-170,-146,-95,-517,-33
6495,-5,-172,-152,-172,-497,-35
6500,-2,-168,-149,-240,-457,-47
6505,7,-166,-144,-299,-407,-62
6510,16,-166,-150,-350,-350,-80
6515,23,-163,-146,-390,-289,-102
6520,29,-162,-149,-421,-231,-121
6525,35,-163,-142,-446,-166,-146
6530,39,-164,-142,-464,-116,-167
6535,38,-164,-138,-479,-77,-189
6540,38,-170,-133,-488,-48,-205
6545,37,-171,-130,-488,-32,-216
6550,32,-178,-129,-478,-29,-220
6555,25,-186,-132,-459,-39,-217
6560,23,-188,-137,-435,-60,-209
6565,15,-193,-135,-400,-91,-194
6570,15,-194,-131,-360,-129,-177
6575,6,-198,-133,-312,-173,-160
6580,7,-201,-135,-259,-218,-142
6585,1,-205,-140,-212,-260,-126
6590,-2,-206,-136,-174,-297,-111
6595,-3,-212,-134,-146,-326,-95
6600,-7,-208,-134,-132,-350,-81
6605,-11,-209,-139,-130,-369,-66
6610,-16,-211,-136,-135,-381,-52
6615,-18,-206,-137,-148,-395,-39
6620,-18,-203,-138,-166,-410,-29
6625,-16,-200,-136,-187,-425,-23
6630,-16,-201,-134,-208,-439,-17
6635,-13,-199,-131,-221,-449,-13
6640,-13,-198,-137,-235,-451,-12
6645,-5,-197,-134,-242,-449,-9
6650,-2,-203,-131,-239,-444,-14
6655,1,-201,-138,-233,-435,-18
6660,1,-207,-133,-225,-422,-22
6665,5,-208,-134,-219,-411,-22
6670,7,-211,-131,-210,-398,-25
6675,14,-218,-128,-191,-384,-26
6680,16,-218,-127,-162,-366,-25
6685,19,-221,-127,-126,-348,-23
6690,18,-218,-123,-87,-335,-22
6695,22,-221,-124,-52,-328,-24
6700,23,-220,-126,-22,-327,-22
6705,24,-218,-125,-4,-328,-21
6710,21,-218,-123,-1,-331,-18
6715,20,-213,-123,-9,-337,-17
6720,17,-211,-123,-23,-340,-18
6725,17,-206,-123,-47,-343,-19
6730,4,-206,-131,-76,-344,-20
6735,9,-205,-122,-107,-346,-23
6740,3,-205,-123,-138,-351,-26
6745,-1,-203,-118,-167,-360,-29
6750,-5,-203,-119,-189,-373,-32
6755,-7,-205,-113,-199,-384,-37
6760,-13,-207,-111,-198,-395,-46
6765,-14,-210,-112,-193,-407,-54
6770,-22,-207,-107,-189,-417,-64
6775,-23,-204,-112,-186,-426,-74
6780,-21,-202,-117,-186,-434,-85
6785,-26,-203,-115,-186,-440,-95
6790,-23,-202,-118,-188,-441,-107
6795,-23,-198,-111,-194,-443,-117
6800,-28,-201,-113,-201,-445,-127
6805,-25,-205,-115,-206,-450,-134
6810,-26,-204,-110,-214,-461,-144
6815,-27,-203,-108,-224,-474,-152
6820,-25,-207,-113,-235,-483,-158
6825,-18,-210,-114,-245,-494,-163
6830,-17,-211,-110,-255,-504,-165
6835,-13,-210,-114,-261,-514,-169
6840,-16,-210,-125,-268,-526,-170
6845,-8,-209,-118,-276,-538,-169
6850,-3,-212,-120,-283,-548,-166
6855,-1,-213,-125,-287,-557,-161
6860,2,-214,-125,-291,-565,-155
6865,4,-217,-122,-293,-572,-153
6870,7,-219,-123,-295,-578,-147
6875,7,-222,-127,-298,-582,-141
6880,5,-226,-122,-300,-582,-132
6885,8,-224,-122,-302,-580,-123
6890,7,-224,-126,-306,-575,-114
6895,12,-232,-123,-310,-567,-102
6900,6,-224,-126,-316,-555,-94
6905,7,-223,-121,-324,-540,-86
6910,7,-223,-124,-328,-522,-80
6915,9,-222,-123,-331,-505,-76
6920,8,-223,-121,-334,-487,-72
6925,7,-220,-124,-329,-470,-66
6930,5,-214,-125,-322,-452,-62
6935,8,-215,-115,-317,-434,-56
6940,7,-214,-119,-311,-419,-49
6945,10,-210,-123,-305,-409,-43
6950,10,-208,-119,-298,-399,-37
6955,11,-206,-116,-292,-390,-25
6960,13,-204,-116,-290,-382,-13
6965,15,-205,-117,-295,-370,2
6970,10,-201,-112,-301,-356,17
6975,12,-202,-114,-305,-341,34
6980,13,-202,-110,-312,-326,53
6985,15,-204,-112,-321,-314,72
6990,16,-208,-110,-331,-301,93
6995,24,-212,-110,-340,-288,111
7000,24,-218,-114,-348,-277,130
7005,29,-216,-107,-353,-262,153
7010,34,-221,-110,-352,-245,173
7015,42,-226,-114,-343,-222,193
7020,48,-227,-115,-328,-192,216
7025,50,-231,-119,-303,-155,238
7030,54,-231,-120,-271,-111,263
7035,56,-233,-118,-231,-61,285
7040,57,-230,-121,-183,-8,305
7045,59,-224,-125,-136,48,324
7050,54,-224,-121,-93,103,340
7055,46,-210,-118,-52,160,352
7060,41,-218,-119,-18,214,363
7065,33,-215,-122,12,261,367
7070,26,-211,-119,32,301,371
7075,13,-208,-120,44,336,374
7080,1,-205,-121,54,366,371
7085,-7,-204,-121,71,395,362
7090,-14,-198,-119,86,424,347
7095,-23,-198,-122,96,451,331
7100,-31,-193,-119,96,473,309
7105,-36,-191,-122,90,497,283
7110,-46,-188,-124,80,521,256
7115,-40,-189,-124,67,547,229
7120,-41,-187,-124,55,571,204
7125,-41,-189,-125,40,595,181
7130,-41,-192,-126,25,620,164
7135,-40,-197,-127,13,641,154
7140,-41,-200,-125,-3,660,149
7145,-37,-206,-132,-16,673,151
7150,-32,-217,-133,-28,678,162
7155,-25,-223,-137,-38,674,176
7160,-19,-231,-144,-50,655,195
7165,-17,-230,-157,-65,621,216
7170,-15,-232,-164,-88,572,241
7175,-16,-229,-172,-120,514,275
7180,-21,-226,-177,-151,448,314
7185,-22,-225,-184,-175,383,349
7190,-22,-222,-185,-181,330,381
7195,-28,-220,-182,-172,297,405
7200,-29,-217,-175,-154,281,424
7205,-26,-215,-169,-136,284,433
7210,-29,-208,-161,-115,301,435
7215,-26,-210,-163,-97,326,433
7220,-29,-197,-151,-92,349,425
7225,-23,-197,-147,-82,369,415
7230,-25,-193,-145,-71,386,404
7235,-23,-188,-146,-67,400,395
7240,-21,-185,-149,-77,416,389
7245,-22,-182,-153,-96,435,387
7250,-20,-176,-155,-123,455,391
7255,-20,-173,-156,-152,475,400
7260,-19,-165,-160,-181,493,412
7265,-19,-161,-159,-204,505,426
7270,-19,-159,-165,-225,515,434
7275,-19,-156,-169,-240,520,440
7280,-14,-158,-170,-257,519,439
7285,-15,-160,-172,-279,515,436
7290,-13,-162,-170,-307,510,431
7295,-16,-166,-178,-339,507,427
7300,-17,-171,-180,-371,506,422
7305,-14,-173,-180,-396,505,416
7310,-17,-174,-182,-412,505,407
7315,-17,-176,-183,-415,501,392
7320,-15,-177,-187,-408,496,373
7325,-17,-178,-181,-400,492,352
7330,-19,-182,-187,-395,484,332
7335,-19,-177,-185,-397,478,310
7340,-16,-182,-185,-407,470,291
7345,-21,-179,-182,-428,463,276
7350,-18,-180,-185,-459,459,269
7355,-19,-181,-177,-498,458,266
7360,-17,-180,-176,-536,458,268
7365,-18,-181,-179,-573,461,276
7370,-19,-178,-176,-602,468,291
7375,-18,-183,-177,-620,474,303
7380,-15,-185,-175,-627,477,317
7385,-19,-183,-175,-625,478,331
7390,-11,-188,-168,-613,474,343
7395,-12,-190,-174,-595,474,355
7400,-15,-192,-169,-569,476,364
7405,-11,-193,-168,-537,481,369
7410,-9,-190,-169,-500,483,368
7415,-8,-185,-167,-459,477,361
7420,-5,-186,-173,-417,461,350
7425,-3,-185,-167,-378,439,333
7430,-3,-178,-170,-343,414,313
7435,-2,-182,-167,-317,393,295
7440,1,-179,-171,-302,380,279
7445,2,-176,-166,-297,375,269
7450,2,-179,-172,-298,376,261
7455,0,-182,-175,-304,383,255
7460,-1,-186,-171,-313,393,247
7465,1,-190,-170,-317,400,235
7470,-2,-187,-175,-316,403,220
7475,-4,-189,-168,-310,401,205
7480,0,-191,-171,-299,396,194
7485,-2,-188,-167,-288,396,182
7490,-3,-192,-177,-282,394,174
7495,0,-186,-177,-286,396,165
7500,0,-188,-177,-294,398,159
7505,2,-183,-182,-309,396,149
7510,6,-186,-183,-323,388,137
7515,8,-183,-184,-333,380,121
7520,9,-183,-184,-336,372,105
7525,7,-180,-179,-334,366,95
7530,7,-180,-180,-328,363,89
7535,6,-180,-180,-323,364,91
7540,1,-173,-184,-324,373,97
7545,4,-168,-183,-335,388,104
7550,3,-170,-181,-353,408,111
7555,2,-169,-177,-373,429,120
7560,2,-166,-173,-391,443,127
7565,0,-169,-172,-409,452,133
7570,0,-168,-171,-425,452,141
7575,0,-166,-170,-443,450,150
7580,0,-167,-168,-462,450,160
7585,0,-167,-169,-482,452,170
7590,-5,-171,-168,-498,454,176
7595,-2,-170,-171,-507,448,182
7600,-3,-168,-173,-513,445,184
7605,0,-163,-176,-517,442,189
7610,-2,-161,-179,-520,444,194
7615,3,-162,-181,-524,448,198
7620,0,-162,-179,-523,449,200
7625,2,-169,-179,-522,445,199
7630,0,-176,-176,-516,436,201
7635,0,-177,-175,-506,427,200
7640,-3,-179,-175,-492,417,196
7645,-9,-179,-179,-472,409,189
7650,-11,-183,-182,-446,397,181
7655,-17,-181,-181,-420,385,166
7660,-18,-184,-179,-396,371,155
7665,-23,-179,-183,-376,353,143
7670,-24,-180,-185,-364,335,131
7675,-28,-174,-185,-363,319,122
7680,-29,-177,-185,-370,305,111
7685,-28,-179,-181,-376,299,99
7690,-27,-182,-178,-384,290,86
7695,-25,-184,-172,-388,275,74
7700,-24,-181,-173,-384,260,59
7705,-20,-183,-169,-378,240,49
7710,-23,-186,-161,-370,221,41
7715,-15,-178,-161,-362,204,35
7720,-12,-179,-166,-359,189,30
7725,-13,-177,-160,-358,177,26
7730,-15,-177,-157,-360,165,27
7735,-17,-175,-158,-359,154,28
7740,-14,-177,-153,-355,142,31
7745,-22,-178,-152,-349,129,38
7750,-22,-176,-162,-345,117,44
7755,-23,-172,-163,-343,104,53
7760,-22,-170,-164,-346,90,62
7765,-25,-171,-165,-345,77,71
7770,-22,-173,-169,-341,64,80
7775,-20,-169,-170,-332,53,90
7780,-19,-165,-175,-316,48,98
7785,-13,-164,-176,-299,49,107
7790,-6,-165,-178,-286,57,118
7795,0,-165,-183,-281,77,132
7800,0,-161,-185,-282,105,145
7805,4,-165,-187,-284,138,159
7810,8,-162,-190,-289,176,175
7815,14,-163,-193,-298,220,192
7820,15,-163,-189,-314,270,210
7825,27,-167,-191,-340,324,225
7830,31,-173,-197,-377,382,243
7835,29,-168,-200,-416,435,261
7840,26,-172,-204,-460,483,277
7845,20,-172,-209,-500,522,289
7850,20,-179,-208,-532,558,299
7855,15,-180,-206,-547,588,305
7860,13,-186,-201,-544,608,311
7865,16,-192,-205,-518,622,311
7870,20,-202,-203,-464,637,290
7875,10,-208,-209,-383,648,256
7880,5,-200,-200,-281,651,225
7885,2,-195,-204,-172,644,208
7890,-3,-177,-210,-79,631,214
7895,-7,-161,-215,-13,607,243
7900,-9,-142,-223,34,567,277
7905,-10,-131,-221,59,520,292
7910,-10,-127,-220,65,472,275
7915,-10,-127,-211,59,421,224
7920,-14,-126,-200,49,359,150
7925,-7,-126,-189,38,288,76
7930,-2,-120,-184,29,219,18
7935,-4,-121,-182,24,157,-16
7940,0,-111,-184,22,110,-21
7945,-2,-105,-183,23,76,-6
7950,0,-94,-193,20,54,17
7955,1,-87,-201,12,41,37
7960,6,-86,-202,-7,35,51
7965,13,-86,-201,-34,36,59
7970,20,-87,-206,-67,43,61
7975,28,-95,-204,-100,54,59
7980,38,-109,-210,-122,65,56
7985,49,-111,-199,-127,76,56
7990,59,-119,-200,-115,86,63
7995,64,-123,-201,-93,94,75
8000,71,-129,-204,-67,101,93
8005,76,-136,-206,-45,99,112
8010,80,-145,-212,-30,92,130
8015,82,-156,-219,-18,79,143
8020,79,-161,-217,3,62,155
8025,77,-175,-223,35,44,161
8030,67,-179,-225,82,34,164
8035,54,-182,-226,135,32,164
8040,51,-183,-228,190,38,160
8045,41,-178,-227,242,49,154
8050,31,-174,-228,288,61,142
8055,24,-171,-226,332,69,129
8060,17,-167,-220,370,73,115
8065,13,-161,-222,399,70,103
8070,7,-153,-216,421,61,88
8075,2,-148,-216,434,54,69
8080,1,-140,-213,438,47,49
8085,2,-135,-207,431,44,29
8090,5,-132,-203,416,42,8
8095,2,-123,-204,387,35,-11
8100,8,-119,-198,352,28,-33
8105,11,-116,-198,311,16,-50
8110,10,-113,-195,273,-2,-70
8115,10,-113,-194,242,-23,-86
8120,9,-112,-193,218,-47,-103
8125,8,-109,-189,202,-73,-116
8130,6,-108,-192,191,-102,-128
8135,1,-111,-186,184,-136,-137
8140,0,-117,-188,175,-169,-145
8145,-1,-114,-185,170,-203,-157
8150,-2,-119,-187,168,-237,-168
8155,-2,-125,-186,169,-271,-181
8160,-4,-128,-183,171,-305,-194
8165,-5,-128,-186,171,-336,-208
8170,-7,-136,-186,168,-367,-224
8175,-6,-140,-190,160,-396,-241
8180,-8,-144,-190,149,-428,-264
8185,-4,-146,-190,138,-464,-288
8190,-11,-153,-192,126,-503,-317
8195,-18,-148,-194,116,-548,-346
8200,-22,-153,-199,105,-593,-377
8205,-26,-153,-195,89,-640,-413
8210,-27,-153,-194,65,-686,-449
8215,-33,-157,-193,32,-724,-484
8220,-32,-154,-197,-5,-760,-525
8225,-30,-153,-199,-38,-787,-555
8230,-30,-156,-197,-69,-810,-582
8235,-32,-152,-194,-100,-828,-608
8240,-26,-154,-194,-132,-843,-635
8245,-22,-148,-194,-170,-858,-664
8250,-17,-151,-195,-211,-867,-691
8255,-12,-148,-200,-255,-870,-714
8260,-8,-146,-204,-294,-868,-732
8265,-5,-142,-208,-325,-861,-744
8270,2,-139,-210,-346,-849,-751
8275,5,-137,-211,-362,-833,-752
8280,15,-137,-210,-366,-812,-750
8285,17,-135,-205,-361,-795,-738
8290,18,-140,-209,-350,-780,-717
8295,26,-144,-204,-345,-764,-684
8300,22,-145,-208,-354,-753,-649
8305,31,-146,-205,-380,-743,-614
8310,42,-147,-197,-423,-735,-585
8315,39,-146,-205,-480,-727,-563
8320,41,-135,-205,-545,-715,-542
8325,40,-129,-211,-606,-695,-520
8330,43,-124,-213,-660,-671,-494
8335,47,-117,-218,-702,-644,-463
8340,52,-116,-227,-731,-609,-426
8345,55,-112,-231,-745,-557,-386
8350,58,-107,-236,-737,-485,-339
8355,52,-107,-245,-707,-401,-292
8360,43,-105,-243,-657,-308,-247
8365,41,-103,-238,-593,-212,-205
8370,33,-105,-232,-520,-116,-164
8375,22,-104,-226,-447,-22,-129
8380,17,-105,-220,-386,60,-98
8385,9,-102,-210,-350,127,-65
8390,1,-96,-201,-338,180,-32
8395,0,-92,-194,-355,218,-2
8400,-5,-87,-187,-393,239,30
8405,-14,-78,-185,-449,247,55
8410,-21,-71,-183,-512,242,76
8415,-27,-73,-189,-582,231,94
8420,-32,-70,-177,-651,215,108
8425,-36,-69,-185,-713,197,117
8430,-38,-69,-186,-768,177,125
8435,-39,-80,-186,-808,159,130
8440,-44,-85,-183,-833,139,135
8445,-49,-89,-182,-843,123,139
8450,-50,-94,-182,-839,107,138
8455,-48,-101,-182,-823,94,138
8460,-49,-106,-189,-802,81,133
8465,-50,-110,-191,-777,74,124
8470,-54,-120,-193,-753,73,113
8475,-50,-128,-189,-730,79,100
8480,-50,-131,-189,-711,96,87
8485,-45,-140,-193,-694,128,76
8490,-44,-144,-193,-680,170,73
8495,-43,-148,-200,-676,219,77
8500,-39,-149,-204,-676,274,89
8505,-39,-150,-209,-676,320,104
8510,-36,-158,-210,-672,356,118
8515,-37,-157,-214,-660,378,132
8520,-33,-157,-218,-644,392,145
8525,-28,-159,-221,-624,399,155
8530,-23,-159,-225,-599,403,163
8535,-23,-161,-224,-567,399,165
8540,-24,-158,-221,-520,383,166
8545,-20,-159,-217,-463,357,169
8550,-20,-152,-217,-403,329,180
8555,-18,-148,-219,-355,304,194
8560,-19,-140,-216,-327,287,210
8565,-26,-130,-220,-323,279,223
8570,-33,-130,-218,-336,275,232
8575,-40,-124,-217,-362,276,240
8580,-41,-126,-217,-393,283,249
8585,-37,-124,-202,-421,299,256
8590,-36,-124,-204,-440,324,264
8595,-34,-120,-204,-451,354,271
8600,-35,-115,-218,-461,394,278
8605,-35,-113,-225,-475,437,281
8610,-37,-109,-234,-480,478,281
8615,-43,-108,-234,-452,508,273
8620,-41,-113,-230,-382,522,259
8625,-40,-108,-225,-275,520,242
8630,-39,-111,-224,-154,512,231
8635,-36,-110,-226,-53,505,229
8640,-37,-99,-228,4,493,240
8645,-37,-93,-229,13,479,257
8650,-32,-95,-224,-14,457,274
8655,-33,-100,-215,-43,428,285
8660,-26,-105,-201,-49,387,286
8665,-25,-109,-196,-20,335,283
8670,-16,-109,-190,35,278,280
8675,-13,-105,-186,100,222,280
8680,-10,-100,-190,164,162,277
8685,1,-96,-185,210,110,277
8690,1,-87,-182,235,68,276
8695,6,-86,-186,245,37,274
8700,10,-80,-181,247,19,276
8705,12,-81,-183,245,12,280
8710,13,-70,-187,246,13,291
8715,15,-61,-188,237,26,308
8720,15,-53,-188,211,49,320
8725,12,-51,-189,178,80,331
8730,13,-48,-192,143,119,339
8735,16,-47,-194,113,173,351
8740,15,-43,-200,83,253,371
8745,22,-51,-204,50,360,395
8750,27,-54,-206,17,475,413
8755,26,-57,-202,-2,583,420
8760,28,-61,-200,1,668,420
8765,33,-64,-206,25,727,411
8770,38,-57,-209,51,760,398
8775,42,-51,-212,60,778,378
8780,46,-51,-215,54,791,362
8785,47,-52,-211,39,806,351
8790,43,-61,-206,34,819,359
8795,41,-63,-202,40,828,378
8800,39,-62,-211,51,836,401
8805,41,-61,-210,49,845,425
8810,43,-69,-219,30,861,447
8815,39,-70,-226,8,888,466
8820,32,-71,-230,-3,924,487
8825,29,-77,-235,6,960,509
8830,27,-76,-240,31,995,533
8835,26,-75,-244,59,1026,567
8840,22,-72,-240,87,1048,603
8845,23,-69,-243,122,1053,632
8850,21,-74,-233,159,1050,653
8855,18,-73,-238,188,1040,665
8860,16,-66,-232,203,1028,669
8865,14,-65,-229,196,1012,670
8870,14,-62,-228,171,997,665
8875,11,-57,-227,133,986,659
8880,11,-60,-229,84,980,658
8885,3,-58,-224,31,978,655
8890,4,-57,-221,-14,978,656
8895,2,-57,-218,-50,986,656
8900,2,-54,-223,-70,1000,653
8905,4,-57,-231,-75,1030,651
8910,5,-54,-236,-73,1072,652
8915,9,-52,-231,-59,1117,653
8920,11,-47,-229,-37,1157,653
8925,17,-44,-230,-14,1184,654
8930,14,-34,-234,0,1210,657
8935,16,-29,-229,-3,1238,666
8940,15,-22,-231,-31,1264,684
8945,10,-20,-221,-73,1278,701
8950,13,-22,-218,-119,1276,717
8955,11,-20,-220,-161,1264,731
8960,8,-26,-225,-194,1251,741
8965,15,-27,-220,-217,1247,751
8970,15,-35,-214,-223,1249,761
8975,17,-41,-213,-216,1256,774
8980,20,-44,-210,-198,1267,790
8985,27,-51,-202,-171,1279,808
8990,35,-55,-200,-140,1299,827
8995,39,-59,-201,-111,1330,846
9000,52,-61,-203,-92,1376,865
9005,61,-64,-199,-85,1432,888
9010,63,-64,-198,-86,1497,915
9015,66,-72,-194,-91,1563,949
9020,78,-72,-194,-102,1624,985
9025,77,-75,-193,-124,1686,1025
9030,80,-74,-200,-158,1756,1064
9035,85,-68,-207,-201,1824,1098
9040,88,-69,-215,-243,1887,1124
9045,92,-68,-214,-268,1951,1138
9050,94,-68,-217,-269,2010,1144
9055,92,-62,-215,-255,2057,1140
9060,90,-58,-214,-241,2101,1135
9065,86,-49,-221,-231,2124,1124
9070,85,-46,-216,-246,2140,1116
9075,70,-35,-212,-275,2155,1105
9080,58,-33,-214,-304,2153,1084
9085,48,-21,-210,-326,2125,1072
9090,35,-17,-206,-344,2073,1062
9095,27,-13,-199,-367,2015,1043
9100,24,-10,-197,-395,1953,1015
9105,20,-13,-194,-424,1892,980
9110,10,-14,-188,-447,1837,928
9115,8,-20,-182,-469,1785,881
9120,0,-25,-184,-479,1727,831
9125,1,-30,-178,-472,1665,781
9130,-4,-28,-180,-455,1598,725
9135,-4,-29,-181,-423,1529,661
9140,1,-30,-188,-376,1469,603
9145,8,-32,-194,-318,1418,541
9150,14,-34,-196,-250,1362,478
9155,28,-42,-197,-173,1313,423
9160,37,-42,-200,-92,1273,371
9165,50,-48,-203,-12,1238,330
9170,63,-55,-199,56,1210,294
9175,72,-56,-194,102,1198,265
9180,75,-55,-195,132,1192,238
9185,82,-65,-193,150,1189,217
9190,93,-76,-198,160,1191,203
9195,105,-83,-199,168,1201,190
9200,115,-94,-202,186,1219,177
9205,123,-96,-201,212,1245,158
9210,129,-101,-197,238,1281,135
9215,139,-106,-191,256,1327,108
9220,148,-109,-187,267,1382,82
9225,154,-111,-188,270,1441,59
9230,165,-118,-184,253,1503,34
9235,168,-121,-182,224,1567,14
9240,174,-130,-184,199,1635,-1
9245,172,-130,-181,172,1707,-24
9250,167,-133,-180,158,1781,-46
9255,164,-139,-175,172,1858,-60
9260,154,-139,-161,223,1935,-65
9265,151,-135,-156,312,1996,-52
9270,147,-128,-161,408,2045,-33
9275,140,-126,-159,474,2094,-17
9280,142,-130,-156,500,2144,6
9285,142,-138,-149,521,2201,30
9290,149,-141,-142,559,2266,58
9295,158,-138,-138,622,2332,98
9300,168,-137,-134,701,2396,141
9305,181,-136,-125,791,2464,178
9310,194,-135,-123,883,2537,206
9315,209,-137,-120,975,2607,226
9320,231,-130,-114,1063,2674,223
9325,249,-123,-107,1144,2734,206
9330,265,-113,-95,1211,2789,178
9335,269,-109,-95,1253,2829,152
9340,263,-109,-98,1253,2859,143
9345,274,-108,-91,1202,2885,136
9350,288,-116,-86,1117,2918,114
9355,277,-101,-77,1019,2967,91
9360,281,-107,-74,917,3024,87
9365,283,-98,-73,815,3078,87
9370,283,-100,-78,717,3154,82
9375,285,-107,-105,623,3268,72
9380,304,-130,-105,537,3406,57
9385,315,-142,-111,486,3568,30
9390,329,-156,-105,514,3744,-4
9395,321,-187,-89,637,3893,-30
9400,325,-191,-91,826,3974,-42
9405,329,-207,-89,1033,3983,-72
9410,320,-220,-96,1215,3951,-124
9415,321,-221,-91,1361,3902,-182
9420,306,-227,-91,1477,3859,-242
9425,300,-224,-74,1560,3807,-290
9430,321,-238,-57,1617,3721,-335
9435,324,-241,-64,1625,3637,-387
9440,334,-240,-77,1582,3615,-419
9445,347,-245,-71,1519,3662,-419
9450,333,-234,-67,1459,3730,-389
9455,337,-225,-34,1419,3782,-339
9460,325,-240,-23,1412,3815,-305
9465,323,-236,-1,1432,3827,-294
9470,351,-233,30,1458,3805,-346
9475,359,-250,42,1487,3774,-427
9480,371,-271,73,1502,3772,-487
9485,380,-279,96,1487,3825,-513
9490,394,-292,119,1446,3904,-536
9495,399,-296,119,1389,3943,-569
9500,404,-292,112,1327,3895,-590
9505,425,-294,97,1272,3808,-574
9510,425,-292,66,1256,3734,-541
9515,385,-283,27,1294,3670,-493
9520,334,-288,7,1389,3583,-397
9525,294,-287,0,1547,3424,-276
9530,256,-276,0,1763,3244,-147
9535,240,-272,18,2020,3095,-19
9540,221,-263,31,2299,3003,75
9545,223,-247,60,2572,2963,129
9550,237,-226,75,2821,2957,155
9555,244,-190,96,3020,2952,133
9560,228,-147,110,3155,2935,90
9565,230,-116,137,3226,2913,57
9570,217,-94,128,3238,2846,31
9575,218,-73,127,3191,2726,11
9580,220,-60,137,3106,2567,8
9585,236,-43,158,3020,2405,31
9590,240,-27,187,2942,2259,58
9595,242,-13,211,2878,2117,93
9600,251,-3,224,2797,1952,113
9605,240,14,236,2673,1782,122
9610,249,25,239,2494,1631,156
9615,237,30,256,2276,1521,202
9620,216,30,284,2068,1423,292
9625,207,28,301,1883,1308,399
9630,189,23,321,1698,1184,492
9635,164,7,319,1503,1080,569
9640,157,-7,310,1306,1032,654
9645,130,-9,290,1124,1053,718
9650,130,-17,274,961,1106,802
9655,101,-16,251,838,1153,873
9660,89,-15,218,765,1159,950
9665,82,-12,194,736,1071,1010
9670,67,1,171,760,944,1021
9675,67,17,163,815,849,979
9680,57,31,149,872,821,914
9685,56,45,154,901,825,860
9690,66,43,161,891,808,810
9695,67,36,170,852,782,735
9700,72,28,181,800,774,673
9705,84,22,185,724,798,622
9710,88,17,190,626,865,570
9715,86,17,198,517,958,510
9720,80,20,204,425,1060,443
9725,71,20,208,362,1132,390
9730,60,30,213,317,1156,347
9735,51,35,212,270,1144,321
9740,44,45,209,221,1108,312
9745,38,53,210,177,1060,319
9750,40,58,213,137,1008,334
9755,44,57,212,119,948,356
9760,47,54,215,118,898,381
9765,46,46,219,127,847,408
9770,49,41,222,146,784,429
9775,48,37,220,165,721,437
9780,53,31,215,179,663,434
9785,52,28,223,192,609,419
9790,51,27,228,199,567,397
9795,55,16,235,206,539,372
9800,51,16,241,220,519,350
9805,55,15,243,238,501,327
9810,59,9,248,261,475,308
9815,59,15,246,282,438,294
9820,48,15,244,300,390,283
9825,50,19,246,313,322,270
9830,70,18,250,326,240,250
9835,67,14,255,346,175,234
9840,63,17,253,357,129,228
9845,58,18,249,343,95,226
9850,55,15,247,308,67,226
9855,51,14,244,265,44,226
9860,46,13,240,227,24,225
9865,40,11,240,190,1,227
9870,45,8,231,156,-19,226
9875,47,9,231,123,-31,220
9880,46,3,222,98,-35,214
9885,56,-5,224,78,-34,209
9890,62,-10,233,61,-27,197
9895,70,-19,233,46,-14,177
9900,81,-24,239,30,4,151
9905,87,-37,242,9,21,120
9910,96,-47,240,-16,35,94
9915,103,-54,235,-43,50,72
9920,104,-54,232,-67,66,58
9925,110,-62,234,-91,80,47
9930,109,-65,240,-108,83,33
9935,113,-71,240,-116,78,18
9940,115,-67,236,-122,65,3
9945,119,-72,232,-128,53,-11
9950,119,-70,230,-136,42,-23
9955,118,-69,226,-147,31,-34
9960,119,-70,226,-159,25,-43
9965,116,-70,224,-176,28,-54
9970,114,-70,223,-195,30,-63
9975,108,-67,218,-219,26,-73
9980,110,-69,213,-251,9,-80
9985,111,-68,210,-282,-16,-85
9990,104,-66,211,-308,-46,-85
9995,109,-76,216,-322,-90,-89
10000,110,-81,221,-319,-139,-101
10005,115,-89,223,-303,-189,-110
10010,119,-98,225,-278,-237,-114
10015,122,-104,216,-251,-285,-115
10020,122,-102,210,-224,-336,-111
10025,128,-103,206,-199,-381,-105
10030,125,-99,195,-173,-413,-101
10035,130,-98,190,-146,-439,-92
10040,132,-97,187,-120,-457,-82
10045,130,-90,185,-92,-468,-76
10050,138,-85,183,-57,-475,-75
10055,134,-84,177,-24,-477,-75
10060,134,-79,179,5,-473,-76
10065,137,-74,186,33,-459,-77
10070,137,-75,188,56,-439,-80
10075,140,-73,189,73,-413,-79
10080,139,-71,191,80,-393,-74
10085,145,-71,199,80,-373,-73
10090,140,-66,196,73,-351,-69
10095,148,-64,191,57,-336,-56
10100,139,-64,199,39,-322,-47
10105,152,-64,192,20,-309,-35
10110,142,-65,204,-2,-296,-18
10115,142,-71,210,-20,-282,-1
10120,140,-74,205,-36,-282,12
10125,142,-79,202,-55,-301,29
10130,141,-81,198,-68,-332,48
10135,141,-82,192,-72,-365,67
10140,145,-86,187,-65,-395,84
10145,147,-83,183,-55,-423,104
10150,151,-85,183,-47,-449,122
10155,146,-89,181,-34,-475,146
10160,144,-92,176,-21,-498,170
10165,145,-93,177,-6,-514,185
10170,144,-92,172,6,-518,192
10175,145,-94,174,14,-512,201
10180,143,-94,176,21,-498,203
10185,149,-92,176,30,-482,202
10190,149,-91,178,39,-463,207
10195,151,-89,182,38,-443,214
10200,152,-88,181,24,-421,217
10205,156,-82,183,-6,-395,212
10210,154,-85,185,-50,-376,218
10215,154,-83,181,-101,-359,232
10220,157,-82,184,-139,-347,248
10225,155,-86,186,-172,-338,260
10230,161,-89,185,-198,-332,268
10235,157,-88,188,-218,-327,274
10240,155,-88,184,-221,-323,280
10245,159,-93,184,-216,-325,277
10250,165,-91,179,-205,-332,273
10255,162,-96,178,-185,-334,266
10260,158,-93,172,-160,-337,264
10265,160,-91,175,-128,-338,259
10270,163,-103,173,-83,-336,256
10275,169,-102,171,-25,-335,252
10280,173,-106,167,39,-333,241
10285,170,-107,165,108,-324,230
10290,167,-106,166,176,-309,228
10295,170,-107,163,246,-292,219
10300,171,-104,164,315,-281,200
10305,165,-101,161,373,-266,183
10310,165,-94,165,409,-250,165
10315,165,-88,166,418,-230,152
10320,166,-83,161,413,-207,141
10325,170,-81,172,400,-178,132
10330,167,-73,171,375,-142,127
10335,165,-67,175,336,-101,128
10340,164,-60,176,281,-65,131
10345,166,-57,183,213,-29,130
10350,167,-56,187,147,6,128
10355,170,-58,186,87,38,141
10360,169,-50,183,22,61,157
10365,173,-53,187,-37,72,168
10370,174,-52,182,-78,70,180
10375,172,-59,178,-108,64,198
10380,177,-61,177,-105,46,206
10385,182,-69,173,-72,28,209
10390,185,-76,178,-16,14,208
10395,186,-81,172,70,4,209
10400,183,-82,167,160,0,201
10405,190,-85,165,236,8,187
10410,192,-87,167,290,29,171
10415,191,-79,166,323,63,156
10420,197,-83,161,328,105,141
10425,198,-70,166,298,159,125
10430,200,-63,162,245,210,121
10435,204,-57,158,175,248,123
10440,204,-52,157,86,280,125
10445,202,-49,153,-9,303,129
10450,197,-53,155,-100,314,138
10455,196,-58,145,-180,323,144
10460,190,-61,151,-256,330,148
10465,182,-68,152,-292,332,150
10470,180,-73,148,-294,334,151
10475,174,-76,157,-296,338,150
10480,170,-84,165,-282,349,148
10485,160,-91,163,-240,369,142
10490,157,-99,176,-187,397,134
10495,153,-102,182,-133,428,127
10500,138,-108,193,-84,460,116
10505,133,-115,206,-36,484,103
10510,126,-121,211,10,498,92
10515,121,-127,219,53,501,74
10520,117,-129,223,90,497,52
10525,112,-132,234,126,488,31
10530,111,-129,237,155,476,16
10535,106,-130,234,176,457,5
10540,101,-130,235,189,430,-3
10545,102,-127,233,194,395,-9
10550,102,-125,232,196,357,-16
10555,103,-123,230,198,319,-23
10560,102,-113,220,197,279,-25
10565,104,-112,219,194,242,-30
10570,104,-109,213,186,208,-35
10575,103,-108,211,172,177,-41
10580,105,-99,208,161,150,-45
10585,105,-100,198,152,125,-48
10590,104,-97,201,130,106,-49
10595,110,-96,203,108,88,-47
10600,108,-92,192,91,74,-45
10605,107,-82,190,58,64,-41
10610,108,-81,192,34,56,-33
10615,109,-79,185,27,49,-29
10620,110,-78,187,4,48,-25
10625,110,-76,186,-24,45,-16
10630,112,-74,183,-41,44,-7
10635,113,-74,189,-65,43,2
10640,112,-76,183,-75,41,10
10645,113,-77,190,-63,39,19
10650,118,-81,188,-43,37,23
10655,120,-78,184,-23,36,26
10660,116,-73,183,-6,35,28
10665,117,-75,185,4,38,30
10670,121,-79,191,21,41,30
10675,119,-81,187,43,45,28
10680,123,-79,182,61,50,26
10685,122,-83,186,76,56,21
10690,125,-84,188,88,61,18
10695,128,-86,187,97,68,11
10700,127,-86,187,104,73,3
10705,127,-90,194,113,79,-4
10710,129,-90,192,125,84,-10
10715,130,-88,194,137,87,-19
10720,131,-90,192,147,89,-26
10725,130,-91,196,155,91,-32
10730,132,-91,196,162,93,-41
10735,133,-91,191,163,93,-47
10740,136,-90,200,143,91,-46
10745,132,-92,210,149,84,-47
10750,139,-94,211,183,74,-50
10755,139,-91,211,217,62,-54
10760,139,-96,203,237,51,-58
10765,136,-88,208,245,41,-61
10770,140,-90,211,242,29,-67
10775,141,-85,208,237,16,-68
10780,142,-88,213,232,4,-73
10785,145,-83,205,224,-7,-75
10790,142,-84,210,207,-17,-78
10795,144,-81,207,186,-26,-81
10800,146,-82,199,153,-37,-84
10805,142,-78,200,108,-47,-83
10810,142,-81,199,87,-57,-83
10815,135,-78,198,78,-68,-83
10820,137,-84,194,70,-77,-81
10825,140,-81,193,61,-87,-79
10830,136,-79,198,53,-95,-75
10835,131,-81,195,50,-102,-70
10840,131,-80,193,51,-105,-67
10845,132,-82,193,56,-105,-63
10850,133,-80,192,60,-104,-61
10855,133,-82,196,64,-100,-57
10860,131,-81,189,67,-95,-54
10865,135,-89,196,66,-87,-50
10870,132,-76,195,63,-79,-48
10875,134,-77,193,60,-69,-42
10880,132,-77,191,54,-58,-40
10885,135,-76,194,47,-49,-36
10890,132,-77,193,40,-39,-32
10895,135,-77,192,34,-30,-28
10900,134,-79,193,29,-23,-24
10905,134,-77,193,28,-18,-20
10910,136,-79,190,28,-15,-18
10915,139,-82,193,30,-13,-15
10920,137,-80,184,35,-8,-12
10925,137,-82,194,41,-6,-12
10930,139,-84,193,47,0,-10
10935,138,-84,192,53,5,-10
10940,141,-84,192,60,11,-11
10945,140,-81,190,65,17,-13
10950,143,-81,194,66,23,-15
10955,142,-79,190,62,28,-14
10960,142,-82,188,64,32,-15
10965,144,-82,193,64,32,-14
10970,143,-82,194,65,33,-13
10975,138,-83,187,65,34,-13
10980,141,-84,193,69,34,-12
10985,142,-85,194,73,35,-10
10990,142,-85,190,78,33,-11
10995,141,-83,193,82,33,-11
11000,141,-82,193,85,33,-12
11005,140,-84,191,87,32,-15
11010,142,-84,191,86,33,-16
11015,138,-81,192,79,32,-17
11020,139,-80,192,70,33,-17
11025,137,-80,192,59,32,-16
11030,135,-82,197,46,31,-17
11035,136,-80,196,34,31,-16
11040,134,-82,195,20,29,-16
11045,135,-82,194,8,27,-16
11050,133,-81,194,1,25,-15
11055,134,-86,195,-6,23,-16
11060,132,-83,196,-10,19,-14
11065,134,-83,197,-9,16,-14
11070,133,-84,200,-10,16,-13
11075,133,-85,198,-9,16,-14
11080,132,-84,199,-9,15,-15
11085,138,-78,193,-10,17,-16
11090,131,-79,196,-10,16,-17
11095,131,-81,199,-11,17,-16
11100,132,-81,199,-12,18,-16
11105,132,-82,196,-15,20,-16
11110,130,-82,197,-16,19,-15
11115,130,-82,201,-14,20,-13
11120,133,-84,201,-12,19,-13
11125,133,-86,194,-10,20,-14
11130,130,-80,192,-4,19,-13
11135,136,-81,200,2,15,-13
11140,132,-79,189,7,13,-11
11145,133,-82,190,7,13,-12
11150,131,-83,195,-5,13,-11
11155,131,-85,198,-3,12,-12
11160,133,-84,192,18,10,-14
11165,131,-84,196,32,8,-14
11170,132,-80,201,40,6,-15
11175,134,-83,195,41,6,-15
11180,135,-82,195,39,7,-12
11185,133,-80,194,37,8,-11
11190,132,-84,191,35,10,-9
11195,136,-82,206,33,12,-8
11200,133,-81,195,31,15,-9
11205,136,-82,194,29,17,-7
11210,133,-78,193,28,17,-8
11215,135,-83,194,26,17,-9
11220,134,-80,192,23,17,-12
11225,133,-80,195,20,16,-13
11230,131,-81,194,20,17,-13
11235,137,-82,197,20,15,-13
11240,132,-84,195,22,14,-14
11245,138,-82,192,24,15,-16
11250,131,-83,197,15,15,-15
11255,133,-82,199,4,18,-15
11260,135,-83,195,11,21,-15
11265,134,-86,194,27,22,-16
11270,134,-85,194,38,25,-15
11275,133,-85,194,43,26,-15
11280,134,-83,192,50,29,-15
11285,135,-84,191,53,30,-14
11290,135,-81,195,57,33,-14
11295,132,-85,195,61,36,-13
11300,136,-86,195,64,38,-13
11305,130,-82,193,66,40,-13
11310,135,-79,191,68,43,-14
11315,135,-81,193,70,45,-12
11320,135,-79,192,71,47,-12
11325,135,-81,188,70,47,-12
11330,135,-83,191,69,48,-11
11335,132,-85,192,70,47,-14
11340,134,-78,196,70,45,-14
11345,136,-82,193,70,44,-12
11350,136,-87,195,69,43,-11
11355,135,-91,198,68,42,-12
11360,137,-85,196,69,41,-13
11365,135,-82,195,69,41,-11
11370,136,-82,196,70,43,-11
11375,135,-84,195,73,45,-9
11380,136,-84,194,77,44,-11
11385,136,-82,193,81,44,-10
11390,136,-79,196,86,43,-8
11395,135,-83,196,91,41,-9
11400,135,-81,195,97,38,-8
11405,132,-80,199,102,33,-7
11410,133,-84,195,106,32,-10
11415,133,-83,194,108,30,-9
11420,134,-82,195,109,27,-12
11425,135,-83,197,108,27,-13
11430,135,-83,195,105,26,-14
11435,134,-82,195,105,27,-14
11440,136,-81,197,106,28,-12
11445,135,-83,192,110,31,-10
11450,138,-85,192,117,32,-8
11455,135,-84,194,123,34,-8
11460,135,-82,194,132,37,-5
11465,132,-84,192,141,40,-2
11470,135,-82,193,152,42,0
11475,131,-77,194,160,45,1
11480,134,-81,194,167,48,2
11485,133,-82,198,174,50,4
11490,133,-80,198,174,51,5
11495,132,-78,197,170,50,6
11500,133,-77,199,165,51,6
11505,132,-76,194,156,48,7
11510,133,-80,200,146,44,7
11515,130,-79,197,135,44,7
11520,127,-83,199,125,40,7
11525,132,-78,196,116,41,9
11530,133,-81,197,108,40,9
11535,133,-77,199,102,40,7
11540,132,-77,199,97,38,5
11545,131,-78,198,92,38,6
11550,132,-81,197,89,38,4
11555,133,-79,198,86,37,3
11560,133,-83,199,84,35,3
11565,134,-79,195,84,36,1
11570,135,-83,201,86,33,3
11575,130,-86,195,86,33,2
11580,131,-82,199,89,32,1
11585,131,-84,197,92,32,1
11590,133,-82,194,95,34,0
11595,132,-81,198,100,34,-3
11600,131,-82,194,104,39,0
11605,131,-81,199,104,42,2
11610,129,-81,198,103,40,-2
11615,130,-79,199,98,38,-4
11620,137,-83,195,96,36,-4
11625,132,-85,200,97,37,-2
11630,129,-83,192,99,39,-2
11635,129,-83,201,100,40,-4
11640,131,-82,197,105,41,-4
11645,129,-81,198,105,42,-4
11650,129,-83,195,106,40,-3
11655,131,-84,197,106,40,-2
11660,129,-83,196,106,40,-2
11665,128,-82,196,105,39,-2
11670,129,-84,197,103,38,0
11675,130,-83,197,103,38,-3
11680,129,-77,198,101,39,-3
11685,128,-84,193,100,39,-3
11690,132,-79,196,101,39,0
11695,130,-80,199,102,35,-2
11700,129,-78,199,105,34,-3
11705,130,-78,197,106,32,-5
11710,129,-81,192,101,31,-8
11715,129,-78,192,75,31,-7
11720,132,-77,198,41,32,-7
11725,131,-80,206,36,29,-6
11730,131,-79,205,60,25,-7
11735,131,-78,201,76,20,-10
11740,133,-79,201,83,14,-11
11745,131,-77,198,84,12,-12
11750,131,-78,203,82,11,-13
11755,133,-78,199,78,11,-14
11760,130,-79,198,74,11,-14
11765,129,-76,199,71,11,-12
11770,130,-77,196,68,13,-12
11775,131,-78,200,69,14,-14
11780,131,-79,199,69,15,-16
11785,134,-78,197,70,16,-14
11790,132,-78,198,72,18,-15
11795,135,-78,202,74,19,-15
11800,133,-77,202,75,22,-15
11805,131,-77,199,76,23,-15
11810,132,-73,200,74,25,-17
11815,131,-74,199,74,24,-16
11820,133,-77,201,72,26,-15
11825,134,-73,196,66,26,-17
11830,132,-76,198,62,25,-16
11835,134,-78,197,57,25,-16
11840,132,-76,198,51,26,-16
11845,130,-76,200,48,24,-14
11850,131,-81,204,45,24,-11
11855,134,-77,197,45,24,-13
11860,133,-79,195,46,22,-11
11865,133,-77,201,49,22,-10
11870,131,-74,199,50,22,-10
11875,135,-79,196,53,22,-9
11880,131,-79,197,55,20,-9
11885,130,-81,195,58,20,-9
11890,130,-81,194,59,21,-9
11895,129,-75,202,61,22,-9
11900,127,-76,198,59,20,-10
11905,133,-79,196,59,20,-10
11910,131,-75,200,58,20,-9
11915,132,-71,196,57,20,-11
11920,132,-75,198,57,21,-9
11925,131,-79,199,55,22,-9
11930,134,-79,198,55,22,-8
11935,133,-78,197,54,23,-8
11940,133,-78,197,55,23,-8
11945,130,-79,196,55,25,-8
11950,131,-77,199,57,26,-8
11955,128,-78,201,59,28,-8
11960,130,-79,198,58,29,-7
11965,131,-77,199,58,28,-9
11970,131,-79,199,55,28,-7
11975,129,-78,198,52,28,-8
11980,130,-77,201,49,28,-8
11985,132,-78,198,46,26,-7
11990,132,-78,202,45,25,-8
11995,129,-78,198,42,24,-7
12000,131,-78,196,40,25,-9
12005,132,-77,198,37,22,-7
12010,132,-76,203,35,22,-7
12015,130,-79,199,32,22,-7
12020,131,-78,198,29,20,-7
12025,132,-80,199,28,19,-8
12030,130,-78,199,26,20,-6
12035,129,-77,203,23,17,-5
12040,130,-76,201,22,14,-7
12045,132,-77,201,23,11,-9
12050,132,-79,201,23,6,-8
12055,130,-78,199,25,1,-9
12060,132,-78,203,26,-4,-9
12065,134,-80,203,29,-7,-10
12070,130,-83,201,32,-10,-12
12075,133,-82,197,39,-10,-11
12080,130,-81,199,42,-10,-11
12085,130,-79,197,47,-9,-15
12090,128,-82,199,53,-6,-14
12095,129,-81,195,59,-3,-11
12100,128,-77,198,65,2,-11
12105,131,-80,198,75,5,-10
12110,131,-81,195,81,10,-10
12115,130,-78,196,87,12,-11
12120,126,-78,197,92,14,-9
12125,129,-79,200,96,18,-8
12130,130,-79,196,99,19,-8
12135,130,-80,198,100,21,-9
12140,131,-75,197,99,22,-9
12145,129,-77,199,92,24,-9
12150,133,-74,200,86,26,-8
12155,131,-74,198,77,26,-7
12160,131,-76,198,67,28,-6
12165,134,-76,200,57,29,-7
12170,134,-77,203,48,27,-7
12175,132,-76,200,39,28,-7
12180,132,-75,196,30,26,-7
12185,128,-76,199,25,26,-6
12190,129,-78,197,22,26,-4
12195,128,-77,198,21,26,-5
12200,130,-77,201,20,24,-5
12205,132,-80,203,20,24,-6
12210,131,-79,199,22,22,-6
12215,130,-78,199,23,19,-6
12220,129,-77,200,25,18,-6
12225,130,-81,204,27,17,-6
12230,133,-76,199,29,16,-7
12235,135,-82,200,32,15,-8
12240,131,-80,196,33,14,-8
12245,130,-78,200,33,11,-8
12250,128,-75,200,34,10,-9
12255,130,-77,195,35,11,-11
12260,131,-79,202,37,11,-11
12265,129,-82,201,37,12,-11
12270,131,-79,198,36,13,-11
12275,131,-81,200,35,13,-13
12280,132,-83,203,33,15,-12
12285,130,-81,199,31,16,-12
12290,129,-77,199,28,17,-10
12295,129,-81,199,29,20,-11
12300,133,-81,196,26,21,-11
12305,127,-78,200,24,22,-12
12310,132,-79,202,23,24,-12
12315,130,-81,195,21,27,-10
12320,131,-83,202,19,28,-11
12325,128,-80,198,18,27,-10
12330,132,-79,195,17,26,-11
12335,128,-79,197,17,25,-11
12340,131,-85,204,18,23,-10
12345,128,-79,200,18,24,-11
12350,130,-78,200,19,23,-11
12355,129,-79,198,21,22,-13
12360,129,-79,200,22,23,-13
12365,132,-82,200,21,24,-12
12370,131,-77,203,19,23,-12
12375,131,-78,196,18,22,-13
12380,129,-81,197,16,20,-12
12385,132,-82,198,15,18,-11
12390,129,-83,201,15,15,-12
12395,131,-82,196,17,13,-12
12400,130,-83,201,21,11,-12
12405,129,-83,197,26,8,-13
12410,133,-82,201,31,6,-14
12415,129,-81,200,37,6,-14
12420,128,-80,201,41,6,-14
12425,131,-81,197,44,7,-14
12430,128,-80,202,44,6,-14
12435,130,-79,197,43,7,-14
12440,130,-80,199,40,7,-14
12445,132,-83,210,36,7,-15
12450,132,-81,196,33,10,-14
12455,131,-77,197,30,11,-12
12460,128,-77,198,29,14,-13
12465,133,-81,197,27,14,-14
12470,130,-83,199,27,13,-14
12475,129,-77,197,30,13,-15
12480,129,-77,200,29,13,-16
12485,131,-81,198,32,12,-15
12490,132,-84,200,33,13,-14
12495,131,-80,198,32,12,-15
12500,128,-77,192,32,12,-15
12505,131,-81,203,30,10,-15
12510,129,-81,197,27,10,-14
12515,131,-77,200,25,8,-16
12520,129,-78,203,21,8,-16
12525,130,-80,201,17,9,-14
12530,131,-84,200,16,8,-14
12535,130,-78,197,18,8,-12
12540,129,-83,198,17,10,-14
12545,131,-80,196,19,9,-13
12550,129,-80,200,22,9,-11
12555,131,-78,197,26,8,-13
12560,129,-80,199,30,9,-12
12565,131,-83,198,33,9,-13
12570,129,-79,200,37,9,-12
12575,130,-82,197,40,10,-11
12580,130,-79,196,42,10,-10
12585,130,-80,200,45,10,-11
12590,128,-81,199,47,11,-12
12595,130,-83,198,49,13,-9
12600,128,-80,199,51,15,-10
12605,130,-82,194,53,15,-9
12610,129,-82,196,52,14,-10
12615,128,-81,197,52,15,-12
12620,131,-82,196,51,15,-13
12625,132,-82,199,47,15,-13
12630,129,-83,199,44,15,-12
12635,128,-81,197,39,17,-13
12640,130,-79,197,35,17,-12
12645,131,-81,199,30,17,-13
12650,128,-81,197,28,15,-9
12655,129,-83,198,28,17,-9
12660,130,-81,195,29,16,-10
12665,127,-77,195,31,15,-10
12670,132,-83,199,32,15,-10
12675,131,-82,195,35,15,-8
12680,132,-81,196,38,14,-10
12685,130,-79,198,37,14,-10
12690,130,-82,199,37,13,-9
12695,131,-80,197,38,13,-9
12700,130,-79,197,40,11,-8
12705,130,-80,200,40,10,-9
12710,130,-80,197,42,7,-8
12715,129,-78,202,43,3,-8
12720,129,-79,197,47,-1,-8
12725,128,-82,200,50,-7,-10
12730,132,-83,197,52,-9,-11
12735,130,-83,198,55,-11,-11
12740,129,-82,197,57,-12,-12
12745,129,-83,196,60,-12,-11
12750,130,-83,195,64,-11,-12
12755,129,-83,197,68,-10,-13
12760,134,-86,193,76,-6,-11
12765,131,-85,195,83,-4,-11
12770,129,-85,198,89,1,-10
12775,125,-84,198,96,5,-10
12780,131,-80,195,102,9,-9
12785,129,-80,194,109,11,-9
12790,131,-81,199,113,13,-12
12795,130,-80,196,114,16,-10
12800,129,-80,200,113,17,-11
12805,131,-78,197,110,18,-11
12810,127,-79,198,102,20,-13
12815,132,-78,204,94,20,-11
12820,131,-73,200,83,21,-12
12825,131,-77,201,70,18,-12
12830,137,-82,196,59,16,-12
12835,130,-76,200,48,14,-11
12840,131,-78,198,40,13,-9
12845,132,-79,198,34,10,-9
12850,130,-79,198,32,9,-8
12855,131,-81,198,33,6,-8
12860,129,-79,201,36,4,-8
12865,131,-81,197,40,5,-8
12870,130,-79,200,45,8,-7
12875,130,-84,199,50,9,-7
12880,129,-78,195,57,9,-8
12885,127,-78,198,61,10,-6
12890,133,-80,197,62,12,-5
12895,129,-79,199,63,12,-7
12900,128,-77,198,64,13,-7
12905,129,-78,198,63,14,-9
12910,131,-83,197,63,13,-10
12915,129,-77,199,61,13,-11
12920,126,-80,200,60,14,-12
12925,130,-81,198,59,13,-9
12930,131,-81,198,59,13,-9
12935,138,-84,206,56,12,-7
12940,129,-81,199,56,13,-8
12945,130,-80,199,54,14,-9
12950,130,-80,197,53,17,-9
12955,128,-79,202,53,18,-9
12960,129,-79,197,55,19,-9
12965,128,-82,198,55,20,-8
12970,129,-79,197,58,22,-9
12975,133,-86,201,59,23,-10
12980,130,-81,199,60,25,-9
12985,131,-81,193,61,26,-9
12990,126,-81,194,62,26,-8
12995,130,-79,196,62,27,-9
13000,129,-80,198,61,27,-8
13005,129,-80,200,61,26,-10
13010,129,-81,197,60,27,-10
13015,128,-79,199,60,26,-12
13020,131,-79,194,60,25,-10
13025,130,-81,200,60,23,-11
13030,127,-79,198,58,23,-9
13035,129,-79,196,56,23,-9
13040,129,-80,203,53,24,-8
13045,128,-82,198,51,24,-8
13050,128,-79,202,49,24,-8
13055,130,-81,197,46,23,-9
13060,131,-82,197,45,21,-10
13065,131,-82,199,44,20,-9
13070,131,-82,196,46,17,-9
13075,132,-85,202,47,16,-10
13080,132,-82,199,46,15,-11
13085,130,-82,198,50,14,-11
13090,130,-80,200,51,13,-10
13095,130,-79,199,54,13,-11
13100,129,-84,196,54,13,-9
13105,129,-83,201,52,15,-10
13110,129,-81,198,50,14,-10
13115,130,-78,198,47,15,-9
13120,131,-81,197,42,15,-10
13125,130,-80,201,37,14,-10
13130,130,-80,197,32,13,-10
13135,130,-81,199,28,9,-11
13140,130,-79,196,26,7,-12
13145,130,-82,199,25,5,-11
13150,132,-82,201,26,4,-11
13155,134,-84,212,28,3,-10
13160,130,-81,196,29,1,-12
13165,128,-82,197,31,-1,-12
13170,130,-78,197,32,1,-11
13175,130,-80,196,34,0,-12
13180,128,-78,197,35,-1,-13
13185,132,-81,199,34,-2,-13
13190,131,-80,196,36,-1,-11
13195,131,-76,199,35,-1,-13
13200,128,-79,196,35,-1,-14
13205,129,-80,196,36,1,-13
13210,130,-79,194,37,4,-15
13215,132,-82,199,35,4,-13
13220,129,-78,200,34,5,-13
13225,130,-77,202,33,6,-10
13230,128,-76,196,33,8,-9
13235,128,-81,199,34,8,-12
13240,130,-82,198,35,9,-11
13245,129,-79,196,36,10,-10
13250,129,-83,197,37,9,-10
13255,132,-83,201,38,8,-11
13260,129,-82,194,39,9,-10
13265,125,-81,199,40,9,-11
13270,131,-83,196,44,9,-9
13275,129,-83,201,47,9,-9
13280,130,-83,198,51,10,-11
13285,130,-81,197,54,11,-12
13290,131,-80,196,58,11,-9
13295,129,-79,195,61,12,-9
13300,127,-83,197,62,13,-10
13305,128,-79,198,62,13,-9
13310,131,-82,193,63,14,-9
13315,128,-81,202,62,14,-8
13320,128,-87,199,60,13,-10
13325,129,-81,199,60,13,-10
13330,129,-81,202,57,13,-12
13335,130,-81,198,53,14,-12
13340,129,-81,200,51,14,-12
13345,132,-80,200,47,15,-10
13350,130,-81,198,44,15,-10
13355,129,-80,200,42,15,-10
13360,132,-83,199,40,14,-10
13365,127,-82,199,40,14,-10
13370,128,-79,200,41,12,-10
13375,134,-88,203,42,11,-11
13380,130,-81,202,43,10,-11
13385,132,-83,199,45,9,-13
13390,131,-78,198,46,9,-13
13395,129,-82,197,44,10,-15
13400,129,-77,201,42,9,-14
13405,127,-79,202,39,8,-12
13410,130,-81,200,39,5,-13
13415,132,-81,198,38,5,-13
13420,132,-81,203,39,1,-13
13425,132,-74,197,41,-3,-13
13430,130,-82,202,44,-7,-13
13435,129,-82,198,48,-12,-14
13440,129,-81,200,49,-16,-17
13445,129,-81,202,50,-20,-17
13450,131,-83,199,51,-20,-17
13455,131,-81,197,54,-21,-16
13460,129,-83,196,57,-18,-16
13465,129,-84,199,64,-17,-17
13470,136,-86,199,71,-13,-14
13475,130,-83,196,80,-7,-15
13480,133,-87,190,91,-4,-13
13485,130,-83,195,101,1,-13
13490,129,-82,198,109,3,-14
13495,130,-82,195,116,4,-14
13500,130,-85,199,120,6,-13
13505,128,-79,196,120,7,-13
13510,129,-79,200,117,5,-14
13515,130,-78,199,110,4,-14
13520,130,-81,199,101,5,-17
13525,131,-78,198,90,4,-15
13530,133,-76,198,80,4,-16
13535,135,-80,195,67,3,-14
13540,132,-77,199,56,4,-13
13545,129,-80,199,42,3,-13
13550,133,-80,201,35,1,-15
13555,129,-79,197,31,2,-12
13560,130,-79,203,30,0,-12
13565,131,-78,198,32,1,-12
13570,131,-84,201,36,1,-10
13575,131,-81,199,40,3,-10
13580,132,-80,197,46,6,-10
13585,132,-81,194,52,6,-9
13590,130,-84,200,56,8,-9
13595,132,-81,197,60,8,-10
13600,134,-83,199,63,9,-11
13605,129,-80,196,64,8,-10
13610,128,-79,197,63,8,-9
13615,130,-82,200,64,5,-10
13620,133,-83,196,63,5,-12
13625,132,-81,198,63,6,-11
13630,129,-81,198,63,5,-12
13635,130,-81,199,63,5,-12
13640,132,-82,200,63,5,-13
13645,132,-81,199,62,5,-12
13650,129,-81,196,62,5,-12
13655,130,-79,199,63,6,-11
13660,132,-79,198,63,7,-12
13665,129,-81,198,65,8,-12
13670,132,-80,201,67,9,-11
13675,128,-78,198,69,11,-11
13680,132,-80,198,70,13,-10
13685,126,-80,195,71,15,-9
13690,130,-81,201,72,17,-10
13695,131,-81,195,72,19,-10
13700,128,-80,197,71,21,-10
13705,132,-80,197,68,23,-10
13710,132,-80,197,63,22,-8
13715,131,-82,196,62,23,-7
13720,130,-80,202,61,21,-8
13725,132,-80,197,61,22,-8
13730,131,-81,198,61,20,-9
13735,133,-81,198,60,20,-10
13740,131,-78,198,60,19,-10
13745,130,-79,192,60,16,-10
13750,130,-81,198,58,16,-8
13755,128,-81,199,58,15,-9
13760,129,-82,200,57,14,-11
13765,131,-81,200,57,11,-10
13770,131,-81,199,58,10,-10
13775,130,-80,202,60,8,-12
13780,132,-82,198,63,6,-12
13785,132,-82,201,64,6,-13
13790,130,-82,196,67,4,-12
13795,131,-80,199,70,4,-13
13800,130,-79,199,73,3,-11
13805,131,-82,200,75,4,-12
13810,128,-79,193,77,5,-12
13815,132,-83,201,78,6,-12
13820,130,-79,204,77,7,-12
13825,131,-80,199,77,7,-12
13830,132,-82,199,73,8,-13
13835,129,-79,201,70,8,-12
13840,129,-79,198,68,6,-13
13845,134,-78,199,65,3,-12
13850,131,-81,200,65,2,-12
13855,128,-78,198,65,1,-11
13860,131,-75,201,63,0,-12
13865,130,-79,197,64,0,-13
13870,129,-75,198,64,1,-13
13875,130,-77,199,65,1,-11
13880,130,-78,200,64,2,-12
13885,129,-75,199,60,3,-12
13890,132,-79,198,61,3,-11
13895,130,-78,197,60,3,-11
13900,131,-81,197,58,4,-12
13905,132,-79,202,58,4,-11
13910,131,-80,196,57,3,-11
13915,129,-78,196,56,3,-11
13920,130,-78,201,55,2,-13
13925,130,-76,195,55,2,-12
13930,131,-75,198,54,0,-12
13935,127,-75,199,55,1,-12
13940,128,-79,196,55,0,-12
13945,131,-79,195,55,0,-12
13950,129,-79,196,55,-1,-13
13955,131,-80,197,56,0,-12
13960,131,-79,201,58,2,-13
13965,132,-79,200,58,4,-10
13970,133,-76,195,57,5,-12
13975,138,-77,203,57,5,-10
13980,130,-77,201,56,6,-12
13985,132,-79,200,53,7,-11
13990,131,-79,196,50,8,-9
13995,133,-81,197,49,9,-10
14000,131,-80,199,49,9,-9
14005,130,-80,198,49,8,-9
14010,129,-83,195,53,8,-10
14015,131,-79,195,56,7,-9
14020,130,-80,202,60,8,-11
14025,131,-81,199,65,9,-11
14030,132,-78,196,69,9,-12
14035,131,-81,195,70,10,-12
14040,131,-80,200,73,10,-12
14045,131,-78,199,74,10,-11
14050,131,-80,199,76,11,-10
14055,129,-78,199,77,10,-11
14060,128,-79,195,79,9,-10
14065,131,-78,196,82,9,-9
14070,129,-81,197,85,10,-10
14075,134,-81,195,88,9,-10
14080,135,-82,196,91,11,-10
14085,132,-80,205,91,11,-11
14090,132,-80,196,92,13,-13
14095,135,-79,199,88,15,-13
14100,129,-78,197,85,14,-13
14105,129,-78,198,81,15,-13
14110,133,-81,200,77,16,-11
14115,130,-81,199,73,15,-11
14120,131,-83,202,72,15,-13
14125,130,-83,199,72,14,-13
14130,131,-78,197,71,16,-13
14135,131,-70,195,71,14,-13
14140,131,-78,201,72,13,-13
14145,132,-78,195,73,15,-14
14150,131,-78,199,70,13,-13
14155,130,-78,197,69,12,-11
14160,130,-74,199,66,13,-11
14165,130,-74,196,65,10,-11
14170,133,-81,198,63,6,-9
14175,129,-76,200,63,3,-9
14180,129,-78,200,63,0,-9
14185,133,-79,202,63,-6,-10
14190,130,-76,200,63,-11,-12
14195,130,-77,194,63,-15,-12
14200,129,-78,198,63,-17,-12
14205,129,-77,199,64,-19,-14
14210,129,-81,194,68,-20,-15
14215,130,-76,199,73,-18,-14
14220,130,-80,198,80,-14,-14
14225,133,-80,197,87,-11,-12
14230,131,-80,200,97,-6,-13
14235,133,-81,193,107,-3,-12
14240,138,-84,201,117,3,-11
14245,129,-76,199,125,6,-12
14250,131,-80,196,132,9,-15
14255,129,-76,196,136,11,-13
14260,131,-75,199,138,13,-12
14265,134,-77,197,136,13,-14
14270,131,-76,199,132,14,-13
14275,130,-75,200,123,14,-15
14280,130,-73,201,112,12,-16
14285,130,-73,200,98,13,-13
14290,130,-71,204,85,12,-15
14295,130,-75,197,70,11,-14
14300,130,-66,208,55,10,-12
14305,131,-75,197,43,9,-10
14310,132,-75,203,36,7,-11
14315,131,-77,203,31,6,-9
14320,131,-77,201,29,7,-8
14325,133,-76,197,31,6,-10
14330,135,-81,196,33,8,-7
14335,133,-81,198,40,9,-8
14340,132,-79,198,44,10,-8
14345,131,-83,201,49,12,-9
14350,133,-79,198,52,12,-8
14355,128,-78,196,55,14,-9
14360,131,-77,197,54,14,-8
14365,130,-76,197,55,13,-9
14370,130,-76,200,55,13,-9
14375,132,-79,197,54,13,-12
14380,133,-78,198,53,13,-11
14385,130,-77,194,51,13,-12
14390,129,-76,197,51,14,-11
14395,134,-79,203,49,13,-11
14400,133,-79,195,50,14,-11
14405,129,-75,202,52,15,-12
14410,127,-76,198,53,15,-11
14415,130,-77,197,55,16,-11
14420,132,-77,198,57,17,-10
14425,128,-74,196,58,17,-10
14430,133,-79,197,59,19,-9
14435,130,-76,195,61,21,-10
14440,131,-77,202,62,21,-9
14445,129,-78,199,64,25,-10
14450,129,-73,199,63,27,-9
14455,129,-75,197,64,28,-10
14460,129,-80,199,63,28,-9
14465,133,-77,198,63,29,-10
14470,132,-76,197,61,29,-10
14475,131,-77,200,62,27,-9
14480,132,-78,198,63,27,-7
14485,131,-79,199,62,26,-8
14490,130,-76,199,63,24,-10
14495,132,-82,197,64,25,-10
14500,134,-76,197,63,25,-8
14505,130,-74,199,63,25,-8
14510,131,-74,201,62,26,-6
14515,130,-76,205,62,26,-7
14520,130,-78,200,62,25,-8
14525,130,-77,200,60,22,-9
14530,130,-80,202,58,19,-10
14535,131,-80,203,59,16,-11
14540,133,-77,200,59,13,-11
14545,129,-78,197,58,11,-13
14550,129,-76,199,57,9,-14
14555,130,-78,195,57,6,-14
14560,131,-76,200,57,5,-13
14565,132,-77,202,57,4,-13
14570,130,-79,196,58,5,-13
14575,132,-77,198,59,4,-13
14580,129,-79,196,60,4,-12
14585,130,-73,201,60,7,-12
14590,129,-77,199,61,8,-13
14595,132,-78,205,61,8,-14
14600,131,-75,200,60,10,-12
14605,130,-80,200,59,11,-11
14610,135,-78,199,58,10,-12
14615,130,-75,200,56,11,-12
14620,130,-76,199,54,10,-12
14625,129,-69,194,52,9,-13
14630,130,-78,199,52,8,-12
14635,129,-73,202,51,7,-12
14640,132,-74,200,50,7,-12
14645,130,-74,200,49,7,-14
14650,131,-75,198,49,7,-14
14655,129,-75,199,47,7,-13
14660,132,-77,195,48,8,-14
14665,132,-75,199,47,6,-16
14670,131,-77,201,48,6,-15
14675,134,-75,196,48,8,-16
14680,130,-73,196,51,9,-13
14685,132,-79,198,54,9,-15
14690,129,-77,195,55,11,-15
14695,134,-77,199,58,12,-15
14700,130,-75,198,60,12,-16
14705,131,-77,197,62,13,-15
14710,129,-78,197,66,12,-17
14715,131,-77,193,70,14,-19
14720,131,-77,198,72,14,-19
14725,129,-78,198,75,15,-20
14730,133,-78,196,79,14,-22
14735,130,-79,197,82,13,-22
14740,133,-78,199,84,15,-24
14745,130,-79,198,86,13,-25
14750,133,-81,198,88,13,-24
14755,129,-79,196,91,11,-23
14760,131,-78,204,93,11,-24
14765,133,-79,199,95,10,-24
14770,128,-75,204,97,7,-22
14775,128,-77,195,101,7,-22
14780,128,-76,197,102,7,-21
14785,133,-79,203,103,5,-21
14790,130,-79,202,104,4,-20
14795,129,-75,199,102,5,-21
14800,129,-75,201,100,7,-20
14805,129,-75,196,93,7,-22
14810,131,-74,200,85,10,-21
14815,131,-77,198,78,13,-20
14820,129,-71,197,72,13,-18
14825,128,-71,202,69,15,-19
14830,133,-72,199,64,17,-19
14835,129,-75,196,63,18,-17
14840,132,-75,198,61,18,-14
14845,134,-74,199,62,18,-15
14850,133,-75,198,64,18,-14
14855,130,-73,198,67,17,-14
14860,130,-73,196,71,16,-13
14865,132,-76,199,73,15,-12
14870,129,-75,201,75,16,-14
14875,132,-74,198,78,16,-13
14880,129,-73,203,79,15,-15
14885,130,-71,202,78,15,-14
14890,130,-76,203,78,16,-14
14895,129,-74,198,76,19,-14
14900,129,-76,206,73,19,-12
14905,131,-72,204,68,18,-11
14910,131,-75,202,65,16,-13
14915,132,-73,204,63,15,-12
14920,130,-74,199,62,15,-14
14925,129,-71,199,62,13,-13
14930,130,-74,202,63,12,-12
14935,131,-72,202,63,11,-13
14940,130,-72,204,61,12,-13
14945,131,-74,196,59,11,-12
14950,132,-81,210,56,11,-13
14955,130,-72,202,52,10,-13
14960,131,-72,201,50,8,-11
14965,130,-69,198,47,7,-11
14970,132,-76,200,45,6,-9
14975,131,-70,204,45,4,-8
14980,129,-71,201,46,-2,-8
14985,135,-73,201,47,-6,-9
14990,130,-72,197,47,-9,-8
14995,134,-73,202,47,-13,-9
