timestamp,acc_x,acc_y,acc_z,gyro_x,gyro_y,gyro_z
0,-8,-249,44,-68,-12,8
5,-11,-250,44,-68,-9,10
10,-10,-247,44,-70,-5,10
15,-8,-248,46,-77,0,8
20,-10,-249,40,-83,8,9
25,-8,-249,43,-91,15,10
30,-8,-248,43,-102,20,11
35,-11,-246,44,-111,19,11
40,-5,-251,44,-123,18,10
45,-8,-250,43,-136,10,11
50,-8,-252,43,-148,3,12
55,-13,-251,43,-156,-7,10
60,-10,-256,42,-160,-15,7
65,-12,-257,39,-156,-19,5
70,-11,-253,40,-141,-16,5
75,-12,-255,43,-122,-13,6
80,-14,-254,40,-102,-7,7
85,-14,-251,41,-88,-4,12
90,-11,-250,42,-83,1,17
95,-14,-248,42,-85,4,19
100,-10,-249,45,-94,4,23
105,-10,-249,42,-105,5,24
110,-12,-246,43,-117,6,24
115,-13,-248,43,-129,6,24
120,-14,-248,45,-139,8,24
125,-15,-249,43,-146,10,22
130,-17,-248,44,-150,14,19
135,-19,-250,43,-153,12,17
140,-18,-252,42,-151,10,16
145,-17,-254,41,-147,9,17
150,-21,-254,46,-142,7,19
155,-17,-252,44,-132,4,20
160,-18,-251,41,-126,1,19
165,-16,-252,40,-117,-5,20
170,-16,-251,38,-113,-10,19
175,-14,-250,42,-112,-13,18
180,-14,-250,40,-112,-15,18
185,-14,-251,33,-114,-15,14
190,-15,-248,37,-118,-14,13
195,-14,-250,39,-124,-12,11
200,-15,-248,38,-134,-6,9
205,-16,-248,41,-144,-1,7
210,-14,-250,38,-155,6,5
215,-13,-249,37,-163,11,1
220,-16,-252,40,-167,16,-1
225,-15,-249,36,-170,22,-1
230,-17,-249,40,-174,25,-6
235,-17,-251,38,-175,31,-9
240,-16,-251,37,-175,35,-11
245,-16,-252,39,-174,39,-13
250,-17,-254,36,-174,42,-13
255,-16,-254,37,-170,44,-14
260,-12,-255,35,-167,45,-14
265,-13,-254,32,-159,48,-17
270,-14,-257,33,-151,50,-19
275,-17,-253,33,-143,49,-23
280,-17,-250,37,-136,50,-25
285,-17,-252,33,-132,50,-27
290,-20,-251,35,-132,50,-28
295,-24,-251,32,-134,51,-28
300,-17,-254,34,-134,48,-28
305,-17,-252,31,-128,40,-28
310,-20,-252,35,-122,31,-28
315,-19,-253,31,-119,25,-28
320,-20,-251,32,-119,19,-28
325,-19,-250,31,-119,15,-28
330,-18,-250,30,-122,11,-31
335,-15,-253,28,-122,7,-33
340,-16,-252,29,-122,6,-32
345,-13,-251,31,-121,3,-33
350,-17,-253,25,-121,2,-35
355,-17,-253,28,-123,1,-34
360,-15,-253,29,-122,0,-34
365,-14,-252,35,-124,-1,-36
370,-15,-253,33,-124,-2,-34
375,-16,-257,33,-124,-6,-33
380,-16,-255,37,-121,-12,-35
385,-17,-259,35,-117,-16,-36
390,-13,-257,34,-111,-20,-37
395,-18,-257,31,-105,-24,-36
400,-16,-259,32,-97,-25,-36
405,-14,-250,32,-89,-24,-35
410,-15,-254,30,-81,-24,-35
415,-14,-256,32,-74,-23,-35
420,-15,-249,29,-67,-21,-34
425,-14,-250,30,-63,-19,-33
430,-13,-249,30,-61,-19,-34
435,-15,-248,30,-63,-18,-36
440,-12,-248,31,-65,-19,-38
445,-13,-246,32,-70,-19,-40
450,-13,-249,33,-74,-19,-41
455,-13,-251,31,-80,-19,-43
460,-12,-250,32,-85,-17,-44
465,-10,-250,30,-91,-18,-47
470,-11,-253,35,-98,-19,-47
475,-12,-252,30,-102,-18,-46
480,-10,-255,31,-106,-15,-47
485,-10,-256,32,-107,-12,-48
490,-7,-255,32,-108,-8,-49
495,-10,-257,28,-109,-4,-49
500,-7,-258,30,-108,0,-53
505,-8,-257,30,-105,6,-53
510,-4,-259,32,-102,10,-54
515,-3,-258,18,-97,14,-55
520,-8,-257,23,-93,21,-57
525,-5,-258,24,-90,29,-58
530,-5,-259,26,-87,36,-60
535,-8,-258,24,-86,43,-63
540,-8,-259,28,-87,48,-63
545,-8,-255,31,-87,55,-66
550,-6,-259,30,-85,59,-69
555,-11,-259,28,-84,63,-74
560,-11,-257,33,-84,64,-76
565,-8,-257,32,-83,65,-80
570,-10,-259,36,-81,67,-81
575,-13,-256,28,-79,70,-82
580,-11,-258,30,-72,76,-83
585,-11,-254,33,-66,81,-84
590,-15,-255,34,-60,87,-83
595,-10,-251,29,-58,92,-82
600,-13,-249,29,-59,101,-83
605,-11,-247,27,-60,111,-85
610,-7,-248,25,-63,120,-88
615,-6,-245,25,-69,129,-95
620,-2,-247,18,-74,138,-100
625,-3,-245,19,-79,144,-108
630,-1,-242,17,-84,149,-116
635,0,-242,15,-94,155,-123
640,1,-244,13,-106,162,-127
645,2,-245,15,-119,167,-131
650,3,-245,15,-131,175,-136
655,5,-248,12,-138,181,-139
660,4,-248,9,-140,182,-141
665,10,-248,10,-137,186,-144
670,9,-247,12,-131,193,-150
675,9,-247,10,-122,203,-152
680,13,-248,2,-105,218,-153
685,10,-245,8,-81,239,-152
690,14,-243,6,-55,264,-148
695,16,-240,3,-31,295,-139
700,17,-239,4,-17,326,-127
705,17,-235,5,-14,358,-117
710,18,-236,4,-15,388,-104
715,20,-229,5,-18,410,-93
720,19,-230,14,-22,430,-84
725,15,-226,15,-27,444,-78
730,6,-226,17,-39,458,-71
735,11,-226,24,-57,474,-68
740,9,-227,22,-87,488,-66
745,8,-233,29,-123,500,-65
750,7,-236,29,-162,510,-63
755,2,-242,29,-200,519,-64
760,-1,-240,31,-230,524,-64
765,0,-245,37,-252,529,-62
770,-1,-249,42,-264,527,-61
775,-6,-252,43,-267,514,-57
780,-8,-257,50,-260,494,-54
785,-11,-261,52,-246,472,-48
790,-13,-265,54,-227,445,-44
795,-14,-266,57,-207,422,-36
800,-14,-273,55,-186,404,-31
805,-13,-274,57,-167,391,-24
810,-9,-279,52,-154,380,-22
815,-10,-272,46,-151,375,-18
820,-4,-274,46,-155,373,-12
825,0,-271,45,-164,370,-9
830,0,-271,45,-172,363,-13
835,6,-269,44,-176,353,-19
840,5,-273,43,-178,345,-23
845,10,-268,47,-178,335,-33
850,12,-264,44,-179,326,-48
855,11,-263,40,-184,323,-62
860,10,-266,39,-195,323,-70
865,16,-268,34,-204,325,-79
870,11,-272,32,-224,326,-86
875,10,-272,30,-242,330,-91
880,7,-274,30,-257,332,-93
885,7,-278,26,-268,334,-96
890,4,-277,25,-273,335,-101
895,4,-277,25,-269,339,-99
900,1,-272,23,-263,338,-91
905,1,-270,24,-251,334,-88
910,1,-266,27,-236,331,-89
915,3,-265,26,-214,332,-89
920,1,-258,26,-192,331,-88
925,2,-259,29,-176,329,-89
930,5,-256,24,-164,324,-92
935,4,-252,28,-151,318,-100
940,4,-250,29,-145,315,-105
945,6,-248,30,-142,307,-99
950,7,-250,38,-138,302,-102
955,7,-248,41,-130,293,-115
960,5,-241,37,-130,286,-117
965,6,-242,43,-131,285,-108
970,6,-240,40,-131,286,-98
975,4,-241,38,-130,286,-93
980,3,-236,41,-130,284,-91
985,2,-238,42,-127,283,-90
990,4,-241,40,-125,285,-83
995,6,-235,43,-124,286,-75
1000,4,-236,42,-124,283,-65
1005,2,-235,41,-123,276,-56
1010,3,-240,43,-120,266,-48
1015,2,-238,44,-115,255,-36
1020,3,-236,45,-110,243,-25
1025,2,-238,48,-104,230,-16
1030,1,-238,48,-99,220,-8
1035,6,-239,48,-96,209,-1
1040,3,-238,50,-95,202,8
1045,5,-240,50,-95,193,16
1050,8,-244,51,-100,180,21
1055,7,-244,48,-102,169,31
1060,4,-243,48,-105,155,43
1065,3,-245,49,-107,136,53
1070,5,-248,47,-104,114,63
1075,1,-248,48,-98,94,76
1080,1,-247,52,-92,73,92
1085,0,-249,49,-82,54,106
1090,-4,-248,51,-71,34,121
1095,-7,-245,50,-60,16,136
1100,-5,-247,48,-50,1,151
1105,-7,-246,47,-43,-15,165
1110,-3,-248,45,-37,-25,176
1115,-6,-244,45,-34,-31,187
1120,0,-247,39,-37,-30,195
1125,1,-249,43,-43,-26,200
1130,3,-248,38,-52,-21,202
1135,7,-248,39,-63,-12,202
1140,13,-253,36,-72,-2,200
1145,14,-256,38,-82,9,190
1150,16,-260,36,-89,18,181
1155,19,-265,40,-89,25,170
1160,31,-268,44,-88,27,156
1165,15,-270,43,-77,27,144
1170,8,-271,45,-61,29,135
1175,4,-271,45,-45,30,130
1180,-2,-276,45,-34,30,129
1185,-8,-281,47,-29,27,127
1190,-16,-282,40,-34,22,124
1195,-21,-287,39,-42,13,121
1200,-27,-288,33,-52,0,118
1205,-22,-294,32,-63,-15,115
1210,-22,-293,28,-69,-33,109
1215,-16,-295,25,-68,-53,102
1220,-11,-292,30,-55,-76,96
1225,-4,-294,30,-27,-102,80
1230,1,-288,34,17,-126,62
1235,4,-282,34,69,-146,48
1240,6,-274,33,122,-165,33
1245,11,-267,33,166,-177,23
1250,18,-258,29,198,-184,13
1255,24,-249,22,217,-183,11
1260,28,-248,21,221,-174,18
1265,31,-243,17,209,-166,17
1270,33,-241,7,186,-160,11
1275,33,-234,6,158,-145,14
1280,36,-237,2,119,-124,14
1285,30,-239,-6,72,-99,6
1290,28,-241,-7,19,-73,-4
1295,27,-247,-15,-36,-45,-13
1300,25,-248,-20,-89,-11,-18
1305,25,-250,-20,-142,26,-24
1310,23,-259,-19,-185,63,-29
1315,20,-267,-17,-215,96,-34
1320,19,-274,-15,-230,124,-35
1325,8,-276,-16,-229,142,-31
1330,3,-281,-17,-214,154,-26
1335,-4,-282,-17,-189,159,-19
1340,-15,-282,-18,-158,160,-9
1345,-24,-285,-18,-127,157,5
1350,-29,-283,-17,-96,149,25
1355,-35,-283,-17,-70,134,46
1360,-46,-280,-17,-43,116,69
1365,-48,-277,-13,-16,98,91
1370,-56,-270,-14,15,82,111
1375,-58,-267,-12,44,68,130
1380,-56,-257,-2,70,52,144
1385,-54,-251,4,90,42,154
1390,-49,-247,6,98,35,164
1395,-46,-243,15,96,36,166
1400,-35,-239,9,86,47,162
1405,-30,-238,16,68,64,155
1410,-17,-239,16,43,85,147
1415,-10,-245,22,19,113,135
1420,-2,-248,21,-8,144,122
1425,3,-254,18,-38,179,106
1430,2,-261,21,-65,219,91
1435,6,-270,21,-83,257,79
1440,3,-273,22,-94,300,65
1445,-1,-283,21,-95,341,63
1450,-4,-292,22,-90,379,67
1455,-19,-287,27,-80,402,77
1460,-24,-285,29,-66,411,95
1465,-33,-283,28,-42,411,125
1470,-44,-279,24,-13,401,162
1475,-50,-274,26,14,380,201
1480,-53,-268,26,32,353,234
1485,-54,-252,22,43,319,256
1490,-64,-249,19,46,285,263
1495,-63,-246,22,35,254,259
1500,-63,-241,20,13,224,247
1505,-63,-240,21,-11,198,229
1510,-64,-238,24,-39,171,210
1515,-61,-242,19,-67,147,191
1520,-59,-244,15,-91,123,181
1525,-54,-241,17,-107,99,178
1530,-53,-240,16,-117,82,181
1535,-43,-243,14,-123,64,190
1540,-37,-242,14,-126,51,198
1545,-33,-243,13,-128,46,205
1550,-27,-247,11,-125,49,209
1555,-28,-245,12,-123,52,213
1560,-23,-246,15,-127,57,216
1565,-22,-248,18,-136,56,213
1570,-20,-248,17,-151,54,211
1575,-22,-250,19,-165,50,209
1580,-23,-249,22,-178,42,204
1585,-24,-253,17,-187,35,196
1590,-27,-251,20,-190,31,187
1595,-21,-247,15,-188,31,180
1600,-31,-251,17,-183,39,174
1605,-31,-253,18,-169,57,167
1610,-35,-254,19,-149,81,161
1615,-40,-249,16,-124,106,155
1620,-42,-248,18,-96,129,150
1625,-47,-247,25,-70,150,144
1630,-48,-246,27,-44,164,143
1635,-47,-246,27,-23,169,135
1640,-50,-241,32,-2,172,126
1645,-49,-239,33,14,172,114
1650,-51,-235,34,27,170,102
1655,-51,-234,33,33,163,89
1660,-54,-227,33,33,150,76
1665,-47,-227,30,31,136,64
1670,-48,-224,35,27,122,49
1675,-45,-222,35,25,114,33
1680,-42,-217,36,22,107,18
1685,-43,-219,38,18,100,4
1690,-37,-219,36,13,96,-11
1695,-36,-218,37,10,97,-27
1700,-41,-226,32,4,98,-42
1705,-34,-221,42,-1,95,-55
1710,-31,-222,41,-10,93,-67
1715,-27,-227,44,-22,89,-80
1720,-26,-233,47,-30,88,-93
1725,-27,-232,46,-35,90,-106
1730,-26,-235,45,-33,94,-119
1735,-20,-236,52,-22,97,-133
1740,-22,-236,53,0,101,-143
1745,-22,-236,54,31,105,-154
1750,-21,-236,58,69,112,-164
1755,-20,-234,60,111,119,-172
1760,-19,-230,65,158,125,-180
1765,-18,-228,61,200,129,-188
1770,-21,-230,65,237,132,-196
1775,-22,-225,63,268,135,-201
1780,-29,-221,59,292,135,-203
1785,-30,-221,58,309,137,-207
1790,-31,-220,55,318,137,-210
1795,-33,-227,53,319,137,-208
1800,-38,-229,47,309,141,-204
1805,-47,-230,41,289,146,-196
1810,-51,-237,35,259,150,-186
1815,-50,-246,35,221,155,-172
1820,-54,-259,31,179,162,-156
1825,-58,-267,32,137,174,-137
1830,-51,-284,31,100,192,-119
1835,-49,-295,31,62,209,-103
1840,-44,-310,32,27,227,-84
1845,-38,-324,26,-15,235,-61
1850,-36,-338,21,-62,243,-35
1855,-28,-356,11,-119,242,-4
1860,-23,-377,9,-176,236,29
1865,-22,-394,2,-231,226,65
1870,-19,-421,1,-253,198,103
1875,-14,-440,0,-202,150,142
1880,-12,-451,-7,-81,105,185
1885,-3,-448,-4,58,68,224
1890,-7,-430,-11,175,39,252
1895,-4,-408,-19,256,21,272
1900,-11,-370,-24,301,24,284
1905,-10,-332,-34,319,32,277
1910,-15,-294,-45,317,48,260
1915,-25,-259,-53,305,76,246
1920,-24,-237,-57,279,113,230
1925,-28,-214,-63,241,148,199
1930,-25,-201,-60,187,175,158
1935,-20,-189,-57,118,197,109
1940,-16,-185,-55,48,217,66
1945,-5,-184,-51,-1,241,33
1950,4,-188,-42,-26,267,12
1955,14,-196,-45,-31,288,-10
1960,13,-205,-43,-38,308,-23
1965,22,-223,-42,-59,333,-28
1970,25,-247,-35,-100,360,-21
1975,22,-262,-26,-161,384,-11
1980,12,-285,-18,-227,392,2
1985,4,-302,0,-276,375,14
1990,0,-314,7,-283,327,15
1995,-1,-317,17,-249,264,6
2000,-11,-315,21,-188,199,-12
2005,-15,-313,28,-117,142,-34
2010,-23,-305,25,-48,97,-58
2015,-33,-296,24,14,64,-87
2020,-38,-287,20,61,42,-118
2025,-33,-281,22,88,33,-151
2030,-35,-272,10,98,34,-183
2035,-30,-266,3,93,42,-216
2040,-21,-254,-1,82,54,-248
2045,-15,-248,-5,71,67,-282
2050,-6,-241,-4,62,79,-316
2055,2,-237,-4,62,91,-347
2060,10,-232,-5,72,105,-370
2065,16,-225,-4,83,125,-387
2070,22,-221,-8,90,149,-401
2075,26,-217,-1,91,174,-409
2080,27,-220,-1,88,196,-414
2085,26,-218,-2,84,212,-412
2090,20,-218,4,79,221,-408
2095,13,-221,5,72,227,-400
2100,10,-227,7,64,230,-384
2105,7,-231,8,61,237,-368
2110,-4,-231,12,62,248,-353
2115,-9,-236,16,63,261,-334
2120,-15,-236,15,63,274,-317
2125,-18,-236,16,58,280,-298
2130,-20,-235,16,47,281,-281
2135,-24,-225,14,28,263,-268
2140,-15,-228,17,3,229,-260
2145,-24,-224,19,-23,193,-264
2150,-16,-223,16,-42,152,-272
2155,-15,-219,18,-59,116,-288
2160,-16,-218,18,-71,84,-302
2165,-9,-214,16,-85,56,-308
2170,-5,-214,17,-104,41,-313
2175,0,-213,21,-115,35,-314
2180,2,-216,17,-118,41,-303
2185,3,-214,23,-119,56,-284
2190,8,-213,24,-109,73,-252
2195,12,-216,30,-98,94,-216
2200,16,-217,27,-93,105,-180
2205,18,-220,34,-100,108,-145
2210,21,-217,33,-117,107,-116
2215,24,-219,33,-143,105,-94
2220,25,-219,37,-169,104,-80
2225,27,-224,39,-188,106,-66
2230,23,-223,40,-195,110,-55
2235,21,-223,42,-189,111,-42
2240,19,-222,43,-169,109,-29
2245,9,-223,58,-143,106,-14
2250,12,-222,48,-116,102,2
2255,10,-221,49,-88,97,19
2260,5,-213,49,-68,90,36
2265,2,-213,50,-58,83,52
2270,1,-212,51,-56,74,67
2275,-1,-210,53,-56,64,76
2280,-5,-214,59,-58,54,88
2285,-1,-212,56,-59,39,95
2290,-11,-209,59,-58,22,100
2295,-6,-214,59,-55,-1,110
2300,-10,-212,64,-50,-23,118
2305,-16,-212,57,-45,-48,132
2310,-14,-216,59,-35,-70,147
2315,-18,-213,56,-30,-91,164
2320,-16,-215,56,-26,-102,189
2325,-15,-214,49,-26,-107,218
2330,-11,-217,40,-33,-101,253
2335,-7,-213,32,-51,-84,287
2340,5,-216,27,-80,-54,311
2345,16,-218,15,-119,-17,323
2350,25,-215,21,-166,26,320
2355,36,-219,13,-210,70,304
2360,54,-230,15,-247,113,272
2365,60,-238,14,-272,151,225
2370,69,-245,29,-282,181,168
2375,71,-250,32,-271,201,108
2380,75,-260,46,-241,210,47
2385,72,-268,52,-191,211,-10
2390,68,-279,67,-122,202,-51
2395,60,-284,82,-38,181,-79
2400,44,-286,90,53,150,-83
2405,27,-289,92,143,113,-72
2410,6,-284,104,225,65,-45
2415,-7,-280,108,285,16,-5
2420,-24,-274,105,318,-31,42
2425,-34,-270,105,326,-69,93
2430,-47,-269,98,308,-94,146
2435,-55,-272,83,259,-106,199
2440,-61,-285,71,181,-99,240
2445,-55,-299,54,67,-85,265
2450,-52,-322,38,-79,-69,271
2455,-49,-337,17,-233,-50,255
2460,-39,-361,4,-391,-30,224
2465,-32,-385,-17,-508,-38,180
2470,-13,-414,-33,-562,-71,115
2475,-3,-432,-44,-573,-99,35
2480,11,-447,-63,-562,-91,-63
2485,23,-456,-71,-540,-36,-165
2490,37,-457,-85,-512,56,-263
2495,52,-447,-100,-483,175,-349
2500,56,-435,-110,-443,305,-419
2505,52,-413,-111,-383,421,-454
2510,44,-387,-106,-296,488,-465
2515,32,-362,-107,-189,501,-472
2520,24,-328,-100,-86,475,-473
2525,8,-293,-97,0,433,-465
2530,-8,-258,-90,68,381,-449
2535,-30,-226,-84,116,320,-430
2540,-48,-202,-81,154,247,-409
2545,-77,-180,-74,182,172,-373
2550,-105,-166,-71,198,89,-312
2555,-127,-161,-63,196,0,-238
2560,-144,-159,-55,173,-100,-156
2565,-150,-168,-53,137,-209,-68
2570,-154,-184,-23,91,-324,16
2575,-144,-200,-16,42,-435,85
2580,-131,-216,-6,-12,-535,146
2585,-121,-229,5,-68,-620,201
2590,-104,-245,11,-128,-681,251
2595,-79,-257,11,-185,-723,291
2600,-63,-267,9,-237,-737,327
2605,-41,-278,5,-272,-727,357
2610,-19,-292,5,-301,-701,372
2615,6,-300,-3,-313,-656,369
2620,24,-304,-4,-315,-591,352
2625,38,-306,-9,-313,-509,327
2630,57,-304,-16,-310,-411,297
2635,68,-299,-18,-311,-309,265
2640,67,-290,-20,-314,-207,234
2645,67,-281,-28,-319,-125,206
2650,61,-270,-39,-325,-72,184
2655,58,-263,-47,-335,-17,170
2660,50,-253,-50,-336,30,167
2665,33,-248,-52,-327,64,165
2670,17,-239,-52,-292,74,157
2675,6,-241,-53,-238,73,152
2680,-4,-225,-47,-185,76,163
2685,-19,-223,-38,-143,80,175
2690,-30,-223,-35,-109,83,181
2695,-46,-226,-25,-85,83,180
2700,-56,-226,-23,-64,81,185
2705,-63,-232,-20,-49,82,200
2710,-70,-236,-19,-47,80,216
2715,-75,-245,-11,-51,69,224
2720,-79,-252,-6,-53,53,230
2725,-77,-250,-4,-51,39,248
2730,-75,-252,2,-58,24,266
2735,-70,-255,3,-74,8,279
2740,-65,-254,4,-92,-8,281
2745,-58,-252,2,-110,-26,274
2750,-52,-247,7,-127,-41,267
2755,-43,-246,6,-145,-50,257
2760,-36,-244,1,-158,-55,245
2765,-31,-236,4,-164,-56,231
2770,-24,-235,2,-162,-56,217
2775,-18,-231,2,-154,-49,202
2780,-16,-225,1,-142,-38,192
2785,-14,-221,8,-127,-23,181
2790,-12,-219,3,-107,0,169
2795,-14,-215,5,-87,26,157
2800,-15,-207,4,-66,53,141
2805,-15,-206,11,-46,81,124
2810,-13,-205,11,-25,108,110
2815,-18,-202,11,-7,133,89
2820,-21,-201,16,9,147,57
2825,-19,-199,19,23,158,28
2830,-25,-199,23,36,167,-4
2835,-23,-205,24,48,173,-33
2840,-25,-205,30,62,179,-60
2845,-30,-208,34,76,185,-84
2850,-27,-212,40,88,196,-102
2855,-29,-218,40,101,207,-116
2860,-27,-223,47,113,221,-131
2865,-29,-228,50,129,237,-142
2870,-25,-232,54,148,256,-153
2875,-25,-233,51,168,270,-167
2880,-24,-234,53,187,281,-179
2885,-20,-234,55,206,293,-198
2890,-9,-230,65,227,305,-218
2895,-14,-231,55,249,309,-243
2900,-11,-229,51,272,309,-275
2905,-5,-225,52,296,302,-316
2910,-8,-220,49,325,285,-356
2915,-11,-214,37,351,259,-401
2920,-21,-206,32,370,223,-436
2925,-33,-196,28,375,170,-461
2930,-46,-190,20,369,98,-474
2935,-59,-184,5,351,8,-470
2940,-77,-180,3,323,-99,-448
2945,-95,-179,-4,289,-209,-408
2950,-109,-182,0,251,-314,-347
2955,-119,-183,4,218,-399,-265
2960,-117,-200,9,197,-453,-173
2965,-111,-212,24,190,-478,-83
2970,-94,-231,38,190,-471,-6
2975,-74,-245,48,189,-436,54
2980,-48,-262,52,189,-369,89
2985,-25,-272,63,189,-280,100
2990,-3,-283,56,184,-178,91
2995,16,-289,46,162,-83,70
3000,32,-315,31,102,-13,34
3005,46,-327,5,-3,32,-13
3010,50,-348,-20,-140,59,-64
3015,48,-375,-50,-307,69,-119
3020,38,-403,-83,-466,68,-167
3025,23,-434,-110,-607,47,-189
3030,-3,-459,-117,-685,5,-176
3035,-34,-477,-105,-679,-51,-95
3040,-56,-487,-86,-589,-111,47
3045,-71,-482,-54,-448,-175,222
3050,-71,-470,-34,-281,-236,400
3055,-66,-453,-21,-109,-275,579
3060,-57,-430,-26,51,-293,735
3065,-40,-395,-28,182,-300,826
3070,-20,-360,-44,293,-299,852
3075,0,-313,-65,383,-293,827
3080,19,-268,-77,443,-271,777
3085,42,-236,-85,462,-248,702
3090,62,-207,-98,448,-225,598
3095,80,-186,-106,427,-187,478
3100,102,-179,-107,396,-122,363
3105,116,-175,-101,344,-28,249
3110,123,-181,-104,269,110,128
3115,117,-198,-93,180,282,21
3120,100,-225,-75,95,464,-65
3125,79,-248,-55,32,635,-119
3130,58,-272,-35,-22,782,-151
3135,32,-291,-21,-70,899,-150
3140,2,-305,-15,-122,984,-115
3145,-23,-320,5,-174,1021,-70
3150,-45,-329,7,-204,1011,-21
3155,-71,-340,17,-220,973,19
3160,-86,-345,9,-197,868,29
3165,-97,-343,9,-139,724,12
3170,-100,-336,-5,-63,579,-8
3175,-101,-325,-13,20,461,-9
3180,-105,-314,-20,97,361,-1
3185,-101,-311,-29,166,275,4
3190,-93,-300,-33,221,198,-3
3195,-79,-287,-34,265,140,-19
3200,-61,-274,-33,297,106,-38
3205,-41,-255,-29,320,97,-58
3210,-23,-244,-24,343,103,-81
3215,-7,-237,-19,360,115,-110
3220,5,-219,-16,368,129,-140
3225,20,-207,-14,365,147,-171
3230,33,-195,-12,350,172,-194
3235,40,-192,-11,325,203,-220
3240,45,-188,-10,297,233,-245
3245,52,-190,-5,262,263,-269
3250,54,-193,-9,230,290,-295
3255,48,-198,-6,201,318,-312
3260,43,-202,1,183,346,-321
3265,40,-211,2,174,366,-327
3270,29,-217,3,170,379,-323
3275,19,-221,2,164,384,-315
3280,13,-224,2,159,387,-300
3285,1,-223,7,156,383,-281
3290,-8,-226,9,152,373,-257
3295,-14,-224,6,143,354,-238
3300,-17,-222,8,131,330,-222
3305,-25,-218,9,120,302,-209
3310,-29,-213,6,112,269,-200
3315,-31,-207,5,110,234,-193
3320,-34,-203,6,108,201,-187
3325,-31,-204,12,108,172,-184
3330,-31,-193,7,110,144,-181
3335,-22,-190,7,107,123,-174
3340,-19,-187,9,101,111,-164
3345,-8,-191,13,97,106,-153
3350,-2,-192,11,95,108,-142
3355,2,-192,15,93,112,-131
3360,6,-198,19,93,115,-126
3365,12,-197,22,92,116,-118
3370,16,-202,22,89,116,-110
3375,19,-203,23,85,115,-102
3380,18,-211,27,86,114,-97
3385,21,-214,29,90,108,-93
3390,21,-216,32,96,102,-83
3395,20,-216,32,104,92,-75
3400,16,-219,36,112,80,-64
3405,11,-217,40,116,69,-50
3410,5,-219,41,117,56,-35
3415,4,-216,40,117,44,-19
3420,0,-221,42,118,33,-3
3425,-3,-217,46,122,23,15
3430,-7,-221,47,130,12,33
3435,-11,-217,49,143,-2,50
3440,-11,-215,55,165,-16,63
3445,-18,-217,51,191,-34,75
3450,-19,-216,54,214,-53,92
3455,-21,-218,55,235,-77,111
3460,-24,-219,56,249,-100,131
3465,-29,-220,54,258,-127,151
3470,-32,-221,55,262,-155,177
3475,-32,-221,52,260,-180,203
3480,-31,-224,49,251,-198,234
3485,-33,-223,43,231,-206,271
3490,-22,-225,34,195,-200,302
3495,-20,-219,28,148,-171,325
3500,-2,-221,18,89,-120,346
3505,6,-215,14,22,-52,352
3510,28,-220,14,-43,26,338
3515,45,-222,19,-95,102,302
3520,57,-220,27,-126,167,247
3525,72,-227,36,-137,214,179
3530,78,-236,43,-128,240,102
3535,84,-250,52,-108,246,19
3540,89,-263,71,-73,237,-58
3545,76,-279,81,-23,218,-121
3550,66,-289,92,38,193,-174
3555,52,-299,104,104,165,-210
3560,30,-299,109,163,144,-232
3565,10,-297,111,210,129,-232
3570,-6,-291,117,238,124,-213
3575,-17,-291,119,249,126,-183
3580,-34,-289,115,242,127,-143
3585,-45,-288,112,221,129,-103
3590,-58,-290,113,195,122,-64
3595,-62,-304,103,163,108,-31
3600,-67,-316,91,121,89,-10
3605,-63,-337,77,60,65,-2
3610,-57,-353,62,-15,41,-14
3615,-38,-370,43,-97,20,-33
3620,-28,-377,25,-175,15,-62
3625,-2,-395,16,-206,8,-99
3630,9,-394,9,-165,9,-148
3635,31,-391,-1,-81,19,-202
3640,40,-378,-7,-6,45,-258
3645,54,-364,-16,77,83,-303
3650,59,-354,-26,129,139,-326
3655,61,-334,-47,139,196,-323
3660,53,-326,-64,105,245,-308
3665,48,-317,-79,38,280,-298
3670,38,-315,-94,-49,303,-290
3675,30,-317,-99,-139,313,-291
3680,8,-316,-100,-206,311,-291
3685,-4,-316,-98,-231,285,-299
3690,-22,-311,-93,-214,246,-310
3695,-43,-303,-87,-156,173,-325
3700,-63,-294,-83,-67,81,-343
3705,-90,-271,-78,33,-17,-352
3710,-122,-248,-78,117,-111,-345
3715,-149,-230,-75,177,-196,-320
3720,-168,-210,-71,208,-283,-278
3725,-185,-199,-60,221,-371,-219
3730,-189,-194,-52,223,-465,-145
3735,-185,-199,-39,225,-566,-81
3740,-168,-204,-25,217,-655,7
3745,-145,-208,-20,190,-729,95
3750,-122,-220,-9,144,-784,173
3755,-85,-215,-6,82,-826,227
3760,-65,-227,0,1,-839,281
3765,-35,-237,10,-95,-824,339
3770,-11,-250,15,-191,-800,374
3775,14,-267,24,-280,-771,382
3780,42,-279,29,-353,-738,361
3785,64,-295,36,-400,-698,324
3790,85,-304,42,-412,-651,277
3795,110,-318,36,-394,-599,218
3800,117,-317,29,-348,-532,149
3805,110,-315,26,-278,-454,88
3810,95,-310,12,-200,-379,47
3815,78,-293,0,-135,-312,27
3820,55,-276,-10,-88,-252,28
3825,36,-260,-16,-52,-191,54
3830,14,-250,-20,-23,-136,96
3835,-7,-235,-19,-2,-89,146
3840,-31,-227,-20,15,-60,188
3845,-47,-211,-17,29,-44,222
3850,-59,-208,-11,43,-38,244
3855,-66,-206,-3,56,-43,252
3860,-65,-210,6,73,-51,247
3865,-67,-210,9,83,-60,221
3870,-73,-210,15,83,-73,188
3875,-66,-213,14,63,-84,154
3880,-59,-218,20,34,-90,125
3885,-53,-217,16,-4,-88,105
3890,-46,-225,19,-52,-82,92
3895,-39,-228,17,-102,-78,89
3900,-30,-231,18,-150,-76,96
3905,-25,-233,15,-188,-73,107
3910,-16,-237,15,-218,-69,118
3915,-8,-238,18,-228,-68,127
3920,-4,-235,15,-224,-65,130
3925,4,-233,23,-211,-56,130
3930,10,-230,18,-194,-41,129
3935,12,-227,21,-172,-24,122
3940,11,-225,23,-151,-4,111
3945,14,-223,22,-126,13,102
3950,12,-221,21,-100,32,94
3955,12,-219,22,-74,57,88
3960,9,-215,20,-49,89,82
3965,1,-214,23,-30,130,80
3970,0,-209,25,-16,175,76
3975,-5,-208,22,-11,222,73
3980,-12,-210,19,-10,264,64
3985,-20,-205,24,-13,299,53
3990,-22,-209,27,-19,316,29
3995,-26,-211,25,-16,320,-5
4000,-29,-211,33,-5,318,-33
4005,-24,-215,32,7,318,-55
4010,-27,-215,40,21,317,-71
4015,-26,-223,42,40,322,-91
4020,-24,-220,43,63,328,-111
4025,-22,-224,44,89,337,-127
4030,-22,-226,47,113,350,-143
4035,-19,-219,47,135,365,-159
4040,-16,-223,50,155,379,-173
4045,-16,-222,49,169,390,-189
4050,-12,-227,48,182,398,-211
4055,-12,-223,49,194,404,-229
4060,-10,-227,54,202,407,-247
4065,-9,-225,57,213,410,-267
4070,-10,-225,52,225,411,-287
4075,-5,-226,49,233,408,-304
4080,3,-226,46,234,407,-323
4085,1,-221,50,232,410,-348
4090,0,-218,41,222,412,-371
4095,-1,-211,33,203,417,-391
4100,-8,-209,32,174,418,-410
4105,-10,-208,29,132,413,-416
4110,-14,-208,17,86,396,-412
4115,-28,-208,17,34,363,-399
4120,-37,-211,20,-22,317,-374
4125,-47,-219,21,-67,264,-337
4130,-55,-230,25,-97,212,-288
4135,-64,-246,42,-106,167,-237
4140,-64,-265,55,-92,135,-187
4145,-62,-283,74,-64,124,-140
4150,-62,-301,91,-27,133,-99
4155,-52,-318,109,20,155,-67
4160,-43,-326,123,76,190,-51
4165,-30,-332,127,135,232,-52
4170,-13,-328,127,186,269,-65
4175,0,-320,113,215,294,-82
4180,8,-320,106,216,298,-102
4185,12,-316,82,188,284,-124
4190,13,-330,64,126,262,-135
4195,6,-331,52,45,234,-129
4200,1,-342,36,-37,212,-112
4205,-8,-357,30,-99,205,-77
4210,-21,-373,24,-116,204,-24
4215,-28,-386,22,-72,203,52
4220,-30,-399,23,24,186,135
4225,-36,-403,23,144,155,216
4230,-46,-397,15,259,107,286
4235,-51,-389,2,350,47,355
4240,-57,-381,-6,402,-19,425
4245,-63,-374,-20,416,-96,476
4250,-64,-358,-39,404,-173,497
4255,-59,-339,-62,361,-221,523
4260,-50,-328,-78,285,-218,549
4265,-45,-311,-91,194,-177,547
4270,-33,-297,-100,109,-113,517
4275,-20,-280,-104,38,-31,486
4280,-2,-263,-107,-14,65,449
4285,15,-253,-111,-43,164,408
4290,37,-238,-102,-44,260,362
4295,57,-229,-106,-17,354,316
4300,85,-217,-88,30,441,277
4305,109,-211,-83,72,510,241
4310,128,-209,-72,104,573,196
4315,136,-216,-65,114,630,139
4320,133,-219,-54,92,682,78
4325,116,-227,-44,43,728,24
4330,89,-242,-29,-19,764,-23
4335,60,-255,-18,-78,783,-52
4340,28,-263,-9,-126,786,-77
4345,2,-270,-1,-159,775,-98
4350,-23,-273,9,-178,756,-112
4355,-45,-277,10,-183,730,-122
4360,-71,-281,12,-178,693,-128
4365,-97,-282,14,-164,634,-128
4370,-115,-283,14,-144,559,-124
4375,-125,-285,11,-126,474,-118
4380,-129,-285,3,-108,389,-110
4385,-120,-287,3,-85,310,-107
4390,-110,-282,2,-56,242,-105
4395,-102,-276,1,-16,183,-103
4400,-83,-273,-4,27,128,-102
4405,-74,-270,4,71,79,-97
4410,-49,-260,8,114,30,-96
4415,-34,-249,8,165,-19,-96
4420,-10,-249,18,208,-73,-96
4425,2,-238,19,250,-115,-103
4430,14,-232,18,284,-135,-115
4435,22,-227,18,302,-141,-127
4440,28,-219,24,306,-139,-140
4445,30,-216,23,295,-122,-150
4450,32,-217,22,269,-94,-162
4455,32,-219,22,240,-56,-168
4460,25,-223,29,208,-9,-171
4465,23,-233,19,174,33,-177
4470,16,-233,23,144,61,-183
4475,13,-239,23,120,82,-193
4480,5,-235,26,102,92,-197
4485,0,-236,25,90,94,-197
4490,-3,-236,30,81,84,-197
4495,-8,-230,30,74,70,-199
4500,-12,-227,28,69,48,-198
4505,-18,-224,26,63,23,-199
4510,-16,-222,28,54,0,-195
4515,-20,-222,31,46,-22,-191
4520,-20,-220,39,36,-41,-185
4525,-21,-216,35,24,-60,-175
4530,-18,-212,41,8,-80,-167
4535,-15,-211,38,-10,-98,-162
4540,-13,-208,37,-31,-115,-157
4545,-8,-209,33,-51,-133,-147
4550,-2,-205,33,-75,-156,-149
4555,-1,-206,30,-100,-177,-147
4560,6,-209,30,-121,-191,-143
4565,8,-210,28,-135,-198,-132
4570,15,-210,31,-147,-199,-115
4575,15,-212,34,-153,-194,-96
4580,20,-213,33,-157,-186,-77
4585,25,-217,35,-157,-178,-55
4590,21,-216,41,-155,-172,-37
4595,19,-213,42,-155,-163,-19
4600,17,-217,43,-151,-153,3
4605,16,-222,53,-146,-144,26
4610,13,-221,52,-141,-139,40
4615,10,-223,54,-134,-137,53
4620,4,-226,48,-128,-138,65
4625,4,-226,55,-125,-139,72
4630,2,-228,55,-123,-140,80
4635,0,-232,56,-119,-140,88
4640,-2,-232,60,-120,-142,99
4645,-2,-230,54,-117,-151,106
4650,-4,-231,60,-114,-164,107
4655,-10,-232,64,-107,-181,112
4660,-7,-234,61,-96,-202,117
4665,-10,-231,63,-82,-225,120
4670,-9,-237,67,-63,-244,128
4675,-12,-235,65,-45,-262,134
4680,-16,-233,62,-29,-273,142
4685,-15,-231,58,-17,-276,155
4690,-12,-234,53,-9,-268,174
4695,-9,-231,47,-8,-249,200
4700,-4,-229,44,-11,-225,225
4705,0,-227,36,-18,-196,247
4710,4,-229,33,-30,-168,266
4715,15,-227,32,-44,-147,284
4720,20,-229,27,-59,-129,292
4725,27,-229,36,-68,-106,288
4730,36,-228,27,-73,-77,276
4735,40,-232,42,-76,-42,258
4740,44,-233,44,-73,-5,233
4745,43,-237,56,-67,25,204
4750,45,-239,61,-61,43,168
4755,43,-246,68,-46,50,128
4760,36,-249,82,-24,40,91
4765,27,-257,89,5,19,57
4770,19,-257,94,33,-15,34
4775,5,-260,91,60,-58,19
4780,-6,-262,95,77,-106,13
4785,-21,-261,93,83,-152,16
4790,-33,-263,94,80,-189,30
4795,-47,-267,88,66,-219,54
4800,-53,-270,84,35,-241,78
4805,-60,-281,79,-2,-253,96
4810,-61,-300,71,-67,-259,107
4815,-58,-315,61,-158,-263,104
4820,-54,-334,48,-263,-260,85
4825,-44,-351,41,-383,-251,59
4830,-31,-370,27,-498,-240,25
4835,0,-396,20,-583,-215,-25
4840,11,-390,16,-592,-164,-89
4845,16,-418,10,-528,-116,-152
4850,39,-419,4,-411,-80,-213
4855,58,-409,0,-256,-26,-265
4860,66,-394,-8,-111,37,-317
4865,72,-371,-17,-3,108,-356
4870,84,-352,-28,49,182,-387
4875,87,-334,-37,42,252,-410
4880,83,-320,-43,-9,318,-414
4885,81,-314,-45,-71,365,-416
4890,74,-308,-39,-113,382,-425
4895,62,-304,-49,-113,371,-440
4900,48,-294,-42,-68,340,-455
4905,30,-283,-42,5,295,-465
4910,10,-270,-40,93,240,-465
4915,-10,-254,-38,178,178,-457
4920,-35,-242,-39,254,109,-438
4925,-61,-226,-42,317,38,-415
4930,-87,-205,-48,375,-23,-381
4935,-118,-190,-56,409,-76,-349
4940,-142,-175,-57,416,-128,-291
4945,-155,-171,-53,387,-191,-222
4950,-162,-172,-62,316,-274,-144
4955,-163,-172,-50,216,-378,-68
4960,-139,-186,-45,97,-489,11
4965,-111,-203,-38,-16,-587,85
4970,-80,-225,-27,-125,-655,125
4975,-51,-243,-17,-220,-695,140
4980,-30,-257,-6,-294,-705,148
4985,-1,-275,1,-342,-689,151
4990,29,-294,16,-368,-644,145
4995,53,-302,12,-378,-564,121
5000,76,-312,17,-385,-456,85
5005,96,-319,12,-385,-336,45
5010,108,-322,13,-381,-214,12
5015,116,-324,9,-371,-97,-5
5020,117,-325,-4,-357,4,-8
5025,100,-320,-11,-334,84,11
5030,82,-311,-11,-290,138,52
5035,63,-298,-15,-214,175,114
5040,43,-287,-13,-104,200,186
5045,19,-271,-15,27,218,254
5050,0,-258,-11,151,224,317
5055,-29,-254,-4,262,228,371
5060,-36,-232,-5,344,224,402
5065,-51,-223,-2,390,219,411
5070,-63,-214,5,405,214,401
5075,-66,-211,7,381,197,373
5080,-70,-209,9,331,177,342
5085,-71,-209,14,253,153,299
5090,-67,-217,12,166,125,255
5095,-62,-226,14,86,98,217
5100,-56,-234,16,22,72,189
5105,-43,-242,14,-21,48,169
5110,-34,-248,16,-45,28,163
5115,-22,-249,13,-54,12,166
5120,-12,-253,12,-52,7,175
5125,-2,-252,11,-44,8,189
5130,0,-252,12,-30,16,203
5135,7,-250,14,-6,26,213
5140,11,-246,14,20,43,221
5145,16,-244,13,42,60,228
5150,15,-233,14,60,81,229
5155,18,-227,16,74,106,228
5160,23,-222,23,82,139,229
5165,10,-214,14,85,176,225
5170,6,-207,13,86,223,217
5175,3,-203,13,74,271,207
5180,-4,-202,13,57,322,200
5185,-13,-202,16,34,370,189
5190,-20,-200,18,2,417,179
5195,-27,-206,17,-25,455,164
5200,-32,-208,22,-52,485,145
5205,-37,-215,28,-71,496,121
5210,-43,-220,26,-81,495,95
5215,-44,-228,33,-80,481,64
5220,-46,-230,32,-68,460,34
5225,-44,-231,35,-50,436,8
5230,-44,-235,36,-28,409,-19
5235,-44,-233,38,-7,384,-44
5240,-43,-234,38,8,362,-65
5245,-37,-234,41,16,344,-81
5250,-34,-236,40,22,330,-97
5255,-31,-233,43,25,318,-107
5260,-29,-230,43,26,309,-119
5265,-23,-233,43,30,306,-130
5270,-20,-228,43,40,307,-137
5275,-15,-233,48,56,309,-144
5280,-15,-232,46,73,314,-155
5285,-12,-234,51,89,320,-166
5290,-11,-230,55,107,327,-179
5295,-7,-229,54,122,336,-190
5300,-8,-227,59,136,344,-204
5305,-8,-221,59,152,352,-219
5310,-6,-226,56,167,357,-239
5315,-6,-222,59,181,365,-256
5320,-5,-221,55,196,372,-271
5325,-7,-218,58,210,378,-283
5330,-7,-217,58,224,382,-298
5335,-10,-217,57,235,387,-311
5340,-6,-215,54,239,390,-323
5345,-4,-209,45,231,393,-339
5350,-9,-207,46,212,391,-357
5355,-13,-211,42,183,385,-373
5360,-18,-207,42,146,375,-387
5365,-19,-207,40,104,357,-398
5370,-24,-211,36,61,341,-407
5375,-22,-213,37,19,324,-410
5380,-22,-220,48,-19,310,-412
5385,-23,-221,42,-49,300,-408
5390,-21,-226,46,-70,291,-399
5395,-18,-231,50,-79,283,-382
5400,-18,-235,55,-83,278,-363
5405,-14,-244,62,-81,277,-342
5410,-13,-246,68,-76,282,-317
5415,-7,-250,75,-60,296,-291
5420,0,-251,81,-39,326,-264
5425,5,-258,84,-17,371,-240
5430,12,-264,85,3,429,-222
5435,14,-267,84,12,498,-208
5440,17,-271,82,2,569,-200
5445,15,-279,71,-31,637,-190
5450,12,-288,54,-95,692,-177
5455,1,-302,43,-192,732,-160
5460,-6,-315,26,-321,744,-132
5465,-18,-335,12,-459,736,-100
5470,-28,-352,2,-573,719,-61
5475,-43,-377,3,-643,688,-11
5480,-54,-391,1,-648,639,51
5485,-67,-403,5,-591,557,123
5490,-68,-425,4,-477,447,199
5495,-77,-426,7,-310,315,274
5500,-87,-422,0,-134,159,348
5505,-92,-414,-2,14,-10,432
5510,-93,-401,-9,106,-172,520
5515,-97,-384,-13,141,-299,609
5520,-87,-371,-14,138,-382,689
5525,-79,-356,-11,112,-418,745
5530,-63,-340,-17,77,-408,776
5535,-47,-325,-15,38,-358,783
5540,-31,-309,-16,11,-280,764
5545,-16,-301,-17,-3,-190,729
5550,2,-281,-19,1,-96,675
5555,20,-272,-21,22,1,615
5560,42,-253,-28,52,97,543
5565,60,-238,-37,83,189,461
5570,74,-229,-49,110,280,363
5575,85,-215,-58,132,371,256
5580,96,-203,-65,143,461,147
5585,101,-191,-72,142,551,39
5590,104,-184,-80,128,637,-62
5595,98,-176,-79,92,721,-150
5600,92,-172,-75,38,801,-223
5605,82,-172,-72,-37,876,-272
5610,71,-181,-67,-128,947,-300
5615,50,-185,-48,-233,1016,-312
5620,38,-199,-42,-332,1072,-307
5625,18,-215,-27,-427,1121,-290
5630,-16,-238,1,-505,1152,-268
5635,-33,-256,19,-523,1124,-230
5640,-51,-274,38,-494,1057,-190
5645,-65,-293,44,-435,956,-153
5650,-78,-304,41,-372,843,-116
5655,-85,-312,40,-331,733,-83
5660,-91,-315,36,-310,629,-55
5665,-96,-318,28,-302,522,-29
5670,-93,-313,11,-300,408,-12
5675,-79,-310,3,-301,291,-4
5680,-67,-299,-13,-287,169,-7
5685,-55,-282,-19,-243,65,-25
5690,-40,-259,-30,-188,2,-47
5695,-23,-247,-37,-149,-22,-72
5700,-2,-229,-33,-128,-19,-91
5705,4,-221,-33,-111,4,-107
5710,8,-216,-27,-100,28,-120
5715,14,-209,-25,-91,54,-131
5720,20,-204,-17,-86,76,-138
5725,25,-212,-15,-91,97,-144
5730,23,-214,-7,-90,125,-149
5735,21,-223,-2,-85,155,-148
5740,21,-235,-2,-72,188,-148
5745,18,-244,-1,-57,216,-147
5750,15,-252,3,-42,240,-145
5755,9,-257,4,-22,257,-142
5760,6,-266,5,-1,265,-138
5765,1,-266,7,15,263,-138
5770,0,-267,8,20,253,-135
5775,-10,-263,9,14,235,-128
5780,-16,-255,6,-7,209,-123
5785,-19,-251,5,-40,177,-117
5790,-24,-247,3,-75,146,-114
5795,-25,-243,0,-106,115,-111
5800,-27,-236,3,-138,83,-111
5805,-27,-232,5,-162,52,-116
5810,-19,-228,6,-173,25,-117
5815,-23,-227,4,-177,0,-118
5820,-23,-222,6,-179,-29,-127
5825,-17,-225,9,-173,-60,-144
5830,-11,-221,9,-165,-90,-154
5835,-5,-220,7,-162,-109,-159
5840,0,-219,7,-164,-125,-162
5845,2,-223,10,-172,-137,-167
5850,7,-221,10,-179,-147,-173
5855,12,-227,12,-187,-161,-178
5860,14,-234,11,-188,-174,-179
5865,18,-232,16,-187,-186,-183
5870,17,-240,13,-188,-198,-179
5875,16,-240,16,-192,-204,-175
5880,17,-246,17,-194,-204,-163
5885,15,-248,15,-196,-204,-150
5890,14,-248,20,-198,-200,-135
5895,7,-247,21,-200,-196,-116
5900,8,-248,22,-202,-190,-95
5905,4,-248,24,-202,-185,-75
5910,2,-247,24,-201,-182,-54
5915,-1,-247,22,-198,-181,-37
5920,-3,-246,24,-194,-184,-18
5925,-5,-246,22,-185,-192,2
5930,-10,-242,24,-175,-202,18
5935,-13,-239,27,-164,-211,32
5940,-13,-235,27,-152,-223,46
5945,-15,-235,29,-148,-236,55
5950,-13,-235,25,-147,-250,64
5955,-12,-238,29,-150,-264,67
5960,-13,-239,28,-157,-279,67
5965,-6,-244,23,-165,-297,65
5970,-5,-245,27,-174,-320,60
5975,-6,-249,28,-180,-342,55
5980,-5,-253,26,-179,-361,50
5985,-4,-257,32,-176,-378,48
5990,-7,-257,34,-173,-392,50
5995,-9,-257,32,-169,-400,57
6000,-8,-257,31,-164,-402,67
6005,-10,-255,34,-159,-399,77
6010,-10,-257,36,-154,-393,87
6015,-12,-256,33,-151,-384,96
6020,-10,-254,25,-151,-377,102
6025,-11,-253,31,-152,-369,108
6030,-9,-253,30,-153,-368,111
6035,-5,-249,24,-150,-370,112
6040,-6,-247,26,-147,-376,113
6045,-7,-245,28,-140,-382,110
6050,-4,-247,31,-132,-386,108
6055,-6,-244,26,-126,-391,103
6060,-4,-245,25,-117,-397,100
6065,-4,-243,27,-110,-402,97
6070,-8,-245,30,-107,-410,95
6075,-5,-247,27,-108,-419,93
6080,-4,-249,28,-116,-431,88
6085,-3,-249,24,-130,-441,84
6090,-1,-252,21,-150,-449,79
6095,-5,-252,17,-178,-455,74
6100,-3,-253,12,-214,-459,68
6105,-1,-256,5,-253,-461,59
6110,2,-258,0,-298,-458,48
6115,1,-264,-5,-345,-453,38
6120,1,-267,-11,-393,-445,25
6125,3,-272,-14,-437,-435,11
6130,5,-278,-15,-474,-423,-6
6135,9,-287,-14,-499,-407,-27
6140,1,-295,-23,-511,-386,-49
6145,0,-304,-19,-510,-365,-72
6150,-1,-308,-21,-499,-334,-98
6155,-1,-312,-24,-483,-301,-127
6160,-3,-314,-25,-464,-267,-157
6165,-6,-313,-29,-446,-230,-187
6170,-3,-312,-28,-426,-190,-217
6175,-4,-310,-32,-409,-149,-246
6180,-2,-296,-32,-396,-109,-274
6185,-1,-287,-32,-384,-72,-299
6190,0,-277,-23,-376,-40,-318
6195,-3,-271,-21,-369,-20,-329
6200,-8,-262,-26,-361,-8,-339
6205,-4,-254,-22,-356,-9,-344
6210,-12,-250,-24,-357,-18,-339
6215,-13,-250,-27,-363,-30,-329
6220,-13,-248,-28,-374,-52,-316
6225,-14,-247,-31,-395,-77,-308
6230,-13,-251,-33,-424,-110,-302
6235,-10,-252,-32,-460,-149,-298
6240,-11,-250,-33,-495,-191,-294
6245,-3,-243,-31,-532,-239,-290
6250,-3,-253,-35,-569,-288,-286
6255,-1,-250,-39,-598,-337,-279
6260,0,-250,-36,-624,-382,-271
6265,-1,-248,-41,-645,-422,-260
6270,0,-246,-42,-658,-454,-249
6275,-1,-243,-46,-665,-475,-236
6280,-4,-240,-52,-668,-485,-216
6285,-8,-240,-51,-667,-485,-197
6290,-4,-239,-54,-665,-472,-177
6295,-5,-238,-52,-663,-454,-155
6300,-4,-240,-54,-663,-432,-138
6305,-6,-241,-53,-664,-408,-121
6310,-7,-240,-54,-665,-385,-109
6315,-9,-237,-54,-665,-367,-101
6320,-7,-238,-51,-663,-352,-98
6325,-8,-237,-55,-661,-339,-98
6330,-9,-233,-54,-659,-328,-99
6335,-8,-232,-60,-658,-319,-101
6340,-6,-231,-59,-661,-308,-102
6345,0,-226,-60,-666,-297,-104
6350,-1,-222,-67,-675,-287,-104
6355,-4,-221,-64,-684,-275,-104
6360,5,-221,-65,-695,-268,-106
6365,8,-220,-67,-705,-260,-109
6370,14,-220,-65,-717,-251,-112
6375,16,-224,-57,-731,-240,-115
6380,15,-226,-56,-741,-232,-122
6385,23,-236,-56,-747,-228,-128
6390,21,-238,-54,-738,-228,-140
6395,18,-245,-58,-720,-229,-154
6400,22,-251,-54,-691,-231,-171
6405,24,-259,-59,-658,-230,-187
6410,21,-270,-59,-623,-230,-202
6415,15,-277,-66,-582,-237,-216
6420,9,-286,-69,-538,-250,-233
6425,2,-296,-74,-494,-268,-248
6430,-2,-302,-77,-460,-284,-260
6435,-14,-311,-81,-431,-295,-266
6440,-30,-320,-79,-397,-308,-267
6445,-38,-325,-79,-346,-344,-259
6450,-45,-326,-84,-284,-398,-241
6455,-59,-333,-80,-216,-461,-201
6460,-65,-332,-81,-130,-528,-149
6465,-70,-326,-83,-36,-589,-86
6470,-67,-315,-84,54,-640,-26
6475,-72,-303,-93,129,-669,48
6480,-73,-293,-97,180,-691,120
6485,-71,-290,-100,209,-723,174
6490,-62,-272,-106,233,-782,203
6495,-46,-260,-108,239,-832,223
6500,-37,-245,-99,211,-868,238
6505,-22,-233,-100,161,-891,246
6510,-11,-226,-92,91,-901,252
6515,1,-220,-87,7,-917,249
6520,7,-217,-85,-80,-940,240
6525,23,-216,-85,-155,-970,234
6530,32,-224,-86,-211,-991,238
6535,41,-231,-83,-241,-1004,248
6540,50,-239,-82,-240,-1005,253
6545,51,-243,-84,-213,-995,256
6550,59,-248,-83,-174,-973,252
6555,56,-253,-85,-130,-940,246
6560,57,-256,-88,-95,-897,240
6565,48,-258,-90,-73,-848,231
6570,43,-264,-92,-66,-791,226
6575,37,-262,-88,-72,-730,221
6580,32,-260,-87,-87,-667,217
6585,23,-256,-88,-105,-613,212
6590,14,-252,-85,-118,-566,205
6595,9,-249,-82,-125,-531,197
6600,3,-241,-84,-125,-508,185
6605,0,-234,-85,-121,-497,168
6610,0,-228,-85,-122,-505,151
6615,-5,-220,-83,-129,-527,133
6620,-7,-217,-85,-141,-562,116
6625,-9,-213,-81,-160,-606,101
6630,-9,-214,-83,-182,-656,92
6635,-10,-214,-83,-202,-704,88
6640,-7,-218,-78,-214,-744,87
6645,-10,-220,-77,-214,-773,92
6650,-9,-225,-71,-208,-794,99
6655,-10,-226,-69,-198,-812,106
6660,-7,-225,-63,-184,-822,110
6665,-13,-230,-60,-173,-837,111
6670,-10,-232,-54,-166,-851,110
6675,-21,-237,-49,-157,-872,110
6680,-19,-240,-49,-147,-903,109
6685,-22,-237,-53,-137,-939,110
6690,-23,-239,-53,-131,-974,112
6695,-26,-235,-58,-136,-1004,119
6700,-25,-235,-58,-141,-1029,129
6705,-28,-229,-64,-150,-1054,141
6710,-27,-228,-68,-161,-1080,156
6715,-25,-227,-73,-179,-1116,172
6720,-25,-224,-76,-205,-1160,185
6725,-31,-227,-79,-238,-1209,206
6730,-29,-225,-82,-270,-1266,229
6735,-31,-225,-83,-304,-1311,253
6740,-27,-230,-82,-343,-1349,278
6745,-24,-231,-78,-383,-1369,302
6750,-27,-240,-71,-417,-1372,320
6755,-20,-248,-72,-437,-1364,329
6760,-13,-254,-74,-442,-1340,322
6765,-11,-261,-83,-441,-1295,308
6770,-3,-273,-85,-430,-1238,296
6775,5,-290,-91,-400,-1182,285
6780,13,-298,-101,-353,-1123,263
6785,22,-303,-96,-287,-1052,238
6790,24,-312,-109,-212,-964,203
6795,26,-315,-117,-145,-863,160
6800,23,-311,-114,-94,-757,113
6805,18,-308,-115,-61,-648,60
6810,19,-305,-112,-44,-548,4
6815,12,-300,-111,-35,-457,-54
6820,13,-293,-104,-24,-375,-107
6825,9,-286,-105,-8,-290,-157
6830,1,-276,-106,10,-207,-196
6835,0,-262,-108,35,-129,-218
6840,-11,-250,-105,72,-55,-220
6845,-19,-243,-103,116,13,-207
6850,-31,-226,-107,160,67,-189
6855,-38,-218,-105,194,90,-172
6860,-48,-209,-101,203,81,-159
6865,-56,-199,-97,182,44,-149
6870,-61,-195,-94,140,-17,-143
6875,-65,-196,-89,85,-88,-138
6880,-73,-193,-89,23,-161,-140
6885,-72,-194,-86,-43,-232,-151
6890,-71,-199,-85,-108,-292,-162
6895,-70,-208,-86,-167,-332,-173
6900,-68,-217,-89,-209,-347,-180
6905,-61,-226,-89,-234,-347,-185
6910,-54,-231,-90,-246,-341,-188
6915,-48,-239,-85,-246,-335,-190
6920,-44,-241,-85,-239,-328,-184
6925,-40,-247,-86,-219,-319,-169
6930,-33,-250,-85,-192,-315,-157
6935,-25,-251,-84,-160,-315,-148
6940,-28,-255,-84,-130,-314,-143
6945,-22,-253,-85,-97,-311,-139
6950,-24,-251,-84,-63,-303,-137
6955,-14,-253,-84,-27,-283,-137
6960,-13,-246,-84,2,-262,-136
6965,-11,-240,-86,13,-241,-138
6970,-12,-238,-83,12,-220,-135
6975,-12,-236,-89,-3,-193,-131
6980,-18,-232,-89,-24,-166,-125
6985,-25,-230,-94,-40,-136,-114
6990,-30,-231,-91,-53,-98,-104
6995,-36,-228,-92,-62,-56,-95
7000,-37,-229,-87,-74,-19,-87
7005,-42,-229,-89,-85,12,-81
7010,-43,-230,-87,-97,31,-71
7015,-46,-234,-85,-108,36,-60
7020,-48,-234,-89,-115,30,-41
7025,-47,-241,-79,-120,14,-25
7030,-45,-247,-75,-111,-10,-9
7035,-48,-248,-75,-87,-29,2
7040,-49,-249,-76,-52,-36,11
7045,-47,-249,-78,-14,-35,17
7050,-51,-246,-84,15,-28,24
7055,-55,-244,-86,30,-22,29
7060,-57,-240,-89,20,-29,25
7065,-59,-232,-86,-10,-51,11
7070,-63,-224,-86,-51,-85,0
7075,-61,-221,-82,-96,-125,-5
7080,-63,-221,-82,-137,-169,-11
7085,-62,-225,-78,-173,-213,-17
7090,-61,-227,-78,-199,-255,-20
7095,-58,-228,-74,-217,-289,-21
7100,-53,-235,-74,-223,-308,-17
7105,-52,-242,-78,-219,-320,-16
7110,-37,-229,-74,-206,-333,-8
7115,-44,-251,-69,-184,-347,7
7120,-38,-249,-71,-152,-355,24
7125,-39,-252,-70,-114,-356,40
7130,-39,-253,-72,-75,-361,53
7135,-36,-251,-76,-39,-375,56
7140,-37,-249,-77,-13,-388,53
7145,-36,-248,-76,5,-397,51
7150,-37,-245,-76,14,-399,45
7155,-31,-246,-79,21,-395,36
7160,-29,-244,-77,26,-388,27
7165,-26,-241,-77,33,-377,13
7170,-30,-234,-80,40,-366,-2
7175,-31,-228,-81,43,-362,-17
7180,-34,-226,-80,42,-356,-25
7185,-36,-226,-82,37,-359,-25
7190,-32,-226,-74,30,-371,-28
7195,-34,-229,-69,25,-385,-33
7200,-39,-224,-70,21,-400,-42
7205,-40,-233,-71,19,-418,-53
7210,-45,-229,-64,19,-432,-63
7215,-51,-236,-71,20,-441,-71
7220,-54,-241,-75,22,-445,-73
7225,-59,-232,-72,21,-445,-71
7230,-61,-233,-73,14,-439,-66
7235,-62,-230,-70,1,-431,-65
7240,-61,-228,-77,-13,-425,-63
7245,-58,-229,-73,-27,-423,-63
7250,-56,-231,-74,-35,-428,-60
7255,-51,-237,-69,-36,-435,-58
7260,-46,-241,-70,-27,-444,-54
7265,-43,-245,-68,-7,-459,-51
7270,-37,-249,-66,18,-472,-49
7275,-35,-251,-70,41,-485,-54
7280,-35,-248,-69,61,-489,-68
7285,-34,-251,-70,73,-481,-81
7290,-33,-251,-78,74,-466,-93
7295,-34,-246,-79,67,-445,-102
7300,-38,-245,-81,59,-420,-114
7305,-36,-243,-78,52,-398,-126
7310,-40,-242,-82,55,-380,-136
7315,-40,-244,-81,68,-367,-144
7320,-43,-244,-85,88,-357,-149
7325,-39,-239,-81,109,-350,-153
7330,-45,-244,-86,128,-348,-157
7335,-42,-246,-85,144,-342,-159
7340,-39,-248,-87,154,-328,-162
7345,-39,-245,-84,160,-308,-164
7350,-38,-247,-82,157,-282,-164
7355,-38,-247,-74,150,-258,-164
7360,-40,-243,-68,144,-233,-167
7365,-40,-246,-67,146,-219,-170
7370,-41,-246,-69,157,-212,-175
7375,-44,-247,-63,178,-212,-182
7380,-42,-245,-72,197,-215,-193
7385,-43,-246,-72,217,-219,-204
7390,-42,-245,-79,231,-216,-214
7395,-48,-244,-82,237,-210,-225
7400,-41,-242,-83,237,-203,-233
7405,-41,-241,-84,237,-194,-242
7410,-37,-239,-80,237,-178,-252
7415,-35,-237,-79,239,-159,-259
7420,-33,-238,-78,238,-138,-264
7425,-25,-242,-74,236,-117,-268
7430,-24,-248,-74,238,-95,-271
7435,-24,-248,-76,249,-76,-271
7440,-26,-243,-73,269,-66,-270
7445,-24,-243,-75,285,-60,-267
7450,-26,-239,-77,298,-57,-265
7455,-27,-236,-76,300,-59,-257
7460,-25,-232,-76,295,-58,-249
7465,-27,-227,-76,285,-49,-244
7470,-26,-230,-76,271,-34,-242
7475,-28,-226,-73,255,-17,-239
7480,-26,-229,-72,242,-2,-235
7485,-27,-226,-70,234,10,-230
7490,-24,-229,-72,232,25,-221
7495,-21,-230,-68,234,44,-211
7500,-18,-228,-67,241,64,-204
7505,-13,-232,-63,255,87,-202
7510,-8,-230,-59,271,122,-206
7515,1,-236,-57,291,171,-214
7520,10,-234,-57,313,232,-219
7525,19,-237,-53,327,295,-226
7530,28,-236,-51,337,350,-241
7535,36,-239,-50,350,399,-259
7540,44,-240,-53,367,427,-286
7545,50,-236,-51,381,436,-314
7550,47,-237,-55,385,436,-329
7555,45,-235,-55,383,432,-338
7560,37,-230,-59,375,431,-339
7565,29,-231,-60,358,442,-327
7570,15,-225,-66,339,472,-302
7575,2,-219,-64,311,523,-273
7580,-2,-221,-64,275,591,-236
7585,-12,-221,-69,238,656,-208
7590,-16,-229,-66,198,709,-182
7595,-23,-235,-56,170,745,-163
7600,-29,-241,-50,164,759,-147
7605,-33,-246,-46,175,750,-128
7610,-36,-249,-40,198,723,-106
7615,-35,-250,-45,229,686,-82
7620,-25,-251,-46,253,652,-61
7625,-16,-253,-54,263,640,-43
7630,-13,-251,-58,253,657,-36
7635,-9,-258,-57,227,702,-26
7640,-11,-256,-63,216,745,-10
7645,-12,-254,-61,216,752,20
7650,-16,-253,-63,217,706,56
7655,-20,-261,-72,223,630,85
7660,-21,-254,-65,227,539,108
7665,-23,-247,-66,239,450,121
7670,-30,-247,-64,257,371,129
7675,-33,-245,-63,281,299,134
7680,-28,-249,-63,309,239,132
7685,-26,-248,-62,342,201,118
7690,-29,-248,-64,348,173,111
7695,-13,-247,-62,326,144,115
7700,15,-255,-56,289,111,118
7705,9,-244,-54,270,67,90
7710,22,-232,-54,233,29,67
7715,16,-252,-72,187,44,84
7720,49,-274,-51,216,105,53
7725,47,-262,-51,282,129,3
7730,52,-264,-39,335,117,-17
7735,53,-255,-39,392,76,-38
7740,50,-254,-41,439,38,-59
7745,45,-251,-39,469,23,-90
7750,36,-248,-37,486,23,-107
7755,26,-239,-37,493,30,-121
7760,25,-246,-34,488,27,-132
7765,24,-238,-39,493,20,-148
7770,28,-234,-34,489,33,-151
7775,33,-238,-22,479,48,-146
7780,33,-244,-14,471,36,-146
7785,38,-247,-12,470,-1,-152
7790,32,-246,-10,473,-51,-153
7795,35,-250,-3,464,-101,-143
7800,8,-276,-4,477,-132,-137
7805,-55,-290,-23,666,-98,-175
7810,-35,-269,-18,1085,-28,-280
7815,12,-244,-25,1393,-63,-341
7820,18,-229,-24,1477,-167,-319
7825,28,-205,-32,1402,-326,-247
7830,37,-200,-24,1253,-476,-171
7835,59,-193,-24,1065,-605,-66
7840,59,-214,-17,824,-709,40
7845,47,-223,-17,598,-814,70
7850,50,-236,-12,500,-895,35
7855,37,-191,-33,484,-944,-52
7860,41,-161,-34,346,-954,-43
7865,45,-158,-31,138,-960,71
7870,44,-149,-31,-116,-1002,163
7875,36,-149,-25,-373,-1049,193
7880,28,-167,-32,-485,-1077,122
7885,18,-178,-47,-390,-1067,7
7890,19,-181,-47,-177,-1051,-72
7895,23,-176,-56,64,-1050,-93
7900,34,-164,-55,257,-1076,-64
7905,43,-151,-51,370,-1116,-18
7910,46,-137,-50,408,-1158,19
7915,54,-127,-44,388,-1181,51
7920,62,-122,-40,328,-1164,76
7925,70,-125,-37,237,-1100,105
7930,81,-130,-35,131,-994,134
7935,93,-136,-32,40,-856,161
7940,109,-143,-33,-13,-710,195
7945,118,-140,-38,-26,-575,251
7950,126,-135,-44,-26,-460,322
7955,134,-129,-49,-20,-371,392
7960,139,-121,-50,-21,-313,451
7965,130,-115,-58,-31,-279,490
7970,126,-111,-58,-58,-253,508
7975,113,-107,-64,-109,-221,505
7980,98,-107,-66,-179,-176,485
7985,86,-113,-70,-252,-116,458
7990,78,-117,-65,-325,-47,421
7995,74,-126,-68,-393,24,374
8000,72,-132,-70,-451,89,320
8005,71,-141,-69,-499,145,255
8010,75,-151,-69,-534,195,188
8015,78,-160,-62,-549,244,124
8020,83,-170,-66,-550,290,70
8025,81,-180,-59,-539,330,25
8030,75,-184,-49,-519,357,-1
8035,71,-191,-42,-495,364,-12
8040,53,-198,-31,-473,349,-2
8045,37,-202,-21,-453,317,30
8050,19,-205,-15,-440,272,89
8055,-1,-208,-5,-429,220,171
8060,-24,-212,5,-421,166,267
8065,-46,-209,13,-421,106,374
8070,-69,-203,14,-428,33,483
8075,-95,-204,19,-443,-57,586
8080,-119,-199,12,-474,-170,680
8085,-135,-193,3,-517,-305,756
8090,-156,-187,4,-576,-463,811
8095,-173,-187,-4,-638,-649,846
8100,-187,-187,-7,-694,-859,867
8105,-192,-193,-14,-742,-1080,872
8110,-190,-193,-18,-777,-1297,873
8115,-186,-192,-27,-811,-1493,875
8120,-170,-188,-41,-859,-1665,884
8125,-145,-189,-64,-936,-1822,890
8130,-126,-187,-82,-1044,-1973,882
8135,-104,-191,-103,-1168,-2119,874
8140,-86,-202,-112,-1293,-2258,879
8145,-77,-212,-113,-1405,-2387,901
8150,-67,-233,-114,-1491,-2494,938
8155,-65,-246,-118,-1547,-2583,983
8160,-65,-258,-117,-1575,-2650,1037
8165,-64,-272,-126,-1566,-2688,1095
8170,-64,-277,-124,-1541,-2698,1154
8175,-65,-280,-119,-1499,-2692,1213
8180,-77,-283,-117,-1448,-2684,1277
8185,-89,-285,-116,-1392,-2686,1341
8190,-94,-288,-110,-1322,-2690,1385
8195,-108,-284,-103,-1234,-2684,1394
8200,-109,-286,-84,-1117,-2654,1380
8205,-103,-290,-70,-987,-2608,1349
8210,-89,-299,-53,-847,-2551,1288
8215,-77,-302,-39,-687,-2513,1214
8220,-54,-305,-26,-492,-2509,1139
8225,-38,-310,-29,-255,-2536,1077
8230,-24,-311,-25,7,-2576,1028
8235,-13,-299,-24,264,-2603,989
8240,-14,-279,-15,480,-2610,956
8245,-13,-255,-5,632,-2604,927
8250,-15,-229,20,735,-2593,900
8255,-25,-197,34,813,-2582,882
8260,-25,-165,42,870,-2574,863
8265,-38,-127,44,906,-2552,842
8270,-55,-95,41,927,-2533,821
8275,-64,-69,36,925,-2515,810
8280,-79,-54,25,900,-2492,811
8285,-97,-54,13,867,-2475,831
8290,-110,-75,4,830,-2455,878
8295,-121,-114,-7,805,-2429,941
8300,-141,-159,-14,812,-2412,1014
8305,-152,-202,-6,866,-2424,1095
8310,-170,-248,-10,965,-2470,1177
8315,-198,-288,-13,1110,-2541,1259
8320,-231,-336,-13,1290,-2617,1349
8325,-267,-381,-5,1495,-2686,1461
8330,-315,-429,18,1702,-2739,1598
8335,-360,-468,53,1887,-2787,1757
8340,-408,-517,94,2076,-2845,1933
8345,-452,-565,142,2292,-2912,2110
8350,-514,-615,200,2552,-2977,2279
8355,-583,-672,258,2859,-2996,2462
8360,-618,-694,274,3180,-2954,2629
8365,-644,-700,271,3413,-2889,2702
8370,-661,-697,263,3528,-2836,2653
8375,-658,-680,240,3540,-2844,2496
8380,-623,-656,218,3497,-2917,2276
8385,-532,-607,192,3411,-3052,1984
8390,-454,-544,173,3284,-3188,1718
8395,-380,-477,154,3163,-3266,1509
8400,-321,-426,146,3066,-3238,1409
8405,-269,-376,140,3014,-3155,1405
8410,-208,-323,132,3014,-3043,1497
8415,-143,-252,121,3043,-2858,1683
8420,-101,-211,118,3047,-2619,1880
8425,-64,-155,125,2972,-2372,2017
8430,-21,-106,141,2694,-2140,2080
8435,19,-81,165,2175,-1928,2078
8440,54,-75,178,1544,-1749,2050
8445,90,-99,185,977,-1639,2015
8450,121,-122,195,608,-1608,1986
8455,146,-160,199,499,-1622,1972
8460,158,-205,183,669,-1636,1961
8465,163,-246,141,1098,-1624,1924
8470,160,-264,106,1719,-1561,1843
8475,151,-254,105,2355,-1431,1736
8480,135,-230,105,2857,-1262,1602
8485,111,-192,107,3140,-1080,1446
8490,63,-154,107,3222,-908,1283
8495,19,-114,108,3143,-754,1139
8500,-21,-64,122,2942,-626,1034
8505,-59,-14,149,2640,-527,979
8510,-76,12,175,2293,-471,962
8515,-93,4,193,1974,-468,967
8520,-112,-18,198,1744,-525,980
8525,-140,-30,204,1627,-661,992
8530,-155,-43,212,1638,-892,1010
8535,-169,-55,216,1755,-1180,1020
8540,-169,-65,216,1933,-1482,1000
8545,-167,-78,215,2092,-1743,932
8550,-162,-85,223,2193,-1951,812
8555,-154,-91,221,2222,-2097,672
8560,-137,-96,220,2178,-2181,552
8565,-118,-95,232,2069,-2177,439
8570,-95,-94,246,1925,-2121,334
8575,-66,-84,255,1805,-2054,251
8580,-34,-91,255,1737,-1994,195
8585,0,-92,253,1743,-1955,153
8590,21,-86,258,1812,-1930,99
8595,18,-68,265,1931,-1924,47
8600,26,-61,252,2088,-1935,15
8605,27,-56,240,2240,-1914,-24
8610,14,-36,231,2356,-1843,-70
8615,-28,-20,235,2412,-1736,-86
8620,-52,24,232,2429,-1643,-31
8625,-61,39,207,2400,-1548,46
8630,-69,50,195,2341,-1428,110
8635,-83,67,186,2323,-1331,158
8640,-77,86,191,2334,-1249,198
8645,-84,105,204,2318,-1155,237
8650,-83,121,213,2270,-1094,259
8655,-70,125,223,2195,-1056,253
8660,-64,128,240,2125,-1017,228
8665,-62,124,246,2099,-983,185
8670,-60,127,248,2126,-969,143
8675,-58,130,267,2191,-962,107
8680,-58,131,285,2276,-976,86
8685,-57,141,276,2380,-981,85
8690,-43,158,279,2451,-930,114
8695,-39,171,286,2463,-866,73
8700,-52,183,288,2455,-803,12
8705,-43,199,286,2419,-753,-23
8710,-38,215,285,2353,-714,-39
8715,-32,232,297,2251,-663,-12
8720,-28,240,299,2119,-634,-3
8725,-24,246,303,1982,-607,-7
8730,-27,254,310,1816,-600,-19
8735,-35,261,307,1613,-613,-32
8740,-44,253,298,1383,-633,-52
8745,-56,253,290,1152,-649,-100
8750,-66,246,262,923,-650,-167
8755,-86,249,249,719,-645,-235
8760,-76,251,238,558,-665,-281
8765,-72,247,225,403,-694,-311
8770,-59,242,220,244,-732,-343
8775,-63,238,236,99,-767,-370
8780,-60,203,239,-29,-766,-331
8785,-44,159,244,-135,-748,-260
8790,-46,109,243,-193,-715,-200
8795,-50,56,243,-180,-682,-173
8800,-46,15,236,-143,-667,-144
8805,-42,-21,241,-90,-658,-88
8810,-39,-39,240,-20,-646,-40
8815,-19,-50,234,33,-616,-6
8820,-2,-46,229,68,-567,13
8825,12,-37,224,95,-500,23
8830,27,-20,217,115,-438,24
8835,34,-3,202,114,-376,7
8840,40,14,196,86,-322,-12
8845,47,26,193,20,-275,-36
8850,54,44,194,-66,-233,-69
8855,51,54,195,-152,-190,-118
8860,53,62,199,-229,-149,-184
8865,50,67,196,-281,-104,-251
8870,41,70,197,-307,-53,-302
8875,30,70,200,-312,3,-330
8880,20,70,195,-300,59,-332
8885,12,67,196,-271,112,-312
8890,-2,64,200,-241,146,-283
8895,-15,65,201,-217,158,-246
8900,-27,64,198,-203,154,-210
8905,-34,57,199,-199,140,-167
8910,-45,54,200,-211,131,-119
8915,-54,51,198,-239,125,-78
8920,-53,47,206,-280,131,-43
8925,-50,46,208,-322,143,-16
8930,-49,47,216,-352,160,1
8935,-37,47,221,-381,170,12
8940,-25,48,218,-399,180,15
8945,-17,52,226,-410,188,15
8950,-8,55,231,-409,195,11
8955,-1,61,233,-391,200,5
8960,3,70,236,-359,208,2
8965,2,77,238,-319,221,9
8970,-4,83,245,-286,241,24
8975,-11,92,247,-263,266,45
8980,-23,99,254,-252,293,75
8985,-40,103,260,-246,315,106
8990,-48,106,260,-233,332,132
8995,-60,104,263,-217,354,151
9000,-62,109,266,-207,379,158
9005,-64,105,266,-203,402,150
9010,-65,100,272,-208,419,133
9015,-62,91,277,-210,424,106
9020,-64,84,280,-205,418,79
9025,-59,77,275,-198,399,49
9030,-58,70,276,-197,375,15
9035,-55,60,273,-205,348,-16
9040,-52,50,273,-215,321,-37
9045,-50,39,268,-225,302,-46
9050,-44,23,272,-228,293,-43
9055,-48,21,267,-213,294,-36
9060,-48,13,263,-174,303,-25
9065,-51,8,260,-116,314,-11
9070,-49,8,254,-45,332,3
9075,-49,11,248,33,347,10
9080,-47,14,244,112,360,10
9085,-48,29,238,179,363,3
9090,-47,38,235,216,354,-8
9095,-44,45,230,223,338,-25
9100,-45,56,230,204,319,-43
9105,-46,67,226,165,307,-58
9110,-41,67,227,123,295,-73
9115,-43,74,227,82,290,-90
9120,-42,74,231,34,292,-111
9125,-47,72,235,-19,298,-135
9130,-55,73,243,-72,293,-155
9135,-58,68,238,-123,280,-172
9140,-64,70,241,-168,257,-182
9145,-77,70,238,-202,224,-189
9150,-85,70,230,-214,182,-183
9155,-93,71,221,-214,143,-168
9160,-108,75,220,-201,118,-146
9165,-104,74,203,-191,101,-111
9170,-94,73,196,-183,91,-78
9175,-80,69,195,-180,88,-55
9180,-59,73,197,-202,84,-48
9185,-39,68,198,-235,95,-65
9190,-20,54,205,-263,113,-95
9195,-1,38,213,-281,113,-118
9200,17,19,222,-291,97,-156
9205,27,1,225,-298,74,-211
9210,22,-16,235,-283,50,-253
9215,22,-29,243,-228,21,-263
9220,9,-33,245,-136,-8,-257
9225,-4,-25,256,-18,-34,-233
9230,-31,-15,255,108,-52,-188
9235,-54,0,262,220,-64,-122
9240,-75,14,265,303,-58,-45
9245,-109,31,265,346,-46,40
9250,-129,41,273,355,-37,136
9255,-147,48,274,341,-34,242
9260,-161,53,273,319,-41,336
9265,-175,57,273,294,-61,408
9270,-174,67,264,269,-91,451
9275,-187,57,260,245,-129,475
9280,-184,54,247,212,-172,490
9285,-171,52,240,162,-212,498
9290,-158,48,236,96,-257,499
9295,-147,46,233,23,-301,484
9300,-133,36,224,-60,-352,460
9305,-120,31,222,-135,-399,430
9310,-110,26,220,-186,-434,416
9315,-93,18,220,-221,-464,403
9320,-79,17,226,-227,-483,380
9325,-66,8,227,-203,-468,359
9330,-58,8,230,-158,-437,341
9335,-49,6,228,-99,-402,316
9340,-40,4,232,-46,-368,280
9345,-32,1,233,8,-336,231
9350,-26,1,233,49,-293,175
9355,-21,-2,234,79,-245,119
9360,-23,1,235,106,-194,62
9365,-20,0,234,127,-145,7
9370,-16,3,234,139,-101,-50
9375,-16,6,235,150,-55,-108
9380,-12,10,237,155,-12,-160
9385,-16,18,236,151,23,-206
9390,-13,20,231,139,43,-242
9395,-17,27,235,127,50,-271
9400,-19,29,230,122,46,-287
9405,-19,36,224,113,37,-289
9410,-19,32,222,104,29,-282
9415,-20,35,216,91,17,-271
9420,-17,29,224,70,6,-260
9425,-12,21,223,38,-9,-249
9430,-8,16,225,-6,-23,-243
9435,-9,10,227,-55,-32,-241
9440,-11,0,234,-92,-47,-229
9445,-12,-11,236,-114,-60,-205
9450,-7,-15,230,-114,-70,-182
9455,-9,-25,243,-97,-71,-155
9460,-2,-26,241,-58,-68,-127
9465,1,-21,251,-8,-50,-102
9470,3,-18,252,50,-24,-80
9475,2,-14,261,114,5,-59
9480,0,-8,259,178,26,-36
9485,-1,1,262,227,43,3
9490,-4,13,258,268,50,51
9495,-5,24,259,294,48,97
9500,-14,39,259,302,41,137
9505,-19,51,254,289,35,170
9510,-27,61,250,258,33,193
9515,-31,69,249,210,34,210
9520,-33,71,249,157,47,223
9525,-36,71,247,97,66,232
9530,-36,70,245,36,86,234
9535,-42,68,242,-24,107,232
9540,-41,68,247,-74,134,228
9545,-43,57,243,-110,166,217
9550,-38,53,243,-131,199,206
9555,-41,54,243,-142,231,198
9560,-39,49,236,-151,256,191
9565,-41,49,238,-161,275,186
9570,-44,53,234,-172,282,181
9575,-44,50,232,-183,278,174
9580,-42,50,232,-194,261,164
9585,-40,49,230,-199,241,147
9590,-40,49,228,-199,219,121
9595,-38,49,236,-191,201,92
9600,-38,47,233,-186,185,65
9605,-34,49,225,-179,174,38
9610,-32,45,233,-172,167,10
9615,-30,45,234,-165,163,-16
9620,-30,41,235,-156,163,-39
9625,-27,47,237,-145,162,-61
9630,-27,47,237,-134,159,-77
9635,-25,47,242,-113,157,-95
9640,-26,47,238,-85,152,-108
9645,-23,46,245,-54,144,-119
9650,-26,49,248,-18,138,-133
9655,-31,54,241,20,135,-147
9660,-32,56,246,51,134,-160
9665,-33,56,245,71,132,-170
9670,-38,63,241,72,134,-179
9675,-36,66,245,59,134,-187
9680,-41,68,243,39,137,-191
9685,-41,66,243,16,141,-191
9690,-43,67,242,-16,146,-186
9695,-47,67,239,-44,150,-180
9700,-47,63,239,-66,160,-171
9705,-49,66,231,-82,171,-158
9710,-51,56,242,-93,185,-148
9715,-48,53,243,-96,196,-137
9720,-49,49,244,-98,211,-126
9725,-51,45,249,-95,221,-115
9730,-53,39,247,-84,227,-104
9735,-51,37,250,-62,223,-94
9740,-59,36,247,-35,212,-85
9745,-57,30,242,-2,192,-75
9750,-57,30,245,26,171,-64
9755,-61,28,246,53,148,-56
9760,-62,26,247,85,119,-49
9765,-62,26,246,117,89,-39
9770,-64,30,243,150,53,-28
9775,-64,34,244,176,21,-18
9780,-64,30,236,201,-9,-11
9785,-61,32,238,220,-31,-6
9790,-63,37,237,228,-47,-1
9795,-61,38,235,228,-54,5
9800,-63,38,233,222,-56,8
9805,-62,45,235,209,-55,11
9810,-54,33,238,189,-51,11
9815,-61,43,230,166,-48,11
9820,-60,43,234,140,-41,5
9825,-57,39,236,116,-36,-3
9830,-62,42,238,90,-33,-11
9835,-64,41,234,64,-31,-20
9840,-63,34,236,36,-25,-30
9845,-63,34,238,11,-13,-39
9850,-59,32,238,-15,3,-45
9855,-59,35,242,-45,31,-49
9860,-55,31,247,-70,57,-52
9865,-52,29,243,-86,80,-53
9870,-49,34,248,-99,99,-52
9875,-44,32,251,-108,120,-51
9880,-39,30,247,-116,141,-46
9885,-41,33,249,-117,157,-41
9890,-36,26,247,-111,165,-35
9895,-28,29,252,-94,167,-26
9900,-36,29,246,-72,157,-16
9905,-32,27,245,-49,143,-6
9910,-32,28,241,-27,125,6
9915,-32,32,237,-4,102,17
9920,-28,27,236,17,79,26
9925,-27,34,235,25,59,31
9930,-27,31,232,24,41,36
9935,-28,38,229,20,23,35
9940,-29,39,231,12,9,31
9945,-29,38,229,1,-3,29
9950,-27,38,231,-7,-14,24
9955,-29,44,231,-17,-16,19
9960,-27,44,234,-25,-15,14
9965,-29,42,235,-32,-7,8
9970,-30,43,236,-37,3,6
9975,-28,45,237,-38,14,4
9980,-34,46,237,-38,22,3
9985,-36,45,243,-39,27,3
9990,-38,48,245,-37,24,4
9995,-36,48,239,-32,18,2
10000,-42,48,239,-33,12,-2
10005,-41,48,243,-47,19,-5
10010,-46,49,241,-61,19,-8
10015,-47,48,248,-76,17,-7
10020,-46,48,242,-78,15,-4
10025,-50,48,246,-85,22,-3
10030,-48,39,247,-92,28,0
10035,-49,45,247,-90,36,6
10040,-51,45,248,-81,41,11
10045,-51,42,245,-66,42,17
10050,-50,43,251,-46,38,23
10055,-53,42,245,-24,35,26
10060,-50,40,245,-9,37,29
10065,-54,45,236,-6,40,31
10070,-51,45,244,-15,53,32
10075,-50,43,239,-25,66,31
10080,-50,43,243,-23,79,28
10085,-52,41,243,-17,92,27
10090,-51,41,240,-7,103,27
10095,-48,43,239,8,106,31
10100,-46,43,238,18,103,37
10105,-49,45,238,20,94,40
10110,-48,45,237,21,82,41
10115,-43,43,236,20,67,42
10120,-44,46,238,13,52,39
10125,-47,48,235,-1,42,35
10130,-44,47,236,-24,39,33
10135,-47,46,237,-51,42,30
10140,-46,52,242,-81,46,26
10145,-41,50,239,-93,45,24
10150,-42,43,242,-98,45,20
10155,-43,40,245,-90,45,13
10160,-43,37,248,-65,40,6
10165,-42,40,246,-40,33,3
10170,-40,42,243,-25,32,3
10175,-38,41,242,-19,34,5
10180,-39,42,241,-21,35,3
10185,-38,43,239,-25,37,3
10190,-37,41,240,-30,36,-2
10195,-37,40,243,-34,34,-4
10200,-37,39,241,-35,30,-5
10205,-37,38,242,-33,24,-9
10210,-36,38,239,-28,20,-10
10215,-38,39,243,-23,16,-11
10220,-39,38,240,-16,14,-15
10225,-41,37,242,-8,10,-17
10230,-41,38,241,-3,8,-19
10235,-42,39,242,-3,8,-21
10240,-40,40,242,-5,9,-20
10245,-37,37,238,-8,14,-19
10250,-36,35,247,-15,21,-16
10255,-36,39,245,-24,27,-13
10260,-36,41,241,-32,34,-13
10265,-35,37,244,-40,43,-11
10270,-31,36,243,-46,50,-7
10275,-34,39,244,-45,51,-6
10280,-35,36,244,-36,51,-6
10285,-35,36,243,-26,49,-5
10290,-35,37,243,-16,48,-6
10295,-37,36,243,-7,46,-6
10300,-37,36,242,-4,45,-7
10305,-39,36,239,-1,44,-10
10310,-37,37,240,-1,44,-12
10315,-37,34,242,-3,46,-13
10320,-37,36,241,-5,49,-16
10325,-36,36,238,-6,51,-17
10330,-40,36,240,-5,57,-17
10335,-37,36,238,-3,63,-15
10340,-39,38,238,4,69,-16
10345,-36,36,239,8,74,-15
10350,-37,39,238,13,77,-13
10355,-35,35,236,17,79,-10
10360,-40,42,237,20,78,-8
10365,-36,39,237,18,76,-5
10370,-38,40,238,17,70,-6
10375,-40,41,238,14,63,-3
10380,-37,40,238,8,56,-3
10385,-40,43,240,2,49,-3
10390,-42,44,241,-3,44,-5
10395,-42,40,238,-7,40,-6
10400,-42,44,240,-10,38,-7
10405,-42,42,237,-16,38,-9
10410,-42,42,237,-21,39,-8
10415,-45,41,242,-23,41,-8
10420,-47,41,242,-25,42,-7
10425,-44,41,239,-27,44,-6
10430,-48,41,243,-28,46,-7
10435,-45,41,240,-27,46,-6
10440,-47,47,236,-28,48,-6
10445,-44,42,240,-53,65,-6
10450,-43,44,241,-74,80,-5
10455,-43,39,241,-87,86,-3
10460,-44,43,244,-92,85,0
10465,-50,30,240,-85,80,0
10470,-44,38,241,-74,73,2
10475,-44,38,244,-65,68,6
10480,-42,37,241,-51,60,6
10485,-42,36,243,-35,55,5
10490,-45,39,244,-22,52,7
10495,-41,40,243,-14,51,8
10500,-43,36,244,-6,50,8
10505,-44,38,239,0,50,8
10510,-45,40,240,0,49,9
10515,-41,41,239,0,49,11
10520,-40,37,239,-6,50,12
10525,-40,38,241,-14,48,15
10530,-42,41,239,-18,47,14
10535,-38,41,239,-25,49,16
10540,-40,42,239,-33,48,16
10545,-39,42,238,-41,46,16
10550,-36,44,239,-49,46,16
10555,-39,41,242,-57,46,15
10560,-37,39,242,-61,43,15
10565,-36,40,240,-61,42,14
10570,-38,40,244,-59,42,13
10575,-41,33,247,-60,43,14
10580,-38,36,245,-61,44,14
10585,-39,41,243,-60,46,15
10590,-37,39,240,-67,49,17
10595,-38,37,241,-71,50,16
10600,-39,38,243,-71,48,13
10605,-37,36,244,-66,43,12
10610,-39,36,242,-63,40,10
10615,-37,37,240,-61,38,9
10620,-38,36,242,-60,39,6
10625,-35,34,240,-61,40,6
10630,-36,33,244,-65,41,4
10635,-38,37,241,-69,44,0
10640,-40,35,245,-73,46,-4
10645,-38,33,242,-71,46,-6
10650,-40,38,243,-65,49,-10
10655,-38,32,241,-56,49,-13
10660,-37,37,242,-46,50,-13
10665,-41,37,243,-36,53,-14
10670,-41,38,242,-28,56,-16
10675,-39,38,241,-22,61,-16
10680,-39,36,241,-17,63,-15
10685,-38,36,238,-14,66,-15
10690,-38,38,239,-12,66,-14
10695,-38,39,236,-12,67,-13
10700,-37,35,242,-12,66,-12
10705,-33,36,241,-14,66,-10
10710,-37,37,242,-15,65,-10
10715,-34,38,240,-19,65,-8
10720,-34,36,244,-22,68,-8
10725,-35,38,244,-25,70,-9
10730,-39,38,243,-25,72,-10
10735,-33,38,241,-23,77,-9
10740,-37,35,242,-19,78,-7
10745,-37,38,242,-16,80,-6
10750,-37,37,242,-15,79,-4
10755,-39,38,241,-18,74,-2
10760,-39,38,240,-26,67,1
10765,-38,40,239,-36,61,2
10770,-38,39,241,-48,53,5
10775,-35,36,238,-55,45,6
10780,-36,36,244,-63,42,9
10785,-37,36,239,-67,44,11
10790,-34,38,240,-69,48,12
10795,-39,43,249,-68,53,14
10800,-33,37,241,-66,61,15
10805,-37,37,244,-60,69,15
10810,-34,36,242,-54,75,15
10815,-34,40,242,-45,80,16
10820,-35,39,243,-40,84,16
10825,-36,38,246,-38,86,14
10830,-35,38,243,-38,87,14
10835,-38,38,243,-44,85,12
10840,-40,41,242,-51,83,12
10845,-36,39,242,-60,81,8
10850,-37,39,244,-67,76,6
10855,-40,38,238,-70,72,4
10860,-40,37,241,-72,68,1
10865,-41,35,241,-70,63,0
10870,-40,35,239,-70,61,-3
10875,-43,35,244,-70,58,-4
10880,-43,34,243,-69,57,-5
10885,-41,37,243,-68,57,-6
10890,-43,36,243,-70,57,-6
10895,-42,36,244,-71,59,-8
10900,-44,41,243,-73,59,-9
10905,-41,35,241,-74,60,-9
10910,-42,36,240,-73,62,-9
10915,-42,34,241,-72,63,-9
10920,-38,33,243,-70,69,-8
10925,-40,36,240,-68,72,-8
10930,-41,33,243,-67,75,-6
10935,-40,36,243,-68,79,-5
10940,-40,36,240,-70,83,-2
10945,-38,36,246,-74,82,2
10950,-36,34,241,-80,84,2
10955,-37,37,242,-83,86,4
10960,-38,34,238,-87,86,6
10965,-37,29,245,-88,85,6
10970,-38,31,243,-89,85,7
10975,-37,31,244,-86,88,6
10980,-38,34,243,-80,89,6
10985,-38,31,239,-71,90,5
10990,-39,35,241,-63,91,6
10995,-38,30,241,-56,92,5
11000,-38,31,244,-48,92,5
11005,-40,35,240,-43,90,6
11010,-37,32,237,-41,89,6
11015,-41,34,240,-43,86,8
11020,-40,34,243,-45,81,7
11025,-38,30,239,-49,78,6
11030,-36,31,241,-51,74,7
11035,-42,32,241,-53,72,6
11040,-37,29,242,-53,71,6
11045,-41,31,246,-55,69,5
11050,-41,35,241,-52,66,5
11055,-39,32,243,-52,64,2
11060,-36,32,242,-49,62,0
11065,-40,33,240,-45,62,-1
11070,-38,34,239,-44,64,-3
11075,-37,30,241,-40,63,-5
11080,-39,33,241,-39,65,-6
11085,-38,33,243,-41,67,-7
11090,-41,34,242,-42,71,-6
11095,-37,34,242,-46,75,-6
11100,-39,32,243,-49,78,-8
11105,-39,31,243,-55,83,-6
11110,-38,31,243,-56,87,-6
11115,-39,28,240,-56,90,-5
11120,-39,33,241,-55,89,-4
11125,-37,32,244,-54,91,-4
11130,-39,35,242,-55,89,-3
11135,-38,32,241,-52,90,-2
11140,-39,31,237,-47,89,-1
11145,-37,31,240,-40,87,0
11150,-38,31,241,-32,87,0
11155,-36,32,240,-24,86,1
11160,-37,32,241,-18,85,2
11165,-38,30,243,-12,84,4
11170,-38,30,241,-10,82,5
11175,-37,34,240,-10,81,6
11180,-41,32,242,-14,78,6
11185,-43,35,241,-18,75,5
11190,-36,33,246,-25,74,5
11195,-37,34,244,-32,73,4
11200,-40,34,242,-38,70,4
11205,-39,35,240,-46,70,3
11210,-39,31,243,-53,70,4
11215,-39,32,240,-61,71,4
11220,-41,33,242,-70,74,4
11225,-39,32,245,-73,78,3
11230,-37,30,242,-75,82,4
11235,-35,27,241,-77,84,5
11240,-35,29,239,-76,86,4
11245,-37,30,242,-74,89,5
11250,-37,28,242,-75,89,6
11255,-39,29,244,-74,89,7
11260,-39,32,243,-73,89,8
11265,-38,31,242,-75,87,6
11270,-40,30,240,-77,86,5
11275,-38,30,242,-83,85,5
11280,-37,30,242,-85,85,2
11285,-41,31,241,-84,85,1
11290,-39,31,241,-78,85,0
11295,-40,30,243,-69,89,-2
11300,-39,27,241,-53,92,-2
11305,-40,29,243,-36,96,-2
11310,-38,28,239,-19,98,-3
11315,-40,29,238,-3,100,-1
11320,-39,29,241,10,103,2
11325,-38,28,240,20,101,3
11330,-43,28,241,27,99,4
11335,-47,31,248,32,93,4
11340,-40,26,240,34,86,3
11345,-43,29,241,33,82,1
11350,-43,30,240,20,78,1
11355,-44,32,243,4,75,1
11360,-40,30,242,-13,74,-2
11365,-42,31,244,-28,76,-4
11370,-45,29,243,-40,77,-5
11375,-43,25,242,-44,79,-4
11380,-40,26,245,-40,80,-3
11385,-41,28,245,-35,82,-2
11390,-42,28,240,-26,82,-1
11395,-39,28,237,-20,85,2
11400,-42,30,239,-18,82,3
11405,-38,30,241,-19,82,1
11410,-39,29,238,-24,78,-1
11415,-42,32,243,-29,80,0
11420,-40,27,240,-30,80,-1
11425,-39,29,243,-31,79,2
11430,-41,32,240,-28,80,2
11435,-41,34,237,-22,81,2
11440,-42,33,239,-18,81,2
11445,-37,28,251,-12,82,3
11450,-39,30,242,-5,80,5
11455,-36,31,240,-1,79,3
11460,-41,32,239,3,78,2
11465,-42,31,243,7,77,2
11470,-38,30,242,8,75,1
11475,-39,30,242,7,75,0
11480,-37,26,243,2,74,-1
11485,-40,29,244,-4,72,-3
11490,-40,29,239,-11,68,-3
11495,-39,29,243,-15,66,-3
11500,-41,32,242,-21,65,-3
11505,-43,31,241,-28,62,-4
11510,-43,31,244,-33,61,-4
11515,-42,27,245,-37,62,-5
11520,-41,29,243,-38,64,-4
11525,-42,30,243,-38,66,-3
11530,-39,33,240,-37,69,-4
11535,-40,30,242,-35,72,-3
11540,-42,30,244,-32,74,-2
11545,-42,27,240,-29,76,-4
11550,-39,29,242,-22,78,-2
11555,-38,34,238,-17,79,-4
11560,-42,29,241,-12,80,-5
11565,-42,28,242,-9,80,-4
11570,-39,30,240,-7,81,-5
11575,-40,31,240,-8,82,-4
11580,-39,32,241,-10,82,-4
11585,-36,28,242,-14,84,-4
11590,-40,31,239,-21,87,-2
11595,-41,28,243,-27,86,-1
11600,-39,26,243,-31,85,-2
11605,-44,28,240,-32,84,0
11610,-34,26,238,-32,82,0
11615,-40,27,242,-29,81,-1
11620,-38,26,243,-25,80,-1
11625,-38,24,241,-19,80,0
11630,-40,28,242,-10,78,-1
11635,-43,27,241,1,77,-1
11640,-41,27,245,10,76,-1
11645,-42,28,238,18,73,-2
11650,-41,29,239,23,70,-1
11655,-43,31,241,22,67,-1
11660,-41,29,240,20,65,0
11665,-39,24,236,11,65,-2
11670,-44,33,238,2,66,0
11675,-41,29,239,-8,66,-1
11680,-42,31,242,-17,69,0
11685,-39,30,241,-22,71,-1
11690,-43,31,245,-25,74,-1
11695,-38,34,240,-25,74,-2
11700,-42,32,244,-22,72,-2
11705,-43,29,240,-19,71,-2
11710,-42,30,238,-16,68,-1
11715,-41,29,241,-12,66,-1
11720,-43,29,241,-10,66,-2
11725,-39,29,239,-8,65,-2
11730,-41,31,241,-8,65,-3
11735,-42,31,239,-10,66,-5
11740,-43,32,244,-11,65,-5
11745,-44,31,241,-11,65,-5
11750,-38,29,241,-12,65,-6
11755,-42,29,240,-12,66,-4
11760,-40,28,241,-11,66,-3
11765,-40,29,244,-9,67,-5
11770,-40,30,246,-6,68,-4
11775,-43,31,244,0,68,-2
11780,-44,32,240,6,68,-2
11785,-43,32,239,12,67,-3
11790,-40,31,240,17,65,-1
11795,-41,31,239,21,64,-2
11800,-39,28,241,24,63,-3
11805,-41,28,242,26,62,-1
11810,-42,28,240,26,61,-2
11815,-42,31,239,25,56,-2
11820,-42,30,239,24,56,0
11825,-41,28,245,21,53,-3
11830,-42,32,241,19,52,-4
11835,-43,29,243,16,50,-4
11840,-40,34,241,10,50,-6
11845,-42,30,242,3,51,-5
11850,-41,28,239,-2,52,-7
11855,-41,30,244,-8,55,-8
11860,-39,30,242,-11,57,-5
11865,-42,29,243,-13,59,-5
11870,-40,29,241,-12,61,-3
11875,-41,30,240,-10,63,0
11880,-40,35,256,-7,61,2
11885,-39,30,242,-5,61,0
11890,-41,31,243,-2,61,0
11895,-39,28,239,-3,59,0
11900,-38,29,242,-6,59,0
11905,-38,31,244,-8,57,-2
11910,-40,33,240,-11,59,-3
11915,-38,30,241,-10,60,-2
11920,-39,31,240,-5,60,-3
11925,-40,28,242,2,62,-3
11930,-40,30,243,11,62,-3
11935,-42,32,238,20,65,-2
11940,-41,30,238,29,66,-3
11945,-42,32,241,36,66,-1
11950,-41,31,241,43,67,-1
11955,-42,29,241,48,64,0
11960,-42,31,239,51,62,0
11965,-43,31,237,52,59,-1
11970,-40,31,242,49,56,-1
11975,-41,31,239,44,51,-1
11980,-43,29,242,36,50,-2
11985,-43,30,243,27,49,-3
11990,-35,36,252,18,47,-5
11995,-41,29,246,10,48,-9
12000,-42,31,244,5,52,-9
12005,-41,29,244,7,52,-9
12010,-40,29,240,12,53,-9
12015,-43,27,239,21,56,-8
12020,-40,29,242,28,56,-5
12025,-41,30,238,32,55,-4
12030,-38,30,236,32,53,-5
12035,-40,34,238,27,49,-4
12040,-41,32,241,21,46,-4
12045,-41,33,239,13,43,-4
12050,-37,30,240,8,42,-4
12055,-37,36,241,6,41,-4
12060,-37,31,239,7,41,-5
12065,-40,32,241,11,40,-5
12070,-40,32,240,16,42,-3
12075,-40,32,246,21,41,-3
12080,-39,32,240,27,41,0
12085,-36,33,242,32,44,0
12090,-38,36,242,35,46,-2
12095,-38,33,245,35,49,-2
12100,-38,31,232,34,52,-2
12105,-39,36,241,32,52,-2
12110,-40,33,242,27,51,-3
12115,-40,35,242,22,50,-4
12120,-36,34,241,16,48,-6
12125,-43,35,239,12,46,-6
12130,-41,32,241,9,45,-6
12135,-37,32,241,7,45,-7
12140,-38,33,241,6,44,-6
12145,-40,33,242,8,44,-7
12150,-41,35,243,9,45,-5
12155,-40,34,242,10,48,-4
12160,-39,34,242,9,50,-4
12165,-41,33,243,11,53,-3
12170,-41,36,240,12,56,-2
12175,-39,32,242,12,57,-2
12180,-38,32,241,13,58,-2
12185,-38,33,240,13,59,-2
12190,-39,32,238,13,60,-2
12195,-40,33,241,15,59,-1
12200,-39,31,241,16,59,-1
12205,-39,31,237,17,58,0
12210,-32,36,236,13,56,-1
12215,-39,37,240,12,56,1
12220,-38,34,241,8,55,1
12225,-40,33,240,2,52,3
12230,-37,36,241,-8,50,3
12235,-40,34,243,-19,46,3
12240,-40,34,240,-29,41,2
12245,-37,33,242,-37,42,0
12250,-38,33,246,-44,41,-2
12255,-38,32,244,-46,42,-3
12260,-39,32,242,-41,45,-3
12265,-37,31,244,-36,49,-2
12270,-39,32,242,-27,54,-2
12275,-38,30,242,-17,58,-3
12280,-38,32,239,-7,63,-1
12285,-40,35,240,-2,63,-1
12290,-39,32,242,-3,65,-1
12295,-39,33,242,-7,65,-1
12300,-40,36,239,-17,64,-1
12305,-37,35,242,-30,61,-2
12310,-36,37,240,-44,60,-3
12315,-38,31,244,-58,59,-5
12320,-38,33,250,-68,56,-5
12325,-39,33,244,-71,54,-4
12330,-36,33,245,-75,51,-6
12335,-37,32,245,-76,50,-6
12340,-39,33,240,-72,48,-6
12345,-39,35,246,-66,49,-5
12350,-38,34,244,-58,50,-5
12355,-39,32,244,-50,50,-6
12360,-38,31,240,-45,52,-5
12365,-39,31,242,-41,56,-6
12370,-38,33,241,-42,59,-6
12375,-40,34,242,-43,62,-8
12380,-41,33,244,-46,65,-8
12385,-39,32,241,-47,67,-7
12390,-40,30,243,-49,70,-9
12395,-40,32,243,-50,72,-8
12400,-38,32,244,-49,73,-6
12405,-41,35,240,-46,75,-7
12410,-39,32,243,-42,77,-4
12415,-36,31,244,-39,79,-3
12420,-38,33,239,-34,82,-2
12425,-38,37,239,-32,84,-3
12430,-40,31,241,-27,86,-1
12435,-36,35,241,-25,87,0
12440,-34,31,243,-24,87,2
12445,-37,33,240,-25,88,3
12450,-37,34,242,-24,86,3
12455,-38,32,241,-24,85,4
12460,-38,33,241,-24,84,4
12465,-39,33,240,-25,82,2
12470,-37,31,243,-24,80,3
12475,-37,33,241,-23,80,2
12480,-41,30,239,-24,79,2
12485,-38,30,245,-24,77,0
12490,-39,31,244,-24,77,1
12495,-36,30,242,-26,77,0
12500,-38,30,243,-26,78,0
12505,-41,32,242,-28,78,-2
12510,-39,32,241,-28,79,0
12515,-42,32,242,-26,80,1
12520,-39,31,239,-28,77,2
12525,-42,31,244,-26,78,1
12530,-37,30,241,-24,77,1
12535,-35,45,239,-22,77,1
12540,-42,26,229,-23,76,-1
12545,-36,33,245,-25,75,1
12550,-32,29,244,-30,75,-1
12555,-40,38,238,-34,75,-1
12560,-40,39,247,-34,75,-2
12565,-37,24,231,-32,76,-2
12570,-37,29,234,-28,76,-3
12575,-40,23,252,-18,73,-5
12580,-44,38,240,-8,73,-7
12585,-41,31,245,-1,72,-8
12590,-40,31,243,7,73,-10
12595,-37,30,245,12,74,-9
12600,-38,30,242,15,76,-9
12605,-40,30,242,19,79,-6
12610,-39,27,244,21,78,-5
12615,-39,27,237,21,80,-5
12620,-38,26,239,22,79,-4
12625,-40,29,235,24,79,-3
12630,-38,28,243,25,78,-6
12635,-39,28,245,26,78,-7
12640,-41,31,245,25,78,-9
12645,-44,30,241,28,77,-9
12650,-47,28,235,31,76,-11
12655,-42,27,242,35,76,-11
12660,-41,35,236,34,78,-10
12665,-40,33,245,24,86,-6
12670,-41,31,243,22,84,-4
12675,-41,33,237,16,73,-6
12680,-41,32,241,8,62,-7
12685,-36,31,244,-2,49,-7
12690,-38,13,260,-11,42,-8
12695,-48,45,243,-14,37,-8
12700,-47,45,261,-14,40,-7
12705,-38,37,243,-11,44,-6
12710,-39,40,242,-7,48,-5
12715,-37,27,241,-4,51,-4
12720,-34,36,246,-2,55,-3
12725,-38,29,248,-1,60,-1
12730,-38,32,243,-2,67,-1
12735,-37,45,240,3,72,0
12740,-35,32,246,7,74,0
12745,-37,37,240,9,77,-1
12750,-37,35,240,10,76,1
12755,-39,36,245,9,73,1
12760,-37,37,239,5,71,1
12765,-39,37,243,1,66,0
12770,-37,37,243,-5,64,0
12775,-40,35,245,-10,59,-1
12780,-40,39,248,-14,58,-3
12785,-38,40,239,-19,54,-2
12790,-39,31,243,-22,54,-4
12795,-42,29,239,-24,52,-3
12800,-43,31,244,-25,55,-1
12805,-42,26,241,-25,57,-2
12810,-36,34,241,-23,59,-1
12815,-36,29,241,-20,64,-1
12820,-36,30,245,-18,65,1
12825,-37,32,242,-14,68,1
12830,-36,32,240,-12,70,2
12835,-37,37,237,-11,72,0
12840,-34,42,244,-11,73,2
12845,-39,34,246,-11,74,1
12850,-38,32,235,-13,73,1
12855,-34,21,235,-13,72,1
12860,-39,48,238,-14,71,0
12865,-38,42,243,-15,70,-2
12870,-38,24,249,-15,66,-3
12875,-30,33,237,-15,66,-3
12880,-34,23,236,-15,65,-4
12885,-38,26,265,-15,63,-4
12890,-46,30,255,-20,60,-3
12895,-40,33,244,-24,61,-4
12900,-38,32,244,-28,61,-4
12905,-39,30,242,-26,63,-4
12910,-38,31,242,-21,65,-5
12915,-36,25,248,-13,67,-7
12920,-47,22,242,-4,68,-7
12925,-49,28,238,3,72,-6
12930,-40,29,239,9,73,-6
12935,-34,19,236,12,73,-5
12940,-36,29,259,12,71,-3
12945,-46,34,220,8,69,-5
12950,-47,38,235,-1,68,-4
12955,-26,32,228,-8,67,-6
12960,-35,32,244,-17,64,-5
12965,-38,39,242,-24,63,-5
12970,-36,33,243,-31,62,-5
12975,-39,34,243,-38,63,-5
12980,-39,31,245,-43,64,-5
12985,-36,32,246,-46,65,-6
12990,-46,24,245,-47,65,-5
12995,-38,41,239,-46,66,-6
13000,-37,32,250,-44,68,-5
13005,-39,30,239,-40,68,-4
13010,-38,39,245,-35,71,-5
13015,-35,30,243,-27,73,-5
13020,-36,30,240,-19,72,-5
13025,-37,35,240,-13,73,-4
13030,-36,32,241,-10,73,-4
13035,-36,33,237,-11,72,-3
13040,-39,33,237,-12,72,-4
13045,-39,35,237,-14,72,-3
13050,-39,30,241,-15,71,-2
13055,-37,43,242,-16,67,-2
13060,-39,32,241,-16,66,-3
13065,-38,33,241,-13,65,-3
13070,-37,31,240,-11,62,-3
13075,-42,35,240,-8,61,-2
13080,-40,32,234,-5,60,-3
13085,-38,31,241,-4,59,-4
13090,-38,33,244,-4,58,-3
13095,-39,32,240,-5,59,-3
13100,-34,31,242,-7,60,-1
13105,-37,26,249,-9,60,-1
13110,-37,30,239,-11,61,-2
13115,-40,33,242,-12,64,-2
13120,-38,32,244,-14,65,-2
13125,-38,35,241,-15,64,-1
13130,-37,27,243,-16,63,-2
13135,-38,32,241,-20,65,0
13140,-40,30,242,-22,68,-3
13145,-39,31,244,-26,69,-1
13150,-38,32,243,-30,69,-2
13155,-39,30,243,-30,72,-1
13160,-38,31,241,-32,72,-1
13165,-39,31,241,-31,75,0
13170,-36,29,245,-29,75,0
13175,-37,29,241,-24,77,0
13180,-36,32,239,-21,76,1
13185,-38,28,242,-15,76,0
13190,-33,32,244,-14,74,1
13195,-36,33,243,-16,73,1
13200,-36,32,244,-21,73,2
13205,-41,30,243,-25,72,0
13210,-36,31,245,-27,73,-1
13215,-39,32,243,-23,70,0
13220,-38,34,244,-17,68,-2
13225,-38,29,240,-13,66,-3
13230,-37,32,242,-10,66,-4
13235,-39,33,242,-9,67,-3
13240,-36,30,238,-9,70,-4
13245,-38,35,241,-7,72,-3
13250,-39,34,240,-5,76,-2
13255,-38,31,242,-3,79,0
13260,-39,29,242,0,80,1
13265,-40,31,241,3,83,2
13270,-37,28,241,7,86,2
13275,-38,32,241,12,87,2
13280,-42,26,242,18,86,1
13285,-43,30,237,24,87,-2
13290,-42,31,241,29,86,-4
13295,-42,30,242,37,86,-6
13300,-38,26,239,45,84,-8
13305,-40,26,240,51,84,-9
13310,-41,34,239,55,83,-8
13315,-42,31,241,55,79,-7
13320,-43,33,240,52,72,-6
13325,-41,36,241,44,62,-5
13330,-39,33,239,32,55,-6
13335,-37,34,237,17,50,-7
13340,-40,32,240,1,46,-6
13345,-41,33,242,-14,47,-7
13350,-41,32,242,-21,46,-7
13355,-42,33,242,-19,44,-8
13360,-35,31,240,-20,49,-7
13365,-38,34,239,-19,54,-7
13370,-36,31,243,-15,60,-3
13375,-41,32,239,-6,67,-3
13380,-36,35,243,-3,76,0
13385,-40,35,246,4,85,0
13390,-39,34,243,11,87,0
13395,-39,33,240,17,88,0
13400,-37,32,242,21,86,-2
13405,-32,31,246,23,83,0
13410,-39,35,242,24,78,0
13415,-38,37,243,22,74,-1
13420,-38,36,241,19,67,0
13425,-38,32,242,16,62,-2
13430,-38,33,245,14,57,-3
13435,-38,33,244,9,54,-2
13440,-38,34,240,6,52,-5
13445,-40,36,238,1,53,-4
13450,-38,34,239,-8,57,-4
13455,-39,34,243,-17,62,-5
13460,-39,36,242,-21,63,-4
13465,-41,35,241,-23,63,-4
13470,-41,34,244,-20,62,-3
13475,-38,34,245,-14,60,-2
13480,-39,34,247,-4,56,-1
13485,-38,34,245,5,57,0
13490,-37,31,242,9,59,1
13495,-39,37,240,10,64,1
13500,-35,35,241,9,66,2
13505,-39,32,243,8,68,3
13510,-37,32,240,6,69,2
13515,-40,38,228,2,70,3
13520,-39,34,240,-1,68,2
13525,-37,31,241,-4,67,2
13530,-38,35,241,-7,67,2
13535,-39,34,243,-12,65,3
13540,-37,33,244,-18,64,4
13545,-37,35,242,-25,66,4
13550,-38,34,239,-31,69,4
13555,-37,33,242,-36,72,1
13560,-38,33,242,-34,71,0
13565,-41,29,242,-29,72,-1
13570,-40,27,243,-18,71,-1
13575,-42,30,240,-5,70,-1
13580,-39,30,240,6,69,0
13585,-38,29,242,15,68,-2
13590,-40,31,243,20,66,-2
13595,-41,36,244,20,66,-1
13600,-41,33,242,18,64,-3
13605,-41,33,242,18,63,-4
13610,-38,33,241,15,65,-5
13615,-42,33,240,13,66,-5
13620,-39,30,241,13,66,-5
13625,-38,34,241,10,65,-2
13630,-36,31,235,5,68,-3
13635,-37,36,241,-6,73,-3
13640,-38,35,238,-15,79,-1
13645,-37,36,244,-22,81,-2
13650,-36,35,243,-27,80,-4
13655,-35,34,243,-25,76,-5
13660,-39,34,246,-20,74,-7
13665,-37,39,241,-14,72,-5
13670,-40,35,245,-6,69,-5
13675,-38,36,241,0,68,-5
13680,-38,36,240,2,68,-4
13685,-39,33,242,2,67,-4
13690,-40,37,238,0,67,-3
13695,-41,36,240,-4,68,-2
13700,-43,37,238,-7,67,-1
13705,-39,34,239,-12,67,-2
13710,-38,36,237,-12,65,-1
13715,-41,34,240,-13,64,-1
13720,-40,38,238,-14,62,-1
13725,-40,38,245,-17,64,-1
13730,-43,37,243,-17,62,-2
13735,-48,36,243,-12,59,-2
13740,-42,34,243,-10,59,-3
13745,-39,32,243,-6,57,-5
13750,-40,35,243,-2,57,-4
13755,-42,34,240,2,56,-4
13760,-39,34,241,3,58,-4
13765,-39,34,243,4,58,-4
13770,-39,33,244,5,60,-3
13775,-37,34,243,2,62,-3
13780,-37,34,240,-3,66,-2
13785,-42,34,241,-9,67,-4
13790,-40,33,243,-13,67,-5
13795,-40,36,244,-16,69,-7
13800,-39,33,241,-16,67,-6
13805,-39,36,238,-18,66,-6
13810,-37,32,239,-20,67,-3
13815,-40,33,241,-24,68,-3
13820,-39,32,239,-25,68,-2
13825,-40,31,244,-22,67,-2
13830,-39,33,243,-20,64,-3
13835,-40,31,244,-16,65,-1
13840,-36,32,240,-14,65,1
13845,-37,27,238,-14,67,3
13850,-38,31,240,-18,67,4
13855,-38,33,246,-25,67,3
13860,-37,35,241,-29,68,2
13865,-39,36,240,-33,67,4
13870,-38,35,241,-35,66,4
13875,-38,32,243,-33,67,1
13880,-39,33,246,-29,64,1
13885,-35,35,240,-23,62,0
13890,-38,36,241,-18,60,-2
13895,-38,37,241,-16,60,-2
13900,-36,36,239,-15,61,-2
13905,-35,36,244,-16,62,-3
13910,-35,34,241,-17,64,-1
13915,-34,33,242,-18,67,2
13920,-38,32,243,-18,71,1
13925,-35,32,242,-18,75,0
13930,-40,34,243,-13,75,0
13935,-40,33,243,-5,78,-2
13940,-41,33,243,3,79,-5
13945,-40,31,241,10,81,-6
13950,-36,20,255,19,84,-8
13955,-38,34,242,29,86,-10
13960,-41,31,239,37,88,-10
13965,-39,31,239,44,86,-12
13970,-40,34,238,52,83,-11
13975,-42,34,238,54,80,-9
13980,-42,35,240,53,77,-9
13985,-44,36,239,48,70,-9
13990,-38,32,238,40,62,-9
13995,-41,38,236,31,57,-7
14000,-38,35,239,22,53,-7
14005,-40,37,243,16,48,-6
14010,-41,39,240,13,46,-4
14015,-36,35,240,7,47,-3
14020,-38,35,242,2,47,-2
14025,-40,36,243,1,51,-2
14030,-39,36,242,4,55,-3
14035,-39,36,239,10,57,-1
14040,-38,34,243,17,60,0
14045,-37,36,244,25,63,2
14050,-38,35,244,35,65,2
14055,-36,35,242,41,70,0
14060,-31,43,234,42,74,1
14065,-37,35,239,40,76,-1
14070,-37,38,240,34,77,-1
14075,-36,39,241,28,77,-1
14080,-38,37,238,21,74,-1
14085,-38,36,243,16,69,0
14090,-40,39,241,11,64,-2
14095,-37,37,239,9,61,-2
14100,-41,36,239,5,59,-2
14105,-38,39,241,2,57,-3
14110,-38,39,240,1,57,-2
14115,-40,37,243,-2,58,-2
14120,-38,33,244,-1,57,-4
14125,-39,36,240,0,56,-2
14130,-38,36,242,-1,53,-3
14135,-37,33,241,-1,54,-3
14140,-40,34,243,-1,54,-3
14145,-37,32,243,-2,54,-3
14150,-40,36,243,-3,56,-2
14155,-37,34,240,-6,55,-3
14160,-39,37,247,-6,56,-2
14165,-39,35,239,-9,57,-2
14170,-43,33,248,-12,57,-2
14175,-41,34,246,-11,56,0
14180,-39,36,242,-11,54,0
14185,-39,39,244,-11,52,0
14190,-36,36,241,-12,50,-1
14195,-36,35,238,-19,51,0
14200,-38,41,243,-31,54,0
14205,-35,36,245,-38,56,1
14210,-36,34,238,-43,58,1
14215,-37,37,241,-41,62,-1
14220,-37,34,241,-35,66,0
14225,-37,36,242,-29,70,0
14230,-39,32,243,-20,75,-2
14235,-37,33,238,-8,77,-1
14240,-38,36,240,3,76,-2
14245,-36,35,241,11,74,-1
14250,-39,34,243,13,75,-1
14255,-39,36,241,13,70,-1
14260,-36,37,241,10,66,-2
14265,-39,34,240,4,64,-4
14270,-37,37,238,-2,62,-4
14275,-35,35,243,-9,59,-5
14280,-37,34,238,-16,56,-6
14285,-38,38,239,-22,55,-6
14290,-41,37,242,-30,57,-6
14295,-39,40,240,-36,56,-4
14300,-39,36,245,-38,55,-6
14305,-37,35,241,-37,55,-7
14310,-35,35,242,-35,53,-8
14315,-36,39,244,-27,51,-8
14320,-36,33,241,-19,54,-10
14325,-37,37,242,-13,57,-7
14330,-36,37,241,-12,59,-8
14335,-39,38,241,-11,60,-7
14340,-38,36,240,-12,61,-7
14345,-41,36,239,-14,62,-7
14350,-39,34,241,-17,61,-8
14355,-38,36,241,-20,62,-5
14360,-38,35,239,-23,62,-6
14365,-39,35,244,-26,62,-7
14370,-39,38,242,-26,63,-5
14375,-35,35,240,-26,63,-4
14380,-39,36,244,-23,65,-2
14385,-38,33,240,-22,67,-2
14390,-32,43,242,-21,67,-4
14395,-38,37,241,-19,68,-2
14400,-38,38,248,-19,67,-1
14405,-35,33,243,-20,68,0
14410,-37,37,242,-22,68,-1
14415,-38,36,240,-23,66,2
14420,-40,39,243,-27,66,0
14425,-38,37,237,-31,67,1
14430,-37,37,240,-33,67,0
14435,-35,37,241,-35,65,1
14440,-38,36,244,-38,65,0
14445,-37,34,242,-41,64,0
14450,-37,34,244,-44,65,0
14455,-36,34,244,-46,65,-1
14460,-37,32,243,-49,67,0
14465,-38,33,242,-51,68,1
14470,-37,34,243,-55,70,0
14475,-37,37,242,-59,69,1
14480,-37,35,241,-64,69,0
14485,-37,32,245,-65,71,2
14490,-37,35,246,-66,71,-1
14495,-40,25,237,-65,71,0
14500,-36,31,241,-66,72,-1
14505,-37,34,241,-68,73,-1
14510,-38,36,243,-69,74,0
14515,-36,35,239,-72,74,1
14520,-36,32,242,-72,75,0
14525,-37,33,242,-75,74,-1
14530,-36,36,244,-77,75,-2
14535,-36,33,242,-78,73,0
14540,-38,34,240,-79,74,0
14545,-38,35,245,-81,72,0
14550,-38,34,242,-81,72,1
14555,-39,38,241,-82,71,1
14560,-37,36,241,-83,72,0
14565,-39,32,245,-86,72,0
14570,-39,36,244,-86,74,1
14575,-40,33,242,-87,75,2
14580,-38,26,244,-89,78,1
14585,-40,29,244,-88,78,0
14590,-39,35,241,-90,79,0
14595,-38,33,237,-87,81,0
14600,-38,28,241,-87,80,-1
14605,-35,30,247,-86,80,-1
14610,-38,32,245,-87,79,-1
14615,-38,31,242,-89,79,-2
14620,-39,29,245,-91,79,-2
14625,-41,32,241,-96,81,-2
14630,-40,34,244,-98,80,0
14635,-39,32,244,-98,82,0
14640,-38,31,242,-98,83,1
14645,-37,29,242,-96,87,2
14650,-34,28,240,-94,89,3
14655,-39,28,241,-89,91,2
14660,-38,31,243,-82,93,3
14665,-37,33,239,-75,93,2
14670,-38,30,240,-69,93,3
14675,-37,31,242,-63,91,0
14680,-37,29,245,-61,90,-1
14685,-38,32,240,-63,90,0
14690,-37,30,244,-67,92,0
14695,-38,33,242,-73,93,0
14700,-39,33,242,-77,94,-1
14705,-38,29,243,-80,97,-1
14710,-39,28,246,-76,97,-3
14715,-41,34,238,-68,96,-4
14720,-40,31,240,-61,96,-6
14725,-37,29,241,-54,96,-7
14730,-40,26,241,-49,96,-8
14735,-39,29,237,-43,99,-7
14740,-37,27,241,-37,103,-8
14745,-38,29,242,-30,106,-5
14750,-42,26,245,-23,110,-2
14755,-39,28,244,-17,113,0
14760,-41,27,244,-12,115,3
14765,-44,27,245,-9,116,2
14770,-39,29,243,-7,116,0
14775,-42,24,241,-7,118,-1
14780,-41,25,244,-6,117,-2
14785,-42,25,240,-3,118,-5
14790,-41,29,239,1,114,-3
14795,-43,27,241,4,111,-6
14800,-42,30,239,3,109,-2
14805,-39,28,238,-3,104,-3
14810,-40,32,239,-12,100,-1
14815,-38,30,240,-24,93,-1
14820,-41,32,237,-41,87,1
14825,-44,22,238,-56,82,1
14830,-39,29,242,-68,80,0
14835,-38,28,243,-77,79,0
14840,-39,27,241,-79,79,1
14845,-38,30,243,-76,80,-1
14850,-41,27,244,-71,82,1
14855,-40,30,244,-64,85,1
14860,-37,31,243,-53,88,4
14865,-38,28,242,-43,91,4
14870,-38,28,250,-31,93,5
14875,-40,28,243,-23,95,5
14880,-38,28,242,-16,96,5
14885,-41,31,244,-16,99,4
14890,-39,31,245,-18,98,2
14895,-41,30,244,-21,97,0
14900,-38,31,246,-25,91,-2
14905,-40,31,237,-31,85,-3
14910,-41,33,240,-38,84,-4
14915,-40,31,240,-48,83,-6
14920,-42,32,242,-55,81,-6
14925,-39,30,240,-61,82,-6
14930,-37,29,240,-64,83,-8
14935,-42,30,242,-64,84,-7
14940,-37,27,243,-63,86,-5
14945,-41,29,240,-59,90,-4
14950,-41,28,245,-57,92,-3
14955,-41,25,243,-51,90,-2
14960,-41,25,243,-44,89,-1
14965,-40,26,243,-38,86,-2
14970,-39,28,244,-33,86,0
14975,-43,30,240,-31,85,1
14980,-39,26,242,-33,86,0
14985,-41,27,247,-34,86,-2
14990,-45,25,239,-33,86,-2
14995,-42,24,244,-30,86,-1
