timestamp,acc_x,acc_y,acc_z,gyro_x,gyro_y,gyro_z
0,13,-250,5,78,12,-10
5,7,-247,4,77,12,-11
10,10,-251,5,76,14,-13
15,13,-250,6,75,14,-12
20,13,-247,3,75,16,-14
25,22,-248,-1,75,17,-14
30,11,-249,3,76,17,-13
35,10,-246,2,76,16,-12
40,10,-250,3,77,16,-13
45,12,-245,5,76,15,-11
50,9,-246,4,75,14,-13
55,11,-249,4,74,13,-14
60,13,-250,4,73,10,-12
65,13,-252,4,70,10,-12
70,10,-246,7,67,9,-14
75,11,-248,4,68,9,-14
80,18,-250,7,66,9,-15
85,9,-246,3,67,9,-15
90,9,-246,4,67,9,-15
95,9,-248,2,67,9,-13
100,10,-251,7,66,10,-12
105,12,-249,0,66,11,-12
110,8,-249,7,64,11,-11
115,16,-247,5,64,12,-11
120,11,-249,1,62,11,-10
125,16,-250,6,63,11,-10
130,9,-250,8,62,10,-9
135,13,-248,1,61,10,-9
140,12,-248,5,61,10,-11
145,9,-249,3,62,9,-13
150,13,-248,3,62,9,-13
155,13,-250,5,63,8,-12
160,14,-251,4,63,9,-13
165,15,-251,4,63,10,-13
170,12,-246,3,62,9,-12
175,13,-248,4,63,9,-13
180,12,-250,5,61,10,-13
185,7,-248,8,61,10,-12
190,13,-247,5,60,11,-10
195,10,-244,5,59,10,-10
200,13,-250,4,59,10,-11
205,12,-248,1,57,10,-11
210,12,-247,6,56,9,-12
215,13,-248,6,56,9,-12
220,10,-246,2,56,9,-11
225,14,-246,3,55,9,-12
230,11,-244,5,56,9,-13
235,12,-245,2,57,10,-13
240,12,-248,3,58,10,-13
245,11,-246,7,59,10,-13
250,11,-249,5,60,10,-15
255,15,-249,5,60,10,-13
260,10,-248,4,62,9,-13
265,12,-249,2,62,11,-15
270,12,-250,2,63,11,-14
275,11,-245,4,63,12,-14
280,14,-249,4,65,11,-14
285,12,-251,1,67,11,-13
290,11,-246,4,68,11,-11
295,9,-247,4,70,12,-12
300,11,-247,3,70,11,-11
305,12,-249,4,71,11,-11
310,13,-247,4,71,11,-13
315,14,-249,7,73,11,-12
320,12,-248,7,74,12,-10
325,15,-250,6,74,10,-10
330,13,-249,6,75,10,-11
335,13,-247,3,75,9,-11
340,12,-246,3,76,10,-13
345,12,-246,9,75,9,-12
350,13,-248,8,73,8,-14
355,11,-245,8,72,9,-13
360,13,-246,5,71,10,-12
365,11,-245,5,70,10,-12
370,12,-249,3,69,13,-13
375,13,-252,5,67,12,-13
380,10,-246,7,68,15,-13
385,13,-250,3,67,15,-14
390,12,-250,7,65,15,-12
395,18,-251,13,65,16,-11
400,14,-250,7,63,16,-12
405,13,-250,4,63,14,-11
410,14,-251,5,63,15,-12
415,15,-247,6,65,15,-11
420,11,-249,5,63,14,-12
425,14,-250,5,65,12,-13
430,16,-248,5,61,11,-14
435,15,-248,7,59,9,-15
440,10,-248,1,57,8,-13
445,11,-245,2,54,5,-14
450,11,-245,2,52,5,-13
455,12,-250,4,49,5,-12
460,12,-249,7,46,5,-12
465,11,-248,6,45,6,-12
470,14,-249,7,45,6,-12
475,13,-249,4,44,8,-13
480,11,-252,4,44,8,-14
485,10,-246,2,47,8,-14
490,12,-248,8,49,7,-15
495,13,-249,3,54,7,-17
500,13,-249,6,57,7,-13
505,11,-249,4,60,7,-13
510,15,-249,1,63,7,-13
515,11,-248,5,63,7,-12
520,13,-244,5,62,6,-11
525,15,-247,5,62,6,-10
530,13,-246,6,59,8,-11
535,10,-244,10,58,7,-11
540,11,-250,7,56,7,-10
545,10,-251,8,53,7,-9
550,12,-248,8,54,6,-9
555,11,-249,13,52,8,-8
560,14,-249,9,53,8,-7
565,9,-248,7,56,9,-9
570,13,-251,8,57,10,-7
575,16,-253,5,58,12,-7
580,15,-252,6,60,13,-8
585,12,-247,7,62,13,-8
590,13,-244,1,62,13,-11
595,11,-252,6,62,12,-10
600,10,-247,8,60,11,-12
605,13,-250,6,57,7,-13
610,17,-247,0,52,6,-11
615,13,-247,7,46,6,-12
620,11,-247,5,41,4,-12
625,7,-248,10,38,4,-12
630,10,-247,8,38,4,-9
635,11,-249,6,40,4,-10
640,11,-249,5,40,6,-11
645,12,-249,4,43,7,-10
650,11,-245,4,43,9,-11
655,14,-250,3,44,11,-11
660,12,-245,5,44,11,-11
665,15,-246,3,42,11,-10
670,13,-249,3,39,11,-10
675,14,-248,4,35,11,-11
680,12,-247,3,32,10,-12
685,14,-248,5,33,10,-13
690,12,-250,4,33,9,-13
695,15,-248,2,35,8,-14
700,12,-246,4,37,7,-16
705,12,-249,3,39,6,-16
710,12,-248,9,42,4,-16
715,12,-247,9,44,3,-16
720,11,-248,7,46,3,-14
725,13,-248,2,48,1,-13
730,12,-251,4,49,1,-11
735,13,-247,3,48,2,-10
740,9,-249,6,47,4,-10
745,11,-247,5,45,5,-8
750,14,-246,3,45,5,-7
755,13,-248,3,46,6,-7
760,14,-252,3,47,8,-6
765,13,-249,5,49,8,-5
770,13,-250,11,51,9,-7
775,15,-245,3,53,9,-9
780,12,-244,4,54,9,-7
785,14,-246,2,57,10,-9
790,12,-247,4,59,10,-10
795,13,-246,3,62,11,-13
800,16,-251,5,62,12,-14
805,9,-244,4,64,15,-14
810,15,-248,5,63,14,-12
815,12,-248,7,66,15,-14
820,8,-245,4,67,15,-15
825,11,-243,4,68,15,-14
830,10,-248,6,69,14,-13
835,9,-246,6,68,14,-12
840,11,-250,10,69,13,-11
845,11,-250,5,70,12,-9
850,12,-252,6,69,10,-8
855,11,-247,6,67,9,-9
860,12,-249,2,66,9,-8
865,11,-250,4,64,8,-8
870,12,-248,5,63,7,-9
875,14,-253,12,62,9,-11
880,11,-248,2,62,9,-13
885,10,-247,4,64,8,-12
890,13,-252,4,65,9,-14
895,11,-248,5,66,10,-13
900,11,-248,6,68,11,-13
905,10,-245,4,70,14,-17
910,13,-246,2,74,15,-15
915,10,-246,1,77,16,-16
920,12,-246,4,79,15,-17
925,12,-248,6,81,17,-16
930,8,-247,4,82,18,-17
935,13,-246,4,84,17,-18
940,15,-249,3,84,18,-18
945,13,-248,5,85,17,-18
950,14,-244,7,84,16,-19
955,13,-250,5,83,14,-17
960,12,-245,7,80,12,-17
965,10,-250,6,79,10,-15
970,10,-247,3,76,9,-13
975,15,-248,7,75,8,-13
980,13,-247,1,73,7,-14
985,15,-251,4,71,4,-15
990,10,-246,6,73,5,-15
995,12,-248,3,74,5,-15
1000,9,-248,6,74,5,-13
1005,13,-250,5,77,5,-13
1010,11,-250,5,78,5,-11
1015,10,-246,3,77,5,-13
1020,10,-249,9,76,6,-12
1025,12,-251,4,76,7,-11
1030,13,-253,9,77,8,-11
1035,8,-248,6,76,8,-12
1040,12,-250,6,76,8,-12
1045,14,-252,4,77,9,-14
1050,13,-249,6,77,8,-14
1055,12,-248,5,77,9,-16
1060,14,-249,6,75,10,-16
1065,15,-248,7,74,9,-16
1070,13,-244,6,74,10,-17
1075,11,-248,6,72,11,-17
1080,18,-249,8,70,11,-20
1085,14,-247,6,70,12,-20
1090,16,-246,8,67,11,-19
1095,14,-248,8,65,13,-20
1100,12,-245,9,62,14,-21
1105,12,-248,8,59,13,-21
1110,11,-245,6,57,13,-20
1115,13,-251,8,54,14,-19
1120,12,-248,6,51,13,-17
1125,14,-248,7,50,12,-18
1130,14,-249,8,49,10,-17
1135,11,-249,7,49,8,-17
1140,11,-246,4,50,7,-17
1145,14,-251,12,51,6,-20
1150,13,-250,9,53,8,-18
1155,12,-251,9,53,5,-19
1160,14,-249,8,51,5,-17
1165,17,-253,6,51,4,-17
1170,16,-249,9,48,3,-15
1175,11,-248,6,46,2,-16
1180,14,-246,9,44,2,-16
1185,13,-249,12,41,3,-15
1190,16,-249,7,39,3,-15
1195,13,-249,8,39,3,-14
1200,11,-247,11,38,5,-16
1205,12,-250,9,40,6,-15
1210,10,-252,11,41,7,-18
1215,11,-248,11,42,8,-19
1220,11,-250,6,46,12,-20
1225,16,-250,5,51,12,-20
1230,15,-252,7,56,10,-20
1235,10,-248,3,61,11,-19
1240,9,-247,3,65,11,-19
1245,13,-248,5,69,10,-16
1250,17,-249,1,71,10,-16
1255,13,-248,5,73,8,-14
1260,13,-247,3,74,8,-15
1265,10,-245,6,74,7,-15
1270,14,-250,6,72,6,-15
1275,13,-248,7,73,6,-16
1280,11,-244,5,70,6,-17
1285,16,-247,9,66,6,-15
1290,15,-248,9,64,5,-16
1295,14,-248,7,62,5,-15
1300,10,-248,9,59,6,-15
1305,10,-246,11,57,6,-13
1310,11,-252,7,57,6,-13
1315,11,-249,10,56,6,-12
1320,9,-248,10,55,7,-13
1325,11,-249,6,55,8,-14
1330,13,-247,10,55,8,-15
1335,15,-252,6,51,8,-14
1340,12,-247,6,51,8,-18
1345,12,-246,5,49,7,-18
1350,12,-242,9,48,8,-17
1355,13,-249,9,47,7,-19
1360,14,-249,11,44,6,-18
1365,11,-249,5,42,5,-21
1370,14,-249,5,38,3,-20
1375,13,-247,7,35,3,-17
1380,15,-246,8,33,1,-17
1385,15,-247,7,30,1,-15
1390,14,-246,4,28,-1,-12
1395,16,-246,6,24,-2,-13
1400,15,-248,12,21,-4,-13
1405,13,-245,4,19,-5,-13
1410,17,-251,7,17,-4,-14
1415,11,-245,6,17,-4,-13
1420,14,-248,7,19,-4,-13
1425,13,-244,5,21,-3,-14
1430,15,-243,5,25,-2,-15
1435,15,-248,4,26,-2,-15
1440,15,-250,5,29,1,-15
1445,17,-250,7,33,3,-15
1450,12,-249,9,36,5,-17
1455,13,-252,3,38,5,-16
1460,13,-249,4,39,7,-16
1465,10,-241,6,40,8,-15
1470,12,-251,7,40,9,-14
1475,12,-249,5,43,10,-15
1480,11,-248,6,44,12,-16
1485,11,-250,7,47,13,-16
1490,12,-248,7,49,14,-14
1495,13,-246,8,52,15,-16
1500,9,-248,7,52,16,-15
1505,9,-248,7,53,15,-14
1510,11,-248,9,53,14,-14
1515,9,-248,6,52,13,-11
1520,13,-250,3,54,14,-12
1525,12,-248,7,55,13,-11
1530,14,-251,6,59,12,-11
1535,13,-248,7,63,12,-14
1540,14,-248,6,66,12,-13
1545,15,-248,4,69,10,-14
1550,11,-246,1,70,9,-15
1555,12,-249,5,70,11,-14
1560,14,-249,5,70,11,-14
1565,10,-247,11,68,11,-15
1570,10,-251,7,67,10,-16
1575,12,-248,6,64,9,-16
1580,12,-248,8,63,8,-14
1585,10,-248,5,63,8,-14
1590,12,-246,3,64,9,-14
1595,11,-246,4,63,9,-13
1600,10,-246,8,62,9,-14
1605,13,-248,11,60,10,-14
1610,8,-245,5,60,9,-13
1615,13,-249,9,60,11,-14
1620,12,-247,4,59,11,-14
1625,15,-248,1,59,10,-15
1630,11,-248,5,61,10,-15
1635,13,-249,4,60,11,-15
1640,11,-246,5,62,13,-14
1645,17,-248,5,62,14,-15
1650,11,-245,4,61,14,-15
1655,13,-246,3,63,14,-14
1660,13,-249,8,62,16,-16
1665,14,-247,8,62,16,-15
1670,14,-249,7,63,15,-16
1675,14,-244,4,62,16,-16
1680,12,-248,8,63,16,-16
1685,14,-248,5,64,15,-15
1690,16,-250,7,65,16,-16
1695,15,-247,2,65,17,-15
1700,14,-250,5,64,17,-14
1705,13,-249,8,66,15,-15
1710,14,-250,6,66,15,-15
1715,15,-246,4,67,15,-14
1720,12,-248,4,67,13,-14
1725,13,-250,5,68,14,-13
1730,15,-249,7,68,14,-12
1735,14,-248,9,68,14,-14
1740,16,-248,5,68,14,-10
1745,15,-250,8,69,13,-10
1750,16,-251,6,70,13,-9
1755,16,-248,10,70,13,-8
1760,14,-250,9,68,13,-8
1765,15,-248,7,67,12,-7
1770,12,-248,8,66,12,-7
1775,16,-250,9,64,11,-6
1780,14,-248,11,63,10,-9
1785,21,-245,6,62,10,-9
1790,14,-251,6,61,11,-10
1795,14,-248,9,60,10,-8
1800,14,-246,7,60,10,-11
1805,13,-248,7,61,10,-11
1810,13,-247,4,61,10,-9
1815,13,-247,10,60,10,-9
1820,12,-247,8,62,10,-9
1825,12,-246,5,62,11,-8
1830,15,-248,12,63,10,-10
1835,12,-248,4,63,11,-7
1840,10,-249,7,62,13,-7
1845,10,-250,8,61,13,-7
1850,11,-248,7,60,14,-7
1855,12,-248,7,59,15,-6
1860,13,-247,8,58,16,-7
1865,13,-249,6,58,16,-7
1870,13,-249,8,60,17,-8
1875,13,-247,7,61,18,-9
1880,10,-248,4,63,18,-9
1885,16,-251,3,63,18,-8
1890,15,-245,9,65,17,-10
1895,14,-248,6,65,17,-12
1900,9,-243,7,64,15,-12
1905,13,-247,7,64,14,-13
1910,11,-245,9,62,14,-11
1915,13,-247,8,60,13,-10
1920,12,-244,7,58,12,-11
1925,12,-247,10,56,12,-9
1930,13,-249,6,53,12,-8
1935,11,-252,6,51,12,-8
1940,14,-249,8,51,12,-7
1945,10,-244,14,51,12,-8
1950,15,-248,5,52,12,-9
1955,12,-253,10,54,14,-8
1960,9,-249,4,60,12,-9
1965,11,-248,4,64,13,-10
1970,15,-252,0,71,13,-7
1975,13,-253,6,78,14,-9
1980,11,-247,4,83,13,-9
1985,14,-246,5,89,11,-7
1990,14,-250,5,92,11,-7
1995,16,-242,15,95,9,-7
2000,13,-249,4,96,7,-7
2005,14,-249,6,93,5,-7
2010,13,-246,8,87,5,-7
2015,11,-249,11,78,4,-6
2020,11,-247,12,69,4,-7
2025,11,-247,10,61,6,-7
2030,12,-250,16,52,6,-7
2035,13,-247,11,46,8,-8
2040,11,-247,9,41,10,-7
2045,12,-247,13,39,12,-8
2050,11,-250,8,41,13,-7
2055,11,-249,8,41,14,-6
2060,13,-249,7,41,16,-6
2065,13,-249,8,42,17,-6
2070,15,-249,5,41,18,-6
2075,13,-250,10,41,18,-7
2080,14,-249,6,39,17,-7
2085,17,-250,4,38,18,-6
2090,14,-246,7,37,17,-8
2095,14,-249,10,37,14,-9
2100,11,-248,8,37,14,-10
2105,12,-253,13,36,12,-9
2110,13,-247,11,35,11,-11
2115,13,-249,9,34,9,-9
2120,14,-248,9,32,8,-6
2125,13,-247,12,30,7,-6
2130,13,-245,8,27,6,-5
2135,16,-248,5,25,6,-6
2140,12,-245,7,24,5,-4
2145,15,-247,10,22,6,-7
2150,15,-244,6,20,6,-5
2155,13,-248,7,19,6,-6
2160,13,-245,7,19,6,-9
2165,13,-246,6,17,8,-9
2170,12,-248,12,17,8,-11
2175,14,-250,11,15,9,-10
2180,12,-247,9,14,7,-12
2185,10,-247,9,12,7,-12
2190,10,-247,12,10,6,-11
2195,12,-248,5,8,4,-12
2200,11,-246,6,6,5,-13
2205,10,-248,9,4,5,-12
2210,11,-253,10,2,5,-10
2215,12,-247,8,0,6,-11
2220,13,-248,12,-4,7,-10
2225,12,-250,6,-6,7,-9
2230,13,-248,6,-9,7,-9
2235,11,-250,6,-11,7,-9
2240,13,-250,8,-11,7,-10
2245,16,-252,8,-11,7,-10
2250,13,-250,4,-9,5,-11
2255,12,-244,7,-9,4,-11
2260,12,-251,2,-6,3,-11
2265,15,-247,5,-4,3,-12
2270,14,-248,3,-1,4,-11
2275,11,-250,4,0,5,-11
2280,14,-247,5,3,4,-11
2285,14,-249,6,4,6,-13
2290,13,-249,4,4,6,-14
2295,13,-250,4,5,7,-14
2300,14,-248,7,7,10,-12
2305,9,-245,9,7,9,-12
2310,9,-244,2,8,11,-12
2315,9,-254,3,8,11,-11
2320,11,-245,3,8,12,-9
2325,12,-249,3,7,14,-9
2330,13,-250,6,7,13,-8
2335,15,-248,2,7,13,-9
2340,14,-245,4,7,13,-9
2345,14,-251,7,8,11,-8
2350,12,-248,0,9,10,-8
2355,12,-250,5,9,11,-10
2360,18,-251,3,11,10,-9
2365,15,-251,2,14,9,-11
2370,12,-248,3,15,7,-14
2375,14,-249,5,17,7,-15
2380,15,-252,4,18,8,-15
2385,12,-250,6,19,8,-14
2390,13,-248,4,19,8,-14
2395,11,-247,4,19,7,-13
2400,13,-248,3,18,8,-13
2405,11,-246,6,19,9,-12
2410,13,-247,2,17,8,-13
2415,16,-245,3,16,8,-11
2420,16,-250,2,15,9,-11
2425,13,-241,3,14,10,-12
2430,12,-248,3,12,9,-12
2435,12,-246,3,11,11,-13
2440,12,-248,2,11,9,-13
2445,15,-251,4,10,8,-9
2450,15,-246,8,11,8,-11
2455,11,-247,3,9,7,-13
2460,14,-251,6,7,7,-12
2465,14,-247,2,6,7,-14
2470,16,-251,3,4,5,-12
2475,20,-249,5,4,4,-12
2480,13,-249,3,3,5,-10
2485,11,-248,1,4,4,-11
2490,11,-248,1,4,6,-11
2495,15,-250,2,4,6,-11
2500,14,-251,4,7,9,-12
2505,15,-247,5,7,9,-10
2510,16,-252,3,10,10,-13
2515,14,-251,1,11,10,-10
2520,14,-246,6,13,12,-11
2525,12,-245,3,14,11,-11
2530,13,-250,-4,15,11,-11
2535,14,-248,-2,14,12,-11
2540,10,-245,0,15,11,-13
2545,12,-248,3,16,12,-13
2550,15,-250,2,20,12,-11
2555,15,-245,3,23,12,-13
2560,10,-247,4,24,12,-15
2565,12,-246,6,25,13,-15
2570,12,-242,2,23,13,-15
2575,11,-242,4,20,16,-15
2580,10,-244,4,19,16,-14
2585,7,-248,3,20,17,-14
2590,12,-249,3,21,17,-13
2595,14,-249,5,23,15,-13
2600,12,-250,2,24,16,-10
2605,15,-250,5,26,16,-12
2610,14,-249,1,25,14,-11
2615,15,-249,3,20,11,-14
2620,14,-250,3,16,9,-15
2625,12,-251,3,8,6,-16
2630,13,-248,1,-1,1,-17
2635,10,-250,1,-12,-4,-19
2640,17,-248,2,-21,-6,-20
2645,11,-244,2,-32,-8,-20
2650,11,-244,5,-41,-11,-21
2655,11,-248,4,-47,-12,-20
2660,10,-244,2,-52,-11,-19
2665,11,-247,1,-55,-8,-20
2670,11,-244,5,-57,-5,-18
2675,10,-247,2,-57,-1,-18
2680,14,-248,5,-57,3,-16
2685,9,-244,2,-57,5,-15
2690,5,-249,0,-55,8,-15
2695,13,-251,0,-52,10,-16
2700,13,-250,0,-49,10,-16
2705,15,-249,0,-45,10,-16
2710,14,-250,1,-41,9,-15
2715,14,-250,-1,-35,7,-15
2720,14,-250,-3,-29,5,-12
2725,16,-253,0,-24,2,-12
2730,14,-249,-2,-19,-1,-11
2735,13,-247,-4,-16,-3,-10
2740,15,-249,-2,-12,-3,-10
2745,8,-244,1,-10,-4,-11
2750,13,-248,2,-10,-4,-10
2755,13,-248,2,-10,-4,-9
2760,12,-246,0,-12,-3,-10
2765,12,-248,2,-13,-2,-10
2770,13,-247,1,-15,-2,-9
2775,10,-244,1,-14,1,-9
2780,13,-246,3,-13,3,-8
2785,12,-249,2,-12,5,-8
2790,10,-247,0,-9,6,-8
2795,7,-246,-11,-9,7,-8
2800,13,-248,0,-8,8,-8
2805,14,-250,0,-7,8,-10
2810,14,-248,1,-7,8,-10
2815,13,-248,2,-8,7,-11
2820,11,-249,-1,-5,8,-14
2825,12,-249,-3,-5,7,-14
2830,12,-249,-2,-6,6,-15
2835,15,-248,-2,-8,6,-16
2840,11,-248,-3,-9,5,-17
2845,11,-247,2,-12,3,-16
2850,10,-251,-5,-12,2,-16
2855,13,-247,-4,-15,2,-15
2860,12,-246,0,-15,0,-14
2865,13,-250,-8,-16,0,-15
2870,14,-248,-8,-16,-2,-14
2875,12,-245,-5,-16,-2,-13
2880,11,-245,-5,-16,-1,-12
2885,13,-250,-5,-13,-1,-13
2890,14,-245,-9,-12,-1,-10
2895,10,-247,-4,-7,-1,-14
2900,13,-252,-2,-3,-1,-13
2905,11,-250,-8,1,-1,-14
2910,14,-251,-7,6,1,-13
2915,14,-253,-5,9,1,-14
2920,13,-249,-6,11,2,-14
2925,12,-249,-3,12,2,-15
2930,14,-251,0,12,2,-14
2935,13,-249,-5,13,3,-15
2940,13,-243,-5,14,4,-15
2945,14,-249,-5,14,3,-15
2950,12,-248,-7,14,5,-15
2955,13,-251,-1,17,6,-17
2960,13,-244,-3,15,6,-17
2965,14,-248,-3,15,6,-16
2970,10,-246,-4,14,5,-17
2975,13,-246,-8,13,4,-17
2980,12,-247,-5,10,1,-18
2985,11,-245,-3,8,-1,-16
2990,15,-245,-2,4,-1,-16
2995,11,-246,-2,3,0,-17
3000,12,-248,-5,3,-1,-17
3005,14,-248,-4,5,-1,-17
3010,11,-242,-2,6,0,-17
3015,12,-248,-3,8,0,-18
3020,12,-244,-7,8,0,-18
3025,15,-246,-8,9,1,-18
3030,14,-247,-9,9,1,-20
3035,12,-251,-4,8,-1,-21
3040,13,-251,-9,7,0,-21
3045,12,-247,-8,8,0,-19
3050,12,-250,-3,9,-2,-19
3055,12,-251,-5,10,-3,-20
3060,12,-244,-10,12,-7,-23
3065,15,-248,-4,11,-11,-23
3070,18,-248,-4,3,-14,-22
3075,15,-246,-7,-6,-16,-21
3080,12,-247,-5,-14,-18,-20
3085,13,-246,-6,-18,-20,-19
3090,13,-247,-13,-20,-19,-19
3095,15,-247,-16,-19,-19,-18
3100,16,-244,-13,-15,-18,-15
3105,13,-243,-12,-10,-18,-16
3110,18,-245,-11,-3,-18,-17
3115,20,-249,-12,-1,-20,-12
3120,19,-244,-12,-4,-21,-13
3125,24,-247,-12,-5,-21,-17
3130,18,-241,-13,-10,-20,-21
3135,14,-243,-16,-22,-22,-11
3140,15,-248,-16,-32,-21,-3
3145,10,-246,-16,-35,-18,2
3150,6,-246,-15,-29,-15,5
3155,9,-243,-12,-16,-11,5
3160,9,-244,-11,-6,-3,7
3165,6,-241,-5,-5,3,9
3170,7,-238,-5,-14,7,10
3175,12,-241,1,-32,11,16
3180,11,-243,11,-51,11,20
3185,10,-241,14,-80,6,29
3190,10,-240,11,-120,2,40
3195,7,-238,4,-180,-3,53
3200,11,-234,-7,-260,-10,61
3205,12,-238,-18,-339,-14,66
3210,13,-244,-25,-385,-16,64
3215,12,-246,-26,-379,-23,53
3220,17,-250,-22,-313,-28,37
3225,13,-256,-24,-211,-33,27
3230,14,-249,-18,-101,-38,12
3235,13,-249,-12,-8,-38,7
3240,13,-250,-5,48,-37,6
3245,12,-251,2,64,-34,9
3250,14,-250,7,45,-32,14
3255,14,-252,2,-4,-27,19
3260,15,-251,-3,-83,-16,25
3265,9,-253,-7,-182,-4,27
3270,5,-254,-24,-278,8,27
3275,7,-256,-39,-335,16,31
3280,10,-254,-36,-332,23,41
3285,11,-253,-43,-267,26,46
3290,12,-254,-39,-158,27,49
3295,13,-252,-33,-35,25,44
3300,16,-245,-27,71,20,36
3305,12,-242,-21,140,12,28
3310,12,-239,-15,155,5,20
3315,13,-235,-14,126,0,18
3320,7,-233,-10,71,0,14
3325,4,-231,-11,8,0,12
3330,3,-224,-8,-49,-1,16
3335,0,-221,-5,-101,6,9
3340,5,-223,-1,-148,8,3
3345,2,-222,-3,-180,11,7
3350,7,-227,-6,-204,10,13
3355,10,-226,-8,-223,4,8
3360,10,-233,-16,-239,-2,3
3365,13,-236,-17,-252,-10,0
3370,10,-237,-14,-256,-19,-3
3375,14,-242,-14,-252,-32,-11
3380,10,-243,-15,-249,-46,-17
3385,10,-247,-14,-254,-60,-23
3390,5,-245,-16,-275,-69,-26
3395,3,-251,-19,-309,-75,-27
3400,7,-251,-20,-342,-76,-25
3405,11,-257,-20,-364,-72,-28
3410,7,-252,-17,-369,-67,-35
3415,12,-252,-16,-363,-67,-37
3420,13,-253,-17,-355,-67,-34
3425,13,-250,-19,-353,-62,-35
3430,13,-247,-20,-361,-59,-33
3435,14,-240,-13,-378,-56,-32
3440,12,-239,-13,-401,-54,-33
3445,17,-240,-21,-428,-54,-31
3450,16,-238,-16,-453,-53,-31
3455,16,-237,-25,-472,-51,-33
3460,15,-235,-25,-488,-50,-38
3465,15,-238,-23,-499,-49,-42
3470,14,-237,-26,-503,-45,-43
3475,13,-239,-28,-499,-42,-44
3480,14,-240,-34,-489,-41,-45
3485,9,-237,-33,-479,-39,-47
3490,10,-241,-38,-473,-36,-45
3495,11,-240,-44,-474,-31,-41
3500,8,-241,-38,-479,-24,-37
3505,10,-244,-40,-486,-15,-33
3510,9,-246,-43,-493,-6,-32
3515,9,-246,-37,-496,6,-33
3520,6,-249,-40,-506,13,-35
3525,9,-245,-46,-524,14,-35
3530,7,-249,-45,-544,17,-34
3535,7,-246,-44,-564,20,-33
3540,6,-244,-47,-582,21,-31
3545,10,-243,-46,-599,22,-30
3550,12,-246,-48,-614,21,-28
3555,10,-249,-47,-626,16,-24
3560,9,-245,-52,-635,12,-20
3565,10,-244,-51,-643,6,-14
3570,14,-248,-53,-646,0,-10
3575,14,-252,-56,-650,-4,-9
3580,14,-248,-53,-650,-8,-7
3585,11,-249,-54,-646,-9,-9
3590,9,-251,-55,-636,-7,-15
3595,7,-254,-56,-620,0,-24
3600,15,-254,-60,-599,7,-30
3605,8,-250,-61,-570,17,-35
3610,10,-251,-62,-534,28,-34
3615,13,-249,-60,-490,36,-27
3620,13,-244,-68,-447,39,-18
3625,12,-243,-66,-421,37,-19
3630,10,-245,-63,-422,32,-26
3635,6,-246,-61,-441,32,-35
3640,5,-248,-60,-470,33,-45
3645,8,-242,-58,-492,38,-50
3650,12,-240,-60,-496,41,-42
3655,9,-238,-62,-493,33,-21
3660,20,-235,-59,-501,16,-2
3665,23,-232,-65,-519,3,11
3670,23,-234,-64,-543,-6,16
3675,19,-238,-64,-574,-9,14
3680,18,-237,-61,-606,-8,6
3685,17,-239,-63,-635,-3,-6
3690,19,-239,-65,-659,3,-14
3695,19,-241,-64,-675,11,-19
3700,23,-239,-66,-682,16,-18
3705,21,-239,-66,-676,19,-17
3710,23,-242,-63,-661,22,-17
3715,19,-238,-67,-644,25,-12
3720,19,-238,-69,-627,30,-9
3725,21,-240,-67,-613,36,-4
3730,18,-241,-70,-598,41,-1
3735,15,-244,-72,-583,44,3
3740,14,-243,-72,-568,46,4
3745,13,-237,-72,-553,43,8
3750,12,-246,-74,-543,39,14
3755,13,-244,-76,-532,30,18
3760,10,-233,-78,-529,22,22
3765,11,-240,-75,-535,12,28
3770,12,-238,-75,-552,-2,34
3775,9,-238,-75,-577,-12,36
3780,13,-235,-79,-607,-24,36
3785,9,-233,-81,-635,-35,35
3790,7,-234,-79,-659,-46,35
3795,1,-230,-85,-675,-57,35
3800,7,-229,-88,-682,-65,35
3805,7,-233,-89,-681,-70,31
3810,6,-227,-85,-680,-76,33
3815,7,-234,-85,-682,-78,36
3820,9,-229,-88,-684,-78,39
3825,10,-229,-88,-684,-80,42
3830,12,-230,-87,-686,-80,46
3835,12,-227,-89,-689,-83,51
3840,9,-227,-88,-694,-82,56
3845,12,-228,-88,-706,-82,58
3850,10,-228,-87,-721,-81,63
3855,7,-226,-86,-744,-83,68
3860,8,-224,-95,-775,-88,73
3865,10,-233,-90,-812,-94,79
3870,5,-229,-89,-851,-97,80
3875,9,-231,-93,-890,-101,82
3880,11,-233,-93,-928,-105,81
3885,6,-232,-99,-962,-109,77
3890,6,-229,-100,-994,-112,75
3895,7,-228,-101,-1025,-113,73
3900,5,-224,-105,-1051,-110,70
3905,6,-223,-106,-1078,-108,67
3910,11,-223,-109,-1105,-104,64
3915,8,-221,-108,-1132,-100,62
3920,9,-220,-118,-1163,-98,62
3925,9,-212,-121,-1193,-95,60
3930,11,-217,-120,-1221,-91,60
3935,14,-215,-123,-1249,-87,59
3940,10,-212,-123,-1271,-82,59
3945,16,-213,-128,-1290,-80,59
3950,16,-212,-130,-1311,-79,59
3955,21,-212,-132,-1330,-78,59
3960,18,-213,-132,-1350,-76,54
3965,17,-213,-128,-1368,-75,51
3970,20,-212,-136,-1387,-70,44
3975,22,-211,-140,-1407,-67,39
3980,18,-211,-140,-1432,-60,33
3985,21,-212,-138,-1460,-53,25
3990,22,-214,-139,-1485,-43,17
3995,17,-214,-139,-1512,-30,12
4000,18,-213,-142,-1539,-16,7
4005,20,-216,-142,-1564,-4,4
4010,17,-215,-147,-1586,7,-1
4015,16,-214,-144,-1603,12,-3
4020,14,-212,-152,-1619,14,-3
4025,13,-210,-147,-1632,16,0
4030,12,-211,-148,-1641,16,2
4035,11,-205,-150,-1642,16,4
4040,11,-207,-154,-1637,11,8
4045,8,-207,-154,-1632,2,10
4050,8,-206,-159,-1620,-6,11
4055,6,-203,-159,-1603,-11,12
4060,4,-203,-160,-1577,-13,16
4065,4,-202,-161,-1550,-12,17
4070,7,-198,-160,-1524,-11,16
4075,2,-197,-160,-1499,-10,12
4080,2,-198,-164,-1476,-10,9
4085,6,-201,-164,-1451,-9,7
4090,2,-198,-170,-1425,-9,6
4095,5,-196,-167,-1397,-14,0
4100,6,-196,-171,-1369,-20,-2
4105,6,-195,-171,-1342,-26,-8
4110,4,-191,-176,-1319,-32,-15
4115,4,-192,-176,-1303,-38,-20
4120,2,-187,-179,-1290,-48,-25
4125,2,-186,-178,-1274,-55,-28
4130,4,-187,-179,-1252,-63,-26
4135,2,-182,-181,-1226,-73,-23
4140,3,-175,-186,-1196,-78,-19
4145,3,-181,-189,-1164,-82,-18
4150,1,-178,-194,-1131,-80,-15
4155,1,-176,-203,-1098,-73,-18
4160,1,-175,-216,-1068,-61,-16
4165,0,-174,-224,-1034,-45,-17
4170,0,-174,-229,-996,-28,-16
4175,5,-172,-232,-955,-9,-13
4180,3,-171,-233,-917,7,-10
4185,7,-172,-239,-883,21,-5
4190,5,-174,-241,-858,31,1
4195,8,-170,-244,-840,40,10
4200,8,-170,-245,-826,46,15
4205,7,-166,-250,-815,51,18
4210,4,-168,-251,-804,58,22
4215,5,-168,-250,-786,64,25
4220,6,-163,-251,-762,67,28
4225,4,-161,-251,-731,69,30
4230,6,-155,-251,-695,67,30
4235,7,-158,-255,-663,62,27
4240,8,-152,-259,-635,51,19
4245,10,-147,-266,-618,38,11
4250,12,-143,-268,-610,24,4
4255,10,-140,-271,-612,11,-4
4260,11,-139,-277,-615,-1,-12
4265,12,-138,-278,-618,-10,-21
4270,12,-136,-280,-621,-18,-26
4275,14,-139,-276,-613,-23,-27
4280,15,-137,-273,-599,-26,-26
4285,16,-139,-275,-572,-27,-26
4290,12,-138,-269,-535,-24,-18
4295,14,-139,-268,-485,-21,-8
4300,14,-133,-270,-429,-17,2
4305,11,-135,-261,-369,-14,8
4310,8,-135,-256,-316,-13,14
4315,9,-134,-255,-279,-12,21
4320,13,-129,-244,-261,-15,23
4325,10,-130,-246,-255,-14,29
4330,6,-128,-242,-259,-17,29
4335,4,-123,-239,-273,-21,26
4340,5,-123,-236,-294,-24,17
4345,8,-121,-232,-315,-32,10
4350,5,-119,-236,-339,-35,4
4355,9,-123,-233,-359,-35,2
4360,5,-115,-233,-373,-26,3
4365,3,-109,-229,-375,-20,3
4370,6,-110,-229,-366,-12,0
4375,3,-107,-229,-343,-6,-8
4380,4,-109,-227,-312,1,-16
4385,7,-111,-225,-278,8,-22
4390,5,-108,-227,-244,12,-27
4395,5,-110,-224,-211,13,-34
4400,1,-104,-221,-180,11,-39
4405,0,-115,-218,-148,6,-46
4410,2,-106,-218,-119,2,-52
4415,2,-105,-216,-93,-4,-57
4420,1,-108,-212,-72,-8,-61
4425,1,-104,-213,-59,-20,-63
4430,0,-107,-215,-51,-27,-68
4435,-1,-105,-218,-53,-37,-70
4440,-4,-107,-219,-56,-50,-69
4445,-3,-113,-224,-58,-62,-68
4450,-4,-110,-227,-48,-77,-68
4455,-7,-114,-227,-33,-89,-68
4460,-10,-121,-233,-9,-97,-71
4465,-11,-119,-237,25,-106,-76
4470,-11,-122,-237,67,-110,-76
4475,-16,-124,-238,110,-113,-76
4480,-14,-129,-233,155,-114,-72
4485,-14,-130,-233,198,-112,-65
4490,-10,-133,-238,238,-117,-62
4495,-12,-132,-232,279,-116,-54
4500,-6,-135,-233,316,-105,-47
4505,-2,-137,-231,346,-93,-36
4510,-5,-131,-229,369,-79,-30
4515,-2,-134,-228,388,-70,-23
4520,-3,-130,-228,402,-62,-20
4525,1,-130,-225,418,-57,-15
4530,1,-129,-227,428,-56,-10
4535,3,-128,-225,440,-55,-11
4540,6,-125,-224,445,-54,-14
4545,5,-124,-224,449,-54,-13
4550,3,-123,-224,452,-59,-15
4555,4,-119,-222,453,-69,-16
4560,8,-120,-225,451,-74,-20
4565,5,-119,-223,444,-77,-20
4570,3,-117,-223,430,-73,-16
4575,9,-116,-220,417,-71,-6
4580,7,-117,-220,406,-69,7
4585,13,-122,-220,393,-69,19
4590,15,-120,-224,381,-70,24
4595,10,-119,-227,377,-66,23
4600,7,-124,-222,384,-62,20
4605,8,-123,-224,399,-58,20
4610,6,-127,-220,415,-50,24
4615,5,-125,-227,433,-40,27
4620,3,-128,-219,446,-23,29
4625,15,-127,-225,459,-6,31
4630,0,-128,-217,468,13,35
4635,6,-131,-216,477,32,45
4640,5,-132,-213,483,46,54
4645,5,-134,-212,486,56,61
4650,5,-135,-207,486,69,62
4655,0,-133,-209,486,89,58
4660,1,-133,-204,486,104,60
4665,1,-133,-200,487,108,66
4670,0,-136,-196,489,114,66
4675,0,-137,-194,491,120,61
4680,-7,-134,-200,499,128,59
4685,-2,-131,-194,512,139,58
4690,0,-132,-194,532,153,58
4695,0,-128,-194,558,170,59
4700,1,-129,-194,587,185,62
4705,1,-127,-190,618,199,65
4710,2,-126,-188,649,207,64
4715,4,-122,-184,678,208,63
4720,4,-122,-185,702,204,55
4725,9,-120,-186,720,194,49
4730,5,-113,-180,732,181,46
4735,2,-117,-185,734,167,42
4740,6,-109,-179,731,157,41
4745,10,-106,-179,721,152,45
4750,9,-107,-177,706,150,51
4755,10,-102,-175,684,151,58
4760,12,-101,-175,658,152,67
4765,11,-104,-178,631,152,75
4770,14,-108,-175,611,148,78
4775,10,-110,-171,602,143,81
4780,14,-111,-173,599,140,82
4785,14,-110,-176,605,138,83
4790,15,-118,-178,620,140,81
4795,13,-119,-173,646,149,77
4800,11,-119,-175,678,164,73
4805,12,-122,-174,711,187,70
4810,9,-125,-183,742,210,67
4815,9,-123,-180,772,235,67
4820,9,-123,-175,800,254,67
4825,10,-124,-178,828,267,70
4830,4,-122,-176,847,273,70
4835,3,-114,-173,854,267,68
4840,1,-119,-168,851,249,65
4845,-5,-121,-168,836,223,60
4850,1,-119,-164,809,192,55
4855,-1,-119,-161,776,158,48
4860,-5,-120,-158,740,125,46
4865,-2,-121,-160,704,99,44
4870,-2,-119,-162,673,80,46
4875,-8,-124,-159,647,68,47
4880,-4,-125,-161,627,59,45
4885,-4,-123,-165,615,52,45
4890,-5,-127,-161,607,46,46
4895,-3,-127,-168,604,40,48
4900,-4,-127,-167,605,36,49
4905,-1,-130,-168,610,31,48
4910,-3,-132,-169,620,29,46
4915,0,-133,-177,632,28,40
4920,3,-131,-175,641,30,35
4925,0,-130,-180,646,35,30
4930,5,-134,-181,644,42,23
4935,6,-130,-184,638,50,12
4940,5,-134,-179,622,59,3
4945,4,-138,-181,604,67,-2
4950,5,-140,-175,577,72,-8
4955,7,-144,-177,549,77,-14
4960,3,-147,-176,519,80,-19
4965,4,-150,-171,496,79,-23
4970,3,-155,-171,478,75,-28
4975,4,-162,-166,465,72,-31
4980,3,-167,-165,458,68,-37
4985,3,-170,-166,456,67,-41
4990,1,-175,-165,460,66,-45
4995,1,-178,-159,469,64,-44
5000,2,-176,-165,484,64,-43
5005,0,-173,-161,504,64,-37
5010,2,-178,-161,528,66,-28
5015,7,-181,-164,552,67,-17
5020,10,-178,-169,573,71,-4
5025,8,-179,-165,588,77,7
5030,10,-179,-174,597,78,17
5035,9,-177,-174,600,79,28
5040,9,-175,-171,601,79,39
5045,11,-177,-172,601,81,50
5050,10,-173,-168,595,84,57
5055,14,-175,-167,590,88,63
5060,12,-171,-168,580,90,68
5065,11,-169,-170,567,92,69
5070,9,-171,-167,552,94,71
5075,9,-170,-166,534,98,72
5080,8,-170,-167,511,105,74
5085,6,-168,-165,490,107,75
5090,8,-170,-159,468,112,72
5095,7,-173,-161,447,117,72
5100,7,-174,-162,425,124,69
5105,12,-170,-157,402,132,66
5110,13,-175,-152,378,140,65
5115,14,-178,-157,356,151,65
5120,12,-176,-155,334,157,63
5125,12,-178,-153,315,162,61
5130,12,-181,-152,299,162,61
5135,11,-177,-149,288,157,59
5140,11,-180,-151,275,156,54
5145,12,-183,-155,257,153,54
5150,10,-179,-155,239,150,56
5155,9,-179,-151,223,145,58
5160,8,-177,-151,210,138,63
5165,10,-180,-147,203,129,65
5170,8,-180,-150,199,119,71
5175,7,-179,-151,195,108,75
5180,5,-178,-148,193,97,76
5185,6,-182,-146,188,90,79
5190,5,-184,-142,186,83,78
5195,3,-184,-140,185,81,79
5200,1,-184,-141,187,82,80
5205,4,-186,-141,190,84,79
5210,3,-188,-137,195,87,77
5215,3,-184,-140,202,90,74
5220,3,-189,-139,208,94,68
5225,9,-187,-143,213,98,64
5230,6,-189,-130,217,99,58
5235,6,-185,-138,222,98,49
5240,7,-184,-139,231,94,42
5245,6,-184,-139,239,90,36
5250,8,-187,-134,243,84,32
5255,7,-183,-138,240,81,28
5260,13,-185,-132,236,76,29
5265,9,-187,-134,229,76,29
5270,4,-185,-134,225,81,31
5275,4,-184,-137,220,86,34
5280,6,-188,-135,213,88,36
5285,2,-181,-133,203,90,35
5290,4,-180,-132,193,90,36
5295,6,-176,-132,184,89,32
5300,8,-177,-128,173,91,31
5305,7,-176,-126,164,95,29
5310,8,-179,-126,154,100,26
5315,9,-183,-123,144,105,23
5320,9,-182,-128,137,111,19
5325,9,-183,-123,134,113,19
5330,10,-182,-126,132,116,17
5335,18,-185,-126,133,117,15
5340,9,-184,-124,132,118,15
5345,8,-182,-123,129,118,16
5350,12,-186,-122,124,122,19
5355,11,-188,-124,118,129,21
5360,12,-189,-122,110,136,24
5365,14,-187,-123,105,146,28
5370,9,-188,-123,101,156,32
5375,11,-190,-116,96,162,34
5380,10,-191,-112,90,168,37
5385,12,-190,-109,79,171,42
5390,11,-192,-113,69,170,48
5395,11,-191,-114,57,166,51
5400,10,-193,-113,46,161,54
5405,12,-193,-112,36,154,55
5410,9,-191,-108,27,151,56
5415,11,-191,-111,18,155,57
5420,5,-187,-113,10,168,62
5425,5,-182,-113,3,188,65
5430,7,-182,-113,-2,210,65
5435,7,-184,-107,-5,232,62
5440,5,-184,-97,-4,252,54
5445,5,-185,-96,-2,262,47
5450,2,-181,-96,-1,265,39
5455,1,-180,-96,-4,260,37
5460,0,-172,-88,-8,255,37
5465,0,-171,-91,-11,250,39
5470,-4,-164,-92,-17,244,42
5475,-6,-159,-92,-25,242,53
5480,-3,-152,-86,-33,243,70
5485,-8,-148,-86,-39,251,85
5490,-2,-148,-87,-40,263,99
5495,1,-138,-80,-36,284,114
5500,0,-135,-77,-27,306,126
5505,4,-134,-72,-14,327,142
5510,12,-133,-68,-6,351,158
5515,16,-129,-63,5,369,175
5520,19,-129,-59,15,386,202
5525,22,-127,-54,21,407,230
5530,24,-126,-55,18,431,263
5535,21,-111,-58,-6,453,291
5540,17,-105,-66,-49,466,315
5545,18,-98,-62,-104,463,332
5550,22,-95,-53,-153,441,345
5555,17,-104,-41,-183,403,352
5560,17,-99,-47,-189,358,354
5565,16,-92,-56,-200,319,353
5570,5,-69,-82,-261,289,358
5575,-2,-60,-107,-389,271,368
5580,-14,-50,-110,-557,266,377
5585,-25,-56,-94,-701,272,373
5590,-31,-65,-91,-771,285,355
5595,-34,-63,-84,-763,305,332
5600,-34,-63,-80,-708,329,325
5605,-37,-61,-81,-631,350,331
5610,-33,-62,-73,-542,358,331
5615,-33,-61,-73,-456,343,315
5620,-29,-59,-80,-384,304,286
5625,-26,-47,-83,-339,250,247
5630,-20,-36,-92,-327,198,212
5635,-19,-26,-92,-343,157,181
5640,-14,-18,-87,-378,127,159
5645,-10,-11,-96,-423,101,147
5650,-5,-16,-91,-468,75,147
5655,0,-16,-102,-506,58,148
5660,-4,-24,-96,-541,51,150
5665,2,-23,-98,-573,51,148
5670,1,-23,-96,-600,53,144
5675,1,-28,-103,-623,52,144
5680,1,-33,-109,-644,47,151
5685,-2,-34,-111,-661,32,161
5690,0,-36,-121,-673,15,168
5695,-5,-34,-138,-683,-5,172
5700,-1,-34,-159,-694,-27,174
5705,5,-28,-187,-726,-55,172
5710,10,-31,-210,-780,-90,161
5715,9,-27,-226,-857,-126,143
5720,16,-28,-254,-956,-158,120
5725,14,-33,-276,-1067,-188,89
5730,12,-33,-299,-1183,-214,47
5735,15,-43,-321,-1313,-221,-1
5740,19,-52,-331,-1457,-197,-47
5745,25,-70,-341,-1608,-151,-84
5750,29,-95,-343,-1761,-96,-113
5755,30,-119,-357,-1912,-52,-139
5760,31,-140,-361,-2070,-38,-168
5765,29,-159,-368,-2237,-60,-210
5770,27,-186,-380,-2392,-95,-265
5775,26,-204,-390,-2537,-121,-327
5780,12,-221,-411,-2688,-130,-383
5785,3,-238,-426,-2841,-131,-420
5790,-5,-250,-436,-2982,-129,-445
5795,-14,-259,-449,-3103,-129,-460
5800,-19,-271,-458,-3204,-138,-461
5805,-24,-280,-479,-3293,-167,-443
5810,-25,-288,-490,-3351,-226,-421
5815,-24,-286,-514,-3368,-300,-399
5820,-31,-262,-543,-3367,-376,-384
5825,-28,-247,-554,-3374,-457,-364
5830,-35,-237,-562,-3395,-546,-336
5835,-39,-222,-553,-3425,-638,-309
5840,-47,-217,-546,-3457,-726,-274
5845,-59,-210,-537,-3489,-797,-239
5850,-53,-200,-525,-3510,-861,-200
5855,-47,-194,-512,-3508,-906,-170
5860,-42,-189,-506,-3519,-916,-167
5865,-29,-186,-505,-3533,-903,-184
5870,-27,-192,-497,-3535,-863,-222
5875,-26,-196,-479,-3531,-847,-265
5880,-20,-194,-460,-3548,-837,-289
5885,8,-209,-435,-3642,-805,-283
5890,14,-220,-415,-3768,-743,-293
5895,25,-243,-393,-3858,-682,-286
5900,32,-263,-378,-3904,-632,-265
5905,43,-281,-366,-3902,-587,-231
5910,51,-291,-343,-3847,-531,-185
5915,53,-287,-329,-3758,-477,-138
5920,52,-271,-312,-3642,-423,-106
5925,42,-250,-284,-3503,-375,-97
5930,29,-226,-265,-3367,-342,-99
5935,32,-197,-245,-3248,-317,-116
5940,39,-169,-230,-3139,-287,-161
5945,37,-142,-216,-3049,-247,-208
5950,33,-127,-200,-3005,-205,-253
5955,32,-114,-196,-3015,-161,-300
5960,26,-107,-183,-3073,-114,-352
5965,17,-101,-180,-3161,-63,-400
5970,13,-103,-178,-3253,-16,-435
5975,9,-108,-174,-3336,27,-457
5980,-2,-112,-173,-3410,67,-476
5985,-14,-119,-171,-3473,99,-485
5990,-22,-128,-178,-3519,126,-476
5995,-30,-142,-174,-3545,154,-451
6000,-46,-154,-175,-3535,186,-425
6005,-51,-160,-167,-3467,206,-400
6010,-45,-157,-162,-3328,206,-365
6015,-49,-146,-164,-3128,182,-323
6020,-43,-118,-167,-2881,129,-272
6025,-31,-85,-182,-2615,71,-219
6030,-33,-46,-191,-2371,32,-161
6035,-26,-7,-177,-2174,22,-86
6040,-33,9,-155,-2031,28,-5
6045,-34,16,-116,-1939,30,68
6050,-36,20,-89,-1873,26,125
6055,-29,8,-85,-1806,35,164
6060,-36,9,-94,-1688,63,198
6065,-39,19,-111,-1509,97,247
6070,-39,43,-142,-1293,126,321
6075,-26,69,-171,-1094,157,424
6080,-11,93,-194,-973,239,548
6085,12,98,-199,-945,379,677
6090,33,92,-194,-975,557,783
6095,58,83,-177,-991,748,857
6100,73,69,-156,-946,948,909
6105,87,62,-151,-834,1139,949
6110,91,72,-160,-691,1301,974
6115,93,94,-170,-587,1435,993
6120,93,117,-189,-567,1548,1001
6125,97,131,-188,-629,1631,1022
6130,89,142,-192,-716,1716,1016
6135,71,162,-202,-801,1835,1005
6140,54,162,-203,-858,1988,1003
6145,31,172,-205,-877,2149,1008
6150,5,183,-209,-859,2288,1028
6155,-8,188,-192,-803,2374,1036
6160,-26,194,-192,-677,2400,1013
6165,-37,200,-197,-474,2368,956
6170,-50,215,-215,-235,2289,891
6175,-64,228,-232,-19,2166,834
6180,-72,228,-228,144,2002,786
6185,-65,224,-206,264,1814,753
6190,-58,222,-175,361,1619,735
6195,-42,216,-158,466,1408,724
6200,-23,217,-156,588,1190,720
6205,-2,231,-173,700,978,721
6210,16,236,-193,782,790,724
6215,32,251,-201,823,633,727
6220,52,255,-195,843,502,723
6225,67,253,-185,858,395,719
6230,83,248,-188,888,316,715
6235,95,246,-197,929,285,722
6240,108,253,-212,970,293,751
6245,128,252,-211,996,308,780
6250,153,262,-227,1010,309,799
6255,168,272,-227,1008,287,799
6260,167,283,-214,990,268,786
6265,162,282,-198,955,283,784
6270,176,328,-205,896,315,778
6275,173,326,-190,790,320,739
6280,183,324,-182,678,317,715
6285,155,293,-163,587,306,697
6290,162,279,-161,482,346,711
6295,190,374,-217,482,261,632
6300,365,573,-263,510,-46,191
6305,289,558,-121,399,-288,-636
6310,260,494,-112,412,-84,-1059
6315,207,458,-115,154,393,-1215
6320,123,487,-145,-469,888,-1104
6325,149,409,-135,-1294,928,-1300
6330,71,349,-236,-1561,822,-1312
6335,92,365,-235,-1848,862,-1253
6340,94,326,-206,-2345,1115,-1285
6345,6,237,-161,-2548,1353,-1169
6350,65,244,-225,-2439,1299,-833
6355,40,150,-223,-2117,1131,-443
6360,99,-5,-212,-1545,1001,42
6365,168,230,-310,-444,911,453
6370,94,312,-195,-751,1269,64
6375,48,101,-201,-1435,1235,-166
6380,79,5,-259,-1025,794,373
6385,219,101,-262,-280,728,591
6390,146,25,-265,-24,1020,547
6395,179,47,-296,741,749,620
6400,197,147,-265,1217,922,638
6405,126,125,-248,1450,818,527
6410,105,102,-203,1738,674,615
6415,146,275,-239,1824,695,599
6420,84,178,-195,1584,729,453
6425,118,269,-204,1385,742,446
6430,93,285,-216,1032,805,435
6435,69,194,-129,561,862,325
6440,103,259,-217,403,795,461
6445,107,292,-182,39,849,334
6450,116,191,-209,-63,779,471
6455,115,238,-205,-63,736,415
6460,44,121,-141,-218,819,370
6465,117,204,-212,-52,702,495
6470,91,207,-183,-124,734,356
6475,61,135,-144,-267,772,331
6480,106,144,-212,-91,597,439
6485,121,216,-200,-91,604,316
6490,81,135,-140,-312,685,234
6495,122,120,-192,-220,523,339
6500,138,240,-213,-187,510,277
6505,81,195,-146,-498,595,100
6510,87,111,-166,-534,450,131
6515,121,136,-167,-354,357,194
6520,90,130,-154,-255,371,197
6525,96,120,-164,-97,246,208
6530,143,175,-178,-4,191,169
6535,134,179,-154,-139,279,113
6540,128,143,-152,-251,263,95
6545,109,156,-152,-262,238,90
6550,105,141,-146,-302,241,76
6555,86,114,-159,-211,131,115
6560,136,155,-168,-39,60,124
6565,109,155,-148,-51,125,43
6570,97,156,-148,-56,70,-12
6575,152,151,-164,-8,-8,-40
6580,133,151,-148,-2,42,-30
6585,120,131,-134,-11,53,-28
6590,168,170,-162,45,22,-46
6595,146,158,-141,-1,120,-82
6600,132,109,-136,12,117,-59
6605,155,117,-162,198,43,-34
6610,184,167,-163,313,96,-77
6615,154,202,-151,190,231,-158
6620,130,170,-123,-53,296,-196
6625,116,123,-128,-109,230,-180
6630,135,123,-147,47,159,-163
6635,139,149,-145,201,179,-190
6640,133,155,-145,239,250,-221
6645,140,166,-148,208,275,-211
6650,139,185,-141,92,291,-208
6655,126,168,-131,-62,299,-209
6660,118,155,-135,-158,282,-192
6665,120,142,-137,-201,257,-167
6670,119,134,-141,-201,219,-141
6675,122,135,-144,-182,187,-130
6680,121,125,-157,-156,161,-132
6685,127,129,-154,-127,141,-130
6690,127,127,-150,-93,117,-130
6695,125,126,-152,-40,96,-138
6700,128,130,-154,35,77,-146
6705,128,138,-157,118,76,-157
6710,130,144,-162,156,90,-165
6715,123,141,-158,157,92,-169
6720,130,143,-158,147,84,-164
6725,136,139,-169,133,73,-155
6730,139,148,-170,113,66,-148
6735,135,147,-172,78,64,-140
6740,118,142,-177,45,49,-141
6745,121,143,-179,32,27,-128
6750,125,146,-176,44,13,-124
6755,131,161,-177,103,8,-119
6760,130,160,-166,148,30,-121
6765,124,161,-163,171,26,-119
6770,122,159,-169,184,0,-103
6775,123,156,-166,184,-32,-82
6780,128,158,-170,186,-60,-62
6785,130,149,-173,194,-84,-50
6790,126,146,-175,203,-106,-42
6795,126,141,-173,215,-117,-40
6800,127,141,-169,223,-124,-40
6805,129,140,-177,227,-129,-37
6810,127,140,-176,232,-136,-37
6815,127,139,-175,235,-139,-37
6820,123,142,-178,235,-138,-37
6825,118,142,-183,238,-132,-36
6830,121,138,-178,242,-123,-32
6835,121,136,-179,241,-116,-29
6840,132,144,-181,234,-110,-20
6845,126,140,-179,228,-104,-17
6850,126,138,-180,236,-110,-23
6855,128,137,-179,239,-118,-30
6860,128,135,-180,238,-127,-34
6865,128,135,-182,237,-136,-37
6870,124,132,-182,238,-149,-41
6875,123,133,-183,238,-161,-47
6880,125,136,-187,237,-171,-51
6885,126,131,-183,235,-180,-55
6890,126,129,-189,233,-185,-59
6895,125,134,-189,228,-184,-61
6900,126,135,-190,215,-179,-60
6905,118,138,-192,201,-175,-60
6910,117,136,-191,185,-169,-56
6915,116,134,-192,169,-164,-55
6920,118,135,-190,157,-156,-56
6925,120,135,-194,147,-147,-54
6930,119,132,-192,139,-134,-49
6935,121,138,-189,129,-121,-45
6940,117,133,-190,118,-110,-42
6945,114,135,-190,113,-103,-40
6950,120,132,-195,108,-98,-41
6955,114,132,-191,103,-96,-42
6960,119,129,-178,101,-97,-43
6965,117,131,-179,104,-102,-48
6970,119,127,-180,110,-111,-52
6975,120,129,-179,117,-122,-59
6980,119,130,-186,124,-133,-62
6985,119,131,-189,127,-142,-64
6990,118,134,-192,127,-146,-65
6995,122,129,-192,121,-146,-64
7000,118,137,-196,112,-143,-61
7005,120,136,-193,102,-136,-57
7010,120,136,-195,91,-126,-53
7015,119,138,-195,83,-116,-50
7020,120,140,-199,76,-106,-45
7025,121,138,-193,70,-95,-39
7030,118,139,-196,62,-83,-36
7035,119,138,-198,56,-75,-31
7040,119,137,-195,50,-65,-30
7045,118,139,-196,43,-58,-29
7050,118,134,-195,36,-51,-28
7055,120,137,-196,28,-44,-26
7060,118,145,-198,21,-36,-23
7065,118,140,-192,13,-25,-21
7070,119,142,-191,4,-16,-18
7075,117,136,-192,0,-8,-17
7080,118,136,-191,3,-2,-13
7085,119,131,-193,4,3,-10
7090,117,136,-192,5,5,-6
7095,116,137,-190,1,9,-5
7100,112,138,-192,-8,14,-5
7105,118,140,-190,-17,15,-7
7110,116,138,-194,-20,17,-5
7115,113,139,-191,-23,23,-3
7120,116,139,-192,-27,27,0
7125,116,139,-187,-30,32,2
7130,114,142,-192,-34,34,1
7135,118,139,-188,-40,34,3
7140,115,141,-190,-44,35,3
7145,114,137,-190,-48,35,1
7150,120,134,-190,-49,37,1
7155,118,134,-182,-48,40,2
7160,115,136,-184,-45,41,2
7165,111,140,-179,-43,42,0
7170,118,136,-179,-37,39,-1
7175,115,138,-180,-29,39,-1
7180,118,137,-183,-22,39,-3
7185,114,136,-180,-15,40,-2
7190,114,138,-183,-10,40,-1
7195,115,137,-182,-6,43,0
7200,112,140,-180,-5,45,3
7205,113,133,-176,-5,47,5
7210,114,137,-182,2,50,7
7215,116,134,-180,11,51,10
7220,119,136,-180,12,52,12
7225,113,141,-182,16,51,13
7230,116,137,-184,18,50,13
7235,117,132,-181,22,51,15
7240,113,138,-180,27,51,14
7245,116,135,-179,33,47,14
7250,113,137,-176,39,45,12
7255,117,135,-181,44,42,10
7260,114,135,-181,50,38,10
7265,116,135,-181,54,35,8
7270,112,136,-179,57,36,9
7275,116,137,-179,58,37,10
7280,115,139,-187,60,36,10
7285,115,134,-178,60,38,10
7290,118,138,-180,62,37,11
7295,119,135,-183,64,38,10
7300,118,136,-181,64,38,10
7305,118,137,-184,66,37,12
7310,120,133,-185,68,37,13
7315,121,140,-182,69,36,12
7320,115,138,-187,71,36,14
7325,119,134,-185,71,37,12
7330,119,134,-178,70,35,12
7335,116,138,-181,71,33,11
7340,121,135,-185,73,32,8
7345,115,137,-186,74,31,8
7350,122,135,-185,76,31,8
7355,118,139,-184,76,30,9
7360,122,136,-185,77,29,9
7365,120,137,-185,78,26,8
7370,119,135,-184,81,22,9
7375,120,136,-188,83,20,7
7380,121,133,-190,83,18,8
7385,123,134,-186,80,18,7
7390,122,136,-187,77,19,9
7395,120,134,-187,74,20,12
7400,120,136,-187,70,20,11
7405,121,137,-187,67,20,10
7410,121,137,-189,64,20,12
7415,121,134,-187,62,19,9
7420,123,134,-183,61,19,9
7425,120,131,-184,58,17,5
7430,115,134,-187,57,13,4
7435,119,136,-185,55,11,3
7440,121,132,-182,53,10,0
7445,120,136,-186,52,9,-1
7450,120,133,-184,49,8,-3
7455,120,135,-181,48,8,-2
7460,120,132,-183,49,6,-4
7465,122,131,-185,48,2,-4
7470,119,133,-187,50,-1,-6
7475,118,137,-178,51,-2,-8
7480,119,133,-181,51,-4,-8
7485,120,131,-183,51,-4,-8
7490,115,135,-184,52,-6,-8
7495,114,142,-185,51,-8,-7
7500,118,135,-185,50,-9,-8
7505,121,135,-184,51,-11,-10
7510,123,137,-187,50,-13,-10
7515,120,135,-186,48,-15,-10
7520,118,136,-185,48,-14,-10
7525,119,135,-183,46,-15,-9
7530,119,135,-187,45,-17,-10
7535,118,134,-184,46,-16,-10
7540,117,136,-183,46,-16,-10
7545,120,132,-187,47,-15,-12
7550,113,139,-186,49,-14,-12
7555,119,135,-182,51,-14,-12
7560,119,133,-185,56,-13,-14
7565,117,134,-186,60,-11,-13
7570,120,133,-184,67,-10,-15
7575,120,127,-185,83,-7,-17
7580,113,98,-180,134,-3,-21
7585,113,62,-191,341,-24,-3
7590,140,128,-205,620,-47,15
7595,114,153,-182,679,23,-38
7600,111,172,-182,586,48,-61
7605,117,183,-185,399,27,-55
7610,117,158,-181,198,-4,-35
7615,119,139,-187,97,-27,-6
7620,117,136,-188,73,-23,2
7625,119,134,-187,73,-11,6
7630,122,131,-187,71,-4,4
7635,117,134,-187,69,-1,2
7640,119,132,-191,64,0,1
7645,118,130,-186,57,2,2
7650,116,133,-188,52,6,-1
7655,118,134,-186,49,7,-1
7660,113,136,-189,47,9,-2
7665,118,135,-186,44,12,-1
7670,116,135,-189,43,14,-1
7675,123,134,-189,43,15,-1
7680,123,132,-187,44,17,-2
7685,120,132,-189,47,18,0
7690,118,132,-186,49,22,2
7695,115,137,-189,51,24,4
7700,118,135,-189,51,26,4
7705,118,135,-192,50,29,5
7710,117,131,-187,49,30,5
7715,114,133,-193,46,31,7
7720,115,134,-189,44,31,7
7725,117,131,-187,42,32,7
7730,119,133,-190,42,33,9
7735,120,132,-189,43,34,9
7740,117,131,-185,42,36,10
7745,119,132,-189,42,39,10
7750,117,132,-192,42,40,12
7755,120,131,-188,40,40,12
7760,120,131,-190,38,43,14
7765,119,134,-187,39,46,12
7770,113,139,-186,38,45,12
7775,119,135,-188,36,47,11
7780,121,133,-186,36,47,11
7785,119,130,-181,36,46,11
7790,117,133,-182,36,46,9
7795,120,130,-181,37,42,9
7800,119,129,-184,39,38,6
7805,117,134,-185,41,36,3
7810,117,132,-188,44,34,4
7815,118,132,-184,46,32,5
7820,117,133,-186,48,30,3
7825,117,132,-186,50,30,2
7830,121,131,-185,50,30,3
7835,119,135,-188,51,31,2
7840,119,132,-186,51,32,4
7845,124,131,-189,52,32,3
7850,119,132,-184,49,32,5
7855,119,133,-185,48,33,3
7860,120,135,-190,49,33,6
7865,120,132,-188,47,34,5
7870,120,131,-183,47,35,3
7875,113,134,-184,45,35,4
7880,121,131,-182,45,34,4
7885,120,131,-183,45,33,2
7890,120,129,-184,45,32,1
7895,122,130,-185,47,30,1
7900,123,129,-185,47,28,1
7905,121,129,-183,49,25,-1
7910,119,130,-186,49,22,-2
7915,121,131,-189,51,22,-4
7920,120,133,-189,51,21,-4
7925,119,130,-182,50,20,-4
7930,120,126,-180,51,21,-5
7935,121,133,-186,51,22,-3
7940,119,132,-185,51,22,-3
7945,119,132,-185,53,22,-4
7950,122,130,-185,52,20,-4
7955,120,132,-186,52,20,-6
7960,121,131,-189,53,18,-6
7965,120,131,-184,54,18,-7
7970,122,132,-187,54,18,-7
7975,119,131,-183,54,17,-7
7980,124,130,-183,53,17,-8
7985,123,130,-188,53,17,-9
7990,119,132,-188,54,17,-8
7995,120,134,-183,53,17,-8
8000,122,132,-183,54,15,-10
8005,123,131,-186,54,14,-12
8010,120,131,-184,54,13,-10
8015,118,130,-185,53,12,-11
8020,119,132,-183,52,11,-12
8025,121,132,-182,53,12,-12
8030,121,135,-186,53,11,-11
8035,122,130,-185,54,10,-11
8040,118,130,-185,53,10,-12
8045,122,130,-188,54,9,-14
8050,120,132,-184,53,6,-14
8055,119,131,-190,52,5,-15
8060,121,131,-185,50,4,-16
8065,121,133,-189,53,2,-16
8070,122,135,-187,53,5,-14
8075,120,131,-185,53,5,-14
8080,121,133,-187,52,6,-15
8085,116,130,-188,51,5,-17
8090,122,128,-181,53,4,-18
8095,118,128,-184,53,3,-18
8100,121,134,-186,53,2,-18
8105,119,133,-186,54,0,-17
8110,119,131,-183,55,-1,-17
8115,122,132,-186,55,-2,-18
8120,123,131,-188,54,-2,-17
8125,123,130,-188,55,0,-16
8130,121,132,-189,57,1,-16
8135,122,129,-186,55,3,-14
8140,119,128,-185,53,3,-14
8145,120,132,-186,54,5,-12
8150,116,132,-185,54,4,-12
8155,119,132,-184,54,3,-12
8160,119,131,-184,52,4,-13
8165,119,129,-189,54,3,-13
8170,117,131,-187,55,2,-16
8175,123,131,-188,53,3,-15
8180,120,134,-185,51,4,-14
8185,118,133,-186,50,6,-15
8190,122,132,-190,49,5,-14
8195,119,132,-186,49,5,-14
8200,121,134,-184,50,5,-14
8205,122,132,-186,51,6,-14
8210,121,133,-190,53,6,-15
8215,120,134,-184,55,5,-13
8220,121,132,-183,56,3,-14
8225,121,131,-186,58,4,-14
8230,121,133,-185,60,3,-15
8235,122,130,-186,61,2,-15
8240,121,130,-187,61,2,-15
8245,124,131,-189,61,3,-15
8250,117,132,-183,60,3,-16
8255,118,135,-186,59,3,-14
8260,117,131,-179,59,4,-14
8265,121,130,-184,59,4,-15
8270,119,131,-187,60,3,-15
8275,121,133,-183,60,4,-15
8280,121,129,-184,59,2,-15
8285,119,130,-185,60,3,-17
8290,120,132,-186,60,1,-15
8295,116,131,-186,58,0,-16
8300,120,132,-188,57,-1,-17
8305,117,131,-186,59,-1,-17
8310,119,133,-183,59,-2,-18
8315,116,130,-184,61,-3,-18
8320,119,134,-187,61,-4,-18
8325,122,129,-184,61,-8,-18
8330,120,129,-185,63,-8,-18
8335,120,130,-183,65,-6,-20
8340,119,132,-185,64,-5,-19
8345,121,130,-182,63,-4,-16
8350,121,132,-187,61,-3,-16
8355,119,132,-182,61,0,-15
8360,120,133,-191,59,1,-15
8365,119,130,-188,58,2,-15
8370,121,131,-186,56,2,-16
8375,119,133,-187,57,4,-15
8380,117,131,-191,57,6,-13
8385,122,132,-186,55,8,-13
8390,117,131,-191,53,9,-12
8395,117,133,-185,51,9,-11
8400,119,132,-187,52,9,-11
8405,123,130,-186,53,9,-13
8410,118,134,-189,51,9,-11
8415,120,132,-185,51,8,-13
8420,116,130,-194,51,7,-11
8425,120,131,-186,50,7,-13
8430,119,133,-187,50,7,-12
8435,117,134,-185,48,8,-12
8440,119,133,-189,47,9,-13
8445,121,131,-189,47,11,-11
8450,121,132,-184,48,10,-12
8455,120,131,-190,49,12,-12
8460,114,131,-184,50,11,-11
8465,121,132,-183,48,11,-10
8470,116,133,-185,50,11,-10
8475,118,133,-186,50,10,-11
8480,118,132,-185,49,10,-11
8485,122,132,-187,48,9,-12
8490,121,132,-183,50,9,-11
8495,120,131,-182,50,10,-12
8500,120,133,-188,51,9,-13
8505,121,134,-185,54,11,-12
8510,120,132,-188,56,10,-11
8515,115,133,-184,55,12,-11
8520,117,134,-184,56,12,-11
8525,121,131,-187,54,13,-10
8530,119,138,-188,54,12,-11
8535,119,133,-188,52,12,-12
8540,119,129,-187,47,12,-11
8545,122,133,-190,52,11,-11
8550,116,130,-185,54,12,-11
8555,119,131,-185,55,14,-9
8560,122,130,-185,56,13,-11
8565,119,133,-185,54,13,-10
8570,119,132,-185,52,11,-11
8575,119,129,-185,53,11,-10
8580,120,130,-188,55,12,-9
8585,119,129,-183,57,12,-10
8590,120,129,-186,60,11,-11
8595,118,134,-187,60,11,-11
8600,120,129,-184,61,8,-10
8605,121,131,-185,59,8,-12
8610,117,132,-185,60,8,-13
8615,121,131,-187,60,7,-14
8620,118,134,-188,59,8,-14
8625,120,132,-186,60,8,-12
8630,118,133,-185,59,9,-12
8635,118,130,-191,59,9,-11
8640,119,130,-188,59,10,-10
8645,118,130,-184,60,11,-10
8650,119,132,-185,60,11,-9
8655,122,130,-185,61,12,-9
8660,119,130,-187,63,13,-11
8665,122,130,-187,63,13,-8
8670,122,129,-187,63,13,-7
8675,118,131,-187,63,14,-8
8680,120,129,-190,64,14,-8
8685,119,130,-186,64,14,-7
8690,120,130,-190,63,14,-8
8695,117,138,-189,61,15,-7
8700,120,129,-188,59,14,-6
8705,123,130,-186,58,14,-9
8710,121,132,-186,57,12,-9
8715,119,131,-188,56,14,-9
8720,121,133,-189,54,15,-10
8725,121,130,-187,54,15,-9
8730,125,133,-187,54,16,-8
8735,121,131,-187,53,17,-8
8740,119,130,-187,53,18,-7
8745,120,134,-188,53,21,-8
8750,122,138,-189,54,21,-6
8755,121,131,-185,54,24,-4
8760,120,134,-191,54,25,-4
8765,120,129,-189,56,25,-3
8770,118,131,-187,56,24,0
8775,118,132,-187,56,25,-1
8780,120,130,-189,56,24,-1
8785,119,133,-188,58,25,-1
8790,120,131,-187,58,23,-1
8795,119,131,-188,59,22,-3
8800,118,132,-190,60,23,-2
8805,121,131,-188,59,25,2
8810,117,133,-183,57,25,1
8815,120,132,-186,53,27,1
8820,117,131,-185,52,29,1
8825,121,129,-187,51,30,0
8830,117,133,-187,50,30,1
8835,120,129,-185,50,30,2
8840,117,133,-187,49,31,2
8845,122,130,-183,51,31,2
8850,121,131,-185,51,31,3
8855,120,134,-187,53,32,3
8860,117,128,-187,54,32,5
8865,121,131,-189,54,32,5
8870,122,131,-187,56,34,4
8875,118,130,-187,55,34,5
8880,119,133,-184,56,34,5
8885,119,132,-186,54,35,5
8890,119,131,-188,52,36,5
8895,119,131,-190,53,35,6
8900,120,131,-189,53,36,5
8905,118,129,-188,52,36,7
8910,122,123,-183,53,36,8
8915,122,130,-185,52,37,8
8920,122,130,-189,54,38,7
8925,121,130,-186,54,38,6
8930,118,131,-186,53,39,7
8935,122,132,-187,54,38,6
8940,122,130,-183,54,37,3
8945,119,131,-186,52,36,5
8950,123,134,-185,50,35,4
8955,121,131,-185,49,35,3
8960,121,131,-187,48,35,3
8965,123,128,-187,48,36,1
8970,121,132,-188,49,35,2
8975,121,130,-185,49,33,3
8980,119,129,-186,51,33,2
8985,121,130,-185,51,34,3
8990,123,130,-188,52,33,5
8995,124,130,-186,54,33,3
9000,120,130,-189,54,32,3
9005,124,131,-191,56,31,5
9010,121,129,-186,55,30,2
9015,123,130,-183,54,30,3
9020,112,130,-185,53,30,6
9025,123,131,-188,50,29,5
9030,119,130,-187,49,30,5
9035,122,131,-184,48,30,3
9040,123,129,-182,47,31,3
9045,123,133,-189,46,31,2
9050,123,133,-183,46,31,4
9055,124,130,-186,46,30,1
9060,119,134,-189,46,29,2
9065,122,132,-187,45,29,3
9070,121,130,-187,45,29,2
9075,122,134,-188,48,29,0
9080,121,129,-182,48,28,1
9085,124,130,-183,50,28,1
9090,124,132,-187,50,28,-1
9095,123,131,-184,50,25,0
9100,120,133,-187,49,23,-2
9105,122,132,-184,49,23,-2
9110,123,128,-184,48,22,-2
9115,122,129,-181,46,21,-4
9120,124,133,-185,47,21,-4
9125,122,132,-182,47,20,-3
9130,123,133,-182,46,21,-4
9135,123,130,-182,47,20,-4
9140,120,128,-183,48,20,-4
9145,122,128,-188,49,19,-4
9150,122,132,-184,50,18,-6
9155,122,132,-184,50,17,-5
9160,122,130,-187,49,16,-5
9165,122,131,-186,50,15,-6
9170,125,134,-193,50,14,-5
9175,122,131,-186,50,15,-5
9180,122,130,-183,49,14,-6
9185,121,127,-185,48,14,-8
9190,124,132,-185,48,13,-8
9195,121,132,-188,49,12,-9
9200,125,131,-187,48,13,-8
9205,123,132,-187,46,13,-8
9210,124,132,-185,47,13,-9
9215,124,129,-185,47,15,-9
9220,123,131,-184,47,14,-9
9225,125,128,-187,48,14,-8
9230,123,129,-187,48,14,-9
9235,121,129,-182,49,15,-8
9240,118,129,-184,48,14,-8
9245,124,130,-188,48,15,-7
9250,125,129,-185,48,15,-8
9255,122,131,-184,48,13,-7
9260,125,131,-181,48,13,-9
9265,121,131,-185,49,11,-9
9270,122,130,-186,49,13,-9
9275,122,132,-189,50,13,-9
9280,121,131,-185,50,14,-9
9285,122,130,-185,50,15,-9
9290,121,135,-184,50,13,-8
9295,122,131,-192,50,15,-8
9300,123,131,-186,49,15,-7
9305,120,129,-189,49,18,-7
9310,123,129,-186,49,18,-5
9315,122,134,-189,48,19,-6
9320,123,130,-185,48,18,-4
9325,122,131,-187,48,19,-4
9330,123,130,-186,48,20,-4
9335,125,132,-186,49,19,-4
9340,123,131,-185,50,19,-6
9345,121,130,-188,50,19,-7
9350,116,131,-189,52,20,-6
9355,125,130,-182,51,21,-6
9360,121,130,-184,50,20,-5
9365,122,130,-187,50,20,-4
9370,122,130,-186,51,20,-3
9375,122,132,-185,51,20,-4
9380,120,131,-186,51,22,-3
9385,120,132,-184,50,23,-2
9390,126,130,-181,50,23,-2
9395,124,129,-186,50,22,-3
9400,119,137,-192,49,23,-4
9405,122,133,-186,48,21,-4
9410,124,129,-184,48,21,-6
9415,120,130,-186,47,21,-4
9420,121,131,-185,48,21,-6
9425,123,132,-184,48,19,-6
9430,122,129,-181,47,19,-7
9435,120,130,-185,48,17,-6
9440,122,130,-181,47,20,-6
9445,121,130,-184,48,21,-6
9450,123,130,-186,48,20,-7
9455,126,134,-185,47,20,-6
9460,121,133,-184,46,21,-7
9465,120,134,-186,47,22,-5
9470,124,128,-186,46,22,-5
9475,123,128,-185,48,21,-6
9480,125,129,-183,48,21,-6
9485,122,130,-185,50,20,-5
9490,126,129,-189,51,20,-5
9495,122,131,-184,53,17,-7
9500,123,131,-185,54,18,-6
9505,125,128,-184,55,17,-7
9510,120,132,-185,54,16,-5
9515,124,128,-183,53,18,-7
9520,125,130,-182,51,18,-6
9525,123,129,-185,48,16,-5
9530,123,130,-183,48,17,-4
9535,123,129,-184,47,18,-6
9540,121,130,-182,47,19,-7
9545,123,130,-183,47,17,-5
9550,123,129,-184,47,19,-6
9555,120,131,-182,48,18,-4
9560,125,133,-185,47,19,-5
9565,124,133,-184,48,18,-5
9570,124,132,-185,48,18,-6
9575,126,130,-185,49,19,-5
9580,123,129,-188,48,19,-6
9585,124,131,-184,48,18,-6
9590,121,133,-184,49,18,-6
9595,123,132,-186,48,16,-6
9600,119,132,-187,49,18,-4
9605,120,130,-187,50,19,-5
9610,122,129,-186,51,18,-4
9615,126,130,-186,50,17,-5
9620,128,130,-182,51,17,-4
9625,126,131,-183,53,18,-5
9630,124,131,-181,52,19,-6
9635,125,130,-186,53,18,-7
9640,122,134,-185,51,18,-7
9645,123,130,-186,50,16,-7
9650,124,131,-182,50,16,-9
9655,122,130,-182,51,15,-8
9660,125,129,-186,51,14,-7
9665,124,130,-182,53,16,-8
9670,121,129,-183,54,15,-9
9675,122,131,-183,52,14,-9
9680,122,131,-183,52,14,-8
9685,123,131,-183,53,13,-8
9690,125,129,-186,52,14,-7
9695,123,129,-186,53,14,-7
9700,124,128,-187,53,15,-7
9705,125,130,-183,53,14,-8
9710,122,129,-185,53,15,-7
9715,122,132,-184,51,14,-7
9720,124,130,-185,52,15,-8
9725,124,131,-185,51,17,-7
9730,123,129,-179,52,17,-6
9735,126,129,-185,52,19,-5
9740,121,132,-186,51,19,-4
9745,123,131,-184,51,18,-4
9750,125,130,-185,51,18,-5
9755,124,129,-187,52,18,-5
9760,124,133,-185,51,18,-4
9765,124,130,-182,51,18,-5
9770,123,131,-187,52,18,-5
9775,123,133,-188,51,17,-6
9780,124,131,-181,52,16,-6
9785,126,128,-187,50,16,-7
9790,122,132,-182,50,14,-9
9795,124,131,-184,49,16,-7
9800,126,131,-188,48,16,-7
9805,124,127,-184,48,15,-6
9810,126,129,-188,49,16,-7
9815,125,130,-183,48,16,-6
9820,121,131,-185,48,16,-6
9825,124,130,-185,48,17,-9
9830,126,129,-185,48,15,-8
9835,123,131,-183,49,15,-9
9840,120,130,-179,49,14,-8
9845,124,132,-181,49,14,-9
9850,122,130,-185,51,14,-9
9855,124,129,-183,50,14,-9
9860,123,131,-184,50,12,-8
9865,124,131,-184,51,13,-9
9870,125,131,-185,50,12,-10
9875,124,135,-185,49,12,-9
9880,124,130,-183,50,13,-9
9885,123,130,-184,50,11,-7
9890,124,129,-187,50,11,-8
9895,123,129,-182,48,11,-8
9900,126,130,-181,50,11,-9
9905,123,132,-189,50,11,-9
9910,127,131,-185,50,12,-8
9915,125,129,-187,51,13,-9
9920,125,133,-183,51,13,-7
9925,125,129,-187,50,13,-10
9930,125,132,-189,50,13,-9
9935,125,129,-185,51,13,-9
9940,124,130,-181,50,13,-9
9945,122,127,-184,50,12,-9
9950,124,130,-187,52,13,-9
9955,123,129,-186,51,14,-9
9960,125,131,-184,52,14,-9
9965,122,133,-184,52,14,-8
9970,122,133,-184,51,13,-9
9975,124,132,-186,50,14,-10
9980,122,130,-184,50,14,-9
9985,123,130,-184,50,16,-9
9990,120,131,-179,51,16,-10
9995,120,131,-185,50,16,-9
10000,126,128,-179,49,16,-10
10005,122,129,-183,48,16,-9
10010,124,132,-187,48,15,-7
10015,124,129,-185,48,16,-9
10020,123,130,-184,51,16,-7
10025,126,131,-184,51,17,-7
10030,123,129,-186,52,18,-6
10035,124,132,-186,52,19,-6
10040,126,129,-179,52,20,-5
10045,127,131,-183,52,19,-5
10050,123,130,-185,53,20,-5
10055,130,129,-187,54,22,-7
10060,125,130,-185,54,21,-6
10065,122,129,-186,53,21,-6
10070,125,128,-187,53,21,-7
10075,124,131,-186,52,20,-7
10080,123,130,-184,50,19,-5
10085,124,130,-185,49,18,-5
10090,123,129,-185,49,18,-6
10095,124,130,-180,49,19,-5
10100,123,131,-186,50,19,-6
10105,122,128,-185,50,20,-6
10110,119,131,-186,51,19,-5
10115,124,132,-185,49,20,-4
10120,123,134,-186,49,21,-5
10125,126,131,-183,51,23,-3
10130,126,130,-181,50,23,-4
10135,125,132,-187,49,23,-3
10140,127,130,-186,50,22,-4
10145,125,129,-183,49,21,-5
10150,125,128,-186,49,20,-6
10155,126,128,-182,48,19,-6
10160,125,130,-184,48,18,-8
10165,123,128,-185,47,19,-8
10170,122,132,-185,47,18,-7
10175,126,131,-183,49,17,-8
10180,125,129,-184,50,16,-8
10185,125,131,-183,49,15,-6
10190,124,128,-183,50,15,-8
10195,124,130,-185,51,15,-9
10200,126,131,-190,50,16,-8
10205,125,135,-184,51,17,-9
10210,122,129,-185,48,19,-9
10215,122,132,-183,47,19,-9
10220,125,128,-182,47,18,-8
10225,124,130,-186,46,19,-8
10230,127,128,-181,46,17,-8
10235,124,129,-184,48,18,-7
10240,126,130,-188,49,16,-6
10245,126,132,-187,52,16,-7
10250,127,131,-183,54,13,-7
10255,125,133,-188,55,13,-6
10260,125,132,-188,56,13,-7
10265,126,130,-185,56,14,-7
10270,128,124,-187,54,15,-8
10275,122,129,-189,52,16,-7
10280,123,130,-183,51,16,-7
10285,125,130,-183,49,16,-8
10290,126,129,-180,46,17,-5
10295,126,130,-178,44,17,-5
10300,124,131,-187,43,17,-6
10305,126,130,-181,45,16,-6
10310,127,127,-181,45,16,-6
10315,126,130,-183,48,16,-7
10320,127,130,-185,49,14,-8
10325,125,129,-185,51,14,-8
10330,126,126,-181,50,12,-7
10335,124,131,-184,50,12,-7
10340,125,130,-186,50,11,-8
10345,125,131,-183,50,12,-8
10350,125,130,-183,50,12,-11
10355,124,130,-187,49,12,-11
10360,126,130,-188,50,12,-9
10365,126,131,-186,50,12,-10
10370,123,132,-184,50,13,-9
10375,121,128,-183,49,12,-10
10380,123,130,-186,49,13,-10
10385,125,128,-185,50,12,-10
10390,126,129,-184,50,13,-10
10395,126,129,-182,48,14,-9
10400,125,129,-187,51,13,-9
10405,125,131,-186,52,12,-9
10410,125,129,-183,53,12,-11
10415,125,131,-184,53,13,-11
10420,122,130,-183,53,13,-11
10425,125,132,-187,53,14,-10
10430,127,128,-186,53,14,-10
10435,127,133,-188,52,13,-9
10440,123,129,-186,52,13,-10
10445,127,129,-186,51,12,-12
10450,127,130,-181,52,12,-11
10455,123,131,-185,53,12,-11
10460,125,131,-186,51,13,-11
10465,125,127,-183,51,12,-10
10470,123,132,-184,50,13,-10
10475,122,128,-181,51,14,-10
10480,127,127,-184,52,14,-7
10485,129,132,-183,53,15,-8
10490,124,134,-185,53,16,-7
10495,125,129,-185,52,15,-8
10500,125,132,-185,53,15,-7
10505,126,133,-182,51,15,-8
10510,126,133,-184,50,15,-9
10515,123,131,-184,50,16,-8
10520,124,132,-186,50,16,-7
10525,125,130,-184,49,16,-8
10530,124,129,-181,50,16,-8
10535,126,129,-182,50,15,-9
10540,126,129,-187,48,14,-9
10545,129,137,-186,48,14,-7
10550,126,129,-184,48,15,-9
10555,127,129,-188,50,15,-7
10560,126,131,-187,50,15,-8
10565,123,130,-189,50,17,-9
10570,124,132,-186,50,15,-8
10575,126,130,-182,48,16,-8
10580,121,134,-186,49,17,-7
10585,126,132,-185,48,19,-6
10590,128,132,-185,47,18,-6
10595,124,130,-185,46,18,-8
10600,128,131,-184,46,18,-8
10605,126,130,-186,46,18,-10
10610,126,133,-181,46,18,-8
10615,126,131,-185,47,17,-9
10620,126,129,-185,46,15,-10
10625,126,129,-182,47,14,-10
10630,125,131,-187,48,13,-11
10635,125,130,-181,49,12,-12
10640,126,132,-180,49,13,-11
10645,122,129,-182,48,11,-10
10650,123,130,-185,50,12,-9
10655,121,127,-177,50,12,-12
10660,127,129,-181,49,11,-10
10665,125,130,-187,49,11,-10
10670,126,130,-184,50,11,-11
10675,124,130,-186,50,11,-10
10680,125,129,-181,49,11,-11
10685,125,132,-185,50,10,-11
10690,125,129,-185,51,11,-10
10695,125,131,-183,49,11,-11
10700,124,132,-185,50,11,-12
10705,127,131,-188,50,10,-12
10710,124,123,-180,51,10,-13
10715,123,133,-185,51,11,-12
10720,126,130,-186,52,10,-12
10725,127,130,-186,52,11,-11
10730,128,131,-186,54,12,-12
10735,126,130,-184,55,13,-10
10740,127,131,-185,55,12,-10
10745,125,128,-184,54,13,-11
10750,125,131,-182,54,12,-10
10755,127,129,-182,54,13,-10
10760,125,130,-182,53,13,-9
10765,124,130,-187,53,14,-9
10770,127,130,-184,54,13,-9
10775,126,129,-185,54,14,-10
10780,127,129,-182,54,13,-9
10785,125,131,-185,54,13,-9
10790,127,131,-184,54,13,-11
10795,124,132,-181,54,12,-11
10800,122,130,-184,54,12,-11
10805,126,130,-186,54,12,-12
10810,125,131,-186,55,12,-10
10815,125,129,-184,55,14,-11
10820,125,131,-188,54,12,-11
10825,126,129,-183,54,12,-11
10830,126,131,-182,55,12,-11
10835,127,129,-181,54,11,-11
10840,126,130,-183,53,13,-10
10845,127,131,-183,54,13,-12
10850,122,130,-183,54,14,-11
10855,128,130,-183,54,12,-10
10860,126,128,-183,53,12,-9
10865,127,129,-187,54,12,-12
10870,124,130,-185,55,12,-10
10875,118,131,-185,54,12,-11
10880,125,131,-185,54,10,-10
10885,128,128,-187,55,10,-11
10890,124,130,-183,55,10,-10
10895,125,130,-184,57,9,-11
10900,124,128,-182,56,10,-11
10905,124,133,-185,55,10,-12
10910,120,132,-184,54,9,-11
10915,125,129,-182,54,10,-13
10920,126,131,-184,53,10,-13
10925,126,127,-185,53,10,-11
10930,128,130,-184,53,10,-12
10935,123,133,-186,53,10,-10
10940,126,132,-184,52,10,-12
10945,127,132,-186,52,10,-11
10950,125,129,-184,53,11,-11
10955,126,128,-184,52,11,-11
10960,123,130,-184,53,11,-11
10965,125,130,-184,53,10,-11
10970,128,128,-182,54,10,-13
10975,126,130,-186,54,8,-13
10980,125,131,-185,53,8,-14
10985,127,130,-181,54,8,-13
10990,124,131,-182,53,7,-15
10995,125,129,-181,52,8,-13
11000,124,130,-183,52,7,-13
11005,126,130,-187,51,7,-15
11010,125,127,-183,53,6,-15
11015,126,126,-185,53,6,-16
11020,123,131,-186,53,6,-14
11025,128,129,-187,54,6,-13
11030,126,131,-185,55,5,-15
11035,125,131,-178,56,4,-15
11040,126,130,-184,56,3,-14
11045,128,129,-186,57,3,-16
11050,125,130,-188,56,3,-14
11055,126,132,-186,56,3,-16
11060,124,129,-184,55,3,-15
11065,126,133,-184,55,4,-14
11070,126,131,-185,54,6,-14
11075,126,129,-179,53,6,-14
11080,125,131,-186,52,5,-15
11085,125,129,-184,52,5,-15
11090,126,128,-184,51,5,-16
11095,126,129,-181,51,5,-15
11100,125,131,-184,52,4,-15
11105,126,128,-185,52,5,-14
11110,125,130,-180,53,4,-16
11115,126,130,-185,52,5,-15
11120,125,128,-181,53,5,-15
11125,125,132,-182,54,4,-14
11130,124,130,-185,54,4,-14
11135,123,131,-180,55,4,-15
11140,127,130,-188,56,3,-16
11145,133,130,-187,56,1,-18
11150,125,130,-186,54,1,-17
11155,125,130,-187,54,1,-17
11160,124,128,-185,54,1,-18
11165,125,129,-185,55,3,-16
11170,123,132,-187,52,5,-16
11175,124,131,-186,51,5,-13
11180,123,131,-187,51,8,-13
11185,121,133,-182,51,10,-14
11190,124,130,-186,52,11,-13
11195,125,133,-185,53,11,-11
11200,124,125,-188,55,9,-12
11205,126,130,-184,57,7,-12
11210,125,129,-187,58,7,-13
11215,126,129,-183,60,5,-13
11220,123,129,-183,61,3,-14
11225,123,131,-186,61,2,-15
11230,125,129,-187,60,4,-14
11235,125,129,-184,58,4,-14
11240,125,131,-181,56,5,-13
11245,123,131,-184,54,6,-15
11250,124,128,-182,54,8,-12
11255,125,133,-183,53,8,-11
11260,126,131,-181,53,9,-12
11265,124,130,-184,54,9,-10
11270,125,131,-185,56,7,-12
11275,125,129,-184,57,7,-10
11280,126,128,-185,58,7,-12
11285,123,130,-186,59,8,-12
11290,124,133,-186,59,8,-12
11295,123,131,-183,58,8,-12
11300,127,131,-185,56,8,-12
11305,125,132,-184,57,9,-12
11310,124,129,-185,55,10,-12
11315,124,132,-189,55,10,-12
11320,123,132,-187,54,11,-11
11325,125,132,-184,54,13,-10
11330,123,130,-189,55,14,-10
11335,127,132,-183,55,15,-10
11340,123,130,-182,54,14,-10
11345,124,129,-189,55,14,-10
11350,124,132,-185,55,14,-10
11355,124,131,-183,55,13,-9
11360,126,130,-188,55,13,-8
11365,128,131,-186,55,12,-9
11370,124,132,-188,56,14,-10
11375,124,131,-185,56,13,-9
11380,126,133,-185,55,14,-10
11385,126,131,-181,55,13,-10
11390,124,130,-188,54,13,-9
11395,126,129,-186,53,13,-10
11400,125,130,-179,53,14,-10
11405,124,130,-180,55,14,-9
11410,121,129,-185,54,14,-9
11415,123,134,-183,54,15,-10
11420,122,129,-186,53,16,-9
11425,123,130,-182,53,15,-8
11430,123,129,-181,54,15,-7
11435,126,129,-185,56,15,-7
11440,124,130,-184,56,14,-7
11445,126,130,-184,56,13,-8
11450,124,129,-186,55,13,-8
11455,122,130,-184,55,13,-7
11460,124,133,-181,54,14,-7
11465,121,131,-185,54,14,-8
11470,123,132,-188,52,15,-8
11475,124,129,-186,51,16,-7
11480,126,132,-182,50,16,-6
11485,126,131,-185,49,16,-7
11490,124,130,-184,49,15,-8
11495,125,131,-185,49,14,-10
11500,124,130,-186,50,14,-8
11505,126,129,-186,51,15,-7
11510,127,129,-188,52,15,-6
11515,122,129,-185,51,15,-7
11520,124,129,-183,50,15,-7
11525,125,131,-188,50,14,-7
11530,124,129,-183,50,15,-8
11535,125,128,-185,48,15,-9
11540,123,133,-183,47,16,-9
11545,126,131,-180,47,15,-9
11550,126,128,-185,45,16,-8
11555,125,131,-183,46,17,-8
11560,124,129,-185,46,15,-8
11565,123,131,-186,47,15,-8
11570,123,132,-184,48,14,-8
11575,126,129,-185,47,12,-8
11580,119,132,-190,47,12,-9
11585,125,129,-186,48,13,-11
11590,127,130,-185,47,12,-10
11595,124,130,-187,48,11,-10
11600,125,131,-184,48,11,-9
11605,126,129,-185,48,11,-11
11610,122,133,-186,47,12,-9
11615,126,129,-186,49,13,-10
11620,126,129,-185,48,13,-8
11625,126,134,-187,49,12,-10
11630,125,130,-186,48,12,-8
11635,126,131,-185,49,12,-9
11640,126,130,-189,48,12,-9
11645,125,133,-182,48,13,-9
11650,124,129,-185,48,13,-10
11655,124,129,-184,49,14,-9
11660,127,131,-181,49,14,-9
11665,125,133,-185,50,14,-7
11670,124,131,-188,50,15,-10
11675,126,128,-183,51,15,-10
11680,125,132,-183,50,14,-7
11685,126,133,-186,49,15,-7
11690,124,126,-191,50,14,-8
11695,125,129,-184,50,15,-8
11700,126,132,-186,50,15,-7
11705,126,133,-183,51,14,-7
11710,125,132,-187,51,14,-8
11715,127,127,-182,51,14,-10
11720,126,130,-184,50,14,-11
11725,122,130,-185,51,14,-9
11730,127,130,-184,51,14,-10
11735,127,131,-185,50,15,-10
11740,125,129,-183,50,15,-10
11745,125,130,-193,50,15,-10
11750,123,131,-185,50,14,-9
11755,124,130,-183,50,15,-10
11760,125,131,-187,50,15,-8
11765,126,132,-186,49,15,-8
11770,126,130,-184,50,15,-9
11775,125,132,-181,51,17,-10
11780,127,131,-182,51,15,-7
11785,125,129,-182,51,14,-7
11790,124,130,-186,50,14,-8
11795,124,129,-183,51,15,-7
11800,124,130,-183,51,14,-7
11805,127,130,-183,50,15,-9
11810,126,130,-187,50,16,-8
11815,127,130,-184,50,16,-8
11820,127,129,-186,51,16,-9
11825,125,131,-183,51,15,-8
11830,126,133,-182,50,16,-8
11835,126,127,-180,50,17,-7
11840,123,129,-183,51,16,-8
11845,124,130,-183,50,17,-8
11850,126,130,-184,49,18,-8
11855,127,131,-175,50,18,-8
11860,124,130,-188,50,17,-9
11865,128,130,-184,49,17,-6
11870,124,129,-181,48,18,-8
11875,127,129,-184,48,18,-6
11880,125,130,-182,48,18,-7
11885,125,130,-184,49,17,-8
11890,125,131,-186,51,17,-8
11895,126,131,-186,50,18,-7
11900,127,131,-183,51,16,-6
11905,126,129,-183,52,16,-8
11910,124,137,-186,52,17,-8
11915,126,129,-185,51,15,-6
11920,125,130,-183,51,15,-6
11925,125,130,-179,52,16,-6
11930,124,131,-183,49,17,-7
11935,126,130,-184,50,17,-5
11940,125,130,-185,48,17,-6
11945,125,133,-183,49,17,-6
11950,126,131,-183,50,17,-7
11955,124,129,-185,48,17,-7
11960,127,130,-182,48,17,-8
11965,125,132,-181,50,16,-8
11970,124,129,-185,51,15,-8
11975,124,129,-187,52,15,-8
11980,127,132,-185,53,18,-6
11985,125,131,-184,53,19,-6
11990,126,132,-185,52,22,-2
11995,125,131,-189,53,26,0
12000,124,133,-187,52,31,3
12005,123,130,-185,51,34,7
12010,128,129,-186,52,39,7
12015,124,132,-182,53,40,9
12020,125,132,-181,53,42,11
12025,124,132,-184,52,42,13
12030,126,129,-186,53,40,11
12035,127,131,-186,53,38,10
12040,125,132,-182,53,36,9
12045,125,130,-180,53,36,7
12050,128,131,-184,53,34,7
12055,126,130,-183,53,34,6
12060,124,134,-181,51,33,4
12065,128,130,-179,53,35,3
12070,125,129,-178,52,34,3
12075,127,130,-182,50,34,4
12080,127,129,-180,49,33,3
12085,128,129,-182,48,31,2
12090,126,131,-181,50,30,1
12095,126,129,-185,52,29,0
12100,127,130,-184,54,28,1
12105,127,128,-186,55,27,0
12110,126,129,-184,54,26,1
12115,128,132,-181,54,26,0
12120,123,129,-181,53,25,2
12125,126,129,-178,51,25,0
12130,126,129,-176,49,25,0
12135,125,131,-182,48,23,-1
12140,128,128,-183,47,23,-2
12145,123,128,-180,48,20,-3
12150,127,128,-182,48,19,-3
12155,124,130,-183,48,17,-4
12160,124,131,-185,48,17,-6
12165,126,131,-183,47,15,-7
12170,129,131,-181,48,15,-7
12175,125,131,-185,49,14,-6
12180,125,138,-191,48,16,-8
12185,124,128,-182,43,14,-9
12190,127,129,-184,42,11,-5
12195,126,129,-183,41,16,-6
12200,127,131,-181,43,17,-8
12205,126,131,-182,47,15,-8
12210,125,130,-184,49,15,-8
12215,127,129,-183,50,17,-7
12220,126,130,-186,49,18,-8
12225,129,131,-186,49,18,-9
12230,131,132,-186,50,17,-11
12235,134,126,-180,50,15,-11
12240,127,129,-184,51,12,-12
12245,127,130,-182,50,11,-12
12250,126,130,-187,49,11,-12
12255,127,130,-185,48,13,-13
12260,127,131,-186,47,12,-12
12265,128,130,-179,49,11,-12
12270,127,129,-181,49,10,-12
12275,127,130,-184,47,10,-12
12280,124,132,-181,46,11,-13
12285,129,133,-181,47,9,-14
12290,127,124,-180,48,9,-14
12295,129,131,-184,48,8,-14
12300,128,130,-185,48,8,-13
12305,129,131,-182,48,8,-13
12310,125,130,-182,49,6,-13
12315,127,130,-184,51,8,-12
12320,128,129,-185,50,9,-14
12325,127,131,-183,51,10,-12
12330,125,129,-185,51,10,-11
12335,123,129,-179,50,10,-12
12340,125,135,-182,49,11,-11
12345,121,131,-187,49,12,-12
12350,127,131,-181,48,11,-12
12355,124,133,-182,48,13,-11
12360,126,130,-185,47,11,-10
12365,128,128,-187,47,11,-11
12370,126,132,-185,47,11,-9
12375,128,132,-178,47,10,-10
12380,128,129,-182,48,11,-10
12385,128,129,-187,49,12,-10
12390,128,128,-184,50,11,-10
12395,126,129,-183,49,11,-11
12400,134,130,-190,49,10,-10
12405,127,130,-180,50,10,-11
12410,127,128,-182,51,10,-10
12415,127,133,-187,52,10,-12
12420,123,131,-186,50,10,-11
12425,130,128,-185,52,10,-11
12430,126,129,-180,50,11,-10
12435,128,128,-182,51,11,-13
12440,124,128,-184,49,11,-10
12445,126,129,-185,50,13,-10
12450,128,129,-187,50,13,-11
12455,128,129,-183,49,13,-11
12460,127,131,-186,48,14,-10
12465,127,128,-182,49,14,-10
12470,124,132,-185,49,14,-10
12475,126,131,-184,48,14,-8
12480,124,132,-179,49,14,-8
12485,127,131,-184,49,13,-10
12490,125,131,-184,50,12,-10
12495,129,131,-177,51,12,-11
12500,126,129,-183,50,12,-9
12505,123,129,-177,52,12,-11
12510,124,129,-185,51,13,-9
12515,128,129,-183,52,13,-10
12520,128,131,-182,51,13,-11
12525,127,133,-184,51,14,-9
12530,128,128,-183,52,14,-9
12535,128,129,-185,51,15,-9
12540,125,131,-186,49,14,-9
12545,127,128,-180,49,15,-8
12550,124,129,-185,50,15,-9
12555,128,131,-185,51,16,-10
12560,127,130,-177,50,15,-9
12565,127,129,-182,51,15,-9
12570,127,129,-183,51,16,-7
12575,125,129,-184,50,15,-9
12580,124,128,-182,51,16,-9
12585,127,128,-182,50,16,-9
12590,127,130,-184,52,16,-8
12595,128,129,-184,53,17,-8
12600,127,131,-183,54,17,-9
12605,126,130,-178,53,16,-8
12610,124,131,-183,54,16,-7
12615,124,126,-182,52,16,-8
12620,127,130,-187,52,17,-7
12625,128,129,-181,52,18,-7
12630,124,130,-181,52,16,-7
12635,127,132,-185,51,17,-8
12640,125,130,-188,52,17,-6
12645,129,129,-184,52,17,-7
12650,126,130,-185,52,16,-7
12655,126,128,-182,52,16,-7
12660,128,132,-182,52,16,-6
12665,126,132,-183,52,16,-7
12670,125,129,-181,51,17,-6
12675,127,130,-180,53,17,-9
12680,129,128,-184,52,17,-7
12685,126,132,-180,52,17,-7
12690,127,129,-185,51,17,-7
12695,128,128,-187,51,17,-9
12700,127,131,-186,49,17,-8
12705,128,130,-180,50,16,-7
12710,127,129,-186,49,16,-8
12715,127,132,-182,49,17,-8
12720,127,130,-185,48,17,-6
12725,124,126,-185,50,16,-7
12730,127,130,-180,49,16,-7
12735,128,129,-181,49,16,-8
12740,127,128,-181,49,16,-10
12745,127,130,-184,49,15,-8
12750,129,128,-185,49,14,-9
12755,127,129,-184,49,15,-8
12760,127,132,-183,49,14,-9
12765,128,130,-185,49,14,-9
12770,127,129,-183,51,14,-10
12775,127,128,-180,50,15,-11
12780,124,132,-184,50,15,-11
12785,127,129,-183,51,15,-11
12790,126,132,-186,51,13,-8
12795,126,131,-185,52,13,-11
12800,128,130,-183,50,13,-10
12805,128,132,-179,50,13,-10
12810,124,130,-183,50,13,-11
12815,127,129,-185,49,11,-11
12820,126,130,-184,49,12,-10
12825,129,127,-181,48,14,-11
12830,128,130,-183,50,12,-11
12835,127,129,-178,51,12,-10
12840,127,131,-182,52,12,-9
12845,128,129,-183,51,11,-9
12850,127,129,-180,52,10,-11
12855,126,131,-182,52,10,-10
12860,127,129,-181,53,9,-10
12865,126,131,-185,52,9,-12
12870,127,129,-184,52,9,-12
12875,131,128,-183,51,9,-11
12880,129,132,-184,51,8,-11
12885,123,130,-183,51,10,-12
12890,130,128,-187,49,10,-11
12895,125,129,-184,49,11,-10
12900,126,130,-181,51,13,-10
12905,128,130,-184,52,13,-9
12910,127,129,-182,52,14,-9
12915,128,130,-186,52,13,-9
12920,126,131,-181,52,12,-9
12925,125,129,-180,51,12,-10
12930,128,131,-185,51,12,-10
12935,128,130,-183,51,11,-10
12940,131,129,-180,50,10,-11
12945,125,133,-190,49,10,-11
12950,128,128,-182,49,9,-12
12955,125,130,-185,47,9,-11
12960,127,130,-184,47,9,-12
12965,127,130,-183,48,8,-13
12970,128,130,-185,49,8,-13
12975,127,130,-182,48,8,-13
12980,127,129,-180,47,9,-15
12985,128,131,-187,46,9,-13
12990,124,131,-178,45,10,-12
12995,124,127,-185,46,10,-14
13000,127,132,-181,46,13,-11
13005,127,129,-180,48,12,-13
13010,127,131,-181,48,13,-12
13015,126,130,-188,49,13,-11
13020,128,129,-185,50,13,-11
13025,127,131,-182,50,13,-8
13030,128,128,-181,51,12,-10
13035,127,130,-186,52,13,-10
13040,127,132,-183,53,10,-11
13045,128,129,-186,55,9,-11
13050,125,127,-181,54,9,-11
13055,128,130,-183,55,9,-11
13060,126,132,-183,54,10,-10
13065,129,128,-182,51,10,-11
13070,127,131,-186,50,11,-10
13075,125,128,-182,49,12,-12
13080,126,129,-180,50,11,-12
13085,125,131,-183,49,10,-11
13090,127,128,-178,49,10,-12
13095,127,129,-180,51,10,-13
13100,128,131,-182,53,8,-10
13105,128,127,-179,52,7,-11
13110,128,128,-183,51,6,-13
13115,126,129,-183,51,5,-13
13120,128,132,-184,51,5,-12
13125,127,133,-186,53,6,-12
13130,126,130,-179,53,7,-11
13135,128,132,-180,53,7,-13
13140,128,129,-185,52,8,-12
13145,130,134,-182,53,7,-11
13150,126,130,-186,53,8,-12
13155,127,132,-187,54,8,-12
13160,129,128,-185,55,9,-12
13165,126,130,-184,55,9,-13
13170,130,129,-185,54,8,-13
13175,128,130,-181,54,8,-13
13180,129,128,-180,53,7,-12
13185,128,131,-184,52,8,-14
13190,128,130,-181,51,9,-14
13195,128,130,-185,51,10,-15
13200,128,131,-185,53,9,-15
13205,129,129,-182,52,9,-16
13210,126,133,-182,51,9,-14
13215,128,129,-183,51,9,-15
13220,128,129,-180,52,9,-15
13225,126,131,-183,54,9,-14
13230,128,130,-182,54,9,-14
13235,128,130,-181,53,9,-14
13240,126,127,-184,54,8,-14
13245,128,129,-187,53,8,-14
13250,127,128,-182,52,8,-13
13255,129,127,-184,55,10,-13
13260,127,129,-184,55,13,-13
13265,126,129,-182,53,15,-10
13270,127,130,-185,54,15,-9
13275,127,130,-185,54,17,-9
13280,127,126,-184,52,17,-8
13285,128,129,-182,51,17,-9
13290,127,133,-180,51,18,-8
13295,128,129,-185,50,19,-9
13300,129,131,-183,51,19,-8
13305,126,132,-184,49,20,-8
13310,129,128,-182,49,20,-7
13315,127,131,-185,50,19,-8
13320,125,128,-181,50,19,-10
13325,123,125,-182,51,18,-11
13330,126,132,-183,48,17,-9
13335,129,130,-181,49,16,-9
13340,127,131,-182,49,17,-11
13345,128,131,-182,49,17,-10
13350,128,130,-184,50,17,-9
13355,126,132,-181,49,17,-8
13360,130,129,-183,49,17,-10
13365,127,128,-181,49,17,-9
13370,127,130,-181,50,16,-9
13375,126,129,-183,50,16,-11
13380,124,126,-185,51,15,-11
13385,128,129,-184,51,13,-11
13390,125,129,-180,51,11,-12
13395,128,130,-180,50,12,-15
13400,126,129,-179,50,12,-13
13405,128,129,-183,51,11,-13
13410,129,130,-181,51,10,-13
13415,128,130,-180,52,9,-13
13420,129,129,-183,52,9,-12
13425,127,129,-181,54,9,-13
13430,128,129,-181,53,9,-14
13435,122,128,-186,52,10,-13
13440,126,129,-183,54,8,-13
13445,128,129,-181,54,9,-12
13450,128,129,-186,54,8,-12
13455,126,129,-183,52,9,-12
13460,127,129,-184,51,9,-14
13465,127,129,-183,52,9,-13
13470,127,129,-183,51,9,-14
13475,129,130,-177,51,8,-13
13480,125,130,-184,49,9,-14
13485,125,130,-186,50,10,-14
13490,127,130,-179,49,9,-14
13495,125,131,-185,50,8,-14
13500,127,130,-180,49,9,-14
13505,126,130,-180,49,9,-14
13510,129,129,-182,51,10,-15
13515,128,131,-183,50,10,-14
13520,128,130,-182,51,7,-13
13525,127,129,-183,51,9,-14
13530,126,131,-183,50,8,-15
13535,127,130,-177,51,9,-14
13540,126,128,-184,50,8,-16
13545,127,129,-184,50,9,-14
13550,126,130,-180,49,8,-16
13555,127,130,-182,48,8,-16
13560,128,132,-178,50,8,-18
13565,127,129,-186,49,8,-16
13570,128,128,-184,49,6,-15
13575,124,131,-185,51,7,-15
13580,125,128,-183,52,8,-14
13585,128,128,-179,51,7,-15
13590,128,129,-182,53,7,-15
13595,127,129,-184,52,9,-15
13600,127,128,-183,51,7,-17
13605,125,131,-182,53,8,-16
13610,127,129,-183,52,7,-14
13615,127,131,-182,53,7,-15
13620,126,132,-181,52,8,-14
13625,127,129,-182,53,7,-13
13630,128,130,-179,53,9,-13
13635,127,128,-187,53,9,-13
13640,127,130,-180,53,8,-13
13645,126,133,-185,53,8,-12
13650,123,130,-189,53,8,-14
13655,127,131,-182,52,9,-14
13660,128,133,-183,53,9,-15
13665,127,128,-183,52,9,-15
13670,128,131,-185,53,8,-15
13675,124,130,-182,52,8,-15
13680,125,129,-184,53,8,-14
13685,127,130,-184,53,9,-15
13690,127,129,-179,52,8,-15
13695,125,130,-182,54,9,-15
13700,128,130,-181,54,7,-15
13705,127,130,-189,54,7,-14
13710,126,130,-182,54,8,-13
13715,127,129,-185,53,7,-15
13720,128,129,-183,53,7,-15
13725,128,131,-185,52,5,-13
13730,128,132,-186,53,7,-13
13735,127,131,-181,53,7,-14
13740,128,130,-180,52,7,-14
13745,127,130,-185,52,8,-15
13750,122,133,-184,53,7,-13
13755,125,129,-183,53,7,-12
13760,131,133,-186,51,7,-15
13765,126,131,-185,51,7,-14
13770,129,130,-183,52,9,-14
13775,127,128,-184,53,8,-13
13780,127,128,-184,53,8,-13
13785,127,128,-185,52,8,-12
13790,129,130,-185,52,9,-13
13795,123,127,-181,50,10,-13
13800,126,131,-183,52,10,-13
13805,126,130,-186,52,9,-13
13810,125,131,-182,53,9,-11
13815,127,133,-185,52,10,-11
13820,128,129,-183,52,10,-12
13825,126,132,-181,52,10,-11
13830,129,130,-183,53,11,-10
13835,127,130,-184,52,12,-10
13840,126,131,-185,51,13,-11
13845,126,129,-183,52,12,-9
13850,124,130,-184,50,14,-9
13855,127,128,-179,47,13,-10
13860,126,128,-181,48,13,-9
13865,127,130,-185,48,12,-11
13870,125,131,-182,49,13,-8
13875,127,131,-184,50,12,-9
13880,126,128,-183,49,13,-9
13885,128,129,-183,50,13,-7
13890,127,130,-187,51,14,-8
13895,127,128,-182,50,14,-10
13900,128,128,-177,50,14,-8
13905,126,131,-184,50,13,-9
13910,128,130,-186,49,13,-10
13915,125,129,-182,49,13,-10
13920,126,130,-183,48,12,-11
13925,127,134,-184,49,10,-11
13930,122,133,-183,49,10,-12
13935,127,131,-181,47,10,-13
13940,127,131,-181,47,9,-14
13945,126,132,-186,47,9,-14
13950,127,133,-184,49,9,-11
13955,128,131,-186,47,11,-13
13960,123,131,-181,48,12,-12
13965,128,131,-182,48,12,-11
13970,129,132,-187,48,14,-11
13975,128,129,-182,49,14,-11
13980,130,137,-180,51,16,-10
13985,126,130,-181,50,16,-7
13990,127,132,-184,50,16,-10
13995,128,132,-182,52,15,-10
14000,128,129,-179,51,15,-10
14005,128,130,-185,54,13,-9
14010,126,130,-180,53,11,-10
14015,127,131,-185,55,11,-9
14020,124,128,-182,55,10,-10
14025,128,129,-184,54,11,-10
14030,128,139,-184,53,11,-10
14035,127,130,-183,51,13,-10
14040,128,128,-184,50,13,-10
14045,127,129,-183,50,14,-9
14050,126,132,-185,46,14,-10
14055,129,128,-181,47,14,-9
14060,123,132,-184,47,13,-10
14065,125,131,-182,47,13,-8
14070,127,131,-185,49,12,-10
14075,125,134,-182,50,10,-10
14080,125,130,-187,51,11,-9
14085,127,129,-180,51,11,-9
14090,128,130,-185,52,12,-7
14095,129,130,-182,52,13,-7
14100,131,129,-181,54,13,-7
14105,129,130,-181,54,15,-8
14110,128,131,-181,54,15,-9
14115,127,131,-181,54,15,-8
14120,129,129,-185,54,15,-7
14125,127,129,-178,54,16,-7
14130,132,129,-184,53,15,-8
14135,125,132,-181,52,17,-8
14140,125,128,-183,52,17,-7
14145,127,131,-182,51,17,-8
14150,123,131,-182,50,17,-7
14155,128,128,-180,50,17,-8
14160,126,130,-182,50,18,-9
14165,128,129,-183,50,16,-8
14170,126,128,-182,50,17,-9
14175,125,130,-185,50,15,-11
14180,127,127,-181,50,14,-10
14185,127,129,-182,52,13,-9
14190,125,131,-180,51,15,-10
14195,124,134,-179,52,15,-10
14200,127,128,-180,52,15,-8
14205,124,130,-179,51,15,-9
14210,128,129,-181,51,15,-10
14215,126,128,-182,51,15,-11
14220,127,131,-183,51,14,-10
14225,128,129,-184,50,14,-9
14230,125,128,-178,50,14,-8
14235,128,129,-182,50,15,-7
14240,125,129,-182,50,15,-8
14245,127,129,-183,50,14,-9
14250,127,124,-187,50,14,-7
14255,125,130,-180,52,14,-7
14260,130,129,-184,50,15,-8
14265,129,129,-182,49,13,-9
14270,128,129,-183,49,14,-9
14275,128,128,-182,49,13,-9
14280,128,130,-184,47,14,-9
14285,129,129,-182,49,14,-10
14290,125,131,-184,49,14,-10
14295,127,132,-187,49,13,-9
14300,128,134,-184,48,13,-8
14305,122,130,-186,48,12,-10
14310,128,129,-185,48,11,-10
14315,125,129,-182,49,13,-9
14320,129,130,-181,49,13,-8
14325,130,130,-184,50,13,-8
14330,128,129,-182,49,14,-10
14335,125,130,-180,49,13,-10
14340,127,130,-180,49,13,-10
14345,128,130,-182,47,12,-13
14350,129,129,-183,48,10,-13
14355,129,131,-182,47,9,-13
14360,125,134,-186,48,8,-14
14365,127,133,-184,50,6,-15
14370,127,133,-183,49,5,-15
14375,128,131,-183,47,6,-13
14380,127,130,-184,47,6,-13
14385,129,130,-179,48,6,-12
14390,126,129,-179,49,7,-12
14395,129,131,-183,49,6,-14
14400,131,130,-183,49,6,-13
14405,128,129,-180,49,4,-15
14410,127,129,-183,51,4,-14
14415,126,129,-182,50,4,-14
14420,128,130,-181,52,3,-15
14425,125,129,-185,51,4,-13
14430,127,129,-179,51,4,-14
14435,127,132,-182,51,4,-13
14440,127,132,-187,51,5,-12
14445,127,128,-182,52,3,-15
14450,126,131,-185,52,4,-14
14455,128,130,-176,52,4,-13
14460,126,131,-184,52,4,-13
14465,124,136,-185,52,5,-14
14470,124,133,-185,52,6,-14
14475,128,130,-185,52,6,-13
14480,128,129,-183,53,6,-13
14485,125,132,-187,52,6,-12
14490,128,132,-184,52,7,-13
14495,129,129,-185,52,7,-13
14500,126,131,-186,52,7,-13
14505,127,131,-180,51,7,-12
14510,123,134,-186,51,9,-13
14515,126,133,-182,49,9,-11
14520,125,129,-183,50,10,-11
14525,127,130,-187,50,11,-12
14530,127,130,-179,52,11,-11
14535,126,130,-178,51,11,-12
14540,127,132,-184,51,12,-11
14545,128,129,-181,52,11,-11
14550,125,130,-182,50,10,-10
14555,126,131,-183,51,10,-10
14560,126,131,-185,51,10,-11
14565,127,129,-187,53,10,-11
14570,127,128,-187,52,11,-12
14575,127,129,-182,53,10,-11
14580,128,130,-186,52,13,-11
14585,127,133,-182,51,11,-11
14590,127,130,-180,52,13,-10
14595,126,130,-182,52,14,-10
14600,126,129,-187,52,14,-9
14605,128,131,-181,51,15,-10
14610,126,128,-182,50,16,-8
14615,127,130,-182,50,15,-8
14620,128,128,-181,49,16,-8
14625,126,128,-182,49,16,-8
14630,124,134,-183,50,15,-10
14635,127,131,-184,49,15,-10
14640,126,129,-185,50,15,-8
14645,127,128,-178,51,15,-8
14650,129,129,-184,52,15,-8
14655,127,131,-184,51,15,-9
14660,127,129,-186,51,15,-8
14665,129,129,-178,52,17,-8
14670,128,133,-187,51,16,-7
14675,128,129,-183,50,15,-8
14680,127,129,-183,51,16,-9
14685,129,128,-185,50,15,-8
14690,127,129,-181,51,15,-8
14695,128,128,-181,49,16,-9
14700,128,129,-185,50,15,-9
14705,127,131,-183,51,14,-9
14710,129,130,-184,52,14,-10
14715,126,129,-185,52,13,-9
14720,129,133,-186,52,13,-10
14725,125,130,-183,53,13,-11
14730,129,130,-181,52,12,-11
14735,128,131,-184,51,12,-10
14740,124,130,-182,51,11,-11
14745,128,129,-183,51,13,-10
14750,129,131,-186,52,14,-11
14755,125,132,-181,50,14,-11
14760,126,130,-185,48,14,-11
14765,125,127,-182,50,16,-9
14770,128,130,-183,51,15,-8
14775,128,130,-179,50,15,-8
14780,127,128,-175,51,15,-9
14785,126,132,-184,50,13,-8
14790,132,133,-179,50,14,-9
14795,128,131,-184,51,12,-11
14800,125,129,-183,51,11,-9
14805,127,131,-183,52,10,-9
14810,126,130,-179,51,11,-8
14815,127,129,-183,52,11,-11
14820,129,130,-184,51,12,-10
14825,126,131,-182,50,12,-10
14830,127,128,-181,51,11,-10
14835,125,133,-181,50,11,-9
14840,127,130,-179,50,11,-9
14845,124,130,-184,51,11,-8
14850,122,132,-190,50,12,-10
14855,127,130,-182,50,12,-10
14860,127,131,-183,52,12,-11
14865,128,132,-184,52,12,-11
14870,129,130,-184,51,11,-10
14875,127,130,-183,53,11,-10
14880,128,128,-180,52,11,-11
14885,128,133,-181,52,10,-10
14890,129,134,-182,50,11,-10
14895,127,129,-181,51,11,-11
14900,125,129,-187,51,10,-11
14905,133,130,-177,50,7,-12
14910,130,130,-181,50,7,-15
14915,128,131,-184,50,7,-14
14920,126,131,-181,50,7,-14
14925,126,131,-183,50,6,-14
14930,129,132,-187,48,7,-12
14935,127,132,-186,48,8,-14
14940,130,129,-182,48,9,-13
14945,127,131,-187,50,10,-12
14950,128,130,-179,50,12,-11
14955,128,130,-181,51,13,-10
14960,127,131,-182,51,14,-9
14965,129,132,-180,52,13,-10
14970,127,130,-182,51,13,-10
14975,127,128,-183,52,12,-10
14980,127,130,-184,53,12,-10
14985,127,129,-183,55,11,-10
14990,128,128,-184,57,10,-10
14995,125,133,-183,57,7,-10
