timestamp,acc_x,acc_y,acc_z,gyro_x,gyro_y,gyro_z
0,-29,-252,-17,-37,77,-1
5,-28,-251,-18,-46,80,-1
10,-23,-256,-17,-56,84,0
15,-27,-253,-23,-65,89,3
20,-25,-254,-19,-78,91,8
25,-21,-255,-20,-89,91,12
30,-27,-256,-20,-85,91,10
35,-32,-254,-21,-72,90,9
40,-32,-253,-19,-66,88,11
45,-28,-252,-20,-60,85,9
50,-29,-251,-20,-56,82,4
55,-29,-249,-24,-53,79,-2
60,-28,-253,-21,-53,77,-3
65,-31,-253,-23,-56,76,-5
70,-28,-256,-24,-62,77,-3
75,-28,-259,-19,-68,76,-4
80,-32,-257,-21,-71,71,-6
85,-30,-256,-21,-72,69,-10
90,-28,-252,-20,-72,66,-10
95,-26,-257,-22,-72,68,-9
100,-31,-253,-20,-70,68,-7
105,-25,-256,-24,-66,66,-7
110,-28,-253,-24,-69,67,-10
115,-27,-254,-19,-74,67,-9
120,-30,-258,-18,-67,73,-1
125,-27,-263,-17,-36,80,11
130,-26,-256,-24,-10,89,11
135,-27,-254,-25,-5,91,10
140,-27,-253,-26,-13,92,10
145,-29,-251,-25,-24,90,10
150,-32,-252,-27,-38,86,8
155,-24,-254,-29,-44,82,7
160,-31,-252,-20,-50,78,5
165,-26,-255,-27,-56,77,3
170,-24,-255,-28,-53,78,10
175,-24,-254,-24,-61,78,7
180,-27,-255,-24,-63,79,10
185,-26,-253,-20,-69,85,16
190,-24,-252,-29,-79,90,20
195,-27,-252,-20,-92,94,23
200,-25,-252,-24,-100,99,28
205,-29,-254,-22,-112,103,28
210,-32,-249,-20,-118,103,28
215,-26,-254,-23,-127,104,25
220,-34,-249,-23,-132,102,25
225,-24,-247,-26,-152,94,20
230,-25,-248,-20,-173,104,22
235,-24,-254,-23,-171,112,30
240,-27,-253,-26,-161,119,42
245,-30,-254,-26,-148,123,48
250,-25,-255,-25,-136,130,48
255,-26,-259,-21,-117,134,51
260,-34,-258,-22,-104,133,50
265,-32,-252,-25,-107,127,46
270,-25,-252,-29,-121,121,40
275,-27,-251,-28,-130,122,39
280,-28,-253,-27,-133,125,41
285,-27,-252,-29,-134,128,41
290,-30,-250,-25,-138,126,42
295,-20,-255,-24,-148,126,39
300,-28,-252,-23,-149,127,41
305,-28,-250,-23,-153,125,43
310,-26,-250,-26,-161,122,39
315,-21,-252,-28,-171,125,38
320,-26,-252,-33,-166,129,42
325,-30,-252,-30,-159,127,43
330,-29,-255,-30,-159,125,41
335,-28,-252,-32,-154,121,38
340,-32,-251,-31,-146,119,39
345,-33,-251,-36,-139,113,41
350,-25,-252,-33,-138,106,30
355,-37,-257,-30,-130,111,44
360,-34,-252,-33,-124,92,36
365,-29,-257,-32,-133,92,29
370,-34,-256,-29,-138,90,34
375,-34,-252,-32,-136,81,34
380,-33,-251,-33,-142,75,25
385,-32,-255,-32,-150,65,16
390,-34,-249,-33,-155,58,10
395,-35,-248,-25,-161,50,0
400,-34,-248,-34,-169,42,-13
405,-33,-248,-33,-180,37,-28
410,-28,-255,-32,-187,41,-30
415,-35,-253,-23,-191,38,-34
420,-38,-250,-31,-190,27,-60
425,-26,-250,-34,-198,38,-79
430,-23,-259,-32,-197,54,-51
435,-29,-262,-38,-174,51,-23
440,-28,-258,-39,-154,47,-23
445,-30,-258,-39,-149,48,-39
450,-27,-254,-36,-148,51,-37
455,-26,-257,-37,-140,52,-19
460,-26,-256,-34,-125,50,-3
465,-33,-255,-34,-113,47,0
470,-39,-249,-32,-105,41,0
475,-38,-248,-35,-104,35,-1
480,-34,-248,-37,-106,36,-4
485,-34,-250,-35,-108,34,-6
490,-36,-250,-35,-111,34,-5
495,-34,-253,-31,-113,33,-3
500,-30,-252,-38,-117,31,-4
505,-33,-249,-37,-123,30,-6
510,-37,-250,-43,-126,29,-7
515,-31,-255,-35,-129,28,-11
520,-30,-252,-39,-133,28,-12
525,-28,-255,-36,-134,28,-13
530,-27,-256,-37,-134,30,-12
535,-28,-255,-40,-132,33,-14
540,-26,-254,-40,-127,36,-14
545,-26,-255,-40,-121,42,-13
550,-28,-253,-41,-114,47,-12
555,-29,-251,-39,-108,50,-12
560,-29,-252,-38,-103,50,-10
565,-30,-250,-39,-98,49,-10
570,-29,-250,-40,-97,50,-11
575,-31,-249,-36,-98,49,-11
580,-31,-254,-37,-98,47,-13
585,-30,-253,-44,-98,45,-15
590,-32,-251,-40,-98,43,-17
595,-32,-254,-40,-97,42,-19
600,-30,-253,-42,-95,42,-21
605,-34,-250,-39,-92,43,-23
610,-30,-252,-44,-89,44,-25
615,-31,-251,-41,-86,44,-26
620,-32,-259,-30,-85,44,-28
625,-30,-249,-44,-83,47,-29
630,-27,-251,-40,-85,47,-31
635,-28,-251,-41,-86,47,-32
640,-29,-250,-41,-90,47,-35
645,-30,-249,-41,-94,45,-37
650,-33,-248,-41,-94,46,-39
655,-33,-250,-44,-93,40,-42
660,-27,-251,-44,-96,40,-52
665,-29,-250,-40,-101,43,-61
670,-32,-251,-42,-104,47,-60
675,-29,-252,-41,-102,48,-56
680,-30,-251,-41,-94,46,-53
685,-27,-251,-44,-84,41,-52
690,-29,-253,-43,-78,39,-53
695,-27,-251,-41,-73,38,-55
700,-25,-252,-45,-71,39,-57
705,-24,-254,-42,-68,39,-56
710,-25,-255,-40,-66,42,-57
715,-28,-253,-43,-63,44,-56
720,-27,-252,-42,-66,47,-56
725,-29,-250,-45,-70,50,-59
730,-19,-250,-34,-76,53,-62
735,-25,-253,-44,-78,57,-62
740,-26,-253,-39,-77,59,-62
745,-28,-252,-40,-75,60,-60
750,-28,-249,-43,-75,63,-58
755,-26,-255,-44,-70,63,-57
760,-26,-252,-47,-66,63,-53
765,-25,-254,-44,-61,65,-49
770,-29,-252,-43,-61,65,-45
775,-26,-250,-45,-58,65,-40
780,-32,-252,-42,-57,64,-34
785,-30,-251,-43,-54,63,-29
790,-29,-252,-45,-54,62,-30
795,-26,-252,-42,-57,59,-31
800,-26,-250,-41,-60,56,-32
805,-27,-248,-43,-61,51,-32
810,-26,-247,-41,-62,47,-31
815,-29,-248,-41,-63,44,-28
820,-23,-250,-41,-65,46,-27
825,-22,-255,-42,-68,48,-29
830,-22,-253,-38,-73,51,-32
835,-20,-253,-45,-76,55,-35
840,-20,-243,-40,-77,58,-38
845,-23,-254,-42,-75,63,-39
850,-22,-254,-44,-74,68,-36
855,-23,-253,-43,-74,72,-33
860,-19,-256,-44,-75,79,-29
865,-23,-255,-43,-75,82,-25
870,-23,-252,-45,-74,85,-19
875,-19,-254,-42,-72,86,-13
880,-23,-253,-46,-72,86,-10
885,-20,-250,-44,-74,88,-7
890,-25,-250,-45,-75,89,-5
895,-22,-250,-47,-75,90,-4
900,-24,-249,-44,-73,93,-1
905,-22,-249,-47,-75,98,0
910,-26,-250,-44,-73,101,1
915,-24,-250,-48,-72,104,0
920,-26,-251,-47,-73,105,-3
925,-26,-255,-46,-71,105,-3
930,-25,-256,-46,-72,108,-5
935,-27,-254,-49,-73,110,-8
940,-25,-256,-48,-72,109,-11
945,-27,-265,-52,-68,106,-13
950,-28,-255,-42,-62,105,-14
955,-30,-252,-48,-57,103,-15
960,-27,-254,-50,-50,101,-16
965,-29,-252,-52,-47,100,-19
970,-30,-249,-49,-45,97,-19
975,-28,-248,-50,-45,95,-18
980,-27,-250,-52,-44,94,-19
985,-31,-249,-48,-43,92,-21
990,-29,-251,-49,-43,89,-21
995,-26,-253,-46,-45,89,-21
1000,-29,-252,-50,-46,85,-23
1005,-29,-252,-47,-46,83,-22
1010,-26,-253,-47,-45,80,-24
1015,-25,-254,-49,-45,78,-25
1020,-30,-254,-47,-40,76,-27
1025,-26,-250,-46,-36,74,-28
1030,-27,-255,-51,-29,74,-29
1035,-29,-251,-48,-21,70,-27
1040,-29,-251,-49,-16,68,-26
1045,-28,-251,-46,-9,67,-26
1050,-27,-251,-49,-5,67,-25
1055,-17,-250,-50,-4,65,-22
1060,-28,-250,-49,-1,65,-19
1065,-23,-252,-48,-1,63,-17
1070,-26,-250,-48,-4,64,-14
1075,-23,-251,-49,-8,63,-13
1080,-27,-249,-46,-14,62,-12
1085,-27,-249,-45,-19,59,-14
1090,-24,-249,-47,-20,57,-13
1095,-26,-251,-44,-21,55,-15
1100,-25,-251,-46,-19,54,-15
1105,-23,-254,-46,-18,53,-16
1110,-25,-252,-48,-16,53,-15
1115,-23,-253,-46,-14,55,-15
1120,-25,-255,-46,-12,56,-15
1125,-23,-256,-47,-10,56,-14
1130,-23,-255,-47,-7,55,-13
1135,-23,-253,-45,-3,55,-13
1140,-24,-256,-52,0,56,-12
1145,-23,-252,-47,3,57,-13
1150,-24,-253,-45,6,58,-12
1155,-26,-252,-51,5,58,-12
1160,-25,-253,-49,1,58,-11
1165,-22,-249,-46,-1,60,-10
1170,-22,-252,-49,-2,59,-9
1175,-24,-249,-47,-3,61,-7
1180,-22,-250,-51,-6,63,-7
1185,-24,-250,-46,-9,64,-5
1190,-23,-251,-47,-11,66,-4
1195,-24,-248,-49,-13,65,-5
1200,-23,-250,-46,-15,65,-5
1205,-23,-254,-41,-17,64,-4
1210,-20,-256,-43,-16,64,-3
1215,-25,-252,-43,-16,63,-3
1220,-24,-252,-46,-18,60,-3
1225,-24,-253,-46,-17,59,-5
1230,-21,-254,-47,-19,57,-4
1235,-21,-256,-47,-18,59,-3
1240,-24,-251,-45,-19,59,-3
1245,-25,-250,-48,-18,58,-1
1250,-27,-252,-44,-18,60,0
1255,-25,-253,-46,-16,60,0
1260,-23,-253,-47,-16,60,0
1265,-25,-250,-54,-13,61,2
1270,-26,-251,-46,-10,61,3
1275,-31,-251,-55,-8,62,2
1280,-26,-251,-46,-7,61,1
1285,-23,-250,-46,-6,63,1
1290,-24,-249,-48,-4,62,1
1295,-25,-250,-45,-5,63,1
1300,-24,-251,-48,-4,64,0
1305,-25,-252,-47,-4,65,1
1310,-23,-250,-50,-3,66,1
1315,-24,-253,-46,-1,67,0
1320,-25,-251,-50,-1,69,0
1325,-25,-252,-44,0,68,1
1330,-27,-252,-51,0,68,1
1335,-26,-253,-48,-2,69,1
1340,-25,-253,-48,-2,69,1
1345,-26,-252,-50,-3,70,-1
1350,-24,-252,-50,-4,70,-1
1355,-23,-250,-47,-3,70,0
1360,-27,-252,-48,-4,70,2
1365,-28,-251,-47,-2,70,2
1370,-25,-250,-45,-1,71,4
1375,-26,-250,-49,-1,71,5
1380,-23,-254,-44,-1,71,4
1385,-32,-251,-49,-3,73,4
1390,-24,-255,-48,-2,71,5
1395,-25,-253,-46,-4,70,4
1400,-26,-251,-47,-6,69,3
1405,-25,-254,-46,-5,69,3
1410,-24,-255,-46,-3,68,2
1415,-22,-256,-49,-3,67,2
1420,-27,-252,-48,-2,68,2
1425,-26,-252,-46,-1,68,1
1430,-26,-251,-51,-1,70,2
1435,-25,-251,-50,-4,71,2
1440,-25,-250,-51,-7,73,2
1445,-26,-250,-48,-9,75,-1
1450,-25,-251,-46,-13,75,-1
1455,-24,-252,-48,-16,74,-1
1460,-23,-251,-47,-20,70,-3
1465,-24,-248,-45,-25,68,-5
1470,-25,-249,-47,-29,65,-8
1475,-26,-250,-48,-35,61,-9
1480,-28,-249,-47,-40,60,-9
1485,-24,-252,-46,-42,58,-8
1490,-25,-250,-35,-44,57,-10
1495,-25,-252,-46,-41,56,-10
1500,-27,-251,-44,-40,57,-12
1505,-24,-252,-45,-35,57,-10
1510,-24,-254,-45,-31,59,-10
1515,-30,-253,-47,-26,60,-10
1520,-30,-251,-47,-20,59,-11
1525,-26,-253,-44,-16,60,-13
1530,-27,-253,-43,-14,60,-13
1535,-28,-254,-44,-13,64,-13
1540,-26,-251,-48,-12,65,-12
1545,-26,-252,-46,-10,65,-11
1550,-29,-250,-44,-9,68,-12
1555,-27,-252,-46,-9,70,-11
1560,-23,-251,-46,-10,72,-11
1565,-25,-252,-44,-9,74,-9
1570,-24,-251,-46,-12,76,-9
1575,-25,-252,-48,-13,75,-8
1580,-27,-251,-45,-16,72,-9
1585,-28,-249,-45,-16,73,-8
1590,-26,-253,-48,-17,72,-7
1595,-29,-253,-46,-16,72,-5
1600,-25,-258,-39,-14,72,-3
1605,-28,-249,-47,-13,71,-3
1610,-25,-252,-46,-11,72,-6
1615,-29,-251,-46,-8,72,-5
1620,-26,-252,-45,-6,70,-3
1625,-22,-253,-45,-5,71,-5
1630,-24,-248,-47,-4,71,-6
1635,-27,-251,-48,-5,73,-4
1640,-25,-251,-45,-5,71,-5
1645,-24,-250,-47,-5,73,-5
1650,-25,-250,-46,-7,74,-6
1655,-26,-251,-46,-10,74,-8
1660,-25,-249,-45,-11,73,-9
1665,-27,-249,-47,-14,72,-10
1670,-24,-250,-47,-14,71,-10
1675,-26,-251,-50,-16,72,-10
1680,-28,-252,-47,-16,71,-11
1685,-25,-251,-49,-16,72,-10
1690,-25,-254,-46,-16,70,-12
1695,-24,-254,-48,-15,71,-11
1700,-25,-251,-51,-14,70,-11
1705,-25,-253,-47,-12,71,-12
1710,-27,-250,-39,-9,69,-11
1715,-26,-252,-48,-5,70,-11
1720,-23,-253,-51,-3,69,-11
1725,-24,-253,-45,-2,68,-10
1730,-25,-249,-47,-1,69,-9
1735,-24,-250,-44,-1,67,-8
1740,-24,-251,-47,-2,68,-7
1745,-27,-250,-46,-3,67,-7
1750,-23,-248,-46,-2,65,-7
1755,-26,-251,-46,0,64,-6
1760,-23,-249,-48,0,66,-4
1765,-25,-252,-45,-2,65,-4
1770,-23,-255,-45,-2,65,-3
1775,-21,-256,-46,1,65,-2
1780,-22,-254,-47,3,65,1
1785,-23,-251,-48,5,64,0
1790,-22,-253,-51,7,63,1
1795,-22,-252,-50,7,63,3
1800,-22,-255,-50,10,63,3
1805,-24,-250,-43,12,62,4
1810,-23,-251,-43,14,61,6
1815,-22,-254,-48,13,61,7
1820,-29,-255,-54,12,61,8
1825,-22,-254,-49,12,62,12
1830,-24,-251,-49,12,60,12
1835,-20,-253,-44,9,62,12
1840,-23,-250,-45,6,62,11
1845,-21,-253,-47,2,62,10
1850,-24,-252,-47,-1,61,10
1855,-26,-251,-45,3,59,8
1860,-25,-250,-45,5,56,7
1865,-27,-251,-47,8,54,7
1870,-25,-253,-47,9,52,5
1875,-24,-252,-46,8,51,3
1880,-23,-254,-44,10,52,2
1885,-25,-252,-42,12,49,0
1890,-27,-254,-46,15,53,-1
1895,-27,-252,-46,18,53,-1
1900,-24,-252,-43,21,58,-2
1905,-25,-252,-47,21,58,-2
1910,-25,-253,-47,20,58,-5
1915,-24,-256,-42,17,59,-3
1920,-28,-255,-43,16,60,0
1925,-27,-252,-43,15,60,1
1930,-22,-252,-45,17,60,3
1935,-25,-252,-44,19,62,5
1940,-25,-250,-43,20,64,7
1945,-24,-249,-45,21,64,6
1950,-22,-249,-46,23,65,7
1955,-25,-251,-45,22,66,8
1960,-25,-250,-46,21,68,7
1965,-27,-251,-44,18,67,7
1970,-27,-252,-47,16,67,7
1975,-23,-254,-46,15,67,8
1980,-27,-254,-47,13,67,8
1985,-30,-249,-45,13,70,6
1990,-25,-251,-45,9,72,7
1995,-25,-252,-46,6,74,6
2000,-24,-254,-42,3,77,7
2005,-25,-250,-43,-1,78,6
2010,-28,-249,-44,-3,77,6
2015,-26,-252,-44,-3,77,6
2020,-27,-251,-43,-3,75,5
2025,-24,-253,-45,-4,74,5
2030,-29,-252,-45,-6,74,3
2035,-38,-254,-48,-7,72,3
2040,-26,-251,-48,-10,72,4
2045,-28,-248,-46,-13,71,3
2050,-23,-253,-46,-15,72,2
2055,-24,-250,-44,-16,73,2
2060,-26,-251,-45,-16,73,1
2065,-25,-251,-44,-17,75,-1
2070,-26,-252,-48,-20,73,1
2075,-25,-251,-51,-21,76,2
2080,-27,-252,-47,-21,77,4
2085,-26,-252,-47,-19,79,4
2090,-24,-252,-46,-17,77,3
2095,-28,-252,-46,-16,78,3
2100,-27,-250,-42,-15,78,1
2105,-27,-251,-49,-14,76,1
2110,-23,-255,-45,-15,75,2
2115,-22,-249,-48,-16,74,2
2120,-28,-251,-49,-20,74,1
2125,-28,-251,-42,-22,76,3
2130,-25,-250,-47,-26,75,1
2135,-24,-254,-47,-27,74,2
2140,-25,-253,-48,-27,75,3
2145,-25,-255,-42,-25,74,2
2150,-27,-251,-42,-26,73,2
2155,-26,-254,-46,-26,73,3
2160,-27,-252,-46,-26,75,1
2165,-25,-253,-45,-26,73,0
2170,-27,-250,-46,-28,72,-2
2175,-24,-254,-44,-27,71,-1
2180,-21,-255,-45,-25,68,-1
2185,-25,-251,-46,-23,70,-2
2190,-28,-252,-42,-21,71,-2
2195,-24,-252,-42,-19,71,-2
2200,-25,-253,-42,-18,71,-2
2205,-24,-250,-44,-17,71,-3
2210,-27,-250,-43,-17,70,-5
2215,-24,-250,-44,-18,69,-7
2220,-24,-249,-45,-20,69,-5
2225,-26,-250,-47,-23,71,-7
2230,-26,-251,-46,-24,71,-7
2235,-26,-251,-43,-27,71,-7
2240,-25,-251,-41,-31,73,-7
2245,-28,-248,-46,-34,74,-7
2250,-22,-251,-44,-37,75,-7
2255,-25,-250,-43,-38,76,-6
2260,-24,-251,-43,-41,76,-6
2265,-24,-250,-45,-43,77,-5
2270,-27,-253,-46,-45,78,-6
2275,-25,-254,-42,-48,78,-4
2280,-25,-252,-43,-51,78,-3
2285,-25,-252,-44,-55,77,-4
2290,-26,-249,-45,-57,76,-4
2295,-24,-253,-43,-60,77,-4
2300,-26,-251,-42,-62,76,-3
2305,-25,-252,-43,-65,75,-2
2310,-24,-251,-44,-68,75,-3
2315,-25,-252,-45,-70,76,-2
2320,-24,-249,-45,-70,76,-2
2325,-25,-251,-49,-71,77,-2
2330,-25,-252,-46,-71,77,-2
2335,-23,-252,-50,-70,79,-2
2340,-24,-251,-50,-68,81,-1
2345,-27,-253,-47,-65,83,0
2350,-26,-252,-48,-63,83,1
2355,-27,-253,-48,-59,83,0
2360,-26,-251,-46,-56,85,0
2365,-35,-249,-52,-52,86,-2
2370,-28,-250,-48,-50,86,-2
2375,-26,-252,-46,-51,86,-2
2380,-25,-251,-47,-51,87,-3
2385,-25,-253,-49,-51,86,-2
2390,-25,-255,-47,-53,87,-2
2395,-26,-250,-48,-56,84,-1
2400,-26,-250,-50,-57,85,-2
2405,-26,-251,-49,-57,84,-3
2410,-27,-253,-49,-58,84,-4
2415,-26,-251,-52,-58,85,-4
2420,-27,-253,-50,-58,81,-4
2425,-26,-251,-49,-57,80,-4
2430,-26,-252,-54,-57,80,-5
2435,-27,-252,-48,-55,78,-3
2440,-23,-253,-48,-55,79,-4
2445,-26,-252,-49,-54,79,-4
2450,-25,-250,-50,-54,77,-3
2455,-25,-250,-46,-53,77,-2
2460,-26,-249,-50,-51,77,-2
2465,-21,-251,-52,-47,78,-3
2470,-24,-252,-52,-44,78,-4
2475,-25,-246,-49,-43,78,-3
2480,-25,-252,-52,-44,78,-2
2485,-24,-251,-50,-48,80,-4
2490,-25,-251,-48,-48,82,-4
2495,-27,-250,-50,-50,82,-4
2500,-27,-249,-48,-51,82,-3
2505,-25,-251,-46,-51,81,-2
2510,-26,-253,-49,-50,80,-4
2515,-21,-252,-45,-49,79,-4
2520,-26,-252,-48,-49,76,-4
2525,-23,-253,-49,-47,76,-3
2530,-25,-252,-49,-43,74,-1
2535,-22,-255,-50,-42,73,-2
2540,-23,-256,-50,-38,72,-3
2545,-26,-251,-53,-36,72,-2
2550,-26,-249,-50,-34,73,-3
2555,-24,-253,-49,-33,73,-3
2560,-28,-251,-52,-31,71,-2
2565,-25,-254,-48,-29,71,-2
2570,-27,-253,-50,-28,71,-3
2575,-27,-251,-47,-26,72,-4
2580,-28,-252,-51,-24,73,-4
2585,-28,-248,-47,-22,73,-5
2590,-25,-249,-50,-20,71,-5
2595,-23,-250,-48,-20,70,-4
2600,-25,-251,-51,-20,71,-4
2605,-26,-251,-49,-22,71,-5
2610,-28,-253,-51,-24,72,-4
2615,-25,-251,-49,-26,73,-7
2620,-25,-253,-48,-29,74,-6
2625,-27,-251,-52,-29,76,-7
2630,-27,-252,-53,-31,76,-8
2635,-28,-252,-45,-30,76,-7
2640,-25,-250,-46,-30,78,-7
2645,-27,-251,-50,-28,77,-8
2650,-24,-250,-48,-26,75,-10
2655,-28,-248,-47,-25,73,-8
2660,-25,-253,-50,-23,72,-7
2665,-24,-252,-51,-22,72,-7
2670,-26,-253,-49,-22,72,-6
2675,-23,-252,-47,-23,73,-6
2680,-27,-250,-49,-24,72,-7
2685,-26,-251,-50,-27,72,-8
2690,-25,-257,-41,-32,71,-8
2695,-23,-250,-49,-32,71,-8
2700,-24,-252,-50,-32,72,-9
2705,-25,-250,-49,-31,72,-8
2710,-28,-250,-49,-30,73,-8
2715,-21,-252,-50,-27,74,-7
2720,-23,-250,-49,-25,75,-5
2725,-27,-251,-49,-23,75,-5
2730,-24,-254,-53,-20,75,-2
2735,-25,-252,-47,-18,75,-1
2740,-24,-252,-50,-16,75,-2
2745,-28,-251,-50,-17,74,-2
2750,-27,-250,-52,-17,75,-3
2755,-24,-253,-49,-19,75,-2
2760,-26,-253,-50,-20,76,-2
2765,-23,-253,-49,-24,74,-2
2770,-25,-253,-53,-24,74,-3
2775,-23,-252,-49,-23,72,0
2780,-26,-248,-49,-22,72,0
2785,-25,-250,-51,-21,73,0
2790,-26,-249,-50,-20,75,0
2795,-25,-249,-50,-20,74,-1
2800,-34,-248,-59,-20,73,-2
2805,-25,-249,-50,-20,74,-2
2810,-27,-251,-52,-21,74,-3
2815,-27,-250,-53,-21,74,-4
2820,-28,-248,-47,-21,75,-4
2825,-22,-252,-50,-21,75,-5
2830,-26,-252,-52,-21,75,-4
2835,-26,-251,-51,-23,74,-3
2840,-26,-253,-47,-20,74,-4
2845,-20,-251,-51,-20,73,-3
2850,-23,-251,-49,-17,73,0
2855,-27,-250,-49,-14,71,1
2860,-24,-249,-51,-12,69,2
2865,-23,-252,-50,-11,68,3
2870,-25,-248,-48,-9,68,4
2875,-25,-250,-51,-9,68,5
2880,-23,-251,-56,-9,71,4
2885,-26,-250,-51,-8,73,4
2890,-24,-249,-51,-9,74,6
2895,-27,-251,-55,-9,75,4
2900,-24,-249,-54,-10,76,4
2905,-25,-249,-55,-12,77,6
2910,-31,-250,-45,-11,78,5
2915,-24,-249,-50,-11,78,4
2920,-24,-250,-51,-11,79,5
2925,-24,-250,-52,-10,80,4
2930,-25,-250,-50,-10,79,3
2935,-24,-251,-52,-12,78,3
2940,-28,-251,-52,-13,79,4
2945,-25,-249,-52,-14,78,2
2950,-26,-251,-51,-15,77,2
2955,-21,-251,-47,-16,76,3
2960,-27,-250,-50,-16,76,1
2965,-23,-251,-53,-17,74,2
2970,-23,-251,-50,-16,72,5
2975,-24,-251,-52,-15,71,3
2980,-27,-248,-52,-13,71,5
2985,-26,-250,-50,-9,67,4
2990,-26,-251,-49,-7,68,3
2995,-24,-250,-52,-6,64,3
3000,-27,-253,-48,-2,62,3
3005,-25,-251,-51,0,60,0
3010,-22,-252,-52,1,61,0
3015,-29,-256,-51,3,62,-1
3020,-24,-254,-51,4,61,-2
3025,-23,-253,-48,2,62,-3
3030,-26,-250,-51,1,63,-4
3035,-25,-249,-49,1,64,-4
3040,-26,-250,-48,1,65,-4
3045,-25,-251,-49,0,65,-4
3050,-27,-251,-48,0,64,-4
3055,-26,-249,-44,1,63,-5
3060,-25,-251,-53,1,65,-5
3065,-25,-251,-48,0,64,-6
3070,-27,-252,-50,1,64,-5
3075,-27,-250,-52,1,65,-6
3080,-25,-253,-50,2,65,-4
3085,-30,-251,-50,3,66,-4
3090,-25,-253,-49,5,67,-3
3095,-23,-250,-45,6,65,-2
3100,-25,-251,-47,7,66,-3
3105,-28,-251,-46,5,64,-2
3110,-25,-253,-47,8,64,-2
3115,-28,-251,-50,8,64,-1
3120,-27,-249,-48,8,63,0
3125,-22,-257,-57,8,63,2
3130,-26,-250,-52,8,65,2
3135,-25,-249,-49,8,66,3
3140,-26,-251,-51,7,65,2
3145,-26,-250,-50,7,67,3
3150,-23,-252,-49,7,68,3
3155,-27,-251,-47,5,68,4
3160,-25,-251,-50,5,68,3
3165,-24,-249,-52,4,67,2
3170,-25,-250,-51,4,68,2
3175,-28,-251,-51,5,67,2
3180,-24,-253,-49,5,66,1
3185,-27,-253,-48,6,66,2
3190,-27,-247,-48,5,66,1
3195,-24,-250,-50,7,66,0
3200,-30,-250,-52,6,65,2
3205,-29,-249,-51,5,66,2
3210,-26,-252,-48,4,66,2
3215,-24,-251,-48,5,67,2
3220,-26,-251,-53,3,67,1
3225,-23,-249,-50,5,67,1
3230,-28,-251,-51,6,68,2
3235,-24,-248,-47,5,68,2
3240,-26,-250,-49,7,67,1
3245,-24,-252,-48,8,68,1
3250,-24,-251,-52,9,66,0
3255,-26,-253,-45,9,66,1
3260,-26,-250,-50,10,66,0
3265,-24,-252,-49,10,67,0
3270,-25,-250,-51,11,66,1
3275,-25,-252,-49,12,66,1
3280,-27,-250,-49,9,68,2
3285,-23,-251,-50,8,68,2
3290,-24,-251,-47,9,65,2
3295,-25,-250,-50,10,66,1
3300,-24,-250,-49,11,67,2
3305,-27,-249,-48,10,68,2
3310,-24,-252,-47,12,67,2
3315,-24,-254,-47,13,66,1
3320,-26,-252,-47,12,66,2
3325,-25,-252,-46,12,67,2
3330,-27,-249,-46,11,67,0
3335,-25,-252,-48,12,68,2
3340,-28,-249,-50,13,67,2
3345,-35,-266,-42,15,66,2
3350,-22,-252,-50,15,67,3
3355,-25,-254,-51,15,68,3
3360,-25,-252,-47,16,67,2
3365,-24,-251,-48,17,67,3
3370,-23,-251,-48,17,67,2
3375,-24,-251,-47,17,68,2
3380,-28,-249,-49,16,68,3
3385,-28,-250,-49,16,69,1
3390,-28,-250,-50,14,69,2
3395,-27,-251,-48,14,69,1
3400,-26,-252,-49,12,70,2
3405,-29,-252,-50,13,68,-1
3410,-29,-253,-46,14,67,-1
3415,-26,-252,-48,17,66,-2
3420,-26,-253,-47,20,62,-2
3425,-28,-252,-48,22,63,0
3430,-24,-255,-47,23,63,1
3435,-25,-252,-46,21,63,1
3440,-28,-249,-47,19,63,1
3445,-27,-250,-51,16,63,0
3450,-25,-252,-49,15,64,0
3455,-17,-251,-44,15,64,0
3460,-26,-252,-47,16,64,-1
3465,-24,-250,-44,17,63,-2
3470,-27,-252,-48,20,64,-4
3475,-26,-253,-48,22,64,-5
3480,-25,-250,-47,23,64,-6
3485,-26,-252,-49,25,64,-6
3490,-26,-251,-47,25,65,-5
3495,-25,-252,-47,27,65,-4
3500,-25,-255,-47,32,65,-4
3505,-27,-255,-46,34,64,-4
3510,-29,-254,-47,38,65,-2
3515,-30,-257,-45,41,65,-1
3520,-25,-254,-46,42,65,-2
3525,-26,-256,-45,41,65,-3
3530,-25,-254,-46,40,65,-2
3535,-24,-253,-44,36,65,-1
3540,-25,-250,-42,35,64,-1
3545,-24,-251,-47,33,65,-1
3550,-26,-250,-46,32,64,-2
3555,-26,-251,-43,32,65,-2
3560,-25,-247,-41,33,65,-3
3565,-26,-249,-44,34,66,-6
3570,-25,-249,-44,33,65,-8
3575,-26,-252,-44,34,62,-9
3580,-25,-252,-45,35,61,-12
3585,-27,-253,-43,37,60,-14
3590,-28,-249,-43,38,59,-14
3595,-28,-252,-47,39,60,-13
3600,-24,-252,-49,38,60,-14
3605,-23,-255,-47,37,61,-11
3610,-23,-252,-43,38,60,-11
3615,-23,-255,-47,40,59,-11
3620,-26,-251,-45,40,58,-10
3625,-28,-251,-48,41,59,-10
3630,-26,-254,-44,44,57,-9
3635,-26,-250,-45,45,57,-9
3640,-23,-255,-44,47,54,-8
3645,-26,-249,-47,48,54,-8
3650,-26,-252,-44,50,52,-10
3655,-26,-255,-43,51,52,-9
3660,-26,-249,-47,52,52,-8
3665,-27,-250,-41,52,52,-9
3670,-23,-244,-52,51,52,-9
3675,-24,-251,-43,51,54,-10
3680,-22,-256,-46,49,56,-9
3685,-25,-251,-48,51,58,-9
3690,-25,-254,-44,50,57,-10
3695,-28,-250,-43,49,58,-11
3700,-27,-250,-47,48,59,-10
3705,-26,-256,-45,48,59,-10
3710,-28,-251,-44,47,58,-9
3715,-25,-251,-42,44,59,-9
3720,-26,-250,-49,42,59,-9
3725,-23,-252,-43,40,60,-9
3730,-23,-252,-40,38,61,-8
3735,-25,-251,-46,37,63,-7
3740,-21,-257,-43,37,66,-5
3745,-23,-254,-43,37,71,-5
3750,-20,-257,-45,40,79,-7
3755,-21,-253,-45,43,85,-8
3760,-21,-252,-41,47,90,-9
3765,-21,-254,-41,52,97,-11
3770,-20,-258,-46,56,102,-13
3775,-18,-255,-39,62,106,-15
3780,-18,-257,-45,66,110,-17
3785,-18,-256,-43,71,113,-19
3790,-16,-257,-42,74,115,-19
3795,-19,-254,-42,76,119,-19
3800,-19,-252,-44,76,123,-17
3805,-21,-254,-43,75,129,-18
3810,-24,-254,-43,76,132,-16
3815,-24,-256,-40,76,137,-15
3820,-26,-252,-38,78,140,-18
3825,-25,-255,-41,81,143,-20
3830,-25,-253,-40,83,145,-21
3835,-26,-255,-39,87,145,-23
3840,-27,-256,-44,89,143,-24
3845,-28,-254,-37,90,138,-21
3850,-29,-251,-40,89,131,-20
3855,-27,-255,-38,85,123,-17
3860,-27,-253,-42,78,115,-16
3865,-29,-251,-42,71,107,-14
3870,-27,-251,-42,65,101,-11
3875,-28,-250,-41,59,96,-6
3880,-35,-250,-41,56,92,-2
3885,-32,-253,-40,47,85,6
3890,-22,-263,-39,42,80,5
3895,-27,-254,-37,42,73,-1
3900,-28,-251,-36,49,66,-9
3905,-30,-251,-39,58,57,-14
3910,-31,-250,-37,63,49,-17
3915,-31,-249,-41,64,43,-19
3920,-32,-254,-40,63,40,-20
3925,-29,-250,-40,60,39,-19
3930,-32,-249,-36,59,37,-18
3935,-31,-249,-36,56,34,-18
3940,-33,-250,-37,52,32,-16
3945,-28,-251,-36,51,29,-16
3950,-30,-251,-39,47,27,-15
3955,-29,-251,-36,43,27,-14
3960,-30,-248,-39,39,27,-14
3965,-26,-249,-40,33,27,-13
3970,-26,-251,-39,28,25,-14
3975,-25,-252,-37,24,24,-12
3980,-25,-250,-34,20,24,-11
3985,-28,-251,-34,18,24,-11
3990,-27,-253,-34,17,25,-11
3995,-31,-250,-35,14,25,-10
4000,-16,-248,-35,11,25,-11
4005,-25,-253,-34,9,28,-12
4010,-27,-255,-39,11,29,-11
4015,-26,-258,-38,8,33,-11
4020,-25,-258,-32,8,37,-12
4025,-26,-256,-40,10,37,-14
4030,-25,-258,-33,11,37,-13
4035,-19,-254,-37,11,37,-15
4040,-21,-258,-34,12,37,-15
4045,-21,-256,-39,14,38,-14
4050,-21,-254,-37,15,41,-15
4055,-21,-251,-34,17,45,-14
4060,-22,-254,-36,20,50,-15
4065,-23,-251,-37,21,55,-16
4070,-17,-253,-35,22,61,-18
4075,-19,-254,-38,24,68,-18
4080,-22,-251,-34,27,73,-18
4085,-22,-254,-38,29,77,-17
4090,-23,-254,-33,30,80,-16
4095,-22,-249,-37,29,82,-15
4100,-24,-254,-35,28,84,-12
4105,-22,-246,-41,25,86,-13
4110,-23,-250,-39,17,86,-13
4115,-21,-250,-38,8,84,-19
4120,-22,-247,-37,-3,85,-19
4125,-23,-249,-35,-12,79,-21
4130,-21,-252,-33,-22,75,-22
4135,-22,-249,-35,-29,68,-24
4140,-24,-250,-32,-34,65,-26
4145,-20,-250,-31,-35,59,-27
4150,-22,-251,-31,-36,55,-27
4155,-16,-254,-35,-36,54,-29
4160,-25,-252,-37,-40,55,-36
4165,-22,-254,-40,-48,61,-34
4170,-24,-249,-38,-53,65,-29
4175,-22,-250,-38,-56,66,-26
4180,-23,-249,-37,-57,70,-21
4185,-26,-249,-37,-55,73,-19
4190,-24,-252,-36,-55,69,-15
4195,-25,-249,-37,-57,64,-12
4200,-24,-250,-36,-57,58,-9
4205,-25,-251,-34,-55,51,-9
4210,-24,-251,-34,-54,42,-8
4215,-25,-249,-36,-54,36,-6
4220,-24,-256,-33,-53,28,-8
4225,-25,-253,-36,-54,24,-9
4230,-23,-258,-33,-53,21,-9
4235,-24,-256,-34,-51,22,-11
4240,-22,-259,-31,-47,20,-11
4245,-25,-257,-31,-42,23,-13
4250,-19,-258,-32,-36,24,-12
4255,-19,-256,-31,-26,25,-12
4260,-19,-257,-30,-16,26,-12
4265,-22,-253,-29,-9,26,-11
4270,-28,-250,-36,-8,25,-9
4275,-25,-253,-37,-16,23,-3
4280,-25,-249,-33,-28,21,-4
4285,-24,-251,-34,-44,20,-3
4290,-22,-250,-40,-57,18,-9
4295,-27,-248,-39,-65,16,-16
4300,-26,-248,-37,-69,13,-20
4305,-22,-252,-34,-73,7,-19
4310,-25,-249,-32,-77,2,-26
4315,-27,-253,-34,-82,-3,-28
4320,-20,-254,-35,-89,-6,-23
4325,-28,-255,-30,-95,-5,-29
4330,-22,-250,-33,-101,-5,-35
4335,-18,-254,-32,-106,-2,-38
4340,-20,-249,-36,-113,2,-40
4345,-20,-251,-34,-121,8,-40
4350,-19,-251,-36,-130,10,-41
4355,-19,-247,-36,-138,13,-43
4360,-19,-248,-34,-146,14,-41
4365,-22,-245,-37,-151,14,-41
4370,-23,-247,-38,-154,14,-40
4375,-23,-248,-31,-154,13,-38
4380,-26,-249,-35,-153,10,-37
4385,-26,-249,-36,-151,8,-35
4390,-24,-253,-39,-152,7,-32
4395,-27,-251,-36,-154,5,-30
4400,-27,-252,-35,-162,6,-28
4405,-26,-254,-40,-172,6,-26
4410,-28,-254,-39,-180,4,-22
4415,-25,-255,-36,-190,4,-20
4420,-23,-250,-38,-198,1,-19
4425,-23,-251,-40,-204,0,-19
4430,-22,-250,-36,-208,-2,-18
4435,-15,-241,-41,-212,-2,-17
4440,-19,-248,-41,-216,-3,-21
4445,-18,-248,-41,-220,-5,-24
4450,-18,-248,-40,-225,-4,-25
4455,-18,-250,-43,-232,-2,-24
4460,-19,-250,-40,-240,-3,-27
4465,-19,-249,-42,-246,-6,-29
4470,-20,-254,-41,-249,-3,-35
4475,-23,-253,-40,-250,-1,-36
4480,-22,-251,-45,-252,0,-39
4485,-22,-251,-46,-257,1,-40
4490,-23,-251,-46,-262,3,-39
4495,-19,-250,-43,-270,9,-40
4500,-24,-250,-44,-280,15,-38
4505,-19,-249,-47,-291,22,-37
4510,-20,-248,-48,-305,30,-35
4515,-20,-245,-47,-320,40,-33
4520,-19,-244,-48,-332,47,-34
4525,-17,-246,-48,-346,55,-34
4530,-18,-244,-47,-357,63,-34
4535,-17,-244,-44,-367,72,-35
4540,-18,-253,-49,-376,80,-35
4545,-16,-247,-48,-385,89,-35
4550,-17,-244,-46,-395,98,-33
4555,-20,-243,-50,-408,106,-34
4560,-18,-242,-49,-422,116,-32
4565,-19,-245,-46,-439,125,-30
4570,-23,-245,-50,-454,134,-28
4575,-22,-248,-46,-469,142,-27
4580,-25,-249,-48,-480,150,-27
4585,-26,-252,-49,-487,156,-30
4590,-25,-254,-52,-492,161,-33
4595,-25,-255,-50,-494,167,-35
4600,-26,-256,-51,-494,171,-36
4605,-25,-255,-52,-493,175,-37
4610,-25,-254,-53,-494,178,-36
4615,-22,-254,-57,-494,182,-32
4620,-24,-248,-60,-496,187,-26
4625,-20,-248,-61,-499,192,-20
4630,-21,-248,-61,-507,194,-13
4635,-19,-246,-60,-514,199,-9
4640,-15,-246,-62,-522,201,-6
4645,-16,-248,-58,-528,203,-6
4650,-23,-246,-65,-533,202,-8
4655,-16,-245,-60,-534,206,-10
4660,-15,-246,-62,-535,206,-18
4665,-17,-246,-63,-535,210,-24
4670,-17,-245,-63,-539,212,-32
4675,-17,-248,-64,-545,216,-36
4680,-17,-247,-71,-551,221,-39
4685,-13,-246,-72,-562,228,-42
4690,-14,-247,-69,-571,237,-44
4695,-14,-241,-70,-583,243,-49
4700,-15,-242,-75,-592,250,-53
4705,-15,-243,-71,-599,256,-59
4710,-10,-245,-69,-605,265,-66
4715,-15,-242,-73,-612,272,-74
4720,-17,-241,-74,-618,279,-85
4725,-16,-240,-75,-626,283,-97
4730,-15,-246,-75,-635,287,-110
4735,-15,-244,-77,-646,291,-122
4740,-16,-243,-78,-653,295,-136
4745,-15,-246,-80,-658,300,-145
4750,-15,-246,-81,-662,302,-152
4755,-16,-244,-84,-661,306,-160
4760,-18,-244,-83,-659,307,-167
4765,-13,-248,-85,-656,305,-173
4770,-15,-246,-84,-651,304,-177
4775,-11,-247,-85,-648,301,-181
4780,-12,-247,-85,-650,296,-185
4785,-14,-246,-85,-650,292,-186
4790,-15,-243,-87,-650,286,-186
4795,-15,-242,-90,-649,279,-188
4800,-15,-240,-86,-655,267,-194
4805,-16,-241,-86,-658,258,-194
4810,-15,-243,-89,-658,246,-193
4815,-17,-237,-88,-654,233,-198
4820,-18,-241,-90,-648,221,-205
4825,-18,-239,-88,-638,208,-213
4830,-17,-238,-93,-631,194,-219
4835,-18,-240,-95,-630,181,-221
4840,-16,-242,-96,-634,168,-216
4845,-16,-242,-99,-647,153,-211
4850,-14,-241,-95,-664,134,-207
4855,-13,-244,-101,-684,117,-201
4860,-15,-237,-100,-706,100,-194
4865,-16,-232,-97,-728,89,-189
4870,-4,-226,-105,-749,81,-185
4875,-11,-229,-99,-767,74,-184
4880,-10,-222,-101,-781,68,-184
4885,-7,-222,-101,-794,59,-186
4890,-4,-223,-103,-812,42,-188
4895,-2,-223,-108,-829,22,-189
4900,-7,-220,-108,-848,0,-186
4905,0,-222,-109,-870,-22,-172
4910,-6,-218,-112,-887,-40,-155
4915,-6,-220,-107,-898,-51,-140
4920,-3,-221,-106,-906,-53,-125
4925,-2,-214,-105,-914,-39,-121
4930,-3,-215,-105,-918,-13,-129
4935,0,-215,-103,-923,20,-145
4940,1,-220,-107,-933,61,-164
4945,0,-222,-109,-950,98,-188
4950,2,-228,-111,-969,126,-213
4955,7,-237,-114,-994,143,-235
4960,7,-243,-121,-1021,149,-261
4965,8,-246,-122,-1043,148,-287
4970,5,-254,-128,-1057,141,-309
4975,3,-257,-132,-1062,131,-318
4980,2,-254,-142,-1062,124,-320
4985,-2,-252,-139,-1055,124,-325
4990,-8,-246,-140,-1042,128,-327
4995,-11,-239,-143,-1028,132,-325
5000,-11,-236,-142,-1017,137,-326
5005,-15,-224,-145,-1006,141,-327
5010,-16,-222,-147,-989,140,-323
5015,-21,-210,-143,-968,132,-324
5020,-18,-206,-141,-947,119,-319
5025,-19,-207,-139,-926,101,-316
5030,-21,-205,-133,-908,78,-311
5035,-19,-204,-132,-893,52,-306
5040,-15,-205,-133,-878,26,-295
5045,-16,-201,-128,-862,5,-282
5050,-20,-205,-127,-845,-17,-274
5055,-17,-206,-127,-831,-37,-268
5060,-17,-203,-129,-827,-55,-266
5065,-16,-207,-130,-835,-70,-259
5070,-12,-207,-136,-846,-84,-253
5075,-10,-206,-139,-862,-98,-247
5080,-3,-204,-142,-876,-110,-240
5085,2,-207,-135,-890,-120,-234
5090,-1,-202,-148,-905,-130,-228
5095,-1,-200,-145,-917,-141,-220
5100,0,-196,-148,-926,-156,-213
5105,-4,-195,-147,-930,-170,-206
5110,-3,-192,-146,-936,-187,-200
5115,-2,-191,-145,-946,-199,-192
5120,-5,-190,-149,-955,-212,-188
5125,-10,-190,-150,-962,-223,-185
5130,-10,-190,-150,-965,-234,-186
5135,-9,-188,-157,-964,-249,-188
5140,-13,-187,-159,-954,-265,-191
5145,-15,-192,-163,-941,-286,-190
5150,-13,-190,-166,-931,-309,-191
5155,-13,-193,-176,-916,-334,-185
5160,-17,-193,-176,-908,-359,-178
5165,-11,-201,-176,-910,-384,-166
5170,-14,-198,-175,-916,-408,-153
5175,-2,-201,-176,-928,-427,-139
5180,0,-198,-178,-941,-440,-129
5185,4,-200,-169,-955,-449,-123
5190,11,-194,-171,-964,-453,-125
5195,15,-190,-171,-968,-458,-135
5200,22,-193,-175,-968,-466,-146
5205,27,-190,-173,-965,-477,-159
5210,28,-190,-177,-954,-489,-171
5215,32,-186,-188,-938,-500,-183
5220,32,-187,-188,-921,-501,-189
5225,32,-189,-195,-899,-488,-195
5230,34,-186,-192,-879,-461,-196
5235,36,-189,-200,-862,-418,-194
5240,34,-190,-202,-846,-359,-192
5245,40,-193,-203,-830,-299,-188
5250,40,-194,-204,-814,-241,-184
5255,42,-194,-206,-796,-196,-179
5260,38,-193,-202,-778,-162,-172
5265,34,-192,-203,-764,-147,-162
5270,27,-193,-208,-749,-142,-152
5275,17,-189,-206,-735,-148,-138
5280,6,-187,-207,-726,-160,-117
5285,0,-182,-209,-723,-173,-90
5290,-15,-180,-210,-725,-186,-65
5295,-23,-176,-213,-728,-200,-41
5300,-27,-172,-217,-734,-211,-24
5305,-32,-171,-218,-740,-222,-12
5310,-33,-163,-221,-746,-233,-2
5315,-31,-165,-228,-755,-243,-1
5320,-25,-166,-231,-763,-246,-1
5325,-16,-171,-236,-766,-246,-9
5330,-10,-173,-238,-764,-245,-22
5335,-1,-178,-238,-755,-243,-41
5340,3,-181,-245,-741,-242,-54
5345,6,-185,-240,-723,-239,-57
5350,8,-189,-246,-699,-231,-60
5355,7,-190,-247,-667,-221,-61
5360,2,-188,-246,-631,-204,-56
5365,1,-186,-247,-600,-179,-40
5370,0,-186,-245,-575,-152,-17
5375,-7,-179,-245,-551,-128,7
5380,-14,-173,-244,-533,-107,30
5385,-16,-164,-243,-524,-93,52
5390,-13,-163,-242,-517,-83,66
5395,-20,-155,-242,-504,-81,77
5400,-20,-155,-245,-489,-75,85
5405,-21,-153,-239,-470,-70,88
5410,-20,-152,-239,-451,-61,84
5415,-20,-147,-237,-434,-48,86
5420,-22,-143,-232,-426,-32,86
5425,-23,-144,-236,-420,-17,87
5430,-24,-139,-234,-420,-7,89
5435,-23,-138,-233,-427,-2,97
5440,-25,-140,-232,-435,1,108
5445,-23,-137,-233,-444,-4,114
5450,-19,-139,-231,-447,-8,124
5455,-19,-143,-230,-446,-10,130
5460,-19,-143,-229,-438,-9,139
5465,-12,-146,-231,-417,-10,148
5470,-12,-149,-225,-392,-10,154
5475,-10,-146,-225,-365,-13,155
5480,-14,-140,-224,-334,-18,156
5485,-6,-140,-230,-305,-25,155
5490,-9,-137,-226,-281,-30,151
5495,-4,-134,-225,-260,-30,150
5500,-6,-126,-226,-247,-28,151
5505,-3,-127,-226,-241,-24,154
5510,-7,-123,-222,-239,-15,158
5515,-6,-117,-224,-242,-1,164
5520,-8,-114,-218,-247,14,173
5525,-8,-118,-224,-253,30,183
5530,-12,-116,-227,-258,45,191
5535,-10,-118,-224,-259,58,197
5540,-12,-120,-225,-258,68,201
5545,-11,-121,-223,-252,77,205
5550,-14,-123,-226,-245,85,210
5555,-15,-124,-223,-236,93,214
5560,-14,-126,-226,-228,103,220
5565,-16,-123,-226,-225,112,224
5570,-13,-122,-225,-224,121,231
5575,-13,-126,-231,-224,129,236
5580,-15,-121,-224,-228,136,243
5585,-16,-120,-222,-229,140,247
5590,-18,-122,-224,-229,143,249
5595,-20,-119,-223,-226,146,251
5600,-25,-120,-221,-218,147,250
5605,-21,-119,-222,-209,148,250
5610,-22,-119,-216,-202,147,247
5615,-23,-118,-218,-195,147,248
5620,-23,-119,-218,-192,146,245
5625,-23,-117,-222,-191,144,241
5630,-21,-107,-213,-191,143,236
5635,-17,-111,-201,-193,142,233
5640,-19,-116,-218,-196,143,228
5645,-11,-119,-216,-201,145,224
5650,-6,-110,-207,-205,148,219
5655,-29,-119,-226,-207,150,216
5660,-12,-129,-224,-205,156,213
5665,-16,-124,-213,-204,159,211
5670,-16,-120,-223,-202,163,208
5675,-22,-120,-219,-203,166,209
5680,-21,-115,-218,-202,169,209
5685,-16,-120,-217,-202,172,208
5690,-19,-116,-216,-206,174,205
5695,-14,-116,-217,-207,180,205
5700,-14,-117,-220,-208,186,202
5705,-5,-114,-222,-205,194,195
5710,-11,-116,-209,-204,199,189
5715,-20,-110,-231,-203,203,181
5720,-21,-112,-221,-204,209,173
5725,-21,-108,-214,-207,213,163
5730,-19,-112,-214,-210,220,155
5735,-9,-103,-208,-216,230,147
5740,-17,-108,-201,-223,242,139
5745,-16,-116,-207,-231,251,130
5750,-24,-116,-210,-235,264,125
5755,-26,-115,-219,-237,278,121
5760,-14,-115,-219,-235,290,119
5765,-14,-118,-219,-233,299,118
5770,-14,-120,-217,-227,303,119
5775,-8,-122,-218,-223,301,123
5780,-9,-129,-206,-213,296,130
5785,-9,-123,-229,-203,295,138
5790,-19,-127,-206,-191,292,144
5795,6,-119,-213,-178,296,152
5800,-12,-126,-207,-163,294,159
5805,3,-119,-220,-147,295,165
5810,1,-118,-214,-136,300,170
5815,-3,-101,-211,-126,306,174
5820,-11,-111,-203,-118,312,179
5825,1,-111,-210,-115,314,181
5830,2,-98,-216,-114,318,186
5835,0,-107,-207,-117,317,192
5840,-2,-108,-207,-121,317,195
5845,-2,-108,-206,-125,317,203
5850,-7,-106,-211,-131,314,209
5855,-5,-109,-208,-134,308,217
5860,3,-116,-215,-138,298,224
5865,-15,-111,-217,-143,286,230
5870,-15,-101,-213,-148,270,235
5875,-12,-114,-220,-151,252,238
5880,-28,-128,-205,-156,231,242
5885,-17,-108,-204,-159,211,241
5890,-8,-104,-209,-162,193,240
5895,-24,-107,-209,-164,181,243
5900,-28,-112,-213,-163,167,242
5905,-15,-100,-209,-162,156,242
5910,-2,-107,-214,-161,149,244
5915,-9,-100,-208,-161,141,244
5920,-7,-103,-211,-162,132,245
5925,-6,-98,-210,-165,123,247
5930,-4,-99,-214,-168,115,246
5935,0,-101,-214,-171,109,245
5940,0,-100,-211,-175,107,240
5945,0,-101,-210,-181,111,235
5950,1,-107,-223,-186,117,229
5955,1,-107,-215,-192,125,226
5960,1,-117,-205,-197,136,220
5965,-1,-118,-215,-201,143,215
5970,1,-117,-213,-205,148,211
5975,0,-118,-213,-207,148,208
5980,-6,-116,-212,-207,144,206
5985,-3,-96,-225,-209,135,208
5990,-4,-115,-213,-211,123,205
5995,-10,-111,-215,-215,106,200
6000,-10,-114,-217,-220,90,193
6005,-15,-114,-216,-225,75,188
6010,-15,-116,-223,-230,61,183
6015,-21,-117,-215,-232,48,175
6020,-22,-127,-218,-225,33,169
6025,-23,-123,-213,-211,19,164
6030,-25,-120,-218,-195,4,160
6035,-15,-119,-219,-181,-15,153
6040,-17,-121,-217,-171,-38,145
6045,-13,-119,-232,-167,-61,136
6050,-6,-123,-218,-164,-87,127
6055,-5,-117,-230,-159,-106,117
6060,-1,-119,-236,-155,-122,111
6065,-3,-115,-228,-154,-133,105
6070,-5,-111,-226,-156,-139,104
6075,-1,-111,-226,-161,-144,107
6080,-1,-110,-229,-169,-149,107
6085,-2,-107,-237,-180,-154,110
6090,0,-102,-226,-196,-160,114
6095,6,-89,-240,-221,-164,118
6100,-8,-90,-233,-250,-168,123
6105,-7,-83,-228,-285,-171,127
6110,-6,-91,-230,-322,-179,130
6115,-8,-90,-228,-358,-188,132
6120,-4,-91,-228,-389,-203,130
6125,-1,-94,-229,-411,-216,124
6130,1,-102,-229,-429,-229,115
6135,2,-104,-231,-443,-236,102
6140,3,-111,-229,-451,-242,86
6145,6,-113,-233,-459,-241,74
6150,8,-123,-232,-463,-232,65
6155,2,-113,-235,-462,-213,60
6160,5,-113,-233,-457,-182,63
6165,4,-106,-237,-444,-145,68
6170,5,-100,-234,-430,-105,78
6175,9,-93,-226,-420,-66,90
6180,10,-83,-230,-414,-36,101
6185,5,-73,-229,-412,-18,120
6190,4,-70,-223,-416,-12,137
6195,5,-63,-223,-424,-14,151
6200,6,-80,-226,-437,-17,159
6205,2,-63,-223,-455,-21,162
6210,1,-64,-222,-474,-23,160
6215,2,-72,-222,-492,-26,154
6220,0,-74,-220,-506,-26,141
6225,6,-84,-220,-513,-27,125
6230,4,-95,-218,-512,-28,109
6235,1,-102,-216,-507,-30,96
6240,4,-110,-218,-501,-35,88
6245,4,-109,-223,-506,-41,83
6250,7,-105,-225,-521,-44,87
6255,6,-102,-220,-547,-45,92
6260,8,-100,-222,-583,-43,104
6265,4,-94,-222,-620,-37,118
6270,7,-90,-223,-656,-31,134
6275,5,-87,-222,-687,-25,150
6280,6,-86,-218,-709,-18,160
6285,4,-82,-218,-724,-14,161
6290,7,-86,-223,-733,-5,167
6295,6,-85,-220,-737,9,175
6300,5,-87,-219,-738,14,178
6305,5,-93,-224,-736,11,181
6310,2,-97,-221,-733,1,185
6315,1,-97,-223,-731,-18,191
6320,1,-106,-225,-733,-47,202
6325,-1,-111,-231,-742,-79,216
6330,-9,-112,-235,-747,-110,224
6335,-7,-117,-225,-756,-138,237
6340,-14,-113,-227,-752,-160,236
6345,-14,-112,-225,-737,-180,233
6350,-15,-110,-222,-720,-191,227
6355,-5,-107,-226,-703,-198,217
6360,0,-102,-217,-686,-201,207
6365,7,-99,-222,-666,-202,193
6370,17,-93,-215,-646,-204,177
6375,28,-96,-217,-627,-206,161
6380,34,-95,-214,-606,-211,147
6385,37,-98,-214,-584,-213,137
6390,43,-107,-222,-565,-211,134
6395,46,-102,-218,-549,-202,138
6400,44,-102,-221,-543,-191,149
6405,45,-104,-221,-551,-180,168
6410,44,-110,-222,-569,-171,189
6415,40,-110,-222,-592,-168,215
6420,33,-109,-217,-616,-167,242
6425,27,-110,-218,-634,-171,260
6430,27,-112,-222,-644,-175,275
6435,20,-108,-225,-650,-185,284
6440,22,-112,-227,-654,-196,288
6445,22,-111,-226,-657,-208,292
6450,18,-110,-222,-659,-220,291
6455,17,-110,-221,-657,-226,291
6460,17,-115,-215,-644,-232,286
6465,17,-113,-211,-621,-237,278
6470,18,-112,-211,-598,-241,266
6475,17,-112,-206,-575,-253,248
6480,16,-106,-210,-550,-284,217
6485,19,-108,-211,-533,-306,198
6490,17,-101,-211,-532,-308,194
6495,17,-97,-205,-543,-302,202
6500,10,-94,-200,-560,-289,218
6505,11,-95,-202,-568,-278,238
6510,9,-92,-198,-574,-277,250
6515,10,-92,-199,-588,-277,257
6520,8,-90,-200,-613,-280,261
6525,6,-91,-197,-650,-294,252
6530,6,-90,-197,-698,-315,232
6535,7,-96,-192,-749,-336,213
6540,8,-98,-193,-789,-358,189
6545,16,-99,-193,-810,-379,163
6550,18,-102,-193,-820,-393,149
6555,22,-103,-187,-816,-406,140
6560,26,-103,-182,-787,-428,127
6565,31,-97,-175,-743,-447,119
6570,34,-96,-166,-706,-464,112
6575,39,-93,-152,-672,-474,101
6580,41,-85,-147,-658,-474,93
6585,45,-84,-140,-655,-471,85
6590,42,-80,-131,-665,-479,68
6595,38,-81,-123,-661,-505,46
6600,39,-82,-124,-635,-513,57
6605,36,-82,-124,-611,-501,88
6610,44,-81,-122,-611,-501,126
6615,50,-78,-131,-635,-529,144
6620,27,-73,-150,-659,-573,148
6625,17,-68,-163,-721,-627,145
6630,5,-53,-169,-824,-668,131
6635,-17,-33,-172,-952,-692,102
6640,-41,-22,-162,-1086,-703,76
6645,-61,-13,-161,-1188,-715,55
6650,-83,-9,-167,-1232,-741,31
6655,-107,-10,-166,-1216,-780,3
6660,-119,-21,-170,-1147,-830,-49
6665,-124,-34,-174,-1044,-904,-137
6670,-137,-57,-169,-914,-1004,-231
6675,-136,-73,-171,-732,-1139,-339
6680,-143,-83,-169,-506,-1280,-479
6685,-163,-81,-172,-256,-1425,-653
6690,-163,-74,-163,-28,-1561,-794
6695,-161,-67,-156,144,-1685,-881
6700,-158,-59,-151,247,-1794,-932
6705,-158,-48,-151,293,-1871,-972
6710,-164,-26,-146,310,-1923,-1007
6715,-157,-12,-137,329,-1960,-1036
6720,-171,11,-153,353,-2009,-1075
6725,-176,23,-156,382,-2085,-1110
6730,-177,33,-172,428,-2189,-1129
6735,-172,31,-176,481,-2326,-1139
6740,-168,23,-180,531,-2486,-1138
6745,-165,15,-169,569,-2650,-1126
6750,-165,5,-166,606,-2822,-1106
6755,-167,-6,-164,638,-2988,-1090
6760,-175,-10,-162,662,-3132,-1088
6765,-185,-14,-161,675,-3252,-1107
6770,-193,-11,-161,686,-3340,-1141
6775,-199,-1,-161,705,-3397,-1196
6780,-207,10,-156,739,-3426,-1260
6785,-207,29,-158,785,-3444,-1315
6790,-200,31,-151,833,-3465,-1369
6795,-202,45,-149,872,-3491,-1419
6800,-196,50,-158,900,-3539,-1444
6805,-187,49,-165,912,-3609,-1448
6810,-179,37,-168,913,-3696,-1450
6815,-169,22,-169,909,-3792,-1446
6820,-160,9,-167,904,-3889,-1441
6825,-159,-8,-160,907,-3992,-1439
6830,-166,-30,-149,928,-4107,-1452
6835,-182,-47,-130,975,-4245,-1483
6840,-198,-62,-117,1042,-4395,-1518
6845,-231,-73,-107,1122,-4579,-1555
6850,-259,-77,-101,1216,-4767,-1559
6855,-302,-75,-97,1330,-4935,-1535
6860,-336,-60,-97,1446,-5079,-1498
6865,-362,-47,-104,1540,-5169,-1398
6870,-394,-30,-104,1586,-5220,-1279
6875,-418,0,-124,1589,-5329,-1240
6880,-458,22,-128,1562,-5446,-1172
6885,-477,57,-154,1502,-5620,-1067
6890,-525,84,-174,1362,-5818,-965
6895,-567,108,-202,1159,-6049,-853
6900,-614,136,-238,927,-6235,-697
6905,-653,141,-269,704,-6324,-477
6910,-696,139,-291,492,-6274,-245
6915,-742,129,-298,309,-6117,-13
6920,-731,104,-295,150,-5880,229
6925,-730,82,-277,20,-5592,395
6930,-754,59,-244,-76,-5347,448
6935,-701,3,-194,-155,-5163,496
6940,-640,-58,-137,-97,-4974,571
6945,-592,-119,-63,87,-4762,704
6950,-524,-191,5,368,-4546,876
6955,-488,-249,67,763,-4285,984
6960,-489,-287,111,1202,-4062,1053
6965,-505,-278,137,1581,-3905,1135
6970,-482,-216,115,1797,-3777,1243
6975,-452,-135,86,1827,-3577,1317
6980,-421,-49,53,1719,-3325,1345
6985,-355,15,36,1565,-3055,1336
6990,-271,62,31,1439,-2732,1289
6995,-205,86,39,1385,-2375,1225
7000,-163,88,61,1379,-2086,1139
7005,-142,70,76,1380,-1965,1028
7010,-132,31,101,1384,-1965,904
7015,-138,-1,108,1402,-2020,782
7020,-166,-26,130,1436,-2068,685
7025,-206,-42,125,1495,-2151,611
7030,-254,-26,112,1514,-2218,547
7035,-295,-17,118,1492,-2244,485
7040,-317,-4,116,1455,-2247,444
7045,-335,6,109,1462,-2236,411
7050,-320,11,97,1515,-2223,387
7055,-302,14,78,1593,-2188,359
7060,-265,29,62,1664,-2164,329
7065,-222,39,39,1697,-2161,308
7070,-185,53,42,1685,-2175,291
7075,-147,58,50,1647,-2232,271
7080,-147,80,62,1600,-2349,240
7085,-142,85,74,1496,-2526,237
7090,-145,81,80,1373,-2693,232
7095,-150,68,96,1313,-2807,213
7100,-177,55,95,1342,-2872,194
7105,-193,43,96,1398,-2897,179
7110,-210,37,103,1451,-2878,155
7115,-221,38,109,1487,-2849,132
7120,-213,55,114,1491,-2854,118
7125,-204,65,117,1464,-2890,103
7130,-196,92,115,1424,-2960,89
7135,-180,114,126,1367,-3055,67
7140,-160,147,157,1270,-3149,20
7145,-155,174,170,1164,-3256,-65
7150,-152,195,188,1058,-3357,-160
7155,-147,201,197,949,-3417,-262
7160,-168,207,211,840,-3431,-385
7165,-192,206,220,741,-3447,-516
7170,-217,198,220,656,-3459,-645
7175,-232,190,221,584,-3456,-769
7180,-229,179,217,514,-3425,-886
7185,-231,167,210,453,-3391,-994
7190,-229,155,203,393,-3381,-1069
7195,-216,144,199,306,-3397,-1110
7200,-206,131,205,182,-3437,-1133
7205,-193,103,217,55,-3506,-1155
7210,-189,89,213,-31,-3610,-1170
7215,-172,75,204,-87,-3721,-1174
7220,-160,67,193,-129,-3790,-1160
7225,-133,53,178,-178,-3827,-1118
7230,-104,41,174,-242,-3837,-1055
7235,-80,35,171,-316,-3823,-999
7240,-54,31,173,-394,-3791,-941
7245,-26,23,173,-467,-3761,-889
7250,-3,19,176,-516,-3731,-856
7255,20,19,180,-536,-3695,-847
7260,41,32,191,-534,-3618,-863
7265,56,43,192,-513,-3477,-867
7270,60,51,199,-507,-3282,-853
7275,74,58,213,-504,-3081,-827
7280,90,61,223,-491,-2879,-803
7285,104,68,236,-484,-2701,-802
7290,127,63,244,-485,-2532,-788
7295,144,56,259,-440,-2352,-722
7300,158,50,266,-377,-2189,-632
7305,170,33,258,-344,-2074,-603
7310,177,20,257,-346,-1970,-605
7315,175,6,263,-365,-1873,-578
7320,188,-12,266,-381,-1766,-493
7325,191,-34,263,-398,-1643,-408
7330,195,-50,269,-394,-1510,-351
7335,190,-53,267,-360,-1379,-326
7340,191,-60,275,-308,-1245,-317
7345,193,-59,274,-246,-1108,-316
7350,182,-50,270,-173,-962,-304
7355,177,-39,275,-108,-814,-280
7360,172,-29,276,-56,-667,-249
7365,160,-7,277,-20,-528,-207
7370,144,4,270,-6,-398,-159
7375,128,22,267,-25,-296,-108
7380,115,29,252,-76,-227,-54
7385,99,44,237,-155,-182,-2
7390,88,48,227,-257,-147,57
7395,69,52,225,-360,-116,120
7400,58,49,218,-439,-98,184
7405,42,49,211,-493,-90,246
7410,25,51,207,-527,-78,311
7415,10,42,196,-558,-60,372
7420,0,32,192,-599,-50,421
7425,-4,16,193,-653,-53,451
7430,1,-7,194,-708,-67,458
7435,12,-39,190,-760,-82,438
7440,22,-62,187,-807,-86,393
7445,31,-84,193,-836,-86,340
7450,41,-114,195,-824,-91,283
7455,52,-131,197,-754,-101,215
7460,62,-148,216,-629,-121,139
7465,86,-155,225,-457,-147,55
7470,101,-152,238,-252,-164,-34
7475,103,-144,252,-38,-188,-108
7480,96,-118,268,164,-226,-151
7485,87,-89,276,327,-284,-176
7490,74,-59,280,448,-350,-183
7495,70,-34,287,540,-411,-179
7500,63,-9,285,607,-458,-159
7505,53,18,279,639,-494,-127
7510,42,33,275,633,-531,-100
7515,33,45,270,600,-568,-78
7520,35,50,264,549,-599,-61
7525,35,40,255,484,-618,-51
7530,38,29,248,409,-626,-53
7535,44,13,251,331,-617,-65
7540,41,2,251,273,-586,-79
7545,46,-13,253,247,-537,-85
7550,55,-30,254,243,-464,-82
7555,69,-45,254,243,-377,-71
7560,65,-58,256,233,-293,-59
7565,78,-63,271,222,-236,-41
7570,77,-58,248,219,-179,-26
7575,78,-46,234,214,-112,7
7580,72,-27,222,183,-53,70
7585,66,-3,214,111,-12,136
7590,54,20,203,6,11,197
7595,39,43,199,-102,16,256
7600,24,60,185,-201,18,310
7605,7,69,181,-279,29,357
7610,-8,69,183,-329,45,398
7615,-12,66,181,-355,58,409
7620,-15,50,186,-373,86,395
7625,-16,22,186,-394,118,359
7630,-18,-3,189,-420,157,317
7635,-7,-32,197,-442,206,269
7640,0,-57,206,-456,263,216
7645,12,-83,219,-445,329,171
7650,26,-105,229,-411,411,137
7655,39,-119,240,-367,504,106
7660,52,-131,240,-310,600,73
7665,61,-133,249,-249,697,34
7670,67,-134,253,-181,790,3
7675,76,-136,262,-106,886,-15
7680,85,-118,256,-26,973,-22
7685,89,-105,259,51,1039,-27
7690,89,-93,266,112,1078,-37
7695,84,-83,270,167,1093,-50
7700,83,-67,267,219,1089,-60
7705,72,-56,261,265,1075,-70
7710,63,-45,260,297,1053,-79
7715,54,-34,252,314,1026,-91
7720,42,-20,246,314,993,-101
7725,28,-12,247,304,955,-112
7730,11,-10,244,284,905,-126
7735,0,-9,246,258,848,-137
7740,-14,-4,244,231,796,-145
7745,-19,-14,243,191,741,-154
7750,-22,-22,246,148,688,-166
7755,-23,-28,246,113,645,-169
7760,-26,-33,249,81,610,-170
7765,-23,-40,249,51,581,-168
7770,-23,-45,251,22,556,-166
7775,-21,-51,250,-4,532,-158
7780,-20,-54,255,-25,511,-148
7785,-17,-59,246,-41,488,-134
7790,-20,-59,248,-56,474,-117
7795,-21,-59,246,-67,463,-96
7800,-25,-57,246,-76,462,-75
7805,-33,-52,241,-76,467,-51
7810,-36,-50,238,-73,480,-27
7815,-38,-47,235,-65,498,-8
7820,-41,-42,229,-56,515,10
7825,-44,-37,230,-45,540,27
7830,-47,-33,227,-37,555,43
7835,-45,-31,225,-29,570,50
7840,-64,-26,227,-22,574,58
7845,-59,-27,226,-22,556,67
7850,-59,-32,225,-27,548,60
7855,-57,-36,224,-28,545,51
7860,-57,-33,232,-25,536,33
7865,-60,-34,235,-20,523,14
7870,-61,-33,237,-15,499,-5
7875,-62,-31,240,-9,464,-31
7880,-60,-32,244,-5,423,-56
7885,-55,-32,243,-4,375,-79
7890,-57,-32,250,-2,327,-103
7895,-58,-26,247,-1,278,-121
7900,-61,-25,247,1,228,-135
7905,-63,-18,250,1,187,-143
7910,-64,-18,243,0,152,-143
7915,-64,-14,248,11,130,-144
7920,-62,-17,245,22,112,-147
7925,-62,-18,245,30,97,-143
7930,-60,-19,242,33,88,-135
7935,-59,-17,241,27,82,-126
7940,-59,-15,239,23,76,-114
7945,-60,-15,235,21,75,-108
7950,-57,-17,234,14,80,-105
7955,-54,-16,230,8,79,-102
7960,-46,-11,233,-2,77,-94
7965,-48,-13,232,-19,83,-83
7970,-50,-6,234,-41,92,-72
7975,-50,-9,236,-58,103,-55
7980,-47,-12,238,-73,119,-39
7985,-45,-15,239,-90,139,-21
7990,-43,-10,238,-105,162,-8
7995,-37,-17,239,-110,189,4
8000,-29,-19,242,-106,213,17
8005,-36,-16,243,-96,230,27
8010,-40,-18,247,-89,249,41
8015,-38,-23,246,-76,254,52
8020,-42,-25,254,-56,248,56
8025,-32,-28,247,-39,235,56
8030,-32,-28,250,-41,228,55
8035,-34,-25,258,-42,219,51
8040,-29,-30,255,-36,203,45
8045,-28,-25,255,-32,183,33
8050,-25,-23,255,-37,164,20
8055,-22,-25,258,-53,146,6
8060,-16,-26,252,-72,129,-8
8065,-12,-29,254,-92,117,-20
8070,-12,-26,249,-102,110,-26
8075,-13,-30,254,-95,103,-33
8080,-7,-34,252,-74,102,-40
8085,-13,-28,250,-42,100,-43
8090,-14,-28,245,-7,100,-47
8095,-17,-23,245,23,104,-52
8100,-20,-21,245,37,107,-56
8105,-23,-24,245,34,102,-63
8110,-25,-14,240,20,90,-67
8115,-28,-21,243,-1,69,-71
8120,-28,-25,240,-19,48,-76
8125,-28,-28,237,-28,31,-84
8130,-25,-26,238,-21,18,-90
8135,-27,-30,235,-2,9,-98
8140,-27,-25,235,26,1,-111
8145,-30,-21,233,57,-4,-122
8150,-26,-26,232,76,-6,-128
8155,-26,-21,232,76,-3,-135
8160,-28,-18,232,55,3,-141
8165,-28,-21,237,19,3,-142
8170,-30,-24,240,-23,-1,-140
8175,-29,-25,239,-55,-6,-135
8180,-29,-29,237,-76,-7,-128
8185,-30,-28,238,-84,-6,-119
8190,-29,-34,238,-74,1,-108
8195,-25,-32,236,-56,11,-95
8200,-27,-32,237,-32,18,-81
8205,-30,-30,240,-9,25,-68
8210,-28,-26,241,6,26,-55
8215,-29,-24,242,10,31,-41
8220,-36,-33,244,-1,37,-32
8225,-35,-24,244,-25,42,-23
8230,-33,-27,247,-54,42,-16
8235,-35,-30,242,-82,41,-13
8240,-28,-36,245,-98,40,-12
8245,-29,-39,242,-100,43,-11
8250,-26,-42,244,-87,45,-6
8255,-23,-45,243,-61,48,1
8260,-19,-44,241,-25,46,12
8265,-18,-43,242,11,44,22
8270,-20,-39,239,45,39,31
8275,-17,-34,237,68,31,40
8280,-17,-32,238,83,23,46
8285,-14,-28,242,83,18,49
8290,-18,-26,242,68,16,49
8295,-18,-26,244,43,18,50
8300,-18,-28,245,15,26,50
8305,-17,-29,249,-14,37,46
8310,-18,-33,250,-42,51,38
8315,-16,-36,248,-59,62,32
8320,-11,-40,243,-61,75,29
8325,-12,-35,244,-45,87,29
8330,-12,-43,243,-17,91,31
8335,-12,-43,237,17,93,30
8340,-12,-40,236,50,89,31
8345,-11,-37,239,75,85,33
8350,-17,-32,237,87,82,31
8355,-16,-27,239,82,81,27
8360,-21,-24,243,64,80,22
8365,-23,-23,244,41,77,19
8370,-23,-26,244,12,78,12
8375,-22,-26,244,-10,82,5
8380,-24,-27,243,-24,88,0
8385,-24,-28,243,-27,94,-7
8390,-25,-29,243,-21,98,-12
8395,-24,-29,243,-8,98,-15
8400,-29,-28,235,6,100,-18
8405,-29,-30,240,18,101,-23
8410,-28,-31,240,25,92,-23
8415,-27,-27,238,33,79,-23
8420,-24,-29,241,33,68,-22
8425,-29,-30,242,24,64,-23
8430,-23,-28,242,16,67,-24
8435,-33,-41,245,11,77,-20
8440,-25,-30,237,10,85,-18
8445,-25,-29,238,18,95,-14
8450,-23,-28,239,29,100,-11
8455,-19,-31,240,43,107,-5
8460,-22,-30,238,56,116,-1
8465,-25,-26,240,71,119,7
8470,-26,-26,241,90,114,14
8475,-30,-23,242,97,104,17
8480,-28,-27,241,88,97,13
8485,-29,-23,241,64,95,9
8490,-29,-22,243,36,102,3
8495,-29,-28,243,9,117,-1
8500,-29,-28,243,-17,129,-5
8505,-30,-29,242,-31,138,-7
8510,-28,-28,245,-29,139,-2
8515,-25,-33,243,-22,138,-2
8520,-25,-32,240,-9,136,-5
8525,-28,-30,242,7,124,-7
8530,-27,-30,242,28,108,-8
8535,-30,-23,239,41,95,-14
8540,-29,-25,242,42,85,-16
8545,-23,-21,237,43,77,-15
8550,-33,-18,243,36,73,-14
8555,-31,-20,240,24,74,-15
8560,-35,-19,242,4,76,-19
8565,-31,-25,242,-12,79,-19
8570,-28,-24,241,-26,82,-20
8575,-28,-26,244,-33,85,-22
8580,-27,-26,246,-32,85,-20
8585,-28,-29,241,-22,83,-18
8590,-26,-29,241,-6,78,-16
8595,-28,-29,242,9,69,-15
8600,-29,-28,239,21,59,-13
8605,-31,-26,240,24,51,-13
8610,-32,-24,240,22,44,-14
8615,-31,-22,241,14,39,-16
8620,-31,-21,238,1,36,-16
8625,-33,-21,245,-13,34,-17
8630,-35,-24,244,-25,34,-18
8635,-23,-25,242,-36,37,-19
8640,-32,-27,247,-43,44,-26
8645,-33,-27,242,-44,43,-20
8650,-27,-26,243,-31,40,-14
8655,-30,-32,240,-16,40,-12
8660,-30,-25,241,5,39,-8
8665,-27,-26,239,27,35,-2
8670,-26,-24,239,44,29,3
8675,-27,-23,243,54,22,6
8680,-26,-23,238,59,15,8
8685,-24,-20,240,59,13,8
8690,-27,-22,243,55,11,7
8695,-27,-24,242,48,10,5
8700,-27,-23,242,35,11,1
8705,-32,-24,239,24,10,-1
8710,-26,-25,245,11,13,-4
8715,-30,-21,240,2,16,-7
8720,-31,-24,244,-4,22,-9
8725,-28,-24,245,-5,29,-9
8730,-26,-26,240,0,32,-9
8735,-28,-30,243,6,34,-9
8740,-27,-27,242,17,32,-7
8745,-24,-28,240,27,31,-8
8750,-23,-30,239,35,29,-7
8755,-25,-25,239,42,25,-7
8760,-25,-24,244,44,24,-5
8765,-12,-24,225,39,25,-7
8770,-24,-22,239,36,29,-6
8775,-23,-25,241,30,33,-7
8780,-20,-26,238,22,37,-7
8785,-23,-25,240,17,37,-8
8790,-24,-23,242,13,40,-8
8795,-22,-26,239,11,38,-9
8800,-23,-27,243,7,37,-10
8805,-20,-26,241,8,36,-10
8810,-22,-28,243,10,34,-9
8815,-21,-31,244,14,31,-9
8820,-20,-28,242,21,30,-12
8825,-18,-28,240,24,28,-13
8830,-19,-27,243,26,27,-16
8835,-23,-24,242,27,28,-18
8840,-21,-28,243,34,32,-17
8845,-21,-27,239,37,41,-15
8850,-20,-25,240,34,48,-16
8855,-19,-23,241,29,54,-14
8860,-22,-25,242,22,55,-15
8865,-23,-26,243,13,57,-16
8870,-25,-26,244,6,57,-14
8875,-22,-25,243,-2,55,-17
8880,-20,-26,241,-8,56,-16
8885,-22,-25,242,-9,59,-16
8890,-20,-29,240,-8,59,-14
8895,-22,-25,239,0,61,-12
8900,-20,-26,237,10,64,-11
8905,-20,-22,238,18,69,-11
8910,-21,-25,244,24,67,-10
8915,-20,-24,240,31,59,-10
8920,-22,-24,239,37,50,-12
8925,-21,-26,238,39,42,-13
8930,-25,-21,239,40,38,-13
8935,-24,-25,239,39,39,-13
8940,-22,-20,241,38,43,-15
8945,-24,-24,242,32,52,-14
8950,-23,-22,241,27,59,-16
8955,-24,-22,241,23,66,-16
8960,-26,-21,244,17,70,-15
8965,-20,-23,244,11,73,-15
8970,-25,-19,247,6,73,-14
8975,-25,-20,242,2,71,-13
8980,-16,-15,240,-2,68,-13
8985,-23,-23,242,-2,64,-11
8990,-19,-22,243,1,64,-9
8995,-25,-20,241,5,64,-6
9000,-23,-21,245,7,65,-4
9005,-23,-22,239,7,67,-3
9010,-24,-21,242,2,68,-4
9015,-22,-22,245,-1,68,-6
9020,-27,-18,246,-5,65,-6
9025,-25,-21,243,-6,60,-7
9030,-27,-20,244,-9,55,-6
9035,-24,-18,248,-5,55,-7
9040,-27,-18,245,-5,56,-6
9045,-25,-19,243,-4,56,-5
9050,-22,-20,244,-5,54,-6
9055,-26,-21,248,-11,51,-8
9060,-24,-23,244,-16,50,-8
9065,-24,-23,244,-20,48,-8
9070,-23,-23,243,-25,48,-10
9075,-24,-24,242,-28,47,-11
9080,-28,-23,247,-30,44,-10
9085,-25,-21,241,-30,43,-13
9090,-25,-35,243,-27,44,-12
9095,-24,-22,243,-22,46,-9
9100,-24,-23,241,-17,49,-10
9105,-27,-22,243,-14,51,-9
9110,-21,-23,241,-12,53,-10
9115,-26,-22,244,-12,56,-13
9120,-23,-24,244,-13,58,-11
9125,-25,-22,245,-12,66,-12
9130,-24,-22,245,-8,74,-9
9135,-25,-22,245,-8,77,-7
9140,-23,-23,245,-11,76,-6
9145,-26,-25,243,-14,71,-6
9150,-22,-23,242,-18,65,-7
9155,-21,-24,244,-22,62,-6
9160,-26,-24,242,-25,59,-7
9165,-25,-25,240,-24,59,-5
9170,-23,-26,243,-21,58,-5
9175,-25,-23,243,-14,59,-4
9180,-19,-28,240,-6,61,-5
9185,-22,-24,240,0,62,-4
9190,-23,-23,238,7,62,-5
9195,-23,-21,238,9,65,-8
9200,-28,-20,246,9,65,-11
9205,-22,-25,238,8,67,-11
9210,-21,-21,242,8,70,-11
9215,-21,-22,240,7,71,-13
9220,-21,-23,241,4,72,-14
9225,-21,-22,243,-3,66,-14
9230,-20,-21,241,-12,63,-15
9235,-21,-24,240,-18,61,-13
9240,-20,-24,241,-20,61,-12
9245,-21,-20,241,-24,55,-11
9250,-24,-20,240,-30,52,-10
9255,-21,-24,242,-27,51,-10
9260,-21,-26,246,-16,52,-9
9265,-21,-26,245,-7,52,-6
9270,-21,-23,243,0,55,-5
9275,-21,-26,241,0,56,-5
9280,-19,-25,240,-4,58,-5
9285,-23,-25,244,-15,58,-9
9290,-25,-22,248,-20,60,-11
9295,-23,-23,241,-19,65,-11
9300,-22,-21,243,-23,68,-10
9305,-31,-20,236,-31,71,-11
9310,-23,-26,243,-38,70,-14
9315,-23,-23,247,-40,67,-15
9320,-21,-21,240,-37,64,-15
9325,-22,-22,241,-33,65,-12
9330,-21,-25,245,-24,65,-11
9335,-21,-25,239,-21,68,-9
9340,-23,-22,243,-21,68,-9
9345,-24,-21,241,-22,70,-8
9350,-20,-23,242,-23,75,-6
9355,-21,-24,240,-25,77,-4
9360,-22,-20,241,-30,73,-5
9365,-23,-22,245,-35,68,-5
9370,-25,-21,247,-30,64,-4
9375,-21,-25,242,-25,59,-1
9380,-22,-22,245,-23,57,0
9385,-20,-23,242,-22,56,-1
9390,-24,-21,243,-22,57,-1
9395,-23,-23,243,-21,59,-2
9400,-21,-21,241,-21,59,-2
9405,-19,-23,242,-24,58,-1
9410,-23,-22,246,-28,59,-2
9415,-22,-36,248,-34,59,-4
9420,-22,-22,243,-35,61,-4
9425,-21,-25,240,-36,62,-2
9430,-23,-23,241,-35,65,0
9435,-19,-25,241,-34,68,-1
9440,-21,-23,243,-31,69,0
9445,-22,-23,244,-29,67,-1
9450,-21,-24,246,-26,65,0
9455,-21,-24,247,-25,65,2
9460,-23,-24,242,-29,63,-1
9465,-24,-23,244,-30,64,-1
9470,-23,-25,241,-29,61,-2
9475,-20,-25,242,-26,62,-2
9480,-23,-24,242,-24,64,-2
9485,-23,-22,243,-26,64,-4
9490,-23,-24,245,-28,61,-5
9495,-22,-27,247,-25,60,-4
9500,-22,-24,241,-24,60,-2
9505,-23,-23,243,-20,61,-2
9510,-24,-24,246,-20,61,-3
9515,-20,-24,243,-19,58,-1
9520,-22,-23,242,-18,58,0
9525,-23,-23,243,-18,56,0
9530,-21,-22,243,-19,51,-1
9535,-20,-26,241,-20,49,-4
9540,-21,-23,245,-19,48,-3
9545,-21,-19,244,-20,47,-3
9550,-19,-21,241,-17,47,-3
9555,-22,-22,240,-13,48,-4
9560,-21,-25,242,-9,50,-5
9565,-19,-24,242,-5,53,-4
9570,-23,-23,243,0,55,-4
9575,-21,-22,242,6,59,-4
9580,-21,-27,243,10,63,-6
9585,-22,-25,242,12,66,-5
9590,-22,-27,241,13,68,-5
9595,-19,-27,240,9,72,-4
9600,-19,-26,243,2,72,-6
9605,-23,-26,246,-3,72,-4
9610,-23,-24,242,-4,72,-4
9615,-19,-25,242,-5,73,-5
9620,-21,-23,240,-6,76,-6
9625,-22,-21,240,-5,76,-5
9630,-20,-24,240,-7,77,-4
9635,-20,-23,248,-10,82,-3
9640,-21,-24,243,-6,84,-2
9645,-20,-24,241,4,82,0
9650,-19,-23,239,17,76,4
9655,-21,-22,237,26,68,5
9660,-21,-22,237,31,56,3
9665,-23,-21,243,33,47,3
9670,-20,-22,241,33,40,3
9675,-28,-24,241,35,38,4
9680,-24,-23,244,33,38,3
9685,-21,-20,243,27,38,2
9690,-19,-22,243,18,40,1
9695,-23,-16,240,9,45,1
9700,-21,-24,244,-1,51,-1
9705,-22,-20,246,-13,56,-3
9710,-18,-21,246,-19,62,-4
9715,-21,-23,244,-24,64,-4
9720,-22,-20,243,-28,66,-4
9725,-20,-23,244,-29,65,-4
9730,-25,-20,243,-32,64,-4
9735,-19,-25,243,-32,65,-4
9740,-24,-24,245,-31,65,-3
9745,-13,-12,240,-29,63,-3
9750,-23,-20,247,-27,58,-4
9755,-22,-21,243,-24,58,-3
9760,-22,-21,242,-19,54,-2
9765,-21,-22,244,-21,53,-4
9770,-20,-22,246,-24,52,-4
9775,-25,-26,245,-26,53,-3
9780,-22,-19,245,-25,53,-4
9785,-21,-24,245,-27,55,-3
9790,-20,-21,244,-29,57,-3
9795,-22,-24,242,-33,61,-2
9800,-23,-22,243,-35,62,-3
9805,-23,-22,242,-37,63,0
9810,-20,-23,243,-38,59,-2
9815,-20,-29,242,-43,60,-2
9820,-20,-25,244,-47,59,-2
9825,-21,-24,244,-49,60,-2
9830,-21,-23,244,-52,60,-3
9835,-21,-22,243,-52,61,-4
9840,-21,-20,244,-53,60,-2
9845,-22,-21,242,-53,60,-3
9850,-13,-21,239,-53,60,-3
9855,-22,-21,243,-53,62,-4
9860,-20,-25,248,-52,61,-4
9865,-22,-24,242,-53,62,-4
9870,-21,-25,243,-54,63,-3
9875,-20,-25,241,-56,64,-4
9880,-20,-24,244,-57,66,-6
9885,-22,-26,240,-59,65,-4
9890,-23,-22,243,-63,68,-5
9895,-22,-27,241,-64,68,-3
9900,-22,-27,242,-62,68,-4
9905,-21,-30,243,-60,70,-3
9910,-19,-29,241,-57,70,-2
9915,-21,-24,239,-51,71,-2
9920,-19,-27,242,-47,72,-2
9925,-18,-27,239,-42,71,-2
9930,-19,-25,241,-37,70,-2
9935,-22,-24,239,-36,68,-2
9940,-21,-23,245,-35,67,-3
9945,-20,-26,247,-36,68,-3
9950,-18,-23,245,-36,65,-5
9955,-22,-27,248,-36,65,-5
9960,-31,-25,248,-37,63,-6
9965,-20,-26,243,-38,65,-5
9970,-22,-25,246,-41,66,-6
9975,-23,-22,244,-43,65,-6
9980,-22,-24,243,-45,67,-7
9985,-20,-28,243,-46,70,-6
9990,-22,-26,243,-47,71,-6
9995,-20,-23,241,-46,73,-6
10000,-22,-26,240,-46,73,-5
10005,-21,-24,241,-46,75,-4
10010,-25,-26,239,-45,75,-5
10015,-22,-26,241,-46,75,-5
10020,-23,-24,243,-44,73,-7
10025,-20,-30,243,-41,74,-6
10030,-23,-27,242,-42,75,-5
10035,-24,-27,244,-41,73,-5
10040,-20,-25,241,-40,72,-5
10045,-20,-27,244,-41,73,-5
10050,-18,-29,242,-40,73,-6
10055,-21,-26,241,-39,73,-6
10060,-20,-25,244,-40,73,-6
10065,-21,-27,243,-41,74,-6
10070,-26,-33,244,-41,75,-6
10075,-19,-28,241,-41,75,-5
10080,-19,-28,240,-40,77,-2
10085,-18,-26,245,-40,78,-1
10090,-20,-28,244,-40,78,0
10095,-22,-26,242,-40,78,1
10100,-24,-26,242,-39,75,2
10105,-22,-24,244,-41,73,2
10110,-26,-24,241,-42,73,2
10115,-20,-25,243,-42,72,1
10120,-21,-29,241,-43,70,0
10125,-21,-26,243,-43,68,-2
10130,-16,-27,241,-43,69,-2
10135,-23,-25,241,-44,68,-1
10140,-17,-26,241,-47,69,-3
10145,-20,-27,243,-50,70,-3
10150,-19,-27,247,-54,73,-4
10155,-21,-27,246,-56,72,-3
10160,-22,-28,241,-59,74,-2
10165,-23,-26,241,-62,74,-2
10170,-21,-29,243,-65,74,-2
10175,-20,-29,246,-64,74,-2
10180,-25,-32,250,-64,75,-2
10185,-23,-29,242,-63,75,-3
10190,-22,-26,241,-62,77,-3
10195,-21,-31,243,-59,80,-4
10200,-21,-28,243,-59,85,-3
10205,-22,-28,244,-60,89,-3
10210,-21,-29,243,-61,90,-4
10215,-24,-29,241,-61,92,-3
10220,-26,-27,240,-63,92,-1
10225,-23,-27,246,-66,89,0
10230,-24,-29,241,-65,84,0
10235,-23,-29,239,-66,83,-1
10240,-24,-28,241,-64,83,-1
10245,-21,-28,241,-60,83,-1
10250,-23,-28,239,-55,81,-2
10255,-20,-30,241,-50,82,-1
10260,-20,-32,242,-44,83,-4
10265,-21,-30,241,-43,84,-5
10270,-21,-31,241,-39,83,-3
10275,-23,-28,244,-35,87,-4
10280,-20,-27,242,-30,93,-3
10285,-23,-29,241,-26,98,-3
10290,-22,-31,245,-20,100,-5
10295,-25,-28,241,-12,103,-4
10300,-22,-30,242,-7,105,-4
10305,-21,-29,239,-2,101,-3
10310,-22,-32,238,0,99,-5
10315,-23,-31,239,0,101,-4
10320,-23,-29,240,-5,103,-4
10325,-23,-30,238,-9,106,-2
10330,-22,-28,243,-16,106,-1
10335,-24,-31,241,-26,101,0
10340,-25,-30,241,-34,99,-1
10345,-20,-32,243,-39,96,-1
10350,-22,-33,241,-39,95,1
10355,-20,-27,243,-35,96,1
10360,-22,-29,240,-28,96,2
10365,-23,-30,241,-20,95,2
10370,-21,-29,239,-9,94,4
10375,-23,-28,238,0,94,7
10380,-23,-31,239,6,90,6
10385,-20,-29,242,5,86,4
10390,-22,-28,240,2,83,2
10395,-25,-28,239,-1,82,3
10400,-23,-28,241,-2,80,2
10405,-18,-29,242,-5,82,3
10410,-24,-27,243,-9,84,1
10415,-22,-26,239,-12,87,3
10420,-24,-28,241,-14,88,4
10425,-23,-30,242,-13,88,7
10430,-22,-31,239,-16,88,5
10435,-23,-25,241,-18,84,3
10440,-23,-28,243,-21,83,0
10445,-24,-28,240,-22,82,0
10450,-24,-28,241,-23,82,-3
10455,-22,-29,239,-20,82,-3
10460,-24,-31,238,-18,81,-2
10465,-23,-29,239,-17,79,-3
10470,-22,-31,242,-16,77,-2
10475,-24,-30,242,-17,74,-1
10480,-25,-28,241,-19,70,-2
10485,-25,-28,242,-19,71,-1
10490,-26,-32,244,-19,72,-2
10495,-19,-28,240,-20,73,-1
10500,-23,-31,239,-22,73,-3
10505,-19,-31,258,-23,73,-2
10510,-24,-29,241,-23,74,-3
10515,-26,-32,240,-25,73,-4
10520,-20,-29,241,-26,73,-3
10525,-22,-30,239,-28,74,-3
10530,-23,-28,242,-29,76,-2
10535,-22,-32,241,-32,74,-5
10540,-23,-31,238,-36,72,-6
10545,-23,-27,244,-40,72,-6
10550,-26,-28,241,-42,71,-6
10555,-23,-29,244,-41,70,-7
10560,-22,-29,242,-40,72,-6
10565,-25,-30,241,-36,71,-6
10570,-21,-29,241,-33,70,-5
10575,-22,-29,240,-30,73,-4
10580,-25,-32,242,-29,72,-4
10585,-25,-33,244,-28,72,-5
10590,-24,-30,241,-28,69,-4
10595,-25,-33,244,-31,69,-5
10600,-23,-30,239,-36,70,-5
10605,-23,-31,245,-43,74,-7
10610,-23,-31,242,-45,77,-6
10615,-22,-24,246,-44,80,-4
10620,-25,-29,240,-39,84,-4
10625,-26,-34,239,-34,85,-1
10630,-26,-30,246,-29,82,-1
10635,-23,-30,239,-25,74,-4
10640,-20,-31,239,-17,72,-3
10645,-27,-29,239,-13,73,-3
10650,-24,-28,239,-13,74,-2
10655,-26,-28,240,-13,73,-2
10660,-24,-29,240,-16,71,-4
10665,-23,-28,243,-18,72,-5
10670,-22,-28,244,-19,76,-5
10675,-26,-27,243,-23,78,-4
10680,-25,-28,245,-27,77,-4
10685,-21,-31,242,-32,79,-7
10690,-25,-29,243,-36,80,-6
10695,-25,-30,243,-39,79,-5
10700,-23,-26,246,-40,77,-6
10705,-26,-29,244,-39,77,-6
10710,-25,-27,240,-38,80,-6
10715,-26,-31,245,-37,83,-4
10720,-21,-30,242,-34,82,-4
10725,-16,-29,237,-34,80,-5
10730,-27,-28,239,-32,81,-5
10735,-24,-32,242,-29,82,-4
10740,-22,-32,242,-26,84,-4
10745,-23,-32,241,-23,85,-1
10750,-22,-31,242,-23,85,-1
10755,-26,-30,243,-23,82,-1
10760,-25,-32,240,-22,81,-1
10765,-24,-31,240,-19,77,-2
10770,-21,-36,242,-18,73,0
10775,-24,-33,245,-14,72,2
10780,-23,-33,241,-10,72,2
10785,-22,-33,242,-6,72,2
10790,-25,-34,240,-4,71,2
10795,-22,-35,239,-2,70,2
10800,-22,-30,243,1,69,3
10805,-22,-32,240,1,68,1
10810,-25,-28,239,1,67,3
10815,-24,-33,240,6,66,3
10820,-23,-32,240,6,64,2
10825,-24,-27,241,3,64,1
10830,-29,-29,245,2,64,0
10835,-23,-33,241,-2,64,0
10840,-23,-32,242,-4,65,0
10845,-23,-30,240,-6,64,0
10850,-26,-30,243,-8,63,0
10855,-23,-33,240,-9,63,-2
10860,-25,-27,240,-10,66,-1
10865,-23,-30,240,-9,66,-1
10870,-23,-30,240,-9,65,0
10875,-24,-29,243,-9,67,-1
10880,-27,-30,243,-11,68,0
10885,-24,-32,242,-11,68,1
10890,-23,-28,241,-12,68,-1
10895,-22,-31,239,-11,69,1
10900,-22,-34,243,-11,69,1
10905,-23,-30,241,-12,67,1
10910,-25,-30,240,-10,67,1
10915,-25,-31,243,-8,66,0
10920,-22,-31,242,-8,66,0
10925,-23,-28,242,-7,65,-1
10930,-21,-29,239,-6,64,-2
10935,-21,-26,242,-5,66,-1
10940,-26,-29,240,-4,66,-3
10945,-21,-30,240,-1,66,-2
10950,-23,-26,239,3,64,-1
10955,-24,-30,238,7,65,-1
10960,-24,-30,239,12,65,-3
10965,-23,-29,238,19,64,-3
10970,-24,-29,242,26,62,-2
10975,-24,-28,243,35,60,-2
10980,-25,-29,240,44,58,-2
10985,-26,-28,241,49,57,-2
10990,-24,-30,240,49,59,-3
10995,-20,-31,239,45,61,-4
11000,-23,-28,242,42,60,-5
11005,-22,-31,243,34,58,-4
11010,-24,-30,242,26,58,-3
11015,-23,-35,242,19,60,-3
11020,-23,-33,242,13,62,-4
11025,-23,-29,239,8,64,-6
11030,-26,-30,239,6,64,-5
11035,-22,-29,237,5,63,-4
11040,-23,-30,240,8,64,-4
11045,-23,-31,243,13,62,-3
11050,-31,-29,234,18,60,-2
11055,-26,-29,241,24,58,-1
11060,-24,-29,238,30,55,-1
11065,-25,-28,239,33,53,-1
11070,-24,-28,240,37,50,-2
11075,-24,-31,238,39,50,-2
11080,-25,-27,239,41,50,-2
11085,-26,-28,242,43,52,-3
11090,-24,-30,239,44,53,-3
11095,-24,-27,239,44,55,-3
11100,-21,-28,237,44,55,-4
11105,-25,-27,241,41,57,-3
11110,-25,-26,242,37,57,-5
11115,-25,-28,238,34,57,-5
11120,-25,-28,242,32,58,-5
11125,-25,-27,240,27,55,-4
11130,-24,-26,240,24,56,-5
11135,-23,-28,241,23,56,-5
11140,-20,-29,243,22,53,-4
11145,-23,-27,243,21,55,-4
11150,-21,-27,246,21,55,-4
11155,-22,-28,245,21,55,-4
11160,-16,-26,250,19,54,-4
11165,-24,-28,241,18,54,-6
11170,-26,-22,241,17,54,-5
11175,-22,-28,241,16,54,-4
11180,-22,-26,243,15,53,-5
11185,-21,-27,243,14,53,-5
11190,-24,-29,243,12,51,-6
11195,-26,-29,242,11,51,-6
11200,-23,-27,239,8,53,-6
11205,-24,-27,242,8,53,-8
11210,-21,-28,243,7,53,-5
11215,-22,-27,241,6,53,-6
11220,-22,-30,241,7,53,-5
11225,-20,-28,241,6,53,-5
11230,-25,-24,242,7,51,-4
11235,-23,-29,239,7,49,-4
11240,-20,-28,238,8,47,-4
11245,-22,-26,240,8,45,-2
11250,-23,-27,243,10,45,-4
11255,-21,-26,244,15,44,-3
11260,-21,-28,241,19,48,-3
11265,-23,-24,243,21,51,-3
11270,-24,-24,243,22,53,-1
11275,-22,-27,245,21,55,-2
11280,-20,-29,240,16,56,-1
11285,-21,-27,245,10,57,-3
11290,-25,-27,243,3,57,-2
11295,-22,-27,243,-3,55,-3
11300,-23,-27,240,-6,57,-3
11305,-22,-30,245,-7,58,-4
11310,-22,-27,243,-5,57,-2
11315,-24,-27,241,0,58,0
11320,-20,-28,243,6,57,-2
11325,-21,-28,240,14,57,-1
11330,-22,-29,241,19,55,-2
11335,-23,-25,242,21,49,-3
11340,-22,-25,241,22,46,-2
11345,-23,-25,243,26,47,-5
11350,-24,-24,241,23,48,-6
11355,-25,-23,239,21,49,-7
11360,-22,-24,241,19,53,-6
11365,-22,-25,245,15,54,-6
11370,-23,-26,245,8,51,-8
11375,-17,-21,239,5,50,-8
11380,-21,-23,244,-2,47,-8
11385,-20,-26,241,-4,48,-9
11390,-20,-25,244,-6,47,-8
11395,-24,-28,245,-6,46,-7
11400,-24,-25,244,-3,49,-6
11405,-25,-27,242,-3,50,-7
11410,-20,-24,242,0,54,-6
11415,-20,-24,243,-2,56,-6
11420,-22,-28,243,-3,57,-7
11425,-21,-23,243,-4,58,-7
11430,-21,-28,242,-3,60,-8
11435,-19,-26,240,-4,62,-8
11440,-24,-22,242,-5,62,-7
11445,-18,-29,243,-6,63,-5
11450,-25,-25,244,-4,64,-5
11455,-21,-26,241,0,64,-4
11460,-19,-27,241,2,62,-2
11465,-20,-25,241,5,60,-2
11470,-20,-28,241,5,58,-3
11475,-23,-25,243,5,54,-3
11480,-18,-24,239,7,52,-3
11485,-25,-25,237,8,51,-2
11490,-23,-24,243,7,49,-1
11495,-24,-25,243,9,51,-2
11500,-21,-24,242,10,50,-3
11505,-20,-25,240,9,50,-4
11510,-20,-25,241,10,53,-4
11515,-22,-23,244,9,52,-3
11520,-20,-25,241,7,52,-7
11525,-19,-25,247,5,53,-6
11530,-22,-23,243,4,56,-5
11535,-20,-26,242,3,57,-5
11540,-21,-25,244,0,59,-5
11545,-22,-26,241,-5,59,-5
11550,-23,-27,244,-6,58,-5
11555,-21,-25,242,-6,57,-4
11560,-19,-26,240,-6,58,-1
11565,-21,-25,243,-5,59,-2
11570,-21,-25,240,-5,58,-3
11575,-23,-26,244,-3,56,-2
11580,-21,-25,242,-3,55,-2
11585,-21,-23,248,-4,58,-4
11590,-20,-25,239,-6,59,-3
11595,-21,-17,246,-7,61,-4
11600,-20,-26,240,-10,64,-4
11605,-22,-23,242,-17,64,-5
11610,-21,-27,245,-22,63,-7
11615,-19,-27,243,-22,65,-5
11620,-25,-25,244,-21,66,-4
11625,-21,-25,243,-19,66,-4
11630,-20,-26,242,-19,66,-4
11635,-21,-25,245,-18,63,-4
11640,-20,-27,243,-16,61,-4
11645,-19,-24,247,-14,61,-3
11650,-20,-26,243,-14,60,-4
11655,-21,-23,244,-14,61,-2
11660,-21,-23,241,-17,59,-4
11665,-17,-26,242,-19,57,-4
11670,-21,-24,244,-17,58,-4
11675,-20,-25,240,-15,58,-5
11680,-21,-24,243,-11,58,-8
11685,-21,-24,245,-8,57,-8
11690,-22,-25,245,-3,57,-9
11695,-23,-21,242,-1,56,-9
11700,-19,-27,242,1,57,-12
11705,-21,-31,247,2,60,-12
11710,-19,-28,241,4,62,-10
11715,-20,-26,242,4,68,-9
11720,-21,-28,243,2,74,-7
11725,-20,-28,247,-2,78,-5
11730,-21,-27,242,-4,78,-3
11735,-21,-30,246,-5,78,-3
11740,-19,-28,241,-1,77,-3
11745,-19,-27,245,3,76,-1
11750,-20,-26,241,9,76,-1
11755,-19,-24,237,15,75,0
11760,-21,-24,240,22,74,1
11765,-20,-28,241,28,73,2
11770,-21,-26,238,32,68,2
11775,-20,-23,240,35,61,0
11780,-21,-24,239,37,56,1
11785,-22,-24,239,41,53,2
11790,-21,-23,238,40,52,1
11795,-23,-25,242,35,49,0
11800,-23,-23,243,31,47,-2
11805,-21,-22,244,27,47,-1
11810,-21,-23,243,23,50,-1
11815,-16,-16,239,18,56,-1
11820,-22,-19,242,15,60,0
11825,-19,-22,247,13,66,-1
11830,-20,-22,243,7,68,-2
11835,-21,-22,245,2,67,-2
11840,-20,-24,243,-2,68,-1
11845,-20,-22,247,-7,65,-2
11850,-18,-29,246,-11,64,-5
11855,-23,-22,245,-11,61,-5
11860,-22,-25,240,-8,60,-4
11865,-21,-26,244,-2,58,-4
11870,-22,-27,244,0,56,-3
11875,-20,-23,240,2,57,-4
11880,-22,-24,243,3,57,-6
11885,-24,-23,241,2,56,-4
11890,-20,-24,242,-1,54,-5
11895,-24,-22,246,-4,53,-6
11900,-25,-22,242,-4,53,-5
11905,-24,-25,242,-2,55,-6
11910,-21,-26,241,-1,57,-5
11915,-22,-22,248,-1,56,-6
11920,-26,-20,251,0,59,-6
11925,-19,-22,244,0,62,-4
11930,-21,-23,244,1,63,-6
11935,-20,-25,241,-3,62,-6
11940,-20,-24,242,-5,63,-6
11945,-21,-25,242,-7,64,-6
11950,-19,-25,244,-6,62,-6
11955,-20,-22,240,-4,60,-5
11960,-20,-20,240,-3,61,-4
11965,-20,-23,245,-7,59,-4
11970,-23,-23,241,-8,57,-3
11975,-22,-22,240,-10,56,-2
11980,-21,-23,242,-10,55,-4
11985,-19,-25,244,-10,55,-4
11990,-21,-23,244,-7,56,-3
11995,-20,-22,244,-7,60,-3
12000,-18,-25,244,-8,61,-3
12005,-21,-23,243,-13,62,-5
12010,-17,-24,241,-18,61,-4
12015,-21,-23,247,-24,63,-2
12020,-22,-21,242,-26,63,-3
12025,-21,-24,245,-26,64,-3
12030,-26,-21,241,-24,64,-3
12035,-18,-22,244,-22,65,-4
12040,-22,-24,245,-17,64,-4
12045,-17,-24,245,-10,62,-4
12050,-21,-22,240,-7,61,-5
12055,-19,-21,242,-7,59,-6
12060,-21,-22,241,-7,58,-5
12065,-20,-23,242,-6,59,-5
12070,-19,-24,239,-8,58,-4
12075,-20,-25,241,-10,58,-6
12080,-19,-23,244,-14,58,-6
12085,-22,-22,243,-16,59,-5
12090,-21,-24,241,-16,59,-4
12095,-19,-26,243,-19,58,-4
12100,-21,-22,243,-22,57,-6
12105,-21,-22,238,-26,56,-7
12110,-19,-26,242,-24,57,-7
12115,-17,-23,242,-22,61,-7
12120,-20,-23,243,-20,64,-5
12125,-23,-24,247,-18,67,-6
12130,-20,-27,244,-17,69,-5
12135,-22,-23,241,-16,69,-5
12140,-20,-23,236,-15,71,-3
12145,-22,-24,242,-14,72,-5
12150,-20,-23,244,-13,73,-5
12155,-22,-24,242,-12,71,-4
12160,-20,-25,242,-10,72,-3
12165,-19,-23,238,-10,70,-2
12170,-19,-23,241,-11,69,-2
12175,-18,-24,243,-10,67,-4
12180,-19,-24,242,-9,65,-4
12185,-18,-23,243,-8,63,-5
12190,-19,-22,238,-7,62,-3
12195,-19,-25,243,-8,62,-4
12200,-18,-23,243,-11,61,-5
12205,-20,-22,241,-9,62,-3
12210,-19,-24,244,-10,60,-3
12215,-18,-25,240,-10,60,-3
12220,-18,-23,242,-12,62,-3
12225,-18,-25,243,-16,59,-3
12230,-21,-22,241,-16,59,-3
12235,-21,-24,241,-16,59,-4
12240,-19,-22,243,-18,59,-5
12245,-19,-27,242,-15,59,-5
12250,-11,-28,245,-15,61,-6
12255,-21,-22,246,-14,61,-5
12260,-19,-24,243,-13,63,-5
12265,-18,-25,245,-12,65,-4
12270,-20,-25,244,-13,66,-3
12275,-20,-24,242,-14,68,-3
12280,-21,-25,243,-16,69,-4
12285,-19,-24,242,-16,69,-2
12290,-21,-25,241,-17,68,-1
12295,-18,-25,242,-16,67,-2
12300,-19,-22,245,-17,66,-4
12305,-21,-25,241,-18,67,-2
12310,-18,-26,243,-16,65,-2
12315,-20,-26,239,-17,63,-2
12320,-21,-22,242,-18,64,-2
12325,-19,-26,240,-19,65,-3
12330,-21,-22,242,-19,63,-3
12335,-23,-24,241,-20,63,-4
12340,-21,-22,245,-23,62,-5
12345,-19,-24,243,-26,62,-4
12350,-19,-24,243,-29,62,-4
12355,-16,-23,240,-30,62,-6
12360,-13,-21,242,-29,62,-5
12365,-18,-23,245,-28,64,-5
12370,-18,-28,244,-27,66,-5
12375,-18,-26,244,-25,64,-4
12380,-18,-24,242,-24,65,-5
12385,-20,-23,241,-24,66,-4
12390,-19,-25,243,-28,65,-6
12395,-22,-28,244,-31,65,-5
12400,-18,-24,245,-32,65,-6
12405,-19,-25,244,-33,66,-7
12410,-17,-25,242,-31,68,-7
12415,-19,-23,241,-34,70,-3
12420,-19,-24,244,-33,70,-4
12425,-22,-24,242,-32,71,-3
12430,-20,-25,241,-30,69,-4
12435,-16,-23,243,-27,67,-3
12440,-20,-24,244,-24,66,-3
12445,-17,-27,238,-18,67,-3
12450,-19,-25,243,-17,65,-3
12455,-18,-25,240,-16,66,-3
12460,-21,-25,246,-16,67,-3
12465,-25,-22,238,-17,68,-3
12470,-19,-23,245,-20,68,-2
12475,-21,-22,244,-21,70,-3
12480,-20,-22,241,-22,69,-4
12485,-23,-24,243,-19,69,-5
12490,-22,-23,242,-14,70,-5
12495,-23,-24,241,-7,71,-6
12500,-19,-24,241,-1,69,-7
12505,-18,-24,242,3,69,-7
12510,-20,-30,242,6,70,-9
12515,-18,-27,242,6,72,-9
12520,-26,-31,241,4,76,-7
12525,-17,-26,242,-2,79,-7
12530,-18,-28,242,-9,80,-6
12535,-17,-30,242,-14,83,-5
12540,-21,-26,248,-19,87,-5
12545,-21,-25,241,-20,87,-5
12550,-18,-28,241,-16,88,-4
12555,-20,-25,239,-13,87,-2
12560,-23,-26,238,-6,87,-3
12565,-21,-24,238,1,86,-2
12570,-19,-27,243,8,84,0
12575,-21,-22,240,14,81,1
12580,-23,-20,238,21,79,1
12585,-23,-24,241,28,74,2
12590,-24,-22,242,32,71,3
12595,-18,-24,238,33,68,2
12600,-16,-24,241,30,65,0
12605,-19,-22,245,25,65,0
12610,-21,-23,243,21,65,-1
12615,-19,-21,244,16,65,-3
12620,-17,-19,244,11,68,-3
12625,-19,-21,242,6,74,-3
12630,-21,-21,241,0,77,-3
12635,-21,-22,248,-10,78,-3
12640,-16,-19,242,-15,78,-5
12645,-18,-23,245,-19,78,-4
12650,-19,-21,242,-19,78,-3
12655,-21,-23,240,-20,78,-4
12660,-18,-23,240,-21,78,-4
12665,-21,-21,242,-20,79,-4
12670,-21,-22,243,-19,77,-7
12675,-22,-23,243,-18,74,-6
12680,-21,-26,244,-13,72,-6
12685,-19,-23,235,-7,69,-5
12690,-22,-23,244,-5,67,-5
12695,-20,-26,245,-5,63,-6
12700,-20,-26,240,-4,64,-6
12705,-21,-26,242,-4,62,-4
12710,-18,-23,243,-5,62,-4
12715,-20,-23,240,-5,64,-4
12720,-20,-25,239,-7,65,-3
12725,-20,-22,243,-9,64,-5
12730,-17,-25,241,-12,65,-5
12735,-20,-26,241,-14,65,-5
12740,-18,-25,238,-14,66,-5
12745,-20,-27,243,-13,67,-4
12750,-19,-28,237,-12,68,-4
12755,-21,-24,243,-14,68,-4
12760,-22,-21,243,-14,67,-5
12765,-23,-20,240,-17,69,-4
12770,-21,-23,245,-18,71,-6
12775,-20,-21,243,-19,71,-4
12780,-22,-22,242,-21,72,-5
12785,-19,-24,242,-20,71,-5
12790,-22,-23,240,-19,68,-7
12795,-22,-18,235,-17,66,-6
12800,-20,-27,242,-13,66,-5
12805,-22,-21,244,-11,69,-4
12810,-17,-25,243,-11,68,-5
12815,-20,-24,245,-16,70,-5
12820,-18,-25,241,-22,70,-8
12825,-22,-22,238,-27,72,-6
12830,-18,-28,243,-31,71,-6
12835,-21,-23,242,-32,73,-5
12840,-19,-27,245,-30,73,-4
12845,-21,-24,241,-24,69,-4
12850,-19,-23,244,-19,66,-4
12855,-20,-23,241,-15,67,-6
12860,-21,-22,244,-12,64,-4
12865,-19,-24,240,-7,64,-4
12870,-22,-22,241,-9,63,-5
12875,-20,-23,242,-12,63,-5
12880,-19,-22,246,-17,62,-5
12885,-22,-23,245,-22,61,-6
12890,-22,-21,244,-25,60,-6
12895,-19,-26,243,-26,60,-6
12900,-18,-16,244,-27,63,-4
12905,-21,-22,246,-29,64,-7
12910,-19,-23,246,-32,65,-7
12915,-18,-23,243,-33,67,-6
12920,-22,-25,242,-33,68,-6
12925,-20,-21,243,-32,71,-4
12930,-19,-25,244,-28,75,-4
12935,-20,-25,242,-23,76,-3
12940,-19,-28,242,-21,77,-3
12945,-22,-25,243,-18,75,-3
12950,-18,-24,244,-19,75,-2
12955,-18,-24,241,-17,77,-2
12960,-20,-24,245,-17,76,-1
12965,-19,-24,246,-20,76,-1
12970,-22,-23,245,-19,75,-2
12975,-19,-25,242,-18,73,-1
12980,-17,-27,242,-17,72,-2
12985,-17,-22,244,-16,70,-1
12990,-20,-23,242,-15,69,-3
12995,-22,-24,241,-15,70,-2
13000,-23,-22,244,-15,68,-1
13005,-20,-23,248,-15,68,-3
13010,-16,-28,237,-16,67,-2
13015,-18,-25,241,-16,68,-2
13020,-21,-20,243,-18,67,-1
13025,-18,-23,238,-20,67,-1
13030,-22,-24,240,-21,67,-2
13035,-19,-24,243,-22,69,-3
13040,-19,-26,242,-21,68,-3
13045,-21,-23,245,-21,68,-2
13050,-22,-24,242,-22,67,-2
13055,-19,-27,245,-22,69,-3
13060,-20,-23,243,-22,70,-3
13065,-18,-25,243,-23,70,-3
13070,-18,-29,239,-22,69,-3
13075,-18,-26,243,-23,70,-2
13080,-20,-25,241,-23,71,-1
13085,-22,-25,245,-25,73,-2
13090,-20,-28,241,-27,72,-2
13095,-18,-26,243,-28,72,-2
13100,-23,-25,244,-31,74,-2
13105,-19,-25,242,-32,74,-2
13110,-22,-23,246,-34,71,-1
13115,-18,-26,240,-34,74,-3
13120,-23,-20,252,-34,74,-1
13125,-19,-23,241,-36,73,-1
13130,-18,-26,242,-36,72,-2
13135,-18,-26,240,-37,73,-1
13140,-20,-24,244,-39,73,-2
13145,-19,-25,245,-40,73,-2
13150,-22,-22,244,-43,73,-3
13155,-18,-27,241,-44,72,-3
13160,-22,-23,243,-47,73,-2
13165,-24,-25,242,-48,71,-2
13170,-23,-23,241,-50,72,-3
13175,-22,-22,242,-50,72,-3
13180,-20,-26,245,-50,72,-4
13185,-23,-24,242,-50,73,-5
13190,-20,-22,242,-53,73,-6
13195,-23,-24,248,-55,74,-5
13200,-20,-24,241,-55,74,-4
13205,-20,-28,244,-55,75,-4
13210,-22,-24,244,-55,75,-4
13215,-19,-27,242,-55,75,-4
13220,-19,-28,241,-53,73,-4
13225,-21,-25,245,-53,73,-4
13230,-24,-24,245,-53,72,-4
13235,-19,-25,246,-54,71,-3
13240,-21,-26,240,-55,74,-5
13245,-20,-31,241,-57,76,-7
13250,-19,-27,246,-59,78,-6
13255,-20,-28,243,-61,80,-6
13260,-18,-25,245,-60,85,-5
13265,-20,-24,244,-60,85,-3
13270,-21,-28,242,-59,87,-3
13275,-21,-27,243,-57,89,-2
13280,-19,-28,245,-51,90,-1
13285,-23,-27,240,-48,89,-1
13290,-22,-25,240,-44,90,-1
13295,-22,-26,240,-42,89,0
13300,-19,-30,239,-41,88,0
13305,-20,-24,243,-42,87,-1
13310,-20,-28,241,-43,86,0
13315,-19,-27,245,-44,87,-1
13320,-24,-28,239,-46,88,-1
13325,-20,-27,244,-45,89,-2
13330,-20,-27,245,-44,89,-2
13335,-20,-28,242,-42,87,-5
13340,-23,-30,246,-38,87,-5
13345,-21,-29,241,-32,87,-7
13350,-21,-28,245,-25,90,-7
13355,-21,-28,243,-19,92,-7
13360,-19,-28,240,-15,93,-3
13365,-23,-29,241,-13,98,-3
13370,-22,-29,241,-15,101,-2
13375,-19,-30,239,-20,103,-1
13380,-21,-31,242,-27,104,-2
13385,-23,-28,241,-31,104,0
13390,-18,-31,242,-35,104,-1
13395,-21,-29,244,-36,103,-1
13400,-19,-29,242,-33,102,-2
13405,-23,-27,240,-28,101,0
13410,-22,-28,238,-23,99,0
13415,-22,-29,242,-16,97,0
13420,-18,-28,240,-10,94,1
13425,-23,-26,240,-8,92,2
13430,-21,-27,241,-7,89,3
13435,-21,-27,240,-5,85,3
13440,-21,-26,240,-8,81,2
13445,-25,-23,239,-12,78,3
13450,-22,-27,244,-15,77,3
13455,-20,-29,241,-17,74,1
13460,-20,-28,245,-20,75,3
13465,-21,-28,242,-21,76,2
13470,-20,-29,241,-22,78,2
13475,-21,-27,245,-25,80,3
13480,-25,-29,244,-24,81,4
13485,-19,-27,241,-25,82,3
13490,-23,-25,245,-29,81,3
13495,-21,-21,239,-36,82,1
13500,-20,-25,240,-41,85,0
13505,-19,-25,240,-45,86,-1
13510,-24,-28,244,-45,87,0
13515,-23,-25,242,-45,84,0
13520,-22,-27,242,-43,84,0
13525,-23,-26,242,-43,84,-1
13530,-22,-32,242,-40,85,-1
13535,-24,-27,242,-40,84,-4
13540,-25,-28,244,-42,82,-3
13545,-23,-29,246,-42,80,-4
13550,-23,-32,239,-41,80,-4
13555,-25,-37,245,-40,83,-3
13560,-22,-29,243,-39,84,-1
13565,-23,-27,242,-37,84,-2
13570,-24,-29,244,-37,84,-3
13575,-20,-30,240,-37,84,-2
13580,-22,-31,241,-37,85,-1
13585,-23,-27,241,-39,87,-1
13590,-23,-29,242,-38,87,-1
13595,-27,-27,243,-36,84,-1
13600,-21,-31,245,-29,79,3
13605,-22,-33,238,-23,68,3
13610,-21,-33,244,-20,64,4
13615,-21,-31,242,-25,69,2
13620,-23,-28,241,-33,77,0
13625,-24,-31,239,-36,81,2
13630,-22,-28,241,-37,85,2
13635,-21,-26,239,-35,87,1
13640,-21,-30,242,-32,88,1
13645,-21,-29,239,-31,88,1
13650,-22,-26,242,-34,90,-1
13655,-22,-32,247,-37,91,-1
13660,-21,-30,244,-38,94,-1
13665,-18,-25,245,-42,97,-3
13670,-25,-29,242,-45,98,-3
13675,-24,-30,241,-49,100,-4
13680,-25,-28,243,-51,99,-4
13685,-22,-31,240,-51,93,-4
13690,-22,-27,244,-46,85,-2
13695,-20,-30,242,-34,83,-1
13700,-26,-30,241,-20,82,2
13705,-23,-31,240,-16,82,1
13710,-23,-28,240,-15,84,1
13715,-23,-28,242,-15,85,4
13720,-22,-29,240,-19,84,2
13725,-24,-30,237,-26,82,0
13730,-23,-26,241,-32,80,-2
13735,-25,-28,243,-40,79,-4
13740,-25,-28,241,-46,79,-4
13745,-25,-29,240,-50,83,-4
13750,-24,-27,241,-51,86,-4
13755,-21,-28,243,-51,89,-5
13760,-22,-30,244,-50,89,-6
13765,-23,-28,246,-49,86,-5
13770,-20,-29,243,-48,89,-4
13775,-33,-32,241,-47,94,-2
13780,-22,-31,242,-47,98,-1
13785,-20,-29,238,-47,100,1
13790,-20,-32,243,-45,97,0
13795,-23,-30,238,-44,96,0
13800,-25,-29,244,-38,95,1
13805,-23,-31,244,-34,94,3
13810,-21,-32,245,-31,95,3
13815,-23,-29,241,-26,101,4
13820,-23,-31,245,-24,98,4
13825,-26,-31,242,-27,92,2
13830,-25,-28,243,-28,88,0
13835,-24,-31,239,-30,82,1
13840,-25,-31,242,-30,78,2
13845,-23,-32,242,-27,75,2
13850,-24,-32,244,-21,76,4
13855,-28,-32,248,-10,72,5
13860,-23,-33,244,10,57,7
13865,-21,-30,239,24,49,4
13870,-22,-29,240,16,59,1
13875,-22,-29,238,0,68,0
13880,-26,-27,239,-16,74,0
13885,-21,-28,242,-27,77,1
13890,-24,-30,239,-31,80,1
13895,-24,-30,240,-33,79,0
13900,-21,-29,242,-37,77,-2
13905,-23,-29,241,-41,75,-2
13910,-21,-33,240,-41,78,-1
13915,-21,-33,238,-36,82,1
13920,-22,-32,242,-28,87,2
13925,-26,-28,242,-27,87,1
13930,-23,-33,239,-27,88,1
13935,-22,-29,239,-26,91,2
13940,-24,-30,239,-25,90,3
13945,-24,-33,242,-24,92,4
13950,-23,-34,240,-21,91,3
13955,-24,-33,239,-23,89,3
13960,-23,-30,240,-23,87,3
13965,-24,-30,242,-24,84,1
13970,-25,-31,240,-21,86,3
13975,-28,-30,240,-16,88,4
13980,-24,-29,242,-13,87,3
13985,-22,-31,241,-14,83,1
13990,-22,-28,235,-16,76,-2
13995,-25,-31,238,-19,75,-3
14000,-26,-32,242,-20,76,-2
14005,-25,-29,241,-23,78,-4
14010,-24,-32,238,-28,80,-5
14015,-23,-28,238,-34,83,-5
14020,-23,-31,242,-36,85,-3
14025,-25,-31,241,-36,85,-2
14030,-20,-31,239,-36,86,-1
14035,-23,-30,239,-36,83,-3
14040,-24,-31,245,-33,81,-1
14045,-27,-32,243,-31,75,-1
14050,-26,-32,244,-29,72,0
14055,-29,-30,244,-27,69,0
14060,-29,-31,241,-27,65,2
14065,-24,-28,242,-25,61,2
14070,-22,-29,242,-26,59,1
14075,-24,-30,243,-28,59,-2
14080,-25,-28,241,-31,63,-7
14085,-25,-30,243,-34,68,-7
14090,-24,-28,243,-33,73,-9
14095,-20,-34,239,-28,75,-8
14100,-20,-37,242,-22,78,-8
14105,-20,-34,238,-14,81,-8
14110,-26,-33,242,-5,84,-6
14115,-25,-30,242,4,84,-2
14120,-25,-30,239,13,85,0
14125,-26,-29,240,17,80,1
14130,-24,-37,239,18,78,1
14135,-25,-32,238,16,75,0
14140,-25,-32,237,12,75,2
14145,-27,-29,237,7,73,1
14150,-25,-33,243,1,74,1
14155,-26,-32,241,-8,75,-1
14160,-26,-29,243,-15,75,-2
14165,-25,-34,243,-21,75,-2
14170,-22,-30,237,-25,77,-3
14175,-25,-32,243,-25,78,-3
14180,-27,-31,242,-26,82,-2
14185,-25,-32,239,-22,84,-1
14190,-24,-33,243,-19,83,0
14195,-24,-32,241,-15,85,2
14200,-25,-33,243,-11,83,3
14205,-25,-36,244,-8,81,4
14210,-29,-31,232,-7,78,2
14215,-25,-34,239,-6,74,4
14220,-26,-32,240,-4,73,4
14225,-26,-30,241,1,74,3
14230,-25,-32,242,4,73,2
14235,-25,-31,243,6,70,3
14240,-27,-32,240,9,72,3
14245,-27,-30,237,11,72,2
14250,-24,-31,241,10,71,1
14255,-26,-29,241,8,74,-1
14260,-26,-26,243,6,75,-1
14265,-25,-29,242,2,73,-1
14270,-25,-30,240,-2,72,-2
14275,-21,-33,242,-5,71,-2
14280,-24,-28,239,-7,72,-2
14285,-24,-30,240,-8,70,-4
14290,-25,-31,239,-8,68,-4
14295,-23,-31,243,-9,71,-2
14300,-26,-29,241,-10,71,-2
14305,-25,-31,240,-9,69,-3
14310,-26,-31,242,-10,67,-3
14315,-25,-33,244,-10,67,-3
14320,-26,-31,243,-11,67,-3
14325,-28,-30,242,-12,68,-2
14330,-27,-31,245,-12,70,-3
14335,-27,-32,243,-8,74,-1
14340,-26,-30,245,-6,76,1
14345,-26,-32,247,-5,76,0
14350,-27,-31,241,-8,72,-1
14355,-27,-32,244,-10,70,-1
14360,-26,-32,240,-12,68,-1
14365,-26,-33,241,-12,65,-3
14370,-27,-34,236,-15,65,-2
14375,-27,-31,240,-15,65,-2
14380,-23,-29,241,-14,65,-2
14385,-26,-31,236,-10,64,-1
14390,-23,-30,242,-8,63,0
14395,-24,-32,241,-6,63,-2
14400,-26,-32,242,-5,64,-1
14405,-24,-31,240,-7,66,-2
14410,-25,-31,240,-9,67,-1
14415,-26,-31,243,-11,67,-2
14420,-25,-31,243,-15,68,-4
14425,-19,-24,247,-22,67,-4
14430,-27,-32,242,-27,67,-6
14435,-27,-32,243,-29,67,-7
14440,-24,-33,240,-29,68,-8
14445,-26,-33,240,-27,69,-6
14450,-24,-33,240,-23,67,-5
14455,-26,-31,243,-16,68,-5
14460,-25,-31,240,-9,68,-2
14465,-26,-32,240,-2,66,-2
14470,-25,-31,243,2,65,-2
14475,-25,-32,242,4,65,-1
14480,-26,-27,241,2,65,-2
14485,-24,-29,240,-2,64,-3
14490,-25,-28,238,-7,64,-5
14495,-25,-29,241,-11,64,-4
14500,-25,-29,241,-14,65,-5
14505,-25,-31,243,-18,68,-3
14510,-27,-28,241,-19,67,-4
14515,-24,-31,245,-20,67,-4
14520,-26,-26,243,-20,67,-3
14525,-26,-30,242,-21,67,-4
14530,-23,-29,239,-20,67,-4
14535,-25,-32,238,-20,66,-4
14540,-25,-33,240,-19,69,-5
14545,-23,-27,239,-18,69,-6
14550,-25,-32,241,-16,68,-4
14555,-27,-30,244,-16,70,-5
14560,-26,-28,238,-13,71,-4
14565,-27,-29,241,-12,73,-4
14570,-25,-31,243,-9,73,-2
14575,-27,-33,245,-10,72,-3
14580,-26,-32,238,-8,72,-2
14585,-23,-31,242,-7,73,-3
14590,-26,-30,237,-5,72,0
14595,-26,-32,239,-2,72,0
14600,-23,-33,240,-1,70,1
14605,-27,-31,238,0,69,-2
14610,-25,-29,243,1,68,-1
14615,-25,-28,238,3,66,-1
14620,-25,-31,239,5,65,-1
14625,-25,-31,240,4,65,-1
14630,-24,-31,242,5,63,-1
14635,-26,-29,240,4,64,-2
14640,-28,-29,237,3,64,-2
14645,-30,-35,244,2,63,-1
14650,-23,-32,241,1,63,-1
14655,-24,-32,239,-1,65,-1
14660,-24,-31,241,-1,64,-2
14665,-27,-30,240,1,63,-2
14670,-26,-31,240,3,63,-2
14675,-24,-30,245,3,63,-1
14680,-26,-29,240,5,63,-1
14685,-25,-32,240,7,63,0
14690,-26,-28,242,7,62,0
14695,-25,-30,242,8,61,1
14700,-25,-31,241,10,61,0
14705,-25,-31,239,11,61,1
14710,-26,-31,237,13,58,2
14715,-24,-31,243,16,57,1
14720,-27,-32,237,19,55,-1
14725,-26,-30,241,22,55,0
14730,-27,-30,243,27,53,0
14735,-26,-30,238,31,52,-2
14740,-26,-30,244,36,52,-2
14745,-26,-28,240,40,50,-5
14750,-23,-29,243,43,51,-5
14755,-19,-25,235,44,51,-7
14760,-23,-28,240,45,54,-5
14765,-22,-29,241,44,57,-5
14770,-24,-32,242,44,59,-5
14775,-22,-28,238,46,58,-5
14780,-24,-28,242,49,57,-6
14785,-22,-28,243,50,53,-4
14790,-24,-28,242,51,51,-2
14795,-23,-28,241,52,49,-2
14800,-25,-25,242,55,46,-2
14805,-23,-27,244,55,44,-1
14810,-25,-27,237,57,40,-2
14815,-24,-26,240,54,38,-1
14820,-24,-28,241,53,36,-3
14825,-25,-26,244,49,35,-2
14830,-24,-25,241,44,34,-3
14835,-24,-27,240,39,34,-3
14840,-23,-29,241,31,35,-4
14845,-25,-26,242,27,34,-6
14850,-24,-28,246,23,35,-7
14855,-25,-28,239,23,38,-7
14860,-26,-27,242,23,38,-8
14865,-27,-37,245,26,43,-9
14870,-24,-32,244,28,44,-11
14875,-25,-29,244,28,43,-11
14880,-26,-28,241,28,43,-9
14885,-25,-28,244,28,46,-9
14890,-22,-32,243,26,50,-10
14895,-25,-30,242,24,54,-7
14900,-22,-29,246,18,55,-6
14905,-25,-30,246,13,59,-6
14910,-24,-29,241,9,61,-4
14915,-23,-31,246,9,63,-4
14920,-19,-28,242,10,64,-4
14925,-22,-29,241,16,64,-3
14930,-23,-28,244,22,64,-3
14935,-22,-27,242,30,62,0
14940,-21,-28,244,37,62,1
14945,-21,-29,243,44,58,2
14950,-24,-24,243,50,54,2
14955,-22,-27,241,53,50,1
14960,-25,-27,238,52,43,2
14965,-25,-26,244,51,38,1
14970,-26,-27,238,49,36,0
14975,-24,-24,242,47,35,1
14980,-22,-23,238,45,36,0
14985,-21,-23,244,46,39,-1
14990,-22,-24,243,46,43,-3
14995,-21,-21,242,44,43,-4
