timestamp,acc_x,acc_y,acc_z,gyro_x,gyro_y,gyro_z
0,-5,-257,-28,-15,74,-12
5,-3,-257,-30,-14,75,-12
10,-2,-257,-26,-15,75,-10
15,-1,-256,-28,-17,77,-8
20,-3,-254,-32,-21,79,-6
25,-9,-248,-35,-25,81,-3
30,0,-255,-29,-31,82,-2
35,-4,-253,-27,-37,84,-2
40,-1,-254,-29,-41,85,-2
45,-2,-255,-25,-39,86,-2
50,0,-254,-24,-34,89,-3
55,-2,-254,-30,-29,92,-4
60,0,-252,-28,-21,93,-4
65,-4,-257,-30,-14,97,-4
70,-4,-256,-29,-7,99,-3
75,-5,-252,-26,-2,101,-1
80,-3,-258,-26,-2,102,1
85,-2,-260,-32,-4,101,0
90,-3,-254,-31,-9,101,0
95,-8,-255,-32,-19,100,0
100,-3,-254,-31,-30,101,2
105,-1,-255,-30,-40,101,2
110,-2,-254,-32,-45,100,3
115,-2,-255,-30,-46,100,1
120,-3,-255,-28,-43,102,-1
125,-1,-253,-31,-39,104,-4
130,-5,-258,-29,-32,106,-7
135,-2,-251,-28,-26,105,-10
140,-4,-254,-27,-22,103,-11
145,-2,-256,-28,-21,101,-12
150,-4,-255,-29,-21,100,-12
155,-7,-254,-31,-21,99,-13
160,-4,-256,-30,-21,99,-12
165,-2,-257,-30,-22,101,-11
170,-3,-256,-34,-21,102,-9
175,-3,-260,-29,-19,105,-7
180,-5,-254,-28,-20,108,-5
185,-1,-258,-28,-19,108,-5
190,-3,-254,-30,-19,109,-3
195,-4,-253,-27,-19,109,-4
200,-6,-256,-30,-20,108,-4
205,-7,-255,-30,-19,106,-4
210,-2,-255,-32,-19,104,-4
215,-3,-253,-31,-18,102,-5
220,0,-256,-31,-19,100,-4
225,-5,-254,-31,-21,98,-4
230,-3,-253,-33,-22,98,-5
235,-7,-251,-32,-22,99,-5
240,-5,-253,-30,-23,100,-3
245,-6,-253,-34,-22,100,-3
250,-3,-256,-25,-23,100,-4
255,-7,-256,-33,-22,100,-4
260,-4,-257,-32,-22,101,-5
265,-5,-256,-29,-21,101,-8
270,-5,-255,-30,-23,101,-8
275,-6,-253,-33,-21,100,-6
280,-4,-257,-28,-21,98,-5
285,-2,-256,-31,-20,98,-5
290,-6,-255,-33,-18,96,-4
295,-7,-253,-30,-15,96,-4
300,0,-255,-30,-12,97,-3
305,-1,-255,-32,-11,94,-3
310,-4,-253,-30,-10,93,-5
315,-3,-253,-34,-9,91,-7
320,-4,-253,-31,-9,90,-6
325,-3,-253,-32,-12,89,-8
330,-2,-254,-31,-16,89,-9
335,-6,-253,-33,-18,90,-8
340,-2,-254,-33,-20,90,-8
345,-1,-254,-31,-22,90,-7
350,-5,-251,-33,-23,90,-9
355,-1,-253,-29,-24,89,-8
360,-4,-254,-27,-23,89,-8
365,-1,-255,-31,-25,88,-8
370,-2,-255,-31,-25,86,-8
375,-6,-252,-32,-27,84,-9
380,-6,-254,-31,-29,82,-11
385,-4,-255,-30,-30,81,-11
390,-4,-253,-34,-31,79,-12
395,-7,-253,-31,-32,78,-12
400,-9,-253,-36,-31,79,-11
405,-6,-255,-31,-29,78,-10
410,-5,-252,-29,-28,78,-10
415,-2,-258,-32,-27,77,-9
420,-2,-255,-31,-25,74,-12
425,-7,-254,-30,-25,72,-11
430,-8,-254,-33,-26,71,-11
435,-2,-257,-35,-25,69,-10
440,-4,-254,-31,-27,67,-11
445,-4,-253,-33,-26,67,-12
450,-5,-256,-29,-27,67,-13
455,-5,-254,-35,-28,66,-11
460,-2,-255,-28,-29,65,-13
465,-3,-254,-32,-30,64,-13
470,-4,-254,-31,-31,65,-13
475,-1,-256,-31,-32,65,-12
480,-6,-253,-32,-34,65,-12
485,-3,-254,-33,-34,65,-13
490,-3,-253,-31,-36,64,-12
495,-3,-253,-34,-35,64,-11
500,-5,-255,-32,-36,64,-11
505,-7,-254,-31,-36,62,-12
510,-2,-253,-31,-35,60,-12
515,-4,-256,-26,-33,60,-12
520,-2,-254,-29,-31,58,-11
525,-3,-254,-33,-30,57,-11
530,-2,-256,-29,-27,55,-10
535,-2,-255,-32,-24,54,-11
540,-5,-254,-31,-23,55,-11
545,-2,-255,-29,-21,56,-10
550,-6,-255,-27,-19,57,-8
555,-1,-253,-33,-19,59,-8
560,-3,-255,-28,-18,60,-8
565,-2,-257,-29,-19,60,-9
570,-2,-253,-29,-19,61,-9
575,0,-256,-30,-20,62,-9
580,-3,-252,-27,-20,62,-9
585,-4,-256,-33,-21,63,-9
590,-5,-252,-34,-18,62,-11
595,-3,-253,-33,-15,61,-11
600,-2,-254,-29,-11,60,-12
605,-5,-255,-29,-10,59,-10
610,0,-257,-31,-11,58,-9
615,-2,-256,-30,-13,60,-8
620,-2,-253,-31,-18,60,-6
625,-5,-254,-34,-23,62,-6
630,-2,-256,-32,-30,61,-7
635,0,-254,-31,-35,63,-8
640,0,-255,-29,-38,64,-11
645,-3,-255,-28,-41,63,-12
650,-4,-254,-26,-39,64,-12
655,-4,-254,-31,-37,65,-13
660,-2,-257,-28,-31,67,-12
665,-1,-259,-29,-26,70,-10
670,0,-256,-35,-21,71,-6
675,-5,-254,-41,-14,74,-6
680,-1,-258,-31,-10,76,-6
685,-2,-258,-32,-10,78,-6
690,-3,-258,-31,-13,77,-6
695,0,-258,-33,-20,78,-7
700,-1,-254,-27,-27,77,-5
705,-3,-255,-34,-33,77,-4
710,-1,-253,-34,-35,76,-1
715,-1,-254,-28,-33,77,-2
720,1,-255,-30,-31,75,-2
725,0,-253,-32,-28,76,-3
730,0,-252,-27,-24,78,-5
735,-4,-253,-32,-21,79,-8
740,-3,-253,-30,-18,79,-9
745,0,-256,-34,-14,79,-10
750,0,-255,-31,-11,77,-11
755,-5,-255,-35,-10,78,-12
760,-2,-257,-29,-10,80,-12
765,-4,-257,-30,-9,83,-12
770,-3,-256,-24,-8,85,-11
775,0,-256,-34,-7,89,-9
780,-3,-256,-25,-6,91,-6
785,-1,-261,-26,-6,90,-3
790,0,-256,-29,-7,90,-3
795,-3,-254,-28,-7,90,-2
800,-1,-256,-31,-4,89,-1
805,0,-256,-26,-1,84,-1
810,-1,-255,-30,1,83,0
815,0,-256,-30,4,81,0
820,-1,-255,-31,5,79,-1
825,-3,-252,-32,5,78,-1
830,-1,-255,-31,7,77,-2
835,-2,-256,-28,7,76,-3
840,-3,-254,-33,8,76,-3
845,-3,-256,-33,7,77,-4
850,-1,-253,-30,5,78,-5
855,-1,-253,-30,6,79,-4
860,-3,-255,-30,4,81,-4
865,0,-258,-28,3,83,-5
870,-3,-254,-29,2,85,-5
875,-3,-257,-30,1,86,-6
880,-2,-253,-31,-1,85,-4
885,-1,-255,-28,-4,85,-4
890,-3,-256,-28,-3,84,-3
895,-4,-257,-30,-1,82,-1
900,-5,-256,-28,1,82,0
905,-3,-256,-29,3,81,-1
910,-2,-256,-30,5,80,-2
915,-2,-255,-27,6,78,-1
920,-4,-256,-27,7,76,-2
925,0,-253,-33,6,76,-3
930,-2,-255,-30,5,76,-2
935,-1,-255,-30,4,76,-1
940,-3,-254,-31,4,76,-2
945,-3,-252,-32,2,75,-1
950,-3,-254,-30,1,77,-3
955,0,-254,-31,-1,76,-2
960,0,-254,-26,-1,75,-4
965,-2,-255,-27,-2,75,-3
970,-4,-254,-30,-2,76,-3
975,-3,-253,-29,-1,75,-5
980,-1,-255,-32,1,75,-4
985,-1,-257,-29,3,73,-5
990,-4,-253,-26,5,73,-5
995,-6,-255,-31,7,73,-6
1000,-4,-257,-26,8,74,-6
1005,0,-256,-28,8,73,-4
1010,0,-257,-30,8,72,-3
1015,-1,-257,-32,9,71,-4
1020,-4,-252,-28,9,72,-2
1025,-1,-256,-29,9,71,-1
1030,-1,-259,-27,9,71,-3
1035,-7,-253,-29,10,71,-3
1040,-1,-255,-32,11,70,-4
1045,-1,-255,-29,11,70,-5
1050,-3,-254,-34,11,68,-7
1055,-4,-254,-29,11,66,-6
1060,-1,-255,-28,9,66,-7
1065,-3,-253,-29,11,67,-7
1070,-4,-253,-30,11,68,-6
1075,-4,-253,-31,10,67,-6
1080,-1,-254,-33,10,69,-6
1085,-3,-254,-30,9,68,-6
1090,-2,-260,-30,8,67,-6
1095,0,-254,-29,8,67,-7
1100,-2,-255,-32,9,66,-6
1105,0,-256,-29,9,65,-8
1110,-3,-257,-31,9,63,-9
1115,0,-258,-28,10,63,-8
1120,-1,-254,-26,11,63,-8
1125,0,-256,-28,12,63,-8
1130,0,-256,-27,14,62,-7
1135,-2,-255,-24,16,62,-7
1140,0,-259,-29,16,61,-7
1145,0,-255,-25,16,60,-6
1150,-1,-256,-31,16,61,-7
1155,-2,-254,-32,18,61,-7
1160,-2,-257,-30,16,62,-4
1165,-1,-254,-29,19,63,-4
1170,-1,-255,-30,19,63,-2
1175,-1,-252,-30,19,62,-2
1180,0,-252,-29,18,63,-2
1185,-3,-255,-31,20,60,-4
1190,-2,-254,-27,21,58,-3
1195,-5,-252,-28,24,57,-5
1200,-2,-255,-29,26,57,-5
1205,-4,-257,-30,28,55,-4
1210,-3,-256,-28,28,54,-3
1215,-4,-260,-25,25,55,0
1220,0,-255,-32,24,55,0
1225,-2,-255,-27,20,57,1
1230,-1,-255,-31,15,58,1
1235,-4,-254,-27,11,59,2
1240,-1,-254,-29,12,59,1
1245,-4,-254,-25,10,60,-1
1250,-2,-255,-28,12,61,-2
1255,0,-256,-27,11,62,-1
1260,-5,-256,-29,14,64,-1
1265,-4,-256,-28,16,63,-1
1270,-2,-257,-29,20,63,-1
1275,-3,-254,-28,23,61,0
1280,0,-259,-29,25,61,4
1285,-4,-258,-28,26,61,4
1290,-2,-257,-29,24,60,4
1295,-4,-256,-30,21,60,5
1300,-1,-258,-27,18,59,5
1305,-2,-257,-26,17,57,4
1310,-3,-258,-29,17,56,5
1315,-2,-251,-28,18,57,7
1320,-1,-255,-25,18,56,7
1325,0,-251,-29,18,56,7
1330,4,-250,-38,19,56,5
1335,-2,-255,-27,20,53,6
1340,-2,-251,-32,20,50,5
1345,0,-255,-27,21,47,2
1350,-3,-254,-29,22,41,1
1355,-5,-251,-29,20,36,0
1360,-2,-256,-26,18,33,0
1365,-2,-255,-27,16,32,0
1370,-3,-256,-21,15,31,2
1375,-1,-256,-29,13,30,3
1380,-4,-259,-25,11,33,5
1385,-5,-257,-22,10,34,7
1390,-6,-255,-28,9,36,9
1395,-2,-255,-27,10,40,10
1400,-1,-258,-27,11,42,11
1405,-3,-258,-29,12,43,13
1410,-2,-259,-28,14,42,12
1415,-3,-256,-22,16,42,13
1420,0,-258,-28,19,42,13
1425,-6,-255,-24,18,41,14
1430,-1,-255,-26,18,41,14
1435,-1,-255,-25,18,42,16
1440,-2,-258,-23,18,42,16
1445,-1,-253,-21,16,43,14
1450,1,-264,-23,14,43,13
1455,2,-257,-12,15,43,12
1460,2,-261,-24,15,44,11
1465,-4,-261,-27,15,44,10
1470,-2,-258,-28,14,45,9
1475,-2,-252,-26,15,43,10
1480,-8,-253,-24,15,42,9
1485,2,-259,-28,14,41,10
1490,0,-266,-16,13,42,11
1495,-2,-257,-29,14,41,11
1500,0,-257,-29,11,42,12
1505,0,-255,-26,11,43,12
1510,0,-253,-28,11,45,11
1515,-1,-252,-27,8,45,11
1520,1,-260,-25,6,47,10
1525,0,-260,-18,4,49,9
1530,0,-260,-32,3,49,9
1535,-2,-254,-15,2,50,9
1540,-4,-255,-26,2,49,9
1545,-2,-245,-35,2,49,7
1550,8,-255,-33,1,47,6
1555,0,-256,-28,-1,46,3
1560,-2,-255,-19,-3,44,4
1565,-3,-253,-23,-6,43,3
1570,0,-252,-31,-7,41,4
1575,-4,-253,-29,-8,40,3
1580,-6,-255,-26,-10,42,3
1585,-5,-253,-31,-11,45,2
1590,-3,-254,-37,-13,47,3
1595,-6,-255,-32,-13,52,4
1600,-5,-253,-27,-12,52,4
1605,-3,-255,-22,-11,53,4
1610,-1,-254,-29,-11,51,3
1615,1,-259,-25,-12,49,3
1620,-3,-251,-32,-13,48,3
1625,5,-267,-36,-14,48,3
1630,-8,-253,-25,-13,50,2
1635,-3,-262,-26,-14,50,3
1640,-2,-252,-34,-13,51,2
1645,-1,-256,-27,-13,51,1
1650,0,-256,-28,-15,52,1
1655,-2,-256,-27,-14,51,0
1660,-2,-257,-26,-15,52,1
1665,-2,-250,-27,-16,52,-1
1670,-5,-258,-24,-17,52,-2
1675,-10,-250,-44,-19,53,-1
1680,-1,-254,-24,-20,56,-2
1685,-3,-250,-23,-21,56,-2
1690,-3,-260,-20,-21,55,-2
1695,-8,-253,-20,-20,56,-2
1700,-7,-254,-25,-21,55,-3
1705,-5,-251,-35,-20,55,-3
1710,3,-272,-29,-18,54,-3
1715,-2,-253,-27,-20,55,-3
1720,-2,-257,-35,-21,53,-3
1725,0,-256,-27,-24,52,-4
1730,0,-253,-24,-24,52,-3
1735,-3,-255,-21,-26,51,-3
1740,-1,-258,-28,-27,48,-5
1745,-5,-256,-26,-26,51,-5
1750,-1,-263,-21,-24,50,-5
1755,-4,-258,-28,-24,52,-4
1760,-4,-250,-25,-24,53,-4
1765,-8,-258,-30,-24,55,-3
1770,3,-261,-23,-23,54,-4
1775,-2,-251,-24,-24,55,-4
1780,-5,-260,-46,-21,56,-4
1785,-1,-257,-31,-21,57,-4
1790,-5,-251,-25,-23,58,-3
1795,-1,-252,-23,-24,59,-3
1800,-1,-250,-29,-24,60,-3
1805,0,-254,-28,-24,61,-6
1810,-3,-254,-24,-21,61,-7
1815,0,-256,-24,-17,61,-7
1820,2,-257,-36,-14,61,-8
1825,2,-261,-22,-11,61,-8
1830,-6,-252,-19,-8,62,-5
1835,-1,-257,-18,-7,63,-5
1840,-11,-250,-36,-8,64,-4
1845,-3,-255,-23,-10,64,-3
1850,-3,-257,-21,-12,65,-2
1855,1,-257,-35,-12,65,-3
1860,5,-252,-30,-14,64,-6
1865,-2,-248,-16,-17,64,-6
1870,-1,-251,-21,-18,62,-8
1875,-2,-248,-32,-18,61,-8
1880,-2,-258,-27,-19,63,-8
1885,-5,-251,-22,-18,64,-8
1890,-4,-254,-26,-15,68,-8
1895,-2,-256,-24,-11,72,-8
1900,2,-263,-33,-8,73,-7
1905,-3,-254,-25,-6,74,-5
1910,-1,-265,-26,-7,75,-5
1915,0,-261,-23,-8,74,-5
1920,-4,-246,-19,-10,73,-3
1925,-4,-257,-37,-12,71,-3
1930,2,-256,-29,-12,70,-2
1935,-3,-253,-25,-9,69,-1
1940,-7,-254,-24,-8,68,-2
1945,-4,-253,-25,-5,69,-1
1950,-3,-249,-26,-3,69,-2
1955,0,-254,-30,1,69,-2
1960,-5,-263,-30,2,70,-4
1965,0,-254,-28,4,69,-6
1970,0,-255,-28,5,68,-6
1975,-5,-251,-24,1,67,-8
1980,-5,-254,-24,-3,66,-8
1985,2,-255,-41,-7,66,-8
1990,-3,-256,-29,-12,68,-6
1995,-5,-253,-25,-15,72,-7
2000,-3,-259,-25,-19,74,-3
2005,-3,-252,-27,-19,75,-4
2010,-2,-256,-26,-19,75,-2
2015,0,-254,-23,-19,74,-2
2020,-2,-254,-21,-18,73,-2
2025,0,-257,-25,-16,72,-1
2030,-3,-252,-21,-15,71,0
2035,-1,-257,-24,-15,70,1
2040,-4,-255,-25,-14,71,-1
2045,-3,-257,-25,-15,71,0
2050,-4,-259,-28,-16,70,0
2055,-1,-257,-27,-16,70,1
2060,-2,-254,-26,-17,73,0
2065,-2,-257,-30,-16,76,1
2070,-3,-254,-27,-15,77,0
2075,-1,-255,-27,-14,76,0
2080,0,-254,-27,-14,77,-2
2085,-6,-256,-26,-13,77,-2
2090,-3,-259,-26,-13,76,-3
2095,0,-259,-23,-12,77,-1
2100,-1,-256,-26,-13,77,1
2105,-5,-254,-27,-12,77,0
2110,-1,-257,-26,-11,75,1
2115,-2,-258,-24,-11,76,1
2120,-7,-257,-30,-11,76,1
2125,0,-258,-28,-11,74,0
2130,0,-257,-24,-11,74,-1
2135,-1,-257,-28,-13,72,-1
2140,-3,-258,-24,-15,71,0
2145,-3,-255,-24,-15,71,-1
2150,-1,-254,-23,-15,71,0
2155,-3,-253,-28,-15,70,-1
2160,0,-255,-27,-16,71,-2
2165,-1,-256,-22,-16,73,-2
2170,-2,-254,-24,-18,74,-4
2175,-2,-254,-31,-20,76,-3
2180,-2,-253,-26,-20,75,-2
2185,-4,-252,-29,-21,76,-4
2190,0,-256,-20,-24,76,-5
2195,-2,-255,-27,-24,75,-5
2200,-4,-259,-21,-24,76,-5
2205,-3,-254,-25,-25,77,-5
2210,-6,-255,-21,-25,74,-4
2215,-4,-253,-27,-25,75,-5
2220,-1,-257,-26,-24,73,-4
2225,-2,-258,-27,-23,71,-5
2230,-1,-256,-23,-22,71,-4
2235,-4,-255,-23,-22,71,-6
2240,-4,-256,-26,-22,70,-5
2245,-2,-254,-28,-21,70,-5
2250,-1,-256,-26,-21,70,-7
2255,-4,-254,-25,-23,70,-7
2260,-1,-252,-24,-24,71,-7
2265,-1,-256,-29,-25,72,-5
2270,-2,-254,-25,-26,73,-6
2275,-1,-254,-27,-27,75,-6
2280,0,-256,-28,-28,75,-6
2285,0,-256,-25,-28,76,-5
2290,-5,-256,-29,-25,77,-5
2295,-1,-257,-25,-25,78,-4
2300,-1,-257,-28,-25,77,-3
2305,-2,-257,-26,-22,77,-3
2310,-8,-257,-29,-22,79,-3
2315,0,-257,-26,-21,79,-3
2320,-6,-258,-28,-21,80,-2
2325,-3,-254,-30,-21,80,-2
2330,-3,-256,-25,-20,80,-1
2335,-5,-254,-29,-20,79,0
2340,-1,-256,-26,-18,79,0
2345,-1,-257,-29,-17,80,1
2350,-2,-257,-29,-16,82,1
2355,-3,-258,-28,-13,81,-1
2360,-5,-256,-31,-10,80,-1
2365,-1,-259,-23,-6,81,-1
2370,-2,-258,-26,-5,82,0
2375,-1,-256,-30,-3,82,-2
2380,-2,-254,-27,-1,82,-2
2385,0,-257,-24,0,82,-2
2390,-4,-256,-28,1,82,-3
2395,-1,-254,-25,2,82,-2
2400,0,-254,-30,1,83,-2
2405,-1,-255,-28,-1,81,-3
2410,-2,-253,-26,-2,81,-4
2415,-4,-255,-27,-5,82,-2
2420,-4,-254,-22,-8,82,-4
2425,-2,-251,-29,-11,82,-5
2430,-3,-254,-29,-14,81,-7
2435,-4,-251,-26,-16,82,-8
2440,-5,-255,-25,-16,80,-9
2445,-3,-254,-27,-15,79,-10
2450,-3,-255,-27,-14,78,-10
2455,-2,-259,-30,-15,77,-9
2460,-4,-256,-29,-16,75,-8
2465,-5,-255,-31,-18,76,-5
2470,-3,-256,-27,-21,77,-5
2475,-3,-257,-27,-24,77,-6
2480,-2,-255,-24,-25,77,-5
2485,0,-256,-28,-24,76,-6
2490,-2,-253,-30,-25,77,-9
2495,-2,-257,-26,-24,75,-10
2500,-3,-254,-24,-22,75,-10
2505,-3,-251,-27,-20,75,-8
2510,-3,-254,-25,-17,77,-7
2515,-2,-256,-23,-13,78,-6
2520,0,-254,-28,-8,80,-5
2525,-4,-246,-32,-4,80,-3
2530,-4,-259,-26,0,81,-2
2535,-1,-257,-26,2,80,-2
2540,-5,-255,-28,0,80,-3
2545,-7,-253,-29,-5,79,-2
2550,-1,-256,-26,-11,77,0
2555,-2,-254,-27,-18,76,0
2560,-3,-256,-29,-24,74,1
2565,-1,-255,-25,-27,71,0
2570,-4,-254,-28,-26,69,0
2575,-4,-252,-26,-24,67,-2
2580,-5,-253,-22,-20,67,-2
2585,-2,-254,-26,-16,67,-4
2590,-1,-255,-27,-11,65,-6
2595,-3,-255,-24,-7,65,-7
2600,-4,-255,-24,-7,64,-7
2605,-3,-255,-29,-8,62,-5
2610,-8,-256,-28,-10,63,-5
2615,-7,-254,-22,-11,64,-5
2620,-6,-257,-25,-10,67,-1
2625,-1,-255,-25,-11,70,1
2630,0,-256,-25,-10,70,2
2635,0,-254,-21,-8,72,3
2640,-5,-254,-25,-5,73,3
2645,-3,-256,-27,-2,71,4
2650,-5,-256,-24,-2,69,4
2655,0,-255,-22,-3,67,4
2660,-4,-254,-31,-2,66,4
2665,0,-258,-28,-3,65,4
2670,-3,-257,-30,-5,63,3
2675,-3,-254,-27,-7,61,3
2680,-2,-254,-27,-7,61,0
2685,-7,-251,-28,-9,61,0
2690,-2,-256,-30,-12,61,0
2695,-5,-254,-33,-13,63,0
2700,-4,-254,-32,-13,66,-1
2705,-8,-252,-28,-11,69,-2
2710,-3,-257,-28,-9,69,1
2715,-4,-255,-26,-8,71,0
2720,-3,-255,-26,-6,72,1
2725,-3,-255,-29,-6,73,1
2730,0,-259,-31,-5,72,2
2735,-6,-254,-28,-4,71,2
2740,0,-256,-30,-3,70,2
2745,-2,-256,-24,-3,68,1
2750,-2,-253,-25,-2,66,1
2755,0,-256,-26,-3,65,2
2760,-1,-256,-25,-5,64,0
2765,0,-256,-26,-5,62,0
2770,-2,-256,-30,-8,60,-1
2775,-3,-256,-33,-10,61,-2
2780,-1,-255,-26,-11,61,-1
2785,-1,-255,-27,-11,61,-2
2790,-2,-254,-28,-14,61,-4
2795,-3,-255,-25,-15,63,-3
2800,-2,-252,-25,-16,64,-3
2805,-6,-254,-29,-16,63,-4
2810,-5,-256,-29,-16,62,-4
2815,-5,-255,-25,-17,62,-5
2820,-7,-255,-24,-16,62,-6
2825,-1,-259,-26,-16,61,-7
2830,-6,-257,-27,-16,61,-6
2835,-6,-256,-27,-14,59,-5
2840,-4,-257,-22,-13,59,-5
2845,-5,-255,-25,-12,60,-3
2850,-4,-256,-25,-10,61,-2
2855,-5,-259,-29,-10,61,-1
2860,-1,-256,-30,-9,63,-2
2865,-1,-257,-27,-8,64,-2
2870,-5,-253,-24,-6,64,-2
2875,-2,-254,-20,-5,63,-2
2880,-4,-254,-24,-4,63,-2
2885,-5,-253,-24,-5,62,-3
2890,-2,-255,-23,-6,63,-3
2895,-2,-256,-28,-8,62,-4
2900,-3,-254,-30,-9,63,-2
2905,-3,-253,-27,-10,64,-2
2910,-3,-254,-26,-11,64,-1
2915,-4,-255,-28,-12,66,-1
2920,-1,-254,-28,-11,66,-2
2925,-2,-257,-26,-12,66,-2
2930,-3,-257,-27,-11,66,-1
2935,-5,-257,-31,-12,66,-2
2940,-3,-257,-25,-13,66,-1
2945,-3,-256,-24,-14,65,0
2950,-5,-254,-29,-16,65,-1
2955,-1,-258,-28,-15,66,0
2960,-1,-250,-28,-16,67,0
2965,-1,-254,-26,-18,68,0
2970,-1,-259,-29,-18,68,0
2975,-3,-254,-26,-19,66,0
2980,-6,-254,-28,-20,67,-3
2985,-5,-255,-26,-19,67,-2
2990,-1,-257,-27,-18,67,-1
2995,-3,-254,-27,-17,68,-3
3000,-3,-254,-25,-17,68,-3
3005,-1,-253,-30,-17,67,-2
3010,-4,-252,-28,-17,67,-3
3015,-4,-253,-26,-17,68,-2
3020,-2,-255,-32,-17,68,-1
3025,-2,-254,-31,-20,69,-1
3030,-1,-253,-25,-20,71,-1
3035,-2,-255,-28,-21,70,0
3040,-5,-251,-24,-23,70,0
3045,-4,-253,-29,-23,70,-1
3050,0,-257,-25,-24,73,0
3055,0,-257,-30,-24,73,-2
3060,-4,-255,-26,-19,74,-3
3065,-2,-254,-27,-16,73,-4
3070,-3,-254,-31,-13,72,-4
3075,-1,-255,-28,-10,70,-4
3080,-2,-254,-25,-9,69,-3
3085,-1,-255,-30,-9,70,0
3090,-1,-254,-28,-12,70,0
3095,-2,-253,-26,-16,70,0
3100,-2,-254,-29,-21,70,-1
3105,-1,-253,-28,-23,72,-2
3110,-6,-256,-21,-24,72,-3
3115,-2,-253,-32,-23,72,-3
3120,-1,-256,-24,-21,72,-4
3125,0,-255,-28,-19,73,-5
3130,-1,-256,-28,-16,74,-5
3135,0,-256,-30,-13,75,-4
3140,-5,-255,-28,-7,75,-4
3145,-1,-255,-26,-3,75,-5
3150,-5,-254,-29,0,75,-4
3155,-7,-257,-28,1,75,-3
3160,-3,-257,-27,-1,76,-3
3165,-6,-254,-27,-8,75,-4
3170,-4,-256,-29,-16,75,-4
3175,-3,-254,-29,-24,73,-3
3180,2,-253,-37,-31,72,-4
3185,-3,-252,-26,-34,70,-3
3190,-6,-252,-29,-34,67,-4
3195,-4,-254,-24,-30,67,-4
3200,-1,-254,-23,-24,67,-7
3205,-4,-253,-27,-19,66,-9
3210,-4,-255,-28,-14,66,-11
3215,-7,-251,-25,-7,66,-12
3220,-3,-253,-26,-4,65,-12
3225,0,-256,-27,-2,65,-10
3230,-5,-253,-28,-1,66,-9
3235,-4,-256,-28,-1,68,-9
3240,-3,-257,-25,-2,71,-7
3245,0,-256,-25,-2,73,-5
3250,0,-254,-26,-1,75,-3
3255,-4,-256,-28,0,75,-1
3260,-1,-255,-24,1,76,0
3265,0,-256,-25,0,75,0
3270,-2,-253,-21,0,72,1
3275,0,-255,-29,1,71,1
3280,-4,-254,-26,2,67,-1
3285,-2,-257,-29,2,66,-2
3290,-2,-262,-28,4,66,-1
3295,-2,-254,-28,5,65,-2
3300,-2,-255,-29,6,66,-3
3305,-6,-257,-31,6,66,-1
3310,-5,-254,-28,5,68,-2
3315,-4,-251,-27,4,70,0
3320,-4,-256,-27,2,72,-3
3325,-2,-257,-25,0,72,-4
3330,-5,-256,-26,2,73,-6
3335,-4,-256,-23,-1,74,-5
3340,-3,-254,-25,0,73,-5
3345,0,-260,-28,-1,75,-5
3350,-2,-256,-27,1,75,-4
3355,-2,-256,-25,1,75,-3
3360,-2,-255,-23,1,74,-2
3365,-3,-259,-26,0,73,-2
3370,-2,-259,-26,1,72,-1
3375,-3,-255,-23,1,71,-1
3380,-2,-254,-23,1,69,1
3385,0,-255,-24,2,68,-2
3390,0,-256,-27,1,67,-3
3395,-3,-255,-29,-1,68,-2
3400,0,-254,-26,-1,69,-3
3405,-4,-253,-27,-3,72,-3
3410,-4,-253,-24,-4,72,-2
3415,-4,-252,-27,-5,74,-2
3420,-4,-254,-30,-6,75,-2
3425,-2,-253,-26,-9,75,-3
3430,0,-255,-23,-10,74,-3
3435,-2,-254,-30,-11,73,-2
3440,-3,-252,-25,-11,74,-3
3445,-3,-255,-25,-11,73,-2
3450,-4,-257,-26,-11,73,-2
3455,-3,-254,-27,-13,71,-2
3460,-4,-253,-21,-13,71,-2
3465,-1,-259,-24,-13,70,-1
3470,-5,-252,-26,-11,70,1
3475,-4,-257,-23,-9,69,-1
3480,-1,-257,-23,-8,69,-1
3485,-5,-254,-24,-5,66,-1
3490,-2,-259,-24,-3,68,-2
3495,0,-259,-24,-1,67,-3
3500,-1,-258,-23,0,66,-4
3505,-3,-256,-23,1,66,-5
3510,-1,-256,-26,1,65,-4
3515,-2,-256,-24,1,65,-3
3520,-1,-255,-26,0,66,-2
3525,-1,-256,-27,0,65,-1
3530,-1,-255,-24,-1,66,-3
3535,0,-257,-30,1,68,-4
3540,-3,-254,-24,1,67,-4
3545,-2,-258,-23,4,67,-6
3550,-2,-255,-25,4,66,-6
3555,-1,-255,-27,4,68,-6
3560,-3,-255,-29,5,69,-7
3565,-3,-256,-25,4,70,-6
3570,-3,-257,-27,2,69,-6
3575,-3,-255,-21,-1,68,-7
3580,-1,-253,-24,-4,68,-7
3585,-3,-257,-25,-4,67,-6
3590,-4,-256,-24,-7,67,-5
3595,-3,-257,-28,-9,68,-7
3600,-3,-253,-24,-8,69,-5
3605,-2,-254,-27,-10,69,-5
3610,-2,-252,-25,-10,68,-5
3615,-3,-256,-22,-11,68,-5
3620,0,-258,-23,-9,68,-5
3625,-1,-253,-27,-9,69,-6
3630,0,-257,-23,-7,71,-5
3635,-1,-257,-28,-5,70,-6
3640,-2,-257,-26,-3,72,-6
3645,0,-257,-28,-4,73,-5
3650,-4,-255,-27,-5,73,-5
3655,-1,-254,-24,-4,74,-5
3660,-1,-255,-25,-3,75,-3
3665,-1,-257,-24,-2,76,-3
3670,-1,-254,-25,-4,77,-3
3675,-2,-255,-27,-5,77,-3
3680,-1,-255,-22,-3,78,-3
3685,-3,-256,-22,-2,77,-5
3690,-3,-253,-23,0,78,-5
3695,-2,-257,-22,3,79,-6
3700,-7,-255,-28,4,79,-6
3705,-1,-255,-27,4,78,-4
3710,-2,-254,-24,1,79,-2
3715,-2,-255,-26,-3,80,-1
3720,0,-253,-26,-8,82,1
3725,-2,-245,-28,-13,82,1
3730,-2,-253,-28,-17,83,0
3735,-4,-255,-26,-19,85,0
3740,-2,-255,-21,-21,85,-2
3745,0,-252,-29,-21,85,-3
3750,-3,-252,-27,-21,86,-5
3755,-5,-252,-25,-20,87,-6
3760,-3,-254,-26,-18,88,-5
3765,-2,-254,-29,-14,90,-4
3770,-1,-258,-27,-9,92,-4
3775,-6,-258,-25,-6,91,-2
3780,-5,-260,-26,-4,91,-3
3785,-2,-257,-23,-4,92,-3
3790,0,-254,-28,-6,92,-3
3795,-3,-256,-28,-9,89,-2
3800,-4,-255,-26,-15,87,-2
3805,-5,-252,-26,-20,87,0
3810,0,-253,-30,-24,86,1
3815,0,-255,-27,-25,84,1
3820,-2,-256,-26,-26,84,1
3825,-1,-255,-27,-27,87,0
3830,0,-251,-27,-25,88,-1
3835,2,-254,-28,-26,89,-3
3840,-4,-255,-25,-23,91,-6
3845,-4,-256,-22,-21,90,-8
3850,-6,-255,-25,-19,88,-11
3855,0,-258,-23,-19,87,-11
3860,-2,-260,-25,-19,88,-13
3865,-3,-257,-26,-19,87,-12
3870,-6,-258,-23,-18,87,-10
3875,-5,-256,-24,-17,86,-8
3880,-7,-255,-24,-16,87,-7
3885,-4,-256,-27,-13,90,-4
3890,-4,-258,-20,-10,88,-3
3895,-2,-255,-21,-7,88,-2
3900,-2,-254,-21,-3,88,-3
3905,0,-258,-22,-1,86,-2
3910,-2,-255,-24,2,83,-1
3915,-5,-252,-26,4,81,-2
3920,-4,-254,-23,7,78,-2
3925,-3,-256,-24,10,74,-3
3930,-1,-254,-23,10,72,-3
3935,-1,-254,-21,10,70,-7
3940,-3,-252,-17,10,68,-6
3945,-1,-252,-24,9,65,-7
3950,-5,-250,-22,8,64,-7
3955,-1,-254,-24,7,63,-7
3960,-6,-252,-21,4,61,-7
3965,-3,-252,-25,3,62,-7
3970,0,-255,-20,0,60,-8
3975,-3,-255,-19,-2,62,-7
3980,-2,-256,-22,-4,62,-5
3985,-4,-255,-21,-4,62,-3
3990,0,-255,-22,-4,63,-4
3995,0,-257,-22,-2,64,-3
4000,1,-257,-25,-2,62,-3
4005,0,-254,-25,-1,61,-2
4010,-2,-256,-23,-2,60,-3
4015,-2,-256,-25,-2,59,-2
4020,0,-255,-21,-2,57,-3
4025,-2,-254,-24,-1,58,-4
4030,-2,-255,-26,-1,60,-4
4035,-1,-253,-24,-1,60,-3
4040,0,-255,-28,-1,63,-2
4045,-2,-251,-22,-3,65,-2
4050,0,-254,-24,-4,68,-4
4055,1,-255,-26,-6,71,-4
4060,0,-255,-25,-7,73,-2
4065,-3,-255,-24,-9,75,-3
4070,-2,-255,-28,-12,75,-3
4075,-2,-254,-27,-14,77,-4
4080,-3,-255,-25,-16,77,-3
4085,-2,-254,-27,-16,78,-3
4090,-3,-252,-24,-16,79,-3
4095,-2,-257,-28,-16,79,-4
4100,-3,-256,-25,-15,79,-4
4105,0,-256,-23,-13,79,-3
4110,-6,-253,-26,-10,81,-3
4115,-3,-258,-23,-10,82,-2
4120,-2,-255,-28,-8,82,-1
4125,-3,-254,-24,-6,84,1
4130,-1,-257,-24,-4,84,2
4135,-1,-257,-23,-3,84,1
4140,-5,-256,-24,-3,85,1
4145,-6,-255,-25,-4,85,2
4150,-2,-253,-24,-3,85,3
4155,-6,-256,-23,-3,84,4
4160,-6,-259,-29,-2,85,4
4165,-4,-256,-22,-2,85,2
4170,-1,-256,-28,0,84,3
4175,-1,-256,-24,2,83,2
4180,-3,-258,-22,5,84,3
4185,-3,-254,-27,7,83,3
4190,-1,-257,-23,10,84,3
4195,0,-255,-25,10,85,2
4200,-4,-251,-26,12,86,2
4205,-2,-257,-22,10,87,3
4210,-3,-256,-26,10,86,3
4215,0,-257,-22,9,85,2
4220,-4,-256,-21,10,87,3
4225,-2,-257,-23,12,86,3
4230,0,-258,-28,14,83,1
4235,-4,-255,-20,16,82,2
4240,-1,-257,-22,18,81,3
4245,-2,-255,-22,21,80,2
4250,-2,-255,-25,22,77,2
4255,-3,-255,-23,24,75,3
4260,-2,-256,-22,24,75,2
4265,-2,-259,-25,24,77,2
4270,-4,-254,-20,24,75,3
4275,-3,-256,-25,24,74,3
4280,-6,-256,-24,23,76,3
4285,-7,-255,-20,22,78,2
4290,-1,-257,-20,21,77,2
4295,-4,-255,-23,18,77,2
4300,-6,-256,-21,17,77,3
4305,-2,-257,-20,17,76,1
4310,-5,-255,-21,16,77,1
4315,-3,-257,-22,16,78,3
4320,-1,-254,-21,13,78,2
4325,-4,-257,-24,12,78,-1
4330,-4,-258,-21,10,76,-1
4335,-4,-253,-25,11,75,-3
4340,-1,-254,-20,13,72,-2
4345,-3,-256,-24,16,72,-3
4350,-2,-254,-23,19,72,-3
4355,-8,-256,-22,22,71,-2
4360,-5,-257,-20,24,70,-1
4365,-7,-258,-23,24,71,2
4370,-3,-257,-23,23,73,3
4375,-5,-255,-26,22,74,4
4380,-4,-254,-23,18,74,4
4385,-1,-254,-21,13,73,2
4390,-2,-254,-22,10,73,0
4395,-5,-258,-21,4,72,-3
4400,-3,-252,-23,1,71,-3
4405,-3,-255,-24,-3,70,-3
4410,-6,-253,-21,-3,71,-4
4415,-2,-255,-25,-1,73,-3
4420,-2,-255,-20,1,73,-2
4425,-2,-255,-20,6,74,0
4430,-6,-257,-21,10,74,0
4435,-4,-259,-20,10,74,0
4440,0,-255,-20,10,74,1
4445,-2,-255,-24,9,74,1
4450,-2,-256,-20,6,73,4
4455,-3,-254,-22,3,72,3
4460,-2,-255,-23,3,71,5
4465,-2,-255,-21,3,71,5
4470,-3,-254,-22,5,71,3
4475,-2,-251,-22,5,71,2
4480,-5,-252,-20,6,73,0
4485,-3,-263,-26,5,73,-1
4490,-1,-252,-23,4,75,-2
4495,-1,-254,-23,3,74,-3
4500,-6,-255,-23,0,76,-4
4505,-4,-256,-23,-3,77,-6
4510,-5,-257,-24,-3,78,-5
4515,-5,-256,-21,-5,81,-6
4520,-4,-257,-23,-9,84,-4
4525,-4,-257,-24,-11,87,-4
4530,-5,-258,-21,-13,90,-2
4535,-1,-257,-24,-15,92,-2
4540,-3,-256,-21,-16,93,-1
4545,-3,-256,-21,-16,93,-2
4550,-2,-256,-24,-15,92,-3
4555,-4,-256,-22,-16,89,-3
4560,-1,-258,-26,-16,89,-3
4565,-5,-257,-26,-15,88,-1
4570,-4,-254,-27,-15,87,-2
4575,-3,-255,-25,-15,87,-1
4580,-5,-257,-22,-16,87,-1
4585,-4,-254,-22,-17,88,0
4590,-5,-252,-26,-20,90,0
4595,-1,-256,-25,-23,91,0
4600,-1,-256,-22,-26,91,0
4605,-5,-256,-23,-26,91,0
4610,-3,-255,-23,-26,91,0
4615,-4,-255,-21,-29,90,1
4620,-4,-257,-20,-30,89,2
4625,-5,-256,-22,-32,88,0
4630,-4,-257,-22,-31,86,1
4635,-5,-256,-26,-31,86,4
4640,-4,-257,-22,-31,86,5
4645,-3,-256,-22,-29,85,5
4650,-5,-255,-20,-28,85,6
4655,-3,-257,-22,-28,83,5
4660,-3,-257,-23,-28,81,3
4665,-3,-256,-20,-29,80,4
4670,-2,-254,-22,-30,81,3
4675,-3,-254,-22,-30,81,4
4680,-3,-256,-23,-31,82,2
4685,-3,-254,-24,-32,83,4
4690,1,-256,-21,-34,85,3
4695,0,-253,-21,-36,87,3
4700,-5,-253,-23,-37,88,3
4705,-3,-254,-23,-40,88,4
4710,-5,-253,-24,-42,89,3
4715,-5,-256,-21,-42,89,2
4720,-6,-255,-30,-45,89,2
4725,-3,-254,-20,-45,89,1
4730,-1,-255,-20,-46,90,1
4735,-6,-253,-22,-46,89,-1
4740,-5,-254,-24,-46,88,-1
4745,-1,-255,-23,-46,87,-1
4750,-5,-254,-23,-46,85,-1
4755,-4,-255,-20,-46,84,-2
4760,-7,-253,-24,-46,84,-3
4765,-3,-256,-27,-45,85,-2
4770,-7,-256,-22,-46,83,-3
4775,-5,-254,-22,-46,83,-4
4780,-1,-258,-24,-49,83,-4
4785,-6,-253,-23,-53,82,-4
4790,-3,-252,-25,-58,83,-4
4795,-4,-255,-24,-61,84,-5
4800,-4,-250,-28,-64,85,-4
4805,-4,-252,-25,-66,86,-6
4810,-4,-255,-21,-69,88,-5
4815,-6,-252,-23,-70,90,-4
4820,-2,-258,-23,-71,91,-3
4825,-3,-254,-24,-73,91,-4
4830,-5,-254,-28,-75,90,-3
4835,-4,-255,-24,-78,90,-2
4840,-6,-252,-20,-79,89,-1
4845,-4,-254,-23,-82,90,-1
4850,-2,-253,-24,-85,87,-1
4855,-1,-256,-25,-89,86,-1
4860,-6,-255,-27,-92,84,-1
4865,-3,-253,-22,-93,84,0
4870,-3,-257,-22,-94,82,1
4875,-5,-253,-24,-96,81,0
4880,-1,-255,-28,-96,81,1
4885,-2,-252,-27,-96,81,2
4890,0,-258,-26,-94,82,2
4895,-1,-253,-26,-92,83,1
4900,0,-255,-25,-92,84,3
4905,-5,-255,-25,-92,83,3
4910,-2,-253,-24,-93,84,3
4915,-1,-259,-27,-94,85,2
4920,-3,-258,-29,-93,85,2
4925,-5,-257,-26,-95,85,0
4930,-4,-254,-22,-94,85,3
4935,-1,-251,-28,-94,85,3
4940,0,-254,-30,-95,85,4
4945,-5,-256,-31,-94,86,3
4950,-2,-254,-26,-94,88,3
4955,-5,-254,-24,-93,88,4
4960,-1,-257,-31,-93,90,5
4965,0,-255,-29,-94,91,5
4970,-2,-256,-27,-96,94,3
4975,-5,-251,-27,-98,93,4
4980,-4,-257,-24,-99,92,4
4985,-3,-257,-31,-98,92,3
4990,-5,-254,-28,-96,89,1
4995,-4,-257,-29,-92,89,2
5000,-6,-254,-28,-89,89,2
5005,0,-256,-29,-87,88,2
5010,-4,-255,-27,-86,89,3
5015,-6,-257,-28,-86,90,4
5020,-4,-254,-30,-88,92,5
5025,-3,-258,-30,-90,92,6
5030,-6,-250,-30,-93,92,7
5035,-6,-252,-31,-98,94,6
5040,-2,-256,-28,-100,93,5
5045,-3,-254,-27,-104,94,3
5050,0,-253,-27,-104,94,3
5055,-1,-256,-34,-103,95,1
5060,-2,-255,-28,-99,97,2
5065,0,-258,-29,-92,100,3
5070,-4,-258,-28,-85,100,4
5075,-1,-258,-29,-77,101,6
5080,-1,-259,-32,-70,102,7
5085,-5,-257,-38,-66,102,8
5090,0,-257,-37,-68,102,9
5095,-5,-255,-33,-75,101,10
5100,-4,-254,-35,-83,100,12
5105,-1,-256,-31,-92,97,12
5110,-6,-252,-36,-100,96,14
5115,-5,-254,-32,-105,94,13
5120,-2,-253,-34,-107,91,12
5125,-2,-251,-33,-104,92,11
5130,-3,-253,-33,-101,93,10
5135,-1,-254,-36,-97,93,9
5140,-10,-259,-34,-93,94,6
5145,-2,-253,-36,-92,96,5
5150,-4,-254,-36,-94,96,5
5155,-1,-256,-35,-96,98,4
5160,-4,-260,-37,-100,98,5
5165,-2,-258,-41,-101,99,6
5170,-2,-260,-41,-104,102,6
5175,-3,-259,-38,-107,104,7
5180,-2,-261,-42,-108,105,6
5185,-4,-260,-34,-108,107,8
5190,-5,-258,-38,-109,108,8
5195,-3,-255,-40,-108,107,5
5200,-2,-260,-42,-106,105,4
5205,-5,-260,-41,-103,104,3
5210,-2,-261,-43,-100,101,1
5215,-2,-260,-44,-98,98,-1
5220,-5,-258,-42,-94,97,-5
5225,-4,-260,-43,-93,96,-6
5230,-6,-260,-43,-91,95,-8
5235,-5,-258,-46,-90,96,-10
5240,-5,-255,-40,-87,96,-9
5245,-4,-257,-49,-88,95,-8
5250,-7,-258,-42,-86,95,-8
5255,-6,-256,-43,-82,97,-8
5260,-7,-256,-42,-79,98,-5
5265,-6,-253,-44,-75,98,-2
5270,-4,-255,-45,-71,101,1
5275,-3,-254,-40,-66,104,6
5280,-4,-255,-41,-64,106,11
5285,-3,-255,-43,-58,111,17
5290,-2,-253,-39,-55,115,21
5295,-2,-254,-39,-50,119,24
5300,-2,-255,-38,-48,122,27
5305,-4,-256,-36,-48,123,29
5310,-1,-254,-40,-49,123,30
5315,-2,-257,-41,-50,121,31
5320,-1,-255,-39,-53,118,33
5325,0,-255,-41,-53,116,34
5330,0,-252,-42,-54,115,35
5335,-5,-254,-37,-55,113,36
5340,-1,-252,-37,-57,114,35
5345,-3,-250,-41,-59,112,34
5350,2,-247,-47,-61,112,33
5355,-4,-249,-39,-64,112,31
5360,-2,-248,-43,-69,110,29
5365,-1,-248,-37,-76,110,27
5370,0,-248,-41,-84,110,25
5375,-2,-248,-40,-94,112,25
5380,-2,-248,-43,-104,113,21
5385,-3,-244,-41,-112,115,19
5390,-4,-247,-41,-119,117,16
5395,-4,-249,-45,-125,120,13
5400,-5,-247,-43,-129,124,9
5405,-5,-248,-47,-134,126,5
5410,-3,-248,-44,-139,126,1
5415,-1,-248,-44,-145,127,-1
5420,-4,-248,-45,-151,126,-4
5425,-3,-247,-49,-154,127,-7
5430,-2,-249,-46,-157,124,-9
5435,-5,-249,-54,-158,123,-10
5440,-2,-249,-50,-159,123,-10
5445,-7,-247,-47,-162,122,-10
5450,-7,-246,-53,-166,119,-11
5455,-4,-248,-52,-173,118,-10
5460,-2,-246,-52,-182,119,-10
5465,-5,-246,-48,-189,119,-10
5470,-4,-249,-53,-199,121,-9
5475,-2,-250,-54,-209,123,-10
5480,-3,-251,-53,-218,124,-9
5485,-3,-249,-56,-224,125,-10
5490,-2,-251,-54,-226,126,-13
5495,-2,-252,-50,-224,129,-16
5500,0,-249,-55,-218,133,-19
5505,0,-249,-54,-209,137,-18
5510,0,-250,-53,-199,139,-23
5515,3,-248,-52,-188,144,-26
5520,5,-247,-54,-178,145,-31
5525,4,-248,-52,-167,147,-35
5530,4,-244,-53,-155,147,-41
5535,9,-247,-50,-148,147,-45
5540,8,-245,-50,-140,149,-51
5545,6,-244,-53,-135,150,-54
5550,5,-246,-51,-135,152,-60
5555,6,-246,-55,-136,159,-64
5560,5,-245,-53,-139,164,-65
5565,1,-247,-50,-142,172,-66
5570,0,-245,-54,-143,182,-67
5575,7,-247,-50,-144,193,-68
5580,1,-244,-49,-147,205,-66
5585,0,-244,-51,-151,218,-61
5590,-5,-240,-52,-154,226,-56
5595,-5,-238,-53,-161,232,-52
5600,-1,-239,-54,-170,237,-46
5605,-4,-236,-54,-180,236,-40
5610,-5,-235,-52,-191,235,-36
5615,-8,-235,-51,-204,233,-35
5620,-11,-236,-58,-219,229,-31
5625,-11,-236,-54,-230,225,-28
5630,-11,-240,-54,-239,222,-21
5635,-13,-247,-55,-242,219,-18
5640,-15,-247,-52,-242,215,-16
5645,-12,-249,-56,-241,214,-10
5650,-17,-249,-51,-240,211,-7
5655,-12,-251,-58,-241,207,-3
5660,-8,-253,-53,-247,201,2
5665,-10,-252,-57,-259,195,4
5670,-4,-250,-57,-272,187,6
5675,0,-249,-58,-287,183,9
5680,-8,-247,-55,-299,178,11
5685,0,-242,-58,-308,172,11
5690,0,-243,-60,-315,168,15
5695,0,-237,-57,-319,166,21
5700,-1,-240,-56,-320,165,30
5705,-1,-236,-63,-318,164,40
5710,0,-242,-60,-317,165,49
5715,-3,-243,-62,-319,168,60
5720,-4,-246,-63,-326,172,68
5725,-8,-243,-62,-335,178,76
5730,-5,-247,-65,-353,184,83
5735,-4,-246,-61,-374,189,89
5740,-4,-248,-59,-398,190,94
5745,-2,-249,-63,-422,189,100
5750,0,-251,-63,-443,188,105
5755,0,-249,-63,-464,185,107
5760,1,-250,-64,-476,180,106
5765,1,-247,-63,-481,175,106
5770,4,-244,-63,-480,169,104
5775,1,-243,-62,-477,161,102
5780,0,-241,-63,-468,153,100
5785,-5,-236,-69,-460,146,100
5790,-10,-235,-59,-451,138,100
5795,-9,-238,-71,-445,133,99
5800,-13,-234,-76,-440,130,97
5805,-12,-240,-73,-441,125,95
5810,-11,-246,-78,-448,117,93
5815,-15,-245,-77,-454,108,89
5820,-16,-251,-75,-459,99,84
5825,-14,-254,-72,-464,92,79
5830,-13,-255,-74,-467,87,78
5835,-11,-260,-68,-468,85,74
5840,-10,-260,-70,-467,86,71
5845,-9,-260,-72,-464,91,68
5850,-7,-255,-74,-458,97,64
5855,-5,-253,-75,-452,101,60
5860,-3,-249,-83,-444,105,57
5865,-4,-248,-82,-438,109,53
5870,-3,-244,-83,-431,110,54
5875,-1,-247,-84,-421,111,54
5880,0,-244,-82,-417,107,55
5885,-1,-244,-83,-418,101,58
5890,1,-247,-80,-423,95,58
5895,0,-245,-79,-427,83,57
5900,-1,-246,-72,-431,72,52
5905,1,-250,-71,-431,63,49
5910,2,-251,-65,-424,56,44
5915,-2,-249,-66,-415,50,39
5920,-3,-248,-67,-402,49,34
5925,-5,-247,-71,-388,47,28
5930,-8,-243,-72,-372,48,23
5935,-10,-244,-76,-357,49,19
5940,-9,-241,-78,-341,50,11
5945,-14,-241,-80,-336,49,5
5950,-17,-237,-84,-338,46,-3
5955,-18,-229,-90,-348,44,-8
5960,-21,-235,-87,-366,37,-14
5965,-21,-235,-90,-395,34,-19
5970,-21,-241,-87,-426,31,-19
5975,-22,-240,-83,-459,30,-18
5980,-17,-245,-85,-486,29,-14
5985,-18,-247,-82,-508,29,-9
5990,-13,-247,-83,-522,30,-1
5995,-8,-250,-83,-527,34,8
6000,-5,-253,-80,-524,41,13
6005,-5,-254,-80,-513,45,16
6010,5,-247,-79,-494,46,19
6015,3,-251,-82,-470,44,19
6020,2,-249,-82,-443,40,17
6025,4,-248,-80,-419,34,10
6030,3,-248,-85,-398,27,3
6035,0,-246,-86,-386,22,-6
6040,0,-243,-91,-381,16,-14
6045,0,-242,-91,-384,10,-19
6050,0,-240,-88,-392,6,-21
6055,-1,-242,-91,-401,0,-20
6060,0,-245,-86,-405,-7,-16
6065,-1,-243,-85,-409,-12,-12
6070,-2,-239,-82,-407,-14,-5
6075,-7,-238,-80,-400,-13,6
6080,-5,-239,-78,-387,-10,19
6085,-4,-233,-77,-371,-7,31
6090,-5,-230,-76,-353,2,42
6095,-7,-227,-74,-336,6,53
6100,-8,-229,-79,-317,10,58
6105,-8,-228,-81,-300,10,64
6110,-9,-226,-84,-285,11,65
6115,-11,-229,-80,-277,12,65
6120,-11,-234,-91,-276,17,64
6125,-10,-238,-94,-284,25,62
6130,-12,-245,-95,-296,30,61
6135,-8,-250,-93,-310,37,61
6140,-9,-251,-95,-320,43,58
6145,-7,-252,-93,-323,45,56
6150,-6,-252,-93,-316,48,53
6155,-4,-249,-88,-297,47,49
6160,-2,-247,-86,-270,46,45
6165,-6,-245,-87,-236,46,41
6170,-8,-236,-87,-194,47,34
6175,-7,-234,-89,-155,50,27
6180,-11,-228,-90,-123,55,18
6185,-13,-225,-97,-106,58,7
6190,-17,-223,-99,-104,60,-3
6195,-20,-220,-101,-117,63,-13
6200,-22,-223,-106,-141,63,-21
6205,-22,-228,-101,-172,65,-26
6210,-22,-232,-100,-210,68,-29
6215,-18,-237,-104,-253,70,-30
6220,-17,-239,-103,-301,76,-26
6225,-19,-247,-109,-344,81,-23
6230,-10,-244,-102,-377,88,-17
6235,-6,-246,-105,-402,93,-12
6240,-5,-244,-104,-418,96,-9
6245,0,-243,-101,-424,99,-6
6250,2,-244,-104,-421,101,-5
6255,1,-234,-108,-410,102,-6
6260,6,-239,-104,-395,102,-8
6265,5,-236,-105,-380,101,-11
6270,4,-237,-107,-372,101,-14
6275,4,-236,-106,-368,99,-17
6280,1,-237,-110,-367,97,-17
6285,0,-238,-110,-365,95,-18
6290,-3,-239,-106,-364,95,-18
6295,-6,-242,-109,-360,95,-18
6300,-7,-244,-108,-358,93,-14
6305,-9,-241,-110,-353,90,-9
6310,-11,-244,-106,-344,88,-3
6315,-11,-242,-105,-331,86,4
6320,-16,-237,-106,-317,83,11
6325,-14,-241,-109,-303,83,19
6330,-16,-239,-107,-291,82,26
6335,-20,-236,-101,-278,81,32
6340,-16,-241,-115,-270,77,36
6345,-20,-241,-112,-266,73,40
6350,-17,-238,-112,-267,67,40
6355,-16,-239,-118,-267,62,43
6360,-17,-237,-114,-271,55,44
6365,-16,-236,-118,-276,51,48
6370,-14,-235,-115,-280,45,51
6375,-14,-233,-117,-281,41,57
6380,-17,-235,-114,-281,39,61
6385,-13,-232,-112,-276,38,64
6390,-9,-232,-108,-266,37,65
6395,-9,-228,-110,-253,33,64
6400,-10,-229,-107,-236,32,62
6405,-7,-223,-103,-222,31,62
6410,-6,-224,-106,-202,26,48
6415,-1,-221,-107,-181,23,35
6420,-1,-222,-111,-169,19,23
6425,-2,-221,-115,-168,17,11
6430,-4,-220,-115,-177,18,-1
6435,-2,-222,-119,-195,20,-12
6440,-5,-222,-119,-220,26,-21
6445,-6,-220,-114,-246,30,-29
6450,-4,-225,-123,-271,33,-33
6455,-7,-228,-124,-290,37,-36
6460,-5,-231,-124,-303,39,-38
6465,-5,-227,-123,-309,41,-36
6470,-5,-228,-121,-306,39,-32
6475,-9,-227,-123,-299,38,-28
6480,-6,-230,-118,-287,32,-29
6485,-5,-230,-122,-275,30,-27
6490,-3,-231,-120,-264,28,-26
6495,-17,-223,-115,-255,23,-39
6500,-11,-229,-128,-255,-7,-100
6505,0,-230,-126,-247,-3,-98
6510,-2,-229,-129,-242,18,-78
6515,-9,-228,-129,-248,32,-69
6520,-14,-228,-129,-266,37,-72
6525,-9,-227,-127,-285,40,-71
6530,-10,-228,-126,-300,47,-61
6535,-12,-228,-125,-306,51,-41
6540,-10,-230,-126,-307,50,-27
6545,-13,-232,-124,-300,45,-19
6550,-13,-232,-126,-288,41,-15
6555,-16,-232,-127,-273,37,-9
6560,-11,-231,-128,-257,33,-5
6565,-7,-231,-125,-243,31,-3
6570,-9,-229,-127,-230,28,-2
6575,-9,-230,-127,-222,28,-5
6580,-7,-226,-127,-217,28,-7
6585,-7,-225,-131,-218,31,-10
6590,-1,-224,-130,-222,35,-17
6595,-7,-224,-133,-228,40,-24
6600,-4,-227,-129,-234,46,-30
6605,-9,-228,-126,-243,57,-40
6610,-9,-227,-130,-249,66,-51
6615,-8,-230,-132,-256,78,-52
6620,-7,-231,-132,-265,86,-58
6625,-8,-232,-131,-274,88,-66
6630,-2,-234,-139,-282,85,-68
6635,-6,-234,-135,-282,76,-77
6640,-3,-232,-139,-278,66,-77
6645,-7,-235,-140,-273,59,-64
6650,-3,-237,-140,-268,52,-57
6655,-10,-233,-139,-263,47,-53
6660,-15,-249,-135,-253,43,-48
6665,-9,-232,-142,-240,43,-46
6670,-12,-236,-139,-224,45,-40
6675,-11,-241,-140,-206,49,-42
6680,-16,-241,-137,-188,53,-49
6685,-19,-241,-134,-165,57,-63
6690,-14,-241,-137,-151,58,-74
6695,-12,-239,-138,-147,63,-65
6700,-11,-239,-135,-153,68,-43
6705,-9,-240,-133,-164,67,-22
6710,-13,-238,-134,-177,61,-11
6715,-10,-240,-131,-193,53,-5
6720,-10,-236,-131,-209,45,-7
6725,-10,-236,-129,-223,41,-16
6730,-9,-231,-134,-231,41,-28
6735,-11,-225,-130,-230,49,-29
6740,-8,-224,-126,-220,60,-33
6745,-10,-219,-128,-206,69,-35
6750,-7,-219,-129,-198,77,-34
6755,-5,-223,-125,-193,78,-34
6760,-8,-227,-122,-194,78,-36
6765,-11,-230,-128,-194,76,-45
6770,-15,-231,-132,-190,77,-55
6775,-16,-230,-131,-184,81,-66
6780,-16,-230,-130,-183,86,-69
6785,-16,-225,-133,-191,96,-61
6790,-14,-228,-136,-212,104,-54
6795,-15,-227,-138,-235,109,-48
6800,-15,-226,-137,-257,110,-44
6805,-17,-225,-137,-275,110,-41
6810,-17,-220,-138,-289,107,-40
6815,-15,-220,-134,-296,103,-41
6820,-17,-220,-134,-299,103,-41
6825,-14,-218,-134,-303,104,-44
6830,-15,-218,-132,-309,105,-47
6835,-12,-215,-135,-319,109,-50
6840,-12,-216,-134,-331,111,-54
6845,-12,-215,-136,-347,115,-57
6850,-11,-216,-134,-360,117,-59
6855,-11,-217,-130,-370,118,-60
6860,-13,-216,-133,-378,119,-61
6865,-13,-216,-137,-377,120,-61
6870,-10,-217,-135,-368,123,-62
6875,-11,-219,-137,-353,126,-62
6880,-5,-217,-131,-335,127,-60
6885,-10,-215,-134,-319,130,-58
6890,-6,-215,-137,-311,132,-57
6895,-10,-211,-132,-306,133,-56
6900,-10,-209,-132,-308,134,-56
6905,-11,-209,-131,-312,137,-57
6910,-9,-204,-129,-322,140,-59
6915,-9,-204,-132,-332,141,-57
6920,-11,-202,-125,-345,140,-58
6925,-8,-198,-125,-358,140,-59
6930,-11,-193,-126,-368,139,-59
6935,-11,-198,-129,-375,135,-61
6940,-10,-198,-128,-379,133,-61
6945,-9,-197,-125,-385,132,-63
6950,-8,-195,-127,-390,133,-67
6955,-12,-195,-128,-397,134,-70
6960,-10,-200,-126,-405,138,-74
6965,-11,-201,-125,-417,140,-76
6970,-12,-200,-125,-428,141,-78
6975,-12,-200,-129,-438,144,-81
6980,-10,-201,-127,-444,144,-84
6985,-14,-199,-129,-450,144,-85
6990,-18,-199,-125,-458,145,-87
6995,-12,-199,-128,-469,143,-90
7000,-14,-202,-121,-480,138,-95
7005,-16,-205,-124,-488,136,-98
7010,-15,-209,-120,-492,126,-101
7015,-17,-211,-118,-492,117,-99
7020,-18,-215,-121,-490,107,-98
7025,-15,-217,-125,-486,98,-94
7030,-17,-217,-124,-476,89,-91
7035,-17,-211,-126,-463,81,-89
7040,-13,-212,-129,-450,74,-86
7045,-12,-205,-133,-437,65,-84
7050,-12,-202,-134,-421,53,-84
7055,-10,-202,-135,-407,40,-84
7060,-12,-197,-129,-385,28,-82
7065,-10,-193,-127,-363,11,-84
7070,-12,-193,-130,-339,-6,-83
7075,-17,-192,-131,-316,-20,-81
7080,-19,-192,-130,-294,-33,-77
7085,-17,-196,-132,-277,-43,-73
7090,-17,-199,-128,-266,-57,-65
7095,-17,-206,-128,-263,-69,-63
7100,-13,-202,-122,-259,-85,-59
7105,-18,-215,-123,-257,-104,-60
7110,-20,-213,-121,-256,-126,-60
7115,-23,-212,-121,-250,-147,-63
7120,-19,-211,-124,-243,-168,-65
7125,-16,-209,-120,-234,-182,-67
7130,-8,-202,-120,-226,-188,-70
7135,-1,-198,-116,-223,-189,-72
7140,5,-190,-117,-225,-187,-81
7145,13,-188,-112,-235,-178,-89
7150,20,-182,-107,-241,-165,-98
7155,24,-183,-101,-252,-153,-110
7160,25,-181,-102,-272,-139,-129
7165,24,-181,-99,-300,-124,-154
7170,23,-177,-98,-331,-109,-179
7175,17,-178,-92,-360,-91,-201
7180,14,-173,-100,-388,-76,-216
7185,6,-175,-100,-413,-64,-227
7190,3,-173,-98,-429,-59,-237
7195,-1,-174,-102,-435,-60,-243
7200,-4,-178,-104,-435,-71,-250
7205,-8,-175,-108,-432,-88,-260
7210,-9,-175,-104,-432,-107,-266
7215,-8,-180,-102,-435,-124,-271
7220,-10,-181,-99,-442,-140,-277
7225,-8,-181,-100,-455,-160,-288
7230,-9,-182,-100,-480,-180,-298
7235,-7,-185,-101,-522,-193,-310
7240,-1,-181,-91,-570,-194,-327
7245,3,-183,-88,-619,-183,-351
7250,11,-181,-81,-655,-166,-379
7255,18,-181,-84,-678,-148,-412
7260,27,-173,-78,-693,-137,-449
7265,33,-169,-81,-704,-145,-484
7270,34,-161,-91,-714,-174,-516
7275,38,-159,-101,-712,-210,-554
7280,35,-158,-120,-713,-266,-588
7285,33,-162,-135,-749,-363,-601
7290,27,-165,-147,-793,-491,-594
7295,20,-165,-154,-825,-628,-572
7300,3,-162,-155,-826,-751,-548
7305,-15,-155,-146,-798,-846,-525
7310,-33,-144,-130,-761,-905,-504
7315,-55,-142,-116,-730,-926,-486
7320,-67,-136,-100,-714,-937,-478
7325,-73,-143,-84,-718,-958,-485
7330,-73,-147,-77,-745,-992,-509
7335,-71,-151,-80,-801,-1033,-549
7340,-61,-154,-84,-885,-1067,-596
7345,-44,-149,-98,-981,-1090,-643
7350,-24,-141,-114,-1076,-1108,-683
7355,-4,-131,-129,-1157,-1116,-700
7360,12,-124,-141,-1220,-1114,-698
7365,27,-117,-153,-1267,-1100,-677
7370,35,-117,-155,-1302,-1072,-643
7375,39,-119,-150,-1324,-1032,-600
7380,39,-121,-147,-1332,-984,-548
7385,38,-130,-136,-1325,-932,-495
7390,38,-141,-130,-1309,-889,-447
7395,35,-148,-124,-1279,-863,-409
7400,34,-156,-123,-1247,-847,-379
7405,33,-166,-119,-1225,-843,-355
7410,29,-171,-120,-1220,-857,-337
7415,27,-177,-114,-1233,-881,-328
7420,22,-174,-111,-1259,-903,-321
7425,18,-170,-107,-1298,-914,-306
7430,18,-163,-106,-1343,-907,-286
7435,20,-162,-105,-1387,-876,-254
7440,16,-154,-101,-1426,-826,-215
7445,24,-153,-94,-1457,-775,-166
7450,21,-145,-85,-1486,-730,-111
7455,27,-145,-82,-1527,-717,-50
7460,33,-141,-82,-1569,-729,14
7465,34,-142,-78,-1616,-780,80
7470,28,-136,-71,-1661,-855,141
7475,29,-126,-63,-1706,-940,199
7480,21,-109,-59,-1793,-1009,248
7485,10,-86,-66,-1979,-1052,296
7490,-13,-49,-85,-2304,-1049,353
7495,-32,-25,-87,-2741,-1004,425
7500,-60,-7,-78,-3164,-948,485
7505,-84,-5,-77,-3487,-928,509
7510,-119,-4,-72,-3689,-1028,466
7515,-162,-13,-67,-3817,-1251,377
7520,-195,-26,-84,-3880,-1514,280
7525,-229,-44,-134,-3832,-1788,204
7530,-259,-64,-184,-3652,-2073,135
7535,-283,-78,-215,-3353,-2364,65
7540,-279,-96,-250,-2958,-2608,29
7545,-312,-112,-235,-2462,-2740,14
7550,-318,-109,-241,-1870,-3007,-12
7555,-291,-84,-256,-1323,-3405,-61
7560,-272,-70,-260,-860,-3725,7
7565,-255,-64,-273,-514,-4059,26
7570,-240,-33,-301,-231,-4406,57
7575,-215,-19,-312,-149,-4655,83
7580,-204,12,-321,-171,-4871,64
7585,-195,33,-326,-250,-4995,76
7590,-183,34,-337,-325,-5035,139
7595,-167,36,-355,-345,-5053,206
7600,-153,39,-375,-323,-5071,253
7605,-142,40,-380,-303,-5100,289
7610,-132,39,-377,-283,-5152,307
7615,-129,37,-381,-241,-5233,308
7620,-131,35,-372,-173,-5339,318
7625,-136,38,-362,-72,-5442,360
7630,-146,44,-351,73,-5520,437
7635,-162,42,-352,244,-5573,515
7640,-200,48,-352,371,-5613,577
7645,-246,43,-352,427,-5654,635
7650,-299,52,-375,404,-5675,692
7655,-354,45,-402,247,-5632,771
7660,-420,93,-437,-48,-5459,834
7665,-476,86,-418,-498,-5272,922
7670,-507,99,-415,-878,-5179,979
7675,-564,140,-445,-1085,-5080,1086
7680,-551,176,-480,-1252,-4898,1285
7685,-509,186,-465,-1519,-4603,1406
7690,-526,227,-414,-1852,-4277,1372
7695,-534,256,-389,-2157,-4047,1343
7700,-559,240,-351,-2474,-3841,1345
7705,-578,258,-309,-2715,-3616,1320
7710,-558,243,-254,-2868,-3432,1272
7715,-565,242,-228,-2808,-3275,1208
7720,-550,236,-224,-2544,-3092,1212
7725,-547,222,-219,-2251,-2858,1286
7730,-528,186,-210,-2046,-2595,1440
7735,-474,132,-202,-1939,-2274,1589
7740,-424,75,-178,-1923,-1855,1650
7745,-397,35,-140,-1959,-1400,1629
7750,-367,3,-102,-1976,-1007,1550
7755,-341,-17,-73,-1940,-679,1432
7760,-319,-28,-50,-1865,-413,1299
7765,-284,-37,-34,-1790,-194,1164
7770,-250,-52,-5,-1733,9,1008
7775,-233,-57,16,-1656,175,814
7780,-218,-76,41,-1553,257,611
7785,-204,-88,46,-1367,264,419
7790,-196,-94,48,-1105,251,238
7795,-194,-84,42,-788,233,77
7800,-191,-67,38,-489,225,-48
7805,-200,-38,42,-244,239,-133
7810,-203,-8,36,-57,285,-188
7815,-215,48,28,38,376,-223
7820,-230,87,20,3,495,-225
7825,-237,109,6,-119,670,-237
7830,-254,122,-15,-244,882,-317
7835,-289,152,-27,-372,1040,-460
7840,-321,178,-35,-539,1092,-617
7845,-356,203,-22,-701,1048,-741
7850,-348,211,-40,-879,879,-827
7855,-357,208,-55,-1076,708,-928
7860,-368,205,-63,-1236,556,-996
7865,-378,187,-54,-1373,391,-1002
7870,-376,158,-51,-1427,208,-943
7875,-363,122,-32,-1396,39,-857
7880,-360,87,-32,-1311,-101,-785
7885,-349,62,-30,-1204,-210,-704
7890,-332,34,-33,-1108,-291,-625
7895,-317,9,-33,-1030,-380,-588
7900,-306,-7,-32,-963,-490,-608
7905,-285,-18,-35,-899,-615,-669
7910,-267,-19,-37,-832,-708,-771
7915,-250,-14,-30,-781,-755,-866
7920,-218,-18,-40,-722,-777,-922
7925,-187,-9,-47,-680,-740,-964
7930,-166,0,-41,-659,-677,-999
7935,-153,9,-26,-653,-614,-1034
7940,-147,36,-36,-655,-578,-1059
7945,-132,64,-41,-697,-544,-1017
7950,-130,68,-39,-747,-487,-940
7955,-128,79,-41,-757,-447,-867
7960,-139,77,-36,-732,-427,-817
7965,-148,76,-30,-663,-442,-794
7970,-159,74,-26,-553,-479,-790
7975,-176,72,-21,-419,-518,-787
7980,-192,70,-20,-284,-545,-788
7985,-208,67,-18,-167,-559,-800
7990,-222,63,-18,-71,-552,-825
7995,-231,61,-15,-12,-521,-865
8000,-233,55,-20,3,-465,-904
8005,-239,61,-18,-29,-381,-927
8010,-241,54,-11,-88,-282,-914
8015,-247,46,-3,-134,-170,-883
8020,-247,40,19,-127,-73,-856
8025,-254,36,31,-70,-20,-828
8030,-281,43,65,23,-36,-790
8035,-258,53,71,196,-148,-706
8040,-227,62,61,407,-278,-612
8045,-209,74,39,551,-381,-553
8050,-195,90,24,567,-443,-515
8055,-191,106,26,472,-463,-488
8060,-200,104,14,321,-470,-453
8065,-209,105,9,183,-455,-422
8070,-216,111,14,118,-393,-413
8075,-232,100,21,113,-309,-444
8080,-246,83,17,145,-239,-495
8085,-255,71,22,189,-193,-551
8090,-261,59,17,232,-165,-608
8095,-272,48,16,273,-154,-647
8100,-284,37,22,316,-166,-667
8105,-290,26,25,366,-201,-668
8110,-299,17,29,414,-257,-654
8115,-306,13,36,456,-330,-626
8120,-306,15,37,480,-413,-582
8125,-304,13,41,488,-493,-526
8130,-300,11,44,483,-559,-466
8135,-288,9,51,470,-614,-414
8140,-284,11,60,453,-662,-374
8145,-279,9,64,442,-704,-346
8150,-270,14,59,443,-732,-335
8155,-268,19,54,451,-747,-340
8160,-256,21,55,455,-750,-358
8165,-255,23,42,462,-744,-379
8170,-250,20,27,471,-741,-401
8175,-253,18,15,476,-740,-421
8180,-256,12,2,461,-741,-432
8185,-258,1,-11,421,-738,-432
8190,-266,-9,-13,362,-715,-425
8195,-273,-23,-10,287,-674,-408
8200,-274,-31,-4,207,-621,-379
8205,-274,-44,3,136,-566,-338
8210,-278,-52,5,98,-528,-288
8215,-278,-55,9,103,-513,-232
8220,-278,-58,2,136,-517,-178
8225,-274,-58,-3,178,-537,-129
8230,-274,-57,-12,221,-561,-88
8235,-277,-54,-14,248,-580,-58
8240,-274,-54,-21,255,-592,-35
8245,-278,-51,-20,244,-600,-30
8250,-277,-51,-17,231,-600,-39
8255,-282,-48,-16,223,-594,-48
8260,-275,-52,-16,225,-585,-56
8265,-268,-55,-16,237,-574,-59
8270,-263,-52,-15,256,-562,-61
8275,-256,-57,-18,278,-549,-62
8280,-252,-58,-20,301,-536,-69
8285,-242,-59,-17,321,-522,-79
8290,-241,-59,-20,342,-507,-96
8295,-241,-58,-20,355,-498,-130
8300,-238,-59,-18,366,-495,-161
8305,-238,-54,-13,368,-486,-189
8310,-230,-56,-8,347,-460,-184
8315,-232,-57,-1,320,-434,-199
8320,-230,-56,0,286,-407,-209
8325,-236,-58,5,250,-375,-212
8330,-227,-57,7,211,-347,-219
8335,-224,-60,8,181,-319,-231
8340,-216,-60,11,156,-298,-241
8345,-214,-59,14,140,-272,-251
8350,-209,-57,17,133,-250,-257
8355,-217,-56,15,137,-232,-269
8360,-221,-52,19,147,-218,-285
8365,-228,-52,15,154,-215,-293
8370,-236,-52,14,159,-216,-304
8375,-238,-47,13,160,-218,-314
8380,-240,-54,15,155,-218,-318
8385,-245,-54,10,144,-213,-317
8390,-245,-55,10,126,-202,-309
8395,-246,-55,13,99,-192,-297
8400,-246,-56,13,71,-182,-277
8405,-245,-56,18,46,-178,-251
8410,-247,-57,20,27,-180,-224
8415,-246,-58,25,15,-185,-198
8420,-245,-60,29,9,-196,-175
8425,-244,-57,29,8,-208,-153
8430,-244,-58,28,10,-225,-130
8435,-246,-54,29,13,-245,-106
8440,-253,-50,30,13,-265,-84
8445,-252,-46,28,5,-283,-68
8450,-254,-42,24,-9,-296,-52
8455,-258,-36,22,-27,-304,-40
8460,-261,-31,24,-55,-302,-31
8465,-259,-40,24,-90,-295,-24
8470,-257,-42,31,-130,-286,-22
8475,-253,-43,24,-168,-272,-20
8480,-249,-49,32,-198,-255,-14
8485,-248,-42,31,-217,-237,-2
8490,-242,-55,38,-217,-217,13
8495,-241,-57,42,-204,-197,30
8500,-243,-58,44,-184,-178,45
8505,-248,-56,44,-165,-163,57
8510,-249,-56,45,-153,-151,68
8515,-256,-54,52,-147,-150,75
8520,-258,-54,46,-144,-155,77
8525,-260,-56,46,-144,-166,73
8530,-264,-51,43,-146,-177,64
8535,-263,-46,45,-156,-178,50
8540,-263,-46,45,-181,-172,42
8545,-255,-39,45,-199,-160,53
8550,-257,-36,44,-215,-144,74
8555,-254,-42,44,-222,-129,99
8560,-251,-48,45,-210,-118,112
8565,-244,-55,45,-183,-109,116
8570,-248,-56,49,-150,-98,107
8575,-240,-56,47,-121,-80,94
8580,-241,-54,56,-97,-58,76
8585,-241,-49,58,-78,-35,51
8590,-242,-41,61,-65,-11,22
8595,-244,-41,66,-56,10,2
8600,-244,-34,61,-48,28,-17
8605,-244,-33,63,-33,38,-33
8610,-245,-27,52,-14,46,-46
8615,-244,-27,50,4,55,-54
8620,-242,-22,47,17,65,-55
8625,-243,-17,44,18,72,-54
8630,-242,-17,45,12,79,-48
8635,-241,-16,44,-4,84,-40
8640,-237,-18,50,-20,85,-31
8645,-240,-19,48,-37,87,-26
8650,-240,-22,48,-44,96,-24
8655,-243,-26,50,-44,110,-26
8660,-244,-25,51,-39,127,-28
8665,-251,-28,45,-27,142,-33
8670,-253,-31,43,-15,154,-36
8675,-256,-31,42,1,163,-40
8680,-255,-32,35,15,168,-42
8685,-256,-33,35,27,168,-42
8690,-258,-34,32,34,158,-38
8695,-257,-36,32,37,142,-32
8700,-257,-37,32,36,127,-29
8705,-255,-38,29,39,118,-29
8710,-257,-38,29,40,111,-26
8715,-257,-39,32,40,102,-23
8720,-262,-40,33,36,92,-19
8725,-258,-42,32,29,79,-21
8730,-256,-43,32,20,74,-15
8735,-257,-45,33,17,72,-7
8740,-253,-43,34,18,72,-4
8745,-255,-43,29,26,78,-5
8750,-254,-43,28,34,83,-1
8755,-250,-47,32,38,84,0
8760,-250,-48,30,44,87,0
8765,-253,-49,30,54,91,-4
8770,-250,-51,32,69,96,-7
8775,-254,-47,27,77,96,-7
8780,-255,-45,26,77,96,-11
8785,-251,-46,29,69,99,-11
8790,-253,-45,24,55,104,-4
8795,-252,-47,30,44,103,1
8800,-250,-43,27,39,99,4
8805,-250,-46,29,46,104,0
8810,-240,-46,24,62,108,4
8815,-250,-47,32,82,111,3
8820,-249,-51,35,104,113,6
8825,-249,-47,29,120,106,-11
8830,-251,-48,28,116,109,-15
8835,-250,-48,30,101,115,-3
8840,-253,-47,33,88,125,2
8845,-254,-48,30,80,128,3
8850,-255,-51,30,68,130,5
8855,-255,-53,35,59,129,9
8860,-256,-53,34,51,130,11
8865,-250,-55,30,43,132,14
8870,-254,-56,34,40,136,9
8875,-254,-53,29,47,133,-3
8880,-257,-54,31,50,132,-19
8885,-252,-54,31,54,135,-19
8890,-255,-49,33,62,141,-18
8895,-253,-50,33,76,145,-15
8900,-254,-46,34,90,144,-13
8905,-253,-46,33,105,139,-12
8910,-254,-48,32,111,125,-13
8915,-253,-45,28,113,109,-16
8920,-251,-49,38,111,96,-20
8925,-257,-41,26,109,83,-24
8930,-254,-44,32,105,68,-25
8935,-255,-44,30,103,61,-30
8940,-253,-44,32,103,62,-31
8945,-254,-44,30,100,64,-29
8950,-257,-43,30,96,67,-25
8955,-255,-46,32,92,66,-21
8960,-253,-45,34,87,63,-20
8965,-256,-41,31,85,58,-19
8970,-256,-44,36,80,49,-17
8975,-257,-44,37,77,40,-16
8980,-256,-43,34,73,30,-14
8985,-255,-44,35,68,18,-14
8990,-256,-40,30,66,10,-14
8995,-253,-43,36,63,1,-12
9000,-253,-41,37,60,-5,-11
9005,-250,-42,35,58,-11,-9
9010,-247,-43,37,59,-18,-8
9015,-251,-42,38,58,-23,-9
9020,-251,-42,35,59,-27,-9
9025,-252,-42,39,57,-28,-11
9030,-254,-36,43,55,-31,-13
9035,-255,-39,36,51,-37,-14
9040,-254,-41,34,47,-40,-16
9045,-253,-41,35,44,-41,-20
9050,-256,-39,38,42,-41,-23
9055,-256,-39,35,42,-39,-25
9060,-256,-42,39,42,-38,-26
9065,-255,-41,35,42,-42,-25
9070,-251,-41,38,42,-44,-27
9075,-252,-43,38,45,-47,-31
9080,-255,-43,36,44,-49,-32
9085,-256,-42,35,45,-50,-36
9090,-255,-38,33,48,-51,-37
9095,-251,-43,39,50,-55,-39
9100,-254,-43,37,54,-55,-39
9105,-255,-40,32,61,-57,-39
9110,-256,-45,34,69,-61,-40
9115,-256,-45,36,80,-68,-42
9120,-255,-46,39,91,-72,-47
9125,-254,-47,34,104,-79,-52
9130,-255,-48,40,115,-83,-51
9135,-260,-38,27,124,-90,-51
9140,-255,-43,40,128,-97,-48
9145,-251,-46,37,132,-105,-46
9150,-255,-44,41,132,-109,-48
9155,-255,-40,40,131,-111,-52
9160,-254,-40,41,127,-114,-51
9165,-256,-39,40,121,-119,-49
9170,-255,-38,40,110,-123,-51
9175,-255,-39,39,101,-123,-55
9180,-251,-46,43,92,-121,-56
9185,-253,-42,43,86,-120,-55
9190,-252,-44,45,82,-121,-50
9195,-252,-44,48,87,-123,-44
9200,-242,-43,44,98,-127,-38
9205,-246,-42,45,108,-120,-40
9210,-247,-42,45,116,-106,-43
9215,-248,-40,45,118,-94,-39
9220,-245,-44,45,113,-85,-31
9225,-244,-43,44,103,-77,-27
9230,-242,-42,46,91,-66,-25
9235,-246,-40,48,79,-56,-25
9240,-243,-41,47,71,-51,-21
9245,-248,-40,55,64,-51,-17
9250,-248,-42,46,61,-52,-14
9255,-246,-39,48,58,-55,-8
9260,-246,-40,50,59,-56,-10
9265,-246,-38,46,61,-53,-15
9270,-247,-41,49,63,-52,-17
9275,-247,-39,47,61,-50,-20
9280,-248,-39,47,59,-46,-23
9285,-251,-44,45,57,-47,-22
9290,-246,-45,48,56,-45,-24
9295,-245,-45,47,56,-44,-23
9300,-249,-45,51,57,-42,-22
9305,-243,-46,50,56,-44,-16
9310,-246,-46,52,56,-47,-13
9315,-243,-44,51,57,-46,-15
9320,-247,-42,51,55,-43,-16
9325,-245,-44,54,51,-40,-15
9330,-247,-45,50,46,-37,-18
9335,-247,-41,57,38,-36,-18
9340,-249,-44,52,29,-34,-19
9345,-247,-42,48,19,-29,-22
9350,-249,-45,53,11,-17,-26
9355,-247,-47,49,4,-6,-27
9360,-248,-44,56,-2,-3,-27
9365,-249,-47,52,-4,-4,-26
9370,-254,-47,55,-2,-10,-23
9375,-250,-48,50,2,-17,-20
9380,-247,-45,53,10,-25,-19
9385,-249,-44,52,16,-28,-19
9390,-249,-43,52,19,-28,-18
9395,-246,-42,54,19,-29,-18
9400,-250,-41,54,19,-34,-18
9405,-245,-46,48,18,-36,-18
9410,-245,-42,52,15,-35,-20
9415,-246,-40,52,13,-31,-21
9420,-247,-44,51,9,-27,-22
9425,-249,-45,53,4,-26,-20
9430,-247,-43,53,-2,-23,-19
9435,-249,-45,54,-3,-21,-18
9440,-246,-44,52,-7,-20,-17
9445,-244,-46,54,-8,-19,-18
9450,-248,-45,55,-9,-15,-19
9455,-247,-45,53,-9,-14,-18
9460,-244,-47,52,-9,-10,-16
9465,-244,-43,57,-8,-6,-14
9470,-244,-44,52,-7,-3,-14
9475,-242,-48,58,-4,1,-13
9480,-244,-45,53,-1,5,-10
9485,-244,-46,54,4,10,-8
9490,-243,-45,53,9,13,-6
9495,-245,-48,54,10,19,-4
9500,-245,-44,56,8,22,-3
9505,-249,-47,55,7,27,-2
9510,-248,-46,51,7,29,-1
9515,-242,-43,51,10,31,-3
9520,-246,-43,50,14,33,-3
9525,-251,-42,47,18,33,-4
9530,-248,-43,53,22,34,-5
9535,-251,-43,51,26,33,-5
9540,-250,-40,52,28,33,-3
9545,-251,-38,50,30,31,-3
9550,-252,-43,55,29,29,-3
9555,-249,-44,50,27,26,-1
9560,-250,-43,55,24,24,0
9565,-250,-43,57,21,21,-1
9570,-245,-43,54,18,21,-3
9575,-252,-49,54,14,21,-6
9580,-249,-44,54,11,23,-7
9585,-247,-44,56,5,23,-7
9590,-249,-44,60,0,24,-8
9595,-245,-48,56,-4,28,-8
9600,-249,-45,57,-9,33,-8
9605,-250,-45,55,-10,39,-6
9610,-246,-44,56,-8,46,-6
9615,-246,-44,60,-7,50,-5
9620,-247,-42,55,-2,52,-4
9625,-246,-44,55,3,48,-2
9630,-246,-42,57,7,49,-3
9635,-247,-45,54,8,51,-1
9640,-247,-41,55,7,53,-3
9645,-245,-44,56,3,56,-3
9650,-249,-43,57,-1,55,-1
9655,-244,-46,53,-5,57,-1
9660,-249,-45,61,-5,63,-3
9665,-245,-44,53,-3,65,-1
9670,-247,-44,56,-2,65,0
9675,-247,-43,57,1,66,-1
9680,-247,-37,58,2,66,-2
9685,-247,-43,57,2,65,-3
9690,-248,-43,54,3,64,-3
9695,-246,-43,53,5,65,-3
9700,-246,-43,57,6,65,-3
9705,-249,-42,55,5,64,-3
9710,-248,-44,53,6,64,-4
9715,-247,-44,54,6,63,-4
9720,-249,-44,57,5,63,-3
9725,-246,-45,55,2,62,-3
9730,-247,-44,54,1,61,-3
9735,-248,-43,57,-3,61,-2
9740,-250,-45,56,-6,59,-1
9745,-249,-43,53,-10,58,-2
9750,-246,-47,52,-11,59,-1
9755,-251,-48,51,-11,60,0
9760,-249,-48,53,-8,60,-1
9765,-248,-47,51,-6,60,-2
9770,-245,-47,48,-4,61,-2
9775,-248,-47,55,0,61,-2
9780,-247,-48,48,2,61,-3
9785,-248,-45,52,3,61,-5
9790,-246,-49,61,1,66,-9
9795,-247,-47,52,0,68,-11
9800,-247,-41,50,1,70,-12
9805,-248,-42,53,6,70,-13
9810,-248,-42,53,13,70,-12
9815,-246,-41,56,18,66,-10
9820,-248,-44,57,20,62,-9
9825,-246,-42,53,20,60,-10
9830,-247,-41,54,16,57,-10
9835,-250,-41,58,9,59,-10
9840,-247,-41,53,1,60,-10
9845,-249,-48,57,-8,61,-11
9850,-249,-43,57,-14,64,-12
9855,-249,-44,56,-16,67,-10
9860,-248,-47,56,-15,69,-10
9865,-246,-47,51,-12,68,-9
9870,-245,-45,57,-7,67,-9
9875,-247,-44,57,-3,63,-8
9880,-246,-45,55,1,60,-9
9885,-247,-44,57,7,54,-8
9890,-245,-45,56,12,51,-8
9895,-246,-45,55,12,45,-10
9900,-248,-43,61,11,40,-11
9905,-249,-41,58,8,37,-11
9910,-248,-42,58,3,39,-13
9915,-245,-43,58,0,39,-13
9920,-246,-43,54,-4,39,-12
9925,-247,-45,57,-7,41,-11
9930,-247,-43,57,-7,43,-10
9935,-246,-44,58,-9,44,-9
9940,-246,-44,55,-9,45,-7
9945,-247,-44,55,-10,46,-6
9950,-248,-46,55,-11,47,-4
9955,-248,-45,51,-12,45,-6
9960,-245,-47,52,-10,45,-4
9965,-248,-44,53,-8,42,-3
9970,-246,-43,57,-2,39,-2
9975,-246,-45,53,3,35,-5
9980,-248,-41,53,10,34,-5
9985,-246,-43,55,16,32,-6
9990,-249,-40,56,19,32,-7
9995,-246,-41,59,20,32,-8
10000,-247,-44,56,21,31,-9
10005,-247,-42,57,22,33,-8
10010,-248,-41,52,21,31,-7
10015,-251,-43,56,19,32,-6
10020,-250,-43,56,17,29,-5
10025,-246,-42,58,13,28,-7
10030,-246,-43,57,9,29,-9
10035,-248,-41,58,3,28,-9
10040,-249,-43,56,-2,27,-9
10045,-245,-42,50,-5,27,-10
10050,-246,-42,56,-8,26,-10
10055,-250,-43,56,-9,25,-11
10060,-247,-41,56,-6,24,-11
10065,-248,-45,60,-3,22,-9
10070,-247,-40,55,0,19,-7
10075,-249,-41,58,3,17,-7
10080,-247,-40,56,4,13,-6
10085,-246,-40,62,2,9,-8
10090,-247,-42,63,0,4,-11
10095,-248,-42,64,-4,-1,-10
10100,-246,-41,62,-14,-2,-13
10105,-250,-42,64,-22,-1,-17
10110,-246,-44,60,-34,5,-22
10115,-245,-46,74,-40,12,-25
10120,-248,-47,63,-45,21,-26
10125,-246,-47,61,-46,27,-26
10130,-247,-50,63,-45,33,-26
10135,-245,-46,63,-43,38,-23
10140,-245,-50,63,-41,44,-21
10145,-243,-51,62,-38,51,-18
10150,-244,-51,60,-31,57,-15
10155,-242,-53,56,-23,63,-12
10160,-246,-46,60,-14,65,-6
10165,-246,-45,59,-7,66,-2
10170,-246,-48,59,-2,68,1
10175,-246,-46,58,1,68,3
10180,-248,-45,56,5,69,5
10185,-247,-41,54,7,70,6
10190,-248,-40,55,10,69,4
10195,-244,-37,48,7,67,3
10200,-246,-41,50,4,65,0
10205,-244,-40,55,2,64,-2
10210,-247,-40,57,-1,62,-5
10215,-247,-41,55,-3,60,-7
10220,-248,-41,56,-3,56,-9
10225,-244,-40,57,-4,51,-11
10230,-245,-43,59,-5,49,-12
10235,-245,-47,58,-7,47,-13
10240,-248,-45,57,-12,46,-12
10245,-245,-44,59,-18,47,-12
10250,-247,-46,62,-24,48,-10
10255,-246,-49,62,-30,51,-8
10260,-243,-47,64,-34,55,-5
10265,-247,-50,61,-37,60,-3
10270,-248,-43,63,-38,65,1
10275,-244,-44,60,-39,72,2
10280,-244,-44,60,-40,79,2
10285,-245,-43,58,-42,87,5
10290,-246,-43,62,-42,94,3
10295,-244,-44,58,-44,98,2
10300,-247,-41,61,-45,101,1
10305,-245,-45,61,-44,102,1
10310,-248,-46,60,-43,100,-1
10315,-250,-41,58,-43,98,2
10320,-245,-44,59,-40,95,2
10325,-247,-45,55,-37,91,4
10330,-244,-46,56,-32,90,7
10335,-238,-47,62,-32,89,7
10340,-245,-45,56,-32,89,5
10345,-247,-42,56,-34,85,4
10350,-245,-45,59,-35,82,2
10355,-245,-43,58,-38,80,0
10360,-248,-42,59,-40,77,-1
10365,-250,-40,57,-44,73,-3
10370,-248,-40,56,-49,69,-5
10375,-251,-39,56,-51,67,-7
10380,-250,-42,54,-54,66,-9
10385,-248,-41,56,-57,67,-9
10390,-249,-43,58,-57,67,-7
10395,-249,-45,59,-57,67,-8
10400,-246,-44,58,-54,67,-8
10405,-246,-44,56,-53,70,-8
10410,-248,-42,57,-51,70,-7
10415,-249,-45,58,-50,71,-7
10420,-249,-43,58,-49,73,-5
10425,-246,-46,58,-48,74,-6
10430,-244,-47,60,-47,75,-5
10435,-247,-46,60,-47,76,-5
10440,-247,-44,55,-47,77,-5
10445,-242,-45,66,-47,78,-3
10450,-244,-45,59,-46,79,-5
10455,-247,-44,54,-44,82,-5
10460,-242,-45,57,-43,84,-4
10465,-245,-46,56,-38,88,-3
10470,-245,-46,58,-34,90,-1
10475,-246,-44,59,-28,89,0
10480,-244,-45,56,-25,89,0
10485,-244,-44,56,-24,87,1
10490,-248,-44,58,-22,86,2
10495,-243,-44,57,-24,84,3
10500,-245,-44,59,-28,83,4
10505,-245,-43,57,-33,81,3
10510,-245,-45,57,-36,80,3
10515,-248,-48,57,-38,81,3
10520,-246,-45,58,-38,82,3
10525,-245,-46,58,-38,82,5
10530,-245,-49,55,-38,83,6
10535,-247,-47,56,-39,84,5
10540,-246,-48,61,-41,85,6
10545,-242,-48,56,-41,83,6
10550,-246,-45,57,-43,81,7
10555,-245,-45,56,-44,78,5
10560,-247,-43,53,-44,76,4
10565,-246,-45,57,-45,75,2
10570,-248,-46,55,-46,75,2
10575,-248,-48,56,-48,74,2
10580,-247,-46,54,-50,71,2
10585,-248,-44,58,-51,73,2
10590,-249,-46,57,-53,74,5
10595,-244,-44,58,-50,77,6
10600,-250,-46,54,-48,77,8
10605,-247,-43,54,-45,79,8
10610,-249,-44,55,-41,81,9
10615,-249,-46,59,-38,84,8
10620,-247,-47,57,-36,84,9
10625,-245,-43,51,-34,86,9
10630,-248,-44,53,-32,87,11
10635,-247,-43,56,-32,87,11
10640,-247,-43,53,-33,88,11
10645,-247,-46,57,-34,88,11
10650,-247,-46,58,-30,89,11
10655,-249,-42,55,-29,89,10
10660,-246,-40,53,-26,87,9
10665,-247,-45,56,-23,86,9
10670,-248,-44,58,-20,84,7
10675,-245,-43,56,-22,82,6
10680,-246,-42,57,-24,83,5
10685,-249,-39,57,-25,83,6
10690,-245,-42,55,-29,84,5
10695,-246,-45,55,-29,85,4
10700,-246,-45,59,-31,84,2
10705,-246,-46,60,-33,83,1
10710,-248,-43,56,-35,81,-1
10715,-249,-44,59,-35,79,-4
10720,-248,-44,57,-34,76,-6
10725,-249,-45,55,-35,76,-8
10730,-249,-45,55,-37,77,-9
10735,-248,-47,58,-38,78,-11
10740,-245,-48,58,-41,83,-10
10745,-245,-45,54,-42,88,-11
10750,-243,-52,55,-41,92,-11
10755,-245,-51,54,-39,96,-9
10760,-242,-49,54,-34,98,-7
10765,-243,-50,55,-26,98,-5
10770,-246,-46,49,-19,98,-1
10775,-246,-48,54,-12,95,1
10780,-246,-45,53,-7,92,4
10785,-248,-44,52,-4,89,5
10790,-247,-47,55,-5,86,7
10795,-246,-45,57,-7,84,11
10800,-245,-44,54,-12,81,13
10805,-243,-46,56,-18,81,13
10810,-240,-48,55,-23,81,15
10815,-242,-44,56,-27,81,15
10820,-242,-46,55,-29,82,18
10825,-245,-46,53,-32,83,19
10830,-244,-45,55,-33,86,18
10835,-243,-46,54,-32,87,17
10840,-246,-45,54,-31,88,16
10845,-245,-42,55,-24,90,13
10850,-252,-45,52,-18,92,13
10855,-251,-44,54,-9,93,10
10860,-251,-45,53,-4,93,9
10865,-251,-45,56,-1,92,4
10870,-250,-42,52,1,89,2
10875,-249,-44,55,0,87,0
10880,-250,-38,51,-1,84,-1
10885,-253,-41,54,-4,79,-3
10890,-249,-41,55,-9,75,-6
10895,-245,-44,57,-14,74,-6
10900,-248,-45,57,-19,72,-6
10905,-247,-45,60,-27,71,-6
10910,-247,-46,57,-33,74,-3
10915,-249,-48,57,-39,77,-3
10920,-248,-42,59,-44,78,-2
10925,-244,-49,61,-49,82,1
10930,-247,-46,57,-52,85,4
10935,-247,-42,62,-53,89,5
10940,-246,-44,57,-51,94,6
10945,-245,-45,58,-47,102,8
10950,-246,-44,53,-40,110,5
10955,-246,-46,55,-31,116,6
10960,-243,-46,52,-23,121,5
10965,-247,-44,56,-14,120,3
10970,-249,-43,52,-10,118,4
10975,-247,-43,49,-6,112,3
10980,-244,-45,52,-6,105,4
10985,-247,-42,53,-4,102,4
10990,-243,-42,55,-4,98,4
10995,-247,-43,53,-4,95,5
11000,-250,-43,50,-3,94,5
11005,-248,-43,54,-1,92,5
11010,-247,-44,53,-1,90,5
11015,-249,-41,49,0,90,5
11020,-249,-39,49,-2,86,5
11025,-250,-42,50,-5,83,3
11030,-248,-41,54,-9,80,2
11035,-249,-43,52,-13,77,2
11040,-250,-38,51,-15,76,3
11045,-250,-41,51,-15,75,2
11050,-249,-45,54,-14,74,1
11055,-247,-43,52,-13,72,1
11060,-249,-45,50,-10,70,-1
11065,-247,-43,51,-8,68,-2
11070,-247,-46,49,-6,64,-3
11075,-249,-44,53,-5,62,-5
11080,-248,-44,50,-2,58,-6
11085,-248,-45,52,-2,57,-6
11090,-247,-44,52,-1,53,-9
11095,-245,-43,55,0,50,-10
11100,-249,-43,50,2,47,-11
11105,-247,-45,52,4,46,-12
11110,-244,-49,51,4,42,-11
11115,-246,-45,52,4,40,-11
11120,-245,-46,52,4,38,-12
11125,-249,-44,52,4,37,-13
11130,-248,-43,52,4,37,-13
11135,-247,-42,56,6,37,-14
11140,-245,-43,54,5,36,-13
11145,-247,-40,51,5,35,-13
11150,-249,-44,51,5,36,-13
11155,-246,-48,55,4,34,-14
11160,-246,-43,57,1,31,-12
11165,-245,-46,54,1,30,-13
11170,-247,-44,54,-1,30,-11
11175,-247,-46,52,-2,29,-11
11180,-248,-45,53,-3,28,-12
11185,-249,-45,53,-5,26,-12
11190,-248,-46,50,-3,25,-12
11195,-247,-43,55,0,23,-11
11200,-250,-44,58,3,22,-11
11205,-247,-46,60,4,19,-11
11210,-249,-44,55,4,17,-12
11215,-248,-49,53,4,18,-12
11220,-247,-45,59,3,19,-13
11225,-249,-45,58,1,19,-14
11230,-247,-43,56,0,20,-15
11235,-246,-45,59,-1,21,-17
11240,-245,-44,59,-1,25,-17
11245,-244,-46,60,-1,29,-17
11250,-246,-48,57,0,30,-16
11255,-246,-44,59,2,32,-17
11260,-247,-46,57,1,32,-15
11265,-246,-47,56,1,34,-15
11270,-249,-42,59,1,34,-13
11275,-245,-48,60,0,33,-12
11280,-249,-41,53,2,32,-12
11285,-247,-45,58,3,32,-12
11290,-245,-45,56,5,31,-11
11295,-248,-43,58,8,30,-12
11300,-247,-44,55,11,31,-12
11305,-248,-42,58,13,30,-12
11310,-245,-43,58,14,30,-12
11315,-238,-39,65,14,32,-13
11320,-245,-42,58,14,35,-12
11325,-245,-43,58,14,36,-13
11330,-246,-41,55,14,37,-14
11335,-246,-43,59,12,38,-13
11340,-246,-44,58,12,39,-13
11345,-247,-43,60,10,41,-13
11350,-248,-44,56,9,42,-12
11355,-245,-47,58,9,44,-13
11360,-245,-42,58,11,45,-13
11365,-244,-47,57,10,45,-12
11370,-249,-42,55,8,45,-12
11375,-244,-44,54,9,44,-12
11380,-245,-47,59,11,43,-12
11385,-247,-44,58,11,42,-13
11390,-247,-48,59,13,44,-14
11395,-243,-47,58,13,43,-14
11400,-246,-43,61,15,42,-15
11405,-246,-44,60,16,42,-16
11410,-245,-45,56,17,41,-16
11415,-246,-46,61,17,43,-14
11420,-246,-47,58,17,44,-15
11425,-243,-50,49,14,44,-16
11430,-244,-47,57,14,46,-14
11435,-247,-44,57,13,45,-13
11440,-246,-44,58,13,45,-13
11445,-247,-44,61,12,45,-12
11450,-247,-44,56,11,44,-11
11455,-248,-46,55,11,43,-11
11460,-245,-44,60,10,44,-11
11465,-243,-46,59,10,43,-12
11470,-245,-47,59,10,44,-13
11475,-247,-46,60,10,47,-12
11480,-241,-48,57,10,46,-12
11485,-248,-45,59,9,47,-12
11490,-246,-46,58,9,48,-12
11495,-244,-45,60,9,47,-12
11500,-246,-48,59,9,50,-13
11505,-245,-42,58,9,48,-13
11510,-242,-45,60,9,49,-12
11515,-244,-46,58,8,48,-12
11520,-246,-47,59,5,45,-11
11525,-245,-48,61,2,44,-13
11530,-246,-44,62,0,44,-11
11535,-253,-52,53,2,44,-12
11540,-246,-46,55,5,45,-14
11545,-249,-44,58,9,46,-14
11550,-250,-43,56,15,44,-15
11555,-248,-41,59,19,43,-16
11560,-248,-44,59,24,41,-16
11565,-246,-45,57,28,40,-15
11570,-248,-44,55,28,38,-18
11575,-244,-43,60,29,37,-19
11580,-247,-43,55,26,36,-20
11585,-247,-46,57,24,36,-19
11590,-245,-46,56,18,35,-18
11595,-244,-50,59,13,34,-18
11600,-247,-45,63,9,33,-18
11605,-246,-46,58,4,34,-19
11610,-245,-47,60,0,35,-16
11615,-245,-48,62,-1,36,-14
11620,-244,-47,63,-1,35,-11
11625,-243,-46,62,1,37,-12
11630,-244,-46,60,4,41,-13
11635,-243,-47,62,8,44,-14
11640,-242,-42,59,9,46,-13
11645,-237,-39,64,10,49,-13
11650,-245,-44,59,11,50,-13
11655,-243,-45,57,11,51,-13
11660,-245,-45,56,10,48,-13
11665,-245,-48,61,10,47,-14
11670,-247,-46,58,10,45,-15
11675,-244,-47,60,9,42,-14
11680,-246,-47,59,8,42,-13
11685,-245,-47,60,8,40,-11
11690,-248,-43,61,9,39,-10
11695,-249,-46,60,11,36,-8
11700,-249,-45,59,11,33,-8
11705,-244,-45,60,8,29,-8
11710,-247,-46,58,7,28,-8
11715,-246,-43,61,6,23,-9
11720,-245,-46,60,5,21,-10
11725,-246,-46,60,5,18,-11
11730,-244,-43,61,3,15,-10
11735,-246,-42,63,2,15,-11
11740,-242,-46,63,2,15,-11
11745,-242,-43,62,2,15,-12
11750,-243,-41,60,2,16,-12
11755,-246,-43,61,1,19,-14
11760,-249,-44,60,1,20,-15
11765,-245,-47,61,-1,22,-14
11770,-246,-47,61,-2,26,-14
11775,-245,-44,59,-4,31,-14
11780,-246,-49,63,-5,35,-13
11785,-247,-45,60,-6,37,-13
11790,-245,-51,59,-7,40,-13
11795,-245,-44,63,-5,41,-12
11800,-242,-46,62,-2,41,-13
11805,-243,-48,63,1,41,-12
11810,-244,-47,64,4,41,-13
11815,-245,-44,59,7,41,-15
11820,-245,-47,59,8,40,-13
11825,-244,-46,62,11,39,-14
11830,-247,-45,60,11,36,-15
11835,-244,-46,61,13,37,-14
11840,-246,-46,61,14,34,-13
11845,-244,-46,61,16,33,-12
11850,-245,-44,61,15,30,-10
11855,-244,-47,63,15,28,-10
11860,-249,-47,60,14,29,-11
11865,-245,-45,63,11,31,-9
11870,-246,-44,60,7,32,-11
11875,-245,-44,64,5,34,-10
11880,-244,-44,60,4,35,-11
11885,-246,-46,61,3,37,-11
11890,-245,-48,61,2,37,-10
11895,-243,-45,64,1,36,-11
11900,-240,-47,63,0,36,-10
11905,-245,-46,62,0,36,-12
11910,-243,-47,62,-1,36,-13
11915,-242,-45,64,-2,37,-13
11920,-247,-45,65,-4,36,-13
11925,-243,-47,66,-6,37,-11
11930,-243,-47,64,-8,39,-12
11935,-244,-45,63,-9,39,-11
11940,-243,-46,64,-11,39,-9
11945,-243,-48,60,-10,41,-9
11950,-242,-48,67,-10,43,-9
11955,-243,-43,68,-10,46,-8
11960,-241,-46,64,-10,50,-7
11965,-244,-47,65,-9,52,-8
11970,-237,-46,68,-11,55,-6
11975,-244,-46,61,-11,57,-4
11980,-245,-45,65,-13,59,-4
11985,-243,-48,61,-12,60,-4
11990,-244,-44,65,-12,59,-3
11995,-244,-50,62,-10,60,-4
12000,-241,-46,63,-7,62,-5
12005,-244,-44,64,-3,61,-5
12010,-245,-45,67,-2,62,-5
12015,-243,-44,65,0,62,-4
12020,-245,-45,64,1,61,-6
12025,-245,-43,63,0,62,-6
12030,-246,-47,64,-2,61,-5
12035,-248,-45,58,-4,59,-5
12040,-245,-47,62,-6,60,-4
12045,-243,-46,66,-8,59,-4
12050,-246,-46,63,-9,60,-3
12055,-244,-45,63,-9,59,-1
12060,-246,-46,63,-9,56,-2
12065,-242,-45,63,-7,58,-2
12070,-246,-44,65,-6,57,-2
12075,-243,-46,66,-4,58,-2
12080,-244,-53,59,-3,57,-3
12085,-246,-44,65,-2,59,-5
12090,-245,-46,66,-2,60,-4
12095,-244,-43,63,-4,63,-5
12100,-245,-47,61,-5,64,-6
12105,-243,-44,61,-7,63,-6
12110,-243,-47,63,-10,64,-4
12115,-243,-47,63,-11,63,-5
12120,-244,-47,65,-10,62,-6
12125,-242,-47,62,-9,62,-5
12130,-242,-46,62,-5,58,-4
12135,-243,-49,64,0,57,-3
12140,-242,-48,66,1,54,-3
12145,-246,-45,63,3,54,-4
12150,-243,-44,64,3,54,-3
12155,-244,-44,66,3,52,-1
12160,-244,-46,65,2,51,-1
12165,-244,-45,65,1,51,-2
12170,-243,-44,61,0,50,-2
12175,-246,-46,63,-2,52,-2
12180,-242,-50,62,-5,51,-3
12185,-243,-51,66,-5,53,-3
12190,-244,-48,61,-6,52,-2
12195,-246,-45,68,-7,53,-2
12200,-245,-46,62,-6,54,-4
12205,-243,-46,64,-7,57,-3
12210,-246,-45,64,-8,58,-3
12215,-242,-47,64,-9,57,-2
12220,-247,-45,66,-10,58,-2
12225,-246,-46,62,-10,58,-2
12230,-244,-48,64,-10,57,-2
12235,-245,-45,66,-10,56,-3
12240,-245,-47,65,-10,54,-2
12245,-245,-48,63,-9,54,-2
12250,-248,-41,63,-8,53,-2
12255,-244,-48,64,-8,54,-2
12260,-244,-47,65,-9,55,-1
12265,-246,-42,63,-10,55,-1
12270,-245,-45,62,-10,55,-2
12275,-244,-47,68,-8,54,-2
12280,-245,-44,64,-9,54,-1
12285,-242,-45,64,-10,54,-2
12290,-244,-45,66,-9,53,-1
12295,-239,-41,70,-9,52,-3
12300,-246,-43,64,-9,55,-4
12305,-242,-47,67,-7,58,-5
12310,-241,-48,65,-6,60,-8
12315,-244,-47,66,-6,62,-8
12320,-245,-48,64,-7,64,-8
12325,-242,-47,67,-8,66,-6
12330,-247,-44,64,-10,68,-5
12335,-246,-47,65,-10,69,-5
12340,-244,-47,66,-10,68,-6
12345,-248,-47,65,-10,69,-7
12350,-244,-44,65,-7,69,-6
12355,-245,-44,64,-3,68,-7
12360,-246,-44,65,-1,66,-8
12365,-246,-48,61,3,65,-10
12370,-244,-46,62,4,65,-13
12375,-241,-47,62,9,64,-15
12380,-244,-47,64,12,65,-16
12385,-243,-43,63,17,64,-16
12390,-241,-47,65,18,62,-16
12395,-245,-46,61,16,60,-15
12400,-242,-46,66,16,55,-12
12405,-246,-43,58,14,51,-12
12410,-244,-44,63,15,48,-13
12415,-245,-46,62,14,44,-12
12420,-243,-50,64,14,42,-13
12425,-242,-48,67,15,43,-13
12430,-239,-51,67,13,45,-11
12435,-242,-49,66,11,50,-9
12440,-246,-49,70,7,55,-7
12445,-242,-52,69,5,62,-7
12450,-242,-50,70,4,69,-5
12455,-241,-48,65,2,80,-5
12460,-242,-49,69,0,88,-4
12465,-243,-47,65,-1,96,-2
12470,-241,-43,66,-5,103,0
12475,-241,-45,65,-9,109,3
12480,-243,-44,64,-12,112,7
12485,-240,-46,63,-15,112,11
12490,-241,-45,66,-17,107,14
12495,-242,-42,64,-16,101,14
12500,-239,-46,64,-14,93,14
12505,-244,-45,63,-10,85,12
12510,-246,-44,66,-4,79,10
12515,-247,-57,67,-1,76,9
12520,-246,-47,68,1,72,10
12525,-243,-46,66,2,72,10
12530,-244,-46,70,2,74,12
12535,-244,-43,63,0,76,11
12540,-246,-45,65,-2,76,10
12545,-243,-48,68,-3,75,10
12550,-245,-45,66,-6,74,9
12555,-246,-47,67,-6,69,9
12560,-245,-43,65,-7,67,9
12565,-246,-40,62,-8,63,9
12570,-245,-46,65,-6,61,8
12575,-245,-47,65,-6,60,7
12580,-245,-43,64,-2,61,7
12585,-246,-47,67,0,62,5
12590,-245,-43,63,2,63,4
12595,-246,-43,66,3,64,5
12600,-245,-44,64,4,63,3
12605,-246,-43,64,3,63,3
12610,-243,-43,64,4,62,1
12615,-246,-42,67,1,64,-1
12620,-243,-42,62,2,63,-1
12625,-244,-42,64,2,63,-2
12630,-246,-45,63,2,63,-1
12635,-245,-47,62,3,62,0
12640,-242,-46,69,3,62,-2
12645,-243,-46,64,4,63,-2
12650,-244,-44,65,5,62,-3
12655,-243,-45,65,3,62,-2
12660,-245,-44,63,3,62,-2
12665,-244,-42,64,4,62,-2
12670,-242,-47,66,2,60,-2
12675,-244,-42,67,2,56,-2
12680,-243,-43,73,1,54,-2
12685,-244,-42,67,1,49,0
12690,-240,-45,66,1,47,0
12695,-244,-45,64,0,44,0
12700,-245,-46,69,-2,42,-2
12705,-245,-45,63,-4,42,-1
12710,-245,-45,65,-6,42,-3
12715,-244,-45,66,-9,43,-4
12720,-243,-48,62,-9,47,-5
12725,-246,-43,69,-10,48,-5
12730,-242,-45,76,-10,49,-4
12735,-244,-43,66,-11,51,-2
12740,-245,-45,64,-13,53,-2
12745,-245,-45,68,-15,52,-1
12750,-243,-44,69,-17,51,-2
12755,-244,-46,67,-20,51,-2
12760,-244,-46,67,-22,50,-2
12765,-245,-47,66,-23,48,-3
12770,-245,-43,65,-22,49,-5
12775,-244,-49,64,-23,48,-2
12780,-247,-45,69,-25,49,-4
12785,-245,-44,63,-25,49,-4
12790,-244,-45,68,-27,52,-4
12795,-244,-45,69,-29,56,-2
12800,-246,-45,65,-30,58,-2
12805,-242,-46,67,-31,60,-1
12810,-243,-47,68,-33,64,0
12815,-242,-42,68,-35,65,3
12820,-243,-45,69,-35,67,3
12825,-244,-47,69,-36,69,3
12830,-243,-44,67,-35,68,4
12835,-244,-48,66,-34,69,6
12840,-244,-51,78,-31,70,6
12845,-243,-43,65,-29,72,5
12850,-242,-46,66,-27,74,5
12855,-245,-47,65,-26,75,7
12860,-242,-46,69,-24,77,6
12865,-247,-47,66,-25,78,6
12870,-244,-46,67,-24,81,8
12875,-242,-46,68,-26,83,6
12880,-245,-45,68,-29,84,8
12885,-245,-42,71,-29,84,7
12890,-246,-42,65,-30,86,9
12895,-245,-46,71,-32,86,9
12900,-245,-45,66,-32,86,10
12905,-245,-43,65,-32,86,10
12910,-245,-43,64,-30,85,10
12915,-246,-46,65,-29,85,9
12920,-244,-46,68,-28,86,7
12925,-246,-45,68,-27,85,6
12930,-246,-43,66,-27,84,6
12935,-243,-44,66,-28,84,7
12940,-243,-44,65,-28,86,6
12945,-242,-47,64,-27,87,6
12950,-243,-50,63,-28,85,6
12955,-244,-47,65,-27,87,5
12960,-245,-44,65,-28,85,4
12965,-244,-46,64,-29,86,5
12970,-244,-46,62,-28,87,7
12975,-243,-45,68,-26,87,5
12980,-242,-44,66,-25,87,4
12985,-243,-47,64,-25,87,4
12990,-246,-42,66,-25,88,4
12995,-243,-45,63,-25,88,5
13000,-244,-48,64,-25,92,3
13005,-244,-45,65,-25,93,3
13010,-246,-42,63,-27,93,4
13015,-245,-42,61,-28,92,5
13020,-246,-45,66,-29,91,6
13025,-243,-47,64,-30,91,5
13030,-247,-44,64,-31,89,6
13035,-245,-43,67,-31,89,7
13040,-245,-47,64,-31,86,7
13045,-243,-45,63,-29,85,7
13050,-242,-47,65,-26,85,7
13055,-243,-44,64,-24,85,5
13060,-245,-44,61,-24,84,7
13065,-244,-44,61,-24,84,5
13070,-245,-45,63,-24,85,5
13075,-245,-41,67,-24,84,6
13080,-246,-45,67,-23,86,5
13085,-245,-45,61,-25,87,5
13090,-244,-44,62,-26,87,4
13095,-245,-45,66,-28,87,5
13100,-245,-46,65,-28,86,6
13105,-244,-44,64,-29,86,7
13110,-245,-41,60,-29,89,8
13115,-245,-43,61,-29,87,8
13120,-245,-44,64,-27,88,8
13125,-244,-43,65,-26,89,8
13130,-244,-46,62,-25,89,7
13135,-247,-44,62,-23,91,7
13140,-243,-43,66,-22,93,6
13145,-246,-46,64,-21,94,4
13150,-247,-43,63,-21,95,5
13155,-246,-46,60,-24,96,6
13160,-247,-42,64,-25,95,6
13165,-246,-45,63,-27,94,7
13170,-247,-45,57,-28,91,9
13175,-246,-44,65,-28,89,9
13180,-245,-44,64,-27,87,9
13185,-245,-46,67,-26,85,12
13190,-247,-44,66,-24,82,13
13195,-243,-46,63,-23,81,11
13200,-245,-44,65,-22,83,8
13205,-245,-46,66,-21,84,9
13210,-245,-42,63,-16,87,6
13215,-245,-43,65,-12,93,4
13220,-248,-42,63,-8,94,2
13225,-246,-42,61,-3,98,1
13230,-246,-40,61,3,97,-1
13235,-247,-44,59,7,99,-1
13240,-247,-43,61,9,98,-1
13245,-246,-47,60,10,94,-1
13250,-247,-47,59,9,93,-1
13255,-243,-46,59,5,92,-1
13260,-245,-43,67,-1,89,-2
13265,-242,-47,68,-7,87,0
13270,-244,-46,63,-16,85,2
13275,-247,-42,58,-24,83,5
13280,-242,-48,66,-30,82,7
13285,-243,-46,64,-33,81,9
13290,-243,-44,65,-34,80,11
13295,-242,-45,65,-36,84,12
13300,-242,-47,67,-33,90,13
13305,-242,-45,66,-30,96,11
13310,-242,-42,63,-27,105,10
13315,-243,-44,63,-24,113,9
13320,-243,-46,63,-21,118,8
13325,-246,-43,65,-20,118,7
13330,-244,-44,62,-19,116,7
13335,-247,-46,62,-18,115,7
13340,-244,-48,61,-17,110,8
13345,-244,-48,63,-17,106,11
13350,-247,-41,60,-17,103,11
13355,-248,-44,63,-18,97,13
13360,-245,-45,63,-17,94,14
13365,-248,-46,61,-18,92,14
13370,-248,-43,62,-17,91,14
13375,-249,-45,63,-16,91,13
13380,-248,-44,65,-15,92,12
13385,-245,-39,56,-16,90,10
13390,-247,-42,62,-17,91,10
13395,-248,-41,61,-20,90,8
13400,-244,-44,62,-20,90,9
13405,-248,-41,62,-23,89,9
13410,-246,-42,61,-25,89,9
13415,-245,-41,63,-26,91,9
13420,-243,-41,63,-27,93,8
13425,-247,-42,62,-27,92,9
13430,-250,-42,63,-27,93,9
13435,-242,-46,62,-27,95,9
13440,-243,-44,65,-25,96,9
13445,-245,-43,61,-24,99,7
13450,-243,-43,62,-23,101,6
13455,-245,-45,61,-23,100,5
13460,-246,-43,64,-21,99,8
13465,-244,-47,61,-22,97,10
13470,-245,-46,61,-21,97,12
13475,-243,-45,60,-23,96,12
13480,-245,-45,62,-23,94,11
13485,-245,-45,58,-23,93,12
13490,-243,-43,59,-23,91,11
13495,-237,-41,53,-22,91,11
13500,-244,-41,63,-22,91,12
13505,-245,-42,58,-21,91,12
13510,-245,-42,63,-20,92,11
13515,-244,-46,61,-20,90,12
13520,-245,-43,60,-19,87,12
13525,-244,-43,59,-19,85,12
13530,-246,-46,65,-19,85,10
13535,-245,-43,62,-21,85,10
13540,-246,-43,58,-25,87,8
13545,-245,-44,59,-29,86,9
13550,-249,-44,59,-32,85,8
13555,-249,-46,62,-34,85,9
13560,-245,-40,62,-34,83,11
13565,-247,-43,62,-36,81,12
13570,-247,-43,64,-36,80,12
13575,-246,-46,62,-36,78,13
13580,-244,-43,62,-37,78,12
13585,-247,-42,65,-36,77,11
13590,-245,-44,60,-36,77,10
13595,-247,-42,63,-38,78,10
13600,-247,-41,64,-38,80,10
13605,-243,-41,69,-40,83,10
13610,-248,-46,63,-40,86,10
13615,-244,-43,63,-40,89,10
13620,-245,-44,61,-37,91,11
13625,-245,-43,62,-34,94,12
13630,-248,-42,58,-32,96,14
13635,-244,-45,59,-30,98,16
13640,-249,-43,58,-28,98,15
13645,-243,-41,58,-24,99,17
13650,-245,-44,64,-23,97,17
13655,-246,-45,58,-22,96,16
13660,-246,-41,59,-21,92,19
13665,-246,-44,57,-21,91,18
13670,-247,-43,59,-20,89,16
13675,-249,-42,59,-20,87,15
13680,-247,-40,60,-21,84,13
13685,-246,-42,59,-22,85,13
13690,-245,-43,59,-22,86,12
13695,-247,-44,59,-22,86,10
13700,-248,-41,59,-21,88,10
13705,-242,-44,59,-21,89,10
13710,-235,-39,51,-22,89,10
13715,-246,-43,61,-24,89,11
13720,-244,-43,56,-27,91,11
13725,-247,-44,63,-28,91,10
13730,-248,-43,59,-27,93,10
13735,-246,-46,60,-26,91,10
13740,-249,-41,58,-25,91,9
13745,-245,-45,58,-22,90,7
13750,-247,-41,57,-18,89,7
13755,-245,-44,59,-17,87,7
13760,-245,-44,58,-15,87,5
13765,-246,-42,60,-13,88,5
13770,-245,-44,55,-11,87,5
13775,-245,-43,55,-9,87,3
13780,-246,-43,60,-6,85,4
13785,-246,-44,54,-4,83,3
13790,-248,-43,56,-1,81,3
13795,-248,-42,61,2,80,3
13800,-246,-41,54,4,80,1
13805,-245,-43,56,8,80,-2
13810,-246,-41,56,12,82,-3
13815,-244,-43,58,15,82,-7
13820,-245,-46,65,18,80,-9
13825,-247,-40,59,21,76,-10
13830,-248,-39,56,22,73,-10
13835,-245,-44,57,22,70,-12
13840,-244,-42,51,22,66,-13
13845,-246,-41,56,21,63,-13
13850,-245,-40,56,18,61,-13
13855,-243,-42,57,17,58,-14
13860,-247,-42,55,14,56,-15
13865,-243,-43,54,9,53,-14
13870,-247,-42,55,2,52,-15
13875,-246,-42,58,-3,49,-14
13880,-246,-44,57,-5,48,-13
13885,-246,-44,58,-5,47,-12
13890,-246,-43,56,-3,48,-11
13895,-243,-44,56,-2,45,-10
13900,-252,-45,55,0,46,-11
13905,-246,-45,59,1,47,-11
13910,-246,-44,61,3,48,-11
13915,-246,-43,59,5,50,-13
13920,-245,-45,59,8,51,-12
13925,-246,-44,64,12,50,-13
13930,-247,-44,58,15,49,-13
13935,-247,-42,57,19,47,-14
13940,-245,-41,58,19,45,-15
13945,-248,-43,63,21,44,-15
13950,-246,-41,58,21,42,-18
13955,-245,-44,60,20,39,-18
13960,-245,-46,61,19,39,-17
13965,-245,-46,61,17,37,-19
13970,-244,-47,58,15,37,-19
13975,-244,-43,63,13,36,-19
13980,-246,-46,60,9,37,-17
13985,-243,-48,62,6,38,-16
13990,-245,-45,59,2,41,-15
13995,-246,-46,64,-1,43,-14
14000,-245,-43,65,-1,45,-13
14005,-245,-43,64,0,48,-11
14010,-246,-41,61,4,49,-10
14015,-246,-42,61,6,53,-12
14020,-244,-42,60,10,55,-11
14025,-246,-41,61,13,59,-12
14030,-244,-43,62,16,60,-13
14035,-243,-40,60,16,58,-13
14040,-245,-38,55,15,56,-13
14045,-246,-39,60,14,52,-12
14050,-247,-45,57,14,48,-12
14055,-245,-45,61,15,44,-11
14060,-246,-44,60,17,40,-9
14065,-247,-41,63,18,36,-9
14070,-246,-44,57,20,35,-8
14075,-248,-40,59,20,33,-8
14080,-247,-40,60,19,32,-9
14085,-247,-44,63,17,32,-9
14090,-246,-40,61,15,32,-9
14095,-247,-39,59,12,31,-10
14100,-245,-41,63,10,31,-12
14105,-245,-44,62,7,30,-14
14110,-246,-46,60,4,30,-14
14115,-248,-42,61,4,29,-15
14120,-245,-42,62,4,30,-17
14125,-247,-39,63,6,30,-17
14130,-246,-43,58,7,30,-16
14135,-242,-42,60,8,31,-16
14140,-246,-47,62,11,30,-17
14145,-244,-43,60,10,29,-18
14150,-245,-46,60,10,29,-18
14155,-247,-45,62,11,29,-18
14160,-245,-44,61,11,29,-17
14165,-246,-43,60,12,30,-17
14170,-245,-44,61,13,31,-16
14175,-244,-44,64,12,32,-17
14180,-246,-46,63,12,31,-16
14185,-247,-44,63,12,30,-15
14190,-243,-43,61,12,29,-15
14195,-244,-46,64,13,29,-17
14200,-241,-47,60,12,28,-17
14205,-246,-40,60,13,29,-17
14210,-246,-44,62,11,31,-15
14215,-244,-42,60,11,30,-16
14220,-244,-42,59,8,31,-14
14225,-246,-40,61,7,31,-14
14230,-245,-43,63,7,29,-13
14235,-242,-46,65,5,30,-15
14240,-244,-44,66,5,29,-14
14245,-248,-44,59,2,28,-13
14250,-246,-43,64,0,28,-13
14255,-247,-47,63,-4,26,-15
14260,-248,-43,64,-7,26,-15
14265,-244,-47,61,-9,27,-14
14270,-246,-46,61,-8,27,-14
14275,-246,-44,61,-7,30,-13
14280,-247,-46,65,-4,32,-13
14285,-243,-43,62,-1,33,-13
14290,-245,-43,66,2,33,-13
14295,-244,-42,64,6,32,-15
14300,-247,-43,66,7,31,-15
14305,-244,-44,65,9,31,-14
14310,-244,-43,65,7,29,-14
14315,-248,-40,65,6,28,-14
14320,-247,-41,63,4,28,-15
14325,-246,-42,66,1,27,-15
14330,-241,-43,67,-2,30,-15
14335,-244,-41,63,-3,32,-14
14340,-243,-44,67,-4,35,-15
14345,-246,-43,66,-5,36,-14
14350,-242,-44,63,-6,38,-14
14355,-245,-46,64,-5,39,-13
14360,-245,-45,64,-4,39,-12
14365,-242,-41,60,-2,41,-12
14370,-245,-47,64,-2,42,-13
14375,-243,-46,63,1,40,-12
14380,-247,-45,65,1,39,-11
14385,-244,-42,63,3,40,-12
14390,-243,-43,67,6,41,-11
14395,-244,-45,66,10,44,-11
14400,-241,-45,64,12,45,-12
14405,-244,-41,69,14,45,-12
14410,-244,-42,66,14,45,-12
14415,-247,-44,69,15,45,-11
14420,-245,-43,64,14,45,-11
14425,-242,-46,67,14,45,-11
14430,-244,-42,67,14,45,-9
14435,-243,-44,62,13,45,-10
14440,-242,-44,66,11,46,-10
14445,-243,-44,67,11,46,-10
14450,-242,-45,63,11,47,-11
14455,-247,-43,68,10,46,-10
14460,-244,-44,66,8,43,-9
14465,-245,-43,64,7,43,-10
14470,-242,-47,68,5,42,-10
14475,-240,-45,77,4,42,-10
14480,-244,-45,65,3,41,-12
14485,-244,-45,67,3,40,-11
14490,-245,-43,67,2,39,-11
14495,-245,-42,65,2,38,-12
14500,-244,-45,65,3,37,-10
14505,-244,-46,65,3,37,-11
14510,-244,-44,65,4,37,-12
14515,-243,-42,69,5,36,-13
14520,-244,-41,67,6,36,-13
14525,-246,-44,64,5,34,-13
14530,-244,-43,64,5,33,-14
14535,-243,-43,65,5,32,-13
14540,-244,-48,66,4,33,-13
14545,-246,-45,65,2,31,-11
14550,-238,-49,66,1,30,-9
14555,-243,-44,67,2,29,-9
14560,-247,-44,64,3,31,-11
14565,-242,-44,67,3,30,-9
14570,-241,-45,69,5,30,-9
14575,-243,-42,70,5,32,-11
14580,-243,-44,69,3,34,-9
14585,-246,-45,73,2,34,-12
14590,-241,-45,64,2,35,-12
14595,-245,-46,69,1,36,-13
14600,-243,-44,68,-1,37,-12
14605,-247,-42,68,-4,39,-13
14610,-245,-42,67,-6,40,-14
14615,-243,-44,66,-8,43,-12
14620,-243,-43,65,-10,44,-12
14625,-243,-45,66,-12,44,-12
14630,-242,-45,71,-12,43,-12
14635,-239,-44,65,-14,43,-10
14640,-244,-42,70,-15,42,-10
14645,-242,-42,68,-15,43,-9
14650,-242,-47,69,-14,42,-8
14655,-245,-43,71,-11,41,-8
14660,-243,-44,67,-10,42,-7
14665,-244,-43,69,-11,41,-7
14670,-243,-41,66,-11,39,-7
14675,-241,-46,70,-10,39,-9
14680,-246,-43,74,-9,42,-10
14685,-244,-45,67,-7,43,-10
14690,-243,-46,69,-4,44,-11
14695,-249,-48,67,-2,45,-11
14700,-244,-43,66,2,45,-13
14705,-245,-43,65,6,46,-13
14710,-245,-43,71,12,47,-15
14715,-243,-45,65,16,49,-17
14720,-244,-44,67,17,49,-17
14725,-244,-46,68,18,48,-18
14730,-246,-46,68,15,47,-19
14735,-248,-41,67,13,45,-19
14740,-247,-45,67,7,47,-19
14745,-242,-47,69,2,48,-19
14750,-245,-44,69,-3,47,-17
14755,-242,-47,69,-5,49,-15
14760,-243,-45,71,-4,47,-13
14765,-243,-45,69,-2,46,-12
14770,-243,-44,68,1,47,-10
14775,-241,-44,68,4,48,-9
14780,-242,-42,69,7,54,-7
14785,-240,-44,63,6,55,-7
14790,-239,-43,68,7,57,-7
14795,-241,-44,74,7,57,-7
14800,-241,-45,68,5,54,-7
14805,-242,-41,68,2,50,-7
14810,-244,-43,70,-1,42,-8
14815,-245,-45,69,-2,40,-9
14820,-245,-43,70,-3,38,-9
14825,-243,-44,70,-5,36,-10
14830,-243,-44,70,-6,36,-10
14835,-245,-45,68,-5,40,-10
14840,-245,-43,73,-7,41,-11
14845,-243,-46,67,-8,41,-9
14850,-245,-45,70,-11,39,-8
14855,-241,-47,71,-12,37,-9
14860,-243,-44,70,-11,35,-8
14865,-241,-44,71,-9,35,-7
14870,-242,-43,69,-9,34,-8
14875,-245,-44,67,-7,32,-7
14880,-242,-44,68,-4,30,-5
14885,-242,-43,69,-3,27,-6
14890,-241,-44,69,-2,22,-7
14895,-243,-42,72,-2,21,-8
14900,-243,-43,71,-2,18,-8
14905,-243,-43,70,-3,17,-10
14910,-234,-37,71,-4,18,-9
14915,-241,-43,70,-6,20,-9
14920,-241,-44,68,-7,23,-11
14925,-244,-41,68,-8,28,-11
14930,-244,-44,69,-8,34,-12
14935,-242,-41,68,-6,39,-10
14940,-244,-44,70,-4,47,-10
14945,-247,-45,67,-3,54,-10
14950,-244,-44,74,-3,58,-9
14955,-242,-45,69,-5,61,-9
14960,-244,-45,72,-9,63,-8
14965,-244,-46,71,-13,63,-8
14970,-241,-47,71,-14,63,-8
14975,-243,-45,70,-17,65,-4
14980,-243,-44,73,-19,66,-3
14985,-242,-43,70,-19,66,-4
14990,-242,-46,70,-17,64,-3
14995,-245,-45,70,-13,62,-4
