timestamp,acc_x,acc_y,acc_z,gyro_x,gyro_y,gyro_z
0,15,-208,-135,51,10,-16
5,13,-204,-133,50,12,-14
10,18,-207,-137,49,11,-14
15,15,-204,-136,50,13,-13
20,15,-205,-134,47,13,-13
25,15,-205,-136,46,14,-14
30,11,-208,-135,45,14,-16
35,16,-206,-135,44,13,-15
40,19,-209,-132,43,13,-15
45,17,-206,-137,44,13,-15
50,15,-207,-133,45,12,-13
55,14,-204,-132,44,13,-13
60,13,-206,-135,43,14,-14
65,18,-207,-137,42,13,-12
70,14,-206,-134,43,14,-11
75,13,-208,-135,43,14,-10
80,17,-206,-134,43,14,-11
85,15,-205,-139,45,14,-12
90,15,-206,-136,45,14,-10
95,14,-205,-137,46,14,-12
100,14,-206,-137,45,13,-13
105,13,-206,-134,46,13,-14
110,14,-205,-137,45,13,-14
115,12,-207,-136,46,14,-15
120,15,-210,-135,46,13,-16
125,13,-209,-134,48,12,-16
130,17,-211,-139,49,11,-19
135,15,-207,-134,51,11,-18
140,15,-206,-135,53,11,-16
145,16,-203,-137,54,10,-17
150,17,-204,-138,54,8,-16
155,15,-204,-138,55,8,-14
160,16,-204,-135,53,7,-13
165,15,-205,-137,50,8,-13
170,18,-202,-142,49,8,-10
175,15,-209,-136,47,9,-11
180,14,-204,-134,46,10,-11
185,13,-207,-135,46,11,-11
190,16,-206,-133,45,11,-12
195,18,-207,-134,43,12,-13
200,16,-209,-134,44,12,-12
205,15,-208,-133,47,12,-13
210,15,-208,-133,51,14,-13
215,14,-207,-135,54,13,-14
220,10,-208,-136,57,13,-15
225,12,-203,-135,60,13,-14
230,13,-205,-132,60,14,-14
235,14,-205,-136,61,14,-15
240,17,-208,-135,62,15,-15
245,15,-204,-133,61,13,-14
250,16,-204,-135,61,14,-14
255,18,-206,-135,60,14,-12
260,14,-203,-134,57,14,-12
265,18,-208,-134,58,13,-12
270,18,-206,-135,57,11,-11
275,14,-208,-133,55,11,-12
280,14,-207,-137,55,11,-11
285,17,-209,-131,55,11,-12
290,14,-205,-141,54,12,-13
295,13,-204,-144,54,12,-11
300,15,-206,-134,53,12,-11
305,17,-208,-134,54,11,-12
310,15,-205,-138,53,12,-12
315,15,-207,-136,54,12,-12
320,14,-205,-133,54,12,-10
325,15,-205,-137,54,12,-10
330,18,-206,-134,54,12,-9
335,17,-207,-137,55,11,-10
340,17,-207,-135,56,12,-11
345,14,-204,-137,56,11,-10
350,13,-203,-138,56,13,-9
355,18,-212,-137,57,13,-10
360,13,-205,-135,56,13,-10
365,16,-208,-137,55,13,-10
370,14,-206,-136,55,13,-9
375,18,-209,-135,56,11,-10
380,15,-208,-135,59,14,-11
385,14,-208,-137,61,14,-12
390,16,-210,-135,62,13,-10
395,13,-205,-136,64,13,-11
400,14,-206,-138,64,13,-11
405,12,-201,-131,63,12,-11
410,15,-206,-137,64,12,-12
415,16,-205,-136,65,11,-12
420,17,-209,-137,65,12,-12
425,15,-206,-134,66,11,-11
430,16,-208,-135,64,9,-12
435,16,-207,-135,65,10,-13
440,14,-208,-130,66,10,-12
445,15,-207,-138,66,10,-12
450,16,-207,-131,68,11,-11
455,15,-206,-134,68,10,-11
460,20,-206,-138,69,10,-12
465,15,-206,-136,69,11,-12
470,16,-209,-137,70,12,-11
475,15,-204,-137,71,11,-12
480,15,-206,-137,72,11,-11
485,16,-206,-137,71,10,-13
490,16,-204,-136,73,10,-9
495,16,-207,-133,73,10,-9
500,18,-205,-136,73,9,-9
505,17,-210,-138,73,10,-7
510,16,-210,-135,74,9,-6
515,14,-202,-133,74,9,-8
520,17,-206,-136,73,10,-6
525,16,-208,-134,73,9,-6
530,15,-205,-132,74,9,-5
535,15,-208,-135,75,8,-6
540,15,-212,-135,77,6,-6
545,15,-208,-134,79,7,-5
550,14,-208,-138,81,6,-6
555,15,-210,-135,83,4,-6
560,12,-205,-134,85,5,-5
565,20,-201,-137,87,4,-5
570,16,-207,-135,89,3,-5
575,13,-206,-134,89,3,-7
580,16,-207,-134,88,3,-8
585,14,-207,-133,88,4,-7
590,13,-204,-133,85,6,-7
595,13,-206,-131,81,6,-8
600,17,-206,-132,76,6,-8
605,14,-206,-131,73,6,-8
610,15,-207,-132,70,5,-7
615,12,-204,-132,69,6,-7
620,21,-206,-130,68,5,-7
625,18,-210,-130,68,4,-8
630,14,-205,-133,71,3,-8
635,12,-206,-135,73,2,-9
640,15,-205,-133,75,4,-9
645,18,-206,-133,78,6,-10
650,14,-205,-134,78,7,-10
655,17,-207,-133,79,7,-8
660,13,-203,-135,80,8,-8
665,13,-206,-135,79,8,-7
670,16,-204,-133,77,9,-7
675,11,-207,-138,77,8,-8
680,14,-206,-137,75,8,-7
685,14,-203,-136,71,9,-7
690,14,-206,-133,68,9,-7
695,14,-204,-133,68,11,-7
700,15,-209,-135,66,10,-6
705,16,-208,-136,65,10,-8
710,11,-208,-136,65,11,-7
715,18,-208,-133,64,10,-7
720,12,-204,-140,63,10,-6
725,15,-208,-138,63,11,-6
730,17,-209,-134,62,11,-5
735,13,-207,-134,63,10,-7
740,15,-206,-136,63,10,-7
745,14,-207,-132,62,10,-5
750,14,-206,-136,61,11,-5
755,13,-209,-134,62,9,-6
760,16,-207,-135,62,11,-5
765,13,-204,-136,61,11,-6
770,15,-209,-133,61,12,-6
775,16,-210,-133,61,13,-4
780,15,-208,-135,60,14,-2
785,18,-213,-129,59,14,-2
790,14,-206,-134,58,12,-4
795,16,-205,-134,57,12,-2
800,14,-208,-133,53,13,-2
805,14,-210,-133,53,13,-3
810,14,-209,-132,53,14,-2
815,13,-206,-133,53,13,-1
820,11,-208,-133,52,13,-3
825,12,-210,-135,52,12,-3
830,13,-212,-132,52,12,-3
835,11,-209,-132,53,11,-5
840,10,-210,-136,53,11,-5
845,12,-210,-130,54,9,-7
850,11,-210,-130,56,8,-8
855,12,-209,-129,57,7,-9
860,13,-210,-132,60,5,-10
865,15,-211,-136,64,2,-11
870,16,-209,-132,70,1,-10
875,14,-206,-136,73,-2,-9
880,16,-208,-136,73,-2,-9
885,13,-208,-133,71,-4,-8
890,13,-208,-136,68,-3,-9
895,13,-205,-133,65,-1,-8
900,16,-208,-132,62,-1,-10
905,17,-207,-132,60,-2,-9
910,16,-207,-135,58,-3,-11
915,18,-211,-130,58,-3,-13
920,13,-207,-135,56,-3,-13
925,11,-209,-134,56,-3,-16
930,12,-207,-132,56,-4,-16
935,16,-210,-133,57,-4,-17
940,13,-211,-134,58,-4,-17
945,14,-208,-134,58,-4,-18
950,15,-211,-136,59,-3,-17
955,15,-208,-134,60,-5,-18
960,15,-210,-132,61,-4,-19
965,17,-206,-132,61,-4,-18
970,12,-209,-132,61,-4,-17
975,17,-211,-133,61,-5,-16
980,16,-212,-134,61,-5,-16
985,15,-207,-132,60,-5,-16
990,15,-206,-136,60,-6,-16
995,19,-205,-130,61,-7,-16
1000,14,-209,-132,62,-7,-15
1005,14,-210,-133,62,-7,-15
1010,16,-213,-131,62,-5,-13
1015,13,-210,-135,64,-5,-14
1020,16,-210,-134,65,-6,-14
1025,15,-209,-133,65,-5,-15
1030,14,-208,-131,65,-4,-14
1035,14,-207,-136,67,-3,-12
1040,14,-211,-131,68,-2,-11
1045,15,-210,-134,68,-1,-12
1050,12,-209,-134,69,0,-13
1055,11,-207,-136,70,0,-13
1060,12,-207,-133,71,-1,-12
1065,12,-205,-134,72,0,-13
1070,14,-206,-133,73,1,-13
1075,15,-210,-132,73,0,-12
1080,15,-207,-132,73,0,-12
1085,12,-208,-130,73,1,-11
1090,12,-209,-132,70,0,-12
1095,13,-209,-131,70,1,-10
1100,15,-212,-130,70,0,-12
1105,14,-211,-133,70,-2,-12
1110,11,-207,-133,70,0,-13
1115,13,-206,-133,70,-2,-11
1120,13,-204,-130,72,-1,-10
1125,14,-211,-132,72,-2,-10
1130,11,-207,-130,71,-3,-10
1135,14,-209,-132,71,-3,-12
1140,14,-207,-131,70,-4,-13
1145,11,-203,-137,71,-3,-13
1150,15,-209,-132,68,-5,-14
1155,15,-207,-137,67,-4,-12
1160,14,-212,-133,66,-4,-13
1165,14,-205,-129,65,-3,-12
1170,15,-209,-132,64,-4,-12
1175,14,-207,-133,65,-4,-13
1180,13,-207,-131,62,-3,-13
1185,12,-207,-134,62,-2,-15
1190,12,-207,-135,62,-2,-13
1195,16,-210,-135,61,-2,-15
1200,15,-209,-133,60,-3,-15
1205,16,-211,-131,60,-1,-15
1210,11,-207,-131,60,-3,-16
1215,14,-212,-133,61,-3,-15
1220,22,-206,-134,60,-4,-15
1225,16,-209,-129,61,-4,-13
1230,12,-207,-132,61,-4,-14
1235,11,-207,-130,60,-5,-14
1240,12,-206,-131,60,-5,-16
1245,16,-212,-135,59,-5,-16
1250,14,-208,-133,60,-7,-16
1255,11,-209,-130,59,-7,-16
1260,14,-208,-130,60,-7,-16
1265,13,-208,-131,61,-7,-18
1270,12,-208,-130,60,-6,-17
1275,14,-209,-137,59,-7,-17
1280,15,-211,-134,58,-8,-20
1285,13,-207,-129,58,-7,-19
1290,13,-208,-131,58,-7,-18
1295,13,-208,-131,57,-7,-17
1300,12,-209,-132,57,-9,-16
1305,13,-207,-130,57,-9,-16
1310,14,-210,-130,55,-10,-17
1315,11,-206,-130,55,-12,-17
1320,15,-210,-132,54,-12,-19
1325,15,-209,-130,54,-13,-20
1330,13,-212,-127,53,-14,-20
1335,17,-211,-130,53,-14,-21
1340,12,-209,-129,52,-15,-21
1345,12,-209,-131,53,-15,-21
1350,11,-209,-134,57,-15,-22
1355,15,-211,-133,60,-15,-21
1360,15,-209,-130,62,-15,-23
1365,13,-212,-131,66,-14,-23
1370,10,-212,-133,66,-15,-24
1375,10,-208,-130,65,-15,-24
1380,14,-210,-131,64,-16,-25
1385,19,-213,-129,63,-15,-23
1390,17,-212,-132,62,-14,-24
1395,13,-208,-129,62,-14,-23
1400,13,-208,-130,61,-13,-24
1405,14,-209,-128,62,-13,-23
1410,14,-209,-128,60,-12,-22
1415,15,-209,-129,59,-12,-22
1420,14,-209,-132,61,-11,-25
1425,19,-211,-130,60,-9,-23
1430,13,-207,-135,60,-8,-23
1435,14,-211,-129,61,-8,-22
1440,10,-208,-136,62,-7,-22
1445,16,-207,-130,63,-5,-21
1450,16,-207,-133,64,-3,-21
1455,15,-208,-132,65,-3,-20
1460,15,-211,-131,67,-2,-19
1465,17,-209,-134,70,0,-18
1470,17,-211,-134,72,1,-19
1475,14,-207,-134,75,3,-18
1480,14,-211,-134,76,4,-17
1485,15,-208,-134,76,6,-19
1490,13,-209,-132,76,7,-20
1495,13,-208,-130,74,7,-20
1500,12,-208,-131,73,8,-19
1505,13,-208,-134,72,7,-19
1510,16,-207,-135,72,7,-20
1515,14,-206,-131,68,8,-17
1520,14,-206,-130,66,9,-16
1525,12,-207,-131,64,9,-15
1530,14,-206,-131,63,10,-14
1535,16,-207,-131,63,11,-14
1540,12,-208,-129,63,12,-13
1545,15,-208,-131,61,12,-13
1550,11,-208,-129,61,13,-15
1555,16,-206,-133,61,13,-14
1560,14,-208,-132,60,13,-13
1565,14,-209,-133,60,12,-13
1570,14,-209,-131,60,11,-14
1575,12,-209,-129,59,11,-14
1580,15,-210,-131,60,10,-14
1585,12,-212,-133,61,9,-12
1590,12,-207,-133,63,8,-11
1595,13,-210,-134,65,10,-10
1600,7,-204,-134,66,8,-8
1605,14,-207,-131,66,9,-9
1610,14,-205,-129,65,9,-8
1615,12,-208,-134,63,10,-8
1620,16,-207,-132,61,10,-8
1625,15,-211,-130,58,9,-6
1630,14,-209,-129,57,10,-7
1635,12,-209,-131,55,10,-7
1640,15,-209,-127,53,10,-10
1645,14,-209,-131,52,10,-12
1650,13,-211,-129,51,10,-11
1655,12,-204,-133,52,10,-11
1660,14,-209,-129,53,10,-10
1665,14,-209,-129,52,10,-13
1670,14,-210,-131,52,10,-13
1675,13,-207,-130,51,10,-13
1680,16,-209,-130,52,11,-13
1685,11,-210,-132,50,11,-14
1690,13,-207,-134,50,12,-12
1695,14,-208,-127,50,10,-10
1700,14,-209,-129,47,10,-10
1705,15,-210,-135,46,12,-11
1710,18,-212,-137,43,11,-10
1715,14,-208,-128,41,12,-9
1720,16,-208,-128,39,11,-11
1725,14,-208,-131,38,12,-10
1730,15,-211,-134,36,12,-9
1735,14,-209,-134,36,11,-10
1740,13,-211,-130,37,11,-10
1745,16,-212,-133,37,12,-8
1750,15,-206,-131,38,12,-9
1755,11,-208,-133,38,13,-9
1760,11,-209,-134,40,13,-8
1765,11,-208,-133,40,12,-7
1770,16,-210,-129,43,14,-7
1775,14,-210,-132,41,15,-8
1780,14,-208,-134,41,15,-8
1785,16,-209,-134,43,15,-6
1790,15,-208,-131,43,16,-8
1795,12,-209,-134,43,16,-6
1800,12,-209,-131,42,16,-7
1805,17,-206,-131,42,16,-7
1810,14,-209,-134,42,17,-7
1815,14,-210,-130,42,17,-8
1820,14,-209,-130,44,17,-8
1825,16,-208,-129,43,17,-6
1830,8,-201,-140,43,17,-7
1835,12,-207,-127,44,18,-6
1840,12,-208,-136,45,17,-6
1845,18,-216,-131,46,16,-4
1850,11,-209,-134,44,17,-3
1855,20,-204,-133,42,16,-4
1860,12,-211,-131,39,16,-3
1865,14,-214,-127,37,16,-3
1870,11,-205,-130,33,16,-2
1875,12,-206,-131,30,17,-3
1880,14,-207,-134,25,16,-1
1885,13,-208,-132,22,17,-2
1890,9,-210,-123,19,17,-2
1895,7,-204,-135,17,18,-2
1900,13,-209,-129,15,18,-3
1905,20,-209,-127,14,18,-2
1910,22,-212,-121,12,18,-2
1915,17,-208,-134,14,19,-1
1920,12,-210,-125,16,19,-2
1925,17,-218,-134,19,18,-3
1930,7,-211,-125,24,19,-5
1935,10,-216,-135,31,18,-6
1940,10,-208,-124,36,16,-7
1945,10,-204,-135,41,15,-8
1950,7,-208,-133,47,15,-8
1955,15,-211,-126,53,14,-7
1960,10,-209,-133,59,14,-7
1965,11,-213,-128,62,14,-7
1970,15,-211,-132,67,14,-8
1975,15,-209,-133,69,14,-7
1980,11,-209,-135,74,14,-7
1985,14,-212,-133,77,12,-6
1990,10,-197,-133,78,11,-6
1995,13,-208,-134,80,10,-8
2000,14,-207,-132,82,8,-8
2005,14,-207,-135,83,7,-10
2010,16,-215,-123,83,6,-11
2015,9,-203,-130,84,5,-11
2020,10,-210,-137,83,5,-11
2025,13,-209,-129,83,4,-11
2030,12,-210,-132,84,3,-11
2035,10,-211,-139,84,0,-12
2040,6,-206,-137,83,1,-15
2045,11,-209,-133,84,0,-13
2050,12,-208,-133,83,-2,-16
2055,14,-212,-132,82,-3,-14
2060,13,-204,-127,83,-2,-16
2065,12,-211,-139,81,-3,-16
2070,16,-209,-132,82,-1,-17
2075,14,-209,-132,81,-3,-18
2080,14,-209,-131,80,-4,-17
2085,11,-206,-133,79,-2,-15
2090,8,-201,-130,79,-1,-14
2095,13,-210,-133,79,-1,-12
2100,14,-210,-136,81,-1,-12
2105,13,-208,-138,80,0,-9
2110,17,-212,-133,81,2,-9
2115,14,-209,-132,81,2,-9
2120,14,-208,-131,81,2,-6
2125,13,-212,-129,81,2,-8
2130,14,-208,-132,81,0,-5
2135,12,-208,-132,80,0,-7
2140,16,-210,-129,78,1,-6
2145,10,-211,-128,76,1,-7
2150,15,-209,-134,73,2,-6
2155,13,-209,-128,70,2,-7
2160,16,-209,-130,67,3,-6
2165,17,-208,-129,67,6,-5
2170,15,-211,-130,67,7,-4
2175,14,-206,-132,67,9,-5
2180,16,-208,-128,69,9,-3
2185,14,-210,-129,71,11,-5
2190,15,-208,-130,71,13,-4
2195,14,-208,-132,70,12,-5
2200,12,-208,-131,68,13,-4
2205,14,-208,-129,68,12,-5
2210,15,-210,-131,65,12,-6
2215,16,-210,-130,64,13,-8
2220,13,-208,-128,61,13,-7
2225,11,-209,-129,57,14,-6
2230,14,-209,-130,51,13,-6
2235,13,-207,-127,47,13,-4
2240,13,-207,-130,44,14,-4
2245,16,-210,-129,41,14,-4
2250,11,-208,-132,41,13,-4
2255,21,-209,-127,40,14,-3
2260,15,-212,-134,40,13,-3
2265,11,-210,-133,39,13,-3
2270,11,-211,-128,41,13,-4
2275,15,-209,-131,42,12,-6
2280,13,-214,-129,43,14,-6
2285,14,-211,-132,43,14,-5
2290,15,-210,-133,43,15,-8
2295,13,-209,-131,42,16,-9
2300,12,-210,-129,44,16,-10
2305,14,-211,-126,44,15,-13
2310,9,-211,-134,45,15,-12
2315,13,-212,-128,46,15,-11
2320,15,-212,-131,48,14,-11
2325,14,-209,-133,50,12,-11
2330,14,-209,-131,52,12,-11
2335,12,-203,-130,54,12,-9
2340,13,-205,-129,55,11,-7
2345,11,-205,-131,55,11,-6
2350,15,-208,-131,55,12,-7
2355,12,-209,-127,54,12,-6
2360,15,-208,-132,54,12,-6
2365,13,-211,-137,53,13,-6
2370,11,-211,-133,52,12,-6
2375,13,-211,-132,51,11,-5
2380,11,-209,-130,51,14,-8
2385,12,-210,-129,53,15,-6
2390,11,-210,-130,54,15,-6
2395,10,-210,-131,56,15,-8
2400,6,-206,-135,59,13,-8
2405,10,-210,-130,60,15,-9
2410,11,-209,-133,61,13,-9
2415,11,-209,-130,63,14,-9
2420,13,-211,-133,62,15,-9
2425,13,-206,-127,63,14,-9
2430,11,-210,-130,64,13,-7
2435,11,-209,-131,65,12,-7
2440,9,-208,-128,65,12,-5
2445,13,-207,-133,65,12,-5
2450,13,-212,-130,63,13,-6
2455,10,-208,-131,65,13,-6
2460,14,-207,-133,65,13,-6
2465,14,-210,-133,66,13,-7
2470,13,-211,-132,67,13,-5
2475,14,-205,-131,68,12,-5
2480,11,-209,-131,69,13,-4
2485,13,-212,-130,69,13,-3
2490,15,-211,-135,71,14,-2
2495,14,-211,-131,70,15,-2
2500,16,-211,-131,72,14,-1
2505,14,-209,-130,73,14,-1
2510,11,-210,-131,76,15,-3
2515,13,-211,-134,78,15,-3
2520,12,-210,-133,77,15,-5
2525,15,-210,-131,76,14,-6
2530,7,-211,-130,75,15,-3
2535,12,-211,-133,75,15,-5
2540,15,-208,-130,74,16,-7
2545,12,-210,-133,74,14,-8
2550,10,-209,-133,73,14,-7
2555,13,-207,-134,72,13,-7
2560,13,-205,-129,70,13,-8
2565,14,-206,-135,68,11,-7
2570,13,-208,-135,65,12,-8
2575,9,-208,-134,60,11,-8
2580,14,-211,-129,57,10,-7
2585,14,-204,-126,55,10,-7
2590,14,-210,-131,51,10,-8
2595,13,-209,-129,51,11,-7
2600,12,-209,-130,49,11,-9
2605,12,-208,-133,49,12,-10
2610,15,-211,-130,51,12,-10
2615,15,-210,-131,52,12,-11
2620,11,-209,-130,52,14,-11
2625,11,-210,-132,53,13,-9
2630,11,-212,-132,53,15,-11
2635,18,-214,-134,53,15,-9
2640,12,-207,-129,53,16,-10
2645,12,-209,-131,54,15,-9
2650,13,-210,-128,51,16,-8
2655,12,-210,-131,51,16,-9
2660,12,-210,-133,51,15,-10
2665,16,-213,-130,52,16,-8
2670,11,-210,-132,51,17,-9
2675,14,-207,-131,51,17,-7
2680,8,-209,-134,50,17,-7
2685,15,-212,-130,50,17,-7
2690,11,-212,-135,49,17,-6
2695,13,-212,-128,49,17,-4
2700,12,-209,-129,49,18,-5
2705,12,-213,-129,49,17,-6
2710,11,-211,-130,49,18,-7
2715,12,-212,-129,48,17,-5
2720,12,-211,-130,47,17,-5
2725,13,-211,-130,47,17,-4
2730,11,-212,-130,47,16,-4
2735,8,-211,-130,46,15,-6
2740,14,-212,-130,45,15,-5
2745,8,-206,-130,45,14,-3
2750,15,-212,-130,45,14,-4
2755,13,-209,-130,45,15,-4
2760,16,-209,-132,46,14,-4
2765,10,-208,-131,46,15,-4
2770,12,-208,-130,45,17,-4
2775,12,-209,-130,46,16,-4
2780,13,-210,-126,48,18,-7
2785,14,-210,-131,48,18,-4
2790,12,-208,-131,49,19,-5
2795,12,-214,-132,49,20,-5
2800,13,-209,-128,49,19,-5
2805,14,-210,-127,50,18,-6
2810,13,-210,-133,50,18,-6
2815,13,-212,-128,50,18,-6
2820,12,-214,-128,51,17,-4
2825,13,-213,-132,52,17,-4
2830,12,-213,-128,53,16,-6
2835,15,-215,-129,56,16,-5
2840,15,-210,-130,57,13,-5
2845,11,-214,-131,60,13,-7
2850,14,-213,-132,62,13,-7
2855,8,-207,-135,64,12,-7
2860,15,-214,-130,65,12,-7
2865,12,-210,-129,66,11,-5
2870,14,-210,-132,69,12,-6
2875,12,-209,-131,69,12,-4
2880,13,-210,-133,70,11,-5
2885,14,-212,-133,70,12,-3
2890,16,-213,-132,70,10,-4
2895,15,-212,-129,72,12,-4
2900,13,-211,-131,73,13,-5
2905,11,-211,-132,74,13,-5
2910,17,-212,-135,74,13,-6
2915,12,-210,-129,74,13,-6
2920,13,-212,-129,72,14,-7
2925,14,-209,-128,72,14,-8
2930,12,-208,-129,72,15,-9
2935,10,-207,-128,71,16,-10
2940,13,-206,-130,70,16,-10
2945,13,-209,-131,70,17,-9
2950,9,-208,-127,69,18,-11
2955,8,-209,-129,68,16,-10
2960,13,-205,-127,66,16,-10
2965,10,-204,-127,62,14,-9
2970,12,-206,-128,61,13,-8
2975,14,-209,-129,60,13,-8
2980,14,-209,-131,57,12,-8
2985,12,-209,-132,54,9,-8
2990,15,-210,-128,53,8,-7
2995,12,-210,-129,54,7,-9
3000,12,-212,-133,52,5,-8
3005,9,-212,-130,50,4,-10
3010,13,-211,-133,49,4,-10
3015,12,-209,-130,49,3,-12
3020,14,-216,-135,46,1,-15
3025,12,-212,-130,46,1,-15
3030,13,-211,-129,46,-2,-15
3035,12,-210,-129,46,-3,-17
3040,13,-211,-129,48,-5,-17
3045,9,-208,-130,49,-4,-14
3050,12,-207,-130,49,-4,-14
3055,11,-208,-134,48,-5,-13
3060,12,-208,-135,47,-5,-12
3065,14,-211,-130,44,-6,-13
3070,11,-208,-131,44,-5,-11
3075,9,-219,-128,41,-5,-11
3080,12,-209,-128,38,-5,-12
3085,14,-208,-129,36,-3,-11
3090,14,-211,-128,36,-4,-12
3095,11,-211,-129,37,-4,-13
3100,15,-212,-134,39,-4,-13
3105,15,-215,-131,41,-4,-14
3110,10,-209,-134,44,-2,-14
3115,11,-208,-127,46,-1,-14
3120,14,-213,-127,46,0,-16
3125,12,-209,-129,48,1,-14
3130,13,-210,-131,50,2,-15
3135,13,-215,-129,50,4,-14
3140,14,-211,-130,51,5,-13
3145,13,-209,-130,51,3,-13
3150,15,-213,-129,51,2,-14
3155,14,-210,-131,51,2,-14
3160,12,-210,-126,50,1,-13
3165,15,-211,-130,51,1,-13
3170,17,-208,-128,49,2,-13
3175,13,-210,-130,47,2,-12
3180,14,-208,-131,46,2,-11
3185,15,-209,-130,45,2,-13
3190,13,-213,-128,44,4,-12
3195,12,-211,-130,45,4,-12
3200,14,-211,-129,43,6,-12
3205,13,-208,-128,43,7,-12
3210,13,-209,-133,41,9,-12
3215,14,-209,-130,41,10,-11
3220,13,-210,-129,39,12,-11
3225,17,-209,-127,37,15,-10
3230,13,-209,-127,37,15,-9
3235,10,-212,-130,37,17,-10
3240,13,-211,-129,37,18,-10
3245,13,-212,-130,37,18,-10
3250,15,-212,-125,37,20,-10
3255,12,-211,-129,40,19,-9
3260,15,-212,-130,41,18,-10
3265,10,-214,-128,43,18,-11
3270,14,-214,-131,45,19,-10
3275,13,-207,-132,48,17,-11
3280,12,-210,-129,49,16,-11
3285,12,-209,-129,49,16,-10
3290,17,-209,-130,46,16,-10
3295,13,-210,-129,44,15,-11
3300,15,-211,-127,41,15,-11
3305,12,-208,-129,39,15,-11
3310,11,-208,-128,35,14,-11
3315,15,-209,-129,31,14,-12
3320,12,-212,-129,30,15,-13
3325,14,-208,-128,31,15,-13
3330,14,-206,-127,29,15,-13
3335,13,-210,-129,30,14,-14
3340,12,-213,-129,30,13,-15
3345,15,-219,-129,32,12,-15
3350,8,-211,-127,31,12,-15
3355,11,-210,-128,32,12,-14
3360,10,-211,-133,33,11,-14
3365,12,-215,-129,33,12,-14
3370,11,-213,-128,35,11,-13
3375,13,-214,-131,36,11,-12
3380,8,-209,-130,37,12,-13
3385,8,-208,-128,39,10,-12
3390,11,-210,-137,41,10,-12
3395,12,-213,-133,43,9,-13
3400,11,-209,-134,45,9,-12
3405,13,-213,-130,48,9,-13
3410,12,-210,-130,50,9,-11
3415,11,-207,-130,51,10,-12
3420,11,-208,-132,53,10,-13
3425,8,-210,-129,53,9,-12
3430,12,-208,-132,54,8,-12
3435,12,-208,-132,52,7,-12
3440,11,-209,-128,53,7,-13
3445,14,-211,-134,51,7,-11
3450,18,-207,-131,51,6,-11
3455,13,-208,-126,51,5,-10
3460,13,-213,-131,52,4,-12
3465,12,-208,-131,51,5,-11
3470,9,-211,-133,50,5,-11
3475,14,-212,-130,50,5,-12
3480,10,-209,-127,50,4,-13
3485,8,-205,-130,50,2,-14
3490,14,-212,-131,51,1,-12
3495,18,-212,-134,51,2,-13
3500,13,-209,-132,50,2,-13
3505,12,-209,-131,49,2,-13
3510,11,-208,-132,48,2,-13
3515,12,-211,-129,48,1,-12
3520,14,-207,-132,48,1,-13
3525,14,-211,-129,49,3,-12
3530,12,-207,-129,48,3,-12
3535,15,-212,-130,47,4,-12
3540,13,-211,-129,45,4,-13
3545,11,-210,-129,47,4,-11
3550,16,-208,-132,49,3,-10
3555,13,-209,-130,51,4,-11
3560,14,-208,-129,50,2,-11
3565,17,-207,-130,51,0,-11
3570,11,-209,-139,51,2,-10
3575,10,-209,-130,50,1,-10
3580,12,-208,-129,49,0,-10
3585,13,-210,-130,49,1,-10
3590,12,-210,-130,47,1,-10
3595,13,-212,-135,46,0,-10
3600,15,-210,-132,45,1,-8
3605,12,-211,-133,44,0,-10
3610,9,-207,-132,45,2,-10
3615,19,-207,-130,45,3,-9
3620,10,-210,-131,45,3,-11
3625,13,-211,-130,46,3,-12
3630,11,-211,-131,49,5,-13
3635,11,-210,-131,49,7,-11
3640,13,-210,-131,50,9,-11
3645,13,-208,-129,51,7,-12
3650,16,-211,-132,51,9,-10
3655,11,-208,-132,50,10,-11
3660,10,-209,-132,49,10,-11
3665,14,-210,-131,48,10,-11
3670,8,-208,-132,46,11,-12
3675,13,-209,-129,43,12,-8
3680,13,-209,-128,42,11,-8
3685,13,-207,-131,41,12,-7
3690,13,-211,-130,39,13,-6
3695,13,-209,-131,38,12,-7
3700,10,-210,-129,39,11,-6
3705,13,-211,-133,39,12,-7
3710,10,-212,-131,38,13,-7
3715,12,-212,-131,38,13,-5
3720,9,-213,-129,38,13,-8
3725,9,-209,-133,39,13,-9
3730,10,-209,-128,39,14,-10
3735,12,-216,-129,40,14,-10
3740,11,-213,-131,41,15,-9
3745,13,-213,-133,45,14,-9
3750,11,-211,-133,48,12,-8
3755,11,-210,-133,51,12,-10
3760,9,-211,-130,54,11,-8
3765,10,-207,-131,55,10,-6
3770,10,-207,-133,55,9,-6
3775,11,-211,-131,55,8,-6
3780,13,-206,-137,54,9,-5
3785,14,-210,-128,53,11,-6
3790,12,-208,-129,52,11,-4
3795,11,-208,-131,50,14,-4
3800,14,-213,-130,49,14,-6
3805,9,-209,-126,48,12,-4
3810,11,-209,-128,48,14,-5
3815,10,-209,-133,49,14,-6
3820,9,-204,-129,50,15,-6
3825,14,-210,-129,51,15,-5
3830,10,-209,-133,51,15,-5
3835,10,-212,-131,53,15,-7
3840,13,-214,-131,53,15,-7
3845,12,-207,-131,52,16,-9
3850,13,-210,-130,51,16,-7
3855,11,-209,-127,50,15,-7
3860,14,-210,-130,50,16,-6
3865,11,-209,-132,49,15,-7
3870,11,-206,-133,49,15,-6
3875,13,-210,-133,48,14,-5
3880,12,-208,-133,49,15,-3
3885,12,-209,-130,48,14,-5
3890,8,-214,-132,48,13,-5
3895,10,-206,-134,48,14,-4
3900,12,-210,-130,49,13,-4
3905,11,-208,-129,49,14,-4
3910,14,-210,-129,50,15,-2
3915,12,-209,-131,51,15,-3
3920,9,-210,-133,52,16,-4
3925,11,-210,-133,53,15,-4
3930,12,-210,-135,53,15,-2
3935,15,-212,-130,54,15,-2
3940,11,-209,-137,54,14,0
3945,7,-205,-136,55,14,-2
3950,11,-208,-132,54,13,-1
3955,12,-209,-130,54,12,0
3960,14,-210,-133,54,11,-1
3965,14,-212,-132,53,9,-4
3970,11,-211,-131,54,9,-4
3975,9,-211,-129,56,8,-5
3980,7,-208,-133,56,5,-7
3985,7,-206,-128,57,4,-9
3990,12,-212,-131,58,2,-12
3995,7,-206,-130,57,2,-15
4000,7,-208,-128,56,1,-15
4005,3,-206,-130,54,1,-20
4010,8,-209,-131,51,0,-22
4015,7,-208,-130,49,-1,-24
4020,8,-209,-132,45,-2,-25
4025,6,-208,-130,41,-2,-27
4030,6,-208,-130,39,-4,-28
4035,9,-207,-131,36,-4,-28
4040,10,-211,-134,35,-4,-28
4045,10,-208,-132,34,-6,-28
4050,7,-212,-130,33,-8,-27
4055,10,-214,-133,35,-9,-27
4060,14,-209,-131,34,-9,-27
4065,12,-210,-131,35,-11,-25
4070,14,-209,-130,36,-12,-25
4075,13,-210,-129,35,-14,-24
4080,13,-209,-131,35,-15,-23
4085,13,-209,-128,35,-19,-22
4090,13,-212,-132,36,-20,-20
4095,13,-206,-128,36,-23,-18
4100,14,-207,-130,37,-24,-19
4105,17,-206,-132,35,-24,-18
4110,14,-209,-135,33,-23,-18
4115,11,-210,-130,32,-22,-16
4120,9,-203,-133,30,-22,-16
4125,13,-208,-132,29,-19,-17
4130,12,-208,-134,27,-18,-17
4135,9,-209,-131,26,-15,-19
4140,13,-213,-134,25,-12,-19
4145,15,-209,-128,23,-10,-19
4150,15,-213,-131,23,-7,-19
4155,14,-209,-131,22,-3,-19
4160,12,-210,-127,23,-1,-20
4165,15,-214,-132,24,1,-20
4170,15,-212,-135,26,3,-22
4175,16,-211,-134,29,5,-21
4180,12,-208,-129,31,6,-19
4185,14,-211,-132,32,6,-19
4190,13,-212,-132,36,7,-19
4195,13,-207,-133,37,8,-18
4200,13,-210,-136,38,8,-15
4205,16,-210,-135,38,9,-15
4210,9,-207,-130,37,10,-13
4215,17,-209,-127,38,9,-13
4220,13,-210,-130,39,12,-12
4225,12,-210,-132,38,12,-12
4230,13,-209,-133,38,12,-11
4235,13,-210,-130,38,14,-12
4240,13,-211,-133,39,15,-10
4245,14,-212,-130,39,15,-12
4250,11,-215,-129,40,17,-11
4255,8,-207,-129,42,17,-10
4260,14,-211,-131,43,17,-11
4265,10,-209,-129,45,16,-10
4270,15,-210,-129,46,17,-11
4275,11,-210,-130,44,17,-13
4280,14,-206,-134,45,16,-12
4285,11,-208,-131,44,15,-12
4290,15,-210,-131,43,17,-13
4295,13,-208,-127,42,17,-12
4300,10,-209,-129,41,17,-12
4305,14,-213,-130,39,16,-11
4310,13,-206,-135,41,17,-9
4315,8,-204,-128,40,19,-9
4320,10,-206,-133,40,19,-9
4325,13,-209,-131,39,18,-9
4330,12,-207,-130,39,20,-10
4335,11,-208,-130,39,21,-11
4340,10,-206,-131,38,21,-11
4345,11,-207,-133,36,21,-12
4350,14,-204,-133,36,23,-12
4355,14,-209,-132,35,22,-11
4360,11,-208,-127,34,24,-12
4365,11,-205,-136,34,23,-13
4370,10,-209,-131,33,23,-12
4375,18,-208,-129,33,23,-11
4380,11,-207,-131,32,23,-12
4385,9,-204,-130,30,24,-13
4390,10,-204,-130,28,25,-14
4395,12,-204,-132,25,25,-13
4400,9,-207,-135,24,27,-14
4405,10,-204,-134,23,28,-14
4410,13,-202,-134,18,30,-15
4415,17,-208,-130,13,31,-16
4420,11,-203,-136,9,33,-17
4425,13,-207,-135,6,31,-16
4430,16,-206,-131,2,31,-16
4435,14,-205,-129,-2,30,-16
4440,13,-205,-133,-5,31,-15
4445,12,-204,-134,-5,29,-16
4450,12,-203,-135,-7,28,-14
4455,12,-203,-137,-9,27,-13
4460,16,-204,-134,-14,25,-10
4465,12,-203,-135,-16,23,-8
4470,13,-204,-136,-21,21,-7
4475,12,-204,-132,-24,20,-6
4480,14,-204,-134,-29,18,-3
4485,15,-203,-132,-34,17,-3
4490,10,-204,-141,-39,16,-2
4495,16,-204,-135,-45,16,-1
4500,15,-201,-133,-51,16,-2
4505,12,-201,-134,-60,16,-3
4510,15,-198,-135,-65,18,-1
4515,12,-198,-139,-72,18,-1
4520,9,-194,-138,-77,21,0
4525,11,-195,-142,-85,19,1
4530,12,-189,-142,-96,19,2
4535,10,-188,-144,-109,18,4
4540,14,-188,-140,-125,17,1
4545,11,-184,-147,-139,17,2
4550,13,-187,-142,-154,17,1
4555,13,-178,-143,-168,17,2
4560,16,-181,-144,-183,16,1
4565,14,-176,-148,-197,17,2
4570,13,-176,-141,-212,18,4
4575,13,-178,-141,-227,18,5
4580,8,-173,-145,-245,19,7
4585,7,-175,-143,-261,20,8
4590,13,-175,-147,-279,20,11
4595,14,-177,-147,-297,25,14
4600,13,-178,-143,-315,30,17
4605,11,-175,-148,-337,34,23
4610,12,-173,-145,-360,42,28
4615,16,-174,-147,-384,48,32
4620,13,-172,-146,-406,56,37
4625,16,-174,-144,-427,62,41
4630,12,-172,-149,-443,65,46
4635,16,-170,-150,-461,67,51
4640,18,-170,-147,-476,67,55
4645,14,-164,-147,-491,67,59
4650,14,-159,-152,-508,66,63
4655,16,-156,-150,-522,65,69
4660,17,-154,-154,-539,62,75
4665,14,-150,-152,-554,59,81
4670,14,-145,-150,-569,54,84
4675,13,-145,-146,-586,47,88
4680,11,-142,-146,-605,41,89
4685,13,-133,-148,-625,34,89
4690,9,-134,-149,-647,26,85
4695,5,-131,-149,-671,18,82
4700,6,-129,-147,-696,10,76
4705,6,-124,-136,-718,1,68
4710,1,-127,-135,-736,-8,58
4715,0,-128,-130,-746,-21,49
4720,-4,-131,-125,-751,-34,39
4725,-2,-135,-121,-755,-44,28
4730,-7,-142,-119,-764,-51,15
4735,0,-147,-116,-776,-54,5
4740,0,-156,-112,-795,-51,-7
4745,3,-153,-120,-821,-44,-22
4750,4,-157,-127,-848,-30,-34
4755,2,-155,-130,-879,-11,-49
4760,5,-160,-141,-907,14,-62
4765,14,-166,-140,-928,43,-71
4770,18,-168,-142,-941,76,-80
4775,26,-175,-143,-944,107,-87
4780,28,-176,-148,-940,137,-94
4785,30,-174,-151,-934,161,-99
4790,30,-179,-155,-930,181,-101
4795,35,-180,-160,-922,195,-101
4800,31,-181,-164,-916,207,-100
4805,34,-178,-162,-909,218,-94
4810,37,-183,-165,-899,227,-84
4815,35,-182,-165,-886,232,-76
4820,37,-186,-164,-872,237,-65
4825,36,-189,-167,-859,237,-53
4830,33,-188,-166,-845,233,-43
4835,29,-185,-172,-833,227,-36
4840,26,-185,-172,-823,220,-32
4845,21,-180,-176,-813,213,-24
4850,14,-175,-175,-801,205,-16
4855,13,-176,-173,-781,197,-8
4860,12,-171,-172,-758,187,-2
4865,10,-172,-174,-736,178,0
4870,5,-171,-173,-719,167,-2
4875,4,-165,-171,-709,153,-7
4880,4,-162,-172,-707,142,-15
4885,2,-162,-179,-713,132,-23
4890,2,-157,-177,-722,126,-33
4895,7,-156,-178,-736,123,-42
4900,5,-153,-183,-750,121,-52
4905,6,-152,-185,-765,116,-62
4910,5,-154,-184,-779,109,-68
4915,7,-147,-189,-796,100,-75
4920,5,-154,-187,-817,86,-82
4925,7,-159,-199,-842,68,-90
4930,3,-153,-194,-871,48,-95
4935,4,-158,-201,-898,28,-99
4940,5,-160,-197,-925,9,-99
4945,5,-163,-201,-947,-7,-98
4950,4,-166,-204,-967,-24,-98
4955,4,-171,-203,-981,-40,-97
4960,4,-171,-213,-992,-57,-98
4965,10,-170,-214,-993,-72,-99
4970,11,-176,-218,-987,-82,-100
4975,9,-175,-217,-974,-91,-101
4980,7,-177,-220,-956,-96,-101
4985,13,-178,-220,-933,-99,-99
4990,18,-179,-219,-905,-97,-97
4995,20,-184,-218,-879,-93,-95
5000,20,-183,-221,-860,-86,-95
5005,25,-180,-227,-843,-79,-95
5010,23,-178,-225,-828,-69,-97
5015,26,-179,-225,-818,-58,-98
5020,28,-177,-227,-801,-45,-102
5025,22,-172,-228,-777,-32,-103
5030,28,-179,-227,-742,-20,-102
5035,29,-174,-220,-708,-11,-101
5040,29,-173,-229,-677,-4,-102
5045,29,-176,-228,-654,0,-106
5050,26,-174,-232,-640,3,-112
5055,25,-169,-234,-633,5,-115
5060,23,-168,-236,-630,9,-116
5065,24,-164,-235,-623,10,-117
5070,23,-163,-233,-610,13,-115
5075,22,-162,-234,-590,12,-110
5080,21,-161,-239,-563,9,-108
5085,16,-151,-243,-532,8,-107
5090,15,-154,-243,-504,9,-106
5095,15,-150,-242,-472,12,-104
5100,17,-148,-243,-449,16,-102
5105,17,-147,-240,-430,24,-100
5110,20,-145,-237,-418,35,-99
5115,21,-148,-233,-409,47,-99
5120,21,-145,-234,-404,60,-101
5125,18,-144,-232,-402,70,-101
5130,23,-144,-231,-403,80,-102
5135,22,-145,-230,-401,87,-101
5140,24,-136,-233,-394,88,-100
5145,18,-136,-231,-383,88,-96
5150,24,-136,-234,-364,82,-95
5155,24,-138,-232,-340,75,-91
5160,30,-138,-229,-319,67,-86
5165,30,-137,-227,-294,58,-81
5170,25,-135,-224,-272,50,-76
5175,24,-136,-220,-250,41,-71
5180,22,-138,-225,-229,34,-67
5185,22,-136,-220,-212,28,-63
5190,19,-135,-220,-197,23,-59
5195,14,-138,-219,-181,16,-55
5200,13,-132,-214,-162,8,-51
5205,11,-131,-215,-137,2,-46
5210,11,-129,-213,-109,-6,-42
5215,10,-131,-206,-80,-14,-37
5220,7,-131,-206,-48,-23,-31
5225,9,-129,-205,-16,-31,-28
5230,11,-125,-201,14,-39,-24
5235,13,-126,-199,44,-44,-21
5240,13,-124,-201,69,-49,-18
5245,15,-124,-201,92,-53,-15
5250,14,-125,-198,111,-57,-14
5255,13,-125,-200,128,-60,-14
5260,16,-127,-196,143,-64,-10
5265,17,-126,-198,156,-66,-8
5270,15,-128,-197,169,-70,-8
5275,14,-127,-199,184,-73,-8
5280,17,-128,-197,199,-77,-10
5285,17,-128,-198,220,-81,-11
5290,16,-128,-203,242,-86,-11
5295,11,-125,-200,268,-92,-13
5300,14,-123,-204,292,-98,-13
5305,19,-125,-205,315,-103,-14
5310,14,-127,-199,338,-110,-14
5315,12,-118,-204,358,-115,-15
5320,13,-120,-207,372,-119,-16
5325,13,-117,-206,382,-121,-21
5330,11,-115,-207,385,-123,-27
5335,16,-113,-204,383,-123,-34
5340,14,-115,-203,380,-122,-40
5345,18,-117,-203,378,-120,-44
5350,15,-114,-208,376,-120,-49
5355,17,-116,-203,374,-120,-55
5360,20,-117,-206,373,-120,-56
5365,18,-117,-209,371,-122,-58
5370,18,-117,-212,371,-120,-60
5375,20,-115,-212,374,-119,-60
5380,20,-115,-214,376,-122,-63
5385,20,-119,-210,379,-124,-63
5390,19,-117,-212,383,-130,-67
5395,21,-115,-211,387,-136,-68
5400,20,-120,-211,391,-141,-70
5405,17,-120,-215,395,-146,-69
5410,19,-119,-225,396,-150,-67
5415,10,-114,-226,395,-154,-67
5420,14,-113,-222,393,-159,-68
5425,10,-109,-218,384,-161,-70
5430,8,-113,-219,373,-165,-74
5435,8,-110,-220,358,-168,-80
5440,6,-112,-220,341,-170,-87
5445,7,-112,-225,323,-171,-92
5450,8,-110,-225,306,-173,-98
5455,8,-114,-224,289,-173,-102
5460,10,-116,-228,269,-175,-106
5465,9,-116,-224,249,-175,-110
5470,14,-117,-229,227,-174,-113
5475,11,-118,-226,208,-170,-118
5480,14,-122,-229,191,-166,-124
5485,15,-124,-225,175,-159,-128
5490,19,-127,-227,159,-151,-131
5495,20,-127,-230,147,-141,-136
5500,22,-129,-227,140,-133,-139
5505,20,-129,-230,134,-125,-141
5510,16,-132,-230,131,-118,-141
5515,16,-134,-222,129,-113,-140
5520,17,-135,-225,127,-111,-139
5525,9,-139,-228,127,-110,-138
5530,12,-134,-223,128,-112,-137
5535,11,-140,-224,127,-117,-134
5540,10,-136,-224,126,-120,-134
5545,8,-136,-222,122,-127,-134
5550,4,-143,-223,118,-134,-135
5555,5,-142,-224,111,-142,-136
5560,1,-144,-222,106,-151,-141
5565,0,-145,-221,98,-160,-143
5570,1,-148,-221,91,-170,-145
5575,-2,-148,-216,83,-179,-145
5580,-4,-152,-223,78,-186,-145
5585,-1,-153,-214,75,-192,-143
5590,0,-151,-214,75,-199,-142
5595,-4,-154,-213,78,-202,-140
5600,0,-158,-215,82,-205,-137
5605,-2,-162,-212,87,-205,-134
5610,1,-164,-210,92,-202,-128
5615,3,-165,-211,99,-197,-122
5620,3,-169,-209,104,-194,-117
5625,5,-170,-207,111,-191,-112
5630,7,-172,-204,119,-193,-108
5635,5,-179,-201,130,-199,-106
5640,4,-178,-199,148,-207,-102
5645,5,-172,-202,168,-219,-98
5650,6,-170,-198,193,-232,-90
5655,1,-172,-202,219,-243,-84
5660,-1,-171,-206,243,-253,-75
5665,0,-174,-196,263,-261,-67
5670,-6,-170,-198,280,-267,-60
5675,-6,-172,-194,296,-271,-55
5680,-8,-174,-194,312,-270,-49
5685,-5,-172,-188,327,-265,-42
5690,-9,-176,-191,339,-260,-35
5695,-9,-172,-188,348,-254,-29
5700,-10,-171,-190,357,-248,-20
5705,-5,-175,-187,365,-243,-12
5710,-3,-170,-184,377,-237,-7
5715,-1,-174,-179,391,-230,-3
5720,-1,-173,-177,411,-225,1
5725,0,-175,-176,433,-218,5
5730,-1,-172,-177,460,-210,7
5735,-2,-175,-173,486,-200,8
5740,-6,-175,-171,511,-188,9
5745,-8,-172,-166,535,-176,12
5750,-8,-171,-163,560,-165,15
5755,-6,-172,-161,584,-158,17
5760,-6,-167,-155,603,-154,20
5765,-7,-164,-155,617,-152,22
5770,-8,-163,-152,624,-148,24
5775,-13,-160,-150,629,-146,27
5780,-12,-156,-150,636,-145,28
5785,-9,-151,-141,646,-145,29
5790,-8,-145,-134,661,-148,31
5795,-18,-147,-142,678,-153,35
5800,-13,-139,-128,696,-156,38
5805,-13,-136,-125,715,-160,42
5810,-15,-134,-122,733,-163,47
5815,-15,-130,-122,748,-168,56
5820,-16,-124,-115,765,-172,63
5825,-15,-119,-113,776,-177,70
5830,-10,-116,-106,782,-181,80
5835,-8,-110,-105,780,-185,89
5840,-6,-106,-105,769,-184,99
5845,-6,-100,-102,752,-182,105
5850,-1,-106,-92,738,-176,116
5855,-1,-101,-82,730,-166,125
5860,2,-99,-76,725,-151,133
5865,7,-100,-73,720,-134,140
5870,8,-97,-74,716,-115,143
5875,15,-94,-77,717,-98,145
5880,19,-88,-81,723,-88,149
5885,19,-81,-95,726,-77,155
5890,21,-73,-108,723,-60,157
5895,18,-69,-114,711,-39,162
5900,11,-56,-124,687,-16,169
5905,13,-51,-116,648,4,178
5910,6,-46,-113,598,23,184
5915,4,-44,-106,543,39,189
5920,0,-44,-98,486,50,197
5925,-1,-44,-91,428,54,203
5930,-5,-47,-83,372,52,210
5935,-16,-39,-87,315,45,211
5940,-13,-42,-91,250,37,213
5945,-23,-39,-97,176,30,216
5950,-30,-40,-95,100,20,218
5955,-31,-41,-104,27,6,219
5960,-36,-44,-93,-38,-19,220
5965,-41,-37,-101,-96,-50,219
5970,-45,-36,-107,-150,-87,218
5975,-50,-34,-112,-208,-123,222
5980,-49,-36,-119,-274,-158,226
5985,-46,-34,-126,-349,-195,234
5990,-43,-30,-132,-433,-234,243
5995,-35,-31,-137,-526,-280,254
6000,-27,-28,-147,-628,-328,261
6005,-15,-31,-154,-741,-383,270
6010,-13,-27,-171,-857,-435,279
6015,-8,-32,-183,-973,-481,288
6020,8,-27,-194,-1085,-521,292
6025,17,-29,-207,-1191,-545,295
6030,22,-28,-223,-1298,-549,292
6035,24,-27,-231,-1406,-534,287
6040,25,-33,-249,-1509,-500,280
6045,23,-38,-259,-1607,-459,271
6050,19,-48,-270,-1692,-417,255
6055,8,-55,-280,-1762,-368,238
6060,2,-64,-285,-1819,-317,217
6065,-12,-70,-300,-1862,-268,189
6070,-25,-81,-304,-1905,-225,155
6075,-33,-93,-311,-1945,-195,120
6080,-51,-101,-320,-1987,-182,88
6085,-56,-105,-321,-2036,-182,60
6090,-66,-114,-335,-2105,-191,43
6095,-79,-126,-344,-2189,-225,17
6100,-82,-129,-365,-2277,-275,-12
6105,-82,-132,-367,-2368,-331,-36
6110,-87,-137,-379,-2460,-385,-53
6115,-76,-143,-384,-2553,-436,-56
6120,-75,-145,-397,-2640,-477,-54
6125,-63,-145,-415,-2722,-514,-46
6130,-52,-143,-426,-2793,-540,-30
6135,-49,-145,-440,-2857,-556,-9
6140,-41,-138,-449,-2920,-560,16
6145,-36,-135,-470,-2986,-551,42
6150,-21,-130,-487,-3058,-528,73
6155,-13,-123,-493,-3127,-481,108
6160,-4,-118,-506,-3187,-413,145
6165,1,-104,-505,-3228,-325,178
6170,1,-105,-502,-3249,-220,208
6175,3,-103,-506,-3245,-108,239
6180,5,-110,-501,-3221,7,275
6185,2,-119,-482,-3190,117,313
6190,-16,-130,-461,-3163,215,346
6195,-25,-148,-441,-3142,298,371
6200,-42,-168,-417,-3129,364,377
6205,-47,-173,-395,-3118,411,364
6210,-62,-180,-371,-3102,443,333
6215,-71,-190,-351,-3073,456,287
6220,-75,-191,-324,-3027,456,237
6225,-83,-193,-304,-2967,442,188
6230,-77,-190,-294,-2890,413,140
6235,-77,-183,-269,-2807,377,99
6240,-71,-175,-256,-2724,330,57
6245,-65,-163,-244,-2647,276,33
6250,-55,-143,-232,-2578,224,19
6255,-47,-121,-222,-2517,175,19
6260,-35,-106,-223,-2472,134,32
6265,-27,-91,-216,-2438,101,59
6270,-17,-83,-210,-2414,91,92
6275,-11,-81,-203,-2395,104,131
6280,-4,-73,-194,-2361,136,168
6285,0,-76,-180,-2307,189,197
6290,2,-81,-172,-2218,259,214
6295,4,-86,-174,-2128,346,225
6300,4,-82,-177,-2024,440,236
6305,10,-78,-178,-1913,532,252
6310,10,-70,-186,-1795,627,285
6315,6,-56,-193,-1691,727,335
6320,9,-47,-197,-1582,835,403
6325,13,-33,-198,-1475,941,474
6330,9,-24,-205,-1390,1038,545
6335,22,-15,-199,-1336,1140,597
6340,26,-16,-185,-1299,1237,641
6345,27,-19,-181,-1277,1332,677
6350,27,-19,-176,-1271,1423,700
6355,24,-12,-171,-1290,1502,708
6360,14,-5,-172,-1336,1559,700
6365,4,1,-167,-1385,1594,689
6370,0,0,-167,-1429,1615,680
6375,-6,4,-157,-1455,1625,678
6380,-8,6,-148,-1462,1630,684
6385,-18,14,-151,-1455,1631,701
6390,-11,4,-146,-1431,1645,730
6395,-14,5,-151,-1391,1672,765
6400,-16,11,-149,-1340,1709,800
6405,-10,22,-151,-1284,1746,829
6410,0,31,-157,-1222,1777,848
6415,3,49,-165,-1176,1794,856
6420,4,60,-167,-1155,1810,862
6425,9,71,-170,-1159,1830,865
6430,5,83,-173,-1172,1857,861
6435,10,98,-176,-1184,1883,846
6440,-3,103,-182,-1192,1890,821
6445,-16,105,-174,-1193,1867,789
6450,-28,101,-167,-1178,1817,739
6455,-40,84,-157,-1121,1746,671
6460,-49,69,-149,-1014,1663,601
6465,-61,56,-152,-863,1578,541
6470,-65,44,-159,-694,1504,490
6475,-66,36,-156,-535,1436,443
6480,-64,39,-172,-360,1358,406
6485,-59,52,-172,-192,1264,373
6490,-45,80,-195,-38,1155,348
6495,-29,110,-210,81,1035,333
6500,-8,137,-223,157,904,324
6505,22,164,-224,201,772,322
6510,56,192,-233,274,634,340
6515,86,223,-234,339,498,359
6520,107,250,-242,379,370,372
6525,129,271,-239,386,252,381
6530,151,295,-239,367,157,389
6535,162,307,-234,324,105,396
6540,174,314,-234,272,90,407
6545,171,318,-229,203,110,420
6550,174,318,-224,122,162,440
6555,170,308,-222,38,237,468
6560,169,297,-217,-44,327,498
6565,171,284,-217,-121,423,542
6570,172,273,-212,-189,521,592
6575,173,263,-218,-242,610,639
6580,170,247,-219,-275,679,681
6585,168,233,-232,-286,736,718
6590,163,225,-232,-283,786,749
6595,161,247,-242,-257,815,753
6600,226,336,-267,-152,802,702
6605,241,386,-290,87,699,546
6610,218,365,-260,429,573,433
6615,172,305,-230,732,545,395
6620,166,255,-208,943,586,450
6625,160,260,-209,1090,673,461
6630,145,240,-212,1034,810,464
6635,165,243,-211,850,932,548
6640,184,264,-224,625,1025,515
6645,149,230,-204,416,1076,450
6650,153,220,-230,310,1073,426
6655,151,197,-242,209,1092,437
6660,163,195,-253,111,1148,503
6665,181,232,-278,-21,1255,546
6670,183,239,-276,-126,1391,559
6675,163,228,-259,-194,1543,569
6680,165,229,-260,-185,1694,609
6685,187,193,-269,-166,1776,637
6690,169,191,-268,-150,1803,707
6695,184,183,-269,-195,1819,769
6700,197,165,-270,-277,1833,823
6705,158,166,-256,-374,1849,861
6710,190,182,-245,-476,1845,885
6715,173,184,-245,-546,1838,885
6720,191,197,-251,-589,1837,897
6725,181,203,-232,-637,1821,882
6730,166,201,-210,-681,1792,869
6735,169,196,-199,-740,1767,868
6740,160,208,-184,-806,1774,884
6745,174,203,-174,-908,1768,889
6750,160,211,-166,-980,1758,914
6755,181,221,-159,-997,1703,919
6760,158,210,-158,-958,1631,870
6765,174,206,-140,-939,1605,888
6770,167,195,-139,-889,1541,915
6775,167,199,-147,-830,1466,912
6780,173,209,-143,-763,1371,906
6785,172,208,-137,-707,1276,875
6790,173,209,-132,-651,1189,850
6795,173,198,-122,-594,1098,825
6800,169,198,-117,-526,1006,798
6805,171,191,-110,-463,926,772
6810,162,187,-108,-403,853,732
6815,158,180,-97,-342,791,690
6820,162,178,-87,-283,735,637
6825,159,168,-81,-231,689,588
6830,163,160,-75,-206,659,559
6835,166,158,-77,-191,628,528
6840,172,158,-75,-169,595,483
6845,178,156,-76,-154,570,436
6850,184,153,-78,-134,554,395
6855,192,148,-77,-112,549,357
6860,208,139,-74,-75,556,324
6865,222,139,-75,-26,579,286
6870,218,143,-71,37,616,254
6875,210,149,-76,68,633,247
6880,203,155,-77,63,618,243
6885,202,152,-65,23,589,244
6890,202,149,-62,-29,561,250
6895,202,144,-58,-80,530,261
6900,203,139,-49,-118,503,270
6905,197,129,-48,-141,475,282
6910,186,123,-48,-149,446,288
6915,184,109,-59,-158,413,300
6920,184,94,-65,-174,392,317
6925,181,82,-75,-187,390,340
6930,177,71,-77,-188,392,359
6935,171,65,-80,-173,394,368
6940,173,55,-90,-143,386,375
6945,172,42,-101,-99,382,375
6950,175,39,-110,-51,371,366
6955,187,36,-113,2,365,346
6960,189,30,-114,69,362,322
6965,190,26,-112,142,355,297
6970,191,42,-117,200,333,272
6975,194,40,-116,248,307,256
6980,201,45,-113,290,276,236
6985,200,50,-115,333,247,227
6990,199,57,-113,370,222,219
6995,200,62,-114,397,196,207
7000,209,65,-113,416,169,197
7005,207,73,-113,432,138,190
7010,203,74,-118,434,95,185
7015,205,74,-120,435,46,176
7020,205,75,-119,430,8,163
7025,197,76,-126,421,-19,147
7030,201,80,-119,411,-35,131
7035,201,79,-126,403,-44,119
7040,202,74,-130,399,-50,106
7045,197,78,-135,400,-47,92
7050,204,80,-143,401,-44,83
7055,202,79,-145,390,-32,79
7060,201,82,-149,379,-25,76
7065,200,80,-157,375,-24,64
7070,210,79,-158,369,-22,53
7075,215,81,-159,355,-21,48
7080,217,78,-155,335,-27,44
7085,215,78,-156,312,-41,39
7090,217,82,-156,287,-63,37
7095,223,73,-158,268,-82,35
7100,223,81,-160,257,-101,22
7105,222,80,-157,254,-118,10
7110,223,74,-157,248,-129,-1
7115,220,72,-150,245,-140,-13
7120,215,71,-148,243,-146,-25
7125,213,70,-152,234,-151,-38
7130,216,69,-149,227,-155,-59
7135,215,72,-150,222,-149,-80
7140,210,68,-154,210,-138,-94
7145,211,74,-152,186,-132,-106
7150,214,73,-152,167,-127,-121
7155,212,80,-148,151,-123,-136
7160,217,78,-147,144,-123,-152
7165,207,78,-150,144,-124,-167
7170,206,79,-149,134,-127,-171
7175,204,74,-148,124,-128,-177
7180,205,77,-150,116,-129,-184
7185,201,73,-149,115,-133,-196
7190,199,71,-144,121,-137,-209
7195,200,68,-142,126,-146,-225
7200,197,70,-145,136,-156,-242
7205,196,71,-142,144,-164,-259
7210,194,71,-139,157,-170,-276
7215,195,68,-141,174,-175,-292
7220,196,71,-141,190,-180,-308
7225,194,72,-141,201,-185,-326
7230,192,73,-138,200,-190,-344
7235,194,77,-142,195,-194,-360
7240,191,82,-142,183,-196,-369
7245,193,80,-132,174,-201,-374
7250,189,83,-139,164,-204,-375
7255,195,78,-141,150,-203,-374
7260,193,83,-141,137,-203,-373
7265,193,82,-145,126,-201,-373
7270,191,78,-138,118,-198,-372
7275,189,80,-141,110,-196,-375
7280,192,80,-141,100,-197,-377
7285,191,75,-141,92,-199,-381
7290,193,76,-139,86,-202,-382
7295,189,74,-138,83,-207,-385
7300,194,74,-140,84,-214,-388
7305,186,68,-139,95,-220,-388
7310,188,70,-144,111,-226,-390
7315,188,75,-148,129,-232,-392
7320,192,78,-152,145,-237,-390
7325,190,79,-153,149,-243,-393
7330,186,81,-157,164,-241,-391
7335,190,85,-156,179,-238,-387
7340,193,91,-165,192,-232,-382
7345,191,90,-153,196,-227,-378
7350,189,93,-160,199,-226,-366
7355,192,96,-158,188,-234,-358
7360,191,101,-156,175,-235,-343
7365,185,100,-157,176,-232,-334
7370,190,106,-164,168,-228,-325
7375,186,111,-159,156,-224,-318
7380,190,111,-161,141,-219,-311
7385,186,110,-156,127,-220,-305
7390,186,109,-150,124,-225,-298
7395,183,110,-153,119,-231,-292
7400,179,112,-149,114,-233,-289
7405,179,117,-147,113,-230,-286
7410,178,114,-148,124,-223,-282
7415,185,107,-156,139,-217,-280
7420,185,113,-150,140,-216,-279
7425,186,117,-160,122,-222,-275
7430,185,120,-149,108,-227,-267
7435,179,119,-153,120,-223,-260
7440,183,124,-153,140,-218,-247
7445,182,121,-158,163,-218,-238
7450,182,121,-159,173,-221,-226
7455,183,120,-160,167,-229,-217
7460,175,119,-159,151,-234,-210
7465,181,121,-159,141,-235,-201
7470,174,114,-161,133,-230,-194
7475,179,121,-158,115,-228,-191
7480,179,121,-159,99,-225,-190
7485,181,123,-159,81,-220,-184
7490,174,124,-162,65,-216,-176
7495,175,123,-157,55,-211,-167
7500,177,117,-161,52,-211,-153
7505,177,117,-154,53,-210,-139
7510,175,112,-158,53,-205,-123
7515,175,110,-162,57,-196,-112
7520,174,108,-162,66,-188,-107
7525,175,107,-166,69,-181,-99
7530,178,106,-157,71,-176,-92
7535,174,102,-157,73,-174,-86
7540,172,104,-158,80,-176,-81
7545,172,102,-160,86,-180,-77
7550,174,105,-162,87,-180,-73
7555,171,107,-163,87,-179,-67
7560,172,105,-161,90,-177,-60
7565,173,102,-155,94,-177,-55
7570,169,103,-159,98,-177,-48
7575,173,102,-162,102,-177,-42
7580,167,101,-164,106,-177,-36
7585,167,103,-163,112,-177,-30
7590,170,102,-161,116,-174,-23
7595,168,104,-165,119,-172,-19
7600,172,102,-162,125,-170,-14
7605,168,104,-166,131,-168,-7
7610,170,103,-167,135,-164,-1
7615,167,103,-164,137,-161,2
7620,168,99,-162,139,-156,8
7625,168,100,-166,142,-151,12
7630,169,101,-170,144,-146,15
7635,168,99,-166,143,-139,17
7640,170,103,-165,140,-131,19
7645,169,101,-167,137,-121,20
7650,168,98,-170,136,-109,21
7655,168,98,-174,131,-100,19
7660,165,102,-173,129,-89,20
7665,172,97,-175,130,-78,22
7670,173,100,-171,130,-67,23
7675,173,100,-175,130,-52,25
7680,170,103,-177,128,-38,29
7685,175,98,-167,128,-25,32
7690,170,101,-174,125,-12,33
7695,172,99,-178,120,0,36
7700,172,100,-173,117,10,38
7705,172,101,-174,112,20,38
7710,171,98,-173,106,29,38
7715,171,101,-177,101,37,39
7720,170,98,-173,96,44,37
7725,174,98,-177,91,51,38
7730,176,96,-176,86,58,36
7735,175,100,-174,82,62,33
7740,182,100,-178,79,67,31
7745,174,99,-174,76,73,28
7750,173,99,-175,73,79,29
7755,170,99,-172,71,84,31
7760,174,98,-169,69,92,29
7765,173,97,-171,67,98,28
7770,173,96,-172,65,103,30
7775,174,100,-172,62,110,27
7780,174,96,-174,60,116,26
7785,172,96,-164,56,121,24
7790,175,97,-170,52,124,23
7795,179,95,-167,50,126,19
7800,175,98,-166,48,126,17
7805,177,96,-165,47,127,15
7810,176,96,-167,46,126,11
7815,175,97,-164,44,125,9
7820,173,100,-168,42,123,7
7825,174,98,-167,41,120,3
7830,175,95,-165,39,118,1
7835,175,96,-160,38,115,0
7840,175,98,-163,38,112,-1
7845,174,94,-165,39,111,-4
7850,175,98,-160,38,107,-5
7855,175,97,-160,38,104,-7
7860,172,100,-160,37,102,-8
7865,176,96,-157,37,97,-9
7870,173,99,-160,38,94,-10
7875,176,99,-159,38,90,-10
7880,176,98,-159,37,85,-11
7885,179,94,-160,37,80,-7
7890,175,93,-159,39,72,-5
7895,175,98,-160,40,67,-6
7900,177,99,-162,41,61,-6
7905,173,90,-160,42,56,-5
7910,176,96,-160,45,51,-2
7915,177,100,-162,46,47,-2
7920,174,97,-153,45,40,0
7925,176,98,-156,46,35,-2
7930,174,102,-158,44,29,-2
7935,175,99,-160,44,23,-2
7940,173,95,-162,44,18,-4
7945,174,96,-160,44,15,-4
7950,176,99,-156,44,11,-4
7955,171,99,-159,45,7,-4
7960,180,89,-157,47,4,-5
7965,173,98,-159,48,1,-4
7970,176,99,-162,52,-2,-4
7975,176,97,-161,53,-3,-4
7980,177,97,-161,57,-6,-4
7985,176,99,-159,59,-9,-3
7990,178,97,-163,58,-12,-4
7995,174,96,-162,57,-16,-5
8000,174,95,-165,55,-18,-7
8005,176,93,-163,54,-22,-9
8010,175,97,-162,53,-25,-13
8015,173,90,-165,49,-29,-15
8020,173,98,-161,48,-31,-17
8025,174,99,-162,49,-33,-17
8030,174,97,-164,49,-35,-17
8035,169,101,-165,50,-36,-19
8040,174,100,-168,51,-37,-20
8045,175,98,-167,52,-37,-19
8050,174,98,-166,54,-36,-19
8055,174,98,-164,53,-35,-18
8060,174,96,-168,53,-32,-18
8065,173,97,-168,51,-31,-20
8070,174,94,-167,50,-27,-20
8075,175,96,-166,50,-25,-21
8080,177,97,-170,49,-23,-22
8085,173,94,-168,48,-19,-24
8090,176,100,-169,46,-14,-23
8095,173,100,-169,46,-9,-23
8100,176,99,-168,43,-6,-23
8105,172,100,-171,43,-2,-23
8110,175,97,-166,42,4,-25
8115,175,95,-167,42,8,-25
8120,175,100,-169,42,11,-24
8125,169,98,-165,41,14,-23
8130,171,101,-166,41,16,-23
8135,174,99,-163,42,18,-23
8140,171,100,-163,41,16,-23
8145,173,100,-165,41,16,-24
8150,173,102,-161,42,15,-23
8155,173,98,-162,43,16,-22
8160,171,101,-168,43,16,-22
8165,171,100,-164,44,17,-18
8170,174,98,-164,46,17,-21
8175,172,94,-160,47,17,-18
8180,172,98,-162,48,17,-17
8185,175,99,-161,51,15,-19
8190,176,100,-164,51,14,-17
8195,173,97,-163,51,13,-18
8200,173,96,-163,49,12,-17
8205,170,98,-162,49,13,-17
8210,172,101,-166,48,12,-17
8215,174,98,-164,46,11,-17
8220,174,101,-162,46,11,-15
8225,176,99,-167,51,12,-15
8230,172,99,-164,52,13,-13
8235,172,99,-165,54,12,-14
8240,173,101,-164,56,13,-11
8245,174,101,-164,58,11,-10
8250,175,97,-166,60,10,-8
8255,175,97,-161,61,11,-8
8260,175,97,-166,61,12,-8
8265,174,96,-163,63,12,-8
8270,171,100,-165,62,12,-7
8275,173,97,-165,62,13,-8
8280,173,99,-167,60,14,-9
8285,175,100,-158,58,14,-10
8290,174,99,-163,56,14,-10
8295,175,97,-161,54,14,-13
8300,175,100,-167,52,13,-13
8305,172,98,-161,51,12,-13
8310,172,100,-163,51,13,-13
8315,175,100,-159,52,10,-14
8320,175,99,-164,52,8,-12
8325,176,102,-164,53,7,-12
8330,175,96,-163,52,7,-14
8335,176,101,-162,52,6,-14
8340,174,96,-168,53,6,-14
8345,175,98,-166,52,6,-13
8350,176,99,-165,53,5,-13
8355,174,99,-162,53,6,-12
8360,174,101,-168,51,6,-12
8365,173,98,-161,50,6,-14
8370,171,96,-162,49,5,-15
8375,171,96,-161,49,4,-14
8380,178,91,-161,47,3,-15
8385,176,95,-158,48,2,-14
8390,171,98,-166,49,0,-14
8395,177,93,-165,50,-1,-16
8400,172,96,-162,50,-3,-17
8405,171,98,-164,50,-4,-18
8410,176,99,-165,47,-6,-19
8415,172,97,-162,46,-6,-20
8420,174,98,-164,45,-7,-22
8425,168,99,-162,44,-8,-23
8430,169,100,-165,42,-8,-23
8435,177,95,-164,39,-8,-23
8440,172,96,-164,37,-9,-27
8445,174,98,-165,35,-10,-27
8450,177,96,-164,33,-11,-28
8455,173,101,-165,34,-11,-27
8460,171,102,-165,34,-12,-27
8465,175,97,-161,33,-14,-25
8470,172,100,-162,32,-16,-27
8475,173,98,-161,32,-17,-28
8480,173,98,-162,32,-19,-28
8485,175,100,-163,32,-19,-28
8490,177,100,-160,33,-23,-30
8495,176,97,-161,32,-23,-29
8500,170,100,-164,33,-25,-31
8505,169,97,-165,33,-25,-29
8510,173,97,-165,34,-26,-29
8515,173,102,-165,34,-25,-30
8520,174,96,-163,35,-23,-31
8525,173,98,-166,38,-21,-29
8530,173,100,-164,40,-20,-30
8535,171,100,-166,41,-19,-30
8540,175,96,-159,40,-19,-29
8545,175,101,-163,40,-18,-30
8550,172,101,-163,39,-19,-28
8555,176,100,-163,39,-21,-29
8560,172,99,-167,37,-24,-29
8565,173,101,-164,39,-26,-29
8570,173,99,-161,41,-29,-29
8575,174,99,-166,42,-32,-29
8580,170,100,-167,43,-32,-28
8585,173,100,-165,45,-32,-29
8590,169,101,-165,48,-31,-27
8595,175,95,-162,48,-30,-26
8600,172,97,-165,50,-28,-25
8605,174,98,-167,49,-27,-26
8610,171,103,-171,50,-25,-27
8615,173,95,-163,48,-25,-25
8620,171,102,-162,48,-23,-25
8625,172,99,-168,48,-22,-26
8630,171,101,-168,46,-21,-25
8635,173,101,-169,47,-20,-23
8640,174,99,-166,48,-19,-24
8645,176,95,-167,50,-19,-22
8650,172,102,-168,49,-18,-23
8655,169,103,-164,48,-17,-24
8660,171,98,-163,47,-17,-25
8665,177,102,-166,46,-15,-24
8670,175,99,-167,47,-13,-24
8675,173,99,-167,46,-13,-24
8680,169,102,-170,46,-12,-24
8685,170,102,-162,47,-11,-24
8690,170,100,-165,47,-9,-23
8695,169,99,-163,49,-9,-22
8700,172,100,-168,48,-7,-20
8705,169,101,-172,46,-5,-19
8710,171,107,-166,46,-4,-20
8715,172,96,-168,45,-3,-19
8720,170,102,-167,45,-3,-19
8725,171,101,-166,44,-2,-20
8730,171,99,-171,44,-3,-17
8735,171,101,-168,44,-2,-18
8740,172,99,-165,45,-2,-18
8745,170,100,-164,45,-2,-19
8750,172,99,-167,46,-3,-18
8755,170,96,-164,46,-4,-17
8760,169,100,-164,44,-3,-16
8765,171,100,-167,46,-3,-17
8770,169,102,-165,46,-3,-16
8775,166,97,-172,46,-3,-17
8780,170,101,-167,45,-3,-16
8785,170,99,-165,45,-2,-17
8790,173,97,-163,46,-1,-17
8795,172,100,-169,46,-1,-17
8800,173,99,-166,45,0,-16
8805,170,99,-166,47,1,-16
8810,172,102,-164,49,1,-14
8815,171,99,-172,49,3,-12
8820,174,101,-170,51,4,-13
8825,171,104,-165,52,5,-13
8830,173,95,-171,52,6,-12
8835,169,103,-169,53,6,-12
8840,173,100,-168,54,5,-11
8845,171,101,-165,53,5,-12
8850,169,101,-167,54,6,-11
8855,170,102,-171,53,6,-11
8860,169,99,-170,52,7,-12
8865,172,98,-163,51,7,-10
8870,172,99,-166,50,8,-9
8875,171,96,-167,49,11,-10
8880,172,103,-168,48,13,-9
8885,176,95,-170,49,16,-8
8890,171,100,-168,50,19,-8
8895,172,100,-163,50,21,-7
8900,171,103,-162,49,22,-8
8905,171,100,-166,48,23,-7
8910,170,103,-165,49,22,-7
8915,171,101,-169,48,21,-7
8920,175,98,-166,50,21,-7
8925,171,101,-163,51,21,-7
8930,172,100,-169,51,21,-8
8935,170,99,-165,52,21,-8
8940,168,106,-162,53,20,-7
8945,169,99,-166,52,19,-7
8950,171,99,-166,51,19,-8
8955,169,98,-164,51,20,-9
8960,170,103,-161,50,18,-8
8965,170,99,-165,49,19,-10
8970,168,100,-166,50,20,-10
8975,171,100,-164,50,19,-9
8980,171,99,-166,50,17,-10
8985,171,102,-167,52,17,-10
8990,173,98,-165,54,16,-11
8995,171,97,-166,53,14,-9
9000,170,102,-167,54,15,-11
9005,172,100,-167,53,16,-10
9010,172,100,-163,52,15,-10
9015,171,100,-162,51,15,-10
9020,173,100,-164,50,16,-12
9025,170,101,-167,51,16,-11
9030,171,100,-163,50,15,-10
9035,168,101,-164,52,16,-11
9040,173,99,-161,52,14,-10
9045,172,98,-166,53,14,-10
9050,167,100,-168,54,13,-8
9055,172,100,-166,54,12,-9
9060,173,100,-164,55,13,-11
9065,169,101,-169,55,13,-11
9070,173,100,-165,55,13,-8
9075,169,99,-165,54,14,-9
9080,171,101,-168,53,15,-10
9085,168,101,-167,52,15,-11
9090,172,105,-164,51,15,-11
9095,173,102,-166,50,16,-13
9100,171,99,-168,49,17,-13
9105,168,93,-160,49,17,-14
9110,170,102,-162,50,17,-14
9115,173,96,-164,51,15,-14
9120,167,104,-164,53,13,-16
9125,173,98,-167,51,9,-15
9130,171,101,-162,53,7,-15
9135,171,101,-164,55,5,-16
9140,175,102,-161,54,3,-16
9145,172,98,-168,53,0,-17
9150,170,103,-167,48,-4,-15
9155,170,103,-163,53,1,-14
9160,170,100,-163,56,4,-14
9165,169,100,-164,56,5,-14
9170,173,103,-165,55,5,-15
9175,170,101,-170,54,6,-16
9180,172,99,-165,54,6,-16
9185,172,99,-167,54,6,-17
9190,170,102,-164,53,5,-17
9195,169,100,-166,53,5,-16
9200,172,100,-168,52,3,-16
9205,172,100,-162,54,3,-15
9210,168,102,-166,54,3,-15
9215,170,99,-163,55,3,-14
9220,171,99,-167,56,3,-15
9225,173,101,-163,57,5,-14
9230,174,103,-168,59,4,-13
9235,172,100,-168,59,5,-13
9240,171,99,-165,58,7,-13
9245,170,105,-166,58,7,-14
9250,169,103,-168,57,8,-13
9255,173,103,-169,56,8,-14
9260,169,105,-165,56,9,-14
9265,167,99,-163,55,9,-14
9270,171,100,-167,54,10,-12
9275,173,100,-166,54,9,-12
9280,169,101,-169,55,8,-12
9285,169,101,-167,55,9,-11
9290,170,102,-165,56,10,-10
9295,169,100,-164,58,11,-11
9300,170,102,-164,57,12,-10
9305,169,102,-168,56,12,-9
9310,172,98,-166,58,13,-9
9315,175,101,-167,57,13,-10
9320,170,98,-171,57,14,-10
9325,171,101,-166,55,15,-10
9330,171,101,-166,54,16,-8
9335,171,101,-168,55,18,-10
9340,172,98,-162,56,20,-10
9345,172,102,-168,53,20,-9
9350,170,100,-166,55,20,-10
9355,173,103,-167,55,19,-10
9360,171,99,-165,56,20,-10
9365,168,100,-169,56,19,-10
9370,170,103,-168,57,19,-10
9375,169,101,-162,57,20,-10
9380,172,99,-165,57,18,-10
9385,169,100,-165,55,18,-8
9390,170,104,-164,54,16,-9
9395,174,99,-167,54,15,-10
9400,168,102,-170,53,16,-12
9405,170,101,-164,52,16,-11
9410,169,99,-164,54,16,-11
9415,172,102,-169,53,15,-11
9420,171,100,-170,54,16,-11
9425,167,100,-164,55,17,-13
9430,176,96,-170,56,17,-13
9435,171,100,-163,52,15,-10
9440,171,100,-168,54,13,-12
9445,170,99,-166,56,14,-12
9450,172,103,-165,56,14,-11
9455,171,102,-167,57,13,-11
9460,172,99,-165,56,13,-12
9465,173,100,-168,56,12,-13
9470,172,102,-165,57,12,-14
9475,173,97,-167,57,10,-12
9480,173,99,-168,56,9,-12
9485,173,101,-169,53,7,-12
9490,170,101,-168,55,9,-11
9495,168,100,-169,57,9,-10
9500,170,101,-167,56,11,-10
9505,172,100,-165,57,11,-11
9510,172,101,-169,57,11,-13
9515,169,101,-163,58,11,-13
9520,173,96,-164,57,11,-12
9525,171,104,-160,58,11,-12
9530,171,99,-170,58,10,-12
9535,170,100,-166,59,10,-11
9540,168,97,-171,60,10,-9
9545,171,99,-167,60,10,-9
9550,171,99,-166,60,11,-10
9555,170,101,-164,61,12,-10
9560,171,102,-163,61,11,-11
9565,171,102,-167,60,11,-10
9570,171,101,-166,59,13,-12
9575,169,102,-167,59,13,-11
9580,175,96,-163,59,13,-11
9585,168,100,-163,60,13,-11
9590,167,98,-167,61,13,-10
9595,170,101,-166,59,13,-10
9600,172,100,-166,58,12,-13
9605,171,101,-164,58,13,-13
9610,174,100,-169,59,12,-13
9615,172,101,-165,59,12,-13
9620,170,101,-163,58,11,-13
9625,174,98,-165,58,10,-13
9630,171,99,-163,58,10,-14
9635,168,102,-165,58,11,-13
9640,172,101,-167,58,11,-12
9645,171,97,-167,58,12,-13
9650,169,96,-168,58,11,-12
9655,171,102,-167,57,11,-13
9660,172,99,-165,54,11,-13
9665,167,101,-171,55,11,-12
9670,171,99,-166,56,11,-13
9675,172,101,-166,55,12,-12
9680,169,98,-165,54,11,-12
9685,170,98,-164,54,11,-13
9690,170,99,-166,55,11,-11
9695,169,104,-170,54,11,-14
9700,172,96,-169,54,12,-15
9705,172,100,-167,56,11,-13
9710,173,100,-168,56,11,-15
9715,171,102,-168,54,10,-14
9720,169,100,-169,54,10,-14
9725,170,100,-164,54,11,-14
9730,171,100,-165,54,11,-15
9735,173,104,-165,48,11,-14
9740,172,99,-169,48,7,-17
9745,172,98,-167,46,5,-14
9750,170,101,-167,47,7,-14
9755,170,96,-167,50,9,-14
9760,172,101,-167,51,11,-14
9765,170,100,-168,53,12,-13
9770,169,99,-169,54,10,-13
9775,171,99,-168,56,11,-13
9780,169,103,-166,56,11,-12
9785,168,99,-163,57,10,-12
9790,171,98,-169,58,11,-13
9795,171,99,-167,57,12,-12
9800,168,100,-169,57,12,-12
9805,170,98,-169,58,13,-12
9810,171,99,-159,58,13,-14
9815,169,101,-170,58,14,-13
9820,172,97,-164,58,13,-13
9825,171,100,-164,57,14,-13
9830,170,100,-165,57,13,-13
9835,170,101,-168,58,12,-11
9840,172,99,-162,58,9,-11
9845,166,101,-168,55,7,-10
9850,170,99,-165,58,8,-9
9855,170,98,-163,57,8,-11
9860,171,101,-165,57,7,-14
9865,175,97,-167,52,-1,-11
9870,168,102,-167,43,-5,-13
9875,171,100,-164,55,2,-15
9880,172,103,-165,57,6,-16
9885,170,100,-163,56,6,-14
9890,170,102,-166,58,7,-17
9895,169,103,-167,57,5,-17
9900,170,98,-166,54,4,-16
9905,170,101,-164,54,5,-15
9910,170,101,-168,53,4,-15
9915,172,98,-167,51,4,-12
9920,168,97,-163,52,5,-12
9925,170,102,-167,52,6,-14
9930,170,101,-164,51,7,-13
9935,171,99,-166,51,7,-14
9940,170,101,-163,50,7,-13
9945,169,99,-167,51,7,-14
9950,173,101,-164,48,8,-13
9955,171,100,-169,50,8,-13
9960,172,99,-167,50,6,-13
9965,173,100,-162,50,6,-12
9970,175,101,-168,50,6,-12
9975,176,95,-164,50,5,-11
9980,170,102,-168,51,6,-12
9985,170,101,-163,51,6,-11
9990,172,100,-168,50,7,-12
9995,170,102,-167,49,9,-11
10000,171,101,-166,49,10,-11
10005,170,100,-167,49,11,-12
10010,174,98,-165,49,12,-12
10015,172,98,-165,49,12,-13
10020,169,102,-169,49,12,-11
10025,171,101,-168,49,12,-10
10030,168,100,-174,49,11,-11
10035,173,99,-164,50,10,-11
10040,172,101,-168,50,11,-9
10045,169,101,-165,48,10,-9
10050,169,100,-168,49,8,-10
10055,170,102,-168,50,9,-9
10060,169,102,-167,49,8,-12
10065,172,99,-166,50,9,-11
10070,170,100,-164,49,8,-10
10075,167,104,-168,49,8,-9
10080,168,99,-167,51,8,-10
10085,170,94,-168,51,8,-9
10090,171,99,-167,52,8,-9
10095,170,102,-163,52,8,-11
10100,173,99,-165,52,9,-10
10105,169,103,-168,52,7,-11
10110,172,98,-169,50,8,-11
10115,169,100,-163,50,9,-10
10120,170,99,-169,50,9,-10
10125,172,99,-166,49,9,-12
10130,169,102,-168,51,8,-12
10135,168,101,-170,52,10,-11
10140,165,101,-168,51,9,-10
10145,170,100,-168,51,9,-10
10150,171,99,-166,51,9,-10
10155,170,101,-164,53,10,-10
10160,172,101,-171,52,12,-9
10165,169,101,-165,51,12,-10
10170,171,101,-168,51,12,-10
10175,173,99,-164,51,11,-9
10180,174,99,-168,51,11,-11
10185,170,101,-168,51,11,-12
10190,165,100,-160,50,10,-10
10195,169,101,-170,51,9,-11
10200,172,100,-167,50,9,-9
10205,172,102,-166,50,9,-10
10210,170,96,-164,49,8,-11
10215,169,99,-169,49,8,-11
10220,170,101,-166,48,8,-12
10225,167,99,-165,48,9,-13
10230,170,100,-167,48,8,-12
10235,172,99,-168,49,8,-12
10240,169,98,-167,49,8,-13
10245,173,99,-166,47,8,-12
10250,170,99,-164,47,8,-12
10255,171,101,-165,47,8,-12
10260,171,102,-166,47,8,-13
10265,170,102,-167,48,7,-12
10270,172,99,-167,48,7,-12
10275,172,100,-167,49,7,-11
10280,172,99,-167,49,7,-12
10285,169,99,-164,50,4,-11
10290,168,101,-168,50,6,-10
10295,170,96,-167,51,4,-12
10300,166,104,-166,50,5,-11
10305,170,101,-166,51,4,-13
10310,173,99,-165,53,3,-12
10315,171,102,-168,53,3,-15
10320,172,98,-166,53,2,-12
10325,170,101,-167,54,3,-13
10330,172,96,-165,54,1,-13
10335,172,99,-168,54,2,-13
10340,169,105,-167,53,1,-12
10345,170,103,-164,53,2,-12
10350,172,100,-167,54,1,-13
10355,171,98,-167,56,1,-12
10360,171,100,-164,55,1,-12
10365,170,98,-167,55,0,-10
10370,169,98,-167,56,1,-10
10375,168,100,-166,57,1,-12
10380,170,98,-164,55,3,-12
10385,169,98,-166,54,3,-11
10390,173,96,-166,54,4,-12
10395,171,97,-166,56,5,-10
10400,169,100,-164,55,4,-10
10405,170,102,-165,54,2,-11
10410,167,100,-163,55,2,-11
10415,170,100,-166,55,1,-9
10420,173,103,-167,56,2,-9
10425,170,100,-166,56,2,-9
10430,171,100,-163,58,0,-9
10435,171,102,-170,57,1,-10
10440,167,104,-166,58,2,-9
10445,174,102,-166,58,3,-8
10450,172,103,-167,58,6,-8
10455,171,97,-167,58,7,-9
10460,168,101,-165,57,9,-6
10465,172,99,-167,57,8,-8
10470,169,100,-165,57,9,-8
10475,170,99,-169,56,9,-9
10480,173,101,-171,56,9,-9
10485,169,98,-167,55,8,-9
10490,170,99,-165,55,8,-8
10495,172,100,-165,54,11,-9
10500,169,99,-169,53,11,-8
10505,170,101,-170,52,10,-8
10510,171,98,-165,53,11,-10
10515,169,99,-168,52,11,-9
10520,169,98,-168,52,11,-10
10525,166,96,-170,54,10,-8
10530,171,97,-168,53,10,-9
10535,170,100,-169,52,11,-11
10540,170,104,-170,52,10,-9
10545,171,101,-165,52,11,-10
10550,169,103,-165,52,10,-10
10555,170,101,-170,51,9,-9
10560,172,102,-162,53,8,-8
10565,168,97,-166,54,10,-8
10570,171,99,-170,54,11,-7
10575,170,90,-165,55,10,-7
10580,169,101,-168,53,10,-8
10585,170,98,-165,54,11,-9
10590,168,99,-167,52,11,-8
10595,168,98,-165,51,12,-8
10600,169,101,-166,51,11,-8
10605,172,99,-168,51,13,-9
10610,169,99,-164,51,13,-9
10615,170,100,-168,51,12,-9
10620,168,102,-169,50,12,-9
10625,173,100,-162,50,10,-8
10630,164,100,-172,51,8,-9
10635,170,99,-167,50,8,-11
10640,171,99,-165,50,7,-11
10645,170,97,-163,50,5,-11
10650,169,100,-170,49,4,-13
10655,170,98,-169,48,4,-14
10660,166,98,-165,48,3,-14
10665,166,99,-169,48,5,-14
10670,171,97,-168,49,5,-13
10675,172,100,-169,47,5,-14
10680,169,98,-164,47,6,-15
10685,169,102,-171,47,5,-14
10690,169,100,-170,49,5,-14
10695,167,104,-167,49,5,-12
10700,168,100,-168,50,5,-12
10705,170,101,-165,50,5,-13
10710,171,101,-168,51,4,-13
10715,170,100,-165,51,4,-13
10720,168,102,-162,52,5,-12
10725,167,101,-163,53,5,-13
10730,168,101,-169,53,5,-13
10735,173,96,-160,52,6,-11
10740,168,102,-168,52,7,-11
10745,170,98,-165,51,7,-13
10750,170,101,-166,51,8,-11
10755,170,100,-170,50,9,-11
10760,170,100,-167,51,8,-12
10765,169,99,-168,51,9,-11
10770,167,101,-166,53,9,-12
10775,172,99,-166,53,10,-10
10780,169,100,-168,53,9,-10
10785,167,98,-166,54,9,-9
10790,170,100,-170,54,8,-10
10795,167,102,-166,55,10,-9
10800,173,98,-166,54,9,-8
10805,172,99,-171,54,11,-7
10810,169,103,-168,54,12,-7
10815,172,96,-168,54,13,-5
10820,171,99,-167,55,15,-5
10825,166,100,-162,53,15,-6
10830,171,102,-167,53,17,-5
10835,169,98,-163,53,19,-6
10840,168,97,-162,52,19,-6
10845,170,99,-165,52,20,-5
10850,172,97,-170,50,19,-6
10855,171,97,-169,50,19,-6
10860,171,99,-165,50,19,-7
10865,174,97,-168,50,19,-8
10870,169,100,-165,49,18,-7
10875,168,98,-167,49,19,-8
10880,172,102,-162,49,17,-8
10885,166,99,-172,50,17,-8
10890,169,99,-168,51,16,-9
10895,171,103,-166,49,17,-8
10900,169,111,-171,49,16,-7
10905,171,101,-170,48,18,-7
10910,168,102,-169,48,19,-10
10915,170,101,-169,48,19,-9
10920,172,100,-167,47,19,-8
10925,170,102,-169,47,20,-9
10930,170,100,-165,47,19,-9
10935,169,99,-165,46,19,-10
10940,170,101,-167,46,19,-11
10945,168,101,-172,46,19,-11
10950,169,98,-168,45,19,-12
10955,168,102,-173,44,18,-11
10960,170,99,-166,45,18,-12
10965,166,100,-168,47,19,-11
10970,169,101,-164,47,19,-12
10975,170,102,-164,47,18,-9
10980,173,96,-164,48,17,-10
10985,169,98,-165,49,17,-10
10990,169,101,-165,50,17,-9
10995,173,98,-167,49,18,-9
11000,171,99,-166,50,17,-9
11005,169,102,-170,50,16,-9
11010,165,98,-174,50,14,-7
11015,173,100,-165,49,15,-10
11020,171,102,-172,49,15,-9
11025,170,100,-168,51,14,-9
11030,168,101,-166,51,14,-10
11035,170,102,-168,51,15,-10
11040,172,101,-168,52,12,-10
11045,173,101,-165,52,13,-8
11050,167,100,-166,53,13,-8
11055,168,101,-165,51,13,-10
11060,167,100,-164,52,13,-10
11065,169,97,-167,52,13,-10
11070,167,102,-165,52,12,-9
11075,169,99,-165,52,12,-10
11080,168,102,-168,52,13,-7
11085,169,101,-166,53,13,-8
11090,170,100,-168,53,13,-6
11095,170,101,-163,53,12,-7
11100,170,101,-168,54,12,-8
11105,172,99,-167,53,11,-8
11110,170,98,-166,55,10,-9
11115,173,99,-168,53,10,-9
11120,171,96,-169,54,10,-9
11125,167,102,-167,54,10,-7
11130,169,100,-171,53,11,-8
11135,171,98,-169,53,11,-8
11140,168,100,-168,52,10,-7
11145,169,102,-168,52,11,-7
11150,167,98,-167,51,11,-8
11155,168,102,-171,52,13,-9
11160,172,99,-168,52,13,-7
11165,167,99,-165,54,13,-5
11170,170,103,-162,55,14,-5
11175,170,104,-172,54,14,-5
11180,171,101,-167,55,15,-5
11185,171,99,-171,55,15,-4
11190,171,100,-166,55,16,-4
11195,169,98,-167,53,16,-6
11200,170,102,-166,50,16,-7
11205,172,99,-170,52,15,-5
11210,167,99,-166,51,18,-6
11215,169,97,-169,51,19,-7
11220,172,96,-167,51,20,-8
11225,169,97,-168,50,21,-6
11230,172,98,-168,50,22,-7
11235,171,99,-168,49,21,-6
11240,169,102,-167,50,22,-7
11245,171,98,-167,50,22,-7
11250,171,98,-167,50,21,-8
11255,169,100,-164,50,20,-5
11260,170,100,-167,50,21,-6
11265,172,99,-170,52,20,-5
11270,170,98,-165,52,21,-6
11275,171,102,-168,51,21,-8
11280,178,99,-171,50,20,-7
11285,170,99,-167,49,22,-7
11290,171,100,-164,49,22,-8
11295,168,99,-169,47,22,-8
11300,172,100,-168,48,22,-9
11305,172,102,-160,48,23,-8
11310,171,100,-169,48,21,-8
11315,170,99,-164,46,21,-9
11320,171,101,-162,48,20,-9
11325,168,101,-168,47,19,-9
11330,171,100,-164,49,18,-10
11335,173,93,-173,50,16,-9
11340,172,102,-167,51,15,-9
11345,169,101,-167,50,15,-10
11350,168,99,-167,50,15,-10
11355,170,102,-167,51,15,-9
11360,173,101,-165,50,16,-8
11365,171,102,-164,50,16,-8
11370,168,99,-168,51,17,-8
11375,174,98,-164,51,16,-8
11380,167,101,-167,50,16,-9
11385,167,102,-164,50,17,-8
11390,170,94,-163,49,17,-7
11395,170,97,-165,50,16,-8
11400,168,103,-168,50,17,-9
11405,174,97,-166,51,16,-9
11410,172,99,-165,51,15,-10
11415,168,100,-161,51,15,-9
11420,173,98,-166,51,13,-9
11425,172,99,-163,51,13,-9
11430,167,99,-170,51,12,-10
11435,173,99,-165,51,11,-9
11440,169,99,-167,52,11,-10
11445,165,95,-176,53,10,-9
11450,170,100,-167,53,10,-9
11455,169,100,-164,53,9,-9
11460,172,102,-168,53,12,-9
11465,171,100,-165,52,12,-8
11470,172,98,-166,51,13,-9
11475,172,100,-166,51,13,-9
11480,171,102,-168,49,12,-9
11485,173,100,-161,51,13,-10
11490,171,97,-166,49,13,-10
11495,168,103,-163,50,13,-11
11500,174,103,-161,50,11,-11
11505,173,100,-166,50,12,-12
11510,170,100,-169,49,11,-10
11515,169,100,-163,49,9,-11
11520,173,100,-166,51,9,-12
11525,171,99,-166,52,8,-11
11530,169,101,-164,51,9,-10
11535,168,100,-166,50,9,-10
11540,170,102,-166,49,11,-12
11545,168,100,-163,48,11,-11
11550,171,104,-170,48,11,-9
11555,169,101,-165,50,11,-10
11560,168,102,-170,50,11,-11
11565,168,100,-168,51,10,-9
11570,170,101,-164,52,11,-8
11575,173,95,-166,53,12,-8
11580,169,103,-168,53,12,-8
11585,168,97,-166,53,13,-7
11590,170,99,-166,53,11,-8
11595,173,101,-164,53,12,-8
11600,171,97,-170,54,13,-10
11605,170,103,-169,53,13,-10
11610,171,96,-166,53,14,-8
11615,169,99,-165,53,15,-8
11620,168,100,-170,51,17,-7
11625,169,100,-168,52,18,-7
11630,172,98,-169,52,19,-9
11635,172,101,-168,52,19,-8
11640,170,99,-164,51,18,-7
11645,171,100,-168,51,17,-6
11650,167,102,-163,52,17,-9
11655,173,95,-163,51,15,-7
11660,174,100,-163,51,15,-8
11665,171,98,-166,50,14,-10
11670,171,98,-166,48,9,-10
11675,170,99,-166,49,11,-9
11680,170,98,-164,51,13,-9
11685,170,99,-169,50,14,-8
11690,171,102,-167,51,16,-7
11695,172,99,-168,52,15,-8
11700,171,100,-165,51,16,-8
11705,174,102,-164,52,15,-8
11710,174,98,-168,52,14,-8
11715,170,99,-169,52,15,-8
11720,168,99,-166,53,15,-7
11725,171,99,-168,53,15,-7
11730,169,101,-168,53,17,-8
11735,172,99,-164,53,17,-9
11740,173,100,-165,53,16,-9
11745,171,104,-167,53,14,-9
11750,173,98,-166,54,15,-10
11755,172,101,-168,53,15,-10
11760,168,101,-165,52,15,-11
11765,171,99,-166,52,15,-10
11770,169,101,-168,52,14,-10
11775,169,100,-164,50,13,-10
11780,169,101,-168,50,14,-10
11785,171,100,-166,51,13,-9
11790,172,100,-166,51,14,-10
11795,172,101,-168,52,12,-12
11800,172,98,-164,51,11,-11
11805,173,96,-165,51,11,-11
11810,175,101,-167,51,11,-10
11815,172,98,-167,52,11,-10
11820,169,98,-166,52,10,-11
11825,168,101,-160,52,11,-10
11830,171,100,-164,53,12,-10
11835,169,100,-166,53,12,-7
11840,173,99,-167,53,13,-8
11845,170,102,-163,53,14,-8
11850,171,99,-161,53,13,-8
11855,171,101,-169,52,13,-9
11860,172,97,-168,53,12,-10
11865,174,97,-166,52,12,-10
11870,172,100,-166,49,12,-10
11875,171,98,-167,49,12,-12
11880,173,95,-169,48,11,-13
11885,172,100,-166,48,11,-13
11890,171,97,-167,47,11,-15
11895,170,99,-169,48,10,-14
11900,171,99,-166,48,10,-14
11905,171,100,-170,49,10,-14
11910,171,100,-166,49,10,-14
11915,168,100,-170,49,10,-14
11920,172,96,-170,49,10,-13
11925,169,98,-167,51,10,-13
11930,168,96,-165,51,11,-12
11935,173,94,-174,50,12,-11
11940,169,99,-169,49,14,-12
11945,167,99,-170,48,17,-11
11950,171,101,-167,47,17,-12
11955,173,97,-165,47,16,-12
11960,168,101,-166,48,16,-12
11965,170,102,-167,47,17,-11
11970,173,93,-166,47,15,-11
11975,172,98,-171,48,15,-11
11980,166,100,-164,50,15,-9
11985,170,101,-164,50,14,-10
11990,168,102,-163,51,15,-10
11995,169,98,-167,51,15,-7
12000,170,101,-169,52,15,-8
12005,169,101,-167,52,14,-8
12010,172,102,-167,52,14,-8
12015,172,100,-168,52,13,-10
12020,171,103,-166,52,13,-9
12025,171,100,-167,52,12,-9
12030,173,101,-168,52,12,-9
12035,172,102,-167,52,12,-9
12040,174,97,-168,52,13,-9
12045,175,97,-160,52,12,-9
12050,172,99,-168,53,13,-9
12055,168,102,-169,53,12,-10
12060,172,98,-164,53,12,-8
12065,169,101,-168,53,13,-9
12070,171,100,-168,52,13,-9
12075,169,101,-167,53,14,-10
12080,171,101,-164,53,13,-9
12085,174,100,-164,53,13,-9
12090,169,103,-168,54,14,-8
12095,171,100,-168,54,16,-8
12100,172,93,-161,53,15,-9
12105,172,98,-164,53,15,-9
12110,173,95,-166,54,15,-9
12115,170,99,-168,53,14,-7
12120,172,99,-163,53,13,-8
12125,172,102,-163,53,13,-8
12130,170,98,-166,53,13,-9
12135,170,100,-165,53,13,-9
12140,172,97,-166,55,12,-8
12145,173,97,-168,54,12,-8
12150,170,96,-169,54,12,-8
12155,171,98,-168,53,13,-9
12160,171,100,-171,54,14,-9
12165,169,100,-167,53,14,-9
12170,171,97,-166,53,14,-10
12175,170,101,-164,52,14,-10
12180,170,101,-170,52,14,-8
12185,170,100,-165,53,14,-8
12190,170,97,-161,52,14,-7
12195,167,101,-167,54,15,-8
12200,174,99,-167,52,16,-8
12205,172,96,-168,52,15,-9
12210,174,99,-168,52,15,-9
12215,171,98,-167,54,14,-8
12220,170,101,-166,53,15,-9
12225,171,102,-170,54,15,-9
12230,173,99,-164,52,15,-8
12235,171,98,-165,51,16,-9
12240,174,98,-161,51,17,-10
12245,171,99,-166,51,17,-10
12250,172,95,-170,51,18,-9
12255,171,95,-167,52,18,-8
12260,169,95,-161,52,17,-8
12265,171,105,-169,52,17,-11
12270,171,101,-166,52,16,-11
12275,171,100,-166,52,15,-10
12280,170,99,-168,53,16,-9
12285,170,101,-164,54,16,-9
12290,171,99,-167,52,15,-9
12295,173,100,-166,53,15,-9
12300,172,100,-161,53,15,-9
12305,173,97,-164,53,15,-10
12310,172,98,-166,53,14,-9
12315,174,103,-165,53,15,-9
12320,171,101,-167,51,14,-9
12325,171,98,-167,52,15,-8
12330,173,103,-164,52,14,-11
12335,171,99,-164,52,15,-9
12340,169,100,-171,54,14,-9
12345,172,101,-164,53,14,-10
12350,169,100,-166,54,13,-8
12355,167,100,-164,54,12,-8
12360,175,96,-164,54,11,-9
12365,170,102,-166,54,9,-8
12370,169,101,-162,53,9,-9
12375,171,99,-171,53,9,-10
12380,172,100,-166,53,9,-9
12385,171,101,-166,52,9,-9
12390,171,100,-166,53,10,-10
12395,171,99,-170,51,10,-10
12400,170,99,-163,52,11,-9
12405,175,98,-166,52,12,-10
12410,172,96,-163,53,14,-9
12415,171,100,-164,52,12,-9
12420,173,98,-163,52,12,-11
12425,172,97,-154,52,13,-11
12430,171,98,-165,51,13,-11
12435,169,102,-166,51,12,-10
12440,171,99,-163,50,12,-11
12445,170,99,-166,51,12,-11
12450,173,98,-168,52,11,-10
12455,171,101,-172,51,11,-11
12460,173,100,-171,51,11,-10
12465,170,97,-164,52,12,-9
12470,173,101,-169,52,12,-11
12475,171,100,-166,51,14,-9
12480,171,96,-161,50,14,-9
12485,170,99,-165,49,13,-10
12490,173,101,-166,48,12,-9
12495,171,101,-169,51,12,-9
12500,170,102,-167,52,14,-9
12505,170,102,-166,52,14,-9
12510,171,99,-166,53,15,-8
12515,171,98,-167,53,17,-9
12520,171,98,-166,53,17,-7
12525,170,100,-168,54,17,-7
12530,171,99,-162,54,18,-10
12535,170,93,-169,53,18,-9
12540,173,100,-165,55,18,-9
12545,171,97,-165,54,18,-9
12550,169,100,-167,53,19,-10
12555,170,100,-165,54,19,-9
12560,173,102,-166,54,20,-8
12565,170,100,-163,55,20,-8
12570,175,98,-166,53,21,-8
12575,172,97,-164,52,21,-8
12580,171,101,-165,52,21,-7
12585,171,99,-163,53,23,-8
12590,172,91,-165,53,22,-9
12595,172,96,-163,53,21,-7
12600,171,101,-164,53,21,-8
12605,171,97,-164,53,23,-8
12610,175,101,-164,51,20,-7
12615,173,98,-167,50,17,-10
12620,172,101,-167,48,15,-10
12625,173,97,-161,52,17,-9
12630,172,101,-166,50,16,-10
12635,174,99,-167,52,15,-10
12640,170,108,-166,52,14,-10
12645,168,98,-170,52,13,-8
12650,170,99,-167,52,13,-10
12655,176,98,-165,51,15,-8
12660,171,99,-166,51,14,-10
12665,172,98,-168,51,15,-10
12670,170,97,-167,51,14,-11
12675,173,97,-165,51,13,-10
12680,169,98,-166,49,14,-11
12685,168,98,-165,49,13,-9
12690,172,98,-166,49,13,-9
12695,169,102,-173,49,14,-11
12700,180,101,-175,49,13,-10
12705,173,86,-154,50,12,-11
12710,169,103,-173,51,11,-12
12715,173,100,-169,51,9,-10
12720,172,93,-165,52,10,-11
12725,167,102,-165,51,11,-10
12730,170,98,-164,51,11,-10
12735,167,99,-168,52,11,-11
12740,174,96,-163,51,12,-11
12745,181,95,-170,51,12,-10
12750,165,96,-173,51,12,-10
12755,163,99,-168,52,13,-10
12760,167,100,-163,51,14,-9
12765,166,99,-164,52,14,-8
12770,166,99,-165,52,12,-9
12775,173,93,-166,52,12,-9
12780,176,99,-168,53,12,-10
12785,165,93,-167,50,13,-10
12790,165,104,-166,50,14,-9
12795,183,95,-163,50,15,-10
12800,173,97,-159,50,14,-9
12805,172,95,-163,49,14,-11
12810,167,98,-177,47,14,-11
12815,174,95,-170,46,14,-12
12820,173,98,-166,46,13,-12
12825,171,97,-166,46,14,-10
12830,172,99,-170,47,12,-11
12835,170,92,-170,47,12,-11
12840,170,96,-171,48,12,-11
12845,177,98,-164,48,11,-12
12850,173,99,-169,47,12,-11
12855,171,101,-166,46,13,-11
12860,173,100,-166,46,13,-13
12865,171,98,-169,47,14,-12
12870,172,110,-168,46,15,-12
12875,170,102,-165,44,16,-13
12880,174,98,-167,43,18,-11
12885,173,97,-166,43,17,-13
12890,172,98,-170,43,17,-13
12895,169,95,-162,43,17,-14
12900,167,102,-168,42,17,-11
12905,172,102,-167,43,17,-11
12910,173,98,-167,45,17,-10
12915,172,102,-164,45,18,-9
12920,169,97,-159,46,18,-10
12925,170,101,-166,47,16,-10
12930,172,100,-160,47,16,-10
12935,168,101,-169,46,15,-10
12940,170,102,-165,48,15,-10
12945,170,98,-166,50,14,-10
12950,170,102,-168,48,12,-11
12955,174,99,-164,48,11,-13
12960,172,101,-159,48,11,-12
12965,170,97,-167,49,9,-12
12970,165,94,-167,49,8,-10
12975,176,98,-163,49,8,-11
12980,174,98,-163,49,8,-12
12985,174,101,-169,49,7,-12
12990,169,101,-167,50,7,-12
12995,173,99,-165,49,7,-12
13000,172,101,-164,48,7,-13
13005,170,102,-165,50,7,-10
13010,171,97,-166,50,8,-12
13015,173,99,-166,49,7,-12
13020,172,101,-168,48,7,-12
13025,170,100,-169,48,7,-12
13030,169,102,-169,49,7,-11
13035,172,98,-165,49,7,-11
13040,172,100,-168,49,6,-11
13045,172,102,-166,49,5,-11
13050,170,99,-162,50,5,-12
13055,171,102,-166,49,6,-12
13060,170,101,-166,50,5,-11
13065,173,98,-169,50,4,-10
13070,172,100,-167,50,5,-11
13075,166,101,-166,50,5,-11
13080,170,105,-169,49,6,-11
13085,170,102,-173,50,7,-9
13090,169,100,-167,49,8,-10
13095,170,100,-167,50,10,-10
13100,169,101,-166,49,11,-11
13105,171,102,-167,49,12,-10
13110,169,100,-169,50,12,-10
13115,174,97,-165,49,13,-9
13120,171,98,-166,49,12,-9
13125,168,101,-163,51,11,-9
13130,170,99,-166,50,11,-10
13135,167,97,-173,50,11,-10
13140,173,99,-167,49,10,-10
13145,170,100,-165,48,10,-9
13150,172,98,-168,50,12,-10
13155,173,99,-170,48,12,-11
13160,172,99,-164,48,11,-10
13165,171,105,-166,47,10,-10
13170,172,98,-166,48,10,-11
13175,171,102,-166,50,10,-12
13180,173,98,-164,49,9,-10
13185,172,100,-166,48,10,-13
13190,164,97,-169,49,11,-11
13195,172,102,-165,48,10,-10
13200,173,100,-163,48,11,-11
13205,171,101,-166,48,11,-10
13210,169,103,-163,48,11,-11
13215,171,99,-167,49,9,-11
13220,171,101,-167,50,8,-10
13225,173,100,-167,50,8,-11
13230,173,100,-168,51,9,-12
13235,172,97,-165,51,7,-11
13240,174,99,-165,50,6,-11
13245,170,102,-169,51,7,-12
13250,175,99,-165,52,7,-11
13255,173,100,-162,50,7,-10
13260,172,98,-166,51,8,-11
13265,170,100,-165,50,8,-11
13270,173,100,-166,50,7,-13
13275,170,100,-166,51,8,-10
13280,168,98,-167,51,8,-10
13285,172,99,-163,51,5,-9
13290,168,97,-166,51,6,-10
13295,176,98,-169,53,6,-10
13300,172,98,-163,52,6,-11
13305,173,99,-165,51,4,-10
13310,174,97,-164,52,3,-10
13315,172,99,-165,52,3,-9
13320,171,98,-162,52,3,-10
13325,169,100,-165,52,2,-11
13330,173,98,-167,51,2,-10
13335,168,100,-165,52,3,-7
13340,171,98,-169,52,2,-8
13345,171,96,-163,52,4,-9
13350,169,102,-166,52,4,-10
13355,173,100,-169,52,3,-9
13360,173,100,-167,52,6,-10
13365,170,100,-165,52,6,-10
13370,175,98,-166,51,6,-10
13375,168,100,-168,51,6,-11
13380,172,99,-166,50,7,-12
13385,171,99,-165,48,8,-11
13390,168,103,-168,48,5,-12
13395,174,99,-166,48,6,-13
13400,173,101,-163,48,3,-12
13405,170,100,-161,48,4,-13
13410,168,100,-166,48,4,-12
13415,173,95,-165,49,3,-12
13420,171,100,-166,49,4,-11
13425,172,99,-168,49,4,-11
13430,174,101,-166,48,4,-10
13435,172,101,-167,50,5,-12
13440,171,100,-171,48,6,-12
13445,174,97,-165,47,7,-13
13450,170,98,-164,47,7,-11
13455,172,100,-166,49,8,-10
13460,169,101,-161,48,7,-9
13465,168,100,-166,50,8,-11
13470,166,102,-162,50,7,-10
13475,169,98,-167,50,7,-10
13480,171,100,-169,49,7,-10
13485,170,98,-167,48,7,-11
13490,172,100,-164,48,7,-10
13495,168,99,-165,48,6,-12
13500,172,97,-161,47,6,-12
13505,172,102,-166,46,7,-13
13510,172,101,-166,46,6,-15
13515,170,100,-166,46,6,-14
13520,170,99,-165,46,5,-13
13525,172,99,-167,45,6,-13
13530,173,96,-166,47,6,-11
13535,172,100,-167,47,6,-11
13540,173,98,-167,47,6,-14
13545,172,99,-168,46,3,-12
13550,170,100,-171,46,2,-13
13555,170,98,-169,46,2,-13
13560,175,99,-167,46,0,-14
13565,173,103,-165,46,0,-14
13570,167,100,-170,47,0,-14
13575,170,103,-168,47,0,-15
13580,170,104,-167,47,-2,-15
13585,172,101,-170,48,-2,-14
13590,170,100,-170,48,-2,-14
13595,171,101,-167,47,-2,-14
13600,174,101,-165,47,0,-14
13605,170,101,-169,47,1,-13
13610,170,100,-166,47,1,-14
13615,171,101,-171,49,2,-14
13620,169,102,-165,49,3,-12
13625,173,101,-170,50,2,-12
13630,172,100,-167,49,3,-14
13635,169,100,-162,50,3,-13
13640,169,100,-164,50,4,-13
13645,170,101,-171,50,4,-11
13650,171,99,-169,50,4,-12
13655,171,98,-164,50,4,-12
13660,171,101,-168,49,4,-12
13665,168,101,-166,49,4,-12
13670,174,98,-166,50,3,-12
13675,172,101,-163,52,3,-12
13680,176,101,-165,52,2,-12
13685,169,100,-166,51,0,-10
13690,172,97,-167,51,0,-11
13695,166,99,-167,51,1,-11
13700,171,100,-171,51,0,-11
13705,171,103,-165,51,1,-9
13710,167,99,-163,50,3,-10
13715,173,101,-165,51,4,-11
13720,174,100,-165,50,7,-11
13725,173,101,-168,49,7,-11
13730,168,100,-161,48,8,-11
13735,168,104,-167,50,9,-9
13740,169,100,-168,51,10,-9
13745,171,101,-171,52,11,-9
13750,169,103,-172,51,11,-9
13755,169,102,-167,51,12,-6
13760,171,99,-167,51,12,-8
13765,169,100,-164,51,11,-8
13770,170,102,-169,51,11,-10
13775,169,101,-163,51,10,-11
13780,171,104,-162,51,11,-10
13785,166,97,-167,50,12,-11
13790,170,98,-168,50,11,-10
13795,170,99,-167,52,13,-9
13800,173,100,-165,52,12,-10
13805,173,100,-172,53,12,-9
13810,173,101,-165,51,13,-10
13815,170,100,-167,50,15,-8
13820,171,102,-168,50,15,-9
13825,171,100,-169,49,16,-10
13830,170,99,-168,49,18,-11
13835,169,103,-172,47,17,-10
13840,171,103,-171,47,18,-10
13845,172,99,-169,48,16,-9
13850,168,102,-167,50,15,-9
13855,172,99,-166,49,15,-9
13860,169,101,-167,51,14,-8
13865,169,99,-167,50,14,-8
13870,173,101,-168,49,15,-8
13875,170,103,-167,50,14,-9
13880,172,102,-165,51,15,-8
13885,173,99,-167,52,15,-9
13890,174,99,-163,50,15,-10
13895,168,100,-165,51,15,-10
13900,171,98,-166,51,16,-10
13905,170,99,-163,50,16,-10
13910,173,99,-167,50,16,-9
13915,167,103,-168,52,16,-8
13920,172,97,-169,51,14,-9
13925,169,102,-166,51,15,-8
13930,169,102,-164,51,15,-8
13935,171,101,-166,50,14,-9
13940,171,98,-166,50,13,-8
13945,172,101,-169,52,13,-9
13950,172,100,-165,52,13,-9
13955,171,99,-171,52,14,-8
13960,170,101,-168,52,12,-8
13965,170,98,-165,51,13,-9
13970,169,101,-170,52,14,-10
13975,170,98,-167,51,13,-11
13980,172,99,-168,52,15,-9
13985,168,101,-165,51,14,-10
13990,171,99,-165,51,14,-11
13995,172,100,-170,50,13,-8
14000,169,100,-172,51,12,-9
14005,172,94,-169,52,13,-10
14010,171,99,-166,51,13,-9
14015,168,102,-166,51,13,-10
14020,168,103,-168,51,14,-10
14025,172,100,-165,50,14,-9
14030,169,100,-163,51,13,-9
14035,174,100,-165,51,13,-10
14040,172,100,-163,51,12,-10
14045,173,100,-165,51,13,-10
14050,171,99,-164,51,14,-9
14055,171,101,-167,52,13,-10
14060,168,97,-174,51,13,-9
14065,170,100,-171,52,13,-8
14070,173,96,-164,52,13,-10
14075,169,100,-167,52,14,-8
14080,172,101,-162,52,14,-8
14085,170,101,-168,51,13,-10
14090,172,98,-167,50,13,-8
14095,171,99,-168,52,14,-10
14100,171,100,-165,51,14,-8
14105,170,100,-166,50,13,-8
14110,170,99,-167,51,14,-7
14115,165,98,-164,51,15,-9
14120,171,102,-167,51,15,-10
14125,171,101,-164,51,15,-9
14130,170,101,-167,48,16,-11
14135,170,101,-166,49,16,-11
14140,170,99,-166,51,17,-12
14145,171,98,-163,48,16,-11
14150,168,101,-171,49,17,-10
14155,171,103,-163,48,17,-11
14160,170,101,-169,49,17,-10
14165,170,103,-164,49,15,-12
14170,176,101,-168,49,16,-11
14175,169,101,-166,50,15,-10
14180,174,102,-166,49,15,-10
14185,172,101,-165,49,14,-12
14190,171,102,-165,50,12,-11
14195,170,97,-166,50,12,-12
14200,169,100,-167,49,13,-12
14205,172,101,-174,50,12,-11
14210,170,101,-165,50,14,-10
14215,170,100,-166,51,14,-10
14220,173,101,-166,50,14,-9
14225,175,100,-160,50,15,-10
14230,171,97,-169,51,16,-9
14235,174,99,-167,51,16,-8
14240,170,100,-168,51,18,-8
14245,169,101,-167,52,19,-9
14250,170,101,-164,52,19,-9
14255,171,103,-164,51,19,-9
14260,176,97,-165,51,20,-7
14265,169,102,-163,51,19,-9
14270,170,101,-168,53,19,-8
14275,169,101,-165,52,19,-9
14280,169,99,-171,51,18,-9
14285,172,101,-162,51,18,-8
14290,170,100,-167,51,17,-9
14295,170,100,-161,53,16,-6
14300,171,101,-163,53,16,-5
14305,169,99,-166,53,15,-6
14310,170,98,-166,54,16,-8
14315,173,98,-166,54,16,-6
14320,170,101,-166,54,17,-6
14325,168,101,-168,54,17,-7
14330,172,94,-171,54,16,-8
14335,172,99,-168,53,17,-6
14340,172,102,-165,52,17,-8
14345,172,99,-166,51,17,-7
14350,171,98,-164,51,16,-7
14355,170,99,-165,50,17,-8
14360,170,98,-165,50,15,-9
14365,171,100,-165,51,14,-9
14370,169,98,-159,52,14,-10
14375,172,97,-167,52,13,-9
14380,166,101,-163,54,13,-9
14385,170,97,-167,53,15,-9
14390,172,100,-166,53,15,-9
14395,174,99,-164,51,15,-10
14400,171,99,-166,50,14,-10
14405,172,102,-165,50,14,-11
14410,170,102,-168,49,12,-10
14415,170,101,-167,50,13,-9
14420,170,103,-170,51,13,-8
14425,173,97,-166,52,12,-10
14430,170,100,-166,51,13,-10
14435,171,100,-165,50,14,-9
14440,168,97,-173,51,15,-10
14445,170,99,-164,52,15,-9
14450,169,98,-169,52,14,-10
14455,170,96,-164,53,15,-11
14460,171,102,-163,52,15,-11
14465,171,102,-167,52,15,-10
14470,166,102,-168,53,15,-11
14475,170,101,-167,54,15,-10
14480,171,99,-168,54,16,-10
14485,171,100,-166,52,18,-11
14490,171,97,-167,53,18,-10
14495,170,101,-165,55,18,-9
14500,170,102,-166,54,20,-10
14505,170,99,-164,54,19,-8
14510,171,103,-167,53,20,-8
14515,174,99,-166,52,20,-9
14520,171,101,-166,52,19,-8
14525,171,99,-164,51,21,-10
14530,174,99,-171,52,19,-8
14535,175,96,-162,51,19,-9
14540,169,98,-167,51,19,-11
14545,170,100,-165,50,18,-12
14550,170,101,-164,49,17,-12
14555,170,101,-167,49,16,-11
14560,173,101,-166,50,15,-11
14565,172,100,-165,50,14,-13
14570,171,101,-163,50,14,-14
14575,171,99,-166,49,14,-11
14580,168,100,-165,50,14,-12
14585,171,100,-164,49,15,-12
14590,167,102,-170,50,15,-11
14595,167,102,-163,50,14,-12
14600,167,103,-168,51,15,-12
14605,172,102,-163,50,15,-12
14610,172,100,-163,50,14,-13
14615,175,99,-166,52,15,-12
14620,170,101,-165,51,15,-11
14625,174,98,-167,52,15,-11
14630,173,97,-166,53,13,-12
14635,173,97,-165,53,12,-11
14640,170,99,-165,53,13,-11
14645,168,100,-165,52,13,-12
14650,172,101,-168,52,12,-12
14655,172,99,-158,52,11,-11
14660,168,98,-169,53,11,-10
14665,172,98,-162,53,11,-9
14670,170,100,-165,52,12,-11
14675,172,100,-167,53,14,-10
14680,173,95,-164,52,13,-9
14685,173,100,-166,53,13,-9
14690,171,101,-166,54,14,-9
14695,172,101,-164,53,14,-9
14700,170,103,-168,54,15,-7
14705,173,102,-166,55,16,-7
14710,172,102,-167,55,15,-7
14715,173,97,-166,52,18,-7
14720,169,99,-163,52,17,-7
14725,171,100,-166,52,18,-9
14730,172,101,-162,52,17,-8
14735,172,103,-165,51,17,-8
14740,170,100,-158,52,17,-8
14745,172,100,-168,50,17,-9
14750,172,99,-162,51,17,-10
14755,171,98,-164,53,16,-9
14760,174,97,-165,54,15,-9
14765,169,100,-168,54,15,-9
14770,172,95,-171,55,15,-10
14775,170,99,-168,52,13,-10
14780,169,100,-164,51,14,-9
14785,170,100,-167,52,15,-11
14790,175,98,-167,51,16,-10
14795,173,101,-165,51,17,-10
14800,172,102,-165,49,18,-10
14805,172,103,-165,50,18,-9
14810,173,97,-159,51,19,-10
14815,173,98,-163,50,19,-11
14820,173,95,-168,50,21,-10
14825,172,101,-164,50,21,-10
14830,172,100,-168,50,20,-10
14835,171,100,-168,50,19,-12
14840,173,100,-162,51,19,-11
14845,172,99,-165,50,17,-10
14850,171,100,-163,50,16,-12
14855,169,99,-161,50,16,-12
14860,171,102,-165,51,15,-11
14865,174,99,-167,52,14,-8
14870,172,102,-164,52,15,-10
14875,174,96,-161,52,14,-9
14880,172,98,-167,52,12,-8
14885,173,98,-166,53,14,-9
14890,169,103,-168,53,15,-10
14895,170,102,-166,52,14,-11
14900,172,99,-165,53,14,-9
14905,173,99,-162,52,14,-9
14910,171,101,-162,53,15,-10
14915,167,98,-167,51,14,-9
14920,170,96,-164,51,13,-9
14925,174,100,-168,51,13,-10
14930,172,103,-166,52,13,-10
14935,168,101,-164,52,12,-8
14940,172,100,-165,51,12,-10
14945,171,99,-168,52,13,-10
14950,172,101,-163,51,13,-9
14955,172,101,-163,52,13,-10
14960,172,101,-165,52,12,-11
14965,171,101,-164,52,11,-12
14970,170,101,-172,51,11,-11
14975,170,95,-167,50,10,-11
14980,168,99,-163,51,11,-10
14985,168,103,-171,52,11,-10
14990,172,98,-163,52,11,-11
14995,172,100,-167,51,10,-10
