timestamp,acc_x,acc_y,acc_z,gyro_x,gyro_y,gyro_z
0,-8,-253,4,5,75,-3
5,-6,-260,4,4,77,-1
10,-3,-258,-1,2,77,0
15,-9,-256,2,2,77,0
20,-10,-257,4,2,77,0
25,-6,-256,2,2,77,0
30,-8,-256,1,5,75,1
35,-9,-258,5,7,74,1
40,-8,-258,5,10,74,0
45,-6,-256,2,13,73,-1
50,-11,-253,1,13,73,-1
55,-7,-255,-1,13,73,-2
60,-5,-255,0,13,72,-1
65,-7,-254,6,12,71,-1
70,-6,-256,4,9,71,-2
75,-8,-257,2,7,70,0
80,-8,-258,2,5,71,1
85,-3,-255,1,5,70,2
90,-8,-255,0,6,70,0
95,-8,-257,3,8,68,1
100,-6,-256,1,10,68,0
105,-9,-256,5,12,66,-1
110,-8,-258,0,15,66,-1
115,-5,-258,5,15,65,-1
120,-5,-256,-1,14,66,-2
125,-3,-255,1,12,66,-1
130,-7,-255,5,12,68,0
135,-9,-256,6,12,69,0
140,-8,-254,1,10,70,0
145,-8,-256,5,8,71,-1
150,-6,-255,2,5,72,-1
155,-7,-255,1,2,72,-1
160,-8,-256,5,0,71,-1
165,-9,-257,1,1,70,1
170,-10,-258,4,4,72,-1
175,-12,-256,1,10,70,-1
180,-9,-256,4,16,68,-3
185,-11,-256,4,21,69,-4
190,-9,-257,2,24,68,-4
195,-9,-253,2,27,65,-4
200,-9,-255,9,27,64,-2
205,-5,-255,2,26,66,-3
210,-9,-255,1,22,67,-3
215,-6,-255,4,18,67,-2
220,-8,-256,5,13,68,-1
225,-8,-254,5,11,69,-3
230,-6,-256,0,9,69,-3
235,-5,-251,7,11,68,-1
240,-7,-256,4,13,68,-3
245,-5,-256,7,18,70,-1
250,-11,-256,6,21,69,0
255,-8,-256,6,24,69,-2
260,-10,-253,4,24,68,-2
265,-6,-258,8,22,69,-2
270,-5,-256,6,20,69,0
275,-5,-258,3,18,70,-1
280,-7,-258,1,16,71,-1
285,-6,-254,5,15,72,0
290,-10,-257,4,14,72,1
295,-6,-259,1,14,74,0
300,-9,-256,1,16,73,-2
305,-7,-256,2,17,74,-1
310,-5,-257,3,19,73,-1
315,-7,-258,7,21,75,-3
320,-6,-254,5,23,76,-3
325,-8,-256,6,23,76,-3
330,-7,-255,7,21,77,-4
335,-5,-257,5,19,77,-4
340,-4,-256,5,16,78,-5
345,-10,-256,5,13,78,-2
350,-8,-256,0,10,77,-2
355,-9,-256,3,9,79,-2
360,-4,-255,4,8,77,-1
365,-8,-256,4,10,79,-1
370,-9,-254,5,11,79,-1
375,-9,-256,4,13,79,-1
380,-7,-257,3,14,79,-1
385,-10,-255,5,14,78,0
390,-8,-258,8,14,78,0
395,-11,-256,4,12,78,1
400,-8,-253,5,9,78,0
405,-8,-253,9,7,77,1
410,-6,-255,4,3,77,0
415,-6,-254,2,0,77,2
420,-9,-255,5,-3,78,2
425,-7,-255,8,-4,77,1
430,-9,-255,4,-5,77,2
435,-7,-256,7,-7,77,0
440,-8,-254,7,-8,76,-1
445,-10,-256,5,-8,78,0
450,-5,-256,9,-6,77,-1
455,-10,-257,9,-4,79,0
460,-10,-258,7,-2,78,0
465,-9,-254,6,0,79,2
470,-6,-255,8,1,79,1
475,-7,-257,9,0,79,1
480,-8,-254,5,-3,78,2
485,-7,-257,5,-8,75,2
490,-11,-255,7,-14,72,-1
495,-12,-253,9,-20,70,-2
500,-8,-258,6,-27,70,-1
505,-11,-253,6,-31,69,-2
510,-8,-259,4,-33,72,-4
515,-9,-256,5,-33,74,-2
520,-10,-253,7,-34,78,-1
525,-10,-257,4,-32,78,1
530,-11,-257,9,-31,77,1
535,-7,-261,6,-30,78,0
540,-8,-257,8,-31,78,0
545,-8,-256,8,-34,77,0
550,-7,-259,3,-37,76,2
555,-11,-256,6,-42,76,4
560,-7,-256,5,-44,74,5
565,-7,-254,3,-44,74,4
570,-6,-256,4,-39,74,4
575,-7,-252,4,-34,71,2
580,-10,-255,4,-27,68,0
585,-8,-253,4,-21,66,0
590,-9,-257,7,-19,63,-2
595,-11,-254,5,-20,61,-2
600,-11,-255,4,-23,63,-2
605,-12,-255,7,-25,64,-3
610,-9,-256,6,-24,65,-3
615,-11,-257,3,-24,68,-2
620,-10,-255,9,-25,68,-2
625,-11,-256,7,-27,68,-1
630,-8,-257,4,-30,68,0
635,-9,-255,9,-33,68,2
640,-7,-253,8,-36,67,0
645,-8,-254,8,-37,67,1
650,-9,-256,8,-37,66,1
655,-3,-255,5,-36,64,0
660,-11,-255,7,-35,63,2
665,-6,-256,4,-34,61,2
670,-6,-257,3,-34,61,2
675,-11,-259,6,-34,61,1
680,-10,-256,3,-35,61,2
685,-8,-258,4,-37,60,4
690,-12,-255,4,-39,62,2
695,-8,-258,3,-38,64,5
700,-10,-254,2,-38,63,4
705,-7,-257,2,-35,63,3
710,-8,-257,3,-34,62,3
715,-11,-258,2,-33,62,2
720,-13,-254,4,-32,63,2
725,-9,-257,5,-32,62,2
730,-6,-253,13,-30,59,2
735,-8,-256,5,-32,58,1
740,-8,-260,8,-32,60,0
745,-12,-257,2,-35,59,3
750,-8,-256,4,-35,59,1
755,-6,-258,4,-36,59,1
760,-10,-253,7,-37,58,3
765,-9,-254,5,-39,59,5
770,-8,-254,5,-41,57,6
775,-6,-257,6,-43,57,6
780,-7,-259,4,-45,54,6
785,-10,-254,5,-46,54,4
790,-11,-254,3,-46,54,4
795,-10,-253,3,-48,54,4
800,-7,-257,3,-51,54,4
805,-9,-257,3,-51,54,5
810,-9,-253,3,-54,53,6
815,-5,-257,4,-59,54,3
820,-2,-259,4,-64,54,4
825,-8,-254,3,-68,55,2
830,-9,-252,0,-72,55,3
835,-7,-254,3,-74,54,1
840,-9,-255,1,-77,55,0
845,-10,-254,4,-79,53,-1
850,-7,-258,2,-80,52,-1
855,-8,-254,1,-82,50,-1
860,-9,-254,-1,-83,50,-1
865,-7,-254,1,-82,52,-1
870,-8,-253,3,-82,53,1
875,-9,-254,2,-83,56,1
880,-10,-256,3,-83,57,0
885,-4,-256,1,-85,57,0
890,-9,-255,3,-88,59,2
895,-6,-256,-1,-89,60,0
900,-9,-259,0,-90,61,-2
905,-10,-257,2,-88,62,-2
910,-10,-260,1,-84,64,-2
915,-9,-259,2,-79,65,-4
920,-7,-257,-1,-73,65,-6
925,-8,-257,3,-66,66,-6
930,-9,-258,-1,-58,66,-6
935,-8,-255,5,-52,66,-6
940,-8,-256,5,-47,66,-6
945,-6,-257,0,-45,64,-6
950,-7,-256,2,-44,62,-6
955,-10,-254,3,-43,63,-5
960,-8,-256,0,-42,61,-7
965,-6,-257,-2,-43,60,-5
970,-6,-259,-1,-45,61,-4
975,-10,-258,2,-46,62,-3
980,-6,-257,3,-46,63,-3
985,-9,-256,0,-49,65,-2
990,-9,-256,2,-50,64,-1
995,-7,-256,0,-51,65,1
1000,-10,-257,-2,-50,67,1
1005,-6,-261,3,-50,67,1
1010,-7,-257,-3,-48,69,0
1015,-9,-255,1,-45,68,1
1020,-8,-257,1,-42,70,2
1025,-6,-255,-1,-41,69,0
1030,-8,-253,-2,-39,69,0
1035,-7,-258,0,-39,68,0
1040,-8,-253,1,-40,69,0
1045,-10,-257,1,-40,67,0
1050,-10,-256,0,-40,67,1
1055,-15,-254,-9,-40,69,-1
1060,-9,-256,0,-40,70,-1
1065,-8,-257,-1,-39,72,-3
1070,-9,-259,-4,-38,73,-2
1075,-6,-257,-2,-37,73,-2
1080,-8,-255,0,-36,73,-4
1085,-8,-254,-1,-35,73,-3
1090,-10,-254,1,-35,73,-2
1095,-6,-257,0,-36,74,-2
1100,-8,-256,3,-36,74,-3
1105,-6,-255,0,-39,73,-3
1110,-7,-254,-3,-41,74,-2
1115,-9,-257,-2,-42,73,-2
1120,-8,-259,2,-44,73,0
1125,-5,-255,-1,-45,73,0
1130,-8,-257,-5,-45,72,-1
1135,-12,-256,2,-46,72,-1
1140,-10,-254,-1,-46,73,-1
1145,-9,-257,-1,-45,73,-2
1150,-4,-261,-1,-42,74,-4
1155,-9,-254,-1,-41,75,-5
1160,-8,-257,1,-39,75,-3
1165,-14,-256,-4,-35,76,-4
1170,-8,-258,-6,-25,80,-3
1175,-6,-254,-4,-25,81,-1
1180,-6,-256,1,-29,78,-4
1185,-6,-255,-2,-30,75,-3
1190,-8,-256,-1,-31,72,-3
1195,-9,-254,3,-31,70,-4
1200,-7,-254,-1,-32,68,-5
1205,-8,-257,-2,-36,68,-3
1210,-10,-253,-3,-40,69,-2
1215,-8,-254,-3,-44,71,-2
1220,-6,-257,-3,-48,72,-1
1225,-7,-254,-6,-48,76,1
1230,-7,-259,0,-48,77,4
1235,-9,-258,-8,-47,80,5
1240,-8,-258,-4,-46,82,6
1245,-10,-258,-2,-46,81,5
1250,-10,-258,-3,-49,82,5
1255,-9,-258,-1,-54,80,4
1260,-7,-258,-1,-61,79,2
1265,-9,-259,-4,-71,75,3
1270,-11,-254,0,-77,74,4
1275,-9,-255,-1,-82,70,3
1280,-8,-256,-3,-83,68,0
1285,-9,-256,-5,-80,66,0
1290,-7,-257,-3,-72,67,-2
1295,-8,-254,-2,-62,66,-6
1300,-8,-254,-4,-50,67,-8
1305,-10,-255,-5,-41,67,-10
1310,-10,-257,-5,-34,67,-9
1315,-8,-257,0,-31,69,-7
1320,-10,-256,-1,-26,71,-5
1325,-8,-257,-3,-26,75,-3
1330,-6,-258,-3,-23,79,-2
1335,-8,-258,-5,-24,82,2
1340,-9,-257,-1,-23,82,3
1345,-8,-257,-2,-24,80,2
1350,-4,-255,-1,-24,79,2
1355,-8,-251,-1,-25,76,3
1360,-8,-256,1,-25,73,0
1365,-7,-257,-4,-26,69,-2
1370,-8,-256,0,-28,66,-3
1375,-9,-253,-5,-28,64,-2
1380,-13,-256,5,-28,63,-2
1385,-9,-259,-6,-27,62,-2
1390,-9,-257,-4,-27,63,-1
1395,-10,-257,-4,-25,66,-1
1400,-11,-258,-4,-22,67,0
1405,-7,-261,0,-18,69,0
1410,-7,-259,-3,-11,71,-1
1415,-8,-258,-6,-5,72,1
1420,-9,-258,-4,0,72,0
1425,-9,-257,-3,5,71,-1
1430,-9,-255,-7,7,70,0
1435,-8,-258,-6,7,69,-3
1440,-7,-256,-2,8,68,-2
1445,-7,-256,-2,8,66,-1
1450,-8,-258,0,7,68,0
1455,-10,-256,1,8,68,2
1460,-7,-257,-4,7,66,1
1465,-6,-257,-6,7,67,1
1470,-7,-255,-2,6,66,2
1475,-9,-255,-4,8,68,2
1480,-10,-255,-2,8,67,2
1485,-6,-256,0,9,65,0
1490,-13,-258,-6,10,62,0
1495,-9,-253,1,12,62,0
1500,-9,-255,-2,12,61,1
1505,-8,-256,-3,9,61,-1
1510,-7,-256,-2,5,60,0
1515,-11,-255,0,1,61,-1
1520,-9,-257,-3,-2,60,0
1525,-9,-257,-5,-3,60,0
1530,-4,-253,-4,-4,59,-2
1535,-10,-256,-5,-4,59,-1
1540,-9,-257,-6,-3,58,-2
1545,-6,-258,-3,1,59,-1
1550,-10,-257,-1,4,60,-1
1555,-7,-257,-5,6,61,-1
1560,-11,-257,-1,7,62,-2
1565,-9,-257,-3,8,64,0
1570,-11,-257,1,9,65,1
1575,-5,-253,1,7,63,0
1580,-7,-257,-1,8,62,1
1585,-5,-256,1,7,62,1
1590,-10,-256,-2,7,60,-1
1595,-7,-255,-3,7,60,-1
1600,-6,-257,-2,6,59,-2
1605,-6,-256,1,7,61,-2
1610,-8,-254,-3,7,61,-3
1615,-7,-255,-3,7,62,-4
1620,-7,-257,-3,7,64,-4
1625,-8,-255,-2,8,65,-4
1630,-9,-258,-1,7,66,-5
1635,-4,-255,-4,8,67,-3
1640,-10,-257,-5,9,67,-2
1645,-8,-259,-2,7,68,-3
1650,-7,-260,0,9,68,-4
1655,-8,-255,-2,7,67,-2
1660,-8,-258,-4,9,69,-1
1665,-8,-259,-4,8,68,-2
1670,-11,-256,-1,7,67,-2
1675,-10,-257,0,8,68,-2
1680,-9,-259,-3,9,68,-2
1685,-8,-254,0,11,69,0
1690,-9,-257,-2,12,68,-1
1695,-7,-258,-2,12,68,-1
1700,-11,-257,-1,12,66,-2
1705,-7,-258,-5,11,66,-2
1710,-9,-258,-4,12,66,-2
1715,-11,-257,0,10,65,-2
1720,-10,-254,-2,9,63,-3
1725,-8,-256,-5,10,61,-3
1730,-9,-257,-2,10,59,-3
1735,-9,-257,3,12,56,-3
1740,-11,-254,-2,13,55,-1
1745,-10,-258,0,17,56,-2
1750,-11,-259,2,19,54,-1
1755,-10,-254,-1,20,53,0
1760,-10,-255,1,24,55,1
1765,-9,-253,0,23,52,2
1770,-10,-255,1,22,53,2
1775,-8,-257,-1,21,53,3
1780,-7,-255,3,18,53,2
1785,-9,-253,-1,15,52,3
1790,-7,-258,1,11,51,3
1795,-6,-253,-2,9,51,3
1800,-7,-256,-1,8,52,5
1805,-5,-254,1,7,54,3
1810,-8,-253,-1,5,55,3
1815,-8,-249,2,5,55,0
1820,-6,-255,-2,4,57,0
1825,-9,-256,-2,5,60,-2
1830,-5,-259,-1,6,63,-1
1835,-8,-258,-4,5,65,-1
1840,-4,-257,-1,6,67,-1
1845,-6,-256,-2,6,70,1
1850,-7,-257,-4,5,73,1
1855,-9,-256,-2,3,74,1
1860,-6,-257,0,2,75,-1
1865,-7,-256,1,0,74,-2
1870,-8,-254,-1,-2,73,-4
1875,-7,-254,-2,-4,74,-2
1880,-7,-256,0,-4,76,-5
1885,-8,-256,-4,-4,77,-3
1890,-8,-254,3,-4,81,-1
1895,-8,-256,-3,-4,83,-1
1900,-7,-254,-2,-3,85,0
1905,-5,-258,-2,-1,86,0
1910,-9,-257,-2,-1,86,1
1915,-6,-260,-3,0,86,1
1920,-9,-253,-2,-2,83,0
1925,-12,-254,-2,-6,82,1
1930,-8,-257,-3,-12,80,1
1935,-8,-256,-3,-21,80,3
1940,-10,-256,-4,-28,78,4
1945,-11,-256,-2,-31,78,4
1950,-11,-256,-3,-32,76,3
1955,-11,-256,-4,-29,78,2
1960,-11,-253,-6,-24,78,0
1965,-11,-254,-2,-20,76,-1
1970,-11,-256,-1,-14,75,-2
1975,-11,-256,-2,-12,75,-4
1980,-9,-257,-1,-9,74,-5
1985,-10,-258,-3,-6,74,-6
1990,-9,-257,-5,-4,74,-4
1995,-11,-259,4,0,76,-3
2000,-11,-259,1,6,76,-1
2005,-11,-257,6,15,75,0
2010,-15,-256,5,22,75,2
2015,-9,-257,6,27,71,4
2020,-9,-257,4,30,66,4
2025,-14,-257,5,32,62,4
2030,-8,-261,7,32,56,5
2035,-11,-257,4,32,51,4
2040,-12,-255,2,31,47,4
2045,-12,-252,-2,32,45,4
2050,-8,-256,1,32,42,2
2055,-11,-253,-1,32,40,0
2060,-9,-256,3,33,40,-2
2065,-10,-256,2,34,38,0
2070,-12,-252,3,35,38,0
2075,-7,-253,4,33,37,1
2080,-11,-256,5,31,36,-1
2085,-11,-255,7,29,35,0
2090,-13,-253,-1,26,34,-1
2095,-9,-258,0,21,33,0
2100,-10,-257,4,20,33,-1
2105,-10,-259,1,18,32,-1
2110,-12,-255,4,19,30,-3
2115,-11,-258,-1,20,28,-3
2120,-9,-257,2,24,28,-5
2125,-9,-258,3,29,27,-4
2130,-9,-255,3,33,25,-4
2135,-13,-256,2,36,24,-8
2140,-11,-252,5,41,22,-7
2145,-8,-255,3,43,19,-9
2150,-9,-259,5,44,18,-8
2155,-13,-255,1,43,16,-8
2160,-9,-257,6,42,13,-10
2165,-8,-256,2,40,13,-10
2170,-10,-255,2,41,11,-11
2175,-10,-256,1,40,11,-11
2180,-10,-253,2,40,11,-11
2185,-9,-254,2,41,14,-12
2190,-8,-257,3,43,17,-11
2195,-10,-252,5,44,20,-10
2200,-6,-254,4,44,23,-11
2205,-6,-255,5,43,23,-12
2210,-7,-255,6,40,25,-13
2215,-8,-255,6,37,27,-14
2220,-7,-253,4,34,28,-13
2225,-8,-253,5,32,29,-13
2230,-6,-255,6,32,32,-13
2235,-7,-257,3,33,33,-13
2240,-9,-258,11,38,36,-13
2245,-5,-257,7,42,39,-11
2250,-6,-256,5,46,43,-11
2255,-8,-256,6,48,45,-11
2260,-6,-255,7,50,51,-11
2265,-5,-257,6,51,54,-12
2270,-4,-254,5,50,55,-12
2275,-7,-256,6,48,59,-14
2280,-8,-254,8,46,61,-15
2285,-7,-254,6,43,62,-15
2290,-11,-251,7,42,62,-15
2295,-7,-254,8,40,63,-14
2300,-8,-251,4,39,62,-13
2305,-8,-255,3,38,63,-12
2310,-10,-254,3,37,63,-9
2315,-7,-254,8,36,63,-8
2320,-9,-253,2,35,65,-7
2325,-7,-255,2,33,66,-7
2330,-6,-256,6,31,68,-6
2335,-10,-257,5,28,67,-4
2340,-10,-256,3,28,68,-4
2345,-9,-258,3,26,68,-4
2350,-11,-257,3,25,70,-3
2355,-15,-256,4,26,70,-4
2360,-10,-258,3,28,71,-4
2365,-10,-258,6,32,71,-3
2370,-9,-255,6,35,70,-3
2375,-11,-254,7,37,70,-1
2380,-9,-256,5,38,67,-1
2385,-9,-254,6,39,67,0
2390,-8,-254,4,38,65,1
2395,-10,-254,11,38,66,2
2400,-10,-255,5,36,66,2
2405,-8,-255,5,33,63,0
2410,-11,-255,6,33,63,0
2415,-11,-254,10,34,62,0
2420,-10,-255,9,35,62,1
2425,-10,-256,6,35,62,1
2430,-10,-254,6,35,63,2
2435,-8,-259,8,33,62,2
2440,-11,-256,6,29,64,1
2445,-9,-254,4,27,63,0
2450,-7,-255,6,23,59,-1
2455,-7,-254,6,20,54,-2
2460,-7,-258,4,18,50,-2
2465,-7,-257,7,18,47,-3
2470,-8,-255,2,19,46,-3
2475,-6,-255,6,19,47,-1
2480,-9,-255,9,19,49,-2
2485,-9,-257,3,19,52,-3
2490,-8,-256,10,19,54,-2
2495,-7,-254,7,19,58,-4
2500,-9,-256,9,19,61,-4
2505,-11,-256,4,19,63,-5
2510,-6,-260,9,18,64,-5
2515,-4,-260,7,17,64,-6
2520,-5,-259,5,17,65,-6
2525,-6,-261,5,16,68,-6
2530,-8,-254,7,15,70,-6
2535,-8,-258,3,14,72,-6
2540,-7,-255,9,14,72,-8
2545,-9,-252,7,13,71,-9
2550,-7,-252,6,15,72,-10
2555,-9,-251,9,12,72,-10
2560,-6,-253,7,8,70,-11
2565,-6,-253,7,1,68,-11
2570,-8,-255,5,-5,66,-11
2575,-7,-253,11,-12,61,-9
2580,-9,-257,4,-17,60,-8
2585,-7,-260,8,-19,60,-7
2590,-9,-259,1,-19,60,-9
2595,-12,-258,5,-16,60,-7
2600,-7,-258,8,-12,62,-8
2605,-6,-258,3,-6,65,-8
2610,-8,-257,8,-4,66,-7
2615,-12,-254,6,-3,68,-7
2620,-10,-257,2,-2,67,-6
2625,-6,-256,4,-3,63,-7
2630,-9,-255,1,-4,61,-8
2635,-5,-251,8,-6,57,-9
2640,-10,-251,6,-7,56,-12
2645,-7,-253,2,-11,51,-12
2650,-7,-254,4,-14,50,-12
2655,-8,-254,2,-16,50,-14
2660,-5,-256,5,-17,53,-14
2665,-7,-259,2,-18,57,-14
2670,-9,-256,4,-16,63,-13
2675,-9,-257,4,-12,67,-15
2680,-5,-254,9,-10,72,-16
2685,-5,-258,4,-11,73,-14
2690,-7,-256,5,-15,73,-15
2695,-5,-252,5,-19,69,-17
2700,-7,-255,3,-25,64,-19
2705,-7,-259,3,-34,57,-18
2710,-4,-256,3,-38,53,-17
2715,-9,-254,1,-42,49,-15
2720,-9,-256,4,-42,49,-15
2725,-9,-259,3,-39,51,-13
2730,-9,-257,-1,-34,55,-11
2735,-8,-258,0,-27,59,-13
2740,-9,-259,1,-19,62,-13
2745,-8,-257,4,-12,65,-13
2750,-10,-257,6,-7,68,-14
2755,-7,-257,5,-6,69,-16
2760,-3,-259,6,-8,70,-19
2765,-4,-255,4,-13,71,-22
2770,-2,-253,5,-17,72,-27
2775,-1,-252,2,-21,75,-33
2780,-3,-250,2,-19,70,-39
2785,0,-249,0,-16,69,-43
2790,-2,-253,-1,-16,76,-45
2795,-2,-250,2,-19,84,-45
2800,-7,-250,4,-22,89,-44
2805,-4,-252,1,-25,95,-41
2810,-5,-252,0,-27,99,-37
2815,-7,-252,4,-33,103,-31
2820,-7,-254,3,-38,104,-25
2825,-8,-256,4,-42,103,-19
2830,-9,-255,3,-43,99,-14
2835,-10,-255,5,-41,95,-10
2840,-11,-256,4,-39,92,-2
2845,-11,-256,8,-32,91,2
2850,-13,-257,11,-21,89,8
2855,-11,-259,8,-8,87,10
2860,-12,-259,13,7,85,13
2865,-9,-262,10,23,85,13
2870,-9,-263,11,37,86,14
2875,-9,-261,11,50,81,12
2880,-9,-258,12,60,77,11
2885,-9,-253,12,66,71,7
2890,-12,-254,9,70,64,4
2895,-8,-253,7,71,58,1
2900,-10,-251,12,69,54,-1
2905,-12,-250,9,67,52,-2
2910,-10,-252,13,64,50,0
2915,-12,-251,11,64,47,-4
2920,-10,-254,10,65,45,-3
2925,-11,-253,11,64,44,-3
2930,-11,-253,12,62,44,-2
2935,-8,-254,8,57,42,-2
2940,-6,-254,8,55,38,-2
2945,-10,-250,4,50,36,-1
2950,-4,-254,8,41,35,0
2955,-6,-252,3,30,34,-1
2960,-7,-249,6,19,36,-2
2965,-6,-250,4,7,40,-2
2970,-7,-251,1,-4,45,-2
2975,-3,-252,-1,-12,54,-2
2980,-4,-252,4,-21,64,-3
2985,0,-253,6,-29,74,-3
2990,0,-249,-2,-35,80,-5
2995,0,-249,-1,-43,87,-6
3000,0,-249,-2,-54,94,-6
3005,-2,-251,3,-68,98,-9
3010,-1,-250,0,-84,101,-12
3015,0,-245,1,-101,105,-14
3020,-5,-243,-5,-120,110,-14
3025,-2,-245,-3,-141,114,-14
3030,-3,-244,-1,-162,117,-12
3035,-5,-247,1,-182,118,-13
3040,-5,-243,-1,-199,116,-13
3045,-6,-247,1,-211,114,-14
3050,-7,-246,0,-222,110,-14
3055,-10,-246,1,-233,106,-10
3060,-7,-248,-3,-244,99,-9
3065,-8,-248,-3,-257,93,-9
3070,-9,-250,1,-270,82,-8
3075,-9,-250,2,-280,74,-9
3080,-12,-253,2,-287,65,-11
3085,-11,-252,-1,-290,61,-7
3090,-15,-253,2,-297,61,-1
3095,-14,-251,1,-303,63,8
3100,-12,-251,-1,-304,64,10
3105,-10,-252,2,-305,63,12
3110,-9,-249,0,-304,64,12
3115,-9,-252,9,-299,64,12
3120,-6,-251,8,-295,63,15
3125,-8,-248,7,-292,62,18
3130,-9,-248,10,-289,58,17
3135,-5,-248,8,-290,53,20
3140,-9,-247,5,-295,47,20
3145,-7,-249,2,-304,43,22
3150,-7,-248,1,-319,40,26
3155,-11,-250,-5,-336,36,28
3160,-10,-249,-6,-355,29,27
3165,-13,-253,-6,-372,20,26
3170,-12,-252,-8,-387,11,26
3175,-13,-258,-8,-393,2,25
3180,-17,-257,-12,-390,-7,21
3185,-17,-264,-7,-384,-18,23
3190,-17,-265,-8,-378,-30,25
3195,-14,-267,-8,-370,-42,26
3200,-18,-265,-5,-360,-50,27
3205,-16,-267,-5,-349,-55,30
3210,-13,-262,-13,-335,-56,31
3215,-11,-261,-8,-322,-52,33
3220,-1,-256,-11,-313,-43,31
3225,1,-257,-11,-307,-33,30
3230,5,-253,-14,-304,-18,29
3235,7,-250,-15,-302,-3,31
3240,6,-249,-13,-298,10,33
3245,6,-249,-11,-297,19,30
3250,7,-248,-16,-296,24,30
3255,5,-248,-14,-297,27,31
3260,2,-249,-18,-301,30,35
3265,1,-250,-17,-310,35,44
3270,-3,-245,-15,-324,45,54
3275,-3,-250,-16,-337,54,64
3280,-3,-253,-17,-354,63,77
3285,-11,-252,-12,-369,70,89
3290,-12,-251,-15,-386,77,104
3295,-17,-251,-16,-401,80,117
3300,-14,-254,-16,-417,79,128
3305,-19,-251,-15,-431,75,137
3310,-19,-252,-17,-448,69,144
3315,-22,-248,-19,-463,62,146
3320,-21,-247,-20,-481,54,146
3325,-17,-248,-25,-496,50,142
3330,-17,-246,-24,-506,47,136
3335,-17,-249,-31,-512,52,130
3340,-17,-247,-28,-520,58,126
3345,-18,-248,-28,-531,66,122
3350,-15,-250,-29,-541,75,120
3355,-15,-249,-22,-552,81,119
3360,-13,-249,-27,-563,86,118
3365,-12,-245,-27,-570,90,120
3370,-13,-246,-25,-574,93,119
3375,-10,-247,-24,-578,94,117
3380,-14,-246,-30,-583,94,113
3385,-16,-243,-36,-593,95,106
3390,-8,-241,-29,-607,96,97
3395,-8,-241,-40,-624,99,89
3400,-9,-243,-35,-642,102,78
3405,-8,-244,-38,-658,108,68
3410,-6,-244,-37,-673,117,62
3415,-7,-247,-42,-685,125,58
3420,-7,-248,-44,-700,133,56
3425,-11,-250,-40,-713,141,57
3430,-9,-255,-41,-726,149,60
3435,-6,-254,-53,-731,155,62
3440,-6,-258,-43,-730,160,64
3445,-11,-263,-43,-723,160,62
3450,-9,-260,-43,-708,159,63
3455,-15,-258,-48,-693,156,61
3460,-15,-257,-46,-675,156,61
3465,-15,-260,-51,-659,157,57
3470,-15,-255,-52,-644,161,57
3475,-19,-254,-53,-632,165,54
3480,-15,-257,-57,-625,172,54
3485,-18,-249,-55,-618,181,54
3490,-17,-249,-58,-611,191,56
3495,-15,-252,-57,-605,199,58
3500,-18,-250,-56,-602,205,61
3505,-16,-252,-58,-596,207,63
3510,-15,-250,-56,-588,209,67
3515,-18,-251,-54,-578,212,68
3520,-12,-249,-54,-567,214,70
3525,-12,-249,-56,-557,216,71
3530,-11,-252,-55,-548,222,72
3535,-7,-255,-53,-537,229,71
3540,-7,-254,-54,-528,236,67
3545,-6,-253,-55,-518,242,64
3550,-4,-256,-65,-506,247,59
3555,0,-258,-60,-497,251,54
3560,-1,-256,-63,-487,252,48
3565,-7,-253,-62,-473,251,45
3570,-10,-252,-66,-456,249,44
3575,-8,-253,-65,-438,245,42
3580,-8,-255,-67,-417,242,42
3585,-15,-250,-65,-396,240,38
3590,-15,-252,-68,-377,239,37
3595,-17,-246,-68,-359,243,39
3600,-16,-254,-69,-344,248,42
3605,-16,-246,-69,-331,251,42
3610,-17,-245,-63,-323,251,47
3615,-19,-247,-66,-316,250,55
3620,-16,-243,-63,-309,242,59
3625,-18,-246,-62,-307,233,63
3630,-24,-240,-63,-304,213,63
3635,-29,-240,-66,-297,189,58
3640,-30,-235,-69,-291,166,53
3645,-30,-237,-72,-285,146,50
3650,-34,-231,-70,-279,132,48
3655,-32,-233,-69,-281,129,55
3660,-35,-230,-72,-283,130,57
3665,-32,-234,-68,-290,134,57
3670,-25,-233,-65,-299,141,57
3675,-22,-234,-63,-308,141,52
3680,-14,-231,-60,-319,134,47
3685,-16,-228,-59,-326,129,46
3690,-8,-227,-63,-331,117,50
3695,-6,-230,-61,-344,107,52
3700,-7,-229,-67,-368,102,52
3705,0,-232,-73,-399,101,50
3710,-1,-235,-74,-432,112,51
3715,-2,-237,-74,-459,120,45
3720,-4,-241,-79,-478,133,37
3725,-4,-241,-76,-492,141,27
3730,-7,-245,-79,-502,148,17
3735,-9,-244,-79,-508,153,12
3740,-12,-246,-79,-513,155,9
3745,-17,-245,-76,-516,152,6
3750,-16,-245,-75,-521,147,5
3755,-19,-245,-77,-523,142,7
3760,-24,-246,-68,-524,137,9
3765,-17,-241,-73,-518,134,14
3770,-20,-237,-72,-505,126,19
3775,-19,-236,-74,-486,121,23
3780,-19,-232,-73,-467,114,26
3785,-17,-229,-69,-451,107,25
3790,-21,-226,-72,-437,103,24
3795,-16,-228,-69,-427,101,26
3800,-20,-224,-68,-421,101,28
3805,-18,-227,-71,-415,104,29
3810,-19,-230,-67,-415,109,33
3815,-21,-233,-71,-417,116,35
3820,-18,-238,-69,-419,126,41
3825,-20,-240,-72,-422,132,47
3830,-18,-244,-75,-427,137,54
3835,-19,-242,-85,-430,139,60
3840,-19,-243,-85,-432,137,64
3845,-19,-243,-89,-429,131,69
3850,-18,-241,-88,-419,122,73
3855,-23,-237,-88,-402,109,81
3860,-21,-242,-90,-379,94,89
3865,-22,-238,-92,-350,75,94
3870,-26,-239,-86,-322,57,100
3875,-26,-231,-88,-296,39,106
3880,-27,-236,-88,-277,23,112
3885,-27,-236,-88,-264,11,119
3890,-30,-236,-90,-259,4,126
3895,-29,-236,-94,-261,-3,133
3900,-30,-233,-98,-267,-8,139
3905,-28,-234,-101,-277,-13,144
3910,-25,-231,-103,-289,-18,149
3915,-27,-229,-103,-301,-22,154
3920,-23,-229,-106,-313,-24,154
3925,-27,-224,-104,-324,-22,153
3930,-18,-220,-100,-334,-21,149
3935,-19,-218,-96,-342,-19,141
3940,-19,-217,-96,-347,-17,136
3945,-19,-214,-97,-350,-17,129
3950,-17,-220,-95,-354,-13,122
3955,-17,-218,-99,-363,-5,114
3960,-19,-217,-100,-374,7,107
3965,-19,-219,-102,-387,21,98
3970,-17,-221,-107,-400,35,95
3975,-18,-218,-108,-408,46,91
3980,-15,-218,-107,-413,53,86
3985,-13,-217,-112,-411,56,81
3990,-12,-216,-108,-405,54,81
3995,-14,-215,-106,-395,47,80
4000,-14,-214,-104,-386,40,75
4005,-17,-210,-102,-381,34,71
4010,-18,-209,-101,-381,32,64
4015,-19,-208,-103,-386,28,59
4020,-23,-213,-101,-395,27,56
4025,-25,-211,-100,-406,25,52
4030,-30,-211,-107,-421,25,50
4035,-32,-211,-113,-436,23,48
4040,-33,-215,-112,-452,20,48
4045,-38,-213,-118,-467,15,49
4050,-38,-217,-122,-481,12,51
4055,-39,-218,-122,-493,12,52
4060,-38,-223,-122,-502,11,53
4065,-35,-222,-129,-506,12,57
4070,-29,-228,-128,-502,16,59
4075,-30,-226,-131,-494,22,55
4080,-22,-226,-129,-482,28,48
4085,-15,-226,-124,-467,35,36
4090,-9,-221,-125,-452,41,23
4095,-11,-218,-123,-438,50,9
4100,-9,-218,-118,-431,54,-4
4105,-12,-214,-118,-429,59,-16
4110,-12,-215,-116,-433,66,-25
4115,-11,-213,-117,-438,75,-32
4120,-12,-214,-123,-441,84,-39
4125,-14,-217,-123,-443,93,-41
4130,-14,-216,-129,-444,103,-39
4135,-15,-220,-129,-442,112,-35
4140,-15,-224,-133,-438,123,-32
4145,-17,-224,-134,-429,135,-27
4150,-20,-230,-142,-418,144,-23
4155,-21,-229,-143,-408,149,-17
4160,-22,-234,-144,-398,150,-11
4165,-25,-234,-145,-390,146,-4
4170,-29,-235,-141,-384,139,5
4175,-31,-233,-138,-378,128,14
4180,-32,-231,-135,-369,115,24
4185,-35,-230,-135,-358,106,33
4190,-34,-228,-130,-347,98,44
4195,-32,-227,-125,-332,93,53
4200,-33,-225,-127,-317,92,61
4205,-24,-231,-129,-301,94,71
4210,-22,-223,-127,-288,100,77
4215,-13,-224,-127,-275,111,84
4220,-10,-223,-133,-262,125,90
4225,-7,-222,-131,-250,144,91
4230,-3,-226,-134,-245,165,91
4235,0,-225,-138,-246,191,90
4240,-2,-227,-137,-249,216,87
4245,-2,-231,-143,-251,244,90
4250,-4,-232,-149,-256,275,94
4255,-10,-230,-149,-261,303,103
4260,-12,-233,-152,-270,321,113
4265,-19,-229,-152,-283,328,126
4270,-26,-229,-157,-297,318,139
4275,-33,-226,-157,-308,299,151
4280,-37,-221,-158,-317,266,164
4285,-48,-218,-154,-321,226,171
4290,-54,-211,-153,-321,179,176
4295,-61,-211,-150,-320,129,180
4300,-61,-211,-150,-323,83,184
4305,-62,-210,-145,-326,48,190
4310,-64,-212,-146,-326,24,197
4315,-63,-212,-140,-331,8,208
4320,-58,-216,-138,-341,-4,217
4325,-52,-217,-143,-348,-10,223
4330,-43,-215,-147,-349,-8,226
4335,-37,-217,-147,-340,-4,224
4340,-31,-216,-149,-322,0,217
4345,-28,-221,-149,-298,2,205
4350,-24,-217,-151,-274,7,189
4355,-21,-209,-155,-257,13,170
4360,-18,-206,-154,-247,26,148
4365,-18,-206,-153,-248,40,127
4370,-19,-204,-151,-252,56,109
4375,-22,-200,-155,-260,69,91
4380,-25,-198,-153,-269,81,76
4385,-27,-199,-155,-281,92,65
4390,-33,-202,-154,-290,104,56
4395,-31,-204,-153,-294,115,52
4400,-33,-209,-155,-293,124,46
4405,-34,-209,-153,-286,129,48
4410,-38,-208,-154,-272,132,51
4415,-33,-209,-156,-255,132,54
4420,-34,-213,-163,-232,128,57
4425,-34,-207,-154,-209,122,60
4430,-32,-211,-155,-183,110,64
4435,-32,-211,-159,-155,97,69
4440,-29,-209,-155,-127,82,73
4445,-25,-212,-155,-102,71,79
4450,-28,-210,-155,-77,62,81
4455,-25,-208,-153,-50,59,84
4460,-22,-208,-153,-26,61,87
4465,-21,-206,-157,-1,70,89
4470,-18,-202,-152,25,83,86
4475,-19,-200,-152,55,102,80
4480,-16,-198,-151,88,125,71
4485,-15,-197,-152,126,151,60
4490,-15,-194,-150,170,174,48
4495,-17,-194,-143,225,198,30
4500,-19,-191,-138,291,216,7
4505,-19,-194,-131,368,229,-18
4510,-16,-190,-129,452,237,-46
4515,-16,-188,-121,535,239,-74
4520,-15,-186,-121,609,238,-98
4525,-15,-182,-125,672,227,-117
4530,-14,-183,-127,714,207,-128
4535,-19,-177,-119,733,182,-129
4540,-20,-173,-124,724,160,-124
4545,-25,-169,-121,694,146,-112
4550,-27,-167,-122,651,138,-96
4555,-30,-165,-125,603,140,-80
4560,-36,-163,-125,559,151,-68
4565,-38,-164,-127,527,166,-60
4570,-40,-163,-126,503,181,-56
4575,-44,-163,-129,484,196,-56
4580,-45,-162,-135,472,204,-59
4585,-46,-156,-135,467,207,-67
4590,-47,-155,-138,462,204,-74
4595,-47,-155,-145,452,196,-77
4600,-48,-155,-142,441,183,-75
4605,-48,-161,-140,427,163,-65
4610,-48,-166,-141,412,141,-51
4615,-45,-170,-135,401,114,-32
4620,-42,-176,-138,398,86,-11
4625,-35,-183,-132,398,60,8
4630,-27,-186,-128,397,39,26
4635,-18,-190,-131,402,22,37
4640,-16,-191,-129,415,13,42
4645,-13,-195,-134,433,8,43
4650,-4,-194,-131,457,9,39
4655,-2,-198,-133,481,15,32
4660,-2,-193,-137,499,23,24
4665,-3,-194,-138,516,35,12
4670,-7,-194,-140,529,47,-1
4675,-8,-193,-140,539,61,-13
4680,-10,-195,-143,543,71,-24
4685,-12,-189,-143,548,77,-31
4690,-16,-188,-147,551,76,-37
4695,-19,-188,-145,545,70,-41
4700,-25,-186,-148,534,62,-40
4705,-34,-184,-151,528,50,-39
4710,-37,-186,-155,515,31,-35
4715,-41,-188,-153,482,7,-29
4720,-42,-192,-152,446,-10,-17
4725,-46,-195,-155,405,-21,3
4730,-43,-206,-153,363,-37,23
4735,-35,-212,-149,332,-51,43
4740,-29,-219,-151,319,-63,64
4745,-28,-228,-147,323,-75,81
4750,-34,-235,-151,347,-87,87
4755,-27,-234,-148,386,-92,91
4760,-18,-235,-148,438,-90,90
4765,-17,-233,-150,504,-85,87
4770,-20,-231,-153,569,-74,79
4775,-19,-226,-151,624,-64,77
4780,-19,-217,-149,674,-58,72
4785,-19,-212,-152,714,-61,66
4790,-20,-207,-152,728,-66,60
4795,-23,-199,-154,721,-71,51
4800,-24,-197,-159,701,-76,39
4805,-25,-191,-161,669,-80,30
4810,-29,-189,-163,622,-82,21
4815,-29,-192,-165,568,-83,14
4820,-32,-202,-162,520,-79,10
4825,-28,-210,-162,491,-70,9
4830,-26,-217,-161,484,-56,15
4835,-19,-225,-159,497,-37,19
4840,-15,-230,-160,527,-17,21
4845,-8,-232,-161,570,3,20
4850,-9,-230,-162,617,21,15
4855,-5,-230,-163,655,38,7
4860,-9,-217,-164,685,48,-2
4865,-12,-208,-171,702,56,-11
4870,-13,-208,-170,694,67,-20
4875,-19,-204,-171,672,79,-32
4880,-27,-197,-168,641,87,-38
4885,-33,-201,-163,613,93,-41
4890,-33,-203,-163,595,95,-43
4895,-39,-201,-154,596,91,-38
4900,-33,-203,-154,612,82,-28
4905,-32,-210,-156,638,70,-17
4910,-30,-212,-163,669,50,3
4915,-24,-215,-163,693,31,22
4920,-20,-220,-164,706,16,43
4925,-12,-221,-160,712,8,55
4930,-9,-216,-149,716,12,63
4935,-6,-211,-144,727,24,66
4940,-5,-205,-140,744,37,64
4945,-6,-196,-136,774,51,53
4950,-8,-189,-131,814,65,35
4955,-12,-183,-130,860,77,15
4960,-18,-182,-134,906,89,-3
4965,-26,-179,-132,946,99,-16
4970,-28,-182,-129,978,110,-21
4975,-30,-181,-129,1001,116,-20
4980,-26,-183,-129,1014,117,-11
4985,-21,-186,-123,1027,122,0
4990,-19,-188,-116,1040,122,6
4995,-18,-192,-110,1060,115,9
5000,-18,-198,-110,1090,105,9
5005,-16,-199,-101,1135,86,3
5010,-16,-200,-95,1194,61,3
5015,-16,-197,-97,1261,31,4
5020,-11,-199,-92,1331,2,6
5025,-13,-194,-93,1404,-22,14
5030,-13,-189,-90,1480,-41,25
5035,-18,-188,-92,1565,-57,30
5040,-22,-184,-90,1656,-68,34
5045,-23,-183,-84,1740,-77,35
5050,-28,-178,-77,1817,-81,34
5055,-27,-171,-71,1888,-81,34
5060,-25,-166,-69,1953,-76,26
5065,-25,-168,-56,2016,-74,14
5070,-17,-173,-56,2079,-77,-3
5075,-25,-169,-40,2134,-82,-28
5080,-43,-178,-41,2185,-103,-49
5085,-53,-191,-30,2236,-135,-55
5090,-62,-208,-16,2280,-175,-62
5095,-73,-235,-8,2313,-213,-74
5100,-82,-288,9,2346,-244,-96
5105,-80,-339,20,2391,-265,-143
5110,-83,-385,42,2457,-275,-192
5115,-89,-428,45,2569,-284,-229
5120,-91,-453,59,2701,-307,-247
5125,-93,-482,86,2828,-338,-237
5130,-108,-506,121,2932,-348,-208
5135,-108,-515,157,3041,-310,-158
5140,-103,-508,205,3173,-279,-116
5145,-96,-496,261,3351,-365,-100
5150,-103,-473,277,3614,-506,-101
5155,-110,-460,285,3892,-586,-81
5160,-118,-464,284,4082,-647,-56
5165,-117,-484,275,4161,-714,-61
5170,-116,-512,281,4160,-735,-86
5175,-104,-549,287,4121,-729,-101
5180,-95,-598,296,4108,-720,-100
5185,-75,-608,294,4188,-718,-69
5190,-62,-600,285,4427,-733,-2
5195,-52,-571,278,4644,-760,78
5200,-48,-509,260,4741,-791,152
5205,-56,-444,247,4634,-808,195
5210,-66,-383,240,4294,-803,188
5215,-64,-332,236,3763,-775,147
5220,-33,-282,237,3129,-731,105
5225,0,-251,250,2515,-663,61
5230,36,-231,258,2072,-568,22
5235,63,-210,255,1868,-454,-3
5240,82,-197,238,1894,-342,-29
5245,95,-186,204,2102,-223,-59
5250,104,-181,171,2410,-114,-92
5255,104,-184,131,2748,-33,-117
5260,101,-192,103,3069,27,-135
5265,95,-198,74,3328,86,-142
5270,75,-212,53,3488,158,-165
5275,51,-217,41,3571,230,-214
5280,25,-218,37,3584,296,-252
5285,3,-213,41,3540,356,-267
5290,-24,-212,60,3436,409,-265
5295,-48,-191,78,3300,420,-262
5300,-56,-170,86,3125,404,-253
5305,-59,-140,93,2934,381,-234
5310,-49,-110,90,2752,349,-207
5315,-48,-78,78,2584,309,-174
5320,-39,-46,55,2440,272,-137
5325,-30,-24,35,2331,243,-104
5330,-20,-13,23,2254,226,-84
5335,-13,-13,16,2195,211,-71
5340,-6,-13,22,2146,190,-59
5345,7,-23,37,2115,162,-50
5350,13,-27,46,2088,135,-44
5355,20,-36,66,2052,118,-35
5360,19,-48,86,1993,120,-24
5365,15,-52,104,1905,132,-12
5370,13,-60,121,1782,153,3
5375,11,-66,138,1631,185,22
5380,12,-80,144,1477,221,35
5385,7,-89,149,1350,253,47
5390,8,-98,136,1278,279,60
5395,6,-104,130,1287,302,79
5400,4,-102,118,1368,313,98
5405,2,-108,115,1495,318,117
5410,-1,-105,113,1634,317,133
5415,-8,-101,126,1755,316,155
5420,-18,-93,145,1846,316,179
5425,-24,-85,166,1908,310,205
5430,-32,-83,182,1958,304,227
5435,-35,-82,197,2006,293,249
5440,-55,-76,230,2053,271,272
5445,-60,-72,243,2104,217,317
5450,-59,-60,265,2147,144,360
5455,-51,-53,283,2184,66,390
5460,-25,-41,298,2218,-2,403
5465,0,-24,308,2267,-44,404
5470,8,1,320,2344,-68,385
5475,35,10,318,2450,-85,357
5480,25,20,319,2561,-84,309
5485,24,29,322,2646,-89,262
5490,31,38,327,2700,-85,206
5495,6,48,342,2716,-62,146
5500,4,52,347,2710,-49,110
5505,-6,47,349,2693,-11,91
5510,-25,41,352,2690,42,94
5515,-21,29,346,2723,90,135
5520,-15,20,343,2781,139,189
5525,-14,23,359,2856,172,243
5530,0,32,364,2924,177,294
5535,4,37,364,2954,189,329
5540,12,32,348,2952,205,328
5545,8,29,314,2929,197,275
5550,3,27,283,2896,171,186
5555,-1,27,258,2834,149,94
5560,-7,31,245,2758,127,4
5565,-15,36,235,2706,106,-82
5570,-28,48,218,2687,115,-156
5575,-36,62,224,2657,150,-224
5580,-52,80,232,2607,191,-282
5585,-52,94,237,2534,234,-319
5590,-69,120,252,2439,270,-336
5595,-67,143,250,2313,289,-322
5600,-67,160,245,2146,296,-302
5605,-62,172,242,1959,306,-273
5610,-58,178,235,1763,309,-249
5615,-60,188,243,1589,298,-226
5620,-61,196,251,1430,283,-194
5625,-64,196,255,1282,262,-159
5630,-64,199,256,1131,240,-119
5635,-59,194,254,976,220,-82
5640,-49,188,249,828,218,-75
5645,-52,184,239,713,221,-83
5650,-51,175,235,605,215,-81
5655,-51,165,228,493,189,-94
5660,-45,157,231,384,146,-124
5665,-49,150,211,308,85,-195
5670,-41,147,207,192,44,-261
5675,-37,139,207,75,12,-312
5680,-35,138,198,-12,-22,-356
5685,-31,137,199,-135,-27,-372
5690,-27,133,208,-292,-36,-372
5695,-27,132,214,-458,-44,-374
5700,-31,124,231,-604,-47,-377
5705,-27,120,237,-706,-45,-365
5710,-30,106,240,-765,-40,-349
5715,-31,90,239,-785,-30,-333
5720,-34,75,236,-762,-25,-326
5725,-31,55,230,-709,-27,-324
5730,-35,44,218,-643,-26,-326
5735,-32,28,218,-571,-21,-325
5740,-35,24,212,-493,-18,-329
5745,-28,15,218,-424,-13,-329
5750,-26,19,220,-353,-5,-324
5755,-20,24,219,-282,9,-322
5760,-20,33,219,-211,29,-314
5765,-14,44,219,-146,57,-303
5770,-12,56,224,-94,96,-294
5775,-16,67,227,-47,139,-289
5780,-12,79,226,-8,181,-289
5785,-14,88,228,29,215,-286
5790,-16,87,232,66,238,-278
5795,-20,90,232,107,249,-263
5800,-25,94,230,144,249,-245
5805,-26,94,234,177,242,-226
5810,-29,97,239,203,236,-206
5815,-28,101,243,215,231,-180
5820,-28,98,245,222,228,-153
5825,-22,95,247,223,227,-132
5830,-12,93,253,218,228,-123
5835,-8,88,257,202,229,-121
5840,-2,85,260,180,218,-124
5845,0,76,265,153,197,-131
5850,3,70,268,131,175,-137
5855,5,67,260,115,160,-145
5860,9,66,266,107,164,-151
5865,10,71,262,110,194,-145
5870,15,72,262,124,248,-131
5875,10,78,268,146,316,-113
5880,10,78,268,172,381,-97
5885,11,83,268,197,429,-96
5890,10,83,267,211,455,-111
5895,7,81,262,201,466,-142
5900,9,74,259,173,462,-185
5905,8,70,253,136,458,-239
5910,8,69,252,95,452,-294
5915,8,64,239,48,453,-347
5920,11,53,237,-1,458,-391
5925,5,48,235,-46,462,-423
5930,-5,37,236,-70,461,-435
5935,-16,28,236,-73,454,-421
5940,-25,24,233,-53,444,-393
5945,-36,14,231,-25,441,-361
5950,-47,16,232,12,436,-335
5955,-57,14,233,47,431,-317
5960,-66,16,230,68,419,-308
5965,-79,20,233,69,403,-303
5970,-93,21,229,46,384,-307
5975,-107,25,232,4,359,-313
5980,-122,24,235,-31,323,-318
5985,-129,22,232,-57,284,-318
5990,-137,22,236,-70,250,-311
5995,-138,17,229,-63,217,-288
6000,-141,19,230,-34,192,-251
6005,-131,16,223,12,173,-208
6010,-127,21,214,51,159,-162
6015,-119,24,210,77,143,-113
6020,-111,21,204,93,120,-68
6025,-100,23,203,97,81,-29
6030,-94,25,203,84,33,3
6035,-87,25,203,65,-28,30
6040,-81,22,207,42,-94,54
6045,-76,19,213,15,-157,65
6050,-71,19,208,-5,-212,65
6055,-70,17,221,-13,-255,61
6060,-65,14,226,-12,-284,56
6065,-63,16,228,0,-299,50
6070,-66,18,233,17,-298,45
6075,-68,21,238,35,-292,46
6080,-66,26,242,48,-277,55
6085,-65,23,245,55,-261,65
6090,-68,28,244,52,-244,73
6095,-67,29,248,45,-224,78
6100,-71,29,250,39,-208,86
6105,-74,31,250,35,-194,96
6110,-78,33,245,31,-182,109
6115,-80,33,246,28,-166,122
6120,-75,34,245,20,-148,134
6125,-80,36,242,7,-132,143
6130,-82,39,238,-13,-113,151
6135,-81,41,240,-40,-92,158
6140,-82,38,246,-71,-75,164
6145,-79,39,240,-92,-69,172
6150,-76,38,242,-119,-64,175
6155,-70,36,239,-154,-56,173
6160,-68,39,249,-188,-49,163
6165,-62,33,247,-208,-47,156
6170,-53,29,249,-213,-45,147
6175,-45,31,243,-204,-42,140
6180,-40,32,248,-200,-36,136
6185,-35,29,247,-183,-35,128
6190,-32,31,247,-161,-37,121
6195,-23,31,246,-130,-45,116
6200,-21,32,249,-93,-55,114
6205,-17,35,245,-54,-65,111
6210,-12,36,243,-15,-74,105
6215,-8,38,240,16,-80,99
6220,-2,44,238,36,-81,90
6225,0,46,236,42,-77,79
6230,0,52,238,49,-71,73
6235,0,55,238,53,-64,66
6240,5,56,238,58,-56,64
6245,6,57,235,60,-47,63
6250,3,62,236,57,-37,58
6255,3,65,236,47,-22,53
6260,0,66,236,31,-7,46
6265,-2,64,231,10,6,36
6270,-12,67,235,-11,17,27
6275,-13,61,237,-27,20,22
6280,-19,67,238,-42,17,22
6285,-14,63,238,-54,10,22
6290,-19,64,239,-69,4,19
6295,-18,63,242,-84,-3,11
6300,-20,63,238,-89,-17,9
6305,-16,62,241,-95,-29,7
6310,-17,62,240,-97,-43,6
6315,-17,58,241,-94,-54,5
6320,-11,55,247,-89,-66,4
6325,-11,57,245,-72,-77,6
6330,-9,57,243,-47,-86,8
6335,-13,56,244,-24,-85,12
6340,-13,55,244,-7,-80,12
6345,-16,57,245,12,-72,14
6350,-14,53,247,20,-62,13
6355,-21,55,245,21,-50,10
6360,-20,56,245,17,-35,6
6365,-22,53,248,7,-18,1
6370,-20,53,245,-4,-1,-2
6375,-24,50,246,-12,16,-6
6380,-29,48,246,-19,38,-9
6385,-25,49,246,-27,60,-9
6390,-28,48,246,-31,81,-10
6395,-25,47,252,-34,102,-9
6400,-27,47,249,-34,122,-7
6405,-26,46,250,-32,139,-1
6410,-26,44,247,-25,148,3
6415,-26,43,245,-13,155,7
6420,-30,41,244,-2,157,14
6425,-26,45,246,11,157,17
6430,-27,44,245,24,156,20
6435,-31,44,240,39,157,24
6440,-31,47,239,49,157,26
6445,-32,44,237,52,158,27
6450,-33,43,243,54,159,24
6455,-35,44,239,56,158,20
6460,-36,42,242,60,156,17
6465,-40,43,241,63,152,11
6470,-37,41,237,64,148,5
6475,-38,41,237,63,147,-2
6480,-39,40,238,58,149,-9
6485,-37,39,235,51,152,-15
6490,-42,41,237,33,160,-24
6495,-39,41,238,0,171,-32
6500,-38,39,241,-25,175,-39
6505,-40,40,244,-38,172,-45
6510,-43,43,244,-41,162,-48
6515,-41,36,241,-35,149,-52
6520,-39,37,241,-29,140,-55
6525,-40,37,241,-22,132,-55
6530,-40,37,239,-5,119,-53
6535,-41,38,241,11,106,-52
6540,-41,41,236,25,97,-51
6545,-43,37,240,34,86,-49
6550,-39,36,235,39,76,-46
6555,-40,40,234,41,67,-46
6560,-41,39,238,38,62,-45
6565,-45,44,238,29,60,-47
6570,-43,41,237,21,58,-45
6575,-46,44,237,16,56,-45
6580,-39,43,239,14,51,-42
6585,-44,46,238,9,50,-45
6590,-45,44,241,4,49,-45
6595,-41,44,245,0,48,-41
6600,-40,45,239,1,45,-40
6605,-45,49,242,0,42,-37
6610,-42,48,236,1,37,-32
6615,-44,50,239,-2,36,-29
6620,-41,48,238,-6,36,-22
6625,-41,51,238,-12,36,-18
6630,-39,50,241,-17,36,-9
6635,-40,51,241,-24,36,-7
6640,-39,49,240,-33,35,-1
6645,-41,48,248,-38,35,1
6650,-42,52,241,-48,37,1
6655,-40,50,242,-58,39,-2
6660,-40,53,244,-64,38,-2
6665,-41,51,244,-69,37,0
6670,-41,53,244,-72,35,2
6675,-42,54,248,-73,32,4
6680,-37,53,242,-77,32,5
6685,-39,53,244,-83,30,6
6690,-37,54,245,-89,31,9
6695,-40,54,242,-95,30,11
6700,-37,56,244,-97,28,13
6705,-37,49,240,-99,27,16
6710,-33,52,245,-100,28,17
6715,-33,49,243,-100,27,19
6720,-31,48,245,-101,29,22
6725,-30,49,243,-104,30,22
6730,-32,51,245,-106,31,23
6735,-29,49,241,-108,34,22
6740,-29,49,243,-111,36,20
6745,-29,48,243,-114,37,20
6750,-30,47,243,-116,38,18
6755,-30,45,240,-115,42,16
6760,-29,47,241,-113,46,17
6765,-28,47,242,-110,52,16
6770,-28,45,244,-105,57,17
6775,-31,47,243,-98,60,16
6780,-26,46,242,-89,63,14
6785,-29,44,240,-82,66,13
6790,-28,43,240,-75,66,14
6795,-30,45,241,-70,67,11
6800,-29,49,239,-67,68,10
6805,-30,41,245,-67,70,9
6810,-27,46,236,-71,71,8
6815,-29,46,247,-77,73,8
6820,-30,43,243,-83,73,7
6825,-29,45,243,-87,75,6
6830,-33,46,242,-91,74,5
6835,-30,44,239,-92,76,6
6840,-29,43,249,-91,77,5
6845,-33,42,244,-87,79,5
6850,-30,41,240,-82,80,5
6855,-32,46,242,-77,79,6
6860,-33,46,244,-73,79,4
6865,-33,43,239,-67,80,3
6870,-35,42,243,-65,80,2
6875,-33,43,240,-62,80,4
6880,-37,41,239,-64,78,1
6885,-38,41,240,-67,78,0
6890,-38,44,242,-75,76,1
6895,-38,43,238,-82,73,1
6900,-38,38,242,-89,71,-1
6905,-38,38,240,-94,69,-3
6910,-37,37,241,-95,69,-6
6915,-36,36,241,-93,71,-6
6920,-40,36,241,-88,71,-9
6925,-42,32,242,-83,72,-8
6930,-43,37,240,-75,73,-7
6935,-38,38,241,-70,74,-8
6940,-38,35,241,-64,75,-7
6945,-36,36,240,-61,77,-6
6950,-37,38,238,-58,76,-7
6955,-38,38,240,-56,75,-6
6960,-40,39,240,-55,75,-4
6965,-38,37,241,-57,72,-2
6970,-39,38,242,-58,69,-2
6975,-39,39,240,-60,66,-3
6980,-39,39,241,-61,62,-4
6985,-38,38,241,-63,59,-7
6990,-36,39,244,-64,56,-8
6995,-37,42,241,-65,56,-9
7000,-36,42,240,-68,55,-12
7005,-34,40,242,-73,58,-13
7010,-34,42,243,-77,61,-13
7015,-36,40,242,-83,66,-13
7020,-31,39,242,-90,70,-10
7025,-34,39,242,-94,72,-8
7030,-32,36,242,-97,74,-8
7035,-32,35,241,-97,76,-6
7040,-33,38,242,-96,77,-5
7045,-34,37,242,-93,77,-6
7050,-33,40,242,-91,76,-4
7055,-34,37,243,-88,73,-2
7060,-36,42,243,-85,71,-2
7065,-32,35,240,-84,70,-4
7070,-33,39,243,-83,69,-5
7075,-33,37,241,-83,69,-3
7080,-33,37,240,-81,69,-4
7085,-31,38,240,-76,68,-3
7090,-33,38,243,-70,68,-2
7095,-31,38,242,-63,67,1
7100,-31,39,242,-54,68,2
7105,-33,39,241,-43,66,1
7110,-29,36,239,-32,66,2
7115,-31,35,239,-22,65,2
7120,-34,40,242,-14,63,4
7125,-34,36,240,-9,62,3
7130,-36,39,241,-8,60,3
7135,-36,37,240,-9,62,1
7140,-36,39,249,-15,64,-1
7145,-36,41,244,-26,66,-2
7150,-36,39,240,-39,68,-4
7155,-35,34,243,-53,71,-5
7160,-31,36,242,-64,74,-5
7165,-34,40,241,-71,76,-5
7170,-32,36,242,-74,76,-3
7175,-37,35,245,-71,77,-2
7180,-33,36,243,-67,78,-1
7185,-34,38,242,-63,77,0
7190,-36,34,241,-62,77,2
7195,-33,36,241,-63,76,3
7200,-33,37,242,-65,75,3
7205,-36,38,242,-68,74,4
7210,-34,35,244,-73,74,6
7215,-36,37,243,-73,74,6
7220,-35,41,245,-71,75,8
7225,-32,36,243,-65,76,10
7230,-36,38,244,-58,78,11
7235,-33,36,241,-49,80,11
7240,-35,35,242,-41,83,11
7245,-35,36,239,-32,85,11
7250,-36,36,241,-28,83,9
7255,-34,34,243,-26,81,8
7260,-35,34,239,-29,79,5
7265,-34,38,240,-32,77,3
7270,-36,35,237,-37,73,0
7275,-37,38,242,-44,69,1
7280,-36,34,239,-50,66,-1
7285,-35,35,242,-58,65,0
7290,-34,39,242,-62,63,1
7295,-38,38,241,-66,62,0
7300,-33,36,242,-70,61,3
7305,-36,36,245,-72,61,3
7310,-31,36,245,-74,62,4
7315,-34,38,242,-74,65,4
7320,-35,35,247,-75,68,4
7325,-34,35,240,-73,69,4
7330,-33,32,244,-71,72,4
7335,-36,35,246,-68,74,4
7340,-36,35,237,-64,74,5
7345,-36,37,242,-61,73,2
7350,-35,35,240,-59,71,2
7355,-39,40,238,-57,70,2
7360,-37,36,237,-58,66,1
7365,-35,32,240,-58,63,1
7370,-34,34,244,-57,61,3
7375,-34,37,241,-57,60,2
7380,-35,34,239,-57,59,2
7385,-34,35,240,-58,62,0
7390,-37,37,242,-58,61,1
7395,-36,31,244,-58,60,0
7400,-35,30,241,-56,59,-1
7405,-38,36,242,-55,59,-2
7410,-35,32,244,-53,60,-2
7415,-34,29,243,-49,63,-3
7420,-36,31,240,-44,64,-4
7425,-36,27,238,-38,66,-5
7430,-34,30,241,-30,68,-3
7435,-38,32,240,-25,69,-4
7440,-38,32,241,-18,70,-4
7445,-38,31,243,-16,68,-5
7450,-36,31,240,-14,69,-6
7455,-36,37,243,-17,69,-6
7460,-38,34,242,-25,69,-5
7465,-38,34,241,-34,67,-6
7470,-35,44,243,-45,66,-8
7475,-36,35,242,-55,64,-7
7480,-34,34,243,-65,62,-6
7485,-38,35,241,-70,61,-6
7490,-32,30,245,-73,62,-6
7495,-35,34,245,-74,62,-5
7500,-35,35,240,-71,64,-5
7505,-34,32,240,-66,64,-5
7510,-32,34,240,-59,63,-5
7515,-36,32,239,-49,63,-4
7520,-35,31,243,-42,65,-4
7525,-34,30,239,-35,66,-4
7530,-36,34,237,-30,68,-2
7535,-37,37,237,-30,67,-2
7540,-34,32,240,-31,70,-2
7545,-33,33,244,-36,71,0
7550,-33,34,239,-39,71,1
7555,-33,35,244,-41,72,2
7560,-31,31,238,-41,73,3
7565,-33,32,244,-40,74,3
7570,-34,33,241,-35,74,4
7575,-32,30,241,-26,76,5
7580,-34,30,240,-17,76,7
7585,-35,32,240,-8,79,8
7590,-38,31,240,0,83,10
7595,-38,32,240,6,89,12
7600,-37,31,240,12,96,15
7605,-37,33,240,14,105,17
7610,-38,35,241,13,113,16
7615,-38,33,239,12,122,14
7620,-36,36,243,8,129,10
7625,-35,31,245,2,134,6
7630,-33,34,243,-4,134,3
7635,-30,34,243,-13,132,1
7640,-32,37,244,-21,129,1
7645,-28,31,245,-30,123,-1
7650,-32,34,242,-35,118,1
7655,-29,31,242,-40,114,4
7660,-34,33,244,-41,110,6
7665,-34,34,245,-39,105,7
7670,-32,31,245,-33,102,8
7675,-35,31,243,-26,100,10
7680,-38,28,244,-18,98,7
7685,-36,33,243,-8,94,7
7690,-34,29,240,-2,93,5
7695,-36,30,245,2,89,4
7700,-36,34,243,4,84,2
7705,-37,32,237,1,83,2
7710,-35,29,240,-2,78,1
7715,-37,32,240,-4,74,-1
7720,-34,32,237,-3,70,1
7725,-36,32,236,2,68,1
7730,-35,34,240,12,65,-1
7735,-35,32,238,21,62,-2
7740,-34,33,240,31,63,-5
7745,-35,31,240,41,61,-5
7750,-38,29,240,46,60,-7
7755,-37,32,240,50,61,-8
7760,-38,31,239,49,61,-10
7765,-38,31,240,43,62,-11
7770,-40,33,246,35,63,-13
7775,-40,31,240,23,65,-12
7780,-38,33,244,8,67,-13
7785,-37,33,248,-7,67,-13
7790,-40,32,243,-18,71,-11
7795,-43,33,236,-24,72,-10
7800,-36,29,244,-24,75,-9
7805,-37,32,243,-19,74,-9
7810,-37,30,242,-11,74,-7
7815,-35,31,241,-5,73,-7
7820,-38,33,241,4,69,-5
7825,-33,31,239,8,67,-5
7830,-36,32,242,10,65,-5
7835,-36,36,242,12,65,-3
7840,-37,31,237,14,62,-2
7845,-38,32,240,16,61,-1
7850,-35,34,240,21,60,0
7855,-34,33,240,26,59,2
7860,-37,35,240,31,57,1
7865,-38,35,240,36,56,1
7870,-35,33,241,39,56,2
7875,-37,34,242,42,55,0
7880,-36,37,244,41,55,0
7885,-32,32,240,39,53,0
7890,-34,36,239,35,53,-2
7895,-34,37,238,32,52,-2
7900,-32,37,242,27,52,-3
7905,-29,35,238,22,50,-4
7910,-37,35,242,19,50,-4
7915,-37,37,244,16,51,-4
7920,-37,34,245,13,51,-5
7925,-36,35,240,12,52,-5
7930,-38,35,245,10,54,-6
7935,-37,36,240,8,55,-5
7940,-34,34,247,6,56,-4
7945,-33,35,243,3,58,-5
7950,-35,35,243,3,59,-5
7955,-35,38,242,2,61,-6
7960,-36,34,242,1,62,-8
7965,-37,33,244,3,64,-7
7970,-37,35,243,5,66,-8
7975,-37,32,242,10,66,-9
7980,-35,34,240,11,69,-8
7985,-36,36,242,15,67,-7
7990,-38,32,244,17,67,-7
7995,-38,31,240,18,67,-7
8000,-35,34,238,20,68,-7
8005,-35,36,240,21,69,-8
8010,-35,36,239,22,70,-8
8015,-38,36,240,22,72,-6
8020,-36,38,245,19,75,-5
8025,-35,37,240,15,77,-5
8030,-32,37,240,12,76,-5
8035,-33,35,244,8,76,-4
8040,-35,36,244,4,75,-5
8045,-33,35,242,0,72,-5
8050,-34,33,246,-3,70,-6
8055,-36,35,240,-4,70,-6
8060,-36,34,245,-5,70,-5
8065,-35,33,242,1,70,-4
8070,-40,33,243,10,70,-5
8075,-34,32,239,19,70,-4
8080,-35,31,240,29,69,-2
8085,-35,33,241,35,67,-3
8090,-38,34,240,40,67,-2
8095,-36,36,236,41,64,-1
8100,-36,37,237,37,62,-1
8105,-37,40,239,32,59,-2
8110,-35,40,237,25,58,-4
8115,-38,42,237,17,57,-4
8120,-31,40,243,8,58,-5
8125,-36,39,243,-1,58,-5
8130,-33,37,240,-7,60,-7
8135,-36,38,246,-10,60,-5
8140,-37,37,241,-11,63,-6
8145,-37,39,245,-10,64,-6
8150,-37,34,245,-7,65,-6
8155,-36,34,245,-4,68,-5
8160,-39,35,242,-1,67,-5
8165,-37,34,243,3,67,-6
8170,-38,35,242,4,68,-5
8175,-36,37,240,4,69,-5
8180,-38,38,243,2,68,-5
8185,-37,36,240,1,70,-5
8190,-37,37,241,-2,70,-3
8195,-34,32,240,-3,69,-2
8200,-36,34,244,-3,69,1
8205,-36,37,241,0,68,0
8210,-35,36,242,2,66,0
8215,-36,37,239,7,65,0
8220,-34,35,242,12,65,1
8225,-35,38,243,17,64,-1
8230,-35,33,243,20,63,-1
8235,-33,36,243,23,63,-1
8240,-34,35,240,26,62,-1
8245,-36,35,245,28,63,-2
8250,-37,35,243,28,64,-1
8255,-33,38,245,27,62,-1
8260,-37,37,240,25,61,-1
8265,-37,38,241,21,62,-1
8270,-37,41,243,16,60,-1
8275,-36,38,245,12,58,-3
8280,-35,34,240,6,57,-5
8285,-33,38,245,2,57,-5
8290,-33,40,241,1,57,-4
8295,-34,37,243,0,58,-6
8300,-33,38,242,-3,59,-7
8305,-35,36,247,-2,61,-6
8310,-34,37,244,-3,63,-6
8315,-34,35,244,-5,65,-7
8320,-37,38,242,-7,66,-8
8325,-36,38,241,-11,68,-7
8330,-36,42,244,-17,72,-6
8335,-34,38,241,-26,74,-5
8340,-36,34,248,-33,75,-4
8345,-34,36,243,-38,73,-3
8350,-31,33,245,-36,73,-4
8355,-33,37,239,-33,71,-4
8360,-35,34,240,-28,69,-5
8365,-35,35,241,-24,67,-5
8370,-36,36,239,-18,68,-4
8375,-33,35,241,-16,66,-3
8380,-35,35,243,-14,67,-2
8385,-32,38,238,-13,67,-1
8390,-35,37,243,-13,66,-3
8395,-38,38,240,-14,66,-3
8400,-35,37,240,-12,65,-3
8405,-38,38,240,-10,63,-3
8410,-37,36,240,-7,60,-3
8415,-36,37,238,-1,61,-4
8420,-35,39,241,4,59,-6
8425,-36,38,243,7,60,-6
8430,-37,38,241,10,61,-6
8435,-35,38,240,13,65,-6
8440,-35,35,240,15,65,-4
8445,-33,35,240,18,66,-5
8450,-34,36,240,19,67,-7
8455,-33,37,243,20,69,-7
8460,-37,37,239,19,71,-6
8465,-36,35,241,13,73,-7
8470,-37,37,242,8,76,-7
8475,-36,36,243,-1,79,-9
8480,-37,35,242,-7,80,-8
8485,-34,37,242,-6,80,-6
8490,-33,35,240,-1,80,-4
8495,-34,37,239,5,79,-3
8500,-35,36,242,13,78,-3
8505,-33,36,244,19,77,0
8510,-33,40,239,18,76,0
8515,-35,37,241,16,73,1
8520,-36,37,244,12,68,0
8525,-36,37,240,5,64,-2
8530,-34,39,242,2,62,-3
8535,-34,38,241,-1,62,-2
8540,-36,35,240,-1,62,-2
8545,-35,36,239,2,65,-1
8550,-31,40,244,7,68,-1
8555,-28,39,237,11,71,0
8560,-36,38,242,15,73,0
8565,-36,41,242,17,73,0
8570,-34,38,243,16,73,0
8575,-35,41,242,15,72,-2
8580,-33,41,243,10,71,-1
8585,-35,42,242,5,70,-1
8590,-37,41,242,2,68,0
8595,-32,37,243,-1,67,-1
8600,-36,40,237,-4,68,0
8605,-32,40,242,-6,71,1
8610,-34,41,240,-6,75,1
8615,-38,42,244,-8,82,1
8620,-35,41,243,-9,90,0
8625,-34,41,244,-11,98,-1
8630,-36,41,243,-14,107,-2
8635,-35,40,241,-19,113,-4
8640,-32,40,242,-25,118,-6
8645,-36,40,242,-30,118,-7
8650,-34,39,240,-35,116,-9
8655,-34,38,245,-41,114,-9
8660,-36,38,238,-46,111,-8
8665,-33,25,248,-49,107,-8
8670,-34,38,246,-50,104,-7
8675,-34,35,246,-47,99,-6
8680,-36,34,244,-41,93,-6
8685,-34,33,244,-35,89,-6
8690,-38,33,238,-30,86,-5
8695,-34,36,239,-23,83,-4
8700,-39,37,242,-18,79,-4
8705,-36,34,239,-13,75,-3
8710,-36,34,237,-9,73,0
8715,-38,35,242,-7,73,0
8720,-36,38,238,-4,73,0
8725,-37,40,240,-3,73,-2
8730,-37,41,241,-5,72,0
8735,-34,38,242,-11,74,1
8740,-35,38,243,-14,74,-1
8745,-36,39,240,-18,74,-2
8750,-38,37,242,-19,73,-2
8755,-36,38,240,-19,73,-1
8760,-37,33,239,-15,72,-2
8765,-37,36,236,-9,72,-2
8770,-38,36,239,-2,74,-3
8775,-37,33,236,1,74,-2
8780,-39,39,236,4,77,-3
8785,-39,36,238,2,76,-3
8790,-36,38,240,-5,76,-4
8795,-38,37,243,-10,76,-4
8800,-41,38,241,-19,73,-5
8805,-37,38,239,-24,72,-7
8810,-40,38,239,-30,72,-7
8815,-36,39,242,-33,72,-6
8820,-38,36,244,-35,72,-6
8825,-36,38,240,-36,74,-7
8830,-35,36,245,-34,75,-5
8835,-35,36,240,-32,74,-5
8840,-38,38,240,-29,73,-3
8845,-37,40,244,-26,73,-4
8850,-35,37,240,-22,71,-4
8855,-41,40,242,-17,70,-4
8860,-37,38,238,-14,71,-4
8865,-37,38,241,-12,72,-5
8870,-37,36,243,-10,73,-5
8875,-39,40,244,-9,74,-5
8880,-34,35,243,-10,75,-4
8885,-35,36,241,-13,78,-5
8890,-34,36,243,-14,80,-5
8895,-39,38,240,-13,81,-5
8900,-36,35,241,-9,83,-7
8905,-38,37,242,-3,84,-6
8910,-35,37,240,3,86,-3
8915,-37,38,237,7,88,-3
8920,-35,38,241,10,92,-3
8925,-34,37,240,13,95,-4
8930,-34,40,240,9,101,-2
8935,-37,40,242,5,104,-3
8940,-36,37,242,-1,107,-3
8945,-34,37,241,-10,111,-5
8950,-35,37,241,-16,115,-4
8955,-37,40,242,-22,118,-7
8960,-38,41,242,-24,119,-8
8965,-38,38,240,-25,118,-8
8970,-38,35,241,-28,116,-8
8975,-35,38,242,-29,111,-7
8980,-37,35,239,-26,107,-5
8985,-38,37,240,-23,103,-3
8990,-35,34,243,-19,100,-2
8995,-41,33,235,-14,96,0
9000,-35,36,241,-8,91,2
9005,-36,36,237,-2,88,3
9010,-36,36,238,2,85,2
9015,-38,39,242,4,83,3
9020,-35,35,243,7,80,2
9025,-35,34,241,6,78,3
9030,-40,38,240,4,77,2
9035,-36,39,243,2,74,1
9040,-42,39,241,-1,72,-1
9045,-37,39,239,-3,71,-1
9050,-37,38,241,-7,71,-1
9055,-40,40,243,-9,70,-2
9060,-37,36,243,-11,69,-3
9065,-41,41,246,-14,70,-3
9070,-39,37,244,-17,70,-2
9075,-37,38,242,-22,69,-2
9080,-37,36,243,-23,70,-3
9085,-38,37,238,-23,69,-2
9090,-39,38,242,-23,69,-3
9095,-38,37,240,-23,69,-3
9100,-41,39,245,-19,68,-3
9105,-39,36,239,-19,68,-1
9110,-37,36,241,-17,68,0
9115,-38,37,242,-14,67,0
9120,-38,38,241,-12,66,0
9125,-37,37,239,-12,65,0
9130,-37,38,241,-11,64,0
9135,-37,37,241,-11,62,-1
9140,-36,37,244,-13,60,-1
9145,-38,38,241,-15,58,-4
9150,-38,39,240,-16,59,-3
9155,-40,40,241,-18,57,-3
9160,-37,37,241,-22,57,-5
9165,-37,37,245,-23,59,-5
9170,-38,42,242,-26,59,-4
9175,-37,38,244,-24,58,-4
9180,-36,34,242,-22,59,-2
9185,-38,36,241,-19,60,-1
9190,-35,34,243,-15,60,0
9195,-39,38,243,-9,61,-1
9200,-39,36,242,-5,60,-1
9205,-38,36,236,-1,59,-1
9210,-36,39,248,2,58,-2
9215,-35,37,242,2,59,-3
9220,-39,41,241,1,59,-3
9225,-35,35,240,-3,59,-2
9230,-33,37,240,-8,61,-2
9235,-37,38,242,-11,61,-1
9240,-39,39,239,-11,61,-2
9245,-37,37,241,-10,59,-3
9250,-37,39,241,-8,59,-3
9255,-39,38,239,-3,58,-5
9260,-37,38,238,3,59,-6
9265,-37,37,239,8,59,-4
9270,-37,38,241,13,61,-4
9275,-39,38,240,14,63,-5
9280,-36,36,243,16,66,-4
9285,-37,38,238,18,68,-4
9290,-37,37,239,19,69,-3
9295,-36,37,241,22,70,-2
9300,-38,36,239,24,68,-2
9305,-37,33,240,28,68,-3
9310,-37,38,239,28,67,-5
9315,-38,35,242,28,68,-5
9320,-38,35,240,23,70,-6
9325,-37,38,243,16,73,-7
9330,-41,39,241,12,75,-6
9335,-36,38,243,15,75,-6
9340,-35,38,239,21,74,-4
9345,-37,37,239,28,71,-4
9350,-37,38,239,35,69,-4
9355,-34,35,241,38,68,-3
9360,-39,41,240,36,64,-3
9365,-35,38,241,29,61,-3
9370,-38,40,238,18,56,-3
9375,-35,39,240,8,50,-4
9380,-37,41,242,-3,40,-8
9385,-37,41,241,-8,36,-6
9390,-38,37,243,-8,43,-4
9395,-36,40,242,-2,53,-3
9400,-36,39,243,9,62,-1
9405,-38,39,245,19,70,1
9410,-35,42,243,25,73,1
9415,-35,43,238,26,75,1
9420,-36,42,237,21,75,-2
9425,-41,41,237,8,77,-7
9430,-37,40,238,-4,74,-8
9435,-39,41,238,-11,70,-9
9440,-40,42,241,-10,63,-8
9445,-34,39,237,-6,57,-9
9450,-39,42,239,-6,56,-11
9455,-39,39,242,-5,59,-12
9460,-38,39,244,-2,61,-10
9465,-35,38,243,7,59,-6
9470,-34,37,239,12,60,-5
9475,-35,41,241,11,62,-5
9480,-35,40,239,10,65,-4
9485,-39,42,243,6,66,-3
9490,-38,41,242,5,66,-3
9495,-38,40,238,4,66,-2
9500,-38,39,244,2,66,-3
9505,-37,38,241,3,65,-4
9510,-38,39,240,3,65,-3
9515,-40,40,238,3,64,-4
9520,-35,36,242,2,66,-3
9525,-36,39,242,-1,68,-4
9530,-37,41,238,0,68,-4
9535,-38,38,239,1,68,-4
9540,-33,38,249,2,69,-4
9545,-37,37,244,1,69,-4
9550,-37,39,240,2,71,-4
9555,-37,42,240,3,71,-3
9560,-38,42,242,3,72,-2
9565,-37,39,242,3,74,-4
9570,-39,39,241,5,73,-3
9575,-35,43,244,8,71,0
9580,-38,40,242,8,67,0
9585,-35,38,240,5,64,1
9590,-37,41,244,1,63,0
9595,-35,39,242,-3,60,-1
9600,-38,37,240,-4,59,-4
9605,-39,41,240,-4,57,-3
9610,-38,39,239,0,56,-3
9615,-37,39,237,5,59,-4
9620,-37,39,238,12,61,-6
9625,-38,42,238,18,63,-6
9630,-37,40,243,22,65,-5
9635,-37,43,237,21,69,-5
9640,-36,42,241,11,77,-8
9645,-36,42,236,3,79,-11
9650,-38,44,237,-5,82,-12
9655,-37,43,242,-20,87,-11
9660,-38,42,243,-39,89,-13
9665,-40,41,243,-38,82,-12
9670,-39,41,245,-32,74,-10
9675,-36,40,246,-30,68,-9
9680,-36,43,239,-29,69,-8
9685,-39,39,241,-29,71,-9
9690,-39,43,243,-29,72,-10
9695,-39,43,240,-27,72,-8
9700,-36,39,244,-22,68,-5
9705,-36,40,239,-19,66,-5
9710,-35,42,243,-14,64,-4
9715,-35,41,238,-12,63,-4
9720,-37,41,238,-13,66,-6
9725,-38,41,239,-15,67,-6
9730,-37,44,237,-15,70,-7
9735,-37,43,242,-23,76,-8
9740,-38,41,242,-28,76,-9
9745,-37,40,238,-25,72,-8
9750,-40,39,246,-19,69,-6
9755,-36,39,240,-13,65,-4
9760,-37,41,239,-11,65,-4
9765,-38,37,244,-7,66,-3
9770,-36,41,239,-2,67,-2
9775,-37,41,243,0,70,-1
9780,-36,38,240,2,71,0
9785,-35,41,242,5,70,-1
9790,-37,40,239,7,69,-1
9795,-38,38,240,8,68,-1
9800,-37,42,239,7,67,-1
9805,-35,39,241,5,68,-2
9810,-34,37,240,2,68,-3
9815,-35,43,240,0,66,-5
9820,-37,41,240,-4,66,-4
9825,-39,40,242,-12,68,-4
9830,-38,42,243,-20,72,-5
9835,-38,41,243,-18,71,-5
9840,-36,39,239,-19,71,-6
9845,-37,39,241,-13,67,-5
9850,-36,39,244,-7,65,-3
9855,-36,39,241,-4,62,-4
9860,-36,40,239,-2,63,-5
9865,-37,43,233,-3,64,-4
9870,-36,38,239,-4,64,-3
9875,-35,38,240,-6,65,-4
9880,-35,39,242,-8,67,-4
9885,-36,39,241,-13,69,-4
9890,-38,40,241,-17,71,-2
9895,-35,41,240,-19,70,-4
9900,-38,41,240,-25,73,-3
9905,-38,43,243,-29,74,-4
9910,-37,38,244,-26,73,-3
9915,-36,41,239,-20,68,-4
9920,-38,40,240,-14,67,-4
9925,-37,41,239,-11,66,-2
9930,-36,41,243,-8,65,0
9935,-36,42,238,-6,66,-2
9940,-37,42,242,-5,65,0
9945,-38,40,242,-5,64,-2
9950,-38,42,238,-3,62,-2
9955,-36,44,243,0,58,-4
9960,-37,40,241,3,58,-4
9965,-38,40,241,4,57,-5
9970,-36,40,241,6,57,-6
9975,-37,34,232,6,61,-7
9980,-37,39,240,5,62,-9
9985,-37,39,242,-1,67,-9
9990,-39,36,241,-3,71,-7
9995,-39,39,240,1,73,-7
10000,-37,36,239,12,70,-5
10005,-38,36,242,22,67,-5
10010,-38,41,239,28,67,-4
10015,-34,42,240,33,68,-5
10020,-37,40,240,35,72,-7
10025,-35,40,239,35,75,-7
10030,-39,40,237,35,78,-7
10035,-38,41,238,31,83,-10
10040,-38,43,239,29,88,-10
10045,-39,42,238,30,87,-7
10050,-35,40,237,32,87,-5
10055,-36,42,240,30,87,-6
10060,-38,40,241,31,87,-5
10065,-35,39,240,31,82,-5
10070,-38,43,242,26,81,-5
10075,-38,41,242,18,81,-6
10080,-37,40,239,18,74,-3
10085,-39,40,237,22,70,-2
10090,-39,45,243,22,69,-6
10095,-36,43,240,25,68,-7
10100,-37,45,241,30,67,-4
10105,-36,43,242,29,69,-4
10110,-38,45,242,29,70,-4
10115,-34,46,243,28,73,-4
10120,-38,46,239,22,76,-8
10125,-35,47,240,12,79,-9
10130,-38,42,242,7,78,-9
10135,-38,45,242,5,71,-7
10140,-36,44,240,7,68,-8
10145,-38,45,240,7,64,-7
10150,-37,42,240,3,62,-7
10155,-39,45,243,2,61,-8
10160,-38,41,241,1,60,-8
10165,-37,42,240,1,61,-7
10170,-36,42,244,1,61,-6
10175,-39,42,244,-3,63,-5
10180,-36,46,241,-4,66,-6
10185,-37,43,240,-13,69,-6
10190,-33,41,245,-18,74,-7
10195,-36,41,241,-18,74,-5
10200,-38,44,245,-20,73,-5
10205,-37,40,239,-20,72,-4
10210,-35,43,241,-24,74,-6
10215,-36,41,242,-26,73,-5
10220,-37,43,243,-23,71,-4
10225,-40,42,240,-19,69,-3
10230,-35,38,242,-18,68,-3
10235,-38,43,242,-15,66,-5
10240,-39,44,239,-16,65,-3
10245,-39,43,241,-19,65,-3
10250,-37,42,244,-23,65,-4
10255,-36,40,238,-25,67,-4
10260,-37,41,239,-31,68,-3
10265,-37,44,239,-41,71,-3
10270,-34,43,240,-49,74,-2
10275,-39,43,242,-55,76,-1
10280,-38,43,241,-58,73,-2
10285,-37,41,244,-60,72,1
10290,-36,41,244,-62,67,1
10295,-35,41,247,-62,64,-1
10300,-35,43,240,-60,62,-3
10305,-36,40,241,-54,60,-4
10310,-38,43,241,-51,60,-2
10315,-40,40,244,-45,63,-5
10320,-38,37,242,-37,64,-3
10325,-40,39,243,-31,65,-3
10330,-36,40,239,-28,65,-3
10335,-39,40,240,-28,65,-3
10340,-41,42,240,-30,65,-6
10345,-40,44,240,-34,66,-6
10350,-39,42,241,-41,65,-6
10355,-39,42,245,-49,65,-8
10360,-37,42,241,-58,64,-8
10365,-36,42,243,-64,63,-7
10370,-38,43,243,-69,64,-8
10375,-38,41,240,-73,64,-5
10380,-35,39,246,-73,63,-5
10385,-37,39,239,-74,64,-6
10390,-37,38,242,-72,64,-6
10395,-36,40,244,-69,66,-4
10400,-34,40,240,-66,69,-3
10405,-39,40,241,-64,68,-4
10410,-36,42,250,-60,69,-4
10415,-39,41,240,-55,69,-4
10420,-41,39,242,-55,68,-4
10425,-38,40,241,-54,67,-3
10430,-35,38,240,-54,67,-3
10435,-37,41,240,-55,66,-3
10440,-37,42,240,-58,66,-2
10445,-36,39,242,-60,65,-2
10450,-34,39,243,-61,65,-2
10455,-36,40,244,-62,64,-2
10460,-35,40,242,-61,63,-1
10465,-35,40,241,-60,63,1
10470,-37,41,243,-59,64,0
10475,-36,39,241,-56,63,1
10480,-35,41,239,-53,64,2
10485,-32,38,241,-52,65,2
10490,-38,37,241,-51,65,2
10495,-34,38,242,-51,66,2
10500,-37,39,238,-54,64,1
10505,-37,40,240,-57,64,1
10510,-36,39,239,-59,64,1
10515,-36,40,243,-62,65,2
10520,-34,33,240,-64,65,0
10525,-38,40,242,-67,64,1
10530,-34,37,240,-69,63,1
10535,-38,39,241,-71,62,-1
10540,-36,36,243,-71,62,-3
10545,-36,40,244,-71,63,0
10550,-35,36,240,-70,63,1
10555,-35,36,240,-69,64,2
10560,-37,34,242,-68,64,0
10565,-36,37,242,-67,66,-1
10570,-38,35,243,-66,67,0
10575,-37,36,240,-66,66,0
10580,-37,36,243,-67,66,3
10585,-40,37,241,-66,66,2
10590,-35,37,244,-67,65,4
10595,-39,35,240,-68,63,3
10600,-35,37,241,-68,63,1
10605,-38,37,243,-67,61,2
10610,-36,37,240,-65,62,2
10615,-36,37,241,-64,62,1
10620,-36,39,240,-61,61,3
10625,-38,35,241,-61,61,2
10630,-37,36,239,-62,61,0
10635,-38,36,240,-60,62,1
10640,-36,36,241,-61,63,0
10645,-38,36,242,-60,61,1
10650,-35,36,238,-60,60,3
10655,-38,36,239,-60,59,1
10660,-39,35,242,-60,60,2
10665,-37,36,244,-60,59,2
10670,-38,37,241,-59,60,0
10675,-40,40,243,-56,60,1
10680,-39,35,242,-53,61,0
10685,-37,37,243,-51,60,-1
10690,-35,37,244,-51,62,-1
10695,-35,35,240,-50,63,0
10700,-37,34,240,-50,62,0
10705,-35,35,240,-50,63,-1
10710,-37,34,246,-51,65,0
10715,-35,34,241,-51,65,0
10720,-40,36,242,-49,65,1
10725,-35,35,239,-49,66,2
10730,-38,37,242,-48,66,1
10735,-39,43,239,-47,67,0
10740,-37,32,241,-46,69,1
10745,-40,37,241,-45,70,2
10750,-36,36,237,-45,68,2
10755,-35,35,241,-44,69,1
10760,-37,37,242,-43,69,0
10765,-37,37,240,-44,68,1
10770,-37,35,242,-45,68,2
10775,-36,36,240,-45,66,3
10780,-37,34,241,-45,66,2
10785,-37,33,242,-46,68,1
10790,-35,34,242,-46,69,1
10795,-36,35,240,-45,68,1
10800,-34,32,243,-45,69,0
10805,-37,32,244,-45,70,0
10810,-36,36,242,-44,68,2
10815,-34,30,239,-44,67,3
10820,-37,34,242,-41,67,2
10825,-34,34,242,-40,65,1
10830,-36,32,242,-40,66,2
10835,-36,33,243,-39,68,1
10840,-34,34,243,-40,68,1
10845,-36,35,242,-38,67,3
10850,-35,31,240,-38,69,2
10855,-36,32,241,-40,68,1
10860,-35,33,242,-40,69,2
10865,-38,35,241,-41,67,1
10870,-36,36,239,-40,67,0
10875,-37,32,242,-42,66,1
10880,-37,34,244,-43,67,3
10885,-34,31,246,-43,67,2
10890,-36,34,242,-42,69,1
10895,-36,33,241,-42,70,2
10900,-36,34,242,-40,70,2
10905,-38,32,243,-40,68,4
10910,-38,33,241,-40,67,5
10915,-37,34,241,-40,66,4
10920,-36,35,239,-42,66,3
10925,-37,37,244,-41,65,3
10930,-38,34,240,-41,66,2
10935,-37,34,243,-41,66,3
10940,-35,34,241,-42,65,3
10945,-35,33,243,-41,64,3
10950,-34,34,242,-40,66,3
10955,-39,35,243,-40,66,2
10960,-34,31,240,-41,65,3
10965,-36,34,240,-41,65,0
10970,-37,35,240,-40,65,3
10975,-37,29,240,-37,64,3
10980,-37,35,242,-37,64,3
10985,-36,33,240,-36,62,4
10990,-35,30,239,-35,61,1
10995,-37,35,241,-34,62,0
11000,-35,31,243,-33,63,0
11005,-37,35,240,-35,63,-2
11010,-39,32,243,-36,63,-2
11015,-39,34,243,-38,63,-2
11020,-36,33,240,-42,64,-1
11025,-35,35,242,-49,65,-1
11030,-36,30,239,-55,67,0
11035,-33,32,244,-58,69,0
11040,-35,31,241,-59,71,2
11045,-35,34,243,-56,70,3
11050,-35,31,244,-52,68,5
11055,-37,32,239,-45,68,4
11060,-33,28,242,-38,66,5
11065,-35,35,240,-32,66,3
11070,-38,30,242,-27,65,3
11075,-37,33,242,-25,63,2
11080,-37,31,242,-26,63,0
11085,-39,35,239,-30,63,0
11090,-36,34,245,-36,65,-2
11095,-35,32,242,-42,66,-3
11100,-37,35,243,-43,64,-4
11105,-35,33,244,-42,65,-4
11110,-36,33,242,-40,63,-4
11115,-36,31,244,-33,63,-3
11120,-34,32,243,-23,62,0
11125,-39,34,242,-11,61,2
11130,-36,31,241,-3,64,3
11135,-35,31,242,7,61,3
11140,-35,28,238,12,62,2
11145,-38,30,241,12,65,2
11150,-37,32,241,9,66,-1
11155,-38,32,238,4,68,-2
11160,-38,32,242,-5,69,-5
11165,-38,31,245,-16,71,-6
11170,-38,32,243,-33,73,-7
11175,-37,34,243,-48,78,-5
11180,-38,31,250,-61,81,-5
11185,-35,28,243,-68,87,-5
11190,-36,30,245,-69,88,-4
11195,-33,29,242,-62,89,-4
11200,-36,30,246,-52,90,-4
11205,-35,28,244,-41,86,-4
11210,-36,29,241,-32,83,-2
11215,-33,30,239,-27,79,-2
11220,-37,30,239,-25,75,-1
11225,-35,32,236,-26,71,-1
11230,-36,29,240,-27,67,-1
11235,-36,34,242,-27,65,1
11240,-36,31,240,-21,64,1
11245,-36,33,240,-13,66,5
11250,-34,29,243,-2,65,6
11255,-37,32,241,12,63,5
11260,-34,34,240,22,64,3
11265,-35,33,240,27,64,4
11270,-41,37,241,25,64,2
11275,-37,36,243,22,66,-1
11280,-34,35,243,14,65,-3
11285,-38,34,240,1,63,-4
11290,-35,34,238,-11,62,-4
11295,-36,33,243,-21,62,-5
11300,-38,34,242,-27,61,-4
11305,-35,33,243,-29,61,-4
11310,-36,35,244,-30,62,-4
11315,-33,33,242,-29,63,-3
11320,-35,32,240,-25,65,-2
11325,-36,32,243,-20,68,-2
11330,-36,33,238,-15,70,0
11335,-39,32,241,-10,71,1
11340,-35,32,243,-7,72,2
11345,-34,29,242,-7,74,3
11350,-34,31,241,-7,74,2
11355,-37,29,241,-8,74,1
11360,-37,29,240,-5,74,0
11365,-35,29,241,-3,73,0
11370,-35,32,243,-1,71,-1
11375,-37,30,241,0,70,-1
11380,-36,29,239,-2,69,-3
11385,-38,30,241,-1,67,-3
11390,-40,33,239,-3,68,-4
11395,-37,32,241,-3,67,-4
11400,-37,30,241,0,66,-3
11405,-35,28,241,0,66,-4
11410,-39,31,242,1,68,-2
11415,-33,31,241,3,67,-2
11420,-36,33,240,4,69,-2
11425,-35,30,240,5,68,-2
11430,-36,29,240,3,67,-1
11435,-39,32,244,4,66,-1
11440,-39,32,244,1,65,-1
11445,-37,30,241,-2,65,0
11450,-33,28,241,-4,66,-1
11455,-36,30,240,-4,67,-1
11460,-37,29,241,0,68,-1
11465,-36,30,240,7,68,-1
11470,-39,30,240,17,68,-1
11475,-34,28,236,25,67,1
11480,-35,28,241,31,68,0
11485,-37,28,240,36,68,0
11490,-39,34,242,36,68,-2
11495,-38,33,238,33,68,-4
11500,-37,34,240,25,67,-3
11505,-40,34,239,16,67,-5
11510,-36,33,244,7,68,-5
11515,-37,33,241,-2,67,-4
11520,-35,33,243,-9,69,-4
11525,-37,38,245,-11,68,-3
11530,-38,32,243,-15,68,-3
11535,-35,34,244,-17,68,-2
11540,-36,32,242,-16,69,-2
11545,-37,31,243,-14,65,-3
11550,-33,33,242,-10,64,-3
11555,-37,35,244,-4,62,-3
11560,-36,33,242,1,60,-2
11565,-35,32,239,6,61,-3
11570,-39,35,244,9,62,-3
11575,-35,34,241,10,64,-2
11580,-35,35,242,10,66,0
11585,-38,36,244,8,67,-2
11590,-35,35,245,7,70,-1
11595,-36,34,239,4,73,-1
11600,-37,34,245,4,72,-1
11605,-36,32,241,7,72,0
11610,-40,27,244,10,71,-2
11615,-36,34,243,15,69,-1
11620,-34,31,241,20,70,-1
11625,-36,33,239,25,69,-2
11630,-37,32,240,27,69,-3
11635,-33,31,240,28,70,-2
11640,-38,30,242,29,69,0
11645,-34,31,240,25,68,-1
11650,-35,33,244,25,67,-2
11655,-36,32,242,21,67,-3
11660,-38,32,243,18,67,-2
11665,-37,37,240,16,65,-2
11670,-36,35,242,13,63,-3
11675,-38,33,239,11,64,-4
11680,-37,32,242,11,65,-5
11685,-39,36,241,10,65,-5
11690,-35,32,241,7,65,-6
11695,-36,35,240,6,65,-4
11700,-35,32,242,6,65,-3
11705,-35,35,241,5,65,-2
11710,-35,31,242,4,66,-3
11715,-35,34,242,5,66,-2
11720,-36,34,241,6,66,-2
11725,-36,32,242,6,66,-2
11730,-37,33,242,5,66,-2
11735,-35,33,242,6,64,-1
11740,-34,35,242,7,65,-2
11745,-36,31,242,7,65,-1
11750,-36,34,240,7,65,-1
11755,-36,36,242,10,62,-2
11760,-37,36,243,9,63,-2
11765,-35,33,243,10,63,-1
11770,-39,38,245,10,62,-1
11775,-37,35,242,9,62,-1
11780,-37,33,242,8,62,-2
11785,-38,35,239,7,62,-2
11790,-34,35,244,7,62,-2
11795,-39,37,243,6,62,-1
11800,-38,36,239,4,61,-1
11805,-37,32,241,2,61,-2
11810,-37,35,240,1,61,-4
11815,-37,36,244,-4,62,-3
11820,-36,36,244,-8,62,-5
11825,-34,36,245,-12,63,-4
11830,-34,34,240,-15,65,-3
11835,-35,35,242,-18,68,-1
11840,-36,33,244,-16,68,0
11845,-34,33,244,-12,69,0
11850,-34,35,241,-6,68,1
11855,-36,33,240,0,66,1
11860,-34,36,239,6,64,0
11865,-35,35,240,10,63,0
11870,-35,33,241,15,63,0
11875,-37,36,240,15,62,0
11880,-37,35,238,13,61,0
11885,-35,34,240,11,60,-1
11890,-35,35,242,5,60,-2
11895,-36,36,246,0,60,-2
11900,-32,36,242,-4,59,-2
11905,-36,38,242,-4,57,-5
11910,-34,35,242,0,56,-4
11915,-37,36,240,7,55,-5
11920,-34,34,241,12,55,-5
11925,-36,34,238,17,55,-3
11930,-39,33,240,21,57,-3
11935,-39,31,243,25,59,-4
11940,-38,35,244,27,62,-4
11945,-37,36,241,29,63,-3
11950,-36,36,237,29,65,-3
11955,-36,32,241,32,67,-3
11960,-35,35,243,31,68,-4
11965,-39,34,240,31,72,-3
11970,-38,34,242,27,76,-3
11975,-38,35,241,25,77,-5
11980,-34,33,244,19,81,-6
11985,-33,37,239,13,83,-7
11990,-37,34,242,7,87,-9
11995,-37,34,243,3,89,-8
12000,-35,33,238,4,89,-8
12005,-34,36,240,7,90,-7
12010,-36,34,241,11,89,-7
12015,-35,32,240,17,87,-5
12020,-35,39,238,22,84,-5
12025,-39,38,239,25,78,-6
12030,-38,35,238,23,74,-6
12035,-35,36,238,22,69,-6
12040,-31,35,237,21,65,-6
12045,-40,32,241,22,61,-5
12050,-35,38,239,23,60,-3
12055,-36,40,240,24,60,-3
12060,-35,36,240,24,62,-4
12065,-38,38,244,23,67,-4
12070,-33,38,240,23,69,-5
12075,-35,38,245,23,72,-6
12080,-36,42,246,21,72,-5
12085,-36,37,245,16,71,-6
12090,-37,42,241,13,68,-8
12095,-33,37,243,7,66,-6
12100,-35,36,240,3,66,-10
12105,-36,38,241,-1,66,-9
12110,-35,34,247,-3,65,-8
12115,-35,36,240,-1,65,-6
12120,-38,37,241,1,66,-8
12125,-38,38,240,5,67,-6
12130,-37,40,239,9,67,-5
12135,-32,37,243,12,69,-4
12140,-36,39,241,15,71,-4
12145,-36,37,243,15,73,-4
12150,-33,40,246,14,76,-3
12155,-36,37,242,12,76,-4
12160,-36,34,240,11,77,-4
12165,-36,37,239,8,78,-3
12170,-38,36,240,6,74,-4
12175,-37,34,241,6,73,-3
12180,-38,37,242,3,73,-6
12185,-35,35,247,2,72,-5
12190,-35,35,242,4,71,-2
12195,-36,39,240,6,68,-3
12200,-33,39,241,7,67,-5
12205,-35,38,241,8,68,-5
12210,-36,40,240,10,67,-5
12215,-36,35,242,11,66,-5
12220,-34,37,239,12,67,-4
12225,-35,38,240,11,67,-3
12230,-36,37,242,7,71,-4
12235,-35,38,241,4,74,-4
12240,-35,39,241,5,73,-2
12245,-36,38,240,6,72,-1
12250,-34,38,242,5,70,-1
12255,-36,38,242,-1,70,-1
12260,-36,41,247,-7,71,-4
12265,-36,35,244,-8,67,-3
12270,-36,37,241,-6,64,-3
12275,-34,36,241,-3,61,-3
12280,-35,37,245,3,63,-3
12285,-35,36,240,12,65,-3
12290,-35,34,241,16,67,-3
12295,-38,34,240,22,70,-4
12300,-37,38,239,25,71,-4
12305,-35,39,238,25,72,-6
12310,-35,41,238,19,74,-8
12315,-36,38,237,7,77,-10
12320,-38,41,242,-4,79,-11
12325,-35,41,240,-11,78,-9
12330,-35,39,244,-18,76,-8
12335,-36,40,244,-22,75,-8
12340,-37,37,239,-25,76,-9
12345,-33,38,240,-20,76,-8
12350,-34,37,241,-13,74,-5
12355,-34,37,242,-8,72,-6
12360,-34,38,242,-3,73,-5
12365,-37,39,237,1,71,-6
12370,-37,40,242,3,71,-4
12375,-38,39,242,1,70,-6
12380,-40,40,241,0,70,-6
12385,-37,38,243,-1,68,-6
12390,-35,38,242,-4,67,-5
12395,-37,37,241,-8,67,-6
12400,-35,37,244,-11,67,-6
12405,-35,41,244,-12,67,-4
12410,-35,38,242,-10,66,-4
12415,-37,36,243,-6,66,-4
12420,-35,38,238,-5,67,-4
12425,-35,40,237,-7,74,-4
12430,-35,39,241,-12,79,-5
12435,-37,37,242,-11,79,-4
12440,-37,38,245,-6,75,-2
12445,-37,35,242,0,72,-2
12450,-38,39,243,4,70,-3
12455,-37,38,242,8,67,-3
12460,-35,37,247,10,65,-1
12465,-36,40,242,9,67,-3
12470,-37,41,240,5,68,-3
12475,-39,38,241,4,69,-3
12480,-37,39,239,0,67,-4
12485,-36,39,240,-2,69,-4
12490,-35,38,241,-4,68,-4
12495,-37,37,240,-10,71,-6
12500,-37,37,240,-12,73,-5
12505,-35,37,239,-10,72,-3
12510,-37,36,242,-6,71,-3
12515,-35,38,243,-4,68,-3
12520,-34,38,241,-5,68,-3
12525,-33,39,240,-8,71,-3
12530,-34,40,240,-22,79,-3
12535,-39,39,242,-35,84,-3
12540,-37,35,242,-38,82,-5
12545,-35,38,244,-29,76,-3
12550,-39,38,244,-22,72,-2
12555,-35,34,240,-17,68,-2
12560,-33,36,242,-13,67,-2
12565,-38,35,241,-9,67,-2
12570,-36,39,243,-8,67,-2
12575,-38,38,242,-8,67,-2
12580,-37,39,239,-7,68,-2
12585,-37,43,243,-10,69,-1
12590,-35,37,241,-12,68,-3
12595,-38,40,243,-13,68,-2
12600,-36,39,239,-13,68,-3
12605,-38,38,243,-14,67,-3
12610,-37,39,245,-12,66,-3
12615,-34,38,244,-10,65,-4
12620,-38,38,241,-10,66,-3
12625,-36,35,241,-9,65,-4
12630,-36,38,244,-7,65,-4
12635,-36,38,241,-5,65,-3
12640,-36,36,241,-4,65,-3
12645,-36,36,240,-2,66,-2
12650,-35,39,238,-1,66,-2
12655,-37,39,242,0,68,-3
12660,-37,37,238,-2,70,-3
12665,-35,41,239,-8,74,-3
12670,-40,39,243,-8,73,-2
12675,-38,39,243,-6,72,-3
12680,-36,39,242,-2,68,-3
12685,-38,38,244,1,67,-2
12690,-35,37,242,1,65,-2
12695,-32,38,241,3,64,-2
12700,-37,38,242,4,64,-2
12705,-38,41,238,5,63,-2
12710,-38,39,242,5,64,-2
12715,-38,41,240,4,64,-2
12720,-36,39,240,4,65,-2
12725,-39,38,242,6,65,-3
12730,-34,38,244,8,65,-2
12735,-37,39,245,8,65,-3
12740,-38,39,239,10,64,-3
12745,-34,40,240,8,68,-3
12750,-37,41,242,-4,77,-5
12755,-35,39,241,-15,83,-7
12760,-37,36,242,-17,83,-5
12765,-37,39,245,-14,80,-5
12770,-37,36,246,-10,77,-4
12775,-36,36,243,-3,73,-1
12780,-37,38,244,3,69,-1
12785,-35,37,242,7,69,-1
12790,-36,38,240,8,68,-1
12795,-33,38,244,9,70,-3
12800,-34,40,248,10,70,-3
12805,-35,42,237,12,71,-2
12810,-34,39,238,12,72,-3
12815,-38,41,241,9,73,-3
12820,-37,40,241,8,74,-2
12825,-36,37,243,8,74,-3
12830,-37,42,240,10,73,-4
12835,-36,39,245,12,69,-6
12840,-36,43,240,14,67,-6
12845,-37,40,243,15,67,-8
12850,-39,40,243,18,68,-9
12855,-36,40,239,18,70,-9
12860,-35,40,238,14,75,-10
12865,-36,38,245,9,80,-11
12870,-39,42,242,13,78,-9
12875,-34,39,241,20,75,-7
12880,-35,39,241,24,71,-6
12885,-35,35,240,27,70,-7
12890,-35,36,238,25,70,-6
12895,-35,40,243,23,73,-7
12900,-35,36,237,18,77,-10
12905,-36,40,246,10,86,-12
12910,-37,41,243,8,88,-10
12915,-36,37,242,10,89,-9
12920,-38,37,241,14,88,-8
12925,-33,39,238,19,87,-7
12930,-33,37,237,24,89,-7
12935,-39,43,239,19,97,-11
12940,-37,39,240,19,99,-10
12945,-36,41,236,21,95,-7
12950,-35,40,237,19,92,-7
12955,-37,40,238,12,87,-8
12960,-35,39,238,10,81,-4
12965,-36,37,236,-1,81,-6
12970,-41,42,245,-7,80,-6
12975,-33,41,241,-1,73,-1
12980,-36,39,244,3,71,0
12985,-37,41,243,11,67,1
12990,-36,42,244,19,65,1
12995,-32,46,241,19,67,0
13000,-37,43,243,12,74,-3
13005,-39,45,243,7,77,-6
13010,-36,42,244,6,75,-5
13015,-38,44,239,7,69,-5
13020,-35,42,239,6,64,-6
13025,-40,42,239,2,61,-5
13030,-37,43,238,-4,62,-7
13035,-38,44,240,-12,68,-10
13040,-37,38,244,-12,68,-8
13045,-35,43,241,-10,69,-7
13050,-37,41,237,-12,73,-9
13055,-37,39,241,-9,75,-8
13060,-37,36,245,-4,74,-6
13065,-37,41,239,3,73,-4
13070,-38,40,241,5,72,-3
13075,-35,43,239,5,73,-3
13080,-36,41,243,3,73,-4
13085,-39,42,241,2,72,-5
13090,-38,40,243,1,72,-4
13095,-38,41,237,0,72,-5
13100,-37,40,240,0,73,-5
13105,-38,40,242,1,73,-5
13110,-38,41,244,3,72,-3
13115,-38,40,241,2,73,-2
13120,-37,37,241,1,74,-3
13125,-35,36,243,0,74,-2
13130,-37,43,239,-3,74,-3
13135,-39,41,238,-6,74,-5
13140,-38,40,244,-7,73,-5
13145,-37,38,242,-5,70,-3
13150,-35,42,244,-3,68,-4
13155,-39,41,240,-2,67,-3
13160,-35,39,242,0,65,-2
13165,-34,37,238,2,65,-1
13170,-35,39,241,1,66,-1
13175,-36,43,242,2,64,0
13180,-35,39,242,-1,58,-3
13185,-34,41,242,-8,52,-4
13190,-34,39,239,-9,50,-4
13195,-34,40,238,-1,59,-4
13200,-38,39,240,4,64,-1
13205,-38,37,240,9,67,-2
13210,-37,42,238,11,69,-3
13215,-39,41,237,10,72,-4
13220,-37,41,237,6,74,-5
13225,-39,42,240,0,76,-4
13230,-37,41,241,-6,77,-5
13235,-38,45,241,-7,75,-7
13240,-38,38,242,-12,76,-8
13245,-37,42,241,-14,73,-7
13250,-40,43,244,-15,69,-8
13255,-38,46,243,-10,67,-8
13260,-38,43,243,-9,65,-7
13265,-35,42,241,-9,64,-5
13270,-39,43,236,-10,66,-6
13275,-36,42,237,-17,69,-6
13280,-37,41,244,-24,74,-7
13285,-38,41,240,-26,75,-7
13290,-37,34,251,-25,74,-7
13295,-37,44,240,-23,74,-7
13300,-38,39,244,-18,71,-6
13305,-37,42,241,-10,68,-3
13310,-36,42,243,-4,67,-4
13315,-37,43,240,0,68,-4
13320,-39,46,239,2,68,-5
13325,-35,42,238,2,69,-4
13330,-38,42,240,1,69,-6
13335,-37,42,244,-1,69,-5
13340,-39,42,240,-3,68,-4
13345,-37,42,239,-4,67,-4
13350,-36,39,237,-4,67,-3
13355,-35,40,242,-3,65,-2
13360,-37,42,242,-3,65,-3
13365,-38,42,238,-1,64,-2
13370,-38,43,244,-1,65,-1
13375,-33,40,242,-1,65,-2
13380,-36,43,242,-5,68,-2
13385,-34,42,243,-5,67,-3
13390,-37,41,239,-7,68,-2
13395,-36,41,239,-10,67,-3
13400,-39,44,240,-15,67,-5
13405,-34,41,244,-18,67,-4
13410,-36,41,240,-20,67,-5
13415,-35,40,243,-21,65,-5
13420,-38,44,239,-23,65,-4
13425,-38,44,238,-27,66,-4
13430,-36,42,239,-30,66,-6
13435,-37,44,244,-30,65,-5
13440,-36,39,244,-32,66,-5
13445,-35,39,242,-34,65,-5
13450,-37,39,240,-35,65,-5
13455,-36,38,242,-37,66,-4
13460,-36,40,241,-40,66,-4
13465,-37,37,244,-44,66,-2
13470,-37,40,241,-48,67,-2
13475,-38,42,241,-51,67,-1
13480,-36,39,242,-55,67,-2
13485,-38,42,243,-57,65,-3
13490,-36,41,242,-57,64,-3
13495,-37,41,241,-56,62,-3
13500,-35,41,241,-55,63,-2
13505,-35,39,240,-56,63,-3
13510,-38,42,240,-56,63,-3
13515,-37,43,238,-58,63,-2
13520,-38,39,243,-61,63,-1
13525,-37,41,242,-63,64,-2
13530,-37,42,243,-65,65,-3
13535,-35,40,242,-67,64,-3
13540,-38,40,239,-68,65,-2
13545,-37,40,242,-68,64,-2
13550,-37,37,246,-68,65,-3
13555,-37,39,239,-66,66,-4
13560,-38,38,242,-65,67,-2
13565,-36,40,242,-65,66,-2
13570,-36,37,237,-64,67,-2
13575,-35,44,239,-65,66,-1
13580,-37,40,239,-65,67,-1
13585,-38,40,241,-67,66,-3
13590,-36,39,242,-68,66,-4
13595,-37,40,240,-69,64,-3
13600,-38,42,240,-73,62,-1
13605,-38,39,238,-76,62,-2
13610,-37,38,243,-76,61,-1
13615,-37,37,238,-74,59,-2
13620,-37,37,243,-69,61,-2
13625,-37,37,245,-65,64,-2
13630,-36,37,241,-60,65,-3
13635,-35,37,239,-57,70,-1
13640,-34,38,240,-58,73,-2
13645,-36,39,243,-59,74,-2
13650,-34,38,242,-59,73,-3
13655,-37,37,244,-63,71,-2
13660,-34,37,241,-66,71,-1
13665,-38,38,244,-69,72,-2
13670,-35,37,241,-73,72,-1
13675,-36,37,246,-74,72,-2
13680,-35,33,247,-73,72,-2
13685,-38,37,242,-68,76,-2
13690,-36,33,242,-64,81,-2
13695,-36,36,245,-61,83,-1
13700,-39,37,242,-55,83,1
13705,-37,36,241,-53,81,-1
13710,-37,38,243,-52,76,-1
13715,-36,37,243,-54,73,-1
13720,-37,38,241,-57,70,0
13725,-38,38,241,-60,69,0
13730,-38,38,243,-64,69,2
13735,-34,36,240,-66,69,0
13740,-38,38,243,-67,69,1
13745,-38,36,244,-66,70,-1
13750,-36,36,243,-63,72,0
13755,-37,37,242,-61,72,-1
13760,-38,38,240,-59,72,-1
13765,-36,34,241,-56,71,-1
13770,-35,35,242,-56,72,-2
13775,-37,38,243,-58,74,-2
13780,-35,35,244,-61,74,-1
13785,-32,36,247,-65,74,-2
13790,-38,36,241,-68,74,0
13795,-35,34,246,-71,72,2
13800,-36,33,244,-73,72,1
13805,-37,36,245,-72,71,1
13810,-33,33,243,-70,71,1
13815,-38,36,242,-69,74,2
13820,-36,36,241,-65,75,2
13825,-34,31,242,-60,77,2
13830,-36,35,240,-56,78,3
13835,-39,37,244,-54,79,3
13840,-39,39,244,-52,80,3
13845,-35,35,244,-52,80,4
13850,-38,39,243,-53,79,3
13855,-37,35,240,-53,78,3
13860,-39,34,240,-51,72,0
13865,-38,35,242,-49,71,0
13870,-38,36,243,-45,68,-1
13875,-39,40,242,-44,67,0
13880,-36,35,242,-41,66,1
13885,-36,34,238,-37,69,2
13890,-33,33,241,-34,71,3
13895,-38,33,244,-29,73,3
13900,-36,33,238,-27,74,3
13905,-35,34,239,-26,75,2
13910,-34,32,237,-25,77,1
13915,-41,31,242,-27,76,0
13920,-40,31,242,-29,77,-2
13925,-40,36,243,-35,77,-4
13930,-39,34,242,-42,80,-4
13935,-43,34,242,-50,85,-5
13940,-36,31,242,-57,87,-5
13945,-39,31,244,-60,90,-5
13950,-39,34,243,-60,91,-3
13955,-38,33,241,-56,92,-4
13960,-40,33,239,-49,93,-3
13965,-38,38,239,-42,91,-2
13970,-37,30,241,-38,89,-2
13975,-38,34,239,-38,86,-1
13980,-36,34,242,-38,83,0
13985,-36,34,241,-42,79,0
13990,-36,32,244,-46,76,1
13995,-37,33,237,-47,74,2
14000,-37,35,244,-47,73,2
14005,-36,36,243,-43,71,4
14010,-36,32,242,-36,68,6
14015,-35,34,240,-29,67,6
14020,-36,31,242,-20,66,5
14025,-37,35,242,-15,68,3
14030,-36,34,243,-13,69,3
14035,-37,36,244,-14,70,0
14040,-38,32,242,-22,70,-2
14045,-37,31,240,-29,67,-4
14050,-39,35,245,-39,65,-5
14055,-36,35,242,-46,63,-6
14060,-46,35,245,-53,62,-7
14065,-37,31,242,-57,58,-5
14070,-40,35,245,-57,57,-5
14075,-37,35,238,-56,59,-4
14080,-39,30,240,-54,61,-2
14085,-40,35,245,-53,63,-2
14090,-27,34,243,-49,64,0
14095,-35,35,250,-46,65,2
14100,-35,34,251,-43,66,3
14105,-33,33,243,-40,67,3
14110,-39,27,229,-36,66,3
14115,-38,31,241,-34,67,2
14120,-38,30,239,-30,68,3
14125,-39,33,239,-29,66,3
14130,-40,37,245,-30,67,1
14135,-41,32,240,-29,65,2
14140,-37,32,250,-27,66,0
14145,-39,32,238,-28,65,1
14150,-39,36,241,-29,64,1
14155,-35,30,243,-31,62,1
14160,-19,33,229,-32,61,-2
14165,-35,32,240,-36,62,-3
14170,-37,23,259,-37,64,-1
14175,-29,27,236,-37,65,-1
14180,-44,32,243,-34,64,0
14185,-40,56,230,-31,64,0
14190,-37,30,242,-26,65,2
14195,-37,32,239,-22,62,2
14200,-38,32,239,-19,61,2
14205,-39,31,243,-23,62,3
14210,-34,35,243,-25,62,2
14215,-31,31,233,-29,60,4
14220,-34,31,240,-30,62,3
14225,-37,26,243,-29,59,3
14230,-37,34,240,-25,58,3
14235,-34,25,236,-17,58,3
14240,-43,32,244,-11,59,2
14245,-35,32,241,-10,61,1
14250,-33,32,241,-11,62,1
14255,-41,36,247,-19,65,-1
14260,-39,39,239,-29,66,-3
14265,-37,32,241,-42,67,-4
14270,-40,35,243,-53,67,-5
14275,-40,36,243,-63,67,-5
14280,-37,35,241,-70,64,-5
14285,-30,26,245,-77,66,-6
14290,-38,28,241,-81,65,-4
14295,-27,22,245,-78,64,-4
14300,-35,35,248,-73,65,-4
14305,-34,45,226,-65,65,-2
14310,-38,26,251,-53,64,0
14315,-53,49,242,-41,62,1
14320,-35,35,254,-32,62,0
14325,-42,35,245,-24,64,1
14330,-29,32,237,-17,62,2
14335,-35,24,248,-10,62,1
14340,-32,27,237,-11,61,-1
14345,-42,33,242,-17,64,0
14350,-34,33,244,-22,67,-2
14355,-38,32,242,-23,70,0
14360,-32,36,238,-23,70,2
14365,-34,39,238,-21,68,2
14370,-35,29,251,-28,68,0
14375,-42,36,243,-30,68,1
14380,-36,34,240,-30,65,3
14385,-34,32,247,-29,64,3
14390,-32,40,240,-29,62,4
14395,-31,33,240,-29,61,5
14400,-21,24,248,-28,60,5
14405,-36,37,244,-29,60,4
14410,-30,27,244,-32,58,4
14415,-32,37,249,-33,58,4
14420,-34,29,241,-33,56,3
14425,-32,28,240,-33,55,2
14430,-33,29,242,-32,55,3
14435,-36,25,241,-31,54,2
14440,-38,26,241,-27,52,3
14445,-42,32,241,-25,50,1
14450,-40,32,240,-23,50,1
14455,-34,28,238,-20,52,2
14460,-41,26,240,-20,55,2
14465,-41,34,242,-18,55,2
14470,-37,30,243,-19,55,0
14475,-35,31,249,-21,57,0
14480,-36,31,249,-20,57,0
14485,-35,29,240,-21,57,-1
14490,-45,31,240,-22,61,-1
14495,-34,29,236,-23,63,-1
14500,-37,28,241,-25,65,-1
14505,-35,29,241,-27,68,-1
14510,-37,32,240,-28,70,-1
14515,-33,34,240,-30,70,0
14520,-35,19,247,-28,69,-1
14525,-34,25,243,-25,67,-1
14530,-37,33,243,-24,64,0
14535,-36,32,242,-21,63,-1
14540,-34,32,245,-17,64,0
14545,-36,29,241,-18,65,0
14550,-35,30,240,-18,65,0
14555,-37,31,242,-19,64,-1
14560,-39,29,246,-20,62,0
14565,-36,29,243,-19,60,1
14570,-33,30,241,-17,58,-1
14575,-33,30,243,-15,57,-2
14580,-37,30,240,-16,59,-2
14585,-37,31,241,-19,58,-3
14590,-37,33,239,-17,59,-2
14595,-38,32,239,-17,61,-5
14600,-38,34,243,-19,61,-6
14605,-33,22,241,-22,65,-6
14610,-38,32,241,-26,68,-5
14615,-35,29,242,-26,71,-3
14620,-33,31,244,-26,72,-2
14625,-32,28,240,-25,72,-1
14630,-35,42,243,-23,73,1
14635,-35,29,242,-18,71,1
14640,-36,32,244,-12,69,2
14645,-37,29,240,-8,67,3
14650,-36,28,244,-5,66,2
14655,-39,32,245,-3,64,2
14660,-34,30,241,-3,60,0
14665,-34,29,239,-3,57,-1
14670,-38,31,243,-7,57,0
14675,-37,31,241,-11,61,0
14680,-35,30,242,-13,64,-2
14685,-35,30,240,-16,65,-2
14690,-35,31,242,-16,65,-2
14695,-37,31,241,-9,63,-1
14700,-35,26,242,-1,64,-1
14705,-35,28,240,12,62,0
14710,-35,27,241,26,64,-1
14715,-34,30,242,37,66,0
14720,-35,27,239,45,67,-1
14725,-39,28,240,49,67,1
14730,-36,29,237,54,66,1
14735,-39,31,240,55,65,0
14740,-35,29,239,54,66,-1
14745,-36,30,243,46,70,-1
14750,-38,32,243,35,73,-1
14755,-36,33,243,22,76,-3
14760,-35,30,240,11,78,-3
14765,-34,28,244,0,81,-3
14770,-34,31,244,-10,82,-4
14775,-33,30,241,-18,83,-4
14780,-35,28,242,-22,85,-5
14785,-35,26,242,-19,84,-5
14790,-34,28,243,-11,85,-5
14795,-35,28,240,0,83,-5
14800,-33,27,242,12,79,-4
14805,-37,30,241,22,75,-3
14810,-37,30,242,27,72,-3
14815,-36,26,239,32,69,-3
14820,-37,29,239,32,68,-3
14825,-38,34,236,34,66,-3
14830,-36,32,236,35,67,-1
14835,-37,32,244,37,65,-2
14840,-40,34,241,41,65,-1
14845,-37,31,242,46,66,0
14850,-34,34,239,49,66,0
14855,-35,34,240,50,67,0
14860,-39,35,241,50,68,0
14865,-36,33,239,47,68,0
14870,-40,43,248,40,69,-1
14875,-40,37,242,32,70,-3
14880,-37,35,244,26,71,-2
14885,-35,36,240,18,70,-4
14890,-37,34,242,14,70,-2
14895,-39,34,244,10,70,-3
14900,-37,33,242,9,71,-3
14905,-37,33,243,9,70,-2
14910,-36,32,246,12,70,-1
14915,-36,31,242,15,70,-2
14920,-37,34,239,18,71,-2
14925,-35,33,242,19,70,-2
14930,-35,36,242,20,72,-2
14935,-38,33,240,19,72,-2
14940,-35,31,241,19,72,-2
14945,-35,33,240,20,72,-2
14950,-36,34,243,19,72,-3
14955,-36,34,240,19,72,-2
14960,-36,33,241,20,71,-2
14965,-37,32,240,22,69,-1
14970,-35,31,240,24,68,-1
14975,-36,34,242,27,66,0
14980,-36,32,246,29,64,-2
14985,-37,36,245,30,62,-4
14990,-37,35,242,32,64,-3
14995,-37,31,241,32,64,-3
