timestamp,acc_x,acc_y,acc_z,gyro_x,gyro_y,gyro_z
0,1,-254,-4,-4,73,-3
5,0,-256,-3,-4,75,-3
10,2,-260,0,-5,76,-3
15,1,-255,-4,-5,77,-2
20,0,-255,-1,-3,77,-3
25,-2,-252,-11,-2,78,-3
30,1,-255,0,-1,79,-2
35,3,-260,1,0,79,-2
40,2,-257,-5,-1,78,-3
45,1,-253,-5,-1,78,-2
50,3,-258,-2,-1,79,-3
55,0,-255,-3,-2,80,-4
60,1,-256,-5,-4,78,-4
65,1,-255,1,-5,79,-3
70,2,-256,-6,-4,81,-5
75,0,-254,-3,-5,82,-3
80,-1,-253,-2,-4,81,-5
85,1,-259,1,-4,82,-4
90,1,-271,9,-5,81,-3
95,0,-256,-2,-5,81,-2
100,1,-255,-2,-6,82,-3
105,1,-260,-4,-5,81,-3
110,0,-257,-4,-5,80,-4
115,0,-257,-6,-3,80,-3
120,2,-256,-4,-3,80,-3
125,2,-256,-4,-3,79,-3
130,0,-254,-3,-1,80,-2
135,2,-257,-5,-2,81,-2
140,1,-257,-3,-1,81,-2
145,1,-259,0,0,82,-2
150,1,-256,-2,2,81,-2
155,1,-258,-3,3,82,-2
160,1,-257,-1,3,82,-2
165,0,-257,-1,3,82,-2
170,0,-256,2,2,81,-3
175,0,-257,-4,1,81,-2
180,0,-258,2,0,80,-3
185,-1,-252,-6,-2,79,-3
190,0,-254,-1,-3,80,-4
195,2,-257,-4,-3,81,-4
200,1,-255,-2,-4,80,-5
205,0,-255,-2,-4,80,-5
210,0,-255,-4,-5,79,-6
215,0,-255,2,-5,80,-4
220,1,-256,0,-4,79,-3
225,2,-257,0,-6,79,-5
230,1,-256,-4,-5,78,-4
235,1,-260,-3,-7,78,-4
240,1,-259,-3,-6,78,-4
245,1,-258,-1,-6,77,-2
250,1,-257,2,-5,77,-3
255,1,-257,0,-6,76,-2
260,0,-255,1,-6,77,-5
265,0,-255,-3,-5,77,-8
270,1,-256,1,-4,75,-7
275,1,-258,-1,-2,75,-7
280,0,-257,2,0,72,-6
285,-1,-257,-1,0,71,-6
290,1,-257,-2,-2,72,-3
295,2,-259,-3,-3,73,-3
300,0,-258,6,-2,74,-3
305,0,-258,-2,-2,73,-1
310,0,-255,0,-2,74,-4
315,0,-254,-2,0,73,-4
320,0,-254,0,0,72,-5
325,1,-253,1,0,73,-7
330,1,-257,-1,-1,73,-8
335,0,-256,-2,-2,73,-8
340,2,-259,-1,-5,73,-7
345,3,-256,-4,-5,73,-7
350,1,-257,-3,-7,74,-5
355,1,-257,-3,-6,74,-4
360,2,-258,0,-4,73,-3
365,1,-257,1,-2,71,-1
370,0,-260,0,2,71,1
375,1,-259,-1,5,70,0
380,0,-256,1,5,69,-1
385,1,-257,2,5,69,-3
390,0,-256,-4,2,69,-2
395,0,-254,-1,0,67,-2
400,2,-258,-3,-3,67,-2
405,0,-257,3,-3,67,-1
410,2,-255,2,-2,68,-1
415,0,-255,1,0,67,-1
420,3,-254,0,3,67,-3
425,0,-255,3,5,67,-5
430,0,-254,1,8,69,-6
435,0,-258,2,8,68,-8
440,1,-254,-2,10,70,-10
445,1,-258,-2,14,70,-10
450,-1,-255,0,14,71,-8
455,0,-255,0,13,72,-8
460,0,-257,3,13,73,-7
465,1,-258,3,14,73,-6
470,0,-256,0,13,72,-5
475,0,-256,3,12,71,-4
480,0,-254,2,13,71,-4
485,1,-257,2,15,70,-3
490,1,-255,-2,14,68,-2
495,0,-257,1,14,67,-3
500,2,-259,-2,15,66,-4
505,2,-253,2,16,64,-2
510,0,-261,-9,18,62,-4
515,0,-253,4,19,62,-3
520,0,-256,5,19,62,-4
525,-3,-256,0,20,62,-2
530,1,-256,0,20,61,-1
535,2,-258,4,21,63,-3
540,2,-254,0,20,64,-3
545,3,-257,-1,19,64,-3
550,1,-258,2,19,65,-4
555,0,-256,0,17,65,-2
560,0,-254,0,18,65,-4
565,0,-258,-1,17,65,-4
570,2,-256,2,17,66,-4
575,2,-253,3,16,66,-2
580,4,-255,4,16,66,0
585,0,-254,2,15,66,0
590,1,-256,4,15,67,1
595,0,-257,4,14,66,0
600,1,-255,-2,14,67,-1
605,1,-257,1,13,66,-1
610,1,-258,-2,13,64,1
615,0,-256,0,11,66,-1
620,1,-254,3,10,66,-1
625,1,-259,0,8,67,-3
630,2,-257,2,7,67,-4
635,0,-258,0,6,70,-3
640,1,-257,1,5,70,-3
645,0,-255,2,6,72,-4
650,2,-257,1,6,72,-4
655,1,-257,1,7,73,-3
660,0,-256,3,9,74,-3
665,1,-257,2,10,74,-3
670,0,-254,1,11,74,-4
675,1,-254,2,12,74,-2
680,0,-255,2,13,75,-2
685,1,-257,2,14,76,-3
690,1,-261,3,15,75,-3
695,0,-257,7,17,75,-3
700,1,-256,0,19,76,-4
705,2,-256,5,21,75,-3
710,0,-257,2,23,76,-3
715,0,-255,6,24,74,-2
720,0,-256,4,24,75,-1
725,2,-255,3,26,74,-2
730,2,-253,2,26,75,-2
735,-1,-255,3,25,74,0
740,1,-258,3,24,74,-2
745,1,-255,1,23,72,-2
750,0,-256,5,22,72,-1
755,1,-256,3,22,73,-3
760,0,-255,3,22,73,-3
765,0,-256,3,22,72,-3
770,0,-255,5,24,71,-3
775,-2,-256,0,25,71,-3
780,2,-258,6,26,71,-2
785,0,-256,3,24,70,-2
790,2,-257,1,23,70,-3
795,3,-257,0,23,68,-2
800,1,-255,3,23,67,-1
805,1,-255,5,22,68,-2
810,0,-254,5,21,66,0
815,1,-255,2,20,67,0
820,0,-254,0,18,67,-2
825,3,-259,5,18,67,-1
830,1,-255,3,15,68,0
835,0,-256,2,16,67,-3
840,2,-259,4,15,67,-2
845,2,-258,2,14,69,-2
850,0,-256,5,14,69,-2
855,0,-258,7,13,70,-3
860,0,-258,5,13,69,-4
865,-1,-253,2,13,69,-3
870,0,-255,4,10,70,-1
875,1,-256,9,7,70,-2
880,-1,-255,0,5,70,-3
885,1,-254,3,5,70,-3
890,0,-254,6,4,70,-2
895,0,-254,6,4,70,-2
900,1,-256,1,3,68,-2
905,0,-255,6,3,68,-2
910,0,-252,-1,2,68,-2
915,0,-254,1,1,68,-1
920,0,-254,5,2,68,-1
925,0,-256,9,3,69,-1
930,0,-256,4,2,69,-4
935,1,-257,5,2,68,-3
940,0,-256,1,3,67,-4
945,0,-262,10,4,66,-4
950,1,-258,5,5,66,-3
955,0,-260,2,6,64,0
960,1,-257,6,7,63,0
965,1,-257,4,8,65,0
970,-1,-256,6,9,65,-1
975,0,-257,0,13,65,0
980,0,-256,6,16,62,-1
985,0,-258,8,18,60,-3
990,0,-259,5,20,60,-4
995,1,-258,7,22,59,-4
1000,0,-254,4,20,59,-5
1005,-2,-254,9,19,57,-5
1010,0,-255,6,17,58,-4
1015,0,-253,6,15,58,-5
1020,0,-257,5,10,56,-2
1025,0,-256,7,8,56,-4
1030,0,-256,8,9,56,-1
1035,0,-256,8,11,55,1
1040,0,-255,5,14,54,-2
1045,1,-257,4,17,53,-1
1050,0,-259,10,19,54,-2
1055,0,-258,9,19,54,-1
1060,1,-259,6,21,53,0
1065,0,-252,5,19,53,-1
1070,1,-257,5,18,54,-1
1075,1,-258,7,20,54,0
1080,2,-257,6,18,54,2
1085,0,-254,5,17,55,2
1090,1,-254,4,17,55,2
1095,1,-253,4,16,55,0
1100,1,-255,4,17,55,-1
1105,0,-254,4,17,53,-1
1110,1,-254,9,17,54,-1
1115,1,-255,6,17,53,-1
1120,0,-252,8,16,54,0
1125,1,-255,6,16,55,1
1130,1,-254,6,15,56,3
1135,0,-256,9,14,56,4
1140,1,-254,7,14,56,5
1145,1,-254,8,14,56,5
1150,1,-255,9,13,56,6
1155,0,-259,6,14,55,6
1160,-1,-255,9,13,55,6
1165,0,-256,4,12,54,6
1170,3,-259,7,10,53,6
1175,1,-258,7,10,54,6
1180,0,-257,4,10,55,6
1185,0,-258,2,9,55,5
1190,0,-256,5,8,56,5
1195,0,-255,6,9,57,5
1200,1,-257,7,9,60,4
1205,1,-256,8,11,60,4
1210,-1,-255,8,13,62,3
1215,2,-255,8,14,61,1
1220,0,-258,6,16,63,1
1225,0,-256,11,17,64,1
1230,1,-256,7,15,64,-1
1235,0,-254,8,15,63,-1
1240,-1,-256,7,13,62,-2
1245,1,-254,9,13,63,-2
1250,1,-255,9,11,63,-2
1255,1,-256,8,11,62,-1
1260,1,-256,9,10,62,-1
1265,0,-254,5,10,63,-2
1270,0,-251,6,9,63,-1
1275,3,-261,3,9,63,-1
1280,-1,-253,6,11,64,-2
1285,0,-255,7,11,63,-4
1290,0,-255,8,11,63,-4
1295,1,-255,1,11,64,-5
1300,2,-256,8,11,64,-4
1305,0,-254,8,12,66,-4
1310,1,-256,6,12,68,-3
1315,2,-259,5,13,69,-5
1320,1,-253,6,15,71,-5
1325,1,-255,6,16,71,-4
1330,2,-258,5,17,72,-6
1335,1,-257,8,17,73,-7
1340,2,-257,7,16,74,-5
1345,1,-254,8,17,76,-5
1350,0,-255,7,17,76,-5
1355,0,-257,9,17,76,-6
1360,0,-255,11,17,76,-5
1365,0,-256,10,17,77,-3
1370,0,-255,11,18,76,-3
1375,1,-257,8,17,76,-2
1380,0,-253,9,17,75,-1
1385,1,-256,12,17,74,-2
1390,0,-254,7,16,75,-2
1395,0,-253,7,17,75,-1
1400,2,-259,5,17,73,-2
1405,2,-255,5,16,74,-1
1410,0,-253,8,16,74,0
1415,3,-257,7,14,74,-2
1420,1,-254,9,13,75,-1
1425,1,-253,8,13,75,0
1430,1,-255,8,12,78,0
1435,3,-257,10,13,79,-1
1440,1,-257,9,13,80,-3
1445,1,-254,9,14,80,-3
1450,1,-260,5,14,81,-1
1455,1,-257,5,14,83,-2
1460,0,-255,8,13,83,-4
1465,1,-255,9,14,81,-3
1470,1,-256,7,13,81,-2
1475,0,-253,6,13,81,-3
1480,0,-256,11,12,82,-1
1485,2,-258,16,12,81,-2
1490,-1,-256,14,10,82,-3
1495,1,-254,10,10,82,-2
1500,0,-256,10,10,83,-2
1505,0,-256,9,10,85,-2
1510,0,-259,11,11,84,-1
1515,3,-257,13,11,84,-2
1520,1,-256,10,11,83,-3
1525,0,-257,8,11,81,-2
1530,0,-254,8,11,81,-2
1535,-1,-255,7,11,82,-3
1540,0,-257,8,10,82,-4
1545,0,-254,10,11,81,-2
1550,-1,-254,9,9,82,-3
1555,0,-255,13,10,82,-3
1560,0,-255,8,11,83,-3
1565,2,-256,9,8,82,-2
1570,0,-256,9,10,83,-4
1575,0,-255,10,9,83,-1
1580,1,-257,11,8,82,-1
1585,1,-254,8,6,81,-1
1590,1,-252,11,5,81,-2
1595,0,-255,10,3,82,-4
1600,2,-260,6,2,82,-3
1605,0,-255,7,2,82,-4
1610,1,-256,14,5,81,-3
1615,-1,-254,11,5,79,-3
1620,1,-255,10,5,79,-2
1625,2,-257,6,6,79,-2
1630,0,-257,6,6,80,0
1635,0,-255,12,5,79,-1
1640,1,-257,13,7,78,0
1645,1,-258,9,8,77,-2
1650,0,-253,12,9,75,-1
1655,0,-254,8,8,74,-3
1660,2,-255,10,8,73,-3
1665,0,-256,11,6,74,-4
1670,0,-255,9,4,73,-5
1675,1,-253,8,1,74,-5
1680,1,-256,12,-2,75,-4
1685,0,-253,12,-3,75,-4
1690,2,-258,11,-5,77,-4
1695,1,-260,11,-5,77,-3
1700,0,-259,11,-2,78,-2
1705,1,-257,11,-1,77,-1
1710,5,-262,15,1,77,1
1715,1,-256,10,2,78,-1
1720,0,-255,7,3,77,0
1725,0,-254,10,1,76,0
1730,1,-255,12,-2,75,0
1735,0,-257,11,-4,73,2
1740,2,-254,11,-5,72,2
1745,0,-255,13,-4,72,1
1750,1,-256,11,-3,72,1
1755,1,-255,10,-3,72,1
1760,0,-256,8,-2,72,2
1765,0,-254,8,0,71,1
1770,0,-254,10,-1,70,0
1775,0,-255,11,1,71,-2
1780,-3,-256,11,0,73,-2
1785,2,-257,11,-1,71,-3
1790,0,-258,11,-1,70,-2
1795,1,-254,14,-1,71,-2
1800,0,-253,9,-2,71,-1
1805,0,-255,10,-3,69,-2
1810,2,-261,10,-3,68,0
1815,1,-255,14,-3,68,0
1820,1,-256,14,-3,67,1
1825,-1,-254,10,-2,68,0
1830,0,-256,7,-1,66,2
1835,1,-256,13,0,66,1
1840,1,-254,12,0,66,2
1845,0,-254,11,0,65,2
1850,0,-255,11,0,66,4
1855,0,-253,11,0,64,4
1860,0,-256,10,-1,65,4
1865,1,-258,12,-2,64,5
1870,1,-257,14,0,66,5
1875,0,-255,10,-2,65,5
1880,0,-256,13,-3,66,4
1885,1,-256,10,-4,66,3
1890,1,-256,11,-5,66,2
1895,0,-257,9,-6,65,3
1900,0,-255,10,-6,66,3
1905,0,-256,7,-6,66,3
1910,0,-255,10,-7,67,3
1915,0,-252,11,-6,67,4
1920,-1,-254,10,-4,66,4
1925,-2,-253,21,-4,64,5
1930,0,-255,10,-3,64,5
1935,0,-258,11,-3,63,4
1940,2,-255,14,-5,60,4
1945,0,-252,11,-7,60,5
1950,0,-255,9,-7,60,5
1955,0,-256,12,-7,59,5
1960,1,-255,14,-9,61,5
1965,0,-255,13,-9,63,4
1970,0,-254,14,-9,64,5
1975,0,-256,6,-10,63,4
1980,1,-255,11,-13,65,5
1985,1,-255,11,-15,66,5
1990,1,-256,9,-16,67,5
1995,0,-257,14,-16,67,4
2000,1,-255,8,-16,66,5
2005,0,-253,9,-16,65,3
2010,0,-257,11,-18,66,5
2015,0,-256,14,-20,65,6
2020,-2,-257,10,-22,65,5
2025,0,-254,9,-24,64,6
2030,0,-257,13,-25,63,6
2035,-2,-255,18,-28,63,6
2040,1,-253,14,-27,63,7
2045,1,-256,10,-27,62,7
2050,2,-256,5,-28,61,6
2055,0,-257,11,-27,59,8
2060,0,-254,10,-27,59,8
2065,0,-255,8,-26,58,8
2070,3,-257,7,-25,58,9
2075,0,-255,7,-26,57,8
2080,1,-257,13,-26,57,9
2085,0,-260,16,-25,56,8
2090,2,-258,9,-24,55,9
2095,2,-259,10,-23,56,8
2100,-1,-257,11,-23,55,6
2105,1,-257,12,-21,58,6
2110,0,-258,12,-22,57,7
2115,0,-253,12,-21,58,5
2120,0,-257,13,-22,58,5
2125,0,-256,9,-22,58,6
2130,2,-254,10,-23,57,7
2135,2,-255,10,-26,57,6
2140,1,-257,10,-26,56,7
2145,-1,-254,7,-27,56,6
2150,0,-256,11,-28,56,9
2155,-2,-259,12,-29,55,9
2160,0,-253,12,-29,55,10
2165,0,-255,11,-31,56,10
2170,0,-255,11,-31,56,9
2175,0,-257,11,-30,55,10
2180,0,-256,12,-31,55,10
2185,0,-254,9,-31,56,10
2190,1,-256,7,-32,55,10
2195,2,-254,8,-31,56,9
2200,0,-254,15,-32,55,11
2205,-2,-255,8,-33,55,10
2210,2,-256,8,-34,55,11
2215,2,-256,10,-36,57,10
2220,0,-255,11,-36,57,10
2225,-1,-255,10,-37,57,9
2230,0,-257,10,-36,57,10
2235,1,-257,12,-35,58,9
2240,0,-252,9,-33,58,10
2245,0,-256,10,-33,58,10
2250,0,-255,13,-32,59,11
2255,1,-260,12,-32,57,9
2260,0,-253,15,-32,57,7
2265,0,-256,13,-31,56,7
2270,1,-253,10,-31,55,7
2275,0,-256,11,-31,55,7
2280,0,-257,8,-33,56,8
2285,0,-254,9,-34,54,9
2290,1,-252,7,-35,54,10
2295,1,-257,9,-37,57,12
2300,1,-258,9,-38,58,12
2305,0,-256,13,-37,59,13
2310,-2,-254,10,-36,59,12
2315,1,-255,14,-36,58,9
2320,0,-254,11,-36,57,7
2325,-2,-254,9,-36,55,7
2330,0,-256,8,-37,56,6
2335,-1,-254,8,-38,56,6
2340,0,-256,5,-40,58,5
2345,0,-254,9,-43,58,6
2350,-1,-255,9,-44,59,6
2355,0,-255,12,-41,61,10
2360,-4,-258,8,-40,60,10
2365,0,-260,8,-36,60,10
2370,0,-260,10,-32,59,11
2375,0,-255,8,-26,60,11
2380,2,-256,9,-23,58,11
2385,-2,-254,6,-21,56,12
2390,0,-255,11,-22,56,10
2395,-1,-256,9,-26,56,10
2400,0,-260,7,-31,55,10
2405,-2,-255,8,-33,53,10
2410,0,-257,10,-34,51,11
2415,0,-255,10,-33,52,10
2420,-2,-253,9,-33,52,9
2425,0,-254,11,-30,52,8
2430,0,-256,11,-28,52,6
2435,-1,-255,10,-26,52,4
2440,0,-256,7,-26,53,4
2445,0,-257,10,-25,55,3
2450,0,-254,9,-24,55,4
2455,1,-257,7,-24,55,4
2460,1,-255,10,-23,59,4
2465,-1,-255,9,-22,60,4
2470,0,-252,10,-20,61,7
2475,0,-251,11,-20,62,7
2480,0,-253,10,-19,60,9
2485,0,-255,11,-19,59,10
2490,-2,-253,12,-19,60,12
2495,0,-254,11,-19,59,12
2500,0,-255,9,-20,58,13
2505,-1,-255,12,-19,58,13
2510,0,-256,8,-21,58,14
2515,0,-253,7,-21,57,13
2520,-1,-257,13,-20,57,14
2525,-1,-256,5,-22,57,14
2530,0,-257,9,-22,57,13
2535,-1,-253,9,-23,57,12
2540,-1,-255,9,-23,57,12
2545,0,-256,9,-24,59,12
2550,0,-254,4,-24,61,10
2555,0,-255,7,-22,62,10
2560,0,-257,9,-21,62,8
2565,-2,-253,11,-18,62,11
2570,1,-255,9,-16,63,11
2575,0,-256,9,-15,64,11
2580,1,-262,9,-13,62,10
2585,0,-255,6,-14,61,13
2590,0,-253,9,-14,61,14
2595,-2,-255,6,-12,59,14
2600,-1,-253,9,-10,58,14
2605,0,-256,8,-10,57,14
2610,0,-256,8,-11,56,13
2615,0,-254,8,-14,57,10
2620,-4,-254,9,-18,55,10
2625,0,-258,11,-21,55,8
2630,0,-255,9,-22,53,10
2635,0,-254,12,-23,53,11
2640,-2,-255,13,-23,53,13
2645,0,-257,7,-23,53,12
2650,-1,-257,10,-23,52,13
2655,-4,-257,9,-23,53,13
2660,-2,-258,6,-23,54,10
2665,0,-255,8,-22,55,11
2670,2,-255,9,-23,55,9
2675,-4,-256,7,-24,58,11
2680,-1,-255,9,-23,61,9
2685,0,-256,7,-24,62,7
2690,-3,-254,5,-23,61,5
2695,-1,-255,9,-24,59,3
2700,0,-257,9,-22,58,3
2705,1,-256,10,-20,58,3
2710,-1,-252,10,-19,57,4
2715,-2,-254,8,-19,56,4
2720,0,-254,8,-20,56,4
2725,1,-254,5,-22,57,4
2730,0,-253,6,-23,57,3
2735,0,-255,10,-26,59,4
2740,-1,-252,3,-26,59,4
2745,0,-256,5,-30,61,5
2750,-2,-255,7,-31,62,4
2755,0,-257,8,-33,64,4
2760,-2,-255,7,-34,66,3
2765,-1,-255,10,-36,67,2
2770,0,-252,9,-37,67,3
2775,0,-256,13,-38,69,3
2780,1,-257,8,-38,68,3
2785,0,-256,9,-38,71,2
2790,0,-254,8,-40,72,3
2795,0,-254,10,-40,72,4
2800,-3,-256,8,-42,71,4
2805,0,-256,6,-42,72,4
2810,-2,-254,7,-40,72,4
2815,0,-257,5,-41,72,4
2820,0,-257,9,-41,70,7
2825,-2,-255,7,-40,70,6
2830,2,-257,9,-40,70,5
2835,-1,-257,7,-40,70,4
2840,-4,-254,8,-39,71,4
2845,0,-257,7,-39,72,4
2850,0,-255,8,-39,74,4
2855,-1,-254,10,-38,75,5
2860,0,-255,6,-38,77,5
2865,0,-254,6,-37,76,5
2870,0,-255,8,-37,77,5
2875,-2,-254,7,-38,76,5
2880,-2,-257,7,-37,78,5
2885,0,-254,7,-41,78,6
2890,0,-252,4,-43,79,4
2895,1,-254,5,-45,78,3
2900,2,-254,7,-47,79,1
2905,1,-260,7,-47,80,0
2910,-2,-257,9,-46,80,0
2915,-1,-254,6,-44,80,-1
2920,0,-256,7,-45,80,1
2925,0,-257,6,-44,80,1
2930,1,-256,8,-45,81,2
2935,0,-255,8,-44,81,2
2940,1,-255,8,-45,83,2
2945,0,-256,7,-46,84,2
2950,-2,-253,8,-47,82,1
2955,0,-254,5,-46,82,-1
2960,0,-256,2,-45,82,-2
2965,0,-257,7,-44,82,-4
2970,-1,-255,4,-43,82,-3
2975,-3,-254,5,-44,85,-3
2980,0,-254,8,-45,87,-4
2985,0,-257,9,-43,89,-3
2990,0,-254,5,-42,91,-4
2995,-2,-255,7,-36,90,-3
3000,-1,-259,9,-31,90,-2
3005,0,-259,6,-26,91,-1
3010,0,-256,9,-22,91,-1
3015,2,-255,9,-19,91,-2
3020,0,-254,1,-19,92,-2
3025,-2,-255,9,-22,91,-3
3030,-5,-253,6,-26,92,-5
3035,-6,-253,8,-33,91,-4
3040,0,-257,8,-38,91,-6
3045,-1,-256,4,-42,91,-6
3050,-2,-258,7,-42,92,-7
3055,0,-253,8,-40,92,-8
3060,0,-252,9,-36,93,-11
3065,-1,-257,6,-32,95,-13
3070,-9,-257,3,-27,94,-14
3075,-2,-254,7,-25,95,-15
3080,0,-259,5,-26,96,-13
3085,-1,-256,3,-24,96,-14
3090,1,-256,3,-24,97,-13
3095,0,-256,10,-22,98,-12
3100,0,-258,5,-19,98,-11
3105,1,-254,8,-18,96,-9
3110,0,-256,4,-16,95,-7
3115,0,-255,4,-15,95,-6
3120,-2,-256,10,-12,94,-6
3125,7,-252,4,-10,94,-5
3130,-1,-254,2,-8,91,-5
3135,0,-255,4,-5,91,-5
3140,1,-259,6,-4,90,-4
3145,0,-258,3,-2,89,-3
3150,-1,-255,8,-2,88,-3
3155,0,-257,1,-2,88,-1
3160,-2,-259,0,-3,87,-1
3165,0,-256,4,-3,87,-1
3170,0,-259,1,-2,87,-1
3175,0,-255,4,0,89,1
3180,0,-255,2,-1,89,-1
3185,-1,-254,6,2,89,0
3190,-1,-256,6,3,89,0
3195,-2,-257,2,4,90,2
3200,-4,-255,7,3,91,4
3205,-1,-255,6,2,90,5
3210,-2,-259,3,1,90,7
3215,-3,-253,5,2,89,12
3220,0,-255,5,3,88,12
3225,3,-254,3,3,88,13
3230,1,-255,8,5,87,15
3235,0,-257,3,3,86,15
3240,-4,-255,7,2,86,15
3245,-1,-255,2,-1,84,15
3250,1,-256,7,-5,84,14
3255,-3,-256,3,-11,84,15
3260,-2,-256,8,-14,87,16
3265,-1,-258,5,-19,88,18
3270,-2,-251,5,-22,89,20
3275,0,-253,5,-24,91,20
3280,-1,-255,9,-26,93,21
3285,-6,-255,7,-27,95,24
3290,0,-255,4,-28,99,25
3295,0,-255,5,-29,103,25
3300,0,-257,8,-29,107,23
3305,1,-258,3,-28,111,23
3310,0,-256,5,-28,115,21
3315,-1,-254,6,-29,117,17
3320,-1,-253,5,-32,121,17
3325,0,-256,2,-33,123,13
3330,0,-257,5,-34,123,12
3335,-3,-254,7,-35,124,10
3340,-2,-257,3,-34,125,11
3345,0,-256,5,-35,126,8
3350,-2,-256,4,-32,125,7
3355,-3,-254,6,-31,127,6
3360,-2,-254,1,-29,126,5
3365,-4,-257,5,-26,125,5
3370,-2,-255,6,-24,125,5
3375,-4,-257,4,-23,123,3
3380,-5,-253,2,-23,122,4
3385,-3,-255,6,-23,121,4
3390,-5,-253,3,-23,120,3
3395,-4,-253,5,-26,119,5
3400,-5,-255,3,-28,118,4
3405,-3,-255,5,-30,117,2
3410,0,-256,3,-32,117,2
3415,-6,-252,3,-36,117,2
3420,-5,-254,4,-37,118,1
3425,-3,-256,3,-40,118,1
3430,-2,-255,6,-44,119,0
3435,-1,-255,3,-46,118,1
3440,-5,-255,4,-49,120,2
3445,-2,-253,2,-50,119,2
3450,2,-255,1,-50,117,2
3455,-3,-255,3,-50,116,2
3460,-2,-255,2,-53,113,3
3465,-3,-257,0,-53,112,4
3470,-7,-251,1,-54,111,3
3475,-5,-256,4,-54,108,5
3480,-6,-257,5,-55,107,5
3485,-3,-257,4,-54,105,4
3490,-8,-252,8,-53,102,5
3495,-2,-257,2,-53,101,7
3500,-5,-255,1,-53,99,7
3505,-6,-255,1,-53,97,7
3510,-6,-255,5,-53,94,10
3515,-5,-257,0,-54,92,11
3520,-6,-257,3,-56,89,9
3525,-4,-254,2,-59,88,9
3530,-5,-256,0,-63,85,9
3535,-6,-252,-1,-64,82,9
3540,-3,-256,2,-66,80,10
3545,-3,-256,-3,-68,77,11
3550,-4,-252,5,-69,74,13
3555,-6,-255,-1,-70,72,13
3560,-2,-255,-2,-73,70,17
3565,-1,-257,-2,-75,68,19
3570,-5,-254,-5,-78,68,21
3575,-5,-256,0,-79,66,23
3580,-4,-256,-2,-78,67,22
3585,-3,-256,-3,-74,66,21
3590,-5,-255,-2,-69,64,19
3595,-3,-257,-5,-67,62,16
3600,-2,-258,-5,-64,60,15
3605,-5,-255,-5,-63,59,13
3610,-3,-254,-4,-65,61,13
3615,-3,-254,-6,-71,61,14
3620,0,-256,-7,-78,61,17
3625,-5,-252,-9,-88,63,19
3630,-2,-255,-2,-96,65,20
3635,-4,-255,-3,-102,66,22
3640,-4,-255,-6,-109,68,23
3645,-6,-254,-6,-113,69,23
3650,-1,-254,-7,-119,70,24
3655,-6,-255,-4,-124,71,24
3660,-3,-255,-4,-135,72,23
3665,3,-252,-1,-147,71,22
3670,-5,-250,-8,-161,73,24
3675,-6,-252,-6,-173,71,27
3680,-4,-255,-10,-182,70,28
3685,-3,-256,-10,-188,70,28
3690,-8,-250,-9,-193,68,26
3695,-7,-254,-10,-194,69,25
3700,-4,-256,-10,-194,68,23
3705,-5,-257,-6,-193,68,20
3710,-5,-256,-14,-193,69,18
3715,-8,-251,-11,-196,71,17
3720,-5,-256,-9,-198,71,15
3725,-5,-253,-9,-201,70,15
3730,-6,-256,-11,-206,73,15
3735,-4,-255,-13,-211,73,16
3740,-6,-255,-10,-217,74,18
3745,-2,-254,-10,-224,78,17
3750,-5,-253,-12,-230,79,17
3755,0,-252,-13,-237,81,18
3760,-1,-251,-14,-240,84,15
3765,0,-256,-14,-245,85,16
3770,-3,-252,-13,-252,88,15
3775,-1,-250,-14,-258,90,13
3780,-3,-250,-13,-265,90,13
3785,-5,-251,-10,-271,92,14
3790,-8,-250,-14,-279,92,15
3795,-6,-251,-14,-286,91,16
3800,-7,-252,-15,-293,90,17
3805,-8,-250,-18,-297,91,18
3810,-5,-250,-14,-300,88,15
3815,-7,-254,-10,-302,89,13
3820,-7,-256,-13,-302,87,11
3825,-2,-253,-12,-301,87,9
3830,-1,-254,-15,-304,87,7
3835,-2,-254,-16,-307,88,9
3840,-1,-252,-15,-311,90,10
3845,0,-253,-19,-314,91,9
3850,-3,-251,-20,-323,95,10
3855,2,-252,-21,-332,100,10
3860,0,-249,-20,-344,108,11
3865,0,-251,-24,-355,118,10
3870,0,-251,-25,-364,127,5
3875,0,-249,-25,-371,135,0
3880,4,-253,-22,-379,145,-3
3885,0,-251,-20,-388,150,-8
3890,0,-250,-24,-397,156,-12
3895,-1,-248,-22,-408,160,-14
3900,0,-250,-22,-420,166,-16
3905,-2,-251,-27,-430,171,-14
3910,-2,-252,-23,-437,178,-10
3915,-3,-251,-25,-444,183,-5
3920,-3,-250,-28,-446,189,0
3925,0,-252,-23,-446,193,7
3930,0,-256,-24,-444,196,12
3935,-3,-253,-27,-444,194,17
3940,-5,-251,-30,-445,193,22
3945,-6,-250,-28,-445,191,28
3950,-5,-248,-27,-447,188,33
3955,-5,-249,-26,-452,186,40
3960,-6,-249,-24,-456,182,48
3965,-5,-248,-33,-459,178,53
3970,-4,-247,-28,-463,175,59
3975,-2,-251,-30,-466,171,65
3980,-6,-249,-27,-471,168,69
3985,-5,-253,-30,-473,164,72
3990,-3,-250,-31,-476,161,72
3995,-3,-256,-36,-477,159,75
4000,-3,-250,-29,-479,153,74
4005,-10,-251,-35,-479,147,73
4010,-9,-254,-32,-478,141,73
4015,-13,-256,-34,-476,136,71
4020,-13,-252,-34,-473,132,71
4025,-16,-255,-35,-473,129,73
4030,-18,-250,-34,-474,126,75
4035,-23,-249,-33,-475,123,80
4040,-21,-258,-29,-475,118,86
4045,-24,-254,-33,-476,112,90
4050,-22,-255,-37,-481,107,95
4055,-27,-252,-35,-481,103,98
4060,-25,-253,-39,-483,98,101
4065,-26,-250,-40,-483,89,106
4070,-26,-253,-40,-486,79,111
4075,-26,-251,-41,-492,66,119
4080,-26,-253,-40,-502,51,125
4085,-26,-250,-46,-511,34,129
4090,-25,-252,-45,-522,17,134
4095,-20,-253,-51,-531,2,135
4100,-19,-250,-57,-542,-12,134
4105,-18,-254,-55,-554,-22,132
4110,-14,-253,-58,-566,-28,127
4115,-10,-251,-56,-573,-28,117
4120,-11,-254,-58,-575,-27,103
4125,-8,-250,-57,-572,-24,85
4130,-7,-249,-56,-573,-21,62
4135,0,-244,-56,-577,-18,39
4140,0,-242,-53,-591,-4,30
4145,3,-238,-55,-606,8,25
4150,4,-239,-57,-616,21,26
4155,1,-233,-57,-624,34,30
4160,2,-234,-56,-635,39,28
4165,-1,-229,-58,-649,44,24
4170,-1,-227,-65,-671,48,18
4175,-1,-229,-69,-695,56,16
4180,-5,-231,-65,-723,63,15
4185,-6,-229,-68,-755,74,14
4190,-8,-232,-71,-791,81,15
4195,-12,-235,-70,-823,89,12
4200,-9,-241,-69,-847,97,13
4205,-12,-244,-68,-860,100,14
4210,-11,-247,-69,-862,102,16
4215,-12,-248,-67,-853,102,17
4220,-12,-250,-61,-835,102,21
4225,-9,-249,-67,-810,98,29
4230,-10,-246,-73,-785,94,33
4235,-9,-248,-68,-762,85,37
4240,-10,-247,-77,-739,79,40
4245,-12,-246,-82,-724,76,43
4250,-20,-243,-83,-712,78,44
4255,-15,-244,-89,-709,76,47
4260,-13,-240,-88,-714,78,47
4265,-10,-245,-89,-723,81,44
4270,-17,-236,-92,-743,88,44
4275,-9,-243,-91,-767,91,48
4280,-12,-242,-88,-796,97,50
4285,-12,-241,-87,-829,102,55
4290,-11,-241,-84,-856,104,58
4295,-11,-242,-84,-874,101,62
4300,-11,-239,-84,-883,102,66
4305,-10,-236,-80,-883,100,73
4310,-13,-233,-82,-874,97,79
4315,-16,-230,-77,-858,94,84
4320,-27,-224,-84,-837,90,86
4325,-21,-227,-86,-817,81,92
4330,-27,-217,-91,-801,74,88
4335,-27,-215,-93,-796,65,83
4340,-31,-214,-99,-802,63,79
4345,-26,-212,-99,-814,59,80
4350,-29,-216,-99,-833,52,73
4355,-27,-216,-100,-860,44,66
4360,-27,-220,-102,-890,40,60
4365,-26,-224,-98,-916,36,51
4370,-24,-226,-108,-937,30,39
4375,-21,-230,-108,-966,35,39
4380,-20,-233,-110,-991,39,35
4385,-15,-230,-118,-1017,45,34
4390,-13,-233,-124,-1047,54,44
4395,-16,-230,-126,-1072,63,52
4400,-15,-228,-128,-1091,71,69
4405,-13,-228,-136,-1101,79,84
4410,-14,-226,-138,-1105,90,95
4415,-16,-221,-147,-1105,99,104
4420,-12,-220,-145,-1104,109,111
4425,-13,-217,-148,-1096,120,118
4430,-9,-222,-148,-1087,132,122
4435,-12,-217,-145,-1074,142,122
4440,-15,-217,-144,-1068,147,115
4445,-12,-219,-139,-1053,140,96
4450,-10,-216,-139,-1037,137,88
4455,-13,-212,-138,-1023,138,89
4460,-12,-206,-142,-1015,134,94
4465,-15,-196,-138,-1004,129,96
4470,-17,-192,-142,-988,125,94
4475,-16,-195,-140,-975,124,92
4480,-20,-195,-141,-961,122,87
4485,-21,-190,-139,-938,120,74
4490,-19,-193,-140,-907,117,59
4495,-19,-189,-138,-888,125,53
4500,-15,-187,-135,-894,140,60
4505,-14,-189,-133,-917,157,69
4510,-22,-186,-125,-952,169,73
4515,-19,-186,-125,-992,183,74
4520,-19,-191,-125,-1030,195,75
4525,-29,-188,-123,-1061,204,70
4530,-26,-194,-126,-1095,211,70
4535,-28,-192,-128,-1123,219,66
4540,-28,-196,-131,-1140,223,69
4545,-29,-199,-134,-1156,224,68
4550,-27,-200,-137,-1170,223,71
4555,-33,-199,-138,-1180,221,66
4560,-28,-192,-146,-1176,207,50
4565,-22,-187,-146,-1172,192,47
4570,-17,-184,-152,-1176,179,57
4575,-13,-179,-151,-1186,167,71
4580,-13,-177,-153,-1199,154,85
4585,-13,-179,-159,-1212,144,94
4590,-8,-177,-162,-1221,139,102
4595,-8,-174,-164,-1217,139,108
4600,-7,-179,-163,-1214,143,117
4605,-6,-182,-171,-1213,152,125
4610,-8,-183,-170,-1219,164,132
4615,-9,-189,-172,-1229,176,140
4620,-8,-191,-175,-1240,189,144
4625,-13,-196,-170,-1247,203,147
4630,-10,-201,-170,-1252,211,150
4635,-10,-206,-168,-1253,215,151
4640,-10,-207,-168,-1246,214,149
4645,-9,-205,-169,-1227,210,147
4650,-10,-204,-168,-1195,201,145
4655,-12,-197,-174,-1151,191,137
4660,-10,-196,-178,-1097,182,130
4665,-8,-191,-180,-1040,177,124
4670,-9,-191,-175,-981,175,121
4675,-6,-186,-178,-921,176,120
4680,-7,-182,-178,-861,180,115
4685,-6,-183,-176,-808,192,108
4690,-7,-178,-179,-763,205,100
4695,-11,-175,-179,-722,226,93
4700,-11,-168,-181,-691,247,86
4705,-11,-167,-180,-670,273,83
4710,-16,-165,-176,-659,300,80
4715,-18,-164,-176,-652,324,82
4720,-16,-166,-178,-647,343,81
4725,-17,-164,-178,-643,355,81
4730,-16,-165,-179,-641,361,79
4735,-18,-162,-178,-637,359,76
4740,-14,-162,-180,-629,353,70
4745,-16,-166,-187,-614,344,60
4750,-14,-161,-190,-594,334,47
4755,-19,-167,-193,-570,324,25
4760,-20,-164,-195,-544,314,4
4765,-19,-164,-196,-524,308,-15
4770,-20,-165,-196,-506,303,-32
4775,-18,-167,-197,-494,300,-46
4780,-17,-166,-199,-484,295,-52
4785,-14,-164,-193,-477,290,-55
4790,-12,-169,-192,-471,285,-56
4795,-10,-166,-196,-465,277,-59
4800,-12,-161,-196,-461,268,-62
4805,-6,-157,-197,-464,259,-68
4810,-6,-155,-201,-474,251,-75
4815,-9,-150,-197,-492,244,-84
4820,-7,-149,-201,-511,234,-97
4825,-8,-150,-206,-527,226,-108
4830,-6,-147,-210,-536,219,-119
4835,-15,-146,-211,-544,212,-127
4840,-19,-143,-214,-550,206,-134
4845,-16,-145,-219,-557,200,-138
4850,-19,-139,-221,-568,190,-140
4855,-15,-145,-221,-578,178,-138
4860,-19,-150,-234,-592,162,-131
4865,-17,-142,-227,-610,148,-123
4870,-18,-140,-232,-630,132,-112
4875,-19,-139,-229,-645,117,-101
4880,-13,-144,-234,-654,102,-91
4885,-12,-144,-226,-651,91,-85
4890,-9,-140,-231,-631,83,-77
4895,-9,-141,-230,-605,83,-70
4900,-1,-136,-227,-581,83,-67
4905,-5,-135,-227,-567,81,-63
4910,-8,-131,-225,-559,75,-61
4915,-10,-128,-222,-558,67,-59
4920,-4,-127,-219,-563,53,-56
4925,-7,-125,-223,-567,39,-52
4930,-7,-125,-219,-567,22,-50
4935,-7,-129,-219,-563,9,-49
4940,-7,-125,-219,-554,-3,-52
4945,-3,-125,-220,-535,-7,-59
4950,-5,-124,-226,-514,-6,-65
4955,0,-123,-224,-504,0,-70
4960,1,-121,-226,-496,8,-69
4965,10,-119,-230,-495,15,-69
4970,5,-117,-227,-500,27,-69
4975,2,-116,-232,-511,38,-70
4980,1,-117,-232,-528,48,-71
4985,3,-119,-230,-552,59,-71
4990,2,-119,-229,-572,69,-70
4995,3,-119,-230,-588,81,-68
5000,4,-119,-226,-597,96,-65
5005,2,-116,-226,-595,109,-60
5010,5,-115,-226,-585,122,-56
5015,3,-116,-229,-566,134,-51
5020,5,-113,-230,-549,143,-47
5025,2,-111,-236,-534,145,-48
5030,1,-112,-234,-524,143,-53
5035,0,-106,-231,-518,140,-57
5040,-3,-108,-237,-520,136,-60
5045,0,-111,-237,-522,128,-64
5050,-8,-110,-237,-516,124,-67
5055,-8,-107,-233,-499,115,-68
5060,-8,-107,-227,-471,107,-66
5065,-9,-105,-229,-439,98,-63
5070,-9,-103,-227,-410,91,-58
5075,-15,-108,-227,-385,84,-50
5080,-10,-100,-228,-364,74,-41
5085,-3,-100,-231,-342,62,-35
5090,-7,-98,-228,-328,43,-29
5095,-7,-98,-230,-316,22,-28
5100,-7,-93,-228,-311,-1,-29
5105,-6,-96,-230,-314,-16,-30
5110,-2,-91,-230,-326,-27,-32
5115,0,-86,-231,-342,-34,-37
5120,1,-90,-228,-358,-34,-45
5125,10,-91,-228,-366,-27,-49
5130,8,-91,-227,-364,-18,-50
5135,6,-87,-230,-355,-8,-49
5140,15,-92,-231,-344,5,-43
5145,14,-90,-230,-332,17,-37
5150,13,-92,-229,-320,29,-32
5155,14,-94,-233,-304,39,-25
5160,17,-93,-233,-280,47,-17
5165,13,-89,-231,-253,60,-9
5170,10,-91,-233,-228,75,-6
5175,5,-88,-236,-202,86,-9
5180,7,-90,-234,-175,96,-12
5185,7,-83,-234,-152,108,-10
5190,6,-79,-233,-133,118,-4
5195,4,-78,-227,-117,124,2
5200,2,-75,-228,-102,123,7
5205,3,-74,-232,-86,129,9
5210,3,-72,-232,-67,134,10
5215,-1,-68,-233,-46,131,6
5220,0,-69,-240,-24,128,-2
5225,-4,-65,-239,-1,127,-8
5230,-6,-67,-243,23,124,-12
5235,-6,-63,-241,41,120,-18
5240,-7,-64,-234,56,113,-21
5245,-11,-65,-230,69,103,-19
5250,-14,-65,-223,83,88,-17
5255,-17,-66,-220,98,72,-15
5260,-16,-67,-218,116,53,-14
5265,-14,-67,-212,138,34,-14
5270,-17,-72,-211,163,13,-12
5275,-14,-76,-211,189,-11,-13
5280,-9,-76,-207,225,-31,-14
5285,-8,-78,-204,257,-53,-22
5290,-2,-80,-209,296,-67,-24
5295,-4,-75,-205,339,-71,-20
5300,0,-76,-202,375,-66,-14
5305,0,-72,-202,405,-59,-16
5310,6,-73,-203,433,-43,-19
5315,7,-61,-202,454,-23,-21
5320,6,-57,-205,471,2,-22
5325,9,-50,-207,487,26,-27
5330,8,-49,-206,499,50,-28
5335,8,-53,-205,505,71,-24
5340,8,-46,-203,516,88,-16
5345,9,-44,-201,531,102,-7
5350,7,-47,-201,555,115,2
5355,7,-46,-198,573,129,18
5360,8,-50,-199,584,140,30
5365,6,-46,-197,597,152,37
5370,4,-50,-191,607,169,47
5375,7,-48,-195,613,185,57
5380,2,-51,-193,609,202,67
5385,7,-53,-191,611,215,83
5390,5,-49,-188,619,229,95
5395,5,-54,-189,629,238,110
5400,1,-52,-184,647,242,120
5405,1,-47,-184,664,243,132
5410,-2,-50,-178,682,240,141
5415,-2,-56,-174,698,234,150
5420,-6,-55,-175,711,226,154
5425,-2,-57,-172,734,216,151
5430,-2,-63,-171,767,206,149
5435,-3,-67,-168,808,193,149
5440,-4,-67,-168,848,178,149
5445,-8,-71,-167,890,163,146
5450,-7,-71,-165,930,152,144
5455,-8,-67,-165,971,143,131
5460,-2,-64,-165,1009,139,119
5465,-5,-59,-157,1049,135,105
5470,1,-59,-160,1088,128,99
5475,0,-61,-161,1126,118,96
5480,1,-63,-154,1186,100,89
5485,3,-66,-148,1260,78,82
5490,3,-75,-145,1343,49,79
5495,7,-85,-143,1433,16,69
5500,4,-90,-137,1528,-10,61
5505,13,-98,-125,1618,-23,50
5510,10,-100,-123,1716,-15,27
5515,10,-100,-115,1815,1,18
5520,14,-102,-116,1899,5,18
5525,20,-109,-110,1961,-5,26
5530,25,-117,-116,2030,-22,30
5535,18,-121,-115,2116,-45,36
5540,10,-128,-119,2225,-78,45
5545,8,-135,-121,2342,-119,57
5550,0,-137,-120,2463,-166,72
5555,-3,-143,-124,2592,-215,82
5560,-15,-143,-133,2725,-264,83
5565,-18,-151,-135,2855,-315,81
5570,-21,-159,-141,2998,-364,59
5575,-29,-160,-143,3150,-404,34
5580,-26,-161,-144,3306,-444,7
5585,-26,-152,-141,3459,-481,-23
5590,-26,-145,-138,3595,-512,-48
5595,-23,-143,-138,3710,-542,-58
5600,-22,-146,-123,3800,-567,-70
5605,-21,-145,-119,3895,-582,-82
5610,-11,-153,-114,4000,-589,-105
5615,1,-158,-107,4115,-589,-134
5620,4,-176,-104,4253,-574,-183
5625,0,-200,-96,4414,-547,-223
5630,-10,-233,-87,4551,-527,-265
5635,-33,-265,-88,4629,-537,-305
5640,-57,-298,-84,4640,-561,-334
5645,-48,-346,-71,4612,-572,-326
5650,-46,-387,-63,4599,-565,-354
5655,-56,-432,-62,4626,-544,-417
5660,-81,-474,-75,4707,-516,-465
5665,-110,-537,-110,4831,-462,-449
5670,-119,-608,-126,4905,-395,-403
5675,-121,-681,-106,4923,-377,-385
5680,-125,-764,-87,4957,-368,-385
5685,-114,-857,-67,5021,-324,-343
5690,-88,-949,-31,5112,-264,-287
5695,-53,-1035,-12,5281,-205,-234
5700,-28,-1089,-7,5545,-173,-183
5705,0,-1114,-2,5838,-180,-145
5710,3,-1108,-14,6059,-212,-130
5715,5,-1077,-14,6141,-231,-101
5720,6,-993,9,6060,-218,-45
5725,3,-859,52,5822,-167,25
5730,8,-707,95,5525,-96,99
5735,-1,-560,80,5334,-42,162
5740,-2,-427,91,5264,-21,224
5745,0,-373,114,5198,-30,322
5750,-5,-338,154,5057,-56,391
5755,3,-273,189,4774,-70,370
5760,9,-212,199,4199,-69,275
5765,22,-184,172,3462,-89,186
5770,45,-194,131,2809,-117,130
5775,41,-208,90,2448,-108,78
5780,45,-210,41,2408,-65,7
5785,46,-215,13,2542,29,-20
5790,43,-205,-17,2780,132,-57
5795,37,-199,-29,3030,227,-89
5800,18,-184,-36,3231,311,-105
5805,5,-169,-23,3364,401,-109
5810,-9,-147,-9,3396,498,-103
5815,-23,-141,7,3337,566,-82
5820,-33,-138,22,3200,585,-62
5825,-36,-134,29,2994,550,-46
5830,-30,-119,30,2722,461,-34
5835,-23,-104,34,2417,353,-5
5840,-15,-87,21,2147,258,37
5845,-8,-71,-1,1958,191,82
5850,-7,-51,-16,1854,158,121
5855,-11,-27,-29,1802,146,144
5860,-12,-9,-27,1755,139,151
5865,-7,3,-14,1691,134,139
5870,-5,8,9,1618,131,123
5875,-1,8,30,1553,127,116
5880,7,-3,49,1514,128,115
5885,15,-14,68,1495,132,117
5890,35,-29,81,1489,140,107
5895,46,-45,99,1493,149,93
5900,49,-56,98,1504,158,89
5905,37,-59,93,1512,161,89
5910,24,-67,88,1515,157,87
5915,5,-71,82,1513,147,81
5920,-11,-72,81,1497,136,75
5925,-22,-82,87,1472,130,74
5930,-34,-86,93,1451,127,83
5935,-43,-96,109,1444,121,98
5940,-47,-107,125,1458,112,117
5945,-48,-115,149,1495,99,140
5950,-48,-117,172,1549,71,167
5955,-41,-117,192,1618,30,204
5960,-34,-111,208,1691,-20,247
5965,-23,-103,227,1761,-78,301
5970,-14,-91,244,1823,-136,356
5975,-10,-85,256,1887,-197,405
5980,-4,-84,268,1956,-254,435
5985,-10,-83,272,2026,-297,451
5990,-8,-90,285,2104,-333,458
5995,6,-101,298,2196,-358,457
6000,19,-116,300,2307,-361,435
6005,42,-120,309,2443,-337,395
6010,65,-131,324,2600,-277,344
6015,92,-139,343,2773,-187,287
6020,77,-132,356,2959,-88,225
6025,64,-129,346,3117,-39,193
6030,67,-120,343,3205,-15,195
6035,41,-104,337,3238,9,174
6040,24,-90,332,3235,20,172
6045,0,-70,322,3198,15,182
6050,-9,-45,327,3146,1,200
6055,-27,-22,336,3114,4,189
6060,-51,-4,343,3104,-15,167
6065,-57,-2,340,3123,-64,142
6070,-68,2,324,3168,-140,95
6075,-64,-12,297,3222,-239,18
6080,-64,-18,252,3284,-332,-106
6085,-64,-28,221,3317,-381,-267
6090,-63,-36,198,3340,-402,-429
6095,-38,-31,173,3354,-414,-573
6100,-22,-25,176,3315,-388,-666
6105,-6,-14,182,3256,-347,-705
6110,1,-11,198,3193,-309,-686
6115,1,3,216,3133,-303,-643
6120,0,25,232,3060,-321,-594
6125,-15,50,248,2952,-324,-535
6130,-25,68,256,2817,-303,-478
6135,-38,82,267,2669,-248,-425
6140,-57,99,281,2536,-160,-374
6145,-57,113,287,2435,-78,-326
6150,-49,128,279,2372,8,-283
6155,-36,143,260,2320,102,-233
6160,-12,172,249,2253,188,-189
6165,-17,177,233,2118,263,-149
6170,-3,197,219,1925,319,-113
6175,-5,198,229,1682,384,-65
6180,0,208,233,1471,373,-75
6185,1,220,243,1319,338,-70
6190,-6,229,263,1183,302,-77
6195,-2,238,271,1057,267,-104
6200,-17,237,281,931,254,-109
6205,-36,223,286,798,269,-82
6210,-47,200,288,643,282,-54
6215,-53,187,297,387,258,-64
6220,-58,173,299,58,217,-106
6225,-62,147,302,-315,186,-164
6230,-58,121,303,-659,175,-201
6235,-43,90,293,-927,165,-223
6240,-28,58,274,-1068,148,-240
6245,-11,35,252,-1098,123,-280
6250,6,22,237,-1063,93,-318
6255,29,10,221,-974,63,-331
6260,46,6,214,-861,26,-335
6265,58,4,203,-748,-10,-332
6270,61,7,201,-636,-36,-318
6275,67,10,202,-525,-53,-280
6280,64,18,206,-418,-54,-232
6285,58,36,208,-327,-35,-167
6290,41,53,212,-281,-1,-103
6295,27,64,214,-309,36,-48
6300,3,69,222,-402,75,-11
6305,-14,69,231,-521,113,22
6310,-29,63,244,-626,158,57
6315,-42,57,257,-687,201,94
6320,-55,49,258,-685,242,125
6325,-52,37,252,-620,264,154
6330,-51,32,246,-501,271,167
6335,-43,25,235,-342,261,166
6340,-26,27,226,-185,238,149
6345,-5,25,222,-52,220,112
6350,9,35,211,33,205,63
6355,36,48,212,68,192,22
6360,44,56,221,70,186,-8
6365,49,67,221,71,178,-21
6370,55,72,233,69,159,-21
6375,52,77,245,61,132,-21
6380,54,81,249,42,105,-26
6385,55,73,260,14,88,-33
6390,50,68,263,-15,77,-44
6395,44,55,265,-42,76,-57
6400,39,40,265,-51,88,-75
6405,28,27,262,-42,110,-97
6410,22,17,269,-11,133,-116
6415,18,9,268,29,162,-137
6420,11,4,270,59,188,-160
6425,3,4,268,79,209,-183
6430,0,0,270,97,220,-198
6435,-2,-4,264,120,222,-215
6440,-11,1,263,147,218,-232
6445,-12,-2,264,170,210,-245
6450,-14,1,262,197,206,-253
6455,-18,5,260,218,203,-259
6460,-18,12,257,242,204,-256
6465,-19,17,247,261,209,-247
6470,-23,27,251,268,219,-230
6475,-22,29,245,264,231,-206
6480,-25,34,241,254,241,-181
6485,-28,32,242,233,251,-155
6490,-20,44,237,205,257,-131
6495,-30,37,234,173,262,-106
6500,-30,35,235,146,264,-77
6505,-33,31,231,129,264,-48
6510,-32,26,228,121,264,-23
6515,-32,14,230,120,261,-4
6520,-37,11,226,125,256,10
6525,-36,6,225,140,247,23
6530,-40,-6,229,160,237,34
6535,-41,-12,229,180,228,42
6540,-44,-12,232,197,223,48
6545,-44,-17,233,208,219,51
6550,-44,-23,235,210,215,48
6555,-48,-23,238,211,208,43
6560,-48,-22,241,211,195,33
6565,-48,-19,238,211,174,25
6570,-44,-20,238,215,145,18
6575,-46,-15,238,223,111,13
6580,-43,-12,237,237,73,11
6585,-39,-8,235,255,30,14
6590,-41,3,234,274,-13,22
6595,-34,5,237,281,-52,28
6600,-33,10,229,275,-87,33
6605,-35,18,236,255,-114,46
6610,-31,16,237,222,-136,57
6615,-30,16,239,180,-147,66
6620,-30,16,242,136,-148,78
6625,-23,15,243,90,-137,93
6630,-23,11,244,43,-117,105
6635,-24,10,245,-1,-93,111
6640,-26,7,249,-46,-71,111
6645,-25,3,253,-87,-52,114
6650,-29,-2,251,-117,-35,111
6655,-29,-6,253,-134,-23,109
6660,-28,-11,254,-141,-11,102
6665,-28,-14,257,-139,8,93
6670,-28,-14,253,-126,28,84
6675,-33,-15,254,-103,50,77
6680,-29,-12,256,-75,70,71
6685,-32,-7,255,-47,83,65
6690,-29,-4,255,-27,88,60
6695,-34,3,260,-13,86,56
6700,-29,2,252,-8,77,50
6705,-32,9,251,-8,67,46
6710,-29,10,250,-14,56,39
6715,-24,12,247,-21,44,34
6720,-23,15,243,-28,32,30
6725,-23,14,242,-29,22,28
6730,-20,19,239,-25,11,27
6735,-21,20,240,-16,2,25
6740,-21,24,239,-5,-7,26
6745,-17,22,238,5,-16,24
6750,-20,21,235,15,-23,23
6755,-18,23,238,22,-29,22
6760,-17,24,238,27,-34,23
6765,-15,31,236,29,-39,24
6770,-14,29,241,28,-43,25
6775,-17,31,241,24,-45,26
6780,-14,34,242,17,-49,26
6785,-10,36,243,3,-48,26
6790,-8,36,243,-13,-51,26
6795,-3,37,247,-30,-54,26
6800,-8,42,243,-48,-55,25
6805,-3,35,243,-58,-54,27
6810,-1,41,247,-64,-53,28
6815,0,45,247,-69,-53,26
6820,0,37,248,-76,-51,23
6825,1,38,246,-81,-52,21
6830,0,37,242,-84,-51,17
6835,2,34,247,-88,-48,12
6840,1,35,249,-88,-46,11
6845,1,33,246,-85,-43,7
6850,6,30,241,-77,-37,5
6855,5,30,243,-68,-29,2
6860,9,30,245,-61,-21,0
6865,7,34,244,-56,-13,-4
6870,8,32,244,-48,-3,-6
6875,8,34,245,-42,6,-9
6880,9,33,247,-36,15,-10
6885,11,30,247,-29,23,-9
6890,10,35,246,-24,32,-10
6895,11,32,247,-19,42,-9
6900,9,31,247,-14,51,-9
6905,8,30,246,-10,56,-9
6910,9,27,244,-5,62,-11
6915,8,27,247,5,68,-11
6920,3,28,248,14,74,-11
6925,5,23,249,26,80,-10
6930,2,27,246,34,87,-8
6935,0,27,248,40,94,-10
6940,1,26,247,42,102,-10
6945,0,29,244,42,107,-10
6950,-2,26,243,41,113,-7
6955,0,26,248,39,114,-7
6960,0,24,246,36,116,-7
6965,-4,25,245,28,118,-8
6970,0,24,246,24,116,-10
6975,-3,22,244,20,111,-9
6980,-7,24,243,20,110,-8
6985,-7,20,242,22,111,-10
6990,-8,23,246,24,113,-10
6995,-9,20,244,26,112,-10
7000,-11,21,247,29,111,-10
7005,-12,19,246,31,112,-8
7010,-11,15,246,32,113,-7
7015,-12,19,245,34,114,-6
7020,-11,20,244,36,114,-4
7025,-13,17,246,37,113,-3
7030,-16,18,245,41,110,-1
7035,-16,18,245,42,107,-2
7040,-12,20,243,43,101,-2
7045,-15,19,245,43,95,-3
7050,-14,21,246,43,88,-5
7055,-17,18,242,45,82,-8
7060,-17,17,247,41,72,-11
7065,-16,21,242,37,64,-13
7070,-17,21,245,35,61,-16
7075,-16,22,247,35,65,-19
7080,-16,19,243,33,64,-21
7085,-18,20,246,26,56,-20
7090,-15,20,245,21,55,-25
7095,-16,20,244,18,58,-29
7100,-16,21,247,9,61,-28
7105,-16,21,247,-3,66,-29
7110,-15,22,247,-19,70,-29
7115,-17,22,246,-35,72,-31
7120,-14,21,248,-53,73,-30
7125,-15,20,251,-71,74,-27
7130,-18,18,248,-84,76,-29
7135,-16,19,247,-89,80,-30
7140,-16,15,249,-85,84,-28
7145,-13,22,249,-80,85,-25
7150,-20,19,247,-70,84,-22
7155,-16,18,247,-55,80,-20
7160,-20,19,242,-39,79,-19
7165,-19,21,245,-28,76,-17
7170,-17,22,244,-22,72,-15
7175,-17,22,248,-18,71,-14
7180,-19,22,245,-18,70,-13
7185,-16,22,244,-18,69,-11
7190,-17,27,240,-18,68,-7
7195,-17,26,243,-21,66,-7
7200,-17,26,245,-23,66,-3
7205,-15,28,241,-24,64,0
7210,-16,29,240,-24,61,5
7215,-16,28,244,-27,59,7
7220,-15,29,244,-31,57,10
7225,-18,29,244,-35,54,11
7230,-17,29,241,-39,52,10
7235,-16,26,244,-41,50,11
7240,-18,26,243,-43,47,12
7245,-15,26,246,-44,45,14
7250,-16,28,244,-46,44,15
7255,-16,26,240,-44,41,14
7260,-17,24,243,-43,41,13
7265,-13,23,245,-41,41,13
7270,-11,23,247,-39,42,14
7275,-10,22,245,-36,44,14
7280,-11,25,246,-34,43,15
7285,-10,23,244,-32,44,15
7290,-12,22,246,-31,44,13
7295,-9,23,246,-29,45,14
7300,-8,21,243,-28,47,15
7305,-9,25,248,-28,47,14
7310,-8,22,247,-29,48,12
7315,-8,24,247,-29,47,11
7320,-6,20,244,-30,46,11
7325,-7,23,249,-32,44,11
7330,-1,23,250,-34,43,11
7335,-3,21,242,-34,42,10
7340,-3,21,245,-34,41,10
7345,-1,23,248,-33,42,8
7350,-2,23,245,-31,43,8
7355,0,22,247,-29,44,7
7360,-3,24,245,-28,44,7
7365,-2,23,244,-25,47,5
7370,1,22,248,-23,47,5
7375,-1,20,246,-22,49,4
7380,-1,23,246,-22,50,3
7385,0,23,244,-20,53,3
7390,0,21,246,-20,54,3
7395,-1,19,248,-22,56,3
7400,0,18,248,-25,61,2
7405,0,21,245,-25,63,1
7410,0,20,246,-25,65,0
7415,-3,20,245,-24,66,0
7420,-2,18,247,-20,69,-1
7425,-2,18,244,-16,70,-1
7430,-4,21,242,-12,71,0
7435,-6,20,242,-10,70,-2
7440,-7,22,240,-8,72,-3
7445,-4,16,245,-3,75,-3
7450,-9,22,245,1,77,-4
7455,-8,21,246,2,77,-4
7460,-7,21,247,2,75,-3
7465,-6,22,246,1,75,-3
7470,-9,22,248,-2,74,-1
7475,-8,24,245,-6,72,-1
7480,-11,21,244,-10,71,-2
7485,-8,22,244,-11,70,0
7490,-9,21,242,-12,72,-2
7495,-11,21,244,-15,72,-2
7500,-9,23,246,-19,70,-4
7505,-10,22,246,-19,74,-5
7510,-10,21,242,-18,76,-5
7515,-13,22,245,-21,78,-2
7520,-9,24,245,-27,74,-3
7525,-11,24,245,-29,74,-4
7530,-12,23,246,-32,75,-3
7535,-12,23,247,-37,77,-4
7540,-10,19,242,-37,80,-3
7545,-13,18,243,-36,84,-3
7550,-12,19,250,-34,86,-1
7555,-14,21,246,-32,89,0
7560,-15,22,243,-30,88,0
7565,-11,20,245,-28,86,0
7570,-11,21,245,-26,82,0
7575,-12,25,244,-26,79,0
7580,-18,23,244,-25,76,0
7585,-13,23,247,-22,75,0
7590,-12,22,246,-22,74,0
7595,-11,20,246,-21,72,1
7600,-9,21,244,-21,69,-1
7605,-12,21,246,-23,67,-2
7610,-9,22,244,-23,67,-2
7615,-11,22,247,-23,62,-3
7620,-11,25,247,-24,58,-3
7625,-11,23,243,-24,56,-4
7630,-9,20,240,-25,55,-2
7635,-8,21,246,-25,53,-3
7640,-8,19,240,-25,54,-2
7645,-9,23,246,-27,49,-1
7650,-8,21,250,-28,46,-4
7655,-9,22,247,-29,45,-3
7660,-10,22,243,-28,44,-1
7665,-9,18,248,-24,45,0
7670,-8,22,246,-21,48,1
7675,-8,21,244,-19,51,1
7680,-10,22,245,-16,53,0
7685,-7,22,248,-16,56,0
7690,-8,21,246,-17,57,2
7695,-9,21,245,-19,59,2
7700,-8,23,245,-21,59,2
7705,-8,23,244,-22,59,2
7710,-12,20,248,-21,58,2
7715,-9,21,248,-18,53,1
7720,-12,23,247,-13,53,-1
7725,-11,20,242,-10,53,-2
7730,-9,22,243,-6,53,-2
7735,-12,20,239,-2,56,-1
7740,-8,19,247,0,59,-2
7745,-9,18,242,3,60,-3
7750,-11,18,243,6,61,-2
7755,-12,20,245,7,60,-2
7760,-7,18,246,11,64,-4
7765,-11,21,244,12,65,-4
7770,-12,22,244,11,68,-6
7775,-12,22,247,8,72,-5
7780,-10,20,246,5,72,-6
7785,-11,21,244,1,74,-6
7790,-14,22,250,-5,78,-7
7795,-8,21,247,-6,79,-7
7800,-7,19,245,-6,80,-7
7805,-9,22,242,-3,81,-6
7810,-9,20,243,1,81,-5
7815,-8,23,240,5,79,-6
7820,-8,22,244,10,78,-3
7825,-10,22,245,12,76,-2
7830,-8,21,243,11,73,-4
7835,-9,21,247,7,67,-3
7840,-7,25,248,3,60,-1
7845,-7,23,246,-2,56,-1
7850,-10,24,246,-4,57,2
7855,-8,26,251,-3,60,2
7860,-6,21,246,-3,63,5
7865,-8,24,247,-1,64,5
7870,-7,25,247,-4,63,5
7875,-3,23,245,-5,61,5
7880,-8,22,246,-5,59,6
7885,-7,25,244,-3,56,3
7890,-5,21,243,-1,55,4
7895,-8,23,240,1,54,3
7900,-6,23,241,3,50,3
7905,-5,24,239,5,49,1
7910,-5,22,246,8,52,0
7915,-8,22,246,9,55,-1
7920,-6,22,244,9,58,-3
7925,-7,24,244,6,61,-2
7930,-4,21,248,7,64,-1
7935,-7,24,246,4,68,-2
7940,-7,23,246,0,69,-3
7945,-10,23,249,-4,70,-2
7950,-11,27,247,-10,68,-2
7955,-14,23,248,-17,65,-2
7960,-8,21,243,-22,63,0
7965,-8,21,246,-28,63,0
7970,-11,22,244,-32,60,-1
7975,-11,23,246,-34,60,0
7980,-10,23,249,-34,62,3
7985,-6,23,244,-35,65,3
7990,-9,22,245,-37,67,4
7995,-7,22,249,-40,67,3
8000,-10,25,247,-43,67,4
8005,-11,20,249,-47,65,4
8010,-11,23,245,-50,65,3
8015,-12,23,249,-52,66,4
8020,-8,21,250,-53,67,3
8025,-12,23,245,-53,67,4
8030,-7,23,243,-56,68,5
8035,-9,22,244,-58,69,5
8040,-3,20,247,-61,68,4
8045,-10,23,246,-65,67,5
8050,-7,22,250,-69,64,5
8055,-9,21,242,-73,63,6
8060,-10,20,246,-75,63,4
8065,-7,17,248,-75,62,4
8070,-10,21,242,-73,63,3
8075,-11,18,246,-69,64,2
8080,-12,16,244,-63,64,1
8085,-10,18,243,-56,65,0
8090,-9,18,243,-48,65,-1
8095,-12,23,240,-42,65,0
8100,-11,19,242,-40,65,-4
8105,-11,21,245,-38,64,-3
8110,-11,21,241,-41,65,-4
8115,-7,22,244,-46,65,-2
8120,-7,19,247,-52,65,-3
8125,-8,21,248,-58,65,-3
8130,-9,22,246,-64,65,-5
8135,-10,22,243,-69,66,-4
8140,-8,21,247,-75,66,-3
8145,-9,20,245,-79,65,-2
8150,-7,20,244,-82,65,-2
8155,-6,22,247,-85,65,-1
8160,-12,21,248,-86,65,1
8165,-8,18,250,-89,63,2
8170,-7,21,246,-89,62,2
8175,-8,19,247,-90,61,3
8180,-7,18,245,-90,60,5
8185,-7,19,244,-90,59,4
8190,-11,19,246,-90,58,5
8195,-7,20,247,-94,57,6
8200,-9,22,246,-97,57,8
8205,-8,20,246,-102,54,8
8210,-6,15,245,-106,50,10
8215,-6,19,243,-110,47,10
8220,-4,15,244,-112,44,10
8225,-4,18,243,-110,41,10
8230,-10,14,240,-109,37,11
8235,-7,18,247,-107,35,10
8240,-7,16,245,-105,33,12
8245,-7,17,247,-101,30,14
8250,-10,16,246,-100,27,14
8255,-9,20,248,-100,26,16
8260,-6,15,245,-101,27,17
8265,-6,15,242,-101,26,18
8270,-7,20,244,-102,26,19
8275,-6,17,246,-105,26,20
8280,-4,19,244,-109,26,20
8285,-6,15,244,-113,27,19
8290,-5,16,247,-116,28,20
8295,-3,14,247,-117,31,19
8300,-6,14,245,-117,35,17
8305,-6,14,244,-117,36,16
8310,-2,14,247,-117,38,14
8315,-6,15,245,-119,40,16
8320,-5,13,247,-119,41,14
8325,-7,15,248,-119,41,13
8330,-2,15,246,-121,39,12
8335,-3,13,246,-121,39,12
8340,-6,16,245,-120,35,10
8345,-8,12,249,-121,35,10
8350,-7,14,244,-119,35,10
8355,-6,13,243,-116,34,8
8360,-4,12,243,-111,33,9
8365,-8,13,247,-109,35,7
8370,-6,12,241,-105,37,6
8375,-7,13,246,-101,37,4
8380,-9,10,250,-101,40,3
8385,-8,13,249,-99,43,3
8390,-10,13,250,-98,45,5
8395,-8,12,246,-93,49,5
8400,-6,12,246,-87,50,6
8405,-2,11,245,-80,54,6
8410,-7,11,246,-72,57,7
8415,-10,14,240,-64,58,8
8420,-8,13,243,-57,59,11
8425,-5,11,246,-52,60,11
8430,-7,12,246,-49,62,9
8435,-8,15,243,-45,62,8
8440,-7,14,245,-40,62,6
8445,-12,11,237,-35,60,5
8450,-9,14,244,-31,58,3
8455,-7,12,247,-29,60,4
8460,-3,10,243,-30,63,2
8465,-6,10,246,-30,64,1
8470,-4,12,246,-29,66,0
8475,-9,10,246,-29,69,1
8480,-8,12,242,-31,71,0
8485,-4,10,244,-33,72,0
8490,-7,11,250,-38,73,-4
8495,-7,9,246,-43,75,-4
8500,-9,14,247,-51,76,-4
8505,-8,10,246,-58,78,-3
8510,-7,9,245,-63,77,-3
8515,-7,9,244,-65,76,-5
8520,-2,8,242,-60,76,-2
8525,-6,9,247,-53,74,-3
8530,-7,9,244,-42,72,-3
8535,-2,8,245,-32,72,-2
8540,-6,10,245,-24,69,-2
8545,-4,11,247,-22,68,-2
8550,-8,11,246,-23,66,-2
8555,-7,11,244,-27,65,-1
8560,0,10,251,-33,65,-2
8565,-9,10,246,-38,66,0
8570,-4,12,248,-41,65,0
8575,-2,8,246,-42,66,2
8580,-6,9,249,-41,65,1
8585,-6,11,249,-39,66,1
8590,-3,9,251,-36,65,0
8595,-8,11,247,-34,63,0
8600,-8,10,245,-34,63,-1
8605,-7,13,244,-32,60,-1
8610,-10,11,252,-34,59,-2
8615,-8,13,244,-37,58,-2
8620,-6,14,246,-40,58,-4
8625,-9,11,245,-38,60,-4
8630,-9,10,243,-38,60,-4
8635,-5,10,245,-39,61,-3
8640,-4,11,243,-39,62,-3
8645,-6,11,247,-39,63,-1
8650,-5,10,247,-41,65,0
8655,-1,12,244,-42,65,1
8660,-4,11,246,-44,65,1
8665,-5,10,246,-46,65,1
8670,-9,12,242,-46,66,0
8675,-5,10,245,-45,65,2
8680,-4,9,244,-45,65,1
8685,-3,8,247,-44,65,1
8690,-8,9,243,-42,65,2
8695,-8,9,247,-41,64,1
8700,-4,9,247,-40,64,2
8705,-5,10,243,-39,63,2
8710,-2,9,244,-40,64,1
8715,-5,9,243,-42,62,1
8720,-5,10,246,-42,65,1
8725,-7,8,244,-43,65,0
8730,-7,8,243,-44,67,1
8735,-7,8,246,-45,66,1
8740,-5,8,244,-42,67,0
8745,-6,9,246,-39,67,1
8750,-3,8,246,-36,67,0
8755,-1,9,242,-33,68,-1
8760,-1,8,245,-32,69,0
8765,-4,9,244,-34,69,-1
8770,-4,8,245,-36,70,0
8775,1,9,248,-39,68,-1
8780,-2,8,247,-43,68,0
8785,-4,9,245,-47,69,1
8790,-6,10,244,-47,70,2
8795,-2,8,244,-46,73,2
8800,-4,8,244,-41,74,0
8805,-7,6,243,-35,75,-1
8810,-10,9,245,-27,76,-3
8815,-7,9,244,-21,75,-5
8820,-8,11,244,-17,75,-5
8825,-8,13,243,-14,75,-8
8830,-5,9,244,-16,75,-10
8835,-9,9,250,-20,73,-11
8840,-6,8,246,-26,74,-14
8845,-9,8,244,-32,73,-12
8850,-4,10,244,-37,73,-12
8855,-9,10,245,-41,74,-11
8860,-2,9,242,-43,74,-10
8865,-5,9,247,-44,76,-9
8870,-4,11,245,-43,76,-8
8875,-8,9,244,-43,74,-6
8880,-4,9,245,-42,75,-6
8885,-5,15,245,-41,74,-4
8890,-5,8,244,-38,73,-5
8895,-6,11,245,-32,73,-5
8900,-10,11,249,-27,71,-4
8905,-7,8,244,-23,72,-4
8910,-7,9,246,-17,72,-3
8915,-6,7,242,-14,74,-3
8920,-6,10,243,-12,74,-2
8925,-8,9,248,-11,77,0
8930,-7,10,243,-12,80,0
8935,-10,5,247,-14,78,1
8940,-7,11,245,-15,79,1
8945,-7,8,243,-14,78,3
8950,-9,9,244,-12,79,4
8955,-6,8,245,-7,78,2
8960,-5,9,245,-3,78,2
8965,-2,8,243,2,76,2
8970,-10,8,247,7,73,1
8975,-5,11,245,10,72,1
8980,-7,9,246,11,71,1
8985,-6,12,246,12,70,0
8990,-6,9,241,13,68,1
8995,-11,9,241,11,69,1
9000,-8,10,242,11,67,0
9005,-6,10,245,10,65,0
9010,-5,8,242,7,67,1
9015,-5,9,244,6,67,0
9020,-9,11,242,5,65,0
9025,-3,9,242,3,66,0
9030,-4,10,246,1,66,-1
9035,-7,9,245,-2,65,-2
9040,-8,9,246,-5,65,-1
9045,-7,8,245,-5,66,-1
9050,-5,9,246,-5,66,1
9055,-3,8,246,-7,66,1
9060,-7,8,245,-7,67,0
9065,-6,8,247,-7,69,-1
9070,-6,8,249,-8,69,-1
9075,-7,8,249,-7,70,0
9080,-7,9,243,-8,71,1
9085,-4,9,245,-8,70,-1
9090,-4,9,247,-9,71,-2
9095,-2,8,247,-11,72,-1
9100,-8,13,239,-13,72,-2
9105,-2,8,248,-14,71,-1
9110,-5,12,246,-14,71,-1
9115,-5,8,245,-12,68,-1
9120,-5,8,246,-9,68,-1
9125,-6,8,245,-5,67,0
9130,-4,8,245,-2,67,0
9135,-5,10,245,4,67,1
9140,-5,8,244,6,66,-2
9145,-5,9,245,6,64,-1
9150,-7,10,249,6,64,0
9155,-8,9,246,5,64,-3
9160,-5,9,243,5,62,-1
9165,-6,11,242,6,62,-1
9170,-6,14,245,8,62,-3
9175,-8,9,246,13,64,-3
9180,-8,9,245,18,64,-3
9185,-5,11,244,24,66,-5
9190,-8,9,247,29,68,-4
9195,-8,11,242,36,69,-3
9200,-5,8,245,42,70,-4
9205,-8,8,242,44,71,-2
9210,-11,8,245,46,72,-4
9215,-8,12,244,43,75,-5
9220,-7,10,245,38,75,-7
9225,-8,11,250,28,76,-9
9230,-8,10,249,16,77,-9
9235,-8,13,251,5,79,-8
9240,-7,9,247,-5,79,-8
9245,-5,9,243,-9,78,-7
9250,-7,10,247,-6,76,-5
9255,-6,9,245,-1,74,-4
9260,-7,9,241,12,76,-5
9265,-7,8,240,25,74,-5
9270,-3,9,241,36,73,-4
9275,-8,9,245,43,71,-4
9280,-8,11,244,43,68,-3
9285,-6,11,243,41,68,-4
9290,-8,9,243,36,68,-3
9295,-3,13,242,31,69,-3
9300,-5,13,246,26,69,-2
9305,-6,9,243,24,70,-1
9310,-8,13,249,26,70,1
9315,-4,12,246,29,69,1
9320,-3,13,244,32,69,2
9325,-6,10,246,35,68,1
9330,-6,12,243,34,66,1
9335,-6,11,251,31,64,1
9340,-6,11,244,27,64,-2
9345,-6,11,248,20,64,-2
9350,-2,10,246,16,64,-2
9355,-1,13,248,12,65,-5
9360,-4,10,249,10,66,-6
9365,-7,11,249,8,66,-7
9370,-6,11,244,9,70,-7
9375,-7,12,249,8,69,-7
9380,-4,12,245,7,72,-5
9385,-2,11,243,7,71,-5
9390,-7,12,243,7,74,-5
9395,-5,10,247,5,74,-5
9400,-5,14,242,5,74,-3
9405,-7,11,249,3,73,-3
9410,-4,11,243,2,73,-2
9415,-4,10,243,1,73,-3
9420,-5,9,245,1,73,-2
9425,-3,8,245,1,71,-2
9430,-4,11,243,2,72,-1
9435,-8,13,249,2,71,-1
9440,-6,10,244,2,68,-2
9445,-3,10,246,3,66,-4
9450,-7,10,245,3,66,-3
9455,-7,11,246,3,65,-3
9460,-7,11,246,2,64,-3
9465,-7,10,249,1,63,-3
9470,-7,12,243,-1,62,-4
9475,-5,12,248,0,62,-4
9480,-5,11,246,2,63,-3
9485,-4,12,246,3,64,-3
9490,-3,13,246,1,63,-1
9495,-4,12,244,1,65,-2
9500,-5,14,249,-2,67,-2
9505,-3,11,247,-7,66,-1
9510,-3,13,245,-11,66,-1
9515,-3,9,245,-14,65,-2
9520,-5,9,244,-16,66,-1
9525,-8,10,246,-15,65,0
9530,-7,8,247,-8,65,0
9535,-8,12,246,1,67,0
9540,-14,10,246,11,67,0
9545,-8,10,248,19,67,-1
9550,-7,9,250,25,66,-3
9555,-4,11,244,28,68,-5
9560,-5,13,242,28,67,-6
9565,-10,15,248,24,70,-7
9570,-6,14,243,17,67,-8
9575,-4,12,246,9,67,-8
9580,-6,9,248,1,67,-9
9585,-8,13,245,-3,66,-8
9590,-8,15,246,-5,68,-9
9595,-8,11,247,-6,69,-8
9600,-6,11,244,-6,68,-8
9605,-5,14,245,-6,68,-7
9610,-4,13,247,-3,68,-8
9615,-3,13,246,-1,66,-8
9620,-3,11,247,2,66,-6
9625,-9,14,247,3,67,-6
9630,-7,15,245,6,68,-6
9635,-6,14,242,8,68,-6
9640,-7,12,247,9,67,-7
9645,-7,12,244,9,68,-6
9650,-3,19,246,8,69,-6
9655,-10,13,253,8,71,-6
9660,-5,15,244,8,72,-5
9665,-4,14,246,8,73,-4
9670,-6,13,245,7,72,-5
9675,-6,15,243,6,72,-4
9680,-7,14,250,6,73,-3
9685,-7,14,247,6,73,-4
9690,-6,13,245,6,73,-4
9695,-5,14,243,6,75,-3
9700,-5,13,244,5,76,-3
9705,-5,13,244,5,73,-1
9710,-3,13,244,5,73,-3
9715,-3,14,244,4,72,-1
9720,-3,12,243,5,71,-1
9725,-7,16,246,2,71,-1
9730,0,10,245,1,70,0
9735,-6,11,243,2,70,-1
9740,-4,12,245,3,69,1
9745,-8,17,242,5,70,0
9750,-4,13,243,8,70,3
9755,-6,10,246,8,68,1
9760,-7,13,246,8,69,0
9765,-5,15,245,9,67,-1
9770,-5,12,246,8,66,-2
9775,-6,13,243,8,64,-2
9780,-5,11,246,9,63,-2
9785,-7,15,244,7,64,-1
9790,-5,16,245,5,64,-2
9795,-5,11,242,4,66,-2
9800,-4,15,247,4,65,-3
9805,-6,11,249,3,65,-1
9810,-7,15,242,2,66,-2
9815,-8,15,244,3,64,-2
9820,-8,15,244,2,64,-2
9825,-5,12,247,3,64,-2
9830,-8,13,246,3,65,-2
9835,-8,14,249,3,63,-2
9840,-8,15,245,4,64,-2
9845,-10,15,246,4,65,-2
9850,-9,15,250,3,66,-3
9855,-8,14,247,4,66,-3
9860,-7,14,245,4,66,-3
9865,-4,18,249,4,68,-3
9870,-5,14,244,5,70,-1
9875,-6,15,240,7,71,-2
9880,-3,12,247,10,71,-1
9885,-6,14,242,11,72,-2
9890,-8,13,243,12,70,-1
9895,-6,12,244,13,72,-3
9900,-6,16,243,15,69,-2
9905,-6,14,240,18,68,-1
9910,-5,13,243,19,69,-2
9915,-8,12,244,18,68,-1
9920,-4,15,244,17,66,-3
9925,-7,15,245,18,65,-2
9930,-6,18,245,17,66,-3
9935,-8,15,245,15,66,-2
9940,-6,16,245,15,65,-1
9945,-6,16,241,16,66,-2
9950,-2,17,245,15,64,-2
9955,-6,18,246,14,63,-2
9960,-6,14,246,10,61,-2
9965,-4,15,249,7,62,-2
9970,-6,16,244,7,63,-1
9975,-7,14,243,8,65,-1
9980,-5,15,246,7,64,-2
9985,-7,16,247,6,65,-1
9990,-8,14,244,5,64,-2
9995,-6,13,245,4,65,-3
10000,-3,16,246,3,63,-4
10005,-8,19,241,3,61,-4
10010,-4,13,247,5,61,-7
10015,-6,13,244,6,62,-6
10020,-10,15,244,5,64,-7
10025,-7,15,247,4,65,-6
10030,-5,16,242,4,66,-6
10035,-7,15,243,3,68,-6
10040,-7,16,245,2,70,-5
10045,-6,13,248,2,72,-5
10050,-8,16,243,1,73,-3
10055,-6,12,244,1,72,-3
10060,-4,14,243,1,73,-3
10065,-8,18,244,3,71,-3
10070,-7,16,245,4,71,-4
10075,-2,13,245,7,72,-4
10080,-6,13,245,7,70,-2
10085,-4,17,242,7,69,-3
10090,-6,17,243,4,69,-4
10095,-4,16,248,2,70,-4
10100,-6,13,242,-1,68,-5
10105,-6,19,248,-2,67,-4
10110,-6,17,242,0,66,-7
10115,-5,19,244,-1,70,-6
10120,-7,18,240,-7,78,-4
10125,-6,18,245,-14,79,-3
10130,-5,16,246,-16,78,-3
10135,-4,15,245,-13,79,-5
10140,-8,14,243,-7,79,-3
10145,-8,14,245,0,79,-4
10150,-6,13,248,2,74,-7
10155,-6,15,248,2,71,-9
10160,-11,16,246,0,72,-11
10165,-4,13,244,-3,74,-11
10170,-4,9,245,-8,77,-9
10175,-7,14,245,-8,83,-9
10180,-8,18,244,-5,86,-8
10185,-7,13,243,1,87,-5
10190,-2,13,242,10,90,-4
10195,-4,15,235,21,88,-5
10200,-6,14,244,30,87,-6
10205,-6,17,244,37,88,-4
10210,-4,20,240,38,84,-7
10215,-7,18,243,34,81,-4
10220,-8,17,243,31,79,-5
10225,-6,18,246,24,74,-7
10230,-7,18,246,17,72,-5
10235,-7,16,247,8,73,-8
10240,-7,15,249,4,75,-4
10245,-2,16,247,5,72,-1
10250,-7,17,247,6,72,-2
10255,-6,20,249,6,73,-2
10260,-4,18,248,0,73,-3
10265,-5,16,250,-8,72,-3
10270,-7,20,247,-14,69,-2
10275,-7,18,246,-19,67,-1
10280,-9,20,244,-24,65,-2
10285,-7,15,247,-27,64,-4
10290,-6,15,246,-28,65,-4
10295,-9,20,246,-28,66,-4
10300,-7,17,244,-26,68,-7
10305,-7,17,246,-24,67,-5
10310,-6,16,243,-22,68,-5
10315,-8,17,244,-24,72,-8
10320,-5,17,248,-30,75,-7
10325,-5,17,248,-32,78,-7
10330,-7,16,246,-29,79,-5
10335,-7,12,247,-28,78,-5
10340,-7,17,249,-29,77,-6
10345,-8,16,247,-28,77,-5
10350,-6,13,248,-26,78,-5
10355,-3,16,246,-27,80,-3
10360,-6,14,244,-29,82,-4
10365,-6,16,245,-27,81,-3
10370,-7,18,245,-21,79,-2
10375,-7,15,244,-16,75,-2
10380,-5,14,246,-12,74,-2
10385,-3,14,245,-11,72,-1
10390,-4,16,245,-11,71,-2
10395,-8,14,245,-13,70,-3
10400,-8,15,243,-17,69,-5
10405,-5,15,244,-22,74,-7
10410,-7,14,244,-29,76,-7
10415,-7,17,247,-31,74,-7
10420,-5,13,246,-31,70,-5
10425,-8,15,247,-30,68,-6
10430,-7,16,247,-25,64,-4
10435,-9,18,247,-21,63,-3
10440,-5,16,241,-19,62,-2
10445,-8,15,245,-19,61,-2
10450,-7,15,247,-20,62,-1
10455,-6,16,246,-27,63,-3
10460,-6,16,249,-29,62,-3
10465,-9,17,244,-30,61,-3
10470,-6,15,244,-27,61,-4
10475,-5,14,244,-18,62,-4
10480,-8,14,243,-9,64,-6
10485,-8,16,246,0,65,-5
10490,-9,17,243,6,66,-4
10495,-5,15,240,10,65,-4
10500,-8,15,242,10,66,-5
10505,-4,17,244,7,67,-7
10510,-8,18,244,3,66,-6
10515,-8,20,245,-3,67,-6
10520,-5,13,242,-8,68,-8
10525,-8,16,249,-14,71,-9
10530,-6,14,250,-17,70,-9
10535,-7,14,247,-20,70,-11
10540,-7,15,248,-23,69,-9
10545,-6,17,243,-26,71,-9
10550,-9,18,245,-30,75,-10
10555,-7,18,250,-33,75,-7
10560,-4,19,247,-31,75,-6
10565,-8,18,244,-26,75,-6
10570,-4,17,244,-23,76,-5
10575,-3,12,247,-21,77,-5
10580,-3,13,240,-16,76,-4
10585,-6,17,244,-17,80,-5
10590,-9,15,243,-18,81,-5
10595,-10,16,248,-16,80,-4
10600,-6,15,246,-15,79,-4
10605,-8,17,246,-17,77,-4
10610,-7,17,249,-20,77,-4
10615,-4,17,249,-20,74,-2
10620,-10,16,244,-18,71,-2
10625,-7,16,248,-15,68,-1
10630,-6,15,243,-14,67,-2
10635,-9,17,243,-14,67,-2
10640,-8,13,245,-17,69,-3
10645,-6,14,244,-17,73,-2
10650,-9,15,244,-17,70,-1
10655,-6,16,249,-19,66,-2
10660,-4,16,248,-20,64,-3
10665,-8,17,246,-22,64,-2
10670,-8,13,248,-23,63,-3
10675,-4,15,246,-20,62,-2
10680,-7,15,248,-21,57,-3
10685,-8,15,245,-23,57,-4
10690,-3,15,244,-26,54,-4
10695,-6,13,244,-29,51,-3
10700,-5,14,244,-28,52,-3
10705,-4,15,245,-27,57,-2
10710,-6,14,245,-25,60,-3
10715,-2,14,243,-25,62,-1
10720,-3,15,247,-25,63,-2
10725,-6,14,245,-26,62,-3
10730,-7,14,247,-27,59,-3
10735,-6,15,243,-28,59,-2
10740,-7,14,246,-26,60,-2
10745,-7,16,246,-29,60,-1
10750,-5,14,245,-33,60,-3
10755,-7,16,242,-34,60,-3
10760,-4,15,244,-32,58,-4
10765,-7,14,245,-31,56,-3
10770,-8,11,248,-30,55,-3
10775,-3,15,243,-27,57,-3
10780,-4,14,245,-23,61,-1
10785,-6,14,248,-19,62,-2
10790,-7,16,246,-20,62,-3
10795,-7,16,243,-22,58,-5
10800,-7,17,244,-23,58,-5
10805,-5,15,243,-24,56,-5
10810,-5,16,244,-23,59,-3
10815,-9,16,244,-21,61,-3
10820,-7,17,248,-19,65,-3
10825,-6,17,249,-20,64,-4
10830,-7,12,244,-20,62,-3
10835,-3,12,244,-18,60,-4
10840,-4,17,245,-17,58,-4
10845,-8,25,248,-14,63,-4
10850,-5,17,246,-13,66,-7
10855,-4,15,243,-13,66,-5
10860,-6,13,244,-14,65,-5
10865,-8,16,246,-14,63,-6
10870,-9,14,246,-12,66,-6
10875,-7,16,245,-12,66,-5
10880,-6,15,246,-12,68,-4
10885,-8,15,243,-10,70,-4
10890,-5,17,243,-9,71,-3
10895,-5,15,244,-9,72,-4
10900,-4,16,243,-10,71,-4
10905,-8,17,249,-11,70,-3
10910,-5,14,245,-11,70,-3
10915,-6,12,246,-12,71,-2
10920,-3,16,242,-10,71,-2
10925,-8,16,246,-11,70,-2
10930,-7,18,242,-12,69,-3
10935,-8,13,243,-12,69,-2
10940,-8,14,246,-13,69,-3
10945,-5,14,245,-12,67,-4
10950,-4,14,245,-12,67,-3
10955,-5,17,243,-12,67,-3
10960,-5,16,242,-12,64,-2
10965,-7,14,246,-10,64,-3
10970,-9,17,245,-10,63,-3
10975,-6,16,248,-11,66,-3
10980,-4,15,243,-11,66,-1
10985,-5,16,246,-10,67,-3
10990,-5,16,246,-9,67,-3
10995,-6,16,245,-9,66,-3
11000,-5,15,246,-8,67,-3
11005,-4,16,246,-8,66,-2
11010,-5,15,249,-11,67,-3
11015,-6,19,243,-13,68,-4
11020,-9,18,245,-15,68,-4
11025,-6,16,245,-15,68,-4
11030,-7,16,241,-18,66,-3
11035,-7,15,245,-22,65,-5
11040,-7,13,247,-21,65,-5
11045,-6,16,246,-19,67,-4
11050,-6,16,249,-19,69,-4
11055,-7,17,248,-17,71,-3
11060,-3,12,248,-17,69,-3
11065,-4,12,248,-16,69,-4
11070,-6,17,245,-17,68,-4
11075,-6,15,241,-19,67,-3
11080,-1,14,241,-21,66,-5
11085,-8,15,244,-22,66,-5
11090,-4,13,245,-21,68,-4
11095,-4,13,244,-21,68,-5
11100,-7,14,244,-19,68,-4
11105,-4,15,244,-20,69,-4
11110,-5,13,245,-18,69,-3
11115,-4,14,243,-18,70,-2
11120,-3,15,246,-20,71,-1
11125,-1,12,248,-22,71,0
11130,-5,14,244,-22,72,-1
11135,-7,17,247,-23,71,-2
11140,-8,13,248,-23,70,-1
11145,-3,15,246,-24,71,-1
11150,-7,14,247,-25,70,0
11155,-2,16,245,-25,70,0
11160,-6,15,246,-23,68,-1
11165,-7,14,242,-24,69,0
11170,-7,17,242,-23,67,0
11175,-8,14,245,-24,68,-1
11180,-6,13,242,-24,67,-1
11185,-8,16,245,-26,68,-1
11190,-9,14,247,-25,68,-2
11195,-5,13,247,-26,67,-2
11200,-6,14,248,-26,68,-3
11205,-10,16,247,-27,69,-4
11210,-7,12,247,-28,68,-4
11215,-6,14,247,-29,68,-3
11220,-5,15,249,-31,70,-2
11225,-9,13,243,-34,71,-3
11230,-4,13,246,-36,70,-2
11235,-8,15,243,-38,71,-2
11240,-4,10,245,-40,72,-1
11245,-6,11,243,-38,69,-1
11250,-8,15,246,-38,70,-1
11255,-3,12,244,-36,70,-1
11260,-10,16,245,-33,70,0
11265,-7,15,245,-32,70,0
11270,-4,14,248,-35,71,0
11275,-6,14,245,-39,69,-3
11280,-8,16,248,-45,69,-2
11285,-5,12,247,-50,68,-3
11290,-4,14,247,-52,66,-4
11295,-6,15,246,-52,67,-5
11300,-10,14,246,-52,67,-4
11305,-5,15,246,-50,66,-5
11310,-2,14,241,-50,68,-3
11315,-7,16,246,-49,71,-3
11320,-5,12,248,-49,74,-2
11325,-6,13,245,-48,76,-1
11330,-3,17,241,-51,78,-1
11335,-7,10,247,-51,79,-2
11340,-7,11,245,-54,78,-2
11345,-8,10,246,-56,79,-2
11350,-9,10,247,-57,79,-4
11355,-6,11,246,-57,80,-4
11360,-6,10,248,-58,80,-3
11365,-6,9,247,-56,81,-3
11370,-5,10,244,-49,80,-3
11375,-9,10,248,-39,79,-2
11380,-8,9,241,-29,80,-4
11385,-9,10,243,-19,80,-3
11390,-3,13,244,-13,78,-3
11395,-6,12,244,-12,77,-4
11400,-8,13,244,-16,77,-3
11405,-6,14,245,-26,75,-2
11410,-3,10,249,-37,75,-2
11415,-6,16,245,-44,75,-2
11420,-5,12,247,-48,74,0
11425,-1,13,246,-48,73,1
11430,-6,12,245,-46,73,1
11435,-6,11,246,-43,71,3
11440,-6,14,250,-40,71,4
11445,-4,15,247,-39,72,3
11450,-5,13,247,-40,74,4
11455,-4,11,244,-45,71,4
11460,-6,17,244,-51,72,3
11465,-4,11,245,-58,70,1
11470,-8,13,247,-63,70,1
11475,-7,11,243,-67,70,-1
11480,-6,14,248,-69,69,-1
11485,-9,11,244,-68,67,-2
11490,-5,12,247,-66,68,-1
11495,-10,10,247,-62,67,-2
11500,-7,13,248,-58,66,-2
11505,-1,11,244,-56,68,-3
11510,-7,10,244,-55,67,-3
11515,-8,13,250,-56,70,-3
11520,-4,11,244,-58,70,-1
11525,-7,10,245,-59,71,0
11530,-7,11,246,-60,72,0
11535,-5,10,250,-60,74,2
11540,-5,10,249,-60,73,4
11545,-9,9,240,-60,72,2
11550,-5,12,243,-59,71,3
11555,-4,9,246,-59,72,3
11560,-9,9,246,-58,73,2
11565,-8,11,245,-59,72,2
11570,-7,9,247,-58,72,2
11575,-5,9,248,-58,71,3
11580,-7,10,245,-59,71,3
11585,-7,9,245,-59,70,2
11590,-11,9,245,-60,70,0
11595,-9,9,245,-60,70,1
11600,-4,9,244,-61,69,1
11605,-7,11,242,-61,69,1
11610,-5,11,236,-60,69,1
11615,-6,11,246,-56,68,0
11620,-4,10,247,-52,71,0
11625,-8,11,249,-49,72,1
11630,-8,9,245,-45,74,0
11635,-4,8,244,-45,75,2
11640,-8,8,246,-50,73,1
11645,-7,10,248,-53,70,2
11650,-8,9,245,-57,69,3
11655,-7,9,245,-57,67,2
11660,-6,8,245,-51,68,2
11665,-3,8,242,-42,69,3
11670,-6,9,242,-34,69,2
11675,-4,7,242,-26,70,3
11680,-6,8,242,-21,69,0
11685,-6,9,243,-15,72,-2
11690,-10,11,245,-17,74,-2
11695,-8,9,240,-22,75,-2
11700,-9,10,247,-27,74,-4
11705,-10,8,248,-34,73,-4
11710,-8,9,249,-43,72,-5
11715,-11,11,247,-50,70,-5
11720,-8,10,246,-58,69,-4
11725,-5,8,250,-62,67,-5
11730,-4,8,247,-65,67,-4
11735,-7,12,247,-65,69,-3
11740,-8,11,250,-63,72,0
11745,-7,9,244,-62,74,0
11750,-6,9,244,-57,75,0
11755,-5,9,243,-54,75,2
11760,-6,7,247,-48,73,3
11765,-8,8,246,-42,74,2
11770,-7,8,246,-36,74,2
11775,-6,9,241,-32,74,2
11780,-4,8,246,-30,74,1
11785,-7,10,241,-29,73,1
11790,-7,9,243,-29,73,1
11795,-6,8,245,-30,73,1
11800,-7,9,246,-32,73,0
11805,-7,10,248,-33,72,1
11810,-8,9,244,-35,72,2
11815,-8,10,245,-33,71,2
11820,-9,8,246,-34,69,3
11825,-8,9,245,-32,70,2
11830,-7,8,249,-32,68,2
11835,-6,8,244,-30,68,3
11840,-6,8,244,-29,67,4
11845,-5,8,242,-26,65,2
11850,-7,8,246,-23,64,3
11855,-9,9,246,-22,65,4
11860,-5,8,247,-22,65,4
11865,-2,8,246,-22,65,2
11870,-6,9,246,-23,65,2
11875,-7,7,245,-23,65,2
11880,-8,9,246,-24,66,3
11885,-7,8,247,-26,67,2
11890,-5,8,244,-28,67,3
11895,-7,9,244,-29,69,1
11900,-7,8,246,-31,70,2
11905,-3,8,244,-33,67,1
11910,-6,8,245,-34,68,0
11915,-7,9,247,-35,67,1
11920,-5,8,249,-36,67,2
11925,-7,8,246,-36,66,1
11930,-8,8,247,-37,66,2
11935,-7,9,249,-36,65,2
11940,-8,9,246,-36,67,2
11945,-7,9,247,-36,68,1
11950,-9,12,244,-38,69,2
11955,-8,7,245,-37,68,2
11960,-9,9,243,-38,66,0
11965,-8,7,245,-37,65,2
11970,-9,9,244,-36,66,1
11975,-6,6,243,-36,64,1
11980,-4,8,241,-35,64,3
11985,-6,5,248,-36,64,1
11990,-8,8,247,-36,63,0
11995,-9,9,245,-34,63,1
12000,-8,8,245,-33,62,2
12005,-9,8,244,-31,60,3
12010,-7,9,246,-30,60,2
12015,-8,9,242,-29,61,1
12020,-8,8,246,-30,61,1
12025,-6,8,247,-28,62,3
12030,-7,6,244,-28,62,1
12035,-7,9,244,-27,64,3
12040,-10,8,245,-25,64,3
12045,-3,8,246,-24,64,2
12050,-7,8,246,-23,66,2
12055,-6,10,240,-23,66,3
12060,-5,8,246,-23,67,3
12065,-6,8,246,-23,68,2
12070,-4,8,243,-23,66,4
12075,-7,8,246,-22,66,4
12080,-2,7,247,-23,66,4
12085,-5,8,247,-24,65,3
12090,-9,6,247,-24,67,3
12095,-5,7,244,-24,66,3
12100,-5,8,245,-24,64,3
12105,-3,6,245,-22,64,2
12110,-5,7,242,-22,63,3
12115,-3,7,245,-20,63,2
12120,-9,8,244,-19,65,2
12125,-6,4,243,-19,65,1
12130,-7,8,245,-18,64,0
12135,-4,9,246,-18,64,2
12140,-4,3,245,-16,65,1
12145,-9,8,244,-16,64,2
12150,-7,14,247,-15,65,3
12155,-3,7,243,-12,64,2
12160,-6,10,244,-11,64,2
12165,-7,9,243,-10,64,1
12170,-8,8,240,-10,64,2
12175,-5,11,244,-11,63,-1
12180,-8,8,243,-13,63,-1
12185,-9,8,243,-13,65,0
12190,-2,11,245,-14,64,0
12195,-8,9,244,-15,64,-1
12200,-8,9,249,-17,65,-1
12205,-7,9,244,-20,66,-2
12210,-5,8,246,-25,66,-2
12215,-4,7,244,-31,65,-2
12220,-5,8,247,-36,66,-1
12225,-6,8,247,-41,66,-1
12230,-2,6,245,-45,66,0
12235,-5,8,245,-49,65,2
12240,-7,6,245,-50,66,1
12245,-4,8,253,-51,66,1
12250,-2,6,249,-52,64,1
12255,-5,4,247,-50,65,3
12260,-6,4,244,-51,67,1
12265,-5,3,244,-49,68,3
12270,-2,8,245,-48,69,3
12275,-6,3,244,-48,70,3
12280,-4,7,246,-46,70,4
12285,-5,8,248,-46,70,5
12290,-6,4,245,-45,73,5
12295,-4,8,249,-44,73,5
12300,-4,8,246,-42,73,6
12305,-5,7,243,-40,73,8
12310,-7,11,247,-36,72,7
12315,-3,8,245,-31,70,6
12320,-6,8,244,-25,70,4
12325,-5,7,245,-19,69,2
12330,-7,7,246,-15,69,3
12335,-6,8,244,-12,69,3
12340,-3,8,246,-8,67,0
12345,-5,7,244,-8,68,1
12350,-11,8,246,-7,66,0
12355,-8,9,244,-8,67,0
12360,-7,9,243,-10,67,0
12365,-10,9,247,-8,66,-1
12370,-2,5,249,-5,64,-2
12375,-7,5,245,-2,64,-2
12380,-10,8,244,2,64,-3
12385,-9,6,245,8,65,-3
12390,-7,7,246,15,67,-4
12395,-8,8,243,21,68,-4
12400,-7,8,245,25,69,-4
12405,-8,8,241,27,72,-5
12410,-8,8,244,27,73,-6
12415,-9,8,244,25,76,-6
12420,-7,8,249,18,78,-6
12425,-5,6,246,11,79,-8
12430,-6,8,250,0,81,-7
12435,-8,7,250,-11,83,-8
12440,-6,4,247,-22,84,-9
12445,-3,3,250,-28,83,-9
12450,-7,8,243,-31,84,-7
12455,-7,4,244,-28,83,-6
12460,-7,8,244,-21,82,-7
12465,-6,5,242,-9,80,-6
12470,-3,7,241,1,78,-7
12475,-5,4,243,9,76,-8
12480,-8,6,246,12,72,-7
12485,-8,8,245,10,71,-5
12490,-7,6,245,7,69,-6
12495,-4,6,244,3,69,-4
12500,-8,9,247,4,67,-3
12505,-5,6,246,5,68,-4
12510,-8,8,243,8,67,-3
12515,-5,8,244,13,66,-4
12520,-6,8,248,17,66,-3
12525,-7,8,244,19,66,-3
12530,-8,10,246,19,65,-5
12535,-2,11,245,14,63,-4
12540,-9,9,247,8,64,-4
12545,-7,8,248,2,64,-3
12550,-7,10,248,-6,66,-4
12555,-6,9,246,-13,65,-5
12560,-6,9,242,-14,67,-4
12565,-7,8,246,-15,67,-5
12570,-8,9,246,-11,67,-3
12575,-5,5,245,-6,70,-3
12580,-8,8,246,0,70,-3
12585,-4,8,241,5,72,-4
12590,-3,9,246,11,72,-2
12595,-6,8,243,15,73,-3
12600,-6,8,243,17,73,-2
12605,-7,7,241,19,74,-1
12610,-8,9,240,20,74,0
12615,-6,9,239,19,73,0
12620,-4,5,244,22,73,0
12625,-5,8,240,24,71,1
12630,-8,8,244,25,71,0
12635,-7,8,245,28,69,-1
12640,-5,7,247,32,69,-2
12645,-4,8,243,34,70,-3
12650,-5,8,246,35,69,-3
12655,-5,5,241,36,68,-4
12660,-5,5,242,35,69,-6
12665,-4,9,243,35,69,-6
12670,-6,8,242,34,69,-6
12675,-4,9,247,32,69,-5
12680,-6,9,246,31,71,-5
12685,-5,8,242,31,72,-3
12690,-4,8,245,30,73,-4
12695,-7,8,247,28,73,-4
12700,-5,6,245,26,73,-3
12705,-6,9,248,23,73,-3
12710,-8,9,248,18,71,-3
12715,-5,8,245,14,71,-3
12720,-5,9,245,12,71,-3
12725,-6,6,242,9,69,-3
12730,-6,8,247,8,70,-2
12735,-6,8,244,10,71,-3
12740,-5,7,243,16,71,-3
12745,-9,8,244,24,71,-2
12750,-8,8,245,30,71,-3
12755,-9,9,245,36,71,-3
12760,-8,8,243,42,70,-4
12765,-11,11,242,43,69,-6
12770,-8,11,242,43,69,-7
12775,-8,10,243,40,68,-6
12780,-7,9,250,36,69,-6
12785,-8,10,246,29,67,-7
12790,-7,10,243,22,69,-7
12795,-8,12,250,19,69,-6
12800,-9,8,246,15,69,-7
12805,-4,9,248,12,67,-5
12810,-8,11,248,12,67,-5
12815,-6,10,248,11,67,-5
12820,-6,8,245,11,65,-5
12825,-8,9,245,11,64,-5
12830,-9,10,244,11,63,-5
12835,-6,9,250,12,64,-5
12840,-9,10,248,14,66,-6
12845,-6,8,244,15,67,-5
12850,-3,9,245,16,67,-7
12855,-7,10,246,14,68,-5
12860,-8,10,246,14,68,-4
12865,-8,9,245,14,70,-4
12870,-8,11,246,15,71,-3
12875,-6,9,249,14,71,-3
12880,-6,9,246,14,71,-4
12885,-6,9,245,16,72,-4
12890,-9,8,244,18,72,-4
12895,-3,9,243,20,73,-4
12900,-5,9,245,22,73,-4
12905,-6,8,245,23,73,-4
12910,-9,10,249,24,72,-3
12915,-5,9,246,25,72,-4
12920,-6,10,250,26,72,-4
12925,-7,9,247,25,70,-4
12930,-6,10,245,24,69,-3
12935,-8,10,246,24,68,-4
12940,-4,8,247,23,67,-5
12945,-4,10,245,23,67,-4
12950,-7,10,241,20,67,-4
12955,-6,11,241,19,67,-5
12960,-7,10,244,18,66,-6
12965,-2,10,245,16,67,-5
12970,-6,10,248,15,66,-4
12975,-2,9,245,13,66,-3
12980,-5,11,242,12,66,-3
12985,-1,11,242,12,68,-4
12990,-6,9,248,10,68,-2
12995,-6,10,248,11,68,-4
13000,-6,9,244,11,67,-3
13005,-6,9,247,11,68,-3
13010,-6,8,244,11,67,-1
13015,-7,9,247,10,67,-2
13020,-5,11,246,7,68,-1
13025,-8,13,247,8,70,-2
13030,-7,14,248,8,68,-2
13035,-4,10,245,7,69,-1
13040,-8,10,245,6,68,-3
13045,-4,11,246,9,67,-2
13050,-6,11,245,9,66,-3
13055,-9,11,246,11,66,-4
13060,-6,10,247,9,67,-5
13065,-5,12,246,7,68,-5
13070,-7,12,243,3,67,-7
13075,-10,10,242,-1,66,-8
13080,-5,10,245,-6,68,-7
13085,-4,10,246,-8,70,-8
13090,-4,11,246,-7,72,-7
13095,-5,9,245,-7,77,-5
13100,-7,11,242,-3,81,-4
13105,-8,12,248,-2,84,-4
13110,-8,11,245,0,88,-5
13115,-8,11,244,4,91,-6
13120,-11,12,247,7,93,-5
13125,-8,15,248,9,96,-7
13130,-6,10,244,10,98,-11
13135,-7,12,247,8,98,-10
13140,-6,10,245,7,98,-11
13145,-12,13,247,5,95,-11
13150,-6,12,245,5,95,-12
13155,-6,11,248,4,91,-12
13160,-6,13,247,5,83,-11
13165,-5,12,249,4,78,-10
13170,-4,10,247,3,74,-7
13175,-5,10,248,3,69,-6
13180,-8,13,244,2,66,-4
13185,-6,11,245,3,62,-4
13190,-7,11,246,3,60,-3
13195,-9,10,247,1,59,-3
13200,-8,13,247,1,59,-3
13205,-8,11,246,5,59,-3
13210,-8,10,247,4,60,-5
13215,-7,13,244,3,60,-5
13220,-9,12,247,3,63,-6
13225,-5,12,246,5,65,-6
13230,-5,12,248,6,67,-5
13235,-8,11,245,5,72,-5
13240,-6,11,247,4,71,-5
13245,-9,12,247,6,72,-5
13250,-5,12,244,6,74,-5
13255,-11,12,242,7,75,-6
13260,-8,13,247,10,75,-5
13265,-6,11,247,13,76,-3
13270,-7,10,243,16,74,-4
13275,-8,10,248,17,75,-4
13280,-8,12,241,19,75,-3
13285,-9,15,243,16,75,-4
13290,-6,12,246,14,74,-3
13295,-8,17,246,15,73,-5
13300,-7,13,244,16,71,-6
13305,-7,11,245,17,70,-7
13310,-8,13,246,16,68,-8
13315,-6,14,247,18,66,-8
13320,-8,11,244,19,67,-7
13325,-9,14,246,18,68,-9
13330,-7,13,244,17,70,-9
13335,-6,15,243,18,72,-8
13340,-7,13,244,18,72,-7
13345,-7,14,245,17,73,-6
13350,-17,12,242,14,74,-6
13355,-7,11,246,10,73,-6
13360,-8,9,246,4,73,-8
13365,-6,11,245,1,76,-8
13370,-6,10,248,0,79,-9
13375,-7,14,247,-1,82,-8
13380,-8,9,246,-1,85,-8
13385,-8,9,247,2,87,-9
13390,-4,12,242,6,88,-10
13395,-7,12,243,13,88,-9
13400,-7,13,240,22,87,-9
13405,-9,12,243,27,87,-10
13410,-8,14,243,29,85,-12
13415,-7,11,245,28,85,-11
13420,-9,15,244,26,82,-12
13425,-9,16,243,20,78,-11
13430,-8,17,247,13,76,-9
13435,-7,14,247,10,73,-7
13440,-7,14,250,10,70,-6
13445,-10,17,245,10,67,-5
13450,-7,15,248,11,68,-3
13455,-8,16,248,10,67,-3
13460,-9,14,247,9,68,-3
13465,-7,16,246,8,70,-3
13470,-7,15,245,5,68,-2
13475,-5,15,248,1,68,-2
13480,-8,15,243,-8,64,-3
13485,-4,14,247,-15,60,-4
13490,-7,12,246,-20,59,-7
13495,-6,13,248,-20,62,-6
13500,-9,15,243,-21,62,-5
13505,-8,14,246,-20,64,-5
13510,-5,11,244,-16,66,-3
13515,-9,14,243,-12,68,-2
13520,-3,12,247,-8,72,-1
13525,-5,12,246,-11,72,-2
13530,-4,13,243,-13,68,-2
13535,-6,15,247,-13,65,-2
13540,-5,14,247,-14,65,-2
13545,-3,13,247,-16,66,-3
13550,-6,13,250,-17,72,-3
13555,-7,14,244,-20,74,-1
13560,-7,14,246,-19,72,0
13565,-8,15,248,-17,71,-1
13570,-8,11,247,-14,72,-1
13575,-3,12,243,-11,72,-1
13580,-8,13,243,-11,75,-1
13585,-7,13,243,-10,76,-1
13590,-5,14,246,-12,75,-1
13595,-8,14,246,-11,74,-2
13600,-8,12,247,-8,73,-3
13605,-6,11,249,-9,71,-3
13610,-4,11,247,-10,69,-2
13615,-9,14,241,-14,68,-3
13620,-8,16,245,-17,67,-3
13625,-8,11,250,-17,66,-3
13630,-4,10,241,-15,64,-1
13635,-7,13,246,-14,63,-1
13640,-7,14,244,-15,60,-2
13645,-7,14,243,-16,58,-3
13650,-5,15,244,-17,56,-2
13655,-7,12,245,-18,58,-1
13660,-7,14,246,-21,58,0
13665,-8,15,246,-25,59,-1
13670,-5,9,247,-26,60,-2
13675,-8,12,245,-25,62,-3
13680,-3,14,244,-22,63,-4
13685,-8,11,247,-20,62,-4
13690,-9,13,244,-14,63,-5
13695,-10,15,243,-8,63,-6
13700,-8,12,243,-1,64,-6
13705,-8,13,245,2,66,-7
13710,-10,16,242,5,67,-7
13715,-6,12,245,3,67,-8
13720,-8,16,248,1,69,-8
13725,-8,15,244,-4,69,-7
13730,-8,15,252,-9,69,-7
13735,-5,13,246,-12,68,-8
13740,-9,13,248,-14,67,-7
13745,-8,13,245,-14,68,-7
13750,-9,14,246,-15,69,-6
13755,-8,16,246,-15,69,-5
13760,-10,16,243,-17,68,-6
13765,-4,12,244,-19,65,-6
13770,-5,14,243,-22,64,-7
13775,-7,15,246,-23,65,-6
13780,-6,13,244,-21,65,-6
13785,-4,13,250,-17,67,-4
13790,-3,14,240,-13,71,-5
13795,-8,10,246,-9,74,-4
13800,-7,14,246,-4,75,-3
13805,-8,15,247,0,74,-2
13810,-9,13,247,1,75,-1
13815,-8,15,247,0,74,-1
13820,-8,16,245,-2,73,0
13825,-8,15,248,-4,73,-1
13830,-7,11,248,-6,72,-1
13835,-10,13,249,-9,71,-2
13840,-7,14,245,-10,68,-2
13845,-8,15,248,-8,66,0
13850,-7,14,245,-9,67,0
13855,-9,14,244,-7,67,-1
13860,-8,12,247,-6,66,0
13865,-6,13,246,-4,65,0
13870,-8,14,242,-5,65,-1
13875,-7,15,245,-9,63,0
13880,-7,14,247,-10,61,-3
13885,-5,12,245,-12,61,-3
13890,-6,12,242,-13,63,-4
13895,-6,13,245,-15,64,-2
13900,-7,14,244,-15,63,-2
13905,-5,13,248,-16,63,-3
13910,-4,11,249,-18,63,-2
13915,-4,11,248,-19,63,-2
13920,-7,15,244,-19,64,-2
13925,-6,13,248,-18,65,-1
13930,-7,15,244,-19,64,-3
13935,-9,13,246,-19,63,-2
13940,-7,13,243,-19,63,-1
13945,-8,12,245,-18,64,-1
13950,-10,14,248,-18,63,-1
13955,-8,12,247,-17,62,-1
13960,-6,15,247,-18,63,0
13965,-9,13,244,-15,64,-2
13970,-5,13,244,-12,65,-2
13975,-8,14,249,-12,64,-1
13980,-9,15,244,-12,65,-1
13985,-7,15,245,-12,64,-2
13990,-6,16,243,-11,66,-3
13995,-9,13,248,-13,64,-3
14000,-6,14,245,-14,62,-4
14005,-10,10,242,-15,62,-4
14010,-3,12,247,-15,63,-4
14015,-6,13,243,-13,64,-3
14020,-8,15,247,-12,66,-4
14025,-8,14,245,-11,66,-3
14030,-8,14,247,-10,66,-3
14035,-8,17,246,-9,66,-2
14040,-9,12,244,-7,67,-2
14045,-8,13,244,-7,66,-2
14050,-10,15,244,-5,67,-2
14055,-8,15,240,-5,66,-3
14060,-10,16,245,-4,66,-3
14065,-7,15,246,-3,67,-3
14070,-8,14,247,-3,68,-4
14075,-7,14,248,-3,66,-4
14080,-8,14,244,-3,67,-3
14085,-6,13,246,2,64,-3
14090,-8,13,249,5,67,-2
14095,-8,15,243,6,69,-2
14100,-6,15,246,3,70,-3
14105,-8,14,246,-1,71,-3
14110,-7,15,244,-5,70,-4
14115,-5,13,247,-7,70,-4
14120,-8,15,247,-11,70,-4
14125,-7,15,241,-14,68,-4
14130,-10,14,244,-13,69,-4
14135,-6,15,246,-11,69,-4
14140,-2,13,245,-7,69,-2
14145,-8,15,246,-5,70,-1
14150,-8,13,247,-3,68,-3
14155,-5,12,243,-2,68,-2
14160,-7,14,245,-3,68,-1
14165,-6,12,246,-4,68,-3
14170,-9,16,245,-5,67,-2
14175,-4,11,243,-7,67,-1
14180,-8,14,242,-8,67,-2
14185,-7,14,246,-8,68,-2
14190,-8,13,245,-7,66,-4
14195,-5,11,246,-6,67,-3
14200,-7,12,245,-6,67,-2
14205,-8,14,242,-6,68,-1
14210,-7,12,244,-6,69,-3
14215,-6,17,246,-6,69,-3
14220,-8,13,245,-8,69,-4
14225,-5,14,247,-8,68,-4
14230,-7,12,246,-9,68,-4
14235,-6,16,243,-10,67,-3
14240,-3,13,243,-10,67,-3
14245,-6,12,241,-12,68,-2
14250,-3,14,245,-11,68,-3
14255,-6,10,244,-11,67,-2
14260,-7,15,246,-12,69,-2
14265,-6,14,244,-13,69,-2
14270,-6,16,242,-14,71,-3
14275,-7,14,244,-14,72,-3
14280,-8,14,241,-14,73,-3
14285,-6,15,245,-16,75,-4
14290,-9,16,248,-17,75,-4
14295,-8,11,247,-15,74,-2
14300,-7,11,245,-14,71,-2
14305,-6,13,246,-14,70,-3
14310,-10,17,246,-14,69,-2
14315,-5,14,246,-14,69,-3
14320,-7,18,246,-13,70,-2
14325,-9,15,246,-13,69,-2
14330,-5,15,252,-13,68,-3
14335,-6,11,242,-12,68,-1
14340,-6,17,244,-11,69,-2
14345,-6,13,244,-11,69,-1
14350,-7,12,245,-11,69,-1
14355,-6,11,245,-11,68,-1
14360,-7,13,245,-9,67,1
14365,-5,14,243,-8,67,-2
14370,-3,12,243,-7,67,-2
14375,-6,11,245,-6,67,-1
14380,-5,13,247,-4,68,-1
14385,-9,12,247,-4,67,-1
14390,-7,14,246,-5,68,-1
14395,-10,14,246,-6,66,-1
14400,-5,14,244,-6,65,-3
14405,-9,15,245,-6,65,-2
14410,-9,16,246,-8,65,-4
14415,-7,15,247,-10,65,-3
14420,-6,17,245,-12,65,-5
14425,-8,11,246,-14,63,-4
14430,-9,15,246,-14,64,-3
14435,-5,14,246,-11,65,-4
14440,-7,19,244,-8,68,-2
14445,-6,13,244,-4,68,-3
14450,-9,14,247,-4,69,-4
14455,-6,13,247,-2,68,-4
14460,-9,11,248,-3,71,-4
14465,-8,12,248,-4,71,-3
14470,-6,14,240,-5,71,-2
14475,-8,12,243,-8,72,-3
14480,-7,13,243,-11,72,-2
14485,-10,17,249,-11,72,-3
14490,-5,15,245,-10,73,-1
14495,-7,14,241,-6,73,-1
14500,-8,14,245,-5,73,-3
14505,-7,17,248,-3,72,-2
14510,-9,15,247,-5,70,-1
14515,-4,14,244,-6,71,-3
14520,-9,16,245,-7,70,-2
14525,-4,14,244,-6,69,-4
14530,-6,15,245,-5,67,-5
14535,-6,13,244,-1,67,-6
14540,-7,12,246,11,64,-7
14545,-9,13,245,28,63,-8
14550,-4,14,241,36,67,-7
14555,-6,14,243,35,74,-6
14560,-6,18,246,25,78,-5
14565,-7,19,245,14,78,-2
14570,-3,15,242,1,79,-3
14575,-9,13,243,-4,79,-2
14580,-10,14,246,-8,80,-3
14585,-8,14,246,-9,78,-5
14590,-9,14,247,-9,79,-6
14595,-9,13,247,-9,80,-8
14600,-8,15,247,-11,81,-9
14605,-10,14,248,-9,85,-8
14610,-9,16,244,-6,87,-8
14615,-8,13,243,-3,91,-8
14620,-8,14,244,-1,96,-9
14625,-9,15,243,2,98,-10
14630,-8,15,243,7,96,-9
14635,-7,14,239,9,92,-7
14640,-8,13,241,9,88,-6
14645,-7,14,245,9,83,-7
14650,-10,16,246,7,81,-7
14655,-8,12,248,7,78,-5
14660,-7,14,248,5,76,-5
14665,-5,16,244,5,76,-4
14670,-7,17,249,6,76,-3
14675,-7,16,249,5,78,-2
14680,-4,17,251,4,79,-2
14685,-4,15,252,1,73,-1
14690,-7,18,248,-5,69,-2
14695,-6,17,248,-11,66,-1
14700,-6,18,246,-19,63,-1
14705,-5,19,246,-24,61,-2
14710,-7,18,248,-31,60,-2
14715,-10,16,249,-35,61,-3
14720,-9,16,247,-34,64,-2
14725,-8,15,248,-30,67,-2
14730,-9,12,242,-25,69,-2
14735,-11,15,251,-20,69,0
14740,-9,16,243,-15,70,-1
14745,-6,15,246,-13,70,-1
14750,-7,15,246,-11,68,0
14755,-9,14,245,-11,67,-2
14760,-8,13,244,-13,68,-1
14765,-8,16,243,-16,69,0
14770,-4,15,243,-19,68,0
14775,-9,14,244,-24,68,-2
14780,-7,12,246,-26,69,-1
14785,-8,14,246,-28,68,0
14790,-8,14,246,-29,68,0
14795,-8,14,245,-29,67,0
14800,-8,15,248,-31,66,1
14805,-8,13,246,-30,66,-1
14810,-6,13,247,-30,66,-2
14815,-7,9,247,-30,66,0
14820,-8,18,245,-29,65,-2
14825,-11,13,246,-30,66,-1
14830,-7,11,245,-31,65,-4
14835,-6,11,244,-34,64,-4
14840,-6,12,245,-36,64,-4
14845,-9,13,246,-39,63,-4
14850,-8,15,247,-41,63,-3
14855,-7,16,244,-40,63,-3
14860,-6,16,247,-39,63,-1
14865,-8,14,246,-37,64,-2
14870,-4,13,249,-37,65,-1
14875,-7,13,248,-37,64,2
14880,-3,12,249,-38,64,2
14885,-7,12,245,-41,63,1
14890,-8,13,244,-44,61,0
14895,-6,13,245,-46,61,-1
14900,-8,13,244,-45,62,0
14905,-7,12,247,-42,61,-2
14910,-10,14,246,-37,63,-3
14915,-7,11,242,-32,63,-4
14920,-7,15,245,-24,64,-4
14925,-8,14,245,-19,66,-5
14930,-8,12,243,-18,67,-7
14935,-10,14,243,-18,69,-6
14940,-7,15,242,-21,68,-5
14945,-6,14,247,-25,70,-5
14950,-6,15,247,-30,69,-5
14955,-7,14,245,-36,69,-6
14960,-7,14,248,-40,69,-5
14965,-7,15,242,-43,70,-4
14970,-7,16,248,-47,69,-4
14975,-8,13,249,-50,69,-3
14980,-5,18,248,-51,70,-4
14985,-6,12,247,-54,70,-2
14990,-6,13,244,-56,69,-2
14995,-8,13,244,-58,70,-2
