timestamp,acc_x,acc_y,acc_z,gyro_x,gyro_y,gyro_z
0,-10,-250,21,-55,65,3
5,-12,-255,21,-59,70,3
10,-13,-251,16,-62,76,4
15,-12,-253,16,-64,81,2
20,-12,-252,23,-62,82,0
25,-9,-261,23,-60,80,1
30,-9,-257,19,-58,77,2
35,-12,-255,21,-55,72,-1
40,-13,-256,26,-54,68,-4
45,-11,-255,24,-56,64,-4
50,-10,-257,20,-62,64,-3
55,-12,-255,20,-65,67,-2
60,-12,-254,20,-70,74,-1
65,-15,-253,16,-72,84,2
70,-12,-255,18,-72,92,5
75,-12,-256,17,-71,95,6
80,-13,-255,18,-68,98,5
85,-11,-257,17,-67,98,5
90,-5,-255,16,-66,95,5
95,-13,-256,19,-63,90,8
100,-12,-252,20,-61,86,8
105,-13,-256,18,-58,82,7
110,-15,-254,15,-55,79,7
115,-13,-255,18,-51,79,8
120,-14,-252,17,-44,79,8
125,-10,-254,16,-38,82,7
130,-8,-253,23,-38,86,6
135,-13,-250,17,-36,87,0
140,-14,-253,18,-38,84,-7
145,-14,-252,18,-50,87,-7
150,-11,-255,19,-63,93,-1
155,-12,-253,20,-76,95,1
160,-14,-252,19,-86,94,2
165,-17,-254,17,-87,89,1
170,-14,-253,19,-84,84,4
175,-14,-255,20,-78,82,9
180,-16,-255,20,-70,80,12
185,-18,-258,18,-60,80,13
190,-14,-256,21,-52,79,13
195,-14,-254,19,-43,77,15
200,-13,-257,22,-34,75,13
205,-11,-255,20,-28,73,11
210,-15,-253,19,-22,69,11
215,-13,-251,17,-17,66,9
220,-13,-250,16,-17,67,9
225,-13,-255,16,-21,71,9
230,-13,-256,14,-24,74,9
235,-14,-256,19,-29,75,9
240,-10,-258,14,-33,78,7
245,-12,-256,17,-34,79,4
250,-13,-254,17,-34,79,3
255,-15,-255,16,-33,79,2
260,-17,-256,19,-31,76,0
265,-15,-252,17,-30,75,1
270,-15,-255,16,-29,72,0
275,-14,-255,19,-27,70,0
280,-16,-255,18,-25,68,-1
285,-14,-257,13,-26,65,-2
290,-13,-256,15,-26,65,-3
295,-14,-255,16,-25,65,-5
300,-12,-256,17,-27,65,-6
305,-15,-255,19,-31,65,-8
310,-16,-253,17,-34,64,-10
315,-16,-256,14,-38,62,-10
320,-16,-254,19,-38,61,-11
325,-17,-255,16,-36,57,-10
330,-14,-255,17,-33,54,-11
335,-15,-255,22,-27,48,-7
340,-11,-256,15,-24,46,-7
345,-14,-253,15,-23,45,-6
350,-13,-249,19,-22,45,-5
355,-10,-256,17,-25,46,-5
360,-11,-255,14,-29,48,-7
365,-11,-256,15,-34,54,-11
370,-10,-254,19,-38,60,-13
375,-11,-257,15,-40,66,-15
380,-11,-257,16,-43,70,-17
385,-13,-253,17,-43,73,-20
390,-9,-253,17,-41,75,-22
395,-13,-252,16,-41,75,-23
400,-7,-253,18,-40,77,-23
405,-11,-255,16,-42,80,-23
410,-11,-251,19,-47,81,-23
415,-11,-253,15,-54,85,-21
420,-9,-253,18,-67,86,-21
425,-13,-251,13,-79,88,-19
430,-12,-252,20,-90,90,-19
435,-11,-255,16,-102,91,-17
440,-11,-255,17,-111,91,-18
445,-11,-255,15,-115,92,-18
450,-13,-257,19,-116,92,-15
455,-10,-256,20,-113,91,-14
460,-7,-257,18,-112,89,-15
465,-10,-256,14,-110,93,-15
470,-11,-256,18,-112,93,-16
475,-9,-254,16,-116,92,-15
480,-10,-254,15,-122,93,-15
485,-8,-253,11,-129,93,-16
490,-10,-251,16,-136,94,-19
495,-6,-251,14,-142,96,-20
500,-7,-253,17,-147,96,-22
505,-6,-253,17,-151,100,-24
510,-4,-254,19,-156,102,-25
515,-7,-254,13,-163,106,-25
520,-7,-258,14,-169,110,-26
525,-9,-256,13,-176,112,-24
530,-12,-255,18,-183,114,-24
535,-13,-257,15,-189,116,-23
540,-14,-258,16,-192,114,-21
545,-11,-258,14,-190,116,-20
550,-8,-258,16,-184,118,-20
555,-9,-258,17,-174,118,-23
560,-8,-255,13,-166,120,-24
565,-12,-250,8,-161,121,-29
570,-8,-250,11,-159,116,-34
575,-6,-248,11,-160,107,-41
580,-4,-249,7,-165,95,-48
585,-7,-247,11,-167,83,-53
590,-7,-247,5,-165,70,-56
595,-7,-247,2,-163,58,-56
600,-11,-248,3,-159,53,-54
605,-12,-249,1,-155,53,-49
610,-15,-252,-1,-150,58,-47
615,-18,-253,1,-151,65,-39
620,-15,-259,7,-153,73,-33
625,-14,-263,9,-158,82,-27
630,-12,-267,11,-160,87,-22
635,-10,-267,11,-162,90,-19
640,-7,-267,13,-162,89,-18
645,-5,-267,13,-162,90,-17
650,-4,-265,9,-162,90,-18
655,-2,-264,8,-162,94,-22
660,0,-258,9,-159,101,-27
665,2,-257,3,-157,106,-31
670,0,-254,4,-156,112,-35
675,6,-243,2,-154,118,-40
680,0,-251,-1,-152,124,-42
685,-1,-248,6,-151,131,-44
690,-4,-248,-2,-151,135,-44
695,-3,-245,4,-153,143,-45
700,-7,-249,5,-155,149,-41
705,-9,-248,2,-159,155,-38
710,-9,-249,4,-163,159,-35
715,-12,-250,5,-168,160,-32
720,-16,-251,6,-172,158,-29
725,-13,-254,10,-177,155,-28
730,-19,-252,8,-181,148,-25
735,-17,-255,7,-186,141,-23
740,-18,-258,8,-187,131,-19
745,-17,-257,8,-189,125,-15
750,-22,-257,8,-186,117,-10
755,-18,-257,8,-182,109,-4
760,-21,-258,10,-174,101,0
765,-20,-261,7,-167,96,7
770,-20,-262,8,-157,87,12
775,-21,-259,1,-146,79,17
780,-20,-260,5,-134,70,20
785,-25,-260,3,-123,61,22
790,-15,-262,4,-113,49,23
795,-14,-263,2,-105,37,25
800,-17,-259,0,-96,25,23
805,-14,-258,5,-87,11,21
810,-13,-258,2,-75,-1,18
815,-13,-256,2,-64,-15,17
820,-10,-258,0,-54,-26,16
825,-13,-258,0,-46,-34,13
830,-16,-257,0,-42,-38,10
835,-14,-253,2,-39,-41,8
840,-12,-253,-3,-42,-40,5
845,-10,-250,-4,-49,-38,5
850,-15,-251,0,-57,-36,6
855,-14,-251,-2,-65,-31,5
860,-14,-250,-4,-76,-30,4
865,-14,-254,-2,-85,-25,6
870,-13,-252,0,-92,-22,5
875,-15,-249,-1,-101,-21,5
880,-10,-251,3,-108,-20,7
885,-10,-253,2,-114,-20,5
890,-7,-257,0,-118,-20,5
895,-8,-255,-5,-121,-20,2
900,-10,-255,-2,-122,-23,1
905,-10,-256,-3,-121,-24,0
910,-6,-259,-4,-121,-24,-2
915,-7,-258,-2,-118,-23,-3
920,-7,-257,-4,-115,-22,-6
925,-10,-258,-5,-111,-20,-8
930,-6,-259,-3,-106,-17,-12
935,-11,-260,-1,-99,-15,-15
940,-7,-261,-5,-90,-14,-19
945,-7,-261,-2,-82,-14,-21
950,-7,-259,-5,-70,-13,-24
955,-7,-261,-4,-60,-14,-24
960,-9,-259,-4,-50,-13,-26
965,-7,-260,-2,-43,-13,-28
970,-8,-260,-1,-36,-7,-28
975,-7,-262,-2,-31,-4,-29
980,-6,-262,2,-28,0,-29
985,-6,-261,-5,-28,8,-29
990,-5,-259,-3,-28,15,-26
995,-8,-260,-5,-31,23,-27
1000,-11,-266,-6,-34,31,-25
1005,-1,-257,-3,-35,36,-24
1010,-8,-256,-3,-34,39,-23
1015,-6,-258,-5,-34,44,-21
1020,-10,-258,-3,-34,47,-21
1025,-10,-252,1,-31,49,-19
1030,-8,-256,-2,-26,48,-18
1035,-10,-252,-3,-21,48,-17
1040,-7,-254,-2,-17,45,-16
1045,-11,-256,-5,-16,42,-15
1050,-10,-255,-2,-16,40,-15
1055,-10,-252,0,-20,37,-12
1060,-12,-255,-2,-24,35,-12
1065,-10,-257,0,-30,34,-11
1070,-11,-252,-1,-32,34,-8
1075,-7,-256,-2,-33,33,-8
1080,-8,-254,0,-34,32,-8
1085,-9,-253,-1,-33,31,-6
1090,-8,-253,-3,-31,30,-4
1095,-14,-253,-3,-26,29,-2
1100,-7,-254,-2,-25,30,-1
1105,-13,-256,6,-25,29,-1
1110,-12,-252,-2,-24,29,0
1115,-8,-256,1,-25,31,0
1120,-8,-257,-5,-27,33,1
1125,-10,-253,0,-27,35,3
1130,-9,-258,-4,-25,39,5
1135,-9,-257,-1,-23,42,7
1140,-10,-258,-3,-22,45,7
1145,-6,-258,-5,-18,48,8
1150,-8,-256,-1,-15,51,8
1155,-4,-257,-4,-10,54,9
1160,-6,-257,-1,-7,55,8
1165,-7,-259,-4,-5,58,9
1170,-6,-255,-6,-3,60,8
1175,-10,-254,-4,-4,62,8
1180,-8,-257,-5,-5,62,6
1185,-9,-255,-7,-5,64,5
1190,-6,-255,-5,-6,65,5
1195,-8,-255,-2,-6,68,5
1200,-5,-259,-4,-6,71,3
1205,-9,-258,-5,-6,75,3
1210,-10,-258,-5,-6,79,1
1215,-7,-257,-4,-4,82,1
1220,-6,-259,-6,-4,84,2
1225,-9,-259,-3,-1,86,2
1230,-9,-255,-3,1,85,0
1235,-10,-257,-7,2,86,1
1240,-6,-256,-6,5,86,1
1245,-8,-255,-8,6,87,-1
1250,-9,-254,-7,6,88,-1
1255,-10,-256,-7,5,89,0
1260,-12,-255,-9,4,93,0
1265,-14,-257,-4,1,93,0
1270,-13,-257,-5,1,95,-1
1275,-11,-259,-5,0,98,0
1280,-13,-258,-2,-1,98,0
1285,-11,-257,-5,2,99,0
1290,-12,-256,-4,3,99,-2
1295,-9,-257,-9,3,99,-4
1300,-11,-255,-4,6,97,-3
1305,-10,-256,-4,9,98,-4
1310,-8,-257,-8,13,96,-7
1315,-9,-257,-4,17,97,-7
1320,-4,-253,-9,22,97,-8
1325,2,-252,-13,26,98,-9
1330,-7,-256,-4,30,100,-11
1335,-10,-256,-5,34,100,-13
1340,-7,-256,-5,36,102,-14
1345,-10,-257,-4,40,102,-15
1350,-9,-257,-2,42,104,-13
1355,-10,-257,3,43,106,-11
1360,-10,-254,-5,45,109,-12
1365,-8,-258,-5,47,112,-13
1370,-11,-254,0,47,114,-14
1375,-7,-254,-1,49,115,-15
1380,-10,-255,0,49,117,-17
1385,-8,-255,0,53,116,-19
1390,-7,-255,-3,53,118,-20
1395,-6,-258,-1,54,118,-20
1400,-7,-255,1,55,122,-20
1405,-8,-258,2,54,126,-19
1410,-8,-256,3,54,130,-18
1415,-10,-256,1,55,134,-16
1420,-7,-256,2,58,138,-16
1425,-4,-257,-6,62,140,-16
1430,-5,-260,5,63,142,-14
1435,-9,-256,2,66,140,-13
1440,-7,-257,0,66,138,-13
1445,-3,-256,-1,62,136,-11
1450,-8,-259,-6,57,133,-10
1455,-11,-256,-3,52,131,-10
1460,-5,-256,-1,46,130,-9
1465,-7,-253,-1,40,127,-8
1470,-10,-252,-1,37,127,-8
1475,-8,-255,-2,37,126,-8
1480,-10,-255,-2,41,126,-8
1485,-9,-258,-1,45,126,-8
1490,-11,-258,1,48,126,-9
1495,-12,-256,0,50,127,-9
1500,-11,-257,0,52,128,-8
1505,-10,-257,-2,51,129,-6
1510,-15,-258,1,51,130,-5
1515,-13,-258,0,50,131,-1
1520,-12,-259,-3,50,131,-1
1525,-12,-257,-2,52,133,2
1530,-7,-257,0,52,132,2
1535,-10,-255,-1,53,130,4
1540,-6,-255,1,53,128,4
1545,-13,-255,3,54,125,5
1550,-11,-254,-3,55,124,5
1555,-9,-254,-1,56,121,5
1560,-9,-255,-1,56,120,6
1565,-10,-253,-2,56,116,5
1570,-10,-254,0,55,116,4
1575,-10,-255,0,54,115,4
1580,-9,-256,-1,55,114,4
1585,-10,-253,0,53,115,3
1590,-13,-256,1,54,114,4
1595,-10,-257,2,56,115,2
1600,-10,-260,0,60,117,1
1605,-9,-254,0,61,116,2
1610,-12,-254,3,61,116,-1
1615,-10,-256,3,61,116,-2
1620,-9,-256,1,59,119,-2
1625,-8,-254,2,58,121,-2
1630,-9,-256,1,55,122,-4
1635,-11,-253,3,53,123,-4
1640,-11,-255,2,50,123,-4
1645,-11,-257,2,46,123,-4
1650,-12,-259,22,44,123,-4
1655,-9,-256,1,41,122,-4
1660,-10,-253,4,39,120,-4
1665,-12,-257,5,40,119,-3
1670,-6,-256,7,40,115,-3
1675,-8,-258,2,45,111,-4
1680,-10,-257,5,49,106,-7
1685,-9,-257,0,52,103,-5
1690,-9,-257,-3,57,101,-5
1695,-8,-258,0,61,100,-6
1700,-8,-260,2,64,99,-4
1705,-8,-256,3,66,100,-3
1710,-9,-254,3,69,101,-4
1715,-11,-254,4,72,104,-4
1720,-8,-258,3,76,104,-4
1725,-11,-253,0,81,103,-6
1730,-9,-255,0,84,103,-7
1735,-10,-256,0,87,103,-6
1740,-9,-256,3,88,102,-7
1745,-11,-254,0,90,103,-7
1750,-11,-254,2,88,103,-10
1755,-10,-254,-2,87,104,-10
1760,-10,-256,6,85,107,-9
1765,-15,-255,4,80,110,-9
1770,-9,-256,4,77,112,-9
1775,-9,-256,6,76,114,-8
1780,-12,-257,7,75,116,-7
1785,-13,-254,6,72,115,-7
1790,-10,-255,4,71,113,-7
1795,-9,-257,6,70,111,-7
1800,-9,-255,4,67,109,-8
1805,-11,-252,7,65,105,-9
1810,-10,-256,5,62,105,-11
1815,-9,-255,4,59,102,-10
1820,-9,-254,0,55,102,-12
1825,-8,-253,5,52,100,-10
1830,-10,-254,5,48,100,-11
1835,-11,-257,3,47,99,-12
1840,-9,-258,6,43,99,-12
1845,-8,-256,6,43,97,-12
1850,-10,-257,1,43,95,-12
1855,-10,-254,12,43,94,-11
1860,-11,-256,8,41,94,-11
1865,-18,-256,0,41,92,-11
1870,-6,-259,5,38,94,-10
1875,-11,-258,7,37,91,-8
1880,-11,-260,7,36,90,-9
1885,-9,-253,4,35,89,-7
1890,-10,-257,9,35,85,-7
1895,-11,-256,7,33,84,-6
1900,-11,-254,8,31,83,-2
1905,-12,-252,8,30,81,-3
1910,-9,-256,10,30,82,0
1915,-8,-252,4,30,82,1
1920,-12,-256,11,29,82,2
1925,-7,-256,7,29,82,4
1930,-12,-254,12,29,82,6
1935,-10,-254,8,28,81,6
1940,-8,-254,9,29,80,6
1945,-7,-255,7,29,80,7
1950,-6,-256,10,29,76,7
1955,-8,-254,7,30,76,7
1960,-10,-253,8,29,72,6
1965,-12,-253,7,30,70,6
1970,-8,-255,8,32,65,2
1975,-13,-253,8,34,62,1
1980,-9,-256,7,36,61,-1
1985,-9,-256,9,35,59,-2
1990,-9,-255,7,32,59,-2
1995,-11,-254,6,29,62,-1
2000,-10,-254,9,26,65,0
2005,-13,-256,7,26,67,-1
2010,-11,-256,7,24,66,-1
2015,-13,-253,9,24,63,1
2020,-10,-252,8,25,62,-1
2025,-9,-256,7,25,59,-3
2030,-12,-252,10,23,56,-4
2035,-10,-254,10,21,54,-6
2040,-9,-254,9,17,55,-8
2045,-12,-254,5,14,55,-7
2050,-9,-255,10,10,57,-7
2055,-10,-257,11,8,60,-6
2060,-11,-254,4,9,60,-4
2065,-11,-256,7,10,63,-4
2070,-10,-257,7,13,61,-2
2075,-9,-258,8,15,61,-2
2080,-9,-255,9,18,63,-1
2085,-10,-259,14,18,62,1
2090,-2,-261,12,17,63,1
2095,-11,-255,8,15,63,2
2100,-9,-255,10,14,62,4
2105,-7,-257,10,15,62,4
2110,-9,-256,10,16,61,3
2115,-10,-253,8,20,60,4
2120,-5,-255,8,25,60,3
2125,-6,-254,9,29,59,3
2130,-10,-253,9,30,58,1
2135,-11,-255,9,33,58,-1
2140,-8,-255,8,33,60,0
2145,-10,-255,12,29,63,-1
2150,-10,-257,10,25,65,-1
2155,-11,-253,10,23,67,0
2160,-8,-255,10,18,68,2
2165,-11,-255,9,14,67,2
2170,-12,-255,8,12,66,4
2175,-11,-255,10,10,65,6
2180,-9,-256,11,9,62,5
2185,-7,-253,11,9,60,7
2190,-8,-258,14,9,59,6
2195,-9,-256,15,9,60,5
2200,-9,-256,12,9,59,5
2205,-4,-258,12,9,58,5
2210,-9,-254,12,7,56,4
2215,-8,-254,12,7,57,5
2220,-8,-255,7,7,58,6
2225,-6,-255,13,5,60,5
2230,-9,-257,8,3,62,5
2235,-7,-257,10,4,64,4
2240,-10,-257,9,3,66,4
2245,-6,-256,7,1,69,4
2250,-10,-253,13,-1,71,4
2255,-8,-254,7,0,72,4
2260,-9,-254,8,0,75,2
2265,-10,-256,10,-2,74,2
2270,-10,-256,12,-3,75,3
2275,-12,-254,14,-4,75,4
2280,-11,-254,15,-4,75,4
2285,-11,-254,12,-5,76,2
2290,-11,-254,13,-7,76,5
2295,-8,-258,13,-8,76,5
2300,-11,-259,21,-7,75,6
2305,-12,-259,17,-7,72,6
2310,-11,-255,12,-3,71,6
2315,-8,-259,11,1,67,8
2320,-11,-254,16,6,63,7
2325,-11,-253,9,7,61,7
2330,-12,-254,12,8,59,6
2335,-6,-255,8,9,59,6
2340,-10,-254,9,9,59,4
2345,-8,-257,11,9,60,6
2350,-12,-254,11,10,60,6
2355,-8,-254,9,9,61,4
2360,-9,-255,12,8,62,4
2365,-8,-254,11,9,64,2
2370,-11,-255,14,8,63,3
2375,-11,-256,15,7,64,2
2380,-9,-254,10,6,63,2
2385,-10,-257,13,6,63,1
2390,-10,-256,13,5,63,1
2395,-10,-256,10,3,64,0
2400,-12,-254,9,2,65,1
2405,-10,-255,13,2,64,2
2410,-6,-257,9,4,64,3
2415,-9,-258,14,4,61,2
2420,-11,-256,13,4,58,1
2425,-9,-256,9,6,57,-1
2430,-9,-255,16,6,58,-2
2435,-9,-257,12,7,58,-2
2440,-8,-258,12,7,58,-4
2445,-11,-255,13,6,56,-5
2450,-8,-258,11,6,59,-6
2455,-8,-255,13,6,59,-8
2460,-10,-254,9,5,59,-9
2465,-6,-255,13,6,58,-9
2470,-9,-256,12,7,59,-11
2475,-8,-256,13,9,57,-11
2480,-9,-258,12,11,57,-9
2485,-7,-255,10,12,56,-11
2490,-10,-256,11,13,55,-12
2495,-10,-254,10,13,54,-13
2500,-7,-257,10,15,56,-11
2505,-10,-255,12,14,57,-12
2510,-9,-256,10,12,58,-12
2515,-11,-253,11,13,60,-11
2520,-10,-257,11,13,63,-8
2525,-9,-256,16,12,64,-8
2530,-10,-255,13,12,66,-9
2535,-9,-254,17,11,67,-9
2540,-10,-256,13,12,69,-8
2545,-9,-257,12,13,70,-9
2550,-8,-255,13,15,69,-8
2555,-10,-256,12,15,68,-7
2560,-8,-257,12,15,67,-8
2565,-7,-257,13,14,66,-6
2570,-6,-257,12,14,66,-8
2575,-13,-265,16,15,66,-8
2580,-11,-253,14,15,66,-7
2585,-7,-253,14,16,67,-7
2590,-12,-254,10,16,66,-7
2595,-10,-256,20,18,67,-8
2600,-9,-255,13,20,68,-8
2605,-8,-257,15,21,70,-8
2610,-7,-256,14,24,70,-8
2615,-10,-259,15,28,72,-9
2620,-11,-256,16,28,72,-10
2625,-10,-256,14,28,74,-9
2630,-8,-253,12,27,76,-9
2635,-9,-255,12,26,78,-9
2640,-10,-255,13,24,80,-7
2645,-12,-255,12,25,80,-7
2650,-8,-256,14,25,79,-7
2655,-9,-260,13,25,78,-7
2660,-9,-256,13,24,76,-7
2665,-9,-253,13,28,75,-8
2670,-8,-254,15,26,74,-8
2675,-12,-254,16,22,72,-9
2680,-7,-253,14,19,72,-8
2685,-5,-258,17,16,76,-8
2690,-8,-255,19,14,79,-9
2695,-9,-253,18,12,82,-8
2700,-9,-255,16,12,85,-7
2705,-9,-255,16,13,86,-8
2710,-9,-255,14,17,87,-8
2715,-11,-255,19,20,85,-7
2720,-8,-256,14,22,85,-7
2725,-11,-257,19,24,85,-5
2730,-9,-258,14,25,85,-4
2735,-9,-259,20,22,87,-3
2740,-8,-260,17,22,90,-1
2745,-9,-258,20,25,93,0
2750,-8,-259,18,28,95,1
2755,-7,-256,17,33,95,2
2760,-8,-255,16,38,94,3
2765,-7,-253,12,43,90,3
2770,-4,-251,15,47,87,2
2775,-8,-253,12,47,82,3
2780,-5,-252,11,47,78,0
2785,-8,-252,13,48,79,0
2790,-10,-254,13,46,80,-1
2795,-11,-255,14,45,83,-4
2800,-14,-256,15,44,86,-4
2805,-11,-252,15,41,89,-5
2810,-12,-253,16,39,91,-4
2815,-8,-256,17,35,94,-5
2820,-10,-252,19,33,94,-5
2825,-12,-252,18,29,94,-4
2830,-12,-257,17,23,93,-4
2835,-9,-254,17,20,90,-4
2840,-6,-255,16,18,89,-4
2845,-5,-251,12,16,85,-2
2850,-9,-254,15,14,83,-3
2855,-7,-256,13,12,83,-3
2860,-11,-255,17,12,78,-1
2865,-10,-256,14,14,77,-2
2870,-10,-256,12,16,75,-3
2875,-14,-254,17,17,73,-2
2880,-7,-255,14,16,71,-2
2885,-8,-257,14,16,70,-2
2890,-10,-252,17,15,69,-1
2895,-10,-256,18,15,69,0
2900,-9,-256,15,14,69,0
2905,-13,-255,18,14,67,-1
2910,-11,-255,19,15,66,0
2915,-11,-251,18,13,64,-1
2920,-12,-259,16,12,62,0
2925,-12,-255,17,12,58,1
2930,-11,-257,14,11,56,0
2935,-11,-256,15,11,54,-1
2940,-12,-256,17,11,50,1
2945,-11,-257,14,10,49,1
2950,-12,-255,17,10,47,1
2955,-9,-251,19,11,45,1
2960,-12,-254,16,9,44,2
2965,-12,-251,19,8,43,1
2970,-10,-253,17,6,43,0
2975,-11,-255,17,2,42,-1
2980,-9,-255,19,0,40,-2
2985,-12,-257,17,-2,41,-2
2990,-8,-256,15,-5,40,-4
2995,-8,-257,19,-6,40,-2
3000,-8,-252,18,-8,39,-3
3005,-8,-256,14,-12,40,-3
3010,-10,-252,15,-15,40,-4
3015,-12,-253,20,-20,40,-4
3020,-10,-252,19,-24,42,-4
3025,-11,-254,16,-27,45,-5
3030,-4,-256,19,-29,45,-4
3035,-9,-254,20,-31,44,-5
3040,-7,-254,23,-30,42,-5
3045,-10,-255,17,-31,40,-6
3050,-5,-254,17,-30,37,-5
3055,-6,-256,19,-31,33,-5
3060,-8,-257,20,-32,32,-6
3065,-18,-254,13,-32,30,-6
3070,-7,-252,19,-33,29,-6
3075,-11,-255,16,-35,26,-4
3080,-10,-255,18,-35,26,-1
3085,-10,-252,13,-35,26,-2
3090,-11,-253,15,-35,27,-2
3095,-9,-257,21,-35,29,1
3100,-7,-255,18,-37,29,0
3105,-8,-253,17,-37,28,2
3110,-11,-252,19,-39,28,1
3115,-10,-252,18,-38,27,2
3120,-10,-257,17,-40,27,0
3125,-7,-252,20,-43,25,2
3130,-8,-255,17,-44,25,3
3135,-10,-255,20,-48,24,3
3140,-9,-256,15,-50,24,4
3145,-9,-254,18,-51,23,5
3150,-9,-253,15,-51,22,5
3155,-11,-255,15,-54,21,5
3160,-8,-253,18,-55,21,8
3165,-8,-252,20,-55,22,8
3170,-12,-253,13,-56,21,6
3175,-10,-251,17,-57,18,8
3180,-9,-252,19,-60,16,5
3185,-9,-254,18,-63,16,7
3190,-8,-253,21,-66,16,8
3195,-10,-254,16,-69,14,8
3200,-7,-254,18,-72,15,7
3205,-8,-255,16,-75,15,4
3210,-9,-255,17,-77,14,4
3215,-9,-256,18,-77,15,4
3220,-12,-253,15,-75,16,3
3225,-10,-257,18,-73,16,2
3230,-8,-255,18,-70,18,2
3235,-8,-258,16,-68,17,2
3240,-6,-256,17,-67,20,2
3245,-11,-253,17,-66,21,1
3250,-6,-255,16,-67,20,0
3255,-9,-256,17,-66,20,1
3260,-7,-256,16,-65,20,0
3265,-8,-253,15,-63,20,0
3270,-7,-257,20,-61,18,0
3275,-9,-255,16,-58,18,0
3280,-10,-247,27,-58,19,-1
3285,-11,-253,16,-56,19,-2
3290,-8,-255,17,-55,21,1
3295,-8,-255,16,-55,19,-2
3300,-9,-258,18,-54,17,-1
3305,-7,-255,20,-52,14,-3
3310,-2,-257,12,-49,10,-3
3315,-9,-255,16,-47,6,-3
3320,-8,-250,12,-50,4,-5
3325,-8,-251,14,-55,4,-6
3330,-10,-255,14,-64,9,-7
3335,-10,-252,14,-72,16,-6
3340,-9,-254,14,-80,26,-6
3345,-8,-252,19,-84,34,-7
3350,-9,-253,15,-86,42,-5
3355,-9,-255,13,-84,47,-4
3360,-8,-258,17,-77,47,-4
3365,-3,-259,15,-70,45,-2
3370,-9,-256,15,-64,41,-2
3375,-9,-256,17,-61,39,1
3380,-8,-258,13,-58,34,3
3385,-6,-257,11,-57,30,3
3390,-9,-254,15,-60,26,5
3395,-8,-257,7,-63,25,7
3400,-8,-256,11,-63,24,8
3405,-10,-254,12,-62,24,9
3410,-9,-252,12,-58,24,7
3415,-8,-253,15,-55,28,8
3420,-6,-252,10,-52,28,6
3425,-10,-252,16,-50,31,2
3430,-8,-254,16,-51,33,1
3435,-9,-253,14,-53,36,1
3440,-10,-254,13,-54,38,1
3445,-9,-254,14,-55,39,2
3450,-9,-256,12,-57,42,5
3455,-10,-255,10,-58,45,7
3460,-7,-257,12,-62,46,7
3465,-10,-256,14,-63,49,10
3470,-9,-257,10,-64,51,12
3475,-5,-257,15,-61,52,12
3480,-9,-256,8,-59,51,12
3485,-5,-257,16,-57,47,11
3490,-4,-257,13,-52,48,11
3495,-11,-256,16,-48,45,11
3500,-11,-250,10,-47,42,10
3505,-9,-255,14,-43,42,10
3510,-11,-255,12,-45,41,9
3515,-8,-253,12,-46,40,10
3520,-10,-258,13,-47,41,10
3525,-7,-258,10,-49,42,9
3530,-13,-254,11,-53,45,9
3535,-11,-254,10,-55,46,9
3540,-12,-253,16,-57,48,8
3545,-9,-256,12,-58,50,8
3550,-8,-257,10,-58,52,8
3555,-7,-258,11,-58,58,8
3560,-9,-256,13,-56,64,9
3565,-5,-256,13,-58,65,9
3570,-10,-257,14,-57,66,8
3575,-9,-258,11,-57,68,10
3580,-4,-258,15,-56,68,10
3585,-9,-256,11,-55,67,10
3590,-7,-258,12,-51,65,10
3595,-9,-258,10,-49,64,10
3600,-8,-257,11,-44,62,8
3605,-5,-264,8,-40,59,6
3610,-10,-252,8,-40,57,7
3615,-10,-253,14,-40,56,6
3620,-10,-254,15,-44,55,6
3625,-4,-257,7,-46,55,4
3630,-7,-255,13,-50,56,6
3635,-10,-256,12,-50,56,5
3640,-10,-253,12,-50,56,4
3645,-9,-256,10,-49,57,3
3650,-8,-253,11,-49,57,2
3655,-9,-254,9,-49,59,0
3660,-10,-255,13,-50,59,-1
3665,-10,-254,10,-51,60,-2
3670,-12,-255,12,-51,62,-2
3675,-10,-253,12,-54,66,-3
3680,-9,-255,7,-55,67,-3
3685,-10,-255,10,-56,69,-2
3690,-12,-253,11,-54,70,-2
3695,-13,-252,13,-54,69,-2
3700,-9,-255,9,-53,69,-3
3705,-10,-253,12,-52,69,-1
3710,-9,-254,11,-51,67,-1
3715,-13,-263,2,-53,66,-2
3720,-9,-257,14,-52,66,-3
3725,-8,-254,10,-53,65,-4
3730,-11,-255,9,-52,63,-4
3735,-11,-254,9,-53,64,-3
3740,-10,-253,9,-53,64,-4
3745,-5,-257,5,-51,63,-4
3750,-5,-259,8,-51,64,-4
3755,-10,-258,10,-51,64,-2
3760,-10,-255,11,-50,63,-2
3765,-9,-256,8,-47,64,-2
3770,-9,-260,8,-43,66,-3
3775,-9,-255,11,-40,66,-2
3780,-9,-255,3,-39,68,-3
3785,-11,-256,8,-37,69,-3
3790,-12,-254,10,-37,68,-4
3795,-11,-255,7,-37,69,-4
3800,-11,-255,12,-38,69,-3
3805,-12,-256,9,-36,68,-6
3810,-8,-261,9,-35,68,-6
3815,-9,-257,9,-34,68,-6
3820,-10,-259,9,-31,67,-5
3825,-10,-261,18,-28,68,-4
3830,-12,-253,8,-26,68,-3
3835,-8,-257,10,-23,66,-4
3840,-11,-253,8,-22,68,-4
3845,-10,-256,6,-20,68,-5
3850,-12,-253,9,-20,69,-4
3855,-9,-256,11,-19,69,-3
3860,-9,-253,10,-19,70,-3
3865,-9,-253,5,-20,71,-1
3870,-10,-255,7,-20,72,-2
3875,-10,-255,5,-19,72,-1
3880,-10,-255,3,-19,72,-1
3885,-9,-251,6,-18,75,0
3890,-8,-255,10,-18,73,-2
3895,-9,-256,8,-16,71,-5
3900,-6,-254,6,-12,73,-3
3905,-6,-258,6,-10,72,-3
3910,-10,-256,7,-9,73,-4
3915,-11,-254,7,-7,74,-4
3920,-12,-255,5,-6,74,-4
3925,-12,-258,6,-5,77,-2
3930,-12,-256,4,-4,77,-3
3935,-9,-249,5,-4,77,-2
3940,-11,-259,6,-3,77,-1
3945,-9,-257,11,-3,78,0
3950,-10,-257,8,-3,77,1
3955,-9,-255,5,-2,77,0
3960,-9,-254,5,-2,77,1
3965,-8,-252,3,-2,79,-2
3970,-11,-253,8,-4,82,-3
3975,-13,-252,10,-3,84,-4
3980,-7,-255,10,-4,87,-2
3985,-8,-256,10,-2,91,-3
3990,-11,-255,4,-1,95,-2
3995,-7,-257,3,3,96,-1
4000,-9,-259,7,7,94,-2
4005,-9,-256,12,9,93,-1
4010,-10,-257,7,9,91,-1
4015,-12,-254,5,9,88,-1
4020,-14,-255,3,7,86,1
4025,-9,-254,7,3,84,1
4030,-14,-257,6,-1,81,2
4035,-12,-256,8,-7,80,1
4040,-10,-258,2,-10,80,0
4045,-10,-253,8,-10,79,-1
4050,-11,-254,5,-7,79,-2
4055,-10,-254,7,-4,81,-4
4060,-13,-254,4,0,80,-5
4065,-10,-255,6,6,80,-4
4070,-12,-257,9,11,81,-6
4075,-11,-256,6,17,82,-7
4080,-11,-254,10,19,84,-8
4085,-11,-258,11,19,86,-7
4090,-7,-258,7,18,87,-6
4095,-12,-256,10,19,87,-4
4100,-10,-258,7,20,87,-2
4105,-11,-256,6,21,84,0
4110,-8,-257,8,22,84,0
4115,-12,-253,8,23,80,-1
4120,-11,-254,8,25,79,-2
4125,-8,-254,9,27,77,0
4130,-11,-257,10,27,77,0
4135,-12,-254,6,28,77,-1
4140,-12,-257,10,27,76,1
4145,-11,-257,7,27,77,0
4150,-15,-258,8,27,78,0
4155,-12,-254,6,26,78,2
4160,-14,-255,6,26,79,2
4165,-14,-258,8,25,79,2
4170,-10,-257,9,25,80,4
4175,-12,-258,9,25,80,4
4180,-11,-254,10,27,81,5
4185,-12,-257,11,26,81,3
4190,-13,-254,7,27,81,3
4195,-11,-259,9,28,81,4
4200,-13,-255,8,28,80,5
4205,-10,-258,9,27,79,5
4210,-9,-257,8,23,78,5
4215,-9,-255,9,23,78,6
4220,-6,-256,9,22,76,7
4225,-9,-255,9,20,76,6
4230,-11,-252,12,20,73,6
4235,-10,-254,12,22,72,6
4240,-11,-257,8,23,72,6
4245,-14,-255,8,25,70,6
4250,-12,-256,8,24,68,4
4255,-13,-253,9,22,68,4
4260,-19,-252,12,20,67,4
4265,-11,-255,9,18,65,4
4270,-13,-255,8,16,63,5
4275,-10,-253,8,16,61,6
4280,-10,-253,12,16,58,6
4285,-10,-254,10,15,57,4
4290,-12,-257,11,13,56,7
4295,-11,-255,8,14,57,7
4300,-12,-257,12,12,57,6
4305,-13,-256,11,9,58,6
4310,-13,-254,8,7,60,7
4315,-14,-253,10,6,60,7
4320,-9,-255,7,5,61,7
4325,-9,-257,7,3,60,8
4330,-12,-258,10,2,58,7
4335,-10,-254,7,2,57,7
4340,-11,-256,9,1,56,8
4345,-11,-255,4,1,55,9
4350,-15,-256,7,-1,52,8
4355,-12,-256,9,-1,50,7
4360,-12,-258,3,-2,49,7
4365,-11,-259,6,-4,47,9
4370,-11,-253,6,-7,47,8
4375,-15,-257,8,-11,47,10
4380,-12,-254,8,-14,49,10
4385,-13,-255,8,-16,50,11
4390,-14,-255,6,-17,51,10
4395,-14,-255,8,-17,52,10
4400,-13,-259,8,-19,49,9
4405,-12,-256,11,-20,47,8
4410,-10,-258,9,-21,47,8
4415,-15,-256,8,-21,45,7
4420,-14,-254,7,-20,43,5
4425,-9,-257,9,-19,43,5
4430,-7,-258,11,-16,44,4
4435,-9,-257,12,-13,45,5
4440,-10,-258,14,-13,45,5
4445,-12,-258,12,-13,47,5
4450,-8,-261,11,-15,48,4
4455,-11,-256,10,-16,50,6
4460,-10,-256,9,-17,51,4
4465,-9,-254,13,-17,50,3
4470,-10,-255,9,-17,50,1
4475,-8,-252,19,-17,48,-3
4480,-10,-254,8,-17,48,-4
4485,-7,-255,10,-17,47,-7
4490,-11,-252,10,-17,46,-9
4495,-7,-254,10,-18,45,-9
4500,-10,-255,11,-19,48,-11
4505,-12,-254,12,-20,51,-9
4510,-11,-251,10,-22,52,-7
4515,-8,-256,10,-23,51,-6
4520,-7,-256,11,-26,54,-5
4525,-5,-255,8,-27,55,-3
4530,-5,-256,13,-29,58,0
4535,-6,-259,10,-29,58,1
4540,-6,-259,9,-29,59,3
4545,-8,-260,11,-25,62,5
4550,-8,-259,12,-19,62,9
4555,-10,-259,14,-16,62,11
4560,-9,-257,11,-11,62,12
4565,-13,-257,9,-5,65,16
4570,-9,-258,8,1,72,20
4575,-9,-255,3,8,85,24
4580,-10,-253,9,14,98,25
4585,-6,-244,9,20,112,28
4590,-6,-251,7,20,122,28
4595,-8,-248,8,14,131,26
4600,-8,-251,10,1,134,22
4605,-7,-251,10,-14,135,19
4610,-4,-256,11,-26,132,16
4615,-7,-255,7,-35,127,13
4620,-7,-257,7,-38,123,11
4625,-7,-256,9,-39,118,10
4630,-4,-256,5,-38,115,15
4635,-7,-257,9,-38,115,18
4640,-11,-259,12,-38,117,20
4645,-10,-252,2,-38,117,22
4650,-13,-250,6,-38,119,24
4655,-11,-252,6,-40,119,22
4660,-11,-249,6,-43,121,22
4665,-15,-249,7,-47,122,21
4670,-9,-254,6,-53,121,21
4675,-13,-248,3,-57,121,18
4680,-9,-255,4,-57,120,15
4685,-8,-251,1,-58,121,14
4690,-8,-252,5,-59,124,13
4695,-1,-257,6,-58,127,10
4700,-6,-253,3,-55,128,5
4705,-9,-256,6,-49,129,2
4710,-5,-259,8,-42,134,-1
4715,-6,-261,7,-37,140,-4
4720,-7,-260,7,-33,147,-6
4725,-8,-261,4,-28,156,-6
4730,-8,-263,5,-27,162,-4
4735,-5,-265,3,-26,170,-2
4740,-6,-261,3,-23,176,3
4745,-9,-261,5,-22,179,6
4750,-9,-259,2,-17,179,9
4755,-7,-259,3,-12,177,9
4760,-10,-261,3,-7,173,9
4765,-11,-256,-1,-2,169,7
4770,-9,-255,-2,1,166,5
4775,-12,-251,-2,1,166,2
4780,-11,-254,2,0,165,0
4785,-14,-249,-1,-5,166,-2
4790,-12,-254,3,-9,166,-3
4795,-17,-250,2,-12,168,-1
4800,-13,-244,11,-17,168,0
4805,-14,-255,-2,-21,164,0
4810,-15,-256,0,-19,161,-2
4815,-13,-252,2,-18,151,-8
4820,-15,-252,1,-19,147,-3
4825,-15,-253,-1,-26,149,4
4830,-18,-252,-2,-31,148,9
4835,-16,-252,5,-33,146,11
4840,-17,-251,-3,-36,144,10
4845,-15,-251,-1,-43,145,12
4850,-15,-252,-3,-54,147,19
4855,-16,-249,-1,-69,150,24
4860,-16,-251,1,-79,148,28
4865,-15,-251,5,-87,143,32
4870,-15,-250,0,-87,134,33
4875,-13,-249,2,-82,126,38
4880,-15,-249,5,-75,114,43
4885,-16,-249,2,-62,102,43
4890,-13,-249,1,-51,91,43
4895,-15,-249,2,-43,84,42
4900,-17,-246,3,-38,79,40
4905,-15,-245,3,-42,79,38
4910,-10,-245,1,-48,81,31
4915,-12,-245,1,-59,83,26
4920,-13,-245,2,-74,91,26
4925,-16,-245,3,-83,95,15
4930,-11,-241,2,-98,94,3
4935,-13,-241,1,-115,103,5
4940,-12,-242,5,-129,109,4
4945,-15,-238,9,-136,110,-3
4950,-14,-239,7,-143,110,-8
4955,-12,-240,5,-148,107,-13
4960,-15,-237,5,-148,101,-27
4965,-12,-234,11,-147,95,-32
4970,-14,-234,10,-153,95,-32
4975,-13,-237,9,-161,98,-27
4980,-16,-236,6,-170,98,-24
4985,-17,-236,8,-178,95,-21
4990,-16,-239,6,-188,91,-16
4995,-18,-245,5,-194,84,-13
5000,-18,-246,4,-198,74,-12
5005,-17,-247,6,-201,68,-8
5010,-16,-248,0,-201,67,-6
5015,-13,-252,1,-202,67,-4
5020,-13,-249,4,-203,70,-5
5025,-12,-256,2,-206,78,-5
5030,-14,-256,1,-208,89,-5
5035,-11,-260,3,-211,101,-5
5040,-12,-260,3,-213,113,-3
5045,-12,-259,-2,-216,124,-2
5050,-10,-261,2,-219,136,-1
5055,-9,-262,-3,-222,144,-2
5060,-6,-260,-4,-219,149,-5
5065,-10,-257,-3,-216,157,-1
5070,-5,-262,-6,-209,163,2
5075,-8,-260,-13,-204,168,2
5080,-7,-257,-12,-198,173,4
5085,-8,-254,-10,-191,174,7
5090,-8,-255,-11,-186,176,7
5095,-5,-253,-11,-183,178,9
5100,-7,-251,-8,-183,178,6
5105,-10,-248,-12,-181,178,3
5110,-7,-245,-9,-185,175,3
5115,-7,-245,-8,-194,172,7
5120,-9,-240,-7,-208,174,12
5125,-15,-239,-8,-226,175,14
5130,-9,-240,-11,-247,174,19
5135,-7,-239,-7,-267,169,19
5140,-11,-237,-10,-282,164,22
5145,-12,-239,-8,-294,156,25
5150,-14,-244,-2,-306,147,28
5155,-13,-246,-2,-318,135,33
5160,-15,-248,0,-330,121,34
5165,-14,-249,4,-346,106,36
5170,-15,-252,-2,-363,93,38
5175,-13,-255,0,-380,82,40
5180,-14,-258,3,-399,73,41
5185,-16,-260,0,-413,66,41
5190,-16,-263,-2,-424,60,41
5195,-14,-263,-4,-432,55,38
5200,-15,-264,-3,-434,52,36
5205,-13,-265,-7,-432,47,32
5210,-15,-267,-8,-428,42,25
5215,-13,-266,-10,-418,39,17
5220,-12,-269,-11,-406,35,12
5225,-13,-266,-8,-393,32,7
5230,-17,-267,-12,-379,28,1
5235,-19,-270,-12,-365,26,-5
5240,-17,-268,-11,-356,24,-6
5245,-22,-264,-12,-350,24,-10
5250,-21,-264,-17,-348,24,-9
5255,-23,-264,-18,-348,27,-9
5260,-24,-263,-16,-348,31,-10
5265,-22,-260,-19,-345,35,-11
5270,-20,-257,-14,-339,43,-12
5275,-21,-259,-17,-331,49,-12
5280,-18,-255,-14,-321,54,-13
5285,-13,-253,-15,-313,60,-13
5290,-16,-250,-16,-302,62,-19
5295,-17,-246,-14,-294,64,-28
5300,-13,-242,-12,-292,66,-35
5305,-14,-245,-16,-293,66,-41
5310,-15,-244,-17,-300,68,-49
5315,-16,-243,-15,-310,67,-56
5320,-16,-242,-19,-320,65,-62
5325,-20,-239,-19,-331,60,-68
5330,-17,-247,-20,-338,53,-74
5335,-21,-245,-25,-345,44,-77
5340,-24,-231,-22,-350,35,-81
5345,-22,-240,-22,-352,23,-86
5350,-22,-236,-21,-351,13,-88
5355,-18,-235,-27,-349,0,-89
5360,-21,-235,-26,-345,-13,-90
5365,-23,-229,-24,-340,-27,-91
5370,-25,-224,-24,-335,-40,-94
5375,-21,-223,-22,-330,-54,-97
5380,-21,-219,-20,-324,-66,-95
5385,-22,-217,-21,-320,-78,-96
5390,-19,-214,-21,-321,-89,-92
5395,-13,-214,-20,-329,-96,-88
5400,-13,-215,-19,-339,-96,-79
5405,-15,-212,-16,-352,-99,-76
5410,-7,-215,-17,-366,-103,-70
5415,-10,-218,-15,-375,-104,-63
5420,-10,-220,-12,-377,-111,-60
5425,-11,-225,-16,-373,-118,-56
5430,-13,-226,-18,-366,-126,-50
5435,-18,-226,-16,-357,-132,-44
5440,-21,-229,-18,-348,-143,-39
5445,-23,-233,-19,-341,-151,-29
5450,-25,-230,-23,-331,-156,-17
5455,-26,-238,-24,-325,-157,-2
5460,-28,-239,-20,-319,-155,11
5465,-23,-239,-25,-312,-154,23
5470,-21,-241,-23,-303,-153,32
5475,-19,-243,-24,-293,-153,39
5480,-15,-244,-25,-280,-152,44
5485,-9,-245,-27,-271,-154,45
5490,-7,-250,-28,-263,-155,49
5495,-5,-249,-30,-261,-157,53
5500,-1,-255,-33,-267,-158,59
5505,-2,-257,-39,-278,-156,65
5510,0,-263,-40,-296,-148,71
5515,-2,-263,-48,-314,-137,76
5520,-3,-265,-46,-334,-125,74
5525,-5,-268,-51,-351,-115,73
5530,-8,-267,-50,-359,-103,77
5535,-6,-266,-56,-358,-92,81
5540,-5,-262,-49,-347,-79,87
5545,-7,-257,-53,-329,-68,92
5550,0,-258,-51,-307,-63,90
5555,0,-253,-43,-286,-63,86
5560,0,-245,-54,-266,-63,83
5565,-1,-247,-46,-251,-63,81
5570,-3,-246,-48,-247,-64,77
5575,-1,-246,-52,-254,-60,73
5580,-5,-248,-50,-270,-52,70
5585,-8,-247,-51,-293,-39,68
5590,-13,-253,-52,-322,-22,66
5595,-10,-257,-49,-351,-1,65
5600,-11,-266,-51,-379,25,66
5605,-16,-262,-52,-403,51,68
5610,-20,-270,-51,-418,75,75
5615,-23,-273,-48,-422,98,82
5620,-24,-274,-47,-410,118,92
5625,-22,-273,-48,-383,133,100
5630,-21,-272,-53,-349,142,105
5635,-21,-268,-52,-311,149,106
5640,-18,-263,-52,-274,151,106
5645,-20,-259,-56,-239,152,105
5650,-18,-255,-57,-212,150,104
5655,-22,-253,-59,-196,145,101
5660,-22,-250,-58,-191,140,96
5665,-17,-247,-53,-198,137,96
5670,-22,-249,-61,-218,137,95
5675,-23,-252,-63,-247,144,95
5680,-23,-254,-63,-279,151,92
5685,-22,-255,-63,-309,161,90
5690,-22,-260,-65,-336,167,88
5695,-23,-261,-61,-360,166,76
5700,-24,-260,-67,-377,160,64
5705,-19,-267,-64,-379,158,57
5710,-20,-269,-65,-366,150,48
5715,-20,-267,-63,-342,137,39
5720,-24,-266,-65,-309,126,32
5725,-22,-264,-67,-273,108,23
5730,-23,-263,-65,-239,87,11
5735,-21,-264,-68,-207,69,-3
5740,-23,-260,-67,-179,56,-5
5745,-20,-257,-70,-157,55,6
5750,-24,-256,-63,-136,60,16
5755,-23,-259,-64,-118,60,17
5760,-20,-255,-68,-106,60,18
5765,-22,-253,-63,-100,64,26
5770,-25,-256,-65,-96,64,25
5775,-27,-252,-72,-98,65,23
5780,-20,-252,-68,-100,73,36
5785,-19,-249,-69,-103,82,47
5790,-22,-251,-71,-110,89,51
5795,-24,-248,-74,-128,91,45
5800,-25,-248,-72,-151,91,42
5805,-30,-243,-80,-183,76,17
5810,-26,-230,-78,-226,59,-14
5815,-23,-228,-76,-268,63,-5
5820,-24,-225,-80,-295,70,11
5825,-23,-223,-78,-318,81,13
5830,-25,-220,-77,-352,91,7
5835,-25,-218,-75,-388,108,14
5840,-24,-220,-70,-422,127,22
5845,-22,-219,-68,-452,144,31
5850,-24,-220,-69,-471,157,38
5855,-21,-224,-66,-484,169,48
5860,-25,-224,-71,-495,180,56
5865,-22,-232,-70,-508,191,63
5870,-22,-232,-76,-524,200,65
5875,-26,-236,-79,-550,207,70
5880,-29,-233,-84,-580,213,78
5885,-21,-232,-84,-611,221,93
5890,-27,-240,-82,-634,226,113
5895,-30,-240,-83,-654,226,133
5900,-30,-245,-84,-667,223,156
5905,-32,-245,-82,-672,215,177
5910,-32,-249,-88,-668,203,196
5915,-30,-247,-90,-659,188,215
5920,-29,-249,-89,-647,171,228
5925,-31,-248,-90,-633,159,239
5930,-27,-248,-89,-619,149,246
5935,-25,-249,-90,-602,145,250
5940,-26,-251,-90,-583,147,250
5945,-24,-250,-87,-562,151,247
5950,-23,-247,-86,-539,163,246
5955,-26,-246,-85,-514,181,241
5960,-23,-247,-80,-494,202,234
5965,-18,-249,-81,-482,226,223
5970,-13,-249,-82,-482,254,212
5975,-13,-248,-82,-494,286,201
5980,-15,-245,-82,-517,315,188
5985,-12,-247,-82,-545,342,177
5990,-8,-248,-76,-575,364,167
5995,-17,-249,-86,-602,381,157
6000,-22,-249,-84,-626,389,149
6005,-25,-248,-86,-640,389,143
6010,-27,-249,-88,-639,382,139
6015,-31,-246,-86,-617,370,137
6020,-38,-240,-87,-572,354,141
6025,-40,-240,-89,-515,333,145
6030,-39,-235,-89,-452,310,152
6035,-40,-228,-86,-394,287,160
6040,-39,-224,-85,-348,267,169
6045,-37,-219,-84,-325,253,177
6050,-37,-217,-84,-320,245,186
6055,-36,-211,-80,-334,237,188
6060,-35,-211,-79,-363,235,191
6065,-31,-208,-78,-398,235,191
6070,-29,-215,-84,-438,238,189
6075,-33,-217,-77,-476,236,176
6080,-25,-217,-81,-530,210,130
6085,-22,-217,-84,-570,210,120
6090,-21,-223,-87,-584,231,123
6095,-24,-224,-94,-575,251,126
6100,-13,-225,-90,-552,263,126
6105,-22,-232,-98,-521,271,122
6110,-23,-235,-96,-489,279,118
6115,-23,-238,-93,-455,284,116
6120,-23,-240,-90,-423,286,115
6125,-24,-239,-91,-400,292,114
6130,-24,-241,-90,-377,294,111
6135,-20,-238,-88,-358,298,109
6140,-19,-240,-87,-336,301,104
6145,-19,-236,-89,-312,304,102
6150,-20,-235,-89,-287,304,103
6155,-23,-233,-93,-267,305,102
6160,-20,-229,-97,-248,300,100
6165,-23,-225,-97,-236,296,98
6170,-26,-227,-96,-229,290,98
6175,-30,-221,-93,-227,284,100
6180,-31,-215,-95,-225,284,106
6185,-34,-214,-96,-219,278,109
6190,-34,-216,-95,-211,268,105
6195,-31,-217,-98,-200,262,108
6200,-33,-217,-97,-179,255,114
6205,-35,-223,-100,-154,248,115
6210,-36,-220,-97,-131,237,111
6215,-38,-229,-101,-118,224,109
6220,-33,-229,-107,-113,218,109
6225,-38,-232,-99,-124,212,108
6230,-35,-236,-103,-147,209,106
6235,-35,-242,-95,-172,209,110
6240,-41,-242,-97,-192,207,103
6245,-36,-247,-97,-206,199,92
6250,-35,-247,-98,-201,189,81
6255,-42,-248,-96,-172,180,77
6260,-40,-250,-99,-120,170,75
6265,-41,-248,-105,-59,154,70
6270,-41,-245,-110,-1,138,61
6275,-40,-240,-113,41,123,53
6280,-39,-236,-117,68,113,44
6285,-39,-236,-117,79,112,33
6290,-38,-236,-119,77,115,23
6295,-40,-233,-114,68,122,16
6300,-40,-233,-119,56,130,10
6305,-40,-237,-114,47,131,7
6310,-45,-237,-114,47,130,5
6315,-51,-236,-114,50,125,4
6320,-56,-236,-117,58,118,6
6325,-55,-241,-119,67,111,8
6330,-59,-240,-120,80,105,14
6335,-61,-241,-121,93,98,22
6340,-63,-240,-121,106,93,32
6345,-61,-238,-116,117,87,38
6350,-57,-240,-120,120,82,43
6355,-54,-235,-120,117,77,46
6360,-54,-234,-123,105,73,46
6365,-48,-233,-120,83,71,45
6370,-45,-236,-121,59,73,40
6375,-38,-240,-123,32,77,35
6380,-36,-245,-126,2,84,29
6385,-34,-248,-127,-23,94,19
6390,-36,-250,-128,-45,106,11
6395,-32,-258,-125,-54,116,2
6400,-38,-265,-125,-53,125,-4
6405,-37,-267,-122,-38,132,-9
6410,-41,-268,-128,-10,136,-18
6415,-45,-267,-126,32,136,-23
6420,-48,-267,-123,80,135,-26
6425,-48,-267,-126,131,134,-28
6430,-47,-259,-138,177,134,-27
6435,-50,-260,-123,217,137,-28
6440,-50,-254,-124,244,141,-29
6445,-53,-252,-122,261,147,-31
6450,-52,-250,-119,265,154,-34
6455,-55,-249,-119,258,164,-39
6460,-52,-248,-122,242,175,-44
6465,-54,-245,-116,227,185,-51
6470,-56,-248,-120,214,195,-56
6475,-55,-248,-121,207,201,-61
6480,-61,-245,-118,204,203,-65
6485,-57,-246,-119,208,202,-68
6490,-56,-248,-119,214,201,-71
6495,-57,-251,-116,224,199,-70
6500,-58,-247,-121,230,200,-65
6505,-58,-247,-120,231,202,-58
6510,-55,-248,-116,228,208,-53
6515,-55,-247,-115,223,214,-47
6520,-55,-249,-111,218,224,-43
6525,-52,-247,-112,217,232,-41
6530,-54,-245,-113,222,238,-42
6535,-51,-249,-115,224,244,-41
6540,-54,-244,-113,226,249,-42
6545,-53,-242,-110,225,255,-44
6550,-57,-237,-109,222,260,-45
6555,-54,-237,-112,215,267,-46
6560,-55,-234,-110,203,273,-42
6565,-57,-234,-106,185,284,-41
6570,-55,-233,-112,165,295,-38
6575,-56,-231,-107,142,307,-36
6580,-55,-236,-104,121,317,-36
6585,-57,-236,-108,103,327,-38
6590,-56,-241,-105,88,333,-39
6595,-57,-243,-103,77,339,-40
6600,-58,-245,-105,74,344,-40
6605,-61,-244,-103,81,343,-38
6610,-63,-244,-105,97,343,-35
6615,-65,-240,-108,121,343,-30
6620,-66,-237,-101,143,345,-24
6625,-65,-234,-102,164,349,-15
6630,-64,-229,-99,177,352,-7
6635,-64,-226,-98,187,353,1
6640,-63,-222,-97,190,355,7
6645,-64,-224,-100,191,354,8
6650,-64,-221,-93,186,353,6
6655,-67,-220,-92,176,356,2
6660,-65,-219,-90,157,362,-2
6665,-65,-223,-97,137,374,-8
6670,-65,-220,-92,118,390,-16
6675,-62,-225,-95,101,410,-24
6680,-64,-225,-92,93,431,-33
6685,-61,-230,-94,93,452,-43
6690,-61,-230,-88,101,471,-54
6695,-63,-231,-92,116,486,-65
6700,-62,-231,-88,140,500,-75
6705,-64,-233,-92,165,512,-85
6710,-64,-232,-90,191,523,-97
6715,-66,-226,-91,215,532,-108
6720,-68,-226,-91,236,541,-120
6725,-70,-223,-88,254,548,-128
6730,-69,-215,-86,269,553,-134
6735,-68,-217,-87,275,556,-139
6740,-69,-217,-87,280,558,-141
6745,-71,-213,-82,280,561,-145
6750,-71,-215,-79,278,563,-151
6755,-66,-210,-71,275,569,-157
6760,-63,-212,-80,273,580,-166
6765,-65,-210,-78,271,592,-173
6770,-64,-213,-81,271,605,-184
6775,-64,-213,-81,271,617,-194
6780,-66,-209,-82,272,627,-207
6785,-68,-205,-84,274,637,-216
6790,-66,-207,-87,273,644,-227
6795,-67,-206,-84,265,653,-235
6800,-68,-206,-84,252,660,-245
6805,-69,-205,-82,240,667,-252
6810,-69,-203,-78,231,676,-261
6815,-66,-202,-80,228,686,-265
6820,-64,-202,-75,228,699,-266
6825,-64,-199,-74,235,714,-265
6830,-63,-196,-76,243,734,-265
6835,-57,-196,-78,249,758,-263
6840,-53,-196,-73,253,784,-258
6845,-51,-194,-80,252,809,-252
6850,-53,-191,-77,250,831,-246
6855,-55,-188,-78,242,850,-241
6860,-54,-186,-73,230,867,-233
6865,-56,-181,-74,214,888,-225
6870,-59,-180,-71,196,914,-208
6875,-57,-176,-75,176,950,-182
6880,-55,-175,-77,156,988,-152
6885,-52,-179,-78,138,1031,-120
6890,-53,-179,-75,126,1076,-85
6895,-50,-181,-76,116,1121,-52
6900,-46,-183,-79,115,1168,-17
6905,-44,-185,-72,117,1214,12
6910,-45,-186,-71,129,1255,34
6915,-40,-190,-73,155,1294,47
6920,-43,-191,-74,195,1330,49
6925,-45,-185,-75,249,1365,44
6930,-45,-182,-81,309,1402,31
6935,-47,-173,-82,362,1442,17
6940,-44,-165,-81,402,1487,6
6945,-42,-150,-83,422,1541,-3
6950,-35,-139,-84,423,1604,-9
6955,-29,-128,-89,406,1670,-16
6960,-23,-126,-89,377,1745,-24
6965,-18,-113,-89,332,1821,-30
6970,-10,-109,-86,274,1902,-37
6975,-4,-108,-86,207,1982,-41
6980,3,-108,-83,140,2060,-46
6985,9,-107,-82,88,2132,-53
6990,16,-111,-81,54,2200,-65
6995,20,-112,-82,40,2266,-80
7000,25,-119,-85,36,2331,-102
7005,29,-120,-89,33,2395,-129
7010,26,-125,-92,28,2457,-162
7015,24,-129,-94,20,2515,-191
7020,26,-135,-91,15,2565,-220
7025,17,-142,-91,15,2605,-250
7030,17,-148,-84,32,2639,-274
7035,14,-159,-84,68,2663,-300
7040,14,-169,-81,125,2683,-323
7045,18,-175,-72,202,2703,-343
7050,20,-181,-70,292,2727,-369
7055,28,-188,-64,391,2760,-401
7060,33,-193,-63,492,2803,-440
7065,43,-211,-58,593,2859,-496
7070,49,-218,-50,682,2921,-563
7075,55,-236,-48,778,2991,-626
7080,60,-244,-31,901,3068,-689
7085,64,-261,-29,1062,3147,-738
7090,71,-286,-19,1259,3213,-789
7095,76,-302,-20,1468,3249,-877
7100,75,-301,-19,1692,3256,-983
7105,89,-300,-26,1962,3250,-1077
7110,108,-295,-28,2227,3244,-1174
7115,129,-285,-23,2476,3249,-1279
7120,165,-282,-27,2697,3270,-1381
7125,208,-281,-21,2851,3294,-1479
7130,257,-286,-30,2940,3315,-1607
7135,315,-298,-34,2957,3326,-1771
7140,374,-345,-42,2924,3326,-1970
7145,417,-411,-46,2854,3315,-2192
7150,454,-487,-25,2792,3289,-2414
7155,488,-572,-4,2798,3233,-2615
7160,503,-641,28,2894,3140,-2782
7165,488,-696,51,3054,3026,-2903
7170,463,-733,83,3241,2915,-2960
7175,424,-733,111,3428,2816,-2944
7180,374,-731,134,3610,2710,-2856
7185,317,-718,154,3763,2557,-2785
7190,280,-670,164,3912,2366,-2746
7195,247,-612,158,4051,2164,-2730
7200,202,-551,152,4092,1949,-2745
7205,152,-475,156,3973,1687,-2831
7210,126,-373,159,3647,1352,-3010
7215,114,-264,166,3076,999,-3197
7220,115,-174,173,2288,696,-3301
7225,103,-114,173,1420,497,-3328
7230,87,-86,166,651,420,-3325
7235,53,-82,156,115,460,-3325
7240,34,-95,138,-155,578,-3317
7245,24,-109,145,-201,751,-3301
7250,18,-118,144,-66,945,-3249
7255,30,-127,130,181,1131,-3115
7260,46,-131,109,472,1286,-2939
7265,56,-141,96,764,1395,-2764
7270,66,-142,69,1070,1449,-2615
7275,80,-142,50,1348,1440,-2491
7280,105,-150,45,1579,1383,-2397
7285,118,-150,54,1755,1300,-2309
7290,121,-148,65,1873,1230,-2213
7295,110,-142,74,1921,1193,-2103
7300,93,-138,79,1908,1189,-1973
7305,75,-123,86,1859,1203,-1827
7310,62,-112,92,1786,1226,-1677
7315,53,-105,87,1711,1266,-1531
7320,46,-99,79,1663,1320,-1404
7325,43,-95,78,1661,1383,-1306
7330,51,-94,86,1704,1422,-1240
7335,62,-91,104,1773,1418,-1197
7340,75,-82,119,1848,1376,-1159
7345,89,-75,136,1906,1313,-1116
7350,102,-70,152,1932,1244,-1068
7355,119,-63,167,1927,1181,-1013
7360,131,-63,174,1903,1134,-960
7365,146,-68,182,1883,1116,-917
7370,161,-77,175,1892,1123,-888
7375,181,-78,175,1938,1158,-877
7380,192,-81,168,2023,1226,-885
7385,191,-76,168,2125,1312,-895
7390,193,-66,182,2216,1395,-897
7395,178,-62,205,2289,1446,-892
7400,179,-60,233,2344,1446,-862
7405,157,-55,238,2419,1432,-832
7410,134,-49,217,2512,1407,-794
7415,113,-43,203,2572,1380,-751
7420,77,-38,182,2577,1353,-703
7425,79,-43,176,2529,1304,-644
7430,91,-45,178,2476,1252,-615
7435,102,-49,179,2454,1197,-636
7440,127,-41,173,2501,1132,-697
7445,153,-34,171,2625,1088,-788
7450,177,-19,166,2788,1059,-900
7455,200,3,169,2941,1042,-1015
7460,231,22,172,3051,1054,-1123
7465,255,49,185,3105,1106,-1224
7470,269,73,194,3105,1194,-1311
7475,283,85,196,3067,1305,-1380
7480,286,95,207,3017,1418,-1423
7485,277,99,203,2939,1521,-1424
7490,257,98,186,2845,1598,-1390
7495,229,97,174,2742,1633,-1333
7500,209,97,170,2628,1638,-1259
7505,192,102,177,2510,1671,-1174
7510,175,108,181,2384,1757,-1089
7515,175,107,194,2265,1881,-1014
7520,166,122,193,2183,2012,-956
7525,178,136,189,2119,2112,-890
7530,192,146,195,2069,2200,-796
7535,213,163,210,2036,2273,-695
7540,232,184,221,2015,2310,-587
7545,246,197,239,2007,2289,-476
7550,254,217,236,2004,2214,-367
7555,252,235,235,1932,2111,-266
7560,260,256,227,1814,2031,-158
7565,263,266,221,1594,2045,-69
7570,254,262,222,1226,2123,-20
7575,208,256,227,763,2267,-4
7580,165,233,226,319,2428,22
7585,127,205,222,-3,2574,70
7590,96,167,213,-175,2663,129
7595,77,137,213,-196,2714,189
7600,49,114,221,-127,2751,248
7605,29,88,227,-21,2762,323
7610,3,71,227,79,2751,383
7615,-21,57,227,135,2720,429
7620,-48,52,219,141,2652,457
7625,-76,48,217,118,2560,465
7630,-103,51,214,95,2432,474
7635,-112,53,212,80,2287,496
7640,-123,60,202,56,2146,489
7645,-113,65,202,12,1991,460
7650,-114,72,201,-54,1831,416
7655,-112,84,211,-139,1650,361
7660,-97,93,203,-236,1453,301
7665,-86,103,212,-346,1288,249
7670,-77,105,220,-437,1151,206
7675,-72,113,219,-501,1016,168
7680,-64,108,211,-549,906,137
7685,-59,107,211,-566,827,121
7690,-62,102,216,-557,776,120
7695,-58,94,218,-542,733,115
7700,-57,91,225,-532,700,114
7705,-58,85,230,-524,667,113
7710,-52,90,236,-517,636,103
7715,-48,96,247,-528,622,105
7720,-53,96,242,-567,614,119
7725,-50,98,241,-619,605,125
7730,-62,95,243,-664,585,121
7735,-62,93,243,-663,551,112
7740,-59,89,244,-604,500,98
7745,-55,88,238,-499,429,78
7750,-45,94,234,-381,346,55
7755,-37,104,228,-277,270,28
7760,-25,113,226,-200,201,4
7765,-15,123,220,-156,146,-19
7770,2,128,215,-143,110,-44
7775,9,136,207,-157,97,-69
7780,14,139,206,-191,100,-91
7785,23,136,202,-240,111,-105
7790,19,133,211,-298,118,-117
7795,13,131,217,-346,115,-123
7800,0,123,231,-372,99,-114
7805,-10,109,237,-371,66,-89
7810,-27,99,244,-359,36,-59
7815,-31,91,250,-342,18,-26
7820,-38,72,256,-315,19,7
7825,-44,61,261,-278,35,42
7830,-48,45,274,-223,66,80
7835,-49,34,291,-146,94,115
7840,-38,27,295,-52,120,136
7845,-24,22,302,46,133,149
7850,-6,27,294,141,132,150
7855,6,32,298,215,127,144
7860,21,38,288,273,102,128
7865,33,43,275,301,65,102
7870,42,49,267,307,38,78
7875,48,52,258,295,26,61
7880,46,52,255,277,27,52
7885,51,54,245,251,34,47
7890,48,57,244,227,56,39
7895,45,56,235,207,84,41
7900,47,58,231,195,113,53
7905,45,60,226,187,143,66
7910,51,55,225,166,178,67
7915,54,60,217,136,218,53
7920,58,56,216,94,250,28
7925,57,54,213,49,278,-8
7930,55,49,216,-1,299,-40
7935,51,44,215,-52,310,-75
7940,42,35,217,-100,305,-112
7945,42,25,216,-142,294,-140
7950,27,19,226,-170,285,-163
7955,22,12,231,-184,275,-175
7960,6,9,239,-182,261,-175
7965,-5,6,246,-165,233,-162
7970,-13,0,249,-144,197,-134
7975,-21,0,255,-113,154,-101
7980,-25,-2,259,-82,106,-71
7985,-32,0,262,-53,58,-34
7990,-34,1,260,-23,9,8
7995,-27,6,262,15,-38,48
8000,-23,8,263,45,-83,79
8005,-19,15,261,67,-126,107
8010,-11,21,260,84,-163,131
8015,2,27,253,97,-191,149
8020,11,34,252,100,-211,158
8025,23,38,248,93,-217,156
8030,33,44,241,79,-214,151
8035,44,40,239,56,-208,141
8040,49,36,236,28,-202,129
8045,60,36,236,7,-194,117
8050,55,38,237,-1,-182,101
8055,57,31,235,-6,-168,87
8060,55,25,234,-8,-151,79
8065,45,23,233,-11,-127,71
8070,40,16,235,-20,-102,72
8075,34,11,237,-21,-75,76
8080,29,9,237,-19,-54,84
8085,24,8,235,-12,-39,95
8090,18,7,235,-3,-34,109
8095,12,1,236,15,-39,118
8100,9,-1,234,44,-52,121
8105,8,0,234,75,-71,121
8110,8,5,232,104,-92,121
8115,5,6,234,126,-114,120
8120,5,10,234,145,-132,120
8125,7,8,234,158,-150,122
8130,8,11,237,166,-164,127
8135,6,11,237,170,-173,133
8140,9,15,239,168,-181,141
8145,10,16,242,165,-185,150
8150,10,17,244,163,-187,160
8155,7,19,245,165,-188,171
8160,12,23,242,171,-188,183
8165,11,21,246,178,-185,197
8170,14,24,249,181,-184,209
8175,12,27,251,178,-182,220
8180,13,29,249,173,-178,230
8185,15,26,249,168,-174,238
8190,19,30,250,161,-169,244
8195,17,31,248,159,-164,245
8200,19,31,247,157,-157,247
8205,24,36,250,161,-151,244
8210,24,38,244,165,-143,239
8215,28,37,244,169,-137,234
8220,31,39,245,171,-130,224
8225,34,39,241,169,-119,215
8230,37,45,240,165,-112,203
8235,38,45,240,158,-101,191
8240,39,49,237,147,-92,179
8245,44,47,239,134,-84,170
8250,45,51,237,119,-76,160
8255,45,50,244,99,-70,151
8260,48,56,235,80,-62,142
8265,48,56,238,55,-52,130
8270,45,59,247,25,-44,121
8275,50,56,240,-1,-41,112
8280,51,57,239,-24,-39,106
8285,52,55,242,-43,-39,101
8290,50,58,238,-61,-38,96
8295,50,61,238,-79,-42,88
8300,53,58,238,-93,-47,84
8305,51,57,238,-100,-52,82
8310,54,54,237,-103,-56,79
8315,54,51,237,-106,-56,76
8320,55,53,237,-104,-56,73
8325,52,53,235,-106,-58,70
8330,51,53,236,-108,-56,71
8335,50,53,236,-113,-49,70
8340,54,51,238,-113,-43,71
8345,48,51,239,-113,-39,72
8350,50,48,238,-114,-43,71
8355,49,48,240,-114,-45,70
8360,51,48,241,-117,-52,69
8365,51,49,238,-114,-56,68
8370,52,51,240,-108,-55,66
8375,56,49,238,-98,-51,65
8380,60,56,247,-91,-41,66
8385,52,54,241,-79,-34,65
8390,57,54,238,-65,-27,62
8395,59,54,236,-63,-20,59
8400,56,56,237,-64,-9,57
8405,55,57,236,-57,-4,50
8410,55,56,239,-52,-8,40
8415,53,58,237,-47,-11,30
8420,52,61,234,-50,-7,23
8425,52,60,235,-55,-2,15
8430,49,55,234,-66,2,7
8435,53,54,234,-79,8,-1
8440,50,49,234,-86,21,-8
8445,49,50,237,-87,39,-10
8450,49,48,236,-88,54,-12
8455,50,49,237,-78,62,-15
8460,50,50,241,-68,71,-19
8465,54,44,241,-58,82,-21
8470,50,47,240,-55,93,-20
8475,51,45,236,-58,98,-20
8480,47,47,238,-66,100,-21
8485,38,39,231,-81,101,-21
8490,47,45,240,-94,95,-20
8495,45,39,241,-99,88,-20
8500,42,40,243,-96,83,-22
8505,43,38,242,-88,78,-23
8510,43,35,246,-77,75,-23
8515,46,36,241,-56,69,-24
8520,47,40,240,-32,64,-25
8525,45,36,242,-16,66,-24
8530,43,38,242,-7,73,-28
8535,47,38,237,4,76,-29
8540,49,40,237,16,78,-31
8545,47,42,238,17,82,-32
8550,47,41,237,20,87,-32
8555,48,38,239,21,90,-32
8560,47,41,237,19,92,-35
8565,46,38,238,17,94,-38
8570,45,39,240,18,97,-41
8575,41,41,235,19,102,-41
8580,42,35,240,16,106,-38
8585,43,37,238,16,105,-36
8590,41,37,237,7,107,-34
8595,34,45,229,-5,109,-31
8600,37,42,242,-19,107,-29
8605,38,44,242,-28,106,-29
8610,35,45,243,-37,105,-29
8615,35,44,242,-41,102,-29
8620,35,43,237,-45,99,-27
8625,37,42,238,-44,95,-28
8630,35,44,237,-45,94,-28
8635,37,43,235,-47,94,-27
8640,35,42,234,-49,99,-24
8645,35,41,238,-54,102,-23
8650,36,43,240,-55,104,-22
8655,40,42,248,-59,106,-23
8660,36,44,239,-66,108,-23
8665,37,44,240,-75,108,-24
8670,37,40,236,-82,105,-25
8675,34,44,235,-91,102,-24
8680,41,43,240,-105,102,-23
8685,37,42,243,-117,103,-18
8690,37,40,240,-113,101,-16
8695,38,35,241,-100,93,-17
8700,41,36,243,-86,84,-21
8705,40,40,253,-68,74,-21
8710,39,41,240,-52,68,-22
8715,35,39,241,-51,69,-20
8720,32,40,237,-49,69,-18
8725,35,40,241,-47,71,-18
8730,35,41,236,-49,74,-15
8735,37,40,235,-61,84,-12
8740,37,38,244,-66,89,-10
8745,36,41,239,-56,88,-9
8750,37,38,239,-54,90,-7
8755,37,40,245,-45,86,-6
8760,35,40,238,-32,80,-6
8765,36,40,240,-22,74,-4
8770,34,41,240,-18,69,-2
8775,37,40,239,-14,68,1
8780,36,39,239,-12,68,3
8785,36,41,240,-12,68,5
8790,37,40,240,-15,69,8
8795,37,39,243,-16,66,11
8800,34,38,240,-19,66,12
8805,39,39,241,-32,69,16
8810,38,38,245,-41,72,16
8815,37,38,242,-50,72,18
8820,40,40,238,-48,70,19
8825,40,42,243,-49,71,19
8830,40,40,244,-45,71,20
8835,40,40,243,-35,67,19
8840,40,41,243,-26,65,17
8845,42,42,242,-20,63,18
8850,44,41,240,-20,63,18
8855,41,43,242,-21,63,19
8860,42,44,238,-28,63,20
8865,43,40,240,-37,63,22
8870,43,42,240,-38,60,18
8875,44,38,241,-39,58,17
8880,41,44,242,-40,58,16
8885,44,40,239,-38,59,17
8890,42,40,242,-32,58,15
8895,42,42,239,-25,62,14
8900,46,42,237,-21,65,11
8905,42,42,239,-19,69,11
8910,42,41,242,-21,71,10
8915,43,43,238,-21,72,7
8920,43,43,236,-24,72,3
8925,47,46,243,-31,72,2
8930,44,41,242,-43,72,2
8935,41,42,245,-49,70,0
8940,42,40,240,-51,67,-2
8945,43,42,240,-50,67,-5
8950,44,39,242,-49,67,-3
8955,45,41,241,-46,70,-7
8960,40,44,242,-41,73,-9
8965,42,42,242,-30,76,-9
8970,41,44,240,-23,81,-13
8975,43,37,242,-23,83,-12
8980,40,40,242,-27,87,-13
8985,39,43,239,-31,90,-12
8990,37,41,241,-36,89,-11
8995,41,39,243,-42,86,-12
9000,41,38,241,-43,82,-12
9005,37,38,241,-41,78,-13
9010,40,35,240,-37,74,-14
9015,39,40,241,-31,72,-14
9020,39,34,236,-27,73,-14
9025,42,37,238,-23,72,-12
9030,48,37,245,-18,72,-13
9035,40,39,237,-14,72,-10
9040,39,38,237,-11,73,-10
9045,42,35,240,-9,75,-8
9050,38,42,240,-9,75,-6
9055,36,39,240,-10,75,-4
9060,38,39,242,-12,75,-4
9065,39,38,240,-13,73,-3
9070,41,38,241,-15,72,-4
9075,36,39,239,-18,73,-4
9080,39,38,237,-21,74,-2
9085,39,39,237,-30,78,-1
9090,38,36,241,-31,79,0
9095,41,40,240,-28,78,-1
9100,42,39,236,-29,80,2
9105,42,36,244,-37,85,6
9110,41,39,242,-28,81,6
9115,41,40,239,-17,76,2
9120,42,39,241,-14,73,2
9125,43,43,242,-13,72,2
9130,41,39,241,-14,68,2
9135,40,38,238,-12,64,1
9140,38,38,241,-10,61,1
9145,39,40,240,-12,57,0
9150,41,36,240,-14,56,-3
9155,43,40,241,-16,55,-4
9160,38,39,241,-20,55,-2
9165,37,39,237,-22,57,-2
9170,35,40,239,-28,59,-1
9175,37,41,242,-33,63,0
9180,38,35,239,-32,65,0
9185,41,37,244,-34,68,2
9190,38,41,243,-35,69,2
9195,38,37,240,-38,67,2
9200,37,38,239,-45,67,2
9205,32,41,241,-58,67,4
9210,36,36,240,-66,63,5
9215,37,37,247,-68,59,1
9220,35,39,242,-62,52,-2
9225,36,36,242,-53,48,-3
9230,37,34,243,-43,47,-2
9235,36,36,245,-37,48,-1
9240,38,36,241,-31,50,2
9245,41,34,239,-25,53,4
9250,34,32,236,-20,56,6
9255,38,37,241,-15,58,6
9260,37,38,240,-12,58,7
9265,40,39,240,-8,59,5
9270,41,37,237,-7,61,6
9275,39,36,241,-5,62,3
9280,41,39,239,-4,67,4
9285,42,39,239,-2,70,2
9290,39,38,240,-2,72,2
9295,38,38,239,-2,75,1
9300,39,37,239,-2,76,1
9305,39,38,240,-3,77,-1
9310,38,37,240,-2,77,0
9315,38,37,241,-4,77,1
9320,40,37,239,-9,75,1
9325,39,37,242,-17,76,3
9330,40,39,241,-27,77,2
9335,41,35,247,-42,76,3
9340,41,37,238,-53,75,5
9345,43,37,242,-60,74,4
9350,43,36,245,-61,74,4
9355,45,36,240,-61,74,3
9360,45,31,237,-60,75,3
9365,41,36,240,-60,76,5
9370,45,36,242,-58,82,4
9375,42,38,240,-59,89,4
9380,44,39,238,-61,94,4
9385,41,36,240,-64,97,4
9390,42,39,241,-66,99,4
9395,44,34,240,-66,99,5
9400,41,36,240,-65,96,5
9405,44,39,238,-64,92,6
9410,42,41,240,-62,90,5
9415,39,40,242,-60,85,5
9420,40,40,243,-57,82,6
9425,42,39,242,-53,77,6
9430,42,43,242,-51,75,5
9435,39,43,239,-48,73,5
9440,43,41,238,-51,72,6
9445,42,41,238,-54,72,5
9450,39,41,237,-57,72,5
9455,38,41,237,-61,72,5
9460,37,40,242,-63,72,5
9465,39,40,240,-67,73,6
9470,42,41,236,-69,72,5
9475,38,38,240,-70,72,5
9480,38,37,241,-71,72,6
9485,38,37,237,-71,72,5
9490,37,39,240,-72,73,6
9495,40,35,240,-72,74,6
9500,36,36,239,-72,73,6
9505,38,34,244,-70,73,6
9510,39,35,241,-68,72,5
9515,38,33,249,-65,72,4
9520,39,38,234,-63,72,3
9525,39,34,243,-61,74,3
9530,35,35,246,-60,75,3
9535,36,32,239,-60,78,2
9540,37,33,243,-61,80,1
9545,39,33,246,-60,79,3
9550,38,32,240,-59,78,2
9555,38,30,238,-59,79,3
9560,37,31,245,-57,77,4
9565,42,31,241,-54,78,3
9570,38,33,239,-50,78,4
9575,40,30,239,-46,78,6
9580,41,33,241,-46,75,6
9585,40,32,242,-48,72,6
9590,36,33,238,-52,70,5
9595,40,34,240,-57,68,5
9600,38,33,240,-61,64,4
9605,38,34,242,-65,62,5
9610,36,33,240,-64,61,4
9615,36,36,239,-63,59,5
9620,37,32,240,-61,56,4
9625,38,32,241,-58,54,3
9630,38,32,237,-58,52,2
9635,35,31,240,-59,51,0
9640,38,32,239,-61,51,-3
9645,36,32,239,-65,50,-5
9650,40,32,241,-71,52,-5
9655,38,31,242,-76,53,-5
9660,37,33,242,-79,53,-6
9665,36,31,240,-81,55,-4
9670,38,31,240,-81,56,-5
9675,40,29,241,-80,57,-4
9680,43,29,239,-77,60,-3
9685,39,28,242,-75,62,-5
9690,44,30,242,-71,66,-6
9695,41,33,241,-68,68,-4
9700,42,31,240,-65,69,-4
9705,42,32,243,-63,71,-3
9710,40,32,242,-61,74,-4
9715,40,34,238,-60,74,-3
9720,41,33,240,-61,75,-2
9725,41,34,240,-61,74,-1
9730,41,35,240,-63,72,-2
9735,40,34,237,-63,70,1
9740,40,32,240,-65,69,3
9745,41,33,237,-63,68,2
9750,41,31,242,-61,67,3
9755,44,33,240,-59,66,3
9760,39,29,239,-56,63,3
9765,39,35,239,-52,61,4
9770,42,30,239,-49,61,5
9775,40,30,240,-47,60,6
9780,40,30,241,-47,59,5
9785,42,31,242,-46,60,5
9790,44,32,245,-45,59,6
9795,42,30,237,-44,61,5
9800,40,32,240,-44,61,4
9805,42,31,241,-42,61,5
9810,41,32,240,-42,62,5
9815,42,29,240,-40,64,6
9820,41,31,241,-39,65,3
9825,43,30,242,-39,67,5
9830,38,34,239,-35,67,5
9835,40,34,241,-35,67,5
9840,43,33,241,-38,67,4
9845,40,33,241,-36,67,3
9850,42,29,241,-36,65,3
9855,39,31,243,-35,65,3
9860,40,31,239,-31,67,2
9865,39,32,239,-29,67,2
9870,40,30,241,-25,67,0
9875,41,27,242,-22,68,-1
9880,40,31,240,-18,68,-1
9885,37,33,239,-15,70,2
9890,38,33,238,-17,70,0
9895,39,33,239,-19,70,2
9900,38,31,241,-25,69,3
9905,40,43,238,-32,69,3
9910,37,34,245,-40,69,4
9915,38,32,244,-49,68,4
9920,39,33,244,-56,66,4
9925,37,33,246,-61,64,4
9930,37,30,242,-64,61,5
9935,38,32,249,-65,56,5
9940,40,25,240,-64,51,6
9945,38,25,240,-61,50,4
9950,37,22,241,-56,48,4
9955,39,26,248,-52,48,4
9960,39,25,247,-47,49,2
9965,39,25,239,-42,50,1
9970,37,24,244,-40,52,1
9975,40,26,242,-39,53,1
9980,41,25,247,-38,54,1
9985,38,30,239,-40,52,2
9990,44,29,241,-39,51,3
9995,43,22,243,-35,52,3
10000,44,25,237,-29,54,2
10005,43,28,241,-24,57,1
10010,44,28,239,-15,61,1
10015,35,27,233,-5,66,-1
10020,42,26,237,5,70,-4
10025,39,29,237,12,73,-6
10030,40,28,236,18,77,-6
10035,38,29,237,20,81,-8
10040,39,30,236,19,83,-6
10045,35,31,238,15,84,-7
10050,38,27,236,8,82,-6
10055,35,31,240,-2,79,-4
10060,33,31,240,-15,76,-2
10065,39,32,243,-31,73,-1
10070,34,30,243,-45,68,3
10075,38,28,246,-57,63,4
10080,43,23,245,-64,61,4
10085,41,28,242,-65,58,4
10090,42,24,247,-62,56,5
10095,43,27,243,-54,54,3
10100,38,29,243,-47,53,1
10105,42,28,240,-43,53,2
10110,40,29,242,-41,57,0
10115,40,25,240,-41,58,-1
10120,46,23,250,-40,61,0
10125,41,29,237,-40,64,0
10130,43,30,240,-40,66,0
10135,39,30,240,-37,66,0
10140,43,28,239,-32,66,-1
10145,40,28,243,-25,64,-1
10150,40,32,239,-19,61,-2
10155,40,32,244,-14,59,-4
10160,42,32,242,-12,54,-5
10165,41,36,238,-11,52,-6
10170,41,30,240,-13,50,-7
10175,40,30,238,-17,49,-8
10180,40,29,240,-21,49,-9
10185,39,28,244,-25,50,-6
10190,38,29,243,-27,52,-5
10195,40,31,242,-29,55,-4
10200,40,32,243,-31,57,-4
10205,42,30,237,-31,60,-5
10210,41,31,240,-31,63,-3
10215,41,29,240,-32,65,-3
10220,41,29,240,-34,68,-2
10225,41,28,243,-34,70,-1
10230,53,40,238,-34,71,-1
10235,43,27,240,-34,72,-2
10240,42,27,242,-34,72,-1
10245,45,29,240,-33,73,-3
10250,42,26,239,-32,73,1
10255,42,29,241,-34,72,-1
10260,41,29,242,-35,70,0
10265,42,28,242,-36,69,0
10270,39,29,242,-36,67,1
10275,41,29,243,-36,67,-1
10280,38,24,240,-35,64,0
10285,40,28,242,-35,66,0
10290,43,25,238,-34,65,0
10295,41,27,242,-35,67,-1
10300,43,26,243,-32,68,-2
10305,42,28,243,-29,69,-1
10310,43,28,241,-27,68,-3
10315,39,30,239,-23,69,-3
10320,40,28,240,-21,67,-3
10325,42,31,240,-21,69,-2
10330,43,28,239,-21,67,-4
10335,44,25,238,-22,67,-4
10340,40,27,250,-21,66,-4
10345,39,27,240,-19,66,-3
10350,38,25,240,-17,66,-3
10355,39,26,242,-15,65,-4
10360,40,26,238,-12,64,-5
10365,38,28,239,-10,63,-7
10370,39,29,244,-14,64,-5
10375,41,28,238,-21,64,-7
10380,38,25,240,-27,63,-8
10385,43,25,238,-36,63,-7
10390,40,29,239,-44,64,-7
10395,42,24,244,-51,65,-8
10400,40,27,243,-54,66,-5
10405,41,27,242,-53,67,-5
10410,41,25,241,-52,66,-4
10415,41,26,242,-46,66,-5
10420,39,28,242,-41,67,-4
10425,42,27,239,-36,66,-4
10430,39,27,238,-28,68,-6
10435,42,26,238,-21,68,-8
10440,41,23,241,-17,69,-7
10445,41,27,238,-13,71,-6
10450,37,30,239,-12,70,-6
10455,44,28,242,-12,72,-5
10460,41,24,239,-13,74,-3
10465,44,25,236,-10,75,-1
10470,43,26,237,-8,74,1
10475,44,27,239,-5,74,1
10480,42,27,236,0,73,2
10485,42,28,242,5,73,1
10490,43,27,239,8,72,2
10495,42,28,241,11,72,1
10500,42,29,241,13,72,0
10505,40,27,240,14,72,0
10510,44,25,241,13,72,0
10515,42,25,239,11,73,0
10520,42,27,241,9,74,-1
10525,42,28,241,6,76,-1
10530,39,29,244,5,77,-4
10535,41,24,241,4,77,-4
10540,42,26,244,2,81,-4
10545,43,26,241,2,82,-3
10550,41,26,243,2,83,-2
10555,42,19,230,6,83,-1
10560,37,27,240,5,81,-2
10565,41,24,243,4,80,-1
10570,44,29,241,5,79,0
10575,41,26,239,3,77,0
10580,43,26,240,4,77,-1
10585,41,28,240,4,75,-3
10590,42,26,244,4,73,-3
10595,41,26,238,3,70,-3
10600,41,27,241,3,69,-5
10605,37,26,239,0,68,-7
10610,38,31,241,-3,67,-8
10615,43,26,244,-8,65,-7
10620,39,29,242,-12,67,-6
10625,40,26,242,-17,66,-6
10630,39,28,241,-20,68,-7
10635,39,31,242,-21,68,-7
10640,39,27,240,-20,67,-6
10645,38,27,241,-20,68,-6
10650,37,28,241,-18,68,-4
10655,39,27,241,-14,68,-5
10660,38,28,241,-12,67,-4
10665,38,26,241,-9,68,-4
10670,40,25,239,-8,69,-2
10675,40,28,242,-7,72,-1
10680,40,27,241,-7,72,1
10685,38,26,240,-8,72,2
10690,42,26,242,-7,71,4
10695,43,27,241,-1,71,5
10700,41,26,245,5,71,5
10705,42,29,242,13,71,3
10710,42,30,240,22,71,3
10715,40,29,239,30,73,1
10720,38,27,240,36,77,1
10725,43,29,237,40,79,-1
10730,44,28,240,42,82,-3
10735,44,25,237,42,82,-1
10740,38,30,242,39,84,-1
10745,40,27,240,37,87,-2
10750,40,27,238,37,86,1
10755,37,30,238,34,85,0
10760,39,27,241,29,83,0
10765,40,25,245,22,81,2
10770,39,25,242,12,81,2
10775,35,19,246,3,78,1
10780,42,26,240,-3,78,2
10785,42,25,243,-5,78,0
10790,42,25,240,-3,78,0
10795,40,25,241,2,78,-3
10800,42,25,239,9,78,-3
10805,39,26,237,17,82,-3
10810,39,31,240,21,82,-4
10815,42,30,240,21,85,-5
10820,40,28,239,20,89,-4
10825,41,31,239,19,92,-5
10830,40,27,237,16,95,-5
10835,43,28,236,17,95,-6
10840,41,29,238,18,97,-5
10845,40,31,239,23,95,-6
10850,40,27,240,27,94,-6
10855,40,28,239,31,92,-6
10860,39,30,241,35,89,-6
10865,38,30,240,36,87,-6
10870,39,30,241,37,84,-8
10875,40,32,242,34,82,-8
10880,38,32,241,30,79,-7
10885,44,39,243,24,76,-5
10890,40,32,240,20,76,-5
10895,38,32,241,18,74,-4
10900,39,32,241,14,73,-3
10905,41,29,241,12,73,-4
10910,36,32,239,11,72,-3
10915,36,33,240,10,72,-4
10920,40,30,241,10,73,-3
10925,39,31,245,10,75,-4
10930,38,33,242,11,75,-6
10935,39,32,241,10,76,-5
10940,40,31,241,11,77,-5
10945,39,31,238,12,79,-5
10950,40,30,240,12,79,-4
10955,37,30,237,14,81,-4
10960,37,29,239,15,82,-5
10965,39,28,239,18,82,-4
10970,38,30,240,18,82,-6
10975,39,31,242,19,82,-5
10980,37,29,244,21,81,-5
10985,40,30,243,23,81,-5
10990,38,32,241,24,80,-6
10995,45,34,240,20,80,-6
11000,38,30,241,17,80,-7
11005,36,34,245,13,80,-5
11010,37,29,239,8,81,-4
11015,41,33,239,6,80,-3
11020,39,33,241,4,81,-1
11025,39,30,239,3,81,0
11030,41,29,242,3,79,-1
11035,41,31,240,3,77,-1
11040,40,30,241,3,76,-1
11045,40,31,243,2,73,-1
11050,43,30,239,0,71,-1
11055,40,34,240,0,69,-1
11060,38,28,240,-1,69,-1
11065,37,27,240,4,70,-1
11070,39,28,241,9,70,-2
11075,38,28,238,13,71,-4
11080,39,30,244,18,72,-4
11085,38,29,240,23,74,-5
11090,40,33,237,23,77,-5
11095,42,33,241,20,78,-5
11100,33,25,243,15,80,-4
11105,37,33,242,10,83,-4
11110,39,30,240,6,85,-3
11115,41,31,245,2,85,-3
11120,39,32,240,2,86,-2
11125,44,33,240,3,86,0
11130,40,36,239,8,87,1
11135,40,31,241,12,85,1
11140,38,35,243,19,82,2
11145,39,33,241,24,80,1
11150,41,36,242,27,77,1
11155,41,32,238,24,76,0
11160,41,31,239,21,77,0
11165,38,35,240,17,79,-1
11170,39,34,240,13,80,0
11175,39,30,238,10,81,1
11180,38,31,244,9,81,2
11185,40,33,241,6,81,3
11190,37,33,241,7,80,5
11195,36,30,242,9,78,5
11200,37,32,241,10,78,7
11205,39,29,241,11,78,8
11210,42,32,238,13,78,9
11215,40,32,240,14,77,9
11220,40,34,239,16,77,9
11225,36,36,239,17,77,8
11230,37,33,240,18,78,8
11235,39,31,239,18,77,8
11240,37,32,239,19,77,6
11245,38,33,240,19,76,3
11250,42,34,242,18,76,4
11255,39,32,246,14,77,2
11260,40,32,241,12,79,1
11265,42,34,240,10,79,3
11270,37,34,242,6,79,2
11275,41,34,243,4,80,2
11280,37,34,240,4,81,4
11285,38,31,240,3,80,4
11290,38,30,240,3,81,5
11295,37,33,240,4,79,5
11300,38,34,242,4,79,5
11305,37,30,241,4,78,3
11310,39,31,239,4,78,4
11315,38,31,241,4,79,5
11320,37,32,245,5,79,5
11325,37,33,240,5,82,5
11330,39,32,243,3,83,7
11335,40,34,239,2,85,5
11340,39,25,241,-1,89,3
11345,39,29,238,-3,93,5
11350,39,29,239,-5,95,5
11355,38,31,242,-5,99,5
11360,40,29,240,-5,101,6
11365,38,36,240,-4,104,7
11370,39,32,242,-1,106,8
11375,39,35,241,5,107,7
11380,36,35,237,9,106,9
11385,39,35,240,12,104,8
11390,34,37,238,15,100,11
11395,37,34,243,17,96,13
11400,36,38,237,20,94,14
11405,40,32,242,22,88,14
11410,36,35,239,25,83,16
11415,39,31,238,24,79,17
11420,36,36,239,24,77,18
11425,37,36,243,26,74,17
11430,36,44,238,25,72,18
11435,41,32,240,24,71,19
11440,36,35,246,24,71,17
11445,42,37,240,22,72,17
11450,37,34,241,21,72,15
11455,39,34,243,17,75,13
11460,40,36,239,16,76,12
11465,35,36,243,14,78,11
11470,35,34,245,11,78,9
11475,35,34,240,10,77,8
11480,34,36,242,10,76,8
11485,34,33,242,10,73,9
11490,37,33,240,9,71,7
11495,34,34,241,10,72,6
11500,33,32,241,11,72,6
11505,36,32,239,12,71,4
11510,32,32,243,12,72,3
11515,38,32,240,13,73,3
11520,35,35,240,13,73,2
11525,36,35,240,11,76,1
11530,35,34,242,7,78,2
11535,36,34,242,6,79,2
11540,39,31,248,5,79,2
11545,35,35,239,7,78,2
11550,38,35,239,7,78,2
11555,38,33,241,11,80,2
11560,37,34,239,16,80,0
11565,39,34,240,19,83,-2
11570,38,34,239,22,86,-1
11575,38,35,242,26,90,-1
11580,38,33,237,29,94,-1
11585,39,34,239,31,94,0
11590,35,34,239,33,91,0
11595,35,36,240,35,90,0
11600,30,33,237,32,87,-1
11605,33,34,238,30,84,-1
11610,36,32,241,27,80,-1
11615,36,31,245,23,78,-2
11620,35,35,241,19,77,-2
11625,33,35,242,19,78,1
11630,35,32,238,22,76,1
11635,38,31,240,26,75,0
11640,34,34,239,31,76,1
11645,37,27,240,32,75,2
11650,34,35,237,31,76,0
11655,38,37,239,28,76,0
11660,36,35,238,22,79,-2
11665,39,34,240,18,82,-3
11670,38,38,237,15,82,-3
11675,37,34,238,12,84,-4
11680,38,34,242,7,86,-3
11685,37,37,244,4,85,0
11690,38,37,242,0,82,2
11695,41,38,238,-2,78,3
11700,41,40,245,-7,76,3
11705,37,38,242,-3,70,2
11710,40,36,239,-2,64,0
11715,34,40,243,-11,64,0
11720,39,39,242,-16,62,-1
11725,36,39,245,-15,56,-4
11730,35,40,241,-16,53,-7
11735,39,35,243,-24,55,-8
11740,35,39,241,-28,60,-6
11745,38,36,239,-25,58,-6
11750,34,38,245,-21,59,-8
11755,36,40,250,-16,57,-8
11760,35,36,240,-13,57,-9
11765,37,35,239,-13,61,-7
11770,35,39,237,-12,63,-6
11775,35,34,242,-16,66,-7
11780,37,34,242,-16,68,-8
11785,36,38,244,-13,69,-9
11790,37,37,242,-10,69,-9
11795,35,37,242,-8,71,-9
11800,37,38,243,-9,73,-8
11805,37,34,242,-14,79,-8
11810,36,37,242,-14,81,-7
11815,38,37,245,-11,81,-7
11820,37,37,243,-9,81,-7
11825,39,36,242,-7,80,-6
11830,39,37,241,-8,81,-5
11835,39,36,239,-10,81,-5
11840,35,36,244,-13,82,-2
11845,37,36,240,-16,82,-1
11850,36,36,243,-13,77,-2
11855,35,35,239,-14,73,-1
11860,36,36,242,-18,72,0
11865,47,39,247,-18,69,0
11870,38,38,244,-14,67,1
11875,39,36,239,-9,65,3
11880,42,33,239,-6,64,3
11885,42,33,238,-5,63,5
11890,39,38,238,-4,62,5
11895,38,36,238,-7,64,4
11900,38,37,242,-8,62,5
11905,39,36,242,-10,63,5
11910,39,35,242,-15,64,4
11915,39,34,238,-14,64,5
11920,37,33,238,-10,65,2
11925,36,39,241,-8,68,0
11930,37,36,241,-7,70,0
11935,38,34,241,-8,71,-2
11940,35,37,244,-12,72,-2
11945,37,37,245,-17,72,-3
11950,40,34,242,-23,72,-2
11955,36,38,241,-31,73,-2
11960,35,38,243,-35,73,0
11965,36,37,242,-40,76,0
11970,36,37,244,-43,75,-1
11975,35,38,241,-45,76,0
11980,38,35,242,-47,74,1
11985,32,38,244,-50,71,2
11990,39,37,242,-49,70,2
11995,40,36,241,-48,69,2
12000,37,36,243,-46,70,1
12005,38,37,242,-45,69,1
12010,37,38,241,-42,69,1
12015,38,33,240,-42,71,1
12020,37,34,241,-42,71,2
12025,36,38,241,-42,72,2
12030,37,36,240,-41,74,1
12035,36,32,239,-42,73,2
12040,34,36,240,-41,73,2
12045,37,35,242,-43,71,4
12050,35,35,241,-42,69,4
12055,39,34,240,-41,67,4
12060,37,34,243,-40,67,4
12065,35,34,241,-41,64,4
12070,34,36,241,-40,65,5
12075,37,33,240,-40,64,4
12080,34,36,240,-40,64,4
12085,37,32,242,-42,64,2
12090,35,33,238,-43,63,3
12095,37,35,245,-45,63,1
12100,33,32,242,-44,63,1
12105,36,36,244,-46,63,0
12110,36,35,243,-47,63,-1
12115,36,37,242,-49,64,-2
12120,36,34,244,-50,65,-1
12125,36,34,241,-53,65,-2
12130,36,35,240,-56,65,-2
12135,37,34,241,-59,65,-2
12140,35,35,241,-60,66,0
12145,37,33,242,-62,65,0
12150,37,32,240,-63,64,1
12155,37,32,242,-63,63,3
12160,33,34,239,-62,62,0
12165,36,33,242,-60,60,0
12170,38,34,242,-59,59,1
12175,36,31,242,-58,58,2
12180,35,34,240,-57,55,2
12185,39,31,240,-58,54,2
12190,34,34,239,-58,53,1
12195,37,32,242,-60,54,2
12200,33,34,240,-58,54,2
12205,40,34,240,-57,54,2
12210,36,31,245,-60,54,3
12215,36,32,242,-60,53,4
12220,37,32,243,-60,52,4
12225,36,35,244,-62,52,3
12230,37,36,240,-62,52,3
12235,35,34,239,-62,52,2
12240,36,32,241,-62,52,3
12245,39,33,241,-62,51,2
12250,38,32,243,-63,53,3
12255,37,31,243,-62,53,4
12260,34,34,244,-61,52,3
12265,38,29,243,-58,51,4
12270,35,30,243,-58,50,3
12275,39,31,243,-56,50,3
12280,38,30,243,-54,48,3
12285,39,32,239,-54,52,3
12290,39,29,241,-52,50,4
12295,38,34,240,-51,49,5
12300,41,32,241,-51,49,4
12305,38,29,243,-52,51,4
12310,36,32,238,-52,51,4
12315,38,31,239,-51,51,3
12320,39,31,240,-53,50,4
12325,39,31,244,-53,48,5
12330,38,31,241,-53,47,4
12335,41,32,240,-54,47,5
12340,38,28,239,-54,50,4
12345,35,32,242,-55,50,5
12350,37,30,239,-54,54,3
12355,38,33,239,-52,54,3
12360,38,30,236,-51,56,1
12365,37,29,240,-50,54,1
12370,38,30,243,-48,55,1
12375,36,32,243,-46,56,0
12380,36,33,241,-47,56,-1
12385,35,29,241,-47,56,-1
12390,38,32,241,-49,56,-1
12395,40,27,245,-49,57,-1
12400,37,32,243,-51,57,-1
12405,36,32,240,-53,59,1
12410,29,25,235,-53,60,2
12415,38,30,242,-52,61,3
12420,39,32,240,-51,61,4
12425,38,31,240,-50,58,3
12430,37,30,238,-47,55,3
12435,41,27,238,-44,54,4
12440,38,32,242,-41,52,3
12445,36,29,241,-37,53,3
12450,39,30,241,-37,53,3
12455,37,29,241,-37,53,2
12460,39,28,241,-37,55,2
12465,37,29,240,-40,54,2
12470,35,32,241,-40,52,1
12475,37,28,241,-39,48,3
12480,40,29,242,-36,49,1
12485,40,31,240,-33,49,1
12490,41,30,239,-30,53,2
12495,41,29,243,-27,57,2
12500,40,30,240,-23,61,2
12505,38,28,239,-19,63,1
12510,40,32,240,-13,66,0
12515,38,28,241,-10,67,0
12520,39,28,239,-8,67,0
12525,38,31,241,-9,66,-2
12530,38,28,241,-8,64,-3
12535,32,29,239,-11,64,-2
12540,35,29,240,-19,64,-1
12545,34,26,241,-27,63,0
12550,38,29,244,-38,65,1
12555,34,27,243,-45,66,1
12560,38,25,242,-51,64,1
12565,37,30,239,-53,61,3
12570,37,24,246,-50,57,2
12575,39,27,243,-46,55,1
12580,39,28,238,-41,55,0
12585,39,28,242,-36,55,-1
12590,39,29,240,-36,57,0
12595,39,30,239,-38,59,-1
12600,42,26,240,-40,64,-2
12605,37,31,239,-42,67,-1
12610,39,29,240,-41,69,-1
12615,39,30,237,-39,70,1
12620,41,25,240,-35,68,0
12625,43,32,249,-29,66,0
12630,40,30,241,-24,62,-1
12635,39,32,243,-16,59,-2
12640,40,26,239,-12,54,-3
12645,38,29,238,-8,51,-3
12650,40,28,241,-8,48,-4
12655,37,30,241,-11,44,-4
12660,37,30,244,-15,43,-6
12665,40,29,240,-19,41,-6
12670,38,29,240,-24,39,-4
12675,38,31,237,-30,41,-4
12680,38,29,240,-35,45,-2
12685,42,30,239,-39,50,-1
12690,40,27,241,-39,54,-3
12695,38,26,242,-38,59,-3
12700,38,28,242,-34,63,-2
12705,39,28,240,-34,68,-2
12710,40,28,240,-33,70,-1
12715,39,30,243,-34,70,-1
12720,39,30,241,-33,70,0
12725,40,29,243,-31,71,2
12730,41,26,243,-30,70,1
12735,43,28,235,-28,71,1
12740,39,29,243,-25,72,0
12745,37,27,241,-23,69,-2
12750,41,29,242,-22,68,-2
12755,40,28,240,-22,69,-2
12760,39,31,241,-22,69,-3
12765,41,26,242,-22,68,-3
12770,39,27,238,-22,68,-5
12775,36,27,241,-25,68,-4
12780,37,27,240,-25,66,-4
12785,38,27,242,-28,67,-2
12790,39,28,239,-30,68,-1
12795,40,28,240,-30,68,-1
12800,43,26,241,-29,68,1
12805,43,27,239,-29,66,0
12810,39,28,240,-29,64,-1
12815,37,28,240,-28,63,-1
12820,39,27,242,-27,62,-3
12825,38,29,237,-27,62,-3
12830,37,28,240,-27,61,-4
12835,39,25,240,-28,59,-4
12840,37,29,238,-27,58,-6
12845,41,31,237,-25,54,-6
12850,39,27,240,-23,53,-7
12855,36,25,239,-23,53,-8
12860,36,27,238,-24,54,-8
12865,34,28,243,-30,53,-8
12870,40,26,239,-35,54,-9
12875,38,25,240,-43,58,-9
12880,37,26,243,-50,58,-8
12885,40,25,238,-55,58,-7
12890,40,26,240,-57,59,-6
12895,36,29,241,-58,59,-4
12900,38,27,241,-55,61,-2
12905,39,28,239,-51,61,0
12910,39,27,241,-44,61,-1
12915,41,26,244,-38,62,-2
12920,40,30,238,-32,63,-1
12925,38,30,238,-25,65,-3
12930,42,26,239,-19,65,-3
12935,39,27,239,-13,66,-4
12940,38,28,243,-8,68,-3
12945,42,28,244,-5,71,-2
12950,40,29,237,-5,73,-3
12955,48,29,243,-5,76,-2
12960,42,26,240,-5,77,0
12965,40,27,240,-7,77,0
12970,41,28,242,-4,75,2
12975,44,26,238,0,77,3
12980,40,26,239,4,76,3
12985,41,27,238,9,74,3
12990,40,30,236,14,73,3
12995,41,27,237,16,73,4
13000,39,27,240,17,71,4
13005,41,26,239,17,72,4
13010,40,26,238,18,71,4
13015,39,31,243,16,70,2
13020,40,28,240,16,70,3
13025,40,27,241,15,71,2
13030,40,27,243,15,71,1
13035,43,24,240,13,73,1
13040,43,26,238,9,73,-1
13045,40,29,242,10,76,-1
13050,41,23,243,9,77,-1
13055,41,23,237,6,77,-1
13060,37,29,240,5,76,0
13065,45,32,231,5,76,1
13070,38,30,240,5,75,0
13075,44,27,240,3,74,0
13080,41,24,241,3,73,-1
13085,37,26,240,4,74,-1
13090,39,27,242,5,74,0
13095,38,28,243,7,74,0
13100,39,26,241,8,74,-2
13105,40,29,239,8,73,-1
13110,37,27,239,9,75,0
13115,36,28,245,10,73,-2
13120,38,26,240,8,72,-3
13125,39,31,240,9,74,-4
13130,35,30,239,7,77,-3
13135,40,29,244,5,80,-3
13140,39,28,241,2,82,-3
13145,38,30,242,-1,84,-1
13150,38,27,243,-3,87,-1
13155,37,32,240,-6,85,-1
13160,38,27,243,-6,82,0
13165,39,29,243,-5,81,1
13170,43,32,240,-3,79,1
13175,35,26,243,0,77,1
13180,35,27,240,4,74,1
13185,39,27,239,9,72,1
13190,36,31,239,11,68,-1
13195,40,30,243,14,69,-1
13200,38,29,241,17,69,-2
13205,37,30,237,17,67,-1
13210,36,30,239,14,65,-1
13215,35,27,244,10,66,-1
13220,37,32,243,7,65,0
13225,40,31,240,4,63,-1
13230,38,31,241,3,63,-1
13235,40,29,241,6,63,-1
13240,42,27,238,10,63,-2
13245,38,32,240,13,65,-4
13250,43,28,244,17,67,-4
13255,39,30,239,20,68,-5
13260,37,29,238,22,69,-5
13265,38,30,238,24,71,-6
13270,38,29,243,27,72,-7
13275,40,27,241,27,72,-8
13280,31,37,237,30,74,-9
13285,35,32,243,32,73,-7
13290,36,27,238,31,73,-8
13295,36,30,242,29,71,-7
13300,35,28,240,27,70,-7
13305,36,28,239,21,70,-8
13310,35,26,240,15,70,-7
13315,38,29,242,10,70,-6
13320,39,28,240,5,70,-7
13325,36,29,243,7,72,-8
13330,41,25,241,10,73,-7
13335,38,25,240,16,73,-7
13340,40,29,239,22,75,-8
13345,41,28,237,26,74,-9
13350,42,28,239,26,77,-9
13355,40,27,236,28,79,-9
13360,39,31,239,26,81,-9
13365,39,30,238,25,82,-8
13370,36,29,242,23,84,-7
13375,40,32,238,23,85,-5
13380,42,29,242,24,83,-5
13385,44,30,240,27,83,-4
13390,48,30,237,31,82,-5
13395,42,33,242,33,82,-5
13400,40,30,242,35,76,-6
13405,41,30,246,34,73,-6
13410,39,33,241,34,69,-6
13415,39,31,241,31,67,-4
13420,39,36,240,28,65,-5
13425,40,33,242,24,66,-5
13430,41,31,241,19,66,-5
13435,38,30,243,15,67,-4
13440,38,34,240,13,67,-3
13445,40,29,241,12,71,-4
13450,38,36,242,12,73,-3
13455,40,29,239,12,74,-3
13460,38,30,242,13,75,-3
13465,37,29,240,14,76,-2
13470,37,35,242,13,77,-3
13475,39,31,244,12,78,-3
13480,40,34,241,12,78,-4
13485,40,30,242,13,79,-4
13490,38,32,242,12,77,-5
13495,40,32,242,10,78,-5
13500,38,24,244,11,77,-4
13505,40,30,240,12,77,-5
13510,36,31,242,12,78,-5
13515,36,30,242,12,77,-5
13520,39,31,240,12,75,-5
13525,36,34,244,12,74,-4
13530,36,31,241,12,72,-4
13535,40,32,243,10,73,-5
13540,38,31,243,8,72,-4
13545,35,31,242,6,72,-5
13550,42,30,242,6,72,-4
13555,38,29,239,5,73,-3
13560,38,32,243,4,74,-2
13565,39,33,241,7,73,0
13570,42,31,241,8,74,0
13575,40,28,241,10,73,-1
13580,42,33,240,9,72,-1
13585,38,34,243,7,71,-1
13590,39,32,241,4,70,0
13595,36,32,242,4,67,0
13600,36,33,240,4,66,-2
13605,47,31,243,5,66,-2
13610,38,30,240,10,65,-5
13615,35,32,238,15,66,-5
13620,36,31,238,17,67,-6
13625,36,33,238,15,70,-7
13630,35,35,242,12,70,-5
13635,36,33,241,6,73,-7
13640,36,32,243,-1,74,-8
13645,37,32,240,-8,75,-7
13650,39,36,240,-14,77,-6
13655,38,32,246,-19,78,-5
13660,39,32,243,-22,80,-4
13665,38,34,243,-21,81,-5
13670,41,33,242,-19,81,-4
13675,41,33,240,-14,80,-6
13680,41,29,241,-10,78,-5
13685,40,34,242,-7,74,-5
13690,39,33,242,-4,73,-6
13695,37,31,244,-4,72,-7
13700,39,33,241,-5,73,-7
13705,41,35,241,-8,72,-6
13710,37,32,239,-11,72,-6
13715,37,35,239,-12,72,-4
13720,38,33,240,-11,70,-4
13725,38,35,239,-8,71,-3
13730,38,32,238,-6,68,-2
13735,39,32,245,-2,64,-1
13740,38,33,240,2,64,-1
13745,39,30,238,5,64,0
13750,40,34,239,6,64,-1
13755,41,32,238,6,63,0
13760,40,31,239,8,64,0
13765,40,31,241,8,66,-2
13770,40,33,236,6,66,-1
13775,36,34,241,5,67,-3
13780,41,35,241,6,67,-4
13785,40,32,239,4,70,-3
13790,38,33,239,2,72,-5
13795,36,32,241,0,73,-4
13800,37,32,239,-1,73,-5
13805,40,34,241,-5,72,-5
13810,37,32,243,-8,72,-4
13815,37,36,242,-10,72,-4
13820,39,32,241,-10,72,-3
13825,44,40,237,-11,70,-4
13830,39,28,240,-12,68,-2
13835,38,31,243,-13,68,-3
13840,39,33,244,-13,68,-1
13845,41,30,243,-12,68,-1
13850,38,35,243,-12,67,0
13855,38,33,239,-11,69,-1
13860,39,30,241,-12,69,0
13865,38,35,240,-11,69,0
13870,39,34,240,-10,69,0
13875,38,33,242,-9,68,1
13880,40,33,244,-10,68,2
13885,40,33,242,-9,69,2
13890,39,35,238,-10,70,2
13895,37,34,241,-10,70,1
13900,37,36,240,-10,70,0
13905,41,32,238,-10,71,1
13910,35,35,240,-9,71,-1
13915,36,32,241,-11,71,0
13920,38,34,239,-12,72,-1
13925,36,31,242,-13,71,1
13930,37,33,242,-13,71,0
13935,42,35,241,-11,68,0
13940,38,32,242,-10,67,1
13945,36,35,240,-8,65,1
13950,38,32,242,-8,64,0
13955,38,32,239,-9,63,0
13960,40,33,237,-9,62,0
13965,38,32,241,-8,63,-1
13970,40,30,242,-9,64,-1
13975,39,36,242,-9,62,-2
13980,39,32,242,-9,62,-1
13985,36,30,243,-8,60,-1
13990,38,34,240,-6,62,-1
13995,38,32,238,-6,62,-2
14000,41,33,241,-6,64,-3
14005,40,30,244,-5,64,-2
14010,38,32,239,-6,65,-5
14015,37,33,239,-6,65,-3
14020,41,32,240,-8,66,-4
14025,36,32,243,-9,65,-3
14030,40,32,241,-9,65,-2
14035,37,34,240,-9,64,-1
14040,36,35,237,-9,65,-2
14045,36,32,240,-11,66,-1
14050,38,31,241,-10,65,0
14055,39,35,241,-9,64,-1
14060,43,33,239,-8,65,-2
14065,38,32,239,-5,66,-1
14070,38,33,239,-5,67,-1
14075,39,33,240,-5,66,0
14080,39,33,245,-5,68,-1
14085,38,34,239,-5,68,0
14090,40,31,240,-4,69,-2
14095,38,34,242,-3,70,-3
14100,38,33,243,-1,69,-1
14105,40,30,240,-2,69,-1
14110,39,34,242,-1,70,-2
14115,39,32,241,-2,71,-2
14120,38,34,238,-2,72,-1
14125,38,32,237,-3,72,0
14130,38,34,243,-5,73,0
14135,36,33,240,-6,72,-3
14140,38,34,237,-5,71,-1
14145,37,32,241,-6,71,-1
14150,35,32,240,-7,71,-2
14155,37,33,239,-7,71,0
14160,38,35,241,-8,71,-2
14165,40,34,241,-7,70,-1
14170,40,29,240,-8,69,-1
14175,39,33,239,-8,67,-3
14180,37,33,241,-7,66,-2
14185,38,34,244,-7,65,-2
14190,39,33,243,-6,66,-4
14195,40,35,244,-5,66,-3
14200,38,36,240,-5,67,-3
14205,38,34,240,-4,66,-2
14210,41,31,241,-5,67,-2
14215,38,33,241,-7,68,-3
14220,38,30,240,-10,70,-2
14225,37,34,242,-11,70,-2
14230,37,32,241,-11,69,-1
14235,36,35,242,-11,70,-2
14240,37,30,241,-10,70,-2
14245,38,35,242,-8,68,-2
14250,36,33,238,-6,65,-2
14255,38,34,242,-5,64,-2
14260,36,33,239,-5,65,-2
14265,38,34,243,-5,66,-2
14270,38,33,240,-6,66,-2
14275,39,32,238,-6,65,0
14280,40,33,240,-6,66,0
14285,38,32,241,-4,67,-1
14290,41,32,243,-4,65,-1
14295,40,34,239,-2,66,0
14300,38,32,236,-1,66,-1
14305,38,34,237,-1,65,1
14310,41,33,243,-1,63,1
14315,40,34,242,-1,62,0
14320,37,34,240,-1,61,-1
14325,38,33,239,-2,62,-1
14330,38,33,238,-2,61,-1
14335,38,34,243,-3,63,-3
14340,36,32,242,-6,64,-3
14345,40,33,244,-9,64,-3
14350,39,33,239,-12,66,-2
14355,40,30,243,-15,65,-2
14360,39,32,240,-15,66,-1
14365,37,32,243,-14,64,1
14370,37,28,237,-13,65,0
14375,39,33,243,-12,66,-1
14380,35,32,241,-10,66,0
14385,39,34,241,-9,65,1
14390,35,36,241,-5,66,0
14395,37,34,237,-2,67,-2
14400,36,32,241,1,67,0
14405,39,33,241,1,69,0
14410,39,34,244,-1,69,0
14415,37,34,239,-3,69,0
14420,38,32,240,-5,69,0
14425,38,32,245,-4,67,-2
14430,40,33,241,-2,68,-3
14435,39,33,240,-1,69,-2
14440,40,32,241,3,69,-5
14445,43,34,241,4,73,-4
14450,41,34,240,6,76,-3
14455,37,32,239,7,77,-2
14460,43,34,241,8,82,-2
14465,39,33,244,11,79,-3
14470,39,32,242,13,77,-3
14475,37,34,241,15,73,-3
14480,40,31,244,17,71,-3
14485,37,35,240,13,70,-3
14490,35,34,245,9,68,-3
14495,36,32,242,3,69,-4
14500,39,32,246,-1,68,-4
14505,38,34,240,-4,67,-5
14510,35,32,242,1,66,-4
14515,38,31,241,8,67,-5
14520,33,35,240,15,67,-6
14525,37,32,237,21,70,-5
14530,37,34,238,27,75,-5
14535,38,34,240,28,81,-5
14540,40,33,237,25,88,-6
14545,38,35,235,21,93,-4
14550,42,31,241,13,99,-4
14555,38,32,236,8,103,-3
14560,37,37,240,1,105,-2
14565,37,34,241,1,102,-2
14570,38,33,242,3,97,-1
14575,40,37,240,9,90,-2
14580,41,35,241,10,84,-3
14585,40,39,242,12,78,-3
14590,44,38,241,12,72,-2
14595,40,36,240,8,66,-2
14600,38,42,242,0,63,-3
14605,38,38,239,-9,60,-2
14610,36,37,242,-23,59,-3
14615,39,38,242,-32,59,-2
14620,39,37,244,-41,59,-2
14625,38,33,241,-46,61,-2
14630,36,36,239,-48,62,-1
14635,39,32,241,-48,63,0
14640,40,34,243,-44,64,-2
14645,39,32,245,-42,65,-2
14650,38,34,243,-39,67,-1
14655,40,33,240,-35,69,-1
14660,38,36,243,-33,72,0
14665,38,31,239,-32,75,0
14670,38,36,239,-32,76,1
14675,39,31,241,-34,78,0
14680,38,34,244,-36,77,0
14685,38,35,244,-35,79,1
14690,38,35,241,-35,76,1
14695,36,26,243,-35,76,1
14700,39,35,239,-36,75,0
14705,38,36,240,-38,73,-1
14710,35,35,241,-40,72,-3
14715,39,36,237,-42,69,-2
14720,36,34,237,-45,66,-2
14725,35,34,240,-50,64,-3
14730,36,35,244,-53,62,-3
14735,36,34,239,-57,61,-2
14740,37,36,239,-61,58,-4
14745,37,36,241,-62,60,-1
14750,38,33,242,-62,60,-1
14755,40,32,243,-58,61,0
14760,42,31,240,-51,62,0
14765,39,32,242,-48,62,0
14770,41,32,239,-47,63,0
14775,43,34,242,-47,64,1
14780,41,32,242,-47,64,0
14785,40,32,239,-46,63,0
14790,38,32,241,-45,63,-2
14795,39,32,239,-46,63,-3
14800,39,31,241,-45,65,-4
14805,37,27,252,-43,65,-4
14810,40,32,243,-44,65,-6
14815,35,34,241,-45,65,-6
14820,36,30,241,-50,64,-6
14825,35,35,244,-57,64,-7
14830,37,34,247,-66,62,-8
14835,37,31,241,-74,61,-7
14840,37,31,244,-81,63,-7
14845,39,29,245,-85,63,-7
14850,40,29,244,-87,63,-5
14855,39,29,243,-85,64,-5
14860,39,29,242,-83,63,-4
14865,39,31,241,-79,64,-5
14870,40,33,238,-74,66,-3
14875,40,30,244,-69,68,-3
14880,39,31,239,-64,68,-3
14885,38,32,239,-59,68,-4
14890,36,30,243,-55,70,-3
14895,38,29,240,-52,71,-3
14900,35,34,236,-49,72,-3
14905,39,30,241,-49,73,-2
14910,39,33,241,-51,73,0
14915,33,30,235,-53,73,0
14920,41,29,239,-54,72,1
14925,37,29,243,-54,69,2
14930,37,30,241,-55,67,2
14935,39,30,242,-54,66,3
14940,40,28,241,-55,64,4
14945,38,28,238,-54,63,3
14950,39,31,243,-54,61,4
14955,38,28,240,-51,61,5
14960,38,29,238,-49,59,5
14965,38,29,242,-47,60,4
14970,39,31,242,-44,61,2
14975,38,30,244,-43,61,1
14980,37,32,237,-42,61,1
14985,39,29,241,-41,61,0
14990,40,29,241,-42,60,-1
14995,39,30,247,-42,60,-2
