timestamp,acc_x,acc_y,acc_z,gyro_x,gyro_y,gyro_z
0,-9,-255,12,-27,91,-8
5,-11,-256,10,-28,89,-7
10,-10,-257,12,-32,88,-8
15,-9,-253,13,-33,86,-9
20,-11,-254,11,-34,85,-9
25,-10,-249,12,-32,82,-9
30,-11,-255,15,-29,80,-9
35,-8,-256,19,-24,78,-9
40,-10,-255,16,-19,78,-9
45,-8,-256,14,-15,77,-8
50,-6,-257,12,-12,78,-9
55,-8,-257,15,-11,75,-8
60,-8,-253,13,-10,74,-8
65,-7,-255,17,-13,72,-7
70,-9,-251,13,-17,70,-6
75,-5,-258,15,-23,68,-5
80,-9,-254,16,-28,67,-5
85,-8,-254,16,-34,66,-5
90,5,-261,17,-38,62,-3
95,-9,-256,16,-40,60,-3
100,-6,-256,14,-39,61,-5
105,-8,-256,14,-36,58,-5
110,-5,-256,15,-32,57,-9
115,-7,-254,16,-27,55,-12
120,-8,-256,13,-21,54,-13
125,-10,-255,12,-17,54,-15
130,-3,-252,9,-12,53,-13
135,-9,-257,16,-9,55,-13
140,-7,-257,14,-8,55,-12
145,-8,-255,14,-8,58,-10
150,-10,-255,14,-7,58,-7
155,-6,-255,17,-5,57,-6
160,-9,-254,14,-7,56,-4
165,-6,-254,19,-7,55,-2
170,-5,-254,17,-8,52,-2
175,-4,-255,10,-7,48,-1
180,-8,-251,14,-6,47,1
185,-3,-254,12,-5,44,1
190,-6,-254,13,-5,41,1
195,-10,-254,12,-5,41,2
200,-6,-256,15,-3,40,3
205,-8,-252,16,-4,39,4
210,-7,-254,17,-2,39,5
215,-7,-256,14,-1,40,4
220,-7,-256,13,0,41,4
225,-4,-259,11,1,42,5
230,-6,-258,14,1,44,6
235,-6,-257,15,2,46,4
240,-7,-258,16,2,46,6
245,-6,-255,18,3,48,7
250,-6,-254,14,4,48,4
255,-9,-255,12,4,48,4
260,-10,-257,15,4,47,4
265,-5,-259,17,5,48,3
270,-8,-256,13,6,47,4
275,-10,-257,13,8,47,2
280,-6,-256,17,8,46,2
285,-9,-256,17,8,47,2
290,-8,-256,17,7,44,2
295,-4,-259,16,5,42,3
300,-7,-253,15,4,40,4
305,-7,-255,16,3,38,4
310,-5,-256,15,4,37,5
315,-7,-255,14,8,35,6
320,-6,-256,15,9,31,4
325,-11,-254,14,9,32,5
330,-6,-254,13,6,33,4
335,-4,-256,15,5,34,2
340,-5,-252,11,1,36,1
345,-6,-249,17,-3,39,0
350,-8,-252,15,-5,42,-1
355,-5,-254,14,-7,44,-1
360,-7,-254,17,-8,46,-3
365,-5,-255,14,-9,45,-1
370,-7,-253,16,-9,47,-2
375,-7,-253,14,-9,45,-4
380,-6,-254,13,-9,46,-3
385,-8,-256,15,-9,47,-3
390,-8,-257,14,-8,46,-4
395,-7,-254,15,-8,47,-3
400,-2,-257,15,-8,49,-2
405,-9,-255,16,-8,51,0
410,-8,-256,15,-6,52,0
415,-7,-257,18,-6,53,-2
420,-8,-255,19,-6,55,-1
425,-2,-256,17,-5,54,0
430,-5,-256,13,-6,56,0
435,-3,-257,12,-6,57,-1
440,-8,-252,16,-7,57,-2
445,-5,-255,12,-9,56,-3
450,-6,-253,14,-8,57,-4
455,-5,-255,11,-9,59,-3
460,1,-257,15,-10,61,-3
465,-3,-256,14,-10,63,-5
470,-8,-254,13,-10,65,-6
475,-1,-255,17,-10,68,-5
480,-6,-258,12,-8,72,-6
485,-3,-256,11,-7,75,-6
490,-5,-260,18,-5,75,-5
495,-6,-255,14,-2,76,-4
500,-4,-255,13,1,77,-7
505,-3,-253,17,2,76,-6
510,-2,-257,14,3,77,-6
515,-3,-255,16,3,78,-6
520,-6,-254,13,1,78,-6
525,-7,-254,13,-3,80,-4
530,-7,-254,14,-3,81,-4
535,-6,-255,11,-4,81,-4
540,-4,-257,14,-6,82,-6
545,-7,-255,15,-7,84,-5
550,-1,-256,12,-7,85,-6
555,-7,-255,15,-5,85,-6
560,-4,-253,16,-4,86,-6
565,-6,-253,16,-2,85,-6
570,-5,-257,14,0,86,-7
575,-6,-257,15,1,84,-7
580,-4,-255,17,1,84,-8
585,-2,-254,17,0,84,-10
590,-4,-254,14,-2,83,-9
595,-4,-254,17,-3,83,-10
600,-4,-255,15,-5,81,-10
605,-6,-251,17,-8,81,-11
610,-4,-256,17,-10,81,-11
615,-6,-251,13,-13,79,-10
620,-5,-253,13,-12,81,-9
625,-1,-256,15,-9,81,-11
630,-10,-254,19,-8,82,-11
635,-6,-253,16,-5,84,-12
640,-10,-253,18,-6,85,-12
645,-7,-257,16,-5,86,-13
650,-5,-258,19,-5,86,-11
655,-7,-257,19,-4,86,-10
660,-7,-257,12,-3,86,-10
665,-5,-257,15,-4,86,-9
670,-6,-254,17,-3,83,-8
675,-7,-252,18,-3,82,-8
680,-5,-255,15,-5,80,-7
685,-5,-252,15,-6,78,-9
690,-8,-252,15,-6,77,-10
695,-7,-254,17,-8,77,-11
700,-7,-255,13,-11,79,-10
705,-4,-256,17,-12,81,-10
710,-5,-257,21,-12,84,-11
715,-7,-256,15,-10,84,-11
720,-4,-260,14,-8,85,-12
725,-5,-255,13,-5,84,-12
730,-8,-258,16,-3,84,-13
735,-5,-254,14,-3,82,-11
740,-5,-256,15,-4,81,-12
745,-8,-254,13,-7,80,-10
750,-7,-257,16,-9,81,-7
755,-7,-254,16,-10,81,-5
760,-6,-254,18,-11,80,-3
765,-3,-257,15,-6,80,-2
770,-5,-253,16,-5,80,-2
775,-8,-252,19,-4,79,-1
780,-7,-254,15,-2,77,-3
785,-7,-257,11,1,76,-5
790,-5,-253,13,3,77,-7
795,-5,-253,16,4,77,-8
800,-6,-258,13,4,77,-9
805,-3,-255,12,6,79,-9
810,-7,-254,18,5,78,-9
815,-6,-257,15,3,79,-6
820,-6,-257,18,3,80,-4
825,-8,-257,17,2,80,-3
830,-8,-254,23,4,80,-2
835,-5,-255,16,5,80,-1
840,-6,-254,21,5,79,0
845,-9,-255,17,5,77,1
850,-3,-254,17,5,77,0
855,-6,-251,20,5,77,-1
860,-5,-253,16,3,75,-2
865,-1,-256,16,2,75,-3
870,-5,-253,17,1,76,-3
875,-2,-254,15,-2,77,-2
880,-3,-257,13,-4,76,-4
885,-7,-252,16,-4,75,-3
890,-5,-257,15,-4,77,-1
895,-8,-259,15,-4,78,-1
900,-7,-255,17,-3,80,-1
905,-1,-254,15,-2,81,-2
910,-7,-256,18,0,82,-1
915,-9,-257,17,1,81,-1
920,-7,-257,20,4,82,-1
925,-4,-258,17,4,81,-5
930,-6,-256,13,5,82,-4
935,-3,-258,15,4,80,-4
940,-8,-256,16,4,79,-4
945,-7,-258,17,2,80,-3
950,-7,-257,16,1,78,-3
955,-3,-257,15,2,77,-2
960,-10,-258,21,2,78,-1
965,-6,-257,17,4,80,0
970,-7,-256,17,6,79,0
975,-9,-254,15,8,80,0
980,-8,-255,20,10,79,1
985,-8,-252,18,14,77,0
990,-10,-256,19,15,77,-1
995,-6,-255,14,15,77,-1
1000,-5,-255,18,14,77,-1
1005,-5,-256,15,12,75,-1
1010,-6,-256,15,9,77,-2
1015,-4,-256,16,9,77,0
1020,-7,-255,19,10,74,-1
1025,-6,-252,16,10,74,-1
1030,-9,-255,17,11,73,0
1035,-8,-252,18,12,73,1
1040,-8,-254,20,15,72,1
1045,-3,-252,17,19,73,1
1050,-4,-256,19,21,73,1
1055,-5,-255,20,21,73,1
1060,-6,-257,19,22,72,-1
1065,-8,-255,19,21,71,0
1070,-7,-257,17,20,72,0
1075,-8,-255,21,20,71,-1
1080,-9,-256,19,20,70,1
1085,-6,-255,14,18,70,2
1090,-2,-253,21,16,67,1
1095,-5,-252,16,16,68,1
1100,-8,-254,18,15,69,1
1105,-6,-255,17,15,69,2
1110,-10,-257,26,15,70,3
1115,-7,-253,17,15,69,3
1120,-7,-251,16,15,71,3
1125,-4,-255,20,14,71,1
1130,-6,-254,14,13,70,3
1135,-8,-254,21,12,70,2
1140,-7,-255,18,11,70,0
1145,-5,-255,16,11,69,0
1150,-2,-256,15,11,69,0
1155,-6,-253,20,9,71,0
1160,-4,-254,20,9,73,-1
1165,-8,-252,20,8,75,0
1170,-5,-257,17,5,79,0
1175,-4,-255,18,5,82,1
1180,-4,-256,20,4,83,0
1185,-5,-257,20,5,86,-1
1190,-7,-257,18,3,88,-2
1195,-6,-256,13,1,87,-3
1200,-6,-254,16,0,87,-4
1205,-6,-254,16,-2,88,-6
1210,-9,-256,20,-1,89,-6
1215,-8,-255,16,-2,88,-7
1220,-9,-261,13,-2,88,-8
1225,-6,-255,16,-2,88,-8
1230,-9,-253,20,-2,89,-10
1235,-11,-259,22,-1,90,-8
1240,-9,-254,18,-1,91,-7
1245,-7,-256,20,-1,92,-8
1250,-9,-257,17,0,92,-7
1255,-10,-254,17,1,93,-8
1260,-9,-254,18,1,93,-7
1265,-7,-253,22,2,92,-6
1270,-6,-255,17,1,91,-8
1275,-4,-254,17,0,89,-8
1280,-9,-254,17,0,89,-10
1285,-8,-255,21,-2,87,-10
1290,-6,-255,19,-2,86,-11
1295,-9,-255,20,1,85,-11
1300,-7,-254,17,3,82,-13
1305,-7,-257,18,4,80,-11
1310,-6,-255,15,8,78,-12
1315,-8,-253,16,9,77,-10
1320,-5,-257,17,13,79,-10
1325,-8,-254,15,15,81,-9
1330,0,-252,23,17,82,-8
1335,-6,-257,15,16,83,-9
1340,-9,-255,16,16,84,-9
1345,-7,-254,21,16,85,-9
1350,-8,-255,18,16,84,-10
1355,-7,-254,18,15,84,-12
1360,-5,-255,17,13,83,-13
1365,-8,-252,16,10,82,-14
1370,-6,-256,20,8,82,-15
1375,-9,-253,18,8,82,-15
1380,-8,-252,16,10,83,-15
1385,-5,-255,17,11,84,-15
1390,-5,-256,17,14,86,-14
1395,-6,-256,18,15,88,-15
1400,-10,-255,22,15,88,-13
1405,-4,-257,20,16,87,-14
1410,-7,-255,19,14,88,-15
1415,-5,-260,16,14,88,-15
1420,-6,-257,18,15,87,-13
1425,-4,-258,20,17,86,-14
1430,-3,-256,16,21,84,-15
1435,-5,-253,23,26,83,-13
1440,-7,-258,16,31,84,-13
1445,-8,-252,21,35,82,-14
1450,-6,-254,18,39,80,-15
1455,-7,-253,20,42,77,-14
1460,-5,-253,17,42,76,-14
1465,-8,-253,18,40,74,-14
1470,-8,-251,15,37,72,-14
1475,-10,-254,14,32,73,-14
1480,-10,-251,18,30,74,-13
1485,-7,-251,16,26,77,-13
1490,-7,-254,20,23,79,-12
1495,-6,-256,18,22,81,-12
1500,-10,-254,19,21,81,-10
1505,-7,-253,20,19,81,-10
1510,-6,-252,20,20,80,-9
1515,-8,-250,19,20,82,-9
1520,-6,-255,23,20,81,-8
1525,-7,-254,19,19,81,-8
1530,-7,-254,18,19,81,-9
1535,-5,-258,21,17,80,-7
1540,-10,-255,20,17,81,-6
1545,-13,-256,18,17,82,-5
1550,-10,-255,21,16,82,-5
1555,-8,-257,20,15,81,-4
1560,-9,-256,19,15,83,-3
1565,-9,-254,21,17,84,-3
1570,-7,-253,19,16,83,-3
1575,-8,-255,19,16,81,-2
1580,-6,-255,19,15,82,-3
1585,-3,-252,17,13,83,-3
1590,-8,-255,22,9,84,-3
1595,-7,-254,20,7,85,-4
1600,-6,-256,19,6,84,-4
1605,-10,-253,21,5,84,-3
1610,-9,-255,22,3,81,-3
1615,-9,-255,18,3,78,-2
1620,-5,-257,17,4,75,-2
1625,-8,-255,18,4,72,-1
1630,-11,-254,19,5,69,-1
1635,-6,-258,18,8,68,0
1640,-10,-255,18,7,65,0
1645,-8,-255,18,8,64,1
1650,-9,-258,19,9,62,3
1655,-3,-251,19,10,62,1
1660,-3,-253,15,9,63,2
1665,-11,-253,17,7,64,2
1670,-8,-256,24,5,64,3
1675,-10,-252,19,3,66,2
1680,-9,-252,17,1,66,1
1685,-10,-253,20,-2,66,1
1690,-6,-255,23,-6,65,0
1695,-5,-255,21,-6,66,-1
1700,-6,-253,23,-8,67,-1
1705,-7,-253,19,-8,66,-1
1710,-5,-255,19,-4,65,-2
1715,-7,-254,21,-4,65,-2
1720,-8,-257,22,-1,64,-3
1725,-8,-258,24,2,62,-1
1730,-8,-254,23,5,62,-2
1735,-8,-253,24,5,61,0
1740,-7,-254,23,5,59,-1
1745,-9,-252,19,5,59,0
1750,-8,-255,23,2,57,1
1755,-7,-250,23,0,58,2
1760,-5,-253,22,-1,58,2
1765,-8,-261,16,-2,58,3
1770,-9,-253,19,-5,60,2
1775,-8,-251,22,-8,60,1
1780,-3,-253,21,-10,60,0
1785,-6,-256,23,-13,61,-1
1790,-6,-255,21,-16,63,-2
1795,-6,-253,23,-18,65,-1
1800,-7,-251,19,-20,67,-1
1805,-6,-256,22,-22,69,0
1810,-2,-255,21,-23,72,-1
1815,-6,-253,24,-23,73,-2
1820,-3,-254,22,-23,74,-2
1825,-6,-256,20,-23,74,-1
1830,-7,-255,19,-22,74,-1
1835,-4,-256,22,-20,73,-2
1840,-8,-255,21,-22,71,-2
1845,-2,-255,21,-23,71,-1
1850,-7,-256,19,-23,71,-2
1855,-4,-254,21,-23,71,0
1860,-8,-256,22,-24,70,0
1865,-5,-256,21,-23,73,1
1870,-6,-258,18,-24,72,1
1875,-8,-249,25,-26,72,2
1880,-5,-257,19,-26,73,3
1885,-6,-252,23,-28,73,2
1890,-6,-253,21,-28,75,3
1895,-4,-257,18,-29,75,4
1900,-6,-253,21,-29,76,3
1905,-7,-256,22,-29,76,4
1910,-6,-252,25,-32,75,3
1915,-4,-254,22,-33,75,2
1920,-7,-254,18,-35,76,4
1925,-8,-253,19,-36,75,3
1930,-7,-255,19,-39,77,3
1935,-5,-256,20,-40,77,3
1940,-7,-252,21,-45,76,4
1945,-6,-253,19,-47,77,3
1950,-10,-253,21,-48,78,2
1955,-7,-255,23,-49,78,2
1960,-8,-254,21,-49,76,1
1965,-5,-250,20,-50,74,1
1970,-7,-256,16,-52,76,1
1975,-5,-257,23,-53,74,-1
1980,-7,-251,17,-53,74,0
1985,-7,-254,24,-52,75,0
1990,-5,-258,22,-53,74,1
1995,-6,-256,21,-52,73,1
2000,-7,-258,22,-53,72,1
2005,-8,-252,21,-54,70,0
2010,-7,-253,21,-57,68,-1
2015,-5,-252,15,-59,68,-1
2020,-9,-253,20,-63,68,-3
2025,-4,-253,17,-63,71,-3
2030,-8,-253,22,-64,73,-3
2035,-9,-253,22,-64,73,-2
2040,-6,-254,21,-62,77,-2
2045,-4,-257,23,-64,78,-4
2050,-6,-254,21,-63,79,-3
2055,-7,-254,20,-60,80,-4
2060,-5,-256,20,-62,81,0
2065,-10,-255,21,-65,82,0
2070,-9,-258,19,-68,81,1
2075,-5,-251,16,-72,79,2
2080,-7,-255,20,-78,78,1
2085,-9,-253,16,-81,76,2
2090,-12,-260,17,-81,73,3
2095,-9,-252,14,-78,71,1
2100,-7,-256,17,-71,69,-1
2105,-8,-255,20,-65,67,-1
2110,-8,-252,19,-59,64,-4
2115,-7,-256,17,-52,62,-6
2120,-6,-253,20,-48,61,-9
2125,-4,-256,17,-46,60,-10
2130,-5,-252,20,-45,59,-11
2135,-5,-255,19,-46,61,-9
2140,-7,-255,17,-51,61,-8
2145,-7,-256,17,-54,63,-8
2150,-10,-256,20,-57,65,-5
2155,-9,-252,19,-60,65,-2
2160,-8,-257,20,-59,66,-1
2165,-5,-253,17,-59,65,0
2170,-8,-254,18,-58,64,1
2175,-3,-256,24,-56,62,2
2180,-6,-254,21,-55,60,3
2185,-6,-254,21,-52,58,3
2190,-4,-255,18,-52,55,1
2195,-8,-252,17,-50,53,3
2200,-10,-260,21,-50,51,3
2205,-4,-256,14,-48,49,3
2210,-5,-252,16,-49,49,3
2215,-3,-255,18,-50,48,3
2220,-6,-252,15,-51,48,4
2225,-8,-253,18,-53,49,4
2230,-8,-253,15,-53,50,5
2235,-6,-252,15,-55,53,5
2240,-7,-254,16,-55,54,5
2245,-6,-257,15,-54,55,3
2250,-8,-255,17,-54,56,4
2255,-7,-257,17,-54,56,6
2260,-6,-258,17,-55,56,7
2265,-5,-257,18,-58,58,7
2270,-7,-257,19,-60,58,6
2275,-3,-258,15,-62,60,9
2280,-2,-256,16,-62,59,11
2285,-3,-257,17,-60,60,9
2290,-5,-253,14,-57,58,9
2295,-8,-256,16,-56,56,10
2300,-8,-256,15,-52,56,9
2305,-4,-258,14,-50,54,9
2310,-8,-258,26,-47,52,9
2315,-6,-254,10,-46,50,7
2320,-7,-255,20,-45,49,6
2325,-5,-254,17,-46,51,6
2330,-8,-257,15,-48,50,8
2335,-4,-254,16,-49,52,6
2340,-6,-252,15,-52,52,6
2345,-7,-253,15,-54,52,6
2350,-3,-256,17,-57,53,6
2355,-7,-253,16,-58,54,6
2360,-7,-252,15,-60,55,5
2365,-6,-255,14,-63,56,5
2370,-5,-253,15,-64,58,5
2375,-10,-256,14,-64,58,5
2380,-5,-255,18,-62,59,6
2385,-7,-253,18,-60,60,7
2390,-6,-253,14,-60,59,6
2395,-8,-255,18,-57,59,6
2400,-7,-254,16,-57,59,8
2405,-8,-255,15,-57,59,6
2410,-8,-257,17,-59,59,5
2415,-3,-251,14,-61,59,6
2420,-5,-256,13,-62,61,7
2425,-6,-256,11,-65,61,5
2430,-7,-254,15,-65,63,5
2435,-8,-252,15,-64,63,5
2440,-7,-257,18,-65,65,4
2445,-6,-256,14,-63,64,3
2450,-6,-256,17,-62,64,4
2455,-4,-259,14,-61,64,3
2460,-5,-254,15,-61,64,2
2465,-6,-254,15,-61,66,4
2470,-3,-252,14,-61,66,3
2475,-6,-256,20,-60,65,3
2480,-4,-254,13,-59,66,2
2485,-6,-257,16,-60,66,2
2490,-7,-254,13,-59,67,2
2495,-7,-254,18,-56,68,2
2500,-6,-256,17,-56,69,2
2505,-8,-254,12,-52,69,0
2510,-5,-256,14,-47,67,-1
2515,-9,-253,14,-44,68,-1
2520,-4,-254,15,-46,69,-3
2525,-5,-260,7,-44,72,-2
2530,-8,-256,19,-43,72,-2
2535,-8,-256,15,-38,74,-2
2540,-6,-256,11,-37,75,-2
2545,-7,-253,14,-35,74,0
2550,0,-257,13,-35,77,-3
2555,-5,-256,14,-35,78,-3
2560,-4,-256,15,-36,78,-3
2565,-6,-257,13,-37,77,-3
2570,-3,-255,13,-38,78,-3
2575,-5,-256,11,-41,78,-3
2580,-5,-255,9,-42,76,-3
2585,-7,-253,10,-44,75,-5
2590,-8,-254,13,-44,74,-5
2595,-7,-255,12,-46,73,-6
2600,-9,-253,11,-48,71,-7
2605,-8,-257,14,-49,71,-8
2610,-9,-253,13,-49,71,-7
2615,-7,-254,12,-48,70,-7
2620,-6,-255,13,-50,69,-6
2625,-4,-256,13,-52,70,-5
2630,-5,-257,10,-53,70,-6
2635,-2,-260,9,-52,70,-4
2640,-9,-253,11,-49,69,-4
2645,-5,-255,8,-47,69,-4
2650,-4,-259,12,-45,69,-3
2655,-6,-256,10,-42,72,-3
2660,-7,-257,15,-40,75,0
2665,-7,-254,11,-38,79,-1
2670,-6,-255,10,-36,82,0
2675,-7,-256,11,-32,83,1
2680,-6,-257,10,-31,83,1
2685,-6,-255,11,-30,84,2
2690,-6,-257,10,-29,83,1
2695,-4,-256,8,-29,82,1
2700,-7,-259,10,-32,81,2
2705,-9,-254,9,-37,78,1
2710,-10,-254,11,-40,77,3
2715,-8,-256,8,-46,75,2
2720,-9,-253,9,-49,74,1
2725,-2,-255,8,-51,72,2
2730,-7,-254,11,-50,71,0
2735,-6,-255,9,-48,72,-3
2740,-9,-253,15,-43,73,-4
2745,-8,-266,19,-37,75,-6
2750,-7,-254,12,-31,77,-7
2755,-7,-258,12,-26,78,-8
2760,-7,-257,11,-23,79,-8
2765,-7,-255,8,-22,79,-9
2770,-7,-259,11,-21,81,-7
2775,-7,-255,11,-20,83,-6
2780,-4,-255,8,-19,83,-5
2785,-9,-254,8,-19,83,-3
2790,-7,-256,10,-20,81,-2
2795,-4,-253,10,-19,81,-3
2800,-7,-254,6,-19,79,-2
2805,-6,-255,10,-19,76,-2
2810,-4,-253,11,-20,73,-1
2815,-6,-253,12,-19,71,-1
2820,-8,-254,10,-19,70,0
2825,-8,-256,13,-18,69,-1
2830,-6,-254,12,-17,67,-2
2835,-5,-254,11,-17,67,-1
2840,-4,-255,14,-16,67,-1
2845,-9,-257,11,-17,67,1
2850,-7,-255,11,-17,69,0
2855,-2,-256,12,-17,70,0
2860,-7,-257,13,-16,71,0
2865,-3,-255,5,-16,75,-1
2870,-7,-257,9,-15,76,1
2875,-1,-257,9,-14,78,0
2880,-6,-260,12,-12,80,-2
2885,-4,-257,10,-9,81,1
2890,-9,-258,15,-7,81,1
2895,-7,-257,10,-7,81,2
2900,-5,-257,10,-7,80,2
2905,-8,-256,13,-6,81,3
2910,-7,-256,11,-5,82,4
2915,-6,-256,12,-4,82,2
2920,-3,-261,10,-1,83,2
2925,-8,-257,11,1,83,3
2930,-4,-257,8,4,84,2
2935,-9,-254,9,5,82,1
2940,-9,-256,10,4,83,1
2945,0,-258,8,3,86,0
2950,-3,-254,9,1,90,0
2955,-2,-254,10,1,91,0
2960,-8,-259,8,-1,92,-1
2965,-7,-256,10,-2,95,-1
2970,-8,-250,9,-2,97,-3
2975,-6,-254,11,-3,98,-4
2980,-6,-254,11,-3,100,-5
2985,-6,-253,9,-4,101,-8
2990,-7,-256,8,-3,102,-6
2995,-7,-254,12,-5,101,-8
3000,-8,-254,12,-5,103,-7
3005,-8,-256,7,-6,101,-4
3010,-10,-254,13,-5,100,-3
3015,-7,-255,12,-3,99,-3
3020,-8,-257,14,-2,96,-1
3025,-9,-256,12,-1,95,-1
3030,-6,-256,12,1,94,0
3035,-8,-255,14,3,93,-1
3040,-10,-254,8,3,91,-1
3045,-7,-256,10,4,91,-2
3050,-3,-257,9,4,89,-3
3055,-8,-257,11,5,89,-1
3060,-10,-255,8,6,87,-2
3065,-8,-257,13,6,88,-2
3070,-10,-253,-4,6,87,-2
3075,-6,-257,11,5,88,-1
3080,-10,-257,12,6,86,-1
3085,-10,-257,12,6,86,-2
3090,-7,-255,10,6,88,-1
3095,-8,-255,9,7,88,-2
3100,-7,-256,9,8,88,1
3105,-8,-255,7,8,87,0
3110,-11,-257,9,9,86,1
3115,-8,-259,12,10,86,0
3120,-10,-256,11,10,84,-1
3125,-10,-254,13,11,84,-1
3130,-11,-258,15,13,81,-1
3135,-8,-257,12,15,82,-2
3140,-9,-255,11,14,82,-3
3145,-10,-255,12,15,80,-4
3150,-7,-256,14,17,80,-3
3155,-7,-253,12,17,81,-5
3160,-9,-255,11,16,80,-4
3165,-9,-252,12,15,80,-5
3170,-8,-253,12,13,80,-6
3175,-7,-257,11,13,80,-6
3180,-6,-256,16,13,79,-4
3185,-7,-257,9,13,79,-5
3190,-6,-257,11,14,78,-4
3195,-7,-256,14,14,79,-3
3200,-3,-257,11,15,79,-5
3205,-9,-256,12,17,79,-6
3210,-6,-254,15,18,80,-7
3215,-6,-255,11,20,78,-9
3220,-6,-257,12,20,78,-10
3225,-6,-258,14,22,76,-12
3230,-3,-256,10,21,77,-11
3235,-7,-256,14,20,78,-11
3240,-4,-255,11,19,78,-11
3245,-9,-258,9,18,78,-10
3250,-8,-257,15,15,78,-11
3255,-11,-253,11,14,76,-11
3260,-9,-253,16,16,76,-13
3265,-9,-254,10,16,76,-11
3270,-8,-256,14,17,76,-11
3275,-4,-257,14,17,79,-11
3280,-9,-256,11,17,80,-11
3285,-7,-256,14,18,81,-11
3290,0,-258,13,20,83,-10
3295,-8,-255,9,22,83,-9
3300,-8,-260,13,24,83,-8
3305,-8,-257,13,25,82,-6
3310,-8,-260,10,25,80,-6
3315,-8,-260,12,25,77,-5
3320,-8,-258,12,21,76,-4
3325,-10,-254,13,16,72,-1
3330,-8,-258,13,10,70,0
3335,-8,-260,14,6,66,0
3340,-11,-252,9,1,63,-1
3345,-10,-252,12,-2,59,-1
3350,-7,-252,11,-5,57,-2
3355,-5,-254,10,-7,56,-3
3360,-10,-250,8,-8,55,-4
3365,-8,-255,12,-8,55,-4
3370,-12,-255,11,-5,53,-7
3375,-10,-258,13,-4,53,-7
3380,-5,-256,10,0,51,-6
3385,-8,-260,13,2,52,-4
3390,-8,-255,11,2,53,-1
3395,-11,-255,22,2,54,2
3400,-11,-260,13,2,57,4
3405,-11,-259,11,0,57,6
3410,-14,-256,13,4,56,10
3415,-7,-261,9,6,53,11
3420,-7,-256,14,10,51,10
3425,-7,-257,16,15,47,9
3430,-5,-253,17,21,44,8
3435,-10,-253,14,26,41,6
3440,-5,-252,12,28,37,5
3445,-5,-254,15,25,36,2
3450,-4,-252,13,21,37,1
3455,-5,-253,15,17,38,0
3460,-1,-258,12,12,40,-3
3465,-1,-256,13,7,45,-6
3470,-7,-254,14,3,49,-8
3475,-6,-253,13,3,53,-9
3480,-7,-253,14,1,57,-11
3485,-6,-256,15,2,59,-12
3490,-7,-252,12,2,61,-10
3495,-7,-251,14,4,64,-10
3500,-5,-251,15,4,64,-6
3505,-9,-254,18,4,64,-4
3510,-10,-250,14,3,64,-1
3515,-9,-251,11,2,66,2
3520,-4,-254,15,0,65,4
3525,-7,-253,14,-1,67,4
3530,-7,-251,14,-3,66,4
3535,-5,-254,16,-3,67,2
3540,-6,-255,12,-3,68,1
3545,-6,-256,15,0,68,0
3550,-6,-256,16,3,69,-2
3555,-6,-256,13,6,72,-3
3560,-6,-253,15,9,73,-2
3565,-3,-255,11,10,76,-3
3570,-6,-257,13,7,79,-3
3575,-4,-253,12,2,82,-2
3580,-6,-254,12,-4,85,1
3585,-5,-251,13,-9,88,0
3590,-5,-255,10,-16,91,1
3595,-6,-250,11,-19,92,1
3600,-9,-252,11,-21,94,1
3605,-8,-253,16,-23,95,0
3610,-7,-254,10,-25,95,1
3615,-4,-250,4,-26,96,2
3620,-8,-253,12,-28,96,2
3625,-11,-254,11,-33,96,2
3630,-9,-252,9,-37,94,3
3635,-9,-254,7,-42,91,5
3640,-9,-255,9,-49,88,7
3645,-10,-254,8,-54,85,8
3650,-11,-258,8,-61,85,8
3655,-11,-257,3,-66,84,7
3660,-11,-253,3,-72,85,7
3665,-13,-255,8,-75,85,8
3670,-12,-253,7,-76,86,7
3675,-9,-254,8,-75,85,5
3680,-11,-254,2,-74,84,5
3685,-12,-254,1,-72,82,3
3690,-13,-256,4,-72,78,1
3695,-12,-254,2,-70,75,-1
3700,-11,-254,0,-71,71,0
3705,-12,-250,1,-72,69,-1
3710,-15,-251,4,-74,64,-3
3715,-12,-252,0,-80,57,-4
3720,-15,-251,1,-87,51,-4
3725,-14,-250,-1,-92,44,-3
3730,-15,-250,1,-99,36,-2
3735,-13,-251,3,-106,29,-2
3740,-12,-250,7,-113,24,-3
3745,-16,-255,8,-112,11,-1
3750,-11,-253,3,-102,-10,-3
3755,-13,-254,2,-101,-18,-10
3760,-10,-253,2,-117,-21,-18
3765,-9,-254,4,-131,-16,-16
3770,-9,-253,0,-138,-10,-14
3775,-8,-255,1,-144,-3,-8
3780,-9,-255,-3,-150,-1,-8
3785,-9,-253,5,-150,0,-6
3790,-8,-253,3,-148,-3,-7
3795,-9,-252,3,-143,-6,-6
3800,-9,-254,0,-141,-9,-3
3805,-8,-255,1,-144,-12,1
3810,-11,-250,0,-149,-17,1
3815,-9,-253,0,-157,-23,2
3820,-9,-248,-2,-166,-31,5
3825,-12,-248,-1,-174,-39,5
3830,-12,-249,-4,-183,-46,7
3835,-12,-249,-4,-191,-49,11
3840,-13,-248,-3,-198,-52,11
3845,-9,-250,-3,-203,-54,11
3850,-11,-250,-4,-208,-53,14
3855,-6,-250,-3,-213,-51,15
3860,-6,-252,-5,-215,-49,12
3865,-10,-253,-9,-213,-47,9
3870,-3,-251,-5,-210,-45,7
3875,-5,-255,-5,-204,-39,5
3880,-5,-255,-4,-193,-38,-3
3885,-1,-261,-3,-174,-38,-12
3890,2,-257,-4,-148,-41,-22
3895,-2,-261,-3,-115,-49,-30
3900,1,-264,-1,-80,-61,-41
3905,0,-263,2,-48,-71,-49
3910,-4,-261,1,-16,-76,-58
3915,-2,-261,0,9,-84,-64
3920,0,-253,-5,23,-91,-67
3925,-5,-251,-10,20,-82,-56
3930,-2,-252,-8,10,-70,-49
3935,-2,-253,-10,-4,-61,-48
3940,-7,-245,-11,-13,-54,-54
3945,-8,-249,-4,-23,-44,-59
3950,-8,-248,3,-36,-28,-62
3955,-8,-246,4,-54,-9,-70
3960,-7,-243,7,-78,12,-80
3965,-3,-239,10,-110,35,-88
3970,-3,-237,11,-147,59,-95
3975,-3,-237,11,-187,79,-106
3980,-2,-240,13,-222,93,-116
3985,-3,-233,12,-258,103,-131
3990,1,-232,6,-295,108,-136
3995,1,-231,6,-319,121,-127
4000,1,-234,1,-337,126,-113
4005,-1,-234,2,-352,130,-103
4010,0,-235,-2,-372,130,-95
4015,-1,-241,-2,-393,130,-88
4020,-5,-243,-5,-419,130,-82
4025,-5,-242,-6,-447,130,-76
4030,-7,-250,-2,-475,131,-70
4035,-10,-250,-2,-503,130,-63
4040,-8,-258,-2,-523,126,-53
4045,-7,-265,-2,-533,121,-40
4050,-6,-262,2,-535,111,-26
4055,-10,-267,-2,-530,98,-10
4060,-8,-268,-1,-517,88,5
4065,-7,-265,-3,-497,74,20
4070,-9,-264,-5,-476,63,36
4075,-5,-259,-8,-457,55,50
4080,-3,-257,-14,-440,48,62
4085,-2,-254,-9,-426,43,69
4090,-7,-249,-15,-420,43,76
4095,-9,-249,-15,-418,42,81
4100,-3,-250,-14,-420,43,79
4105,-8,-242,-16,-425,38,69
4110,-5,-238,-17,-439,42,69
4115,-9,-240,-14,-452,58,83
4120,-12,-238,-14,-461,65,80
4125,-8,-240,-13,-473,67,73
4130,-3,-241,-11,-479,78,76
4135,-8,-245,-11,-476,95,91
4140,-7,-247,-10,-457,104,97
4145,-8,-245,-11,-431,100,95
4150,-10,-246,-11,-397,88,99
4155,-12,-237,-18,-366,71,105
4160,-13,-242,-21,-343,52,109
4165,-13,-241,-21,-337,30,114
4170,-15,-239,-20,-340,14,118
4175,-13,-237,-25,-345,0,114
4180,-14,-235,-32,-360,1,114
4185,-12,-238,-28,-377,24,114
4190,-13,-238,-29,-400,46,104
4195,-14,-230,-29,-421,73,91
4200,-8,-236,-23,-439,100,77
4205,-4,-235,-24,-442,124,63
4210,-1,-233,-21,-445,147,53
4215,0,-236,-17,-443,171,44
4220,2,-241,-16,-439,185,34
4225,2,-241,-20,-430,189,10
4230,4,-239,-19,-439,186,-5
4235,4,-242,-21,-458,203,11
4240,1,-245,-23,-481,222,26
4245,-2,-247,-23,-511,237,40
4250,-6,-251,-24,-544,249,51
4255,-11,-253,-24,-569,254,59
4260,-11,-257,-25,-585,253,59
4265,-13,-260,-25,-595,245,59
4270,-16,-263,-25,-596,232,65
4275,-13,-263,-31,-592,214,72
4280,-11,-264,-29,-591,196,77
4285,-10,-265,-32,-594,176,77
4290,-10,-263,-32,-594,158,77
4295,-9,-265,-33,-594,141,74
4300,-5,-264,-37,-594,127,67
4305,-6,-260,-34,-597,113,62
4310,-8,-261,-38,-601,100,56
4315,-5,-261,-33,-599,88,50
4320,-3,-256,-46,-594,79,36
4325,-4,-258,-41,-585,76,30
4330,-1,-254,-37,-567,78,26
4335,-6,-251,-37,-544,81,30
4340,-9,-249,-35,-514,83,38
4345,-11,-250,-35,-477,84,52
4350,-14,-253,-30,-438,80,61
4355,-13,-253,-35,-406,74,68
4360,-16,-252,-37,-386,72,78
4365,-19,-252,-39,-378,74,90
4370,-21,-255,-44,-385,72,100
4375,-17,-248,-58,-397,72,110
4380,-21,-258,-45,-416,70,121
4385,-21,-260,-42,-439,61,130
4390,-21,-260,-43,-457,54,137
4395,-18,-261,-49,-465,44,142
4400,-12,-261,-43,-461,33,147
4405,-11,-251,-43,-442,22,147
4410,-9,-244,-45,-412,7,142
4415,-12,-239,-37,-370,-12,136
4420,-9,-228,-38,-323,-29,126
4425,-8,-221,-43,-288,-47,121
4430,-10,-212,-41,-274,-64,112
4435,-11,-213,-40,-283,-80,102
4440,-11,-211,-40,-314,-97,88
4445,-15,-211,-43,-352,-112,64
4450,-17,-215,-51,-407,-122,49
4455,-18,-219,-57,-464,-117,48
4460,-18,-226,-57,-523,-103,58
4465,-23,-234,-56,-573,-88,70
4470,-21,-239,-60,-609,-74,79
4475,-20,-248,-58,-624,-66,87
4480,-17,-249,-53,-621,-58,98
4485,-20,-254,-66,-610,-54,105
4490,-15,-250,-65,-593,-51,109
4495,-13,-252,-67,-578,-49,108
4500,-12,-251,-65,-564,-46,109
4505,-12,-249,-63,-548,-43,107
4510,-11,-249,-61,-535,-43,109
4515,-9,-256,-61,-517,-44,109
4520,-16,-244,-65,-489,-56,83
4525,-17,-241,-73,-467,-75,59
4530,-12,-237,-73,-450,-76,62
4535,-13,-229,-71,-440,-72,79
4540,-13,-230,-74,-442,-59,95
4545,-12,-234,-74,-444,-53,94
4550,-16,-226,-72,-439,-57,79
4555,-13,-227,-76,-438,-58,77
4560,-10,-232,-69,-442,-49,90
4565,-11,-237,-67,-446,-39,91
4570,-13,-241,-62,-450,-31,89
4575,-14,-241,-65,-449,-27,81
4580,-13,-250,-64,-444,-24,68
4585,-19,-254,-68,-434,-21,50
4590,-28,-261,-68,-422,-16,38
4595,-22,-260,-72,-413,-12,27
4600,-27,-260,-75,-412,-11,19
4605,-32,-265,-78,-418,-11,17
4610,-36,-271,-75,-428,-11,18
4615,-41,-268,-77,-425,-9,12
4620,-40,-268,-78,-411,-4,10
4625,-42,-270,-76,-391,6,13
4630,-43,-264,-83,-360,18,14
4635,-44,-259,-84,-324,31,13
4640,-43,-258,-83,-289,44,15
4645,-44,-255,-83,-248,57,17
4650,-40,-249,-83,-211,70,18
4655,-39,-247,-81,-182,79,24
4660,-40,-243,-84,-167,86,38
4665,-33,-247,-81,-165,90,48
4670,-35,-244,-82,-164,84,48
4675,-32,-245,-83,-175,73,45
4680,-30,-247,-84,-185,59,35
4685,-27,-241,-85,-203,43,25
4690,-23,-246,-81,-226,36,31
4695,-26,-249,-87,-242,32,34
4700,-23,-249,-84,-253,19,27
4705,-24,-251,-82,-255,2,23
4710,-26,-247,-84,-249,-18,10
4715,-27,-243,-83,-239,-37,1
4720,-24,-240,-85,-225,-49,5
4725,-29,-236,-82,-213,-56,10
4730,-28,-229,-80,-204,-61,15
4735,-27,-224,-81,-213,-59,24
4740,-25,-220,-83,-228,-54,30
4745,-26,-215,-82,-247,-51,35
4750,-25,-212,-83,-262,-47,38
4755,-24,-213,-82,-278,-45,40
4760,-18,-213,-85,-300,-45,46
4765,-22,-215,-86,-324,-46,55
4770,-19,-215,-80,-343,-48,61
4775,-18,-216,-84,-351,-49,67
4780,-17,-213,-85,-350,-52,76
4785,-17,-214,-81,-350,-57,88
4790,-16,-213,-85,-344,-59,97
4795,-18,-212,-82,-339,-61,105
4800,-14,-218,-87,-334,-58,114
4805,-15,-211,-79,-329,-50,118
4810,-18,-216,-85,-329,-43,117
4815,-20,-219,-85,-329,-34,112
4820,-21,-221,-85,-332,-25,105
4825,-20,-225,-89,-340,-14,92
4830,-21,-228,-91,-350,-2,77
4835,-18,-229,-88,-359,12,62
4840,-25,-233,-92,-368,31,50
4845,-27,-235,-91,-374,51,40
4850,-22,-240,-92,-377,73,32
4855,-25,-242,-95,-377,95,27
4860,-23,-241,-98,-376,115,26
4865,-22,-240,-97,-376,132,32
4870,-22,-237,-92,-376,147,42
4875,-22,-232,-99,-373,159,50
4880,-25,-234,-97,-371,166,57
4885,-21,-232,-92,-373,163,62
4890,-24,-231,-98,-380,164,65
4895,-27,-229,-98,-388,160,59
4900,-27,-231,-96,-396,159,50
4905,-26,-232,-100,-400,158,39
4910,-28,-233,-104,-401,162,31
4915,-27,-228,-106,-404,167,26
4920,-30,-231,-102,-409,177,20
4925,-29,-232,-102,-413,191,18
4930,-30,-230,-100,-416,200,19
4935,-30,-232,-101,-417,205,27
4940,-36,-231,-97,-413,204,38
4945,-41,-233,-101,-409,199,52
4950,-40,-234,-104,-403,189,64
4955,-44,-237,-102,-397,179,75
4960,-45,-239,-109,-390,169,85
4965,-44,-242,-110,-385,160,94
4970,-45,-241,-110,-378,155,107
4975,-45,-243,-113,-374,156,115
4980,-41,-245,-113,-370,160,120
4985,-40,-244,-114,-364,166,127
4990,-35,-243,-111,-352,177,131
4995,-38,-244,-104,-332,188,135
5000,-33,-241,-108,-306,198,130
5005,-33,-239,-105,-279,204,123
5010,-33,-239,-105,-255,210,115
5015,-33,-239,-105,-231,213,105
5020,-37,-234,-105,-207,217,97
5025,-37,-229,-109,-189,221,90
5030,-42,-232,-107,-175,226,82
5035,-45,-231,-108,-163,235,79
5040,-45,-234,-111,-151,243,78
5045,-47,-236,-112,-141,252,80
5050,-47,-233,-112,-136,257,80
5055,-45,-235,-116,-130,261,81
5060,-47,-238,-113,-121,264,78
5065,-46,-236,-119,-110,266,75
5070,-44,-236,-117,-95,269,71
5075,-45,-234,-119,-76,273,70
5080,-43,-236,-117,-63,281,67
5085,-47,-237,-118,-53,288,63
5090,-45,-236,-117,-45,295,57
5095,-49,-234,-118,-40,298,50
5100,-50,-236,-114,-39,300,45
5105,-53,-232,-117,-37,298,43
5110,-50,-236,-115,-36,294,43
5115,-47,-238,-116,-35,290,42
5120,-48,-238,-119,-32,286,42
5125,-43,-242,-119,-27,284,41
5130,-46,-240,-119,-12,281,42
5135,-46,-244,-119,5,282,43
5140,-46,-244,-121,21,283,38
5145,-45,-242,-123,32,286,28
5150,-44,-244,-125,43,293,20
5155,-45,-241,-124,45,301,12
5160,-48,-239,-122,44,313,5
5165,-43,-239,-126,39,325,-2
5170,-45,-238,-127,30,336,-8
5175,-43,-237,-130,22,350,-9
5180,-44,-241,-129,9,361,-13
5185,-44,-242,-129,-7,370,-18
5190,-46,-237,-132,-22,380,-21
5195,-48,-242,-133,-38,386,-25
5200,-45,-244,-136,-49,390,-34
5205,-46,-242,-133,-53,391,-42
5210,-49,-246,-133,-46,392,-53
5215,-47,-245,-135,-32,394,-63
5220,-51,-244,-136,-16,398,-71
5225,-50,-241,-140,-3,399,-80
5230,-54,-238,-146,-7,398,-88
5235,-52,-233,-146,-27,398,-92
5240,-51,-236,-143,-57,399,-93
5245,-51,-235,-146,-87,399,-93
5250,-53,-239,-139,-112,397,-89
5255,-52,-245,-137,-134,395,-83
5260,-55,-247,-134,-147,389,-79
5265,-57,-247,-136,-147,378,-77
5270,-58,-253,-134,-138,367,-78
5275,-63,-253,-139,-121,353,-80
5280,-61,-252,-138,-100,347,-84
5285,-60,-250,-145,-74,344,-87
5290,-61,-248,-141,-52,349,-87
5295,-57,-248,-138,-36,360,-85
5300,-54,-247,-134,-30,375,-81
5305,-51,-245,-132,-26,390,-78
5310,-50,-244,-128,-25,404,-81
5315,-50,-242,-131,-23,416,-83
5320,-52,-238,-122,-20,426,-87
5325,-50,-234,-121,-18,433,-91
5330,-50,-231,-121,-13,439,-93
5335,-52,-229,-120,-12,450,-94
5340,-50,-223,-120,-17,462,-95
5345,-53,-216,-122,-20,472,-97
5350,-48,-217,-123,-22,485,-96
5355,-52,-214,-119,-27,498,-93
5360,-47,-214,-118,-37,511,-92
5365,-46,-214,-120,-41,523,-97
5370,-49,-215,-118,-38,528,-102
5375,-51,-211,-117,-31,533,-104
5380,-53,-208,-111,-22,534,-105
5385,-52,-205,-115,-20,535,-106
5390,-51,-201,-113,-22,538,-105
5395,-52,-197,-111,-30,542,-99
5400,-55,-196,-114,-45,549,-92
5405,-52,-193,-111,-61,559,-84
5410,-57,-189,-106,-76,568,-75
5415,-55,-187,-108,-83,572,-68
5420,-55,-186,-110,-89,575,-65
5425,-54,-186,-109,-94,573,-63
5430,-58,-183,-105,-100,570,-63
5435,-58,-181,-105,-107,568,-65
5440,-56,-181,-107,-110,564,-66
5445,-59,-183,-108,-109,565,-66
5450,-54,-183,-108,-107,571,-63
5455,-53,-182,-106,-107,580,-59
5460,-50,-185,-109,-111,593,-54
5465,-47,-183,-111,-117,606,-50
5470,-45,-186,-106,-118,618,-50
5475,-44,-184,-107,-113,628,-53
5480,-44,-184,-103,-100,635,-56
5485,-45,-183,-102,-82,644,-63
5490,-47,-183,-101,-60,657,-67
5495,-47,-182,-99,-36,669,-75
5500,-54,-182,-97,-9,685,-77
5505,-52,-183,-97,19,700,-77
5510,-51,-178,-98,44,713,-71
5515,-58,-175,-103,67,728,-63
5520,-55,-179,-99,91,740,-52
5525,-58,-178,-100,113,750,-44
5530,-57,-176,-94,135,760,-35
5535,-61,-173,-93,158,768,-25
5540,-61,-167,-92,180,776,-14
5545,-61,-163,-89,204,783,-5
5550,-62,-159,-90,230,792,9
5555,-62,-152,-89,252,799,25
5560,-59,-151,-84,271,803,47
5565,-63,-151,-86,285,801,67
5570,-57,-145,-95,301,798,88
5575,-64,-145,-84,318,787,107
5580,-66,-144,-83,335,772,119
5585,-69,-140,-84,347,757,127
5590,-73,-138,-83,351,740,134
5595,-72,-136,-83,344,730,140
5600,-78,-131,-80,332,726,148
5605,-77,-132,-74,317,725,156
5610,-75,-127,-75,302,728,166
5615,-71,-122,-72,295,735,170
5620,-66,-129,-77,296,743,171
5625,-64,-123,-79,298,749,168
5630,-64,-121,-78,303,751,165
5635,-59,-115,-80,302,747,157
5640,-60,-112,-78,303,740,148
5645,-57,-104,-80,305,731,138
5650,-53,-99,-77,303,728,127
5655,-53,-95,-73,293,732,115
5660,-50,-95,-76,273,740,102
5665,-48,-95,-73,248,755,88
5670,-41,-96,-74,218,773,75
5675,-39,-104,-71,177,792,57
5680,-31,-110,-60,132,810,41
5685,-29,-121,-62,85,831,21
5690,-22,-135,-52,44,856,-2
5695,-10,-144,-49,21,885,-31
5700,-1,-149,-50,13,930,-53
5705,6,-155,-54,16,990,-82
5710,17,-160,-60,29,1064,-114
5715,20,-166,-64,51,1146,-156
5720,29,-167,-69,83,1234,-211
5725,34,-171,-72,124,1325,-279
5730,38,-173,-75,179,1422,-357
5735,42,-168,-74,245,1523,-445
5740,43,-165,-72,321,1632,-535
5745,41,-169,-66,414,1747,-615
5750,46,-170,-64,525,1868,-670
5755,55,-181,-62,649,1987,-723
5760,63,-189,-63,784,2092,-796
5765,57,-192,-58,926,2172,-884
5770,54,-209,-55,1089,2245,-937
5775,54,-239,-51,1253,2320,-989
5780,57,-281,-50,1402,2401,-1046
5785,59,-333,-48,1534,2485,-1129
5790,89,-383,-55,1673,2577,-1200
5795,134,-426,-66,1804,2690,-1241
5800,194,-450,-102,1896,2824,-1256
5805,260,-451,-147,1900,2917,-1280
5810,323,-451,-212,1830,2915,-1327
5815,384,-464,-260,1701,2819,-1417
5820,435,-486,-292,1543,2666,-1562
5825,463,-537,-297,1391,2532,-1733
5830,486,-585,-272,1271,2494,-1895
5835,503,-637,-256,1236,2543,-2042
5840,511,-708,-246,1323,2640,-2143
5845,506,-759,-242,1500,2708,-2270
5850,488,-785,-216,1737,2662,-2470
5855,476,-819,-193,2026,2490,-2707
5860,457,-858,-152,2314,2245,-2941
5865,414,-838,-109,2577,2006,-3138
5870,353,-783,-69,2769,1759,-3346
5875,320,-704,-39,2799,1507,-3503
5880,281,-602,-10,2656,1256,-3627
5885,227,-497,24,2366,1027,-3720
5890,178,-387,44,2028,840,-3775
5895,146,-309,60,1679,687,-3798
5900,128,-247,86,1316,570,-3805
5905,126,-199,119,892,473,-3751
5910,123,-168,148,412,404,-3644
5915,118,-157,172,-31,358,-3520
5920,119,-153,190,-333,330,-3411
5925,124,-156,185,-445,315,-3346
5930,120,-163,170,-364,323,-3306
5935,119,-177,144,-126,371,-3269
5940,100,-197,108,237,476,-3236
5945,91,-185,68,684,628,-3193
5950,80,-162,43,1066,782,-3125
5955,85,-147,26,1294,911,-3025
5960,91,-131,18,1369,1009,-2897
5965,95,-122,17,1344,1090,-2762
5970,95,-122,35,1296,1169,-2632
5975,90,-119,53,1283,1248,-2514
5980,87,-108,61,1329,1306,-2436
5985,84,-94,56,1412,1352,-2357
5990,70,-92,48,1521,1407,-2267
5995,62,-85,44,1680,1459,-2209
6000,39,-82,42,1851,1513,-2167
6005,14,-72,32,1998,1558,-2142
6010,-2,-63,23,2099,1596,-2119
6015,-13,-50,26,2147,1623,-2090
6020,-15,-61,29,2150,1645,-2028
6025,-6,-65,35,2144,1643,-1962
6030,3,-71,38,2143,1605,-1910
6035,22,-86,42,2136,1544,-1863
6040,39,-96,47,2127,1471,-1830
6045,59,-107,58,2121,1405,-1798
6050,82,-113,75,2101,1357,-1755
6055,100,-117,90,2070,1324,-1703
6060,116,-114,89,2040,1302,-1641
6065,133,-113,89,2007,1293,-1564
6070,143,-99,91,1978,1297,-1480
6075,155,-94,87,1956,1306,-1392
6080,168,-92,87,1934,1296,-1297
6085,191,-88,93,1909,1263,-1207
6090,206,-82,92,1884,1219,-1144
6095,222,-70,95,1866,1169,-1094
6100,239,-68,96,1854,1111,-1055
6105,256,-56,102,1844,1059,-1043
6110,264,-50,103,1845,1037,-1080
6115,266,-47,102,1855,1041,-1147
6120,266,-42,109,1865,1060,-1211
6125,245,-38,127,1878,1081,-1261
6130,252,-38,129,1928,1065,-1272
6135,249,-36,124,2014,1028,-1273
6140,246,-33,117,2104,977,-1302
6145,244,-31,112,2177,907,-1364
6150,242,-24,111,2204,816,-1432
6155,255,-19,111,2197,709,-1494
6160,270,0,109,2181,599,-1556
6165,284,8,123,2129,506,-1649
6170,305,21,140,2095,456,-1740
6175,326,38,145,2111,461,-1812
6180,344,42,131,2131,488,-1864
6185,353,49,101,2116,453,-1920
6190,355,56,87,2053,374,-1976
6195,352,50,70,1935,307,-2074
6200,340,47,64,1821,307,-2185
6205,330,41,58,1777,352,-2216
6210,311,27,74,1771,390,-2202
6215,310,30,73,1808,414,-2185
6220,314,42,70,1868,449,-2162
6225,320,67,74,1920,503,-2127
6230,320,106,81,1894,606,-2104
6235,321,131,86,1773,781,-2047
6240,315,141,86,1630,976,-1950
6245,330,159,94,1516,1088,-1835
6250,348,171,102,1414,1182,-1694
6255,359,193,109,1302,1293,-1496
6260,364,197,121,1124,1376,-1248
6265,363,200,132,910,1405,-978
6270,353,194,142,687,1373,-689
6275,346,171,153,495,1310,-414
6280,336,140,149,380,1284,-177
6285,328,110,135,374,1338,18
6290,328,88,118,458,1461,82
6295,318,84,105,564,1647,72
6300,294,79,91,621,1836,6
6305,247,84,91,618,1988,-71
6310,196,95,88,586,2096,-103
6315,164,100,89,545,2166,-93
6320,132,101,87,500,2210,-64
6325,102,110,104,441,2217,-40
6330,85,119,111,385,2195,-8
6335,71,118,122,333,2157,23
6340,65,128,135,288,2101,49
6345,65,134,149,250,2045,72
6350,63,144,153,222,1990,113
6355,68,143,154,198,1921,171
6360,68,149,157,174,1841,216
6365,74,147,156,160,1751,254
6370,72,148,155,152,1665,291
6375,83,146,154,130,1585,336
6380,92,146,154,74,1522,371
6385,94,138,148,-23,1484,396
6390,90,126,147,-137,1468,408
6395,103,119,149,-233,1467,419
6400,107,103,149,-268,1461,424
6405,103,92,155,-261,1459,421
6410,101,84,155,-214,1448,408
6415,101,80,163,-141,1426,393
6420,100,73,163,-52,1391,369
6425,97,80,167,40,1343,345
6430,95,78,178,125,1295,315
6435,98,85,182,199,1260,283
6440,94,90,191,255,1220,241
6445,93,97,196,277,1174,203
6450,99,102,204,279,1135,172
6455,100,98,209,286,1086,139
6460,100,95,211,288,1019,112
6465,105,92,214,294,935,92
6470,113,86,224,312,856,63
6475,126,89,228,344,788,24
6480,136,91,228,371,735,-28
6485,149,95,222,389,691,-71
6490,159,101,224,386,655,-112
6495,162,107,224,364,636,-160
6500,157,117,224,317,629,-197
6505,156,119,225,240,624,-219
6510,146,119,221,146,619,-225
6515,143,113,213,60,614,-218
6520,129,110,211,-12,608,-203
6525,120,103,210,-68,595,-172
6530,112,94,215,-96,578,-142
6535,111,87,218,-101,557,-118
6540,104,81,222,-85,527,-90
6545,102,75,225,-61,493,-63
6550,106,71,226,-41,460,-35
6555,106,67,231,-36,425,-13
6560,104,59,238,-39,391,9
6565,105,52,236,-33,361,32
6570,97,47,236,-9,330,51
6575,92,46,232,20,295,65
6580,93,44,229,48,257,76
6585,83,44,227,75,224,82
6590,81,45,222,95,198,89
6595,73,48,218,104,178,102
6600,71,56,214,111,160,120
6605,72,51,210,124,146,139
6610,78,53,210,146,140,153
6615,86,53,208,173,144,161
6620,90,54,208,186,149,161
6625,96,49,201,183,155,162
6630,106,46,199,178,161,158
6635,109,43,194,174,168,151
6640,117,39,201,172,175,144
6645,118,43,187,167,179,126
6650,121,43,201,143,175,112
6655,133,40,203,125,184,107
6660,136,40,210,114,199,86
6665,143,33,212,108,207,63
6670,139,30,214,111,218,53
6675,140,30,214,115,229,46
6680,135,36,210,112,222,42
6685,131,33,210,109,206,39
6690,130,29,205,106,186,33
6695,130,31,198,105,173,34
6700,133,30,192,104,173,35
6705,134,32,191,102,185,34
6710,136,34,188,92,204,29
6715,137,34,193,73,230,25
6720,135,43,194,44,257,22
6725,138,47,198,7,282,20
6730,136,49,202,-28,303,25
6735,134,58,208,-67,313,28
6740,137,56,210,-103,314,32
6745,133,58,213,-136,305,37
6750,132,55,219,-157,287,36
6755,135,53,215,-170,260,38
6760,128,46,220,-174,227,42
6765,125,39,225,-174,191,46
6770,119,40,223,-165,141,51
6775,125,36,225,-161,78,51
6780,125,31,223,-162,16,46
6785,128,29,218,-162,-35,43
6790,130,24,217,-156,-68,34
6795,131,27,210,-153,-84,25
6800,134,31,206,-159,-91,9
6805,133,29,206,-164,-84,-7
6810,136,23,202,-162,-58,-19
6815,136,28,199,-154,-6,-31
6820,132,29,203,-140,52,-39
6825,130,31,202,-125,93,-52
6830,127,31,196,-119,119,-71
6835,128,34,198,-122,144,-92
6840,125,31,200,-118,170,-108
6845,121,40,198,-113,186,-123
6850,122,38,202,-108,196,-136
6855,119,39,206,-91,213,-143
6860,125,40,202,-72,232,-149
6865,121,51,205,-59,248,-157
6870,127,45,208,-54,265,-162
6875,123,50,213,-49,278,-168
6880,123,51,218,-44,281,-169
6885,125,56,214,-40,276,-171
6890,129,56,218,-35,277,-173
6895,123,57,218,-34,279,-174
6900,122,60,221,-29,273,-169
6905,123,61,221,-24,254,-162
6910,124,61,221,-19,231,-161
6915,123,64,216,-18,214,-160
6920,123,64,218,-24,202,-159
6925,125,66,214,-29,196,-149
6930,125,66,214,-38,194,-143
6935,127,64,213,-45,192,-136
6940,125,67,212,-47,195,-128
6945,120,68,214,-51,195,-120
6950,119,66,214,-55,188,-107
6955,119,66,207,-61,183,-97
6960,120,65,214,-65,182,-88
6965,117,66,212,-66,182,-76
6970,119,60,213,-63,177,-64
6975,118,61,214,-61,169,-54
6980,117,62,212,-57,154,-43
6985,116,60,212,-56,132,-36
6990,116,63,214,-55,112,-30
6995,117,63,216,-46,102,-22
7000,118,61,217,-31,97,-18
7005,117,62,212,-15,101,-14
7010,119,61,212,-2,108,-12
7015,119,61,213,10,114,-10
7020,119,62,213,16,118,-9
7025,118,62,215,18,122,-10
7030,120,62,213,15,126,-9
7035,114,63,217,11,128,-9
7040,118,66,216,7,130,-9
7045,116,61,216,3,136,-9
7050,115,64,215,2,147,-7
7055,109,63,214,1,154,-4
7060,111,65,220,-1,157,-1
7065,111,65,220,-5,153,2
7070,115,64,220,-11,145,3
7075,113,68,223,-23,136,-1
7080,118,67,216,-34,132,-4
7085,114,59,220,-43,134,-8
7090,119,61,223,-41,135,-7
7095,115,61,217,-26,138,-5
7100,112,59,215,-7,141,-4
7105,114,59,211,14,143,-5
7110,109,63,214,29,147,-7
7115,115,59,215,34,150,-8
7120,115,61,211,37,154,-10
7125,117,59,209,37,158,-11
7130,115,58,209,36,162,-11
7135,117,58,209,35,161,-12
7140,116,56,209,33,157,-13
7145,118,54,207,33,153,-12
7150,122,55,211,29,146,-12
7155,116,54,214,27,138,-12
7160,121,54,214,27,131,-10
7165,120,54,210,30,126,-9
7170,120,54,216,35,123,-6
7175,124,49,214,43,122,-4
7180,118,53,210,49,119,0
7185,119,53,212,53,116,1
7190,121,51,212,57,115,3
7195,121,50,212,60,111,2
7200,118,46,212,62,107,3
7205,115,55,211,64,105,5
7210,119,52,215,63,102,4
7215,116,54,215,57,100,5
7220,116,54,211,51,102,7
7225,112,56,211,45,106,10
7230,111,54,218,35,105,10
7235,110,59,213,27,103,9
7240,110,54,216,15,102,9
7245,111,54,218,4,105,8
7250,113,56,220,2,106,10
7255,114,52,218,4,103,5
7260,110,57,216,7,95,1
7265,110,53,215,9,82,6
7270,107,59,214,6,73,0
7275,109,54,213,1,67,2
7280,115,55,214,-10,63,-2
7285,113,56,215,-19,69,-8
7290,115,54,221,-23,79,-12
7295,115,53,216,-28,89,-14
7300,114,58,209,-30,96,-19
7305,112,56,215,-41,103,-21
7310,114,59,214,-53,104,-20
7315,111,52,217,-66,99,-15
7320,112,51,218,-82,94,-13
7325,112,49,217,-91,87,-11
7330,109,49,221,-101,81,-9
7335,109,46,221,-105,85,-9
7340,113,48,218,-107,94,-10
7345,111,50,220,-105,104,-12
7350,114,48,221,-103,109,-15
7355,115,48,222,-106,114,-18
7360,114,48,219,-112,122,-25
7365,115,47,219,-118,131,-28
7370,107,47,219,-115,132,-28
7375,119,47,217,-97,129,-29
7380,115,47,219,-79,124,-29
7385,116,46,216,-66,122,-25
7390,112,51,217,-53,121,-20
7395,113,47,212,-39,117,-16
7400,114,54,214,-30,115,-14
7405,114,53,208,-22,117,-12
7410,111,46,216,-14,118,-11
7415,116,53,213,-3,120,-10
7420,113,56,211,5,117,-11
7425,115,55,215,10,115,-13
7430,114,57,211,13,113,-14
7435,116,59,210,12,110,-15
7440,112,59,215,9,109,-16
7445,112,58,213,5,109,-18
7450,115,56,215,0,108,-18
7455,112,62,218,-2,106,-16
7460,113,61,215,-2,100,-16
7465,114,63,214,-2,95,-13
7470,112,67,216,-2,89,-10
7475,112,61,215,-3,85,-6
7480,113,65,219,0,85,-1
7485,112,68,216,3,84,4
7490,112,64,211,4,82,7
7495,111,67,218,3,80,8
7500,112,65,212,-3,76,7
7505,109,65,214,-13,73,6
7510,110,65,214,-20,73,6
7515,104,61,217,-25,78,7
7520,110,66,215,-34,81,5
7525,109,66,215,-42,83,4
7530,109,62,215,-50,86,2
7535,110,62,216,-56,86,0
7540,110,62,217,-62,88,-3
7545,112,59,214,-69,87,-5
7550,112,56,218,-73,85,-7
7555,109,60,216,-75,86,-10
7560,115,56,215,-76,87,-12
7565,111,57,218,-78,89,-13
7570,113,55,216,-80,92,-14
7575,110,59,214,-82,93,-15
7580,113,56,217,-85,95,-15
7585,114,56,216,-89,97,-13
7590,112,55,219,-93,99,-12
7595,112,53,220,-96,101,-12
7600,112,52,218,-96,102,-13
7605,109,52,220,-93,105,-13
7610,112,52,220,-91,108,-11
7615,114,52,219,-90,109,-9
7620,111,49,218,-87,109,-9
7625,112,50,222,-85,108,-8
7630,112,51,221,-83,106,-8
7635,113,49,221,-80,101,-6
7640,110,52,223,-78,98,-4
7645,114,47,219,-74,94,-5
7650,114,47,223,-70,90,-4
7655,111,50,219,-65,86,-2
7660,111,50,216,-60,82,-4
7665,112,49,220,-57,78,-4
7670,111,54,218,-55,74,-3
7675,113,51,221,-54,70,-2
7680,111,50,218,-53,67,-2
7685,111,51,219,-51,65,1
7690,112,50,217,-50,61,3
7695,112,52,216,-48,58,4
7700,114,49,219,-45,55,5
7705,113,51,214,-42,55,4
7710,115,50,213,-38,57,3
7715,112,53,214,-36,58,2
7720,112,53,213,-36,59,3
7725,114,51,212,-34,62,0
7730,115,54,211,-31,65,-2
7735,117,54,217,-27,67,-4
7740,110,54,213,-27,71,-6
7745,110,54,215,-24,78,-5
7750,110,52,213,-24,81,-8
7755,108,56,215,-24,86,-9
7760,111,54,218,-23,88,-8
7765,110,54,211,-22,90,-9
7770,108,55,217,-22,91,-8
7775,109,53,219,-25,90,-8
7780,108,55,217,-32,89,-7
7785,110,53,220,-41,90,-6
7790,109,55,220,-50,89,-6
7795,110,53,219,-58,88,-7
7800,113,50,216,-62,91,-6
7805,113,49,218,-61,90,-6
7810,110,52,220,-60,91,-8
7815,114,53,220,-60,93,-9
7820,112,51,218,-62,96,-10
7825,113,51,217,-66,100,-11
7830,113,52,216,-70,103,-12
7835,112,51,222,-73,104,-12
7840,111,52,215,-74,104,-13
7845,100,48,225,-71,103,-11
7850,108,53,218,-64,100,-12
7855,114,49,215,-55,95,-12
7860,111,53,217,-46,90,-12
7865,111,53,216,-41,87,-13
7870,112,53,219,-39,82,-12
7875,111,58,217,-39,80,-12
7880,111,53,214,-39,77,-13
7885,111,57,221,-43,77,-12
7890,108,56,215,-46,76,-10
7895,111,59,214,-48,75,-10
7900,113,52,219,-49,77,-8
7905,113,51,220,-50,77,-5
7910,109,54,218,-51,78,-4
7915,111,55,217,-52,79,-2
7920,108,55,219,-52,78,-1
7925,113,55,218,-54,77,0
7930,110,51,217,-52,78,0
7935,111,49,220,-49,77,2
7940,112,50,219,-47,74,1
7945,113,51,218,-46,72,1
7950,112,51,221,-45,70,1
7955,112,42,213,-45,67,0
7960,111,51,216,-44,67,1
7965,111,50,219,-44,64,2
7970,109,51,218,-45,63,3
7975,108,51,213,-45,63,3
7980,111,49,218,-44,61,3
7985,112,51,216,-44,61,3
7990,110,53,217,-44,61,4
7995,111,51,217,-45,63,4
8000,111,47,219,-46,65,4
8005,111,49,216,-45,68,4
8010,111,51,218,-43,69,4
8015,112,49,216,-38,69,5
8020,109,52,216,-35,68,3
8025,109,49,214,-31,65,2
8030,112,47,219,-28,64,1
8035,112,50,220,-27,61,1
8040,110,49,216,-28,58,2
8045,112,48,221,-29,58,2
8050,107,52,220,-31,58,1
8055,112,48,220,-31,58,1
8060,109,47,222,-28,58,-1
8065,112,47,217,-27,58,-1
8070,110,49,216,-26,57,-1
8075,107,51,212,-29,59,-1
8080,109,48,220,-32,60,-3
8085,109,51,218,-35,60,-3
8090,108,53,218,-42,63,-3
8095,111,51,220,-47,65,-5
8100,113,48,218,-51,67,-3
8105,109,49,217,-56,66,-2
8110,109,50,221,-57,66,-3
8115,112,48,218,-60,64,-5
8120,111,50,217,-59,63,-6
8125,112,47,218,-60,63,-6
8130,110,47,220,-61,63,-8
8135,111,49,218,-61,62,-9
8140,112,48,213,-62,63,-9
8145,111,48,217,-62,63,-10
8150,111,49,219,-60,64,-12
8155,110,49,220,-61,64,-12
8160,111,50,219,-58,62,-14
8165,112,47,218,-57,63,-13
8170,119,52,212,-56,64,-14
8175,108,49,218,-55,63,-11
8180,107,47,218,-51,62,-10
8185,112,45,216,-48,62,-9
8190,112,44,218,-44,62,-9
8195,110,48,216,-39,59,-6
8200,108,48,217,-34,59,-6
8205,111,50,218,-30,59,-4
8210,112,47,218,-24,59,-2
8215,112,46,219,-19,59,-1
8220,115,46,214,-17,59,0
8225,111,49,221,-14,60,-1
8230,111,50,216,-14,62,-1
8235,112,48,214,-11,64,0
8240,113,47,219,-12,66,0
8245,110,50,219,-12,67,1
8250,112,48,220,-14,67,0
8255,110,52,216,-17,70,0
8260,111,49,219,-18,71,0
8265,107,52,219,-22,73,0
8270,110,49,219,-24,76,1
8275,112,50,213,-29,78,0
8280,108,51,223,-33,78,-1
8285,113,47,217,-38,78,-1
8290,108,51,216,-41,79,-1
8295,111,50,218,-45,79,-1
8300,111,48,219,-47,78,-1
8305,109,48,218,-49,77,-1
8310,110,47,217,-49,77,-1
8315,112,49,223,-49,76,0
8320,113,43,218,-47,74,0
8325,111,48,220,-44,71,-1
8330,111,47,215,-42,69,0
8335,113,48,218,-40,65,0
8340,110,47,220,-39,65,1
8345,109,49,216,-39,63,1
8350,110,47,222,-38,61,2
8355,110,46,217,-36,62,2
8360,110,46,219,-31,60,3
8365,109,48,216,-27,54,6
8370,114,45,218,-20,51,6
8375,113,47,218,-11,50,5
8380,111,46,216,-4,48,4
8385,114,48,219,2,47,3
8390,110,53,224,10,49,0
8395,111,47,218,18,51,-5
8400,110,48,215,20,55,-7
8405,112,51,214,21,61,-10
8410,109,50,214,17,65,-13
8415,110,49,215,12,72,-13
8420,109,50,215,2,76,-12
8425,111,46,218,-4,82,-12
8430,110,46,216,-7,83,-11
8435,110,46,218,-10,83,-11
8440,108,48,220,-13,82,-8
8445,107,48,220,-17,80,-8
8450,112,46,217,-23,77,-6
8455,111,44,223,-29,75,-6
8460,111,46,221,-33,74,-5
8465,110,46,221,-33,72,-3
8470,113,43,222,-33,69,-4
8475,113,48,219,-29,66,-3
8480,112,44,220,-24,65,-3
8485,109,46,218,-19,65,-6
8490,111,47,215,-19,67,-7
8495,108,46,214,-20,69,-9
8500,113,46,216,-24,69,-9
8505,112,45,219,-25,69,-9
8510,113,47,217,-26,70,-6
8515,109,47,217,-24,70,-6
8520,111,47,220,-19,69,-6
8525,111,47,217,-15,67,-5
8530,112,48,218,-10,67,-6
8535,111,51,218,-6,66,-7
8540,112,49,217,-3,67,-7
8545,112,51,217,-3,68,-9
8550,113,51,213,-5,67,-9
8555,111,54,219,-7,68,-9
8560,113,45,218,-10,67,-8
8565,113,50,220,-11,68,-6
8570,112,50,216,-13,68,-6
8575,113,49,220,-13,70,-6
8580,112,50,218,-13,70,-5
8585,111,48,218,-13,73,-4
8590,113,47,217,-14,72,-4
8595,112,48,216,-14,73,-4
8600,112,46,217,-13,72,-2
8605,112,45,213,-15,72,-2
8610,110,48,217,-14,73,-2
8615,110,49,221,-15,73,-2
8620,112,50,218,-16,74,-4
8625,110,49,218,-16,75,-2
8630,110,48,220,-15,77,-2
8635,111,48,217,-15,77,-2
8640,110,48,219,-14,77,-1
8645,111,49,215,-13,77,-2
8650,109,46,217,-13,76,-5
8655,112,46,213,-12,77,-4
8660,108,50,219,-10,75,-5
8665,108,48,218,-11,76,-5
8670,110,48,213,-12,77,-4
8675,113,49,215,-12,78,-4
8680,109,50,216,-10,79,-4
8685,110,46,217,-9,79,-4
8690,111,48,217,-7,79,-4
8695,113,48,218,-6,79,-6
8700,114,48,215,-5,79,-6
8705,112,48,213,-4,78,-6
8710,113,47,220,-4,77,-6
8715,112,45,214,-2,76,-5
8720,111,46,218,-1,75,-5
8725,111,47,217,1,74,-7
8730,111,47,214,6,76,-5
8735,107,50,219,7,76,-7
8740,108,50,215,7,77,-8
8745,110,47,214,2,79,-7
8750,111,49,215,-3,82,-11
8755,109,47,220,-9,87,-11
8760,110,49,217,-16,91,-10
8765,110,49,220,-20,91,-11
8770,111,48,219,-23,92,-12
8775,111,45,219,-25,91,-10
8780,112,48,219,-23,91,-11
8785,114,45,218,-21,89,-10
8790,112,51,219,-20,91,-11
8795,112,49,219,-17,91,-11
8800,111,49,218,-15,91,-12
8805,112,47,220,-16,89,-13
8810,110,48,214,-17,89,-13
8815,111,48,216,-17,88,-14
8820,112,48,219,-19,89,-14
8825,110,45,232,-20,90,-16
8830,109,48,219,-22,88,-16
8835,108,49,217,-22,87,-13
8840,108,47,221,-20,87,-13
8845,109,49,216,-19,85,-12
8850,108,47,220,-12,84,-11
8855,110,47,217,-7,82,-10
8860,110,47,220,-1,79,-7
8865,111,45,216,4,77,-6
8870,109,49,215,9,76,-6
8875,112,48,217,10,75,-8
8880,109,47,211,12,78,-8
8885,113,45,222,11,78,-7
8890,111,47,215,11,81,-6
8895,109,50,218,10,83,-7
8900,110,50,222,8,86,-8
8905,110,49,221,8,88,-9
8910,108,51,221,8,90,-9
8915,109,51,216,7,90,-8
8920,110,49,216,5,93,-10
8925,107,50,218,4,94,-9
8930,110,48,219,2,96,-8
8935,112,42,213,-1,97,-8
8940,113,50,216,-4,98,-7
8945,111,48,220,-5,97,-7
8950,110,50,219,-7,96,-7
8955,111,51,222,-7,94,-5
8960,106,48,217,-7,92,-6
8965,113,44,221,-6,90,-6
8970,107,48,222,-5,89,-6
8975,108,48,221,-6,90,-8
8980,113,51,218,-5,89,-9
8985,109,50,215,-8,90,-12
8990,111,47,218,-11,90,-12
8995,110,49,221,-13,92,-12
9000,111,49,222,-17,93,-12
9005,112,45,219,-18,94,-11
9010,108,49,220,-19,94,-10
9015,111,44,222,-18,90,-10
9020,110,51,217,-16,89,-9
9025,107,48,218,-13,86,-9
9030,106,48,221,-10,84,-9
9035,109,47,219,-8,83,-9
9040,102,50,217,-8,83,-8
9045,105,48,217,-8,81,-8
9050,107,47,216,-9,82,-9
9055,109,45,216,-10,80,-8
9060,107,49,217,-8,78,-10
9065,113,48,219,-5,75,-10
9070,109,50,216,-1,74,-9
9075,110,48,218,5,70,-10
9080,109,50,218,12,71,-11
9085,107,49,217,15,71,-13
9090,109,47,216,18,73,-14
9095,108,50,217,19,75,-16
9100,110,50,218,21,79,-16
9105,109,51,219,21,83,-18
9110,109,54,218,22,87,-18
9115,110,48,219,21,89,-18
9120,106,49,218,20,90,-14
9125,106,47,216,20,90,-15
9130,105,48,217,20,88,-16
9135,105,51,219,19,86,-14
9140,104,51,221,16,86,-14
9145,102,50,219,9,83,-12
9150,108,46,217,2,83,-11
9155,107,48,222,-5,82,-11
9160,107,47,222,-8,83,-8
9165,111,47,222,-10,83,-7
9170,105,49,222,-7,83,-9
9175,108,46,221,-3,83,-10
9180,107,47,220,0,85,-12
9185,107,46,220,3,86,-11
9190,108,48,214,4,89,-12
9195,106,51,218,3,90,-12
9200,110,48,217,0,92,-13
9205,108,47,221,-2,92,-12
9210,107,50,219,-2,91,-9
9215,107,49,220,-3,88,-9
9220,107,49,223,-2,85,-7
9225,105,52,218,1,83,-5
9230,106,52,220,4,78,-5
9235,107,51,219,5,76,-6
9240,107,51,220,5,76,-3
9245,107,52,218,5,72,-3
9250,106,53,221,2,69,-3
9255,108,49,219,0,65,-3
9260,111,55,225,-3,63,-5
9265,105,53,221,-4,63,-4
9270,107,54,217,-4,66,-3
9275,105,50,218,-5,71,0
9280,107,53,215,-5,74,2
9285,106,53,219,-5,75,2
9290,109,50,217,-6,76,2
9295,109,52,219,-9,78,2
9300,107,51,222,-10,77,3
9305,106,51,216,-7,77,3
9310,109,53,218,-7,77,3
9315,107,49,220,-5,75,4
9320,108,50,219,-3,76,4
9325,110,50,219,-1,76,2
9330,109,49,217,1,78,2
9335,111,48,218,4,78,0
9340,108,52,217,4,81,-1
9345,109,50,215,2,83,-1
9350,109,50,216,-2,85,-1
9355,109,48,219,-1,84,-2
9360,109,53,220,-3,84,-4
9365,108,50,222,-4,83,-4
9370,106,54,219,-4,83,-5
9375,110,49,219,-7,84,-6
9380,110,51,218,-8,84,-4
9385,109,52,220,-9,83,-4
9390,108,55,218,-10,83,-4
9395,109,51,217,-12,82,-4
9400,110,50,220,-16,84,-4
9405,109,51,217,-20,87,-4
9410,110,49,222,-18,86,-4
9415,110,51,218,-17,83,-6
9420,108,47,220,-14,80,-5
9425,109,50,220,-10,74,-5
9430,105,52,215,-5,68,-7
9435,110,50,220,-4,65,-8
9440,107,52,214,-6,66,-10
9445,108,52,219,-9,73,-10
9450,103,55,218,-11,80,-11
9455,109,51,216,-16,85,-11
9460,110,51,217,-22,89,-12
9465,106,52,222,-28,95,-13
9470,106,49,218,-31,97,-14
9475,108,50,221,-33,97,-13
9480,110,52,213,-35,97,-14
9485,109,49,219,-37,97,-15
9490,106,52,223,-37,98,-15
9495,107,48,219,-38,97,-13
9500,110,48,219,-36,96,-14
9505,110,49,219,-36,95,-17
9510,109,53,220,-33,92,-16
9515,108,49,222,-30,89,-16
9520,108,50,218,-28,89,-17
9525,108,47,218,-27,86,-16
9530,109,48,218,-27,89,-15
9535,108,52,220,-28,89,-17
9540,108,50,218,-29,92,-16
9545,109,48,221,-27,92,-16
9550,108,50,222,-27,92,-16
9555,108,48,218,-24,92,-17
9560,110,53,220,-20,90,-17
9565,103,50,222,-19,90,-18
9570,103,51,217,-17,88,-16
9575,106,51,219,-15,86,-15
9580,106,52,218,-14,89,-14
9585,106,51,220,-15,88,-14
9590,106,50,219,-15,88,-13
9595,108,50,217,-17,87,-13
9600,104,52,223,-19,86,-13
9605,106,51,220,-19,86,-11
9610,107,49,219,-19,86,-11
9615,104,51,219,-18,86,-12
9620,106,50,217,-17,86,-11
9625,104,51,221,-17,84,-10
9630,103,49,220,-17,84,-8
9635,106,49,220,-17,83,-9
9640,102,52,223,-17,83,-7
9645,105,49,220,-17,83,-6
9650,102,49,222,-18,83,-5
9655,106,50,220,-16,83,-4
9660,102,47,222,-15,80,-4
9665,104,50,222,-15,76,-2
9670,105,48,221,-13,73,0
9675,103,46,222,-13,69,2
9680,104,49,220,-10,67,3
9685,101,48,224,-6,65,4
9690,104,48,221,-4,62,6
9695,106,45,220,-4,59,7
9700,104,49,225,-4,57,11
9705,104,49,221,-3,54,11
9710,100,49,222,-3,52,14
9715,102,48,222,-3,50,14
9720,101,50,221,-2,49,14
9725,102,48,220,-3,47,14
9730,102,49,222,-4,46,14
9735,100,49,222,-5,47,12
9740,104,50,221,-6,47,12
9745,100,52,219,-6,48,14
9750,105,52,222,-5,49,14
9755,104,49,219,-5,48,13
9760,106,53,218,-3,48,13
9765,107,49,219,-2,48,13
9770,104,48,219,0,47,15
9775,105,47,217,0,46,14
9780,102,53,217,3,46,15
9785,105,48,216,3,45,14
9790,103,47,216,4,44,14
9795,107,49,220,3,44,15
9800,107,47,217,2,42,14
9805,102,48,223,1,42,15
9810,108,52,216,0,42,13
9815,109,51,219,-2,40,13
9820,106,50,220,0,40,11
9825,110,49,220,1,38,12
9830,107,51,219,2,38,12
9835,106,53,215,2,37,12
9840,110,50,222,1,37,13
9845,107,48,217,1,40,11
9850,107,52,214,0,39,10
9855,113,51,216,-3,42,10
9860,105,49,218,-6,43,11
9865,108,50,218,-8,44,10
9870,108,48,217,-9,43,10
9875,108,49,216,-7,43,9
9880,108,51,218,-5,41,8
9885,110,47,218,-2,40,11
9890,105,50,221,0,39,11
9895,110,51,216,3,40,10
9900,109,51,217,6,41,12
9905,107,53,219,7,42,11
9910,110,50,217,9,42,11
9915,105,54,214,8,43,11
9920,107,53,218,7,46,10
9925,109,48,219,4,49,10
9930,109,48,218,3,52,10
9935,109,50,220,2,53,12
9940,109,49,219,3,53,12
9945,108,50,217,8,53,11
9950,108,53,218,9,54,10
9955,112,51,218,10,55,8
9960,110,52,218,9,57,7
9965,108,52,217,6,61,6
9970,111,54,215,2,65,5
9975,112,53,221,-1,68,3
9980,109,53,215,-1,70,4
9985,111,53,219,2,71,3
9990,109,49,218,7,70,3
9995,111,46,216,11,68,2
10000,108,52,216,17,67,2
10005,108,51,217,22,64,2
10010,108,49,221,23,63,1
10015,107,49,221,20,61,1
10020,107,48,225,12,62,1
10025,107,51,222,1,65,2
10030,108,50,222,-7,68,2
10035,109,48,222,-13,70,2
10040,109,48,222,-14,73,0
10045,109,48,220,-11,76,-2
10050,105,50,220,-10,77,-2
10055,109,48,222,-10,79,-4
10060,110,52,219,-15,81,-6
10065,112,54,218,-22,83,-4
10070,106,50,221,-28,87,-6
10075,110,50,216,-33,89,-5
10080,111,49,221,-35,87,-4
10085,107,50,220,-33,85,-3
10090,108,48,218,-30,82,-1
10095,111,50,222,-25,79,-1
10100,108,51,221,-21,75,-1
10105,110,52,223,-21,69,0
10110,106,53,219,-20,65,1
10115,109,55,218,-23,63,0
10120,108,53,223,-26,60,1
10125,111,50,221,-30,58,0
10130,111,56,224,-34,58,0
10135,109,51,219,-35,57,3
10140,110,52,218,-36,56,4
10145,107,52,216,-36,57,4
10150,107,52,221,-35,58,6
10155,109,54,217,-35,58,8
10160,108,50,219,-35,60,7
10165,107,50,217,-34,63,7
10170,105,51,219,-34,63,6
10175,107,50,220,-34,65,7
10180,105,54,222,-35,67,6
10185,109,49,218,-34,67,7
10190,107,48,221,-33,68,7
10195,109,48,222,-35,68,6
10200,106,52,220,-38,70,7
10205,109,50,219,-38,70,7
10210,109,49,221,-41,71,5
10215,108,51,218,-42,72,6
10220,107,48,216,-44,72,6
10225,107,53,219,-45,73,6
10230,110,51,219,-47,73,7
10235,108,51,221,-48,72,7
10240,108,50,218,-50,70,5
10245,109,49,218,-53,68,5
10250,107,49,220,-56,67,5
10255,108,49,218,-59,66,5
10260,106,48,220,-60,67,6
10265,108,49,216,-62,66,6
10270,106,48,221,-59,67,8
10275,108,47,219,-56,66,10
10280,111,46,220,-50,66,11
10285,109,48,218,-46,62,9
10290,109,44,222,-40,59,9
10295,109,48,218,-36,58,8
10300,111,51,220,-33,56,8
10305,110,48,216,-33,55,7
10310,107,51,219,-36,56,5
10315,106,52,220,-37,57,4
10320,110,47,215,-39,58,4
10325,108,51,219,-41,58,3
10330,108,48,219,-40,59,1
10335,108,51,217,-40,59,0
10340,110,49,223,-42,60,-1
10345,107,51,221,-48,61,0
10350,106,53,220,-53,60,-3
10355,105,52,219,-61,62,-2
10360,107,48,223,-68,62,-1
10365,111,47,219,-71,61,-3
10370,106,50,216,-75,63,-4
10375,109,44,219,-76,63,-4
10380,107,47,223,-74,62,-2
10385,110,46,219,-72,61,1
10390,109,47,221,-67,61,-1
10395,108,49,219,-63,59,-2
10400,112,43,218,-59,59,-2
10405,108,48,221,-53,58,-2
10410,110,46,219,-52,57,-3
10415,110,45,219,-50,59,-4
10420,109,49,216,-49,61,-5
10425,110,47,218,-48,61,-3
10430,109,50,217,-48,62,-4
10435,109,48,215,-48,62,-5
10440,109,48,218,-47,61,-4
10445,105,48,217,-47,61,-4
10450,108,49,218,-47,60,-4
10455,107,45,217,-44,58,-4
10460,106,47,217,-41,58,-1
10465,109,48,220,-37,56,1
10470,109,45,220,-34,55,1
10475,111,45,218,-32,54,1
10480,108,46,218,-29,56,-1
10485,107,47,219,-26,56,0
10490,106,50,217,-25,56,1
10495,111,47,222,-23,55,0
10500,105,46,221,-23,56,0
10505,111,46,218,-23,58,-2
10510,108,46,223,-25,59,-2
10515,108,49,220,-27,60,-1
10520,107,46,220,-28,61,-1
10525,108,47,219,-31,62,-1
10530,108,46,218,-33,64,-1
10535,110,47,221,-35,64,-1
10540,109,49,221,-37,65,1
10545,108,47,221,-38,64,1
10550,109,48,220,-39,64,1
10555,112,44,218,-39,63,2
10560,111,46,220,-38,62,2
10565,111,43,229,-38,61,0
10570,110,45,221,-37,59,0
10575,108,46,216,-36,60,1
10580,107,47,216,-35,60,1
10585,108,46,219,-33,58,1
10590,106,46,221,-31,58,0
10595,107,45,218,-28,58,0
10600,110,47,221,-28,56,-1
10605,108,44,218,-29,58,-1
10610,105,49,221,-29,58,-2
10615,110,45,221,-31,58,-2
10620,112,49,221,-32,58,0
10625,109,47,221,-33,59,-2
10630,104,45,220,-36,58,0
10635,112,45,221,-36,57,-1
10640,111,46,221,-36,57,-1
10645,109,45,219,-39,58,-1
10650,109,47,223,-40,58,-1
10655,106,46,221,-40,57,0
10660,110,42,217,-40,57,0
10665,111,48,224,-40,56,-1
10670,109,43,219,-38,53,0
10675,109,43,218,-36,50,-1
10680,109,48,218,-34,49,-1
10685,111,43,218,-32,48,0
10690,110,46,220,-31,48,0
10695,108,45,219,-30,48,-2
10700,111,45,220,-29,47,-2
10705,110,45,220,-29,46,-1
10710,107,44,217,-30,47,-3
10715,112,48,221,-29,47,-3
10720,110,44,221,-29,46,-1
10725,109,44,218,-32,48,-3
10730,111,54,229,-32,49,-3
10735,106,47,231,-34,51,-4
10740,122,45,228,-36,55,-5
10745,124,45,223,-37,59,-5
10750,108,59,208,-38,59,-3
10755,101,38,220,-38,58,-2
10760,107,28,224,-37,57,1
10765,118,51,225,-34,54,1
10770,107,49,217,-32,54,3
10775,115,49,222,-29,53,4
10780,107,51,224,-25,52,4
10785,109,45,220,-21,53,3
10790,111,43,218,-18,51,2
10795,109,42,218,-18,52,3
10800,109,46,218,-18,52,3
10805,107,47,217,-19,52,3
10810,113,47,213,-18,52,5
10815,107,47,221,-16,51,5
10820,105,46,218,-13,48,6
10825,112,41,222,-10,46,5
10830,107,41,221,-4,44,4
10835,116,55,207,0,45,4
10840,113,45,215,4,49,0
10845,122,54,213,9,50,-1
10850,126,47,212,12,52,-2
10855,102,46,213,14,55,-4
10860,115,51,220,13,59,-6
10865,112,55,218,9,62,-5
10870,109,47,219,5,65,-5
10875,110,46,215,2,69,-5
10880,109,42,219,1,70,-4
10885,109,47,222,-3,70,-5
10890,107,32,218,-6,70,-4
10895,107,50,221,-11,67,-3
10900,112,38,217,-19,67,-2
10905,113,44,228,-27,67,-1
10910,107,42,227,-35,67,-1
10915,112,50,249,-42,67,3
10920,101,34,226,-42,67,5
10925,122,52,231,-40,65,5
10930,109,49,216,-35,62,6
10935,110,34,211,-29,59,4
10940,114,49,215,-24,58,2
10945,111,44,217,-23,58,0
10950,112,43,216,-22,58,-1
10955,112,42,219,-22,58,-2
10960,110,46,213,-22,59,-3
10965,111,39,221,-21,56,-2
10970,112,45,219,-18,54,-1
10975,112,44,216,-13,53,-2
10980,117,46,221,-7,53,-3
10985,112,47,221,0,55,-4
10990,110,39,226,3,54,-4
10995,122,39,223,4,56,-6
11000,112,49,224,3,57,-7
11005,111,59,227,0,57,-6
11010,102,52,218,-2,56,-6
11015,128,35,225,-5,56,-6
11020,112,35,231,-5,58,-4
11025,108,47,215,-8,58,-3
11030,110,46,219,-9,61,-1
11035,111,46,217,-11,63,1
11040,110,47,216,-12,65,-1
11045,100,42,226,-14,65,0
11050,105,42,207,-15,67,1
11055,110,41,211,-16,69,1
11060,114,44,223,-16,70,2
11065,114,46,216,-17,71,2
11070,111,47,219,-16,71,2
11075,109,37,221,-14,70,4
11080,109,52,210,-13,70,3
11085,109,44,221,-10,70,1
11090,114,44,221,-10,70,1
11095,114,49,206,-10,69,0
11100,109,42,217,-10,68,2
11105,109,43,219,-9,69,0
11110,108,44,214,-9,68,0
11115,111,44,220,-10,68,0
11120,123,30,213,-9,67,-1
11125,98,51,225,-9,68,-3
11130,111,55,213,-9,70,-2
11135,111,21,222,-9,70,-2
11140,118,62,212,-9,72,-1
11145,112,46,215,-8,73,-1
11150,99,47,215,-7,73,0
11155,108,50,213,-6,74,1
11160,106,47,214,-6,76,1
11165,101,46,216,-7,75,1
11170,117,46,216,-6,75,0
11175,113,47,215,-4,74,0
11180,113,42,218,-2,72,0
11185,109,43,216,2,70,0
11190,109,45,220,7,68,0
11195,108,50,214,11,67,-3
11200,112,46,215,11,67,-4
11205,110,46,209,9,71,-5
11210,111,41,224,5,74,-6
11215,105,44,225,-4,79,-9
11220,109,44,215,-12,84,-6
11225,107,48,219,-18,85,-8
11230,111,45,222,-25,87,-7
11235,110,44,218,-30,87,-7
11240,109,43,218,-31,86,-6
11245,110,43,220,-31,86,-4
11250,112,45,214,-28,87,-4
11255,112,42,220,-26,84,-2
11260,112,54,215,-23,83,-4
11265,112,44,218,-20,82,-5
11270,113,43,219,-18,81,-6
11275,112,43,218,-17,80,-7
11280,115,45,217,-17,79,-6
11285,98,54,217,-17,77,-8
11290,112,44,218,-17,78,-9
11295,110,47,221,-19,77,-9
11300,110,46,219,-19,79,-8
11305,109,44,219,-19,78,-8
11310,111,41,222,-18,79,-6
11315,110,46,218,-14,78,-2
11320,108,41,224,-10,77,-2
11325,110,43,216,-5,76,-3
11330,102,47,227,-1,74,-2
11335,111,45,217,2,74,-2
11340,109,45,219,6,73,-1
11345,111,48,218,7,73,-1
11350,111,45,220,7,74,-1
11355,112,44,216,8,75,-3
11360,111,45,223,8,76,-3
11365,107,47,219,7,76,-2
11370,110,49,218,7,77,-3
11375,110,50,220,4,79,-3
11380,111,47,218,3,81,-3
11385,106,47,220,2,83,-4
11390,111,46,219,-1,85,-4
11395,110,45,223,-4,87,-2
11400,108,44,218,-5,88,-2
11405,111,46,220,-8,87,-3
11410,112,44,218,-9,86,-1
11415,111,44,216,-10,84,-2
11420,111,44,219,-8,84,-1
11425,112,44,218,-7,81,0
11430,111,46,217,-5,78,0
11435,107,45,219,-3,77,-1
11440,113,39,222,-3,77,-1
11445,111,42,220,-2,76,-2
11450,109,47,220,-1,74,-1
11455,111,45,219,1,73,-2
11460,109,45,217,1,73,-1
11465,109,46,215,1,73,-5
11470,110,45,220,2,72,-5
11475,109,44,220,0,74,-5
11480,109,43,221,-2,77,-5
11485,109,47,221,-3,77,-6
11490,111,45,218,-8,78,-6
11495,110,46,221,-10,81,-7
11500,110,45,217,-14,83,-8
11505,111,44,223,-16,85,-7
11510,111,46,219,-20,88,-6
11515,112,45,220,-22,89,-6
11520,111,42,219,-22,88,-6
11525,111,47,219,-21,89,-4
11530,110,44,217,-17,87,-5
11535,112,42,223,-14,83,-2
11540,108,45,221,-10,81,-3
11545,111,42,221,-5,78,-3
11550,111,41,220,-2,76,-4
11555,109,45,221,0,75,-5
11560,109,46,219,0,74,-6
11565,111,43,217,0,74,-5
11570,108,47,220,-1,75,-4
11575,108,44,220,-3,75,-3
11580,110,45,219,-4,74,-3
11585,109,45,219,-3,73,-1
11590,111,45,219,-2,72,-1
11595,111,44,216,1,70,-2
11600,108,47,220,2,68,-3
11605,109,50,222,5,69,-4
11610,107,49,216,6,70,-5
11615,108,47,215,7,74,-8
11620,111,44,220,8,76,-10
11625,112,47,217,9,77,-11
11630,110,48,221,8,82,-11
11635,108,47,217,9,84,-11
11640,110,48,217,8,85,-11
11645,109,46,215,8,87,-11
11650,107,46,220,8,88,-11
11655,107,49,225,11,88,-10
11660,109,44,219,12,88,-12
11665,106,47,219,13,87,-11
11670,106,44,219,9,86,-10
11675,109,44,219,6,86,-9
11680,106,45,219,-1,85,-8
11685,107,45,220,-8,85,-8
11690,109,45,217,-12,86,-8
11695,110,43,219,-12,89,-6
11700,111,45,223,-8,88,-8
11705,107,45,222,-3,86,-7
11710,109,45,215,1,85,-9
11715,110,46,220,3,88,-12
11720,108,47,218,4,88,-13
11725,111,46,219,3,91,-12
11730,109,46,215,0,91,-12
11735,110,45,218,-1,91,-13
11740,109,44,219,-2,91,-11
11745,108,49,216,-1,91,-10
11750,110,47,215,3,91,-11
11755,110,50,218,5,89,-11
11760,108,46,213,8,87,-10
11765,111,50,210,7,86,-12
11770,109,48,218,6,85,-13
11775,112,48,219,4,83,-13
11780,111,49,220,1,84,-14
11785,109,49,223,-3,83,-12
11790,111,46,217,-4,84,-11
11795,111,46,220,-6,84,-10
11800,111,47,217,-8,83,-9
11805,107,49,223,-8,83,-8
11810,105,47,219,-8,83,-6
11815,108,47,221,-7,84,-6
11820,110,46,219,-8,84,-5
11825,105,48,218,-7,85,-5
11830,108,47,220,-6,85,-6
11835,107,48,219,-5,86,-4
11840,108,47,218,-4,86,-4
11845,107,47,217,-3,86,-5
11850,108,47,218,-2,84,-5
11855,109,47,219,-1,86,-5
11860,108,48,216,0,86,-6
11865,106,47,220,0,86,-4
11870,106,48,215,-1,86,-6
11875,99,46,220,0,86,-6
11880,108,48,222,-2,87,-7
11885,108,45,219,-3,86,-7
11890,106,47,216,-4,86,-8
11895,107,46,219,-6,85,-8
11900,106,49,219,-9,84,-8
11905,107,48,219,-10,84,-8
11910,106,46,223,-11,85,-8
11915,109,46,221,-13,85,-7
11920,109,46,222,-13,86,-6
11925,108,45,222,-14,85,-7
11930,105,46,222,-11,85,-5
11935,106,45,217,-10,85,-4
11940,107,45,217,-7,86,-4
11945,111,45,218,-5,84,-3
11950,111,48,218,-4,81,-3
11955,111,46,220,-1,79,-3
11960,110,49,221,2,75,-3
11965,107,47,219,5,73,-3
11970,105,45,218,7,73,-5
11975,107,48,220,7,73,-5
11980,108,48,216,6,77,-7
11985,104,51,216,4,80,-9
11990,108,50,222,0,83,-11
11995,106,48,223,-4,86,-11
12000,106,49,218,-9,90,-11
12005,106,49,222,-18,91,-11
12010,107,49,223,-21,91,-10
12015,105,47,222,-25,92,-9
12020,108,45,220,-27,90,-9
12025,105,48,219,-25,89,-9
12030,108,47,219,-24,88,-8
12035,108,45,220,-20,87,-7
12040,108,48,219,-20,85,-8
12045,109,47,220,-19,84,-9
12050,109,49,223,-17,82,-8
12055,110,47,219,-16,81,-9
12060,108,47,220,-16,81,-10
12065,107,49,217,-16,80,-11
12070,107,48,218,-16,81,-9
12075,110,45,220,-16,81,-10
12080,106,46,221,-15,81,-10
12085,107,48,220,-14,79,-11
12090,101,44,220,-12,77,-9
12095,105,50,219,-10,77,-7
12100,107,47,220,-8,79,-7
12105,106,48,218,-7,78,-5
12110,109,45,217,-5,76,-5
12115,107,46,217,-3,75,-4
12120,108,48,219,-1,76,-2
12125,107,46,219,1,76,-3
12130,107,48,220,1,76,-2
12135,109,48,219,1,78,-2
12140,104,49,219,1,79,-3
12145,107,48,217,1,80,-4
12150,109,45,219,0,83,-6
12155,106,49,221,-1,81,-6
12160,105,47,220,-3,84,-5
12165,109,47,220,-3,83,-4
12170,107,49,222,-6,83,-4
12175,109,48,217,-7,83,-3
12180,107,47,218,-6,84,-4
12185,108,46,221,-6,82,-5
12190,106,48,220,-6,81,-4
12195,108,47,219,-7,80,-3
12200,102,52,222,-9,80,-4
12205,105,48,219,-9,78,-4
12210,108,47,218,-9,77,-4
12215,107,46,218,-10,77,-2
12220,105,47,222,-9,76,-3
12225,107,45,222,-9,75,-2
12230,108,44,223,-7,75,-3
12235,107,46,221,-7,75,-4
12240,106,47,219,-7,74,-4
12245,107,44,221,-6,74,-3
12250,107,48,219,-5,75,-2
12255,104,46,219,-6,74,-2
12260,107,46,216,-7,74,-3
12265,106,48,222,-9,76,-5
12270,107,44,218,-8,77,-4
12275,107,48,220,-9,77,-3
12280,108,48,221,-7,77,-4
12285,104,49,216,-8,78,-3
12290,106,48,222,-10,76,-3
12295,106,48,220,-9,75,-3
12300,106,50,218,-10,75,-4
12305,105,50,220,-11,75,-5
12310,104,42,218,-10,75,-5
12315,104,47,219,-9,73,-5
12320,108,49,217,-11,73,-4
12325,106,48,220,-9,73,-4
12330,109,48,222,-11,72,-2
12335,109,49,219,-12,71,-3
12340,108,49,220,-11,70,-3
12345,103,51,220,-10,69,-2
12350,105,51,220,-11,68,-4
12355,106,47,219,-9,68,-4
12360,107,50,218,-10,68,-4
12365,106,48,220,-9,69,-4
12370,104,49,222,-9,70,-3
12375,107,48,222,-8,69,-3
12380,106,48,220,-8,69,-4
12385,104,48,219,-8,69,-5
12390,106,48,219,-7,70,-4
12395,105,49,215,-6,69,-4
12400,104,47,220,-6,69,-4
12405,105,49,221,-6,69,-4
12410,107,47,222,-7,70,-3
12415,106,47,221,-7,69,-3
12420,100,46,213,-7,69,-3
12425,109,47,220,-6,69,-3
12430,106,48,218,-5,69,-3
12435,106,46,221,-5,69,-4
12440,105,48,221,-5,70,-4
12445,107,50,218,-4,71,-3
12450,110,50,219,-5,71,-3
12455,102,52,220,-5,71,-2
12460,106,46,218,-6,70,-4
12465,108,50,219,-5,68,-4
12470,106,48,220,-5,70,-3
12475,105,48,220,-4,70,-4
12480,108,45,222,-4,70,-3
12485,102,50,222,-3,70,-2
12490,105,47,221,-4,69,-4
12495,107,47,221,-4,70,-4
12500,107,48,218,-6,71,-3
12505,105,46,220,-7,73,-4
12510,106,45,220,-6,73,-4
12515,104,48,220,-7,73,-4
12520,107,46,219,-7,72,-4
12525,105,50,221,-8,74,-4
12530,115,42,220,-8,73,-5
12535,106,48,221,-8,73,-4
12540,106,49,220,-9,75,-4
12545,104,49,219,-9,75,-4
12550,105,50,219,-9,73,-4
12555,107,49,222,-7,72,-4
12560,105,47,221,-8,71,-4
12565,110,48,224,-8,71,-4
12570,107,48,219,-8,71,-4
12575,105,49,220,-7,69,-5
12580,107,49,221,-6,68,-3
12585,106,49,218,-4,69,-4
12590,106,46,219,-4,67,-4
12595,106,48,224,-5,68,-4
12600,105,47,222,-4,69,-5
12605,106,48,218,-4,70,-3
12610,107,49,219,-5,68,-4
12615,107,47,216,-3,68,-3
12620,103,49,221,-2,66,-4
12625,107,48,221,-2,66,-2
12630,104,49,220,-4,66,-1
12635,106,48,217,-3,64,-2
12640,106,48,216,-4,62,-2
12645,109,50,219,-4,60,-3
12650,106,49,219,-3,62,-4
12655,110,47,219,0,61,-2
12660,105,47,219,1,61,-2
12665,108,49,219,1,59,-2
12670,106,49,220,0,59,-3
12675,107,48,217,-2,60,-3
12680,106,48,220,-4,64,-3
12685,105,49,218,-8,66,-3
12690,108,46,218,-10,70,-5
12695,106,48,222,-13,72,-4
12700,104,45,218,-17,74,-4
12705,107,47,216,-19,77,-4
12710,106,49,223,-20,78,-3
12715,106,48,218,-17,77,-2
12720,108,50,219,-15,74,-1
12725,108,47,222,-13,73,0
12730,106,47,223,-10,70,0
12735,104,50,219,-10,64,-2
12740,105,47,220,-12,57,-5
12745,112,55,217,-13,56,-4
12750,108,48,219,-12,57,-4
12755,107,47,222,-11,59,-4
12760,104,47,219,-7,60,-2
12765,110,48,219,-3,60,-1
12770,106,52,218,-1,60,-2
12775,104,52,214,2,63,-2
12780,104,50,218,2,66,-3
12785,108,49,217,-1,70,-4
12790,107,48,219,-4,74,-3
12795,111,52,216,-6,79,-6
12800,107,51,220,-6,83,-6
12805,107,50,219,-1,83,-5
12810,105,45,219,3,83,-5
12815,109,47,217,10,81,-6
12820,108,47,218,15,77,-4
12825,104,50,218,23,73,-5
12830,105,47,218,27,70,-5
12835,103,48,220,27,70,-5
12840,103,48,220,23,71,-6
12845,104,50,220,16,73,-7
12850,107,48,222,7,75,-6
12855,110,49,221,-1,77,-6
12860,104,49,222,-5,77,-7
12865,104,48,221,-3,79,-9
12870,104,48,218,1,82,-10
12875,107,51,215,3,85,-11
12880,109,48,218,2,90,-11
12885,105,53,219,-2,98,-12
12890,110,44,215,-13,108,-12
12895,106,49,221,-18,112,-12
12900,109,50,216,-20,112,-12
12905,106,48,219,-19,111,-12
12910,107,46,219,-19,110,-12
12915,107,49,223,-16,110,-11
12920,106,51,219,-15,110,-11
12925,108,49,219,-13,107,-8
12930,107,53,218,-13,105,-9
12935,107,50,221,-14,101,-8
12940,106,51,219,-17,96,-8
12945,107,52,221,-22,93,-7
12950,105,54,217,-26,86,-7
12955,107,50,221,-28,79,-6
12960,107,52,221,-34,75,-4
12965,103,43,232,-37,72,-4
12970,105,50,220,-36,73,-3
12975,106,48,221,-34,75,-2
12980,107,46,217,-31,77,-2
12985,104,48,221,-30,75,-1
12990,104,49,224,-29,76,-1
12995,104,49,220,-27,76,-2
13000,102,49,219,-28,79,-1
13005,103,50,220,-26,81,-1
13010,106,48,219,-23,83,0
13015,101,48,222,-21,84,-1
13020,108,47,219,-19,84,0
13025,106,50,220,-17,85,0
13030,106,48,220,-17,83,0
13035,107,49,222,-16,83,-2
13040,104,48,218,-17,82,-1
13045,104,48,223,-17,83,-1
13050,104,51,221,-18,83,-2
13055,104,46,219,-20,82,-1
13060,104,48,220,-21,82,-2
13065,106,45,221,-23,82,-1
13070,105,49,219,-27,81,-1
13075,97,56,218,-28,80,-1
13080,99,51,224,-30,79,-1
13085,103,51,226,-31,78,0
13090,103,50,224,-35,74,0
13095,107,45,225,-37,72,1
13100,105,48,220,-36,72,2
13105,106,47,226,-35,70,2
13110,106,47,217,-32,69,3
13115,107,44,220,-29,68,5
13120,107,47,222,-24,65,4
13125,106,47,221,-23,63,3
13130,106,48,222,-20,62,4
13135,106,51,218,-21,62,3
13140,103,44,224,-24,63,2
13145,105,48,223,-27,64,2
13150,105,48,222,-30,66,0
13155,104,48,220,-31,65,0
13160,102,52,222,-32,65,-2
13165,103,47,222,-34,67,-3
13170,103,48,217,-35,68,-3
13175,105,50,223,-39,70,-3
13180,107,55,222,-43,72,-3
13185,102,51,221,-49,73,-4
13190,103,49,221,-55,72,-4
13195,104,45,225,-59,73,-3
13200,101,47,221,-62,72,-3
13205,105,50,224,-63,70,-2
13210,105,47,221,-63,70,-1
13215,106,47,223,-60,66,-1
13220,107,46,220,-57,64,1
13225,105,44,219,-55,62,0
13230,105,49,221,-52,62,2
13235,105,45,219,-49,60,1
13240,104,47,222,-48,62,0
13245,106,50,220,-47,62,1
13250,107,49,222,-47,62,1
13255,104,50,221,-47,62,0
13260,105,47,220,-47,64,2
13265,105,50,220,-47,63,2
13270,106,48,219,-46,62,1
13275,102,45,218,-45,62,3
13280,104,46,219,-43,61,5
13285,105,45,222,-40,59,5
13290,113,49,220,-39,59,6
13295,105,45,222,-36,58,5
13300,106,45,222,-34,58,6
13305,106,44,223,-34,57,6
13310,105,47,221,-33,58,6
13315,106,48,223,-33,57,6
13320,105,50,224,-33,57,6
13325,104,49,219,-33,58,6
13330,105,46,223,-33,57,6
13335,107,47,225,-33,59,6
13340,104,48,222,-36,59,5
13345,107,44,227,-36,58,6
13350,106,48,220,-38,58,5
13355,105,45,217,-39,59,5
13360,107,46,221,-40,59,5
13365,105,47,222,-42,59,6
13370,103,48,223,-43,57,5
13375,107,45,225,-45,56,6
13380,106,43,222,-46,55,5
13385,105,44,222,-45,54,6
13390,106,42,217,-45,53,5
13395,106,47,218,-45,50,6
13400,104,42,221,-44,48,7
13405,107,41,221,-44,50,5
13410,108,43,221,-42,49,5
13415,107,45,223,-40,47,5
13420,107,46,221,-39,47,4
13425,106,43,222,-37,46,4
13430,106,43,221,-35,46,3
13435,106,46,220,-36,47,4
13440,106,44,220,-36,48,4
13445,104,46,223,-36,48,4
13450,105,44,222,-35,47,4
13455,108,44,222,-36,47,3
13460,104,46,218,-36,48,4
13465,105,46,223,-37,47,4
13470,105,47,220,-36,46,5
13475,106,46,222,-37,46,4
13480,106,47,223,-36,46,3
13485,106,44,218,-35,45,4
13490,108,45,223,-35,46,3
13495,109,45,219,-35,45,4
13500,109,43,223,-33,44,5
13505,108,43,220,-33,44,4
13510,109,43,220,-33,43,5
13515,104,44,221,-31,40,4
13520,107,43,222,-32,40,4
13525,107,43,223,-30,41,5
13530,106,46,223,-30,42,4
13535,105,48,222,-28,42,6
13540,106,45,220,-28,41,5
13545,105,43,220,-27,41,4
13550,105,44,219,-27,41,4
13555,108,44,221,-26,41,4
13560,104,44,224,-26,43,2
13565,107,48,221,-25,43,2
13570,105,46,222,-26,44,3
13575,106,46,219,-26,44,2
13580,106,46,223,-26,45,1
13585,108,46,223,-28,44,2
13590,107,44,220,-28,46,2
13595,107,45,219,-30,48,2
13600,107,46,222,-30,51,3
13605,106,46,219,-30,51,3
13610,106,45,220,-30,50,4
13615,108,48,213,-27,51,4
13620,107,44,220,-27,49,3
13625,107,46,221,-24,49,3
13630,109,42,218,-22,50,3
13635,107,44,220,-22,50,4
13640,109,42,217,-21,50,2
13645,109,42,219,-20,48,2
13650,107,45,217,-19,49,2
13655,106,47,221,-20,50,2
13660,104,43,220,-20,50,2
13665,109,45,220,-20,49,1
13670,107,45,220,-21,49,2
13675,106,45,221,-21,50,3
13680,106,41,218,-24,50,3
13685,107,42,219,-25,48,2
13690,108,44,220,-27,49,0
13695,106,45,222,-29,49,2
13700,106,45,219,-27,48,3
13705,107,45,220,-28,48,2
13710,107,45,222,-28,48,1
13715,108,44,221,-28,48,2
13720,107,44,216,-28,46,3
13725,108,36,228,-29,45,3
13730,107,43,219,-27,43,4
13735,108,47,220,-26,43,3
13740,108,45,220,-25,41,2
13745,107,46,221,-24,40,4
13750,107,45,220,-24,40,3
13755,108,45,221,-23,39,4
13760,108,42,222,-22,39,6
13765,108,42,222,-22,37,5
13770,106,43,219,-22,36,5
13775,110,43,220,-21,36,4
13780,111,43,219,-20,37,5
13785,107,47,218,-20,36,4
13790,110,45,217,-23,38,3
13795,105,44,217,-22,42,1
13800,107,41,221,-25,43,-2
13805,106,45,220,-28,47,-2
13810,109,44,220,-31,52,-1
13815,109,46,219,-33,53,0
13820,107,44,219,-33,53,1
13825,110,42,216,-33,51,1
13830,112,41,217,-31,51,2
13835,113,45,217,-29,48,3
13840,109,41,217,-26,47,2
13845,107,46,221,-25,44,4
13850,108,42,219,-23,42,6
13855,108,41,219,-25,43,5
13860,110,42,222,-25,44,5
13865,109,45,218,-23,43,6
13870,106,43,223,-22,44,7
13875,110,40,220,-20,42,9
13880,109,41,220,-16,38,7
13885,110,45,219,-11,35,7
13890,112,42,221,-7,34,6
13895,110,42,219,-4,35,6
13900,110,43,217,1,35,5
13905,115,43,218,6,39,3
13910,110,44,216,10,40,1
13915,107,45,218,14,42,-1
13920,107,46,215,15,44,-2
13925,112,46,217,14,48,-2
13930,109,45,214,11,51,-5
13935,110,47,219,5,54,-7
13940,107,46,220,2,57,-6
13945,106,43,222,-2,59,-5
13950,107,42,219,-9,59,-4
13955,108,43,221,-15,60,-4
13960,108,39,224,-20,59,-1
13965,108,43,225,-29,59,0
13970,108,39,220,-36,58,2
13975,112,38,224,-41,56,4
13980,109,39,226,-44,54,8
13985,109,39,219,-41,49,10
13990,111,37,220,-35,45,7
13995,111,40,218,-27,44,4
14000,108,41,221,-17,42,5
14005,110,43,219,-12,41,3
14010,109,42,217,-12,42,1
14015,112,45,221,-12,43,1
14020,112,40,220,-11,43,1
14025,110,41,217,-11,45,1
14030,110,44,217,-9,45,0
14035,111,43,216,-6,45,0
14040,110,45,218,-2,47,-1
14045,110,46,217,2,50,-2
14050,113,43,214,6,53,-4
14055,111,37,212,9,54,-5
14060,111,44,218,10,54,-5
14065,110,45,218,8,55,-6
14070,110,47,216,6,56,-6
14075,110,46,217,2,57,-6
14080,108,43,218,-2,58,-6
14085,111,46,221,-5,60,-5
14090,109,45,215,-7,62,-3
14095,110,46,216,-9,62,-3
14100,111,44,219,-9,62,-1
14105,114,43,218,-9,64,1
14110,112,45,220,-10,65,2
14115,110,46,221,-10,68,1
14120,110,43,221,-10,70,1
14125,111,44,218,-9,70,2
14130,107,43,220,-8,70,1
14135,109,45,218,-8,70,1
14140,111,41,220,-8,71,1
14145,109,44,219,-6,70,0
14150,110,41,216,-5,71,-1
14155,108,45,217,-5,69,-1
14160,109,41,223,-6,70,0
14165,111,40,220,-5,72,-1
14170,110,46,219,-6,72,-4
14175,109,43,216,-6,72,-2
14180,109,42,221,-7,72,-3
14185,109,45,217,-8,72,-3
14190,110,39,215,-9,73,-4
14195,108,42,218,-10,73,-5
14200,112,43,220,-12,76,-5
14205,108,41,218,-14,77,-3
14210,110,44,221,-17,79,-3
14215,111,42,219,-16,81,-2
14220,111,44,217,-15,80,-3
14225,112,43,216,-14,82,-3
14230,113,43,218,-13,80,-4
14235,112,43,216,-11,80,-3
14240,109,43,216,-11,80,-4
14245,111,41,219,-10,79,-5
14250,109,42,217,-10,77,-6
14255,110,39,218,-7,76,-8
14260,111,43,217,-3,74,-7
14265,111,44,216,0,73,-7
14270,105,33,224,1,74,-8
14275,104,44,219,1,76,-9
14280,107,47,220,-3,79,-11
14285,108,45,222,-8,84,-11
14290,107,45,222,-16,87,-13
14295,110,43,222,-21,89,-11
14300,110,45,219,-27,90,-12
14305,110,46,219,-29,89,-11
14310,108,45,219,-32,88,-10
14315,111,41,222,-33,86,-9
14320,108,44,222,-30,85,-8
14325,108,41,222,-28,83,-8
14330,108,45,220,-27,84,-7
14335,112,42,219,-25,83,-5
14340,108,42,219,-23,81,-6
14345,110,42,221,-19,82,-8
14350,109,43,217,-17,80,-8
14355,108,45,217,-16,80,-9
14360,112,45,219,-15,80,-9
14365,112,44,219,-15,81,-8
14370,112,41,220,-16,83,-9
14375,109,43,217,-15,84,-7
14380,116,46,220,-12,85,-6
14385,109,44,221,-8,83,-5
14390,113,43,219,-3,83,-3
14395,112,42,218,1,80,-2
14400,110,41,218,5,80,-2
14405,108,42,220,8,80,0
14410,109,45,220,12,80,-1
14415,109,47,214,13,81,0
14420,108,43,220,13,81,0
14425,110,42,217,14,81,-1
14430,110,43,219,14,82,-2
14435,109,43,219,16,83,-3
14440,109,45,220,15,82,-3
14445,108,47,216,14,84,-3
14450,108,45,215,13,83,-5
14455,109,43,219,11,82,-5
14460,110,47,219,9,84,-6
14465,108,44,221,6,86,-6
14470,107,43,219,5,87,-5
14475,108,44,216,2,89,-5
14480,107,41,217,0,89,-6
14485,111,42,220,-1,88,-5
14490,109,52,218,-1,89,-3
14495,108,42,219,1,88,-5
14500,106,43,217,1,88,-5
14505,109,42,223,3,87,-5
14510,105,44,221,3,88,-5
14515,105,44,219,3,87,-5
14520,105,42,217,3,88,-5
14525,110,40,219,4,89,-8
14530,109,46,223,4,89,-8
14535,110,42,218,3,88,-8
14540,109,42,216,2,90,-9
14545,110,41,219,1,90,-8
14550,108,43,218,1,91,-9
14555,109,44,223,-1,91,-8
14560,110,46,219,-2,91,-8
14565,112,43,218,-3,91,-9
14570,112,45,220,-5,89,-8
14575,108,44,219,-7,89,-8
14580,106,45,214,-9,89,-8
14585,106,46,222,-9,88,-8
14590,107,47,216,-10,86,-9
14595,106,47,218,-10,85,-10
14600,104,41,224,-12,87,-12
14605,109,45,219,-13,88,-13
14610,107,44,223,-16,90,-12
14615,110,40,218,-18,90,-12
14620,108,45,219,-19,90,-11
14625,110,44,217,-21,89,-11
14630,106,45,220,-21,89,-9
14635,105,46,221,-20,87,-9
14640,107,43,220,-18,84,-7
14645,107,43,222,-16,84,-7
14650,111,42,221,-13,81,-5
14655,107,48,222,-9,79,-4
14660,107,44,219,-8,76,-5
14665,109,43,221,-6,74,-6
14670,109,43,219,-6,73,-5
14675,106,44,222,-5,73,-4
14680,108,42,221,-3,75,-4
14685,105,43,222,-1,72,-4
14690,109,44,219,2,71,-3
14695,109,46,221,4,68,-4
14700,108,48,219,10,67,-5
14705,110,48,216,11,66,-5
14710,110,47,221,14,69,-5
14715,110,47,216,13,71,-7
14720,108,47,219,14,75,-10
14725,110,46,218,15,78,-12
14730,109,48,215,14,80,-12
14735,108,46,219,15,84,-13
14740,108,48,219,15,86,-10
14745,108,44,218,17,87,-10
14750,110,42,218,20,88,-10
14755,110,45,218,22,87,-10
14760,107,49,217,25,87,-10
14765,107,42,217,26,87,-9
14770,105,44,219,27,86,-9
14775,104,42,218,26,86,-10
14780,104,45,220,21,86,-9
14785,106,44,221,17,88,-10
14790,106,45,226,9,89,-10
14795,103,45,223,4,90,-10
14800,106,44,222,2,91,-11
14805,107,43,216,5,93,-11
14810,110,47,219,9,93,-12
14815,108,41,219,12,92,-13
14820,110,45,218,13,94,-15
14825,108,45,217,13,97,-16
14830,107,46,218,8,99,-15
14835,108,47,217,3,102,-15
14840,109,47,219,0,106,-16
14845,106,46,220,-3,105,-15
14850,109,47,220,-2,104,-14
14855,107,49,216,0,102,-15
14860,108,45,222,2,100,-13
14865,108,47,220,3,97,-14
14870,106,47,222,7,93,-13
14875,107,47,219,8,91,-14
14880,105,45,219,5,88,-15
14885,105,49,222,2,88,-15
14890,106,46,219,-2,85,-15
14895,105,50,224,-5,85,-14
14900,109,48,223,-7,85,-13
14905,108,48,222,-10,86,-12
14910,106,47,222,-12,85,-11
14915,106,51,222,-13,84,-10
14920,108,48,218,-12,84,-9
14925,98,48,230,-11,85,-8
14930,107,46,217,-13,85,-8
14935,104,50,221,-13,87,-6
14940,104,45,221,-12,89,-6
14945,105,44,222,-11,89,-7
14950,107,47,221,-12,89,-7
14955,109,43,222,-13,89,-7
14960,109,46,219,-12,91,-6
14965,103,46,220,-13,91,-5
14970,104,45,221,-14,90,-4
14975,102,46,223,-13,89,-5
14980,106,42,224,-12,89,-5
14985,107,45,217,-12,86,-5
14990,108,45,221,-10,87,-5
14995,106,46,221,-9,84,-3
