timestamp,acc_x,acc_y,acc_z,gyro_x,gyro_y,gyro_z
0,6,-241,-54,43,10,-2
5,3,-239,-60,43,10,-1
10,2,-241,-56,43,9,-3
15,4,-244,-57,46,9,-2
20,4,-243,-58,47,7,-2
25,3,-246,-61,48,6,-2
30,4,-244,-55,48,4,-3
35,3,-239,-51,48,4,-1
40,2,-240,-57,49,4,-1
45,1,-240,-57,49,2,-3
50,2,-241,-61,49,0,-3
55,3,-241,-56,50,1,-2
60,6,-243,-62,48,2,-2
65,4,-242,-58,48,1,-5
70,3,-237,-60,47,3,-5
75,6,-241,-55,46,3,-5
80,3,-238,-59,45,4,-5
85,4,-239,-59,42,3,-4
90,6,-241,-59,39,2,-5
95,4,-241,-60,37,3,-4
100,2,-241,-56,34,3,-4
105,4,-244,-59,34,3,-4
110,5,-243,-58,35,3,-3
115,7,-242,-59,35,3,-3
120,3,-242,-57,36,3,-3
125,7,-240,-58,38,3,-3
130,0,-238,-61,41,3,-4
135,2,-246,-57,41,2,-4
140,5,-245,-58,44,2,-4
145,3,-244,-57,47,4,-4
150,2,-243,-59,47,3,-5
155,2,-244,-56,51,3,-5
160,3,-244,-56,54,1,-6
165,2,-245,-57,56,0,-7
170,1,-244,-59,58,0,-6
175,3,-244,-59,60,-2,-8
180,3,-240,-59,61,-3,-8
185,2,-243,-64,62,-4,-8
190,2,-241,-55,63,-5,-8
195,2,-241,-60,65,-5,-9
200,1,-238,-60,63,-4,-8
205,2,-239,-57,63,-5,-9
210,3,-240,-61,62,-4,-8
215,1,-239,-57,60,-4,-8
220,5,-237,-60,57,-4,-8
225,2,-241,-60,55,-5,-8
230,4,-239,-60,54,-5,-8
235,7,-242,-58,52,-4,-7
240,5,-249,-58,52,-4,-7
245,3,-238,-58,51,-3,-7
250,4,-241,-58,52,-2,-6
255,3,-242,-60,55,-2,-5
260,4,-241,-60,55,-3,-6
265,5,-247,-58,57,-3,-7
270,3,-240,-61,56,-3,-6
275,4,-244,-59,57,-5,-6
280,4,-240,-61,59,-5,-6
285,7,-244,-53,59,-5,-6
290,5,-244,-60,58,-4,-6
295,7,-249,-52,60,-3,-6
300,1,-242,-62,60,-2,-5
305,2,-242,-58,60,-3,-6
310,4,-243,-59,60,-3,-7
315,3,-242,-58,60,-2,-7
320,3,-239,-60,59,-2,-7
325,4,-240,-61,59,-2,-7
330,3,-241,-61,59,-2,-7
335,1,-241,-60,61,-1,-7
340,4,-243,-57,62,0,-5
345,2,-246,-61,64,-1,-5
350,5,-241,-59,64,0,-6
355,4,-242,-57,65,0,-5
360,4,-240,-63,65,-1,-7
365,6,-241,-62,65,-2,-6
370,4,-243,-62,65,0,-6
375,4,-243,-59,64,1,-5
380,5,-241,-57,62,1,-4
385,3,-243,-59,61,1,-6
390,2,-241,-59,59,0,-7
395,5,-240,-57,57,1,-6
400,5,-244,-56,57,0,-6
405,2,-244,-52,55,0,-7
410,3,-245,-54,56,-1,-7
415,1,-242,-57,59,0,-7
420,4,-244,-59,62,-1,-7
425,4,-241,-58,66,0,-7
430,4,-241,-62,69,-2,-8
435,2,-240,-58,71,-2,-7
440,1,-241,-61,71,-3,-7
445,2,-239,-57,73,-4,-6
450,5,-240,-56,74,-5,-9
455,4,-242,-55,73,-4,-8
460,3,-236,-53,71,-3,-7
465,5,-243,-55,71,-3,-7
470,4,-243,-58,70,-3,-7
475,5,-243,-60,70,-2,-6
480,6,-243,-56,68,0,-6
485,5,-244,-58,68,5,-6
490,6,-245,-55,66,7,-5
495,6,-240,-56,68,10,-6
500,3,-241,-56,69,13,-8
505,3,-241,-53,71,14,-4
510,7,-242,-61,71,15,-5
515,4,-246,-56,71,15,-4
520,4,-242,-55,70,14,-6
525,3,-244,-59,69,13,-6
530,4,-242,-55,69,12,-6
535,4,-242,-56,67,12,-7
540,3,-242,-58,66,10,-7
545,1,-239,-60,64,10,-7
550,4,-240,-60,64,12,-6
555,0,-243,-58,62,13,-5
560,7,-244,-56,62,15,-6
565,8,-238,-60,62,15,-5
570,3,-242,-58,63,16,-4
575,1,-243,-56,63,20,-3
580,1,-242,-57,63,21,-3
585,2,-239,-54,64,22,-3
590,4,-246,-55,65,20,-3
595,1,-241,-55,68,20,-2
600,2,-243,-55,70,19,-3
605,3,-241,-58,72,18,-2
610,1,-240,-57,71,18,-3
615,2,-243,-56,71,18,-1
620,0,-240,-58,71,18,-3
625,5,-241,-56,70,18,-3
630,0,-240,-55,67,17,-2
635,5,-244,-57,67,16,-4
640,1,-240,-56,64,16,-4
645,1,-241,-59,60,15,-4
650,0,-242,-58,62,14,-5
655,0,-243,-59,60,11,-5
660,2,-240,-56,59,9,-5
665,1,-240,-59,58,6,-5
670,3,-241,-58,57,4,-4
675,1,-243,-60,55,2,-4
680,-2,-240,-57,54,1,-5
685,1,-240,-56,56,-2,-6
690,0,-241,-54,57,-5,-7
695,0,-244,-56,57,-6,-6
700,1,-238,-59,54,-9,-6
705,1,-242,-60,52,-11,-4
710,2,-241,-56,48,-13,-4
715,2,-244,-53,47,-14,-2
720,-1,-242,-57,48,-14,-2
725,1,-243,-57,54,-14,-3
730,4,-240,-63,56,-14,-3
735,1,-240,-57,59,-14,-5
740,4,-242,-52,58,-14,-5
745,3,-243,-58,57,-14,-4
750,3,-243,-61,56,-15,-6
755,1,-243,-55,52,-15,-4
760,3,-242,-54,52,-15,-5
765,4,-244,-60,52,-14,-6
770,3,-244,-53,54,-15,-7
775,3,-245,-58,55,-15,-7
780,3,-247,-53,55,-14,-6
785,6,-247,-49,57,-13,-8
790,1,-241,-54,57,-14,-6
795,1,-242,-58,57,-14,-7
800,2,-240,-59,58,-13,-7
805,5,-245,-56,59,-12,-6
810,3,-241,-55,60,-12,-7
815,4,-242,-57,59,-12,-7
820,3,-243,-59,57,-13,-5
825,1,-242,-57,55,-13,-5
830,1,-241,-56,54,-12,-4
835,3,-242,-56,52,-12,-6
840,1,-238,-58,51,-13,-6
845,3,-241,-56,50,-14,-6
850,1,-241,-56,50,-13,-5
855,4,-242,-54,50,-15,-6
860,1,-240,-56,48,-14,-7
865,1,-240,-57,49,-16,-8
870,3,-241,-55,47,-16,-9
875,2,-242,-54,45,-15,-9
880,2,-240,-56,43,-15,-11
885,2,-241,-56,42,-14,-10
890,4,-241,-54,41,-14,-9
895,1,-245,-59,40,-14,-10
900,1,-242,-55,37,-14,-11
905,2,-240,-54,37,-13,-9
910,3,-241,-56,38,-11,-8
915,3,-244,-59,37,-12,-9
920,2,-244,-57,40,-11,-8
925,2,-240,-56,40,-12,-8
930,3,-244,-57,43,-12,-7
935,1,-241,-58,44,-11,-7
940,1,-242,-55,44,-11,-8
945,2,-240,-56,43,-11,-8
950,5,-239,-43,42,-10,-10
955,2,-241,-58,41,-11,-8
960,1,-243,-57,41,-12,-7
965,4,-242,-59,41,-13,-7
970,1,-241,-59,40,-12,-6
975,1,-240,-55,39,-13,-6
980,2,-242,-56,39,-13,-7
985,2,-240,-55,36,-14,-6
990,2,-243,-58,33,-15,-6
995,2,-236,-57,32,-16,-6
1000,1,-239,-59,32,-17,-6
1005,2,-244,-58,31,-18,-6
1010,0,-243,-55,30,-18,-6
1015,0,-242,-56,29,-18,-7
1020,0,-240,-53,29,-19,-6
1025,2,-242,-60,28,-20,-8
1030,3,-243,-55,29,-18,-9
1035,2,-240,-60,27,-18,-9
1040,1,-240,-57,25,-16,-9
1045,1,-244,-56,25,-16,-10
1050,2,-242,-57,25,-15,-10
1055,5,-249,-58,26,-15,-10
1060,1,-242,-57,27,-15,-10
1065,3,-239,-57,26,-17,-9
1070,2,-237,-58,26,-17,-8
1075,0,-239,-52,25,-18,-7
1080,1,-241,-57,23,-21,-8
1085,1,-239,-56,22,-22,-9
1090,0,-241,-57,20,-23,-7
1095,2,-244,-57,18,-25,-7
1100,2,-242,-57,18,-27,-8
1105,1,-241,-58,20,-28,-8
1110,7,-244,-62,20,-29,-10
1115,3,-243,-61,23,-30,-10
1120,3,-241,-60,25,-31,-7
1125,2,-239,-63,24,-31,-7
1130,0,-235,-63,21,-31,-7
1135,0,-238,-62,17,-31,-5
1140,1,-238,-61,10,-31,-7
1145,3,-237,-62,4,-31,-7
1150,1,-238,-63,-2,-33,-6
1155,0,-238,-60,-7,-35,-7
1160,0,-240,-63,-12,-38,-9
1165,1,-240,-64,-14,-42,-8
1170,-2,-239,-59,-18,-46,-6
1175,1,-239,-63,-20,-48,-5
1180,0,-239,-64,-24,-52,-5
1185,0,-237,-66,-29,-54,-4
1190,-1,-236,-66,-36,-58,-3
1195,-3,-231,-68,-39,-61,-6
1200,-2,-235,-72,-42,-64,-8
1205,-2,-236,-67,-46,-66,-10
1210,-2,-234,-74,-46,-71,-14
1215,-1,-240,-69,-45,-76,-19
1220,-5,-225,-73,-46,-82,-20
1225,-4,-231,-75,-48,-88,-22
1230,-6,-234,-70,-53,-95,-25
1235,-1,-234,-73,-59,-103,-28
1240,-4,-232,-78,-67,-110,-29
1245,-4,-232,-72,-75,-116,-30
1250,-3,-230,-79,-79,-123,-32
1255,-3,-228,-78,-87,-127,-34
1260,-1,-225,-81,-94,-134,-33
1265,-1,-228,-84,-100,-135,-35
1270,-1,-229,-83,-110,-136,-37
1275,2,-222,-86,-119,-137,-37
1280,1,-222,-84,-130,-136,-37
1285,0,-220,-86,-143,-139,-37
1290,0,-218,-88,-157,-141,-38
1295,-1,-212,-87,-168,-145,-37
1300,-4,-210,-90,-177,-151,-39
1305,-4,-211,-85,-188,-156,-39
1310,-4,-207,-88,-197,-162,-39
1315,-5,-207,-88,-207,-168,-37
1320,-2,-202,-89,-222,-176,-38
1325,-3,-196,-88,-240,-181,-39
1330,-7,-198,-100,-261,-182,-39
1335,-2,-194,-96,-285,-182,-42
1340,-4,-194,-89,-313,-180,-47
1345,-2,-188,-95,-341,-173,-56
1350,0,-186,-91,-371,-166,-62
1355,1,-186,-97,-404,-159,-69
1360,-3,-184,-93,-439,-153,-75
1365,2,-181,-91,-476,-150,-81
1370,1,-181,-86,-512,-148,-88
1375,4,-183,-86,-546,-149,-94
1380,5,-185,-83,-577,-149,-98
1385,3,-189,-82,-603,-151,-101
1390,1,-190,-80,-620,-154,-105
1395,1,-190,-84,-632,-158,-103
1400,-2,-189,-84,-640,-161,-100
1405,0,-191,-84,-648,-159,-94
1410,0,-192,-89,-659,-155,-85
1415,2,-192,-89,-671,-146,-76
1420,3,-193,-92,-687,-134,-68
1425,6,-197,-88,-704,-118,-59
1430,9,-198,-93,-721,-97,-52
1435,10,-199,-93,-737,-76,-43
1440,12,-200,-95,-754,-55,-34
1445,12,-201,-92,-768,-35,-27
1450,14,-200,-96,-784,-17,-19
1455,11,-204,-93,-802,-6,-6
1460,7,-200,-95,-824,2,3
1465,8,-203,-94,-847,3,19
1470,5,-203,-93,-870,1,36
1475,7,-202,-96,-891,-3,53
1480,7,-200,-99,-914,-5,71
1485,5,-199,-100,-940,-3,87
1490,4,-201,-100,-965,2,104
1495,8,-194,-98,-984,7,120
1500,12,-196,-102,-1001,16,135
1505,10,-197,-103,-1015,25,147
1510,12,-197,-100,-1024,35,153
1515,12,-196,-101,-1024,44,151
1520,11,-194,-103,-1019,53,150
1525,8,-193,-106,-1016,63,147
1530,11,-192,-114,-1016,74,139
1535,9,-188,-113,-1021,86,128
1540,9,-190,-110,-1026,100,112
1545,5,-190,-111,-1033,116,98
1550,3,-188,-118,-1040,130,83
1555,2,-182,-114,-1051,143,70
1560,1,-184,-117,-1064,154,61
1565,0,-178,-118,-1082,162,54
1570,0,-179,-114,-1104,168,51
1575,-3,-185,-113,-1126,168,50
1580,-4,-182,-116,-1142,162,50
1585,0,-187,-109,-1155,154,58
1590,0,-185,-112,-1167,145,66
1595,-2,-188,-115,-1173,135,83
1600,0,-190,-116,-1176,125,102
1605,1,-191,-118,-1177,110,122
1610,2,-193,-118,-1171,99,139
1615,0,-196,-122,-1156,85,155
1620,-2,-200,-124,-1136,68,171
1625,-8,-204,-128,-1110,50,187
1630,-8,-204,-127,-1078,30,200
1635,-12,-202,-133,-1043,16,212
1640,-13,-206,-136,-1013,5,220
1645,-17,-208,-138,-982,4,221
1650,-13,-209,-145,-948,12,224
1655,-22,-209,-147,-921,25,225
1660,-16,-204,-149,-898,43,216
1665,-13,-204,-150,-876,63,206
1670,-15,-205,-150,-855,86,191
1675,-16,-205,-152,-837,111,179
1680,-12,-205,-151,-825,132,169
1685,-17,-204,-153,-820,154,159
1690,-14,-208,-151,-817,167,152
1695,-16,-209,-153,-813,176,147
1700,-20,-209,-151,-810,177,150
1705,-16,-209,-154,-808,170,166
1710,-17,-215,-152,-796,157,184
1715,-12,-221,-157,-775,143,202
1720,-5,-227,-158,-746,129,222
1725,-9,-226,-161,-710,115,240
1730,-5,-227,-164,-671,101,262
1735,-3,-226,-161,-630,94,284
1740,-2,-227,-164,-590,89,301
1745,0,-232,-172,-550,83,307
1750,4,-230,-170,-514,80,305
1755,2,-226,-175,-477,78,294
1760,3,-221,-178,-445,80,281
1765,0,-212,-178,-425,93,270
1770,-2,-209,-179,-417,111,251
1775,-2,-203,-175,-412,131,233
1780,-1,-203,-172,-400,150,218
1785,-1,-199,-175,-393,173,202
1790,-4,-197,-173,-393,197,183
1795,-5,-196,-173,-396,221,166
1800,-8,-196,-169,-399,240,153
1805,-6,-199,-170,-403,257,138
1810,-8,-202,-169,-399,273,124
1815,-1,-203,-164,-389,287,116
1820,-2,-205,-172,-371,301,107
1825,1,-204,-174,-351,321,98
1830,-2,-204,-177,-329,341,91
1835,0,-206,-174,-307,364,80
1840,-4,-200,-174,-285,385,69
1845,1,-196,-172,-268,401,57
1850,0,-194,-175,-262,416,44
1855,0,-192,-174,-265,428,28
1860,-6,-188,-175,-277,435,5
1865,-5,-187,-180,-297,436,-16
1870,-9,-191,-174,-316,433,-35
1875,-10,-186,-178,-333,431,-54
1880,-11,-183,-183,-347,433,-76
1885,-12,-185,-181,-359,433,-89
1890,-16,-185,-181,-363,428,-100
1895,-17,-188,-183,-353,421,-109
1900,-18,-187,-184,-334,413,-117
1905,-19,-192,-183,-308,405,-125
1910,-21,-193,-178,-280,396,-126
1915,-20,-192,-178,-251,380,-131
1920,-22,-197,-185,-225,373,-140
1925,-27,-194,-174,-204,371,-152
1930,-26,-196,-178,-185,368,-157
1935,-25,-199,-175,-161,360,-159
1940,-24,-197,-177,-131,350,-164
1945,-24,-196,-176,-101,332,-176
1950,-30,-195,-177,-72,318,-183
1955,-27,-194,-179,-49,308,-190
1960,-34,-190,-175,-32,304,-197
1965,-33,-191,-171,-14,296,-197
1970,-32,-190,-172,0,286,-191
1975,-33,-187,-169,12,275,-183
1980,-32,-177,-174,18,261,-170
1985,-30,-179,-173,14,248,-152
1990,-30,-174,-171,8,237,-141
1995,-29,-175,-173,1,226,-129
2000,-26,-173,-175,-6,214,-117
2005,-28,-172,-176,-13,206,-113
2010,-25,-171,-176,-21,194,-114
2015,-23,-175,-175,-31,184,-118
2020,-24,-171,-179,-45,173,-125
2025,-26,-170,-174,-58,170,-132
2030,-23,-177,-176,-67,171,-133
2035,-35,-174,-175,-78,180,-137
2040,-24,-171,-174,-88,196,-138
2045,-25,-175,-176,-99,218,-138
2050,-20,-175,-174,-111,245,-134
2055,-19,-169,-176,-126,273,-134
2060,-17,-166,-177,-140,298,-117
2065,-18,-165,-179,-151,317,-92
2070,-17,-163,-180,-165,325,-74
2075,-18,-157,-180,-185,323,-66
2080,-24,-157,-184,-198,317,-60
2085,-25,-159,-180,-206,304,-60
2090,-27,-166,-189,-203,283,-63
2095,-33,-170,-183,-196,263,-68
2100,-43,-165,-180,-187,245,-70
2105,-44,-167,-183,-179,226,-64
2110,-45,-169,-176,-177,204,-59
2115,-43,-168,-185,-180,187,-47
2120,-41,-168,-185,-193,169,-30
2125,-38,-170,-191,-211,147,-8
2130,-33,-170,-190,-235,117,13
2135,-30,-174,-194,-262,89,43
2140,-24,-173,-195,-287,60,73
2145,-16,-179,-204,-314,37,102
2150,-16,-173,-197,-340,21,130
2155,-13,-177,-197,-362,8,152
2160,-12,-178,-200,-382,-4,170
2165,-11,-176,-201,-397,-13,184
2170,-7,-179,-200,-403,-17,200
2175,-10,-177,-198,-399,-22,211
2180,-9,-177,-196,-386,-19,214
2185,-6,-178,-201,-368,-6,210
2190,-10,-185,-198,-349,5,198
2195,-16,-179,-213,-324,17,181
2200,-14,-183,-201,-295,33,165
2205,-23,-180,-202,-263,54,150
2210,-24,-180,-203,-233,72,142
2215,-30,-180,-199,-202,88,140
2220,-31,-178,-197,-174,100,146
2225,-33,-177,-196,-147,105,157
2230,-30,-173,-201,-122,106,171
2235,-29,-171,-205,-101,104,192
2240,-24,-169,-203,-86,100,212
2245,-25,-162,-211,-85,86,232
2250,-16,-164,-208,-89,73,258
2255,-19,-162,-209,-102,60,276
2260,-18,-162,-213,-129,50,288
2265,-17,-156,-211,-154,50,292
2270,-19,-156,-213,-174,57,284
2275,-20,-155,-215,-185,68,270
2280,-22,-154,-211,-190,80,249
2285,-23,-159,-219,-185,88,223
2290,-23,-156,-215,-170,96,196
2295,-32,-153,-215,-152,105,169
2300,-35,-154,-214,-124,115,144
2305,-37,-154,-223,-96,125,125
2310,-39,-153,-216,-75,134,111
2315,-35,-152,-216,-56,138,108
2320,-39,-152,-216,-46,141,110
2325,-37,-155,-210,-42,141,112
2330,-41,-152,-209,-35,133,110
2335,-43,-151,-211,-23,125,101
2340,-45,-150,-207,-11,110,89
2345,-49,-147,-209,3,90,73
2350,-51,-150,-206,26,69,55
2355,-53,-148,-202,52,47,37
2360,-53,-147,-204,72,27,27
2365,-49,-152,-200,82,12,26
2370,-52,-152,-202,81,-2,36
2375,-47,-154,-200,61,-10,59
2380,-43,-153,-202,25,-14,101
2385,-33,-157,-206,-14,-22,134
2390,-32,-155,-213,-40,-34,145
2395,-30,-153,-213,-58,-43,128
2400,-31,-145,-204,-66,-34,92
2405,-29,-127,-203,-61,-20,45
2410,-31,-121,-205,-57,-5,-6
2415,-30,-124,-218,-62,35,-66
2420,-32,-118,-216,-108,110,-81
2425,-17,-108,-204,-254,196,-43
2430,-1,-111,-191,-386,250,6
2435,-7,-113,-181,-440,288,27
2440,-22,-108,-176,-414,331,12
2445,-29,-110,-175,-375,366,-6
2450,-24,-112,-169,-379,401,-24
2455,-25,-119,-161,-408,421,-23
2460,-14,-117,-152,-428,433,-38
2465,-17,-112,-142,-438,440,-72
2470,-19,-105,-141,-426,436,-117
2475,-19,-100,-146,-408,442,-167
2480,-23,-96,-140,-396,452,-206
2485,-19,-96,-147,-387,472,-247
2490,-19,-98,-155,-371,508,-281
2495,-15,-97,-164,-353,545,-313
2500,-11,-102,-159,-337,572,-331
2505,-3,-101,-157,-326,586,-353
2510,0,-108,-154,-319,584,-367
2515,3,-110,-153,-309,575,-368
2520,7,-114,-152,-302,572,-376
2525,11,-116,-145,-291,573,-389
2530,21,-112,-144,-272,587,-396
2535,11,-109,-135,-237,610,-405
2540,13,-105,-130,-187,643,-434
2545,8,-106,-129,-128,685,-461
2550,3,-102,-125,-64,725,-486
2555,7,-101,-123,1,766,-526
2560,13,-102,-124,65,797,-562
2565,5,-101,-123,126,818,-588
2570,12,-104,-124,172,847,-623
2575,11,-100,-119,208,875,-654
2580,14,-101,-114,234,905,-680
2585,24,-107,-119,248,944,-707
2590,27,-104,-123,252,986,-732
2595,27,-98,-118,243,1033,-755
2600,37,-94,-123,215,1085,-783
2605,37,-93,-122,188,1134,-792
2610,41,-90,-118,170,1175,-809
2615,42,-89,-113,164,1199,-822
2620,41,-91,-110,193,1218,-830
2625,45,-92,-103,242,1230,-846
2630,49,-90,-99,294,1244,-864
2635,47,-96,-102,340,1264,-893
2640,56,-96,-100,373,1280,-922
2645,50,-96,-101,390,1302,-945
2650,53,-100,-99,389,1335,-977
2655,59,-100,-104,378,1373,-995
2660,63,-103,-100,366,1416,-1016
2665,69,-104,-100,360,1456,-1034
2670,70,-108,-95,367,1495,-1039
2675,69,-108,-100,393,1528,-1036
2680,68,-115,-97,441,1562,-1038
2685,71,-123,-84,510,1596,-1048
2690,73,-129,-92,599,1619,-1053
2695,70,-126,-85,696,1648,-1061
2700,76,-125,-85,797,1666,-1071
2705,69,-119,-83,893,1660,-1082
2710,71,-113,-90,956,1659,-1098
2715,76,-109,-102,985,1668,-1097
2720,59,-101,-106,980,1678,-1080
2725,62,-100,-110,961,1687,-1077
2730,72,-106,-115,950,1697,-1061
2735,68,-104,-126,959,1712,-1032
2740,75,-109,-129,989,1725,-1000
2745,81,-105,-130,1050,1729,-971
2750,86,-110,-136,1135,1728,-929
2755,88,-95,-149,1234,1726,-897
2760,93,-88,-155,1312,1728,-847
2765,89,-79,-163,1345,1740,-767
2770,78,-83,-171,1329,1738,-665
2775,70,-86,-177,1318,1721,-584
2780,76,-91,-191,1332,1699,-542
2785,66,-96,-209,1374,1665,-472
2790,58,-106,-229,1438,1636,-422
2795,42,-113,-237,1517,1597,-393
2800,54,-118,-239,1587,1547,-363
2805,63,-121,-231,1606,1485,-291
2810,83,-118,-233,1545,1403,-179
2815,103,-123,-213,1412,1337,-62
2820,126,-102,-223,1237,1324,-81
2825,151,-98,-213,1023,1319,-79
2830,164,-92,-210,785,1291,-68
2835,308,-74,-199,538,1357,-135
2840,290,-80,-164,305,1700,-195
2845,303,-99,-224,143,1800,-184
2850,308,-116,-219,-20,1917,-193
2855,335,-124,-213,-140,2029,-222
2860,349,-142,-217,-158,2180,-283
2865,344,-175,-231,-80,2326,-301
2870,338,-210,-253,58,2474,-382
2875,350,-261,-283,217,2611,-497
2880,356,-268,-304,355,2738,-641
2885,397,-293,-315,453,2857,-747
2890,435,-308,-317,499,2977,-760
2895,498,-330,-290,505,3100,-760
2900,598,-368,-256,470,3178,-756
2905,694,-419,-226,486,3248,-724
2910,789,-443,-193,646,3378,-747
2915,809,-473,-186,893,3533,-791
2920,827,-487,-154,1174,3650,-916
2925,787,-495,-127,1577,3710,-1190
2930,729,-487,-126,2094,3711,-1586
2935,637,-458,-130,2662,3697,-2055
2940,552,-436,-104,3116,3722,-2514
2945,447,-408,-75,3389,3785,-2937
2950,369,-387,-57,3523,3826,-3304
2955,279,-348,-33,3533,3796,-3543
2960,156,-331,0,3431,3709,-3638
2965,93,-305,16,3279,3510,-3583
2970,47,-281,20,3099,3214,-3406
2975,26,-262,19,2882,2851,-3111
2980,8,-237,22,2619,2459,-2749
2985,23,-211,42,2335,2040,-2355
2990,62,-184,68,2083,1603,-1998
2995,104,-160,92,1875,1218,-1689
3000,123,-138,112,1719,880,-1435
3005,141,-118,126,1628,592,-1242
3010,161,-93,131,1601,342,-1099
3015,154,-65,112,1632,122,-987
3020,159,-41,97,1720,-67,-903
3025,173,-33,90,1848,-225,-836
3030,183,-24,90,2010,-339,-798
3035,199,-16,84,2160,-436,-795
3040,215,-16,76,2269,-504,-816
3045,222,-21,62,2338,-511,-842
3050,229,-25,56,2346,-469,-863
3055,233,-29,49,2292,-391,-872
3060,229,-30,43,2191,-295,-860
3065,232,-38,44,2073,-184,-834
3070,226,-45,39,1961,-72,-817
3075,214,-58,36,1873,44,-815
3080,214,-62,33,1813,155,-844
3085,201,-64,42,1775,256,-913
3090,181,-62,51,1758,350,-986
3095,174,-60,56,1756,422,-1041
3100,173,-57,52,1770,472,-1084
3105,162,-48,41,1781,535,-1113
3110,154,-39,33,1783,613,-1124
3115,143,-28,39,1777,668,-1122
3120,146,-21,44,1769,684,-1114
3125,147,-8,53,1759,668,-1104
3130,155,2,60,1750,628,-1085
3135,170,15,65,1736,581,-1064
3140,181,24,74,1725,541,-1034
3145,187,29,75,1721,508,-999
3150,190,39,80,1725,475,-958
3155,193,45,89,1743,438,-920
3160,201,58,89,1771,399,-888
3165,214,68,92,1793,369,-849
3170,231,74,96,1795,349,-809
3175,247,83,96,1783,342,-764
3180,263,91,99,1762,345,-725
3185,271,100,91,1719,360,-684
3190,275,103,88,1640,388,-635
3195,269,97,89,1540,408,-582
3200,260,86,83,1449,402,-535
3205,251,82,87,1385,379,-495
3210,251,79,88,1360,348,-460
3215,253,80,95,1352,313,-405
3220,257,80,100,1357,279,-340
3225,274,80,108,1362,242,-277
3230,281,83,102,1357,205,-208
3235,288,84,87,1341,183,-138
3240,293,85,88,1314,185,-74
3245,294,88,87,1274,208,-12
3250,298,91,87,1222,242,37
3255,302,91,91,1153,281,89
3260,311,93,93,1073,315,149
3265,313,91,84,980,346,215
3270,305,82,80,891,359,267
3275,291,78,80,835,338,307
3280,278,79,83,813,294,334
3285,272,78,88,819,247,344
3290,266,81,92,828,208,356
3295,268,88,90,829,192,366
3300,260,87,95,814,196,390
3305,256,83,96,778,221,416
3310,246,79,97,733,249,427
3315,241,74,95,684,272,430
3320,234,68,95,639,290,440
3325,226,64,96,602,310,456
3330,231,54,101,577,327,478
3335,222,47,101,562,337,500
3340,216,51,109,549,337,517
3345,208,51,109,531,320,535
3350,203,50,111,506,296,552
3355,194,51,118,479,270,565
3360,185,58,120,458,238,573
3365,176,58,115,442,187,587
3370,206,61,115,428,97,583
3375,218,63,111,428,25,529
3380,240,59,128,454,12,433
3385,255,67,134,492,20,345
3390,239,66,133,503,30,313
3395,229,60,128,468,28,340
3400,234,53,115,409,9,386
3405,242,42,110,357,-13,417
3410,252,36,103,323,-16,421
3415,256,37,102,297,-8,416
3420,259,25,99,264,2,454
3425,268,15,93,235,18,496
3430,271,11,91,234,39,512
3435,273,6,89,253,63,502
3440,276,3,87,268,85,477
3445,270,4,76,265,104,447
3450,266,-1,73,238,122,409
3455,258,-7,75,202,136,370
3460,257,-13,77,176,151,341
3465,253,-13,82,149,158,306
3470,252,-23,90,126,164,270
3475,249,-30,100,109,170,239
3480,247,-30,95,101,173,215
3485,249,-36,103,101,181,191
3490,246,-40,104,108,195,167
3495,243,-34,104,128,214,149
3500,243,-38,112,155,233,125
3505,243,-36,108,185,249,102
3510,240,-28,111,216,264,78
3515,243,-22,108,235,281,54
3520,241,-16,112,239,304,29
3525,241,-12,116,229,327,9
3530,238,-4,115,215,344,-3
3535,242,-2,116,200,354,-10
3540,239,-4,119,187,354,-14
3545,237,-1,117,183,337,-13
3550,238,-5,121,187,311,-5
3555,233,-3,111,189,284,9
3560,240,-8,106,187,262,27
3565,234,-11,99,162,238,45
3570,238,-18,99,128,222,70
3575,233,-24,102,102,207,100
3580,236,-30,92,88,184,133
3585,238,-38,88,80,164,160
3590,238,-44,79,70,154,183
3595,238,-54,77,60,156,203
3600,239,-60,78,48,168,209
3605,230,-61,73,39,189,209
3610,241,-69,76,36,208,211
3615,239,-73,79,36,227,212
3620,241,-77,83,35,240,216
3625,234,-77,81,28,247,216
3630,235,-74,82,15,244,209
3635,236,-79,84,-5,232,203
3640,239,-80,88,-31,218,204
3645,229,-82,93,-56,197,203
3650,227,-85,91,-84,174,203
3655,227,-80,91,-112,139,205
3660,230,-75,81,-141,107,208
3665,225,-82,91,-164,73,213
3670,221,-83,88,-186,40,219
3675,217,-81,92,-211,5,229
3680,216,-84,90,-229,-29,238
3685,220,-86,90,-238,-53,243
3690,218,-90,89,-242,-68,251
3695,219,-93,90,-243,-71,252
3700,217,-90,88,-238,-69,255
3705,216,-92,90,-228,-63,254
3710,219,-88,89,-208,-61,250
3715,220,-95,90,-185,-63,242
3720,228,-88,89,-159,-64,232
3725,229,-89,87,-134,-63,218
3730,231,-90,87,-110,-60,200
3735,233,-89,84,-88,-52,181
3740,235,-88,83,-70,-42,161
3745,234,-89,83,-57,-31,137
3750,234,-86,84,-49,-22,112
3755,240,-89,81,-43,-15,89
3760,238,-89,88,-42,-12,66
3765,242,-90,88,-42,-12,41
3770,226,-90,96,-41,-15,12
3775,236,-90,87,-36,-18,-13
3780,240,-90,89,-26,-20,-40
3785,240,-88,93,-17,-18,-64
3790,241,-87,92,-7,-15,-83
3795,235,-86,93,-1,-13,-100
3800,238,-82,96,7,-15,-113
3805,235,-80,98,13,-24,-118
3810,239,-75,96,19,-34,-122
3815,237,-70,94,22,-44,-124
3820,234,-67,90,23,-52,-123
3825,239,-64,85,22,-58,-125
3830,240,-63,84,17,-62,-125
3835,237,-61,88,12,-66,-127
3840,236,-59,88,6,-67,-128
3845,237,-52,81,1,-66,-129
3850,236,-51,87,-6,-63,-129
3855,232,-48,85,-14,-58,-130
3860,234,-42,93,-23,-55,-132
3865,230,-40,95,-35,-57,-132
3870,231,-44,96,-46,-65,-131
3875,230,-42,92,-56,-74,-133
3880,229,-38,97,-67,-82,-131
3885,234,-46,97,-75,-90,-131
3890,235,-44,95,-82,-96,-129
3895,236,-47,95,-87,-95,-125
3900,236,-45,92,-85,-97,-120
3905,239,-45,90,-79,-95,-113
3910,237,-46,89,-66,-96,-101
3915,240,-49,83,-48,-91,-92
3920,241,-47,85,-23,-84,-83
3925,244,-42,81,-2,-80,-76
3930,242,-45,83,14,-75,-70
3935,240,-41,86,21,-68,-66
3940,242,-38,86,19,-62,-59
3945,243,-40,86,13,-60,-55
3950,239,-35,83,3,-57,-55
3955,243,-29,84,-10,-52,-58
3960,243,-30,88,-27,-52,-59
3965,241,-28,92,-45,-54,-61
3970,244,-26,92,-64,-53,-63
3975,249,-31,95,-79,-50,-65
3980,248,-32,96,-94,-50,-68
3985,237,-41,94,-104,-52,-71
3990,247,-35,98,-112,-50,-75
3995,247,-36,96,-115,-50,-75
4000,246,-34,98,-117,-48,-71
4005,245,-41,96,-113,-46,-70
4010,247,-38,98,-102,-44,-68
4015,241,-36,95,-87,-40,-72
4020,241,-38,91,-72,-39,-74
4025,242,-42,91,-56,-37,-74
4030,241,-36,88,-40,-34,-76
4035,243,-35,83,-26,-27,-76
4040,246,-35,85,-17,-20,-74
4045,245,-36,81,-7,-13,-74
4050,250,-34,86,-1,-4,-69
4055,248,-35,80,2,3,-63
4060,244,-30,81,2,12,-61
4065,246,-32,83,-1,22,-55
4070,248,-30,79,-8,34,-49
4075,245,-27,88,-14,41,-43
4080,246,-31,82,-23,45,-35
4085,244,-27,82,-31,48,-30
4090,243,-30,87,-37,53,-23
4095,234,-31,85,-39,56,-15
4100,241,-30,88,-39,57,-5
4105,241,-36,87,-36,57,6
4110,241,-35,89,-31,55,17
4115,240,-38,92,-23,51,27
4120,239,-36,91,-11,47,41
4125,238,-39,93,3,43,50
4130,238,-36,88,16,39,62
4135,236,-38,94,25,35,71
4140,237,-38,93,31,34,79
4145,235,-42,93,31,30,85
4150,237,-38,93,29,29,88
4155,238,-42,93,23,29,87
4160,238,-46,93,18,32,87
4165,234,-45,90,13,35,86
4170,236,-50,91,11,41,86
4175,236,-48,86,15,47,87
4180,234,-49,85,27,54,90
4185,235,-49,84,45,61,90
4190,234,-50,86,69,70,90
4195,236,-45,87,96,74,91
4200,235,-50,80,119,79,90
4205,239,-39,91,138,81,92
4210,238,-45,85,148,84,90
4215,238,-48,88,151,86,92
4220,239,-48,89,145,88,93
4225,238,-48,91,138,87,95
4230,238,-48,89,128,87,95
4235,242,-51,90,117,88,93
4240,241,-53,95,109,83,94
4245,241,-52,94,100,81,97
4250,240,-51,93,95,77,95
4255,239,-52,92,95,71,92
4260,235,-51,96,96,67,92
4265,236,-53,94,97,59,93
4270,238,-54,91,101,53,94
4275,234,-53,94,106,49,93
4280,236,-53,92,110,46,92
4285,235,-54,92,113,45,94
4290,238,-57,89,113,47,95
4295,236,-51,90,113,47,95
4300,236,-59,89,109,49,96
4305,231,-53,89,103,51,96
4310,232,-56,88,96,50,95
4315,239,-63,81,89,50,94
4320,236,-58,87,85,51,93
4325,235,-62,86,85,50,91
4330,236,-62,87,89,50,86
4335,236,-62,86,95,52,83
4340,238,-62,86,104,53,79
4345,234,-61,87,114,53,78
4350,238,-60,85,121,54,74
4355,232,-61,84,127,57,72
4360,236,-61,83,130,59,70
4365,235,-60,91,131,62,69
4370,229,-59,88,128,66,66
4375,235,-59,88,125,69,64
4380,235,-56,87,119,70,59
4385,235,-57,92,113,70,57
4390,235,-57,91,108,69,57
4395,237,-59,89,102,68,54
4400,236,-56,89,97,67,53
4405,238,-57,95,92,67,53
4410,236,-61,88,86,67,53
4415,236,-58,90,84,67,52
4420,238,-61,93,81,67,52
4425,233,-52,84,82,67,51
4430,237,-56,95,82,65,51
4435,238,-59,92,82,64,49
4440,236,-60,94,80,63,50
4445,236,-57,95,76,61,50
4450,235,-58,93,70,59,51
4455,234,-60,88,67,57,50
4460,236,-62,94,64,56,49
4465,234,-59,93,64,57,46
4470,235,-58,93,63,58,41
4475,231,-55,82,65,60,38
4480,233,-55,94,67,61,35
4485,236,-58,93,70,63,35
4490,235,-55,93,70,63,33
4495,232,-56,96,64,60,30
4500,235,-57,93,58,57,28
4505,237,-58,93,50,54,26
4510,237,-60,95,43,50,25
4515,235,-58,95,37,49,22
4520,235,-60,96,36,50,22
4525,231,-60,93,38,51,20
4530,231,-56,95,43,52,17
4535,230,-58,92,50,52,16
4540,232,-59,93,55,54,13
4545,232,-57,93,62,55,13
4550,236,-61,96,70,57,10
4555,235,-60,93,78,57,6
4560,233,-57,91,87,59,4
4565,230,-57,89,93,59,2
4570,234,-56,95,98,60,1
4575,237,-58,91,101,60,0
4580,236,-56,92,99,57,0
4585,235,-57,93,94,57,-2
4590,233,-55,94,90,54,-5
4595,236,-54,94,84,53,-7
4600,233,-56,95,78,53,-7
4605,230,-57,96,69,53,-6
4610,233,-56,98,63,51,-8
4615,232,-58,97,58,49,-7
4620,233,-53,98,56,46,-8
4625,234,-57,100,56,43,-7
4630,231,-56,97,60,40,-3
4635,232,-57,102,63,38,-3
4640,234,-57,112,67,34,-3
4645,234,-55,96,70,32,-1
4650,236,-57,98,74,30,-2
4655,232,-56,101,75,27,-2
4660,232,-56,100,76,24,-5
4665,231,-54,99,75,23,-7
4670,229,-53,98,73,20,-7
4675,228,-52,103,71,19,-10
4680,228,-53,102,69,18,-10
4685,228,-53,97,67,15,-11
4690,232,-57,100,67,13,-12
4695,231,-53,93,68,11,-10
4700,230,-53,100,73,8,-10
4705,235,-55,96,80,7,-8
4710,234,-53,94,87,6,-4
4715,230,-54,93,92,5,-4
4720,234,-52,97,96,4,-2
4725,231,-54,97,99,3,2
4730,232,-54,95,99,2,3
4735,234,-51,99,95,3,4
4740,233,-52,96,91,3,4
4745,230,-51,96,84,5,5
4750,230,-50,97,77,5,6
4755,233,-52,101,69,7,6
4760,231,-51,101,64,7,6
4765,233,-55,99,60,6,3
4770,232,-51,96,60,3,4
4775,233,-53,93,60,0,4
4780,234,-52,93,63,-3,6
4785,233,-53,94,69,-4,4
4790,234,-51,91,72,-4,6
4795,238,-54,97,76,-3,7
4800,238,-56,95,79,-2,9
4805,233,-58,93,80,-2,8
4810,236,-57,96,77,2,10
4815,236,-55,93,75,4,10
4820,236,-54,94,73,7,11
4825,234,-55,93,71,9,10
4830,236,-56,91,66,12,11
4835,236,-55,95,63,16,10
4840,237,-54,97,59,19,8
4845,236,-59,94,53,21,8
4850,235,-55,96,51,24,7
4855,235,-59,94,49,26,8
4860,239,-52,100,49,28,9
4865,233,-54,94,47,29,10
4870,234,-59,97,47,27,11
4875,234,-58,95,47,25,12
4880,237,-56,94,49,24,13
4885,236,-59,97,49,23,12
4890,236,-59,93,51,22,12
4895,235,-58,98,53,23,10
4900,235,-60,95,54,25,8
4905,235,-58,97,56,27,6
4910,234,-54,93,58,31,5
4915,231,-52,89,60,33,1
4920,230,-57,95,63,37,0
4925,235,-56,95,62,40,0
4930,233,-56,93,63,43,0
4935,231,-57,94,63,47,0
4940,234,-56,96,61,50,-1
4945,234,-61,94,59,52,1
4950,232,-56,96,58,51,1
4955,235,-58,102,57,51,2
4960,231,-59,94,56,50,1
4965,228,-62,97,57,49,0
4970,233,-60,97,58,48,-1
4975,232,-59,98,61,47,-3
4980,237,-56,99,62,44,-5
4985,233,-59,97,61,43,-6
4990,236,-58,96,59,42,-7
4995,233,-57,96,55,41,-7
5000,230,-55,98,52,38,-7
5005,231,-59,95,50,35,-8
5010,232,-57,100,49,34,-9
5015,234,-56,97,48,33,-9
5020,229,-58,95,46,34,-10
5025,234,-59,97,45,33,-10
5030,232,-56,97,44,35,-8
5035,232,-58,93,45,35,-11
5040,230,-57,97,44,37,-10
5045,232,-56,96,44,39,-9
5050,234,-57,97,45,40,-9
5055,232,-60,98,47,40,-9
5060,230,-52,94,48,39,-10
5065,233,-57,97,52,40,-10
5070,233,-55,96,57,41,-10
5075,231,-59,101,62,39,-12
5080,231,-56,98,65,37,-13
5085,231,-55,98,66,35,-12
5090,230,-55,102,65,35,-11
5095,231,-55,100,64,34,-11
5100,230,-54,99,60,33,-13
5105,234,-55,99,58,34,-6
5110,228,-55,100,53,33,-11
5115,226,-53,98,49,30,-11
5120,231,-56,98,47,29,-13
5125,231,-54,99,47,27,-12
5130,224,-54,94,49,29,-10
5135,231,-55,98,51,29,-9
5140,232,-59,97,53,29,-9
5145,230,-55,99,55,30,-8
5150,231,-57,97,56,30,-6
5155,233,-55,100,58,29,-8
5160,233,-55,97,57,27,-7
5165,230,-56,97,56,24,-6
5170,232,-56,94,54,23,-7
5175,236,-55,98,52,21,-9
5180,234,-58,98,47,19,-10
5185,232,-59,96,46,18,-9
5190,234,-56,104,43,17,-11
5195,233,-55,100,41,16,-11
5200,233,-59,102,38,16,-11
5205,234,-59,97,38,16,-11
5210,231,-58,101,40,16,-11
5215,229,-54,100,41,14,-11
5220,235,-55,100,45,14,-10
5225,233,-56,99,50,13,-9
5230,230,-57,97,55,12,-8
5235,235,-55,98,57,11,-8
5240,230,-57,96,56,10,-10
5245,232,-54,96,54,7,-10
5250,231,-59,95,54,6,-11
5255,231,-54,97,54,6,-14
5260,232,-55,92,55,6,-12
5265,236,-60,96,58,9,-12
5270,232,-58,98,62,10,-12
5275,230,-56,93,65,12,-12
5280,234,-58,94,68,13,-11
5285,230,-58,94,71,13,-8
5290,236,-60,97,73,13,-10
5295,240,-61,88,73,14,-8
5300,230,-58,98,74,15,-7
5305,230,-55,98,75,15,-9
5310,233,-58,98,76,16,-9
5315,229,-58,97,77,17,-9
5320,231,-58,101,79,18,-9
5325,233,-57,101,80,19,-10
5330,229,-57,100,81,21,-12
5335,233,-54,100,81,22,-13
5340,232,-55,101,79,23,-12
5345,233,-55,100,78,24,-13
5350,231,-57,100,77,24,-14
5355,234,-56,95,74,21,-14
5360,230,-53,95,72,21,-13
5365,233,-55,97,69,21,-11
5370,232,-54,97,67,19,-12
5375,233,-56,99,64,20,-11
5380,233,-57,96,62,20,-10
5385,233,-52,96,61,20,-8
5390,234,-57,99,57,19,-8
5395,232,-54,99,55,21,-8
5400,234,-57,92,51,22,-8
5405,241,-60,97,48,21,-9
5410,229,-56,100,47,21,-8
5415,235,-57,97,47,20,-8
5420,234,-54,99,45,19,-9
5425,232,-56,96,45,20,-9
5430,232,-57,98,45,18,-8
5435,234,-57,100,45,17,-8
5440,230,-60,98,44,17,-6
5445,233,-57,98,45,17,-8
5450,231,-55,99,44,17,-9
5455,232,-59,99,44,19,-9
5460,230,-61,99,43,20,-9
5465,227,-55,97,42,20,-10
5470,231,-58,101,41,21,-10
5475,233,-57,94,43,21,-9
5480,232,-58,97,42,21,-10
5485,233,-57,97,43,23,-10
5490,226,-53,97,44,22,-10
5495,229,-57,98,47,23,-10
5500,230,-58,98,49,24,-9
5505,231,-57,98,50,23,-7
5510,234,-56,98,50,23,-5
5515,229,-58,99,51,22,-5
5520,231,-52,99,50,22,-6
5525,230,-55,101,49,19,-6
5530,231,-56,103,43,19,-6
5535,231,-59,100,40,18,-8
5540,233,-57,98,38,17,-9
5545,230,-57,99,34,16,-10
5550,232,-52,101,33,16,-9
5555,229,-58,99,33,16,-9
5560,231,-58,99,34,14,-11
5565,231,-57,91,36,12,-11
5570,230,-52,95,38,12,-10
5575,230,-57,100,41,12,-6
5580,232,-60,98,40,12,-8
5585,231,-58,101,41,12,-8
5590,230,-57,96,40,9,-10
5595,234,-57,99,38,10,-9
5600,229,-56,100,38,8,-9
5605,233,-57,98,37,8,-9
5610,230,-55,98,35,7,-8
5615,233,-62,100,33,6,-7
5620,227,-56,98,30,5,-7
5625,233,-58,98,30,5,-9
5630,230,-55,101,27,4,-8
5635,235,-59,96,27,2,-10
5640,230,-58,98,27,3,-9
5645,229,-57,97,26,1,-9
5650,233,-57,100,27,-1,-10
5655,232,-59,97,27,0,-10
5660,233,-56,96,27,-1,-11
5665,233,-55,98,27,-2,-11
5670,233,-57,95,27,-2,-11
5675,232,-56,98,27,-2,-13
5680,232,-57,97,27,-2,-14
5685,230,-59,97,26,-4,-14
5690,231,-56,96,27,-8,-14
5695,232,-60,99,23,-9,-13
5700,230,-57,97,19,-9,-13
5705,234,-59,97,19,-9,-14
5710,231,-55,98,17,-8,-13
5715,234,-57,97,13,-7,-14
5720,233,-57,100,12,-6,-15
5725,229,-54,96,11,-5,-16
5730,233,-59,101,9,-5,-15
5735,233,-60,99,10,-5,-16
5740,230,-55,97,9,-4,-17
5745,233,-56,97,8,-3,-17
5750,233,-56,96,8,-2,-16
5755,234,-56,97,9,-1,-16
5760,233,-59,95,9,0,-14
5765,233,-59,100,8,1,-14
5770,232,-55,93,9,2,-13
5775,231,-58,103,10,4,-11
5780,232,-59,102,11,3,-11
5785,236,-50,101,11,4,-12
5790,232,-57,101,12,6,-12
5795,232,-55,98,13,7,-12
5800,234,-57,98,16,7,-11
5805,234,-57,102,16,6,-10
5810,232,-57,97,18,6,-12
5815,231,-59,100,19,4,-14
5820,233,-58,96,23,3,-12
5825,231,-55,95,26,4,-12
5830,232,-59,95,26,4,-12
5835,231,-60,98,30,4,-12
5840,229,-50,92,32,6,-13
5845,232,-59,95,33,6,-14
5850,232,-59,95,31,7,-11
5855,236,-60,98,28,9,-11
5860,233,-58,99,26,8,-12
5865,233,-57,100,22,10,-8
5870,234,-56,96,20,9,-8
5875,234,-55,98,18,8,-9
5880,231,-59,95,18,8,-8
5885,233,-56,95,20,5,-9
5890,232,-54,96,23,3,-9
5895,233,-56,94,27,2,-9
5900,229,-54,97,25,3,-10
5905,234,-56,92,23,3,-12
5910,234,-56,97,22,2,-14
5915,232,-57,94,22,5,-12
5920,233,-57,98,21,9,-12
5925,229,-57,96,22,9,-11
5930,233,-59,93,26,11,-10
5935,231,-59,95,33,13,-11
5940,231,-57,91,40,15,-10
5945,231,-59,96,46,18,-10
5950,232,-57,96,50,19,-8
5955,234,-57,97,54,19,-9
5960,230,-58,99,56,19,-9
5965,233,-58,98,55,17,-10
5970,233,-60,94,56,17,-10
5975,232,-58,97,55,15,-12
5980,234,-62,97,57,14,-11
5985,234,-62,95,59,14,-11
5990,235,-60,95,62,14,-13
5995,232,-57,96,67,17,-12
6000,228,-57,92,72,19,-14
6005,232,-60,93,74,21,-14
6010,232,-56,93,75,22,-14
6015,232,-56,96,76,24,-14
6020,233,-58,95,74,26,-15
6025,233,-58,95,69,26,-14
6030,232,-55,96,66,25,-15
6035,234,-55,95,64,24,-16
6040,238,-56,95,64,24,-16
6045,231,-56,94,63,25,-16
6050,234,-57,96,65,24,-16
6055,230,-57,97,69,23,-16
6060,234,-59,97,72,22,-16
6065,232,-58,97,74,22,-18
6070,234,-60,98,78,21,-19
6075,233,-56,99,81,20,-17
6080,234,-59,95,83,19,-15
6085,233,-58,95,85,20,-15
6090,233,-57,98,86,22,-12
6095,228,-54,94,87,24,-12
6100,232,-55,95,87,26,-12
6105,233,-58,96,87,29,-15
6110,235,-58,99,85,31,-14
6115,231,-55,93,83,31,-14
6120,233,-57,94,80,34,-14
6125,228,-54,97,77,34,-13
6130,231,-53,92,76,36,-12
6135,235,-58,97,77,36,-11
6140,233,-57,95,79,37,-12
6145,233,-56,96,81,37,-11
6150,235,-55,98,83,37,-10
6155,231,-57,97,86,38,-9
6160,231,-58,98,86,37,-9
6165,227,-51,100,88,39,-8
6170,232,-58,100,89,39,-8
6175,236,-60,99,90,38,-8
6180,232,-57,98,91,38,-9
6185,230,-57,98,92,37,-9
6190,234,-57,99,93,37,-7
6195,233,-53,99,93,36,-5
6200,232,-58,102,95,35,-6
6205,235,-57,97,94,36,-5
6210,234,-58,101,97,36,-5
6215,236,-56,93,98,36,-6
6220,238,-55,96,100,37,-7
6225,234,-57,97,100,38,-6
6230,231,-57,97,99,41,-6
6235,232,-57,97,100,42,-5
6240,229,-59,99,97,43,-7
6245,231,-55,99,96,45,-6
6250,232,-57,99,95,45,-5
6255,232,-59,99,93,45,-8
6260,233,-59,105,90,43,-10
6265,231,-53,101,88,42,-8
6270,232,-59,97,85,39,-11
6275,227,-55,95,83,38,-12
6280,232,-56,101,80,35,-13
6285,232,-57,96,78,33,-12
6290,232,-56,101,75,31,-11
6295,231,-56,102,73,30,-10
6300,230,-54,97,73,29,-10
6305,233,-56,99,74,27,-11
6310,234,-61,99,76,28,-12
6315,230,-58,99,79,28,-9
6320,230,-56,97,82,29,-11
6325,231,-59,103,86,29,-10
6330,230,-57,99,87,29,-11
6335,232,-58,100,88,29,-11
6340,232,-56,98,88,29,-10
6345,231,-56,101,86,29,-10
6350,229,-55,99,86,27,-11
6355,231,-56,97,84,26,-9
6360,230,-55,101,82,25,-10
6365,231,-60,101,79,24,-11
6370,228,-57,99,77,24,-10
6375,229,-55,99,75,21,-10
6380,232,-56,102,74,22,-9
6385,226,-59,100,72,20,-8
6390,231,-54,102,71,19,-9
6395,232,-55,99,69,17,-8
6400,232,-56,99,67,17,-8
6405,231,-54,99,66,14,-10
6410,230,-57,98,63,11,-10
6415,233,-54,95,61,12,-8
6420,231,-56,98,59,11,-10
6425,231,-54,97,57,12,-10
6430,227,-54,101,57,12,-12
6435,232,-57,101,56,12,-13
6440,230,-58,99,57,12,-13
6445,230,-57,97,56,13,-13
6450,228,-56,100,59,14,-13
6455,230,-56,102,61,15,-12
6460,229,-54,104,63,16,-12
6465,231,-58,102,62,16,-15
6470,234,-58,101,63,16,-15
6475,229,-56,102,60,15,-15
6480,231,-59,100,62,13,-16
6485,229,-56,99,60,11,-15
6490,229,-58,97,61,10,-15
6495,224,-55,100,59,11,-15
6500,231,-55,98,57,11,-16
6505,230,-54,102,56,10,-16
6510,234,-57,98,56,10,-16
6515,229,-56,99,55,10,-14
6520,233,-54,98,53,12,-13
6525,231,-56,99,53,13,-12
6530,233,-58,101,54,11,-11
6535,233,-55,101,53,11,-10
6540,233,-56,100,53,9,-10
6545,228,-57,97,54,8,-11
6550,228,-58,99,56,6,-14
6555,231,-56,101,57,7,-12
6560,233,-54,102,57,11,-10
6565,231,-55,98,56,11,-13
6570,233,-58,100,55,11,-14
6575,230,-55,101,55,10,-14
6580,229,-54,100,57,11,-16
6585,231,-55,100,59,11,-14
6590,233,-58,99,61,11,-13
6595,231,-53,99,63,12,-15
6600,233,-56,92,66,14,-14
6605,228,-55,105,68,14,-14
6610,230,-56,101,69,14,-16
6615,230,-57,99,68,14,-17
6620,231,-57,98,63,16,-16
6625,228,-53,100,58,17,-15
6630,227,-53,102,51,16,-14
6635,234,-57,102,43,16,-13
6640,231,-54,101,36,15,-13
6645,235,-59,100,29,14,-10
6650,234,-56,100,27,11,-10
6655,232,-60,100,30,9,-13
6660,235,-56,103,35,6,-14
6665,233,-59,99,41,6,-14
6670,231,-52,99,46,7,-17
6675,232,-58,98,50,7,-15
6680,231,-55,101,53,8,-14
6685,231,-55,98,54,9,-14
6690,232,-56,102,55,8,-12
6695,232,-56,98,53,9,-12
6700,234,-55,96,55,10,-11
6705,235,-57,103,56,12,-14
6710,230,-58,93,57,14,-15
6715,235,-57,101,56,15,-13
6720,230,-55,101,56,18,-13
6725,229,-56,96,53,18,-14
6730,231,-57,101,49,17,-16
6735,232,-59,101,46,14,-15
6740,233,-57,103,42,13,-15
6745,232,-57,99,45,12,-14
6750,230,-57,98,46,10,-14
6755,230,-57,98,50,8,-13
6760,234,-58,97,55,7,-12
6765,236,-60,103,59,7,-10
6770,231,-58,100,63,7,-12
6775,232,-57,96,65,9,-12
6780,231,-56,100,65,10,-13
6785,230,-57,101,63,9,-15
6790,230,-55,99,61,9,-15
6795,232,-56,98,60,9,-14
6800,231,-57,104,58,7,-15
6805,228,-51,102,57,8,-15
6810,232,-58,97,55,9,-16
6815,230,-55,103,54,10,-15
6820,229,-55,103,54,9,-16
6825,232,-56,101,52,8,-18
6830,232,-53,102,51,5,-20
6835,232,-56,100,53,2,-21
6840,234,-58,103,54,0,-21
6845,232,-54,102,54,-3,-20
6850,231,-53,100,54,-3,-17
6855,234,-56,104,54,-3,-16
6860,229,-56,99,53,-4,-15
6865,231,-56,100,50,-4,-14
6870,231,-53,98,47,-4,-14
6875,231,-58,102,44,-2,-13
6880,229,-52,97,41,-1,-14
6885,232,-53,99,40,1,-14
6890,230,-55,99,39,1,-15
6895,233,-56,102,39,1,-14
6900,234,-57,95,39,1,-14
6905,233,-56,99,41,1,-16
6910,235,-55,102,43,1,-17
6915,226,-54,94,43,1,-15
6920,230,-56,97,44,0,-14
6925,234,-56,99,45,1,-13
6930,227,-54,95,44,1,-13
6935,232,-53,100,42,2,-13
6940,233,-54,102,40,1,-11
6945,230,-54,99,38,2,-11
6950,230,-53,97,34,2,-10
6955,229,-55,97,33,3,-10
6960,230,-56,99,31,4,-10
6965,233,-55,99,32,6,-9
6970,230,-59,100,34,7,-9
6975,236,-55,98,39,8,-10
6980,230,-57,100,44,7,-12
6985,230,-56,99,48,8,-11
6990,231,-56,98,51,7,-10
6995,232,-54,98,51,9,-9
7000,231,-57,101,50,12,-9
7005,234,-56,100,49,14,-9
7010,231,-60,99,49,16,-9
7015,232,-58,98,45,17,-12
7020,232,-56,100,44,17,-13
7025,235,-52,100,42,17,-14
7030,235,-55,97,39,16,-12
7035,234,-56,96,37,17,-12
7040,229,-57,100,35,15,-12
7045,236,-56,100,34,13,-12
7050,230,-56,103,34,9,-12
7055,233,-56,98,33,3,-12
7060,230,-57,100,36,1,-10
7065,231,-56,100,37,-2,-10
7070,232,-56,95,39,-2,-11
7075,231,-58,98,38,-2,-10
7080,231,-57,101,38,-1,-9
7085,233,-56,96,38,2,-10
7090,230,-55,97,38,5,-11
7095,230,-53,96,37,7,-11
7100,230,-58,99,37,10,-11
7105,230,-58,100,37,12,-12
7110,232,-57,100,38,13,-14
7115,231,-56,101,40,12,-14
7120,230,-57,99,39,12,-13
7125,231,-54,96,40,11,-13
7130,234,-58,101,39,9,-16
7135,233,-56,98,39,8,-16
7140,231,-57,104,41,6,-14
7145,235,-53,94,41,6,-13
7150,231,-54,101,40,3,-12
7155,230,-57,98,40,3,-14
7160,232,-55,98,39,3,-12
7165,231,-58,98,38,5,-13
7170,230,-56,96,37,5,-12
7175,233,-54,95,37,4,-9
7180,234,-57,98,37,4,-11
7185,230,-57,100,37,4,-12
7190,232,-56,100,38,3,-13
7195,232,-60,95,39,0,-12
7200,231,-53,97,41,0,-14
7205,228,-55,98,43,0,-13
7210,231,-53,97,45,0,-13
7215,231,-54,99,44,1,-16
7220,232,-57,98,46,2,-16
7225,233,-53,97,47,2,-15
7230,231,-55,98,49,6,-15
7235,236,-55,94,48,8,-13
7240,230,-55,104,50,9,-13
7245,232,-56,99,50,11,-14
7250,232,-57,102,50,11,-12
7255,234,-54,97,49,12,-13
7260,232,-53,96,50,13,-10
7265,233,-57,93,51,12,-12
7270,233,-54,96,53,12,-13
7275,231,-54,99,53,13,-12
7280,233,-55,99,55,12,-12
7285,230,-53,98,57,13,-11
7290,229,-55,99,57,14,-11
7295,234,-58,99,58,13,-11
7300,230,-55,101,59,16,-11
7305,233,-57,96,61,16,-12
7310,228,-55,89,60,15,-10
7315,233,-57,96,60,15,-9
7320,232,-54,98,59,15,-10
7325,234,-56,100,59,15,-8
7330,232,-57,99,58,15,-9
7335,233,-57,99,58,15,-10
7340,231,-58,95,59,16,-8
7345,231,-56,98,59,16,-8
7350,233,-53,99,60,17,-9
7355,231,-58,97,62,17,-9
7360,232,-53,98,65,18,-9
7365,226,-55,97,65,21,-8
7370,232,-56,99,67,21,-8
7375,232,-55,97,67,23,-5
7380,234,-54,97,67,23,-9
7385,235,-58,97,67,24,-7
7390,235,-58,98,66,26,-6
7395,232,-55,99,67,27,-5
7400,233,-60,97,66,26,-6
7405,230,-59,100,66,27,-6
7410,236,-57,99,67,27,-6
7415,230,-53,97,67,27,-6
7420,230,-60,99,69,28,-7
7425,231,-54,98,69,29,-7
7430,228,-55,101,71,28,-6
7435,233,-59,96,69,28,-8
7440,230,-59,97,70,27,-8
7445,231,-55,101,71,27,-8
7450,232,-55,96,72,27,-6
7455,227,-53,98,72,27,-8
7460,231,-56,96,73,27,-8
7465,233,-54,101,74,27,-9
7470,231,-54,99,74,27,-9
7475,233,-55,94,72,28,-9
7480,232,-54,98,71,28,-7
7485,229,-53,100,69,28,-6
7490,232,-54,101,67,28,-6
7495,230,-55,100,67,29,-6
7500,230,-54,96,66,28,-8
7505,234,-56,102,66,27,-8
7510,236,-56,102,67,25,-9
7515,230,-57,100,68,24,-10
7520,229,-55,99,69,25,-11
7525,227,-57,101,68,26,-12
7530,232,-55,98,67,26,-12
7535,234,-58,103,67,27,-12
7540,233,-56,101,65,25,-10
7545,234,-55,105,65,24,-11
7550,234,-56,99,64,24,-10
7555,232,-59,97,67,22,-9
7560,231,-55,101,69,22,-10
7565,232,-52,101,72,22,-9
7570,231,-55,99,74,23,-9
7575,234,-54,101,75,25,-8
7580,233,-57,95,74,26,-7
7585,232,-56,103,70,23,-7
7590,229,-54,101,65,24,-7
7595,232,-61,101,62,22,-8
7600,229,-56,97,59,20,-8
7605,233,-59,99,59,19,-8
7610,230,-58,102,61,18,-11
7615,234,-60,99,64,16,-11
7620,234,-59,99,73,15,-11
7625,231,-59,101,79,13,-11
7630,231,-59,98,85,12,-12
7635,233,-58,105,87,11,-13
7640,233,-56,99,91,9,-12
7645,230,-56,99,92,8,-12
7650,232,-56,100,92,9,-14
7655,232,-57,99,92,10,-14
7660,229,-51,103,92,11,-15
7665,231,-55,97,90,12,-15
7670,231,-51,98,90,14,-14
7675,231,-57,102,90,17,-14
7680,227,-48,104,88,20,-14
7685,231,-57,103,87,21,-14
7690,228,-60,92,85,23,-14
7695,231,-55,98,81,25,-13
7700,231,-55,105,77,24,-14
7705,232,-57,102,75,24,-14
7710,230,-55,105,72,23,-11
7715,230,-53,104,71,23,-11
7720,230,-54,98,69,21,-8
7725,233,-54,98,67,20,-8
7730,232,-53,101,67,19,-7
7735,233,-56,100,67,18,-6
7740,234,-54,98,68,18,-9
7745,228,-53,95,69,19,-8
7750,231,-49,100,69,17,-8
7755,233,-55,103,70,18,-7
7760,232,-51,101,69,19,-9
7765,231,-53,97,69,21,-9
7770,234,-56,103,69,21,-9
7775,229,-55,98,67,23,-10
7780,232,-55,99,68,22,-11
7785,231,-55,96,67,23,-9
7790,231,-52,97,66,23,-9
7795,231,-54,106,64,22,-9
7800,237,-48,106,65,22,-9
7805,232,-55,100,63,20,-10
7810,234,-54,100,64,20,-9
7815,233,-54,96,63,19,-8
7820,231,-56,101,63,19,-8
7825,232,-53,100,62,18,-7
7830,231,-57,102,64,20,-8
7835,229,-52,103,65,21,-6
7840,229,-54,97,66,22,-5
7845,232,-55,103,68,23,-8
7850,231,-57,98,70,25,-6
7855,237,-58,100,71,26,-7
7860,231,-54,105,72,28,-7
7865,230,-54,105,70,28,-7
7870,232,-54,103,69,28,-8
7875,232,-58,101,67,28,-8
7880,230,-55,102,65,28,-8
7885,232,-55,101,61,27,-8
7890,231,-56,95,59,25,-9
7895,230,-57,105,55,23,-8
7900,231,-54,101,52,20,-10
7905,229,-56,101,49,18,-9
7910,237,-60,99,50,17,-8
7915,231,-56,103,50,16,-8
7920,230,-55,102,51,15,-11
7925,231,-55,102,52,15,-10
7930,231,-54,97,54,13,-10
7935,234,-56,99,56,16,-10
7940,229,-57,103,58,18,-11
7945,230,-58,95,59,20,-11
7950,230,-57,104,60,20,-10
7955,231,-57,101,60,22,-12
7960,230,-55,100,59,23,-12
7965,226,-54,102,59,24,-10
7970,230,-53,104,58,24,-11
7975,230,-54,104,58,23,-11
7980,231,-56,106,56,20,-12
7985,231,-56,102,55,18,-11
7990,230,-53,99,55,17,-10
7995,232,-51,104,54,14,-9
8000,231,-54,101,53,12,-11
8005,233,-56,104,54,10,-12
8010,232,-58,101,55,11,-12
8015,231,-52,100,55,9,-11
8020,232,-56,112,56,9,-12
8025,231,-55,98,56,9,-14
8030,231,-53,102,57,10,-15
8035,230,-54,103,55,9,-13
8040,234,-53,102,54,8,-13
8045,231,-54,102,53,8,-12
8050,231,-56,99,51,8,-13
8055,231,-56,99,52,8,-14
8060,230,-56,103,51,8,-15
8065,230,-55,103,49,6,-15
8070,233,-52,102,50,7,-16
8075,231,-54,102,50,6,-14
8080,228,-55,103,51,6,-14
8085,231,-57,103,52,5,-14
8090,232,-56,101,53,5,-15
8095,230,-51,97,53,5,-14
8100,233,-58,100,54,5,-15
8105,231,-55,104,55,6,-15
8110,230,-52,100,55,6,-14
8115,227,-50,101,56,7,-15
8120,233,-56,102,56,7,-16
8125,226,-55,103,56,5,-15
8130,231,-55,101,57,4,-16
8135,231,-58,102,58,2,-15
8140,232,-59,101,58,1,-17
8145,231,-56,100,56,-2,-17
8150,230,-55,98,57,-2,-17
8155,228,-55,102,56,-3,-18
8160,229,-57,97,55,-2,-18
8165,229,-50,99,53,-3,-19
8170,231,-55,98,52,-2,-20
8175,231,-53,104,50,-1,-22
8180,233,-55,106,52,0,-23
8185,231,-53,101,51,0,-22
8190,234,-55,101,50,1,-23
8195,233,-55,103,51,1,-21
8200,234,-58,105,51,1,-22
8205,231,-58,102,51,0,-23
8210,233,-54,100,52,-1,-24
8215,232,-59,101,55,-3,-24
8220,235,-56,102,57,-4,-23
8225,230,-56,101,59,-5,-25
8230,230,-57,103,61,-8,-25
8235,234,-56,100,62,-9,-25
8240,230,-53,102,64,-10,-25
8245,231,-53,100,65,-10,-24
8250,232,-52,101,64,-11,-23
8255,233,-53,103,62,-11,-22
8260,231,-52,102,60,-9,-22
8265,235,-54,101,57,-9,-23
8270,231,-51,101,53,-8,-21
8275,229,-51,103,50,-5,-19
8280,230,-51,100,47,-5,-20
8285,227,-54,101,43,-6,-19
8290,225,-51,100,41,-6,-17
8295,231,-56,101,43,-5,-18
8300,232,-54,101,43,-6,-18
8305,230,-56,105,44,-8,-16
8310,231,-57,100,47,-9,-18
8315,231,-54,98,50,-10,-19
8320,231,-54,100,52,-13,-20
8325,228,-54,103,54,-12,-21
8330,231,-51,101,55,-12,-21
8335,230,-54,106,57,-12,-22
8340,233,-55,98,58,-13,-22
8345,230,-58,100,59,-12,-23
8350,231,-56,97,60,-11,-22
8355,234,-57,98,62,-11,-23
8360,232,-53,99,64,-11,-24
8365,237,-55,98,66,-11,-25
8370,233,-54,102,68,-8,-25
8375,231,-52,98,68,-8,-25
8380,234,-53,103,66,-8,-25
8385,233,-53,97,64,-7,-27
8390,229,-54,99,63,-7,-28
8395,234,-50,105,61,-7,-28
8400,231,-45,97,59,-8,-28
8405,233,-50,98,58,-8,-27
8410,232,-49,97,57,-8,-26
8415,232,-53,99,55,-9,-26
8420,231,-51,102,53,-9,-25
8425,232,-55,99,51,-7,-23
8430,228,-51,99,47,-8,-21
8435,229,-51,99,42,-7,-18
8440,231,-52,94,40,-8,-17
8445,233,-53,96,39,-11,-17
8450,231,-55,97,39,-12,-17
8455,230,-57,103,40,-13,-20
8460,231,-53,104,39,-14,-22
8465,233,-56,101,39,-14,-24
8470,232,-54,96,40,-14,-24
8475,234,-54,99,38,-16,-26
8480,234,-54,104,36,-16,-25
8485,234,-54,101,36,-17,-25
8490,233,-56,104,36,-21,-27
8495,234,-56,98,40,-22,-26
8500,230,-54,102,45,-23,-27
8505,231,-56,100,50,-24,-28
8510,233,-49,100,57,-25,-27
8515,233,-53,101,62,-26,-28
8520,232,-53,98,65,-27,-28
8525,231,-51,98,65,-27,-28
8530,229,-54,99,63,-27,-26
8535,232,-54,100,58,-29,-27
8540,230,-52,93,52,-29,-27
8545,233,-54,98,48,-27,-27
8550,227,-53,96,45,-29,-26
8555,230,-55,97,44,-28,-26
8560,233,-51,93,45,-27,-25
8565,232,-55,95,46,-25,-24
8570,235,-56,97,51,-24,-24
8575,233,-54,97,57,-23,-23
8580,234,-58,95,61,-21,-23
8585,232,-53,95,64,-23,-22
8590,232,-55,94,67,-23,-20
8595,230,-51,96,67,-24,-20
8600,233,-52,97,68,-24,-21
8605,232,-53,97,66,-26,-21
8610,230,-49,97,64,-24,-22
8615,230,-55,95,60,-23,-23
8620,234,-52,97,58,-20,-23
8625,235,-52,102,57,-17,-24
8630,236,-50,98,57,-15,-22
8635,234,-52,99,57,-14,-24
8640,235,-50,99,57,-13,-24
8645,234,-51,97,56,-12,-24
8650,235,-51,97,55,-13,-23
8655,236,-51,98,55,-14,-22
8660,232,-53,97,55,-15,-21
8665,234,-49,97,57,-16,-20
8670,234,-51,85,58,-17,-19
8675,234,-52,93,58,-16,-20
8680,238,-52,93,56,-13,-19
8685,234,-50,94,54,-10,-18
8690,236,-53,93,50,-9,-20
8695,235,-53,96,49,-7,-19
8700,234,-52,94,46,-5,-20
8705,235,-52,97,44,-3,-22
8710,231,-53,97,44,-1,-22
8715,234,-52,94,46,0,-21
8720,237,-54,95,47,0,-20
8725,234,-51,96,50,-1,-20
8730,234,-52,96,54,1,-20
8735,235,-50,97,56,-1,-19
8740,234,-48,96,59,0,-19
8745,231,-52,94,59,-2,-18
8750,233,-52,93,57,-1,-19
8755,236,-51,93,55,0,-18
8760,234,-53,96,53,1,-15
8765,238,-51,93,50,3,-15
8770,234,-51,99,49,3,-16
8775,238,-55,94,47,5,-14
8780,237,-49,97,48,5,-13
8785,232,-55,99,50,6,-13
8790,234,-53,96,52,6,-13
8795,236,-56,100,57,6,-12
8800,232,-54,97,60,6,-11
8805,232,-52,96,63,6,-11
8810,233,-55,95,65,7,-10
8815,234,-49,101,64,7,-11
8820,233,-50,96,63,6,-10
8825,233,-51,96,60,8,-10
8830,236,-55,95,57,9,-11
8835,227,-52,109,53,8,-14
8840,234,-54,97,48,10,-16
8845,233,-56,98,44,9,-16
8850,235,-52,98,42,7,-16
8855,233,-53,96,40,7,-16
8860,234,-52,103,40,6,-15
8865,236,-49,97,40,5,-17
8870,232,-52,98,41,6,-15
8875,234,-53,95,42,6,-16
8880,233,-53,97,44,6,-14
8885,231,-51,95,47,5,-15
8890,239,-52,99,50,4,-16
8895,235,-56,98,50,4,-14
8900,232,-54,97,53,3,-15
8905,235,-54,101,54,2,-15
8910,234,-53,96,55,2,-17
8915,234,-54,95,53,2,-15
8920,232,-53,93,50,0,-16
8925,235,-55,103,48,1,-16
8930,233,-49,95,45,0,-17
8935,234,-53,96,44,1,-17
8940,233,-52,95,42,2,-17
8945,237,-57,101,44,2,-15
8950,234,-52,97,43,3,-16
8955,233,-54,95,44,5,-15
8960,233,-53,98,46,4,-14
8965,234,-52,95,47,4,-13
8970,234,-53,97,49,3,-13
8975,235,-52,95,50,1,-13
8980,232,-55,94,52,-1,-16
8985,235,-54,97,50,-3,-16
8990,232,-53,97,48,-3,-18
8995,233,-54,96,46,-6,-18
9000,231,-54,94,44,-7,-20
9005,233,-52,95,41,-8,-19
9010,232,-51,94,38,-8,-20
9015,236,-54,95,37,-6,-18
9020,236,-52,95,36,-3,-16
9025,235,-54,97,35,-1,-14
9030,233,-51,97,36,0,-15
9035,237,-58,97,37,1,-14
9040,232,-54,97,41,1,-14
9045,235,-54,96,46,0,-14
9050,231,-56,98,49,1,-14
9055,232,-58,90,54,0,-15
9060,237,-54,96,55,-2,-16
9065,234,-52,96,55,-2,-18
9070,232,-51,96,55,-3,-19
9075,232,-51,93,53,-4,-20
9080,233,-52,93,53,-3,-23
9085,231,-50,96,50,-4,-20
9090,235,-49,96,48,-3,-20
9095,236,-55,97,47,-3,-18
9100,232,-52,95,45,-3,-19
9105,235,-51,92,45,-3,-19
9110,232,-54,98,45,-2,-17
9115,236,-50,97,45,-3,-17
9120,237,-52,95,44,-5,-17
9125,237,-53,93,43,-7,-17
9130,230,-50,96,42,-8,-20
9135,230,-51,96,40,-9,-21
9140,233,-53,100,40,-12,-21
9145,230,-49,97,39,-14,-22
9150,235,-53,94,39,-16,-23
9155,234,-55,96,37,-17,-21
9160,240,-57,94,37,-16,-24
9165,235,-52,92,34,-16,-23
9170,232,-52,96,35,-16,-23
9175,237,-52,94,34,-17,-24
9180,235,-54,95,35,-16,-25
9185,233,-49,93,36,-16,-25
9190,233,-53,94,36,-16,-25
9195,235,-54,96,37,-17,-27
9200,232,-52,95,37,-17,-28
9205,235,-52,94,36,-18,-30
9210,233,-53,97,36,-18,-31
9215,229,-56,94,34,-20,-32
9220,236,-53,95,33,-18,-34
9225,236,-52,91,32,-15,-35
9230,234,-52,93,29,-13,-34
9235,236,-52,94,27,-12,-35
9240,232,-54,96,26,-10,-34
9245,238,-55,97,25,-7,-32
9250,238,-51,95,24,-7,-31
9255,237,-53,94,25,-5,-31
9260,238,-56,96,28,-7,-30
9265,237,-52,89,30,-8,-29
9270,235,-56,91,33,-10,-28
9275,235,-52,94,36,-13,-27
9280,235,-54,94,38,-15,-28
9285,231,-53,97,40,-15,-28
9290,234,-54,95,39,-15,-29
9295,230,-53,95,38,-15,-29
9300,233,-53,97,37,-15,-29
9305,234,-53,93,36,-13,-30
9310,233,-52,97,36,-13,-28
9315,234,-51,93,39,-12,-28
9320,233,-48,93,43,-11,-28
9325,233,-54,94,47,-10,-29
9330,234,-52,91,51,-10,-28
9335,235,-53,93,53,-8,-28
9340,235,-51,92,56,-6,-27
9345,234,-50,95,58,-3,-24
9350,233,-48,94,57,-2,-21
9355,235,-48,91,55,0,-20
9360,236,-52,91,54,2,-19
9365,239,-49,90,50,2,-16
9370,236,-49,90,47,1,-15
9375,238,-47,92,45,1,-17
9380,236,-51,93,43,-1,-16
9385,236,-49,92,44,-1,-17
9390,237,-49,94,45,-1,-15
9395,238,-48,90,44,-1,-15
9400,237,-46,95,43,1,-15
9405,239,-49,91,41,1,-14
9410,240,-46,95,40,2,-13
9415,237,-49,93,38,2,-11
9420,239,-52,92,38,4,-9
9425,238,-51,91,40,6,-9
9430,238,-49,85,44,9,-8
9435,238,-50,95,48,11,-7
9440,233,-50,92,49,14,-7
9445,235,-50,93,50,16,-6
9450,237,-51,96,49,18,-5
9455,237,-51,93,45,19,-4
9460,234,-52,94,42,19,-3
9465,238,-49,92,41,19,-2
9470,233,-53,93,40,20,-2
9475,237,-51,94,43,20,-3
9480,238,-54,91,47,21,-2
9485,238,-54,93,52,21,-3
9490,240,-47,89,59,22,-2
9495,236,-51,92,64,23,-2
9500,235,-51,90,68,24,0
9505,234,-51,90,73,26,1
9510,238,-54,93,74,28,-1
9515,239,-50,90,72,29,1
9520,235,-49,94,70,29,2
9525,236,-51,95,66,30,2
9530,233,-49,93,62,30,2
9535,233,-52,96,59,30,2
9540,235,-51,97,57,30,4
9545,231,-51,92,58,31,3
9550,233,-50,92,60,31,6
9555,234,-51,93,60,32,4
9560,233,-50,93,62,33,1
9565,236,-52,92,62,30,1
9570,234,-49,96,62,29,0
9575,232,-52,92,60,28,0
9580,237,-50,90,59,26,0
9585,235,-53,94,56,27,0
9590,237,-53,96,54,26,1
9595,230,-51,90,51,26,3
9600,233,-51,94,49,27,3
9605,234,-49,95,49,27,2
9610,237,-54,98,48,28,2
9615,232,-53,93,48,29,0
9620,235,-51,95,49,27,2
9625,236,-55,95,50,29,1
9630,236,-56,93,52,29,0
9635,238,-52,94,53,30,-2
9640,234,-55,92,53,29,-1
9645,233,-55,95,54,27,-2
9650,231,-53,94,56,26,-3
9655,232,-53,97,56,25,-3
9660,236,-54,98,54,24,-3
9665,234,-53,93,54,23,-5
9670,232,-50,94,54,22,-5
9675,234,-54,90,53,22,-5
9680,233,-53,93,51,23,-5
9685,228,-49,95,50,23,-6
9690,232,-50,92,50,25,-4
9695,233,-52,93,51,25,-2
9700,235,-53,93,51,25,-4
9705,237,-52,104,53,25,-3
9710,235,-51,94,54,24,-4
9715,233,-54,94,55,24,-4
9720,232,-52,94,57,25,-5
9725,235,-50,94,58,22,-4
9730,234,-53,96,58,20,-6
9735,235,-54,95,57,21,-6
9740,235,-52,94,56,20,-7
9745,237,-54,96,54,21,-7
9750,231,-52,98,53,22,-6
9755,236,-54,97,49,23,-7
9760,234,-56,97,50,23,-7
9765,235,-52,97,49,21,-7
9770,232,-51,93,49,20,-7
9775,233,-54,94,50,19,-7
9780,236,-50,91,52,18,-8
9785,238,-51,95,52,20,-9
9790,236,-49,95,52,20,-9
9795,237,-53,94,52,19,-9
9800,235,-55,94,51,20,-9
9805,236,-53,95,51,18,-10
9810,231,-53,95,50,17,-11
9815,235,-53,91,48,17,-10
9820,233,-52,95,46,18,-10
9825,234,-52,96,45,19,-11
9830,234,-54,95,44,18,-10
9835,233,-51,96,44,17,-10
9840,233,-51,94,45,16,-10
9845,236,-52,93,45,15,-9
9850,234,-55,98,46,14,-9
9855,235,-50,92,48,14,-7
9860,236,-50,92,47,14,-6
9865,235,-55,94,48,15,-8
9870,232,-56,95,49,15,-7
9875,237,-53,95,51,17,-7
9880,233,-56,93,51,16,-8
9885,236,-51,95,51,16,-8
9890,237,-53,94,53,17,-9
9895,235,-52,96,53,17,-8
9900,234,-52,97,53,18,-6
9905,237,-51,91,53,18,-7
9910,236,-53,97,52,19,-7
9915,234,-53,94,50,18,-9
9920,234,-55,100,49,17,-9
9925,232,-51,97,49,18,-9
9930,233,-50,97,48,18,-11
9935,235,-52,96,47,19,-9
9940,235,-55,95,46,19,-5
9945,236,-54,96,45,19,-6
9950,237,-56,99,46,19,-7
9955,234,-51,94,47,19,-7
9960,233,-46,96,46,19,-6
9965,231,-51,90,48,20,-7
9970,234,-51,97,48,19,-6
9975,235,-52,96,50,18,-7
9980,232,-53,103,51,18,-6
9985,236,-53,95,51,17,-5
9990,234,-53,95,53,18,-8
9995,237,-55,98,53,18,-6
10000,235,-51,95,52,18,-7
10005,234,-53,97,51,16,-5
10010,233,-51,97,51,15,-4
10015,235,-52,98,52,16,-6
10020,234,-49,94,53,14,-3
10025,233,-54,97,52,15,-3
10030,235,-50,98,52,15,-3
10035,232,-49,93,52,16,-4
10040,237,-52,93,53,18,-4
10045,233,-50,95,50,19,-2
10050,236,-49,96,48,19,-6
10055,235,-55,95,46,17,-6
10060,233,-52,96,43,17,-5
10065,232,-52,96,38,16,-4
10070,233,-53,95,35,14,-5
10075,230,-49,100,30,13,-5
10080,234,-53,95,26,12,-5
10085,234,-53,93,24,9,-5
10090,236,-53,94,24,9,-4
10095,233,-53,94,23,7,-5
10100,236,-53,92,24,6,-4
10105,233,-51,96,24,5,-4
10110,235,-53,94,25,4,-5
10115,235,-53,92,24,2,-5
10120,238,-53,98,25,2,-4
10125,232,-50,99,26,1,-6
10130,236,-55,94,29,-1,-8
10135,234,-51,89,29,-3,-8
10140,237,-54,94,31,-1,-9
10145,235,-52,96,34,-2,-6
10150,233,-54,92,36,0,-8
10155,231,-54,92,39,3,-7
10160,237,-54,94,40,4,-8
10165,235,-53,93,41,6,-7
10170,237,-54,90,41,9,-7
10175,234,-53,91,40,12,-7
10180,233,-55,95,39,15,-9
10185,237,-57,96,38,17,-9
10190,234,-54,93,39,19,-10
10195,232,-56,98,40,18,-10
10200,237,-53,96,41,18,-10
10205,234,-56,90,42,18,-9
10210,234,-51,97,44,16,-9
10215,235,-52,96,46,15,-10
10220,233,-54,95,47,13,-8
10225,234,-56,92,48,14,-10
10230,236,-54,94,49,13,-10
10235,235,-54,98,51,13,-10
10240,234,-58,96,53,10,-12
10245,236,-55,98,53,10,-12
10250,227,-58,95,55,9,-12
10255,232,-50,93,56,9,-11
10260,234,-53,95,56,9,-12
10265,235,-52,95,56,10,-10
10270,236,-52,94,54,12,-10
10275,234,-51,95,53,12,-9
10280,237,-54,93,51,13,-8
10285,236,-55,95,48,13,-8
10290,232,-53,96,49,13,-7
10295,235,-53,95,50,13,-9
10300,233,-52,91,52,13,-10
10305,236,-52,90,52,14,-9
10310,234,-54,95,53,13,-11
10315,235,-56,95,53,13,-11
10320,235,-49,96,52,12,-11
10325,234,-50,95,49,12,-10
10330,238,-52,96,47,12,-11
10335,232,-51,99,46,11,-9
10340,238,-53,96,47,10,-9
10345,237,-56,98,48,8,-6
10350,234,-51,94,50,8,-7
10355,233,-49,89,52,9,-7
10360,240,-54,104,57,9,-7
10365,232,-52,93,58,12,-9
10370,231,-49,95,58,16,-7
10375,235,-54,95,55,18,-7
10380,234,-53,97,52,18,-6
10385,233,-53,98,48,17,-6
10390,237,-54,95,45,16,-7
10395,232,-58,99,44,15,-7
10400,235,-56,93,44,11,-8
10405,233,-56,92,48,10,-8
10410,234,-56,96,54,10,-9
10415,236,-61,96,60,9,-12
10420,235,-56,93,66,7,-11
10425,235,-55,93,71,9,-12
10430,232,-54,91,74,9,-10
10435,233,-53,92,75,11,-10
10440,230,-55,94,74,12,-10
10445,234,-52,92,70,13,-10
10450,232,-54,92,67,13,-9
10455,234,-51,91,64,15,-11
10460,235,-55,95,62,17,-10
10465,234,-55,94,62,18,-10
10470,238,-55,93,63,17,-10
10475,235,-53,99,65,18,-9
10480,237,-51,99,66,16,-10
10485,233,-53,95,68,16,-11
10490,235,-50,96,70,16,-10
10495,237,-51,95,68,16,-10
10500,234,-53,91,67,16,-9
10505,233,-52,98,65,16,-9
10510,236,-53,92,63,16,-7
10515,233,-53,95,60,15,-5
10520,229,-52,97,57,15,-4
10525,237,-54,93,55,15,-5
10530,233,-54,94,53,15,-6
10535,228,-53,100,53,15,-6
10540,233,-55,93,53,17,-8
10545,233,-53,94,54,16,-7
10550,235,-54,94,55,17,-6
10555,235,-56,92,54,18,-6
10560,235,-52,91,55,19,-9
10565,231,-51,94,54,19,-7
10570,236,-52,94,53,19,-6
10575,233,-53,97,52,20,-7
10580,241,-56,95,51,20,-7
10585,232,-54,96,51,20,-9
10590,235,-55,97,51,20,-9
10595,233,-53,98,51,20,-9
10600,233,-56,97,50,19,-10
10605,236,-54,96,51,18,-10
10610,235,-55,96,52,18,-10
10615,234,-50,97,54,17,-9
10620,233,-51,96,56,17,-9
10625,235,-54,98,56,16,-8
10630,235,-51,85,57,15,-7
10635,232,-53,93,58,14,-8
10640,233,-51,90,59,16,-8
10645,235,-52,94,60,17,-7
10650,235,-53,99,57,18,-6
10655,234,-53,98,57,20,-5
10660,235,-51,94,56,21,-5
10665,233,-53,95,56,21,-6
10670,237,-55,95,56,21,-6
10675,235,-52,97,54,22,-6
10680,231,-51,96,53,23,-9
10685,235,-58,93,50,22,-8
10690,237,-55,96,49,20,-10
10695,236,-53,101,48,19,-9
10700,235,-54,97,48,17,-9
10705,235,-53,96,47,18,-10
10710,232,-51,97,47,18,-9
10715,234,-54,98,48,18,-10
10720,231,-52,94,50,16,-11
10725,238,-54,96,51,17,-10
10730,233,-56,94,53,15,-9
10735,234,-55,92,54,17,-10
10740,233,-55,91,55,17,-10
10745,234,-54,97,55,17,-11
10750,234,-57,95,55,17,-11
10755,234,-55,99,55,16,-11
10760,234,-54,97,53,18,-11
10765,236,-53,98,53,17,-11
10770,232,-51,95,53,16,-12
10775,236,-52,96,51,15,-11
10780,231,-56,96,53,15,-10
10785,236,-50,95,53,14,-11
10790,234,-52,97,54,13,-10
10795,236,-56,95,54,13,-9
10800,234,-52,96,53,12,-10
10805,233,-52,97,53,11,-10
10810,235,-54,97,52,12,-9
10815,235,-53,98,52,11,-12
10820,233,-54,97,50,9,-11
10825,234,-52,99,47,8,-10
10830,232,-53,96,46,8,-10
10835,238,-55,97,45,7,-11
10840,234,-55,98,44,7,-11
10845,236,-55,95,44,7,-11
10850,231,-51,94,44,7,-11
10855,233,-50,97,44,8,-12
10860,233,-52,93,47,9,-12
10865,234,-51,96,48,10,-13
10870,235,-52,96,50,11,-13
10875,236,-53,94,51,10,-11
10880,232,-52,96,53,11,-10
10885,234,-50,91,53,13,-11
10890,231,-49,95,51,14,-10
10895,237,-58,96,51,16,-8
10900,237,-54,97,51,16,-8
10905,232,-52,98,50,16,-8
10910,234,-52,92,50,17,-7
10915,237,-52,95,49,17,-6
10920,233,-55,94,49,17,-7
10925,235,-54,97,50,15,-6
10930,233,-51,94,50,16,-6
10935,236,-53,97,51,15,-7
10940,232,-53,95,52,15,-6
10945,233,-51,94,52,17,-7
10950,233,-54,94,53,18,-8
10955,235,-55,94,54,19,-6
10960,230,-54,95,52,19,-6
10965,234,-53,98,50,21,-7
10970,233,-53,95,50,20,-5
10975,234,-53,93,49,21,-6
10980,233,-51,96,49,20,-7
10985,236,-51,95,48,20,-8
10990,235,-52,94,49,20,-5
10995,236,-57,94,51,19,-6
11000,235,-51,97,51,17,-6
11005,236,-58,97,50,18,-8
11010,236,-54,98,52,18,-9
11015,235,-54,100,52,17,-9
11020,232,-55,98,52,17,-9
11025,234,-53,95,52,17,-10
11030,235,-55,94,52,17,-10
11035,233,-53,96,51,17,-9
11040,231,-53,96,49,16,-11
11045,234,-55,95,47,14,-9
11050,234,-55,98,46,16,-9
11055,234,-54,95,46,16,-8
11060,234,-54,100,47,16,-10
11065,232,-53,97,47,15,-9
11070,236,-58,97,49,15,-9
11075,233,-54,94,52,17,-9
11080,233,-53,98,52,16,-9
11085,234,-58,93,52,17,-6
11090,235,-54,93,54,17,-9
11095,235,-54,95,53,18,-10
11100,234,-55,96,54,18,-9
11105,236,-50,97,54,17,-8
11110,230,-56,96,54,17,-9
11115,236,-55,98,53,17,-10
11120,232,-56,100,52,16,-7
11125,231,-51,97,51,16,-7
11130,232,-50,98,50,17,-8
11135,234,-55,98,51,15,-9
11140,232,-52,99,52,14,-10
11145,232,-52,96,53,15,-8
11150,234,-54,95,54,15,-9
11155,233,-55,92,53,14,-9
11160,229,-49,95,55,15,-8
11165,232,-54,93,54,16,-8
11170,233,-55,95,52,16,-10
11175,230,-55,101,51,16,-11
11180,235,-53,97,51,16,-13
11185,234,-53,98,52,17,-14
11190,233,-51,95,54,15,-13
11195,232,-51,95,55,15,-12
11200,233,-55,98,57,13,-14
11205,234,-54,95,57,14,-11
11210,232,-52,96,56,13,-10
11215,230,-51,93,55,14,-10
11220,233,-49,95,54,15,-9
11225,231,-54,94,52,14,-10
11230,234,-57,96,52,14,-9
11235,235,-51,96,53,12,-8
11240,237,-55,93,52,12,-9
11245,229,-50,99,54,11,-9
11250,236,-55,97,54,11,-10
11255,235,-54,93,54,11,-11
11260,232,-50,100,53,12,-12
11265,235,-57,95,52,14,-13
11270,234,-49,93,50,15,-14
11275,233,-51,97,48,15,-12
11280,232,-55,95,48,15,-10
11285,235,-53,97,47,15,-7
11290,235,-54,95,48,14,-8
11295,231,-55,96,52,15,-9
11300,237,-53,97,55,14,-7
11305,236,-53,96,58,14,-7
11310,233,-52,95,60,15,-8
11315,232,-54,98,61,15,-9
11320,230,-53,95,57,16,-10
11325,237,-52,98,53,17,-8
11330,235,-54,95,49,15,-8
11335,229,-54,100,46,13,-7
11340,240,-61,105,47,13,-9
11345,234,-56,98,48,10,-10
11350,234,-56,94,53,10,-11
11355,237,-56,96,59,11,-12
11360,231,-56,93,66,8,-12
11365,235,-54,93,74,9,-14
11370,233,-52,94,78,10,-15
11375,232,-51,92,80,10,-15
11380,230,-51,95,79,10,-17
11385,232,-51,93,77,12,-16
11390,229,-54,96,71,12,-15
11395,235,-45,101,66,12,-14
11400,234,-52,98,62,13,-14
11405,238,-52,96,58,14,-15
11410,235,-52,98,56,15,-13
11415,232,-50,97,57,14,-13
11420,237,-54,100,58,14,-13
11425,237,-51,96,59,13,-11
11430,236,-55,99,61,14,-13
11435,234,-53,97,63,15,-11
11440,237,-53,97,64,13,-10
11445,234,-49,96,64,11,-10
11450,236,-52,101,63,11,-10
11455,233,-52,95,61,11,-10
11460,232,-49,92,58,11,-8
11465,235,-53,95,54,11,-9
11470,235,-52,97,52,11,-8
11475,235,-52,96,49,11,-8
11480,232,-55,96,48,12,-9
11485,234,-57,96,48,13,-8
11490,233,-57,96,48,12,-10
11495,235,-51,94,50,14,-9
11500,233,-53,94,52,13,-9
11505,230,-53,94,54,14,-10
11510,233,-55,97,56,14,-10
11515,234,-53,93,57,15,-11
11520,234,-54,93,57,13,-12
11525,235,-53,100,56,15,-13
11530,236,-52,97,55,16,-12
11535,233,-52,95,53,17,-10
11540,232,-53,93,52,17,-10
11545,233,-51,96,51,16,-11
11550,234,-54,94,50,15,-9
11555,233,-54,91,50,15,-8
11560,233,-56,98,50,16,-7
11565,234,-52,96,51,14,-8
11570,236,-53,97,53,14,-7
11575,234,-56,95,54,13,-7
11580,233,-54,93,56,15,-5
11585,235,-49,96,57,15,-7
11590,236,-55,92,58,18,-7
11595,233,-52,97,58,19,-8
11600,231,-51,100,58,20,-7
11605,231,-50,90,57,22,-8
11610,236,-55,98,57,23,-7
11615,233,-55,91,55,24,-8
11620,236,-55,95,53,23,-8
11625,235,-53,100,52,24,-8
11630,230,-53,97,51,23,-8
11635,233,-55,98,49,22,-9
11640,235,-53,99,52,21,-10
11645,232,-56,93,51,20,-11
11650,233,-57,100,54,19,-10
11655,232,-51,94,56,17,-9
11660,234,-56,96,56,18,-12
11665,238,-59,93,57,17,-11
11670,233,-50,97,57,18,-10
11675,234,-54,95,57,19,-12
11680,234,-53,95,57,18,-13
11685,233,-51,97,59,18,-12
11690,230,-50,96,57,20,-13
11695,233,-52,96,58,20,-12
11700,232,-55,93,59,20,-13
11705,236,-52,100,58,20,-14
11710,235,-55,101,58,19,-14
11715,233,-54,97,58,17,-14
11720,231,-54,98,57,15,-13
11725,234,-51,95,56,14,-13
11730,234,-55,99,53,12,-14
11735,235,-53,96,52,11,-14
11740,234,-54,94,51,10,-13
11745,233,-55,99,50,9,-14
11750,234,-53,95,51,8,-14
11755,231,-51,96,52,9,-14
11760,231,-53,97,53,10,-14
11765,232,-57,95,54,9,-13
11770,235,-51,99,54,10,-13
11775,232,-57,94,54,10,-14
11780,233,-52,100,54,11,-15
11785,233,-54,97,53,10,-14
11790,235,-55,97,54,11,-14
11795,229,-51,94,55,10,-15
11800,233,-52,96,54,10,-16
11805,233,-50,97,54,10,-17
11810,233,-50,94,54,9,-17
11815,234,-51,98,53,9,-14
11820,233,-50,97,52,9,-15
11825,234,-53,98,51,10,-15
11830,226,-55,95,50,8,-13
11835,234,-50,99,50,9,-14
11840,234,-51,95,52,8,-13
11845,236,-56,93,52,8,-12
11850,233,-54,98,54,10,-12
11855,235,-51,95,55,9,-13
11860,232,-53,96,56,8,-12
11865,239,-57,95,57,10,-10
11870,230,-54,91,55,11,-11
11875,236,-54,97,54,11,-12
11880,232,-51,94,52,12,-9
11885,226,-51,91,50,13,-9
11890,234,-53,91,48,11,-11
11895,234,-53,95,47,9,-9
11900,235,-52,94,48,10,-9
11905,232,-52,93,52,10,-8
11910,235,-52,95,55,12,-9
11915,234,-54,100,57,14,-9
11920,237,-54,99,59,16,-9
11925,235,-54,97,58,17,-9
11930,232,-56,96,55,17,-10
11935,236,-53,94,53,15,-10
11940,232,-52,100,50,16,-9
11945,231,-50,93,49,17,-9
11950,232,-53,100,48,19,-10
11955,235,-53,93,46,18,-8
11960,236,-53,94,46,18,-8
11965,234,-52,95,47,18,-6
11970,234,-50,96,48,18,-4
11975,235,-52,99,48,17,-4
11980,235,-50,95,49,15,-5
11985,234,-53,97,48,14,-7
11990,234,-53,96,48,13,-9
11995,237,-56,96,47,13,-9
12000,231,-51,93,45,14,-8
12005,233,-57,93,42,14,-7
12010,232,-53,94,43,14,-5
12015,232,-52,95,44,16,-5
12020,235,-54,96,46,18,-7
12025,235,-55,96,48,19,-9
12030,235,-50,94,51,19,-9
12035,235,-54,95,52,19,-9
12040,232,-52,94,52,21,-11
12045,235,-55,92,54,24,-11
12050,229,-54,99,51,23,-9
12055,236,-54,95,50,25,-6
12060,236,-54,98,49,24,-6
12065,235,-52,98,48,21,-7
12070,234,-53,94,49,18,-5
12075,233,-53,99,51,16,-6
12080,232,-55,95,54,15,-7
12085,236,-53,98,55,14,-8
12090,231,-52,100,53,14,-9
12095,232,-56,96,52,14,-9
12100,228,-49,94,50,14,-11
12105,232,-56,89,48,14,-10
12110,232,-53,100,45,14,-8
12115,235,-57,96,46,14,-9
12120,231,-53,94,47,16,-9
12125,233,-51,98,49,16,-10
12130,231,-51,97,51,17,-11
12135,237,-54,97,54,18,-9
12140,232,-52,94,57,17,-11
12145,236,-51,95,59,18,-10
12150,235,-53,100,58,19,-9
12155,229,-52,96,59,20,-8
12160,232,-53,94,57,19,-8
12165,235,-55,96,56,19,-8
12170,233,-53,96,54,20,-8
12175,231,-52,95,53,19,-8
12180,233,-52,96,52,18,-8
12185,233,-54,97,53,16,-8
12190,233,-54,95,55,13,-8
12195,234,-57,95,55,13,-10
12200,237,-53,99,56,13,-9
12205,233,-48,100,54,15,-10
12210,236,-53,96,51,16,-9
12215,236,-53,94,49,16,-10
12220,233,-51,91,49,16,-11
12225,234,-54,99,48,16,-10
12230,237,-55,98,48,17,-11
12235,233,-53,93,51,17,-9
12240,232,-53,97,54,17,-10
12245,233,-50,92,57,17,-10
12250,233,-55,93,60,18,-10
12255,234,-51,101,60,18,-10
12260,234,-55,97,57,17,-8
12265,234,-53,96,54,17,-8
12270,235,-54,99,48,15,-7
12275,233,-54,95,46,13,-7
12280,234,-55,97,42,11,-8
12285,236,-56,92,43,9,-6
12290,234,-56,96,44,9,-8
12295,233,-57,97,49,9,-8
12300,235,-55,88,56,10,-10
12305,236,-56,98,62,13,-10
12310,233,-53,99,69,15,-11
12315,234,-58,97,73,17,-11
12320,234,-50,98,76,17,-12
12325,234,-53,97,78,19,-12
12330,235,-55,97,75,20,-12
12335,233,-56,96,72,19,-12
12340,237,-52,97,68,18,-13
12345,235,-52,96,63,17,-12
12350,232,-49,99,60,15,-12
12355,234,-50,96,57,15,-12
12360,233,-51,97,57,15,-11
12365,234,-54,94,56,14,-11
12370,231,-49,98,56,14,-10
12375,235,-56,96,57,14,-8
12380,233,-51,93,55,14,-8
12385,234,-50,98,56,13,-7
12390,232,-53,99,54,13,-8
12395,234,-53,94,51,13,-9
12400,233,-52,97,50,12,-8
12405,231,-49,96,47,13,-7
12410,233,-51,97,44,12,-8
12415,230,-53,95,43,12,-7
12420,232,-51,94,43,13,-8
12425,233,-52,94,42,12,-9
12430,232,-55,100,43,14,-8
12435,232,-52,97,43,13,-8
12440,232,-56,100,44,13,-6
12445,233,-51,95,44,13,-6
12450,233,-52,96,45,12,-4
12455,233,-53,96,45,13,-6
12460,231,-54,97,45,12,-8
12465,233,-53,100,45,13,-7
12470,230,-51,95,44,11,-7
12475,231,-53,96,45,12,-7
12480,231,-54,97,45,12,-8
12485,232,-58,97,44,14,-9
12490,235,-55,95,43,12,-8
12495,234,-55,94,43,13,-8
12500,234,-53,98,43,12,-8
12505,235,-52,97,42,11,-7
12510,233,-53,95,45,11,-6
12515,233,-53,97,45,11,-6
12520,235,-56,96,48,10,-7
12525,237,-53,98,48,11,-8
12530,232,-53,96,48,12,-9
12535,237,-53,94,49,12,-8
12540,235,-59,85,49,14,-7
12545,235,-53,97,50,14,-8
12550,235,-54,94,49,15,-9
12555,233,-55,96,46,15,-9
12560,233,-51,98,45,16,-9
12565,236,-55,94,43,16,-9
12570,231,-54,98,40,17,-8
12575,232,-57,95,39,16,-9
12580,232,-55,96,38,16,-7
12585,237,-54,98,37,14,-8
12590,233,-53,101,36,14,-8
12595,236,-54,104,36,13,-8
12600,233,-53,98,36,13,-9
12605,233,-54,98,35,13,-11
12610,232,-55,94,37,13,-9
12615,233,-54,96,39,13,-9
12620,231,-54,94,39,13,-10
12625,232,-54,95,43,13,-11
12630,231,-50,95,45,14,-12
12635,230,-53,98,49,16,-11
12640,233,-54,99,50,15,-11
12645,240,-57,103,50,14,-11
12650,231,-53,98,49,13,-11
12655,232,-53,95,45,13,-10
12660,234,-54,98,44,12,-11
12665,233,-53,96,42,12,-12
12670,233,-54,94,41,9,-12
12675,235,-54,95,39,7,-12
12680,234,-50,99,37,6,-12
12685,235,-55,102,38,5,-11
12690,234,-55,99,37,6,-12
12695,236,-57,99,36,5,-14
12700,237,-56,101,37,5,-13
12705,235,-53,96,37,4,-14
12710,235,-52,97,37,4,-15
12715,235,-53,95,37,4,-15
12720,234,-53,98,35,4,-14
12725,233,-52,94,34,4,-15
12730,233,-54,100,34,4,-14
12735,235,-53,97,32,4,-15
12740,234,-54,98,31,5,-16
12745,236,-54,95,30,4,-13
12750,236,-55,97,28,4,-12
12755,230,-54,87,28,5,-11
12760,237,-54,98,26,4,-11
12765,233,-55,96,25,5,-10
12770,234,-53,95,23,5,-9
12775,233,-53,97,24,5,-11
12780,234,-49,100,23,6,-9
12785,233,-54,100,22,5,-11
12790,230,-55,100,23,6,-12
12795,233,-54,94,23,8,-11
12800,232,-55,98,25,8,-12
12805,234,-54,97,27,8,-12
12810,230,-50,98,29,8,-12
12815,234,-53,100,29,9,-13
12820,233,-54,94,32,9,-12
12825,234,-54,94,35,11,-11
12830,235,-52,98,36,11,-12
12835,232,-53,96,36,12,-11
12840,236,-54,93,36,11,-12
12845,231,-51,95,37,11,-11
12850,236,-54,96,36,12,-12
12855,233,-53,97,32,12,-13
12860,236,-56,100,31,12,-11
12865,230,-59,103,30,11,-11
12870,235,-54,98,28,11,-10
12875,230,-51,99,26,8,-9
12880,234,-55,95,27,9,-9
12885,234,-52,96,28,10,-8
12890,235,-53,95,28,10,-9
12895,235,-56,95,27,9,-11
12900,235,-56,96,27,9,-11
12905,233,-50,92,27,10,-9
12910,235,-55,95,28,10,-11
12915,234,-58,94,28,10,-10
12920,234,-59,97,29,10,-12
12925,230,-55,95,29,10,-12
12930,233,-56,100,30,11,-13
12935,232,-54,98,31,11,-12
12940,234,-55,95,31,13,-12
12945,235,-54,98,30,14,-11
12950,237,-56,96,29,13,-10
12955,233,-55,94,29,13,-10
12960,237,-57,99,29,13,-10
12965,232,-57,98,29,13,-11
12970,236,-53,95,30,12,-10
12975,232,-58,100,31,12,-11
12980,232,-53,96,31,12,-11
12985,234,-56,95,32,12,-10
12990,235,-56,94,32,11,-13
12995,234,-55,97,32,10,-12
13000,234,-54,96,32,9,-14
13005,233,-53,97,32,10,-11
13010,235,-55,98,33,10,-10
13015,232,-58,97,34,10,-11
13020,234,-56,93,36,11,-12
13025,233,-55,96,36,10,-12
13030,239,-58,93,38,13,-12
13035,237,-53,99,40,13,-12
13040,233,-52,94,41,13,-14
13045,235,-59,97,42,13,-12
13050,236,-56,96,40,14,-12
13055,232,-53,100,41,14,-13
13060,232,-52,97,39,13,-11
13065,231,-55,93,37,12,-12
13070,234,-54,98,36,12,-12
13075,231,-50,92,36,13,-12
13080,233,-54,91,38,13,-9
13085,234,-53,96,38,14,-10
13090,235,-54,95,41,15,-11
13095,231,-53,94,40,15,-11
13100,234,-56,95,39,16,-9
13105,232,-55,93,39,16,-9
13110,235,-56,97,39,16,-9
13115,234,-53,98,38,14,-10
13120,234,-56,100,37,14,-10
13125,232,-58,95,37,11,-11
13130,235,-53,97,37,10,-13
13135,231,-54,100,38,9,-13
13140,233,-55,98,39,7,-14
13145,235,-55,96,38,5,-16
13150,234,-56,96,37,6,-14
13155,233,-55,95,35,7,-15
13160,234,-54,96,34,8,-13
13165,232,-55,100,35,7,-13
13170,233,-56,95,38,6,-10
13175,234,-55,97,40,7,-10
13180,232,-56,98,45,7,-11
13185,234,-51,97,52,9,-13
13190,229,-58,92,55,9,-13
13195,233,-52,93,56,11,-14
13200,234,-56,98,56,12,-15
13205,233,-54,97,53,14,-15
13210,232,-57,96,48,14,-16
13215,234,-56,99,45,13,-18
13220,231,-58,97,42,11,-18
13225,230,-53,98,43,9,-18
13230,236,-58,97,47,6,-19
13235,233,-58,93,54,6,-20
13240,230,-53,97,63,6,-20
13245,239,-56,88,73,8,-23
13250,236,-61,96,81,9,-22
13255,232,-55,96,85,10,-24
13260,234,-50,92,90,11,-24
13265,235,-56,92,91,8,-23
13270,236,-53,92,92,5,-23
13275,233,-56,94,91,5,-22
13280,235,-54,93,88,5,-20
13285,234,-51,94,84,5,-20
13290,238,-51,94,80,5,-19
13295,233,-50,95,76,8,-18
13300,233,-53,92,73,8,-16
13305,234,-52,94,70,10,-15
13310,234,-52,94,69,10,-16
13315,235,-55,99,69,11,-15
13320,236,-55,95,68,12,-12
13325,233,-50,97,66,10,-13
13330,231,-54,89,66,10,-15
13335,235,-54,95,65,12,-14
13340,233,-56,93,62,12,-12
13345,234,-57,95,58,13,-11
13350,234,-53,95,56,12,-10
13355,236,-52,92,53,13,-10
13360,234,-54,98,51,13,-11
13365,234,-56,96,48,14,-10
13370,236,-54,95,49,12,-11
13375,235,-53,93,47,13,-10
13380,237,-51,94,47,11,-10
13385,236,-54,97,45,11,-11
13390,233,-53,94,42,11,-9
13395,232,-51,100,41,12,-8
13400,236,-57,95,39,11,-6
13405,235,-53,92,37,11,-9
13410,230,-56,94,34,10,-8
13415,233,-53,97,34,10,-8
13420,232,-54,97,32,12,-9
13425,233,-54,94,31,11,-7
13430,235,-55,96,30,13,-8
13435,235,-55,94,30,13,-8
13440,234,-53,98,30,13,-7
13445,230,-50,92,30,15,-7
13450,234,-53,95,32,18,-7
13455,230,-54,95,32,20,-6
13460,232,-54,90,34,21,-7
13465,237,-51,96,36,21,-8
13470,234,-53,94,38,21,-8
13475,232,-53,91,42,23,-7
13480,231,-54,94,44,23,-8
13485,237,-59,98,45,23,-8
13490,236,-55,97,47,22,-7
13495,234,-54,93,46,21,-5
13500,232,-51,98,46,21,-7
13505,235,-54,95,45,21,-5
13510,237,-53,96,45,21,-5
13515,234,-55,97,44,21,-6
13520,239,-56,107,44,19,-7
13525,234,-54,96,43,19,-5
13530,234,-52,92,43,20,-4
13535,235,-53,100,41,19,-6
13540,236,-56,95,41,19,-5
13545,232,-56,99,41,20,-7
13550,233,-54,97,40,19,-7
13555,232,-56,95,41,20,-8
13560,234,-54,100,43,22,-8
13565,232,-53,97,45,22,-10
13570,232,-55,95,48,22,-8
13575,237,-62,95,50,24,-10
13580,233,-54,97,51,23,-9
13585,235,-56,92,53,24,-9
13590,231,-56,98,55,24,-10
13595,232,-53,97,54,22,-11
13600,235,-56,94,56,20,-12
13605,233,-56,99,56,18,-11
13610,239,-58,94,57,18,-12
13615,234,-54,98,57,18,-9
13620,232,-54,97,57,16,-11
13625,233,-57,98,57,17,-11
13630,237,-60,99,58,17,-9
13635,232,-55,97,59,18,-9
13640,235,-55,97,61,18,-11
13645,233,-54,93,61,17,-9
13650,235,-56,97,62,17,-9
13655,232,-54,97,64,19,-12
13660,232,-52,92,65,20,-13
13665,230,-56,98,66,19,-12
13670,233,-55,93,65,19,-13
13675,236,-58,98,66,18,-12
13680,231,-54,93,67,19,-12
13685,232,-54,93,68,20,-12
13690,234,-54,94,68,21,-11
13695,232,-54,95,67,22,-12
13700,236,-53,92,68,23,-12
13705,235,-56,95,69,23,-11
13710,234,-51,99,69,21,-11
13715,231,-52,100,70,22,-10
13720,232,-50,95,68,23,-11
13725,236,-55,92,68,23,-13
13730,234,-57,94,67,24,-10
13735,230,-53,101,66,23,-11
13740,231,-55,96,67,23,-12
13745,233,-55,91,68,24,-11
13750,232,-53,94,68,25,-11
13755,235,-55,96,69,25,-10
13760,233,-54,94,70,25,-13
13765,236,-56,96,70,26,-12
13770,237,-54,98,71,25,-13
13775,232,-56,96,73,25,-11
13780,233,-53,95,74,26,-10
13785,238,-58,98,75,25,-11
13790,232,-55,102,75,26,-9
13795,231,-53,97,75,26,-11
13800,233,-53,98,74,25,-11
13805,233,-51,96,73,24,-11
13810,233,-53,99,73,24,-10
13815,235,-51,97,71,24,-9
13820,235,-54,94,72,25,-9
13825,233,-52,100,71,27,-10
13830,232,-53,100,73,27,-10
13835,231,-54,98,71,30,-9
13840,232,-50,97,72,30,-8
13845,235,-54,98,74,31,-7
13850,234,-56,95,74,34,-7
13855,234,-56,97,73,34,-6
13860,235,-55,99,75,35,-6
13865,234,-53,94,75,34,-6
13870,236,-56,102,76,32,-7
13875,235,-55,97,76,31,-6
13880,231,-54,96,76,30,-7
13885,231,-53,95,77,29,-7
13890,236,-54,100,76,28,-6
13895,235,-53,96,75,28,-8
13900,234,-58,95,75,28,-7
13905,234,-56,99,75,27,-7
13910,234,-51,96,76,26,-7
13915,235,-53,93,75,27,-7
13920,235,-53,99,76,28,-7
13925,232,-54,99,76,29,-8
13930,232,-52,96,77,30,-5
13935,231,-54,99,77,31,-5
13940,231,-56,96,77,31,-5
13945,232,-51,96,76,32,-5
13950,229,-51,95,76,31,-5
13955,230,-53,98,78,32,-5
13960,235,-53,97,77,31,-6
13965,231,-58,98,78,32,-5
13970,232,-54,100,80,32,-5
13975,230,-54,100,83,31,-6
13980,235,-53,99,84,33,-6
13985,232,-53,97,85,32,-7
13990,233,-58,100,85,32,-6
13995,233,-53,98,86,29,-6
14000,234,-56,98,86,29,-7
14005,234,-50,98,86,30,-7
14010,231,-53,97,86,28,-8
14015,233,-59,96,87,27,-9
14020,231,-51,96,88,26,-9
14025,232,-55,97,88,27,-9
14030,232,-53,97,87,28,-10
14035,232,-51,98,86,27,-10
14040,230,-49,99,83,27,-10
14045,230,-54,97,83,27,-9
14050,232,-52,101,79,28,-9
14055,235,-52,99,78,27,-8
14060,235,-50,99,74,28,-8
14065,232,-61,100,74,27,-8
14070,233,-50,98,72,25,-10
14075,236,-54,96,71,24,-10
14080,235,-55,100,70,23,-11
14085,232,-53,97,68,23,-11
14090,233,-51,96,66,22,-12
14095,233,-52,100,64,22,-11
14100,233,-53,98,61,21,-11
14105,234,-53,95,61,19,-9
14110,233,-52,99,63,19,-9
14115,235,-52,99,63,18,-9
14120,231,-53,97,65,16,-10
14125,231,-53,99,68,16,-7
14130,231,-55,100,70,16,-8
14135,230,-54,99,71,17,-8
14140,234,-53,96,73,17,-9
14145,235,-58,103,71,18,-10
14150,232,-55,100,69,18,-9
14155,230,-55,103,68,17,-11
14160,234,-55,97,66,17,-13
14165,232,-52,95,66,15,-14
14170,235,-56,100,67,15,-12
14175,231,-57,102,69,14,-14
14180,232,-55,104,74,14,-12
14185,233,-53,96,78,13,-11
14190,232,-53,96,82,12,-11
14195,235,-57,96,86,12,-11
14200,234,-55,96,88,12,-12
14205,232,-52,98,90,12,-12
14210,229,-50,94,89,13,-15
14215,233,-56,97,89,14,-12
14220,234,-56,101,88,15,-14
14225,231,-49,94,87,14,-15
14230,232,-53,101,85,15,-14
14235,232,-53,100,87,16,-13
14240,232,-52,101,88,18,-14
14245,230,-56,101,88,19,-13
14250,234,-49,97,88,17,-12
14255,233,-54,102,90,17,-14
14260,232,-49,99,88,18,-13
14265,231,-53,99,87,16,-14
14270,234,-53,98,86,16,-13
14275,231,-53,100,84,15,-10
14280,230,-56,103,82,15,-9
14285,232,-52,100,80,15,-9
14290,230,-50,103,77,16,-11
14295,231,-55,100,73,16,-8
14300,230,-51,100,72,16,-9
14305,231,-50,100,68,14,-9
14310,234,-54,100,66,17,-8
14315,233,-55,97,64,18,-9
14320,232,-57,100,65,17,-9
14325,234,-55,95,63,16,-10
14330,229,-50,92,63,17,-9
14335,231,-53,102,63,17,-10
14340,232,-51,97,64,16,-9
14345,235,-55,98,66,15,-9
14350,232,-50,97,67,16,-8
14355,232,-54,97,69,18,-7
14360,233,-54,99,71,18,-8
14365,235,-51,98,71,20,-6
14370,232,-52,99,72,20,-6
14375,232,-54,101,73,20,-7
14380,232,-52,100,71,22,-7
14385,235,-55,101,71,22,-7
14390,236,-53,96,70,22,-9
14395,234,-53,101,69,22,-9
14400,235,-53,98,69,21,-9
14405,233,-52,98,69,23,-10
14410,233,-52,97,69,24,-11
14415,232,-52,100,70,24,-13
14420,233,-53,98,72,26,-11
14425,231,-52,99,74,26,-11
14430,227,-49,98,76,28,-10
14435,231,-51,97,78,30,-11
14440,234,-50,96,79,31,-11
14445,232,-55,102,78,31,-10
14450,231,-51,97,78,30,-12
14455,233,-53,101,74,30,-11
14460,233,-50,103,72,28,-12
14465,234,-53,101,69,25,-13
14470,232,-56,102,66,23,-11
14475,230,-52,100,64,22,-10
14480,233,-54,104,63,19,-11
14485,231,-51,104,64,18,-11
14490,229,-56,101,63,18,-11
14495,237,-57,105,64,16,-11
14500,235,-52,92,66,17,-12
14505,235,-57,101,68,18,-12
14510,231,-53,96,69,19,-10
14515,231,-51,100,69,20,-11
14520,230,-49,98,67,21,-9
14525,230,-51,101,67,21,-11
14530,233,-55,99,66,20,-10
14535,229,-53,101,65,20,-9
14540,233,-52,101,65,19,-8
14545,232,-50,101,65,19,-10
14550,232,-54,97,65,18,-9
14555,233,-57,100,67,19,-10
14560,233,-53,103,67,18,-9
14565,232,-54,102,66,18,-8
14570,232,-51,98,65,18,-10
14575,231,-49,101,63,17,-11
14580,233,-54,99,62,16,-10
14585,229,-51,100,60,15,-11
14590,232,-52,99,61,15,-11
14595,232,-55,103,61,14,-11
14600,230,-49,98,61,14,-11
14605,231,-51,102,61,15,-13
14610,230,-50,102,61,13,-12
14615,234,-52,99,60,12,-13
14620,233,-53,100,60,12,-11
14625,229,-50,101,59,12,-12
14630,231,-51,100,59,13,-10
14635,232,-52,96,57,15,-11
14640,235,-53,101,57,15,-11
14645,231,-54,101,57,15,-10
14650,233,-54,104,54,17,-10
14655,234,-53,100,54,17,-10
14660,233,-54,105,52,18,-12
14665,226,-55,101,49,17,-12
14670,231,-49,102,52,15,-11
14675,233,-54,102,52,14,-12
14680,234,-50,99,53,14,-13
14685,233,-52,102,55,12,-13
14690,233,-51,102,58,13,-15
14695,230,-52,100,58,12,-14
14700,233,-56,98,59,13,-13
14705,231,-53,99,60,12,-12
14710,230,-54,92,61,12,-13
14715,239,-59,94,61,12,-13
14720,235,-53,96,60,13,-11
14725,235,-52,100,60,12,-11
14730,233,-54,98,61,12,-11
14735,233,-50,99,61,13,-12
14740,231,-49,100,60,13,-12
14745,231,-51,98,61,14,-9
14750,230,-49,96,59,13,-8
14755,235,-52,99,57,14,-11
14760,230,-49,106,57,12,-11
14765,228,-49,105,56,12,-10
14770,236,-56,102,56,13,-10
14775,232,-52,99,56,13,-9
14780,233,-53,97,57,14,-10
14785,236,-52,101,58,13,-11
14790,232,-54,102,59,11,-10
14795,233,-51,102,57,11,-10
14800,234,-54,100,56,11,-8
14805,231,-51,101,55,12,-8
14810,232,-51,100,53,13,-8
14815,233,-52,101,52,12,-11
14820,231,-53,99,52,12,-10
14825,227,-54,96,54,13,-10
14830,232,-54,101,53,13,-11
14835,231,-50,101,54,14,-11
14840,232,-50,101,54,13,-10
14845,232,-52,101,56,13,-10
14850,234,-54,97,56,12,-12
14855,233,-51,101,58,11,-14
14860,231,-50,100,57,12,-12
14865,229,-50,104,57,11,-12
14870,232,-53,94,56,11,-14
14875,230,-52,101,56,10,-13
14880,225,-52,102,56,9,-11
14885,233,-52,99,55,8,-11
14890,234,-52,99,54,10,-10
14895,230,-54,101,54,9,-9
14900,232,-50,99,54,10,-10
14905,232,-50,99,54,10,-11
14910,233,-52,100,55,10,-11
14915,234,-49,103,57,9,-10
14920,230,-50,100,57,12,-10
14925,230,-51,99,58,12,-10
14930,233,-53,97,57,13,-10
14935,238,-46,99,56,13,-11
14940,233,-51,100,57,14,-13
14945,231,-50,101,55,13,-11
14950,233,-51,97,56,14,-13
14955,230,-50,100,56,14,-12
14960,233,-51,98,57,14,-11
14965,231,-52,99,56,15,-11
14970,230,-51,101,54,14,-10
14975,234,-52,102,53,15,-8
14980,232,-53,102,53,17,-7
14985,230,-49,101,52,17,-8
14990,234,-51,106,51,17,-9
14995,233,-54,102,49,17,-8
