timestamp,acc_x,acc_y,acc_z,gyro_x,gyro_y,gyro_z
0,-16,-252,40,-54,72,-6
5,-17,-253,40,-58,74,-6
10,-14,-254,37,-62,74,-6
15,-18,-250,35,-64,73,-5
20,-19,-252,38,-65,74,-4
25,-13,-250,41,-61,73,-3
30,-16,-248,34,-55,72,-3
35,-13,-251,33,-50,72,-3
40,-15,-248,34,-44,72,-3
45,-13,-251,35,-41,73,-6
50,-16,-250,37,-41,72,-8
55,-19,-249,35,-42,72,-9
60,-19,-252,38,-45,72,-9
65,-17,-252,37,-45,73,-10
70,-16,-252,40,-50,74,-10
75,-18,-253,38,-57,77,-12
80,-18,-251,39,-62,76,-10
85,-18,-249,35,-66,77,-9
90,-13,-251,32,-72,78,-9
95,-17,-253,37,-81,82,-9
100,-18,-251,32,-85,80,-8
105,-19,-254,36,-80,78,-9
110,-15,-254,37,-70,76,-9
115,-15,-255,35,-58,73,-7
120,-18,-251,31,-49,72,-8
125,-16,-252,31,-48,73,-8
130,-14,-248,34,-52,71,-7
135,-13,-250,33,-59,70,-8
140,-13,-250,35,-69,71,-6
145,-17,-251,33,-76,72,-5
150,-14,-253,36,-83,73,-5
155,-16,-249,30,-84,73,-6
160,-16,-251,34,-85,72,-7
165,-17,-252,30,-88,75,-10
170,-17,-252,35,-90,74,-10
175,-14,-255,36,-90,74,-9
180,-16,-254,35,-82,71,-8
185,-16,-252,31,-69,69,-6
190,-16,-252,31,-59,69,-5
195,-15,-251,30,-55,69,-2
200,-19,-251,31,-53,70,0
205,-16,-249,31,-54,70,1
210,-17,-253,35,-53,71,1
215,-14,-251,34,-51,70,1
220,-14,-255,32,-50,72,0
225,-16,-252,32,-50,70,2
230,-15,-255,34,-45,69,3
235,-16,-256,32,-40,65,2
240,-19,-249,37,-38,63,2
245,-16,-254,34,-35,62,2
250,-15,-253,34,-39,63,2
255,-18,-252,32,-43,65,1
260,-15,-250,37,-45,67,2
265,-17,-253,35,-46,67,2
270,-15,-253,34,-44,68,1
275,-15,-252,36,-41,69,1
280,-18,-251,37,-38,70,1
285,-17,-253,32,-34,69,1
290,-14,-253,34,-32,70,-1
295,-16,-246,32,-29,69,-2
300,-16,-252,34,-26,70,-2
305,-14,-251,35,-25,70,-3
310,-15,-255,33,-23,69,-4
315,-15,-255,35,-23,70,-5
320,-17,-254,34,-25,72,-3
325,-17,-253,32,-27,73,-1
330,-19,-250,34,-29,74,-1
335,-17,-251,34,-30,73,1
340,-19,-253,35,-31,72,1
345,-17,-250,35,-32,73,2
350,-16,-253,32,-33,71,2
355,-16,-253,33,-32,70,1
360,-16,-253,33,-29,69,3
365,-15,-252,32,-28,66,3
370,-17,-251,34,-28,68,3
375,-15,-250,34,-29,68,1
380,-16,-250,34,-35,70,1
385,-17,-250,31,-39,70,1
390,-14,-252,33,-41,70,1
395,-12,-252,33,-43,71,2
400,-15,-250,33,-44,71,0
405,-19,-252,32,-45,73,1
410,-15,-251,33,-45,72,-1
415,-16,-251,34,-44,69,1
420,-17,-252,31,-43,70,-1
425,-14,-252,31,-43,73,-3
430,-16,-252,34,-44,75,-3
435,-18,-253,32,-44,75,-3
440,-18,-253,33,-46,74,-3
445,-20,-251,32,-43,73,-1
450,-17,-251,34,-43,72,-1
455,-19,-252,31,-43,72,-1
460,-16,-251,34,-42,72,0
465,-18,-252,33,-43,73,0
470,-18,-250,33,-43,74,0
475,-19,-251,33,-44,74,-2
480,-16,-252,35,-46,74,-2
485,-18,-254,32,-45,75,-3
490,-19,-255,35,-42,74,-3
495,-18,-251,34,-43,74,-2
500,-15,-251,32,-43,74,-2
505,-15,-254,29,-44,76,-3
510,-16,-253,31,-43,75,-1
515,-14,-255,32,-45,77,-1
520,-15,-254,31,-44,76,1
525,-17,-253,33,-42,74,2
530,-18,-252,31,-40,74,3
535,-16,-251,29,-39,74,5
540,-16,-252,33,-38,74,6
545,-16,-250,32,-37,75,6
550,-16,-252,35,-36,76,5
555,-13,-251,32,-36,74,7
560,-17,-251,28,-37,74,6
565,-19,-252,26,-39,75,4
570,-18,-253,28,-42,76,3
575,-16,-254,26,-45,76,3
580,-15,-254,31,-45,75,3
585,-18,-253,33,-46,75,2
590,-16,-254,29,-46,74,1
595,-14,-255,28,-46,72,1
600,-18,-251,29,-47,71,0
605,-19,-250,27,-50,72,1
610,-14,-252,29,-51,71,1
615,-16,-252,29,-53,71,0
620,-23,-254,27,-52,69,1
625,-18,-254,24,-49,68,-1
630,-20,-254,32,-44,66,-3
635,-16,-254,27,-38,67,-5
640,-18,-253,27,-32,67,-4
645,-15,-253,29,-28,67,-5
650,-16,-254,31,-25,67,-4
655,-16,-254,28,-21,71,-2
660,-13,-252,31,-18,71,1
665,-14,-253,28,-16,73,2
670,-19,-255,28,-16,73,2
675,-17,-252,31,-14,74,4
680,-17,-254,31,-13,74,3
685,-18,-253,29,-14,74,3
690,-15,-251,31,-18,73,4
695,-18,-254,28,-27,73,2
700,-18,-252,33,-37,71,3
705,-17,-253,29,-43,71,2
710,-16,-252,29,-47,71,3
715,-18,-253,27,-47,69,3
720,-19,-249,31,-44,67,2
725,-17,-250,28,-39,66,1
730,-15,-252,27,-33,66,0
735,-13,-252,30,-29,66,0
740,-17,-250,27,-27,67,0
745,-18,-252,29,-26,68,-2
750,-15,-253,30,-26,71,-2
755,-17,-255,29,-26,71,0
760,-15,-253,31,-27,72,0
765,-15,-254,31,-26,73,1
770,-18,-254,30,-22,74,2
775,-17,-255,29,-21,73,2
780,-17,-251,30,-18,74,2
785,-16,-252,31,-17,74,5
790,-15,-254,32,-17,74,5
795,-14,-252,25,-15,74,7
800,-16,-252,29,-14,74,5
805,-18,-250,27,-13,73,4
810,-16,-250,31,-11,72,5
815,-18,-252,29,-10,72,5
820,-15,-248,25,-8,72,4
825,-19,-252,30,-6,71,6
830,-16,-249,28,-6,72,6
835,-9,-255,29,-6,72,5
840,-16,-252,31,-6,71,6
845,-16,-251,31,-7,72,5
850,-20,-251,30,-8,73,7
855,-16,-255,27,-11,75,9
860,-18,-252,31,-11,73,10
865,-15,-253,27,-13,75,7
870,-17,-253,33,-14,74,7
875,-13,-254,33,-15,74,7
880,-15,-255,30,-17,74,5
885,-16,-252,31,-17,75,6
890,-19,-252,31,-18,73,7
895,-17,-251,35,-20,74,8
900,-16,-252,31,-21,74,8
905,-17,-253,29,-21,74,7
910,-17,-253,27,-19,72,8
915,-18,-252,31,-17,74,9
920,-17,-255,31,-16,72,8
925,-21,-252,31,-16,71,8
930,-18,-253,29,-15,72,7
935,-19,-253,29,-17,72,8
940,-18,-252,29,-18,72,7
945,-17,-254,26,-19,72,5
950,-18,-252,25,-19,71,6
955,-20,-252,29,-20,73,6
960,-19,-251,28,-19,73,7
965,-16,-254,32,-20,75,8
970,-19,-253,30,-20,75,9
975,-16,-252,31,-22,77,7
980,-18,-251,31,-21,77,8
985,-20,-251,27,-20,77,6
990,-21,-249,28,-20,79,7
995,-19,-251,28,-18,78,6
1000,-18,-253,29,-18,78,5
1005,-19,-252,28,-19,78,6
1010,-17,-255,25,-20,79,5
1015,-20,-255,29,-22,79,6
1020,-20,-253,26,-23,78,7
1025,-17,-256,28,-23,78,7
1030,-20,-255,30,-24,76,7
1035,-17,-252,31,-22,76,5
1040,-16,-253,32,-20,75,6
1045,-16,-255,30,-18,74,6
1050,-16,-252,27,-16,74,5
1055,-20,-252,27,-14,73,4
1060,-16,-252,32,-12,72,5
1065,-17,-256,28,-11,73,5
1070,-19,-254,29,-10,74,6
1075,-17,-255,30,-10,75,4
1080,-17,-253,29,-10,73,6
1085,-15,-254,29,-9,72,5
1090,-15,-251,31,-9,72,5
1095,-18,-254,29,-9,70,5
1100,-16,-253,31,-9,71,5
1105,-18,-252,30,-9,71,4
1110,-19,-255,29,-11,69,6
1115,-18,-253,27,-9,68,5
1120,-16,-252,30,-9,68,3
1125,-16,-254,31,-9,69,4
1130,-19,-254,30,-9,68,3
1135,-19,-252,30,-9,68,3
1140,-17,-252,30,-8,69,5
1145,-20,-253,29,-8,68,5
1150,-20,-252,28,-8,67,3
1155,-17,-254,27,-8,67,3
1160,-18,-253,29,-8,68,3
1165,-20,-250,29,-7,68,3
1170,-19,-254,32,-7,67,4
1175,-19,-256,29,-7,69,3
1180,-18,-252,31,-7,68,3
1185,-18,-252,30,-8,69,5
1190,-19,-256,32,-10,69,6
1195,-21,-251,27,-10,71,7
1200,-19,-251,29,-11,71,7
1205,-15,-252,30,-14,72,5
1210,-18,-252,28,-17,72,5
1215,-17,-252,30,-18,73,4
1220,-17,-252,25,-19,72,3
1225,-20,-252,28,-16,71,3
1230,-17,-252,25,-13,70,2
1235,-15,-251,31,-9,68,2
1240,-18,-254,31,-6,69,4
1245,-17,-253,31,-5,70,4
1250,-20,-251,28,-6,71,5
1255,-18,-253,29,-10,72,6
1260,-21,-252,29,-16,73,4
1265,-19,-250,27,-21,72,3
1270,-18,-251,28,-23,72,1
1275,-26,-256,30,-21,72,1
1280,-21,-254,31,-20,71,-1
1285,-18,-253,31,-17,72,-2
1290,-16,-251,31,-15,72,-3
1295,-17,-256,29,-12,72,-3
1300,-17,-253,28,-9,72,-2
1305,-19,-253,30,-6,72,-1
1310,-16,-253,31,-1,73,-1
1315,-18,-254,27,4,73,0
1320,-13,-255,30,9,73,2
1325,-21,-252,27,11,73,0
1330,-19,-252,29,9,73,-1
1335,-19,-253,30,6,73,0
1340,-16,-256,28,2,73,-1
1345,-20,-253,32,-4,74,-2
1350,-19,-253,32,-9,74,-2
1355,-19,-253,29,-15,74,0
1360,-16,-252,29,-16,75,2
1365,-18,-253,32,-17,74,0
1370,-18,-252,30,-15,76,1
1375,-19,-250,26,-13,75,0
1380,-19,-252,30,-14,74,-2
1385,-16,-254,28,-13,74,-2
1390,-18,-252,30,-10,72,-3
1395,-17,-250,26,-9,71,-5
1400,-16,-253,28,-7,72,-7
1405,-20,-254,32,-5,73,-5
1410,-18,-254,31,-3,73,-4
1415,-19,-251,30,-2,73,-5
1420,-20,-254,31,-2,73,-3
1425,-19,-251,29,-1,72,-3
1430,-18,-254,29,-3,72,-2
1435,-17,-254,28,-4,73,0
1440,-19,-254,27,-7,72,2
1445,-17,-253,32,-6,72,2
1450,-22,-252,27,-4,71,3
1455,-17,-255,27,-6,71,4
1460,-18,-254,29,-6,69,4
1465,-16,-252,30,-7,71,4
1470,-18,-251,28,-7,71,4
1475,-18,-249,30,-9,72,4
1480,-19,-251,29,-10,72,4
1485,-17,-251,26,-10,72,4
1490,-17,-252,27,-12,74,4
1495,-18,-251,35,-12,73,4
1500,-20,-253,31,-12,72,3
1505,-20,-254,29,-12,72,3
1510,-17,-256,30,-12,73,2
1515,-20,-252,31,-12,71,2
1520,-19,-257,28,-14,70,-1
1525,-22,-256,28,-15,72,-3
1530,-16,-252,27,-14,72,-3
1535,-19,-254,31,-14,73,-3
1540,-22,-252,28,-13,71,-3
1545,-19,-252,29,-14,72,-4
1550,-16,-252,29,-14,72,-3
1555,-21,-252,31,-13,71,-3
1560,-19,-255,31,-11,71,-2
1565,-16,-255,32,-8,68,-1
1570,-17,-253,38,-4,65,-4
1575,-19,-256,33,1,64,-4
1580,-18,-254,31,3,63,-4
1585,-19,-251,29,6,65,-3
1590,-22,-254,31,9,64,-6
1595,-17,-254,30,9,62,-5
1600,-21,-257,31,9,62,-6
1605,-18,-253,28,7,63,-5
1610,-18,-254,30,5,63,-6
1615,-19,-253,29,3,63,-6
1620,-17,-251,34,2,65,-5
1625,-18,-250,28,1,65,-5
1630,-19,-250,29,0,68,-5
1635,-17,-253,29,0,68,-4
1640,-15,-253,32,1,68,-4
1645,-20,-251,31,2,69,-5
1650,-18,-250,31,2,68,-8
1655,-18,-251,33,5,70,-6
1660,-16,-253,33,4,69,-6
1665,-19,-256,30,5,69,-4
1670,-19,-255,31,4,70,-5
1675,-19,-253,33,4,71,-3
1680,-16,-254,33,5,71,-3
1685,-19,-252,32,5,71,-3
1690,-20,-251,32,5,71,-3
1695,-19,-251,31,4,71,-2
1700,-18,-252,33,4,70,-2
1705,-20,-253,35,3,69,-1
1710,-16,-253,33,5,68,-1
1715,-17,-254,34,5,70,0
1720,-18,-253,29,5,70,-1
1725,-18,-253,31,3,70,0
1730,-20,-253,33,1,71,0
1735,-16,-253,29,-1,73,1
1740,-20,-252,30,-2,72,0
1745,-17,-251,29,-5,71,0
1750,-21,-250,34,-5,71,-1
1755,-18,-251,30,-5,72,0
1760,-19,-250,33,-5,72,0
1765,-16,-254,28,-4,74,-2
1770,-20,-253,29,-4,72,-1
1775,-18,-254,31,-2,72,-1
1780,-19,-251,28,-1,72,-1
1785,-19,-256,30,0,73,-2
1790,-19,-251,31,-1,73,-1
1795,-20,-252,31,-3,73,-1
1800,-21,-252,30,-4,73,-3
1805,-20,-253,30,-5,73,-2
1810,-16,-253,30,-8,72,-2
1815,-19,-252,30,-9,69,-4
1820,-14,-256,31,-8,68,-3
1825,-18,-254,29,-6,66,-4
1830,-16,-254,31,0,66,-1
1835,-19,-252,28,1,67,-2
1840,-18,-253,31,0,68,-2
1845,-19,-251,27,0,67,-3
1850,-20,-251,32,0,68,-4
1855,-16,-254,24,-1,68,-6
1860,-18,-250,32,0,68,-5
1865,-21,-251,30,-3,69,-4
1870,-18,-253,32,-3,67,-4
1875,-19,-252,31,-4,67,-4
1880,-18,-253,28,-7,67,-4
1885,-17,-253,30,-6,65,-5
1890,-16,-253,29,-6,66,-4
1895,-18,-250,30,-7,66,-4
1900,-18,-252,35,-8,66,-2
1905,-18,-252,31,-7,64,-2
1910,-19,-251,31,-6,65,-2
1915,-21,-252,30,-4,66,-2
1920,-18,-256,32,-1,63,-3
1925,-21,-253,31,5,63,-2
1930,-22,-249,33,5,67,-2
1935,-16,-252,33,3,68,-2
1940,-19,-254,32,2,69,-3
1945,-19,-252,28,3,68,-4
1950,-18,-254,29,3,68,-4
1955,-20,-252,32,5,68,-3
1960,-18,-254,31,7,68,-3
1965,-20,-252,36,8,67,-2
1970,-19,-251,31,9,68,-2
1975,-18,-251,34,5,67,-2
1980,-19,-251,34,0,69,-2
1985,-20,-251,33,-5,68,-3
1990,-20,-252,33,-6,66,-4
1995,-18,-253,34,-6,64,-3
2000,-18,-253,35,-1,63,-5
2005,-18,-254,35,5,60,-7
2010,-17,-249,31,8,60,-8
2015,-16,-251,32,8,63,-8
2020,-18,-252,34,9,63,-10
2025,-21,-251,34,11,65,-8
2030,-20,-255,33,13,66,-10
2035,-21,-256,38,17,67,-9
2040,-17,-254,36,18,69,-9
2045,-18,-255,34,18,71,-8
2050,-19,-254,31,16,73,-8
2055,-17,-254,31,14,73,-7
2060,-20,-252,34,12,74,-8
2065,-17,-254,32,12,73,-6
2070,-21,-252,33,13,72,-3
2075,-18,-254,34,15,72,-4
2080,-18,-252,32,19,72,-4
2085,-18,-249,29,20,74,-4
2090,-18,-253,33,23,72,-4
2095,-20,-252,33,29,70,-6
2100,-19,-252,31,35,70,-7
2105,-17,-250,33,35,69,-8
2110,-20,-251,30,35,70,-9
2115,-20,-250,32,33,71,-10
2120,-20,-250,32,30,69,-11
2125,-17,-251,32,29,69,-8
2130,-19,-249,35,27,69,-8
2135,-16,-252,34,25,70,-6
2140,-16,-253,35,23,68,-5
2145,-12,-252,32,24,67,-4
2150,-18,-252,33,26,65,-4
2155,-19,-254,35,28,67,-3
2160,-19,-249,30,30,65,-2
2165,-19,-249,34,30,66,0
2170,-18,-252,34,26,68,0
2175,-16,-253,32,22,66,0
2180,-19,-252,31,18,67,-2
2185,-17,-251,32,13,67,-3
2190,-15,-250,34,8,66,-3
2195,-19,-253,30,7,66,-5
2200,-17,-254,33,6,66,-6
2205,-19,-251,30,7,66,-6
2210,-19,-251,33,9,65,-5
2215,-18,-254,32,8,65,-7
2220,-19,-253,29,9,66,-6
2225,-20,-252,35,9,67,-6
2230,-16,-253,30,7,68,-5
2235,-20,-252,35,6,68,-5
2240,-17,-253,36,4,67,-5
2245,-19,-251,35,2,68,-6
2250,-16,-254,32,-2,68,-4
2255,-16,-253,34,-2,68,-4
2260,-21,-251,34,-4,69,-1
2265,-16,-254,31,-2,68,-2
2270,-21,-251,34,0,67,-2
2275,-19,-252,33,1,67,0
2280,-18,-252,36,3,65,-1
2285,-17,-253,35,5,63,-2
2290,-17,-254,34,7,61,-2
2295,-19,-252,32,10,60,-2
2300,-20,-254,34,11,60,-2
2305,-17,-255,32,13,60,-1
2310,-18,-254,32,11,60,-1
2315,-17,-252,33,9,60,-1
2320,-15,-255,34,6,60,-1
2325,-17,-253,34,4,62,0
2330,-18,-253,32,2,63,-1
2335,-18,-252,35,4,64,-1
2340,-19,-249,32,6,67,-2
2345,-19,-252,35,8,67,-2
2350,-19,-252,31,11,68,-4
2355,-15,-254,30,12,69,-3
2360,-18,-249,34,13,70,-4
2365,-19,-253,29,14,70,-5
2370,-17,-252,35,14,69,-4
2375,-19,-251,37,12,71,-3
2380,-19,-251,39,12,70,-3
2385,-19,-252,33,11,71,-4
2390,-18,-254,33,9,71,-3
2395,-16,-255,36,7,71,-2
2400,-19,-251,38,8,71,-3
2405,-18,-253,36,7,71,-2
2410,-19,-253,38,8,69,-2
2415,-19,-251,36,10,68,-2
2420,-19,-252,35,10,67,-1
2425,-17,-250,34,9,68,-1
2430,-17,-253,33,7,68,1
2435,-20,-251,37,7,69,2
2440,-18,-251,38,6,70,1
2445,-19,-251,39,5,71,0
2450,-19,-253,38,4,72,0
2455,-17,-252,34,4,73,0
2460,-17,-251,38,3,71,0
2465,-17,-252,38,4,72,0
2470,-18,-253,36,6,72,1
2475,-22,-252,35,8,72,1
2480,-20,-253,36,11,71,1
2485,-17,-251,36,14,71,0
2490,-17,-252,35,13,73,0
2495,-21,-250,36,10,73,-1
2500,-16,-253,34,7,74,0
2505,-17,-254,36,4,73,0
2510,-21,-251,35,2,73,0
2515,-20,-250,35,0,72,0
2520,-18,-251,34,0,70,1
2525,-21,-252,38,0,68,0
2530,-19,-251,35,-1,68,0
2535,-18,-254,33,0,67,-1
2540,-17,-251,34,-2,66,1
2545,-15,-251,35,-3,64,0
2550,-19,-254,34,-4,64,1
2555,-19,-249,33,-5,65,1
2560,-21,-250,37,-11,68,1
2565,-17,-253,36,-16,67,2
2570,-17,-254,38,-19,69,1
2575,-17,-254,33,-20,68,0
2580,-14,-255,44,-20,67,1
2585,-17,-252,34,-19,68,0
2590,-17,-250,36,-18,66,2
2595,-16,-253,35,-20,67,0
2600,-19,-254,32,-19,68,-1
2605,-18,-253,37,-21,68,0
2610,-19,-250,36,-24,66,-2
2615,-21,-250,32,-24,66,-2
2620,-19,-249,37,-26,66,-3
2625,-16,-252,39,-25,68,-3
2630,-18,-251,37,-25,68,-3
2635,-20,-252,38,-24,67,-3
2640,-16,-252,37,-25,67,-3
2645,-19,-254,35,-23,68,-3
2650,-16,-253,38,-25,67,-4
2655,-21,-249,34,-24,67,-4
2660,-16,-254,34,-26,69,-2
2665,-18,-255,34,-27,69,-2
2670,-18,-253,32,-28,69,-1
2675,-17,-251,36,-30,70,-1
2680,-17,-251,37,-31,69,0
2685,-18,-251,33,-31,70,0
2690,-14,-255,41,-33,71,0
2695,-16,-252,36,-33,71,0
2700,-14,-253,37,-35,72,1
2705,-20,-253,34,-37,73,2
2710,-16,-251,35,-40,74,1
2715,-17,-250,34,-45,76,1
2720,-18,-251,34,-50,75,0
2725,-17,-250,35,-54,74,0
2730,-15,-253,35,-61,73,-2
2735,-17,-251,39,-65,72,-2
2740,-17,-252,35,-67,72,-2
2745,-18,-252,30,-70,71,-1
2750,-19,-251,33,-73,72,0
2755,-17,-256,36,-75,71,2
2760,-20,-250,36,-78,71,4
2765,-21,-250,37,-82,72,4
2770,-19,-252,37,-86,72,5
2775,-19,-251,36,-90,72,4
2780,-19,-249,37,-94,70,4
2785,-19,-249,34,-96,71,2
2790,-20,-249,34,-95,68,0
2795,-18,-250,33,-95,67,1
2800,-18,-252,33,-95,68,2
2805,-20,-251,32,-99,70,2
2810,-18,-253,35,-103,70,3
2815,-18,-251,32,-107,73,1
2820,-18,-252,36,-107,73,2
2825,-17,-259,34,-97,68,3
2830,-20,-252,33,-85,68,4
2835,-17,-257,33,-77,68,5
2840,-15,-254,33,-72,68,6
2845,-21,-256,34,-75,68,7
2850,-17,-251,37,-83,70,7
2855,-18,-253,34,-97,72,6
2860,-18,-252,35,-107,68,6
2865,-18,-251,34,-109,64,7
2870,-18,-251,29,-99,63,7
2875,-21,-251,28,-89,65,5
2880,-19,-252,31,-85,66,6
2885,-23,-248,31,-75,64,6
2890,-17,-251,33,-67,63,4
2895,-22,-249,29,-64,62,4
2900,-19,-253,30,-65,61,3
2905,-21,-251,34,-67,61,0
2910,-20,-256,29,-68,60,-2
2915,-18,-257,30,-65,56,0
2920,-17,-249,27,-65,54,1
2925,-16,-255,26,-67,57,0
2930,-19,-252,29,-72,57,1
2935,-20,-254,29,-75,55,1
2940,-16,-255,27,-74,52,1
2945,-16,-255,30,-69,52,1
2950,-22,-252,28,-66,55,2
2955,-19,-251,27,-63,56,3
2960,-19,-250,28,-62,55,2
2965,-19,-253,30,-62,57,1
2970,-17,-251,27,-62,61,1
2975,-18,-253,28,-62,63,1
2980,-21,-249,30,-60,64,0
2985,-17,-253,27,-60,65,-1
2990,-20,-251,27,-59,66,0
2995,-16,-253,27,-57,68,-1
3000,-18,-251,25,-58,68,0
3005,-21,-252,31,-59,68,0
3010,-15,-254,29,-59,67,1
3015,-17,-252,28,-57,67,1
3020,-20,-253,30,-56,68,1
3025,-20,-250,30,-53,70,1
3030,-15,-254,28,-52,72,2
3035,-21,-253,29,-53,72,1
3040,-17,-252,27,-55,72,2
3045,-20,-251,26,-55,73,2
3050,-20,-252,31,-56,76,3
3055,-18,-253,27,-57,77,4
3060,-18,-252,31,-59,77,4
3065,-19,-253,27,-59,76,7
3070,-18,-253,30,-57,75,8
3075,-33,-242,18,-54,74,9
3080,-21,-247,32,-49,72,8
3085,-26,-263,31,-44,71,8
3090,-25,-252,27,-40,69,8
3095,-15,-253,35,-38,67,8
3100,-19,-257,30,-38,66,6
3105,-23,-255,40,-39,67,6
3110,-19,-254,23,-41,70,7
3115,-17,-247,34,-43,69,5
3120,-22,-252,32,-46,71,5
3125,-9,-249,32,-49,71,5
3130,-19,-249,31,-51,71,4
3135,-19,-250,32,-53,73,3
3140,-20,-252,29,-52,72,1
3145,-19,-252,27,-50,70,1
3150,-20,-252,21,-47,70,1
3155,-12,-249,34,-44,70,0
3160,-13,-254,35,-41,68,-1
3165,-21,-254,34,-41,66,0
3170,-21,-250,27,-39,65,0
3175,-15,-252,26,-40,66,0
3180,-10,-249,32,-41,67,1
3185,-23,-244,34,-46,65,0
3190,-27,-258,22,-49,65,1
3195,-22,-253,25,-51,64,0
3200,-24,-257,25,-51,63,-2
3205,-16,-257,29,-51,60,-2
3210,-19,-259,27,-48,61,0
3215,-18,-252,25,-46,62,-1
3220,-18,-253,24,-44,64,1
3225,-13,-257,31,-41,63,2
3230,-21,-253,18,-41,61,1
3235,-20,-250,23,-40,61,-1
3240,-18,-251,21,-43,62,-1
3245,-22,-254,22,-45,65,-3
3250,-15,-247,22,-48,65,-5
3255,-26,-253,24,-45,64,-3
3260,-17,-253,27,-41,65,-2
3265,-18,-256,31,-36,66,-1
3270,-9,-252,25,-31,66,3
3275,-22,-258,18,-31,65,4
3280,-17,-257,27,-32,65,4
3285,-19,-253,22,-33,64,4
3290,-20,-254,27,-35,63,2
3295,-19,-252,26,-36,64,1
3300,-14,-255,25,-37,65,1
3305,-18,-256,29,-37,66,0
3310,-17,-256,22,-34,66,2
3315,-13,-251,29,-28,70,5
3320,-15,-248,19,-28,70,6
3325,-13,-246,14,-29,72,6
3330,-12,-248,25,-30,74,6
3335,-20,-256,19,-34,72,5
3340,-16,-251,25,-36,73,5
3345,-19,-257,24,-38,74,5
3350,-27,-242,23,-37,73,6
3355,-16,-248,28,-40,73,6
3360,-19,-253,23,-43,71,6
3365,-17,-252,26,-42,71,7
3370,-17,-254,25,-43,71,5
3375,-19,-254,25,-44,70,5
3380,-18,-250,28,-44,70,3
3385,-23,-260,23,-43,69,3
3390,-17,-256,27,-41,68,2
3395,-21,-249,31,-42,68,0
3400,-16,-253,34,-40,68,1
3405,-15,-255,34,-40,69,1
3410,-26,-255,26,-39,71,1
3415,-17,-252,28,-36,72,3
3420,-24,-253,28,-36,73,3
3425,-22,-254,27,-38,73,3
3430,-22,-251,27,-40,74,3
3435,-18,-248,29,-40,73,4
3440,-18,-252,25,-41,73,3
3445,-20,-253,27,-41,74,3
3450,-20,-251,26,-39,74,3
3455,-17,-255,21,-38,73,4
3460,-23,-251,22,-38,73,4
3465,-22,-258,15,-40,73,2
3470,-23,-261,21,-41,71,1
3475,-29,-249,18,-42,71,2
3480,-25,-258,26,-45,70,0
3485,-20,-250,19,-45,70,1
3490,-21,-258,23,-44,69,0
3495,-26,-260,23,-42,67,0
3500,-27,-261,24,-40,67,0
3505,-22,-259,20,-40,68,0
3510,-23,-254,15,-41,69,1
3515,-21,-252,27,-43,69,1
3520,-19,-252,22,-47,70,-1
3525,-20,-252,26,-47,72,-3
3530,-20,-254,21,-44,72,-4
3535,-27,-252,24,-42,72,-4
3540,-19,-249,20,-39,71,-4
3545,-22,-254,32,-36,72,-6
3550,-16,-248,21,-35,74,-6
3555,-12,-252,24,-33,75,-4
3560,-17,-254,24,-31,76,-4
3565,-19,-251,19,-30,77,-2
3570,-19,-253,22,-28,78,0
3575,-21,-252,24,-27,78,2
3580,-20,-258,15,-28,77,2
3585,-19,-255,22,-28,78,2
3590,-19,-250,26,-33,77,3
3595,-20,-253,24,-37,77,5
3600,-19,-254,22,-42,77,3
3605,-21,-249,26,-48,75,3
3610,-17,-258,26,-52,74,4
3615,-20,-255,26,-55,73,4
3620,-19,-255,25,-57,72,3
3625,-24,-255,14,-56,72,2
3630,-19,-250,22,-54,70,1
3635,-20,-254,24,-52,70,1
3640,-19,-255,25,-53,71,-1
3645,-19,-253,25,-50,71,-2
3650,-28,-255,28,-48,72,0
3655,-23,-257,25,-48,73,-1
3660,-20,-257,25,-47,74,0
3665,-17,-255,22,-47,73,2
3670,-16,-256,24,-45,75,2
3675,-18,-270,27,-47,74,3
3680,-20,-254,19,-47,75,4
3685,-18,-253,19,-46,74,6
3690,-22,-249,23,-46,75,6
3695,-20,-253,23,-47,76,7
3700,-17,-250,22,-47,77,7
3705,-19,-251,23,-46,75,8
3710,-22,-251,21,-47,75,9
3715,-18,-252,20,-48,74,9
3720,-20,-250,21,-47,74,9
3725,-19,-250,21,-46,74,9
3730,-23,-253,20,-47,74,9
3735,-20,-249,24,-49,75,9
3740,-21,-250,23,-49,74,10
3745,-21,-253,23,-50,74,11
3750,-20,-255,24,-51,73,10
3755,-23,-251,21,-52,75,9
3760,-21,-254,24,-54,76,10
3765,-19,-253,25,-53,75,11
3770,-20,-257,21,-53,76,12
3775,-21,-258,18,-51,76,13
3780,-18,-256,23,-51,76,13
3785,-20,-258,18,-51,76,11
3790,-19,-256,23,-51,77,11
3795,-20,-258,22,-51,77,9
3800,-20,-256,21,-53,76,10
3805,-20,-252,22,-56,76,9
3810,-20,-255,17,-58,77,9
3815,-21,-253,21,-61,78,12
3820,-17,-252,23,-63,79,12
3825,-18,-251,23,-64,77,13
3830,-22,-252,22,-63,78,14
3835,-17,-254,22,-62,77,14
3840,-18,-254,18,-62,76,14
3845,-19,-253,22,-61,74,14
3850,-20,-254,20,-61,74,14
3855,-19,-255,25,-62,75,14
3860,-20,-252,20,-63,73,13
3865,-20,-251,17,-66,73,14
3870,-19,-251,19,-71,72,16
3875,-19,-251,22,-77,75,15
3880,-21,-251,19,-82,76,16
3885,-18,-253,22,-86,77,16
3890,-19,-255,20,-87,79,17
3895,-21,-251,21,-90,81,18
3900,-21,-250,20,-92,83,17
3905,-19,-252,21,-93,83,16
3910,-19,-252,20,-93,84,16
3915,-20,-253,19,-95,85,15
3920,-20,-254,20,-94,85,14
3925,-19,-249,18,-96,86,14
3930,-22,-252,22,-98,86,14
3935,-21,-252,21,-100,87,15
3940,-21,-256,22,-103,87,14
3945,-21,-251,15,-105,88,14
3950,-19,-255,18,-105,86,16
3955,-20,-256,21,-108,86,14
3960,-17,-256,20,-110,85,16
3965,-18,-257,19,-109,84,16
3970,-22,-256,20,-110,84,18
3975,-17,-254,19,-108,84,18
3980,-22,-252,19,-109,85,18
3985,-22,-250,23,-110,86,19
3990,-23,-254,25,-110,86,21
3995,-25,-255,21,-112,85,20
4000,-23,-254,22,-114,84,21
4005,-23,-253,20,-117,83,20
4010,-19,-253,17,-115,82,20
4015,-21,-251,20,-116,79,19
4020,-21,-253,16,-116,77,19
4025,-20,-252,18,-114,79,18
4030,-22,-256,18,-115,77,19
4035,-20,-254,16,-116,78,17
4040,-21,-252,18,-117,78,15
4045,-19,-252,15,-118,79,15
4050,-20,-252,17,-119,79,14
4055,-19,-251,18,-121,82,12
4060,-23,-254,13,-124,83,11
4065,-21,-250,14,-127,84,10
4070,-18,-252,17,-130,87,10
4075,-22,-252,16,-133,89,11
4080,-21,-252,17,-136,91,11
4085,-22,-253,16,-138,92,11
4090,-22,-251,16,-142,95,13
4095,-21,-254,15,-144,97,12
4100,-19,-255,16,-148,98,12
4105,-23,-253,15,-150,100,12
4110,-23,-253,15,-152,101,13
4115,-21,-253,13,-155,102,13
4120,-21,-251,14,-156,104,13
4125,-20,-252,14,-156,106,13
4130,-23,-253,11,-157,104,12
4135,-23,-255,16,-158,105,13
4140,-24,-255,12,-158,105,15
4145,-22,-253,8,-160,106,17
4150,-21,-257,13,-161,106,15
4155,-21,-253,5,-163,108,16
4160,-22,-255,9,-166,107,18
4165,-20,-253,10,-169,110,19
4170,-24,-256,7,-172,111,20
4175,-24,-256,8,-175,113,23
4180,-22,-256,7,-177,113,26
4185,-22,-256,6,-178,115,26
4190,-21,-257,8,-181,117,28
4195,-21,-256,8,-182,117,26
4200,-24,-255,7,-182,118,27
4205,-23,-256,8,-181,119,27
4210,-25,-256,8,-178,120,29
4215,-21,-257,6,-177,121,31
4220,-23,-254,6,-172,119,32
4225,-23,-256,6,-166,117,34
4230,-22,-257,5,-161,115,37
4235,-25,-254,12,-155,113,41
4240,-22,-250,4,-152,112,42
4245,-24,-250,5,-152,115,43
4250,-24,-252,8,-153,117,44
4255,-25,-251,8,-156,119,43
4260,-22,-253,5,-159,120,44
4265,-21,-250,4,-161,121,44
4270,-24,-250,2,-162,121,45
4275,-21,-252,2,-164,121,43
4280,-21,-251,5,-166,122,42
4285,-22,-252,5,-170,124,41
4290,-22,-252,3,-174,125,40
4295,-21,-256,2,-177,124,40
4300,-20,-254,5,-179,122,40
4305,-26,-253,6,-179,122,42
4310,-23,-255,6,-181,121,42
4315,-24,-255,9,-179,122,43
4320,-26,-257,7,-178,123,43
4325,-22,-253,5,-179,124,41
4330,-23,-254,1,-183,124,42
4335,-24,-255,4,-188,124,42
4340,-24,-254,3,-194,125,43
4345,-24,-254,3,-200,125,41
4350,-23,-253,3,-204,125,42
4355,-23,-253,3,-209,126,41
4360,-25,-254,-1,-211,126,42
4365,-28,-248,0,-215,125,41
4370,-25,-254,2,-219,127,40
4375,-24,-256,-1,-222,128,39
4380,-25,-251,-1,-225,128,35
4385,-25,-254,-1,-227,129,33
4390,-23,-255,1,-227,130,30
4395,-21,-254,1,-227,133,29
4400,-24,-256,0,-227,135,27
4405,-25,-253,-1,-227,137,27
4410,-25,-255,-3,-227,138,29
4415,-25,-254,-3,-227,138,33
4420,-23,-255,-1,-228,138,36
4425,-26,-251,-2,-228,137,35
4430,-21,-255,-4,-228,137,36
4435,-30,-261,2,-228,138,38
4440,-24,-250,-4,-231,141,38
4445,-25,-253,-4,-234,142,40
4450,-25,-253,-2,-237,140,42
4455,-21,-256,-3,-238,141,42
4460,-23,-255,-4,-236,141,41
4465,-24,-253,-3,-231,145,38
4470,-23,-255,-3,-228,148,36
4475,-24,-254,-4,-226,149,33
4480,-22,-256,-5,-226,149,32
4485,-24,-252,-4,-225,149,30
4490,-24,-249,-9,-225,149,29
4495,-26,-249,-8,-223,150,27
4500,-28,-254,-5,-222,150,28
4505,-27,-251,-7,-220,151,29
4510,-28,-256,-8,-220,150,26
4515,-30,-250,-10,-219,152,23
4520,-31,-254,-5,-219,154,21
4525,-29,-253,-9,-219,151,20
4530,-27,-259,-8,-221,149,17
4535,-28,-256,-5,-218,149,15
4540,-27,-256,-7,-212,146,11
4545,-23,-253,-6,-206,143,10
4550,-29,-258,-10,-204,140,12
4555,-27,-260,-7,-200,139,10
4560,-30,-257,-6,-195,137,8
4565,-31,-256,-8,-188,136,8
4570,-31,-258,-8,-182,135,10
4575,-28,-257,-10,-177,135,9
4580,-26,-257,-8,-174,134,8
4585,-28,-257,-9,-167,132,5
4590,-29,-256,-12,-162,126,6
4595,-28,-256,-11,-156,123,6
4600,-28,-254,-15,-152,115,5
4605,-30,-255,-9,-145,105,4
4610,-30,-252,-10,-142,99,8
4615,-33,-255,-13,-142,93,9
4620,-33,-254,-9,-138,84,9
4625,-30,-254,-9,-132,73,11
4630,-28,-250,-15,-129,68,12
4635,-30,-253,-13,-131,63,11
4640,-28,-252,-13,-135,57,11
4645,-28,-250,-13,-140,53,12
4650,-29,-251,-11,-145,50,13
4655,-27,-249,-15,-154,46,14
4660,-27,-252,-18,-162,45,14
4665,-24,-252,-17,-168,41,14
4670,-27,-250,-17,-170,38,13
4675,-26,-251,-20,-171,37,12
4680,-26,-254,-19,-171,36,12
4685,-26,-252,-19,-169,37,13
4690,-26,-252,-20,-168,35,14
4695,-29,-251,-23,-168,35,14
4700,-27,-255,-15,-168,36,16
4705,-28,-253,-21,-168,35,17
4710,-29,-252,-18,-169,36,20
4715,-28,-253,-20,-170,38,22
4720,-30,-256,-20,-173,37,22
4725,-29,-252,-21,-176,38,23
4730,-29,-254,-22,-180,39,26
4735,-32,-255,-22,-181,39,28
4740,-29,-253,-22,-182,38,30
4745,-32,-254,-21,-183,41,32
4750,-30,-253,-22,-184,40,34
4755,-29,-252,-23,-185,42,36
4760,-27,-261,-18,-185,43,38
4765,-31,-253,-22,-187,45,38
4770,-30,-253,-27,-187,45,40
4775,-32,-254,-23,-186,46,41
4780,-30,-257,-23,-186,48,41
4785,-32,-253,-22,-186,48,41
4790,-32,-254,-23,-185,48,42
4795,-32,-256,-26,-181,47,41
4800,-30,-256,-24,-176,45,40
4805,-33,-253,-26,-174,46,40
4810,-29,-255,-24,-174,46,41
4815,-30,-256,-26,-176,47,40
4820,-32,-255,-22,-180,49,39
4825,-30,-258,-26,-183,51,39
4830,-34,-251,-24,-182,53,39
4835,-29,-252,-28,-183,54,39
4840,-31,-252,-28,-180,54,37
4845,-31,-254,-26,-176,54,36
4850,-27,-252,-28,-176,56,35
4855,-29,-251,-26,-177,57,35
4860,-28,-253,-27,-178,59,33
4865,-28,-252,-27,-179,62,32
4870,-28,-255,-28,-178,62,31
4875,-31,-252,-23,-177,63,28
4880,-26,-253,-27,-177,63,25
4885,-31,-254,-28,-175,62,24
4890,-28,-255,-31,-172,62,23
4895,-28,-254,-27,-172,61,20
4900,-32,-253,-25,-173,59,18
4905,-30,-252,-31,-172,56,17
4910,-32,-254,-30,-167,53,17
4915,-31,-253,-29,-161,54,14
4920,-32,-250,-28,-158,53,12
4925,-32,-253,-30,-163,55,13
4930,-33,-251,-29,-167,55,12
4935,-33,-250,-34,-172,55,11
4940,-32,-251,-31,-174,53,8
4945,-30,-251,-34,-175,50,7
4950,-31,-254,-29,-178,47,6
4955,-36,-251,-30,-180,45,3
4960,-38,-252,-31,-184,42,2
4965,-33,-255,-29,-188,37,-2
4970,-36,-254,-33,-193,34,-3
4975,-36,-258,-38,-197,31,-4
4980,-32,-258,-33,-200,27,-2
4985,-35,-255,-30,-201,23,-2
4990,-35,-259,-30,-199,17,-3
4995,-37,-255,-38,-193,12,-2
5000,-37,-254,-32,-185,6,-2
5005,-35,-253,-34,-182,2,-4
5010,-37,-256,-35,-178,-3,-9
5015,-33,-251,-36,-170,-11,-9
5020,-32,-251,-34,-163,-20,-7
5025,-26,-249,-39,-154,-25,-7
5030,-34,-251,-33,-149,-28,-13
5035,-33,-252,-35,-144,-35,-13
5040,-32,-248,-30,-140,-39,-14
5045,-32,-247,-31,-147,-39,-16
5050,-33,-251,-34,-158,-36,-15
5055,-32,-250,-33,-169,-38,-17
5060,-32,-252,-33,-173,-39,-20
5065,-34,-251,-33,-175,-42,-20
5070,-32,-252,-36,-175,-43,-18
5075,-33,-253,-36,-174,-47,-18
5080,-32,-251,-38,-170,-51,-17
5085,-30,-252,-38,-165,-55,-14
5090,-36,-256,-38,-161,-57,-13
5095,-36,-254,-39,-155,-60,-12
5100,-32,-254,-43,-148,-61,-12
5105,-33,-254,-39,-144,-62,-11
5110,-32,-255,-41,-143,-62,-11
5115,-35,-255,-42,-143,-63,-11
5120,-33,-254,-36,-144,-62,-11
5125,-33,-254,-42,-142,-66,-10
5130,-36,-250,-37,-140,-67,-11
5135,-34,-255,-39,-137,-70,-11
5140,-36,-252,-38,-137,-71,-11
5145,-34,-252,-38,-139,-73,-11
5150,-32,-253,-39,-139,-75,-10
5155,-31,-251,-41,-136,-74,-14
5160,-34,-249,-37,-139,-73,-15
5165,-33,-252,-37,-143,-72,-16
5170,-30,-254,-34,-144,-76,-17
5175,-31,-254,-38,-140,-80,-19
5180,-31,-252,-36,-141,-83,-21
5185,-30,-249,-39,-150,-82,-23
5190,-28,-254,-38,-161,-82,-23
5195,-34,-250,-37,-166,-83,-24
5200,-31,-249,-40,-168,-83,-25
5205,-32,-248,-42,-170,-81,-26
5210,-29,-250,-39,-168,-81,-28
5215,-32,-251,-37,-169,-81,-27
5220,-32,-250,-40,-169,-82,-26
5225,-31,-253,-37,-167,-83,-25
5230,-33,-250,-36,-166,-84,-24
5235,-34,-250,-37,-169,-86,-21
5240,-37,-248,-39,-165,-86,-19
5245,-32,-248,-42,-161,-86,-15
5250,-29,-250,-40,-156,-89,-12
5255,-30,-249,-38,-155,-89,-10
5260,-29,-250,-39,-155,-88,-7
5265,-29,-248,-37,-158,-88,-4
5270,-27,-250,-37,-162,-86,-3
5275,-31,-251,-37,-165,-88,1
5280,-31,-249,-34,-167,-88,3
5285,-29,-249,-40,-169,-88,6
5290,-29,-250,-43,-174,-87,7
5295,-31,-249,-38,-181,-87,7
5300,-29,-251,-38,-189,-87,10
5305,-27,-248,-43,-194,-87,13
5310,-31,-249,-38,-195,-88,14
5315,-30,-251,-39,-198,-87,11
5320,-29,-253,-38,-200,-85,8
5325,-32,-253,-36,-203,-82,7
5330,-30,-252,-40,-205,-79,5
5335,-32,-252,-41,-208,-77,4
5340,-33,-253,-38,-208,-76,3
5345,-35,-255,-40,-210,-78,1
5350,-31,-253,-36,-210,-79,1
5355,-34,-249,-36,-207,-82,2
5360,-37,-250,-39,-205,-86,1
5365,-36,-250,-40,-202,-91,1
5370,-34,-249,-38,-200,-93,0
5375,-35,-248,-39,-200,-94,0
5380,-37,-248,-37,-201,-97,1
5385,-36,-249,-39,-200,-101,1
5390,-33,-248,-39,-203,-102,2
5395,-32,-248,-36,-208,-101,3
5400,-33,-247,-37,-211,-102,5
5405,-33,-248,-36,-214,-103,7
5410,-32,-250,-37,-219,-102,7
5415,-31,-245,-43,-223,-100,7
5420,-29,-248,-40,-228,-99,4
5425,-24,-250,-44,-231,-97,-1
5430,-24,-250,-40,-233,-92,-7
5435,-22,-250,-42,-235,-85,-13
5440,-20,-251,-44,-236,-77,-21
5445,-15,-253,-41,-239,-65,-27
5450,-12,-250,-41,-242,-51,-33
5455,-13,-249,-40,-244,-33,-38
5460,-9,-251,-41,-245,-19,-45
5465,-8,-250,-38,-247,-4,-51
5470,-9,-248,-36,-251,8,-56
5475,-13,-248,-36,-252,18,-55
5480,-18,-247,-38,-253,27,-54
5485,-21,-250,-36,-255,29,-48
5490,-30,-247,-38,-254,28,-40
5495,-39,-245,-37,-251,21,-28
5500,-44,-245,-35,-245,14,-14
5505,-51,-244,-40,-236,0,4
5510,-54,-247,-41,-229,-12,25
5515,-59,-244,-39,-222,-31,47
5520,-56,-241,-37,-218,-51,70
5525,-64,-240,-41,-220,-77,95
5530,-64,-237,-48,-228,-105,114
5535,-61,-240,-50,-243,-134,132
5540,-58,-235,-52,-266,-159,142
5545,-56,-232,-49,-290,-184,148
5550,-50,-231,-43,-313,-206,148
5555,-50,-234,-45,-328,-227,145
5560,-43,-236,-40,-335,-246,137
5565,-43,-235,-40,-339,-262,126
5570,-40,-235,-42,-338,-276,119
5575,-39,-234,-40,-337,-289,112
5580,-36,-233,-40,-339,-296,107
5585,-35,-232,-43,-348,-301,104
5590,-35,-233,-41,-366,-305,103
5595,-33,-231,-41,-387,-304,102
5600,-35,-232,-44,-413,-301,103
5605,-35,-230,-40,-446,-299,107
5610,-41,-230,-43,-476,-303,113
5615,-41,-229,-42,-504,-314,117
5620,-46,-230,-43,-523,-325,122
5625,-48,-235,-41,-535,-340,127
5630,-49,-233,-42,-540,-361,128
5635,-53,-231,-40,-543,-388,125
5640,-54,-233,-38,-546,-414,126
5645,-56,-231,-40,-552,-442,123
5650,-58,-227,-39,-559,-471,124
5655,-61,-224,-43,-569,-499,123
5660,-58,-223,-46,-581,-528,121
5665,-61,-216,-43,-598,-556,122
5670,-59,-215,-47,-621,-578,124
5675,-58,-211,-50,-651,-596,123
5680,-58,-205,-60,-686,-607,126
5685,-51,-204,-62,-728,-609,132
5690,-42,-203,-66,-769,-604,134
5695,-37,-196,-70,-805,-594,129
5700,-31,-200,-72,-836,-580,123
5705,-21,-203,-78,-864,-561,117
5710,-15,-201,-75,-890,-532,107
5715,-7,-208,-79,-920,-499,96
5720,0,-211,-81,-951,-457,83
5725,7,-218,-84,-982,-405,67
5730,15,-225,-85,-1010,-342,47
5735,20,-228,-86,-1040,-270,26
5740,25,-233,-91,-1068,-188,3
5745,24,-234,-90,-1093,-103,-26
5750,31,-240,-93,-1109,-16,-55
5755,27,-241,-92,-1120,80,-76
5760,29,-239,-94,-1126,172,-92
5765,28,-241,-95,-1126,266,-91
5770,21,-240,-95,-1126,352,-99
5775,5,-240,-90,-1139,426,-127
5780,3,-242,-93,-1142,481,-158
5785,-9,-237,-89,-1144,533,-188
5790,-16,-238,-92,-1139,583,-204
5795,-27,-235,-91,-1125,622,-206
5800,-34,-232,-92,-1120,654,-203
5805,-43,-232,-85,-1120,671,-194
5810,-51,-223,-86,-1119,673,-186
5815,-62,-225,-82,-1117,656,-177
5820,-59,-222,-89,-1099,619,-168
5825,-58,-216,-92,-1080,586,-151
5830,-55,-210,-95,-1074,559,-134
5835,-46,-203,-99,-1077,533,-119
5840,-45,-199,-101,-1093,507,-108
5845,-52,-203,-99,-1112,477,-100
5850,-40,-199,-104,-1133,453,-99
5855,-34,-199,-109,-1154,435,-99
5860,-27,-204,-109,-1172,425,-106
5865,-26,-207,-113,-1188,425,-113
5870,-25,-211,-118,-1209,432,-125
5875,-23,-218,-124,-1235,444,-141
5880,-24,-221,-129,-1265,453,-161
5885,-25,-222,-130,-1302,461,-184
5890,-30,-228,-138,-1337,469,-211
5895,-32,-225,-152,-1367,477,-241
5900,-43,-231,-150,-1389,475,-272
5905,-49,-229,-158,-1396,462,-300
5910,-51,-228,-167,-1402,449,-325
5915,-52,-227,-175,-1413,442,-339
5920,-60,-218,-180,-1435,446,-337
5925,-64,-220,-180,-1475,456,-322
5930,-73,-216,-180,-1523,464,-293
5935,-81,-218,-184,-1568,459,-247
5940,-85,-219,-188,-1606,442,-188
5945,-84,-220,-196,-1634,412,-129
5950,-87,-225,-200,-1647,374,-77
5955,-87,-229,-201,-1646,336,-38
5960,-83,-237,-205,-1634,289,-12
5965,-70,-248,-209,-1606,243,0
5970,-64,-255,-208,-1571,198,-1
5975,-56,-258,-209,-1532,150,-9
5980,-42,-261,-208,-1483,103,-29
5985,-24,-263,-205,-1418,47,-56
5990,-9,-254,-211,-1346,-16,-88
5995,7,-251,-215,-1290,-58,-113
6000,15,-244,-224,-1243,-85,-138
6005,27,-236,-234,-1206,-92,-158
6010,38,-232,-245,-1188,-64,-171
6015,39,-228,-249,-1200,-15,-197
6020,48,-222,-255,-1228,50,-224
6025,45,-225,-254,-1265,135,-249
6030,40,-221,-253,-1306,221,-285
6035,39,-224,-251,-1347,312,-325
6040,32,-225,-254,-1384,402,-361
6045,27,-231,-249,-1419,489,-378
6050,23,-237,-238,-1440,560,-389
6055,11,-241,-235,-1432,604,-401
6060,9,-239,-226,-1394,626,-413
6065,0,-234,-221,-1345,622,-414
6070,-7,-227,-215,-1300,597,-402
6075,-18,-221,-212,-1277,559,-381
6080,-26,-217,-211,-1272,513,-348
6085,-36,-212,-207,-1278,453,-310
6090,-43,-208,-204,-1286,387,-270
6095,-54,-204,-205,-1287,320,-228
6100,-55,-200,-199,-1284,255,-189
6105,-60,-198,-197,-1279,194,-151
6110,-61,-195,-199,-1271,140,-123
6115,-61,-194,-192,-1258,94,-101
6120,-54,-192,-196,-1248,60,-88
6125,-49,-187,-196,-1244,32,-87
6130,-42,-185,-196,-1246,7,-91
6135,-33,-188,-192,-1251,-16,-95
6140,-28,-179,-190,-1259,-33,-100
6145,-17,-181,-183,-1268,-48,-103
6150,-11,-175,-185,-1276,-62,-104
6155,-6,-171,-180,-1287,-69,-105
6160,0,-168,-175,-1296,-68,-104
6165,5,-149,-165,-1313,-61,-104
6170,5,-151,-166,-1333,-47,-105
6175,10,-146,-165,-1353,-34,-110
6180,14,-139,-161,-1372,-22,-119
6185,17,-137,-162,-1389,-13,-126
6190,18,-133,-158,-1397,-7,-137
6195,22,-134,-162,-1400,2,-154
6200,21,-127,-162,-1406,10,-171
6205,21,-130,-164,-1418,14,-188
6210,19,-128,-171,-1432,12,-205
6215,20,-128,-171,-1447,7,-219
6220,17,-129,-174,-1458,-7,-225
6225,18,-131,-179,-1462,-25,-222
6230,16,-134,-185,-1459,-48,-211
6235,17,-133,-187,-1452,-73,-190
6240,15,-138,-186,-1444,-102,-168
6245,14,-135,-186,-1431,-134,-148
6250,13,-136,-189,-1416,-165,-128
6255,12,-133,-183,-1396,-200,-115
6260,12,-133,-182,-1375,-240,-99
6265,10,-134,-175,-1354,-288,-88
6270,12,-125,-174,-1333,-344,-83
6275,8,-123,-175,-1318,-410,-91
6280,7,-120,-170,-1303,-478,-105
6285,0,-120,-172,-1289,-548,-118
6290,2,-121,-173,-1270,-619,-130
6295,0,-120,-170,-1242,-679,-141
6300,-5,-123,-170,-1206,-742,-140
6305,-7,-121,-178,-1165,-813,-138
6310,-11,-120,-180,-1123,-884,-129
6315,-7,-122,-184,-1079,-947,-108
6320,-7,-122,-183,-1032,-1007,-85
6325,-7,-119,-191,-989,-1058,-55
6330,-3,-117,-188,-958,-1093,-16
6335,0,-115,-188,-940,-1125,21
6340,6,-114,-185,-935,-1149,57
6345,13,-112,-186,-940,-1170,89
6350,14,-108,-181,-957,-1191,124
6355,6,-101,-171,-975,-1224,156
6360,3,-98,-166,-975,-1305,183
6365,6,-96,-164,-967,-1414,190
6370,5,-87,-163,-959,-1514,185
6375,4,-76,-161,-966,-1606,179
6380,10,-63,-154,-989,-1688,167
6385,7,-56,-162,-1023,-1756,149
6390,11,-47,-168,-1069,-1811,127
6395,11,-36,-171,-1112,-1851,106
6400,14,-29,-181,-1140,-1884,82
6405,25,-29,-186,-1151,-1901,56
6410,21,-29,-187,-1134,-1869,25
6415,32,-31,-204,-1090,-1806,-12
6420,8,-45,-177,-1032,-1694,-64
6425,-1,-57,-180,-906,-1615,-127
6430,-16,-68,-184,-762,-1547,-208
6435,-34,-76,-182,-609,-1463,-305
6440,-43,-83,-194,-465,-1372,-400
6445,-61,-89,-185,-344,-1272,-485
6450,-73,-101,-192,-212,-1204,-567
6455,-86,-105,-193,-87,-1150,-624
6460,-92,-104,-187,28,-1132,-645
6465,-98,-106,-177,121,-1141,-676
6470,-114,-106,-167,195,-1177,-731
6475,-125,-106,-161,287,-1235,-752
6480,-130,-105,-160,385,-1304,-744
6485,-137,-95,-158,489,-1370,-726
6490,-140,-87,-169,594,-1426,-704
6495,-150,-74,-173,678,-1481,-705
6500,-167,-56,-176,747,-1532,-707
6505,-181,-39,-183,785,-1587,-708
6510,-193,-12,-187,791,-1644,-695
6515,-209,13,-189,764,-1712,-669
6520,-230,34,-186,689,-1801,-641
6525,-244,51,-184,580,-1919,-618
6530,-261,60,-178,454,-2062,-610
6535,-273,64,-164,320,-2233,-621
6540,-284,61,-163,200,-2435,-661
6545,-290,50,-164,124,-2665,-714
6550,-293,35,-176,90,-2907,-763
6555,-285,11,-183,88,-3147,-807
6560,-278,-7,-192,102,-3379,-843
6565,-275,-23,-194,122,-3609,-864
6570,-278,-33,-202,164,-3822,-854
6575,-279,-37,-209,231,-4021,-802
6580,-271,-33,-221,297,-4210,-721
6585,-269,-20,-232,329,-4393,-634
6590,-267,-1,-239,311,-4567,-547
6595,-269,20,-239,248,-4720,-442
6600,-272,44,-231,121,-4878,-328
6605,-287,76,-226,-55,-5053,-217
6610,-303,99,-229,-260,-5241,-111
6615,-322,116,-243,-476,-5415,-16
6620,-349,127,-265,-679,-5547,44
6625,-377,126,-284,-845,-5614,82
6630,-406,123,-321,-954,-5631,111
6635,-427,109,-358,-1018,-5603,148
6640,-427,93,-390,-1065,-5551,207
6645,-417,81,-401,-1085,-5491,278
6650,-379,77,-407,-1090,-5379,395
6655,-342,66,-387,-1114,-5163,556
6660,-314,48,-361,-1140,-4896,693
6665,-291,35,-325,-1181,-4580,813
6670,-269,16,-277,-1224,-4287,906
6675,-257,14,-233,-1224,-4059,986
6680,-255,14,-188,-1203,-3896,1078
6685,-259,13,-159,-1150,-3787,1191
6690,-265,10,-137,-1079,-3688,1341
6695,-289,3,-121,-986,-3572,1490
6700,-307,-6,-106,-864,-3448,1599
6705,-329,-12,-101,-725,-3281,1693
6710,-351,-19,-92,-593,-3092,1771
6715,-365,-33,-81,-469,-2889,1840
6720,-368,-38,-84,-341,-2670,1929
6725,-366,-45,-82,-247,-2436,2036
6730,-368,-50,-51,-204,-2249,2116
6735,-353,-63,-48,-174,-2146,2150
6740,-356,-72,-24,-168,-2073,2149
6745,-355,-64,-5,-133,-2065,2142
6750,-326,-70,6,-83,-2141,2116
6755,-297,-66,6,-19,-2233,2044
6760,-270,-55,12,46,-2299,1949
6765,-249,-51,6,128,-2320,1849
6770,-238,-34,3,238,-2304,1752
6775,-237,-9,3,360,-2265,1675
6780,-232,11,9,452,-2220,1604
6785,-234,34,21,531,-2178,1522
6790,-233,60,32,616,-2155,1434
6795,-226,83,38,685,-2141,1342
6800,-235,112,45,747,-2125,1228
6805,-241,134,46,802,-2099,1089
6810,-249,155,48,819,-2051,949
6815,-260,171,51,792,-1984,815
6820,-258,177,44,708,-1914,681
6825,-256,180,51,553,-1835,555
6830,-255,160,66,377,-1758,438
6835,-239,138,72,225,-1690,332
6840,-230,122,79,110,-1612,216
6845,-230,105,87,13,-1528,94
6850,-224,89,93,-54,-1453,-15
6855,-213,75,98,-88,-1395,-102
6860,-208,70,103,-95,-1361,-173
6865,-199,73,109,-97,-1353,-227
6870,-192,75,106,-109,-1368,-266
6875,-184,81,106,-144,-1389,-299
6880,-186,90,108,-201,-1407,-329
6885,-186,96,111,-265,-1421,-354
6890,-181,99,107,-328,-1424,-375
6895,-188,103,108,-383,-1405,-393
6900,-192,101,107,-422,-1373,-402
6905,-190,103,119,-441,-1340,-397
6910,-192,98,113,-431,-1317,-387
6915,-187,93,105,-404,-1300,-381
6920,-183,88,97,-362,-1285,-381
6925,-177,80,95,-322,-1263,-383
6930,-161,77,87,-303,-1228,-383
6935,-154,67,105,-318,-1197,-408
6940,-146,57,111,-325,-1169,-424
6945,-130,43,127,-316,-1158,-406
6950,-118,30,138,-285,-1143,-377
6955,-104,21,143,-213,-1096,-349
6960,-102,4,145,-108,-1011,-332
6965,-122,-4,155,28,-894,-321
6970,-141,-9,163,175,-799,-296
6975,-167,-6,163,296,-740,-256
6980,-184,-6,163,365,-708,-213
6985,-196,2,168,398,-682,-180
6990,-213,6,161,400,-649,-153
6995,-223,14,160,390,-609,-138
7000,-237,20,149,376,-560,-135
7005,-244,27,142,352,-505,-145
7010,-254,22,137,324,-444,-166
7015,-254,32,129,306,-382,-190
7020,-254,35,115,301,-319,-206
7025,-254,37,111,307,-262,-219
7030,-253,42,101,319,-214,-235
7035,-251,40,97,327,-178,-247
7040,-252,38,95,331,-153,-259
7045,-243,38,93,320,-134,-263
7050,-240,36,95,291,-121,-267
7055,-221,31,102,242,-122,-270
7060,-219,25,107,192,-120,-283
7065,-218,15,120,145,-135,-299
7070,-214,11,125,115,-162,-315
7075,-212,7,135,114,-173,-322
7080,-223,4,138,135,-162,-318
7085,-224,1,148,180,-133,-303
7090,-233,3,149,237,-93,-274
7095,-243,10,145,288,-44,-245
7100,-252,15,141,325,2,-219
7105,-253,22,137,345,36,-189
7110,-252,29,134,357,65,-162
7115,-242,31,132,368,94,-141
7120,-237,28,124,382,132,-132
7125,-225,25,122,397,169,-132
7130,-212,24,117,408,204,-133
7135,-194,18,117,404,238,-138
7140,-195,23,118,390,276,-153
7145,-173,15,120,357,312,-163
7150,-152,4,123,330,354,-178
7155,-140,-4,127,325,409,-216
7160,-139,-5,132,351,473,-272
7165,-140,-8,137,396,532,-315
7170,-139,-11,136,454,580,-337
7175,-144,-7,134,506,622,-344
7180,-151,-2,133,544,654,-337
7185,-155,2,131,563,687,-314
7190,-163,-2,130,569,724,-280
7195,-170,-1,125,567,752,-249
7200,-183,4,122,557,776,-222
7205,-192,-1,117,539,791,-186
7210,-196,4,116,509,804,-160
7215,-208,9,103,475,809,-145
7220,-214,11,102,428,813,-132
7225,-217,13,90,371,832,-113
7230,-230,16,87,316,867,-77
7235,-240,16,90,260,909,-45
7240,-258,19,86,224,919,-47
7245,-265,22,80,213,910,-55
7250,-268,26,67,207,905,-60
7255,-277,27,68,187,920,-54
7260,-282,24,67,174,949,-34
7265,-281,21,68,163,978,-13
7270,-286,16,69,157,1003,2
7275,-288,11,74,167,1005,16
7280,-280,8,65,194,982,22
7285,-287,6,67,233,951,16
7290,-283,4,63,271,914,6
7295,-281,6,60,316,876,1
7300,-270,6,59,349,853,-8
7305,-266,8,53,370,846,-26
7310,-259,9,49,372,849,-45
7315,-258,14,46,352,853,-69
7320,-260,15,44,325,851,-94
7325,-258,13,44,290,833,-116
7330,-258,19,42,250,804,-130
7335,-257,15,43,206,771,-132
7340,-258,16,36,164,735,-121
7345,-258,15,39,123,691,-102
7350,-260,13,37,82,640,-80
7355,-257,10,36,60,591,-61
7360,-259,12,35,46,544,-40
7365,-258,6,33,48,509,-17
7370,-259,7,28,62,484,7
7375,-257,5,24,81,463,25
7380,-255,8,25,97,451,38
7385,-253,8,25,111,443,45
7390,-257,11,24,122,433,47
7395,-257,15,26,134,417,44
7400,-257,16,20,144,400,39
7405,-256,20,23,151,386,30
7410,-257,21,26,156,378,13
7415,-257,27,25,157,373,0
7420,-261,28,20,151,375,-8
7425,-266,31,20,135,381,-16
7430,-265,30,26,111,385,-19
7435,-265,30,29,81,390,-20
7440,-269,31,32,41,395,-16
7445,-265,27,32,-8,398,-6
7450,-263,24,34,-66,397,4
7455,-267,25,40,-130,398,19
7460,-265,17,44,-182,398,31
7465,-265,18,42,-222,394,44
7470,-261,15,47,-252,395,56
7475,-260,15,48,-272,403,66
7480,-258,15,45,-284,412,78
7485,-257,14,50,-293,431,90
7490,-258,14,48,-294,446,102
7495,-259,15,49,-293,463,111
7500,-257,14,49,-293,481,119
7505,-257,17,46,-297,498,123
7510,-261,18,47,-305,513,125
7515,-260,19,48,-314,522,127
7520,-259,16,47,-322,523,129
7525,-262,18,45,-322,516,129
7530,-263,19,43,-318,501,130
7535,-267,17,45,-315,482,133
7540,-270,15,37,-305,456,136
7545,-269,16,37,-293,425,136
7550,-273,14,35,-277,391,134
7555,-273,15,33,-263,355,128
7560,-274,14,30,-247,318,121
7565,-274,15,30,-232,282,109
7570,-270,15,31,-218,250,96
7575,-269,16,29,-205,221,82
7580,-262,16,30,-192,195,67
7585,-260,15,33,-176,171,52
7590,-258,19,34,-162,151,38
7595,-257,23,36,-151,132,27
7600,-256,24,31,-146,115,17
7605,-257,27,36,-144,97,11
7610,-255,27,38,-143,78,7
7615,-256,28,36,-142,56,4
7620,-255,25,35,-140,38,0
7625,-256,24,37,-140,26,-5
7630,-255,26,34,-143,20,-9
7635,-259,26,32,-145,17,-12
7640,-256,26,28,-147,18,-15
7645,-259,24,28,-145,20,-19
7650,-258,28,33,-138,15,-24
7655,-259,22,26,-126,11,-27
7660,-257,24,29,-110,6,-31
7665,-259,21,29,-91,1,-32
7670,-258,23,27,-71,-5,-33
7675,-259,26,27,-51,-13,-31
7680,-260,26,28,-33,-23,-30
7685,-260,25,30,-15,-34,-27
7690,-261,25,30,0,-47,-24
7695,-258,23,31,14,-59,-23
7700,-258,24,34,23,-71,-23
7705,-259,22,36,31,-80,-23
7710,-261,25,29,33,-91,-23
7715,-259,26,34,33,-101,-24
7720,-260,27,34,28,-110,-25
7725,-258,23,31,20,-116,-27
7730,-259,20,36,10,-117,-29
7735,-259,24,40,-3,-116,-31
7740,-258,23,42,-15,-113,-30
7745,-256,20,39,-20,-109,-30
7750,-254,18,42,-26,-101,-29
7755,-257,18,45,-27,-90,-27
7760,-257,19,39,-27,-76,-26
7765,-255,17,43,-25,-64,-20
7770,-255,16,47,-24,-51,-16
7775,-252,11,45,-20,-42,-13
7780,-254,12,46,-14,-34,-12
7785,-254,15,46,-9,-26,-11
7790,-252,15,45,0,-21,-9
7795,-250,15,46,9,-18,-7
7800,-252,13,45,19,-14,-6
7805,-253,17,43,27,-13,-5
7810,-247,15,48,35,-12,-5
7815,-253,17,42,44,-12,-2
7820,-250,17,43,49,-14,-2
7825,-253,19,40,54,-16,-2
7830,-253,19,42,54,-19,-2
7835,-250,18,41,52,-25,-1
7840,-248,19,42,51,-32,-2
7845,-252,20,44,50,-40,-3
7850,-252,21,43,50,-48,-4
7855,-254,22,39,47,-60,-5
7860,-253,23,46,40,-72,-6
7865,-251,19,46,34,-77,-10
7870,-253,22,48,24,-74,-12
7875,-251,22,48,13,-70,-12
7880,-251,21,48,0,-62,-9
7885,-256,24,49,-11,-52,-9
7890,-256,18,45,-23,-41,-6
7895,-258,21,46,-32,-29,-5
7900,-257,18,47,-33,-17,-4
7905,-257,16,48,-25,-6,-1
7910,-257,18,45,-6,6,2
7915,-257,12,47,26,16,4
7920,-257,16,44,61,26,8
7925,-256,16,46,95,34,15
7930,-257,13,42,130,38,21
7935,-254,13,46,164,43,26
7940,-252,14,47,192,42,31
7945,-255,16,48,219,35,32
7950,-251,14,52,245,20,34
7955,-251,16,51,271,2,29
7960,-251,16,48,294,-19,25
7965,-250,14,52,310,-39,19
7970,-251,15,52,322,-56,15
7975,-249,15,56,326,-68,11
7980,-249,20,49,325,-74,10
7985,-252,21,50,318,-72,11
7990,-251,19,47,304,-65,15
7995,-249,21,50,288,-51,19
8000,-252,23,51,268,-35,19
8005,-251,26,47,244,-17,18
8010,-254,25,46,218,2,17
8015,-249,24,51,193,19,13
8020,-250,25,48,170,35,11
8025,-250,25,49,149,50,8
8030,-248,26,50,131,63,7
8035,-250,27,51,117,74,3
8040,-248,25,46,108,86,-1
8045,-243,23,45,99,98,-5
8050,-247,27,47,92,109,-10
8055,-249,24,46,82,116,-13
8060,-245,25,44,68,118,-14
8065,-245,25,44,54,115,-16
8070,-250,27,46,34,109,-17
8075,-251,28,45,12,102,-18
8080,-255,29,45,-11,95,-17
8085,-253,27,43,-34,89,-16
8090,-254,30,46,-59,88,-15
8095,-251,30,44,-78,84,-15
8100,-254,29,43,-95,85,-14
8105,-254,24,47,-108,86,-11
8110,-254,24,46,-118,89,-7
8115,-255,24,45,-124,92,-5
8120,-255,24,44,-125,96,-2
8125,-254,23,45,-123,99,-3
8130,-255,20,47,-117,100,-3
8135,-256,20,45,-110,100,-4
8140,-256,21,43,-102,98,-6
8145,-256,23,42,-89,98,-7
8150,-256,17,44,-78,92,-8
8155,-256,21,44,-67,91,-7
8160,-257,25,44,-58,88,-8
8165,-255,23,43,-49,88,-7
8170,-257,20,42,-43,87,-4
8175,-256,23,44,-40,84,-3
8180,-256,22,42,-40,83,-2
8185,-254,24,43,-40,79,0
8190,-255,22,46,-46,79,0
8195,-254,21,45,-52,74,0
8200,-255,24,44,-57,72,0
8205,-255,24,45,-61,69,0
8210,-255,27,44,-64,68,-1
8215,-256,23,48,-66,67,-2
8220,-253,23,45,-64,66,-3
8225,-257,24,48,-63,66,-5
8230,-253,22,47,-58,66,-9
8235,-252,22,44,-54,67,-11
8240,-253,22,47,-48,66,-12
8245,-252,21,46,-43,67,-13
8250,-255,23,45,-41,68,-17
8255,-251,20,43,-40,69,-16
8260,-252,22,45,-39,70,-17
8265,-252,22,45,-41,71,-16
8270,-254,23,44,-46,74,-13
8275,-253,24,45,-48,75,-13
8280,-253,23,49,-52,73,-12
8285,-255,18,46,-57,72,-11
8290,-253,24,45,-60,70,-8
8295,-255,20,46,-65,68,-7
8300,-252,19,48,-66,68,-7
8305,-256,17,50,-66,68,-9
8310,-255,17,43,-61,67,-11
8315,-253,18,43,-58,67,-9
8320,-254,17,48,-51,65,-8
8325,-255,16,44,-41,64,-6
8330,-256,19,46,-34,63,-8
8335,-256,21,44,-26,59,-11
8340,-254,21,46,-17,54,-12
8345,-255,20,44,-10,51,-10
8350,-255,21,45,-6,48,-10
8355,-253,22,43,-4,45,-8
8360,-252,22,44,-6,44,-9
8365,-252,18,45,-11,42,-9
8370,-253,22,45,-16,41,-8
8375,-251,21,44,-22,41,-8
8380,-254,21,46,-28,43,-7
8385,-253,25,49,-32,46,-6
8390,-252,20,46,-35,47,-5
8395,-253,24,47,-36,50,-4
8400,-257,24,47,-35,51,-3
8405,-252,22,47,-34,53,-4
8410,-251,19,43,-33,56,-3
8415,-254,22,48,-34,59,-4
8420,-253,22,50,-37,64,-6
8425,-253,20,49,-41,66,-7
8430,-255,21,46,-48,72,-8
8435,-252,20,46,-54,76,-9
8440,-253,21,45,-58,82,-12
8445,-255,21,49,-60,84,-13
8450,-252,23,48,-58,88,-11
8455,-253,21,44,-53,89,-12
8460,-253,20,50,-48,88,-12
8465,-255,22,47,-38,85,-10
8470,-251,16,51,-26,82,-8
8475,-250,18,47,-17,78,-8
8480,-253,19,47,-7,72,-6
8485,-252,17,45,4,70,-7
8490,-252,19,44,10,66,-6
8495,-252,19,47,14,63,-8
8500,-253,23,45,16,62,-8
8505,-251,23,45,17,61,-9
8510,-253,22,46,14,62,-10
8515,-254,21,45,8,67,-9
8520,-253,25,46,2,69,-10
8525,-255,24,42,-7,73,-11
8530,-253,25,51,-14,76,-10
8535,-253,21,46,-23,78,-13
8540,-252,21,48,-30,81,-15
8545,-250,22,46,-33,81,-16
8550,-252,22,46,-36,81,-16
8555,-252,23,48,-39,80,-17
8560,-252,23,45,-40,77,-17
8565,-254,20,48,-38,78,-17
8570,-255,22,45,-36,79,-18
8575,-254,20,44,-34,79,-16
8580,-255,21,45,-31,82,-12
8585,-256,16,45,-30,84,-10
8590,-255,17,46,-26,86,-10
8595,-253,14,44,-23,85,-9
8600,-255,19,43,-20,83,-9
8605,-255,18,43,-15,81,-8
8610,-253,19,48,-12,77,-7
8615,-255,16,44,-5,75,-6
8620,-252,18,47,1,75,-6
8625,-255,20,46,8,75,-5
8630,-249,27,45,16,72,-2
8635,-254,20,44,25,71,-2
8640,-254,23,47,33,70,-2
8645,-254,21,49,40,70,-4
8650,-256,25,45,45,69,-7
8655,-253,21,45,47,69,-8
8660,-256,19,45,46,68,-8
8665,-255,24,44,42,68,-7
8670,-255,25,45,36,66,-8
8675,-255,22,44,31,65,-9
8680,-258,23,39,24,65,-9
8685,-255,21,44,20,65,-10
8690,-256,18,45,13,63,-8
8695,-254,21,45,10,62,-8
8700,-253,19,45,8,61,-8
8705,-256,20,45,6,60,-9
8710,-255,19,45,7,58,-7
8715,-255,18,44,8,60,-7
8720,-253,17,46,11,58,-7
8725,-254,19,46,14,58,-6
8730,-251,19,48,18,59,-7
8735,-254,20,46,19,58,-8
8740,-249,11,46,20,58,-8
8745,-250,19,45,24,59,-8
8750,-249,17,47,30,58,-8
8755,-253,21,48,32,54,-6
8760,-253,23,44,32,52,-2
8765,-251,23,44,27,48,1
8770,-252,25,43,16,46,3
8775,-253,24,47,4,46,-2
8780,-252,22,46,-9,47,-10
8785,-252,26,43,-26,50,-16
8790,-252,24,43,-42,54,-22
8795,-248,20,46,-60,61,-30
8800,-245,19,43,-82,71,-43
8805,-254,22,46,-103,83,-53
8810,-258,21,49,-111,90,-49
8815,-262,23,53,-104,93,-30
8820,-259,18,53,-78,94,-13
8825,-258,19,52,-47,89,-4
8830,-259,19,53,-17,81,1
8835,-258,21,51,5,70,7
8840,-257,17,46,22,62,12
8845,-257,20,45,34,55,15
8850,-258,18,45,39,49,16
8855,-257,20,45,39,44,14
8860,-255,25,43,35,42,9
8865,-255,22,46,26,40,4
8870,-253,21,46,14,37,0
8875,-253,23,44,1,34,-4
8880,-253,24,45,-12,35,-7
8885,-254,19,47,-23,36,-7
8890,-250,21,48,-32,40,-7
8895,-249,19,49,-35,44,-7
8900,-253,24,45,-38,50,-6
8905,-252,19,46,-39,54,-3
8910,-253,19,49,-38,58,-3
8915,-251,23,51,-39,60,-1
8920,-253,22,46,-41,60,-1
8925,-255,20,47,-43,60,-2
8930,-255,19,46,-43,58,-3
8935,-255,21,45,-44,55,-5
8940,-254,21,49,-47,54,-8
8945,-255,22,48,-51,53,-9
8950,-254,22,48,-54,54,-11
8955,-252,17,46,-59,56,-10
8960,-253,22,47,-64,57,-10
8965,-254,23,52,-68,59,-9
8970,-249,20,48,-70,62,-7
8975,-254,20,48,-72,63,-6
8980,-255,20,46,-72,67,-6
8985,-254,18,46,-69,70,-4
8990,-255,20,51,-64,71,-4
8995,-252,19,48,-59,72,-5
9000,-253,14,47,-51,75,-6
9005,-253,18,48,-44,78,-6
9010,-255,17,44,-36,80,-6
9015,-254,20,50,-28,83,-6
9020,-251,17,45,-21,83,-5
9025,-255,21,46,-16,84,-7
9030,-254,21,46,-16,82,-6
9035,-255,19,48,-19,78,-7
9040,-255,20,47,-24,75,-7
9045,-252,22,45,-30,72,-8
9050,-252,19,46,-40,72,-7
9055,-254,23,49,-49,71,-5
9060,-254,21,46,-61,71,-5
9065,-254,24,47,-71,71,-4
9070,-254,21,47,-80,75,-4
9075,-253,20,50,-89,74,-3
9080,-253,19,47,-95,76,-4
9085,-254,20,50,-97,78,-5
9090,-255,21,49,-94,80,-5
9095,-253,20,47,-91,80,-5
9100,-253,18,50,-88,80,-5
9105,-252,17,51,-82,81,-5
9110,-254,16,46,-75,81,-6
9115,-254,18,50,-70,81,-5
9120,-253,18,47,-63,83,-5
9125,-254,18,47,-58,83,-5
9130,-252,17,45,-56,82,-4
9135,-253,17,45,-52,80,-5
9140,-252,18,49,-48,78,-5
9145,-255,19,44,-43,79,-5
9150,-254,17,47,-39,77,-5
9155,-252,18,47,-38,74,-4
9160,-254,19,46,-32,73,-5
9165,-256,16,44,-28,73,-4
9170,-252,18,44,-24,73,-2
9175,-255,24,42,-22,73,-2
9180,-254,21,47,-23,74,-1
9185,-256,22,46,-24,74,-3
9190,-253,19,47,-25,74,-4
9195,-250,19,47,-26,74,-6
9200,-256,17,44,-27,75,-6
9205,-252,19,45,-27,78,-6
9210,-255,19,45,-26,77,-6
9215,-254,22,46,-26,77,-6
9220,-255,21,48,-26,77,-6
9225,-254,18,48,-28,77,-7
9230,-254,19,43,-29,75,-6
9235,-254,16,49,-31,77,-6
9240,-254,18,44,-32,80,-5
9245,-254,19,45,-31,82,-5
9250,-253,20,47,-32,82,-6
9255,-254,23,46,-34,82,-7
9260,-254,18,49,-36,83,-6
9265,-252,19,47,-41,81,-5
9270,-255,20,45,-49,84,-5
9275,-252,18,48,-55,87,-5
9280,-252,20,42,-62,88,-6
9285,-255,20,45,-67,90,-5
9290,-252,18,44,-69,92,-5
9295,-253,17,44,-71,91,-4
9300,-252,16,49,-68,90,-2
9305,-252,16,48,-66,87,-2
9310,-251,17,44,-65,91,2
9315,-255,21,44,-69,96,4
9320,-253,19,45,-75,101,7
9325,-252,21,44,-81,106,9
9330,-250,21,44,-93,108,11
9335,-252,21,43,-103,108,11
9340,-253,22,42,-109,110,13
9345,-254,23,44,-114,112,11
9350,-254,22,45,-116,111,10
9355,-253,19,44,-115,115,10
9360,-253,21,44,-111,117,10
9365,-254,20,41,-105,117,10
9370,-255,19,43,-101,119,6
9375,-254,18,44,-96,116,3
9380,-253,18,43,-91,113,2
9385,-255,22,44,-90,107,0
9390,-255,16,44,-89,100,-3
9395,-256,19,44,-92,93,-4
9400,-254,15,44,-97,87,-5
9405,-255,14,42,-101,82,-5
9410,-256,19,46,-105,79,-7
9415,-255,18,45,-111,79,-9
9420,-255,20,44,-116,78,-8
9425,-253,18,43,-121,80,-6
9430,-253,19,48,-126,81,-1
9435,-253,18,47,-128,82,1
9440,-251,19,52,-127,85,2
9445,-255,17,49,-123,86,2
9450,-254,16,49,-118,86,4
9455,-254,18,54,-114,87,4
9460,-252,16,49,-111,86,5
9465,-250,20,45,-110,86,6
9470,-254,18,45,-109,87,6
9475,-253,18,46,-109,89,5
9480,-253,18,45,-106,93,5
9485,-254,18,45,-108,97,4
9490,-255,19,45,-106,102,4
9495,-254,18,46,-105,103,5
9500,-252,13,46,-103,107,4
9505,-256,18,47,-100,107,6
9510,-256,18,43,-97,106,8
9515,-255,17,43,-93,106,8
9520,-258,17,44,-91,104,8
9525,-255,17,44,-90,102,9
9530,-253,17,42,-89,98,9
9535,-254,18,48,-87,97,10
9540,-255,18,42,-85,94,10
9545,-254,17,42,-85,92,11
9550,-256,23,39,-87,92,11
9555,-256,20,45,-91,91,9
9560,-255,19,44,-93,89,10
9565,-254,21,47,-96,91,9
9570,-253,19,43,-100,90,7
9575,-256,19,44,-99,89,6
9580,-255,17,47,-98,90,4
9585,-254,17,48,-95,90,2
9590,-252,19,46,-93,90,-1
9595,-255,18,45,-91,91,-3
9600,-253,17,45,-91,93,-4
9605,-257,16,45,-91,92,-4
9610,-253,17,45,-92,96,-2
9615,-254,18,47,-93,97,-2
9620,-257,17,44,-96,100,-1
9625,-254,18,45,-99,101,-1
9630,-253,15,42,-97,100,0
9635,-254,16,45,-91,102,0
9640,-255,17,44,-85,101,-1
9645,-252,16,46,-79,102,1
9650,-253,17,44,-70,101,4
9655,-253,18,42,-67,102,6
9660,-253,14,47,-64,100,6
9665,-255,16,41,-64,95,7
9670,-253,18,46,-64,92,8
9675,-253,18,41,-66,88,8
9680,-255,18,43,-70,86,7
9685,-256,16,43,-71,85,4
9690,-255,18,42,-69,85,2
9695,-254,17,43,-64,84,2
9700,-256,16,40,-59,84,4
9705,-256,18,43,-55,85,4
9710,-250,16,44,-55,84,4
9715,-254,18,42,-52,81,4
9720,-254,18,41,-52,77,5
9725,-255,16,45,-56,72,7
9730,-255,17,44,-59,69,6
9735,-252,18,43,-63,69,3
9740,-251,18,43,-69,69,1
9745,-254,16,45,-75,71,-1
9750,-255,19,42,-76,71,0
9755,-254,18,42,-75,75,0
9760,-255,14,45,-73,77,0
9765,-257,15,44,-68,79,2
9770,-252,17,44,-65,82,5
9775,-255,20,43,-63,86,5
9780,-254,15,42,-63,92,8
9785,-254,16,45,-62,96,9
9790,-255,17,46,-62,95,8
9795,-256,18,42,-61,93,10
9800,-255,19,40,-63,88,9
9805,-255,18,41,-64,86,8
9810,-255,18,45,-64,86,6
9815,-256,17,45,-65,86,5
9820,-256,19,42,-64,82,3
9825,-254,18,42,-61,82,3
9830,-253,18,44,-60,83,2
9835,-254,18,44,-55,84,1
9840,-254,17,42,-52,83,1
9845,-253,17,44,-48,80,2
9850,-254,17,43,-40,79,1
9855,-256,18,44,-33,76,1
9860,-254,16,46,-25,73,0
9865,-255,15,42,-18,71,0
9870,-255,16,43,-12,68,-2
9875,-253,18,43,-13,72,-3
9880,-248,16,46,-20,74,-2
9885,-254,18,41,-26,77,-2
9890,-253,19,45,-31,78,-3
9895,-255,18,41,-34,81,-5
9900,-253,17,43,-35,81,-6
9905,-254,15,42,-35,80,-5
9910,-253,16,41,-34,82,-4
9915,-255,17,45,-33,82,-4
9920,-252,17,43,-31,81,-4
9925,-254,20,40,-33,79,-1
9930,-252,17,45,-38,76,1
9935,-252,18,44,-44,77,0
9940,-254,18,45,-47,79,-1
9945,-256,15,44,-47,80,-1
9950,-254,15,45,-46,80,-1
9955,-254,13,44,-42,83,-1
9960,-254,13,42,-38,83,1
9965,-253,16,42,-32,82,1
9970,-254,17,46,-29,82,3
9975,-253,19,39,-28,81,4
9980,-254,17,42,-26,81,5
9985,-252,18,43,-30,83,5
9990,-255,15,43,-31,82,5
9995,-254,19,42,-31,81,5
10000,-254,17,42,-31,82,4
10005,-256,21,41,-30,80,3
10010,-254,18,43,-27,79,3
10015,-251,15,40,-21,78,1
10020,-255,19,42,-14,80,0
10025,-255,18,39,-6,78,0
10030,-255,18,43,2,77,-2
10035,-254,19,41,6,74,-3
10040,-255,15,41,9,73,-3
10045,-254,18,44,10,70,-6
10050,-255,16,41,12,69,-6
10055,-255,16,43,12,66,-7
10060,-254,14,43,13,63,-5
10065,-255,18,44,13,61,-4
10070,-255,16,39,13,60,-3
10075,-252,16,45,15,56,0
10080,-255,15,44,12,55,1
10085,-256,16,43,10,54,2
10090,-255,22,41,12,55,2
10095,-253,17,44,13,55,2
10100,-255,17,41,14,57,3
10105,-253,17,43,16,57,2
10110,-255,19,44,19,57,3
10115,-254,18,42,22,57,3
10120,-252,18,43,21,57,4
10125,-254,18,44,23,56,2
10130,-253,18,43,20,56,2
10135,-254,17,41,19,54,1
10140,-255,17,44,16,53,1
10145,-252,19,42,14,51,1
10150,-256,21,40,13,48,0
10155,-256,18,41,13,46,1
10160,-256,19,45,13,44,1
10165,-255,20,39,14,43,2
10170,-256,20,42,15,44,2
10175,-256,18,43,17,42,2
10180,-253,19,44,17,41,4
10185,-255,18,41,20,42,3
10190,-256,17,44,24,44,4
10195,-254,17,41,27,45,2
10200,-254,18,43,31,45,1
10205,-255,15,43,34,47,1
10210,-256,17,45,37,47,2
10215,-255,19,45,40,47,0
10220,-256,19,44,43,47,1
10225,-255,19,43,44,46,0
10230,-255,20,44,45,46,-3
10235,-252,17,43,45,47,-3
10240,-253,17,44,47,45,-4
10245,-254,18,45,47,44,-6
10250,-252,19,45,48,46,-6
10255,-252,19,48,48,46,-6
10260,-253,16,47,49,47,-7
10265,-254,19,43,50,47,-6
10270,-254,16,44,50,48,-7
10275,-253,20,46,52,49,-6
10280,-253,17,43,53,48,-6
10285,-255,19,44,55,47,-7
10290,-254,17,40,58,47,-7
10295,-253,18,45,62,47,-6
10300,-252,17,44,64,45,-7
10305,-253,18,44,66,44,-6
10310,-255,18,44,66,41,-7
10315,-255,18,43,68,41,-8
10320,-255,19,46,67,41,-6
10325,-255,19,43,67,41,-5
10330,-255,17,44,62,38,-5
10335,-256,16,44,57,37,-4
10340,-255,19,45,53,35,-3
10345,-254,17,45,50,34,-3
10350,-256,19,45,45,33,-3
10355,-255,18,45,40,31,-4
10360,-257,18,46,37,34,-3
10365,-260,19,40,37,33,-2
10370,-255,17,44,39,36,-3
10375,-256,20,45,45,39,-2
10380,-256,20,43,49,42,-1
10385,-255,19,44,54,44,0
10390,-256,17,41,58,44,0
10395,-253,18,43,61,43,-1
10400,-255,18,44,65,44,-2
10405,-254,19,44,67,43,-2
10410,-252,18,41,67,44,-1
10415,-247,20,50,67,41,-2
10420,-253,21,46,66,40,0
10425,-253,18,44,61,39,-1
10430,-253,18,44,59,38,-1
10435,-255,19,44,56,38,0
10440,-254,20,45,51,36,-1
10445,-255,20,44,46,35,0
10450,-255,20,47,44,34,0
10455,-256,21,45,41,33,0
10460,-256,17,45,37,32,-1
10465,-255,20,46,33,31,-2
10470,-251,18,50,30,33,-5
10475,-253,21,42,28,36,-5
10480,-253,17,46,28,40,-6
10485,-254,17,45,31,45,-7
10490,-254,17,46,33,48,-5
10495,-254,20,49,38,53,-4
10500,-255,18,46,42,57,-6
10505,-253,19,45,46,59,-6
10510,-253,17,47,51,58,-3
10515,-253,20,44,54,58,-2
10520,-254,18,43,58,57,-3
10525,-252,18,44,61,55,-3
10530,-252,17,46,64,52,-2
10535,-255,22,43,66,49,-3
10540,-253,20,44,69,47,-3
10545,-253,21,46,71,45,-4
10550,-253,19,44,71,44,-5
10555,-247,19,47,70,39,-6
10560,-253,19,45,68,37,-7
10565,-253,21,46,66,36,-9
10570,-253,19,44,63,35,-10
10575,-253,19,46,60,34,-12
10580,-254,20,46,62,34,-14
10585,-255,19,47,61,33,-13
10590,-254,19,46,59,32,-13
10595,-253,19,44,57,30,-14
10600,-254,20,45,54,32,-14
10605,-251,17,42,50,35,-15
10610,-253,19,46,50,36,-13
10615,-254,18,46,48,38,-14
10620,-254,18,47,47,41,-13
10625,-254,22,45,49,42,-11
10630,-256,19,45,47,45,-12
10635,-252,20,49,45,46,-12
10640,-255,18,45,44,47,-12
10645,-254,20,45,39,46,-11
10650,-255,21,46,34,46,-10
10655,-256,21,44,29,48,-11
10660,-255,20,47,24,46,-11
10665,-253,18,46,20,50,-13
10670,-251,19,48,16,50,-11
10675,-254,20,46,12,50,-11
10680,-255,22,48,14,50,-11
10685,-254,19,46,19,48,-10
10690,-252,21,45,23,48,-9
10695,-254,18,50,28,47,-9
10700,-255,18,45,31,45,-11
10705,-255,19,43,33,43,-11
10710,-256,20,44,29,40,-11
10715,-254,17,44,23,39,-12
10720,-254,20,48,18,39,-13
10725,-255,21,46,10,40,-11
10730,-254,20,47,7,40,-12
10735,-253,18,45,1,42,-13
10740,-253,17,46,-1,44,-12
10745,-255,17,51,-1,45,-9
10750,-254,18,48,1,47,-8
10755,-256,17,50,5,48,-6
10760,-252,17,47,10,50,-7
10765,-252,16,46,18,51,-5
10770,-253,18,50,27,53,-4
10775,-251,17,47,37,55,-3
10780,-251,21,46,42,56,-3
10785,-250,18,46,45,58,-3
10790,-253,18,45,47,58,-3
10795,-249,20,41,45,59,-5
10800,-250,18,47,42,56,-5
10805,-255,21,43,36,53,-6
10810,-252,20,43,31,47,-5
10815,-254,21,46,22,41,-4
10820,-254,25,46,14,37,-2
10825,-253,21,46,6,33,-2
10830,-256,22,49,-2,31,-2
10835,-254,19,48,-8,32,-3
10840,-254,19,53,-13,32,-3
10845,-253,21,50,-14,34,-4
10850,-256,17,47,-14,38,-4
10855,-251,19,51,-13,39,-4
10860,-252,16,50,-9,43,-4
10865,-256,18,49,-6,45,-7
10870,-252,20,46,-1,45,-8
10875,-255,19,52,3,48,-8
10880,-254,18,49,8,48,-7
10885,-255,19,49,12,50,-7
10890,-254,21,45,17,54,-7
10895,-254,20,51,24,59,-6
10900,-253,18,48,28,62,-4
10905,-253,23,46,30,63,-4
10910,-253,30,48,30,62,-3
10915,-255,24,48,29,61,-5
10920,-252,23,45,26,60,-4
10925,-254,23,49,22,59,-4
10930,-254,21,48,16,58,-5
10935,-252,20,49,10,56,-5
10940,-253,21,46,3,56,-8
10945,-254,21,49,0,55,-8
10950,-256,20,48,-4,56,-9
10955,-254,19,50,-9,59,-11
10960,-255,24,50,-11,60,-10
10965,-254,17,51,-12,58,-10
10970,-254,16,51,-9,60,-12
10975,-256,18,45,-2,61,-11
10980,-255,14,48,5,62,-10
10985,-252,14,49,14,63,-7
10990,-253,18,49,25,63,-4
10995,-254,16,44,37,64,-1
11000,-254,23,45,47,64,1
11005,-253,22,48,53,60,4
11010,-253,23,47,54,56,4
11015,-254,21,49,50,52,5
11020,-252,29,44,42,48,6
11025,-250,24,45,32,44,5
11030,-255,19,45,21,44,1
11035,-255,20,51,12,48,0
11040,-256,22,48,4,51,-2
11045,-255,17,48,-1,52,-2
11050,-252,15,49,0,55,-1
11055,-252,18,51,9,58,-4
11060,-252,19,45,18,62,-4
11065,-254,16,45,26,63,-5
11070,-253,18,49,32,67,-6
11075,-253,17,50,38,67,-5
11080,-251,18,47,39,70,-4
11085,-255,23,45,37,70,-3
11090,-254,21,49,31,67,-1
11095,-254,21,47,26,64,-1
11100,-253,23,46,16,58,1
11105,-253,23,46,7,53,0
11110,-253,22,48,-3,52,2
11115,-254,21,50,-12,49,1
11120,-253,22,51,-16,51,0
11125,-254,18,51,-16,54,1
11130,-253,19,49,-14,56,0
11135,-252,19,51,-10,60,0
11140,-254,19,48,-5,60,-1
11145,-253,20,47,1,62,-1
11150,-253,19,48,8,64,-2
11155,-255,21,45,12,65,-3
11160,-254,20,47,13,67,-3
11165,-254,18,47,12,66,-4
11170,-255,19,47,7,65,-3
11175,-254,18,48,7,65,-2
11180,-255,21,47,7,66,-3
11185,-254,18,46,11,67,-2
11190,-251,17,46,13,67,-3
11195,-256,20,45,14,65,-2
11200,-253,20,47,14,64,-1
11205,-254,18,45,15,63,-2
11210,-251,19,48,16,61,-2
11215,-249,17,52,20,61,-2
11220,-249,21,52,21,60,-2
11225,-254,22,51,20,59,-3
11230,-254,21,44,18,59,-4
11235,-254,23,45,15,58,-3
11240,-250,22,47,11,56,-4
11245,-254,21,44,6,55,-4
11250,-255,20,50,3,54,-2
11255,-255,22,50,2,56,-4
11260,-252,19,49,1,56,-5
11265,-256,23,48,0,58,-3
11270,-254,21,48,-1,59,-3
11275,-252,19,49,-3,59,-3
11280,-253,20,47,-8,60,-4
11285,-255,22,48,-11,61,-5
11290,-254,19,46,-15,61,-6
11295,-254,20,50,-19,62,-5
11300,-253,18,50,-21,62,-6
11305,-255,23,45,-19,63,-7
11310,-254,18,50,-15,64,-6
11315,-253,20,46,-13,64,-7
11320,-253,23,48,-14,64,-8
11325,-254,21,49,-15,64,-7
11330,-255,21,51,-16,65,-7
11335,-254,16,47,-16,67,-7
11340,-251,21,46,-15,69,-6
11345,-255,19,49,-15,72,-6
11350,-255,19,49,-12,73,-5
11355,-255,21,47,-11,72,-5
11360,-252,20,49,-14,72,-4
11365,-254,19,47,-15,67,-2
11370,-256,22,49,-14,65,0
11375,-251,20,47,-9,65,1
11380,-254,22,51,-7,63,1
11385,-251,19,48,-7,62,0
11390,-255,21,49,-7,63,0
11395,-255,22,49,-3,62,-1
11400,-256,22,49,2,59,-1
11405,-253,23,46,7,57,-2
11410,-252,21,47,13,54,-2
11415,-255,21,45,18,52,-3
11420,-252,21,45,22,49,-4
11425,-255,23,49,21,49,-7
11430,-253,21,47,15,47,-7
11435,-253,24,47,8,48,-7
11440,-255,24,47,3,53,-8
11445,-254,21,50,-4,56,-7
11450,-252,21,49,-10,58,-7
11455,-258,20,47,-12,59,-6
11460,-253,19,51,-12,61,-5
11465,-254,17,48,-9,62,-5
11470,-252,15,50,-1,64,-4
11475,-252,14,50,7,66,-3
11480,-252,15,49,18,69,-2
11485,-253,17,46,32,72,-2
11490,-248,19,47,43,72,-1
11495,-252,19,48,50,72,-5
11500,-250,23,45,52,73,-8
11505,-252,20,53,52,74,-10
11510,-251,21,47,53,75,-9
11515,-248,21,49,48,73,-6
11520,-253,22,47,42,68,-3
11525,-251,21,50,32,61,-4
11530,-254,24,45,21,53,-3
11535,-254,25,47,11,48,-3
11540,-253,23,48,-3,46,-2
11545,-252,22,47,-16,42,2
11550,-255,24,47,-33,41,4
11555,-253,21,51,-47,40,3
11560,-254,25,49,-53,44,1
11565,-258,27,55,-54,48,-1
11570,-255,21,51,-52,52,-3
11575,-256,19,54,-46,55,-3
11580,-253,18,53,-39,56,-4
11585,-254,17,52,-28,61,-4
11590,-255,17,48,-18,63,-5
11595,-253,20,47,-6,64,-5
11600,-256,22,47,2,64,-6
11605,-255,19,51,9,62,-8
11610,-256,21,47,15,63,-8
11615,-254,19,48,18,65,-7
11620,-252,22,47,17,66,-5
11625,-253,20,47,12,66,-6
11630,-255,24,45,8,66,-7
11635,-253,21,48,1,64,-9
11640,-251,23,49,-3,65,-8
11645,-251,20,47,-8,64,-6
11650,-252,18,46,-13,63,-7
11655,-253,24,47,-16,64,-9
11660,-253,23,52,-16,64,-6
11665,-257,21,43,-18,66,-6
11670,-252,20,50,-18,66,-4
11675,-252,19,50,-16,65,-4
11680,-255,20,47,-12,66,-5
11685,-252,22,49,-9,67,-5
11690,-253,21,51,-9,67,-5
11695,-254,21,48,-9,65,-8
11700,-255,20,47,-9,65,-8
11705,-252,23,50,-8,63,-6
11710,-254,21,48,-9,62,-5
11715,-250,18,49,-10,65,-3
11720,-253,21,51,-10,65,-2
11725,-252,22,49,-11,65,0
11730,-249,22,49,-15,64,1
11735,-255,22,54,-19,63,1
11740,-252,21,47,-26,61,2
11745,-255,22,49,-31,59,2
11750,-251,20,49,-34,57,-1
11755,-254,20,49,-36,56,-1
11760,-251,18,47,-37,56,-2
11765,-253,16,52,-35,55,-2
11770,-255,20,50,-33,55,-2
11775,-254,19,48,-32,58,-2
11780,-254,13,40,-29,60,-3
11785,-254,21,47,-28,62,-4
11790,-253,19,51,-28,63,-3
11795,-253,18,50,-29,64,-3
11800,-253,20,49,-32,66,-3
11805,-252,21,49,-38,66,-4
11810,-251,22,49,-44,67,-2
11815,-252,20,47,-52,68,-4
11820,-253,19,55,-61,69,-2
11825,-253,20,46,-67,72,-2
11830,-251,21,55,-73,73,-1
11835,-253,21,53,-77,74,0
11840,-250,21,50,-76,75,0
11845,-255,19,50,-75,77,-1
11850,-254,19,52,-70,78,-2
11855,-252,21,53,-65,77,0
11860,-254,20,50,-57,79,0
11865,-252,19,51,-48,78,1
11870,-253,20,51,-40,79,1
11875,-252,17,47,-31,78,0
11880,-252,18,50,-23,77,0
11885,-254,21,50,-16,78,-1
11890,-248,18,51,-14,76,-2
11895,-252,18,48,-12,74,-2
11900,-253,20,45,-12,73,-4
11905,-254,20,46,-11,73,-3
11910,-254,20,46,-8,71,-4
11915,-251,17,50,-7,71,-5
11920,-253,21,47,-6,71,-3
11925,-251,17,48,-6,71,-3
11930,-253,18,49,-5,70,-4
11935,-252,19,47,-6,67,-2
11940,-253,21,47,-7,69,-2
11945,-255,23,46,-8,69,-3
11950,-251,21,49,-10,70,-2
11955,-251,21,48,-14,70,-3
11960,-252,19,48,-15,71,-4
11965,-257,22,50,-19,74,-4
11970,-255,22,51,-22,74,-5
11975,-254,22,50,-21,76,-6
11980,-254,16,52,-21,78,-5
11985,-252,19,48,-22,78,-5
11990,-253,19,49,-21,79,-6
11995,-253,20,47,-20,81,-7
12000,-253,16,47,-20,81,-7
12005,-254,18,48,-20,81,-7
12010,-255,22,49,-19,81,-5
12015,-254,20,48,-18,81,-3
12020,-254,19,48,-17,80,-4
12025,-254,22,48,-14,81,-4
12030,-253,16,49,-12,78,-3
12035,-255,22,48,-9,75,-2
12040,-252,20,47,-8,75,-3
12045,-255,18,47,-4,72,-2
12050,-255,21,48,-1,70,-4
12055,-251,20,46,1,69,-2
12060,-254,20,47,1,69,-3
12065,-253,19,47,2,68,-3
12070,-249,18,48,2,66,-2
12075,-253,22,50,1,68,-1
12080,-253,21,52,0,68,-2
12085,-255,22,50,-2,68,-2
12090,-256,20,51,-4,68,-2
12095,-252,18,48,-8,68,-2
12100,-254,20,52,-12,70,-2
12105,-255,22,48,-17,69,-3
12110,-250,23,54,-25,70,-2
12115,-253,22,52,-31,71,-2
12120,-255,19,49,-36,72,-1
12125,-253,21,50,-38,72,-2
12130,-255,20,50,-41,74,0
12135,-253,22,48,-40,74,0
12140,-251,20,50,-35,74,1
12145,-251,17,50,-31,74,-1
12150,-253,21,53,-25,74,0
12155,-253,19,50,-19,73,3
12160,-250,17,44,-14,70,3
12165,-250,21,49,-10,68,1
12170,-251,18,48,-7,66,2
12175,-254,21,48,-9,66,0
12180,-254,19,49,-10,67,1
12185,-252,17,53,-10,69,1
12190,-255,20,47,-6,68,1
12195,-254,20,49,0,67,0
12200,-255,21,47,6,66,-2
12205,-253,21,46,12,64,-4
12210,-253,21,49,14,61,-4
12215,-253,21,45,13,61,-6
12220,-254,22,47,9,62,-7
12225,-254,24,49,2,64,-7
12230,-254,23,49,-7,66,-8
12235,-254,20,48,-13,69,-8
12240,-256,20,46,-16,71,-7
12245,-257,19,47,-17,71,-7
12250,-253,20,46,-14,70,-6
12255,-253,15,47,-9,70,-5
12260,-252,14,49,-2,70,-4
12265,-252,17,50,6,68,-5
12270,-251,16,48,14,68,-3
12275,-251,18,51,21,70,-3
12280,-251,19,46,29,73,-3
12285,-251,20,49,33,74,-2
12290,-253,21,45,36,78,-2
12295,-251,21,45,36,79,-3
12300,-251,20,49,35,78,-4
12305,-252,23,47,30,78,-5
12310,-252,20,49,24,74,-3
12315,-251,23,47,13,70,0
12320,-254,23,47,2,66,-1
12325,-251,21,48,-11,58,0
12330,-255,25,47,-24,55,0
12335,-253,22,51,-38,53,0
12340,-254,22,52,-49,50,0
12345,-253,23,52,-54,49,1
12350,-256,22,54,-55,50,0
12355,-255,17,47,-51,51,1
12360,-255,21,54,-42,51,2
12365,-253,18,47,-30,53,1
12370,-255,19,51,-17,55,2
12375,-246,16,54,-6,57,1
12380,-254,20,50,1,58,1
12385,-255,19,49,4,58,-1
12390,-251,20,49,6,59,-2
12395,-249,20,46,4,58,-2
12400,-254,22,47,1,58,-2
12405,-253,25,50,-6,59,-4
12410,-252,22,47,-15,61,-5
12415,-252,19,47,-22,62,-5
12420,-250,23,48,-33,63,-3
12425,-252,23,53,-43,65,-4
12430,-253,23,51,-50,68,-5
12435,-252,25,52,-55,69,-6
12440,-254,20,51,-62,70,-5
12445,-252,19,50,-66,71,-6
12450,-252,20,49,-71,71,-6
12455,-250,20,52,-74,71,-8
12460,-254,21,52,-78,72,-9
12465,-250,19,49,-79,73,-10
12470,-252,20,52,-79,74,-10
12475,-252,19,54,-81,76,-11
12480,-253,18,51,-79,75,-11
12485,-252,17,53,-76,76,-11
12490,-251,20,51,-72,76,-11
12495,-254,19,51,-67,76,-12
12500,-253,19,49,-61,78,-9
12505,-254,17,51,-55,76,-8
12510,-252,17,48,-48,76,-6
12515,-253,17,46,-44,76,-4
12520,-253,20,52,-40,75,-3
12525,-256,21,48,-37,75,-2
12530,-252,18,47,-37,76,-2
12535,-253,20,50,-37,74,-4
12540,-256,21,56,-39,73,-4
12545,-256,17,47,-38,73,-7
12550,-255,20,48,-33,73,-7
12555,-256,16,48,-27,71,-7
12560,-256,19,49,-18,72,-9
12565,-252,16,47,-11,75,-9
12570,-255,20,45,-2,74,-10
12575,-252,17,49,4,75,-11
12580,-251,14,49,9,77,-10
12585,-253,19,48,13,78,-11
12590,-255,18,48,16,78,-13
12595,-251,20,51,15,78,-13
12600,-252,18,47,13,77,-12
12605,-252,20,46,11,74,-10
12610,-252,22,47,5,71,-9
12615,-253,21,46,-3,72,-9
12620,-253,18,46,-13,70,-6
12625,-253,22,50,-23,72,-6
12630,-250,16,50,-33,74,-6
12635,-251,18,52,-43,76,-6
12640,-252,21,53,-52,79,-5
12645,-254,23,56,-58,82,-4
12650,-253,22,55,-59,84,-5
12655,-252,20,51,-58,85,-5
12660,-251,19,52,-56,87,-4
12665,-255,21,48,-51,88,-5
12670,-255,19,53,-45,88,-4
12675,-253,16,52,-39,92,-5
12680,-254,17,49,-31,93,-5
12685,-250,17,47,-24,95,-5
12690,-254,17,50,-16,96,-5
12695,-253,16,50,-9,98,-3
12700,-252,17,48,-3,100,-3
12705,-253,17,48,3,101,-3
12710,-252,18,50,10,100,-1
12715,-254,19,46,15,101,0
12720,-255,19,52,20,98,-1
12725,-254,17,50,24,95,-1
12730,-253,22,47,28,91,-1
12735,-254,20,48,29,89,0
12740,-255,21,41,29,86,0
12745,-252,18,47,26,84,-1
12750,-254,20,48,22,84,-2
12755,-254,21,45,16,83,-2
12760,-253,21,48,10,84,-3
12765,-255,22,48,2,84,-2
12770,-254,17,45,-5,87,-3
12775,-255,23,48,-13,86,-5
12780,-253,18,47,-19,89,-7
12785,-251,19,46,-27,91,-5
12790,-254,21,45,-31,92,-7
12795,-251,20,46,-37,94,-8
12800,-254,23,47,-45,95,-9
12805,-256,21,50,-51,98,-7
12810,-252,18,49,-57,99,-6
12815,-255,20,50,-59,103,-6
12820,-255,19,45,-62,104,-6
12825,-253,17,46,-62,105,-6
12830,-253,17,49,-63,106,-6
12835,-254,19,46,-61,104,-4
12840,-252,16,51,-59,102,-3
12845,-253,17,47,-60,101,-3
12850,-254,18,48,-55,99,-3
12855,-255,16,46,-50,98,-3
12860,-251,17,45,-44,99,-2
12865,-255,17,47,-40,99,-2
12870,-254,27,42,-39,98,-1
12875,-251,18,46,-36,100,-1
12880,-254,18,49,-35,102,-1
12885,-252,22,48,-30,102,-2
12890,-255,22,48,-29,107,-2
12895,-254,19,45,-30,111,-2
12900,-255,19,46,-30,114,-5
12905,-254,18,46,-31,118,-4
12910,-255,18,44,-34,119,-3
12915,-256,17,45,-36,120,-4
12920,-254,20,45,-39,119,-5
12925,-255,20,45,-41,117,-7
12930,-253,15,46,-42,115,-6
12935,-256,18,46,-41,113,-8
12940,-252,14,45,-39,108,-6
12945,-253,16,48,-39,103,-5
12950,-256,16,48,-38,98,-3
12955,-252,17,51,-35,92,-2
12960,-254,17,49,-32,87,-1
12965,-252,20,48,-34,87,2
12970,-251,21,45,-44,92,5
12975,-249,19,45,-57,98,7
12980,-250,20,52,-68,104,9
12985,-253,21,47,-75,109,6
12990,-249,20,47,-78,111,7
12995,-252,21,48,-80,111,6
13000,-251,18,46,-77,110,4
13005,-254,19,46,-74,112,2
13010,-253,19,46,-73,115,1
13015,-254,19,46,-72,118,1
13020,-255,18,42,-67,120,1
13025,-253,18,41,-63,119,0
13030,-255,19,44,-57,116,1
13035,-254,17,45,-53,111,3
13040,-254,17,45,-51,107,3
13045,-255,17,46,-49,104,2
13050,-255,17,44,-48,101,2
13055,-255,16,46,-43,96,3
13060,-254,14,44,-38,95,3
13065,-255,19,47,-33,94,3
13070,-255,13,45,-28,91,4
13075,-256,18,46,-20,87,4
13080,-256,23,41,-8,79,0
13085,-253,20,46,1,75,0
13090,-255,19,44,1,78,0
13095,-253,22,46,0,79,0
13100,-253,23,44,-3,80,1
13105,-252,19,43,-7,79,2
13110,-251,25,45,-16,81,1
13115,-254,18,45,-25,83,-3
13120,-253,22,44,-33,84,-4
13125,-250,20,46,-36,84,-6
13130,-254,20,44,-39,86,-7
13135,-255,20,46,-40,87,-7
13140,-254,18,46,-41,89,-7
13145,-253,16,46,-44,87,-9
13150,-254,18,44,-44,88,-8
13155,-252,16,45,-44,89,-8
13160,-255,20,45,-42,91,-7
13165,-254,16,43,-42,91,-7
13170,-255,18,43,-39,90,-7
13175,-255,17,45,-36,90,-6
13180,-253,20,44,-34,90,-4
13185,-252,19,43,-33,91,-1
13190,-254,17,45,-34,89,0
13195,-256,17,40,-36,87,2
13200,-256,18,44,-37,84,4
13205,-256,21,44,-39,82,4
13210,-253,18,45,-42,80,3
13215,-255,16,43,-43,79,2
13220,-254,18,45,-42,79,1
13225,-255,19,44,-39,79,-1
13230,-255,19,46,-36,79,-2
13235,-256,18,45,-30,80,-1
13240,-256,16,44,-28,80,0
13245,-251,16,37,-26,80,0
13250,-251,18,44,-25,81,3
13255,-255,20,44,-25,80,3
13260,-252,17,44,-31,78,2
13265,-252,16,47,-34,77,1
13270,-254,19,46,-40,74,1
13275,-250,18,45,-43,76,-1
13280,-254,21,46,-47,77,1
13285,-254,16,44,-50,78,1
13290,-252,19,45,-52,80,0
13295,-251,18,45,-52,83,1
13300,-253,16,44,-54,84,2
13305,-255,22,45,-55,85,3
13310,-256,20,45,-58,85,6
13315,-256,21,45,-58,86,5
13320,-255,15,44,-55,87,4
13325,-255,19,44,-52,86,1
13330,-252,15,46,-50,86,0
13335,-255,17,44,-44,87,-1
13340,-254,18,42,-41,88,-2
13345,-256,17,44,-39,86,0
13350,-252,19,44,-36,83,2
13355,-254,19,45,-33,81,0
13360,-253,16,45,-29,81,2
13365,-254,14,42,-27,80,2
13370,-253,16,41,-25,80,4
13375,-254,16,45,-21,78,5
13380,-256,19,44,-18,75,3
13385,-254,20,44,-16,72,1
13390,-255,20,41,-13,70,-1
13395,-258,17,47,-11,69,-1
13400,-254,19,44,-10,68,-2
13405,-254,18,43,-9,68,-5
13410,-255,19,43,-7,67,-6
13415,-252,18,46,-5,67,-6
13420,-255,18,44,-4,66,-6
13425,-254,18,42,-2,67,-6
13430,-252,20,44,1,67,-5
13435,-255,21,44,1,65,-5
13440,-254,17,42,1,64,-4
13445,-255,18,43,1,61,-5
13450,-252,17,42,1,62,-5
13455,-252,19,45,0,61,-6
13460,-256,21,43,0,60,-6
13465,-255,18,44,2,58,-5
13470,-254,18,40,3,56,-5
13475,-254,17,43,6,56,-5
13480,-253,16,45,10,54,-5
13485,-252,20,42,15,53,-3
13490,-256,19,43,17,51,-2
13495,-251,16,42,19,48,-2
13500,-256,19,46,20,45,-2
13505,-256,16,45,20,42,-2
13510,-253,18,44,17,40,-3
13515,-255,15,46,13,38,-2
13520,-251,19,44,10,38,0
13525,-255,18,47,5,38,-1
13530,-254,16,47,4,38,-1
13535,-255,19,45,5,39,-2
13540,-253,18,43,7,40,-2
13545,-255,16,44,13,43,-3
13550,-256,18,44,20,44,-2
13555,-256,21,43,28,45,-1
13560,-254,17,42,34,43,-1
13565,-255,21,43,36,41,1
13570,-255,22,42,38,40,-2
13575,-254,18,45,37,37,-2
13580,-254,20,42,35,36,-4
13585,-254,17,43,35,35,-5
13590,-255,16,42,33,34,-4
13595,-254,18,44,31,33,-2
13600,-251,16,45,31,32,-1
13605,-255,19,45,29,31,1
13610,-256,18,47,24,30,3
13615,-254,17,47,20,31,2
13620,-253,18,46,16,32,4
13625,-251,16,51,13,35,4
13630,-253,18,48,12,38,4
13635,-251,21,49,13,41,6
13640,-252,21,47,14,44,6
13645,-248,17,47,16,46,7
13650,-252,21,45,17,49,7
13655,-255,23,44,19,50,7
13660,-252,17,46,18,50,7
13665,-253,19,46,20,50,6
13670,-256,17,42,20,50,3
13675,-254,20,45,22,49,2
13680,-256,20,44,22,47,2
13685,-255,20,44,21,44,2
13690,-256,17,44,20,40,4
13695,-253,18,42,21,37,3
13700,-253,18,45,21,36,4
13705,-256,17,45,22,34,3
13710,-256,20,44,24,34,2
13715,-254,19,45,26,33,2
13720,-255,20,45,30,34,4
13725,-254,20,44,34,35,5
13730,-254,21,43,38,35,5
13735,-254,20,46,41,36,3
13740,-249,21,52,44,36,1
13745,-255,18,48,46,36,-1
13750,-255,20,45,48,35,-1
13755,-254,22,45,49,34,-1
13760,-255,19,46,47,31,-2
13765,-255,22,49,45,30,-4
13770,-253,20,45,43,30,-7
13775,-252,20,46,38,28,-8
13780,-254,18,43,35,29,-9
13785,-252,18,48,32,31,-11
13790,-250,18,49,31,33,-11
13795,-253,19,47,30,37,-11
13800,-255,17,45,29,38,-9
13805,-255,19,48,30,41,-10
13810,-253,18,49,30,43,-8
13815,-254,19,47,31,44,-10
13820,-254,19,45,34,46,-7
13825,-254,18,45,38,48,-7
13830,-252,17,49,40,49,-5
13835,-253,19,46,44,48,-6
13840,-253,17,45,48,45,-6
13845,-251,22,44,52,44,-5
13850,-256,20,44,52,43,-6
13855,-254,20,48,54,41,-4
13860,-253,19,45,52,41,-4
13865,-254,20,44,50,38,-3
13870,-253,19,44,45,35,-2
13875,-254,21,46,40,32,-1
13880,-253,20,47,36,30,-1
13885,-251,18,47,30,29,-2
13890,-255,18,46,27,30,-1
13895,-253,17,46,28,30,-2
13900,-255,19,43,26,31,-1
13905,-252,16,46,30,33,1
13910,-253,20,49,34,34,0
13915,-253,16,48,37,36,1
13920,-251,18,50,37,37,0
13925,-254,20,45,39,40,1
13930,-253,18,48,40,42,0
13935,-253,21,51,38,42,0
13940,-251,21,49,36,44,-1
13945,-252,18,47,34,47,-3
13950,-251,20,46,32,48,-2
13955,-251,21,48,27,49,-1
13960,-254,21,50,21,52,-2
13965,-255,20,47,16,52,0
13970,-254,20,47,12,53,2
13975,-254,22,48,6,53,3
13980,-252,21,48,0,53,2
13985,-254,20,48,-5,51,3
13990,-251,20,48,-11,49,3
13995,-253,21,49,-16,47,3
14000,-253,18,50,-20,47,1
14005,-256,24,51,-24,47,0
14010,-254,22,47,-28,48,0
14015,-256,21,50,-32,51,0
14020,-254,21,46,-34,55,-1
14025,-254,23,51,-35,59,-2
14030,-255,22,49,-35,61,-2
14035,-253,20,48,-31,64,-4
14040,-254,20,45,-29,65,-2
14045,-254,19,51,-23,64,-1
14050,-256,22,47,-20,64,-2
14055,-254,19,48,-13,64,-2
14060,-252,18,44,-8,64,-2
14065,-251,17,48,-1,62,-2
14070,-251,18,49,2,61,-1
14075,-254,22,46,8,60,-2
14080,-252,21,50,11,58,-2
14085,-252,20,50,13,58,-3
14090,-255,21,48,14,57,-2
14095,-253,20,47,14,55,-2
14100,-255,18,47,13,57,-1
14105,-254,23,49,13,57,0
14110,-253,21,46,10,55,-2
14115,-252,20,48,8,52,-1
14120,-252,20,48,4,49,-5
14125,-256,21,48,1,47,-5
14130,-253,22,49,-4,47,-5
14135,-253,18,46,-10,47,-7
14140,-253,21,48,-10,50,-6
14145,-253,15,50,-10,53,-6
14150,-254,20,47,-8,55,-5
14155,-254,20,47,-4,58,-4
14160,-252,17,47,0,58,-5
14165,-256,20,51,5,59,-5
14170,-250,18,49,6,58,-3
14175,-254,20,50,6,59,-4
14180,-253,21,47,3,59,-3
14185,-254,21,49,0,60,-2
14190,-254,18,48,-7,60,0
14195,-255,21,49,-12,59,-2
14200,-253,22,48,-17,61,-3
14205,-253,21,52,-21,62,-3
14210,-253,18,51,-23,60,-3
14215,-253,21,51,-23,59,-1
14220,-252,18,49,-25,57,0
14225,-256,19,49,-25,54,1
14230,-251,20,46,-27,52,2
14235,-252,19,50,-27,52,3
14240,-253,20,50,-29,53,4
14245,-255,19,48,-28,54,4
14250,-251,20,47,-26,53,3
14255,-255,20,48,-19,54,3
14260,-253,20,52,-11,53,2
14265,-254,20,50,-1,52,-1
14270,-253,20,48,9,49,-1
14275,-255,20,47,17,46,-3
14280,-252,19,50,22,46,-4
14285,-257,17,48,23,46,-4
14290,-251,21,50,18,47,-4
14295,-255,19,49,11,50,-5
14300,-256,21,51,3,52,-5
14305,-253,19,49,-6,54,-4
14310,-255,20,51,-10,56,-5
14315,-254,19,50,-13,56,-3
14320,-254,16,51,-12,57,-3
14325,-255,20,51,-8,55,-3
14330,-252,19,54,-5,55,-3
14335,-244,18,43,1,56,-2
14340,-251,17,53,8,57,0
14345,-253,19,49,15,57,-1
14350,-251,19,51,24,60,-1
14355,-249,22,48,33,62,-3
14360,-250,19,47,40,64,0
14365,-251,19,45,45,64,-2
14370,-251,21,49,47,65,0
14375,-253,21,49,45,62,0
14380,-253,21,48,39,60,1
14385,-250,23,47,30,55,3
14390,-254,23,46,18,54,2
14395,-252,22,49,4,52,4
14400,-252,24,51,-11,50,4
14405,-253,23,50,-24,50,3
14410,-255,22,52,-36,51,4
14415,-252,21,51,-43,53,2
14420,-256,21,52,-47,54,1
14425,-255,23,52,-48,57,0
14430,-254,17,44,-46,57,0
14435,-255,19,49,-39,57,1
14440,-252,20,49,-31,58,0
14445,-254,19,52,-22,59,-2
14450,-256,20,50,-11,58,-2
14455,-254,21,52,-1,59,-4
14460,-255,19,49,8,59,-4
14465,-253,17,52,16,60,-5
14470,-254,20,49,23,61,-5
14475,-255,21,49,24,61,-5
14480,-250,21,47,24,63,-3
14485,-253,25,49,22,64,-5
14490,-254,22,50,17,67,-5
14495,-248,20,50,11,68,-5
14500,-252,26,50,4,68,-5
14505,-253,24,49,-2,68,-4
14510,-253,19,51,-8,69,-4
14515,-251,21,53,-14,67,-5
14520,-252,20,52,-16,67,-6
14525,-251,21,46,-16,68,-7
14530,-250,19,51,-17,67,-7
14535,-249,20,47,-16,66,-7
14540,-253,19,49,-13,66,-7
14545,-253,20,51,-9,65,-8
14550,-254,22,51,-6,65,-7
14555,-252,21,49,-1,65,-8
14560,-253,21,49,3,64,-6
14565,-251,20,47,8,64,-5
14570,-253,18,49,10,65,-3
14575,-253,19,53,11,66,-2
14580,-251,20,48,10,65,0
14585,-256,23,50,9,65,0
14590,-251,20,53,7,63,1
14595,-251,21,50,4,62,3
14600,-253,20,50,2,59,3
14605,-253,22,47,1,58,2
14610,-255,19,50,2,57,2
14615,-253,21,53,3,57,1
14620,-254,20,46,4,57,1
14625,-256,20,49,7,58,-1
14630,-253,20,49,10,58,-1
14635,-252,17,47,14,60,0
14640,-252,21,50,18,61,-1
14645,-251,18,50,20,63,-2
14650,-251,16,48,19,65,-3
14655,-251,20,47,19,67,-4
14660,-253,19,49,17,67,-1
14665,-252,18,49,10,67,-1
14670,-252,23,49,3,67,-1
14675,-252,19,49,-5,67,1
14680,-253,23,49,-12,67,1
14685,-255,24,52,-18,66,2
14690,-250,22,51,-23,66,3
14695,-253,24,50,-25,67,4
14700,-251,24,53,-26,68,3
14705,-250,19,54,-24,70,3
14710,-254,22,50,-23,69,3
14715,-253,22,53,-19,69,4
14720,-252,23,52,-15,70,3
14725,-253,19,51,-11,71,1
14730,-251,17,49,-8,69,-1
14735,-253,22,49,-5,71,0
14740,-250,20,50,-1,73,0
14745,-255,18,50,2,72,-1
14750,-254,19,47,5,74,-2
14755,-255,22,45,8,73,-2
14760,-254,18,53,14,74,0
14765,-254,24,45,17,72,-1
14770,-253,19,46,23,70,-1
14775,-255,22,50,29,71,0
14780,-253,22,50,35,68,0
14785,-251,18,49,39,68,0
14790,-254,21,49,40,63,-1
14795,-254,23,48,41,62,0
14800,-250,19,50,42,62,1
14805,-250,21,51,40,61,1
14810,-253,19,47,38,62,0
14815,-253,23,48,33,62,-3
14820,-254,24,48,28,63,-5
14825,-251,23,49,25,65,-5
14830,-254,18,44,21,65,-5
14835,-254,22,49,17,66,-4
14840,-252,24,48,13,67,-5
14845,-252,21,50,8,67,-4
14850,-255,23,50,3,66,-5
14855,-254,22,52,-1,68,-5
14860,-255,23,51,-5,67,-4
14865,-257,23,52,-9,67,-5
14870,-256,23,48,-11,68,-4
14875,-254,19,53,-13,66,-2
14880,-252,21,50,-15,67,-2
14885,-254,21,49,-16,68,-2
14890,-252,21,47,-15,67,-3
14895,-253,19,52,-15,68,-4
14900,-254,21,53,-14,67,-3
14905,-253,18,51,-13,68,-3
14910,-253,21,48,-11,67,-2
14915,-251,23,48,-11,66,-2
14920,-251,21,51,-9,64,-2
14925,-255,23,49,-10,64,0
14930,-252,17,51,-9,63,-1
14935,-253,21,52,-9,63,-1
14940,-254,20,47,-8,64,-1
14945,-252,21,49,-9,65,-1
14950,-253,22,51,-10,65,0
14955,-249,22,51,-11,67,-1
14960,-253,23,52,-11,66,-1
14965,-251,20,49,-12,65,-1
14970,-252,21,50,-16,65,-1
14975,-251,17,46,-15,66,-1
14980,-253,22,50,-15,67,-1
14985,-252,20,49,-14,67,1
14990,-255,23,52,-15,66,0
14995,-250,17,53,-13,67,-1
