timestamp,acc_x,acc_y,acc_z,gyro_x,gyro_y,gyro_z
0,34,-205,-134,36,13,-14
5,33,-203,-140,39,14,-15
10,41,-204,-133,40,13,-14
15,36,-201,-138,36,15,-15
20,41,-205,-136,34,16,-15
25,39,-209,-137,31,15,-14
30,39,-204,-132,30,15,-12
35,40,-203,-137,32,16,-14
40,39,-205,-140,35,16,-15
45,40,-205,-133,39,16,-13
50,39,-202,-140,42,15,-14
55,37,-204,-136,45,14,-13
60,38,-202,-136,48,12,-15
65,39,-203,-137,50,11,-15
70,35,-204,-132,50,8,-16
75,37,-207,-133,50,6,-16
80,39,-204,-130,51,6,-18
85,38,-204,-139,53,6,-17
90,36,-203,-140,55,8,-16
95,38,-202,-135,58,10,-15
100,40,-205,-138,60,11,-13
105,40,-206,-136,64,14,-14
110,38,-205,-139,68,15,-15
115,34,-204,-134,70,16,-16
120,40,-204,-137,71,15,-18
125,38,-201,-141,70,15,-17
130,36,-203,-139,66,13,-17
135,37,-201,-134,66,12,-18
140,35,-200,-137,65,13,-20
145,35,-204,-135,64,10,-20
150,36,-201,-138,64,10,-21
155,37,-203,-137,66,10,-21
160,36,-203,-140,67,10,-20
165,37,-206,-136,66,9,-22
170,34,-200,-143,69,9,-24
175,34,-202,-141,68,8,-25
180,37,-205,-137,67,7,-23
185,38,-205,-139,64,8,-24
190,36,-200,-140,59,6,-23
195,35,-202,-139,56,6,-22
200,37,-202,-137,51,7,-20
205,38,-205,-140,49,6,-23
210,38,-203,-139,46,6,-24
215,37,-200,-138,47,5,-25
220,35,-201,-134,48,7,-26
225,37,-201,-135,48,8,-26
230,34,-202,-141,50,9,-26
235,38,-198,-136,52,7,-24
240,36,-203,-143,53,7,-27
245,34,-201,-136,55,8,-25
250,36,-204,-137,53,6,-26
255,34,-203,-136,53,6,-24
260,37,-202,-136,53,6,-26
265,36,-201,-135,51,6,-24
270,35,-204,-141,49,5,-21
275,38,-207,-137,49,6,-20
280,38,-203,-139,48,6,-19
285,37,-205,-138,46,7,-18
290,34,-200,-140,45,6,-17
295,36,-205,-134,43,7,-19
300,37,-203,-135,45,8,-19
305,36,-201,-139,49,8,-18
310,37,-202,-137,50,8,-18
315,37,-198,-135,54,7,-17
320,38,-200,-139,57,7,-17
325,38,-202,-137,59,7,-19
330,40,-202,-135,58,5,-19
335,39,-203,-136,57,6,-20
340,37,-201,-137,54,7,-19
345,37,-202,-139,49,8,-16
350,33,-202,-138,47,8,-17
355,38,-205,-134,45,8,-16
360,39,-203,-136,45,8,-15
365,36,-203,-136,46,10,-15
370,37,-200,-136,48,10,-15
375,38,-202,-136,51,13,-14
380,40,-203,-134,50,13,-15
385,40,-200,-137,49,14,-16
390,40,-206,-138,50,13,-15
395,39,-200,-137,49,11,-14
400,41,-206,-137,48,12,-15
405,40,-207,-135,49,11,-15
410,40,-203,-140,48,10,-14
415,37,-201,-134,46,11,-13
420,38,-202,-136,46,12,-13
425,39,-203,-137,47,13,-14
430,40,-204,-137,48,13,-15
435,37,-199,-139,49,14,-14
440,35,-201,-139,52,18,-12
445,39,-201,-139,55,17,-12
450,36,-205,-135,56,17,-12
455,38,-203,-139,61,18,-13
460,39,-207,-135,64,18,-13
465,35,-201,-142,68,18,-13
470,36,-204,-135,70,17,-12
475,37,-203,-138,70,19,-14
480,37,-205,-139,69,17,-13
485,38,-201,-132,68,17,-12
490,37,-198,-137,65,15,-11
495,41,-207,-138,64,14,-8
500,36,-199,-139,63,14,-9
505,40,-201,-139,62,15,-8
510,36,-203,-134,62,14,-7
515,37,-208,-142,60,15,-6
520,41,-206,-136,59,14,-4
525,38,-203,-139,58,13,-5
530,41,-206,-136,57,12,-7
535,38,-204,-139,56,13,-7
540,38,-203,-138,57,14,-9
545,40,-202,-135,56,15,-9
550,37,-199,-143,56,18,-9
555,37,-203,-137,56,17,-11
560,40,-201,-135,57,19,-9
565,32,-201,-140,57,21,-9
570,39,-203,-142,58,22,-8
575,36,-203,-139,59,23,-10
580,39,-203,-137,59,23,-7
585,38,-202,-134,60,22,-6
590,37,-204,-139,63,22,-5
595,39,-205,-135,64,22,-5
600,41,-203,-138,62,21,-3
605,37,-200,-135,61,19,-2
610,39,-203,-135,59,19,-2
615,39,-203,-137,60,18,-1
620,40,-207,-136,60,18,-2
625,40,-205,-139,59,18,-1
630,39,-203,-138,59,17,-2
635,38,-203,-134,57,18,-4
640,36,-201,-133,56,17,-4
645,37,-204,-138,55,17,-5
650,38,-203,-137,54,18,-6
655,35,-202,-136,52,18,-7
660,39,-203,-138,51,18,-9
665,35,-201,-137,52,19,-8
670,37,-204,-141,51,19,-7
675,34,-201,-137,52,18,-10
680,39,-206,-137,53,19,-7
685,36,-204,-139,54,18,-6
690,38,-203,-138,56,17,-4
695,39,-203,-135,57,15,-3
700,37,-202,-135,59,14,-2
705,37,-204,-135,63,11,-2
710,37,-203,-136,62,10,-2
715,36,-203,-136,62,9,-1
720,38,-206,-134,61,8,0
725,40,-201,-136,58,7,0
730,37,-203,-135,54,7,0
735,35,-201,-133,53,6,-1
740,34,-201,-138,52,7,0
745,38,-205,-136,50,8,0
750,38,-204,-131,51,10,-1
755,38,-206,-132,51,11,-2
760,36,-205,-134,53,12,-3
765,39,-206,-137,55,13,-4
770,33,-201,-138,58,13,-5
775,39,-206,-136,61,13,-6
780,39,-204,-133,64,13,-5
785,39,-205,-138,67,13,-7
790,39,-202,-137,70,14,-9
795,40,-204,-136,70,14,-9
800,41,-206,-137,71,14,-9
805,40,-205,-138,72,15,-9
810,37,-203,-135,72,16,-9
815,37,-204,-137,74,17,-11
820,37,-201,-139,75,17,-12
825,38,-202,-136,75,18,-12
830,39,-205,-144,76,19,-14
835,41,-206,-139,78,20,-14
840,36,-203,-142,79,23,-15
845,38,-203,-136,81,22,-15
850,36,-201,-134,81,21,-14
855,37,-201,-134,80,21,-12
860,38,-205,-139,77,18,-13
865,37,-201,-137,72,18,-13
870,39,-202,-138,67,16,-13
875,38,-205,-137,62,15,-12
880,35,-200,-134,56,13,-13
885,36,-201,-141,52,13,-11
890,39,-204,-133,49,11,-11
895,39,-207,-132,48,9,-10
900,38,-203,-134,46,10,-9
905,34,-202,-134,44,11,-10
910,37,-205,-133,43,12,-11
915,35,-205,-136,45,13,-11
920,36,-207,-140,47,11,-10
925,37,-201,-140,51,11,-11
930,38,-203,-137,52,16,-13
935,36,-201,-136,52,20,-10
940,37,-204,-135,54,21,-11
945,38,-203,-134,55,24,-11
950,40,-202,-139,56,24,-10
955,40,-203,-136,54,24,-10
960,37,-204,-134,54,25,-9
965,39,-203,-138,55,24,-8
970,35,-199,-137,55,24,-8
975,37,-202,-135,56,20,-6
980,37,-203,-136,57,19,-6
985,36,-201,-132,57,18,-5
990,37,-202,-136,55,17,-2
995,37,-203,-136,55,18,-2
1000,35,-204,-136,56,16,-3
1005,40,-203,-142,59,20,-3
1010,35,-202,-135,64,21,-5
1015,32,-201,-138,71,21,-8
1020,31,-202,-134,76,23,-7
1025,36,-206,-136,80,23,-9
1030,32,-204,-134,84,24,-10
1035,31,-204,-136,84,23,-12
1040,35,-203,-133,84,22,-14
1045,35,-207,-135,81,24,-15
1050,35,-203,-137,77,22,-14
1055,34,-204,-130,73,22,-15
1060,39,-203,-136,67,19,-12
1065,38,-201,-134,65,18,-11
1070,39,-205,-134,63,15,-11
1075,39,-200,-136,62,14,-9
1080,40,-206,-138,60,12,-9
1085,37,-203,-137,60,10,-9
1090,37,-201,-134,60,8,-5
1095,41,-204,-136,60,8,-5
1100,37,-203,-132,60,8,-6
1105,40,-203,-134,64,8,-8
1110,39,-204,-138,67,11,-7
1115,38,-206,-134,71,13,-9
1120,36,-203,-133,74,15,-11
1125,35,-203,-136,75,18,-11
1130,39,-204,-134,77,19,-11
1135,40,-207,-132,77,18,-10
1140,36,-203,-135,74,19,-10
1145,37,-201,-135,72,17,-8
1150,37,-203,-135,68,16,-8
1155,36,-202,-137,64,17,-6
1160,40,-204,-133,63,15,-6
1165,37,-198,-139,63,14,-6
1170,38,-205,-134,64,12,-5
1175,38,-201,-134,65,11,-5
1180,39,-203,-134,68,11,-4
1185,42,-202,-132,70,12,-5
1190,39,-205,-131,72,10,-6
1195,39,-203,-134,72,9,-6
1200,40,-206,-134,72,9,-6
1205,39,-205,-135,70,8,-4
1210,42,-204,-133,65,7,-5
1215,38,-206,-135,63,9,-3
1220,41,-207,-137,62,7,-3
1225,40,-205,-136,62,8,-5
1230,39,-202,-131,64,7,-4
1235,39,-205,-134,66,8,-4
1240,36,-201,-133,68,11,-5
1245,40,-204,-132,72,12,-5
1250,41,-203,-137,73,13,-5
1255,41,-206,-133,74,15,-4
1260,43,-203,-137,73,14,-4
1265,39,-203,-134,68,13,-5
1270,39,-203,-133,65,13,-7
1275,39,-205,-130,63,13,-7
1280,39,-202,-131,60,13,-6
1285,37,-202,-132,58,11,-8
1290,39,-206,-134,59,10,-7
1295,38,-204,-134,61,11,-7
1300,38,-206,-134,64,11,-8
1305,41,-207,-133,65,11,-8
1310,36,-203,-137,68,10,-9
1315,36,-203,-134,69,11,-8
1320,42,-206,-135,70,11,-8
1325,39,-207,-135,72,12,-9
1330,41,-207,-137,72,10,-7
1335,39,-203,-136,72,10,-7
1340,39,-204,-140,76,10,-7
1345,37,-202,-140,76,11,-7
1350,39,-202,-132,77,11,-6
1355,38,-202,-135,78,12,-7
1360,39,-205,-140,76,11,-10
1365,40,-203,-139,76,11,-9
1370,37,-205,-132,74,11,-10
1375,40,-203,-135,71,9,-10
1380,37,-208,-134,69,10,-12
1385,37,-208,-132,70,12,-10
1390,38,-204,-133,69,13,-8
1395,38,-204,-134,70,15,-9
1400,39,-204,-133,72,17,-8
1405,33,-209,-131,72,17,-6
1410,34,-205,-130,74,16,-5
1415,40,-205,-133,78,18,-5
1420,37,-206,-132,78,20,-5
1425,35,-201,-138,78,21,-6
1430,37,-202,-133,80,23,-7
1435,37,-205,-130,84,21,-6
1440,33,-208,-139,85,23,-6
1445,37,-202,-135,85,24,-6
1450,33,-202,-130,84,24,-5
1455,39,-206,-133,80,25,-5
1460,39,-207,-132,76,25,-6
1465,35,-204,-137,70,25,-5
1470,35,-202,-136,68,26,-6
1475,38,-206,-137,68,24,-5
1480,37,-205,-136,68,24,-5
1485,38,-203,-135,68,23,-6
1490,42,-204,-133,70,22,-6
1495,35,-207,-126,70,22,-5
1500,38,-205,-132,71,21,-2
1505,37,-203,-130,71,21,-1
1510,39,-208,-133,71,22,-2
1515,36,-206,-136,71,21,-3
1520,37,-205,-139,71,20,-4
1525,37,-205,-136,72,22,-5
1530,38,-207,-131,72,24,-7
1535,37,-205,-132,72,25,-10
1540,35,-204,-133,73,26,-10
1545,33,-206,-136,75,26,-10
1550,32,-205,-134,73,29,-13
1555,34,-204,-133,71,30,-13
1560,39,-207,-135,68,30,-12
1565,38,-206,-134,67,30,-14
1570,36,-203,-135,63,30,-13
1575,36,-207,-132,60,30,-11
1580,38,-205,-132,59,30,-10
1585,38,-206,-136,59,31,-10
1590,38,-207,-133,60,31,-10
1595,37,-203,-132,61,30,-7
1600,40,-210,-134,61,31,-7
1605,35,-203,-133,65,28,-8
1610,35,-205,-134,67,26,-8
1615,33,-203,-132,68,25,-9
1620,35,-205,-135,69,25,-8
1625,37,-205,-131,66,24,-8
1630,36,-203,-132,65,23,-6
1635,35,-204,-136,62,24,-5
1640,39,-206,-135,61,23,-4
1645,39,-205,-134,60,23,-4
1650,33,-205,-129,61,22,-4
1655,38,-205,-135,63,23,-3
1660,39,-204,-131,64,23,-4
1665,37,-206,-128,65,24,-4
1670,36,-205,-133,66,25,-4
1675,39,-208,-132,67,26,-3
1680,37,-205,-135,68,27,-3
1685,38,-206,-131,70,26,-3
1690,34,-206,-137,73,27,-3
1695,43,-206,-134,75,30,-3
1700,35,-203,-134,77,29,-3
1705,42,-209,-132,78,28,-3
1710,39,-204,-137,77,28,-2
1715,41,-206,-131,75,27,-1
1720,38,-204,-130,73,25,-1
1725,37,-204,-134,69,23,-4
1730,38,-205,-133,64,23,-2
1735,39,-208,-132,60,21,-3
1740,38,-204,-136,57,21,-4
1745,42,-206,-134,57,21,-3
1750,37,-206,-136,58,20,-4
1755,39,-210,-130,58,20,-5
1760,37,-205,-129,59,18,-4
1765,34,-206,-132,61,18,-4
1770,40,-209,-129,63,16,-4
1775,39,-207,-133,63,17,-5
1780,37,-208,-132,64,18,-5
1785,40,-207,-133,65,17,-5
1790,39,-207,-131,64,17,-5
1795,38,-206,-132,65,17,-6
1800,38,-207,-132,63,18,-8
1805,37,-207,-134,61,19,-10
1810,38,-203,-131,58,19,-10
1815,40,-204,-132,55,18,-10
1820,39,-202,-141,55,18,-9
1825,34,-209,-129,55,18,-12
1830,38,-208,-133,55,19,-13
1835,38,-206,-129,56,19,-13
1840,38,-208,-135,57,18,-15
1845,40,-206,-131,58,17,-16
1850,41,-208,-132,59,17,-17
1855,37,-205,-131,60,17,-19
1860,35,-209,-129,59,17,-19
1865,36,-206,-132,59,18,-17
1870,42,-207,-133,57,18,-17
1875,36,-202,-131,55,18,-15
1880,38,-207,-133,54,19,-15
1885,38,-210,-133,52,17,-14
1890,39,-209,-130,50,18,-14
1895,37,-208,-133,50,19,-13
1900,37,-210,-131,51,21,-11
1905,37,-206,-133,53,20,-11
1910,38,-207,-130,56,20,-10
1915,36,-205,-131,57,21,-11
1920,37,-207,-134,59,21,-11
1925,38,-206,-133,56,21,-10
1930,39,-211,-132,53,20,-10
1935,38,-206,-130,50,20,-12
1940,37,-208,-131,45,18,-12
1945,35,-206,-129,40,18,-11
1950,35,-206,-131,38,19,-12
1955,35,-203,-130,36,18,-13
1960,37,-204,-132,37,16,-11
1965,35,-205,-130,39,18,-11
1970,39,-207,-130,43,17,-9
1975,39,-204,-129,49,16,-8
1980,36,-203,-132,53,18,-6
1985,40,-207,-128,58,18,-4
1990,40,-209,-131,65,17,-5
1995,38,-207,-132,71,17,-5
2000,40,-211,-131,79,18,-4
2005,39,-205,-131,86,18,-7
2010,37,-203,-133,92,16,-9
2015,38,-205,-133,97,16,-11
2020,39,-205,-133,98,17,-13
2025,38,-202,-132,99,17,-14
2030,36,-206,-131,96,15,-14
2035,37,-206,-131,89,15,-15
2040,38,-214,-130,82,10,-15
2045,40,-205,-133,74,9,-17
2050,39,-206,-129,68,7,-15
2055,38,-206,-128,64,8,-13
2060,43,-208,-132,65,8,-11
2065,41,-207,-130,66,11,-11
2070,40,-207,-130,71,11,-10
2075,37,-207,-133,77,11,-11
2080,39,-209,-136,82,13,-10
2085,43,-203,-138,86,14,-12
2090,34,-203,-138,88,15,-13
2095,36,-205,-132,87,16,-11
2100,37,-208,-132,83,15,-11
2105,35,-202,-135,77,15,-11
2110,37,-204,-132,73,12,-9
2115,41,-209,-132,67,10,-13
2120,39,-204,-133,62,10,-13
2125,40,-206,-133,58,9,-13
2130,44,-212,-130,56,9,-14
2135,39,-209,-133,57,11,-11
2140,39,-208,-132,55,11,-10
2145,42,-211,-136,56,11,-9
2150,38,-208,-133,59,11,-7
2155,37,-206,-131,61,10,-6
2160,36,-206,-133,63,11,-7
2165,37,-206,-131,66,12,-8
2170,37,-206,-132,68,12,-7
2175,39,-206,-130,69,13,-9
2180,39,-207,-129,69,14,-9
2185,37,-206,-131,69,15,-11
2190,35,-207,-128,69,14,-11
2195,37,-205,-131,67,15,-11
2200,33,-200,-135,63,14,-10
2205,36,-202,-133,58,14,-8
2210,36,-201,-129,51,12,-7
2215,40,-207,-129,45,12,-4
2220,36,-202,-129,40,11,-2
2225,38,-208,-132,37,12,-2
2230,39,-205,-131,37,10,1
2235,43,-210,-130,37,11,3
2240,37,-205,-127,37,11,1
2245,37,-207,-130,40,11,1
2250,44,-207,-129,42,11,1
2255,40,-212,-130,44,14,-1
2260,43,-204,-131,42,19,-2
2265,42,-204,-132,39,25,-4
2270,40,-201,-132,37,33,-3
2275,41,-203,-132,37,38,-2
2280,45,-201,-128,37,38,5
2285,36,-205,-129,36,38,13
2290,40,-206,-129,27,40,2
2295,37,-206,-129,14,38,-7
2300,37,-209,-128,2,36,-12
2305,38,-209,-132,-10,37,-18
2310,40,-209,-133,-14,38,-22
2315,40,-206,-129,-12,39,-25
2320,36,-205,-130,-3,41,-25
2325,37,-204,-128,9,39,-21
2330,37,-205,-130,26,36,-16
2335,38,-206,-128,38,34,-15
2340,37,-207,-128,47,30,-8
2345,37,-207,-132,51,26,-7
2350,35,-208,-131,53,22,-5
2355,39,-205,-130,50,16,-1
2360,36,-208,-129,43,13,0
2365,35,-199,-136,34,9,0
2370,39,-206,-130,27,6,1
2375,40,-208,-132,22,4,1
2380,45,-210,-135,22,1,0
2385,37,-208,-134,24,0,1
2390,43,-208,-133,28,3,1
2395,38,-207,-133,31,3,0
2400,39,-204,-134,36,5,1
2405,41,-206,-134,41,7,1
2410,36,-207,-133,46,8,0
2415,39,-207,-132,50,7,1
2420,39,-209,-134,54,9,-1
2425,40,-208,-128,57,10,-2
2430,37,-205,-131,58,9,-2
2435,37,-207,-135,60,9,-4
2440,38,-208,-133,61,8,-6
2445,38,-208,-133,60,7,-6
2450,36,-207,-131,57,7,-8
2455,39,-206,-128,54,7,-7
2460,37,-208,-131,54,7,-6
2465,37,-210,-134,52,9,-4
2470,38,-204,-132,51,10,-4
2475,39,-211,-141,51,11,-3
2480,35,-205,-131,51,11,-2
2485,35,-203,-131,52,11,-1
2490,37,-205,-130,51,11,-1
2495,40,-207,-131,48,9,-1
2500,37,-203,-131,47,8,0
2505,38,-206,-134,45,6,0
2510,37,-202,-131,41,3,2
2515,35,-203,-129,38,2,1
2520,35,-205,-128,35,0,1
2525,37,-207,-134,35,-1,0
2530,37,-209,-130,35,-2,-2
2535,36,-208,-129,35,-2,-5
2540,39,-205,-132,37,-1,-4
2545,35,-206,-129,37,-1,-6
2550,37,-207,-132,37,0,-7
2555,37,-207,-130,38,2,-8
2560,36,-206,-133,38,3,-11
2565,35,-208,-133,41,6,-12
2570,37,-208,-137,42,10,-12
2575,37,-207,-129,45,10,-11
2580,37,-206,-132,48,11,-13
2585,44,-209,-136,50,13,-12
2590,38,-205,-133,49,13,-11
2595,37,-203,-133,48,12,-13
2600,40,-207,-131,47,10,-12
2605,42,-208,-131,46,9,-11
2610,41,-206,-135,47,7,-11
2615,38,-209,-135,48,6,-13
2620,39,-205,-132,51,5,-15
2625,41,-208,-130,55,4,-18
2630,37,-206,-130,58,2,-19
2635,36,-208,-132,61,1,-19
2640,37,-206,-131,63,-1,-20
2645,38,-206,-132,63,-1,-21
2650,39,-205,-131,61,0,-22
2655,37,-209,-129,61,3,-24
2660,37,-208,-137,61,4,-26
2665,40,-204,-135,62,6,-29
2670,39,-208,-134,65,7,-28
2675,35,-206,-132,71,7,-28
2680,35,-208,-135,76,-2,-23
2685,49,-205,-134,78,-3,-23
2690,39,-204,-141,72,3,-23
2695,40,-204,-133,67,2,-20
2700,43,-207,-138,65,-1,-21
2705,40,-208,-137,64,-1,-19
2710,40,-207,-134,63,-1,-18
2715,40,-210,-133,63,-1,-17
2720,39,-208,-130,64,-1,-15
2725,38,-206,-132,66,1,-16
2730,39,-206,-128,70,2,-14
2735,36,-206,-135,74,5,-14
2740,37,-206,-129,79,7,-11
2745,42,-206,-134,85,8,-11
2750,36,-209,-130,90,8,-9
2755,37,-204,-132,94,8,-9
2760,37,-207,-131,97,7,-8
2765,38,-207,-132,98,7,-10
2770,37,-206,-131,96,7,-9
2775,36,-205,-129,98,6,-9
2780,41,-204,-134,98,6,-9
2785,34,-204,-133,99,7,-11
2790,37,-203,-132,99,7,-11
2795,37,-207,-131,98,7,-12
2800,38,-208,-133,95,8,-10
2805,41,-203,-132,92,9,-10
2810,41,-209,-133,89,9,-9
2815,41,-207,-131,86,9,-8
2820,40,-205,-132,84,7,-7
2825,36,-207,-130,84,7,-6
2830,37,-204,-131,85,7,-7
2835,35,-207,-132,85,6,-8
2840,35,-208,-127,87,5,-7
2845,39,-209,-129,92,7,-7
2850,39,-209,-129,97,7,-8
2855,38,-203,-133,104,8,-8
2860,37,-206,-129,112,8,-7
2865,40,-208,-133,118,6,-9
2870,38,-207,-132,122,5,-10
2875,39,-209,-131,124,4,-9
2880,30,-209,-129,128,-5,-7
2885,45,-207,-130,130,-8,-10
2890,39,-209,-131,127,1,-13
2895,41,-210,-132,126,3,-12
2900,38,-206,-132,129,2,-10
2905,37,-207,-131,131,2,-12
2910,37,-213,-128,131,3,-10
2915,41,-207,-131,130,5,-10
2920,38,-210,-129,128,5,-9
2925,39,-206,-131,128,5,-6
2930,35,-207,-133,129,3,-5
2935,42,-209,-135,130,-3,-4
2940,38,-206,-132,132,-4,-7
2945,41,-207,-134,132,-2,-7
2950,41,-208,-131,134,-3,-5
2955,41,-208,-135,138,-4,-4
2960,40,-210,-128,141,-4,-2
2965,40,-211,-136,142,-3,2
2970,33,-207,-129,139,-6,8
2975,37,-209,-133,134,-9,14
2980,36,-211,-129,132,-12,22
2985,35,-211,-132,127,-14,29
2990,36,-210,-130,125,-19,33
2995,35,-210,-135,123,-25,36
3000,36,-210,-134,126,-30,37
3005,33,-210,-136,133,-36,36
3010,33,-204,-136,140,-38,34
3015,35,-209,-130,143,-36,34
3020,33,-209,-134,139,-33,35
3025,37,-207,-133,126,-31,38
3030,37,-207,-133,110,-29,43
3035,30,-208,-131,98,-33,48
3040,40,-206,-133,93,-38,52
3045,42,-208,-134,92,-36,49
3050,36,-203,-132,92,-29,46
3055,38,-205,-133,98,-23,47
3060,40,-207,-133,107,-17,50
3065,34,-204,-131,122,-11,50
3070,30,-206,-130,139,-11,55
3075,53,-208,-127,155,-12,51
3080,41,-203,-130,167,-4,46
3085,38,-203,-130,166,10,30
3090,36,-202,-130,159,17,20
3095,35,-202,-132,145,17,13
3100,30,-209,-129,131,17,12
3105,35,-206,-130,123,13,13
3110,32,-211,-128,120,12,7
3115,29,-207,-129,123,13,3
3120,27,-213,-131,133,13,-1
3125,18,-212,-125,142,12,-5
3130,15,-212,-130,153,4,-4
3135,34,-212,-129,164,-2,-7
3140,32,-213,-131,170,6,-13
3145,26,-215,-129,175,12,-10
3150,32,-213,-129,183,11,-4
3155,29,-216,-128,193,9,1
3160,28,-216,-128,210,6,6
3165,30,-215,-129,226,2,9
3170,32,-214,-132,241,1,12
3175,35,-211,-130,256,5,14
3180,31,-213,-132,270,9,16
3185,39,-210,-127,284,13,18
3190,33,-211,-128,297,17,19
3195,34,-208,-128,306,22,18
3200,34,-211,-129,312,22,18
3205,33,-211,-125,313,23,17
3210,33,-209,-126,309,24,15
3215,37,-212,-127,303,25,13
3220,38,-211,-126,296,25,11
3225,35,-210,-126,291,26,6
3230,35,-214,-127,290,28,2
3235,37,-211,-131,291,30,-1
3240,42,-211,-121,295,38,2
3245,39,-208,-123,298,42,-1
3250,37,-209,-126,299,43,-4
3255,39,-211,-120,302,44,-5
3260,39,-213,-124,307,46,-5
3265,38,-213,-122,312,46,-4
3270,38,-211,-120,319,47,-1
3275,39,-214,-123,329,47,-1
3280,37,-213,-117,341,49,0
3285,40,-214,-123,352,50,2
3290,35,-202,-118,358,51,3
3295,40,-211,-123,360,53,7
3300,39,-214,-123,354,58,8
3305,41,-213,-125,342,60,10
3310,40,-213,-123,332,63,11
3315,39,-214,-120,323,66,13
3320,39,-213,-121,317,69,11
3325,38,-216,-121,311,72,12
3330,35,-217,-114,309,75,10
3335,42,-218,-117,311,77,8
3340,41,-222,-117,317,78,7
3345,34,-215,-117,327,80,9
3350,35,-218,-116,340,77,10
3355,43,-216,-119,354,75,12
3360,38,-217,-119,363,77,10
3365,38,-215,-118,373,78,8
3370,36,-217,-117,381,74,2
3375,31,-218,-116,387,68,0
3380,30,-216,-120,392,60,-7
3385,27,-217,-118,395,51,-10
3390,29,-219,-115,400,44,-16
3395,30,-221,-108,409,36,-21
3400,21,-219,-107,416,27,-25
3405,24,-218,-104,425,17,-29
3410,25,-222,-99,432,10,-30
3415,26,-222,-103,439,5,-30
3420,26,-221,-101,450,-2,-27
3425,32,-222,-99,462,-12,-18
3430,28,-223,-102,473,-18,-7
3435,37,-221,-100,482,-20,-7
3440,33,-219,-104,497,-17,-1
3445,45,-224,-100,513,-9,10
3450,35,-221,-98,524,-17,12
3455,44,-227,-93,531,-29,17
3460,48,-223,-99,534,-31,15
3465,42,-225,-95,532,-35,28
3470,42,-230,-89,528,-37,27
3475,42,-231,-87,526,-41,25
3480,36,-235,-85,521,-43,29
3485,30,-237,-84,520,-44,37
3490,31,-240,-85,518,-49,44
3495,31,-243,-90,519,-59,61
3500,29,-242,-86,521,-65,64
3505,28,-243,-86,525,-72,67
3510,31,-241,-86,534,-78,73
3515,27,-243,-88,543,-87,81
3520,27,-241,-89,552,-103,95
3525,33,-242,-94,559,-113,101
3530,32,-238,-92,561,-120,104
3535,29,-239,-93,563,-123,111
3540,30,-237,-91,564,-127,118
3545,34,-231,-92,565,-132,120
3550,31,-231,-93,564,-137,114
3555,30,-231,-91,562,-134,116
3560,38,-233,-88,555,-155,114
3565,42,-227,-85,541,-175,109
3570,41,-234,-90,523,-181,104
3575,36,-229,-88,508,-189,110
3580,36,-226,-90,500,-198,100
3585,28,-227,-87,500,-206,90
3590,25,-228,-85,499,-219,88
3595,40,-223,-90,500,-228,72
3600,27,-224,-85,499,-227,60
3605,26,-221,-89,496,-230,56
3610,27,-219,-84,495,-236,48
3615,28,-213,-90,488,-237,38
3620,7,-223,-80,480,-247,38
3625,34,-222,-87,474,-259,31
3630,31,-220,-93,458,-255,16
3635,20,-224,-88,435,-247,16
3640,28,-225,-86,417,-247,18
3645,36,-223,-89,396,-239,15
3650,29,-222,-91,374,-229,15
3655,21,-227,-87,356,-227,20
3660,37,-229,-86,353,-233,31
3665,46,-227,-89,347,-219,16
3670,31,-223,-84,337,-205,4
3675,33,-225,-83,335,-202,4
3680,46,-226,-84,341,-197,2
3685,33,-226,-85,341,-179,-1
3690,29,-225,-85,346,-170,4
3695,33,-229,-83,355,-172,17
3700,47,-229,-83,353,-161,7
3705,32,-228,-82,340,-146,-1
3710,21,-233,-83,334,-149,0
3715,37,-236,-85,334,-150,-11
3720,25,-230,-82,326,-135,-22
3725,10,-229,-80,322,-133,-24
3730,28,-235,-77,326,-139,-18
3735,35,-237,-79,317,-133,-35
3740,22,-233,-77,302,-126,-46
3745,18,-237,-80,298,-130,-43
3750,38,-241,-86,296,-130,-39
3755,25,-235,-81,287,-115,-37
3760,17,-237,-78,280,-116,-20
3765,35,-242,-82,282,-129,-9
3770,35,-236,-82,286,-123,-23
3775,23,-235,-80,289,-118,-28
3780,30,-233,-82,293,-126,-20
3785,39,-235,-82,296,-124,-19
3790,19,-230,-78,297,-119,-8
3795,21,-238,-70,309,-125,16
3800,34,-236,-75,326,-128,11
3805,30,-236,-74,330,-116,-2
3810,15,-233,-72,326,-113,7
3815,33,-237,-76,328,-114,18
3820,28,-233,-74,320,-103,17
3825,11,-228,-75,310,-94,30
3830,29,-230,-79,306,-99,44
3835,43,-232,-81,291,-92,36
3840,33,-228,-66,270,-78,33
3845,31,-226,-72,254,-92,44
3850,40,-225,-75,242,-104,48
3855,23,-224,-73,232,-99,55
3860,10,-229,-72,235,-101,68
3865,35,-230,-76,248,-102,69
3870,30,-229,-77,256,-89,50
3875,11,-226,-74,259,-82,46
3880,12,-231,-73,274,-92,68
3885,29,-232,-76,288,-104,62
3890,22,-228,-72,282,-105,45
3895,12,-226,-78,267,-115,65
3900,21,-227,-78,252,-128,97
3905,28,-221,-77,234,-128,101
3910,11,-217,-73,214,-131,114
3915,20,-220,-74,203,-143,135
3920,35,-220,-78,198,-154,130
3925,28,-218,-78,186,-151,112
3930,11,-219,-69,169,-157,119
3935,23,-228,-72,166,-177,145
3940,25,-227,-80,157,-177,131
3945,6,-222,-74,141,-170,121
3950,3,-232,-72,134,-176,135
3955,29,-232,-78,130,-179,135
3960,23,-230,-79,116,-165,114
3965,2,-232,-74,100,-155,107
3970,24,-238,-82,101,-165,115
3975,35,-234,-80,103,-165,100
3980,20,-232,-78,99,-148,90
3985,0,-233,-76,104,-147,111
3990,29,-237,-77,124,-154,121
3995,35,-234,-78,130,-141,107
4000,22,-230,-82,124,-120,107
4005,-8,-232,-64,131,-121,134
4010,27,-241,-72,159,-134,147
4015,31,-235,-79,162,-120,139
4020,27,-234,-74,155,-93,138
4025,-11,-230,-62,151,-72,147
4030,7,-239,-65,189,-89,170
4035,17,-233,-67,230,-88,170
4040,29,-232,-70,253,-80,168
4045,50,-232,-77,258,-56,156
4050,48,-224,-76,243,-18,141
4055,33,-220,-69,233,16,157
4060,-19,-219,-48,256,12,182
4065,44,-224,-66,322,-10,197
4070,53,-220,-76,343,6,186
4075,44,-216,-75,321,47,172
4080,17,-215,-67,296,83,171
4085,-37,-230,-36,314,73,204
4090,8,-235,-52,399,28,239
4095,41,-231,-69,453,20,228
4100,52,-225,-77,440,47,200
4105,39,-221,-75,397,84,180
4110,-68,-209,-27,374,98,188
4115,-48,-239,-37,460,32,260
4120,-1,-228,-46,542,-10,247
4125,11,-232,-56,570,-25,230
4130,11,-226,-60,571,-27,216
4135,13,-228,-59,577,-26,206
4140,10,-227,-53,600,-27,205
4145,14,-221,-57,633,-29,211
4150,12,-221,-51,659,-31,221
4155,16,-222,-48,675,-36,233
4160,18,-224,-50,683,-41,243
4165,14,-226,-50,686,-46,250
4170,15,-227,-46,692,-50,255
4175,13,-228,-46,703,-52,259
4180,5,-227,-47,712,-56,270
4185,7,-227,-45,723,-59,271
4190,7,-226,-45,739,-62,272
4195,9,-229,-50,767,-65,270
4200,9,-231,-42,807,-65,265
4205,7,-233,-37,853,-71,262
4210,6,-227,-38,897,-75,266
4215,6,-228,-33,927,-73,272
4220,8,-223,-38,942,-68,281
4225,12,-219,-36,947,-64,288
4230,11,-218,-40,946,-70,285
4235,7,-212,-33,944,-88,281
4240,4,-222,-31,946,-113,278
4245,1,-221,-24,948,-138,272
4250,0,-222,-33,947,-152,271
4255,1,-217,-39,946,-150,273
4260,0,-214,-44,943,-138,272
4265,-1,-217,-41,938,-123,261
4270,-5,-220,-37,934,-119,243
4275,-18,-226,-27,950,-109,240
4280,-18,-224,-30,983,-111,240
4285,-17,-223,-30,1025,-103,240
4290,-11,-218,-36,1067,-83,240
4295,-8,-217,-34,1130,-66,225
4300,-6,-214,-36,1218,-59,212
4305,-5,-222,-21,1321,-55,199
4310,-19,-223,-5,1424,-67,197
4315,-20,-222,-2,1504,-78,208
4320,-23,-219,-3,1538,-87,227
4325,-20,-228,-9,1522,-99,241
4330,-23,-226,-13,1500,-110,251
4335,-25,-241,-7,1503,-139,252
4340,-33,-239,-20,1546,-179,230
4345,-33,-231,-39,1621,-213,196
4350,-43,-215,-59,1724,-227,145
4355,-46,-200,-66,1853,-229,86
4360,-49,-179,-66,1996,-233,23
4365,-52,-160,-68,2139,-260,-43
4370,-46,-139,-66,2256,-314,-111
4375,-45,-126,-57,2326,-377,-169
4380,-48,-122,-37,2355,-432,-207
4385,-52,-120,-25,2357,-475,-222
4390,-54,-107,-19,2337,-511,-230
4395,-51,-91,-35,2290,-552,-234
4400,-44,-67,-56,2206,-593,-254
4405,-36,-51,-75,2104,-622,-303
4410,-33,-29,-88,1993,-627,-355
4415,-22,-20,-78,1909,-632,-420
4420,-12,-15,-74,1869,-641,-484
4425,-9,-7,-69,1859,-665,-549
4430,-1,-2,-69,1850,-710,-624
4435,30,16,-89,1805,-737,-695
4440,51,20,-98,1681,-682,-747
4445,66,22,-88,1521,-558,-765
4450,79,11,-75,1374,-390,-735
4455,105,-1,-74,1239,-192,-687
4460,114,2,-76,1082,31,-636
4465,111,9,-69,883,249,-573
4470,93,4,-48,700,396,-569
4475,108,-8,-23,596,483,-587
4480,36,-11,8,560,541,-638
4485,0,-23,18,551,534,-679
4490,4,-38,42,527,518,-697
4495,-50,-25,44,482,515,-697
4500,-78,-29,67,412,521,-636
4505,-51,-57,95,366,505,-532
4510,-15,-67,102,360,503,-491
4515,-36,-82,124,384,525,-468
4520,-49,-77,126,386,480,-448
4525,-95,-134,148,496,401,-237
4530,-131,-196,201,677,246,-74
4535,-141,-279,219,889,31,-19
4540,-86,-387,244,1035,-141,-6
4545,-41,-534,254,1091,-222,-40
4550,-57,-677,344,1033,-332,-93
4555,-17,-1055,449,1049,-457,91
4560,8,-1370,629,1087,-531,76
4565,14,-1666,747,1254,-580,46
4570,38,-1770,830,1551,-611,71
4575,131,-1706,792,2105,-633,90
4580,165,-1490,712,3001,-622,193
4585,155,-1146,538,4175,-567,347
4590,99,-717,311,5331,-455,470
4595,79,-490,199,6252,-319,538
4600,81,-274,93,6983,-207,535
4605,64,-135,41,7524,-150,369
4610,57,-56,58,7825,-124,96
4615,45,-25,94,7878,-80,-160
4620,31,5,141,7757,-8,-329
4625,24,18,168,7462,82,-303
4630,25,15,181,6939,188,-148
4635,37,-4,191,6153,307,77
4640,58,-30,188,5173,307,324
4645,86,-58,152,4153,219,523
4650,103,-69,124,3080,96,637
4655,104,-80,100,2387,-26,688
4660,91,-100,108,1913,-104,708
4665,83,-114,116,1646,-126,705
4670,76,-129,129,1535,-106,680
4675,58,-143,134,1528,-52,648
4680,38,-138,128,1572,24,631
4685,29,-119,126,1633,106,621
4690,19,-106,132,1692,177,604
4695,13,-93,147,1730,213,578
4700,-2,-73,155,1730,185,543
4705,-20,-34,143,1674,131,510
4710,-23,-1,141,1535,127,504
4715,-33,34,143,1331,136,539
4720,-30,59,158,1103,112,587
4725,-24,70,185,882,68,615
4730,-19,75,210,692,27,618
4735,-19,74,228,524,3,612
4740,-16,66,239,382,-14,603
4745,-10,60,223,264,-23,580
4750,-17,55,207,175,-31,538
4755,-12,47,189,115,-52,480
4760,-9,31,190,78,-90,412
4765,-13,14,195,66,-126,349
4770,-15,0,202,68,-164,304
4775,-4,-16,214,66,-213,258
4780,0,-25,218,38,-280,210
4785,9,-39,234,-35,-359,162
4790,12,-60,247,-145,-423,123
4795,8,-69,246,-282,-459,101
4800,5,-71,243,-439,-466,93
4805,5,-65,223,-605,-450,86
4810,8,-62,220,-765,-419,62
4815,9,-51,213,-885,-375,31
4820,19,-47,213,-930,-308,5
4825,31,-47,220,-884,-229,-5
4830,38,-44,235,-756,-143,-8
4835,49,-40,243,-576,-69,-19
4840,50,-32,246,-397,-26,-42
4845,44,-25,249,-269,-12,-66
4850,27,-23,255,-207,-20,-84
4855,12,-24,255,-207,-43,-98
4860,3,-31,263,-262,-63,-108
4865,-20,-36,273,-343,-79,-114
4870,-19,-54,282,-425,-98,-117
4875,-10,-64,297,-484,-105,-128
4880,-3,-70,300,-511,-92,-141
4885,14,-81,298,-517,-69,-151
4890,13,-83,302,-516,-38,-154
4895,21,-86,293,-499,-20,-145
4900,22,-84,286,-471,-16,-142
4905,13,-80,278,-433,-24,-131
4910,16,-84,266,-386,-40,-116
4915,24,-88,259,-340,-42,-109
4920,25,-98,252,-295,-32,-103
4925,28,-104,249,-249,-13,-96
4930,38,-109,249,-208,7,-90
4935,47,-117,246,-170,28,-89
4940,51,-120,240,-135,40,-89
4945,53,-114,236,-102,49,-91
4950,47,-116,234,-81,56,-92
4955,44,-113,230,-75,72,-91
4960,36,-113,223,-72,93,-87
4965,32,-112,224,-77,124,-84
4970,26,-120,221,-84,167,-78
4975,25,-110,216,-87,198,-80
4980,21,-116,215,-84,228,-78
4985,19,-119,216,-77,250,-75
4990,14,-121,211,-72,268,-74
4995,16,-128,218,-71,281,-72
5000,13,-130,223,-72,287,-71
5005,11,-134,229,-67,283,-66
5010,10,-137,229,-58,275,-56
5015,18,-137,220,-53,262,-49
5020,21,-135,218,-52,254,-40
5025,22,-133,213,-54,248,-30
5030,16,-123,205,-52,241,-20
5035,20,-125,207,-48,236,-14
5040,18,-121,205,-36,227,-13
5045,17,-119,201,-17,218,-12
5050,13,-120,206,5,211,-9
5055,11,-123,209,29,207,-6
5060,11,-128,224,53,202,0
5065,10,-129,225,79,186,-4
5070,9,-129,226,98,156,-13
5075,4,-128,220,99,123,-18
5080,5,-125,211,82,101,-23
5085,-1,-123,209,49,95,-21
5090,-6,-122,207,17,97,-19
5095,-1,-127,202,-3,109,-16
5100,-6,-122,201,-13,121,-18
5105,-4,-119,198,-19,131,-22
5110,-8,-123,205,-29,142,-21
5115,-8,-127,209,-33,156,-16
5120,-13,-129,222,-26,158,-9
5125,-9,-132,225,-5,150,-4
5130,-5,-131,216,13,138,-2
5135,-4,-131,213,18,131,0
5140,-3,-131,206,9,134,0
5145,-14,-129,206,-3,141,3
5150,-6,-127,211,-5,147,5
5155,0,-127,204,10,147,-10
5160,2,-119,198,14,138,-26
5165,2,-110,198,-13,116,-41
5170,0,-108,196,-56,92,-49
5175,-11,-104,197,-105,66,-45
5180,-5,-111,196,-147,39,-41
5185,-11,-113,205,-177,29,-33
5190,-10,-119,208,-195,20,-22
5195,-4,-129,209,-191,4,-16
5200,-11,-135,220,-170,-13,-12
5205,-25,-139,219,-152,-39,-12
5210,-16,-144,217,-141,-69,-20
5215,-24,-132,218,-139,-83,-28
5220,-31,-127,217,-145,-105,-25
5225,-31,-125,213,-148,-147,-26
5230,-38,-118,208,-150,-198,-30
5235,-38,-109,207,-152,-260,-37
5240,-42,-110,199,-156,-318,-50
5245,-42,-105,195,-160,-365,-57
5250,-20,-112,204,-167,-390,-62
5255,-13,-117,199,-168,-394,-63
5260,-5,-115,195,-166,-389,-62
5265,1,-118,199,-165,-385,-65
5270,7,-117,198,-171,-382,-65
5275,-4,-127,211,-178,-375,-59
5280,11,-137,226,-177,-355,-45
5285,8,-140,228,-160,-312,-30
5290,8,-130,221,-146,-283,-22
5295,8,-128,212,-158,-274,-20
5300,9,-125,212,-196,-275,-26
5305,0,-128,212,-238,-286,-29
5310,2,-126,203,-256,-294,-32
5315,1,-129,206,-253,-297,-31
5320,3,-130,198,-244,-300,-31
5325,4,-128,202,-237,-299,-23
5330,7,-131,207,-231,-295,-10
5335,15,-134,207,-228,-289,3
5340,19,-133,210,-228,-286,13
5345,17,-134,212,-234,-284,24
5350,17,-138,209,-243,-275,34
5355,14,-138,209,-249,-259,45
5360,21,-136,204,-247,-239,53
5365,8,-141,205,-245,-223,54
5370,9,-143,201,-249,-213,48
5375,8,-145,200,-252,-212,43
5380,10,-148,201,-247,-213,38
5385,10,-150,203,-235,-216,36
5390,10,-151,195,-220,-219,36
5395,13,-149,199,-206,-217,34
5400,15,-150,199,-193,-206,30
5405,16,-161,204,-177,-192,26
5410,21,-159,200,-163,-179,19
5415,28,-149,204,-155,-160,15
5420,15,-149,210,-142,-142,20
5425,16,-141,212,-140,-138,21
5430,14,-144,210,-144,-139,21
5435,25,-136,204,-155,-145,14
5440,30,-138,195,-163,-139,11
5445,18,-144,205,-146,-131,20
5450,15,-146,204,-117,-129,21
5455,7,-143,201,-98,-127,23
5460,10,-143,193,-94,-119,16
5465,32,-143,184,-102,-99,6
5470,18,-144,195,-103,-67,0
5475,6,-144,193,-90,-60,-1
5480,18,-145,189,-83,-74,-21
5485,26,-151,193,-87,-84,-40
5490,32,-155,191,-83,-81,-55
5495,51,-148,192,-67,-60,-62
5500,34,-149,204,-43,-27,-60
5505,23,-159,209,-4,-21,-48
5510,33,-155,203,7,-26,-56
5515,23,-154,209,-10,-27,-62
5520,43,-157,205,-28,-24,-61
5525,49,-151,203,-40,-5,-59
5530,14,-153,210,-36,9,-43
5535,6,-148,205,-29,-6,-33
5540,12,-143,198,-40,-27,-36
5545,12,-143,199,-45,-31,-39
5550,36,-142,193,-36,-14,-45
5555,14,-147,200,-7,14,-40
5560,7,-148,194,35,8,-29
5565,18,-145,188,51,-23,-30
5570,21,-146,188,38,-35,-33
5575,21,-150,177,17,-38,-27
5580,49,-150,180,-4,-33,-28
5585,20,-151,189,-7,-15,-28
5590,18,-156,191,11,-20,-23
5595,16,-160,195,25,-32,-31
5600,25,-158,197,35,-35,-42
5605,27,-156,194,33,-30,-49
5610,46,-159,196,24,-18,-50
5615,27,-157,209,20,-2,-40
5620,21,-153,200,23,4,-25
5625,21,-150,201,23,-3,-19
5630,28,-143,191,13,-2,-14
5635,40,-148,197,10,16,-7
5640,22,-147,200,15,43,3
5645,16,-149,195,29,41,17
5650,20,-151,193,39,27,24
5655,26,-149,189,44,18,27
5660,40,-153,188,51,29,25
5665,32,-154,183,58,51,26
5670,17,-155,182,71,59,39
5675,22,-157,186,86,59,46
5680,23,-155,186,96,66,46
5685,30,-155,187,102,79,38
5690,36,-152,180,106,99,31
5695,23,-150,192,102,119,25
5700,16,-150,195,95,120,25
5705,16,-153,199,91,110,17
5710,26,-155,199,77,94,11
5715,29,-156,197,66,85,4
5720,28,-153,198,53,78,2
5725,39,-152,193,42,72,1
5730,26,-155,195,35,73,4
5735,16,-156,195,38,69,17
5740,20,-151,186,44,62,23
5745,18,-156,189,55,69,25
5750,22,-155,194,67,80,24
5755,20,-156,189,83,94,23
5760,19,-156,191,94,103,22
5765,21,-155,188,95,102,21
5770,24,-155,186,94,107,20
5775,28,-157,186,91,109,20
5780,20,-159,192,85,111,17
5785,16,-155,192,85,101,19
5790,19,-156,185,82,82,23
5795,22,-162,192,78,66,24
5800,21,-161,193,78,57,24
5805,18,-166,196,81,47,29
5810,20,-169,200,88,34,33
5815,15,-170,202,100,26,35
5820,8,-169,205,112,25,37
5825,9,-170,202,121,29,37
5830,8,-166,203,129,33,37
5835,13,-160,197,133,40,36
5840,12,-159,196,138,44,33
5845,6,-156,195,143,44,28
5850,10,-149,189,146,35,18
5855,13,-149,191,149,35,11
5860,15,-147,192,154,41,3
5865,16,-146,191,161,49,1
5870,21,-150,190,171,56,1
5875,22,-153,193,183,66,0
5880,21,-153,196,192,73,1
5885,18,-147,193,197,81,2
5890,23,-155,194,198,88,2
5895,19,-157,195,197,96,5
5900,19,-159,196,194,98,5
5905,21,-155,195,191,100,7
5910,15,-154,196,188,100,7
5915,16,-152,197,186,99,6
5920,14,-149,198,183,94,1
5925,13,-147,196,181,89,0
5930,14,-146,195,176,83,-3
5935,14,-141,192,171,81,-2
5940,11,-141,192,171,80,1
5945,14,-136,195,169,78,4
5950,16,-137,188,164,77,13
5955,13,-138,195,155,73,20
5960,23,-140,194,148,75,24
5965,23,-138,196,148,70,24
5970,24,-144,200,147,67,16
5975,21,-145,199,151,63,7
5980,21,-148,198,158,64,-3
5985,17,-144,200,167,69,-11
5990,18,-146,194,171,73,-22
5995,19,-141,194,164,77,-28
6000,20,-141,193,159,80,-34
6005,19,-140,192,159,81,-36
6010,14,-145,193,160,87,-37
6015,20,-139,193,164,91,-38
6020,20,-139,194,170,99,-38
6025,19,-136,194,179,104,-37
6030,14,-133,200,186,109,-35
6035,12,-137,205,190,113,-29
6040,12,-137,205,189,114,-17
6045,10,-138,208,190,107,-15
6050,6,-141,207,185,85,-19
6055,6,-143,203,174,62,-26
6060,6,-145,205,161,43,-29
6065,3,-144,203,148,33,-29
6070,4,-144,197,134,25,-33
6075,4,-145,196,119,20,-31
6080,7,-149,193,104,15,-29
6085,1,-148,197,93,13,-31
6090,4,-146,197,86,13,-30
6095,5,-146,195,86,15,-30
6100,6,-145,200,89,18,-35
6105,1,-140,197,95,22,-38
6110,6,-144,196,99,26,-40
6115,4,-142,203,102,31,-42
6120,9,-142,208,102,35,-45
6125,6,-137,209,100,40,-44
6130,7,-136,205,95,43,-48
6135,7,-137,207,90,45,-51
6140,9,-137,209,87,47,-51
6145,7,-134,210,86,49,-48
6150,4,-134,207,90,48,-45
6155,7,-133,208,92,44,-43
6160,7,-134,210,86,35,-39
6165,5,-136,204,75,20,-34
6170,7,-138,200,64,7,-32
6175,10,-142,203,55,-4,-27
6180,8,-139,204,54,-13,-24
6185,11,-139,206,59,-19,-22
6190,9,-137,203,66,-21,-19
6195,12,-135,205,68,-20,-20
6200,12,-133,204,65,-16,-20
6205,12,-131,199,62,-10,-17
6210,12,-129,199,56,-5,-15
6215,13,-130,203,50,-1,-15
6220,11,-132,210,41,5,-18
6225,10,-136,212,36,10,-18
6230,10,-145,219,38,14,-15
6235,12,-138,212,44,15,-14
6240,14,-136,212,48,11,-13
6245,16,-139,206,48,5,-13
6250,14,-135,201,44,1,-15
6255,16,-132,202,39,-2,-17
6260,13,-133,199,36,-6,-22
6265,13,-137,198,36,-5,-24
6270,12,-133,197,36,-7,-27
6275,16,-136,201,39,-6,-31
6280,11,-136,200,41,-6,-35
6285,8,-141,198,41,-8,-39
6290,13,-138,206,43,-9,-43
6295,11,-137,206,43,-8,-42
6300,12,-144,203,46,-8,-43
6305,11,-139,206,50,-9,-44
6310,11,-141,208,56,-11,-46
6315,9,-145,205,63,-9,-45
6320,13,-143,201,70,-3,-41
6325,11,-137,203,74,0,-39
6330,11,-141,202,74,3,-35
6335,14,-145,204,75,2,-34
6340,13,-138,197,72,-2,-30
6345,13,-140,204,73,-6,-28
6350,14,-140,204,75,-10,-26
6355,16,-138,200,77,-11,-25
6360,15,-134,200,79,-15,-26
6365,16,-136,202,81,-16,-27
6370,13,-133,201,85,-17,-28
6375,16,-134,206,86,-17,-31
6380,14,-135,201,86,-17,-32
6385,14,-136,198,86,-16,-33
6390,15,-132,204,82,-16,-32
6395,13,-136,203,76,-13,-36
6400,15,-135,204,69,-12,-35
6405,14,-136,202,62,-13,-34
6410,14,-137,202,58,-14,-33
6415,14,-134,201,54,-16,-32
6420,16,-135,200,53,-17,-31
6425,14,-135,201,51,-18,-34
6430,15,-136,205,48,-18,-33
6435,12,-135,200,47,-21,-33
6440,11,-133,205,45,-23,-33
6445,11,-136,203,43,-26,-32
6450,10,-134,199,40,-26,-32
6455,12,-132,200,33,-27,-31
6460,14,-137,206,28,-24,-30
6465,12,-132,204,26,-22,-30
6470,14,-137,207,27,-20,-25
6475,15,-137,206,32,-19,-24
6480,16,-139,206,36,-21,-23
6485,15,-139,212,40,-25,-24
6490,15,-143,207,43,-30,-26
6495,14,-145,210,45,-34,-28
6500,16,-150,208,47,-35,-26
6505,16,-144,202,51,-29,-22
6510,11,-141,198,54,-21,-17
6515,17,-142,197,51,-16,-16
6520,16,-140,199,48,-9,-12
6525,19,-141,201,47,-5,-11
6530,18,-140,199,50,-1,-10
6535,22,-142,206,58,1,-8
6540,19,-140,202,65,3,-10
6545,19,-141,204,69,2,-14
6550,18,-137,205,70,1,-15
6555,19,-141,206,69,-1,-16
6560,15,-141,207,69,-5,-18
6565,16,-140,208,71,-6,-17
6570,15,-140,207,74,-6,-16
6575,17,-139,204,73,-6,-19
6580,17,-137,205,72,-6,-20
6585,14,-139,207,69,-7,-21
6590,17,-136,202,65,-6,-22
6595,17,-138,202,63,-3,-20
6600,18,-138,204,61,0,-18
6605,20,-135,201,58,2,-18
6610,13,-136,203,53,5,-16
6615,17,-133,201,48,6,-13
6620,20,-136,198,43,8,-14
6625,19,-136,199,40,12,-12
6630,17,-138,202,42,14,-9
6635,18,-142,206,47,14,-6
6640,21,-142,199,52,12,-7
6645,18,-141,199,58,12,-6
6650,19,-138,197,56,13,-6
6655,18,-136,197,55,15,-7
6660,16,-137,202,53,15,-9
6665,15,-140,200,53,17,-7
6670,15,-137,199,53,20,-5
6675,19,-138,199,55,21,-6
6680,19,-134,202,57,20,-7
6685,19,-135,199,59,20,-7
6690,21,-138,196,62,20,-9
6695,19,-137,198,58,19,-11
6700,19,-137,205,62,19,-10
6705,19,-137,199,64,21,-9
6710,15,-135,202,66,23,-10
6715,14,-135,202,67,27,-9
6720,15,-133,205,64,31,-8
6725,15,-136,207,57,33,-7
6730,18,-138,208,52,34,-5
6735,19,-139,205,45,32,-3
6740,16,-141,205,43,29,-3
6745,15,-142,209,42,24,-2
6750,15,-142,204,44,18,-1
6755,14,-139,202,48,15,-1
6760,18,-144,200,53,13,-2
6765,16,-138,205,56,14,-1
6770,13,-137,200,60,15,-2
6775,14,-140,190,61,16,-1
6780,15,-136,202,65,18,1
6785,15,-137,200,69,19,2
6790,12,-137,201,73,20,0
6795,13,-139,205,75,19,1
6800,16,-141,204,78,19,-3
6805,14,-139,206,81,20,-4
6810,15,-135,201,83,21,-7
6815,15,-138,203,85,19,-8
6820,14,-135,202,85,20,-8
6825,14,-139,208,87,20,-9
6830,13,-144,202,90,21,-8
6835,17,-137,207,92,20,-6
6840,16,-137,208,93,21,-4
6845,16,-136,205,94,20,-5
6850,15,-138,205,91,19,-6
6855,15,-135,204,88,19,-5
6860,16,-136,206,85,19,-5
6865,15,-137,205,79,21,-3
6870,14,-136,208,77,22,-1
6875,16,-138,206,77,21,-1
6880,17,-135,204,78,18,-2
6885,22,-138,215,77,16,-2
6890,19,-135,202,77,15,-3
6895,14,-136,203,82,14,-5
6900,18,-137,204,87,14,-3
6905,17,-136,203,94,15,-2
6910,13,-131,201,97,18,-1
6915,15,-135,207,98,18,1
6920,17,-134,205,97,17,2
6925,18,-137,208,92,17,2
6930,14,-135,207,86,17,4
6935,15,-135,205,76,17,5
6940,16,-134,210,63,18,5
6945,13,-138,206,52,20,6
6950,17,-138,202,44,20,5
6955,17,-135,206,36,19,4
6960,17,-136,204,33,18,1
6965,17,-135,206,34,16,2
6970,15,-138,205,39,17,-1
6975,15,-136,204,44,18,-1
6980,16,-133,201,49,21,-3
6985,16,-137,205,55,22,-5
6990,16,-135,204,62,23,-8
6995,17,-136,202,66,23,-8
7000,15,-137,210,69,21,-10
7005,13,-136,209,70,17,-11
7010,14,-141,210,70,17,-10
7015,14,-140,211,69,17,-11
7020,13,-138,212,67,20,-6
7025,17,-138,212,62,21,0
7030,13,-138,204,55,22,0
7035,16,-137,205,47,22,2
7040,13,-140,200,38,22,3
7045,13,-138,203,33,22,2
7050,15,-140,203,32,22,1
7055,16,-137,198,37,21,-2
7060,16,-137,204,42,23,-5
7065,13,-135,200,52,22,-7
7070,16,-137,207,62,22,-6
7075,19,-139,203,71,20,-10
7080,14,-132,210,80,17,-10
7085,12,-137,203,82,15,-12
7090,14,-135,206,81,13,-11
7095,16,-135,208,76,12,-12
7100,12,-136,205,70,15,-11
7105,14,-137,204,62,16,-11
7110,17,-138,208,55,17,-9
7115,14,-140,206,52,16,-10
7120,15,-138,209,52,16,-9
7125,13,-137,206,51,14,-9
7130,13,-134,208,53,11,-9
7135,11,-138,206,52,12,-9
7140,12,-135,204,50,10,-9
7145,15,-137,201,50,12,-6
7150,15,-136,202,49,13,-6
7155,13,-141,208,50,15,-4
7160,13,-135,205,51,17,-3
7165,14,-138,207,52,18,-4
7170,13,-133,205,52,17,-6
7175,13,-136,204,51,15,-8
7180,14,-134,207,51,10,-10
7185,14,-134,204,53,7,-13
7190,15,-137,204,53,5,-14
7195,13,-137,202,57,2,-13
7200,13,-137,205,61,-1,-14
7205,15,-139,204,62,1,-10
7210,13,-131,209,62,0,-12
7215,12,-135,205,60,1,-12
7220,13,-137,204,53,2,-13
7225,12,-136,206,47,1,-14
7230,14,-137,206,41,2,-13
7235,13,-134,208,37,4,-11
7240,12,-135,209,35,6,-10
7245,14,-138,202,35,10,-9
7250,15,-137,205,36,10,-9
7255,16,-136,204,37,11,-11
7260,17,-136,204,40,11,-10
7265,13,-138,213,45,12,-12
7270,15,-133,201,50,11,-11
7275,18,-138,203,52,12,-9
7280,15,-134,202,56,10,-10
7285,14,-134,206,58,11,-9
7290,18,-137,205,61,10,-11
7295,14,-141,205,63,9,-13
7300,12,-135,206,63,6,-13
7305,14,-136,208,63,6,-14
7310,14,-138,207,61,5,-11
7315,11,-135,207,59,7,-7
7320,15,-144,202,56,8,-6
7325,10,-136,209,52,9,-6
7330,14,-137,202,45,9,-8
7335,17,-137,206,41,8,-7
7340,17,-138,201,39,8,-8
7345,18,-134,203,37,7,-9
7350,16,-138,206,38,7,-9
7355,17,-134,201,42,7,-8
7360,14,-135,201,48,8,-8
7365,15,-135,201,54,9,-8
7370,15,-133,198,60,8,-7
7375,10,-131,202,65,8,-7
7380,13,-135,200,71,8,-7
7385,11,-134,200,76,8,-7
7390,11,-132,205,80,5,-4
7395,11,-134,203,81,2,-2
7400,13,-137,206,79,0,-1
7405,12,-139,209,74,-4,0
7410,10,-140,208,70,-9,1
7415,9,-142,213,65,-13,0
7420,16,-139,206,62,-16,2
7425,12,-141,203,59,-17,3
7430,12,-139,202,56,-17,1
7435,13,-139,198,55,-14,3
7440,15,-139,204,55,-13,3
7445,13,-136,202,58,-10,2
7450,12,-136,202,60,-7,0
7455,16,-136,202,64,-5,1
7460,16,-135,198,67,-4,0
7465,17,-133,202,70,-4,-1
7470,16,-137,202,74,-3,-4
7475,20,-140,199,73,-3,-5
7480,19,-139,205,74,-4,-6
7485,17,-140,203,73,-2,-6
7490,16,-137,205,71,-3,-5
7495,17,-137,206,70,-2,-4
7500,15,-136,208,68,-1,-2
7505,16,-139,204,64,-1,-3
7510,18,-140,204,59,2,-1
7515,16,-133,206,57,3,-3
7520,13,-136,206,55,2,-3
7525,13,-135,206,55,3,-3
7530,14,-137,204,57,2,-4
7535,18,-141,210,58,2,-5
7540,17,-133,207,60,3,-6
7545,17,-134,205,59,4,-6
7550,18,-135,205,59,4,-9
7555,15,-135,202,58,5,-9
7560,15,-133,204,57,5,-11
7565,16,-133,206,57,6,-12
7570,17,-135,205,57,6,-12
7575,16,-135,208,57,7,-14
7580,16,-135,202,56,10,-14
7585,15,-132,207,55,11,-14
7590,15,-129,211,56,10,-14
7595,17,-136,206,55,12,-14
7600,16,-137,206,52,11,-16
7605,16,-136,207,48,12,-13
7610,14,-135,204,45,13,-14
7615,14,-137,207,40,15,-11
7620,15,-136,202,37,15,-9
7625,16,-139,204,34,15,-11
7630,16,-136,203,32,15,-10
7635,13,-136,205,30,14,-10
7640,16,-135,209,33,11,-12
7645,12,-138,206,35,9,-12
7650,18,-135,203,36,8,-13
7655,17,-135,209,40,6,-15
7660,16,-137,205,39,4,-14
7665,16,-135,205,39,3,-13
7670,16,-135,205,37,1,-14
7675,16,-137,207,36,0,-11
7680,17,-137,208,34,-1,-10
7685,14,-132,202,33,0,-7
7690,15,-135,205,33,-1,-6
7695,16,-133,204,31,-1,-7
7700,14,-131,209,29,-1,-8
7705,18,-134,204,29,1,-7
7710,16,-132,202,28,4,-7
7715,15,-137,204,28,7,-6
7720,18,-135,202,29,9,-5
7725,15,-133,203,30,12,-4
7730,14,-135,203,33,11,-6
7735,14,-136,207,34,14,-5
7740,16,-135,209,37,16,-5
7745,17,-139,206,40,15,-4
7750,12,-136,210,44,16,-6
7755,12,-130,209,48,16,-4
7760,14,-137,203,48,14,-8
7765,16,-137,203,46,13,-7
7770,12,-139,206,43,11,-8
7775,15,-139,205,40,9,-7
7780,16,-137,198,37,9,-8
7785,15,-136,203,35,10,-8
7790,15,-138,205,33,10,-9
7795,14,-139,200,33,8,-10
7800,16,-137,199,32,8,-10
7805,18,-138,201,33,7,-9
7810,15,-136,199,35,8,-7
7815,17,-137,207,37,9,-9
7820,17,-139,204,38,7,-9
7825,18,-138,204,38,7,-8
7830,15,-138,204,37,6,-7
7835,17,-137,204,36,7,-8
7840,15,-139,207,33,5,-9
7845,13,-139,207,33,7,-11
7850,18,-142,207,34,8,-11
7855,14,-136,201,33,11,-13
7860,17,-142,208,33,12,-12
7865,15,-135,208,32,13,-12
7870,18,-139,202,29,14,-10
7875,11,-135,205,28,15,-10
7880,17,-136,206,27,13,-10
7885,14,-136,205,27,12,-9
7890,15,-139,205,27,13,-10
7895,16,-136,204,29,11,-9
7900,17,-137,201,31,11,-8
7905,15,-141,202,32,10,-8
7910,15,-142,203,37,8,-9
7915,13,-139,204,39,9,-8
7920,13,-136,199,42,9,-8
7925,16,-138,203,45,10,-11
7930,16,-136,203,44,13,-10
7935,15,-137,205,41,14,-13
7940,16,-137,203,39,16,-13
7945,15,-135,204,34,18,-13
7950,18,-135,205,31,18,-13
7955,17,-137,204,27,17,-14
7960,16,-138,201,24,16,-12
7965,14,-137,203,20,16,-14
7970,15,-143,203,20,15,-13
7975,22,-136,201,20,16,-9
7980,19,-138,205,22,14,-8
7985,16,-139,208,23,14,-5
7990,15,-140,203,26,14,-4
7995,14,-137,206,27,11,-4
8000,17,-140,205,26,9,-5
8005,15,-136,206,25,8,-7
8010,16,-137,204,25,8,-8
8015,14,-140,207,26,8,-8
8020,13,-137,207,28,9,-6
8025,20,-140,202,30,12,-4
8030,19,-140,203,32,15,-3
8035,17,-138,203,33,16,-2
8040,14,-137,205,33,16,-1
8045,16,-135,202,32,17,-2
8050,16,-138,203,32,17,-3
8055,11,-135,202,31,17,-4
8060,16,-138,203,30,15,-6
8065,15,-140,206,28,13,-5
8070,15,-137,205,26,9,-4
8075,15,-138,201,25,7,-5
8080,16,-143,211,27,4,-5
8085,15,-141,204,32,2,-7
8090,14,-137,208,38,0,-6
8095,14,-139,202,45,0,-8
8100,16,-141,205,50,0,-7
8105,13,-141,208,54,2,-6
8110,18,-137,204,55,3,-6
8115,16,-140,202,54,6,-4
8120,15,-137,206,51,8,-5
8125,16,-138,207,46,10,-4
8130,13,-141,205,42,13,-4
8135,19,-141,195,38,14,-4
8140,16,-137,203,32,16,-4
8145,17,-136,200,29,16,-6
8150,15,-140,204,28,16,-6
8155,16,-137,201,27,13,-5
8160,14,-139,201,28,13,-5
8165,12,-137,201,28,10,-4
8170,17,-137,203,32,10,-6
8175,13,-137,202,34,9,-5
8180,15,-138,207,36,8,-5
8185,13,-137,205,39,4,-7
8190,16,-138,202,41,4,-7
8195,15,-139,203,42,3,-7
8200,15,-139,203,44,2,-7
8205,15,-141,205,42,1,-7
8210,17,-139,206,40,1,-5
8215,14,-138,204,39,0,-5
8220,16,-139,205,38,-2,-6
8225,12,-140,203,37,-2,-6
8230,14,-137,201,35,-1,-7
8235,12,-136,203,33,1,-7
8240,18,-134,204,30,5,-9
8245,13,-139,201,26,8,-7
8250,15,-139,200,23,12,-8
8255,14,-138,198,22,13,-7
8260,11,-137,203,23,13,-8
8265,14,-140,201,24,14,-10
8270,14,-138,202,27,14,-10
8275,14,-137,204,29,13,-11
8280,14,-140,201,30,12,-12
8285,16,-139,206,32,11,-11
8290,18,-140,202,30,8,-11
8295,16,-138,201,32,4,-11
8300,14,-137,209,30,2,-12
8305,13,-139,200,30,1,-12
8310,15,-140,200,30,-1,-12
8315,18,-137,207,29,1,-9
8320,16,-140,201,29,2,-9
8325,15,-139,201,32,5,-5
8330,12,-132,202,33,7,-4
8335,16,-141,203,36,9,-5
8340,19,-141,207,38,8,-4
8345,15,-141,207,39,11,-4
8350,14,-141,200,39,11,-4
8355,14,-146,202,38,12,-4
8360,17,-137,198,35,10,-3
8365,18,-139,199,32,8,-3
8370,14,-139,204,29,8,-4
8375,18,-139,201,28,6,-5
8380,14,-139,201,30,6,-6
8385,14,-139,199,32,7,-6
8390,15,-137,204,39,7,-6
8395,14,-142,197,45,8,-7
8400,16,-142,205,48,7,-7
8405,16,-144,206,53,8,-6
8410,17,-140,203,54,9,-6
8415,17,-142,205,52,9,-6
8420,16,-142,204,52,10,-6
8425,17,-138,201,52,12,-4
8430,16,-140,200,48,13,-2
8435,17,-142,202,42,14,-2
8440,16,-140,201,36,13,-2
8445,20,-139,202,33,10,-2
8450,15,-137,203,30,9,-2
8455,18,-142,201,30,5,-1
8460,15,-143,204,31,1,-4
8465,13,-145,202,33,0,-3
8470,18,-139,201,35,-1,-3
8475,16,-137,201,38,0,-3
8480,18,-142,199,40,0,-3
8485,15,-143,203,42,3,-3
8490,13,-140,202,43,5,-2
8495,14,-138,202,45,6,-2
8500,18,-138,199,45,6,-1
8505,16,-142,205,46,6,-2
8510,18,-144,204,45,6,-5
8515,11,-139,195,44,8,-4
8520,17,-140,197,44,8,-3
8525,17,-139,198,44,9,-5
8530,16,-140,198,44,14,-6
8535,14,-141,202,46,15,-7
8540,16,-135,202,47,15,-3
8545,13,-134,201,50,17,-6
8550,15,-142,203,53,17,-6
8555,15,-141,206,55,15,-5
8560,17,-142,203,58,13,-7
8565,17,-140,206,58,11,-7
8570,15,-140,197,59,9,-8
8575,15,-141,201,58,9,-9
8580,13,-138,203,60,9,-8
8585,15,-140,202,62,11,-7
8590,13,-139,199,63,13,-8
8595,16,-137,199,66,16,-8
8600,16,-141,203,67,15,-6
8605,17,-142,201,66,16,-6
8610,19,-139,206,64,16,-5
8615,15,-140,205,60,14,-4
8620,17,-139,206,57,14,-6
8625,16,-142,196,55,14,-5
8630,15,-140,203,53,14,-6
8635,16,-139,200,52,14,-3
8640,16,-139,203,53,15,-3
8645,16,-138,204,54,15,-3
8650,13,-140,201,56,17,-2
8655,13,-139,198,57,16,-3
8660,18,-136,197,56,17,-5
8665,17,-138,203,53,14,-7
8670,18,-140,204,51,10,-6
8675,15,-140,200,47,6,-7
8680,16,-138,200,47,4,-6
8685,18,-140,201,49,3,-7
8690,16,-141,201,52,3,-7
8695,16,-141,197,56,5,-5
8700,17,-138,203,58,7,-5
8705,15,-141,201,61,9,-6
8710,15,-138,201,62,11,-6
8715,16,-137,197,64,14,-6
8720,15,-139,204,64,15,-8
8725,15,-139,205,60,18,-7
8730,15,-139,205,56,19,-7
8735,19,-144,201,51,20,-7
8740,15,-142,198,50,19,-8
8745,16,-141,203,53,19,-8
8750,15,-140,203,55,18,-8
8755,13,-138,200,59,17,-8
8760,14,-139,205,64,17,-9
8765,13,-141,202,69,14,-10
8770,16,-136,205,73,12,-10
8775,15,-141,205,77,11,-10
8780,19,-142,204,77,12,-6
8785,14,-138,205,76,11,-6
8790,7,-141,211,74,11,-2
8795,19,-139,204,69,11,-3
8800,18,-140,202,64,9,-5
8805,16,-140,205,58,9,-5
8810,15,-138,200,54,8,-6
8815,14,-138,201,52,8,-4
8820,17,-141,201,53,10,-4
8825,15,-140,204,55,12,-3
8830,15,-140,204,58,13,-2
8835,17,-137,203,62,14,-2
8840,14,-138,203,65,15,-4
8845,22,-140,198,69,15,-4
8850,15,-139,201,70,16,-3
8855,16,-138,201,71,16,-7
8860,15,-141,204,71,14,-8
8865,15,-141,205,72,13,-9
8870,14,-138,201,72,11,-11
8875,14,-138,203,72,11,-11
8880,16,-139,200,72,11,-12
8885,15,-137,201,69,10,-10
8890,13,-137,204,66,11,-10
8895,14,-139,199,65,12,-9
8900,11,-140,199,63,13,-9
8905,19,-141,201,62,13,-7
8910,13,-137,198,60,13,-7
8915,15,-140,201,59,14,-6
8920,15,-138,200,60,15,-7
8925,12,-138,204,62,15,-7
8930,13,-139,204,63,17,-8
8935,13,-140,197,65,19,-8
8940,16,-138,202,66,19,-8
8945,17,-143,200,66,19,-7
8950,14,-141,206,68,19,-8
8955,12,-137,198,69,21,-9
8960,13,-138,205,70,19,-11
8965,16,-143,202,73,17,-11
8970,15,-138,206,73,16,-12
8975,15,-136,202,75,15,-12
8980,16,-138,200,74,13,-12
8985,16,-137,201,74,13,-11
8990,16,-137,203,73,13,-11
8995,14,-137,203,74,12,-11
9000,13,-140,207,75,14,-5
9005,14,-139,197,76,16,-7
9010,9,-132,199,75,17,-5
9015,17,-140,201,73,19,-6
9020,16,-139,206,72,21,-6
9025,13,-136,201,68,21,-5
9030,17,-137,202,67,21,-5
9035,14,-137,204,65,20,-3
9040,15,-139,206,62,19,-6
9045,15,-141,205,60,18,-8
9050,12,-136,204,62,16,-8
9055,16,-140,206,64,16,-7
9060,14,-135,203,65,15,-9
9065,15,-138,201,69,16,-11
9070,16,-137,203,71,15,-12
9075,17,-142,204,72,15,-15
9080,17,-139,202,72,17,-12
9085,14,-138,203,73,19,-11
9090,13,-134,201,72,20,-12
9095,12,-138,204,71,20,-12
9100,16,-138,204,70,21,-13
9105,16,-140,204,65,19,-14
9110,16,-139,205,63,15,-13
9115,15,-145,207,58,13,-15
9120,15,-138,202,56,10,-14
9125,14,-139,205,53,9,-13
9130,14,-138,207,52,8,-12
9135,17,-139,205,52,7,-11
9140,16,-137,204,51,8,-10
9145,10,-137,206,50,7,-9
9150,15,-141,207,49,7,-10
9155,15,-140,205,47,7,-11
9160,15,-139,205,47,7,-8
9165,14,-136,200,45,9,-8
9170,16,-134,206,46,11,-9
9175,15,-137,204,45,12,-8
9180,13,-135,201,46,16,-9
9185,17,-136,200,47,18,-9
9190,16,-140,204,45,20,-6
9195,13,-139,205,45,21,-6
9200,16,-139,203,48,21,-8
9205,17,-145,203,48,20,-10
9210,16,-139,204,50,19,-10
9215,15,-137,200,52,17,-10
9220,19,-141,205,53,17,-11
9225,23,-136,199,54,16,-11
9230,17,-138,202,54,15,-10
9235,15,-140,206,55,13,-11
9240,15,-136,204,53,12,-9
9245,19,-141,204,49,12,-7
9250,13,-136,200,48,11,-6
9255,17,-140,204,49,11,-6
9260,17,-139,201,51,9,-5
9265,15,-137,199,53,8,-4
9270,17,-142,202,55,6,-5
9275,13,-136,202,58,6,-4
9280,15,-139,201,60,6,-5
9285,13,-135,200,63,7,-5
9290,12,-139,203,63,8,-7
9295,16,-137,199,62,9,-8
9300,16,-140,204,64,12,-8
9305,12,-140,202,63,14,-6
9310,13,-139,204,64,18,-6
9315,14,-136,200,63,19,-5
9320,14,-140,204,61,22,-5
9325,14,-135,202,59,25,-5
9330,17,-138,202,59,27,-6
9335,18,-142,194,55,26,-7
9340,19,-139,203,53,22,-8
9345,14,-138,204,51,21,-8
9350,18,-137,202,53,20,-7
9355,13,-137,204,53,18,-7
9360,16,-136,201,55,15,-7
9365,16,-138,206,56,13,-6
9370,15,-137,202,60,10,-5
9375,15,-137,199,62,10,-6
9380,18,-140,204,65,8,-6
9385,15,-136,206,67,8,-5
9390,14,-129,196,66,10,-5
9395,15,-138,207,65,10,-5
9400,14,-139,205,62,11,-6
9405,15,-139,203,58,11,-7
9410,12,-139,199,55,10,-7
9415,15,-139,206,54,12,-8
9420,14,-138,202,53,13,-7
9425,13,-139,203,54,12,-7
9430,14,-137,202,56,13,-8
9435,15,-135,207,62,13,-7
9440,13,-137,206,70,14,-8
9445,23,-141,205,77,13,-8
9450,16,-139,205,81,13,-8
9455,17,-142,203,85,15,-7
9460,15,-138,205,88,17,-6
9465,11,-139,202,87,21,-8
9470,16,-137,205,85,23,-9
9475,14,-142,208,81,25,-10
9480,15,-137,207,76,24,-8
9485,17,-140,207,72,21,-10
9490,11,-136,206,68,19,-9
9495,13,-137,209,63,17,-8
9500,9,-138,201,62,16,-9
9505,12,-135,202,61,14,-8
9510,14,-140,204,59,13,-8
9515,13,-137,204,61,11,-9
9520,14,-139,204,60,9,-9
9525,16,-138,204,57,7,-8
9530,17,-136,203,57,8,-10
9535,12,-135,204,58,9,-9
9540,16,-141,202,59,10,-10
9545,13,-138,203,60,13,-10
9550,13,-139,205,59,14,-11
9555,13,-135,205,59,16,-11
9560,15,-137,203,58,16,-12
9565,14,-137,204,58,15,-12
9570,15,-139,204,57,14,-14
9575,17,-136,203,56,14,-13
9580,17,-136,204,55,14,-12
9585,17,-137,205,55,11,-13
9590,16,-137,203,53,12,-12
9595,15,-137,211,52,11,-14
9600,15,-135,206,51,9,-12
9605,11,-139,201,51,10,-10
9610,15,-137,206,51,10,-10
9615,14,-137,204,49,11,-9
9620,14,-137,207,48,11,-10
9625,15,-136,206,49,10,-10
9630,15,-137,202,48,12,-10
9635,14,-139,211,47,12,-11
9640,16,-137,207,48,12,-11
9645,15,-138,202,47,11,-13
9650,13,-136,205,47,10,-13
9655,21,-140,204,45,11,-13
9660,21,-145,202,46,10,-13
9665,13,-138,205,47,11,-13
9670,13,-137,203,48,12,-12
9675,12,-137,207,46,13,-12
9680,15,-136,205,46,12,-12
9685,14,-135,201,46,12,-13
9690,14,-137,198,43,13,-10
9695,15,-138,204,40,13,-11
9700,13,-140,206,39,13,-11
9705,14,-137,204,38,12,-10
9710,15,-137,206,35,12,-9
9715,17,-143,208,34,13,-8
9720,14,-136,205,33,15,-9
9725,15,-137,205,36,15,-9
9730,16,-138,203,38,13,-9
9735,13,-136,199,38,14,-7
9740,12,-140,199,39,14,-7
9745,15,-139,204,39,14,-7
9750,14,-139,202,40,15,-7
9755,16,-140,205,41,16,-8
9760,14,-139,199,42,17,-9
9765,14,-138,198,45,16,-10
9770,10,-140,201,47,16,-11
9775,15,-140,201,46,16,-11
9780,15,-136,202,44,15,-10
9785,14,-135,204,42,14,-12
9790,13,-138,207,42,11,-12
9795,12,-139,208,41,11,-12
9800,13,-137,209,39,9,-12
9805,15,-140,204,39,9,-11
9810,15,-138,203,37,11,-10
9815,14,-137,205,34,12,-10
9820,14,-137,206,34,13,-11
9825,10,-137,204,33,15,-10
9830,15,-139,207,35,16,-8
9835,14,-138,203,37,17,-9
9840,13,-142,204,40,18,-7
9845,15,-137,201,41,17,-6
9850,12,-139,198,44,17,-7
9855,15,-137,200,44,17,-7
9860,16,-139,204,45,15,-10
9865,14,-139,205,43,13,-12
9870,17,-140,207,43,12,-14
9875,14,-141,201,41,11,-13
9880,19,-143,198,38,10,-14
9885,15,-140,202,36,11,-15
9890,15,-137,203,34,11,-16
9895,14,-138,204,33,12,-15
9900,15,-134,202,32,11,-15
9905,12,-135,206,31,8,-14
9910,13,-138,207,32,8,-12
9915,14,-138,200,34,7,-11
9920,16,-134,203,35,7,-10
9925,13,-138,198,37,6,-8
9930,17,-138,205,37,5,-5
9935,12,-137,198,38,6,-5
9940,16,-136,202,40,5,-5
9945,16,-141,204,40,7,-5
9950,17,-136,202,40,6,-6
9955,13,-137,200,40,9,-3
9960,14,-138,201,39,11,-4
9965,16,-137,205,40,12,-5
9970,15,-138,206,38,11,-5
9975,18,-140,201,36,11,-4
9980,15,-140,203,32,11,-5
9985,17,-142,204,29,9,-6
9990,19,-144,201,27,6,-4
9995,15,-141,204,27,4,-4
10000,13,-139,203,28,3,-6
10005,16,-139,201,27,2,-5
10010,13,-135,204,22,2,-7
10015,15,-138,202,18,4,-8
10020,16,-141,199,17,4,-6
10025,14,-138,200,16,6,-8
10030,17,-139,198,17,7,-8
10035,13,-141,199,17,9,-9
10040,15,-138,203,19,11,-9
10045,17,-137,200,19,10,-8
10050,15,-137,200,20,9,-9
10055,16,-142,204,24,10,-9
10060,16,-139,204,26,7,-9
10065,15,-139,202,30,7,-10
10070,14,-140,206,32,7,-11
10075,16,-138,203,33,8,-10
10080,16,-141,201,31,9,-10
10085,13,-139,199,27,6,-11
10090,15,-138,206,22,4,-12
10095,9,-135,196,18,4,-13
10100,12,-139,204,18,5,-14
10105,14,-138,199,20,6,-13
10110,12,-140,199,22,8,-13
10115,15,-139,201,26,11,-11
10120,11,-138,199,33,13,-9
10125,14,-138,203,39,15,-7
10130,10,-136,204,45,19,-6
10135,16,-142,201,49,19,-5
10140,16,-139,203,50,19,-4
10145,15,-141,207,49,16,-3
10150,12,-140,200,44,12,-4
10155,11,-140,205,38,10,-4
10160,13,-137,200,32,9,-4
10165,14,-139,205,26,7,-4
10170,14,-139,199,24,6,-3
10175,15,-138,198,22,4,-1
10180,16,-139,202,21,5,1
10185,14,-138,205,19,3,3
10190,14,-142,204,22,1,2
10195,15,-137,204,23,2,0
10200,16,-138,200,25,1,-1
10205,18,-135,201,26,2,-2
10210,14,-139,200,25,2,-1
10215,15,-139,202,26,2,-5
10220,17,-143,202,27,2,-4
10225,16,-141,199,29,1,-5
10230,17,-140,201,31,1,-4
10235,15,-141,205,32,0,-5
10240,15,-139,201,34,1,-6
10245,15,-143,206,33,-1,-5
10250,16,-141,201,30,-2,-4
10255,17,-139,204,26,-2,-4
10260,14,-141,196,23,-1,-6
10265,12,-141,200,20,2,-3
10270,17,-139,200,18,4,-2
10275,18,-141,200,18,6,-4
10280,18,-142,200,17,6,-4
10285,17,-142,203,15,6,-4
10290,16,-138,202,15,5,-7
10295,13,-138,199,17,3,-8
10300,15,-141,198,20,3,-9
10305,16,-140,202,22,2,-7
10310,16,-140,202,26,2,-8
10315,17,-139,198,27,2,-8
10320,16,-140,198,30,2,-9
10325,19,-142,201,34,1,-9
10330,15,-143,203,36,2,-9
10335,14,-142,202,38,3,-9
10340,15,-143,204,41,4,-9
10345,15,-138,198,41,4,-8
10350,14,-146,204,40,5,-10
10355,15,-142,202,40,5,-10
10360,15,-141,207,38,7,-8
10365,17,-140,202,37,6,-9
10370,10,-145,201,38,7,-10
10375,13,-141,199,39,9,-9
10380,12,-138,198,39,10,-9
10385,14,-140,201,36,10,-7
10390,17,-144,201,34,10,-5
10395,13,-141,201,33,9,-7
10400,17,-143,201,31,11,-6
10405,13,-142,201,32,10,-6
10410,14,-144,199,34,10,-5
10415,15,-140,202,39,11,-7
10420,16,-143,201,44,9,-8
10425,10,-146,200,47,10,-9
10430,16,-141,204,50,10,-9
10435,13,-139,197,53,10,-9
10440,11,-139,199,53,11,-10
10445,13,-140,202,53,13,-10
10450,17,-140,198,55,15,-10
10455,17,-144,199,55,16,-9
10460,17,-143,203,54,16,-10
10465,18,-144,202,52,16,-10
10470,17,-141,200,51,14,-12
10475,17,-145,203,52,12,-12
10480,18,-142,196,55,11,-13
10485,17,-141,200,56,12,-11
10490,16,-139,202,58,11,-11
10495,17,-144,197,60,9,-12
10500,17,-145,202,62,8,-13
10505,16,-141,200,64,8,-15
10510,14,-140,197,67,9,-12
10515,19,-139,204,67,11,-11
10520,14,-142,199,64,12,-10
10525,16,-143,200,63,14,-11
10530,10,-138,202,62,16,-12
10535,13,-139,195,60,17,-10
10540,16,-143,198,59,16,-10
10545,16,-137,202,58,15,-11
10550,17,-143,201,57,13,-10
10555,15,-140,198,57,12,-9
10560,14,-142,199,57,11,-10
10565,16,-141,202,59,11,-11
10570,18,-142,202,62,11,-11
10575,13,-138,202,63,11,-12
10580,21,-138,203,65,11,-11
10585,14,-143,203,65,11,-11
10590,15,-140,198,63,10,-9
10595,16,-140,203,60,11,-10
10600,13,-137,204,56,12,-10
10605,14,-139,204,57,10,-9
10610,12,-139,203,58,8,-9
10615,13,-139,199,60,10,-7
10620,15,-144,198,62,9,-7
10625,15,-139,198,65,8,-9
10630,16,-141,200,67,9,-8
10635,13,-141,196,69,10,-8
10640,9,-144,211,70,11,-10
10645,14,-142,199,70,14,-10
10650,14,-140,200,72,16,-10
10655,15,-141,199,73,18,-10
10660,15,-140,202,74,19,-12
10665,14,-138,199,74,21,-10
10670,15,-141,202,75,19,-11
10675,14,-138,201,75,18,-10
10680,17,-142,205,75,18,-11
10685,14,-142,200,75,16,-10
10690,16,-140,203,76,15,-11
10695,15,-140,204,74,14,-11
10700,15,-138,207,74,15,-8
10705,17,-141,203,71,14,-8
10710,15,-136,204,68,15,-10
10715,18,-142,206,65,14,-13
10720,16,-140,206,64,13,-12
10725,16,-142,201,63,12,-12
10730,14,-138,202,63,12,-12
10735,16,-140,203,63,12,-14
10740,13,-142,202,64,13,-12
10745,19,-140,202,66,15,-13
10750,17,-139,202,68,15,-12
10755,14,-140,199,72,15,-10
10760,12,-138,205,74,17,-9
10765,16,-138,200,76,19,-7
10770,12,-141,200,75,22,-11
10775,14,-141,201,71,23,-9
10780,17,-141,206,68,22,-9
10785,16,-143,201,65,21,-8
10790,16,-141,205,64,19,-10
10795,17,-145,202,64,17,-11
10800,16,-142,206,67,16,-9
10805,15,-134,206,71,16,-9
10810,16,-142,201,76,15,-9
10815,12,-139,203,79,14,-9
10820,14,-143,203,86,15,-8
10825,14,-140,206,89,15,-8
10830,15,-141,201,91,17,-7
10835,15,-139,200,92,18,-8
10840,15,-139,202,89,17,-8
10845,16,-143,203,84,17,-11
10850,19,-139,203,79,17,-12
10855,15,-140,207,74,18,-12
10860,11,-134,203,69,18,-11
10865,16,-140,201,66,18,-11
10870,13,-139,206,62,18,-13
10875,15,-141,205,61,16,-13
10880,16,-138,200,61,14,-10
10885,16,-140,200,63,13,-10
10890,15,-138,203,65,12,-11
10895,16,-140,207,66,8,-9
10900,14,-139,205,68,8,-10
10905,16,-135,199,68,6,-9
10910,17,-140,206,70,7,-9
10915,18,-140,203,71,7,-8
10920,16,-138,203,73,8,-8
10925,13,-136,203,72,9,-9
10930,14,-138,199,73,11,-6
10935,15,-139,202,76,13,-5
10940,12,-140,202,77,15,-6
10945,14,-137,202,78,15,-6
10950,14,-137,203,79,16,-7
10955,13,-135,205,78,16,-6
10960,15,-138,200,75,17,-7
10965,16,-140,203,71,16,-6
10970,14,-143,205,68,17,-9
10975,12,-137,207,64,16,-7
10980,15,-138,203,61,15,-10
10985,17,-139,203,61,15,-11
10990,16,-142,204,61,14,-10
10995,18,-141,204,64,11,-10
11000,16,-137,205,66,11,-10
11005,18,-138,202,68,10,-9
11010,15,-139,199,70,8,-10
11015,13,-138,206,72,7,-9
11020,16,-140,205,73,7,-9
11025,14,-137,201,73,7,-8
11030,16,-142,205,75,9,-6
11035,18,-140,204,75,11,-10
11040,15,-138,206,77,12,-8
11045,13,-138,203,76,12,-9
11050,12,-135,204,75,14,-10
11055,16,-137,204,72,14,-9
11060,15,-136,206,69,17,-8
11065,15,-138,204,66,17,-9
11070,15,-138,200,64,19,-9
11075,21,-143,198,61,19,-9
11080,16,-138,198,58,18,-8
11085,15,-139,205,55,18,-8
11090,14,-138,205,53,16,-9
11095,14,-138,203,50,16,-10
11100,16,-139,208,51,14,-10
11105,16,-138,205,52,14,-10
11110,15,-136,204,53,14,-8
11115,15,-135,202,54,15,-7
11120,16,-141,204,55,16,-7
11125,15,-137,204,57,17,-8
11130,16,-137,195,58,17,-11
11135,13,-137,205,58,18,-9
11140,14,-141,202,62,17,-9
11145,16,-138,203,62,17,-11
11150,12,-136,203,62,17,-12
11155,13,-137,201,63,17,-11
11160,15,-139,198,63,17,-10
11165,15,-136,201,64,17,-10
11170,14,-139,203,65,16,-9
11175,11,-140,203,66,16,-8
11180,13,-138,203,67,13,-7
11185,12,-134,201,68,13,-6
11190,16,-137,207,65,9,-6
11195,15,-140,202,61,8,-5
11200,17,-141,206,55,5,-6
11205,15,-136,202,52,3,-5
11210,16,-137,201,49,2,-4
11215,16,-139,204,48,1,-4
11220,13,-139,203,49,2,-5
11225,11,-134,203,51,2,-5
11230,16,-136,205,53,3,-4
11235,16,-138,203,54,5,-5
11240,14,-140,203,56,8,-5
11245,14,-138,204,57,10,-5
11250,14,-134,201,59,11,-5
11255,14,-139,205,62,16,-4
11260,15,-134,203,64,20,-4
11265,17,-138,205,65,21,-6
11270,13,-135,204,68,22,-6
11275,15,-141,203,71,23,-5
11280,19,-136,206,72,23,-6
11285,17,-137,208,73,23,-7
11290,15,-140,213,72,24,-5
11295,15,-143,204,72,22,-7
11300,14,-137,206,72,20,-9
11305,14,-139,204,69,17,-8
11310,16,-140,201,68,14,-5
11315,16,-140,204,65,13,-2
11320,17,-138,202,63,13,1
11325,18,-139,205,62,12,2
11330,12,-138,204,62,12,6
11335,13,-140,202,64,11,7
11340,14,-138,203,67,11,9
11345,15,-133,201,71,12,10
11350,21,-136,199,81,17,16
11355,14,-140,204,80,12,8
11360,15,-137,206,76,9,6
11365,14,-140,204,70,10,1
11370,12,-137,201,66,11,1
11375,15,-138,204,64,11,-2
11380,13,-136,201,62,11,-2
11385,18,-140,203,61,12,-2
11390,15,-139,205,61,13,-1
11395,13,-136,203,62,14,-2
11400,15,-136,206,63,14,-3
11405,17,-137,197,64,14,-5
11410,17,-137,208,65,15,-5
11415,14,-138,202,63,15,-5
11420,18,-138,204,64,15,-5
11425,14,-136,205,62,14,-4
11430,14,-138,206,57,13,-6
11435,18,-138,206,55,12,-8
11440,15,-138,206,53,12,-6
11445,16,-136,208,52,12,-6
11450,14,-137,199,51,10,-7
11455,13,-135,204,51,12,-7
11460,7,-139,200,54,13,-8
11465,15,-139,201,56,14,-7
11470,12,-135,205,57,15,-8
11475,14,-139,206,57,15,-7
11480,12,-139,205,54,16,-8
11485,15,-141,206,53,16,-7
11490,15,-138,206,50,15,-7
11495,14,-138,202,50,12,-7
11500,12,-136,205,50,12,-6
11505,14,-137,203,55,14,-7
11510,13,-137,199,60,13,-7
11515,13,-138,206,67,13,-6
11520,14,-139,201,75,14,-4
11525,14,-135,202,84,16,-4
11530,12,-135,202,90,17,-3
11535,13,-135,201,99,16,0
11540,11,-136,203,104,14,0
11545,14,-135,205,109,13,-2
11550,18,-138,206,108,10,-2
11555,14,-137,205,104,6,2
11560,15,-140,202,98,-1,3
11565,16,-134,207,91,-6,4
11570,13,-135,207,84,-10,6
11575,16,-139,207,75,-11,8
11580,17,-135,208,67,-12,10
11585,15,-136,207,59,-9,9
11590,14,-138,205,56,-7,11
11595,18,-137,209,54,-6,10
11600,14,-137,202,53,-3,8
11605,14,-133,209,51,1,8
11610,16,-136,205,51,5,8
11615,16,-136,204,51,9,6
11620,9,-139,199,48,12,3
11625,14,-138,202,49,14,0
11630,14,-138,203,49,18,0
11635,15,-139,200,51,20,0
11640,14,-135,205,52,22,-3
11645,15,-137,206,54,21,-4
11650,12,-134,203,55,21,-3
11655,12,-137,199,55,19,-3
11660,13,-133,203,56,18,-3
11665,14,-135,202,57,14,-3
11670,13,-134,204,57,10,-3
11675,14,-135,207,58,8,-3
11680,16,-138,206,58,4,-4
11685,18,-137,209,56,1,-6
11690,14,-134,210,58,1,-6
11695,14,-136,203,60,1,-8
11700,15,-138,201,60,2,-7
11705,14,-137,204,61,1,-7
11710,8,-138,201,61,5,-8
11715,12,-138,204,60,6,-8
11720,13,-140,207,60,9,-7
11725,15,-135,202,61,12,-8
11730,20,-132,205,60,14,-6
11735,14,-135,203,62,19,-8
11740,13,-134,205,63,21,-5
11745,13,-136,205,64,23,-5
11750,13,-136,200,64,24,-8
11755,16,-138,202,65,25,-7
11760,16,-138,203,65,25,-6
11765,15,-138,204,65,26,-6
11770,12,-135,203,62,24,-5
11775,14,-136,204,60,23,-4
11780,14,-134,207,58,20,-3
11785,12,-143,202,56,17,-2
11790,18,-141,206,51,14,-2
11795,14,-137,206,48,12,-1
11800,16,-139,205,46,9,-3
11805,15,-135,206,45,9,-2
11810,14,-136,204,44,11,-2
11815,14,-139,207,46,12,-3
11820,16,-139,204,47,14,-4
11825,12,-137,205,49,14,-3
11830,12,-137,206,50,15,-4
11835,11,-139,205,49,17,-5
11840,8,-141,195,50,18,-4
11845,14,-136,205,49,18,-5
11850,15,-134,201,50,19,-5
11855,13,-138,203,48,19,-4
11860,11,-139,203,49,17,-6
11865,18,-140,206,50,18,-5
11870,13,-139,206,50,17,-6
11875,16,-139,204,49,17,-6
11880,13,-137,201,49,17,-7
11885,11,-137,206,50,17,-6
11890,14,-140,206,51,16,-8
11895,13,-131,214,50,15,-8
11900,13,-138,206,50,13,-9
11905,14,-136,210,52,13,-10
11910,15,-137,207,50,10,-11
11915,13,-134,207,49,11,-12
11920,12,-134,202,47,9,-14
11925,15,-136,201,45,10,-11
11930,14,-138,205,43,11,-11
11935,12,-133,207,39,10,-10
11940,17,-134,208,37,12,-8
11945,16,-136,204,36,12,-7
11950,10,-136,200,34,12,-7
11955,10,-132,206,33,12,-5
11960,11,-133,205,32,14,-5
11965,12,-136,203,31,13,-4
11970,15,-137,207,29,13,-3
11975,16,-138,209,30,14,-1
11980,14,-135,203,29,13,-1
11985,12,-135,206,31,13,-3
11990,14,-133,205,34,11,-3
11995,15,-137,199,36,9,-4
12000,11,-137,206,40,9,-4
12005,13,-137,201,39,7,-5
12010,14,-136,205,41,3,-6
12015,13,-137,204,39,3,-6
12020,15,-135,205,37,2,-7
12025,14,-138,206,38,1,-5
12030,17,-135,201,38,1,-7
12035,16,-138,205,37,1,-8
12040,13,-137,201,37,-1,-7
12045,13,-140,203,36,-1,-5
12050,14,-137,207,36,-1,-5
12055,14,-134,204,36,0,-5
12060,22,-142,206,37,1,-6
12065,14,-139,203,38,1,-7
12070,14,-134,205,38,1,-10
12075,14,-135,204,37,2,-8
12080,14,-138,202,35,3,-8
12085,12,-136,204,34,6,-8
12090,12,-136,204,34,9,-11
12095,15,-136,205,32,12,-11
12100,13,-137,207,32,13,-12
12105,11,-138,206,28,15,-12
12110,18,-139,199,26,16,-15
12115,12,-137,203,25,16,-14
12120,15,-138,201,26,15,-13
12125,14,-139,200,25,15,-12
12130,15,-138,205,27,14,-11
12135,13,-139,203,31,16,-13
12140,16,-138,201,34,15,-16
12145,12,-139,205,37,14,-14
12150,15,-139,206,39,13,-14
12155,14,-137,205,39,10,-14
12160,14,-137,204,38,9,-15
12165,11,-138,201,37,8,-14
12170,14,-137,202,34,9,-11
12175,15,-134,202,33,8,-9
12180,14,-137,203,32,10,-9
12185,17,-135,201,30,11,-10
12190,11,-134,199,27,13,-10
12195,17,-134,199,26,13,-11
12200,14,-138,206,22,14,-10
12205,14,-141,205,21,13,-13
12210,14,-142,202,20,13,-13
12215,14,-139,199,20,15,-12
12220,14,-141,205,21,16,-11
12225,13,-139,203,24,16,-10
12230,14,-138,205,28,15,-8
12235,13,-138,201,32,15,-7
12240,12,-141,202,37,15,-5
12245,10,-140,199,41,16,-3
12250,12,-140,201,46,17,0
12255,14,-141,199,45,17,3
12260,12,-132,201,41,17,5
12265,11,-134,203,36,17,5
12270,18,-139,204,28,16,7
12275,12,-138,202,20,14,8
12280,14,-137,203,12,11,8
12285,9,-142,205,6,7,8
12290,13,-137,205,0,1,7
12295,16,-142,210,-5,-8,5
12300,18,-144,205,-9,-12,3
12305,15,-139,204,-13,-17,0
12310,15,-138,209,-16,-19,-2
12315,16,-137,206,-19,-18,-4
12320,16,-137,207,-22,-17,-7
12325,15,-138,201,-25,-14,-7
12330,13,-142,201,-26,-12,-10
12335,16,-136,204,-26,-10,-12
12340,18,-138,206,-25,-7,-11
12345,15,-132,205,-22,-4,-11
12350,17,-141,204,-19,-3,-11
12355,15,-140,206,-15,0,-10
12360,16,-139,203,-10,3,-8
12365,16,-139,201,-7,6,-9
12370,14,-137,204,-1,7,-11
12375,10,-140,199,4,10,-7
12380,15,-141,201,8,12,-8
12385,8,-143,203,10,13,-7
12390,11,-139,201,14,16,-8
12395,13,-140,202,15,15,-8
12400,12,-137,203,16,15,-6
12405,14,-141,201,15,15,-6
12410,12,-140,198,16,14,-6
12415,13,-138,202,17,14,-6
12420,14,-142,204,21,14,-10
12425,13,-142,203,29,15,-10
12430,12,-139,201,35,14,-10
12435,11,-139,208,40,13,-14
12440,10,-147,205,43,14,-14
12445,11,-141,203,46,12,-15
12450,10,-141,200,48,12,-16
12455,12,-142,197,47,12,-16
12460,11,-138,200,47,12,-16
12465,13,-138,201,45,11,-16
12470,10,-138,204,45,12,-16
12475,13,-141,203,43,14,-14
12480,14,-135,201,38,15,-13
12485,13,-138,200,35,16,-12
12490,15,-140,200,32,15,-14
12495,14,-140,195,30,15,-14
12500,15,-140,201,28,13,-16
12505,16,-142,203,24,12,-14
12510,15,-140,200,23,10,-16
12515,14,-139,203,23,10,-15
12520,16,-142,200,23,10,-14
12525,13,-140,201,23,9,-15
12530,16,-139,201,24,10,-13
12535,15,-141,199,28,10,-12
12540,16,-145,199,31,10,-13
12545,15,-141,202,33,10,-12
12550,21,-143,205,35,9,-13
12555,15,-142,200,36,9,-14
12560,15,-139,200,36,8,-17
12565,16,-143,199,35,7,-17
12570,13,-144,201,34,4,-19
12575,15,-141,197,32,2,-21
12580,16,-141,204,31,1,-20
12585,15,-141,208,29,0,-21
12590,17,-143,202,28,-2,-24
12595,8,-139,201,28,-2,-23
12600,17,-147,207,28,-2,-23
12605,14,-142,203,30,-1,-24
12610,17,-144,202,31,2,-23
12615,15,-143,203,33,2,-21
12620,16,-145,203,35,3,-22
12625,15,-144,206,34,3,-19
12630,15,-142,207,36,6,-18
12635,14,-144,203,33,7,-17
12640,19,-143,204,27,7,-16
12645,16,-143,204,23,8,-16
12650,17,-142,198,18,6,-16
12655,17,-137,207,11,6,-15
12660,14,-142,197,7,8,-17
12665,15,-141,197,5,6,-15
12670,11,-141,198,7,5,-18
12675,15,-141,200,14,4,-19
12680,14,-141,201,21,2,-20
12685,15,-142,199,27,0,-21
12690,14,-141,201,31,-1,-22
12695,14,-143,197,35,-1,-21
12700,13,-142,201,35,-1,-19
12705,16,-140,198,37,1,-18
12710,13,-141,200,37,2,-16
12715,17,-139,201,37,4,-16
12720,15,-140,199,37,3,-14
12725,16,-142,202,37,3,-14
12730,11,-141,199,34,2,-14
12735,13,-142,202,35,3,-13
12740,14,-143,200,34,4,-13
12745,15,-140,200,34,6,-13
12750,12,-145,203,33,8,-11
12755,14,-140,201,32,12,-10
12760,13,-142,203,32,12,-11
12765,12,-139,192,33,14,-8
12770,14,-145,198,33,17,-5
12775,16,-143,203,35,16,-4
12780,15,-145,202,37,16,-2
12785,17,-140,202,36,13,1
12790,15,-144,199,35,10,-1
12795,19,-143,197,35,6,-3
12800,18,-141,199,33,4,-4
12805,16,-142,200,32,5,-4
12810,17,-146,197,28,3,-4
12815,18,-140,204,29,3,-6
12820,8,-140,196,30,4,-7
12825,17,-145,203,33,5,-7
12830,15,-144,203,34,5,-9
12835,12,-142,203,35,5,-7
12840,17,-144,200,36,7,-9
12845,15,-142,198,35,10,-8
12850,13,-140,199,32,12,-7
12855,16,-141,197,29,12,-6
12860,16,-142,201,27,14,-7
12865,12,-138,198,24,13,-7
12870,12,-142,201,23,11,-8
12875,14,-140,197,21,10,-9
12880,16,-143,199,22,9,-8
12885,17,-144,197,21,7,-10
12890,19,-142,199,22,5,-9
12895,15,-142,197,22,5,-8
12900,14,-143,199,23,7,-7
12905,14,-141,203,25,9,-6
12910,17,-141,201,29,11,-5
12915,15,-143,201,29,14,-5
12920,15,-143,198,30,17,-7
12925,12,-142,203,29,17,-7
12930,16,-146,200,26,17,-8
12935,11,-141,198,25,18,-10
12940,13,-144,201,24,18,-12
12945,14,-144,198,25,17,-11
12950,12,-143,199,29,19,-10
12955,15,-145,196,34,19,-11
12960,17,-146,197,42,21,-10
12965,15,-147,197,51,22,-9
12970,14,-144,196,57,22,-8
12975,13,-143,194,64,23,-6
12980,13,-146,199,66,23,-5
12985,16,-141,194,67,19,-6
12990,16,-143,197,66,17,-4
12995,13,-142,203,63,15,-5
13000,18,-141,198,60,14,-3
13005,16,-143,199,57,13,-4
13010,14,-141,200,52,11,-6
13015,15,-142,196,53,10,-7
13020,15,-141,200,53,9,-7
13025,14,-145,201,54,8,-8
13030,14,-139,197,57,8,-8
13035,16,-144,199,58,10,-6
13040,12,-140,199,61,11,-7
13045,15,-143,197,60,12,-8
13050,16,-142,196,63,13,-8
13055,12,-143,198,64,13,-9
13060,14,-142,199,64,15,-9
13065,16,-146,201,67,16,-9
13070,15,-144,198,69,16,-8
13075,16,-140,202,69,16,-8
13080,17,-144,199,70,17,-8
13085,16,-144,200,72,18,-7
13090,14,-143,198,72,16,-8
13095,17,-142,200,75,17,-7
13100,13,-143,198,77,16,-8
13105,15,-145,196,78,16,-8
13110,16,-144,203,80,15,-10
13115,13,-142,204,80,13,-9
13120,16,-143,199,81,11,-10
13125,14,-143,201,81,8,-10
13130,12,-143,198,80,8,-10
13135,14,-142,202,81,10,-10
13140,14,-143,198,79,11,-11
13145,17,-145,198,77,10,-12
13150,12,-141,198,78,11,-11
13155,15,-143,196,79,11,-13
13160,15,-142,195,81,14,-11
13165,15,-144,201,82,14,-13
13170,15,-142,201,83,15,-12
13175,15,-144,194,86,16,-12
13180,15,-142,199,88,14,-11
13185,14,-142,198,91,15,-11
13190,14,-138,196,92,15,-9
13195,14,-141,201,96,16,-7
13200,12,-147,200,100,15,-6
13205,13,-140,198,102,15,-9
13210,15,-140,199,107,15,-10
13215,13,-141,199,111,17,-11
13220,15,-140,198,111,19,-13
13225,14,-140,199,110,21,-14
13230,13,-140,200,107,25,-15
13235,13,-140,200,102,26,-18
13240,14,-139,202,97,27,-17
13245,11,-144,203,92,27,-13
13250,14,-139,203,87,27,-12
13255,15,-142,203,84,27,-9
13260,14,-143,203,79,26,-9
13265,15,-143,199,78,26,-7
13270,16,-138,197,76,25,-7
13275,16,-141,199,77,26,-6
13280,16,-141,200,79,27,-7
13285,12,-139,198,83,29,-6
13290,17,-142,199,89,31,-4
13295,17,-146,197,94,32,-5
13300,20,-144,202,99,34,-5
13305,18,-145,198,103,35,-2
13310,13,-150,196,106,35,-1
13315,13,-141,201,106,34,-1
13320,18,-145,202,102,32,-1
13325,15,-142,204,99,31,0
13330,15,-143,199,94,29,-4
13335,15,-140,200,90,26,-4
13340,17,-143,202,85,26,-4
13345,15,-142,201,83,25,-5
13350,13,-144,201,83,25,-7
13355,13,-139,201,84,24,-8
13360,17,-143,206,86,24,-8
13365,13,-142,203,90,24,-10
13370,12,-140,206,95,25,-10
13375,13,-143,202,99,25,-9
13380,14,-141,205,104,27,-8
13385,13,-141,203,104,26,-7
13390,14,-142,205,104,23,-7
13395,12,-139,204,102,20,-6
13400,13,-141,203,97,18,-5
13405,11,-140,206,93,15,-4
13410,12,-138,200,88,15,-1
13415,15,-139,202,82,14,-1
13420,15,-138,197,78,15,1
13425,15,-138,205,73,17,0
13430,16,-140,205,72,19,1
13435,15,-121,196,72,21,2
13440,13,-144,203,88,38,22
13445,13,-141,205,94,30,10
13450,14,-138,203,92,21,-2
13455,14,-139,202,89,19,-4
13460,12,-137,207,85,20,-5
13465,13,-138,204,80,21,-7
13470,14,-142,204,79,20,-6
13475,11,-142,200,80,19,-7
13480,12,-136,202,83,18,-8
13485,13,-139,204,86,16,-6
13490,13,-139,203,88,15,-7
13495,13,-139,200,91,13,-6
13500,13,-140,202,90,11,-8
13505,15,-139,205,91,9,-9
13510,14,-137,205,93,8,-11
13515,16,-138,203,96,5,-14
13520,15,-135,202,96,5,-13
13525,12,-139,203,93,6,-9
13530,11,-140,199,89,8,-9
13535,16,-138,204,84,10,-7
13540,15,-139,202,84,12,-8
13545,13,-135,205,81,12,-9
13550,12,-138,203,77,14,-8
13555,14,-138,203,77,15,-6
13560,17,-139,200,73,16,-6
13565,14,-138,204,72,18,-5
13570,12,-138,206,72,20,-5
13575,17,-143,204,71,20,-5
13580,10,-137,201,71,21,-4
13585,28,-139,204,70,19,-4
13590,14,-140,203,69,18,-5
13595,12,-136,200,67,17,-6
13600,15,-137,200,66,16,-7
13605,13,-135,203,64,13,-7
13610,14,-138,206,63,11,-7
13615,11,-138,200,64,11,-7
13620,10,-140,200,63,10,-7
13625,14,-139,206,64,9,-5
13630,13,-138,207,66,10,-3
13635,13,-139,198,70,10,-5
13640,13,-139,203,72,12,-7
13645,11,-140,203,74,11,-7
13650,12,-138,204,76,11,-8
13655,15,-140,205,77,11,-12
13660,14,-141,204,75,11,-13
13665,13,-139,204,75,11,-13
13670,16,-140,207,72,11,-15
13675,8,-136,204,71,12,-16
13680,8,-139,202,71,14,-18
13685,11,-141,206,73,15,-17
13690,15,-142,200,77,15,-15
13695,12,-140,200,81,16,-15
13700,11,-140,202,90,18,-13
13705,15,-139,199,99,17,-11
13710,14,-140,202,106,17,-10
13715,14,-139,200,115,16,-9
13720,14,-136,203,121,15,-11
13725,13,-136,199,125,12,-14
13730,15,-138,205,128,11,-16
13735,13,-138,206,130,11,-18
13740,11,-136,204,128,9,-19
13745,13,-136,205,125,8,-19
13750,12,-136,204,120,7,-19
13755,16,-137,203,113,9,-17
13760,15,-136,206,104,9,-16
13765,14,-134,201,98,11,-13
13770,15,-140,205,90,13,-11
13775,13,-137,202,82,16,-8
13780,10,-133,202,77,18,-6
13785,18,-135,205,73,18,-7
13790,15,-135,203,68,18,-6
13795,11,-133,205,65,17,-7
13800,11,-139,198,65,15,-8
13805,15,-134,206,66,13,-8
13810,13,-134,203,66,12,-7
13815,16,-139,199,66,12,-8
13820,13,-136,206,67,10,-8
13825,14,-136,201,69,9,-11
13830,14,-139,203,70,9,-10
13835,14,-138,204,70,8,-9
13840,13,-134,205,71,9,-9
13845,14,-136,203,71,11,-10
13850,10,-138,202,75,11,-8
13855,10,-133,197,76,12,-8
13860,11,-139,207,76,13,-7
13865,13,-136,204,76,15,-8
13870,15,-136,205,77,16,-6
13875,11,-135,205,77,15,-9
13880,8,-134,203,75,15,-9
13885,12,-137,203,70,15,-12
13890,15,-136,205,68,15,-15
13895,12,-136,203,66,15,-16
13900,11,-132,201,64,15,-18
13905,14,-135,202,63,15,-19
13910,15,-135,202,63,14,-19
13915,12,-134,208,64,13,-20
13920,13,-134,206,68,14,-19
13925,13,-135,204,71,13,-20
13930,15,-135,206,73,13,-17
13935,14,-133,207,76,14,-18
13940,15,-136,204,78,12,-16
13945,17,-137,204,78,11,-13
13950,15,-135,204,76,9,-12
13955,13,-134,206,72,9,-10
13960,16,-136,205,69,9,-5
13965,16,-134,201,64,10,-7
13970,15,-128,205,65,14,1
13975,12,-139,208,68,21,12
13980,10,-136,207,64,10,0
13985,15,-135,206,55,6,-7
13990,13,-135,203,47,8,-10
13995,16,-136,203,43,9,-13
14000,17,-138,203,41,10,-12
14005,15,-136,207,42,13,-11
14010,13,-134,206,43,13,-9
14015,14,-134,202,47,13,-10
14020,18,-138,202,51,13,-10
14025,14,-139,215,55,14,-11
14030,13,-138,204,58,16,-12
14035,14,-140,206,61,15,-11
14040,15,-139,206,63,15,-12
14045,13,-139,208,67,15,-11
14050,14,-137,204,67,16,-11
14055,14,-137,209,67,15,-10
14060,13,-133,208,66,15,-11
14065,15,-136,212,63,13,-10
14070,15,-136,207,60,12,-8
14075,17,-138,204,57,9,-10
14080,12,-136,204,55,8,-11
14085,15,-135,205,55,8,-10
14090,15,-136,208,56,7,-11
14095,13,-133,202,57,7,-10
14100,12,-134,203,57,8,-10
14105,14,-137,205,57,8,-10
14110,11,-133,203,60,10,-11
14115,11,-133,205,62,10,-11
14120,13,-137,210,60,10,-11
14125,8,-132,203,61,10,-8
14130,7,-131,203,59,10,-9
14135,14,-138,208,58,11,-9
14140,15,-134,203,56,11,-9
14145,16,-137,208,53,10,-8
14150,14,-137,205,51,14,-9
14155,13,-136,207,47,14,-9
14160,16,-133,204,46,16,-9
14165,10,-130,203,44,16,-7
14170,15,-137,205,42,18,-6
14175,14,-137,205,43,19,-6
14180,13,-136,202,45,20,-7
14185,15,-135,203,44,19,-5
14190,15,-135,206,46,19,-6
14195,14,-137,208,47,18,-7
14200,13,-138,208,47,16,-7
14205,16,-135,207,47,14,-6
14210,13,-138,206,47,12,-7
14215,14,-136,205,49,11,-9
14220,15,-137,208,51,9,-9
14225,13,-136,204,54,9,-10
14230,16,-138,206,54,7,-13
14235,13,-137,210,55,5,-12
14240,13,-132,204,55,6,-14
14245,16,-137,207,55,6,-13
14250,12,-138,205,56,8,-11
14255,15,-137,205,55,8,-9
14260,14,-136,205,56,9,-8
14265,15,-135,205,57,11,-8
14270,13,-134,203,56,11,-8
14275,15,-135,204,56,11,-9
14280,11,-132,207,53,11,-8
14285,15,-135,206,53,13,-9
14290,15,-137,202,52,13,-9
14295,13,-136,204,50,15,-8
14300,11,-134,208,48,16,-9
14305,14,-133,204,48,19,-7
14310,13,-135,205,48,19,-9
14315,15,-138,206,48,21,-6
14320,11,-135,206,47,20,-8
14325,14,-133,208,48,19,-6
14330,14,-135,204,46,18,-4
14335,12,-134,202,43,16,-5
14340,14,-132,207,41,15,-8
14345,10,-139,209,39,14,-9
14350,12,-135,202,37,13,-10
14355,12,-135,205,36,13,-11
14360,14,-134,206,33,12,-11
14365,14,-134,205,30,11,-11
14370,16,-136,205,30,11,-11
14375,13,-132,206,29,12,-9
14380,13,-136,208,27,13,-7
14385,15,-139,209,27,12,-7
14390,15,-138,206,28,13,-7
14395,16,-136,206,23,15,-8
14400,16,-144,210,23,14,-8
14405,15,-137,209,20,13,-10
14410,12,-137,205,17,11,-13
14415,16,-137,204,15,9,-16
14420,10,-137,206,15,9,-17
14425,12,-137,204,14,10,-17
14430,12,-134,202,14,10,-19
14435,15,-136,208,16,12,-18
14440,14,-139,206,18,13,-18
14445,11,-139,205,24,13,-16
14450,10,-138,204,30,15,-16
14455,23,-136,200,36,15,-16
14460,13,-136,200,41,16,-15
14465,16,-137,202,43,16,-16
14470,14,-134,204,44,14,-13
14475,13,-134,203,44,14,-12
14480,14,-136,206,42,15,-13
14485,14,-137,204,40,13,-12
14490,9,-137,205,39,11,-9
14495,14,-137,207,37,11,-9
14500,17,-139,208,36,7,-9
14505,15,-140,207,32,5,-10
14510,13,-137,208,30,2,-9
14515,15,-135,202,25,2,-8
14520,18,-136,205,21,0,-9
14525,13,-132,207,17,1,-10
14530,13,-134,207,12,2,-13
14535,17,-137,207,8,6,-13
14540,14,-137,203,5,7,-12
14545,12,-137,205,4,8,-11
14550,15,-136,204,4,8,-12
14555,14,-139,203,5,9,-11
14560,13,-136,203,7,10,-13
14565,12,-132,203,12,9,-13
14570,12,-135,201,17,8,-14
14575,12,-138,205,20,7,-13
14580,14,-135,206,23,6,-11
14585,15,-138,208,23,5,-12
14590,14,-135,204,24,5,-13
14595,14,-138,203,24,4,-13
14600,13,-138,206,24,5,-12
14605,15,-139,206,23,5,-11
14610,16,-139,202,22,5,-10
14615,14,-138,204,21,4,-8
14620,17,-136,206,20,5,-10
14625,13,-136,208,19,7,-9
14630,14,-138,201,17,6,-13
14635,13,-138,202,16,7,-12
14640,12,-138,206,15,7,-12
14645,14,-137,203,15,8,-13
14650,14,-141,202,17,9,-12
14655,13,-140,205,19,10,-11
14660,11,-139,206,22,10,-12
14665,14,-139,204,25,10,-11
14670,14,-137,197,26,10,-12
14675,13,-136,199,27,11,-11
14680,15,-139,202,27,11,-8
14685,9,-137,201,24,13,-8
14690,15,-138,204,22,14,-7
14695,11,-137,203,23,13,-10
14700,17,-141,203,23,14,-8
14705,13,-137,203,24,13,-7
14710,16,-142,203,23,11,-7
14715,15,-141,203,21,11,-6
14720,14,-138,206,20,11,-6
14725,14,-139,212,20,10,-4
14730,16,-138,200,18,11,-5
14735,17,-140,205,17,13,-6
14740,15,-141,200,16,14,-5
14745,13,-140,204,15,15,-5
14750,15,-140,199,16,18,-3
14755,13,-137,201,16,18,-3
14760,16,-141,207,15,18,-3
14765,13,-135,204,13,17,-3
14770,13,-139,204,12,18,-2
14775,14,-137,204,10,17,-1
14780,15,-140,202,9,18,-2
14785,16,-141,201,9,17,-2
14790,14,-139,204,13,14,-1
14795,15,-143,202,16,12,2
14800,13,-139,203,18,9,0
14805,13,-140,202,19,8,1
14810,13,-138,202,20,7,1
14815,17,-143,207,20,4,-1
14820,17,-143,205,19,1,-2
14825,15,-142,205,17,0,-2
14830,18,-140,205,15,0,-2
14835,13,-139,200,12,-1,0
14840,13,-142,201,10,1,-2
14845,13,-138,202,10,3,-3
14850,13,-140,202,9,4,-6
14855,13,-138,202,9,4,-6
14860,17,-139,203,9,7,-6
14865,13,-139,199,9,7,-7
14870,13,-139,199,12,7,-6
14875,10,-137,203,13,8,-3
14880,13,-135,200,13,9,-4
14885,13,-140,201,14,9,-4
14890,16,-147,205,14,6,-3
14895,14,-142,202,14,3,-4
14900,12,-137,204,12,3,-2
14905,14,-139,203,13,3,-3
14910,13,-137,201,12,3,-5
14915,14,-141,203,13,1,-5
14920,14,-138,205,12,0,-7
14925,14,-142,208,11,-1,-8
14930,11,-140,201,12,-2,-8
14935,15,-139,200,12,-2,-9
14940,13,-140,197,12,-3,-10
14945,12,-141,203,10,-4,-8
14950,14,-141,202,7,-1,-10
14955,14,-138,202,8,0,-7
14960,14,-142,203,9,2,-8
14965,14,-141,200,9,3,-9
14970,12,-141,203,10,4,-7
14975,14,-141,198,13,2,-7
14980,16,-143,201,17,2,-8
14985,15,-143,205,19,2,-8
14990,13,-143,203,21,3,-5
14995,16,-143,205,22,3,-4
