timestamp,acc_x,acc_y,acc_z,gyro_x,gyro_y,gyro_z
0,10,-233,-82,-11,6,-8
5,12,-235,-81,-11,9,-5
10,9,-236,-85,-12,8,-10
15,13,-230,-79,-15,7,-10
20,13,-232,-81,-17,7,-12
25,16,-232,-81,-18,7,-12
30,10,-233,-81,-21,6,-12
35,11,-228,-83,-23,7,-12
40,10,-234,-84,-25,7,-12
45,11,-233,-83,-25,7,-12
50,14,-235,-78,-24,7,-13
55,12,-234,-81,-21,6,-13
60,9,-233,-80,-20,5,-12
65,10,-233,-85,-20,6,-12
70,16,-237,-81,-24,5,-12
75,9,-230,-84,-28,4,-10
80,6,-237,-91,-30,4,-5
85,11,-233,-82,-27,5,-3
90,14,-236,-85,-25,6,-6
95,20,-238,-84,-21,7,-4
100,12,-238,-86,-22,8,9
105,10,-231,-84,-16,7,-2
110,14,-235,-89,-12,4,-6
115,10,-233,-85,-6,4,-9
120,15,-236,-83,-3,2,-11
125,12,-231,-83,0,3,-12
130,11,-234,-71,-2,3,-12
135,9,-234,-82,-4,4,-11
140,11,-232,-83,-9,4,-10
145,12,-232,-80,-11,5,-9
150,14,-234,-88,-16,6,-8
155,11,-232,-85,-18,8,-12
160,12,-232,-89,-21,9,-10
165,9,-232,-80,-22,9,-8
170,9,-233,-87,-21,9,-7
175,13,-235,-82,-16,8,-5
180,10,-232,-85,-11,7,-7
185,12,-234,-82,-5,7,-6
190,15,-232,-86,-1,6,-6
195,11,-231,-88,1,4,-8
200,14,-233,-86,3,4,-6
205,12,-233,-84,6,4,-6
210,13,-233,-81,8,3,-7
215,13,-233,-84,9,3,-6
220,14,-234,-83,10,4,-6
225,10,-233,-88,10,4,-9
230,11,-235,-86,8,4,-9
235,10,-236,-83,8,4,-4
240,12,-239,-87,8,6,-7
245,14,-231,-89,8,6,-8
250,15,-235,-86,9,7,-8
255,11,-234,-87,10,7,-6
260,13,-234,-85,11,6,-7
265,10,-234,-88,12,6,-8
270,12,-234,-87,13,5,-7
275,11,-234,-90,16,6,-9
280,13,-232,-87,18,7,-9
285,12,-237,-86,23,8,-8
290,10,-230,-86,27,6,-7
295,7,-228,-90,30,8,-9
300,8,-235,-85,32,10,-10
305,13,-233,-89,34,11,-13
310,11,-230,-89,35,12,-12
315,10,-233,-86,36,14,-10
320,12,-236,-91,39,14,-8
325,11,-233,-92,44,14,-7
330,9,-231,-89,49,13,-9
335,10,-232,-90,51,13,-8
340,13,-233,-87,55,12,-9
345,9,-230,-87,57,11,-10
350,9,-228,-90,59,9,-9
355,12,-234,-88,59,8,-9
360,9,-232,-86,59,8,-8
365,12,-235,-87,58,7,-10
370,13,-232,-86,58,9,-11
375,13,-233,-84,58,7,-10
380,11,-236,-86,54,9,-8
385,11,-232,-87,52,9,-9
390,13,-233,-83,49,9,-8
395,11,-230,-87,49,9,-9
400,10,-230,-84,45,8,-8
405,15,-234,-80,45,8,-5
410,11,-232,-84,45,7,-6
415,12,-232,-85,44,7,-7
420,11,-234,-89,43,6,-7
425,9,-232,-87,42,4,-8
430,14,-234,-90,42,2,-9
435,12,-232,-87,41,2,-11
440,9,-232,-85,42,2,-10
445,7,-233,-79,43,2,-11
450,13,-235,-84,43,4,-13
455,12,-235,-87,46,3,-11
460,10,-236,-85,48,5,-9
465,11,-234,-85,48,6,-10
470,8,-230,-86,49,5,-11
475,12,-236,-82,49,7,-13
480,12,-233,-87,51,7,-11
485,11,-233,-87,53,7,-10
490,9,-237,-87,54,8,-8
495,9,-231,-85,59,6,-11
500,14,-235,-87,62,5,-10
505,13,-232,-84,66,6,-12
510,12,-229,-88,69,5,-11
515,11,-230,-88,70,6,-11
520,12,-231,-88,71,8,-11
525,9,-231,-87,71,9,-9
530,12,-234,-86,69,9,-8
535,12,-234,-86,67,11,-8
540,9,-233,-87,63,12,-7
545,12,-232,-81,61,12,-7
550,11,-230,-89,59,12,-8
555,16,-234,-88,58,13,-6
560,13,-232,-88,59,14,-6
565,15,-239,-87,59,12,-7
570,9,-234,-87,60,13,-6
575,11,-233,-86,60,11,-6
580,10,-233,-89,60,10,-6
585,14,-235,-85,60,10,-7
590,9,-235,-89,59,11,-7
595,10,-231,-88,59,9,-7
600,13,-233,-84,57,8,-8
605,9,-234,-85,57,8,-9
610,10,-232,-88,59,8,-8
615,16,-231,-85,61,10,-9
620,10,-227,-80,63,11,-10
625,13,-235,-85,65,13,-7
630,10,-231,-89,65,12,-8
635,14,-232,-85,64,14,-7
640,10,-232,-85,65,15,-6
645,13,-236,-84,64,14,-6
650,14,-230,-86,63,15,-8
655,14,-234,-85,61,15,-6
660,11,-234,-87,58,16,-6
665,13,-233,-86,59,15,-6
670,11,-231,-85,59,16,-7
675,10,-237,-84,60,14,-7
680,11,-235,-84,62,13,-7
685,11,-229,-87,64,12,-5
690,11,-232,-84,64,11,-5
695,13,-232,-85,65,11,-4
700,11,-231,-86,64,10,-5
705,13,-231,-84,63,11,-6
710,14,-234,-85,63,10,-8
715,14,-236,-87,63,12,-8
720,16,-235,-84,63,13,-7
725,12,-234,-88,64,15,-8
730,9,-238,-83,65,16,-10
735,10,-234,-84,68,17,-10
740,9,-234,-90,73,17,-12
745,12,-233,-87,78,17,-12
750,8,-232,-87,81,16,-12
755,13,-233,-87,84,15,-12
760,10,-230,-84,84,13,-12
765,10,-232,-92,84,12,-12
770,13,-232,-85,82,9,-11
775,12,-234,-81,79,8,-12
780,9,-231,-80,74,9,-10
785,14,-229,-88,72,8,-9
790,9,-233,-82,67,7,-9
795,8,-233,-85,63,7,-8
800,8,-233,-86,62,7,-9
805,10,-234,-83,61,10,-7
810,13,-236,-84,60,11,-6
815,8,-230,-82,61,12,-5
820,8,-233,-83,60,13,-3
825,12,-229,-84,62,13,-2
830,10,-230,-80,63,13,-2
835,12,-233,-87,63,13,-2
840,14,-239,-84,66,14,0
845,12,-232,-85,68,13,0
850,15,-235,-85,71,13,0
855,16,-235,-86,72,14,0
860,12,-232,-85,74,13,-2
865,14,-235,-88,75,11,-2
870,12,-233,-89,75,12,-4
875,11,-235,-79,75,12,-6
880,11,-236,-82,75,12,-6
885,13,-232,-84,76,13,-8
890,12,-233,-88,78,11,-8
895,13,-236,-89,80,12,-7
900,10,-231,-86,79,12,-6
905,11,-233,-85,79,13,-6
910,10,-229,-84,77,12,-6
915,11,-231,-85,74,12,-5
920,8,-230,-86,72,12,-4
925,10,-233,-80,68,11,-3
930,11,-231,-85,65,11,-3
935,8,-233,-87,60,8,-4
940,12,-231,-86,55,9,-5
945,8,-234,-80,49,9,-4
950,8,-233,-83,45,9,-4
955,11,-234,-86,43,8,-4
960,14,-235,-84,42,10,-5
965,11,-232,-82,41,11,-5
970,12,-236,-86,40,12,-5
975,12,-235,-82,40,13,-4
980,12,-234,-85,41,13,-5
985,8,-232,-84,43,12,-7
990,12,-234,-82,43,12,-8
995,7,-233,-78,43,12,-5
1000,11,-227,-85,42,12,-7
1005,9,-233,-81,41,10,-8
1010,9,-229,-81,38,11,-7
1015,9,-231,-84,36,13,-8
1020,10,-232,-87,36,12,-7
1025,9,-234,-85,35,11,-8
1030,12,-234,-82,35,11,-9
1035,10,-231,-82,37,12,-9
1040,10,-234,-83,41,13,-8
1045,9,-236,-92,45,15,-7
1050,11,-237,-81,49,14,-8
1055,4,-232,-89,50,16,-8
1060,11,-233,-85,52,15,-8
1065,10,-235,-84,53,14,-7
1070,7,-236,-82,54,14,-7
1075,10,-232,-83,54,14,-5
1080,10,-233,-84,53,13,-7
1085,12,-233,-84,51,13,-7
1090,14,-234,-82,49,13,-7
1095,11,-234,-82,48,14,-9
1100,7,-231,-84,48,13,-9
1105,10,-230,-83,48,12,-8
1110,7,-236,-87,48,11,-7
1115,10,-235,-87,49,11,-8
1120,13,-235,-84,51,12,-8
1125,9,-233,-87,50,12,-9
1130,8,-232,-84,50,13,-7
1135,13,-233,-85,51,12,-6
1140,12,-233,-88,51,11,-6
1145,8,-234,-80,52,11,-8
1150,10,-232,-84,54,14,-6
1155,9,-232,-83,54,14,-8
1160,15,-238,-84,57,13,-7
1165,14,-235,-85,58,14,-9
1170,11,-234,-83,58,12,-8
1175,12,-231,-80,57,12,-10
1180,9,-233,-85,58,11,-9
1185,10,-235,-84,58,10,-8
1190,9,-234,-83,59,11,-8
1195,12,-231,-86,60,11,-8
1200,9,-233,-82,62,10,-5
1205,11,-231,-84,64,10,-4
1210,13,-235,-83,67,11,-6
1215,11,-233,-87,70,11,-6
1220,11,-235,-88,72,9,-5
1225,9,-235,-85,74,10,-4
1230,11,-233,-84,73,11,-7
1235,10,-233,-83,73,11,-7
1240,13,-231,-83,73,12,-7
1245,9,-231,-87,71,12,-6
1250,12,-235,-81,69,10,-7
1255,8,-232,-82,67,9,-8
1260,12,-229,-90,64,9,-9
1265,11,-234,-85,62,11,-9
1270,10,-235,-83,61,10,-8
1275,12,-233,-75,61,10,-9
1280,7,-236,-85,60,10,-8
1285,9,-231,-82,58,12,-8
1290,9,-233,-81,59,13,-8
1295,7,-232,-81,58,14,-9
1300,11,-233,-82,62,14,-9
1305,9,-233,-84,64,16,-10
1310,9,-230,-89,67,17,-8
1315,11,-233,-88,68,19,-8
1320,14,-231,-84,66,19,-8
1325,8,-232,-82,62,20,-8
1330,12,-233,-90,57,19,-6
1335,15,-232,-81,52,19,-9
1340,13,-232,-88,47,16,-8
1345,9,-233,-85,41,15,-9
1350,15,-232,-82,39,14,-7
1355,11,-232,-85,37,13,-7
1360,12,-236,-83,34,11,-8
1365,12,-232,-85,34,11,-10
1370,14,-238,-79,34,12,-11
1375,11,-240,-86,36,12,-10
1380,12,-237,-85,36,11,-10
1385,13,-239,-89,38,12,-11
1390,10,-236,-84,43,13,-10
1395,11,-234,-85,48,13,-11
1400,9,-230,-85,52,12,-11
1405,12,-235,-85,58,12,-12
1410,9,-233,-83,61,11,-14
1415,10,-231,-81,64,9,-14
1420,10,-233,-83,66,8,-15
1425,16,-233,-90,65,8,-17
1430,10,-233,-82,62,6,-16
1435,11,-237,-82,58,7,-16
1440,11,-237,-82,53,8,-16
1445,9,-233,-82,47,9,-14
1450,10,-234,-82,42,10,-13
1455,9,-233,-80,38,12,-10
1460,9,-237,-84,35,14,-9
1465,13,-233,-82,35,14,-9
1470,12,-233,-86,34,16,-9
1475,10,-232,-81,34,15,-8
1480,10,-233,-82,36,15,-8
1485,6,-229,-83,37,14,-8
1490,12,-238,-84,39,15,-7
1495,5,-232,-78,41,15,-8
1500,9,-235,-83,43,17,-9
1505,8,-233,-82,45,16,-11
1510,11,-231,-81,48,16,-12
1515,13,-234,-85,50,15,-11
1520,9,-233,-83,52,14,-11
1525,9,-234,-86,53,13,-12
1530,9,-234,-84,53,13,-13
1535,11,-232,-83,54,14,-12
1540,12,-236,-86,54,12,-13
1545,11,-233,-84,55,12,-11
1550,9,-234,-81,57,15,-10
1555,11,-235,-85,59,13,-8
1560,12,-235,-82,59,13,-9
1565,8,-232,-82,59,13,-7
1570,9,-233,-84,60,14,-6
1575,9,-234,-87,60,13,-8
1580,11,-234,-86,59,13,-8
1585,12,-236,-83,61,13,-9
1590,9,-234,-85,59,15,-8
1595,13,-233,-84,58,13,-8
1600,12,-236,-87,57,13,-7
1605,10,-232,-83,56,13,-7
1610,12,-233,-86,53,14,-6
1615,9,-231,-80,52,14,-9
1620,13,-232,-85,50,14,-9
1625,12,-234,-84,51,13,-9
1630,7,-231,-80,50,13,-9
1635,12,-233,-78,50,15,-10
1640,8,-230,-86,50,14,-10
1645,12,-235,-85,48,13,-10
1650,10,-234,-84,47,12,-11
1655,4,-238,-81,46,13,-11
1660,9,-230,-84,43,13,-11
1665,10,-232,-82,43,13,-9
1670,10,-232,-84,44,13,-10
1675,10,-233,-82,48,13,-11
1680,10,-236,-84,49,11,-11
1685,11,-233,-83,52,12,-10
1690,13,-232,-82,52,11,-10
1695,9,-230,-83,53,10,-11
1700,9,-231,-83,55,10,-12
1705,12,-231,-85,53,11,-14
1710,5,-238,-86,52,11,-13
1715,11,-234,-85,50,12,-12
1720,11,-236,-80,48,13,-12
1725,12,-233,-85,48,11,-12
1730,13,-235,-85,48,12,-14
1735,12,-235,-84,51,13,-12
1740,9,-232,-84,54,13,-11
1745,12,-233,-83,57,13,-13
1750,14,-234,-82,60,14,-10
1755,14,-233,-81,64,15,-9
1760,8,-233,-83,67,13,-11
1765,11,-232,-83,65,12,-12
1770,11,-235,-85,63,13,-9
1775,13,-236,-82,61,12,-12
1780,10,-232,-84,60,12,-10
1785,14,-236,-86,57,12,-11
1790,11,-234,-82,53,12,-11
1795,10,-235,-85,49,13,-13
1800,13,-233,-87,49,12,-12
1805,10,-236,-80,47,12,-13
1810,9,-233,-79,47,11,-13
1815,8,-236,-84,49,10,-13
1820,14,-226,-88,50,9,-12
1825,7,-236,-84,50,11,-12
1830,9,-233,-85,50,11,-12
1835,11,-235,-84,49,11,-13
1840,9,-233,-85,49,12,-12
1845,10,-232,-86,49,11,-13
1850,10,-233,-82,48,12,-12
1855,13,-235,-83,47,12,-12
1860,12,-233,-83,48,13,-12
1865,11,-233,-82,50,12,-11
1870,13,-233,-81,48,13,-12
1875,14,-238,-84,48,12,-12
1880,11,-232,-83,50,11,-12
1885,11,-232,-87,48,12,-12
1890,12,-234,-80,48,13,-12
1895,12,-233,-83,49,12,-10
1900,8,-233,-82,50,11,-12
1905,9,-231,-84,49,12,-13
1910,10,-239,-84,49,11,-12
1915,12,-232,-84,48,12,-13
1920,7,-233,-84,48,12,-13
1925,10,-231,-82,47,13,-12
1930,9,-233,-83,45,15,-9
1935,11,-233,-84,43,14,-10
1940,8,-233,-81,43,16,-9
1945,9,-235,-83,44,15,-10
1950,11,-235,-85,44,15,-7
1955,13,-234,-84,45,14,-7
1960,10,-234,-82,48,13,-9
1965,9,-232,-83,51,14,-8
1970,11,-229,-84,54,13,-9
1975,8,-232,-87,55,13,-11
1980,15,-238,-81,58,13,-10
1985,7,-232,-90,59,13,-10
1990,9,-232,-86,56,14,-11
1995,11,-235,-84,53,15,-12
2000,11,-235,-83,50,15,-12
2005,7,-234,-84,46,14,-10
2010,10,-235,-86,45,15,-10
2015,12,-235,-85,44,15,-12
2020,9,-235,-85,43,13,-13
2025,7,-232,-88,45,14,-11
2030,10,-234,-84,46,14,-10
2035,11,-233,-88,47,13,-8
2040,9,-234,-83,48,12,-8
2045,12,-233,-80,48,14,-10
2050,12,-233,-88,50,13,-9
2055,10,-234,-85,50,15,-10
2060,12,-236,-87,51,16,-11
2065,14,-235,-87,53,15,-12
2070,11,-235,-85,53,15,-15
2075,11,-233,-87,55,13,-15
2080,11,-234,-86,59,12,-15
2085,14,-232,-95,60,11,-16
2090,7,-237,-82,61,9,-17
2095,11,-234,-87,62,9,-17
2100,10,-234,-83,60,9,-16
2105,10,-235,-82,61,8,-13
2110,11,-233,-77,61,7,-13
2115,13,-234,-81,61,8,-12
2120,9,-232,-84,60,9,-11
2125,8,-233,-85,62,11,-11
2130,8,-233,-83,61,11,-11
2135,8,-234,-83,60,11,-12
2140,7,-232,-81,58,12,-11
2145,10,-235,-77,54,13,-9
2150,11,-232,-82,51,13,-11
2155,10,-231,-83,48,12,-11
2160,12,-233,-84,46,12,-10
2165,12,-234,-81,47,11,-11
2170,13,-233,-87,47,11,-11
2175,10,-235,-83,51,9,-8
2180,8,-232,-84,55,11,-13
2185,12,-232,-86,56,12,-15
2190,10,-231,-82,58,11,-15
2195,10,-231,-84,59,12,-15
2200,9,-238,-80,61,12,-15
2205,10,-233,-85,61,13,-16
2210,10,-235,-84,61,13,-14
2215,9,-232,-86,60,13,-12
2220,12,-232,-81,58,13,-11
2225,9,-233,-86,58,14,-8
2230,11,-234,-83,55,14,-9
2235,9,-234,-81,53,15,-9
2240,8,-233,-83,54,13,-9
2245,12,-234,-88,53,12,-10
2250,9,-231,-86,52,13,-10
2255,11,-228,-77,53,13,-11
2260,12,-234,-81,54,13,-9
2265,10,-233,-85,54,15,-11
2270,10,-235,-87,54,13,-12
2275,13,-233,-84,54,12,-12
2280,11,-235,-88,55,12,-11
2285,7,-233,-85,53,12,-13
2290,11,-231,-84,52,12,-13
2295,6,-234,-80,51,15,-12
2300,9,-232,-85,48,14,-14
2305,11,-236,-88,46,14,-13
2310,13,-229,-87,43,13,-14
2315,12,-233,-84,40,12,-14
2320,10,-234,-84,37,13,-12
2325,12,-234,-81,37,12,-11
2330,12,-235,-81,38,12,-9
2335,11,-234,-86,39,12,-12
2340,12,-231,-84,41,12,-10
2345,12,-235,-82,41,12,-10
2350,13,-233,-82,43,12,-11
2355,12,-234,-83,44,13,-9
2360,11,-233,-84,43,14,-10
2365,5,-239,-84,45,14,-11
2370,13,-234,-80,46,14,-11
2375,7,-234,-87,43,14,-10
2380,9,-231,-82,44,12,-10
2385,9,-231,-83,44,12,-11
2390,9,-234,-85,45,12,-10
2395,10,-230,-86,47,13,-11
2400,11,-233,-81,44,13,-11
2405,10,-236,-84,44,12,-11
2410,11,-231,-86,43,12,-14
2415,14,-233,-83,41,13,-13
2420,17,-229,-83,41,12,-12
2425,10,-235,-86,39,12,-12
2430,9,-232,-84,36,12,-10
2435,13,-232,-83,35,11,-11
2440,11,-231,-87,32,11,-10
2445,12,-234,-84,29,11,-10
2450,12,-232,-84,30,8,-9
2455,14,-235,-84,29,8,-12
2460,12,-234,-83,28,8,-12
2465,11,-233,-85,29,8,-12
2470,12,-238,-81,28,9,-14
2475,7,-235,-79,28,9,-15
2480,12,-235,-86,25,10,-17
2485,12,-235,-84,23,10,-17
2490,10,-233,-88,23,11,-17
2495,9,-233,-85,20,11,-17
2500,9,-233,-83,18,13,-17
2505,10,-233,-83,16,11,-12
2510,6,-233,-86,15,14,-12
2515,11,-236,-82,13,13,-13
2520,13,-233,-82,13,13,-14
2525,8,-234,-83,13,14,-13
2530,9,-239,-90,13,13,-13
2535,9,-228,-84,14,14,-13
2540,13,-234,-84,17,14,-13
2545,10,-231,-85,18,13,-11
2550,13,-234,-85,16,12,-9
2555,12,-234,-86,15,10,-9
2560,12,-234,-83,13,10,-8
2565,10,-231,-85,13,9,-9
2570,11,-234,-84,14,8,-9
2575,9,-234,-88,15,8,-9
2580,11,-233,-90,17,7,-11
2585,7,-231,-85,17,9,-11
2590,11,-235,-87,20,9,-11
2595,10,-231,-87,21,10,-12
2600,9,-231,-87,20,9,-11
2605,12,-232,-84,17,10,-11
2610,13,-234,-90,16,10,-12
2615,12,-231,-86,14,10,-10
2620,10,-232,-87,11,11,-11
2625,12,-233,-89,9,12,-10
2630,10,-233,-87,7,12,-8
2635,9,-228,-91,4,11,-8
2640,9,-229,-88,2,11,-7
2645,11,-227,-89,2,10,-8
2650,13,-229,-85,0,7,-7
2655,11,-230,-87,-4,8,-10
2660,13,-231,-86,-6,9,-9
2665,11,-229,-89,-10,9,-4
2670,12,-232,-92,-17,10,-5
2675,9,-230,-86,-26,13,-8
2680,12,-231,-87,-34,11,-8
2685,8,-232,-87,-39,11,-7
2690,12,-232,-92,-44,10,-9
2695,12,-233,-85,-44,11,-9
2700,12,-234,-94,-42,10,-7
2705,10,-234,-88,-37,11,-9
2710,10,-232,-87,-33,10,-10
2715,14,-232,-90,-32,11,-11
2720,13,-235,-88,-28,10,-11
2725,11,-234,-88,-25,9,-6
2730,7,-230,-86,-23,10,-7
2735,10,-230,-93,-18,12,-12
2740,13,-234,-91,-15,13,-13
2745,8,-231,-97,-10,11,-16
2750,9,-230,-90,-5,13,-16
2755,10,-231,-88,-2,12,-16
2760,12,-232,-88,-1,10,-15
2765,11,-233,-89,0,9,-15
2770,11,-234,-90,2,8,-12
2775,10,-234,-88,4,7,-11
2780,12,-235,-92,5,9,-9
2785,8,-234,-83,5,10,-9
2790,9,-229,-89,6,11,-7
2795,14,-230,-89,5,12,-6
2800,6,-234,-93,2,12,-6
2805,10,-234,-89,1,13,-6
2810,9,-233,-92,0,14,-5
2815,9,-233,-87,0,13,-4
2820,12,-230,-89,0,14,-5
2825,12,-234,-88,0,12,-4
2830,12,-231,-88,0,11,-6
2835,10,-230,-90,1,10,-5
2840,10,-233,-88,0,10,-5
2845,11,-231,-91,1,8,-5
2850,11,-234,-91,-1,4,-5
2855,8,-230,-85,-3,5,-4
2860,11,-230,-88,-6,5,-5
2865,13,-231,-90,-8,1,-5
2870,11,-228,-89,-9,-1,-7
2875,14,-228,-90,-11,0,-10
2880,12,-228,-96,-13,1,-5
2885,12,-228,-93,-17,0,-5
2890,12,-229,-86,-20,1,-4
2895,11,-227,-93,-24,0,-3
2900,9,-229,-92,-25,-1,-4
2905,12,-231,-91,-27,1,-4
2910,7,-233,-96,-26,1,-4
2915,12,-235,-94,-24,0,-6
2920,11,-231,-91,-23,1,-12
2925,11,-229,-91,-22,0,-11
2930,12,-230,-91,-21,1,-8
2935,10,-232,-94,-19,1,-8
2940,8,-230,-95,-17,2,-8
2945,9,-232,-92,-19,3,-8
2950,10,-233,-94,-18,5,-9
2955,10,-229,-96,-18,6,-5
2960,13,-235,-91,-17,7,-5
2965,14,-224,-79,-18,8,-8
2970,11,-226,-99,-15,9,-10
2975,10,-230,-95,-13,10,-11
2980,8,-229,-98,-10,10,-11
2985,8,-228,-94,-8,10,-11
2990,12,-229,-93,-4,11,-11
2995,12,-230,-94,-3,10,-9
3000,8,-227,-95,-1,10,-8
3005,7,-227,-95,-1,7,-7
3010,12,-225,-94,-2,7,-7
3015,10,-232,-99,-3,5,-6
3020,13,-229,-92,-4,5,-5
3025,8,-229,-95,-5,5,-3
3030,11,-232,-94,-6,5,-6
3035,10,-228,-96,-6,4,-7
3040,9,-232,-92,-5,6,-9
3045,12,-230,-91,-4,7,-5
3050,12,-231,-94,-4,8,-6
3055,10,-229,-91,-4,9,-5
3060,10,-230,-92,-4,9,-6
3065,13,-230,-92,-4,8,-8
3070,8,-230,-94,-4,7,-7
3075,5,-228,-97,-4,8,-7
3080,11,-230,-93,-6,6,-6
3085,10,-230,-96,-6,4,-8
3090,11,-229,-96,-10,3,-10
3095,9,-229,-93,-9,3,-9
3100,10,-228,-99,-12,3,-10
3105,9,-229,-97,-12,3,-8
3110,10,-230,-92,-12,3,-7
3115,11,-229,-91,-10,3,-8
3120,9,-229,-89,-6,3,-8
3125,9,-232,-95,-2,4,-5
3130,8,-227,-94,1,4,0
3135,40,-235,-91,-5,5,11
3140,1,-224,-93,-29,7,42
3145,9,-229,-98,-31,7,17
3150,10,-228,-96,-25,8,6
3155,6,-229,-95,-11,8,3
3160,7,-232,-98,1,8,0
3165,7,-229,-98,13,7,-2
3170,10,-227,-89,24,7,-4
3175,10,-226,-100,32,4,-2
3180,8,-227,-100,39,2,-4
3185,9,-226,-93,42,-2,-2
3190,6,-227,-95,39,-4,-4
3195,10,-229,-94,37,-6,-2
3200,10,-229,-96,35,-8,-1
3205,10,-228,-92,34,-10,0
3210,10,-229,-96,35,-12,-3
3215,12,-227,-98,36,-14,-6
3220,12,-232,-97,38,-15,-7
3225,10,-227,-89,40,-15,-7
3230,13,-232,-100,40,-15,-6
3235,12,-228,-97,40,-15,-5
3240,13,-232,-98,39,-13,-4
3245,10,-230,-96,40,-10,-4
3250,13,-227,-96,40,-7,-2
3255,13,-230,-98,44,-4,-2
3260,16,-227,-96,43,0,-3
3265,15,-228,-103,44,4,-3
3270,11,-229,-99,43,6,-4
3275,11,-228,-99,43,8,-5
3280,13,-229,-98,41,10,-7
3285,12,-229,-96,39,12,-6
3290,12,-226,-95,37,12,-8
3295,10,-228,-98,37,14,-9
3300,9,-231,-98,36,14,-8
3305,9,-228,-94,39,15,-10
3310,8,-227,-92,40,13,-11
3315,7,-226,-94,41,12,-10
3320,8,-228,-98,43,11,-9
3325,9,-228,-100,44,10,-9
3330,12,-229,-91,43,11,-8
3335,14,-228,-98,40,11,-8
3340,13,-227,-98,38,8,-10
3345,12,-227,-95,38,8,-8
3350,10,-225,-98,35,10,-7
3355,11,-226,-94,33,10,-6
3360,8,-225,-93,33,9,-1
3365,8,-227,-94,34,12,-4
3370,10,-230,-101,34,14,-6
3375,10,-227,-98,37,13,-8
3380,14,-231,-95,38,14,-6
3385,8,-228,-97,40,15,-8
3390,10,-232,-96,39,14,-8
3395,10,-230,-91,40,15,-9
3400,4,-224,-97,41,16,-8
3405,9,-227,-99,45,17,-9
3410,9,-228,-101,50,17,-10
3415,8,-225,-95,55,15,-10
3420,11,-230,-99,57,15,-11
3425,13,-226,-99,56,13,-9
3430,9,-226,-98,55,11,-11
3435,9,-227,-98,51,8,-12
3440,10,-227,-95,47,7,-11
3445,11,-228,-98,41,5,-10
3450,9,-228,-93,39,6,-10
3455,9,-230,-96,36,5,-10
3460,11,-228,-100,38,6,-8
3465,9,-228,-101,40,10,-8
3470,10,-228,-96,45,11,-10
3475,7,-225,-100,49,13,-8
3480,8,-227,-96,54,13,-8
3485,9,-228,-95,57,13,-9
3490,7,-227,-98,59,15,-6
3495,8,-227,-98,60,16,-8
3500,10,-228,-101,60,15,-7
3505,10,-227,-96,61,14,-8
3510,6,-227,-97,59,13,-7
3515,9,-228,-99,58,12,-9
3520,8,-228,-97,58,12,-10
3525,10,-229,-98,59,11,-12
3530,7,-226,-97,64,9,-10
3535,7,-227,-100,65,9,-10
3540,8,-225,-100,68,8,-11
3545,9,-227,-98,70,10,-12
3550,9,-225,-97,72,10,-10
3555,10,-229,-98,71,10,-10
3560,9,-226,-95,70,12,-8
3565,14,-229,-100,66,11,-9
3570,8,-223,-97,64,10,-8
3575,9,-225,-100,62,12,-10
3580,5,-224,-95,63,12,-10
3585,9,-226,-102,64,11,-10
3590,7,-226,-95,64,11,-10
3595,7,-226,-106,65,11,-14
3600,7,-232,-100,68,10,-13
3605,9,-219,-99,68,8,-14
3610,24,-227,-98,68,10,-14
3615,8,-225,-93,68,9,-15
3620,8,-225,-99,67,8,-13
3625,13,-235,-98,65,9,-15
3630,4,-230,-94,64,10,-14
3635,9,-229,-94,61,10,-13
3640,13,-229,-90,62,12,-12
3645,11,-233,-90,62,12,-12
3650,12,-230,-97,63,13,-10
3655,13,-229,-92,66,14,-11
3660,15,-231,-90,67,15,-13
3665,7,-231,-85,69,13,-12
3670,6,-230,-102,70,13,-11
3675,6,-233,-97,72,15,-10
3680,7,-232,-91,70,16,-9
3685,11,-230,-100,68,17,-9
3690,7,-221,-99,67,18,-10
3695,13,-230,-83,65,17,-10
3700,11,-238,-91,64,17,-12
3705,11,-225,-103,63,17,-12
3710,11,-230,-101,63,16,-11
3715,7,-228,-94,64,15,-10
3720,8,-230,-96,63,15,-8
3725,6,-232,-96,62,16,-8
3730,13,-242,-89,62,17,-6
3735,10,-231,-97,61,19,-6
3740,10,-232,-90,63,19,-3
3745,5,-227,-100,65,21,-1
3750,6,-228,-96,67,22,1
3755,9,-237,-97,70,25,1
3760,11,-233,-97,75,26,0
3765,8,-230,-97,78,26,2
3770,7,-229,-96,83,29,3
3775,7,-231,-93,85,31,1
3780,5,-232,-91,87,32,2
3785,8,-229,-99,88,31,2
3790,10,-230,-95,88,30,3
3795,8,-231,-95,86,29,5
3800,13,-228,-97,85,27,7
3805,11,-231,-91,83,27,7
3810,10,-229,-98,83,24,4
3815,13,-231,-95,83,23,4
3820,10,-228,-99,83,21,1
3825,10,-228,-91,85,18,-1
3830,7,-227,-93,83,17,-3
3835,8,-224,-98,79,13,-4
3840,14,-230,-90,81,13,-6
3845,12,-227,-93,81,12,-8
3850,16,-228,-94,79,11,-7
3855,9,-227,-95,77,11,-9
3860,11,-227,-96,76,9,-9
3865,11,-228,-94,74,11,-10
3870,10,-230,-93,71,10,-10
3875,9,-228,-93,69,10,-9
3880,9,-226,-95,67,11,-9
3885,10,-226,-95,64,10,-10
3890,10,-235,-89,63,11,-9
3895,11,-229,-94,60,13,-9
3900,10,-231,-94,59,12,-6
3905,10,-229,-101,59,13,-8
3910,9,-228,-92,60,10,-9
3915,8,-230,-96,60,11,-10
3920,10,-229,-91,62,11,-10
3925,7,-229,-96,65,11,-9
3930,14,-230,-94,66,11,-11
3935,10,-232,-94,67,11,-11
3940,10,-228,-96,66,12,-14
3945,5,-226,-98,64,14,-13
3950,10,-228,-96,62,15,-14
3955,7,-231,-97,58,16,-14
3960,10,-229,-97,54,18,-12
3965,9,-228,-93,51,19,-14
3970,6,-230,-97,45,20,-12
3975,8,-231,-96,44,19,-12
3980,8,-230,-94,45,17,-13
3985,10,-230,-94,46,18,-13
3990,6,-229,-95,48,17,-12
3995,10,-226,-97,51,18,-11
4000,6,-231,-91,54,16,-11
4005,8,-228,-95,56,16,-10
4010,10,-230,-94,54,15,-11
4015,7,-230,-92,53,15,-10
4020,10,-228,-96,51,13,-11
4025,9,-230,-93,49,13,-11
4030,9,-229,-96,49,13,-9
4035,9,-226,-96,51,12,-9
4040,10,-235,-96,52,13,-10
4045,8,-230,-97,53,12,-10
4050,7,-231,-91,54,13,-11
4055,5,-230,-97,55,13,-9
4060,10,-229,-95,55,12,-9
4065,12,-230,-95,57,13,-11
4070,10,-231,-99,58,14,-12
4075,7,-230,-97,60,15,-14
4080,10,-232,-98,64,13,-14
4085,12,-229,-95,65,11,-15
4090,9,-230,-93,67,11,-16
4095,9,-228,-99,68,10,-16
4100,9,-228,-93,67,8,-18
4105,9,-231,-95,68,6,-18
4110,6,-227,-98,66,5,-19
4115,8,-232,-95,65,4,-20
4120,7,-228,-92,63,6,-18
4125,6,-230,-94,64,7,-16
4130,6,-230,-94,65,8,-14
4135,7,-228,-93,67,9,-13
4140,10,-230,-95,66,9,-12
4145,7,-230,-94,68,9,-12
4150,7,-231,-87,68,9,-13
4155,9,-230,-96,67,12,-10
4160,11,-232,-94,67,11,-10
4165,8,-229,-94,67,12,-10
4170,10,-231,-95,65,13,-12
4175,11,-228,-92,67,13,-14
4180,9,-229,-95,65,15,-13
4185,10,-227,-94,66,15,-13
4190,11,-230,-94,67,14,-14
4195,9,-228,-93,67,15,-16
4200,9,-231,-96,67,15,-14
4205,11,-231,-97,68,16,-14
4210,11,-231,-94,67,17,-14
4215,5,-232,-95,68,16,-12
4220,10,-228,-98,67,15,-13
4225,10,-229,-97,69,16,-12
4230,11,-229,-98,73,13,-12
4235,11,-229,-98,76,14,-12
4240,11,-229,-95,79,14,-12
4245,9,-228,-95,82,14,-12
4250,11,-226,-100,84,15,-13
4255,12,-230,-96,84,16,-10
4260,7,-225,-93,84,16,-11
4265,12,-230,-94,84,15,-12
4270,9,-224,-98,81,14,-11
4275,10,-230,-93,79,15,-11
4280,10,-230,-92,78,15,-11
4285,9,-230,-93,77,15,-12
4290,9,-231,-95,75,13,-16
4295,7,-232,-94,74,12,-16
4300,9,-234,-94,73,12,-16
4305,8,-228,-94,72,13,-17
4310,8,-229,-91,71,14,-15
4315,8,-231,-94,71,15,-16
4320,11,-233,-95,71,15,-17
4325,12,-234,-92,71,14,-15
4330,8,-228,-94,71,15,-14
4335,10,-231,-93,71,15,-14
4340,10,-230,-94,69,14,-13
4345,11,-233,-95,68,12,-13
4350,11,-232,-90,67,11,-13
4355,10,-232,-97,66,10,-13
4360,13,-231,-94,65,11,-15
4365,11,-232,-92,66,10,-15
4370,10,-231,-91,66,8,-14
4375,10,-230,-97,68,8,-12
4380,4,-232,-92,69,9,-13
4385,10,-230,-96,70,10,-13
4390,11,-231,-94,69,11,-13
4395,10,-231,-93,72,11,-15
4400,8,-229,-95,73,13,-14
4405,11,-234,-92,74,13,-13
4410,10,-230,-94,74,14,-13
4415,8,-230,-92,74,15,-13
4420,12,-230,-92,74,14,-12
4425,10,-233,-96,75,13,-12
4430,11,-229,-97,72,13,-12
4435,14,-230,-92,71,12,-11
4440,8,-227,-93,69,12,-11
4445,9,-231,-92,66,11,-10
4450,11,-229,-94,64,11,-10
4455,9,-227,-94,63,11,-11
4460,10,-229,-94,61,11,-11
4465,12,-232,-93,60,12,-12
4470,8,-228,-89,57,12,-10
4475,10,-230,-95,55,13,-10
4480,11,-230,-93,56,12,-12
4485,11,-233,-89,55,13,-13
4490,12,-232,-91,56,13,-13
4495,12,-231,-90,57,12,-14
4500,10,-235,-92,56,12,-13
4505,9,-231,-92,56,13,-13
4510,11,-232,-92,57,12,-13
4515,8,-229,-94,60,11,-13
4520,10,-230,-92,62,11,-13
4525,11,-231,-91,66,12,-16
4530,11,-230,-91,67,11,-15
4535,6,-233,-96,68,11,-14
4540,10,-231,-96,67,13,-15
4545,8,-234,-98,67,14,-14
4550,8,-229,-93,66,13,-14
4555,8,-230,-94,65,15,-15
4560,7,-229,-91,66,16,-14
4565,10,-231,-95,67,18,-12
4570,8,-230,-93,67,18,-12
4575,7,-232,-92,68,17,-13
4580,8,-229,-94,70,18,-12
4585,10,-231,-94,70,18,-12
4590,11,-230,-90,70,18,-13
4595,8,-229,-93,71,17,-12
4600,16,-228,-96,71,16,-12
4605,6,-228,-93,72,15,-14
4610,10,-230,-94,72,15,-15
4615,6,-230,-93,70,13,-14
4620,9,-231,-91,69,11,-12
4625,10,-228,-94,69,11,-12
4630,7,-233,-94,67,11,-13
4635,13,-227,-99,66,12,-12
4640,8,-229,-94,64,13,-10
4645,8,-227,-96,61,15,-12
4650,11,-234,-90,60,16,-10
4655,13,-230,-93,60,17,-12
4660,12,-230,-93,60,18,-12
4665,11,-231,-94,61,19,-14
4670,10,-228,-91,64,20,-13
4675,11,-229,-92,64,21,-13
4680,13,-231,-95,63,20,-12
4685,11,-232,-92,60,21,-10
4690,16,-231,-90,56,19,-12
4695,12,-231,-91,51,19,-11
4700,10,-231,-94,48,17,-9
4705,14,-229,-94,46,14,-10
4710,12,-230,-93,45,15,-10
4715,12,-229,-94,43,13,-10
4720,8,-233,-94,40,11,-9
4725,9,-229,-89,40,9,-8
4730,11,-235,-94,41,9,-8
4735,10,-231,-93,40,9,-8
4740,8,-230,-94,44,9,-8
4745,11,-232,-92,49,9,-9
4750,9,-233,-97,51,10,-8
4755,9,-228,-92,56,11,-9
4760,9,-232,-95,60,12,-10
4765,8,-228,-94,62,11,-12
4770,11,-230,-89,64,10,-13
4775,11,-226,-92,64,7,-15
4780,10,-227,-92,63,7,-16
4785,11,-229,-92,61,5,-16
4790,10,-229,-94,61,4,-16
4795,9,-232,-91,60,3,-14
4800,8,-232,-89,61,4,-13
4805,9,-231,-89,62,4,-11
4810,8,-234,-87,64,6,-10
4815,19,-228,-97,66,9,-9
4820,7,-233,-90,66,11,-7
4825,10,-234,-94,66,12,-5
4830,10,-230,-92,64,13,-6
4835,6,-232,-91,62,14,-6
4840,11,-233,-92,61,16,-7
4845,12,-234,-93,60,16,-9
4850,9,-233,-89,60,16,-9
4855,12,-232,-91,60,17,-11
4860,9,-228,-93,60,16,-11
4865,8,-232,-93,62,15,-11
4870,13,-231,-91,62,16,-14
4875,9,-230,-92,63,16,-15
4880,12,-232,-92,64,16,-14
4885,13,-231,-90,66,18,-13
4890,10,-229,-93,67,17,-14
4895,11,-231,-90,68,16,-11
4900,12,-229,-90,68,17,-8
4905,10,-227,-92,68,15,-7
4910,13,-231,-93,69,16,-7
4915,13,-228,-91,68,15,-7
4920,12,-231,-91,69,13,-7
4925,7,-233,-89,69,13,-8
4930,11,-231,-94,70,12,-8
4935,14,-230,-92,70,10,-9
4940,9,-228,-94,70,10,-10
4945,9,-229,-92,67,10,-9
4950,10,-231,-89,67,11,-10
4955,12,-232,-90,68,11,-7
4960,9,-231,-94,67,12,-9
4965,12,-229,-91,64,13,-10
4970,11,-231,-92,64,14,-7
4975,10,-234,-91,63,13,-8
4980,3,-227,-88,62,13,-10
4985,11,-230,-91,60,13,-11
4990,11,-230,-91,60,13,-8
4995,10,-231,-87,59,14,-10
5000,13,-230,-92,60,16,-11
5005,10,-230,-90,60,14,-11
5010,11,-231,-90,60,13,-11
5015,12,-229,-88,57,11,-13
5020,8,-229,-90,53,11,-12
5025,8,-228,-85,49,11,-11
5030,12,-232,-89,47,9,-12
5035,11,-233,-89,43,10,-12
5040,10,-232,-93,43,10,-10
5045,10,-232,-93,43,9,-9
5050,9,-230,-90,44,9,-8
5055,8,-231,-94,47,11,-5
5060,11,-229,-88,51,12,-7
5065,8,-228,-89,53,13,-5
5070,12,-230,-89,55,12,-4
5075,14,-232,-91,57,13,-4
5080,10,-232,-89,59,15,-3
5085,10,-234,-93,60,16,-3
5090,7,-226,-93,60,16,0
5095,10,-232,-90,59,16,-1
5100,9,-229,-92,58,16,-3
5105,11,-230,-90,55,15,-2
5110,10,-229,-92,54,14,-3
5115,11,-234,-91,54,13,-2
5120,13,-232,-89,53,13,-3
5125,9,-232,-89,56,11,-5
5130,9,-229,-91,57,9,-5
5135,8,-232,-94,58,9,-6
5140,10,-231,-88,59,9,-6
5145,15,-232,-86,56,9,-5
5150,12,-231,-90,55,9,-6
5155,7,-232,-88,53,8,-4
5160,7,-233,-92,50,7,-5
5165,6,-232,-90,48,8,-7
5170,8,-230,-88,46,8,-4
5175,7,-228,-91,46,8,-5
5180,8,-228,-92,47,10,-6
5185,7,-232,-89,49,12,-5
5190,10,-232,-91,50,13,-4
5195,8,-232,-96,51,13,-5
5200,7,-229,-90,53,14,-7
5205,9,-230,-93,55,15,-6
5210,10,-231,-96,56,14,-5
5215,10,-233,-88,60,15,-7
5220,7,-230,-92,62,15,-7
5225,8,-232,-93,63,16,-6
5230,8,-230,-87,64,16,-6
5235,8,-231,-86,63,17,-7
5240,12,-230,-91,62,16,-8
5245,8,-231,-93,59,17,-6
5250,13,-231,-90,59,17,-6
5255,9,-233,-88,57,17,-7
5260,7,-232,-90,57,15,-6
5265,11,-235,-88,57,14,-8
5270,11,-231,-88,56,16,-7
5275,10,-231,-90,55,16,-7
5280,9,-228,-94,54,15,-7
5285,12,-232,-90,54,16,-8
5290,9,-230,-94,54,15,-9
5295,13,-234,-92,53,15,-8
5300,6,-228,-92,54,15,-7
5305,8,-230,-96,53,14,-8
5310,9,-232,-90,53,14,-8
5315,9,-236,-91,50,14,-7
5320,10,-232,-91,49,14,-8
5325,10,-229,-92,50,15,-5
5330,10,-230,-90,50,14,-5
5335,9,-233,-91,51,14,-7
5340,9,-233,-85,50,14,-7
5345,7,-231,-92,50,15,-7
5350,8,-230,-89,47,16,-6
5355,11,-233,-90,47,15,-6
5360,10,-237,-90,49,15,-7
5365,11,-232,-90,50,16,-7
5370,8,-233,-92,54,16,-9
5375,8,-229,-91,55,17,-7
5380,11,-232,-93,55,17,-6
5385,12,-230,-94,54,18,-9
5390,9,-229,-90,50,19,-8
5395,10,-233,-87,45,20,-8
5400,11,-229,-91,39,20,-6
5405,8,-227,-88,33,19,-5
5410,9,-231,-86,31,20,-5
5415,7,-232,-83,31,18,-6
5420,11,-232,-94,32,18,-7
5425,9,-232,-93,34,17,-7
5430,11,-232,-94,34,15,-7
5435,9,-227,-88,33,14,-6
5440,8,-230,-91,31,13,-8
5445,8,-230,-92,32,12,-7
5450,11,-233,-93,33,14,-10
5455,5,-232,-90,35,14,-11
5460,10,-231,-93,39,14,-12
5465,12,-229,-93,41,13,-12
5470,5,-230,-92,42,11,-16
5475,9,-230,-93,43,10,-16
5480,9,-231,-92,43,8,-17
5485,9,-232,-93,45,6,-16
5490,8,-230,-91,46,4,-16
5495,10,-230,-89,47,4,-14
5500,9,-231,-87,47,7,-11
5505,9,-233,-89,46,9,-9
5510,8,-234,-91,47,10,-7
5515,7,-233,-92,47,12,-9
5520,6,-232,-93,51,13,-8
5525,7,-237,-87,54,15,-4
5530,6,-230,-87,56,17,-6
5535,6,-230,-90,58,20,-6
5540,8,-233,-88,58,20,-5
5545,11,-231,-89,54,21,-6
5550,8,-229,-89,52,20,-6
5555,8,-232,-91,48,20,-7
5560,6,-230,-92,47,18,-8
5565,9,-232,-89,47,17,-7
5570,12,-234,-90,46,17,-8
5575,9,-232,-90,47,16,-9
5580,5,-230,-92,47,14,-9
5585,10,-231,-90,46,13,-9
5590,9,-228,-93,49,14,-10
5595,11,-230,-89,51,14,-9
5600,11,-230,-90,53,12,-7
5605,12,-231,-89,54,13,-6
5610,8,-227,-91,53,13,-5
5615,14,-230,-88,51,12,-4
5620,10,-231,-89,50,10,-6
5625,12,-231,-88,47,11,-4
5630,8,-231,-93,43,12,-3
5635,14,-229,-87,39,12,-5
5640,8,-230,-90,36,12,-6
5645,9,-230,-90,33,12,-6
5650,8,-228,-93,31,12,-7
5655,8,-229,-94,30,11,-11
5660,11,-229,-91,30,10,-11
5665,9,-232,-88,31,9,-12
5670,7,-231,-92,32,9,-11
5675,8,-229,-93,30,10,-11
5680,13,-232,-93,28,10,-11
5685,12,-234,-95,26,11,-10
5690,4,-228,-90,25,13,-10
5695,10,-229,-91,24,13,-10
5700,11,-230,-90,24,12,-10
5705,10,-230,-92,24,14,-9
5710,8,-229,-92,25,13,-7
5715,9,-230,-93,24,10,-9
5720,12,-233,-92,23,12,-8
5725,11,-231,-91,22,11,-6
5730,12,-232,-89,21,10,-7
5735,9,-227,-92,20,9,-8
5740,10,-231,-88,20,9,-9
5745,11,-231,-91,23,7,-8
5750,8,-232,-91,25,6,-9
5755,6,-231,-94,27,8,-12
5760,10,-231,-90,27,9,-10
5765,8,-227,-88,26,10,-13
5770,8,-234,-92,25,11,-14
5775,9,-230,-93,23,12,-13
5780,8,-230,-95,20,13,-13
5785,7,-234,-89,21,13,-11
5790,9,-231,-93,19,15,-9
5795,7,-231,-90,19,15,-9
5800,8,-230,-91,20,13,-8
5805,6,-230,-95,21,12,-8
5810,10,-231,-92,21,9,-7
5815,9,-229,-89,23,8,-7
5820,9,-226,-91,23,7,-6
5825,10,-229,-90,21,4,-7
5830,8,-229,-93,22,3,-8
5835,10,-228,-88,21,2,-8
5840,10,-229,-91,20,2,-6
5845,10,-232,-96,18,1,-8
5850,9,-231,-91,19,0,-8
5855,11,-233,-94,18,1,-8
5860,9,-229,-92,18,1,-6
5865,8,-230,-92,20,2,-7
5870,12,-229,-94,21,2,-8
5875,10,-231,-93,22,1,-7
5880,12,-229,-93,22,1,-7
5885,13,-229,-95,22,1,-7
5890,7,-229,-95,22,1,-6
5895,8,-229,-94,22,2,-3
5900,8,-231,-89,20,1,-5
5905,12,-233,-88,20,2,-6
5910,10,-232,-95,21,1,-7
5915,10,-230,-95,21,3,-6
5920,11,-229,-95,24,3,-7
5925,9,-227,-94,25,3,-7
5930,9,-228,-95,26,5,-8
5935,9,-231,-94,28,6,-8
5940,10,-229,-95,27,7,-6
5945,9,-231,-95,29,7,-5
5950,12,-228,-94,30,8,-4
5955,12,-233,-96,30,8,-4
5960,11,-230,-97,33,9,-2
5965,12,-230,-92,35,8,-1
5970,9,-229,-90,36,6,-1
5975,9,-228,-93,35,5,-2
5980,14,-229,-94,33,4,-1
5985,11,-229,-90,32,4,1
5990,12,-231,-99,33,4,1
5995,11,-232,-94,32,2,3
6000,11,-232,-94,32,2,2
6005,6,-224,-93,33,2,2
6010,9,-227,-94,33,2,1
6015,10,-229,-101,34,2,-1
6020,8,-227,-98,35,2,1
6025,11,-231,-94,32,4,3
6030,8,-227,-91,30,3,4
6035,8,-229,-95,27,2,4
6040,10,-228,-92,25,4,5
6045,10,-230,-94,23,4,5
6050,8,-226,-94,20,5,6
6055,8,-229,-93,17,4,8
6060,8,-231,-94,17,4,10
6065,11,-228,-95,16,4,13
6070,12,-231,-95,16,5,14
6075,11,-227,-93,17,5,16
6080,11,-230,-93,17,6,15
6085,10,-231,-95,19,5,15
6090,10,-226,-96,21,5,13
6095,11,-230,-95,20,5,11
6100,10,-227,-97,20,5,12
6105,13,-234,-95,20,7,12
6110,11,-226,-95,18,8,10
6115,7,-230,-95,15,8,11
6120,8,-227,-96,11,7,13
6125,9,-223,-97,9,6,15
6130,9,-231,-96,6,5,15
6135,8,-227,-96,5,4,15
6140,11,-228,-95,8,5,15
6145,10,-229,-95,11,6,14
6150,10,-228,-95,12,8,16
6155,6,-230,-96,11,7,18
6160,9,-227,-96,7,6,18
6165,8,-228,-97,6,7,18
6170,6,-229,-97,5,6,16
6175,7,-231,-98,6,6,14
6180,11,-229,-100,7,7,13
6185,6,-226,-95,9,7,16
6190,8,-226,-99,14,7,15
6195,9,-230,-96,15,5,16
6200,10,-226,-97,17,4,17
6205,7,-227,-98,17,3,16
6210,8,-231,-97,15,0,17
6215,8,-228,-94,14,-1,16
6220,7,-225,-99,14,-3,16
6225,7,-231,-97,14,-2,16
6230,9,-227,-97,16,-1,18
6235,6,-226,-97,20,2,19
6240,5,-227,-95,21,3,21
6245,9,-231,-93,24,6,22
6250,8,-228,-98,26,8,24
6255,7,-229,-98,30,9,27
6260,8,-228,-91,31,11,28
6265,5,-230,-95,35,11,26
6270,6,-233,-95,38,11,26
6275,7,-227,-94,42,10,25
6280,6,-224,-97,46,10,26
6285,10,-230,-97,50,8,22
6290,8,-228,-94,52,7,21
6295,6,-227,-97,54,6,19
6300,7,-229,-96,54,4,20
6305,10,-228,-95,55,3,19
6310,7,-228,-96,55,4,18
6315,11,-228,-93,54,3,20
6320,8,-229,-97,53,3,22
6325,6,-225,-96,52,1,23
6330,8,-227,-99,53,0,23
6335,7,-226,-99,53,-2,26
6340,5,-231,-94,54,-2,25
6345,10,-230,-97,52,-4,27
6350,5,-228,-92,50,-4,27
6355,4,-227,-98,48,-4,29
6360,7,-228,-100,45,-5,29
6365,6,-228,-98,42,-5,29
6370,5,-230,-95,42,-4,28
6375,3,-230,-95,43,-3,29
6380,9,-228,-95,43,-3,29
6385,8,-227,-97,46,-2,29
6390,6,-229,-98,47,-1,29
6395,4,-231,-94,48,0,28
6400,6,-230,-97,48,1,29
6405,4,-229,-97,48,2,29
6410,6,-228,-97,48,3,29
6415,2,-226,-98,50,2,29
6420,6,-228,-98,49,3,27
6425,7,-228,-99,50,2,25
6430,4,-235,-103,50,2,24
6435,6,-227,-94,49,2,18
6440,8,-227,-101,47,0,23
6445,7,-226,-98,43,-1,28
6450,8,-228,-99,40,-3,29
6455,8,-229,-93,38,-3,31
6460,5,-230,-97,37,-4,32
6465,2,-227,-98,37,-6,34
6470,4,-227,-96,38,-5,35
6475,5,-230,-97,39,-4,35
6480,5,-228,-97,40,-5,33
6485,0,-225,-98,41,-5,36
6490,7,-223,-99,41,-4,37
6495,4,-230,-93,43,-3,37
6500,3,-227,-99,43,-4,38
6505,5,-226,-97,43,-2,38
6510,4,-229,-96,46,-2,37
6515,6,-227,-96,44,-2,38
6520,6,-228,-96,45,-3,38
6525,6,-228,-100,44,-3,40
6530,4,-227,-98,42,-2,42
6535,3,-227,-95,37,-2,43
6540,3,-226,-97,33,-3,43
6545,2,-225,-94,29,-4,43
6550,1,-230,-101,27,-4,44
6555,3,-222,-98,24,-5,37
6560,5,-226,-89,22,-6,42
6565,5,-229,-97,20,-8,45
6570,5,-229,-96,18,-9,48
6575,6,-228,-100,19,-10,48
6580,4,-231,-99,19,-11,49
6585,3,-226,-101,21,-11,48
6590,2,-229,-94,21,-10,48
6595,4,-230,-96,23,-10,48
6600,4,-232,-101,25,-8,48
6605,3,-229,-98,26,-8,49
6610,5,-230,-98,26,-9,50
6615,-2,-234,-100,27,-8,50
6620,2,-230,-98,26,-8,50
6625,1,-227,-98,24,-7,51
6630,2,-227,-99,21,-6,51
6635,1,-225,-101,16,-8,51
6640,1,-225,-100,13,-8,49
6645,2,-228,-95,9,-7,49
6650,3,-227,-97,7,-8,49
6655,0,-231,-100,7,-8,50
6660,1,-228,-97,7,-6,51
6665,1,-225,-98,8,-6,48
6670,1,-227,-97,7,-6,47
6675,0,-228,-99,11,-4,40
6680,1,-229,-99,12,-4,40
6685,3,-230,-99,13,-4,46
6690,3,-229,-98,14,-3,49
6695,5,-228,-100,15,-4,50
6700,4,-225,-95,15,-4,50
6705,1,-227,-96,15,-5,50
6710,0,-226,-101,13,-6,49
6715,2,-226,-101,12,-8,51
6720,2,-227,-100,12,-10,53
6725,3,-226,-100,15,-8,58
6730,4,-227,-99,17,-6,60
6735,4,-227,-99,17,-4,63
6740,3,-227,-101,20,-3,65
6745,5,-225,-102,24,-2,66
6750,7,-231,-94,28,-1,66
6755,3,-226,-101,32,-1,64
6760,6,-229,-98,32,-3,62
6765,4,-230,-96,33,-4,61
6770,2,-227,-100,32,-5,59
6775,2,-227,-103,30,-7,60
6780,3,-230,-100,28,-7,60
6785,1,-229,-98,24,-8,61
6790,1,-230,-101,20,-8,59
6795,1,-227,-102,17,-9,57
6800,0,-229,-99,18,-11,57
6805,0,-229,-96,21,-11,57
6810,1,-228,-100,26,-9,55
6815,0,-231,-98,31,-8,51
6820,-3,-229,-98,37,-7,49
6825,2,-226,-99,40,-7,48
6830,-1,-224,-99,43,-7,46
6835,-2,-223,-98,42,-7,47
6840,1,-226,-100,39,-6,47
6845,-1,-227,-97,35,-5,50
6850,0,-225,-100,31,-4,55
6855,0,-227,-99,28,-3,56
6860,-1,-227,-100,23,-4,58
6865,-3,-225,-98,22,-4,60
6870,-1,-226,-99,20,-3,60
6875,-3,-232,-101,20,-1,60
6880,-3,-231,-100,22,1,61
6885,-8,-232,-103,27,5,60
6890,-3,-229,-99,35,7,58
6895,-5,-231,-102,44,9,60
6900,-3,-232,-103,54,9,59
6905,-3,-228,-101,64,10,59
6910,-5,-230,-101,71,8,59
6915,-3,-229,-102,75,6,61
6920,-5,-227,-98,76,4,61
6925,-1,-227,-99,73,4,63
6930,-6,-228,-102,67,1,65
6935,-1,-232,-99,62,0,68
6940,-2,-228,-99,56,0,70
6945,-1,-230,-100,53,0,73
6950,-6,-228,-99,52,2,77
6955,-1,-226,-99,53,3,81
6960,-2,-227,-101,53,5,86
6965,-3,-230,-94,53,7,87
6970,-2,-229,-96,54,9,90
6975,-2,-225,-96,54,10,91
6980,-7,-227,-95,56,10,90
6985,-1,-225,-95,55,9,91
6990,-1,-225,-102,55,9,92
6995,-1,-228,-96,53,7,90
7000,-3,-224,-99,50,7,89
7005,-7,-225,-99,48,6,87
7010,-6,-228,-98,47,5,85
7015,-6,-227,-100,42,5,86
7020,-5,-225,-95,41,3,87
7025,-4,-228,-97,40,4,84
7030,0,-229,-104,40,5,84
7035,-5,-227,-98,41,3,84
7040,-5,-229,-100,40,3,83
7045,-6,-228,-100,40,1,85
7050,-5,-229,-93,38,-2,85
7055,3,-236,-96,38,-2,84
7060,-1,-228,-101,38,-2,85
7065,-4,-225,-99,38,-3,86
7070,-5,-228,-101,37,-4,87
7075,-5,-228,-97,35,-4,85
7080,-6,-228,-100,32,-3,86
7085,-9,-227,-97,30,-5,86
7090,-7,-227,-101,27,-8,86
7095,-3,-231,-100,21,-7,84
7100,-9,-230,-99,18,-6,84
7105,-14,-228,-103,17,-5,84
7110,-10,-224,-99,18,-6,83
7115,-7,-230,-100,20,-6,80
7120,-8,-229,-100,22,-4,78
7125,-14,-226,-100,25,-4,76
7130,-11,-228,-100,26,-6,77
7135,-10,-230,-100,26,-3,76
7140,-10,-227,-101,24,-3,75
7145,-11,-228,-99,24,-3,77
7150,-11,-227,-101,23,-3,79
7155,-11,-226,-101,24,-3,77
7160,-8,-228,-97,24,-4,79
7165,-13,-222,-100,22,-6,83
7170,-11,-227,-99,24,-7,88
7175,-4,-227,-102,28,-10,89
7180,-9,-227,-103,29,-10,90
7185,-9,-229,-104,31,-9,94
7190,-8,-229,-98,34,-10,95
7195,-6,-225,-101,36,-12,95
7200,-6,-227,-101,33,-9,93
7205,-7,-227,-103,33,-7,95
7210,-5,-226,-97,34,-5,95
7215,-9,-228,-103,35,-3,94
7220,-9,-227,-100,32,-1,94
7225,-10,-226,-102,29,2,95
7230,-11,-225,-102,29,4,96
7235,-10,-226,-97,29,4,95
7240,-9,-226,-102,27,2,96
7245,-9,-228,-100,28,4,94
7250,-10,-228,-98,26,4,96
7255,-13,-226,-101,25,3,98
7260,-8,-220,-100,22,3,98
7265,-6,-226,-104,20,7,99
7270,-10,-224,-98,18,9,101
7275,-12,-229,-99,15,10,102
7280,-9,-226,-102,14,8,102
7285,-9,-225,-99,13,7,100
7290,-14,-225,-100,13,5,99
7295,-12,-227,-101,13,-1,102
7300,-12,-228,-103,10,-4,100
7305,-13,-228,-101,3,-7,102
7310,-9,-224,-98,-4,-9,106
7315,-11,-225,-103,-10,-8,104
7320,-14,-231,-96,-15,-7,103
7325,-15,-228,-100,-14,-6,102
7330,-14,-229,-101,-10,-4,99
7335,-14,-227,-99,-7,-2,96
7340,-20,-225,-104,-4,1,94
7345,-14,-226,-101,-3,3,93
7350,-15,-227,-105,1,5,89
7355,-13,-232,-99,1,8,87
7360,-16,-226,-99,0,10,85
7365,-15,-224,-96,-20,11,58
7370,-13,-223,-102,-23,16,68
7375,-19,-229,-102,-18,21,77
7380,-14,-226,-100,-12,23,81
7385,-16,-224,-95,-4,26,81
7390,-14,-224,-101,4,31,82
7395,-18,-224,-97,11,37,79
7400,-16,-229,-99,14,41,77
7405,-19,-225,-100,14,46,73
7410,-17,-224,-97,9,51,70
7415,-18,-224,-105,5,54,67
7420,-17,-225,-101,0,59,65
7425,-18,-222,-95,-6,63,64
7430,-22,-226,-102,-14,63,61
7435,-16,-227,-100,-25,65,61
7440,-18,-224,-102,-34,69,59
7445,-19,-223,-101,-44,69,62
7450,-17,-223,-101,-46,66,62
7455,-18,-224,-99,-45,64,62
7460,-16,-226,-99,-42,60,59
7465,-24,-225,-104,-37,53,55
7470,-18,-228,-102,-34,44,54
7475,-24,-226,-101,-31,37,50
7480,-27,-225,-101,-32,25,50
7485,-19,-225,-95,-33,15,47
7490,-25,-229,-105,-35,5,41
7495,-32,-228,-101,-31,-4,42
7500,-28,-230,-100,-25,-13,42
7505,-27,-231,-102,-15,-19,44
7510,-26,-233,-102,-4,-26,42
7515,-32,-233,-105,8,-37,48
7520,-25,-231,-105,20,-39,45
7525,-28,-232,-106,28,-39,44
7530,-30,-228,-105,37,-38,45
7535,-29,-228,-107,50,-38,46
7540,-31,-223,-105,60,-37,45
7545,-28,-226,-102,72,-36,47
7550,-27,-226,-102,83,-38,50
7555,-25,-222,-99,95,-41,52
7560,-23,-223,-104,104,-41,49
7565,-28,-220,-105,113,-43,52
7570,-25,-221,-102,122,-44,52
7575,-26,-223,-101,129,-47,55
7580,-22,-218,-100,133,-48,55
7585,-24,-225,-101,134,-47,55
7590,-24,-221,-98,135,-48,56
7595,-24,-222,-96,133,-50,55
7600,-31,-221,-100,131,-50,53
7605,-29,-221,-104,129,-51,49
7610,-26,-221,-105,128,-51,46
7615,-28,-220,-110,128,-49,43
7620,-29,-224,-104,128,-49,43
7625,-28,-221,-108,127,-52,41
7630,-28,-221,-111,126,-56,44
7635,-28,-222,-110,124,-61,44
7640,-23,-224,-105,121,-61,47
7645,-25,-223,-109,114,-64,50
7650,-17,-228,-100,110,-66,51
7655,-26,-223,-109,105,-67,56
7660,-25,-221,-103,100,-68,57
7665,-22,-226,-106,95,-66,60
7670,-21,-221,-105,91,-64,65
7675,-21,-225,-104,88,-59,66
7680,-20,-224,-102,86,-55,68
7685,-24,-223,-104,84,-53,72
7690,-16,-220,-100,82,-49,70
7695,-16,-222,-106,75,-43,68
7700,-16,-224,-103,69,-39,69
7705,-20,-223,-106,63,-36,68
7710,-22,-221,-104,54,-38,67
7715,-21,-222,-105,44,-39,64
7720,-21,-223,-104,36,-38,64
7725,-28,-224,-102,30,-39,64
7730,-24,-221,-103,26,-41,60
7735,-24,-219,-101,21,-42,57
7740,-25,-221,-104,15,-40,54
7745,-24,-223,-102,10,-36,55
7750,-24,-223,-102,4,-33,55
7755,-30,-222,-108,0,-33,58
7760,-21,-223,-105,-5,-34,56
7765,-23,-223,-105,-13,-29,56
7770,-26,-219,-105,-20,-28,56
7775,-25,-221,-108,-23,-28,56
7780,-23,-221,-103,-26,-32,56
7785,-25,-221,-109,-26,-34,55
7790,-27,-221,-106,-23,-37,55
7795,-25,-221,-104,-18,-42,55
7800,-22,-221,-107,-12,-41,53
7805,-31,-219,-105,-10,-39,51
7810,-26,-228,-106,-7,-41,54
7815,-30,-220,-102,-5,-43,52
7820,-27,-222,-104,-5,-42,54
7825,-28,-221,-101,-5,-43,54
7830,-29,-223,-100,-6,-44,55
7835,-33,-218,-105,-8,-46,56
7840,-27,-223,-105,-10,-46,52
7845,-33,-223,-107,-11,-46,53
7850,-32,-221,-104,-9,-46,52
7855,-32,-219,-106,-7,-48,53
7860,-35,-222,-102,-4,-48,51
7865,-36,-217,-103,-4,-50,52
7870,-34,-219,-106,-4,-50,51
7875,-34,-219,-103,-7,-49,50
7880,-31,-221,-110,-10,-56,53
7885,-27,-222,-109,-19,-53,46
7890,-31,-223,-106,-30,-50,47
7895,-27,-221,-107,-38,-48,50
7900,-29,-223,-106,-46,-46,52
7905,-29,-221,-106,-50,-43,53
7910,-24,-227,-106,-50,-40,54
7915,-25,-227,-107,-46,-39,56
7920,-26,-225,-112,-40,-35,56
7925,-30,-224,-108,-32,-31,57
7930,-24,-227,-108,-24,-28,57
7935,-27,-224,-106,-15,-24,57
7940,-28,-227,-105,-7,-23,57
7945,-35,-216,-113,-11,-20,42
7950,-29,-221,-102,-17,-14,41
7955,-33,-229,-111,-7,-20,51
7960,-27,-223,-109,3,-22,52
7965,-29,-224,-106,8,-21,52
7970,-32,-220,-109,12,-21,55
7975,-27,-230,-110,15,-23,56
7980,-31,-221,-107,16,-26,60
7985,-32,-224,-106,23,-28,64
7990,-31,-225,-105,30,-29,66
7995,-30,-224,-106,37,-33,68
8000,-33,-224,-111,45,-38,70
8005,-35,-220,-108,49,-43,71
8010,-34,-219,-106,50,-48,73
8015,-32,-226,-106,48,-57,73
8020,-30,-221,-110,43,-60,70
8025,-31,-220,-107,36,-57,71
8030,-29,-224,-102,36,-57,71
8035,-31,-221,-104,38,-60,71
8040,-34,-224,-104,41,-60,70
8045,-32,-221,-112,45,-60,73
8050,-36,-224,-108,49,-59,74
8055,-32,-222,-108,52,-59,73
8060,-39,-224,-96,54,-59,74
8065,-35,-221,-108,55,-63,73
8070,-29,-224,-109,53,-57,66
8075,-33,-221,-104,49,-52,70
8080,-32,-223,-107,53,-51,73
8085,-36,-223,-100,55,-51,77
8090,-35,-224,-106,55,-51,81
8095,-36,-220,-108,54,-52,84
8100,-31,-221,-106,54,-52,86
8105,-33,-223,-106,52,-53,90
8110,-35,-219,-107,50,-54,91
8115,-40,-222,-104,49,-55,94
8120,-29,-222,-106,50,-65,97
8125,-26,-220,-107,45,-56,88
8130,-29,-223,-110,42,-51,91
8135,-34,-219,-104,48,-51,89
8140,-29,-229,-110,56,-52,89
8145,-32,-221,-106,61,-53,90
8150,-35,-222,-111,63,-52,92
8155,-36,-221,-105,63,-51,94
8160,-50,-222,-98,62,-53,100
8165,-27,-222,-110,63,-56,99
8170,-30,-222,-105,55,-46,96
8175,-31,-217,-107,50,-40,100
8180,-34,-221,-104,52,-39,98
8185,-32,-224,-106,53,-39,96
8190,-33,-223,-107,53,-37,95
8195,-56,-223,-94,53,-41,96
8200,-29,-223,-107,59,-55,101
8205,-34,-218,-111,52,-51,93
8210,-37,-217,-105,45,-49,99
8215,-36,-217,-105,44,-51,101
8220,-38,-219,-108,50,-55,104
8225,-38,-216,-108,60,-59,104
8230,-45,-223,-107,71,-70,108
8235,-33,-218,-109,84,-76,102
8240,-39,-217,-109,84,-74,100
8245,-40,-221,-102,88,-73,110
8250,-40,-217,-104,91,-75,110
8255,-41,-217,-106,88,-77,115
8260,-45,-219,-104,81,-85,122
8265,-31,-218,-111,70,-85,114
8270,-37,-220,-108,54,-80,115
8275,-40,-217,-111,43,-79,119
8280,-39,-219,-104,38,-78,121
8285,-56,-219,-102,37,-85,125
8290,-33,-215,-109,36,-91,121
8295,-35,-217,-104,26,-82,114
8300,-40,-218,-102,18,-80,121
8305,-44,-217,-106,13,-82,120
8310,-55,-216,-105,8,-86,123
8315,-40,-219,-109,7,-96,129
8320,-44,-217,-107,-1,-92,121
8325,-44,-217,-102,-10,-92,129
8330,-47,-220,-110,-17,-95,133
8335,-59,-219,-98,-18,-104,140
8340,-38,-220,-109,-15,-114,139
8345,-41,-217,-111,-21,-108,133
8350,-45,-219,-111,-29,-108,137
8355,-45,-220,-108,-27,-113,137
8360,-48,-227,-111,-22,-130,145
8365,-36,-217,-111,-15,-129,130
8370,-45,-221,-112,-19,-129,131
8375,-48,-219,-112,-13,-134,133
8380,-56,-220,-108,-8,-148,141
8385,-36,-220,-111,-6,-149,132
8390,-39,-217,-108,-16,-144,135
8395,-44,-219,-108,-19,-144,140
8400,-63,-216,-96,-17,-150,148
8405,-37,-221,-107,-12,-160,147
8410,-42,-218,-112,-24,-149,142
8415,-43,-220,-106,-34,-144,151
8420,-64,-217,-100,-35,-150,156
8425,-35,-214,-107,-35,-152,149
8430,-42,-217,-109,-48,-138,147
8435,-61,-215,-98,-54,-135,155
8440,-36,-219,-111,-50,-142,156
8445,-44,-213,-110,-60,-129,150
8450,-61,-215,-94,-68,-124,160
8455,-37,-224,-109,-63,-137,166
8460,-44,-216,-112,-72,-125,153
8465,-54,-218,-108,-84,-121,162
8470,-60,-220,-104,-82,-129,166
8475,-40,-214,-109,-79,-127,153
8480,-50,-217,-107,-87,-125,158
8485,-59,-223,-105,-81,-137,174
8490,-44,-217,-110,-73,-146,168
8495,-46,-216,-108,-82,-140,169
8500,-61,-219,-106,-83,-144,180
8505,-48,-216,-112,-72,-150,179
8510,-52,-218,-108,-70,-144,179
8515,-70,-217,-97,-66,-152,190
8520,-40,-219,-112,-51,-158,181
8525,-52,-217,-110,-57,-152,183
8530,-52,-221,-111,-57,-158,201
8535,-51,-209,-118,-65,-160,181
8540,-57,-213,-102,-92,-150,177
8545,-59,-224,-110,-77,-168,216
8550,-44,-215,-116,-58,-168,214
8555,-65,-214,-103,-56,-168,225
8560,-49,-218,-109,-38,-187,242
8565,-49,-216,-112,-26,-189,235
8570,-77,-217,-105,-17,-197,244
8575,-48,-221,-115,5,-222,253
8580,-60,-215,-115,6,-213,236
8585,-55,-225,-116,5,-218,253
8590,-56,-213,-116,6,-215,246
8595,-79,-219,-102,6,-221,262
8600,-53,-218,-117,23,-239,272
8605,-66,-220,-113,26,-230,272
8610,-57,-218,-112,33,-231,278
8615,-74,-212,-105,42,-231,284
8620,-63,-226,-117,62,-256,303
8625,-63,-209,-115,81,-247,287
8630,-53,-218,-114,81,-246,299
8635,-57,-209,-115,79,-242,300
8640,-77,-215,-102,82,-267,325
8645,-56,-207,-114,81,-273,314
8650,-56,-216,-114,65,-283,326
8655,-56,-213,-113,52,-283,323
8660,-82,-208,-99,43,-301,340
8665,-49,-210,-118,46,-319,336
8670,-57,-212,-114,30,-318,331
8675,-64,-207,-115,19,-317,336
8680,-91,-209,-97,19,-336,354
8685,-50,-212,-124,32,-356,350
8690,-69,-211,-111,33,-363,356
8695,-62,-207,-115,37,-366,354
8700,-87,-209,-102,41,-380,361
8705,-58,-213,-114,58,-410,373
8710,-65,-204,-117,57,-409,364
8715,-63,-206,-111,52,-411,373
8720,-105,-204,-98,52,-424,388
8725,-64,-202,-111,69,-451,394
8730,-77,-203,-111,65,-445,384
8735,-64,-202,-118,63,-447,390
8740,-85,-199,-109,52,-440,390
8745,-88,-203,-102,51,-456,414
8750,-61,-202,-116,56,-458,407
8755,-81,-200,-102,38,-446,408
8760,-62,-208,-115,38,-459,431
8765,-71,-197,-113,26,-447,422
8770,-99,-198,-101,11,-457,448
8775,-70,-206,-121,13,-484,463
8780,-80,-195,-111,-7,-460,445
8785,-73,-201,-116,-20,-463,471
8790,-82,-190,-114,-47,-449,448
8795,-114,-193,-91,-75,-458,455
8800,-67,-201,-122,-51,-492,482
8805,-91,-193,-108,-50,-477,469
8810,-75,-195,-119,-41,-486,489
8815,-84,-196,-118,-42,-479,486
8820,-95,-199,-109,-36,-494,507
8825,-78,-198,-116,-18,-512,514
8830,-110,-193,-96,-17,-514,518
8835,-77,-208,-118,14,-565,556
8840,-95,-200,-102,25,-564,531
8845,-81,-201,-114,27,-583,556
8850,-78,-201,-110,15,-579,550
8855,-105,-198,-102,-13,-580,569
8860,-79,-209,-113,-17,-608,599
8865,-109,-195,-96,-30,-603,585
8870,-137,-202,-93,-30,-632,608
8875,-71,-199,-114,-20,-656,588
8880,-94,-196,-106,-26,-645,594
8885,-111,-206,-104,-5,-669,657
8890,-91,-191,-104,29,-678,658
8895,-116,-194,-93,38,-690,694
8900,-68,-205,-114,70,-696,708
8905,-114,-191,-89,55,-684,713
8910,-66,-202,-113,58,-725,754
8915,-90,-192,-95,23,-723,751
8920,-107,-205,-90,10,-771,796
8925,-72,-196,-98,-4,-777,779
8930,-77,-201,-103,-20,-793,804
8935,-93,-187,-94,-35,-787,792
8940,-130,-192,-83,-46,-812,813
8945,-84,-192,-98,-11,-827,815
8950,-108,-198,-86,4,-831,833
8955,-78,-195,-101,30,-827,842
8960,-120,-197,-87,39,-830,868
8965,-75,-198,-107,66,-849,892
8970,-113,-190,-86,55,-839,897
8975,-80,-192,-110,54,-851,923
8980,-113,-186,-98,21,-856,942
8985,-102,-187,-95,-11,-867,964
8990,-92,-192,-104,-54,-887,992
8995,-104,-193,-92,-81,-900,1010
9000,-101,-179,-84,-117,-907,1011
9005,-82,-192,-96,-142,-932,1049
9010,-112,-184,-82,-159,-937,1076
9015,-112,-185,-84,-156,-954,1094
9020,-102,-181,-82,-138,-972,1100
9025,-98,-179,-88,-114,-988,1108
9030,-104,-178,-89,-91,-1002,1120
9035,-114,-176,-80,-67,-1015,1135
9040,-115,-163,-79,-44,-1021,1140
9045,-98,-162,-85,-46,-1034,1129
9050,-100,-159,-82,-59,-1043,1153
9055,-106,-154,-77,-72,-1054,1176
9060,-98,-153,-72,-82,-1075,1195
9065,-95,-153,-71,-117,-1088,1201
9070,-94,-156,-75,-177,-1109,1211
9075,-101,-153,-69,-255,-1130,1230
9080,-106,-149,-81,-333,-1149,1244
9085,-102,-141,-76,-423,-1164,1232
9090,-93,-152,-76,-462,-1174,1300
9095,-93,-149,-77,-449,-1189,1329
9100,-113,-143,-63,-387,-1222,1327
9105,-101,-154,-62,-286,-1278,1311
9110,-118,-147,-64,-176,-1317,1279
9115,-103,-156,-68,-69,-1365,1250
9120,-98,-140,-78,-2,-1398,1215
9125,-90,-125,-95,28,-1429,1203
9130,-82,-115,-102,39,-1425,1175
9135,-84,-94,-103,50,-1392,1189
9140,-151,-100,-95,77,-1383,1265
9145,-84,-86,-104,138,-1435,1298
9150,-88,-69,-77,244,-1460,1358
9155,-77,-63,-87,328,-1519,1447
9160,-70,-59,-80,438,-1584,1506
9165,-54,-53,-64,550,-1640,1532
9170,-36,-52,-54,647,-1680,1546
9175,-29,-45,-34,715,-1701,1556
9180,-22,-44,-8,727,-1729,1583
9185,-33,-40,9,684,-1746,1632
9190,-29,-43,12,623,-1770,1658
9195,-43,-10,3,616,-1803,1667
9200,-71,-12,8,620,-1816,1682
9205,-110,-7,28,657,-1875,1668
9210,-206,-9,79,732,-2027,1641
9215,-256,-19,84,865,-2292,1593
9220,-206,9,13,963,-2582,1469
9225,-154,27,-52,921,-2741,1351
9230,-96,50,-91,751,-2808,1228
9235,-53,62,-119,547,-2834,1106
9240,-18,47,-110,351,-2818,1014
9245,-4,23,-90,196,-2769,962
9250,4,3,-80,85,-2697,939
9255,12,-5,-77,1,-2604,926
9260,51,-18,-81,-75,-2480,890
9265,101,-23,-73,-148,-2330,805
9270,126,-36,-76,-229,-2203,680
9275,139,-33,-83,-328,-2097,524
9280,154,-49,-57,-398,-1896,484
9285,32,-75,26,-372,-1793,465
9290,34,-113,-16,-192,-1794,432
9295,-27,-118,-9,-36,-1652,337
9300,-23,-118,-71,7,-1475,210
9305,-39,-99,-101,-142,-1214,33
9310,-117,-107,-56,-372,-935,-140
9315,-170,-118,0,-516,-700,-254
9320,-251,-112,46,-464,-437,-293
9325,-406,-103,98,-230,-269,-266
9330,-547,-102,91,70,-318,-290
9335,-679,-115,91,316,-489,-385
9340,-750,-145,97,539,-727,-470
9345,-748,-217,94,687,-968,-581
9350,-681,-266,118,708,-1132,-737
9355,-663,-288,142,687,-1322,-841
9360,-688,-275,158,702,-1616,-910
9365,-709,-242,156,790,-1916,-941
9370,-757,-195,158,961,-2166,-944
9375,-761,-161,179,1175,-2382,-918
9380,-749,-154,225,1388,-2567,-878
9385,-799,-172,289,1600,-2742,-784
9390,-854,-190,347,1754,-2956,-622
9395,-917,-212,394,1815,-3187,-462
9400,-944,-209,394,1809,-3370,-267
9405,-930,-208,356,1770,-3475,0
9410,-878,-213,330,1710,-3501,292
9415,-759,-229,324,1679,-3421,561
9420,-591,-220,318,1681,-3208,828
9425,-427,-181,311,1677,-2843,1086
9430,-323,-149,267,1615,-2358,1356
9435,-257,-116,212,1477,-1902,1548
9440,-193,-111,169,1336,-1477,1696
9445,-160,-125,145,1295,-1128,1836
9450,-119,-150,141,1357,-839,1966
9455,-88,-169,132,1517,-611,2029
9460,-83,-170,136,1713,-405,2036
9465,-86,-133,149,1896,-299,1918
9470,-94,-105,175,1992,-224,1778
9475,-97,-58,190,2024,-203,1575
9480,-102,-48,216,1931,-220,1371
9485,-95,-25,232,1757,-250,1174
9490,-77,-20,239,1517,-272,1003
9495,-67,-18,247,1222,-293,866
9500,-69,-29,242,927,-324,763
9505,-69,-17,232,676,-391,641
9510,-53,-24,234,451,-426,565
9515,-58,-30,225,289,-420,512
9520,-57,-28,211,195,-399,457
9525,-55,-29,196,150,-318,448
9530,-63,-22,188,148,-211,470
9535,-59,-14,171,184,-131,500
9540,-58,-2,162,250,-78,524
9545,-57,8,141,323,-41,537
9550,-50,17,140,384,-3,542
9555,-53,20,135,414,43,509
9560,-56,29,137,410,84,453
9565,-56,27,141,373,112,390
9570,-60,32,146,316,126,325
9575,-64,28,145,251,136,257
9580,-72,27,147,182,143,192
9585,-85,22,157,110,146,131
9590,-92,15,159,31,142,72
9595,-96,8,164,-49,140,24
9600,-89,2,154,-122,137,-17
9605,-93,-3,162,-176,137,-56
9610,-91,-11,163,-205,138,-93
9615,-101,-16,166,-211,134,-126
9620,-110,-15,169,-194,117,-159
9625,-111,-14,168,-173,98,-193
9630,-106,-13,177,-146,96,-227
9635,-113,-9,187,-106,113,-250
9640,-119,-8,196,-63,132,-261
9645,-127,-9,199,-32,140,-267
9650,-129,-10,202,-14,134,-273
9655,-141,-1,203,5,123,-284
9660,-156,0,207,14,113,-297
9665,-162,-1,207,14,102,-312
9670,-171,2,212,9,96,-323
9675,-178,-2,216,4,94,-327
9680,-187,-2,219,1,86,-324
9685,-190,-7,219,-7,64,-317
9690,-197,-12,221,-22,31,-308
9695,-207,-17,221,-49,0,-294
9700,-209,-21,212,-76,-33,-284
9705,-217,-21,208,-98,-56,-276
9710,-220,-27,205,-103,-70,-275
9715,-227,-26,205,-99,-74,-276
9720,-234,-30,201,-90,-76,-276
9725,-239,-24,192,-89,-78,-277
9730,-238,-25,181,-101,-60,-275
9735,-238,-21,170,-125,-22,-268
9740,-237,-25,164,-155,26,-263
9745,-235,-24,156,-177,84,-258
9750,-239,-26,150,-193,137,-254
9755,-244,-24,147,-197,179,-246
9760,-242,-33,156,-196,221,-237
9765,-242,-35,157,-195,259,-234
9770,-238,-41,153,-189,292,-235
9775,-240,-47,158,-181,324,-235
9780,-241,-46,157,-163,340,-235
9785,-238,-49,151,-144,350,-229
9790,-237,-50,144,-131,354,-211
9795,-235,-53,135,-121,359,-189
9800,-228,-49,120,-112,365,-162
9805,-219,-50,116,-102,363,-131
9810,-216,-51,108,-89,353,-101
9815,-215,-51,117,-77,340,-71
9820,-208,-55,110,-68,321,-50
9825,-208,-58,110,-63,302,-42
9830,-206,-46,110,-51,288,-49
9835,-207,-51,110,-28,275,-65
9840,-201,-44,110,-7,261,-103
9845,-200,-44,115,9,250,-134
9850,-199,-44,114,11,242,-151
9855,-203,-49,121,0,235,-158
9860,-199,-54,123,-27,231,-152
9865,-201,-59,128,-68,238,-146
9870,-199,-55,124,-104,251,-147
9875,-196,-57,123,-117,266,-160
9880,-195,-55,122,-109,283,-179
9885,-190,-56,119,-83,302,-199
9890,-193,-55,110,-55,323,-219
9895,-192,-57,110,-32,344,-237
9900,-197,-53,111,-15,361,-253
9905,-198,-58,116,-4,372,-269
9910,-202,-58,117,3,376,-289
9915,-204,-61,119,14,373,-316
9920,-200,-61,116,23,372,-344
9925,-201,-62,117,34,370,-376
9930,-207,-56,120,52,366,-407
9935,-209,-57,115,66,364,-432
9940,-212,-64,120,59,365,-438
9945,-218,-72,127,39,365,-435
9950,-214,-72,124,20,358,-436
9955,-215,-74,122,9,345,-441
9960,-213,-77,123,8,332,-452
9965,-214,-79,122,18,316,-465
9970,-223,-83,115,39,302,-472
9975,-220,-80,109,71,292,-473
9980,-225,-75,108,105,287,-475
9985,-222,-78,111,139,283,-482
9990,-221,-82,113,167,284,-492
9995,-225,-83,112,189,285,-497
10000,-226,-83,114,206,276,-494
10005,-228,-85,116,212,267,-480
10010,-225,-90,119,209,261,-455
10015,-223,-90,121,203,253,-420
10020,-227,-88,123,203,245,-391
10025,-228,-84,117,211,230,-372
10030,-221,-81,115,218,211,-357
10035,-222,-84,115,227,196,-344
10040,-225,-81,117,235,190,-321
10045,-225,-82,115,228,190,-297
10050,-226,-85,115,214,191,-273
10055,-228,-89,114,201,188,-253
10060,-222,-88,112,192,179,-239
10065,-219,-90,106,183,171,-227
10070,-217,-86,106,175,161,-213
10075,-216,-87,105,173,152,-196
10080,-216,-89,101,181,140,-173
10085,-213,-90,98,192,127,-146
10090,-215,-85,105,207,111,-122
10095,-213,-88,105,219,99,-102
10100,-209,-85,104,230,88,-84
10105,-210,-80,105,238,79,-72
10110,-212,-80,110,244,68,-61
10115,-212,-81,110,247,52,-56
10120,-213,-82,111,246,41,-51
10125,-212,-84,110,237,39,-41
10130,-216,-79,103,221,45,-27
10135,-216,-79,100,197,53,-20
10140,-215,-83,104,174,53,-14
10145,-214,-81,102,160,47,-19
10150,-216,-80,104,152,37,-22
10155,-214,-79,102,151,19,-27
10160,-211,-82,98,158,-3,-35
10165,-212,-82,99,161,-23,-44
10170,-215,-81,98,166,-40,-50
10175,-212,-79,99,175,-59,-54
10180,-209,-79,102,187,-71,-58
10185,-211,-79,100,196,-75,-62
10190,-207,-82,102,200,-76,-62
10195,-211,-86,106,196,-69,-59
10200,-206,-85,104,188,-60,-52
10205,-206,-85,101,178,-38,-45
10210,-204,-88,99,165,-14,-39
10215,-201,-86,102,156,9,-34
10220,-200,-86,102,154,30,-34
10225,-199,-87,100,151,48,-38
10230,-199,-86,101,150,67,-39
10235,-197,-87,102,152,79,-44
10240,-199,-84,104,151,88,-50
10245,-200,-80,104,151,95,-56
10250,-204,-80,103,150,96,-62
10255,-205,-76,108,148,96,-73
10260,-204,-76,111,147,92,-85
10265,-204,-76,108,146,89,-89
10270,-208,-75,114,145,85,-93
10275,-210,-74,118,142,79,-95
10280,-213,-77,118,135,76,-91
10285,-213,-74,121,125,82,-76
10290,-216,-77,120,108,92,-57
10295,-217,-81,116,89,99,-37
10300,-216,-81,115,78,106,-17
10305,-214,-84,120,80,111,2
10310,-213,-81,116,86,112,21
10315,-208,-83,118,93,107,34
10320,-213,-79,118,101,97,45
10325,-212,-77,117,110,82,52
10330,-207,-78,120,118,62,55
10335,-207,-77,118,126,41,56
10340,-207,-74,123,132,17,56
10345,-207,-69,120,138,-4,55
10350,-212,-66,119,142,-22,58
10355,-209,-66,122,143,-40,55
10360,-204,-69,117,143,-55,55
10365,-211,-63,126,143,-69,57
10370,-213,-62,127,143,-77,59
10375,-213,-59,127,140,-79,65
10380,-215,-62,127,132,-81,70
10385,-214,-61,128,119,-74,76
10390,-214,-63,128,105,-65,82
10395,-215,-66,135,95,-54,84
10400,-213,-64,127,87,-43,85
10405,-210,-66,129,85,-30,84
10410,-215,-66,124,84,-18,84
10415,-216,-67,120,82,-4,82
10420,-211,-64,122,82,7,81
10425,-207,-62,120,82,15,75
10430,-213,-60,122,87,17,70
10435,-211,-59,123,88,14,63
10440,-212,-58,121,86,7,56
10445,-208,-55,118,80,-4,52
10450,-209,-55,120,73,-15,42
10455,-210,-59,118,66,-26,34
10460,-207,-55,125,60,-38,28
10465,-207,-57,122,58,-51,18
10470,-212,-56,123,58,-67,8
10475,-209,-58,122,62,-82,-2
10480,-210,-57,117,66,-95,-11
10485,-207,-56,120,66,-104,-18
10490,-210,-60,127,68,-110,-26
10495,-208,-58,128,72,-112,-33
10500,-211,-59,128,76,-116,-41
10505,-211,-63,127,78,-113,-46
10510,-213,-63,126,72,-100,-52
10515,-215,-62,121,62,-82,-54
10520,-210,-64,120,50,-63,-58
10525,-214,-70,123,39,-42,-64
10530,-211,-66,125,31,-25,-72
10535,-210,-67,122,27,-12,-76
10540,-211,-66,125,28,1,-81
10545,-209,-66,124,29,7,-85
10550,-208,-65,128,28,11,-89
10555,-207,-65,125,24,12,-92
10560,-201,-65,128,17,10,-94
10565,-207,-63,123,11,4,-99
10570,-207,-63,123,3,-2,-98
10575,-205,-65,126,-6,-10,-100
10580,-204,-64,126,-10,-21,-100
10585,-207,-64,125,-16,-31,-95
10590,-209,-65,122,-23,-41,-92
10595,-208,-67,125,-28,-51,-88
10600,-209,-70,125,-31,-58,-83
10605,-211,-70,122,-32,-63,-82
10610,-208,-75,123,-29,-63,-78
10615,-210,-75,127,-26,-61,-79
10620,-208,-74,120,-23,-57,-76
10625,-208,-74,123,-17,-51,-77
10630,-204,-76,119,-8,-44,-77
10635,-208,-72,125,1,-40,-77
10640,-209,-73,121,10,-37,-75
10645,-208,-73,123,14,-36,-74
10650,-209,-71,122,18,-37,-71
10655,-208,-71,123,17,-39,-68
10660,-209,-70,124,14,-41,-64
10665,-208,-67,122,10,-44,-60
10670,-210,-71,128,6,-48,-57
10675,-203,-71,127,2,-51,-54
10680,-207,-70,127,-1,-52,-52
10685,-207,-68,125,0,-56,-49
10690,-203,-74,120,5,-59,-46
10695,-201,-73,123,7,-62,-45
10700,-202,-75,118,9,-64,-43
10705,-199,-74,126,13,-65,-40
10710,-201,-72,123,16,-64,-37
10715,-200,-75,123,19,-64,-37
10720,-199,-78,125,21,-63,-36
10725,-203,-78,128,20,-60,-36
10730,-203,-78,126,16,-55,-36
10735,-202,-78,124,11,-45,-36
10740,-206,-79,122,10,-36,-37
10745,-203,-76,121,13,-23,-40
10750,-202,-80,118,20,-11,-45
10755,-200,-81,123,33,-3,-47
10760,-199,-78,117,49,3,-49
10765,-204,-75,123,62,6,-50
10770,-203,-74,119,71,5,-47
10775,-203,-73,121,75,5,-45
10780,-202,-70,122,73,0,-41
10785,-203,-72,124,67,-3,-39
10790,-205,-70,119,61,-7,-37
10795,-203,-77,124,54,-8,-35
10800,-205,-73,121,49,-11,-36
10805,-204,-71,123,48,-11,-36
10810,-205,-70,121,45,-11,-34
10815,-204,-74,123,45,-10,-35
10820,-205,-70,125,46,-10,-35
10825,-205,-73,123,47,-10,-32
10830,-206,-74,124,48,-10,-29
10835,-204,-75,125,47,-12,-26
10840,-207,-76,123,43,-13,-24
10845,-208,-73,125,39,-15,-22
10850,-205,-76,128,33,-16,-20
10855,-205,-78,128,30,-16,-18
10860,-207,-78,130,23,-14,-14
10865,-202,-78,128,18,-7,-14
10870,-206,-77,127,13,5,-10
10875,-204,-78,126,17,17,-11
10880,-201,-78,126,23,25,-14
10885,-205,-74,120,34,30,-12
10890,-204,-74,121,42,32,-12
10895,-205,-73,123,47,34,-11
10900,-207,-75,122,49,33,-10
10905,-206,-65,118,46,31,-9
10910,-202,-74,122,43,27,-7
10915,-202,-74,123,36,23,-7
10920,-204,-72,125,33,18,-3
10925,-205,-73,122,31,14,-4
10930,-206,-72,123,32,8,-4
10935,-203,-74,125,34,4,-4
10940,-205,-72,126,38,1,-3
10945,-204,-73,122,42,-1,-5
10950,-203,-72,125,44,-1,-4
10955,-204,-73,125,47,-2,-3
10960,-207,-74,130,49,-2,-2
10965,-203,-75,123,49,2,-1
10970,-204,-72,127,48,2,-2
10975,-205,-73,126,49,7,-3
10980,-203,-77,127,47,13,-1
10985,-205,-72,127,48,14,-2
10990,-203,-75,123,49,19,-2
10995,-205,-75,126,50,21,-4
11000,-202,-71,123,54,22,-8
11005,-204,-72,124,57,23,-10
11010,-200,-74,124,62,20,-11
11015,-207,-74,123,65,16,-13
11020,-202,-70,119,66,12,-16
11025,-202,-70,120,68,7,-16
11030,-203,-71,123,66,1,-19
11035,-203,-70,123,64,-4,-19
11040,-204,-73,123,64,-10,-21
11045,-208,-70,122,66,-16,-19
11050,-207,-70,123,69,-19,-19
11055,-205,-73,120,69,-22,-18
11060,-208,-71,125,69,-25,-17
11065,-204,-77,125,71,-30,-17
11070,-204,-74,124,72,-31,-15
11075,-205,-72,121,71,-32,-17
11080,-205,-73,123,70,-30,-18
11085,-207,-73,120,70,-25,-19
11090,-206,-77,122,70,-20,-21
11095,-203,-76,123,71,-16,-22
11100,-207,-73,124,74,-13,-20
11105,-208,-74,123,78,-10,-18
11110,-205,-73,123,83,-10,-15
11115,-206,-75,123,84,-9,-13
11120,-212,-74,125,83,-10,-13
11125,-204,-74,125,84,-12,-10
11130,-206,-73,126,83,-14,-11
11135,-203,-70,124,84,-16,-10
11140,-204,-71,125,83,-19,-8
11145,-204,-72,124,85,-25,-11
11150,-203,-73,125,87,-27,-11
11155,-201,-71,124,86,-28,-8
11160,-205,-71,126,84,-31,-7
11165,-202,-70,124,83,-34,-7
11170,-203,-72,126,81,-37,-7
11175,-206,-75,124,81,-39,-6
11180,-204,-74,126,80,-37,-4
11185,-208,-71,127,78,-33,-6
11190,-203,-75,129,71,-25,-5
11195,-204,-74,125,66,-18,-7
11200,-206,-73,124,65,-13,-5
11205,-205,-74,126,66,-8,-7
11210,-204,-74,125,68,-5,-8
11215,-202,-75,125,71,-4,-8
11220,-202,-75,127,75,-4,-5
11225,-201,-70,124,77,-7,-5
11230,-204,-70,119,79,-9,-3
11235,-204,-72,128,80,-11,-3
11240,-205,-70,128,80,-16,-5
11245,-204,-74,125,82,-18,-4
11250,-205,-72,126,82,-22,-6
11255,-205,-73,127,79,-24,-7
11260,-202,-72,128,78,-23,-7
11265,-202,-75,127,76,-23,-7
11270,-204,-72,122,74,-20,-6
11275,-203,-75,123,74,-18,-7
11280,-206,-72,125,76,-14,-5
11285,-196,-78,131,79,-12,-5
11290,-202,-72,125,82,-11,-2
11295,-204,-74,125,86,-13,-1
11300,-207,-70,128,88,-15,0
11305,-202,-72,125,89,-17,1
11310,-203,-74,128,89,-20,2
11315,-201,-74,128,88,-23,3
11320,-204,-72,126,83,-25,5
11325,-204,-71,127,81,-25,5
11330,-206,-74,127,79,-25,5
11335,-204,-70,127,81,-27,2
11340,-206,-72,124,84,-25,1
11345,-204,-71,128,87,-20,3
11350,-206,-73,129,89,-18,4
11355,-203,-72,127,91,-16,6
11360,-205,-72,129,95,-14,6
11365,-203,-72,129,97,-20,7
11370,-203,-68,132,97,-18,6
11375,-201,-71,128,94,-15,8
11380,-205,-67,131,89,-12,11
11385,-203,-69,128,86,-11,9
11390,-199,-72,130,82,-13,11
11395,-206,-71,132,80,-14,10
11400,-201,-70,126,75,-16,10
11405,-202,-70,129,72,-18,6
11410,-204,-71,123,73,-19,6
11415,-201,-72,126,74,-20,3
11420,-201,-72,125,75,-19,2
11425,-200,-69,128,74,-21,1
11430,-202,-69,131,75,-23,-1
11435,-201,-70,127,76,-20,-2
11440,-201,-71,126,76,-19,-4
11445,-203,-69,127,77,-18,-6
11450,-203,-65,132,77,-17,-7
11455,-204,-72,129,79,-17,-8
11460,-203,-68,132,80,-16,-10
11465,-203,-70,128,79,-13,-11
11470,-204,-70,129,79,-8,-14
11475,-205,-69,127,75,-3,-15
11480,-206,-70,124,72,2,-16
11485,-207,-69,127,70,3,-15
11490,-203,-71,131,68,4,-13
11495,-201,-67,131,67,5,-13
11500,-200,-74,132,64,4,-13
11505,-202,-74,127,64,4,-12
11510,-204,-69,129,62,5,-12
11515,-202,-71,130,60,6,-10
11520,-202,-72,129,60,9,-10
11525,-203,-69,128,60,10,-12
11530,-201,-68,129,57,12,-14
11535,-203,-75,127,57,13,-14
11540,-200,-68,127,54,14,-14
11545,-201,-70,124,53,14,-15
11550,-201,-69,126,51,11,-14
11555,-204,-74,128,50,10,-14
11560,-202,-72,126,50,10,-14
11565,-205,-67,130,52,11,-14
11570,-200,-72,128,55,9,-14
11575,-203,-69,130,55,9,-13
11580,-201,-71,127,56,7,-14
11585,-203,-68,128,58,5,-14
11590,-203,-72,127,58,4,-14
11595,-207,-69,128,58,3,-14
11600,-204,-69,127,58,2,-15
11605,-203,-71,126,58,3,-13
11610,-201,-68,131,58,0,-13
11615,-201,-75,129,57,0,-14
11620,-200,-69,128,60,-1,-14
11625,-201,-69,127,60,-1,-14
11630,-203,-73,127,61,-2,-13
11635,-202,-73,128,64,-1,-13
11640,-204,-72,125,65,1,-10
11645,-205,-73,129,67,0,-12
11650,-202,-71,130,68,1,-12
11655,-202,-69,128,68,0,-11
11660,-201,-72,128,66,2,-11
11665,-203,-75,133,63,1,-10
11670,-201,-73,129,61,1,-10
11675,-201,-73,128,58,2,-11
11680,-204,-71,130,58,1,-14
11685,-205,-71,127,58,2,-14
11690,-201,-69,130,58,3,-14
11695,-202,-71,130,60,4,-14
11700,-202,-72,129,60,4,-14
11705,-202,-71,127,59,5,-15
11710,-202,-70,126,60,7,-12
11715,-206,-68,124,59,8,-14
11720,-201,-69,124,59,7,-11
11725,-204,-68,127,57,7,-11
11730,-204,-69,130,57,8,-9
11735,-202,-70,131,56,7,-9
11740,-200,-71,129,54,8,-10
11745,-201,-71,130,51,8,-10
11750,-203,-70,129,51,8,-10
11755,-202,-71,130,50,9,-10
11760,-202,-71,128,51,10,-11
11765,-203,-72,127,52,9,-10
11770,-203,-69,130,55,8,-11
11775,-200,-65,131,54,8,-11
11780,-203,-74,130,54,8,-11
11785,-201,-70,129,53,9,-12
11790,-201,-68,129,52,9,-13
11795,-203,-72,129,53,9,-13
11800,-202,-70,130,53,11,-11
11805,-200,-71,127,54,9,-13
11810,-200,-73,129,56,8,-13
11815,-202,-74,129,56,8,-14
11820,-202,-69,128,56,7,-13
11825,-201,-68,125,57,6,-12
11830,-201,-69,126,56,4,-12
11835,-201,-73,130,57,4,-13
11840,-202,-71,128,58,4,-13
11845,-201,-71,129,60,4,-13
11850,-199,-70,127,60,1,-12
11855,-200,-69,130,61,1,-14
11860,-203,-71,130,61,1,-11
11865,-203,-72,126,63,0,-9
11870,-203,-70,129,64,0,-13
11875,-203,-72,129,65,-1,-9
11880,-201,-68,130,64,0,-10
11885,-205,-69,127,63,2,-11
11890,-201,-70,129,61,3,-11
11895,-198,-72,129,56,6,-9
11900,-201,-73,128,51,11,-9
11905,-200,-72,129,47,14,-10
11910,-202,-71,128,44,18,-10
11915,-201,-71,128,44,19,-12
11920,-202,-71,129,43,22,-11
11925,-204,-72,131,44,21,-9
11930,-200,-73,128,47,21,-11
11935,-203,-69,127,48,21,-12
11940,-192,-72,128,49,19,-13
11945,-200,-74,128,51,19,-12
11950,-203,-71,128,52,18,-11
11955,-202,-70,129,52,16,-10
11960,-202,-67,128,52,14,-12
11965,-204,-71,127,53,13,-14
11970,-202,-69,127,55,11,-14
11975,-206,-66,127,53,10,-13
11980,-203,-72,129,53,8,-14
11985,-201,-70,126,53,8,-11
11990,-200,-72,128,52,7,-11
11995,-200,-70,131,53,7,-10
12000,-204,-70,130,56,7,-8
12005,-203,-70,128,61,5,-6
12010,-203,-72,129,64,3,-5
12015,-202,-69,128,67,4,-3
12020,-200,-73,127,69,1,-4
12025,-201,-74,129,70,-1,-6
12030,-201,-75,131,71,-4,-6
12035,-202,-71,128,71,-6,-7
12040,-203,-74,128,70,-8,-6
12045,-205,-71,130,69,-8,-8
12050,-203,-72,122,69,-8,-7
12055,-206,-70,129,69,-6,-7
12060,-202,-68,126,69,-4,-5
12065,-202,-71,128,71,-3,-5
12070,-203,-71,130,73,0,-4
12075,-204,-70,130,75,1,-5
12080,-199,-72,128,74,4,-4
12085,-205,-69,127,72,6,-3
12090,-200,-71,133,71,5,-1
12095,-198,-67,130,71,8,-1
12100,-196,-71,136,67,10,-2
12105,-202,-67,129,63,12,-3
12110,-203,-70,131,61,13,-7
12115,-201,-71,131,56,12,-7
12120,-201,-68,129,55,13,-5
12125,-198,-70,132,54,12,-8
12130,-203,-67,127,53,11,-8
12135,-202,-71,130,53,9,-11
12140,-205,-66,131,53,8,-11
12145,-203,-69,129,54,6,-11
12150,-205,-72,128,56,5,-14
12155,-204,-76,129,58,4,-15
12160,-200,-72,131,59,3,-16
12165,-203,-70,126,62,2,-16
12170,-200,-73,129,64,1,-17
12175,-200,-70,130,65,2,-19
12180,-201,-71,129,64,2,-18
12185,-202,-69,132,63,3,-19
12190,-200,-69,127,61,3,-17
12195,-202,-69,130,62,1,-16
12200,-201,-72,131,62,1,-18
12205,-201,-69,128,60,1,-17
12210,-202,-70,129,59,1,-16
12215,-200,-72,129,58,2,-14
12220,-201,-71,128,58,1,-10
12225,-200,-67,134,58,1,-10
12230,-203,-70,130,59,2,-11
12235,-201,-67,130,61,-1,-12
12240,-200,-70,129,61,-2,-12
12245,-199,-69,128,62,-4,-13
12250,-204,-68,129,62,-7,-17
12255,-204,-68,132,62,-7,-17
12260,-200,-71,130,64,-6,-19
12265,-208,-73,128,64,-6,-18
12270,-202,-71,129,64,-5,-19
12275,-203,-71,127,64,-4,-19
12280,-204,-69,130,63,-3,-18
12285,-204,-71,127,61,-2,-18
12290,-206,-68,132,60,-1,-17
12295,-204,-69,131,59,0,-15
12300,-201,-67,130,59,0,-14
12305,-204,-68,129,60,1,-13
12310,-201,-71,131,61,0,-13
12315,-196,-69,135,62,0,-12
12320,-197,-69,134,63,1,-13
12325,-202,-70,127,66,2,-13
12330,-200,-72,130,68,3,-13
12335,-201,-69,128,69,2,-14
12340,-203,-71,129,70,2,-14
12345,-199,-72,129,72,1,-14
12350,-201,-72,127,71,2,-14
12355,-204,-71,131,71,1,-12
12360,-201,-72,129,72,0,-11
12365,-203,-72,129,70,0,-11
12370,-201,-67,130,70,1,-12
12375,-205,-73,132,67,1,-12
12380,-199,-70,132,62,1,-13
12385,-203,-68,131,59,4,-11
12390,-201,-73,133,58,6,-12
12395,-202,-71,131,59,7,-11
12400,-199,-71,131,60,7,-10
12405,-201,-69,132,61,8,-8
12410,-200,-69,132,63,9,-8
12415,-203,-70,131,64,8,-8
12420,-200,-70,127,61,8,-8
12425,-202,-67,129,61,9,-9
12430,-202,-72,136,60,8,-9
12435,-202,-67,131,57,9,-10
12440,-199,-70,133,57,10,-12
12445,-201,-69,130,56,10,-12
12450,-200,-71,129,55,10,-12
12455,-204,-67,128,55,11,-12
12460,-202,-68,130,54,10,-12
12465,-201,-73,132,54,10,-12
12470,-204,-71,131,54,10,-10
12475,-205,-68,128,52,10,-10
12480,-199,-69,131,51,9,-10
12485,-200,-65,133,52,10,-12
12490,-203,-70,132,51,11,-11
12495,-203,-69,132,50,9,-12
12500,-202,-69,128,49,8,-12
12505,-199,-71,130,48,9,-13
12510,-202,-73,131,47,10,-14
12515,-203,-72,129,47,9,-14
12520,-200,-71,131,45,8,-13
12525,-204,-71,132,45,8,-14
12530,-204,-68,132,45,8,-12
12535,-203,-72,131,43,8,-11
12540,-203,-71,130,42,9,-12
12545,-200,-72,130,42,9,-12
12550,-201,-67,132,41,11,-10
12555,-203,-69,129,41,13,-10
12560,-201,-70,130,40,14,-11
12565,-202,-72,131,42,16,-12
12570,-198,-70,127,43,16,-11
12575,-201,-71,131,44,18,-9
12580,-201,-69,130,43,18,-11
12585,-202,-69,132,43,18,-13
12590,-198,-73,137,42,18,-13
12595,-199,-70,128,42,17,-15
12600,-200,-72,126,43,17,-18
12605,-202,-71,127,42,17,-16
12610,-201,-71,131,43,18,-15
12615,-203,-69,130,44,18,-16
12620,-202,-71,129,45,18,-16
12625,-201,-67,131,47,19,-15
12630,-199,-70,132,48,19,-11
12635,-200,-72,129,48,19,-9
12640,-201,-70,131,47,19,-8
12645,-197,-71,129,44,20,-8
12650,-202,-67,128,41,19,-8
12655,-199,-71,128,39,19,-11
12660,-199,-71,130,36,19,-11
12665,-201,-71,129,36,18,-14
12670,-199,-73,131,35,17,-14
12675,-202,-70,131,37,16,-17
12680,-201,-67,128,38,16,-16
12685,-201,-73,131,39,16,-17
12690,-203,-69,128,38,15,-15
12695,-199,-69,128,40,16,-15
12700,-200,-71,130,41,17,-16
12705,-199,-70,129,42,15,-15
12710,-203,-68,129,42,17,-16
12715,-201,-68,131,43,19,-17
12720,-205,-68,130,43,20,-16
12725,-206,-69,128,41,20,-15
12730,-201,-71,132,39,19,-14
12735,-205,-73,129,37,19,-12
12740,-202,-74,128,40,20,-10
12745,-200,-73,130,41,20,-10
12750,-202,-72,129,44,18,-8
12755,-204,-75,127,45,16,-6
12760,-201,-70,129,47,16,-7
12765,-199,-71,131,46,14,-7
12770,-202,-71,131,47,13,-7
12775,-201,-70,129,45,12,-7
12780,-201,-69,128,45,13,-8
12785,-202,-70,130,44,11,-7
12790,-201,-68,126,46,11,-6
12795,-203,-71,130,46,12,-6
12800,-199,-73,130,46,12,-7
12805,-202,-69,132,45,12,-6
12810,-200,-72,131,44,13,-6
12815,-201,-70,129,44,15,-6
12820,-202,-68,131,44,17,-7
12825,-198,-71,132,43,18,-6
12830,-201,-68,129,41,20,-6
12835,-199,-68,133,41,20,-7
12840,-198,-69,132,39,21,-7
12845,-200,-73,134,36,21,-4
12850,-198,-70,130,36,21,-6
12855,-203,-70,132,34,19,-5
12860,-200,-65,130,31,19,-5
12865,-201,-69,122,29,18,-8
12870,-199,-74,129,27,17,-8
12875,-201,-70,129,27,16,-11
12880,-202,-72,131,27,16,-12
12885,-202,-72,131,27,18,-12
12890,-201,-73,128,30,19,-14
12895,-201,-72,129,32,18,-16
12900,-203,-69,130,33,17,-14
12905,-204,-73,131,34,18,-14
12910,-201,-69,130,34,17,-15
12915,-198,-69,130,33,16,-13
12920,-202,-62,127,33,16,-14
12925,-202,-69,128,34,17,-12
12930,-200,-73,128,34,16,-12
12935,-203,-72,130,34,15,-14
12940,-203,-69,131,35,14,-14
12945,-200,-69,129,32,15,-14
12950,-201,-70,131,30,16,-13
12955,-202,-74,127,31,17,-13
12960,-203,-71,129,33,19,-13
12965,-204,-70,129,36,21,-13
12970,-203,-70,128,38,21,-14
12975,-199,-71,124,41,20,-14
12980,-203,-68,131,45,21,-15
12985,-199,-73,132,44,19,-13
12990,-201,-69,130,43,17,-12
12995,-200,-73,129,42,15,-11
13000,-199,-72,130,39,15,-11
13005,-203,-72,129,38,15,-11
13010,-202,-69,131,37,13,-11
13015,-201,-72,129,36,13,-12
13020,-199,-72,126,35,13,-13
13025,-200,-72,128,37,15,-15
13030,-198,-72,125,39,17,-14
13035,-200,-70,129,44,19,-14
13040,-204,-68,131,47,20,-12
13045,-202,-70,129,48,20,-13
13050,-201,-71,126,50,18,-12
13055,-201,-71,131,50,19,-13
13060,-203,-69,132,49,16,-13
13065,-199,-70,128,48,15,-13
13070,-198,-70,128,46,13,-13
13075,-200,-71,127,46,12,-12
13080,-204,-71,127,46,10,-13
13085,-200,-71,129,47,10,-12
13090,-203,-70,131,49,9,-12
13095,-203,-67,133,48,7,-11
13100,-201,-72,130,49,5,-11
13105,-201,-71,130,50,6,-11
13110,-202,-74,129,51,6,-11
13115,-202,-71,127,53,6,-11
13120,-204,-72,126,54,8,-11
13125,-201,-72,134,56,8,-10
13130,-206,-71,131,55,9,-12
13135,-205,-71,134,56,11,-12
13140,-204,-71,129,56,13,-10
13145,-202,-69,131,57,14,-10
13150,-201,-72,130,58,16,-10
13155,-200,-70,129,58,15,-9
13160,-200,-73,129,57,15,-9
13165,-204,-69,131,55,15,-9
13170,-201,-72,128,55,14,-9
13175,-200,-71,127,56,13,-9
13180,-194,-75,130,54,11,-8
13185,-199,-71,129,55,10,-9
13190,-204,-73,131,56,10,-8
13195,-202,-69,129,55,8,-11
13200,-200,-71,129,56,6,-9
13205,-202,-70,128,56,6,-11
13210,-204,-70,132,57,7,-11
13215,-201,-69,129,57,7,-10
13220,-202,-71,128,57,7,-13
13225,-204,-71,130,57,7,-11
13230,-201,-67,129,56,7,-12
13235,-201,-68,128,56,7,-13
13240,-203,-71,134,55,8,-14
13245,-199,-77,126,54,10,-14
13250,-199,-72,128,53,10,-14
13255,-199,-68,127,54,12,-14
13260,-205,-70,131,54,12,-14
13265,-201,-73,128,57,14,-13
13270,-203,-68,127,59,14,-12
13275,-200,-70,129,61,12,-13
13280,-202,-72,128,61,11,-13
13285,-203,-72,129,61,11,-12
13290,-203,-70,128,58,10,-10
13295,-201,-72,130,56,9,-11
13300,-190,-70,130,55,7,-12
13305,-201,-72,128,54,6,-13
13310,-202,-70,130,54,6,-13
13315,-201,-71,130,54,9,-14
13320,-200,-73,127,55,6,-15
13325,-201,-72,131,57,7,-15
13330,-204,-71,127,56,6,-15
13335,-200,-75,129,57,7,-16
13340,-201,-74,127,57,7,-17
13345,-201,-72,130,57,9,-14
13350,-197,-71,128,58,9,-12
13355,-201,-70,128,61,10,-11
13360,-201,-69,126,61,10,-10
13365,-203,-70,128,61,10,-11
13370,-202,-73,130,62,9,-13
13375,-202,-74,129,63,7,-12
13380,-202,-68,129,62,5,-11
13385,-204,-71,133,61,5,-11
13390,-199,-73,128,61,5,-10
13395,-202,-75,128,60,4,-8
13400,-201,-72,131,58,4,-7
13405,-203,-70,129,59,6,-7
13410,-199,-67,128,58,6,-6
13415,-200,-72,132,57,8,-8
13420,-201,-68,129,53,9,-10
13425,-201,-67,130,53,10,-7
13430,-200,-71,129,53,9,-10
13435,-201,-71,130,52,9,-11
13440,-200,-70,129,53,8,-15
13445,-202,-72,128,55,8,-15
13450,-202,-67,129,56,8,-13
13455,-202,-71,129,57,8,-13
13460,-202,-71,128,56,8,-14
13465,-201,-70,122,56,9,-12
13470,-201,-68,130,57,7,-11
13475,-202,-70,131,57,9,-10
13480,-201,-71,129,58,7,-11
13485,-202,-68,133,58,4,-13
13490,-202,-69,134,60,4,-12
13495,-201,-71,130,61,5,-10
13500,-200,-72,132,62,4,-10
13505,-201,-71,130,61,4,-9
13510,-201,-70,132,61,5,-9
13515,-201,-73,133,59,3,-8
13520,-202,-73,127,63,4,-6
13525,-198,-73,129,65,4,-7
13530,-203,-70,130,66,1,-6
13535,-203,-70,130,67,0,-6
13540,-200,-70,131,67,-1,-8
13545,-202,-73,132,68,-3,-7
13550,-205,-71,128,69,-3,-8
13555,-200,-72,127,69,-4,-9
13560,-203,-72,129,71,-6,-8
13565,-203,-72,130,72,-6,-7
13570,-201,-68,125,74,-3,-8
13575,-201,-73,130,74,-5,-7
13580,-201,-70,131,73,-3,-6
13585,-204,-68,130,72,1,-5
13590,-201,-71,131,73,2,-6
13595,-201,-68,130,69,5,-5
13600,-199,-71,132,68,7,-6
13605,-201,-71,132,66,8,-5
13610,-202,-70,134,64,10,-4
13615,-198,-72,131,62,13,-4
13620,-203,-68,131,61,12,-3
13625,-199,-69,139,58,12,-4
13630,-200,-65,130,57,12,-5
13635,-198,-73,132,58,11,-6
13640,-197,-71,130,58,9,-6
13645,-199,-68,133,58,9,-7
13650,-201,-66,132,59,9,-9
13655,-201,-68,129,59,7,-10
13660,-200,-73,134,62,7,-10
13665,-203,-68,125,64,7,-14
13670,-198,-71,132,65,7,-14
13675,-202,-69,129,63,6,-16
13680,-195,-75,131,64,6,-16
13685,-200,-68,129,64,5,-17
13690,-203,-70,131,63,5,-17
13695,-200,-71,132,63,5,-15
13700,-202,-68,129,60,6,-14
13705,-199,-71,130,57,6,-15
13710,-200,-69,131,55,6,-14
13715,-199,-71,126,54,7,-14
13720,-200,-68,128,54,9,-15
13725,-199,-72,134,52,11,-15
13730,-202,-72,129,53,10,-15
13735,-204,-71,130,54,10,-14
13740,-198,-70,129,54,11,-13
13745,-200,-69,131,55,10,-14
13750,-201,-68,129,59,10,-12
13755,-199,-71,130,59,8,-11
13760,-203,-71,130,61,7,-12
13765,-198,-72,130,64,8,-12
13770,-200,-69,131,64,6,-10
13775,-198,-69,132,66,5,-9
13780,-199,-70,130,66,4,-11
13785,-197,-68,135,65,5,-12
13790,-193,-63,124,63,4,-11
13795,-200,-70,131,61,4,-11
13800,-203,-72,129,61,5,-13
13805,-201,-71,128,59,5,-14
13810,-197,-71,128,60,4,-13
13815,-200,-70,129,60,3,-14
13820,-201,-69,129,59,3,-15
13825,-200,-72,128,58,3,-13
13830,-200,-68,129,57,2,-14
13835,-202,-69,133,57,4,-14
13840,-205,-69,130,58,2,-16
13845,-203,-67,129,62,2,-13
13850,-199,-68,129,64,1,-14
13855,-200,-69,130,65,1,-14
13860,-204,-70,135,67,2,-15
13865,-201,-70,131,69,3,-14
13870,-199,-71,128,69,2,-14
13875,-202,-73,131,70,0,-14
13880,-199,-77,133,67,-3,-13
13885,-203,-72,130,66,-3,-12
13890,-203,-69,131,65,-1,-12
13895,-201,-71,134,64,1,-10
13900,-203,-71,130,65,1,-11
13905,-203,-68,132,64,4,-10
13910,-202,-73,133,64,5,-9
13915,-201,-70,130,65,5,-9
13920,-200,-72,131,63,6,-10
13925,-199,-72,130,64,6,-10
13930,-201,-71,131,62,8,-10
13935,-204,-69,130,62,10,-6
13940,-202,-67,130,60,11,-8
13945,-198,-70,134,58,10,-6
13950,-202,-65,129,57,11,-6
13955,-199,-72,134,56,11,-8
13960,-198,-71,133,54,12,-10
13965,-200,-71,132,52,12,-10
13970,-197,-70,132,52,13,-9
13975,-201,-70,131,52,13,-10
13980,-200,-74,130,52,11,-9
13985,-200,-69,132,51,11,-11
13990,-202,-68,131,52,11,-11
13995,-204,-68,130,53,13,-12
14000,-199,-70,130,53,13,-12
14005,-194,-69,131,53,12,-12
14010,-202,-67,129,54,13,-12
14015,-205,-70,134,54,13,-12
14020,-200,-70,130,56,13,-10
14025,-200,-69,131,56,13,-10
14030,-200,-70,130,55,11,-12
14035,-196,-72,131,54,11,-10
14040,-197,-73,131,53,10,-10
14045,-199,-66,130,51,11,-12
14050,-201,-71,131,51,11,-11
14055,-199,-73,130,50,9,-13
14060,-202,-71,135,52,9,-10
14065,-200,-68,127,51,9,-14
14070,-199,-71,130,51,9,-13
14075,-199,-71,133,51,9,-15
14080,-200,-68,131,49,7,-13
14085,-199,-70,128,48,10,-13
14090,-200,-69,129,48,11,-13
14095,-203,-71,127,48,12,-14
14100,-202,-71,131,48,13,-14
14105,-201,-71,133,50,14,-14
14110,-197,-74,129,50,14,-14
14115,-198,-73,131,51,13,-14
14120,-203,-72,130,51,12,-13
14125,-200,-70,129,52,12,-11
14130,-203,-72,128,52,11,-10
14135,-198,-74,135,51,11,-10
14140,-202,-71,133,52,10,-11
14145,-201,-69,132,50,10,-12
14150,-200,-73,130,49,11,-13
14155,-203,-68,128,49,12,-14
14160,-202,-69,133,50,13,-14
14165,-199,-71,129,51,11,-15
14170,-201,-72,131,53,12,-16
14175,-200,-72,131,53,12,-15
14180,-200,-70,133,52,11,-14
14185,-197,-71,133,53,10,-14
14190,-199,-69,134,53,12,-13
14195,-202,-70,129,52,11,-13
14200,-201,-69,131,53,13,-14
14205,-204,-74,132,52,18,-9
14210,-201,-77,134,49,21,-8
14215,-206,-75,129,50,27,-4
14220,-201,-79,132,53,33,-2
14225,-206,-68,131,56,39,0
14230,-208,-76,128,62,46,2
14235,-205,-77,129,71,52,6
14240,-207,-75,131,82,59,8
14245,-209,-71,127,95,64,9
14250,-207,-71,127,108,64,12
14255,-204,-68,131,119,63,13
14260,-203,-72,128,130,58,7
14265,-203,-67,128,139,50,2
14270,-202,-65,124,149,40,-2
14275,-197,-65,130,154,27,-10
14280,-195,-61,131,155,11,-18
14285,-193,-60,130,149,-6,-28
14290,-191,-58,130,138,-24,-33
14295,-191,-57,136,121,-41,-38
14300,-190,-54,138,100,-58,-40
14305,-190,-56,135,75,-74,-41
14310,-191,-55,136,52,-87,-42
14315,-189,-61,133,31,-96,-45
14320,-193,-63,133,11,-105,-48
14325,-195,-63,138,-8,-110,-53
14330,-195,-64,135,-23,-111,-55
14335,-200,-69,130,-33,-111,-55
14340,-197,-69,131,-40,-107,-53
14345,-196,-69,131,-45,-112,-54
14350,-201,-72,135,-51,-112,-50
14355,-202,-76,136,-55,-96,-40
14360,-201,-79,134,-53,-76,-32
14365,-202,-81,131,-50,-56,-26
14370,-205,-80,134,-48,-35,-17
14375,-204,-79,133,-45,-11,-7
14380,-203,-83,133,-43,12,3
14385,-204,-83,135,-39,32,11
14390,-199,-83,139,-36,50,21
14395,-202,-86,134,-31,64,27
14400,-203,-82,130,-23,77,31
14405,-202,-83,133,-17,89,38
14410,-203,-83,132,-10,97,40
14415,-203,-83,133,0,106,43
14420,-201,-85,130,13,111,46
14425,-200,-82,130,27,114,47
14430,-199,-80,132,40,116,48
14435,-201,-80,126,53,116,49
14440,-201,-74,130,65,115,54
14445,-195,-82,127,76,112,57
14450,-200,-73,129,87,106,58
14455,-195,-73,128,96,96,57
14460,-198,-71,134,102,88,54
14465,-199,-67,127,104,78,49
14470,-198,-68,130,104,66,46
14475,-201,-64,126,107,55,38
14480,-200,-64,130,109,44,30
14485,-200,-65,124,114,33,22
14490,-201,-62,120,121,23,9
14495,-203,-64,126,128,15,-2
14500,-202,-55,129,134,6,-10
14505,-203,-64,127,139,-2,-19
14510,-204,-62,128,145,-8,-27
14515,-206,-60,125,147,-14,-31
14520,-206,-64,130,138,-17,-36
14525,-207,-64,131,141,-21,-41
14530,-207,-62,123,141,-21,-45
14535,-207,-64,128,137,-21,-46
14540,-207,-63,127,129,-20,-48
14545,-208,-62,126,119,-18,-54
14550,-207,-63,126,106,-16,-57
14555,-203,-69,132,94,-13,-59
14560,-206,-65,133,83,-12,-61
14565,-205,-65,131,75,-13,-65
14570,-202,-66,133,70,-13,-67
14575,-204,-65,130,63,-13,-67
14580,-202,-68,134,60,-13,-65
14585,-202,-68,134,56,-13,-65
14590,-198,-72,135,57,-15,-63
14595,-206,-66,129,58,-16,-61
14600,-200,-69,133,58,-21,-60
14605,-204,-64,137,59,-24,-56
14610,-201,-67,129,59,-26,-54
14615,-200,-68,135,55,-30,-52
14620,-199,-70,138,52,-33,-49
14625,-198,-70,133,48,-35,-45
14630,-198,-73,134,43,-37,-46
14635,-199,-72,133,41,-37,-41
14640,-195,-73,135,39,-37,-37
14645,-195,-73,133,36,-36,-36
14650,-196,-76,134,37,-34,-31
14655,-195,-72,135,37,-32,-27
14660,-195,-76,134,39,-29,-24
14665,-198,-74,130,39,-27,-18
14670,-196,-72,132,43,-26,-17
14675,-193,-75,133,45,-23,-14
14680,-196,-73,133,47,-21,-11
14685,-196,-71,131,47,-18,-10
14690,-195,-74,134,49,-16,-8
14695,-195,-73,129,50,-14,-7
14700,-196,-75,130,51,-11,-7
14705,-193,-75,133,50,-10,-4
14710,-193,-73,137,53,-9,-3
14715,-195,-74,137,53,-8,-2
14720,-197,-73,132,55,-6,-1
14725,-197,-71,131,56,-5,0
14730,-196,-71,132,58,-4,-1
14735,-194,-70,129,57,-3,0
14740,-196,-70,133,56,0,3
14745,-197,-69,130,55,1,1
14750,-196,-73,132,54,5,4
14755,-196,-74,134,55,7,4
14760,-200,-69,132,55,11,6
14765,-197,-74,131,56,14,5
14770,-200,-67,134,58,18,5
14775,-199,-69,132,58,20,6
14780,-197,-68,131,59,24,4
14785,-199,-66,132,59,26,5
14790,-201,-70,134,59,29,6
14795,-197,-71,133,57,30,4
14800,-199,-67,136,56,31,3
14805,-201,-69,135,54,34,1
14810,-201,-71,132,50,35,0
14815,-202,-67,134,48,37,0
14820,-201,-70,135,45,38,-1
14825,-202,-74,134,45,41,-2
14830,-198,-72,134,43,43,-4
14835,-202,-69,132,44,43,-5
14840,-202,-68,133,44,45,-8
14845,-203,-67,132,44,46,-6
14850,-199,-70,137,43,48,-6
14855,-204,-66,132,43,49,-6
14860,-198,-70,134,41,48,-6
14865,-203,-70,132,40,46,-5
14870,-199,-68,131,39,45,-6
14875,-199,-67,131,37,45,-8
14880,-203,-64,129,36,43,-7
14885,-198,-69,133,35,41,-9
14890,-201,-67,133,34,37,-9
14895,-196,-69,130,33,32,-11
14900,-197,-73,134,34,30,-12
14905,-197,-66,131,34,27,-13
14910,-200,-68,135,34,25,-13
14915,-199,-68,136,36,23,-12
14920,-199,-70,133,37,20,-13
14925,-201,-66,132,35,18,-13
14930,-200,-66,132,35,15,-14
14935,-204,-67,134,34,14,-15
14940,-197,-68,132,32,12,-17
14945,-201,-68,132,31,10,-15
14950,-199,-70,136,28,8,-17
14955,-204,-65,130,25,6,-19
14960,-200,-70,130,21,4,-20
14965,-199,-70,131,17,5,-20
14970,-198,-70,135,16,3,-19
14975,-199,-68,131,14,3,-19
14980,-202,-71,133,13,3,-20
14985,-200,-72,132,11,4,-18
14990,-201,-73,132,10,5,-17
14995,-201,-69,130,9,4,-15
